trials_fam.thisRepN,trials_fam.thisTrialN,trials_fam.thisN,trials_fam.thisIndex,trials_prc.thisRepN,trials_prc.thisTrialN,trials_prc.thisN,trials_prc.thisIndex,StudyLoop.thisRepN,StudyLoop.thisTrialN,StudyLoop.thisN,StudyLoop.thisIndex,TestLoop.thisRepN,TestLoop.thisTrialN,TestLoop.thisN,TestLoop.thisIndex,text_colortest.started,text_colortest.stopped,key_colortest.keys,key_colortest.rt,key_colortest.started,key_colortest.stopped,textCondition.started,textCondition.stopped,keyCondition.keys,keyCondition.rt,keyCondition.started,keyCondition.stopped,Condition_between,Condition_counterbal,keyWelcome.keys,keyWelcome.rt,keyWelcome.started,keyWelcome.stopped,welcome_a.started,welcome_a.stopped,welcome_b.started,welcome_b.stopped,welcome_c.started,welcome_c.stopped,welcome_d.started,welcome_d.stopped,welcome_e.started,welcome_e.stopped,welcome_f.started,welcome_f.stopped,key_resp_fam_inst.keys,key_resp_fam_inst.rt,key_resp_fam_inst.started,key_resp_fam_inst.stopped,fam_a.started,fam_a.stopped,fam_b.started,fam_b.stopped,fam_c.started,fam_c.stopped,fam_d.started,fam_d.stopped,fam_e.started,fam_e.stopped,fam_f.started,fam_f.stopped,text_famil.started,text_famil.stopped,textBlank500.started,textBlank500.stopped,key_resp_prc_inst.keys,key_resp_prc_inst.rt,key_resp_prc_inst.started,key_resp_prc_inst.stopped,prac_a.started,prac_a.stopped,prac_b.started,prac_b.stopped,prac_c.started,prac_c.stopped,prac_d.started,prac_d.stopped,prac_e.started,prac_e.stopped,prac_f.started,prac_f.stopped,text_prc_trial.started,text_prc_trial.stopped,key_resp_study_inst.keys,key_resp_study_inst.rt,key_resp_study_inst.started,key_resp_study_inst.stopped,crit_a.started,crit_a.stopped,crit_b.started,crit_b.stopped,crit_c.started,crit_c.stopped,crit_d.started,crit_d.stopped,crit_e.started,crit_e.stopped,crit_f.started,crit_f.stopped,study_word,study_num,study_order,study_type,word_color,textStudy.started,textStudy.stopped,keyStudy.keys,keyStudy.started,keyStudy.stopped,post_study.started,post_study.stopped,key_resp_post_study.keys,key_resp_post_study.rt,key_resp_post_study.started,key_resp_post_study.stopped,test_inst.started,test_inst.stopped,key_resp_test_inst.keys,key_resp_test_inst.rt,key_resp_test_inst.started,key_resp_test_inst.stopped,test_word,test_num,test_order,test_condition,old_new_test,word_color_test,textConf.started,textConf.stopped,Participant Response,textInput.started,textInput.stopped,keyResp.keys,keyResp.rt,keyResp.started,keyResp.stopped,textEnd.started,textEnd.stopped,participant,session,date,expName,psychopyVersion,frameRate,
,,,,,,,,,,,,,,,,14.29827200062573,None,y,0.73407750017941,14.29827200062573,None,,,,,,,,,,,,,,,,,,,,,,,,,,,,,,,,,,,,,,,,,,,,,,,,,,,,,,,,,,,,,,,,,,,,,,,,,,,,,,,,,,,,,,,,,,,,,,,,,,,,,,,,,,,,,,,,,,,,,,52,001,2023_Apr_24_1117,ExactRep-v3-final,2021.2.3,59.83795885531239,
,,,,,,,,,,,,,,,,,,,,,,15.048738900572062,None,d,0.3513535996899009,15.048738900572062,None,,,,,,,,,,,,,,,,,,,,,,,,,,,,,,,,,,,,,,,,,,,,,,,,,,,,,,,,,,,,,,,,,,,,,,,,,,,,,,,,,,,,,,,,,,,,,,,,,,,,,,,,,,,,,,,,52,001,2023_Apr_24_1117,ExactRep-v3-final,2021.2.3,59.83795885531239,
,,,,,,,,,,,,,,,,,,,,,,,,,,,,colorfoils,d,space,196.90021979995072,25.51605259999633,None,,,,,,,,,,,,,,,,,,,,,,,,,,,,,,,,,,,,,,,,,,,,,,,,,,,,,,,,,,,,,,,,,,,,,,,,,,,,,,,,,,,,,,,,,,,,,,,,,,,,,,,,,,52,001,2023_Apr_24_1117,ExactRep-v3-final,2021.2.3,59.83795885531239,
,,,,,,,,,,,,,,,,,,,,,,,,,,,,,,,,,,15.569780100136995,None,15.569780100136995,None,15.569780100136995,None,15.569780100136995,None,15.569780100136995,None,15.569780100136995,None,space,19.91097309999168,232.6332571003586,None,,,,,,,,,,,,,,,,,,,,,,,,,,,,,,,,,,,,,,,,,,,,,,,,,,,,,,,,,,,,,,,,,,,,,,,,,,,,,,,,,,,,,,,,,,52,001,2023_Apr_24_1117,ExactRep-v3-final,2021.2.3,59.83795885531239,
0,0,0,0,,,,,,,,,,,,,,,,,,,,,,,,,,,,,,,,,,,,,,,,,,,,,,,222.61486560013145,None,222.61486560013145,None,222.61486560013145,None,222.61486560013145,None,222.61486560013145,None,222.61486560013145,None,252.67027360014617,None,254.65495640039444,None,,,,,,,,,,,,,,,,,,,,,,,,,,,,,,,,,,,,,,,,,,,,,,,,,,,,,,,,,,,,,,,,,,,,,,,,,,52,001,2023_Apr_24_1117,ExactRep-v3-final,2021.2.3,59.83795885531239,
1,0,1,0,,,,,,,,,,,,,,,,,,,,,,,,,,,,,,,,,,,,,,,,,,,,,,,,,,,,,,,,,,,255.1674844007939,None,257.1741682002321,None,,,,,,,,,,,,,,,,,,,,,,,,,,,,,,,,,,,,,,,,,,,,,,,,,,,,,,,,,,,,,,,,,,,,,,,,,,52,001,2023_Apr_24_1117,ExactRep-v3-final,2021.2.3,59.83795885531239,
2,0,2,0,,,,,,,,,,,,,,,,,,,,,,,,,,,,,,,,,,,,,,,,,,,,,,,,,,,,,,,,,,,257.67615499999374,None,259.67647420056164,None,,,,,,,,,,,,,,,,,,,,,,,,,,,,,,,,,,,,,,,,,,,,,,,,,,,,,,,,,,,,,,,,,,,,,,,,,,52,001,2023_Apr_24_1117,ExactRep-v3-final,2021.2.3,59.83795885531239,
3,0,3,0,,,,,,,,,,,,,,,,,,,,,,,,,,,,,,,,,,,,,,,,,,,,,,,,,,,,,,,,,,,260.1771050002426,None,262.17917960043997,None,,,,,,,,,,,,,,,,,,,,,,,,,,,,,,,,,,,,,,,,,,,,,,,,,,,,,,,,,,,,,,,,,,,,,,,,,,52,001,2023_Apr_24_1117,ExactRep-v3-final,2021.2.3,59.83795885531239,
4,0,4,0,,,,,,,,,,,,,,,,,,,,,,,,,,,,,,,,,,,,,,,,,,,,,,,,,,,,,,,,,,,262.6903524007648,None,264.6983515005559,None,,,,,,,,,,,,,,,,,,,,,,,,,,,,,,,,,,,,,,,,,,,,,,,,,,,,,,,,,,,,,,,,,,,,,,,,,,52,001,2023_Apr_24_1117,ExactRep-v3-final,2021.2.3,59.83795885531239,
5,0,5,0,,,,,,,,,,,,,,,,,,,,,,,,,,,,,,,,,,,,,,,,,,,,,,,,,,,,,,,,,,,265.19895619992167,None,267.2006550002843,None,,,,,,,,,,,,,,,,,,,,,,,,,,,,,,,,,,,,,,,,,,,,,,,,,,,,,,,,,,,,,,,,,,,,,,,,,,52,001,2023_Apr_24_1117,ExactRep-v3-final,2021.2.3,59.83795885531239,
6,0,6,0,,,,,,,,,,,,,,,,,,,,,,,,,,,,,,,,,,,,,,,,,,,,,,,,,,,,,,,,,,,267.7009331006557,None,269.703327300027,None,,,,,,,,,,,,,,,,,,,,,,,,,,,,,,,,,,,,,,,,,,,,,,,,,,,,,,,,,,,,,,,,,,,,,,,,,,52,001,2023_Apr_24_1117,ExactRep-v3-final,2021.2.3,59.83795885531239,
7,0,7,0,,,,,,,,,,,,,,,,,,,,,,,,,,,,,,,,,,,,,,,,,,,,,,,,,,,,,,,,,,,270.20610710047185,None,272.20584170054644,None,,,,,,,,,,,,,,,,,,,,,,,,,,,,,,,,,,,,,,,,,,,,,,,,,,,,,,,,,,,,,,,,,,,,,,,,,,52,001,2023_Apr_24_1117,ExactRep-v3-final,2021.2.3,59.83795885531239,
8,0,8,0,,,,,,,,,,,,,,,,,,,,,,,,,,,,,,,,,,,,,,,,,,,,,,,,,,,,,,,,,,,272.7064805002883,None,274.70820470061153,None,,,,,,,,,,,,,,,,,,,,,,,,,,,,,,,,,,,,,,,,,,,,,,,,,,,,,,,,,,,,,,,,,,,,,,,,,,52,001,2023_Apr_24_1117,ExactRep-v3-final,2021.2.3,59.83795885531239,
9,0,9,0,,,,,,,,,,,,,,,,,,,,,,,,,,,,,,,,,,,,,,,,,,,,,,,,,,,,,,,,,,,275.2089982004836,None,277.210886400193,None,,,,,,,,,,,,,,,,,,,,,,,,,,,,,,,,,,,,,,,,,,,,,,,,,,,,,,,,,,,,,,,,,,,,,,,,,,52,001,2023_Apr_24_1117,ExactRep-v3-final,2021.2.3,59.83795885531239,
10,0,10,0,,,,,,,,,,,,,,,,,,,,,,,,,,,,,,,,,,,,,,,,,,,,,,,,,,,,,,,,,,,277.71192310005426,None,279.7134832004085,None,,,,,,,,,,,,,,,,,,,,,,,,,,,,,,,,,,,,,,,,,,,,,,,,,,,,,,,,,,,,,,,,,,,,,,,,,,52,001,2023_Apr_24_1117,ExactRep-v3-final,2021.2.3,59.83795885531239,
11,0,11,0,,,,,,,,,,,,,,,,,,,,,,,,,,,,,,,,,,,,,,,,,,,,,,,,,,,,,,,,,,,280.21403330005705,None,282.2158791003749,None,,,,,,,,,,,,,,,,,,,,,,,,,,,,,,,,,,,,,,,,,,,,,,,,,,,,,,,,,,,,,,,,,,,,,,,,,,52,001,2023_Apr_24_1117,ExactRep-v3-final,2021.2.3,59.83795885531239,
12,0,12,0,,,,,,,,,,,,,,,,,,,,,,,,,,,,,,,,,,,,,,,,,,,,,,,,,,,,,,,,,,,282.71634540054947,None,284.71836230065674,None,,,,,,,,,,,,,,,,,,,,,,,,,,,,,,,,,,,,,,,,,,,,,,,,,,,,,,,,,,,,,,,,,,,,,,,,,,52,001,2023_Apr_24_1117,ExactRep-v3-final,2021.2.3,59.83795885531239,
13,0,13,0,,,,,,,,,,,,,,,,,,,,,,,,,,,,,,,,,,,,,,,,,,,,,,,,,,,,,,,,,,,285.22077650018036,None,287.22083960007876,None,,,,,,,,,,,,,,,,,,,,,,,,,,,,,,,,,,,,,,,,,,,,,,,,,,,,,,,,,,,,,,,,,,,,,,,,,,52,001,2023_Apr_24_1117,ExactRep-v3-final,2021.2.3,59.83795885531239,
14,0,14,0,,,,,,,,,,,,,,,,,,,,,,,,,,,,,,,,,,,,,,,,,,,,,,,,,,,,,,,,,,,287.72138570062816,None,289.7233652006835,None,,,,,,,,,,,,,,,,,,,,,,,,,,,,,,,,,,,,,,,,,,,,,,,,,,,,,,,,,,,,,,,,,,,,,,,,,,52,001,2023_Apr_24_1117,ExactRep-v3-final,2021.2.3,59.83795885531239,
,,,,,,,,,,,,,,,,,,,,,,,,,,,,,,,,,,,,,,,,,,,,,,,,,,,,,,,,,,,,,,,,,,space,27.594665200449526,300.3257719008252,None,,,,,,,,,,,,,,,,,,,,,,,,,,,,,,,,,,,,,,,,,,,,,,,,,,,,,,,,,,,,,,,,,,,,,,52,001,2023_Apr_24_1117,ExactRep-v3-final,2021.2.3,59.83795885531239,
,,,,0,0,0,0,,,,,,,,,,,,,,,,,,,,,,,,,,,,,,,,,,,,,,,,,,,,,,,,,,,,,,,,,329.9803036004305,None,,,,,290.34094160050154,None,290.34094160050154,None,290.34094160050154,None,290.34094160050154,None,290.34094160050154,None,290.34094160050154,None,327.97564630024135,None,,,,,,,,,,,,,,,,,,,,,,,,,,,,,,,,,,,,,,,,,,,,,,,,,,,,,,,,52,001,2023_Apr_24_1117,ExactRep-v3-final,2021.2.3,59.83795885531239,
,,,,1,0,1,0,,,,,,,,,,,,,,,,,,,,,,,,,,,,,,,,,,,,,,,,,,,,,,,,,,,,,,,,,332.48285360075533,None,,,,,,,,,,,,,,,,,330.48063890077174,None,,,,,,,,,,,,,,,,,,,,,,,,,,,,,,,,,,,,,,,,,,,,,,,,,,,,,,,,52,001,2023_Apr_24_1117,ExactRep-v3-final,2021.2.3,59.83795885531239,
,,,,2,0,2,0,,,,,,,,,,,,,,,,,,,,,,,,,,,,,,,,,,,,,,,,,,,,,,,,,,,,,,,,,334.98525100015104,None,,,,,,,,,,,,,,,,,332.98336820024997,None,,,,,,,,,,,,,,,,,,,,,,,,,,,,,,,,,,,,,,,,,,,,,,,,,,,,,,,,52,001,2023_Apr_24_1117,ExactRep-v3-final,2021.2.3,59.83795885531239,
,,,,3,0,3,0,,,,,,,,,,,,,,,,,,,,,,,,,,,,,,,,,,,,,,,,,,,,,,,,,,,,,,,,,337.4877903005108,None,,,,,,,,,,,,,,,,,335.4858325002715,None,,,,,,,,,,,,,,,,,,,,,,,,,,,,,,,,,,,,,,,,,,,,,,,,,,,,,,,,52,001,2023_Apr_24_1117,ExactRep-v3-final,2021.2.3,59.83795885531239,
,,,,4,0,4,0,,,,,,,,,,,,,,,,,,,,,,,,,,,,,,,,,,,,,,,,,,,,,,,,,,,,,,,,,339.9902790002525,None,,,,,,,,,,,,,,,,,337.9883481999859,None,,,,,,,,,,,,,,,,,,,,,,,,,,,,,,,,,,,,,,,,,,,,,,,,,,,,,,,,52,001,2023_Apr_24_1117,ExactRep-v3-final,2021.2.3,59.83795885531239,
,,,,5,0,5,0,,,,,,,,,,,,,,,,,,,,,,,,,,,,,,,,,,,,,,,,,,,,,,,,,,,,,,,,,342.4929480003193,None,,,,,,,,,,,,,,,,,340.4904837999493,None,,,,,,,,,,,,,,,,,,,,,,,,,,,,,,,,,,,,,,,,,,,,,,,,,,,,,,,,52,001,2023_Apr_24_1117,ExactRep-v3-final,2021.2.3,59.83795885531239,
,,,,6,0,6,0,,,,,,,,,,,,,,,,,,,,,,,,,,,,,,,,,,,,,,,,,,,,,,,,,,,,,,,,,344.99525350052863,None,,,,,,,,,,,,,,,,,342.99311740044504,None,,,,,,,,,,,,,,,,,,,,,,,,,,,,,,,,,,,,,,,,,,,,,,,,,,,,,,,,52,001,2023_Apr_24_1117,ExactRep-v3-final,2021.2.3,59.83795885531239,
,,,,7,0,7,0,,,,,,,,,,,,,,,,,,,,,,,,,,,,,,,,,,,,,,,,,,,,,,,,,,,,,,,,,347.4976069005206,None,,,,,,,,,,,,,,,,,345.4959471002221,None,,,,,,,,,,,,,,,,,,,,,,,,,,,,,,,,,,,,,,,,,,,,,,,,,,,,,,,,52,001,2023_Apr_24_1117,ExactRep-v3-final,2021.2.3,59.83795885531239,
,,,,8,0,8,0,,,,,,,,,,,,,,,,,,,,,,,,,,,,,,,,,,,,,,,,,,,,,,,,,,,,,,,,,350.000410400331,None,,,,,,,,,,,,,,,,,347.99842770025134,None,,,,,,,,,,,,,,,,,,,,,,,,,,,,,,,,,,,,,,,,,,,,,,,,,,,,,,,,52,001,2023_Apr_24_1117,ExactRep-v3-final,2021.2.3,59.83795885531239,
,,,,9,0,9,0,,,,,,,,,,,,,,,,,,,,,,,,,,,,,,,,,,,,,,,,,,,,,,,,,,,,,,,,,352.502663500607,None,,,,,,,,,,,,,,,,,350.5006393007934,None,,,,,,,,,,,,,,,,,,,,,,,,,,,,,,,,,,,,,,,,,,,,,,,,,,,,,,,,52,001,2023_Apr_24_1117,ExactRep-v3-final,2021.2.3,59.83795885531239,
,,,,10,0,10,0,,,,,,,,,,,,,,,,,,,,,,,,,,,,,,,,,,,,,,,,,,,,,,,,,,,,,,,,,355.00528120063245,None,,,,,,,,,,,,,,,,,353.0033192001283,None,,,,,,,,,,,,,,,,,,,,,,,,,,,,,,,,,,,,,,,,,,,,,,,,,,,,,,,,52,001,2023_Apr_24_1117,ExactRep-v3-final,2021.2.3,59.83795885531239,
,,,,11,0,11,0,,,,,,,,,,,,,,,,,,,,,,,,,,,,,,,,,,,,,,,,,,,,,,,,,,,,,,,,,357.5077321007848,None,,,,,,,,,,,,,,,,,355.505805500783,None,,,,,,,,,,,,,,,,,,,,,,,,,,,,,,,,,,,,,,,,,,,,,,,,,,,,,,,,52,001,2023_Apr_24_1117,ExactRep-v3-final,2021.2.3,59.83795885531239,
,,,,12,0,12,0,,,,,,,,,,,,,,,,,,,,,,,,,,,,,,,,,,,,,,,,,,,,,,,,,,,,,,,,,360.0101567003876,None,,,,,,,,,,,,,,,,,358.00825730059296,None,,,,,,,,,,,,,,,,,,,,,,,,,,,,,,,,,,,,,,,,,,,,,,,,,,,,,,,,52,001,2023_Apr_24_1117,ExactRep-v3-final,2021.2.3,59.83795885531239,
,,,,13,0,13,0,,,,,,,,,,,,,,,,,,,,,,,,,,,,,,,,,,,,,,,,,,,,,,,,,,,,,,,,,362.51284540072083,None,,,,,,,,,,,,,,,,,360.5107788005844,None,,,,,,,,,,,,,,,,,,,,,,,,,,,,,,,,,,,,,,,,,,,,,,,,,,,,,,,,52,001,2023_Apr_24_1117,ExactRep-v3-final,2021.2.3,59.83795885531239,
,,,,14,0,14,0,,,,,,,,,,,,,,,,,,,,,,,,,,,,,,,,,,,,,,,,,,,,,,,,,,,,,,,,,365.01538529992104,None,,,,,,,,,,,,,,,,,363.01336750015616,None,,,,,,,,,,,,,,,,,,,,,,,,,,,,,,,,,,,,,,,,,,,,,,,,,,,,,,,,52,001,2023_Apr_24_1117,ExactRep-v3-final,2021.2.3,59.83795885531239,
,,,,,,,,,,,,,,,,,,,,,,,,,,,,,,,,,,,,,,,,,,,,,,,,,,,,,,,,,,,,,,,,,,,,,,,,,,,,,,,,,,,,space,23.4353680992499,375.66100380010903,None,,,,,,,,,,,,,,,,,,,,,,,,,,,,,,,,,,,,,,,,,,,,,,,,,,,,52,001,2023_Apr_24_1117,ExactRep-v3-final,2021.2.3,59.83795885531239,
,,,,,,,,0,0,0,0,,,,,,,,,,,,,,,,,,,,,,,,,,,,,,,,,,,,,,,,,,,,,,,,,,,,,401.23472450021654,None,,,,,,,,,,,,,,,,,,,,,,,365.67234189994633,None,365.67234189994633,None,365.67234189994633,None,365.67234189994633,None,365.67234189994633,None,365.67234189994633,None,kiss,67,1,silent,white,399.22206800058484,None,None,399.22206800058484,None,,,,,,,,,,,,,,,,,,,,,,,,,,,,,,52,001,2023_Apr_24_1117,ExactRep-v3-final,2021.2.3,59.83795885531239,
,,,,,,,,1,0,1,0,,,,,,,,,,,,,,,,,,,,,,,,,,,,,,,,,,,,,,,,,,,,,,,,,,,,,403.75384450051934,None,,,,,,,,,,,,,,,,,,,,,,,,,,,,,,,,,,,moment,68,2,silent,white,401.74213219992816,None,None,401.74213219992816,None,,,,,,,,,,,,,,,,,,,,,,,,,,,,,,52,001,2023_Apr_24_1117,ExactRep-v3-final,2021.2.3,59.83795885531239,
,,,,,,,,2,0,2,0,,,,,,,,,,,,,,,,,,,,,,,,,,,,,,,,,,,,,,,,,,,,,,,,,,,,,406.2566119004041,None,,,,,,,,,,,,,,,,,,,,,,,,,,,,,,,,,,,board,81,3,aloud,blue,404.2574565000832,None,None,404.2574565000832,None,,,,,,,,,,,,,,,,,,,,,,,,,,,,,,52,001,2023_Apr_24_1117,ExactRep-v3-final,2021.2.3,59.83795885531239,
,,,,,,,,3,0,3,0,,,,,,,,,,,,,,,,,,,,,,,,,,,,,,,,,,,,,,,,,,,,,,,,,,,,,408.7757654003799,None,,,,,,,,,,,,,,,,,,,,,,,,,,,,,,,,,,,toy,36,4,sing,red,406.7603293005377,None,None,406.7603293005377,None,,,,,,,,,,,,,,,,,,,,,,,,,,,,,,52,001,2023_Apr_24_1117,ExactRep-v3-final,2021.2.3,59.83795885531239,
,,,,,,,,4,0,4,0,,,,,,,,,,,,,,,,,,,,,,,,,,,,,,,,,,,,,,,,,,,,,,,,,,,,,411.2945595001802,None,,,,,,,,,,,,,,,,,,,,,,,,,,,,,,,,,,,flesh,21,5,sing,red,409.28578910045326,None,None,409.28578910045326,None,,,,,,,,,,,,,,,,,,,,,,,,,,,,,,52,001,2023_Apr_24_1117,ExactRep-v3-final,2021.2.3,59.83795885531239,
,,,,,,,,5,0,5,0,,,,,,,,,,,,,,,,,,,,,,,,,,,,,,,,,,,,,,,,,,,,,,,,,,,,,413.7974804006517,None,,,,,,,,,,,,,,,,,,,,,,,,,,,,,,,,,,,plain,28,6,sing,red,411.7952487003058,None,None,411.7952487003058,None,,,,,,,,,,,,,,,,,,,,,,,,,,,,,,52,001,2023_Apr_24_1117,ExactRep-v3-final,2021.2.3,59.83795885531239,
,,,,,,,,6,0,6,0,,,,,,,,,,,,,,,,,,,,,,,,,,,,,,,,,,,,,,,,,,,,,,,,,,,,,416.31646410003304,None,,,,,,,,,,,,,,,,,,,,,,,,,,,,,,,,,,,meat,2,7,sing,red,414.3023331006989,None,None,414.3023331006989,None,,,,,,,,,,,,,,,,,,,,,,,,,,,,,,52,001,2023_Apr_24_1117,ExactRep-v3-final,2021.2.3,59.83795885531239,
,,,,,,,,7,0,7,0,,,,,,,,,,,,,,,,,,,,,,,,,,,,,,,,,,,,,,,,,,,,,,,,,,,,,418.8190999003127,None,,,,,,,,,,,,,,,,,,,,,,,,,,,,,,,,,,,hope,18,8,sing,red,416.8192269001156,None,None,416.8192269001156,None,,,,,,,,,,,,,,,,,,,,,,,,,,,,,,52,001,2023_Apr_24_1117,ExactRep-v3-final,2021.2.3,59.83795885531239,
,,,,,,,,8,0,8,0,,,,,,,,,,,,,,,,,,,,,,,,,,,,,,,,,,,,,,,,,,,,,,,,,,,,,421.3215912999585,None,,,,,,,,,,,,,,,,,,,,,,,,,,,,,,,,,,,mother,104,9,aloud,blue,419.3213776005432,None,None,419.3213776005432,None,,,,,,,,,,,,,,,,,,,,,,,,,,,,,,52,001,2023_Apr_24_1117,ExactRep-v3-final,2021.2.3,59.83795885531239,
,,,,,,,,9,0,9,0,,,,,,,,,,,,,,,,,,,,,,,,,,,,,,,,,,,,,,,,,,,,,,,,,,,,,423.84080679994076,None,,,,,,,,,,,,,,,,,,,,,,,,,,,,,,,,,,,clock,9,10,sing,red,421.83336610067636,None,None,421.83336610067636,None,,,,,,,,,,,,,,,,,,,,,,,,,,,,,,52,001,2023_Apr_24_1117,ExactRep-v3-final,2021.2.3,59.83795885531239,
,,,,,,,,10,0,10,0,,,,,,,,,,,,,,,,,,,,,,,,,,,,,,,,,,,,,,,,,,,,,,,,,,,,,426.3433082001284,None,,,,,,,,,,,,,,,,,,,,,,,,,,,,,,,,,,,picture,49,11,silent,white,424.34323620051146,None,None,424.34323620051146,None,,,,,,,,,,,,,,,,,,,,,,,,,,,,,,52,001,2023_Apr_24_1117,ExactRep-v3-final,2021.2.3,59.83795885531239,
,,,,,,,,11,0,11,0,,,,,,,,,,,,,,,,,,,,,,,,,,,,,,,,,,,,,,,,,,,,,,,,,,,,,428.8624939005822,None,,,,,,,,,,,,,,,,,,,,,,,,,,,,,,,,,,,cash,54,12,silent,white,426.84833800047636,None,None,426.84833800047636,None,,,,,,,,,,,,,,,,,,,,,,,,,,,,,,52,001,2023_Apr_24_1117,ExactRep-v3-final,2021.2.3,59.83795885531239,
,,,,,,,,12,0,12,0,,,,,,,,,,,,,,,,,,,,,,,,,,,,,,,,,,,,,,,,,,,,,,,,,,,,,431.36497960053384,None,,,,,,,,,,,,,,,,,,,,,,,,,,,,,,,,,,,rock,86,13,aloud,blue,429.3638228001073,None,None,429.3638228001073,None,,,,,,,,,,,,,,,,,,,,,,,,,,,,,,52,001,2023_Apr_24_1117,ExactRep-v3-final,2021.2.3,59.83795885531239,
,,,,,,,,13,0,13,0,,,,,,,,,,,,,,,,,,,,,,,,,,,,,,,,,,,,,,,,,,,,,,,,,,,,,433.884209100157,None,,,,,,,,,,,,,,,,,,,,,,,,,,,,,,,,,,,fire,62,14,silent,white,431.86904630064964,None,None,431.86904630064964,None,,,,,,,,,,,,,,,,,,,,,,,,,,,,,,52,001,2023_Apr_24_1117,ExactRep-v3-final,2021.2.3,59.83795885531239,
,,,,,,,,14,0,14,0,,,,,,,,,,,,,,,,,,,,,,,,,,,,,,,,,,,,,,,,,,,,,,,,,,,,,436.4032455002889,None,,,,,,,,,,,,,,,,,,,,,,,,,,,,,,,,,,,fur,35,15,sing,red,434.38801690004766,None,None,434.38801690004766,None,,,,,,,,,,,,,,,,,,,,,,,,,,,,,,52,001,2023_Apr_24_1117,ExactRep-v3-final,2021.2.3,59.83795885531239,
,,,,,,,,15,0,15,0,,,,,,,,,,,,,,,,,,,,,,,,,,,,,,,,,,,,,,,,,,,,,,,,,,,,,438.9223413001746,None,,,,,,,,,,,,,,,,,,,,,,,,,,,,,,,,,,,vessel,100,16,aloud,blue,436.91295440029353,None,None,436.91295440029353,None,,,,,,,,,,,,,,,,,,,,,,,,,,,,,,52,001,2023_Apr_24_1117,ExactRep-v3-final,2021.2.3,59.83795885531239,
,,,,,,,,16,0,16,0,,,,,,,,,,,,,,,,,,,,,,,,,,,,,,,,,,,,,,,,,,,,,,,,,,,,,441.4250525999814,None,,,,,,,,,,,,,,,,,,,,,,,,,,,,,,,,,,,amount,32,17,sing,red,439.4228645004332,None,None,439.4228645004332,None,,,,,,,,,,,,,,,,,,,,,,,,,,,,,,52,001,2023_Apr_24_1117,ExactRep-v3-final,2021.2.3,59.83795885531239,
,,,,,,,,17,0,17,0,,,,,,,,,,,,,,,,,,,,,,,,,,,,,,,,,,,,,,,,,,,,,,,,,,,,,443.94421460013837,None,,,,,,,,,,,,,,,,,,,,,,,,,,,,,,,,,,,water,27,18,sing,red,441.943306600675,None,None,441.943306600675,None,,,,,,,,,,,,,,,,,,,,,,,,,,,,,,52,001,2023_Apr_24_1117,ExactRep-v3-final,2021.2.3,59.83795885531239,
,,,,,,,,18,0,18,0,,,,,,,,,,,,,,,,,,,,,,,,,,,,,,,,,,,,,,,,,,,,,,,,,,,,,446.446729500778,None,,,,,,,,,,,,,,,,,,,,,,,,,,,,,,,,,,,car,40,19,silent,white,444.44451780058444,None,None,444.44451780058444,None,,,,,,,,,,,,,,,,,,,,,,,,,,,,,,52,001,2023_Apr_24_1117,ExactRep-v3-final,2021.2.3,59.83795885531239,
,,,,,,,,19,0,19,0,,,,,,,,,,,,,,,,,,,,,,,,,,,,,,,,,,,,,,,,,,,,,,,,,,,,,448.94930760003626,None,,,,,,,,,,,,,,,,,,,,,,,,,,,,,,,,,,,product,20,20,sing,red,446.9490042999387,None,None,446.9490042999387,None,,,,,,,,,,,,,,,,,,,,,,,,,,,,,,52,001,2023_Apr_24_1117,ExactRep-v3-final,2021.2.3,59.83795885531239,
,,,,,,,,20,0,20,0,,,,,,,,,,,,,,,,,,,,,,,,,,,,,,,,,,,,,,,,,,,,,,,,,,,,,451.46842010039836,None,,,,,,,,,,,,,,,,,,,,,,,,,,,,,,,,,,,square,112,21,aloud,blue,449.4595672003925,None,None,449.4595672003925,None,,,,,,,,,,,,,,,,,,,,,,,,,,,,,,52,001,2023_Apr_24_1117,ExactRep-v3-final,2021.2.3,59.83795885531239,
,,,,,,,,21,0,21,0,,,,,,,,,,,,,,,,,,,,,,,,,,,,,,,,,,,,,,,,,,,,,,,,,,,,,453.9709362005815,None,,,,,,,,,,,,,,,,,,,,,,,,,,,,,,,,,,,shore,83,22,aloud,blue,451.9698439007625,None,None,451.9698439007625,None,,,,,,,,,,,,,,,,,,,,,,,,,,,,,,52,001,2023_Apr_24_1117,ExactRep-v3-final,2021.2.3,59.83795885531239,
,,,,,,,,22,0,22,0,,,,,,,,,,,,,,,,,,,,,,,,,,,,,,,,,,,,,,,,,,,,,,,,,,,,,456.490094400011,None,,,,,,,,,,,,,,,,,,,,,,,,,,,,,,,,,,,street,25,23,sing,red,454.4745308002457,None,None,454.4745308002457,None,,,,,,,,,,,,,,,,,,,,,,,,,,,,,,52,001,2023_Apr_24_1117,ExactRep-v3-final,2021.2.3,59.83795885531239,
,,,,,,,,23,0,23,0,,,,,,,,,,,,,,,,,,,,,,,,,,,,,,,,,,,,,,,,,,,,,,,,,,,,,458.9926921008155,None,,,,,,,,,,,,,,,,,,,,,,,,,,,,,,,,,,,cottage,66,24,silent,white,456.99028680007905,None,None,456.99028680007905,None,,,,,,,,,,,,,,,,,,,,,,,,,,,,,,52,001,2023_Apr_24_1117,ExactRep-v3-final,2021.2.3,59.83795885531239,
,,,,,,,,24,0,24,0,,,,,,,,,,,,,,,,,,,,,,,,,,,,,,,,,,,,,,,,,,,,,,,,,,,,,461.49507800024,None,,,,,,,,,,,,,,,,,,,,,,,,,,,,,,,,,,,grief,24,25,sing,red,459.49310160055757,None,None,459.49310160055757,None,,,,,,,,,,,,,,,,,,,,,,,,,,,,,,52,001,2023_Apr_24_1117,ExactRep-v3-final,2021.2.3,59.83795885531239,
,,,,,,,,25,0,25,0,,,,,,,,,,,,,,,,,,,,,,,,,,,,,,,,,,,,,,,,,,,,,,,,,,,,,463.99763590004295,None,,,,,,,,,,,,,,,,,,,,,,,,,,,,,,,,,,,dawn,33,26,sing,red,461.9977848008275,None,None,461.9977848008275,None,,,,,,,,,,,,,,,,,,,,,,,,,,,,,,52,001,2023_Apr_24_1117,ExactRep-v3-final,2021.2.3,59.83795885531239,
,,,,,,,,26,0,26,0,,,,,,,,,,,,,,,,,,,,,,,,,,,,,,,,,,,,,,,,,,,,,,,,,,,,,466.51727790012956,None,,,,,,,,,,,,,,,,,,,,,,,,,,,,,,,,,,,tool,48,27,silent,white,464.50241500046104,None,None,464.50241500046104,None,,,,,,,,,,,,,,,,,,,,,,,,,,,,,,52,001,2023_Apr_24_1117,ExactRep-v3-final,2021.2.3,59.83795885531239,
,,,,,,,,27,0,27,0,,,,,,,,,,,,,,,,,,,,,,,,,,,,,,,,,,,,,,,,,,,,,,,,,,,,,469.01917950063944,None,,,,,,,,,,,,,,,,,,,,,,,,,,,,,,,,,,,insect,118,28,aloud,blue,467.01745050027966,None,None,467.01745050027966,None,,,,,,,,,,,,,,,,,,,,,,,,,,,,,,52,001,2023_Apr_24_1117,ExactRep-v3-final,2021.2.3,59.83795885531239,
,,,,,,,,28,0,28,0,,,,,,,,,,,,,,,,,,,,,,,,,,,,,,,,,,,,,,,,,,,,,,,,,,,,,471.52188700065017,None,,,,,,,,,,,,,,,,,,,,,,,,,,,,,,,,,,,cat,22,29,sing,red,469.51965939998627,None,None,469.51965939998627,None,,,,,,,,,,,,,,,,,,,,,,,,,,,,,,52,001,2023_Apr_24_1117,ExactRep-v3-final,2021.2.3,59.83795885531239,
,,,,,,,,29,0,29,0,,,,,,,,,,,,,,,,,,,,,,,,,,,,,,,,,,,,,,,,,,,,,,,,,,,,,474.0242802007124,None,,,,,,,,,,,,,,,,,,,,,,,,,,,,,,,,,,,safety,7,30,sing,red,472.02508360054344,None,None,472.02508360054344,None,,,,,,,,,,,,,,,,,,,,,,,,,,,,,,52,001,2023_Apr_24_1117,ExactRep-v3-final,2021.2.3,59.83795885531239,
,,,,,,,,30,0,30,0,,,,,,,,,,,,,,,,,,,,,,,,,,,,,,,,,,,,,,,,,,,,,,,,,,,,,476.5434977002442,None,,,,,,,,,,,,,,,,,,,,,,,,,,,,,,,,,,,fault,92,31,aloud,blue,474.53455720003694,None,None,474.53455720003694,None,,,,,,,,,,,,,,,,,,,,,,,,,,,,,,52,001,2023_Apr_24_1117,ExactRep-v3-final,2021.2.3,59.83795885531239,
,,,,,,,,31,0,31,0,,,,,,,,,,,,,,,,,,,,,,,,,,,,,,,,,,,,,,,,,,,,,,,,,,,,,479.0458261007443,None,,,,,,,,,,,,,,,,,,,,,,,,,,,,,,,,,,,party,98,32,aloud,blue,477.04593749996275,None,None,477.04593749996275,None,,,,,,,,,,,,,,,,,,,,,,,,,,,,,,52,001,2023_Apr_24_1117,ExactRep-v3-final,2021.2.3,59.83795885531239,
,,,,,,,,32,0,32,0,,,,,,,,,,,,,,,,,,,,,,,,,,,,,,,,,,,,,,,,,,,,,,,,,,,,,481.5669765006751,None,,,,,,,,,,,,,,,,,,,,,,,,,,,,,,,,,,,body,14,33,sing,red,479.55392590072006,None,None,479.55392590072006,None,,,,,,,,,,,,,,,,,,,,,,,,,,,,,,52,001,2023_Apr_24_1117,ExactRep-v3-final,2021.2.3,59.83795885531239,
,,,,,,,,33,0,33,0,,,,,,,,,,,,,,,,,,,,,,,,,,,,,,,,,,,,,,,,,,,,,,,,,,,,,484.06772720068693,None,,,,,,,,,,,,,,,,,,,,,,,,,,,,,,,,,,,disease,38,34,sing,red,482.06551460083574,None,None,482.06551460083574,None,,,,,,,,,,,,,,,,,,,,,,,,,,,,,,52,001,2023_Apr_24_1117,ExactRep-v3-final,2021.2.3,59.83795885531239,
,,,,,,,,34,0,34,0,,,,,,,,,,,,,,,,,,,,,,,,,,,,,,,,,,,,,,,,,,,,,,,,,,,,,486.58687280025333,None,,,,,,,,,,,,,,,,,,,,,,,,,,,,,,,,,,,camp,82,35,aloud,blue,484.5724665001035,None,None,484.5724665001035,None,,,,,,,,,,,,,,,,,,,,,,,,,,,,,,52,001,2023_Apr_24_1117,ExactRep-v3-final,2021.2.3,59.83795885531239,
,,,,,,,,35,0,35,0,,,,,,,,,,,,,,,,,,,,,,,,,,,,,,,,,,,,,,,,,,,,,,,,,,,,,489.0892294999212,None,,,,,,,,,,,,,,,,,,,,,,,,,,,,,,,,,,,silence,39,36,silent,white,487.08826390001923,None,None,487.08826390001923,None,,,,,,,,,,,,,,,,,,,,,,,,,,,,,,52,001,2023_Apr_24_1117,ExactRep-v3-final,2021.2.3,59.83795885531239,
,,,,,,,,36,0,36,0,,,,,,,,,,,,,,,,,,,,,,,,,,,,,,,,,,,,,,,,,,,,,,,,,,,,,491.5917228003964,None,,,,,,,,,,,,,,,,,,,,,,,,,,,,,,,,,,,shoes,47,37,silent,white,489.58965800050646,None,None,489.58965800050646,None,,,,,,,,,,,,,,,,,,,,,,,,,,,,,,52,001,2023_Apr_24_1117,ExactRep-v3-final,2021.2.3,59.83795885531239,
,,,,,,,,37,0,37,0,,,,,,,,,,,,,,,,,,,,,,,,,,,,,,,,,,,,,,,,,,,,,,,,,,,,,494.1108917007223,None,,,,,,,,,,,,,,,,,,,,,,,,,,,,,,,,,,,prison,76,38,silent,white,492.10102070029825,None,None,492.10102070029825,None,,,,,,,,,,,,,,,,,,,,,,,,,,,,,,52,001,2023_Apr_24_1117,ExactRep-v3-final,2021.2.3,59.83795885531239,
,,,,,,,,38,0,38,0,,,,,,,,,,,,,,,,,,,,,,,,,,,,,,,,,,,,,,,,,,,,,,,,,,,,,496.61354590021074,None,,,,,,,,,,,,,,,,,,,,,,,,,,,,,,,,,,,flag,8,39,sing,red,494.61139059998095,None,None,494.61139059998095,None,,,,,,,,,,,,,,,,,,,,,,,,,,,,,,52,001,2023_Apr_24_1117,ExactRep-v3-final,2021.2.3,59.83795885531239,
,,,,,,,,39,0,39,0,,,,,,,,,,,,,,,,,,,,,,,,,,,,,,,,,,,,,,,,,,,,,,,,,,,,,499.13272290024906,None,,,,,,,,,,,,,,,,,,,,,,,,,,,,,,,,,,,temple,53,40,silent,white,497.12371559999883,None,None,497.12371559999883,None,,,,,,,,,,,,,,,,,,,,,,,,,,,,,,52,001,2023_Apr_24_1117,ExactRep-v3-final,2021.2.3,59.83795885531239,
,,,,,,,,40,0,40,0,,,,,,,,,,,,,,,,,,,,,,,,,,,,,,,,,,,,,,,,,,,,,,,,,,,,,501.6353217000142,None,,,,,,,,,,,,,,,,,,,,,,,,,,,,,,,,,,,death,13,41,sing,red,499.63327070046216,None,None,499.63327070046216,None,,,,,,,,,,,,,,,,,,,,,,,,,,,,,,52,001,2023_Apr_24_1117,ExactRep-v3-final,2021.2.3,59.83795885531239,
,,,,,,,,41,0,41,0,,,,,,,,,,,,,,,,,,,,,,,,,,,,,,,,,,,,,,,,,,,,,,,,,,,,,504.1384413000196,None,,,,,,,,,,,,,,,,,,,,,,,,,,,,,,,,,,,life,107,42,aloud,blue,502.1388161005452,None,None,502.1388161005452,None,,,,,,,,,,,,,,,,,,,,,,,,,,,,,,52,001,2023_Apr_24_1117,ExactRep-v3-final,2021.2.3,59.83795885531239,
,,,,,,,,42,0,42,0,,,,,,,,,,,,,,,,,,,,,,,,,,,,,,,,,,,,,,,,,,,,,,,,,,,,,506.6570013007149,None,,,,,,,,,,,,,,,,,,,,,,,,,,,,,,,,,,,dust,50,43,silent,white,504.6448459001258,None,None,504.6448459001258,None,,,,,,,,,,,,,,,,,,,,,,,,,,,,,,52,001,2023_Apr_24_1117,ExactRep-v3-final,2021.2.3,59.83795885531239,
,,,,,,,,43,0,43,0,,,,,,,,,,,,,,,,,,,,,,,,,,,,,,,,,,,,,,,,,,,,,,,,,,,,,509.1594366999343,None,,,,,,,,,,,,,,,,,,,,,,,,,,,,,,,,,,,charm,29,44,sing,red,507.15957350004464,None,None,507.15957350004464,None,,,,,,,,,,,,,,,,,,,,,,,,,,,,,,52,001,2023_Apr_24_1117,ExactRep-v3-final,2021.2.3,59.83795885531239,
,,,,,,,,44,0,44,0,,,,,,,,,,,,,,,,,,,,,,,,,,,,,,,,,,,,,,,,,,,,,,,,,,,,,511.6620216006413,None,,,,,,,,,,,,,,,,,,,,,,,,,,,,,,,,,,,storm,101,45,aloud,blue,509.66299210023135,None,None,509.66299210023135,None,,,,,,,,,,,,,,,,,,,,,,,,,,,,,,52,001,2023_Apr_24_1117,ExactRep-v3-final,2021.2.3,59.83795885531239,
,,,,,,,,45,0,45,0,,,,,,,,,,,,,,,,,,,,,,,,,,,,,,,,,,,,,,,,,,,,,,,,,,,,,514.1645355001092,None,,,,,,,,,,,,,,,,,,,,,,,,,,,,,,,,,,,palace,26,46,sing,red,512.1624774001539,None,None,512.1624774001539,None,,,,,,,,,,,,,,,,,,,,,,,,,,,,,,52,001,2023_Apr_24_1117,ExactRep-v3-final,2021.2.3,59.83795885531239,
,,,,,,,,46,0,46,0,,,,,,,,,,,,,,,,,,,,,,,,,,,,,,,,,,,,,,,,,,,,,,,,,,,,,516.6668811002746,None,,,,,,,,,,,,,,,,,,,,,,,,,,,,,,,,,,,ticket,109,47,aloud,blue,514.6665095007047,None,None,514.6665095007047,None,,,,,,,,,,,,,,,,,,,,,,,,,,,,,,52,001,2023_Apr_24_1117,ExactRep-v3-final,2021.2.3,59.83795885531239,
,,,,,,,,47,0,47,0,,,,,,,,,,,,,,,,,,,,,,,,,,,,,,,,,,,,,,,,,,,,,,,,,,,,,519.1694531003013,None,,,,,,,,,,,,,,,,,,,,,,,,,,,,,,,,,,,form,59,48,silent,white,517.1694354005158,None,None,517.1694354005158,None,,,,,,,,,,,,,,,,,,,,,,,,,,,,,,52,001,2023_Apr_24_1117,ExactRep-v3-final,2021.2.3,59.83795885531239,
,,,,,,,,48,0,48,0,,,,,,,,,,,,,,,,,,,,,,,,,,,,,,,,,,,,,,,,,,,,,,,,,,,,,521.6717781005427,None,,,,,,,,,,,,,,,,,,,,,,,,,,,,,,,,,,,metal,4,49,sing,red,519.6719851000234,None,None,519.6719851000234,None,,,,,,,,,,,,,,,,,,,,,,,,,,,,,,52,001,2023_Apr_24_1117,ExactRep-v3-final,2021.2.3,59.83795885531239,
,,,,,,,,49,0,49,0,,,,,,,,,,,,,,,,,,,,,,,,,,,,,,,,,,,,,,,,,,,,,,,,,,,,,524.1745180003345,None,,,,,,,,,,,,,,,,,,,,,,,,,,,,,,,,,,,seat,10,50,sing,red,522.1740668006241,None,None,522.1740668006241,None,,,,,,,,,,,,,,,,,,,,,,,,,,,,,,52,001,2023_Apr_24_1117,ExactRep-v3-final,2021.2.3,59.83795885531239,
,,,,,,,,50,0,50,0,,,,,,,,,,,,,,,,,,,,,,,,,,,,,,,,,,,,,,,,,,,,,,,,,,,,,526.6936792004853,None,,,,,,,,,,,,,,,,,,,,,,,,,,,,,,,,,,,effort,70,51,silent,white,524.6803239006549,None,None,524.6803239006549,None,,,,,,,,,,,,,,,,,,,,,,,,,,,,,,52,001,2023_Apr_24_1117,ExactRep-v3-final,2021.2.3,59.83795885531239,
,,,,,,,,51,0,51,0,,,,,,,,,,,,,,,,,,,,,,,,,,,,,,,,,,,,,,,,,,,,,,,,,,,,,529.2128779999912,None,,,,,,,,,,,,,,,,,,,,,,,,,,,,,,,,,,,tree,3,52,sing,red,527.2031922005117,None,None,527.2031922005117,None,,,,,,,,,,,,,,,,,,,,,,,,,,,,,,52,001,2023_Apr_24_1117,ExactRep-v3-final,2021.2.3,59.83795885531239,
,,,,,,,,52,0,52,0,,,,,,,,,,,,,,,,,,,,,,,,,,,,,,,,,,,,,,,,,,,,,,,,,,,,,531.7153432006016,None,,,,,,,,,,,,,,,,,,,,,,,,,,,,,,,,,,,library,77,53,silent,white,529.715658900328,None,None,529.715658900328,None,,,,,,,,,,,,,,,,,,,,,,,,,,,,,,52,001,2023_Apr_24_1117,ExactRep-v3-final,2021.2.3,59.83795885531239,
,,,,,,,,53,0,53,0,,,,,,,,,,,,,,,,,,,,,,,,,,,,,,,,,,,,,,,,,,,,,,,,,,,,,534.2178955003619,None,,,,,,,,,,,,,,,,,,,,,,,,,,,,,,,,,,,person,99,54,aloud,blue,532.2188870999962,None,None,532.2188870999962,None,,,,,,,,,,,,,,,,,,,,,,,,,,,,,,52,001,2023_Apr_24_1117,ExactRep-v3-final,2021.2.3,59.83795885531239,
,,,,,,,,54,0,54,0,,,,,,,,,,,,,,,,,,,,,,,,,,,,,,,,,,,,,,,,,,,,,,,,,,,,,536.7370335003361,None,,,,,,,,,,,,,,,,,,,,,,,,,,,,,,,,,,,wine,110,55,aloud,blue,534.7225836003199,None,None,534.7225836003199,None,,,,,,,,,,,,,,,,,,,,,,,,,,,,,,52,001,2023_Apr_24_1117,ExactRep-v3-final,2021.2.3,59.83795885531239,
,,,,,,,,55,0,55,0,,,,,,,,,,,,,,,,,,,,,,,,,,,,,,,,,,,,,,,,,,,,,,,,,,,,,539.239592500031,None,,,,,,,,,,,,,,,,,,,,,,,,,,,,,,,,,,,soul,17,56,sing,red,537.2374251000583,None,None,537.2374251000583,None,,,,,,,,,,,,,,,,,,,,,,,,,,,,,,52,001,2023_Apr_24_1117,ExactRep-v3-final,2021.2.3,59.83795885531239,
,,,,,,,,56,0,56,0,,,,,,,,,,,,,,,,,,,,,,,,,,,,,,,,,,,,,,,,,,,,,,,,,,,,,541.7420703005046,None,,,,,,,,,,,,,,,,,,,,,,,,,,,,,,,,,,,diamond,73,57,silent,white,539.7399214003235,None,None,539.7399214003235,None,,,,,,,,,,,,,,,,,,,,,,,,,,,,,,52,001,2023_Apr_24_1117,ExactRep-v3-final,2021.2.3,59.83795885531239,
,,,,,,,,57,0,57,0,,,,,,,,,,,,,,,,,,,,,,,,,,,,,,,,,,,,,,,,,,,,,,,,,,,,,544.2617731001228,None,,,,,,,,,,,,,,,,,,,,,,,,,,,,,,,,,,,blossom,72,58,silent,white,542.2479368001223,None,None,542.2479368001223,None,,,,,,,,,,,,,,,,,,,,,,,,,,,,,,52,001,2023_Apr_24_1117,ExactRep-v3-final,2021.2.3,59.83795885531239,
,,,,,,,,58,0,58,0,,,,,,,,,,,,,,,,,,,,,,,,,,,,,,,,,,,,,,,,,,,,,,,,,,,,,546.7637943001464,None,,,,,,,,,,,,,,,,,,,,,,,,,,,,,,,,,,,woods,34,59,sing,red,544.7617305004969,None,None,544.7617305004969,None,,,,,,,,,,,,,,,,,,,,,,,,,,,,,,52,001,2023_Apr_24_1117,ExactRep-v3-final,2021.2.3,59.83795885531239,
,,,,,,,,59,0,59,0,,,,,,,,,,,,,,,,,,,,,,,,,,,,,,,,,,,,,,,,,,,,,,,,,,,,,549.2663040002808,None,,,,,,,,,,,,,,,,,,,,,,,,,,,,,,,,,,,hour,116,60,aloud,blue,547.264081700705,None,None,547.264081700705,None,,,,,,,,,,,,,,,,,,,,,,,,,,,,,,52,001,2023_Apr_24_1117,ExactRep-v3-final,2021.2.3,59.83795885531239,
,,,,,,,,60,0,60,0,,,,,,,,,,,,,,,,,,,,,,,,,,,,,,,,,,,,,,,,,,,,,,,,,,,,,551.7859726008028,None,,,,,,,,,,,,,,,,,,,,,,,,,,,,,,,,,,,devil,0,61,sing,red,549.7720925007015,None,None,549.7720925007015,None,,,,,,,,,,,,,,,,,,,,,,,,,,,,,,52,001,2023_Apr_24_1117,ExactRep-v3-final,2021.2.3,59.83795885531239,
,,,,,,,,61,0,61,0,,,,,,,,,,,,,,,,,,,,,,,,,,,,,,,,,,,,,,,,,,,,,,,,,,,,,554.2879588007927,None,,,,,,,,,,,,,,,,,,,,,,,,,,,,,,,,,,,crime,51,62,silent,white,552.2857462000102,None,None,552.2857462000102,None,,,,,,,,,,,,,,,,,,,,,,,,,,,,,,52,001,2023_Apr_24_1117,ExactRep-v3-final,2021.2.3,59.83795885531239,
,,,,,,,,62,0,62,0,,,,,,,,,,,,,,,,,,,,,,,,,,,,,,,,,,,,,,,,,,,,,,,,,,,,,556.8072861004621,None,,,,,,,,,,,,,,,,,,,,,,,,,,,,,,,,,,,justice,78,63,silent,white,554.7981233000755,None,None,554.7981233000755,None,,,,,,,,,,,,,,,,,,,,,,,,,,,,,,52,001,2023_Apr_24_1117,ExactRep-v3-final,2021.2.3,59.83795885531239,
,,,,,,,,63,0,63,0,,,,,,,,,,,,,,,,,,,,,,,,,,,,,,,,,,,,,,,,,,,,,,,,,,,,,559.3095602001995,None,,,,,,,,,,,,,,,,,,,,,,,,,,,,,,,,,,,health,94,64,aloud,blue,557.3075813008472,None,None,557.3075813008472,None,,,,,,,,,,,,,,,,,,,,,,,,,,,,,,52,001,2023_Apr_24_1117,ExactRep-v3-final,2021.2.3,59.83795885531239,
,,,,,,,,64,0,64,0,,,,,,,,,,,,,,,,,,,,,,,,,,,,,,,,,,,,,,,,,,,,,,,,,,,,,561.8122371006757,None,,,,,,,,,,,,,,,,,,,,,,,,,,,,,,,,,,,pipe,43,65,silent,white,559.8118198001757,None,None,559.8118198001757,None,,,,,,,,,,,,,,,,,,,,,,,,,,,,,,52,001,2023_Apr_24_1117,ExactRep-v3-final,2021.2.3,59.83795885531239,
,,,,,,,,65,0,65,0,,,,,,,,,,,,,,,,,,,,,,,,,,,,,,,,,,,,,,,,,,,,,,,,,,,,,564.3312893006951,None,,,,,,,,,,,,,,,,,,,,,,,,,,,,,,,,,,,virtue,56,66,silent,white,562.3157703001052,None,None,562.3157703001052,None,,,,,,,,,,,,,,,,,,,,,,,,,,,,,,52,001,2023_Apr_24_1117,ExactRep-v3-final,2021.2.3,59.83795885531239,
,,,,,,,,66,0,66,0,,,,,,,,,,,,,,,,,,,,,,,,,,,,,,,,,,,,,,,,,,,,,,,,,,,,,566.8336517000571,None,,,,,,,,,,,,,,,,,,,,,,,,,,,,,,,,,,,history,111,67,aloud,blue,564.831688400358,None,None,564.831688400358,None,,,,,,,,,,,,,,,,,,,,,,,,,,,,,,52,001,2023_Apr_24_1117,ExactRep-v3-final,2021.2.3,59.83795885531239,
,,,,,,,,67,0,67,0,,,,,,,,,,,,,,,,,,,,,,,,,,,,,,,,,,,,,,,,,,,,,,,,,,,,,569.336385300383,None,,,,,,,,,,,,,,,,,,,,,,,,,,,,,,,,,,,spirit,117,68,aloud,blue,567.3357463004068,None,None,567.3357463004068,None,,,,,,,,,,,,,,,,,,,,,,,,,,,,,,52,001,2023_Apr_24_1117,ExactRep-v3-final,2021.2.3,59.83795885531239,
,,,,,,,,68,0,68,0,,,,,,,,,,,,,,,,,,,,,,,,,,,,,,,,,,,,,,,,,,,,,,,,,,,,,571.838855500333,None,,,,,,,,,,,,,,,,,,,,,,,,,,,,,,,,,,,butter,102,69,aloud,blue,569.839227700606,None,None,569.839227700606,None,,,,,,,,,,,,,,,,,,,,,,,,,,,,,,52,001,2023_Apr_24_1117,ExactRep-v3-final,2021.2.3,59.83795885531239,
,,,,,,,,69,0,69,0,,,,,,,,,,,,,,,,,,,,,,,,,,,,,,,,,,,,,,,,,,,,,,,,,,,,,574.3413357008249,None,,,,,,,,,,,,,,,,,,,,,,,,,,,,,,,,,,,time,63,70,silent,white,572.3391312006861,None,None,572.3391312006861,None,,,,,,,,,,,,,,,,,,,,,,,,,,,,,,52,001,2023_Apr_24_1117,ExactRep-v3-final,2021.2.3,59.83795885531239,
,,,,,,,,70,0,70,0,,,,,,,,,,,,,,,,,,,,,,,,,,,,,,,,,,,,,,,,,,,,,,,,,,,,,576.8437815001234,None,,,,,,,,,,,,,,,,,,,,,,,,,,,,,,,,,,,circle,61,71,silent,white,574.8431681003422,None,None,574.8431681003422,None,,,,,,,,,,,,,,,,,,,,,,,,,,,,,,52,001,2023_Apr_24_1117,ExactRep-v3-final,2021.2.3,59.83795885531239,
,,,,,,,,71,0,71,0,,,,,,,,,,,,,,,,,,,,,,,,,,,,,,,,,,,,,,,,,,,,,,,,,,,,,579.346363699995,None,,,,,,,,,,,,,,,,,,,,,,,,,,,,,,,,,,,heaven,30,72,sing,red,577.3455167002976,None,None,577.3455167002976,None,,,,,,,,,,,,,,,,,,,,,,,,,,,,,,52,001,2023_Apr_24_1117,ExactRep-v3-final,2021.2.3,59.83795885531239,
,,,,,,,,72,0,72,0,,,,,,,,,,,,,,,,,,,,,,,,,,,,,,,,,,,,,,,,,,,,,,,,,,,,,581.8654184006155,None,,,,,,,,,,,,,,,,,,,,,,,,,,,,,,,,,,,breast,89,73,aloud,blue,579.8525260007009,None,None,579.8525260007009,None,,,,,,,,,,,,,,,,,,,,,,,,,,,,,,52,001,2023_Apr_24_1117,ExactRep-v3-final,2021.2.3,59.83795885531239,
,,,,,,,,73,0,73,0,,,,,,,,,,,,,,,,,,,,,,,,,,,,,,,,,,,,,,,,,,,,,,,,,,,,,584.3679897002876,None,,,,,,,,,,,,,,,,,,,,,,,,,,,,,,,,,,,bird,103,74,aloud,blue,582.365817100741,None,None,582.365817100741,None,,,,,,,,,,,,,,,,,,,,,,,,,,,,,,52,001,2023_Apr_24_1117,ExactRep-v3-final,2021.2.3,59.83795885531239,
,,,,,,,,74,0,74,0,,,,,,,,,,,,,,,,,,,,,,,,,,,,,,,,,,,,,,,,,,,,,,,,,,,,,586.887196900323,None,,,,,,,,,,,,,,,,,,,,,,,,,,,,,,,,,,,wife,90,75,aloud,blue,584.8764443006366,None,None,584.8764443006366,None,,,,,,,,,,,,,,,,,,,,,,,,,,,,,,52,001,2023_Apr_24_1117,ExactRep-v3-final,2021.2.3,59.83795885531239,
,,,,,,,,75,0,75,0,,,,,,,,,,,,,,,,,,,,,,,,,,,,,,,,,,,,,,,,,,,,,,,,,,,,,589.389535699971,None,,,,,,,,,,,,,,,,,,,,,,,,,,,,,,,,,,,science,105,76,aloud,blue,587.3879419006407,None,None,587.3879419006407,None,,,,,,,,,,,,,,,,,,,,,,,,,,,,,,52,001,2023_Apr_24_1117,ExactRep-v3-final,2021.2.3,59.83795885531239,
,,,,,,,,76,0,76,0,,,,,,,,,,,,,,,,,,,,,,,,,,,,,,,,,,,,,,,,,,,,,,,,,,,,,591.9089191006497,None,,,,,,,,,,,,,,,,,,,,,,,,,,,,,,,,,,,fate,114,77,aloud,blue,589.8988266000524,None,None,589.8988266000524,None,,,,,,,,,,,,,,,,,,,,,,,,,,,,,,52,001,2023_Apr_24_1117,ExactRep-v3-final,2021.2.3,59.83795885531239,
,,,,,,,,77,0,77,0,,,,,,,,,,,,,,,,,,,,,,,,,,,,,,,,,,,,,,,,,,,,,,,,,,,,,594.4111905004829,None,,,,,,,,,,,,,,,,,,,,,,,,,,,,,,,,,,,skin,75,78,silent,white,592.4091397002339,None,None,592.4091397002339,None,,,,,,,,,,,,,,,,,,,,,,,,,,,,,,52,001,2023_Apr_24_1117,ExactRep-v3-final,2021.2.3,59.83795885531239,
,,,,,,,,78,0,78,0,,,,,,,,,,,,,,,,,,,,,,,,,,,,,,,,,,,,,,,,,,,,,,,,,,,,,596.9138499004766,None,,,,,,,,,,,,,,,,,,,,,,,,,,,,,,,,,,,trouble,91,79,aloud,blue,594.9123387001455,None,None,594.9123387001455,None,,,,,,,,,,,,,,,,,,,,,,,,,,,,,,52,001,2023_Apr_24_1117,ExactRep-v3-final,2021.2.3,59.83795885531239,
,,,,,,,,79,0,79,0,,,,,,,,,,,,,,,,,,,,,,,,,,,,,,,,,,,,,,,,,,,,,,,,,,,,,599.4164177002385,None,,,,,,,,,,,,,,,,,,,,,,,,,,,,,,,,,,,grass,96,80,aloud,blue,597.41571640037,None,None,597.41571640037,None,,,,,,,,,,,,,,,,,,,,,,,,,,,,,,52,001,2023_Apr_24_1117,ExactRep-v3-final,2021.2.3,59.83795885531239,
,,,,,,,,80,0,80,0,,,,,,,,,,,,,,,,,,,,,,,,,,,,,,,,,,,,,,,,,,,,,,,,,,,,,601.9355904003605,None,,,,,,,,,,,,,,,,,,,,,,,,,,,,,,,,,,,shock,41,81,silent,white,599.9236778002232,None,None,599.9236778002232,None,,,,,,,,,,,,,,,,,,,,,,,,,,,,,,52,001,2023_Apr_24_1117,ExactRep-v3-final,2021.2.3,59.83795885531239,
,,,,,,,,81,0,81,0,,,,,,,,,,,,,,,,,,,,,,,,,,,,,,,,,,,,,,,,,,,,,,,,,,,,,604.4380596000701,None,,,,,,,,,,,,,,,,,,,,,,,,,,,,,,,,,,,lip,57,82,silent,white,602.4388581002131,None,None,602.4388581002131,None,,,,,,,,,,,,,,,,,,,,,,,,,,,,,,52,001,2023_Apr_24_1117,ExactRep-v3-final,2021.2.3,59.83795885531239,
,,,,,,,,82,0,82,0,,,,,,,,,,,,,,,,,,,,,,,,,,,,,,,,,,,,,,,,,,,,,,,,,,,,,606.9404061008245,None,,,,,,,,,,,,,,,,,,,,,,,,,,,,,,,,,,,ability,95,83,aloud,blue,604.9388322001323,None,None,604.9388322001323,None,,,,,,,,,,,,,,,,,,,,,,,,,,,,,,52,001,2023_Apr_24_1117,ExactRep-v3-final,2021.2.3,59.83795885531239,
,,,,,,,,83,0,83,0,,,,,,,,,,,,,,,,,,,,,,,,,,,,,,,,,,,,,,,,,,,,,,,,,,,,,609.4430734999478,None,,,,,,,,,,,,,,,,,,,,,,,,,,,,,,,,,,,chief,37,84,sing,red,607.4409338003024,None,None,607.4409338003024,None,,,,,,,,,,,,,,,,,,,,,,,,,,,,,,52,001,2023_Apr_24_1117,ExactRep-v3-final,2021.2.3,59.83795885531239,
,,,,,,,,84,0,84,0,,,,,,,,,,,,,,,,,,,,,,,,,,,,,,,,,,,,,,,,,,,,,,,,,,,,,611.9453356005251,None,,,,,,,,,,,,,,,,,,,,,,,,,,,,,,,,,,,door,65,85,silent,white,609.9434302002192,None,None,609.9434302002192,None,,,,,,,,,,,,,,,,,,,,,,,,,,,,,,52,001,2023_Apr_24_1117,ExactRep-v3-final,2021.2.3,59.83795885531239,
,,,,,,,,85,0,85,0,,,,,,,,,,,,,,,,,,,,,,,,,,,,,,,,,,,,,,,,,,,,,,,,,,,,,614.4648393001407,None,,,,,,,,,,,,,,,,,,,,,,,,,,,,,,,,,,,fortune,79,86,sing,red,612.4494894007221,None,None,612.4494894007221,None,,,,,,,,,,,,,,,,,,,,,,,,,,,,,,52,001,2023_Apr_24_1117,ExactRep-v3-final,2021.2.3,59.83795885531239,
,,,,,,,,86,0,86,0,,,,,,,,,,,,,,,,,,,,,,,,,,,,,,,,,,,,,,,,,,,,,,,,,,,,,616.9674027999863,None,,,,,,,,,,,,,,,,,,,,,,,,,,,,,,,,,,,ocean,44,87,silent,white,614.9681281000376,None,None,614.9681281000376,None,,,,,,,,,,,,,,,,,,,,,,,,,,,,,,52,001,2023_Apr_24_1117,ExactRep-v3-final,2021.2.3,59.83795885531239,
,,,,,,,,87,0,87,0,,,,,,,,,,,,,,,,,,,,,,,,,,,,,,,,,,,,,,,,,,,,,,,,,,,,,619.4864271003753,None,,,,,,,,,,,,,,,,,,,,,,,,,,,,,,,,,,,bowl,52,88,silent,white,617.4762694006786,None,None,617.4762694006786,None,,,,,,,,,,,,,,,,,,,,,,,,,,,,,,52,001,2023_Apr_24_1117,ExactRep-v3-final,2021.2.3,59.83795885531239,
,,,,,,,,88,0,88,0,,,,,,,,,,,,,,,,,,,,,,,,,,,,,,,,,,,,,,,,,,,,,,,,,,,,,621.988981500268,None,,,,,,,,,,,,,,,,,,,,,,,,,,,,,,,,,,,letter,58,89,silent,white,619.9869290003553,None,None,619.9869290003553,None,,,,,,,,,,,,,,,,,,,,,,,,,,,,,,52,001,2023_Apr_24_1117,ExactRep-v3-final,2021.2.3,59.83795885531239,
,,,,,,,,89,0,89,0,,,,,,,,,,,,,,,,,,,,,,,,,,,,,,,,,,,,,,,,,,,,,,,,,,,,,624.5079874005169,None,,,,,,,,,,,,,,,,,,,,,,,,,,,,,,,,,,,city,45,90,silent,white,622.4938149005175,None,None,622.4938149005175,None,,,,,,,,,,,,,,,,,,,,,,,,,,,,,,52,001,2023_Apr_24_1117,ExactRep-v3-final,2021.2.3,59.83795885531239,
,,,,,,,,90,0,90,0,,,,,,,,,,,,,,,,,,,,,,,,,,,,,,,,,,,,,,,,,,,,,,,,,,,,,627.0272894008085,None,,,,,,,,,,,,,,,,,,,,,,,,,,,,,,,,,,,theory,71,91,silent,white,625.0189931001514,None,None,625.0189931001514,None,,,,,,,,,,,,,,,,,,,,,,,,,,,,,,52,001,2023_Apr_24_1117,ExactRep-v3-final,2021.2.3,59.83795885531239,
,,,,,,,,91,0,91,0,,,,,,,,,,,,,,,,,,,,,,,,,,,,,,,,,,,,,,,,,,,,,,,,,,,,,629.5465105008334,None,,,,,,,,,,,,,,,,,,,,,,,,,,,,,,,,,,,present,46,92,silent,white,627.5315347006544,None,None,627.5315347006544,None,,,,,,,,,,,,,,,,,,,,,,,,,,,,,,52,001,2023_Apr_24_1117,ExactRep-v3-final,2021.2.3,59.83795885531239,
,,,,,,,,92,0,92,0,,,,,,,,,,,,,,,,,,,,,,,,,,,,,,,,,,,,,,,,,,,,,,,,,,,,,632.0655622007325,None,,,,,,,,,,,,,,,,,,,,,,,,,,,,,,,,,,,lad,69,93,silent,white,630.0519869001582,None,None,630.0519869001582,None,,,,,,,,,,,,,,,,,,,,,,,,,,,,,,52,001,2023_Apr_24_1117,ExactRep-v3-final,2021.2.3,59.83795885531239,
,,,,,,,,93,0,93,0,,,,,,,,,,,,,,,,,,,,,,,,,,,,,,,,,,,,,,,,,,,,,,,,,,,,,634.5680554006249,None,,,,,,,,,,,,,,,,,,,,,,,,,,,,,,,,,,,string,74,94,silent,white,632.5660709999502,None,None,632.5660709999502,None,,,,,,,,,,,,,,,,,,,,,,,,,,,,,,52,001,2023_Apr_24_1117,ExactRep-v3-final,2021.2.3,59.83795885531239,
,,,,,,,,94,0,94,0,,,,,,,,,,,,,,,,,,,,,,,,,,,,,,,,,,,,,,,,,,,,,,,,,,,,,637.0706665003672,None,,,,,,,,,,,,,,,,,,,,,,,,,,,,,,,,,,,stone,12,95,sing,red,635.0704459007829,None,None,635.0704459007829,None,,,,,,,,,,,,,,,,,,,,,,,,,,,,,,52,001,2023_Apr_24_1117,ExactRep-v3-final,2021.2.3,59.83795885531239,
,,,,,,,,95,0,95,0,,,,,,,,,,,,,,,,,,,,,,,,,,,,,,,,,,,,,,,,,,,,,,,,,,,,,639.5732936002314,None,,,,,,,,,,,,,,,,,,,,,,,,,,,,,,,,,,,gold,106,96,aloud,blue,637.5729054007679,None,None,637.5729054007679,None,,,,,,,,,,,,,,,,,,,,,,,,,,,,,,52,001,2023_Apr_24_1117,ExactRep-v3-final,2021.2.3,59.83795885531239,
,,,,,,,,96,0,96,0,,,,,,,,,,,,,,,,,,,,,,,,,,,,,,,,,,,,,,,,,,,,,,,,,,,,,642.0757981007919,None,,,,,,,,,,,,,,,,,,,,,,,,,,,,,,,,,,,thought,80,97,aloud,blue,640.0753041999415,None,None,640.0753041999415,None,,,,,,,,,,,,,,,,,,,,,,,,,,,,,,52,001,2023_Apr_24_1117,ExactRep-v3-final,2021.2.3,59.83795885531239,
,,,,,,,,97,0,97,0,,,,,,,,,,,,,,,,,,,,,,,,,,,,,,,,,,,,,,,,,,,,,,,,,,,,,644.5947275003418,None,,,,,,,,,,,,,,,,,,,,,,,,,,,,,,,,,,,poet,93,98,aloud,blue,642.5796572007239,None,None,642.5796572007239,None,,,,,,,,,,,,,,,,,,,,,,,,,,,,,,52,001,2023_Apr_24_1117,ExactRep-v3-final,2021.2.3,59.83795885531239,
,,,,,,,,98,0,98,0,,,,,,,,,,,,,,,,,,,,,,,,,,,,,,,,,,,,,,,,,,,,,,,,,,,,,647.1151575008407,None,,,,,,,,,,,,,,,,,,,,,,,,,,,,,,,,,,,custom,115,99,aloud,blue,645.1039370000362,None,None,645.1039370000362,None,,,,,,,,,,,,,,,,,,,,,,,,,,,,,,52,001,2023_Apr_24_1117,ExactRep-v3-final,2021.2.3,59.83795885531239,
,,,,,,,,99,0,99,0,,,,,,,,,,,,,,,,,,,,,,,,,,,,,,,,,,,,,,,,,,,,,,,,,,,,,649.6165986005217,None,,,,,,,,,,,,,,,,,,,,,,,,,,,,,,,,,,,gift,113,100,aloud,blue,647.6143788006157,None,None,647.6143788006157,None,,,,,,,,,,,,,,,,,,,,,,,,,,,,,,52,001,2023_Apr_24_1117,ExactRep-v3-final,2021.2.3,59.83795885531239,
,,,,,,,,100,0,100,0,,,,,,,,,,,,,,,,,,,,,,,,,,,,,,,,,,,,,,,,,,,,,,,,,,,,,652.1191035006195,None,,,,,,,,,,,,,,,,,,,,,,,,,,,,,,,,,,,college,11,101,sing,red,650.120106600225,None,None,650.120106600225,None,,,,,,,,,,,,,,,,,,,,,,,,,,,,,,52,001,2023_Apr_24_1117,ExactRep-v3-final,2021.2.3,59.83795885531239,
,,,,,,,,101,0,101,0,,,,,,,,,,,,,,,,,,,,,,,,,,,,,,,,,,,,,,,,,,,,,,,,,,,,,654.6216070000082,None,,,,,,,,,,,,,,,,,,,,,,,,,,,,,,,,,,,soil,19,102,sing,red,652.6216684002429,None,None,652.6216684002429,None,,,,,,,,,,,,,,,,,,,,,,,,,,,,,,52,001,2023_Apr_24_1117,ExactRep-v3-final,2021.2.3,59.83795885531239,
,,,,,,,,102,0,102,0,,,,,,,,,,,,,,,,,,,,,,,,,,,,,,,,,,,,,,,,,,,,,,,,,,,,,657.1240931004286,None,,,,,,,,,,,,,,,,,,,,,,,,,,,,,,,,,,,chance,64,103,silent,white,655.1237955000252,None,None,655.1237955000252,None,,,,,,,,,,,,,,,,,,,,,,,,,,,,,,52,001,2023_Apr_24_1117,ExactRep-v3-final,2021.2.3,59.83795885531239,
,,,,,,,,103,0,103,0,,,,,,,,,,,,,,,,,,,,,,,,,,,,,,,,,,,,,,,,,,,,,,,,,,,,,659.6267063999549,None,,,,,,,,,,,,,,,,,,,,,,,,,,,,,,,,,,,machine,16,104,sing,red,657.6264162007719,None,None,657.6264162007719,None,,,,,,,,,,,,,,,,,,,,,,,,,,,,,,52,001,2023_Apr_24_1117,ExactRep-v3-final,2021.2.3,59.83795885531239,
,,,,,,,,104,0,104,0,,,,,,,,,,,,,,,,,,,,,,,,,,,,,,,,,,,,,,,,,,,,,,,,,,,,,662.1458806004375,None,,,,,,,,,,,,,,,,,,,,,,,,,,,,,,,,,,,lord,15,105,sing,red,660.1327822003514,None,None,660.1327822003514,None,,,,,,,,,,,,,,,,,,,,,,,,,,,,,,52,001,2023_Apr_24_1117,ExactRep-v3-final,2021.2.3,59.83795885531239,
,,,,,,,,105,0,105,0,,,,,,,,,,,,,,,,,,,,,,,,,,,,,,,,,,,,,,,,,,,,,,,,,,,,,664.6482682004571,None,,,,,,,,,,,,,,,,,,,,,,,,,,,,,,,,,,,cabin,119,106,aloud,blue,662.6483730999753,None,None,662.6483730999753,None,,,,,,,,,,,,,,,,,,,,,,,,,,,,,,52,001,2023_Apr_24_1117,ExactRep-v3-final,2021.2.3,59.83795885531239,
,,,,,,,,106,0,106,0,,,,,,,,,,,,,,,,,,,,,,,,,,,,,,,,,,,,,,,,,,,,,,,,,,,,,667.1508335005492,None,,,,,,,,,,,,,,,,,,,,,,,,,,,,,,,,,,,officer,1,107,sing,red,665.1502244006842,None,None,665.1502244006842,None,,,,,,,,,,,,,,,,,,,,,,,,,,,,,,52,001,2023_Apr_24_1117,ExactRep-v3-final,2021.2.3,59.83795885531239,
,,,,,,,,107,0,107,0,,,,,,,,,,,,,,,,,,,,,,,,,,,,,,,,,,,,,,,,,,,,,,,,,,,,,669.6533217001706,None,,,,,,,,,,,,,,,,,,,,,,,,,,,,,,,,,,,market,85,108,aloud,blue,667.652702100575,None,None,667.652702100575,None,,,,,,,,,,,,,,,,,,,,,,,,,,,,,,52,001,2023_Apr_24_1117,ExactRep-v3-final,2021.2.3,59.83795885531239,
,,,,,,,,108,0,108,0,,,,,,,,,,,,,,,,,,,,,,,,,,,,,,,,,,,,,,,,,,,,,,,,,,,,,672.1563945999369,None,,,,,,,,,,,,,,,,,,,,,,,,,,,,,,,,,,,priest,60,109,silent,white,670.1556456005201,None,None,670.1556456005201,None,,,,,,,,,,,,,,,,,,,,,,,,,,,,,,52,001,2023_Apr_24_1117,ExactRep-v3-final,2021.2.3,59.83795885531239,
,,,,,,,,109,0,109,0,,,,,,,,,,,,,,,,,,,,,,,,,,,,,,,,,,,,,,,,,,,,,,,,,,,,,674.6582969008014,None,,,,,,,,,,,,,,,,,,,,,,,,,,,,,,,,,,,avenue,88,110,aloud,blue,672.6592860007659,None,None,672.6592860007659,None,,,,,,,,,,,,,,,,,,,,,,,,,,,,,,52,001,2023_Apr_24_1117,ExactRep-v3-final,2021.2.3,59.83795885531239,
,,,,,,,,110,0,110,0,,,,,,,,,,,,,,,,,,,,,,,,,,,,,,,,,,,,,,,,,,,,,,,,,,,,,677.1774831004441,None,,,,,,,,,,,,,,,,,,,,,,,,,,,,,,,,,,,pupil,97,111,aloud,blue,675.1618917006999,None,None,675.1618917006999,None,,,,,,,,,,,,,,,,,,,,,,,,,,,,,,52,001,2023_Apr_24_1117,ExactRep-v3-final,2021.2.3,59.83795885531239,
,,,,,,,,111,0,111,0,,,,,,,,,,,,,,,,,,,,,,,,,,,,,,,,,,,,,,,,,,,,,,,,,,,,,679.6799463005736,None,,,,,,,,,,,,,,,,,,,,,,,,,,,,,,,,,,,bottle,87,112,aloud,blue,677.6800675000995,None,None,677.6800675000995,None,,,,,,,,,,,,,,,,,,,,,,,,,,,,,,52,001,2023_Apr_24_1117,ExactRep-v3-final,2021.2.3,59.83795885531239,
,,,,,,,,112,0,112,0,,,,,,,,,,,,,,,,,,,,,,,,,,,,,,,,,,,,,,,,,,,,,,,,,,,,,682.1991349002346,None,,,,,,,,,,,,,,,,,,,,,,,,,,,,,,,,,,,queen,31,113,sing,red,680.1836536005139,None,None,680.1836536005139,None,,,,,,,,,,,,,,,,,,,,,,,,,,,,,,52,001,2023_Apr_24_1117,ExactRep-v3-final,2021.2.3,59.83795885531239,
,,,,,,,,113,0,113,0,,,,,,,,,,,,,,,,,,,,,,,,,,,,,,,,,,,,,,,,,,,,,,,,,,,,,684.7016472006217,None,,,,,,,,,,,,,,,,,,,,,,,,,,,,,,,,,,,sea,6,114,sing,red,682.6994369002059,None,None,682.6994369002059,None,,,,,,,,,,,,,,,,,,,,,,,,,,,,,,52,001,2023_Apr_24_1117,ExactRep-v3-final,2021.2.3,59.83795885531239,
,,,,,,,,114,0,114,0,,,,,,,,,,,,,,,,,,,,,,,,,,,,,,,,,,,,,,,,,,,,,,,,,,,,,687.2206827001646,None,,,,,,,,,,,,,,,,,,,,,,,,,,,,,,,,,,,dollar,5,115,sing,red,685.210487600416,None,None,685.210487600416,None,,,,,,,,,,,,,,,,,,,,,,,,,,,,,,52,001,2023_Apr_24_1117,ExactRep-v3-final,2021.2.3,59.83795885531239,
,,,,,,,,115,0,115,0,,,,,,,,,,,,,,,,,,,,,,,,,,,,,,,,,,,,,,,,,,,,,,,,,,,,,689.7233669003472,None,,,,,,,,,,,,,,,,,,,,,,,,,,,,,,,,,,,factory,84,116,aloud,blue,687.7212911006063,None,None,687.7212911006063,None,,,,,,,,,,,,,,,,,,,,,,,,,,,,,,52,001,2023_Apr_24_1117,ExactRep-v3-final,2021.2.3,59.83795885531239,
,,,,,,,,116,0,116,0,,,,,,,,,,,,,,,,,,,,,,,,,,,,,,,,,,,,,,,,,,,,,,,,,,,,,692.225857200101,None,,,,,,,,,,,,,,,,,,,,,,,,,,,,,,,,,,,humour,55,117,silent,white,690.2253990005702,None,None,690.2253990005702,None,,,,,,,,,,,,,,,,,,,,,,,,,,,,,,52,001,2023_Apr_24_1117,ExactRep-v3-final,2021.2.3,59.83795885531239,
,,,,,,,,117,0,117,0,,,,,,,,,,,,,,,,,,,,,,,,,,,,,,,,,,,,,,,,,,,,,,,,,,,,,694.7284064004198,None,,,,,,,,,,,,,,,,,,,,,,,,,,,,,,,,,,,weapon,23,118,sing,red,692.7293980000541,None,None,692.7293980000541,None,,,,,,,,,,,,,,,,,,,,,,,,,,,,,,52,001,2023_Apr_24_1117,ExactRep-v3-final,2021.2.3,59.83795885531239,
,,,,,,,,118,0,118,0,,,,,,,,,,,,,,,,,,,,,,,,,,,,,,,,,,,,,,,,,,,,,,,,,,,,,697.2475290000439,None,,,,,,,,,,,,,,,,,,,,,,,,,,,,,,,,,,,speech,108,119,aloud,blue,695.2321736002341,None,None,695.2321736002341,None,,,,,,,,,,,,,,,,,,,,,,,,,,,,,,52,001,2023_Apr_24_1117,ExactRep-v3-final,2021.2.3,59.83795885531239,
,,,,,,,,119,0,119,0,,,,,,,,,,,,,,,,,,,,,,,,,,,,,,,,,,,,,,,,,,,,,,,,,,,,,699.7498661000282,None,,,,,,,,,,,,,,,,,,,,,,,,,,,,,,,,,,,table,42,120,silent,white,697.7480338001624,None,None,697.7480338001624,None,,,,,,,,,,,,,,,,,,,,,,,,,,,,,,52,001,2023_Apr_24_1117,ExactRep-v3-final,2021.2.3,59.83795885531239,
,,,,,,,,,,,,,,,,,,,,,,,,,,,,,,,,,,,,,,,,,,,,,,,,,,,,,,,,,,,,,,,,,,,,,,,,,,,,,,,,,,,,,,,,,,,,,,,,,,,,,,,,,,,,,,700.2522491002455,None,space,7.028442000038922,710.228431400843,None,,,,,,,,,,,,,,,,,,,,,,,,52,001,2023_Apr_24_1117,ExactRep-v3-final,2021.2.3,59.83795885531239,
,,,,,,,,,,,,,,,,,,,,,,,,,,,,,,,,,,,,,,,,,,,,,,,,,,,,,,,,,,,,,,,,,,,,,,,,,,,,,,,,,,,,,,,,,,,,,,,,,,,,,,,,,,,,,,,,,,,,717.2859287001193,None,space,29.59506390057504,727.2621817002073,None,,,,,,,,,,,,,,,,,,52,001,2023_Apr_24_1117,ExactRep-v3-final,2021.2.3,59.83795885531239,
,,,,,,,,,,,,0,0,0,0,,,,,,,,,,,,,,,,,,,,,,,,,,,,,,,,,,,,,,,,,,,,,,,,,763.5970869008452,None,,,,,,,,,,,,,,,,,,,,,,,,,,,,,,,,,,,,,,,,,,,,,,,,,,,,,,,,,freedom,187,1,sing,new,red,757.3946772003546,None,y,757.3946772003546,None,"['y', 'return']","[4.189995300024748, 6.166108399629593]",757.3946772003546,None,,,52,001,2023_Apr_24_1117,ExactRep-v3-final,2021.2.3,59.83795885531239,
,,,,,,,,,,,,1,0,1,0,,,,,,,,,,,,,,,,,,,,,,,,,,,,,,,,,,,,,,,,,,,,,,,,,767.2342062005773,None,,,,,,,,,,,,,,,,,,,,,,,,,,,,,,,,,,,,,,,,,,,,,,,,,,,,,,,,,troops,125,2,silent,new,white,764.1090550003573,None,n,764.1090550003573,None,"['n', 'return']","[2.1236078003421426, 3.0917428005486727]",764.1090550003573,None,,,52,001,2023_Apr_24_1117,ExactRep-v3-final,2021.2.3,59.83795885531239,
,,,,,,,,,,,,2,0,2,0,,,,,,,,,,,,,,,,,,,,,,,,,,,,,,,,,,,,,,,,,,,,,,,,,772.7061251001433,None,,,,,,,,,,,,,,,,,,,,,,,,,,,,,,,,,,,,,,,,,,,,,,,,,,,,,,,,,gold,106,3,aloud,old,blue,767.7429436007515,None,y,767.7429436007515,None,"['y', 'return']","[4.138120300136507, 4.921832799911499]",767.7429436007515,None,,,52,001,2023_Apr_24_1117,ExactRep-v3-final,2021.2.3,59.83795885531239,
,,,,,,,,,,,,3,0,3,0,,,,,,,,,,,,,,,,,,,,,,,,,,,,,,,,,,,,,,,,,,,,,,,,,775.2254039002582,None,,,,,,,,,,,,,,,,,,,,,,,,,,,,,,,,,,,,,,,,,,,,,,,,,,,,,,,,,duty,128,4,silent,new,white,773.2147812005132,None,n,773.2147812005132,None,"['n', 'return']","[1.1781072998419404, 1.9699964001774788]",773.2147812005132,None,,,52,001,2023_Apr_24_1117,ExactRep-v3-final,2021.2.3,59.83795885531239,
,,,,,,,,,,,,4,0,4,0,,,,,,,,,,,,,,,,,,,,,,,,,,,,,,,,,,,,,,,,,,,,,,,,,777.7112172003835,None,,,,,,,,,,,,,,,,,,,,,,,,,,,,,,,,,,,,,,,,,,,,,,,,,,,,,,,,,idea,206,5,aloud,new,blue,775.7354791006073,None,n,775.7354791006073,None,"['n', 'return']","[1.201227200217545, 1.9372864998877048]",775.7354791006073,None,,,52,001,2023_Apr_24_1117,ExactRep-v3-final,2021.2.3,59.83795885531239,
,,,,,,,,,,,,5,0,5,0,,,,,,,,,,,,,,,,,,,,,,,,,,,,,,,,,,,,,,,,,,,,,,,,,779.9967887001112,None,,,,,,,,,,,,,,,,,,,,,,,,,,,,,,,,,,,,,,,,,,,,,,,,,,,,,,,,,flood,133,6,silent,new,white,778.2191206002608,None,n,778.2191206002608,None,"['n', 'return']","[1.053592599928379, 1.7335864007472992]",778.2191206002608,None,,,52,001,2023_Apr_24_1117,ExactRep-v3-final,2021.2.3,59.83795885531239,
,,,,,,,,,,,,6,0,6,0,,,,,,,,,,,,,,,,,,,,,,,,,,,,,,,,,,,,,,,,,,,,,,,,,782.7328876005486,None,,,,,,,,,,,,,,,,,,,,,,,,,,,,,,,,,,,,,,,,,,,,,,,,,,,,,,,,,green,183,7,sing,new,red,780.5068193003535,None,n,780.5068193003535,None,"['n', 'return']","[1.446009200066328, 2.189979000017047]",780.5068193003535,None,,,52,001,2023_Apr_24_1117,ExactRep-v3-final,2021.2.3,59.83795885531239,
,,,,,,,,,,,,7,0,7,0,,,,,,,,,,,,,,,,,,,,,,,,,,,,,,,,,,,,,,,,,,,,,,,,,785.5523570002988,None,,,,,,,,,,,,,,,,,,,,,,,,,,,,,,,,,,,,,,,,,,,,,,,,,,,,,,,,,clock,9,8,sing,old,red,783.2416918007657,None,y,783.2416918007657,None,"['y', 'return']","[1.719273000024259, 2.271148200146854]",783.2416918007657,None,,,52,001,2023_Apr_24_1117,ExactRep-v3-final,2021.2.3,59.83795885531239,
,,,,,,,,,,,,8,0,8,0,,,,,,,,,,,,,,,,,,,,,,,,,,,,,,,,,,,,,,,,,,,,,,,,,788.1048582000658,None,,,,,,,,,,,,,,,,,,,,,,,,,,,,,,,,,,,,,,,,,,,,,,,,,,,,,,,,,judge,138,9,silent,new,white,786.0695132007822,None,n,786.0695132007822,None,"['n', 'return']","[1.3714503003284335, 1.9953102003782988]",786.0695132007822,None,,,52,001,2023_Apr_24_1117,ExactRep-v3-final,2021.2.3,59.83795885531239,
,,,,,,,,,,,,9,0,9,0,,,,,,,,,,,,,,,,,,,,,,,,,,,,,,,,,,,,,,,,,,,,,,,,,790.5740292007104,None,,,,,,,,,,,,,,,,,,,,,,,,,,,,,,,,,,,,,,,,,,,,,,,,,,,,,,,,,health,94,10,aloud,old,blue,788.6190154999495,None,y,788.6190154999495,None,"['y', 'return']","[1.3580366000533104, 1.909719799645245]",788.6190154999495,None,,,52,001,2023_Apr_24_1117,ExactRep-v3-final,2021.2.3,59.83795885531239,
,,,,,,,,,,,,10,0,10,0,,,,,,,,,,,,,,,,,,,,,,,,,,,,,,,,,,,,,,,,,,,,,,,,,793.1601332006976,None,,,,,,,,,,,,,,,,,,,,,,,,,,,,,,,,,,,,,,,,,,,,,,,,,,,,,,,,,effort,70,11,silent,old,white,791.0846766000614,None,n,791.0846766000614,None,"['n', 'return']","[1.4520835001021624, 2.0280932998284698]",791.0846766000614,None,,,52,001,2023_Apr_24_1117,ExactRep-v3-final,2021.2.3,59.83795885531239,
,,,,,,,,,,,,11,0,11,0,,,,,,,,,,,,,,,,,,,,,,,,,,,,,,,,,,,,,,,,,,,,,,,,,796.4799016006291,None,,,,,,,,,,,,,,,,,,,,,,,,,,,,,,,,,,,,,,,,,,,,,,,,,,,,,,,,,chair,197,12,sing,new,red,793.669806400314,None,n,793.669806400314,None,"['n', 'return']","[2.3069542003795505, 2.762991299852729]",793.669806400314,None,,,52,001,2023_Apr_24_1117,ExactRep-v3-final,2021.2.3,59.83795885531239,
,,,,,,,,,,,,12,0,12,0,,,,,,,,,,,,,,,,,,,,,,,,,,,,,,,,,,,,,,,,,,,,,,,,,798.8324345005676,None,,,,,,,,,,,,,,,,,,,,,,,,,,,,,,,,,,,,,,,,,,,,,,,,,,,,,,,,,wine,110,13,aloud,old,blue,796.9913820000365,None,y,796.9913820000365,None,"['y', 'return']","[1.1696584997698665, 1.7934429002925754]",796.9913820000365,None,,,52,001,2023_Apr_24_1117,ExactRep-v3-final,2021.2.3,59.83795885531239,
,,,,,,,,,,,,13,0,13,0,,,,,,,,,,,,,,,,,,,,,,,,,,,,,,,,,,,,,,,,,,,,,,,,,801.6517121000215,None,,,,,,,,,,,,,,,,,,,,,,,,,,,,,,,,,,,,,,,,,,,,,,,,,,,,,,,,,crime,51,14,silent,old,white,799.3424081001431,None,y,799.3424081001431,None,"['y', 'return']","[1.714376199990511, 2.2663914998993278]",799.3424081001431,None,,,52,001,2023_Apr_24_1117,ExactRep-v3-final,2021.2.3,59.83795885531239,
,,,,,,,,,,,,14,0,14,0,,,,,,,,,,,,,,,,,,,,,,,,,,,,,,,,,,,,,,,,,,,,,,,,,804.2042962005362,None,,,,,,,,,,,,,,,,,,,,,,,,,,,,,,,,,,,,,,,,,,,,,,,,,,,,,,,,,chief,37,15,sing,old,red,802.1598960002884,None,y,802.1598960002884,None,"['y', 'return']","[1.3211766993626952, 2.0008574994280934]",802.1598960002884,None,,,52,001,2023_Apr_24_1117,ExactRep-v3-final,2021.2.3,59.83795885531239,
,,,,,,,,,,,,15,0,15,0,,,,,,,,,,,,,,,,,,,,,,,,,,,,,,,,,,,,,,,,,,,,,,,,,806.5566533999518,None,,,,,,,,,,,,,,,,,,,,,,,,,,,,,,,,,,,,,,,,,,,,,,,,,,,,,,,,,hall,188,16,aloud,new,blue,804.7132840007544,None,n,804.7132840007544,None,"['n', 'return']","[1.223535600118339, 1.8075179997831583]",804.7132840007544,None,,,52,001,2023_Apr_24_1117,ExactRep-v3-final,2021.2.3,59.83795885531239,
,,,,,,,,,,,,16,0,16,0,,,,,,,,,,,,,,,,,,,,,,,,,,,,,,,,,,,,,,,,,,,,,,,,,812.6961898999289,None,,,,,,,,,,,,,,,,,,,,,,,,,,,,,,,,,,,,,,,,,,,,,,,,,,,,,,,,,law,220,17,aloud,new,blue,807.0704084001482,None,y,807.0704084001482,None,"['n', 'backspace', 'y', 'return']","[1.3623546995222569, 4.19435209967196, 5.058382200077176, 5.586413299664855]",807.0704084001482,None,,,52,001,2023_Apr_24_1117,ExactRep-v3-final,2021.2.3,59.83795885531239,
,,,,,,,,,,,,17,0,17,0,,,,,,,,,,,,,,,,,,,,,,,,,,,,,,,,,,,,,,,,,,,,,,,,,815.6657878002152,None,,,,,,,,,,,,,,,,,,,,,,,,,,,,,,,,,,,,,,,,,,,,,,,,,,,,,,,,,vision,165,18,sing,new,red,813.2059269007295,None,n,813.2059269007295,None,"['n', 'return']","[1.9708620999008417, 2.426924900151789]",813.2059269007295,None,,,52,001,2023_Apr_24_1117,ExactRep-v3-final,2021.2.3,59.83795885531239,
,,,,,,,,,,,,18,0,18,0,,,,,,,,,,,,,,,,,,,,,,,,,,,,,,,,,,,,,,,,,,,,,,,,,818.10151720047,None,,,,,,,,,,,,,,,,,,,,,,,,,,,,,,,,,,,,,,,,,,,,,,,,,,,,,,,,,corn,135,19,silent,new,white,816.1746518006548,None,n,816.1746518006548,None,"['n', 'return']","[1.3941634995862842, 1.8901477996259928]",816.1746518006548,None,,,52,001,2023_Apr_24_1117,ExactRep-v3-final,2021.2.3,59.83795885531239,
,,,,,,,,,,,,19,0,19,0,,,,,,,,,,,,,,,,,,,,,,,,,,,,,,,,,,,,,,,,,,,,,,,,,820.3205726007,None,,,,,,,,,,,,,,,,,,,,,,,,,,,,,,,,,,,,,,,,,,,,,,,,,,,,,,,,,sugar,184,20,aloud,new,blue,818.6098337005824,None,n,818.6098337005824,None,"['n', 'return']","[1.1912257997319102, 1.679011500440538]",818.6098337005824,None,,,52,001,2023_Apr_24_1117,ExactRep-v3-final,2021.2.3,59.83795885531239,
,,,,,,,,,,,,20,0,20,0,,,,,,,,,,,,,,,,,,,,,,,,,,,,,,,,,,,,,,,,,,,,,,,,,823.406984500587,None,,,,,,,,,,,,,,,,,,,,,,,,,,,,,,,,,,,,,,,,,,,,,,,,,,,,,,,,,ship,214,21,aloud,new,blue,820.8294454999268,None,y,820.8294454999268,None,"['y', 'return']","[2.019378799945116, 2.5314153004437685]",820.8294454999268,None,,,52,001,2023_Apr_24_1117,ExactRep-v3-final,2021.2.3,59.83795885531239,
,,,,,,,,,,,,21,0,21,0,,,,,,,,,,,,,,,,,,,,,,,,,,,,,,,,,,,,,,,,,,,,,,,,,825.6925103999674,None,,,,,,,,,,,,,,,,,,,,,,,,,,,,,,,,,,,,,,,,,,,,,,,,,,,,,,,,,star,132,22,silent,new,white,823.9173332005739,None,n,823.9173332005739,None,"['n', 'return']","[1.219485499896109, 1.7394941998645663]",823.9173332005739,None,,,52,001,2023_Apr_24_1117,ExactRep-v3-final,2021.2.3,59.83795885531239,
,,,,,,,,,,,,22,0,22,0,,,,,,,,,,,,,,,,,,,,,,,,,,,,,,,,,,,,,,,,,,,,,,,,,828.8289605006576,None,,,,,,,,,,,,,,,,,,,,,,,,,,,,,,,,,,,,,,,,,,,,,,,,,,,,,,,,,doll,191,23,sing,new,red,826.2012995006517,None,n,826.2012995006517,None,"['n', 'return']","[2.1116328993812203, 2.591502199880779]",826.2012995006517,None,,,52,001,2023_Apr_24_1117,ExactRep-v3-final,2021.2.3,59.83795885531239,
,,,,,,,,,,,,23,0,23,0,,,,,,,,,,,,,,,,,,,,,,,,,,,,,,,,,,,,,,,,,,,,,,,,,831.6318185003474,None,,,,,,,,,,,,,,,,,,,,,,,,,,,,,,,,,,,,,,,,,,,,,,,,,,,,,,,,,moral,221,24,sing,new,red,829.33429000061,None,n,829.33429000061,None,"['n', 'return']","[1.0905844997614622, 2.250556199811399]",829.33429000061,None,,,52,001,2023_Apr_24_1117,ExactRep-v3-final,2021.2.3,59.83795885531239,
,,,,,,,,,,,,24,0,24,0,,,,,,,,,,,,,,,,,,,,,,,,,,,,,,,,,,,,,,,,,,,,,,,,,833.7339102001861,None,,,,,,,,,,,,,,,,,,,,,,,,,,,,,,,,,,,,,,,,,,,,,,,,,,,,,,,,,anger,217,25,sing,new,red,832.1442195000127,None,n,832.1442195000127,None,"['n', 'return']","[1.1045281998813152, 1.5446134004741907]",832.1442195000127,None,,,52,001,2023_Apr_24_1117,ExactRep-v3-final,2021.2.3,59.83795885531239,
,,,,,,,,,,,,25,0,25,0,,,,,,,,,,,,,,,,,,,,,,,,,,,,,,,,,,,,,,,,,,,,,,,,,835.9361934000626,None,,,,,,,,,,,,,,,,,,,,,,,,,,,,,,,,,,,,,,,,,,,,,,,,,,,,,,,,,glory,156,26,silent,new,white,834.2438187003136,None,y,834.2438187003136,None,"['y', 'return']","[1.1410848004743457, 1.645027399994433]",834.2438187003136,None,,,52,001,2023_Apr_24_1117,ExactRep-v3-final,2021.2.3,59.83795885531239,
,,,,,,,,,,,,26,0,26,0,,,,,,,,,,,,,,,,,,,,,,,,,,,,,,,,,,,,,,,,,,,,,,,,,838.2385448003188,None,,,,,,,,,,,,,,,,,,,,,,,,,,,,,,,,,,,,,,,,,,,,,,,,,,,,,,,,,journal,122,27,silent,new,white,836.44461710006,None,y,836.44461710006,None,"['y', 'return']","[1.172474299557507, 1.7482552994042635]",836.44461710006,None,,,52,001,2023_Apr_24_1117,ExactRep-v3-final,2021.2.3,59.83795885531239,
,,,,,,,,,,,,27,0,27,0,,,,,,,,,,,,,,,,,,,,,,,,,,,,,,,,,,,,,,,,,,,,,,,,,840.4573365999386,None,,,,,,,,,,,,,,,,,,,,,,,,,,,,,,,,,,,,,,,,,,,,,,,,,,,,,,,,,thought,80,28,aloud,old,blue,838.7484434004873,None,y,838.7484434004873,None,"['y', 'return']","[1.196506000123918, 1.6763570001348853]",838.7484434004873,None,,,52,001,2023_Apr_24_1117,ExactRep-v3-final,2021.2.3,59.83795885531239,
,,,,,,,,,,,,28,0,28,0,,,,,,,,,,,,,,,,,,,,,,,,,,,,,,,,,,,,,,,,,,,,,,,,,842.6095899008214,None,,,,,,,,,,,,,,,,,,,,,,,,,,,,,,,,,,,,,,,,,,,,,,,,,,,,,,,,,lake,131,29,silent,new,white,840.9726424999535,None,n,840.9726424999535,None,"['n', 'return']","[1.1241536997258663, 1.5962383998557925]",840.9726424999535,None,,,52,001,2023_Apr_24_1117,ExactRep-v3-final,2021.2.3,59.83795885531239,
,,,,,,,,,,,,29,0,29,0,,,,,,,,,,,,,,,,,,,,,,,,,,,,,,,,,,,,,,,,,,,,,,,,,844.7781840004027,None,,,,,,,,,,,,,,,,,,,,,,,,,,,,,,,,,,,,,,,,,,,,,,,,,,,,,,,,,deed,155,30,silent,new,white,843.1183748003095,None,n,843.1183748003095,None,"['n', 'return']","[1.1066216994076967, 1.6264969995245337]",843.1183748003095,None,,,52,001,2023_Apr_24_1117,ExactRep-v3-final,2021.2.3,59.83795885531239,
,,,,,,,,,,,,30,0,30,0,,,,,,,,,,,,,,,,,,,,,,,,,,,,,,,,,,,,,,,,,,,,,,,,,847.0304920999333,None,,,,,,,,,,,,,,,,,,,,,,,,,,,,,,,,,,,,,,,,,,,,,,,,,,,,,,,,,amount,32,31,sing,old,red,845.2896762005985,None,y,845.2896762005985,None,"['y', 'return']","[1.2230828003957868, 1.703204800374806]",845.2896762005985,None,,,52,001,2023_Apr_24_1117,ExactRep-v3-final,2021.2.3,59.83795885531239,
,,,,,,,,,,,,31,0,31,0,,,,,,,,,,,,,,,,,,,,,,,,,,,,,,,,,,,,,,,,,,,,,,,,,849.1326183006167,None,,,,,,,,,,,,,,,,,,,,,,,,,,,,,,,,,,,,,,,,,,,,,,,,,,,,,,,,,breast,89,32,aloud,old,blue,847.544395999983,None,y,847.544395999983,None,"['y', 'return']","[1.0883986996486783, 1.5525361001491547]",847.544395999983,None,,,52,001,2023_Apr_24_1117,ExactRep-v3-final,2021.2.3,59.83795885531239,
,,,,,,,,,,,,32,0,32,0,,,,,,,,,,,,,,,,,,,,,,,,,,,,,,,,,,,,,,,,,,,,,,,,,851.8520188005641,None,,,,,,,,,,,,,,,,,,,,,,,,,,,,,,,,,,,,,,,,,,,,,,,,,,,,,,,,,artist,225,33,sing,new,red,849.6439535999671,None,n,849.6439535999671,None,"['n', 'return']","[1.7248485004529357, 2.172902200371027]",849.6439535999671,None,,,52,001,2023_Apr_24_1117,ExactRep-v3-final,2021.2.3,59.83795885531239,
,,,,,,,,,,,,33,0,33,0,,,,,,,,,,,,,,,,,,,,,,,,,,,,,,,,,,,,,,,,,,,,,,,,,854.0542302001268,None,,,,,,,,,,,,,,,,,,,,,,,,,,,,,,,,,,,,,,,,,,,,,,,,,,,,,,,,,palace,26,34,sing,old,red,852.3654101006687,None,n,852.3654101006687,None,"['n', 'return']","[1.1953972997143865, 1.6514660995453596]",852.3654101006687,None,,,52,001,2023_Apr_24_1117,ExactRep-v3-final,2021.2.3,59.83795885531239,
,,,,,,,,,,,,34,0,34,0,,,,,,,,,,,,,,,,,,,,,,,,,,,,,,,,,,,,,,,,,,,,,,,,,856.1395882004872,None,,,,,,,,,,,,,,,,,,,,,,,,,,,,,,,,,,,,,,,,,,,,,,,,,,,,,,,,,cotton,199,35,sing,new,red,854.565353400074,None,n,854.565353400074,None,"['n', 'return']","[1.0196039006114006, 1.5395494000986218]",854.565353400074,None,,,52,001,2023_Apr_24_1117,ExactRep-v3-final,2021.2.3,59.83795885531239,
,,,,,,,,,,,,35,0,35,0,,,,,,,,,,,,,,,,,,,,,,,,,,,,,,,,,,,,,,,,,,,,,,,,,858.3086434006691,None,,,,,,,,,,,,,,,,,,,,,,,,,,,,,,,,,,,,,,,,,,,,,,,,,,,,,,,,,blood,223,36,sing,new,red,856.6496278000996,None,y,856.6496278000996,None,"['y', 'return']","[1.1671734005212784, 1.6233461005613208]",856.6496278000996,None,,,52,001,2023_Apr_24_1117,ExactRep-v3-final,2021.2.3,59.83795885531239,
,,,,,,,,,,,,36,0,36,0,,,,,,,,,,,,,,,,,,,,,,,,,,,,,,,,,,,,,,,,,,,,,,,,,860.36044840049,None,,,,,,,,,,,,,,,,,,,,,,,,,,,,,,,,,,,,,,,,,,,,,,,,,,,,,,,,,heaven,30,37,sing,old,red,858.8199506001547,None,y,858.8199506001547,None,"['y', 'return']","[1.012813599780202, 1.500980000011623]",858.8199506001547,None,,,52,001,2023_Apr_24_1117,ExactRep-v3-final,2021.2.3,59.83795885531239,
,,,,,,,,,,,,37,0,37,0,,,,,,,,,,,,,,,,,,,,,,,,,,,,,,,,,,,,,,,,,,,,,,,,,862.4959115004167,None,,,,,,,,,,,,,,,,,,,,,,,,,,,,,,,,,,,,,,,,,,,,,,,,,,,,,,,,,series,170,38,aloud,new,blue,860.8687996007502,None,n,860.8687996007502,None,"['n', 'return']","[1.1000180998817086, 1.5801021000370383]",860.8687996007502,None,,,52,001,2023_Apr_24_1117,ExactRep-v3-final,2021.2.3,59.83795885531239,
,,,,,,,,,,,,38,0,38,0,,,,,,,,,,,,,,,,,,,,,,,,,,,,,,,,,,,,,,,,,,,,,,,,,865.6657491000369,None,,,,,,,,,,,,,,,,,,,,,,,,,,,,,,,,,,,,,,,,,,,,,,,,,,,,,,,,,house,168,39,aloud,new,blue,863.0082155000418,None,n,863.0082155000418,None,"['n', 'return']","[2.248641800135374, 2.6245782002806664]",863.0082155000418,None,,,52,001,2023_Apr_24_1117,ExactRep-v3-final,2021.2.3,59.83795885531239,
,,,,,,,,,,,,39,0,39,0,,,,,,,,,,,,,,,,,,,,,,,,,,,,,,,,,,,,,,,,,,,,,,,,,867.7012872006744,None,,,,,,,,,,,,,,,,,,,,,,,,,,,,,,,,,,,,,,,,,,,,,,,,,,,,,,,,,metal,4,40,sing,old,red,866.173592899926,None,y,866.173592899926,None,"['y', 'return']","[1.0513595007359982, 1.4832434002310038]",866.173592899926,None,,,52,001,2023_Apr_24_1117,ExactRep-v3-final,2021.2.3,59.83795885531239,
,,,,,,,,,,,,40,0,40,0,,,,,,,,,,,,,,,,,,,,,,,,,,,,,,,,,,,,,,,,,,,,,,,,,869.7700022999197,None,,,,,,,,,,,,,,,,,,,,,,,,,,,,,,,,,,,,,,,,,,,,,,,,,,,,,,,,,poet,93,41,aloud,old,blue,868.217119500041,None,y,868.217119500041,None,"['y', 'return']","[1.0398324001580477, 1.511819500476122]",868.217119500041,None,,,52,001,2023_Apr_24_1117,ExactRep-v3-final,2021.2.3,59.83795885531239,
,,,,,,,,,,,,41,0,41,0,,,,,,,,,,,,,,,,,,,,,,,,,,,,,,,,,,,,,,,,,,,,,,,,,872.1723400000483,None,,,,,,,,,,,,,,,,,,,,,,,,,,,,,,,,,,,,,,,,,,,,,,,,,,,,,,,,,product,20,42,sing,old,red,870.2796603003517,None,y,870.2796603003517,None,"['y', 'return']","[1.2810946004465222, 1.8491553999483585]",870.2796603003517,None,,,52,001,2023_Apr_24_1117,ExactRep-v3-final,2021.2.3,59.83795885531239,
,,,,,,,,,,,,42,0,42,0,,,,,,,,,,,,,,,,,,,,,,,,,,,,,,,,,,,,,,,,,,,,,,,,,874.9586162008345,None,,,,,,,,,,,,,,,,,,,,,,,,,,,,,,,,,,,,,,,,,,,,,,,,,,,,,,,,,slave,172,43,aloud,new,blue,872.6740436004475,None,n,872.6740436004475,None,"['n', 'return']","[1.774931900203228, 2.2388481004163623]",872.6740436004475,None,,,52,001,2023_Apr_24_1117,ExactRep-v3-final,2021.2.3,59.83795885531239,
,,,,,,,,,,,,43,0,43,0,,,,,,,,,,,,,,,,,,,,,,,,,,,,,,,,,,,,,,,,,,,,,,,,,876.9436900001019,None,,,,,,,,,,,,,,,,,,,,,,,,,,,,,,,,,,,,,,,,,,,,,,,,,,,,,,,,,hide,169,44,sing,new,red,875.4674927005544,None,n,875.4674927005544,None,"['n', 'return']","[1.0053733997046947, 1.4374508997425437]",875.4674927005544,None,,,52,001,2023_Apr_24_1117,ExactRep-v3-final,2021.2.3,59.83795885531239,
,,,,,,,,,,,,44,0,44,0,,,,,,,,,,,,,,,,,,,,,,,,,,,,,,,,,,,,,,,,,,,,,,,,,879.2126295007765,None,,,,,,,,,,,,,,,,,,,,,,,,,,,,,,,,,,,,,,,,,,,,,,,,,,,,,,,,,devil,0,45,sing,old,red,877.4512211000547,None,y,877.4512211000547,None,"['y', 'return']","[1.1976079000160098, 1.7175418995320797]",877.4512211000547,None,,,52,001,2023_Apr_24_1117,ExactRep-v3-final,2021.2.3,59.83795885531239,
,,,,,,,,,,,,45,0,45,0,,,,,,,,,,,,,,,,,,,,,,,,,,,,,,,,,,,,,,,,,,,,,,,,,881.198060600087,None,,,,,,,,,,,,,,,,,,,,,,,,,,,,,,,,,,,,,,,,,,,,,,,,,,,,,,,,,cattle,193,46,sing,new,red,879.7209763005376,None,n,879.7209763005376,None,"['n', 'return']","[0.9359484994783998, 1.4319276995956898]",879.7209763005376,None,,,52,001,2023_Apr_24_1117,ExactRep-v3-final,2021.2.3,59.83795885531239,
,,,,,,,,,,,,46,0,46,0,,,,,,,,,,,,,,,,,,,,,,,,,,,,,,,,,,,,,,,,,,,,,,,,,883.2666923999786,None,,,,,,,,,,,,,,,,,,,,,,,,,,,,,,,,,,,,,,,,,,,,,,,,,,,,,,,,,toy,36,47,sing,old,red,881.7102797999978,None,y,881.7102797999978,None,"['y', 'return']","[1.090569100342691, 1.5145997004583478]",881.7102797999978,None,,,52,001,2023_Apr_24_1117,ExactRep-v3-final,2021.2.3,59.83795885531239,
,,,,,,,,,,,,47,0,47,0,,,,,,,,,,,,,,,,,,,,,,,,,,,,,,,,,,,,,,,,,,,,,,,,,885.1685978006572,None,,,,,,,,,,,,,,,,,,,,,,,,,,,,,,,,,,,,,,,,,,,,,,,,,,,,,,,,,flesh,21,48,sing,old,red,883.7766998000443,None,y,883.7766998000443,None,"['y', 'return']","[0.9362511998042464, 1.3602120000869036]",883.7766998000443,None,,,52,001,2023_Apr_24_1117,ExactRep-v3-final,2021.2.3,59.83795885531239,
,,,,,,,,,,,,48,0,48,0,,,,,,,,,,,,,,,,,,,,,,,,,,,,,,,,,,,,,,,,,,,,,,,,,889.2726797005162,None,,,,,,,,,,,,,,,,,,,,,,,,,,,,,,,,,,,,,,,,,,,,,,,,,,,,,,,,,fault,92,49,aloud,old,blue,885.6785351000726,None,n,885.6785351000726,None,"['n', 'return']","[3.130545400083065, 3.5465056002140045]",885.6785351000726,None,,,52,001,2023_Apr_24_1117,ExactRep-v3-final,2021.2.3,59.83795885531239,
,,,,,,,,,,,,49,0,49,0,,,,,,,,,,,,,,,,,,,,,,,,,,,,,,,,,,,,,,,,,,,,,,,,,891.258014800027,None,,,,,,,,,,,,,,,,,,,,,,,,,,,,,,,,,,,,,,,,,,,,,,,,,,,,,,,,,shame,208,50,aloud,new,blue,889.7845075000077,None,n,889.7845075000077,None,"['n', 'return']","[0.9923772998154163, 1.4404737995937467]",889.7845075000077,None,,,52,001,2023_Apr_24_1117,ExactRep-v3-final,2021.2.3,59.83795885531239,
,,,,,,,,,,,,50,0,50,0,,,,,,,,,,,,,,,,,,,,,,,,,,,,,,,,,,,,,,,,,,,,,,,,,894.6781938001513,None,,,,,,,,,,,,,,,,,,,,,,,,,,,,,,,,,,,,,,,,,,,,,,,,,,,,,,,,,coast,176,51,aloud,new,blue,891.7666084999219,None,y,891.7666084999219,None,"['n', 'backspace', 'y', 'return']","[0.9784233998507261, 2.0822625998407602, 2.466475300490856, 2.8663106001913548]",891.7666084999219,None,,,52,001,2023_Apr_24_1117,ExactRep-v3-final,2021.2.3,59.83795885531239,
,,,,,,,,,,,,51,0,51,0,,,,,,,,,,,,,,,,,,,,,,,,,,,,,,,,,,,,,,,,,,,,,,,,,896.6802601004019,None,,,,,,,,,,,,,,,,,,,,,,,,,,,,,,,,,,,,,,,,,,,,,,,,,,,,,,,,,form,59,52,silent,old,white,895.1864851005375,None,n,895.1864851005375,None,"['n', 'return']","[0.9904324999079108, 1.4544053999707103]",895.1864851005375,None,,,52,001,2023_Apr_24_1117,ExactRep-v3-final,2021.2.3,59.83795885531239,
,,,,,,,,,,,,52,0,52,0,,,,,,,,,,,,,,,,,,,,,,,,,,,,,,,,,,,,,,,,,,,,,,,,,898.7154362006113,None,,,,,,,,,,,,,,,,,,,,,,,,,,,,,,,,,,,,,,,,,,,,,,,,,,,,,,,,,lad,69,53,silent,old,white,897.1888187006116,None,n,897.1888187006116,None,"['n', 'return']","[0.9642734993249178, 1.4840649999678135]",897.1888187006116,None,,,52,001,2023_Apr_24_1117,ExactRep-v3-final,2021.2.3,59.83795885531239,
,,,,,,,,,,,,53,0,53,0,,,,,,,,,,,,,,,,,,,,,,,,,,,,,,,,,,,,,,,,,,,,,,,,,901.3016378004104,None,,,,,,,,,,,,,,,,,,,,,,,,,,,,,,,,,,,,,,,,,,,,,,,,,,,,,,,,,truth,200,54,aloud,new,blue,899.2269027000293,None,n,899.2269027000293,None,"['n', 'return']","[1.2620823001489043, 2.0299588004127145]",899.2269027000293,None,,,52,001,2023_Apr_24_1117,ExactRep-v3-final,2021.2.3,59.83795885531239,
,,,,,,,,,,,,54,0,54,0,,,,,,,,,,,,,,,,,,,,,,,,,,,,,,,,,,,,,,,,,,,,,,,,,903.8039722004905,None,,,,,,,,,,,,,,,,,,,,,,,,,,,,,,,,,,,,,,,,,,,,,,,,,,,,,,,,,cat,22,55,sing,old,red,901.8023764006793,None,y,901.8023764006793,None,"['y', 'return']","[1.4705827003344893, 1.9664618000388145]",901.8023764006793,None,,,52,001,2023_Apr_24_1117,ExactRep-v3-final,2021.2.3,59.83795885531239,
,,,,,,,,,,,,55,0,55,0,,,,,,,,,,,,,,,,,,,,,,,,,,,,,,,,,,,,,,,,,,,,,,,,,905.8559523001313,None,,,,,,,,,,,,,,,,,,,,,,,,,,,,,,,,,,,,,,,,,,,,,,,,,,,,,,,,,pole,180,56,aloud,new,blue,904.3129558004439,None,n,904.3129558004439,None,"['n', 'return']","[1.0880367998033762, 1.4959819000214338]",904.3129558004439,None,,,52,001,2023_Apr_24_1117,ExactRep-v3-final,2021.2.3,59.83795885531239,
,,,,,,,,,,,,56,0,56,0,,,,,,,,,,,,,,,,,,,,,,,,,,,,,,,,,,,,,,,,,,,,,,,,,907.9246796006337,None,,,,,,,,,,,,,,,,,,,,,,,,,,,,,,,,,,,,,,,,,,,,,,,,,,,,,,,,,dress,182,57,aloud,new,blue,906.3714867001399,None,n,906.3714867001399,None,"['n', 'return']","[1.045575199648738, 1.50935859978199]",906.3714867001399,None,,,52,001,2023_Apr_24_1117,ExactRep-v3-final,2021.2.3,59.83795885531239,
,,,,,,,,,,,,57,0,57,0,,,,,,,,,,,,,,,,,,,,,,,,,,,,,,,,,,,,,,,,,,,,,,,,,910.777536100708,None,,,,,,,,,,,,,,,,,,,,,,,,,,,,,,,,,,,,,,,,,,,,,,,,,,,,,,,,,bowl,52,58,silent,old,white,908.4361421000212,None,y,908.4361421000212,None,"['y', 'return']","[1.8927078004926443, 2.300751400180161]",908.4361421000212,None,,,52,001,2023_Apr_24_1117,ExactRep-v3-final,2021.2.3,59.83795885531239,
,,,,,,,,,,,,58,0,58,0,,,,,,,,,,,,,,,,,,,,,,,,,,,,,,,,,,,,,,,,,,,,,,,,,912.8296143002808,None,,,,,,,,,,,,,,,,,,,,,,,,,,,,,,,,,,,,,,,,,,,,,,,,,,,,,,,,,wife,90,59,aloud,old,blue,911.2901248000562,None,y,911.2901248000562,None,"['y', 'return']","[1.00682230014354, 1.4948081001639366]",911.2901248000562,None,,,52,001,2023_Apr_24_1117,ExactRep-v3-final,2021.2.3,59.83795885531239,
,,,,,,,,,,,,59,0,59,0,,,,,,,,,,,,,,,,,,,,,,,,,,,,,,,,,,,,,,,,,,,,,,,,,915.0152620002627,None,,,,,,,,,,,,,,,,,,,,,,,,,,,,,,,,,,,,,,,,,,,,,,,,,,,,,,,,,beast,145,60,silent,new,white,913.3386971000582,None,n,913.3386971000582,None,"['n', 'return']","[1.1822150005027652, 1.638307400047779]",913.3386971000582,None,,,52,001,2023_Apr_24_1117,ExactRep-v3-final,2021.2.3,59.83795885531239,
,,,,,,,,,,,,60,0,60,0,,,,,,,,,,,,,,,,,,,,,,,,,,,,,,,,,,,,,,,,,,,,,,,,,918.4351923000067,None,,,,,,,,,,,,,,,,,,,,,,,,,,,,,,,,,,,,,,,,,,,,,,,,,,,,,,,,,victory,129,61,silent,new,white,915.5296001005918,None,y,915.5296001005918,None,"['n', 'backspace', 'y', 'return']","[1.0874712001532316, 2.135347600094974, 2.4633466005325317, 2.8713035006076097]",915.5296001005918,None,,,52,001,2023_Apr_24_1117,ExactRep-v3-final,2021.2.3,59.83795885531239,
,,,,,,,,,,,,61,0,61,0,,,,,,,,,,,,,,,,,,,,,,,,,,,,,,,,,,,,,,,,,,,,,,,,,920.787539800629,None,,,,,,,,,,,,,,,,,,,,,,,,,,,,,,,,,,,,,,,,,,,,,,,,,,,,,,,,,machine,16,62,sing,old,red,918.9459651000798,None,y,918.9459651000798,None,"['y', 'return']","[1.3509579999372363, 1.7988954996690154]",918.9459651000798,None,,,52,001,2023_Apr_24_1117,ExactRep-v3-final,2021.2.3,59.83795885531239,
,,,,,,,,,,,,62,0,62,0,,,,,,,,,,,,,,,,,,,,,,,,,,,,,,,,,,,,,,,,,,,,,,,,,923.6404004003853,None,,,,,,,,,,,,,,,,,,,,,,,,,,,,,,,,,,,,,,,,,,,,,,,,,,,,,,,,,picture,49,63,silent,old,white,921.2975147999823,None,y,921.2975147999823,None,"['y', 'return']","[1.9354653004556894, 2.3115095999091864]",921.2975147999823,None,,,52,001,2023_Apr_24_1117,ExactRep-v3-final,2021.2.3,59.83795885531239,
,,,,,,,,,,,,63,0,63,0,,,,,,,,,,,,,,,,,,,,,,,,,,,,,,,,,,,,,,,,,,,,,,,,,925.6757692005485,None,,,,,,,,,,,,,,,,,,,,,,,,,,,,,,,,,,,,,,,,,,,,,,,,,,,,,,,,,fortune,79,64,sing,old,red,924.141083500348,None,y,924.141083500348,None,"['y', 'return']","[1.0758544001728296, 1.4917941996827722]",924.141083500348,None,,,52,001,2023_Apr_24_1117,ExactRep-v3-final,2021.2.3,59.83795885531239,
,,,,,,,,,,,,64,0,64,0,,,,,,,,,,,,,,,,,,,,,,,,,,,,,,,,,,,,,,,,,,,,,,,,,927.6112313000485,None,,,,,,,,,,,,,,,,,,,,,,,,,,,,,,,,,,,,,,,,,,,,,,,,,,,,,,,,,method,222,65,aloud,new,blue,926.1868227999657,None,n,926.1868227999657,None,"['n', 'return']","[0.9580720001831651, 1.3900349996984005]",926.1868227999657,None,,,52,001,2023_Apr_24_1117,ExactRep-v3-final,2021.2.3,59.83795885531239,
,,,,,,,,,,,,65,0,65,0,,,,,,,,,,,,,,,,,,,,,,,,,,,,,,,,,,,,,,,,,,,,,,,,,929.5796653004363,None,,,,,,,,,,,,,,,,,,,,,,,,,,,,,,,,,,,,,,,,,,,,,,,,,,,,,,,,,humour,55,66,silent,old,white,928.1194812003523,None,n,928.1194812003523,None,"['n', 'return']","[0.9453173000365496, 1.4253110997378826]",928.1194812003523,None,,,52,001,2023_Apr_24_1117,ExactRep-v3-final,2021.2.3,59.83795885531239,
,,,,,,,,,,,,66,0,66,0,,,,,,,,,,,,,,,,,,,,,,,,,,,,,,,,,,,,,,,,,,,,,,,,,931.5149325001985,None,,,,,,,,,,,,,,,,,,,,,,,,,,,,,,,,,,,,,,,,,,,,,,,,,,,,,,,,,lip,57,67,silent,old,white,930.0894696004689,None,n,930.0894696004689,None,"['n', 'return']","[0.8796623004600406, 1.3834263999015093]",930.0894696004689,None,,,52,001,2023_Apr_24_1117,ExactRep-v3-final,2021.2.3,59.83795885531239,
,,,,,,,,,,,,67,0,67,0,,,,,,,,,,,,,,,,,,,,,,,,,,,,,,,,,,,,,,,,,,,,,,,,,933.8007121002302,None,,,,,,,,,,,,,,,,,,,,,,,,,,,,,,,,,,,,,,,,,,,,,,,,,,,,,,,,,student,147,68,silent,new,white,932.023990300484,None,n,932.023990300484,None,"['n', 'return']","[1.2248666007071733, 1.7288701999932528]",932.023990300484,None,,,52,001,2023_Apr_24_1117,ExactRep-v3-final,2021.2.3,59.83795885531239,
,,,,,,,,,,,,68,0,68,0,,,,,,,,,,,,,,,,,,,,,,,,,,,,,,,,,,,,,,,,,,,,,,,,,936.4198406999931,None,,,,,,,,,,,,,,,,,,,,,,,,,,,,,,,,,,,,,,,,,,,,,,,,,,,,,,,,,fate,114,69,aloud,old,blue,934.3100765999407,None,y,934.3100765999407,None,"['y', 'return']","[1.5469944002106786, 2.066904400475323]",934.3100765999407,None,,,52,001,2023_Apr_24_1117,ExactRep-v3-final,2021.2.3,59.83795885531239,
,,,,,,,,,,,,69,0,69,0,,,,,,,,,,,,,,,,,,,,,,,,,,,,,,,,,,,,,,,,,,,,,,,,,938.4885818008333,None,,,,,,,,,,,,,,,,,,,,,,,,,,,,,,,,,,,,,,,,,,,,,,,,,,,,,,,,,mercy,126,70,silent,new,white,936.9292316008359,None,n,936.9292316008359,None,"['n', 'return']","[1.039822700433433, 1.5197215005755424]",936.9292316008359,None,,,52,001,2023_Apr_24_1117,ExactRep-v3-final,2021.2.3,59.83795885531239,
,,,,,,,,,,,,70,0,70,0,,,,,,,,,,,,,,,,,,,,,,,,,,,,,,,,,,,,,,,,,,,,,,,,,940.4904968999326,None,,,,,,,,,,,,,,,,,,,,,,,,,,,,,,,,,,,,,,,,,,,,,,,,,,,,,,,,,library,77,71,silent,old,white,939.0046859001741,None,y,939.0046859001741,None,"['y', 'return']","[1.0202460000291467, 1.4521537004038692]",939.0046859001741,None,,,52,001,2023_Apr_24_1117,ExactRep-v3-final,2021.2.3,59.83795885531239,
,,,,,,,,,,,,71,0,71,0,,,,,,,,,,,,,,,,,,,,,,,,,,,,,,,,,,,,,,,,,,,,,,,,,942.5594762004912,None,,,,,,,,,,,,,,,,,,,,,,,,,,,,,,,,,,,,,,,,,,,,,,,,,,,,,,,,,ocean,44,72,silent,old,white,941.0010531004518,None,n,941.0010531004518,None,"['n', 'return']","[1.008110299706459, 1.519947599619627]",941.0010531004518,None,,,52,001,2023_Apr_24_1117,ExactRep-v3-final,2021.2.3,59.83795885531239,
,,,,,,,,,,,,72,0,72,0,,,,,,,,,,,,,,,,,,,,,,,,,,,,,,,,,,,,,,,,,,,,,,,,,944.8784746006131,None,,,,,,,,,,,,,,,,,,,,,,,,,,,,,,,,,,,,,,,,,,,,,,,,,,,,,,,,,doctor,229,73,sing,new,red,943.0722700003535,None,n,943.0722700003535,None,"['n', 'return']","[1.2567533999681473, 1.7687448002398014]",943.0722700003535,None,,,52,001,2023_Apr_24_1117,ExactRep-v3-final,2021.2.3,59.83795885531239,
,,,,,,,,,,,,73,0,73,0,,,,,,,,,,,,,,,,,,,,,,,,,,,,,,,,,,,,,,,,,,,,,,,,,947.163931700401,None,,,,,,,,,,,,,,,,,,,,,,,,,,,,,,,,,,,,,,,,,,,,,,,,,,,,,,,,,plant,150,74,silent,new,white,945.3865204006433,None,n,945.3865204006433,None,"['n', 'return']","[1.174625400453806, 1.7343961000442505]",945.3865204006433,None,,,52,001,2023_Apr_24_1117,ExactRep-v3-final,2021.2.3,59.83795885531239,
,,,,,,,,,,,,74,0,74,0,,,,,,,,,,,,,,,,,,,,,,,,,,,,,,,,,,,,,,,,,,,,,,,,,950.6007533008233,None,,,,,,,,,,,,,,,,,,,,,,,,,,,,,,,,,,,,,,,,,,,,,,,,,,,,,,,,,shore,83,75,aloud,old,blue,947.6738851005211,None,y,947.6738851005211,None,"['n', 'backspace', 'y', 'return']","[1.127288700081408, 2.167074100114405, 2.4952173996716738, 2.895115699619055]",947.6738851005211,None,,,52,001,2023_Apr_24_1117,ExactRep-v3-final,2021.2.3,59.83795885531239,
,,,,,,,,,,,,75,0,75,0,,,,,,,,,,,,,,,,,,,,,,,,,,,,,,,,,,,,,,,,,,,,,,,,,952.9697112003341,None,,,,,,,,,,,,,,,,,,,,,,,,,,,,,,,,,,,,,,,,,,,,,,,,,,,,,,,,,forest,137,76,silent,new,white,951.1023847004399,None,y,951.1023847004399,None,"['y', 'return']","[1.4105219999328256, 1.8344951998442411]",951.1023847004399,None,,,52,001,2023_Apr_24_1117,ExactRep-v3-final,2021.2.3,59.83795885531239,
,,,,,,,,,,,,76,0,76,0,,,,,,,,,,,,,,,,,,,,,,,,,,,,,,,,,,,,,,,,,,,,,,,,,954.9383748006076,None,,,,,,,,,,,,,,,,,,,,,,,,,,,,,,,,,,,,,,,,,,,,,,,,,,,,,,,,,arm,151,77,silent,new,white,953.4894873006269,None,n,953.4894873006269,None,"['n', 'return']","[0.9035691004246473, 1.415518700145185]",953.4894873006269,None,,,52,001,2023_Apr_24_1117,ExactRep-v3-final,2021.2.3,59.83795885531239,
,,,,,,,,,,,,77,0,77,0,,,,,,,,,,,,,,,,,,,,,,,,,,,,,,,,,,,,,,,,,,,,,,,,,957.6577409999445,None,,,,,,,,,,,,,,,,,,,,,,,,,,,,,,,,,,,,,,,,,,,,,,,,,,,,,,,,,month,201,78,sing,new,red,955.4456553002819,None,n,955.4456553002819,None,"['n', 'return']","[1.3873491007834673, 2.1792479008436203]",955.4456553002819,None,,,52,001,2023_Apr_24_1117,ExactRep-v3-final,2021.2.3,59.83795885531239,
,,,,,,,,,,,,78,0,78,0,,,,,,,,,,,,,,,,,,,,,,,,,,,,,,,,,,,,,,,,,,,,,,,,,959.7764615006745,None,,,,,,,,,,,,,,,,,,,,,,,,,,,,,,,,,,,,,,,,,,,,,,,,,,,,,,,,,kiss,67,79,silent,old,white,958.1665733000264,None,y,958.1665733000264,None,"['y', 'return']","[1.1304616993293166, 1.562191299162805]",958.1665733000264,None,,,52,001,2023_Apr_24_1117,ExactRep-v3-final,2021.2.3,59.83795885531239,
,,,,,,,,,,,,79,0,79,0,,,,,,,,,,,,,,,,,,,,,,,,,,,,,,,,,,,,,,,,,,,,,,,,,961.8285721000284,None,,,,,,,,,,,,,,,,,,,,,,,,,,,,,,,,,,,,,,,,,,,,,,,,,,,,,,,,,cash,54,80,silent,old,white,960.2842209003866,None,n,960.2842209003866,None,"['n', 'return']","[0.9967077001929283, 1.5087489001452923]",960.2842209003866,None,,,52,001,2023_Apr_24_1117,ExactRep-v3-final,2021.2.3,59.83795885531239,
,,,,,,,,,,,,80,0,80,0,,,,,,,,,,,,,,,,,,,,,,,,,,,,,,,,,,,,,,,,,,,,,,,,,963.980732800439,None,,,,,,,,,,,,,,,,,,,,,,,,,,,,,,,,,,,,,,,,,,,,,,,,,,,,,,,,,party,98,81,aloud,old,blue,962.3290101001039,None,n,962.3290101001039,None,"['n', 'return']","[1.1040802001953125, 1.6078725000843406]",962.3290101001039,None,,,52,001,2023_Apr_24_1117,ExactRep-v3-final,2021.2.3,59.83795885531239,
,,,,,,,,,,,,81,0,81,0,,,,,,,,,,,,,,,,,,,,,,,,,,,,,,,,,,,,,,,,,,,,,,,,,965.7993879001588,None,,,,,,,,,,,,,,,,,,,,,,,,,,,,,,,,,,,,,,,,,,,,,,,,,,,,,,,,,valley,234,82,aloud,new,blue,964.4897530004382,None,n,964.4897530004382,None,"['n', 'return']","[0.8312056995928288, 1.2713116994127631]",964.4897530004382,None,,,52,001,2023_Apr_24_1117,ExactRep-v3-final,2021.2.3,59.83795885531239,
,,,,,,,,,,,,82,0,82,0,,,,,,,,,,,,,,,,,,,,,,,,,,,,,,,,,,,,,,,,,,,,,,,,,967.818130900152,None,,,,,,,,,,,,,,,,,,,,,,,,,,,,,,,,,,,,,,,,,,,,,,,,,,,,,,,,,prison,76,83,silent,old,white,966.309149700217,None,y,966.309149700217,None,"['y', 'return']","[1.043969800695777, 1.4677982004359365]",966.309149700217,None,,,52,001,2023_Apr_24_1117,ExactRep-v3-final,2021.2.3,59.83795885531239,
,,,,,,,,,,,,83,0,83,0,,,,,,,,,,,,,,,,,,,,,,,,,,,,,,,,,,,,,,,,,,,,,,,,,969.9366912003607,None,,,,,,,,,,,,,,,,,,,,,,,,,,,,,,,,,,,,,,,,,,,,,,,,,,,,,,,,,cottage,66,84,silent,old,white,968.3273841999471,None,y,968.3273841999471,None,"['y', 'return']","[1.1455910000950098, 1.5696074003353715]",968.3273841999471,None,,,52,001,2023_Apr_24_1117,ExactRep-v3-final,2021.2.3,59.83795885531239,
,,,,,,,,,,,,84,0,84,0,,,,,,,,,,,,,,,,,,,,,,,,,,,,,,,,,,,,,,,,,,,,,,,,,973.0564903002232,None,,,,,,,,,,,,,,,,,,,,,,,,,,,,,,,,,,,,,,,,,,,,,,,,,,,,,,,,,bird,103,85,aloud,old,blue,970.4427388999611,None,n,970.4427388999611,None,"['n', 'return']","[2.054291599430144, 2.5745182000100613]",970.4427388999611,None,,,52,001,2023_Apr_24_1117,ExactRep-v3-final,2021.2.3,59.83795885531239,
,,,,,,,,,,,,85,0,85,0,,,,,,,,,,,,,,,,,,,,,,,,,,,,,,,,,,,,,,,,,,,,,,,,,975.5089317001402,None,,,,,,,,,,,,,,,,,,,,,,,,,,,,,,,,,,,,,,,,,,,,,,,,,,,,,,,,,bottle,87,86,aloud,old,blue,973.570433200337,None,y,973.570433200337,None,"['y', 'return']","[1.5346063002943993, 1.894474900327623]",973.570433200337,None,,,52,001,2023_Apr_24_1117,ExactRep-v3-final,2021.2.3,59.83795885531239,
,,,,,,,,,,,,86,0,86,0,,,,,,,,,,,,,,,,,,,,,,,,,,,,,,,,,,,,,,,,,,,,,,,,,977.4944467004389,None,,,,,,,,,,,,,,,,,,,,,,,,,,,,,,,,,,,,,,,,,,,,,,,,,,,,,,,,,horse,189,87,sing,new,red,976.0215073004365,None,n,976.0215073004365,None,"['n', 'return']","[1.0034563997760415, 1.427466900087893]",976.0215073004365,None,,,52,001,2023_Apr_24_1117,ExactRep-v3-final,2021.2.3,59.83795885531239,
,,,,,,,,,,,,87,0,87,0,,,,,,,,,,,,,,,,,,,,,,,,,,,,,,,,,,,,,,,,,,,,,,,,,979.5629942007363,None,,,,,,,,,,,,,,,,,,,,,,,,,,,,,,,,,,,,,,,,,,,,,,,,,,,,,,,,,city,45,88,silent,old,white,978.0036540003493,None,n,978.0036540003493,None,"['n', 'return']","[1.0934792999178171, 1.5253508994355798]",978.0036540003493,None,,,52,001,2023_Apr_24_1117,ExactRep-v3-final,2021.2.3,59.83795885531239,
,,,,,,,,,,,,88,0,88,0,,,,,,,,,,,,,,,,,,,,,,,,,,,,,,,,,,,,,,,,,,,,,,,,,981.6984673002735,None,,,,,,,,,,,,,,,,,,,,,,,,,,,,,,,,,,,,,,,,,,,,,,,,,,,,,,,,,diamond,73,89,silent,old,white,980.0809431001544,None,y,980.0809431001544,None,"['y', 'return']","[1.1199666997417808, 1.5839482992887497]",980.0809431001544,None,,,52,001,2023_Apr_24_1117,ExactRep-v3-final,2021.2.3,59.83795885531239,
,,,,,,,,,,,,89,0,89,0,,,,,,,,,,,,,,,,,,,,,,,,,,,,,,,,,,,,,,,,,,,,,,,,,983.7504871999845,None,,,,,,,,,,,,,,,,,,,,,,,,,,,,,,,,,,,,,,,,,,,,,,,,,,,,,,,,,virtue,56,90,silent,old,white,982.2089664004743,None,y,982.2089664004743,None,"['y', 'return']","[1.0559242004528642, 1.4959381008520722]",982.2089664004743,None,,,52,001,2023_Apr_24_1117,ExactRep-v3-final,2021.2.3,59.83795885531239,
,,,,,,,,,,,,90,0,90,0,,,,,,,,,,,,,,,,,,,,,,,,,,,,,,,,,,,,,,,,,,,,,,,,,986.2196393003687,None,,,,,,,,,,,,,,,,,,,,,,,,,,,,,,,,,,,,,,,,,,,,,,,,,,,,,,,,,garden,175,91,sing,new,red,984.2653612000868,None,n,984.2653612000868,None,"['n', 'return']","[1.455808600410819, 1.9116993006318808]",984.2653612000868,None,,,52,001,2023_Apr_24_1117,ExactRep-v3-final,2021.2.3,59.83795885531239,
,,,,,,,,,,,,91,0,91,0,,,,,,,,,,,,,,,,,,,,,,,,,,,,,,,,,,,,,,,,,,,,,,,,,988.1215238999575,None,,,,,,,,,,,,,,,,,,,,,,,,,,,,,,,,,,,,,,,,,,,,,,,,,,,,,,,,,woman,123,92,silent,new,white,986.7323938999325,None,y,986.7323938999325,None,"['y', 'return']","[0.9808403002098203, 1.356436999514699]",986.7323938999325,None,,,52,001,2023_Apr_24_1117,ExactRep-v3-final,2021.2.3,59.83795885531239,
,,,,,,,,,,,,92,0,92,0,,,,,,,,,,,,,,,,,,,,,,,,,,,,,,,,,,,,,,,,,,,,,,,,,990.1904430007562,None,,,,,,,,,,,,,,,,,,,,,,,,,,,,,,,,,,,,,,,,,,,,,,,,,,,,,,,,,village,178,93,aloud,new,blue,988.6297907000408,None,n,988.6297907000408,None,"['n', 'return']","[1.0673265997320414, 1.5150838997215033]",988.6297907000408,None,,,52,001,2023_Apr_24_1117,ExactRep-v3-final,2021.2.3,59.83795885531239,
,,,,,,,,,,,,93,0,93,0,,,,,,,,,,,,,,,,,,,,,,,,,,,,,,,,,,,,,,,,,,,,,,,,,992.208953300491,None,,,,,,,,,,,,,,,,,,,,,,,,,,,,,,,,,,,,,,,,,,,,,,,,,,,,,,,,,nail,190,94,aloud,new,blue,990.6944620003924,None,n,990.6944620003924,None,"['n', 'return']","[0.9947877004742622, 1.4745300002396107]",990.6944620003924,None,,,52,001,2023_Apr_24_1117,ExactRep-v3-final,2021.2.3,59.83795885531239,
,,,,,,,,,,,,94,0,94,0,,,,,,,,,,,,,,,,,,,,,,,,,,,,,,,,,,,,,,,,,,,,,,,,,995.0451414007694,None,,,,,,,,,,,,,,,,,,,,,,,,,,,,,,,,,,,,,,,,,,,,,,,,,,,,,,,,,car,40,95,silent,old,white,992.7148740002885,None,y,992.7148740002885,None,"['y', 'return']","[1.9260732000693679, 2.2860160004347563]",992.7148740002885,None,,,52,001,2023_Apr_24_1117,ExactRep-v3-final,2021.2.3,59.83795885531239,
,,,,,,,,,,,,95,0,95,0,,,,,,,,,,,,,,,,,,,,,,,,,,,,,,,,,,,,,,,,,,,,,,,,,997.3808032004163,None,,,,,,,,,,,,,,,,,,,,,,,,,,,,,,,,,,,,,,,,,,,,,,,,,,,,,,,,,disease,38,96,sing,old,red,995.5586432004347,None,y,995.5586432004347,None,"['y', 'return']","[1.3943116003647447, 1.778252700343728]",995.5586432004347,None,,,52,001,2023_Apr_24_1117,ExactRep-v3-final,2021.2.3,59.83795885531239,
,,,,,,,,,,,,96,0,96,0,,,,,,,,,,,,,,,,,,,,,,,,,,,,,,,,,,,,,,,,,,,,,,,,,999.4495867006481,None,,,,,,,,,,,,,,,,,,,,,,,,,,,,,,,,,,,,,,,,,,,,,,,,,,,,,,,,,grief,24,97,sing,old,red,997.8989130007103,None,y,997.8989130007103,None,"['y', 'return']","[1.0460317004472017, 1.5100266002118587]",997.8989130007103,None,,,52,001,2023_Apr_24_1117,ExactRep-v3-final,2021.2.3,59.83795885531239,
,,,,,,,,,,,,97,0,97,0,,,,,,,,,,,,,,,,,,,,,,,,,,,,,,,,,,,,,,,,,,,,,,,,,1003.0364451007918,None,,,,,,,,,,,,,,,,,,,,,,,,,,,,,,,,,,,,,,,,,,,,,,,,,,,,,,,,,safety,7,98,sing,old,red,999.9595165001228,None,y,999.9595165001228,None,"['n', 'backspace', 'y', 'return']","[1.6573270000517368, 2.369417400099337, 2.67343720048666, 3.033374300226569]",999.9595165001228,None,,,52,001,2023_Apr_24_1117,ExactRep-v3-final,2021.2.3,59.83795885531239,
,,,,,,,,,,,,98,0,98,0,,,,,,,,,,,,,,,,,,,,,,,,,,,,,,,,,,,,,,,,,,,,,,,,,1005.2052329005674,None,,,,,,,,,,,,,,,,,,,,,,,,,,,,,,,,,,,,,,,,,,,,,,,,,,,,,,,,,trouble,91,99,aloud,old,blue,1003.544313300401,None,n,1003.544313300401,None,"['n', 'return']","[1.184681300073862, 1.6165928998962045]",1003.544313300401,None,,,52,001,2023_Apr_24_1117,ExactRep-v3-final,2021.2.3,59.83795885531239,
,,,,,,,,,,,,99,0,99,0,,,,,,,,,,,,,,,,,,,,,,,,,,,,,,,,,,,,,,,,,,,,,,,,,1007.0905204005539,None,,,,,,,,,,,,,,,,,,,,,,,,,,,,,,,,,,,,,,,,,,,,,,,,,,,,,,,,,potato,127,100,silent,new,white,1005.7093531005085,None,n,1005.7093531005085,None,"['n', 'return']","[0.9237291999161243, 1.3398135993629694]",1005.7093531005085,None,,,52,001,2023_Apr_24_1117,ExactRep-v3-final,2021.2.3,59.83795885531239,
,,,,,,,,,,,,100,0,100,0,,,,,,,,,,,,,,,,,,,,,,,,,,,,,,,,,,,,,,,,,,,,,,,,,1009.159336800687,None,,,,,,,,,,,,,,,,,,,,,,,,,,,,,,,,,,,,,,,,,,,,,,,,,,,,,,,,,storm,101,101,aloud,old,blue,1007.6009464999661,None,n,1007.6009464999661,None,"['n', 'return']","[1.0240179998800159, 1.5200551999732852]",1007.6009464999661,None,,,52,001,2023_Apr_24_1117,ExactRep-v3-final,2021.2.3,59.83795885531239,
,,,,,,,,,,,,101,0,101,0,,,,,,,,,,,,,,,,,,,,,,,,,,,,,,,,,,,,,,,,,,,,,,,,,1011.1447537001222,None,,,,,,,,,,,,,,,,,,,,,,,,,,,,,,,,,,,,,,,,,,,,,,,,,,,,,,,,,author,163,102,sing,new,red,1009.6680303001776,None,n,1009.6680303001776,None,"['n', 'return']","[0.9572165003046393, 1.4289093995466828]",1009.6680303001776,None,,,52,001,2023_Apr_24_1117,ExactRep-v3-final,2021.2.3,59.83795885531239,
,,,,,,,,,,,,102,0,102,0,,,,,,,,,,,,,,,,,,,,,,,,,,,,,,,,,,,,,,,,,,,,,,,,,1013.8639142001048,None,,,,,,,,,,,,,,,,,,,,,,,,,,,,,,,,,,,,,,,,,,,,,,,,,,,,,,,,,murder,194,103,aloud,new,blue,1011.6544683007523,None,n,1011.6544683007523,None,"['n', 'return']","[1.6986525999382138, 2.1706639006733894]",1011.6544683007523,None,,,52,001,2023_Apr_24_1117,ExactRep-v3-final,2021.2.3,59.83795885531239,
,,,,,,,,,,,,103,0,103,0,,,,,,,,,,,,,,,,,,,,,,,,,,,,,,,,,,,,,,,,,,,,,,,,,1015.8494380004704,None,,,,,,,,,,,,,,,,,,,,,,,,,,,,,,,,,,,,,,,,,,,,,,,,,,,,,,,,,owner,213,104,sing,new,red,1014.3749572001398,None,n,1014.3749572001398,None,"['n', 'return']","[0.9459776999428868, 1.4421308999881148]",1014.3749572001398,None,,,52,001,2023_Apr_24_1117,ExactRep-v3-final,2021.2.3,59.83795885531239,
,,,,,,,,,,,,104,0,104,0,,,,,,,,,,,,,,,,,,,,,,,,,,,,,,,,,,,,,,,,,,,,,,,,,1017.6510732006282,None,,,,,,,,,,,,,,,,,,,,,,,,,,,,,,,,,,,,,,,,,,,,,,,,,,,,,,,,,brain,152,105,silent,new,white,1016.3576596006751,None,n,1016.3576596006751,None,"['n', 'return']","[0.8594495998695493, 1.259340200573206]",1016.3576596006751,None,,,52,001,2023_Apr_24_1117,ExactRep-v3-final,2021.2.3,59.83795885531239,
,,,,,,,,,,,,105,0,105,0,,,,,,,,,,,,,,,,,,,,,,,,,,,,,,,,,,,,,,,,,,,,,,,,,1020.1702617006376,None,,,,,,,,,,,,,,,,,,,,,,,,,,,,,,,,,,,,,,,,,,,,,,,,,,,,,,,,,temple,53,106,silent,old,white,1018.1595307001844,None,y,1018.1595307001844,None,"['y', 'return']","[1.5615432998165488, 1.9695858992636204]",1018.1595307001844,None,,,52,001,2023_Apr_24_1117,ExactRep-v3-final,2021.2.3,59.83795885531239,
,,,,,,,,,,,,106,0,106,0,,,,,,,,,,,,,,,,,,,,,,,,,,,,,,,,,,,,,,,,,,,,,,,,,1022.439252300188,None,,,,,,,,,,,,,,,,,,,,,,,,,,,,,,,,,,,,,,,,,,,,,,,,,,,,,,,,,chance,64,107,silent,old,white,1020.6855274001136,None,n,1020.6855274001136,None,"['n', 'return']","[1.2835167003795505, 1.7155544003471732]",1020.6855274001136,None,,,52,001,2023_Apr_24_1117,ExactRep-v3-final,2021.2.3,59.83795885531239,
,,,,,,,,,,,,107,0,107,0,,,,,,,,,,,,,,,,,,,,,,,,,,,,,,,,,,,,,,,,,,,,,,,,,1024.3411816004664,None,,,,,,,,,,,,,,,,,,,,,,,,,,,,,,,,,,,,,,,,,,,,,,,,,,,,,,,,,square,112,108,aloud,old,blue,1022.9556309999898,None,n,1022.9556309999898,None,"['n', 'return']","[0.933364599943161, 1.3413268998265266]",1022.9556309999898,None,,,52,001,2023_Apr_24_1117,ExactRep-v3-final,2021.2.3,59.83795885531239,
,,,,,,,,,,,,108,0,108,0,,,,,,,,,,,,,,,,,,,,,,,,,,,,,,,,,,,,,,,,,,,,,,,,,1026.2599041005597,None,,,,,,,,,,,,,,,,,,,,,,,,,,,,,,,,,,,,,,,,,,,,,,,,,,,,,,,,,power,181,109,sing,new,red,1024.8502769004554,None,n,1024.8502769004554,None,"['n', 'return']","[0.886850199662149, 1.3746591992676258]",1024.8502769004554,None,,,52,001,2023_Apr_24_1117,ExactRep-v3-final,2021.2.3,59.83795885531239,
,,,,,,,,,,,,109,0,109,0,,,,,,,,,,,,,,,,,,,,,,,,,,,,,,,,,,,,,,,,,,,,,,,,,1028.4451939007267,None,,,,,,,,,,,,,,,,,,,,,,,,,,,,,,,,,,,,,,,,,,,,,,,,,,,,,,,,,vessel,100,110,aloud,old,blue,1026.7693957006559,None,y,1026.7693957006559,None,"['y', 'return']","[1.191588199697435, 1.6315516997128725]",1026.7693957006559,None,,,52,001,2023_Apr_24_1117,ExactRep-v3-final,2021.2.3,59.83795885531239,
,,,,,,,,,,,,110,0,110,0,,,,,,,,,,,,,,,,,,,,,,,,,,,,,,,,,,,,,,,,,,,,,,,,,1030.497329200618,None,,,,,,,,,,,,,,,,,,,,,,,,,,,,,,,,,,,,,,,,,,,,,,,,,,,,,,,,,death,13,111,sing,old,red,1028.9490684000775,None,y,1028.9490684000775,None,"['y', 'return']","[1.0839959997683764, 1.5160023998469114]",1028.9490684000775,None,,,52,001,2023_Apr_24_1117,ExactRep-v3-final,2021.2.3,59.83795885531239,
,,,,,,,,,,,,111,0,111,0,,,,,,,,,,,,,,,,,,,,,,,,,,,,,,,,,,,,,,,,,,,,,,,,,1032.4492287002504,None,,,,,,,,,,,,,,,,,,,,,,,,,,,,,,,,,,,,,,,,,,,,,,,,,,,,,,,,,fur,35,112,sing,old,red,1031.0113834002987,None,n,1031.0113834002987,None,"['n', 'return']","[0.9176272992044687, 1.3976921997964382]",1031.0113834002987,None,,,52,001,2023_Apr_24_1117,ExactRep-v3-final,2021.2.3,59.83795885531239,
,,,,,,,,,,,,112,0,112,0,,,,,,,,,,,,,,,,,,,,,,,,,,,,,,,,,,,,,,,,,,,,,,,,,1034.401274700649,None,,,,,,,,,,,,,,,,,,,,,,,,,,,,,,,,,,,,,,,,,,,,,,,,,,,,,,,,,dust,50,113,silent,old,white,1032.9555875007063,None,n,1032.9555875007063,None,"['n', 'return']","[0.9814413003623486, 1.4134157998487353]",1032.9555875007063,None,,,52,001,2023_Apr_24_1117,ExactRep-v3-final,2021.2.3,59.83795885531239,
,,,,,,,,,,,,113,0,113,0,,,,,,,,,,,,,,,,,,,,,,,,,,,,,,,,,,,,,,,,,,,,,,,,,1036.3531579999253,None,,,,,,,,,,,,,,,,,,,,,,,,,,,,,,,,,,,,,,,,,,,,,,,,,,,,,,,,,circle,61,114,silent,old,white,1034.911937800236,None,n,1034.911937800236,None,"['n', 'return']","[0.9612162001430988, 1.40117650013417]",1034.911937800236,None,,,52,001,2023_Apr_24_1117,ExactRep-v3-final,2021.2.3,59.83795885531239,
,,,,,,,,,,,,114,0,114,0,,,,,,,,,,,,,,,,,,,,,,,,,,,,,,,,,,,,,,,,,,,,,,,,,1038.2718390002847,None,,,,,,,,,,,,,,,,,,,,,,,,,,,,,,,,,,,,,,,,,,,,,,,,,,,,,,,,,river,174,115,aloud,new,blue,1036.862090700306,None,n,1036.862090700306,None,"['n', 'return']","[0.9229365000501275, 1.3709521004930139]",1036.862090700306,None,,,52,001,2023_Apr_24_1117,ExactRep-v3-final,2021.2.3,59.83795885531239,
,,,,,,,,,,,,115,0,115,0,,,,,,,,,,,,,,,,,,,,,,,,,,,,,,,,,,,,,,,,,,,,,,,,,1040.2070768000558,None,,,,,,,,,,,,,,,,,,,,,,,,,,,,,,,,,,,,,,,,,,,,,,,,,,,,,,,,,opinion,140,116,silent,new,white,1038.7825744999573,None,n,1038.7825744999573,None,"['n', 'return']","[0.9145734999328852, 1.378579399548471]",1038.7825744999573,None,,,52,001,2023_Apr_24_1117,ExactRep-v3-final,2021.2.3,59.83795885531239,
,,,,,,,,,,,,116,0,116,0,,,,,,,,,,,,,,,,,,,,,,,,,,,,,,,,,,,,,,,,,,,,,,,,,1043.8440916007385,None,,,,,,,,,,,,,,,,,,,,,,,,,,,,,,,,,,,,,,,,,,,,,,,,,,,,,,,,,lord,15,117,sing,old,red,1040.723955400288,None,n,1040.723955400288,None,"['n', 'return']","[2.645047999918461, 3.07708889991045]",1040.723955400288,None,,,52,001,2023_Apr_24_1117,ExactRep-v3-final,2021.2.3,59.83795885531239,
,,,,,,,,,,,,117,0,117,0,,,,,,,,,,,,,,,,,,,,,,,,,,,,,,,,,,,,,,,,,,,,,,,,,1045.99609370064,None,,,,,,,,,,,,,,,,,,,,,,,,,,,,,,,,,,,,,,,,,,,,,,,,,,,,,,,,,sea,6,118,sing,old,red,1044.3569918004796,None,n,1044.3569918004796,None,"['n', 'return']","[1.1879770997911692, 1.5959291001781821]",1044.3569918004796,None,,,52,001,2023_Apr_24_1117,ExactRep-v3-final,2021.2.3,59.83795885531239,
,,,,,,,,,,,,118,0,118,0,,,,,,,,,,,,,,,,,,,,,,,,,,,,,,,,,,,,,,,,,,,,,,,,,1047.9647253006697,None,,,,,,,,,,,,,,,,,,,,,,,,,,,,,,,,,,,,,,,,,,,,,,,,,,,,,,,,,coffee,153,119,silent,new,white,1046.504936300218,None,n,1046.504936300218,None,"['n', 'return']","[0.9761303002014756, 1.424095100723207]",1046.504936300218,None,,,52,001,2023_Apr_24_1117,ExactRep-v3-final,2021.2.3,59.83795885531239,
,,,,,,,,,,,,119,0,119,0,,,,,,,,,,,,,,,,,,,,,,,,,,,,,,,,,,,,,,,,,,,,,,,,,1049.983409200795,None,,,,,,,,,,,,,,,,,,,,,,,,,,,,,,,,,,,,,,,,,,,,,,,,,,,,,,,,,grass,96,120,aloud,old,blue,1048.4780664006248,None,y,1048.4780664006248,None,"['y', 'return']","[0.955039999447763, 1.4669434996321797]",1048.4780664006248,None,,,52,001,2023_Apr_24_1117,ExactRep-v3-final,2021.2.3,59.83795885531239,
,,,,,,,,,,,,120,0,120,0,,,,,,,,,,,,,,,,,,,,,,,,,,,,,,,,,,,,,,,,,,,,,,,,,1053.4535578005016,None,,,,,,,,,,,,,,,,,,,,,,,,,,,,,,,,,,,,,,,,,,,,,,,,,,,,,,,,,history,111,121,aloud,old,blue,1050.4917745003477,None,y,1050.4917745003477,None,"['y', 'return']","[2.4771938994526863, 2.9252813002094626]",1050.4917745003477,None,,,52,001,2023_Apr_24_1117,ExactRep-v3-final,2021.2.3,59.83795885531239,
,,,,,,,,,,,,121,0,121,0,,,,,,,,,,,,,,,,,,,,,,,,,,,,,,,,,,,,,,,,,,,,,,,,,1055.4722211007029,None,,,,,,,,,,,,,,,,,,,,,,,,,,,,,,,,,,,,,,,,,,,,,,,,,,,,,,,,,table,42,122,silent,old,white,1053.9686713004485,None,n,1053.9686713004485,None,"['n', 'return']","[1.0323524000123143, 1.4643535995855927]",1053.9686713004485,None,,,52,001,2023_Apr_24_1117,ExactRep-v3-final,2021.2.3,59.83795885531239,
,,,,,,,,,,,,122,0,122,0,,,,,,,,,,,,,,,,,,,,,,,,,,,,,,,,,,,,,,,,,,,,,,,,,1057.5577848004177,None,,,,,,,,,,,,,,,,,,,,,,,,,,,,,,,,,,,,,,,,,,,,,,,,,,,,,,,,,stone,12,123,sing,old,red,1055.9823656007648,None,y,1055.9823656007648,None,"['y', 'return']","[1.0746337994933128, 1.5387050993740559]",1055.9823656007648,None,,,52,001,2023_Apr_24_1117,ExactRep-v3-final,2021.2.3,59.83795885531239,
,,,,,,,,,,,,123,0,123,0,,,,,,,,,,,,,,,,,,,,,,,,,,,,,,,,,,,,,,,,,,,,,,,,,1059.8432700000703,None,,,,,,,,,,,,,,,,,,,,,,,,,,,,,,,,,,,,,,,,,,,,,,,,,,,,,,,,,plain,28,124,sing,old,red,1058.0674670003355,None,n,1058.0674670003355,None,"['n', 'return']","[1.189576600678265, 1.7336616003885865]",1058.0674670003355,None,,,52,001,2023_Apr_24_1117,ExactRep-v3-final,2021.2.3,59.83795885531239,
,,,,,,,,,,,,124,0,124,0,,,,,,,,,,,,,,,,,,,,,,,,,,,,,,,,,,,,,,,,,,,,,,,,,1062.7961712004617,None,,,,,,,,,,,,,,,,,,,,,,,,,,,,,,,,,,,,,,,,,,,,,,,,,,,,,,,,,weapon,23,125,sing,old,red,1060.353583600372,None,y,1060.353583600372,None,"['y', 'return']","[1.7993554007261992, 2.4074710002169013]",1060.353583600372,None,,,52,001,2023_Apr_24_1117,ExactRep-v3-final,2021.2.3,59.83795885531239,
,,,,,,,,,,,,125,0,125,0,,,,,,,,,,,,,,,,,,,,,,,,,,,,,,,,,,,,,,,,,,,,,,,,,1064.6648214999586,None,,,,,,,,,,,,,,,,,,,,,,,,,,,,,,,,,,,,,,,,,,,,,,,,,,,,,,,,,bar,173,126,sing,new,red,1063.3041448006406,None,n,1063.3041448006406,None,"['n', 'return']","[0.8331653997302055, 1.3289380995556712]",1063.3041448006406,None,,,52,001,2023_Apr_24_1117,ExactRep-v3-final,2021.2.3,59.83795885531239,
,,,,,,,,,,,,126,0,126,0,,,,,,,,,,,,,,,,,,,,,,,,,,,,,,,,,,,,,,,,,,,,,,,,,1067.2174619007856,None,,,,,,,,,,,,,,,,,,,,,,,,,,,,,,,,,,,,,,,,,,,,,,,,,,,,,,,,,hour,116,127,aloud,old,blue,1065.1748490007594,None,n,1065.1748490007594,None,"['n', 'return']","[0.9623351003974676, 2.0103146005421877]",1065.1748490007594,None,,,52,001,2023_Apr_24_1117,ExactRep-v3-final,2021.2.3,59.83795885531239,
,,,,,,,,,,,,127,0,127,0,,,,,,,,,,,,,,,,,,,,,,,,,,,,,,,,,,,,,,,,,,,,,,,,,1069.669767100364,None,,,,,,,,,,,,,,,,,,,,,,,,,,,,,,,,,,,,,,,,,,,,,,,,,,,,,,,,,event,164,128,aloud,new,blue,1067.73436600063,None,n,1067.73436600063,None,"['n', 'return']","[1.4586720000952482, 1.8906685002148151]",1067.73436600063,None,,,52,001,2023_Apr_24_1117,ExactRep-v3-final,2021.2.3,59.83795885531239,
,,,,,,,,,,,,128,0,128,0,,,,,,,,,,,,,,,,,,,,,,,,,,,,,,,,,,,,,,,,,,,,,,,,,1071.755341200158,None,,,,,,,,,,,,,,,,,,,,,,,,,,,,,,,,,,,,,,,,,,,,,,,,,,,,,,,,,maiden,144,129,silent,new,white,1070.1812868006527,None,n,1070.1812868006527,None,"['n', 'return']","[0.9957692995667458, 1.5398915000259876]",1070.1812868006527,None,,,52,001,2023_Apr_24_1117,ExactRep-v3-final,2021.2.3,59.83795885531239,
,,,,,,,,,,,,129,0,129,0,,,,,,,,,,,,,,,,,,,,,,,,,,,,,,,,,,,,,,,,,,,,,,,,,1073.8072191001847,None,,,,,,,,,,,,,,,,,,,,,,,,,,,,,,,,,,,,,,,,,,,,,,,,,,,,,,,,,board,81,130,aloud,old,blue,1072.2580487001687,None,y,1072.2580487001687,None,"['y', 'return']","[1.0149964997544885, 1.51114990003407]",1072.2580487001687,None,,,52,001,2023_Apr_24_1117,ExactRep-v3-final,2021.2.3,59.83795885531239,
,,,,,,,,,,,,130,0,130,0,,,,,,,,,,,,,,,,,,,,,,,,,,,,,,,,,,,,,,,,,,,,,,,,,1075.692462200299,None,,,,,,,,,,,,,,,,,,,,,,,,,,,,,,,,,,,,,,,,,,,,,,,,,,,,,,,,,advice,226,131,aloud,new,blue,1074.3173575000837,None,n,1074.3173575000837,None,"['n', 'return']","[0.8916953997686505, 1.3398555992171168]",1074.3173575000837,None,,,52,001,2023_Apr_24_1117,ExactRep-v3-final,2021.2.3,59.83795885531239,
,,,,,,,,,,,,131,0,131,0,,,,,,,,,,,,,,,,,,,,,,,,,,,,,,,,,,,,,,,,,,,,,,,,,1078.245089000091,None,,,,,,,,,,,,,,,,,,,,,,,,,,,,,,,,,,,,,,,,,,,,,,,,,,,,,,,,,cabin,119,132,aloud,old,blue,1076.2019873000681,None,y,1076.2019873000681,None,"['n', 'backspace', 'y', 'return']","[0.8072520000860095, 1.3991956999525428, 1.6872057002037764, 2.0071732997894287]",1076.2019873000681,None,,,52,001,2023_Apr_24_1117,ExactRep-v3-final,2021.2.3,59.83795885531239,
