trials_fam.thisRepN,trials_fam.thisTrialN,trials_fam.thisN,trials_fam.thisIndex,trials_prc.thisRepN,trials_prc.thisTrialN,trials_prc.thisN,trials_prc.thisIndex,StudyLoop.thisRepN,StudyLoop.thisTrialN,StudyLoop.thisN,StudyLoop.thisIndex,TestLoop.thisRepN,TestLoop.thisTrialN,TestLoop.thisN,TestLoop.thisIndex,text_colortest.started,text_colortest.stopped,key_colortest.keys,key_colortest.rt,key_colortest.started,key_colortest.stopped,textCondition.started,textCondition.stopped,keyCondition.keys,keyCondition.rt,keyCondition.started,keyCondition.stopped,Condition_between,Condition_counterbal,keyWelcome.keys,keyWelcome.rt,keyWelcome.started,keyWelcome.stopped,welcome_a.started,welcome_a.stopped,welcome_b.started,welcome_b.stopped,welcome_c.started,welcome_c.stopped,welcome_d.started,welcome_d.stopped,welcome_e.started,welcome_e.stopped,welcome_f.started,welcome_f.stopped,key_resp_fam_inst.keys,key_resp_fam_inst.rt,key_resp_fam_inst.started,key_resp_fam_inst.stopped,fam_a.started,fam_a.stopped,fam_b.started,fam_b.stopped,fam_c.started,fam_c.stopped,fam_d.started,fam_d.stopped,fam_e.started,fam_e.stopped,fam_f.started,fam_f.stopped,text_famil.started,text_famil.stopped,textBlank500.started,textBlank500.stopped,key_resp_prc_inst.keys,key_resp_prc_inst.rt,key_resp_prc_inst.started,key_resp_prc_inst.stopped,prac_a.started,prac_a.stopped,prac_b.started,prac_b.stopped,prac_c.started,prac_c.stopped,prac_d.started,prac_d.stopped,prac_e.started,prac_e.stopped,prac_f.started,prac_f.stopped,text_prc_trial.started,text_prc_trial.stopped,key_resp_study_inst.keys,key_resp_study_inst.rt,key_resp_study_inst.started,key_resp_study_inst.stopped,crit_a.started,crit_a.stopped,crit_b.started,crit_b.stopped,crit_c.started,crit_c.stopped,crit_d.started,crit_d.stopped,crit_e.started,crit_e.stopped,crit_f.started,crit_f.stopped,study_word,study_num,study_order,study_type,word_color,textStudy.started,textStudy.stopped,keyStudy.keys,keyStudy.started,keyStudy.stopped,post_study.started,post_study.stopped,key_resp_post_study.keys,key_resp_post_study.rt,key_resp_post_study.started,key_resp_post_study.stopped,test_inst.started,test_inst.stopped,key_resp_test_inst.keys,key_resp_test_inst.rt,key_resp_test_inst.started,key_resp_test_inst.stopped,test_word,test_num,test_order,test_condition,old_new_test,word_color_test,textConf.started,textConf.stopped,Participant Response,textInput.started,textInput.stopped,keyResp.keys,keyResp.rt,keyResp.started,keyResp.stopped,textEnd.started,textEnd.stopped,participant,session,date,expName,psychopyVersion,frameRate,
,,,,,,,,,,,,,,,,14.893486100248992,None,y,0.6389498999342322,14.893486100248992,None,,,,,,,,,,,,,,,,,,,,,,,,,,,,,,,,,,,,,,,,,,,,,,,,,,,,,,,,,,,,,,,,,,,,,,,,,,,,,,,,,,,,,,,,,,,,,,,,,,,,,,,,,,,,,,,,,,,,,,53,001,2023_Apr_24_1143,ExactRep-v3-final,2021.2.3,59.97051879906467,
,,,,,,,,,,,,,,,,,,,,,,15.553781700320542,None,e,0.30650920048356056,15.553781700320542,None,,,,,,,,,,,,,,,,,,,,,,,,,,,,,,,,,,,,,,,,,,,,,,,,,,,,,,,,,,,,,,,,,,,,,,,,,,,,,,,,,,,,,,,,,,,,,,,,,,,,,,,,,,,,,,,,53,001,2023_Apr_24_1143,ExactRep-v3-final,2021.2.3,59.97051879906467,
,,,,,,,,,,,,,,,,,,,,,,,,,,,,colorfoils,e,space,1150.3019468002021,25.96785670053214,None,,,,,,,,,,,,,,,,,,,,,,,,,,,,,,,,,,,,,,,,,,,,,,,,,,,,,,,,,,,,,,,,,,,,,,,,,,,,,,,,,,,,,,,,,,,,,,,,,,,,,,,,,,53,001,2023_Apr_24_1143,ExactRep-v3-final,2021.2.3,59.97051879906467,
,,,,,,,,,,,,,,,,,,,,,,,,,,,,,,,,,,16.040914400480688,None,16.040914400480688,None,16.040914400480688,None,16.040914400480688,None,16.040914400480688,None,16.040914400480688,None,space,22.48567990027368,1186.408050400205,None,,,,,,,,,,,,,,,,,,,,,,,,,,,,,,,,,,,,,,,,,,,,,,,,,,,,,,,,,,,,,,,,,,,,,,,,,,,,,,,,,,,,,,,,,,53,001,2023_Apr_24_1143,ExactRep-v3-final,2021.2.3,59.97051879906467,
0,0,0,0,,,,,,,,,,,,,,,,,,,,,,,,,,,,,,,,,,,,,,,,,,,,,,,1176.4385200999677,None,1176.4385200999677,None,1176.4385200999677,None,1176.4385200999677,None,1176.4385200999677,None,1176.4385200999677,None,1208.9693200998008,None,1210.965543099679,None,,,,,,,,,,,,,,,,,,,,,,,,,,,,,,,,,,,,,,,,,,,,,,,,,,,,,,,,,,,,,,,,,,,,,,,,,,53,001,2023_Apr_24_1143,ExactRep-v3-final,2021.2.3,59.97051879906467,
1,0,1,0,,,,,,,,,,,,,,,,,,,,,,,,,,,,,,,,,,,,,,,,,,,,,,,,,,,,,,,,,,,1211.4661400998011,None,1213.4681980004534,None,,,,,,,,,,,,,,,,,,,,,,,,,,,,,,,,,,,,,,,,,,,,,,,,,,,,,,,,,,,,,,,,,,,,,,,,,,53,001,2023_Apr_24_1143,ExactRep-v3-final,2021.2.3,59.97051879906467,
2,0,2,0,,,,,,,,,,,,,,,,,,,,,,,,,,,,,,,,,,,,,,,,,,,,,,,,,,,,,,,,,,,1213.9686356997117,None,1215.9706413997337,None,,,,,,,,,,,,,,,,,,,,,,,,,,,,,,,,,,,,,,,,,,,,,,,,,,,,,,,,,,,,,,,,,,,,,,,,,,53,001,2023_Apr_24_1143,ExactRep-v3-final,2021.2.3,59.97051879906467,
3,0,3,0,,,,,,,,,,,,,,,,,,,,,,,,,,,,,,,,,,,,,,,,,,,,,,,,,,,,,,,,,,,1216.475535100326,None,1218.4896154003218,None,,,,,,,,,,,,,,,,,,,,,,,,,,,,,,,,,,,,,,,,,,,,,,,,,,,,,,,,,,,,,,,,,,,,,,,,,,53,001,2023_Apr_24_1143,ExactRep-v3-final,2021.2.3,59.97051879906467,
4,0,4,0,,,,,,,,,,,,,,,,,,,,,,,,,,,,,,,,,,,,,,,,,,,,,,,,,,,,,,,,,,,1218.990377300419,None,1220.9923272999004,None,,,,,,,,,,,,,,,,,,,,,,,,,,,,,,,,,,,,,,,,,,,,,,,,,,,,,,,,,,,,,,,,,,,,,,,,,,53,001,2023_Apr_24_1143,ExactRep-v3-final,2021.2.3,59.97051879906467,
5,0,5,0,,,,,,,,,,,,,,,,,,,,,,,,,,,,,,,,,,,,,,,,,,,,,,,,,,,,,,,,,,,1221.5053540002555,None,1223.5115125998855,None,,,,,,,,,,,,,,,,,,,,,,,,,,,,,,,,,,,,,,,,,,,,,,,,,,,,,,,,,,,,,,,,,,,,,,,,,,53,001,2023_Apr_24_1143,ExactRep-v3-final,2021.2.3,59.97051879906467,
6,0,6,0,,,,,,,,,,,,,,,,,,,,,,,,,,,,,,,,,,,,,,,,,,,,,,,,,,,,,,,,,,,1224.0117595996708,None,1226.014095599763,None,,,,,,,,,,,,,,,,,,,,,,,,,,,,,,,,,,,,,,,,,,,,,,,,,,,,,,,,,,,,,,,,,,,,,,,,,,53,001,2023_Apr_24_1143,ExactRep-v3-final,2021.2.3,59.97051879906467,
7,0,7,0,,,,,,,,,,,,,,,,,,,,,,,,,,,,,,,,,,,,,,,,,,,,,,,,,,,,,,,,,,,1226.5146257001907,None,1228.5163061004132,None,,,,,,,,,,,,,,,,,,,,,,,,,,,,,,,,,,,,,,,,,,,,,,,,,,,,,,,,,,,,,,,,,,,,,,,,,,53,001,2023_Apr_24_1143,ExactRep-v3-final,2021.2.3,59.97051879906467,
8,0,8,0,,,,,,,,,,,,,,,,,,,,,,,,,,,,,,,,,,,,,,,,,,,,,,,,,,,,,,,,,,,1229.0214988999069,None,1231.0357058001682,None,,,,,,,,,,,,,,,,,,,,,,,,,,,,,,,,,,,,,,,,,,,,,,,,,,,,,,,,,,,,,,,,,,,,,,,,,,53,001,2023_Apr_24_1143,ExactRep-v3-final,2021.2.3,59.97051879906467,
9,0,9,0,,,,,,,,,,,,,,,,,,,,,,,,,,,,,,,,,,,,,,,,,,,,,,,,,,,,,,,,,,,1231.5374528001994,None,1233.5380758997053,None,,,,,,,,,,,,,,,,,,,,,,,,,,,,,,,,,,,,,,,,,,,,,,,,,,,,,,,,,,,,,,,,,,,,,,,,,,53,001,2023_Apr_24_1143,ExactRep-v3-final,2021.2.3,59.97051879906467,
10,0,10,0,,,,,,,,,,,,,,,,,,,,,,,,,,,,,,,,,,,,,,,,,,,,,,,,,,,,,,,,,,,1234.0385952005163,None,1236.040566300042,None,,,,,,,,,,,,,,,,,,,,,,,,,,,,,,,,,,,,,,,,,,,,,,,,,,,,,,,,,,,,,,,,,,,,,,,,,,53,001,2023_Apr_24_1143,ExactRep-v3-final,2021.2.3,59.97051879906467,
11,0,11,0,,,,,,,,,,,,,,,,,,,,,,,,,,,,,,,,,,,,,,,,,,,,,,,,,,,,,,,,,,,1236.5410940004513,None,1238.543081600219,None,,,,,,,,,,,,,,,,,,,,,,,,,,,,,,,,,,,,,,,,,,,,,,,,,,,,,,,,,,,,,,,,,,,,,,,,,,53,001,2023_Apr_24_1143,ExactRep-v3-final,2021.2.3,59.97051879906467,
12,0,12,0,,,,,,,,,,,,,,,,,,,,,,,,,,,,,,,,,,,,,,,,,,,,,,,,,,,,,,,,,,,1239.0492877000943,None,1241.0623888000846,None,,,,,,,,,,,,,,,,,,,,,,,,,,,,,,,,,,,,,,,,,,,,,,,,,,,,,,,,,,,,,,,,,,,,,,,,,,53,001,2023_Apr_24_1143,ExactRep-v3-final,2021.2.3,59.97051879906467,
13,0,13,0,,,,,,,,,,,,,,,,,,,,,,,,,,,,,,,,,,,,,,,,,,,,,,,,,,,,,,,,,,,1241.5629152003676,None,1243.5650243004784,None,,,,,,,,,,,,,,,,,,,,,,,,,,,,,,,,,,,,,,,,,,,,,,,,,,,,,,,,,,,,,,,,,,,,,,,,,,53,001,2023_Apr_24_1143,ExactRep-v3-final,2021.2.3,59.97051879906467,
14,0,14,0,,,,,,,,,,,,,,,,,,,,,,,,,,,,,,,,,,,,,,,,,,,,,,,,,,,,,,,,,,,1244.0654833996668,None,1246.0672404998913,None,,,,,,,,,,,,,,,,,,,,,,,,,,,,,,,,,,,,,,,,,,,,,,,,,,,,,,,,,,,,,,,,,,,,,,,,,,53,001,2023_Apr_24_1143,ExactRep-v3-final,2021.2.3,59.97051879906467,
,,,,,,,,,,,,,,,,,,,,,,,,,,,,,,,,,,,,,,,,,,,,,,,,,,,,,,,,,,,,,,,,,,space,18.524106299504638,1256.7133737998083,None,,,,,,,,,,,,,,,,,,,,,,,,,,,,,,,,,,,,,,,,,,,,,,,,,,,,,,,,,,,,,,,,,,,,,,53,001,2023_Apr_24_1143,ExactRep-v3-final,2021.2.3,59.97051879906467,
,,,,0,0,0,0,,,,,,,,,,,,,,,,,,,,,,,,,,,,,,,,,,,,,,,,,,,,,,,,,,,,,,,,,1277.3652092004195,None,,,,,1246.705189500004,None,1246.705189500004,None,1246.705189500004,None,1246.705189500004,None,1246.705189500004,None,1246.705189500004,None,1275.3536400003359,None,,,,,,,,,,,,,,,,,,,,,,,,,,,,,,,,,,,,,,,,,,,,,,,,,,,,,,,,53,001,2023_Apr_24_1143,ExactRep-v3-final,2021.2.3,59.97051879906467,
,,,,1,0,1,0,,,,,,,,,,,,,,,,,,,,,,,,,,,,,,,,,,,,,,,,,,,,,,,,,,,,,,,,,1279.8676164997742,None,,,,,,,,,,,,,,,,,1277.8658835999668,None,,,,,,,,,,,,,,,,,,,,,,,,,,,,,,,,,,,,,,,,,,,,,,,,,,,,,,,,53,001,2023_Apr_24_1143,ExactRep-v3-final,2021.2.3,59.97051879906467,
,,,,2,0,2,0,,,,,,,,,,,,,,,,,,,,,,,,,,,,,,,,,,,,,,,,,,,,,,,,,,,,,,,,,1282.3701481996104,None,,,,,,,,,,,,,,,,,1280.3685808004811,None,,,,,,,,,,,,,,,,,,,,,,,,,,,,,,,,,,,,,,,,,,,,,,,,,,,,,,,,53,001,2023_Apr_24_1143,ExactRep-v3-final,2021.2.3,59.97051879906467,
,,,,3,0,3,0,,,,,,,,,,,,,,,,,,,,,,,,,,,,,,,,,,,,,,,,,,,,,,,,,,,,,,,,,1284.8729095999151,None,,,,,,,,,,,,,,,,,1282.8708811998367,None,,,,,,,,,,,,,,,,,,,,,,,,,,,,,,,,,,,,,,,,,,,,,,,,,,,,,,,,53,001,2023_Apr_24_1143,ExactRep-v3-final,2021.2.3,59.97051879906467,
,,,,4,0,4,0,,,,,,,,,,,,,,,,,,,,,,,,,,,,,,,,,,,,,,,,,,,,,,,,,,,,,,,,,1287.3753677997738,None,,,,,,,,,,,,,,,,,1285.3734951997176,None,,,,,,,,,,,,,,,,,,,,,,,,,,,,,,,,,,,,,,,,,,,,,,,,,,,,,,,,53,001,2023_Apr_24_1143,ExactRep-v3-final,2021.2.3,59.97051879906467,
,,,,5,0,5,0,,,,,,,,,,,,,,,,,,,,,,,,,,,,,,,,,,,,,,,,,,,,,,,,,,,,,,,,,1289.8780583003536,None,,,,,,,,,,,,,,,,,1287.875726999715,None,,,,,,,,,,,,,,,,,,,,,,,,,,,,,,,,,,,,,,,,,,,,,,,,,,,,,,,,53,001,2023_Apr_24_1143,ExactRep-v3-final,2021.2.3,59.97051879906467,
,,,,6,0,6,0,,,,,,,,,,,,,,,,,,,,,,,,,,,,,,,,,,,,,,,,,,,,,,,,,,,,,,,,,1292.3804561998695,None,,,,,,,,,,,,,,,,,1290.3784699998796,None,,,,,,,,,,,,,,,,,,,,,,,,,,,,,,,,,,,,,,,,,,,,,,,,,,,,,,,,53,001,2023_Apr_24_1143,ExactRep-v3-final,2021.2.3,59.97051879906467,
,,,,7,0,7,0,,,,,,,,,,,,,,,,,,,,,,,,,,,,,,,,,,,,,,,,,,,,,,,,,,,,,,,,,1294.8829369004816,None,,,,,,,,,,,,,,,,,1292.881053400226,None,,,,,,,,,,,,,,,,,,,,,,,,,,,,,,,,,,,,,,,,,,,,,,,,,,,,,,,,53,001,2023_Apr_24_1143,ExactRep-v3-final,2021.2.3,59.97051879906467,
,,,,8,0,8,0,,,,,,,,,,,,,,,,,,,,,,,,,,,,,,,,,,,,,,,,,,,,,,,,,,,,,,,,,1297.3853489998728,None,,,,,,,,,,,,,,,,,1295.3834522999823,None,,,,,,,,,,,,,,,,,,,,,,,,,,,,,,,,,,,,,,,,,,,,,,,,,,,,,,,,53,001,2023_Apr_24_1143,ExactRep-v3-final,2021.2.3,59.97051879906467,
,,,,9,0,9,0,,,,,,,,,,,,,,,,,,,,,,,,,,,,,,,,,,,,,,,,,,,,,,,,,,,,,,,,,1299.887768600136,None,,,,,,,,,,,,,,,,,1297.8857068000361,None,,,,,,,,,,,,,,,,,,,,,,,,,,,,,,,,,,,,,,,,,,,,,,,,,,,,,,,,53,001,2023_Apr_24_1143,ExactRep-v3-final,2021.2.3,59.97051879906467,
,,,,10,0,10,0,,,,,,,,,,,,,,,,,,,,,,,,,,,,,,,,,,,,,,,,,,,,,,,,,,,,,,,,,1302.3903662003577,None,,,,,,,,,,,,,,,,,1300.3881532000378,None,,,,,,,,,,,,,,,,,,,,,,,,,,,,,,,,,,,,,,,,,,,,,,,,,,,,,,,,53,001,2023_Apr_24_1143,ExactRep-v3-final,2021.2.3,59.97051879906467,
,,,,11,0,11,0,,,,,,,,,,,,,,,,,,,,,,,,,,,,,,,,,,,,,,,,,,,,,,,,,,,,,,,,,1304.893047399819,None,,,,,,,,,,,,,,,,,1302.890777300112,None,,,,,,,,,,,,,,,,,,,,,,,,,,,,,,,,,,,,,,,,,,,,,,,,,,,,,,,,53,001,2023_Apr_24_1143,ExactRep-v3-final,2021.2.3,59.97051879906467,
,,,,12,0,12,0,,,,,,,,,,,,,,,,,,,,,,,,,,,,,,,,,,,,,,,,,,,,,,,,,,,,,,,,,1307.395197399892,None,,,,,,,,,,,,,,,,,1305.3935567997396,None,,,,,,,,,,,,,,,,,,,,,,,,,,,,,,,,,,,,,,,,,,,,,,,,,,,,,,,,53,001,2023_Apr_24_1143,ExactRep-v3-final,2021.2.3,59.97051879906467,
,,,,13,0,13,0,,,,,,,,,,,,,,,,,,,,,,,,,,,,,,,,,,,,,,,,,,,,,,,,,,,,,,,,,1309.897874600254,None,,,,,,,,,,,,,,,,,1307.8957957997918,None,,,,,,,,,,,,,,,,,,,,,,,,,,,,,,,,,,,,,,,,,,,,,,,,,,,,,,,,53,001,2023_Apr_24_1143,ExactRep-v3-final,2021.2.3,59.97051879906467,
,,,,14,0,14,0,,,,,,,,,,,,,,,,,,,,,,,,,,,,,,,,,,,,,,,,,,,,,,,,,,,,,,,,,1312.4004014004022,None,,,,,,,,,,,,,,,,,1310.3983976002783,None,,,,,,,,,,,,,,,,,,,,,,,,,,,,,,,,,,,,,,,,,,,,,,,,,,,,,,,,53,001,2023_Apr_24_1143,ExactRep-v3-final,2021.2.3,59.97051879906467,
,,,,,,,,,,,,,,,,,,,,,,,,,,,,,,,,,,,,,,,,,,,,,,,,,,,,,,,,,,,,,,,,,,,,,,,,,,,,,,,,,,,,space,23.71574999950826,1323.0097107002512,None,,,,,,,,,,,,,,,,,,,,,,,,,,,,,,,,,,,,,,,,,,,,,,,,,,,,53,001,2023_Apr_24_1143,ExactRep-v3-final,2021.2.3,59.97051879906467,
,,,,,,,,0,0,0,0,,,,,,,,,,,,,,,,,,,,,,,,,,,,,,,,,,,,,,,,,,,,,,,,,,,,,1348.853597899899,None,,,,,,,,,,,,,,,,,,,,,,,1313.0650741998106,None,1313.0650741998106,None,1313.0650741998106,None,1313.0650741998106,None,1313.0650741998106,None,1313.0650741998106,None,square,11,1,sing,blue,1346.8404702004045,None,None,1346.8404702004045,None,,,,,,,,,,,,,,,,,,,,,,,,,,,,,,53,001,2023_Apr_24_1143,ExactRep-v3-final,2021.2.3,59.97051879906467,
,,,,,,,,1,0,1,0,,,,,,,,,,,,,,,,,,,,,,,,,,,,,,,,,,,,,,,,,,,,,,,,,,,,,1351.3559632003307,None,,,,,,,,,,,,,,,,,,,,,,,,,,,,,,,,,,,apple,70,2,silent,red,1349.3555642003193,None,None,1349.3555642003193,None,,,,,,,,,,,,,,,,,,,,,,,,,,,,,,53,001,2023_Apr_24_1143,ExactRep-v3-final,2021.2.3,59.97051879906467,
,,,,,,,,2,0,2,0,,,,,,,,,,,,,,,,,,,,,,,,,,,,,,,,,,,,,,,,,,,,,,,,,,,,,1353.858470399864,None,,,,,,,,,,,,,,,,,,,,,,,,,,,,,,,,,,,rod,55,3,silent,red,1351.8564015999436,None,None,1351.8564015999436,None,,,,,,,,,,,,,,,,,,,,,,,,,,,,,,53,001,2023_Apr_24_1143,ExactRep-v3-final,2021.2.3,59.97051879906467,
,,,,,,,,3,0,3,0,,,,,,,,,,,,,,,,,,,,,,,,,,,,,,,,,,,,,,,,,,,,,,,,,,,,,1356.3611000999808,None,,,,,,,,,,,,,,,,,,,,,,,,,,,,,,,,,,,village,20,4,sing,blue,1354.3619266999885,None,None,1354.3619266999885,None,,,,,,,,,,,,,,,,,,,,,,,,,,,,,,53,001,2023_Apr_24_1143,ExactRep-v3-final,2021.2.3,59.97051879906467,
,,,,,,,,4,0,4,0,,,,,,,,,,,,,,,,,,,,,,,,,,,,,,,,,,,,,,,,,,,,,,,,,,,,,1358.8635114002973,None,,,,,,,,,,,,,,,,,,,,,,,,,,,,,,,,,,,trouble,52,5,silent,red,1356.8630774999037,None,None,1356.8630774999037,None,,,,,,,,,,,,,,,,,,,,,,,,,,,,,,53,001,2023_Apr_24_1143,ExactRep-v3-final,2021.2.3,59.97051879906467,
,,,,,,,,5,0,5,0,,,,,,,,,,,,,,,,,,,,,,,,,,,,,,,,,,,,,,,,,,,,,,,,,,,,,1361.382627800107,None,,,,,,,,,,,,,,,,,,,,,,,,,,,,,,,,,,,gift,35,6,sing,blue,1359.3736450001597,None,None,1359.3736450001597,None,,,,,,,,,,,,,,,,,,,,,,,,,,,,,,53,001,2023_Apr_24_1143,ExactRep-v3-final,2021.2.3,59.97051879906467,
,,,,,,,,6,0,6,0,,,,,,,,,,,,,,,,,,,,,,,,,,,,,,,,,,,,,,,,,,,,,,,,,,,,,1363.885269000195,None,,,,,,,,,,,,,,,,,,,,,,,,,,,,,,,,,,,engine,116,7,aloud,white,1361.8831452997401,None,None,1361.8831452997401,None,,,,,,,,,,,,,,,,,,,,,,,,,,,,,,53,001,2023_Apr_24_1143,ExactRep-v3-final,2021.2.3,59.97051879906467,
,,,,,,,,7,0,7,0,,,,,,,,,,,,,,,,,,,,,,,,,,,,,,,,,,,,,,,,,,,,,,,,,,,,,1366.3877605004236,None,,,,,,,,,,,,,,,,,,,,,,,,,,,,,,,,,,,lip,111,8,aloud,white,1364.3875460997224,None,None,1364.3875460997224,None,,,,,,,,,,,,,,,,,,,,,,,,,,,,,,53,001,2023_Apr_24_1143,ExactRep-v3-final,2021.2.3,59.97051879906467,
,,,,,,,,8,0,8,0,,,,,,,,,,,,,,,,,,,,,,,,,,,,,,,,,,,,,,,,,,,,,,,,,,,,,1368.9067689003423,None,,,,,,,,,,,,,,,,,,,,,,,,,,,,,,,,,,,winter,8,9,sing,blue,1366.8934532999992,None,None,1366.8934532999992,None,,,,,,,,,,,,,,,,,,,,,,,,,,,,,,53,001,2023_Apr_24_1143,ExactRep-v3-final,2021.2.3,59.97051879906467,
,,,,,,,,9,0,9,0,,,,,,,,,,,,,,,,,,,,,,,,,,,,,,,,,,,,,,,,,,,,,,,,,,,,,1371.409453900531,None,,,,,,,,,,,,,,,,,,,,,,,,,,,,,,,,,,,water,25,10,sing,blue,1369.409538200125,None,None,1369.409538200125,None,,,,,,,,,,,,,,,,,,,,,,,,,,,,,,53,001,2023_Apr_24_1143,ExactRep-v3-final,2021.2.3,59.97051879906467,
,,,,,,,,10,0,10,0,,,,,,,,,,,,,,,,,,,,,,,,,,,,,,,,,,,,,,,,,,,,,,,,,,,,,1373.9286513999104,None,,,,,,,,,,,,,,,,,,,,,,,,,,,,,,,,,,,corner,23,11,sing,blue,1371.9155940003693,None,None,1371.9155940003693,None,,,,,,,,,,,,,,,,,,,,,,,,,,,,,,53,001,2023_Apr_24_1143,ExactRep-v3-final,2021.2.3,59.97051879906467,
,,,,,,,,11,0,11,0,,,,,,,,,,,,,,,,,,,,,,,,,,,,,,,,,,,,,,,,,,,,,,,,,,,,,1376.4477896997705,None,,,,,,,,,,,,,,,,,,,,,,,,,,,,,,,,,,,plant,69,12,silent,red,1374.4325323998928,None,None,1374.4325323998928,None,,,,,,,,,,,,,,,,,,,,,,,,,,,,,,53,001,2023_Apr_24_1143,ExactRep-v3-final,2021.2.3,59.97051879906467,
,,,,,,,,12,0,12,0,,,,,,,,,,,,,,,,,,,,,,,,,,,,,,,,,,,,,,,,,,,,,,,,,,,,,1378.9503547996283,None,,,,,,,,,,,,,,,,,,,,,,,,,,,,,,,,,,,doctor,61,13,silent,red,1376.94813339971,None,None,1376.94813339971,None,,,,,,,,,,,,,,,,,,,,,,,,,,,,,,53,001,2023_Apr_24_1143,ExactRep-v3-final,2021.2.3,59.97051879906467,
,,,,,,,,13,0,13,0,,,,,,,,,,,,,,,,,,,,,,,,,,,,,,,,,,,,,,,,,,,,,,,,,,,,,1381.452750599943,None,,,,,,,,,,,,,,,,,,,,,,,,,,,,,,,,,,,palace,15,14,sing,blue,1379.4531444003806,None,None,1379.4531444003806,None,,,,,,,,,,,,,,,,,,,,,,,,,,,,,,53,001,2023_Apr_24_1143,ExactRep-v3-final,2021.2.3,59.97051879906467,
,,,,,,,,14,0,14,0,,,,,,,,,,,,,,,,,,,,,,,,,,,,,,,,,,,,,,,,,,,,,,,,,,,,,1383.97200310044,None,,,,,,,,,,,,,,,,,,,,,,,,,,,,,,,,,,,mercy,59,15,silent,red,1381.9563948996365,None,None,1381.9563948996365,None,,,,,,,,,,,,,,,,,,,,,,,,,,,,,,53,001,2023_Apr_24_1143,ExactRep-v3-final,2021.2.3,59.97051879906467,
,,,,,,,,15,0,15,0,,,,,,,,,,,,,,,,,,,,,,,,,,,,,,,,,,,,,,,,,,,,,,,,,,,,,1386.4909939002246,None,,,,,,,,,,,,,,,,,,,,,,,,,,,,,,,,,,,fate,13,16,sing,blue,1384.4757166001946,None,None,1384.4757166001946,None,,,,,,,,,,,,,,,,,,,,,,,,,,,,,,53,001,2023_Apr_24_1143,ExactRep-v3-final,2021.2.3,59.97051879906467,
,,,,,,,,16,0,16,0,,,,,,,,,,,,,,,,,,,,,,,,,,,,,,,,,,,,,,,,,,,,,,,,,,,,,1389.010048000142,None,,,,,,,,,,,,,,,,,,,,,,,,,,,,,,,,,,,chief,98,17,aloud,white,1387.0107685001567,None,None,1387.0107685001567,None,,,,,,,,,,,,,,,,,,,,,,,,,,,,,,53,001,2023_Apr_24_1143,ExactRep-v3-final,2021.2.3,59.97051879906467,
,,,,,,,,17,0,17,0,,,,,,,,,,,,,,,,,,,,,,,,,,,,,,,,,,,,,,,,,,,,,,,,,,,,,1391.5296309003606,None,,,,,,,,,,,,,,,,,,,,,,,,,,,,,,,,,,,deed,100,18,aloud,white,1389.5177341001108,None,None,1389.5177341001108,None,,,,,,,,,,,,,,,,,,,,,,,,,,,,,,53,001,2023_Apr_24_1143,ExactRep-v3-final,2021.2.3,59.97051879906467,
,,,,,,,,18,0,18,0,,,,,,,,,,,,,,,,,,,,,,,,,,,,,,,,,,,,,,,,,,,,,,,,,,,,,1394.0321116000414,None,,,,,,,,,,,,,,,,,,,,,,,,,,,,,,,,,,,iron,22,19,sing,blue,1392.0300080003217,None,None,1392.0300080003217,None,,,,,,,,,,,,,,,,,,,,,,,,,,,,,,53,001,2023_Apr_24_1143,ExactRep-v3-final,2021.2.3,59.97051879906467,
,,,,,,,,19,0,19,0,,,,,,,,,,,,,,,,,,,,,,,,,,,,,,,,,,,,,,,,,,,,,,,,,,,,,1396.5345296002924,None,,,,,,,,,,,,,,,,,,,,,,,,,,,,,,,,,,,seat,12,20,sing,blue,1394.534459900111,None,None,1394.534459900111,None,,,,,,,,,,,,,,,,,,,,,,,,,,,,,,53,001,2023_Apr_24_1143,ExactRep-v3-final,2021.2.3,59.97051879906467,
,,,,,,,,20,0,20,0,,,,,,,,,,,,,,,,,,,,,,,,,,,,,,,,,,,,,,,,,,,,,,,,,,,,,1399.0368546005338,None,,,,,,,,,,,,,,,,,,,,,,,,,,,,,,,,,,,corn,51,21,silent,red,1397.0367735000327,None,None,1397.0367735000327,None,,,,,,,,,,,,,,,,,,,,,,,,,,,,,,53,001,2023_Apr_24_1143,ExactRep-v3-final,2021.2.3,59.97051879906467,
,,,,,,,,21,0,21,0,,,,,,,,,,,,,,,,,,,,,,,,,,,,,,,,,,,,,,,,,,,,,,,,,,,,,1401.5393676999956,None,,,,,,,,,,,,,,,,,,,,,,,,,,,,,,,,,,,bottle,95,22,aloud,white,1399.5402504997328,None,None,1399.5402504997328,None,,,,,,,,,,,,,,,,,,,,,,,,,,,,,,53,001,2023_Apr_24_1143,ExactRep-v3-final,2021.2.3,59.97051879906467,
,,,,,,,,22,0,22,0,,,,,,,,,,,,,,,,,,,,,,,,,,,,,,,,,,,,,,,,,,,,,,,,,,,,,1404.0420364001766,None,,,,,,,,,,,,,,,,,,,,,,,,,,,,,,,,,,,table,29,23,sing,blue,1402.0398995997384,None,None,1402.0398995997384,None,,,,,,,,,,,,,,,,,,,,,,,,,,,,,,53,001,2023_Apr_24_1143,ExactRep-v3-final,2021.2.3,59.97051879906467,
,,,,,,,,23,0,23,0,,,,,,,,,,,,,,,,,,,,,,,,,,,,,,,,,,,,,,,,,,,,,,,,,,,,,1406.5446146000177,None,,,,,,,,,,,,,,,,,,,,,,,,,,,,,,,,,,,green,63,24,silent,red,1404.5443994998932,None,None,1404.5443994998932,None,,,,,,,,,,,,,,,,,,,,,,,,,,,,,,53,001,2023_Apr_24_1143,ExactRep-v3-final,2021.2.3,59.97051879906467,
,,,,,,,,24,0,24,0,,,,,,,,,,,,,,,,,,,,,,,,,,,,,,,,,,,,,,,,,,,,,,,,,,,,,1409.047070500441,None,,,,,,,,,,,,,,,,,,,,,,,,,,,,,,,,,,,forest,42,25,silent,red,1407.046926399693,None,None,1407.046926399693,None,,,,,,,,,,,,,,,,,,,,,,,,,,,,,,53,001,2023_Apr_24_1143,ExactRep-v3-final,2021.2.3,59.97051879906467,
,,,,,,,,25,0,25,0,,,,,,,,,,,,,,,,,,,,,,,,,,,,,,,,,,,,,,,,,,,,,,,,,,,,,1411.549558300525,None,,,,,,,,,,,,,,,,,,,,,,,,,,,,,,,,,,,window,17,26,sing,blue,1409.5501041002572,None,None,1409.5501041002572,None,,,,,,,,,,,,,,,,,,,,,,,,,,,,,,53,001,2023_Apr_24_1143,ExactRep-v3-final,2021.2.3,59.97051879906467,
,,,,,,,,26,0,26,0,,,,,,,,,,,,,,,,,,,,,,,,,,,,,,,,,,,,,,,,,,,,,,,,,,,,,1414.0685965996236,None,,,,,,,,,,,,,,,,,,,,,,,,,,,,,,,,,,,style,60,27,silent,red,1412.057334500365,None,None,1412.057334500365,None,,,,,,,,,,,,,,,,,,,,,,,,,,,,,,53,001,2023_Apr_24_1143,ExactRep-v3-final,2021.2.3,59.97051879906467,
,,,,,,,,27,0,27,0,,,,,,,,,,,,,,,,,,,,,,,,,,,,,,,,,,,,,,,,,,,,,,,,,,,,,1416.5879154000431,None,,,,,,,,,,,,,,,,,,,,,,,,,,,,,,,,,,,chance,57,28,silent,red,1414.579133500345,None,None,1414.579133500345,None,,,,,,,,,,,,,,,,,,,,,,,,,,,,,,53,001,2023_Apr_24_1143,ExactRep-v3-final,2021.2.3,59.97051879906467,
,,,,,,,,28,0,28,0,,,,,,,,,,,,,,,,,,,,,,,,,,,,,,,,,,,,,,,,,,,,,,,,,,,,,1419.0904521998018,None,,,,,,,,,,,,,,,,,,,,,,,,,,,,,,,,,,,star,27,29,sing,blue,1417.0893556000665,None,None,1417.0893556000665,None,,,,,,,,,,,,,,,,,,,,,,,,,,,,,,53,001,2023_Apr_24_1143,ExactRep-v3-final,2021.2.3,59.97051879906467,
,,,,,,,,29,0,29,0,,,,,,,,,,,,,,,,,,,,,,,,,,,,,,,,,,,,,,,,,,,,,,,,,,,,,1421.6096075000241,None,,,,,,,,,,,,,,,,,,,,,,,,,,,,,,,,,,,stone,113,30,aloud,white,1419.5990259004757,None,None,1419.5990259004757,None,,,,,,,,,,,,,,,,,,,,,,,,,,,,,,53,001,2023_Apr_24_1143,ExactRep-v3-final,2021.2.3,59.97051879906467,
,,,,,,,,30,0,30,0,,,,,,,,,,,,,,,,,,,,,,,,,,,,,,,,,,,,,,,,,,,,,,,,,,,,,1424.1306167002767,None,,,,,,,,,,,,,,,,,,,,,,,,,,,,,,,,,,,mother,83,31,aloud,white,1422.1134802997112,None,None,1422.1134802997112,None,,,,,,,,,,,,,,,,,,,,,,,,,,,,,,53,001,2023_Apr_24_1143,ExactRep-v3-final,2021.2.3,59.97051879906467,
,,,,,,,,31,0,31,0,,,,,,,,,,,,,,,,,,,,,,,,,,,,,,,,,,,,,,,,,,,,,,,,,,,,,1426.6312386002392,None,,,,,,,,,,,,,,,,,,,,,,,,,,,,,,,,,,,plain,109,32,aloud,white,1424.6292821997777,None,None,1424.6292821997777,None,,,,,,,,,,,,,,,,,,,,,,,,,,,,,,53,001,2023_Apr_24_1143,ExactRep-v3-final,2021.2.3,59.97051879906467,
,,,,,,,,32,0,32,0,,,,,,,,,,,,,,,,,,,,,,,,,,,,,,,,,,,,,,,,,,,,,,,,,,,,,1429.150473400019,None,,,,,,,,,,,,,,,,,,,,,,,,,,,,,,,,,,,rock,91,33,aloud,white,1427.1364660002291,None,None,1427.1364660002291,None,,,,,,,,,,,,,,,,,,,,,,,,,,,,,,53,001,2023_Apr_24_1143,ExactRep-v3-final,2021.2.3,59.97051879906467,
,,,,,,,,33,0,33,0,,,,,,,,,,,,,,,,,,,,,,,,,,,,,,,,,,,,,,,,,,,,,,,,,,,,,1431.6695328997448,None,,,,,,,,,,,,,,,,,,,,,,,,,,,,,,,,,,,board,65,34,silent,red,1429.6543215997517,None,None,1429.6543215997517,None,,,,,,,,,,,,,,,,,,,,,,,,,,,,,,53,001,2023_Apr_24_1143,ExactRep-v3-final,2021.2.3,59.97051879906467,
,,,,,,,,34,0,34,0,,,,,,,,,,,,,,,,,,,,,,,,,,,,,,,,,,,,,,,,,,,,,,,,,,,,,1434.172255099751,None,,,,,,,,,,,,,,,,,,,,,,,,,,,,,,,,,,,clock,44,35,silent,red,1432.1713445996866,None,None,1432.1713445996866,None,,,,,,,,,,,,,,,,,,,,,,,,,,,,,,53,001,2023_Apr_24_1143,ExactRep-v3-final,2021.2.3,59.97051879906467,
,,,,,,,,35,0,35,0,,,,,,,,,,,,,,,,,,,,,,,,,,,,,,,,,,,,,,,,,,,,,,,,,,,,,1436.6913505997509,None,,,,,,,,,,,,,,,,,,,,,,,,,,,,,,,,,,,glory,74,36,silent,red,1434.675755600445,None,None,1434.675755600445,None,,,,,,,,,,,,,,,,,,,,,,,,,,,,,,53,001,2023_Apr_24_1143,ExactRep-v3-final,2021.2.3,59.97051879906467,
,,,,,,,,36,0,36,0,,,,,,,,,,,,,,,,,,,,,,,,,,,,,,,,,,,,,,,,,,,,,,,,,,,,,1439.2105221003294,None,,,,,,,,,,,,,,,,,,,,,,,,,,,,,,,,,,,grief,101,37,aloud,white,1437.1956018004566,None,None,1437.1956018004566,None,,,,,,,,,,,,,,,,,,,,,,,,,,,,,,53,001,2023_Apr_24_1143,ExactRep-v3-final,2021.2.3,59.97051879906467,
,,,,,,,,37,0,37,0,,,,,,,,,,,,,,,,,,,,,,,,,,,,,,,,,,,,,,,,,,,,,,,,,,,,,1441.7295513004065,None,,,,,,,,,,,,,,,,,,,,,,,,,,,,,,,,,,,weapon,97,38,aloud,white,1439.714508600533,None,None,1439.714508600533,None,,,,,,,,,,,,,,,,,,,,,,,,,,,,,,53,001,2023_Apr_24_1143,ExactRep-v3-final,2021.2.3,59.97051879906467,
,,,,,,,,38,0,38,0,,,,,,,,,,,,,,,,,,,,,,,,,,,,,,,,,,,,,,,,,,,,,,,,,,,,,1444.248727899976,None,,,,,,,,,,,,,,,,,,,,,,,,,,,,,,,,,,,judge,7,39,sing,blue,1442.2397153005004,None,None,1442.2397153005004,None,,,,,,,,,,,,,,,,,,,,,,,,,,,,,,53,001,2023_Apr_24_1143,ExactRep-v3-final,2021.2.3,59.97051879906467,
,,,,,,,,39,0,39,0,,,,,,,,,,,,,,,,,,,,,,,,,,,,,,,,,,,,,,,,,,,,,,,,,,,,,1446.7514388002455,None,,,,,,,,,,,,,,,,,,,,,,,,,,,,,,,,,,,street,10,40,sing,blue,1444.7503004996106,None,None,1444.7503004996106,None,,,,,,,,,,,,,,,,,,,,,,,,,,,,,,53,001,2023_Apr_24_1143,ExactRep-v3-final,2021.2.3,59.97051879906467,
,,,,,,,,40,0,40,0,,,,,,,,,,,,,,,,,,,,,,,,,,,,,,,,,,,,,,,,,,,,,,,,,,,,,1449.2539739003405,None,,,,,,,,,,,,,,,,,,,,,,,,,,,,,,,,,,,law,88,41,aloud,white,1447.2541038002819,None,None,1447.2541038002819,None,,,,,,,,,,,,,,,,,,,,,,,,,,,,,,53,001,2023_Apr_24_1143,ExactRep-v3-final,2021.2.3,59.97051879906467,
,,,,,,,,41,0,41,0,,,,,,,,,,,,,,,,,,,,,,,,,,,,,,,,,,,,,,,,,,,,,,,,,,,,,1451.7563046999276,None,,,,,,,,,,,,,,,,,,,,,,,,,,,,,,,,,,,cost,4,42,sing,blue,1449.75429920014,None,None,1449.75429920014,None,,,,,,,,,,,,,,,,,,,,,,,,,,,,,,53,001,2023_Apr_24_1143,ExactRep-v3-final,2021.2.3,59.97051879906467,
,,,,,,,,42,0,42,0,,,,,,,,,,,,,,,,,,,,,,,,,,,,,,,,,,,,,,,,,,,,,,,,,,,,,1454.2756016999483,None,,,,,,,,,,,,,,,,,,,,,,,,,,,,,,,,,,,vessel,0,43,sing,blue,1452.2655127001926,None,None,1452.2655127001926,None,,,,,,,,,,,,,,,,,,,,,,,,,,,,,,53,001,2023_Apr_24_1143,ExactRep-v3-final,2021.2.3,59.97051879906467,
,,,,,,,,43,0,43,0,,,,,,,,,,,,,,,,,,,,,,,,,,,,,,,,,,,,,,,,,,,,,,,,,,,,,1456.7779905004427,None,,,,,,,,,,,,,,,,,,,,,,,,,,,,,,,,,,,shock,106,44,aloud,white,1454.775996800512,None,None,1454.775996800512,None,,,,,,,,,,,,,,,,,,,,,,,,,,,,,,53,001,2023_Apr_24_1143,ExactRep-v3-final,2021.2.3,59.97051879906467,
,,,,,,,,44,0,44,0,,,,,,,,,,,,,,,,,,,,,,,,,,,,,,,,,,,,,,,,,,,,,,,,,,,,,1459.2974276002496,None,,,,,,,,,,,,,,,,,,,,,,,,,,,,,,,,,,,opinion,53,45,silent,red,1457.2882014997303,None,None,1457.2882014997303,None,,,,,,,,,,,,,,,,,,,,,,,,,,,,,,53,001,2023_Apr_24_1143,ExactRep-v3-final,2021.2.3,59.97051879906467,
,,,,,,,,45,0,45,0,,,,,,,,,,,,,,,,,,,,,,,,,,,,,,,,,,,,,,,,,,,,,,,,,,,,,1461.7998222997412,None,,,,,,,,,,,,,,,,,,,,,,,,,,,,,,,,,,,doll,38,46,sing,blue,1459.797649900429,None,None,1459.797649900429,None,,,,,,,,,,,,,,,,,,,,,,,,,,,,,,53,001,2023_Apr_24_1143,ExactRep-v3-final,2021.2.3,59.97051879906467,
,,,,,,,,46,0,46,0,,,,,,,,,,,,,,,,,,,,,,,,,,,,,,,,,,,,,,,,,,,,,,,,,,,,,1464.3189939996228,None,,,,,,,,,,,,,,,,,,,,,,,,,,,,,,,,,,,effort,76,47,silent,red,1462.3036264004186,None,None,1462.3036264004186,None,,,,,,,,,,,,,,,,,,,,,,,,,,,,,,53,001,2023_Apr_24_1143,ExactRep-v3-final,2021.2.3,59.97051879906467,
,,,,,,,,47,0,47,0,,,,,,,,,,,,,,,,,,,,,,,,,,,,,,,,,,,,,,,,,,,,,,,,,,,,,1466.8213366996497,None,,,,,,,,,,,,,,,,,,,,,,,,,,,,,,,,,,,king,103,48,aloud,white,1464.8195406002924,None,None,1464.8195406002924,None,,,,,,,,,,,,,,,,,,,,,,,,,,,,,,53,001,2023_Apr_24_1143,ExactRep-v3-final,2021.2.3,59.97051879906467,
,,,,,,,,48,0,48,0,,,,,,,,,,,,,,,,,,,,,,,,,,,,,,,,,,,,,,,,,,,,,,,,,,,,,1469.3407033002004,None,,,,,,,,,,,,,,,,,,,,,,,,,,,,,,,,,,,breast,6,49,sing,blue,1467.3250420000404,None,None,1467.3250420000404,None,,,,,,,,,,,,,,,,,,,,,,,,,,,,,,53,001,2023_Apr_24_1143,ExactRep-v3-final,2021.2.3,59.97051879906467,
,,,,,,,,49,0,49,0,,,,,,,,,,,,,,,,,,,,,,,,,,,,,,,,,,,,,,,,,,,,,,,,,,,,,1471.8431965000927,None,,,,,,,,,,,,,,,,,,,,,,,,,,,,,,,,,,,person,49,50,silent,red,1469.8423584997654,None,None,1469.8423584997654,None,,,,,,,,,,,,,,,,,,,,,,,,,,,,,,53,001,2023_Apr_24_1143,ExactRep-v3-final,2021.2.3,59.97051879906467,
,,,,,,,,50,0,50,0,,,,,,,,,,,,,,,,,,,,,,,,,,,,,,,,,,,,,,,,,,,,,,,,,,,,,1474.362493400462,None,,,,,,,,,,,,,,,,,,,,,,,,,,,,,,,,,,,house,87,51,aloud,white,1472.3471130998805,None,None,1472.3471130998805,None,,,,,,,,,,,,,,,,,,,,,,,,,,,,,,53,001,2023_Apr_24_1143,ExactRep-v3-final,2021.2.3,59.97051879906467,
,,,,,,,,51,0,51,0,,,,,,,,,,,,,,,,,,,,,,,,,,,,,,,,,,,,,,,,,,,,,,,,,,,,,1476.8816170003265,None,,,,,,,,,,,,,,,,,,,,,,,,,,,,,,,,,,,lake,62,52,silent,red,1474.8667409000918,None,None,1474.8667409000918,None,,,,,,,,,,,,,,,,,,,,,,,,,,,,,,53,001,2023_Apr_24_1143,ExactRep-v3-final,2021.2.3,59.97051879906467,
,,,,,,,,52,0,52,0,,,,,,,,,,,,,,,,,,,,,,,,,,,,,,,,,,,,,,,,,,,,,,,,,,,,,1479.3839445998892,None,,,,,,,,,,,,,,,,,,,,,,,,,,,,,,,,,,,cotton,39,53,silent,red,1477.381921400316,None,None,1477.381921400316,None,,,,,,,,,,,,,,,,,,,,,,,,,,,,,,53,001,2023_Apr_24_1143,ExactRep-v3-final,2021.2.3,59.97051879906467,
,,,,,,,,53,0,53,0,,,,,,,,,,,,,,,,,,,,,,,,,,,,,,,,,,,,,,,,,,,,,,,,,,,,,1481.9032255001366,None,,,,,,,,,,,,,,,,,,,,,,,,,,,,,,,,,,,air,114,54,aloud,white,1479.8898769998923,None,None,1479.8898769998923,None,,,,,,,,,,,,,,,,,,,,,,,,,,,,,,53,001,2023_Apr_24_1143,ExactRep-v3-final,2021.2.3,59.97051879906467,
,,,,,,,,54,0,54,0,,,,,,,,,,,,,,,,,,,,,,,,,,,,,,,,,,,,,,,,,,,,,,,,,,,,,1484.405820899643,None,,,,,,,,,,,,,,,,,,,,,,,,,,,,,,,,,,,skin,14,55,sing,blue,1482.4035550998524,None,None,1482.4035550998524,None,,,,,,,,,,,,,,,,,,,,,,,,,,,,,,53,001,2023_Apr_24_1143,ExactRep-v3-final,2021.2.3,59.97051879906467,
,,,,,,,,55,0,55,0,,,,,,,,,,,,,,,,,,,,,,,,,,,,,,,,,,,,,,,,,,,,,,,,,,,,,1486.9247521003708,None,,,,,,,,,,,,,,,,,,,,,,,,,,,,,,,,,,,month,82,56,aloud,white,1484.9134983997792,None,None,1484.9134983997792,None,,,,,,,,,,,,,,,,,,,,,,,,,,,,,,53,001,2023_Apr_24_1143,ExactRep-v3-final,2021.2.3,59.97051879906467,
,,,,,,,,56,0,56,0,,,,,,,,,,,,,,,,,,,,,,,,,,,,,,,,,,,,,,,,,,,,,,,,,,,,,1489.444210300222,None,,,,,,,,,,,,,,,,,,,,,,,,,,,,,,,,,,,flesh,75,57,silent,red,1487.4333806997165,None,None,1487.4333806997165,None,,,,,,,,,,,,,,,,,,,,,,,,,,,,,,53,001,2023_Apr_24_1143,ExactRep-v3-final,2021.2.3,59.97051879906467,
,,,,,,,,57,0,57,0,,,,,,,,,,,,,,,,,,,,,,,,,,,,,,,,,,,,,,,,,,,,,,,,,,,,,1491.9465827001259,None,,,,,,,,,,,,,,,,,,,,,,,,,,,,,,,,,,,hour,41,58,silent,red,1489.9445283999667,None,None,1489.9445283999667,None,,,,,,,,,,,,,,,,,,,,,,,,,,,,,,53,001,2023_Apr_24_1143,ExactRep-v3-final,2021.2.3,59.97051879906467,
,,,,,,,,58,0,58,0,,,,,,,,,,,,,,,,,,,,,,,,,,,,,,,,,,,,,,,,,,,,,,,,,,,,,1494.449154799804,None,,,,,,,,,,,,,,,,,,,,,,,,,,,,,,,,,,,camp,40,59,silent,red,1492.4469725005329,None,None,1492.4469725005329,None,,,,,,,,,,,,,,,,,,,,,,,,,,,,,,53,001,2023_Apr_24_1143,ExactRep-v3-final,2021.2.3,59.97051879906467,
,,,,,,,,59,0,59,0,,,,,,,,,,,,,,,,,,,,,,,,,,,,,,,,,,,,,,,,,,,,,,,,,,,,,1496.957310399972,None,,,,,,,,,,,,,,,,,,,,,,,,,,,,,,,,,,,product,67,60,silent,red,1494.9521206999198,None,None,1494.9521206999198,None,,,,,,,,,,,,,,,,,,,,,,,,,,,,,,53,001,2023_Apr_24_1143,ExactRep-v3-final,2021.2.3,59.97051879906467,
,,,,,,,,60,0,60,0,,,,,,,,,,,,,,,,,,,,,,,,,,,,,,,,,,,,,,,,,,,,,,,,,,,,,1499.470805999823,None,,,,,,,,,,,,,,,,,,,,,,,,,,,,,,,,,,,charm,86,61,aloud,white,1497.4688140004873,None,None,1497.4688140004873,None,,,,,,,,,,,,,,,,,,,,,,,,,,,,,,53,001,2023_Apr_24_1143,ExactRep-v3-final,2021.2.3,59.97051879906467,
,,,,,,,,61,0,61,0,,,,,,,,,,,,,,,,,,,,,,,,,,,,,,,,,,,,,,,,,,,,,,,,,,,,,1501.9901753999293,None,,,,,,,,,,,,,,,,,,,,,,,,,,,,,,,,,,,prayer,96,62,aloud,white,1499.9755193004385,None,None,1499.9755193004385,None,,,,,,,,,,,,,,,,,,,,,,,,,,,,,,53,001,2023_Apr_24_1143,ExactRep-v3-final,2021.2.3,59.97051879906467,
,,,,,,,,62,0,62,0,,,,,,,,,,,,,,,,,,,,,,,,,,,,,,,,,,,,,,,,,,,,,,,,,,,,,1504.4925303999335,None,,,,,,,,,,,,,,,,,,,,,,,,,,,,,,,,,,,devil,85,63,aloud,white,1502.491169899702,None,None,1502.491169899702,None,,,,,,,,,,,,,,,,,,,,,,,,,,,,,,53,001,2023_Apr_24_1143,ExactRep-v3-final,2021.2.3,59.97051879906467,
,,,,,,,,63,0,63,0,,,,,,,,,,,,,,,,,,,,,,,,,,,,,,,,,,,,,,,,,,,,,,,,,,,,,1507.0116712003946,None,,,,,,,,,,,,,,,,,,,,,,,,,,,,,,,,,,,speech,46,64,silent,red,1505.000563999638,None,None,1505.000563999638,None,,,,,,,,,,,,,,,,,,,,,,,,,,,,,,53,001,2023_Apr_24_1143,ExactRep-v3-final,2021.2.3,59.97051879906467,
,,,,,,,,64,0,64,0,,,,,,,,,,,,,,,,,,,,,,,,,,,,,,,,,,,,,,,,,,,,,,,,,,,,,1509.5139770004898,None,,,,,,,,,,,,,,,,,,,,,,,,,,,,,,,,,,,horse,99,65,aloud,white,1507.5144589003175,None,None,1507.5144589003175,None,,,,,,,,,,,,,,,,,,,,,,,,,,,,,,53,001,2023_Apr_24_1143,ExactRep-v3-final,2021.2.3,59.97051879906467,
,,,,,,,,65,0,65,0,,,,,,,,,,,,,,,,,,,,,,,,,,,,,,,,,,,,,,,,,,,,,,,,,,,,,1512.0334050999954,None,,,,,,,,,,,,,,,,,,,,,,,,,,,,,,,,,,,cat,54,66,silent,red,1510.0245970003307,None,None,1510.0245970003307,None,,,,,,,,,,,,,,,,,,,,,,,,,,,,,,53,001,2023_Apr_24_1143,ExactRep-v3-final,2021.2.3,59.97051879906467,
,,,,,,,,66,0,66,0,,,,,,,,,,,,,,,,,,,,,,,,,,,,,,,,,,,,,,,,,,,,,,,,,,,,,1514.5524011002854,None,,,,,,,,,,,,,,,,,,,,,,,,,,,,,,,,,,,body,5,67,sing,blue,1512.5389627004042,None,None,1512.5389627004042,None,,,,,,,,,,,,,,,,,,,,,,,,,,,,,,53,001,2023_Apr_24_1143,ExactRep-v3-final,2021.2.3,59.97051879906467,
,,,,,,,,67,0,67,0,,,,,,,,,,,,,,,,,,,,,,,,,,,,,,,,,,,,,,,,,,,,,,,,,,,,,1517.0549013996497,None,,,,,,,,,,,,,,,,,,,,,,,,,,,,,,,,,,,volume,33,68,sing,blue,1515.0529241003096,None,None,1515.0529241003096,None,,,,,,,,,,,,,,,,,,,,,,,,,,,,,,53,001,2023_Apr_24_1143,ExactRep-v3-final,2021.2.3,59.97051879906467,
,,,,,,,,68,0,68,0,,,,,,,,,,,,,,,,,,,,,,,,,,,,,,,,,,,,,,,,,,,,,,,,,,,,,1519.5574126997963,None,,,,,,,,,,,,,,,,,,,,,,,,,,,,,,,,,,,car,21,69,sing,blue,1517.5553834997118,None,None,1517.5553834997118,None,,,,,,,,,,,,,,,,,,,,,,,,,,,,,,53,001,2023_Apr_24_1143,ExactRep-v3-final,2021.2.3,59.97051879906467,
,,,,,,,,69,0,69,0,,,,,,,,,,,,,,,,,,,,,,,,,,,,,,,,,,,,,,,,,,,,,,,,,,,,,1522.0766657004133,None,,,,,,,,,,,,,,,,,,,,,,,,,,,,,,,,,,,hope,89,70,aloud,white,1520.0620183004066,None,None,1520.0620183004066,None,,,,,,,,,,,,,,,,,,,,,,,,,,,,,,53,001,2023_Apr_24_1143,ExactRep-v3-final,2021.2.3,59.97051879906467,
,,,,,,,,70,0,70,0,,,,,,,,,,,,,,,,,,,,,,,,,,,,,,,,,,,,,,,,,,,,,,,,,,,,,1524.5965675003827,None,,,,,,,,,,,,,,,,,,,,,,,,,,,,,,,,,,,salary,30,71,sing,blue,1522.5821837997064,None,None,1522.5821837997064,None,,,,,,,,,,,,,,,,,,,,,,,,,,,,,,53,001,2023_Apr_24_1143,ExactRep-v3-final,2021.2.3,59.97051879906467,
,,,,,,,,71,0,71,0,,,,,,,,,,,,,,,,,,,,,,,,,,,,,,,,,,,,,,,,,,,,,,,,,,,,,1527.0984195005149,None,,,,,,,,,,,,,,,,,,,,,,,,,,,,,,,,,,,disease,119,72,aloud,white,1525.0983482003212,None,None,1525.0983482003212,None,,,,,,,,,,,,,,,,,,,,,,,,,,,,,,53,001,2023_Apr_24_1143,ExactRep-v3-final,2021.2.3,59.97051879906467,
,,,,,,,,72,0,72,0,,,,,,,,,,,,,,,,,,,,,,,,,,,,,,,,,,,,,,,,,,,,,,,,,,,,,1529.617467599921,None,,,,,,,,,,,,,,,,,,,,,,,,,,,,,,,,,,,steam,72,73,silent,red,1527.6042835004628,None,None,1527.6042835004628,None,,,,,,,,,,,,,,,,,,,,,,,,,,,,,,53,001,2023_Apr_24_1143,ExactRep-v3-final,2021.2.3,59.97051879906467,
,,,,,,,,73,0,73,0,,,,,,,,,,,,,,,,,,,,,,,,,,,,,,,,,,,,,,,,,,,,,,,,,,,,,1532.1201157001778,None,,,,,,,,,,,,,,,,,,,,,,,,,,,,,,,,,,,pride,56,74,silent,red,1530.1180928004906,None,None,1530.1180928004906,None,,,,,,,,,,,,,,,,,,,,,,,,,,,,,,53,001,2023_Apr_24_1143,ExactRep-v3-final,2021.2.3,59.97051879906467,
,,,,,,,,74,0,74,0,,,,,,,,,,,,,,,,,,,,,,,,,,,,,,,,,,,,,,,,,,,,,,,,,,,,,1534.6393539002165,None,,,,,,,,,,,,,,,,,,,,,,,,,,,,,,,,,,,pole,3,75,sing,blue,1532.6248462004587,None,None,1532.6248462004587,None,,,,,,,,,,,,,,,,,,,,,,,,,,,,,,53,001,2023_Apr_24_1143,ExactRep-v3-final,2021.2.3,59.97051879906467,
,,,,,,,,75,0,75,0,,,,,,,,,,,,,,,,,,,,,,,,,,,,,,,,,,,,,,,,,,,,,,,,,,,,,1537.1415659999475,None,,,,,,,,,,,,,,,,,,,,,,,,,,,,,,,,,,,dollar,78,76,silent,red,1535.1419272003695,None,None,1535.1419272003695,None,,,,,,,,,,,,,,,,,,,,,,,,,,,,,,53,001,2023_Apr_24_1143,ExactRep-v3-final,2021.2.3,59.97051879906467,
,,,,,,,,76,0,76,0,,,,,,,,,,,,,,,,,,,,,,,,,,,,,,,,,,,,,,,,,,,,,,,,,,,,,1539.6611186005175,None,,,,,,,,,,,,,,,,,,,,,,,,,,,,,,,,,,,animal,71,77,silent,red,1537.6459771003574,None,None,1537.6459771003574,None,,,,,,,,,,,,,,,,,,,,,,,,,,,,,,53,001,2023_Apr_24_1143,ExactRep-v3-final,2021.2.3,59.97051879906467,
,,,,,,,,77,0,77,0,,,,,,,,,,,,,,,,,,,,,,,,,,,,,,,,,,,,,,,,,,,,,,,,,,,,,1542.1634772000834,None,,,,,,,,,,,,,,,,,,,,,,,,,,,,,,,,,,,wife,24,78,sing,blue,1540.1620393004268,None,None,1540.1620393004268,None,,,,,,,,,,,,,,,,,,,,,,,,,,,,,,53,001,2023_Apr_24_1143,ExactRep-v3-final,2021.2.3,59.97051879906467,
,,,,,,,,78,0,78,0,,,,,,,,,,,,,,,,,,,,,,,,,,,,,,,,,,,,,,,,,,,,,,,,,,,,,1544.6659736996517,None,,,,,,,,,,,,,,,,,,,,,,,,,,,,,,,,,,,kiss,31,79,sing,blue,1542.6662432998419,None,None,1542.6662432998419,None,,,,,,,,,,,,,,,,,,,,,,,,,,,,,,53,001,2023_Apr_24_1143,ExactRep-v3-final,2021.2.3,59.97051879906467,
,,,,,,,,79,0,79,0,,,,,,,,,,,,,,,,,,,,,,,,,,,,,,,,,,,,,,,,,,,,,,,,,,,,,1547.1852494999766,None,,,,,,,,,,,,,,,,,,,,,,,,,,,,,,,,,,,death,73,80,silent,red,1545.1752671999857,None,None,1545.1752671999857,None,,,,,,,,,,,,,,,,,,,,,,,,,,,,,,53,001,2023_Apr_24_1143,ExactRep-v3-final,2021.2.3,59.97051879906467,
,,,,,,,,80,0,80,0,,,,,,,,,,,,,,,,,,,,,,,,,,,,,,,,,,,,,,,,,,,,,,,,,,,,,1549.7044208999723,None,,,,,,,,,,,,,,,,,,,,,,,,,,,,,,,,,,,time,66,81,silent,red,1547.6913005001843,None,None,1547.6913005001843,None,,,,,,,,,,,,,,,,,,,,,,,,,,,,,,53,001,2023_Apr_24_1143,ExactRep-v3-final,2021.2.3,59.97051879906467,
,,,,,,,,81,0,81,0,,,,,,,,,,,,,,,,,,,,,,,,,,,,,,,,,,,,,,,,,,,,,,,,,,,,,1552.2235340001062,None,,,,,,,,,,,,,,,,,,,,,,,,,,,,,,,,,,,money,47,82,silent,red,1550.2082807999104,None,None,1550.2082807999104,None,,,,,,,,,,,,,,,,,,,,,,,,,,,,,,53,001,2023_Apr_24_1143,ExactRep-v3-final,2021.2.3,59.97051879906467,
,,,,,,,,82,0,82,0,,,,,,,,,,,,,,,,,,,,,,,,,,,,,,,,,,,,,,,,,,,,,,,,,,,,,1554.726051799953,None,,,,,,,,,,,,,,,,,,,,,,,,,,,,,,,,,,,cabin,2,83,sing,blue,1552.724042000249,None,None,1552.724042000249,None,,,,,,,,,,,,,,,,,,,,,,,,,,,,,,53,001,2023_Apr_24_1143,ExactRep-v3-final,2021.2.3,59.97051879906467,
,,,,,,,,83,0,83,0,,,,,,,,,,,,,,,,,,,,,,,,,,,,,,,,,,,,,,,,,,,,,,,,,,,,,1557.2284252997488,None,,,,,,,,,,,,,,,,,,,,,,,,,,,,,,,,,,,fun,90,84,aloud,white,1555.2292579999194,None,None,1555.2292579999194,None,,,,,,,,,,,,,,,,,,,,,,,,,,,,,,53,001,2023_Apr_24_1143,ExactRep-v3-final,2021.2.3,59.97051879906467,
,,,,,,,,84,0,84,0,,,,,,,,,,,,,,,,,,,,,,,,,,,,,,,,,,,,,,,,,,,,,,,,,,,,,1559.7476295996457,None,,,,,,,,,,,,,,,,,,,,,,,,,,,,,,,,,,,lad,37,85,sing,blue,1557.732792899944,None,None,1557.732792899944,None,,,,,,,,,,,,,,,,,,,,,,,,,,,,,,53,001,2023_Apr_24_1143,ExactRep-v3-final,2021.2.3,59.97051879906467,
,,,,,,,,85,0,85,0,,,,,,,,,,,,,,,,,,,,,,,,,,,,,,,,,,,,,,,,,,,,,,,,,,,,,1562.2502351002768,None,,,,,,,,,,,,,,,,,,,,,,,,,,,,,,,,,,,boy,32,86,sing,blue,1560.2509855004027,None,None,1560.2509855004027,None,,,,,,,,,,,,,,,,,,,,,,,,,,,,,,53,001,2023_Apr_24_1143,ExactRep-v3-final,2021.2.3,59.97051879906467,
,,,,,,,,86,0,86,0,,,,,,,,,,,,,,,,,,,,,,,,,,,,,,,,,,,,,,,,,,,,,,,,,,,,,1564.7694255001843,None,,,,,,,,,,,,,,,,,,,,,,,,,,,,,,,,,,,storm,80,87,aloud,white,1562.7540028002113,None,None,1562.7540028002113,None,,,,,,,,,,,,,,,,,,,,,,,,,,,,,,53,001,2023_Apr_24_1143,ExactRep-v3-final,2021.2.3,59.97051879906467,
,,,,,,,,87,0,87,0,,,,,,,,,,,,,,,,,,,,,,,,,,,,,,,,,,,,,,,,,,,,,,,,,,,,,1567.2719500996172,None,,,,,,,,,,,,,,,,,,,,,,,,,,,,,,,,,,,bird,58,88,silent,red,1565.2699295999482,None,None,1565.2699295999482,None,,,,,,,,,,,,,,,,,,,,,,,,,,,,,,53,001,2023_Apr_24_1143,ExactRep-v3-final,2021.2.3,59.97051879906467,
,,,,,,,,88,0,88,0,,,,,,,,,,,,,,,,,,,,,,,,,,,,,,,,,,,,,,,,,,,,,,,,,,,,,1569.774310800247,None,,,,,,,,,,,,,,,,,,,,,,,,,,,,,,,,,,,soil,81,89,aloud,white,1567.773881400004,None,None,1567.773881400004,None,,,,,,,,,,,,,,,,,,,,,,,,,,,,,,53,001,2023_Apr_24_1143,ExactRep-v3-final,2021.2.3,59.97051879906467,
,,,,,,,,89,0,89,0,,,,,,,,,,,,,,,,,,,,,,,,,,,,,,,,,,,,,,,,,,,,,,,,,,,,,1572.276960999705,None,,,,,,,,,,,,,,,,,,,,,,,,,,,,,,,,,,,insect,118,90,aloud,white,1570.2766142999753,None,None,1570.2766142999753,None,,,,,,,,,,,,,,,,,,,,,,,,,,,,,,53,001,2023_Apr_24_1143,ExactRep-v3-final,2021.2.3,59.97051879906467,
,,,,,,,,90,0,90,0,,,,,,,,,,,,,,,,,,,,,,,,,,,,,,,,,,,,,,,,,,,,,,,,,,,,,1574.7963071996346,None,,,,,,,,,,,,,,,,,,,,,,,,,,,,,,,,,,,method,9,91,sing,blue,1572.7876182999462,None,None,1572.7876182999462,None,,,,,,,,,,,,,,,,,,,,,,,,,,,,,,53,001,2023_Apr_24_1143,ExactRep-v3-final,2021.2.3,59.97051879906467,
,,,,,,,,91,0,91,0,,,,,,,,,,,,,,,,,,,,,,,,,,,,,,,,,,,,,,,,,,,,,,,,,,,,,1577.298644600436,None,,,,,,,,,,,,,,,,,,,,,,,,,,,,,,,,,,,master,34,92,sing,blue,1575.297784300521,None,None,1575.297784300521,None,,,,,,,,,,,,,,,,,,,,,,,,,,,,,,53,001,2023_Apr_24_1143,ExactRep-v3-final,2021.2.3,59.97051879906467,
,,,,,,,,92,0,92,0,,,,,,,,,,,,,,,,,,,,,,,,,,,,,,,,,,,,,,,,,,,,,,,,,,,,,1579.8178701000288,None,,,,,,,,,,,,,,,,,,,,,,,,,,,,,,,,,,,church,68,93,silent,red,1577.8026034003124,None,None,1577.8026034003124,None,,,,,,,,,,,,,,,,,,,,,,,,,,,,,,53,001,2023_Apr_24_1143,ExactRep-v3-final,2021.2.3,59.97051879906467,
,,,,,,,,93,0,93,0,,,,,,,,,,,,,,,,,,,,,,,,,,,,,,,,,,,,,,,,,,,,,,,,,,,,,1582.3203739002347,None,,,,,,,,,,,,,,,,,,,,,,,,,,,,,,,,,,,season,45,94,silent,red,1580.319479700178,None,None,1580.319479700178,None,,,,,,,,,,,,,,,,,,,,,,,,,,,,,,53,001,2023_Apr_24_1143,ExactRep-v3-final,2021.2.3,59.97051879906467,
,,,,,,,,94,0,94,0,,,,,,,,,,,,,,,,,,,,,,,,,,,,,,,,,,,,,,,,,,,,,,,,,,,,,1584.8226735005155,None,,,,,,,,,,,,,,,,,,,,,,,,,,,,,,,,,,,temple,43,95,silent,red,1582.821359500289,None,None,1582.821359500289,None,,,,,,,,,,,,,,,,,,,,,,,,,,,,,,53,001,2023_Apr_24_1143,ExactRep-v3-final,2021.2.3,59.97051879906467,
,,,,,,,,95,0,95,0,,,,,,,,,,,,,,,,,,,,,,,,,,,,,,,,,,,,,,,,,,,,,,,,,,,,,1587.342141199857,None,,,,,,,,,,,,,,,,,,,,,,,,,,,,,,,,,,,string,115,96,aloud,white,1585.3264921000227,None,None,1585.3264921000227,None,,,,,,,,,,,,,,,,,,,,,,,,,,,,,,53,001,2023_Apr_24_1143,ExactRep-v3-final,2021.2.3,59.97051879906467,
,,,,,,,,96,0,96,0,,,,,,,,,,,,,,,,,,,,,,,,,,,,,,,,,,,,,,,,,,,,,,,,,,,,,1589.8445180999115,None,,,,,,,,,,,,,,,,,,,,,,,,,,,,,,,,,,,shadow,108,97,aloud,white,1587.84241390042,None,None,1587.84241390042,None,,,,,,,,,,,,,,,,,,,,,,,,,,,,,,53,001,2023_Apr_24_1143,ExactRep-v3-final,2021.2.3,59.97051879906467,
,,,,,,,,97,0,97,0,,,,,,,,,,,,,,,,,,,,,,,,,,,,,,,,,,,,,,,,,,,,,,,,,,,,,1592.3470203997567,None,,,,,,,,,,,,,,,,,,,,,,,,,,,,,,,,,,,tree,19,98,sing,blue,1590.3470644997433,None,None,1590.3470644997433,None,,,,,,,,,,,,,,,,,,,,,,,,,,,,,,53,001,2023_Apr_24_1143,ExactRep-v3-final,2021.2.3,59.97051879906467,
,,,,,,,,98,0,98,0,,,,,,,,,,,,,,,,,,,,,,,,,,,,,,,,,,,,,,,,,,,,,,,,,,,,,1594.84953400027,None,,,,,,,,,,,,,,,,,,,,,,,,,,,,,,,,,,,girl,36,99,sing,blue,1592.849439700134,None,None,1592.849439700134,None,,,,,,,,,,,,,,,,,,,,,,,,,,,,,,53,001,2023_Apr_24_1143,ExactRep-v3-final,2021.2.3,59.97051879906467,
,,,,,,,,99,0,99,0,,,,,,,,,,,,,,,,,,,,,,,,,,,,,,,,,,,,,,,,,,,,,,,,,,,,,1597.368562400341,None,,,,,,,,,,,,,,,,,,,,,,,,,,,,,,,,,,,coffee,92,100,aloud,white,1595.3531293999404,None,None,1595.3531293999404,None,,,,,,,,,,,,,,,,,,,,,,,,,,,,,,53,001,2023_Apr_24_1143,ExactRep-v3-final,2021.2.3,59.97051879906467,
,,,,,,,,100,0,100,0,,,,,,,,,,,,,,,,,,,,,,,,,,,,,,,,,,,,,,,,,,,,,,,,,,,,,1599.8878849996254,None,,,,,,,,,,,,,,,,,,,,,,,,,,,,,,,,,,,blood,64,101,silent,red,1597.8748984998092,None,None,1597.8748984998092,None,,,,,,,,,,,,,,,,,,,,,,,,,,,,,,53,001,2023_Apr_24_1143,ExactRep-v3-final,2021.2.3,59.97051879906467,
,,,,,,,,101,0,101,0,,,,,,,,,,,,,,,,,,,,,,,,,,,,,,,,,,,,,,,,,,,,,,,,,,,,,1602.406935799867,None,,,,,,,,,,,,,,,,,,,,,,,,,,,,,,,,,,,author,93,102,aloud,white,1600.396180300042,None,None,1600.396180300042,None,,,,,,,,,,,,,,,,,,,,,,,,,,,,,,53,001,2023_Apr_24_1143,ExactRep-v3-final,2021.2.3,59.97051879906467,
,,,,,,,,102,0,102,0,,,,,,,,,,,,,,,,,,,,,,,,,,,,,,,,,,,,,,,,,,,,,,,,,,,,,1604.9095831001177,None,,,,,,,,,,,,,,,,,,,,,,,,,,,,,,,,,,,coin,84,103,aloud,white,1602.9075165996328,None,None,1602.9075165996328,None,,,,,,,,,,,,,,,,,,,,,,,,,,,,,,53,001,2023_Apr_24_1143,ExactRep-v3-final,2021.2.3,59.97051879906467,
,,,,,,,,103,0,103,0,,,,,,,,,,,,,,,,,,,,,,,,,,,,,,,,,,,,,,,,,,,,,,,,,,,,,1607.4336347999051,None,,,,,,,,,,,,,,,,,,,,,,,,,,,,,,,,,,,theory,18,104,sing,blue,1605.4250063998625,None,None,1605.4250063998625,None,,,,,,,,,,,,,,,,,,,,,,,,,,,,,,53,001,2023_Apr_24_1143,ExactRep-v3-final,2021.2.3,59.97051879906467,
,,,,,,,,104,0,104,0,,,,,,,,,,,,,,,,,,,,,,,,,,,,,,,,,,,,,,,,,,,,,,,,,,,,,1609.947753299959,None,,,,,,,,,,,,,,,,,,,,,,,,,,,,,,,,,,,dream,79,105,sing,blue,1607.94511900004,None,None,1607.94511900004,None,,,,,,,,,,,,,,,,,,,,,,,,,,,,,,53,001,2023_Apr_24_1143,ExactRep-v3-final,2021.2.3,59.97051879906467,
,,,,,,,,105,0,105,0,,,,,,,,,,,,,,,,,,,,,,,,,,,,,,,,,,,,,,,,,,,,,,,,,,,,,1612.4672002000734,None,,,,,,,,,,,,,,,,,,,,,,,,,,,,,,,,,,,river,77,106,silent,red,1610.4588468996808,None,None,1610.4588468996808,None,,,,,,,,,,,,,,,,,,,,,,,,,,,,,,53,001,2023_Apr_24_1143,ExactRep-v3-final,2021.2.3,59.97051879906467,
,,,,,,,,106,0,106,0,,,,,,,,,,,,,,,,,,,,,,,,,,,,,,,,,,,,,,,,,,,,,,,,,,,,,1614.9696164997295,None,,,,,,,,,,,,,,,,,,,,,,,,,,,,,,,,,,,custom,50,107,silent,red,1612.9696313003078,None,None,1612.9696313003078,None,,,,,,,,,,,,,,,,,,,,,,,,,,,,,,53,001,2023_Apr_24_1143,ExactRep-v3-final,2021.2.3,59.97051879906467,
,,,,,,,,107,0,107,0,,,,,,,,,,,,,,,,,,,,,,,,,,,,,,,,,,,,,,,,,,,,,,,,,,,,,1617.488683800213,None,,,,,,,,,,,,,,,,,,,,,,,,,,,,,,,,,,,series,105,108,aloud,white,1615.4753804001957,None,None,1615.4753804001957,None,,,,,,,,,,,,,,,,,,,,,,,,,,,,,,53,001,2023_Apr_24_1143,ExactRep-v3-final,2021.2.3,59.97051879906467,
,,,,,,,,108,0,108,0,,,,,,,,,,,,,,,,,,,,,,,,,,,,,,,,,,,,,,,,,,,,,,,,,,,,,1619.9911537002772,None,,,,,,,,,,,,,,,,,,,,,,,,,,,,,,,,,,,power,94,109,aloud,white,1617.989078800194,None,None,1617.989078800194,None,,,,,,,,,,,,,,,,,,,,,,,,,,,,,,53,001,2023_Apr_24_1143,ExactRep-v3-final,2021.2.3,59.97051879906467,
,,,,,,,,109,0,109,0,,,,,,,,,,,,,,,,,,,,,,,,,,,,,,,,,,,,,,,,,,,,,,,,,,,,,1622.510546600446,None,,,,,,,,,,,,,,,,,,,,,,,,,,,,,,,,,,,brain,107,110,aloud,white,1620.4994441000745,None,None,1620.4994441000745,None,,,,,,,,,,,,,,,,,,,,,,,,,,,,,,53,001,2023_Apr_24_1143,ExactRep-v3-final,2021.2.3,59.97051879906467,
,,,,,,,,110,0,110,0,,,,,,,,,,,,,,,,,,,,,,,,,,,,,,,,,,,,,,,,,,,,,,,,,,,,,1625.01309460029,None,,,,,,,,,,,,,,,,,,,,,,,,,,,,,,,,,,,prison,112,111,aloud,white,1623.013004200533,None,None,1623.013004200533,None,,,,,,,,,,,,,,,,,,,,,,,,,,,,,,53,001,2023_Apr_24_1143,ExactRep-v3-final,2021.2.3,59.97051879906467,
,,,,,,,,111,0,111,0,,,,,,,,,,,,,,,,,,,,,,,,,,,,,,,,,,,,,,,,,,,,,,,,,,,,,1627.5321888001636,None,,,,,,,,,,,,,,,,,,,,,,,,,,,,,,,,,,,arm,102,112,aloud,white,1625.5169251998886,None,None,1625.5169251998886,None,,,,,,,,,,,,,,,,,,,,,,,,,,,,,,53,001,2023_Apr_24_1143,ExactRep-v3-final,2021.2.3,59.97051879906467,
,,,,,,,,112,0,112,0,,,,,,,,,,,,,,,,,,,,,,,,,,,,,,,,,,,,,,,,,,,,,,,,,,,,,1630.034731999971,None,,,,,,,,,,,,,,,,,,,,,,,,,,,,,,,,,,,teacher,110,113,aloud,white,1628.0326538002118,None,None,1628.0326538002118,None,,,,,,,,,,,,,,,,,,,,,,,,,,,,,,53,001,2023_Apr_24_1143,ExactRep-v3-final,2021.2.3,59.97051879906467,
,,,,,,,,113,0,113,0,,,,,,,,,,,,,,,,,,,,,,,,,,,,,,,,,,,,,,,,,,,,,,,,,,,,,1632.5371944000944,None,,,,,,,,,,,,,,,,,,,,,,,,,,,,,,,,,,,woman,28,114,sing,blue,1630.5382193997502,None,None,1630.5382193997502,None,,,,,,,,,,,,,,,,,,,,,,,,,,,,,,53,001,2023_Apr_24_1143,ExactRep-v3-final,2021.2.3,59.97051879906467,
,,,,,,,,114,0,114,0,,,,,,,,,,,,,,,,,,,,,,,,,,,,,,,,,,,,,,,,,,,,,,,,,,,,,1635.0565210003406,None,,,,,,,,,,,,,,,,,,,,,,,,,,,,,,,,,,,pupil,1,115,sing,blue,1633.041252600029,None,None,1633.041252600029,None,,,,,,,,,,,,,,,,,,,,,,,,,,,,,,53,001,2023_Apr_24_1143,ExactRep-v3-final,2021.2.3,59.97051879906467,
,,,,,,,,115,0,115,0,,,,,,,,,,,,,,,,,,,,,,,,,,,,,,,,,,,,,,,,,,,,,,,,,,,,,1637.558838300407,None,,,,,,,,,,,,,,,,,,,,,,,,,,,,,,,,,,,heaven,16,116,sing,blue,1635.5581593997777,None,None,1635.5581593997777,None,,,,,,,,,,,,,,,,,,,,,,,,,,,,,,53,001,2023_Apr_24_1143,ExactRep-v3-final,2021.2.3,59.97051879906467,
,,,,,,,,116,0,116,0,,,,,,,,,,,,,,,,,,,,,,,,,,,,,,,,,,,,,,,,,,,,,,,,,,,,,1640.0614013001323,None,,,,,,,,,,,,,,,,,,,,,,,,,,,,,,,,,,,quality,26,117,sing,blue,1638.0611399998888,None,None,1638.0611399998888,None,,,,,,,,,,,,,,,,,,,,,,,,,,,,,,53,001,2023_Apr_24_1143,ExactRep-v3-final,2021.2.3,59.97051879906467,
,,,,,,,,117,0,117,0,,,,,,,,,,,,,,,,,,,,,,,,,,,,,,,,,,,,,,,,,,,,,,,,,,,,,1642.563895800151,None,,,,,,,,,,,,,,,,,,,,,,,,,,,,,,,,,,,virtue,48,118,silent,red,1640.5638592997566,None,None,1640.5638592997566,None,,,,,,,,,,,,,,,,,,,,,,,,,,,,,,53,001,2023_Apr_24_1143,ExactRep-v3-final,2021.2.3,59.97051879906467,
,,,,,,,,118,0,118,0,,,,,,,,,,,,,,,,,,,,,,,,,,,,,,,,,,,,,,,,,,,,,,,,,,,,,1645.066360199824,None,,,,,,,,,,,,,,,,,,,,,,,,,,,,,,,,,,,dawn,104,119,aloud,white,1643.0662312004715,None,None,1643.0662312004715,None,,,,,,,,,,,,,,,,,,,,,,,,,,,,,,53,001,2023_Apr_24_1143,ExactRep-v3-final,2021.2.3,59.97051879906467,
,,,,,,,,119,0,119,0,,,,,,,,,,,,,,,,,,,,,,,,,,,,,,,,,,,,,,,,,,,,,,,,,,,,,1647.588552299887,None,,,,,,,,,,,,,,,,,,,,,,,,,,,,,,,,,,,health,117,120,aloud,white,1645.570807300508,None,None,1645.570807300508,None,,,,,,,,,,,,,,,,,,,,,,,,,,,,,,53,001,2023_Apr_24_1143,ExactRep-v3-final,2021.2.3,59.97051879906467,
,,,,,,,,,,,,,,,,,,,,,,,,,,,,,,,,,,,,,,,,,,,,,,,,,,,,,,,,,,,,,,,,,,,,,,,,,,,,,,,,,,,,,,,,,,,,,,,,,,,,,,,,,,,,,,1648.0874643996358,None,space,0.7422195002436638,1658.0640198998153,None,,,,,,,,,,,,,,,,,,,,,,,,53,001,2023_Apr_24_1143,ExactRep-v3-final,2021.2.3,59.97051879906467,
,,,,,,,,,,,,,,,,,,,,,,,,,,,,,,,,,,,,,,,,,,,,,,,,,,,,,,,,,,,,,,,,,,,,,,,,,,,,,,,,,,,,,,,,,,,,,,,,,,,,,,,,,,,,,,,,,,,,1658.8320100996643,None,space,28.710150599479675,1668.808239299804,None,,,,,,,,,,,,,,,,,,53,001,2023_Apr_24_1143,ExactRep-v3-final,2021.2.3,59.97051879906467,
,,,,,,,,,,,,0,0,0,0,,,,,,,,,,,,,,,,,,,,,,,,,,,,,,,,,,,,,,,,,,,,,,,,,1715.3032903000712,None,,,,,,,,,,,,,,,,,,,,,,,,,,,,,,,,,,,,,,,,,,,,,,,,,,,,,,,,,colony,232,1,aloud,new,white,1698.0546564999968,None,n,1698.0546564999968,None,"['n', 'return']","[5.2472270000725985, 17.21537470072508]",1698.0546564999968,None,,,53,001,2023_Apr_24_1143,ExactRep-v3-final,2021.2.3,59.97051879906467,
,,,,,,,,,,,,1,0,1,0,,,,,,,,,,,,,,,,,,,,,,,,,,,,,,,,,,,,,,,,,,,,,,,,,1719.907701799646,None,,,,,,,,,,,,,,,,,,,,,,,,,,,,,,,,,,,,,,,,,,,,,,,,,,,,,,,,,style,60,2,silent,old,red,1715.810171299614,None,y,1715.810171299614,None,"['y', 'return']","[2.8197763999924064, 4.051822000183165]",1715.810171299614,None,,,53,001,2023_Apr_24_1143,ExactRep-v3-final,2021.2.3,59.97051879906467,
,,,,,,,,,,,,2,0,2,0,,,,,,,,,,,,,,,,,,,,,,,,,,,,,,,,,,,,,,,,,,,,,,,,,1724.0785410003737,None,,,,,,,,,,,,,,,,,,,,,,,,,,,,,,,,,,,,,,,,,,,,,,,,,,,,,,,,,fortune,182,3,aloud,new,white,1720.4177921004593,None,n,1720.4177921004593,None,"['n', 'return']","[1.852076499722898, 3.628035600297153]",1720.4177921004593,None,,,53,001,2023_Apr_24_1143,ExactRep-v3-final,2021.2.3,59.97051879906467,
,,,,,,,,,,,,3,0,3,0,,,,,,,,,,,,,,,,,,,,,,,,,,,,,,,,,,,,,,,,,,,,,,,,,1727.0149846998975,None,,,,,,,,,,,,,,,,,,,,,,,,,,,,,,,,,,,,,,,,,,,,,,,,,,,,,,,,,water,25,4,sing,old,blue,1724.5950723998249,None,y,1724.5950723998249,None,"['y', 'return']","[1.6588213006034493, 2.378821300342679]",1724.5950723998249,None,,,53,001,2023_Apr_24_1143,ExactRep-v3-final,2021.2.3,59.97051879906467,
,,,,,,,,,,,,4,0,4,0,,,,,,,,,,,,,,,,,,,,,,,,,,,,,,,,,,,,,,,,,,,,,,,,,1729.6842320002615,None,,,,,,,,,,,,,,,,,,,,,,,,,,,,,,,,,,,,,,,,,,,,,,,,,,,,,,,,,home,132,5,silent,new,red,1727.524100200273,None,n,1727.524100200273,None,"['n', 'return']","[1.3777233995497227, 2.1137718996033072]",1727.524100200273,None,,,53,001,2023_Apr_24_1143,ExactRep-v3-final,2021.2.3,59.97051879906467,
,,,,,,,,,,,,5,0,5,0,,,,,,,,,,,,,,,,,,,,,,,,,,,,,,,,,,,,,,,,,,,,,,,,,1732.253390699625,None,,,,,,,,,,,,,,,,,,,,,,,,,,,,,,,,,,,,,,,,,,,,,,,,,,,,,,,,,bar,179,6,sing,new,blue,1730.1872864002362,None,n,1730.1872864002362,None,"['n', 'return']","[1.258598200045526, 2.026651700027287]",1730.1872864002362,None,,,53,001,2023_Apr_24_1143,ExactRep-v3-final,2021.2.3,59.97051879906467,
,,,,,,,,,,,,6,0,6,0,,,,,,,,,,,,,,,,,,,,,,,,,,,,,,,,,,,,,,,,,,,,,,,,,1734.4389658998698,None,,,,,,,,,,,,,,,,,,,,,,,,,,,,,,,,,,,,,,,,,,,,,,,,,,,,,,,,,effort,76,7,silent,old,red,1732.7614398002625,None,n,1732.7614398002625,None,"['n', 'return']","[1.1246798001229763, 1.6444571008905768]",1732.7614398002625,None,,,53,001,2023_Apr_24_1143,ExactRep-v3-final,2021.2.3,59.97051879906467,
,,,,,,,,,,,,7,0,7,0,,,,,,,,,,,,,,,,,,,,,,,,,,,,,,,,,,,,,,,,,,,,,,,,,1740.3448413005099,None,,,,,,,,,,,,,,,,,,,,,,,,,,,,,,,,,,,,,,,,,,,,,,,,,,,,,,,,,doctor,61,8,silent,old,red,1734.9454635996372,None,n,1734.9454635996372,None,"['n', 'return']","[3.7484186002984643, 5.364379800856113]",1734.9454635996372,None,,,53,001,2023_Apr_24_1143,ExactRep-v3-final,2021.2.3,59.97051879906467,
,,,,,,,,,,,,8,0,8,0,,,,,,,,,,,,,,,,,,,,,,,,,,,,,,,,,,,,,,,,,,,,,,,,,1742.99854900036,None,,,,,,,,,,,,,,,,,,,,,,,,,,,,,,,,,,,,,,,,,,,,,,,,,,,,,,,,,boulder,233,9,sing,new,blue,1740.856084300205,None,n,1740.856084300205,None,"['n', 'return']","[1.237852399237454, 2.0937653994187713]",1740.856084300205,None,,,53,001,2023_Apr_24_1143,ExactRep-v3-final,2021.2.3,59.97051879906467,
,,,,,,,,,,,,9,0,9,0,,,,,,,,,,,,,,,,,,,,,,,,,,,,,,,,,,,,,,,,,,,,,,,,,1746.751227799803,None,,,,,,,,,,,,,,,,,,,,,,,,,,,,,,,,,,,,,,,,,,,,,,,,,,,,,,,,,fun,90,10,aloud,old,white,1743.514536799863,None,y,1743.514536799863,None,"['y', 'return']","[2.483354600146413, 3.1953186001628637]",1743.514536799863,None,,,53,001,2023_Apr_24_1143,ExactRep-v3-final,2021.2.3,59.97051879906467,
,,,,,,,,,,,,10,0,10,0,,,,,,,,,,,,,,,,,,,,,,,,,,,,,,,,,,,,,,,,,,,,,,,,,1749.287083200179,None,,,,,,,,,,,,,,,,,,,,,,,,,,,,,,,,,,,,,,,,,,,,,,,,,,,,,,,,,weapon,97,11,aloud,old,white,1747.2638292005286,None,y,1747.2638292005286,None,"['y', 'return']","[1.245971499942243, 1.9900831999257207]",1747.2638292005286,None,,,53,001,2023_Apr_24_1143,ExactRep-v3-final,2021.2.3,59.97051879906467,
,,,,,,,,,,,,11,0,11,0,,,,,,,,,,,,,,,,,,,,,,,,,,,,,,,,,,,,,,,,,,,,,,,,,1753.5582272997126,None,,,,,,,,,,,,,,,,,,,,,,,,,,,,,,,,,,,,,,,,,,,,,,,,,,,,,,,,,student,124,12,silent,new,red,1749.7948954999447,None,y,1749.7948954999447,None,"['y', 'return']","[3.0830413000658154, 3.715041200630367]",1749.7948954999447,None,,,53,001,2023_Apr_24_1143,ExactRep-v3-final,2021.2.3,59.97051879906467,
,,,,,,,,,,,,12,0,12,0,,,,,,,,,,,,,,,,,,,,,,,,,,,,,,,,,,,,,,,,,,,,,,,,,1756.1773060001433,None,,,,,,,,,,,,,,,,,,,,,,,,,,,,,,,,,,,,,,,,,,,,,,,,,,,,,,,,,steam,72,13,silent,old,red,1754.0686943000183,None,n,1754.0686943000183,None,"['n', 'return']","[1.4096015002578497, 2.073394600301981]",1754.0686943000183,None,,,53,001,2023_Apr_24_1143,ExactRep-v3-final,2021.2.3,59.97051879906467,
,,,,,,,,,,,,13,0,13,0,,,,,,,,,,,,,,,,,,,,,,,,,,,,,,,,,,,,,,,,,,,,,,,,,1758.5797097003087,None,,,,,,,,,,,,,,,,,,,,,,,,,,,,,,,,,,,,,,,,,,,,,,,,,,,,,,,,,truth,216,14,aloud,new,white,1756.6967738997191,None,n,1756.6967738997191,None,"['n', 'return']","[1.2451320001855493, 1.8372189002111554]",1756.6967738997191,None,,,53,001,2023_Apr_24_1143,ExactRep-v3-final,2021.2.3,59.97051879906467,
,,,,,,,,,,,,14,0,14,0,,,,,,,,,,,,,,,,,,,,,,,,,,,,,,,,,,,,,,,,,,,,,,,,,1762.4669128004462,None,,,,,,,,,,,,,,,,,,,,,,,,,,,,,,,,,,,,,,,,,,,,,,,,,,,,,,,,,series,105,15,aloud,old,white,1759.096557999961,None,y,1759.096557999961,None,"['y', 'return']","[2.8133909003809094, 3.325386700220406]",1759.096557999961,None,,,53,001,2023_Apr_24_1143,ExactRep-v3-final,2021.2.3,59.97051879906467,
,,,,,,,,,,,,15,0,15,0,,,,,,,,,,,,,,,,,,,,,,,,,,,,,,,,,,,,,,,,,,,,,,,,,1765.4699397003278,None,,,,,,,,,,,,,,,,,,,,,,,,,,,,,,,,,,,,,,,,,,,,,,,,,,,,,,,,,salary,30,16,sing,old,blue,1762.9804948000237,None,y,1762.9804948000237,None,"['y', 'return']","[1.8974504005163908, 2.4415386002510786]",1762.9804948000237,None,,,53,001,2023_Apr_24_1143,ExactRep-v3-final,2021.2.3,59.97051879906467,
,,,,,,,,,,,,16,0,16,0,,,,,,,,,,,,,,,,,,,,,,,,,,,,,,,,,,,,,,,,,,,,,,,,,1767.5554473996162,None,,,,,,,,,,,,,,,,,,,,,,,,,,,,,,,,,,,,,,,,,,,,,,,,,,,,,,,,,chair,148,17,silent,new,red,1765.9833696000278,None,n,1765.9833696000278,None,"['n', 'return']","[0.9745000004768372, 1.5266108000651002]",1765.9833696000278,None,,,53,001,2023_Apr_24_1143,ExactRep-v3-final,2021.2.3,59.97051879906467,
,,,,,,,,,,,,17,0,17,0,,,,,,,,,,,,,,,,,,,,,,,,,,,,,,,,,,,,,,,,,,,,,,,,,1770.3247533002868,None,,,,,,,,,,,,,,,,,,,,,,,,,,,,,,,,,,,,,,,,,,,,,,,,,,,,,,,,,meat,161,18,sing,new,blue,1768.0644129002467,None,n,1768.0644129002467,None,"['n', 'return']","[1.5174789000302553, 2.213541199453175]",1768.0644129002467,None,,,53,001,2023_Apr_24_1143,ExactRep-v3-final,2021.2.3,59.97051879906467,
,,,,,,,,,,,,18,0,18,0,,,,,,,,,,,,,,,,,,,,,,,,,,,,,,,,,,,,,,,,,,,,,,,,,1773.4612867003307,None,,,,,,,,,,,,,,,,,,,,,,,,,,,,,,,,,,,,,,,,,,,,,,,,,,,,,,,,,cost,4,19,sing,old,blue,1770.827831200324,None,n,1770.827831200324,None,"['n', 'return']","[1.7861339999362826, 2.586109700612724]",1770.827831200324,None,,,53,001,2023_Apr_24_1143,ExactRep-v3-final,2021.2.3,59.97051879906467,
,,,,,,,,,,,,19,0,19,0,,,,,,,,,,,,,,,,,,,,,,,,,,,,,,,,,,,,,,,,,,,,,,,,,1776.180644100532,None,,,,,,,,,,,,,,,,,,,,,,,,,,,,,,,,,,,,,,,,,,,,,,,,,,,,,,,,,fact,217,20,sing,new,blue,1773.9730000998825,None,n,1773.9730000998825,None,"['n', 'n', 'return']","[1.2169302999973297, 1.4729086002334952, 2.1689301002770662]",1773.9730000998825,None,,,53,001,2023_Apr_24_1143,ExactRep-v3-final,2021.2.3,59.97051879906467,
,,,,,,,,,,,,20,0,20,0,,,,,,,,,,,,,,,,,,,,,,,,,,,,,,,,,,,,,,,,,,,,,,,,,1780.5350067000836,None,,,,,,,,,,,,,,,,,,,,,,,,,,,,,,,,,,,,,,,,,,,,,,,,,,,,,,,,,crime,159,21,silent,new,red,1776.690406699665,None,y,1776.690406699665,None,"['y', 'return']","[3.1316047003492713, 3.8116339007392526]",1776.690406699665,None,,,53,001,2023_Apr_24_1143,ExactRep-v3-final,2021.2.3,59.97051879906467,
,,,,,,,,,,,,21,0,21,0,,,,,,,,,,,,,,,,,,,,,,,,,,,,,,,,,,,,,,,,,,,,,,,,,1782.9875224996358,None,,,,,,,,,,,,,,,,,,,,,,,,,,,,,,,,,,,,,,,,,,,,,,,,,,,,,,,,,spirit,143,22,silent,new,red,1781.0434905001894,None,n,1781.0434905001894,None,"['n', 'return']","[1.3305895999073982, 1.9064857000485063]",1781.0434905001894,None,,,53,001,2023_Apr_24_1143,ExactRep-v3-final,2021.2.3,59.97051879906467,
,,,,,,,,,,,,22,0,22,0,,,,,,,,,,,,,,,,,,,,,,,,,,,,,,,,,,,,,,,,,,,,,,,,,1785.273349300027,None,,,,,,,,,,,,,,,,,,,,,,,,,,,,,,,,,,,,,,,,,,,,,,,,,,,,,,,,,charm,86,23,aloud,old,white,1783.4929287005216,None,y,1783.4929287005216,None,"['y', 'return']","[1.0811257008463144, 1.7369897002354264]",1783.4929287005216,None,,,53,001,2023_Apr_24_1143,ExactRep-v3-final,2021.2.3,59.97051879906467,
,,,,,,,,,,,,23,0,23,0,,,,,,,,,,,,,,,,,,,,,,,,,,,,,,,,,,,,,,,,,,,,,,,,,1787.5422625998035,None,,,,,,,,,,,,,,,,,,,,,,,,,,,,,,,,,,,,,,,,,,,,,,,,,,,,,,,,,doll,38,24,sing,old,blue,1785.7821688996628,None,y,1785.7821688996628,None,"['y', 'return']","[1.0557306995615363, 1.7197390999644995]",1785.7821688996628,None,,,53,001,2023_Apr_24_1143,ExactRep-v3-final,2021.2.3,59.97051879906467,
,,,,,,,,,,,,24,0,24,0,,,,,,,,,,,,,,,,,,,,,,,,,,,,,,,,,,,,,,,,,,,,,,,,,1789.711009800434,None,,,,,,,,,,,,,,,,,,,,,,,,,,,,,,,,,,,,,,,,,,,,,,,,,,,,,,,,,queen,192,25,aloud,new,white,1788.0524754999205,None,n,1788.0524754999205,None,"['n', 'return']","[1.0015672007575631, 1.6174792004749179]",1788.0524754999205,None,,,53,001,2023_Apr_24_1143,ExactRep-v3-final,2021.2.3,59.97051879906467,
,,,,,,,,,,,,25,0,25,0,,,,,,,,,,,,,,,,,,,,,,,,,,,,,,,,,,,,,,,,,,,,,,,,,1791.729773200117,None,,,,,,,,,,,,,,,,,,,,,,,,,,,,,,,,,,,,,,,,,,,,,,,,,,,,,,,,,lord,203,26,sing,new,blue,1790.2171032000333,None,n,1790.2171032000333,None,"['n', 'return']","[0.9008282003924251, 1.4688125997781754]",1790.2171032000333,None,,,53,001,2023_Apr_24_1143,ExactRep-v3-final,2021.2.3,59.97051879906467,
,,,,,,,,,,,,26,0,26,0,,,,,,,,,,,,,,,,,,,,,,,,,,,,,,,,,,,,,,,,,,,,,,,,,1794.4155446998775,None,,,,,,,,,,,,,,,,,,,,,,,,,,,,,,,,,,,,,,,,,,,,,,,,,,,,,,,,,life,149,27,silent,new,red,1792.241014899686,None,n,1792.241014899686,None,"['n', 'return']","[1.2929411996155977, 2.1408861000090837]",1792.241014899686,None,,,53,001,2023_Apr_24_1143,ExactRep-v3-final,2021.2.3,59.97051879906467,
,,,,,,,,,,,,27,0,27,0,,,,,,,,,,,,,,,,,,,,,,,,,,,,,,,,,,,,,,,,,,,,,,,,,1796.5678602997214,None,,,,,,,,,,,,,,,,,,,,,,,,,,,,,,,,,,,,,,,,,,,,,,,,,,,,,,,,,bowl,211,28,sing,new,blue,1794.9287719996646,None,n,1794.9287719996646,None,"['n', 'return']","[1.0373015003278852, 1.6051317006349564]",1794.9287719996646,None,,,53,001,2023_Apr_24_1143,ExactRep-v3-final,2021.2.3,59.97051879906467,
,,,,,,,,,,,,28,0,28,0,,,,,,,,,,,,,,,,,,,,,,,,,,,,,,,,,,,,,,,,,,,,,,,,,1799.1204169997945,None,,,,,,,,,,,,,,,,,,,,,,,,,,,,,,,,,,,,,,,,,,,,,,,,,,,,,,,,,college,184,29,aloud,new,white,1797.0721771996468,None,n,1797.0721771996468,None,"['n', 'return']","[1.3817424001172185, 2.0057409005239606]",1797.0721771996468,None,,,53,001,2023_Apr_24_1143,ExactRep-v3-final,2021.2.3,59.97051879906467,
,,,,,,,,,,,,29,0,29,0,,,,,,,,,,,,,,,,,,,,,,,,,,,,,,,,,,,,,,,,,,,,,,,,,1801.305766100064,None,,,,,,,,,,,,,,,,,,,,,,,,,,,,,,,,,,,,,,,,,,,,,,,,,,,,,,,,,dream,79,30,sing,old,blue,1799.6244579004124,None,y,1799.6244579004124,None,"['y', 'return']","[1.0376183995977044, 1.6455312995240092]",1799.6244579004124,None,,,53,001,2023_Apr_24_1143,ExactRep-v3-final,2021.2.3,59.97051879906467,
,,,,,,,,,,,,30,0,30,0,,,,,,,,,,,,,,,,,,,,,,,,,,,,,,,,,,,,,,,,,,,,,,,,,1805.3765153000131,None,,,,,,,,,,,,,,,,,,,,,,,,,,,,,,,,,,,,,,,,,,,,,,,,,,,,,,,,,temple,43,31,silent,old,red,1801.8135639000684,None,n,1801.8135639000684,None,"['n', 'return']","[2.5046198004856706, 3.5283323004841805]",1801.8135639000684,None,,,53,001,2023_Apr_24_1143,ExactRep-v3-final,2021.2.3,59.97051879906467,
,,,,,,,,,,,,31,0,31,0,,,,,,,,,,,,,,,,,,,,,,,,,,,,,,,,,,,,,,,,,,,,,,,,,1808.2962964996696,None,,,,,,,,,,,,,,,,,,,,,,,,,,,,,,,,,,,,,,,,,,,,,,,,,,,,,,,,,army,229,32,sing,new,blue,1805.8854895001277,None,n,1805.8854895001277,None,"['n', 'return']","[1.7446082001551986, 2.3684079004451632]",1805.8854895001277,None,,,53,001,2023_Apr_24_1143,ExactRep-v3-final,2021.2.3,59.97051879906467,
,,,,,,,,,,,,32,0,32,0,,,,,,,,,,,,,,,,,,,,,,,,,,,,,,,,,,,,,,,,,,,,,,,,,1810.5316573996097,None,,,,,,,,,,,,,,,,,,,,,,,,,,,,,,,,,,,,,,,,,,,,,,,,,,,,,,,,,ocean,237,33,sing,new,blue,1808.7968274001032,None,n,1808.7968274001032,None,"['n', 'return']","[0.9851211002096534, 1.697129299864173]",1808.7968274001032,None,,,53,001,2023_Apr_24_1143,ExactRep-v3-final,2021.2.3,59.97051879906467,
,,,,,,,,,,,,33,0,33,0,,,,,,,,,,,,,,,,,,,,,,,,,,,,,,,,,,,,,,,,,,,,,,,,,1813.8683425998315,None,,,,,,,,,,,,,,,,,,,,,,,,,,,,,,,,,,,,,,,,,,,,,,,,,,,,,,,,,history,208,34,aloud,new,white,1811.040658599697,None,n,1811.040658599697,None,"['n', 'return']","[1.7892724005505443, 2.789386600255966]",1811.040658599697,None,,,53,001,2023_Apr_24_1143,ExactRep-v3-final,2021.2.3,59.97051879906467,
,,,,,,,,,,,,34,0,34,0,,,,,,,,,,,,,,,,,,,,,,,,,,,,,,,,,,,,,,,,,,,,,,,,,1815.9705849001184,None,,,,,,,,,,,,,,,,,,,,,,,,,,,,,,,,,,,,,,,,,,,,,,,,,,,,,,,,,iron,22,35,sing,old,blue,1814.3771443003789,None,y,1814.3771443003789,None,"['y', 'return']","[1.0287596005946398, 1.556775700300932]",1814.3771443003789,None,,,53,001,2023_Apr_24_1143,ExactRep-v3-final,2021.2.3,59.97051879906467,
,,,,,,,,,,,,35,0,35,0,,,,,,,,,,,,,,,,,,,,,,,,,,,,,,,,,,,,,,,,,,,,,,,,,1818.005812600255,None,,,,,,,,,,,,,,,,,,,,,,,,,,,,,,,,,,,,,,,,,,,,,,,,,,,,,,,,,event,153,36,silent,new,red,1816.4826153004542,None,n,1816.4826153004542,None,"['n', 'return']","[1.035479100421071, 1.4755103001371026]",1816.4826153004542,None,,,53,001,2023_Apr_24_1143,ExactRep-v3-final,2021.2.3,59.97051879906467,
,,,,,,,,,,,,36,0,36,0,,,,,,,,,,,,,,,,,,,,,,,,,,,,,,,,,,,,,,,,,,,,,,,,,1820.975531199947,None,,,,,,,,,,,,,,,,,,,,,,,,,,,,,,,,,,,,,,,,,,,,,,,,,,,,,,,,,street,10,37,sing,old,blue,1818.5166116999462,None,y,1818.5166116999462,None,"['y', 'return']","[1.7054783999919891, 2.4173656003549695]",1818.5166116999462,None,,,53,001,2023_Apr_24_1143,ExactRep-v3-final,2021.2.3,59.97051879906467,
,,,,,,,,,,,,37,0,37,0,,,,,,,,,,,,,,,,,,,,,,,,,,,,,,,,,,,,,,,,,,,,,,,,,1822.9608273999766,None,,,,,,,,,,,,,,,,,,,,,,,,,,,,,,,,,,,,,,,,,,,,,,,,,,,,,,,,,world,134,38,silent,new,red,1821.4862203998491,None,n,1821.4862203998491,None,"['n', 'return']","[0.8158068004995584, 1.439674200490117]",1821.4862203998491,None,,,53,001,2023_Apr_24_1143,ExactRep-v3-final,2021.2.3,59.97051879906467,
,,,,,,,,,,,,38,0,38,0,,,,,,,,,,,,,,,,,,,,,,,,,,,,,,,,,,,,,,,,,,,,,,,,,1825.146299100481,None,,,,,,,,,,,,,,,,,,,,,,,,,,,,,,,,,,,,,,,,,,,,,,,,,,,,,,,,,corner,23,39,sing,old,blue,1823.4706516005099,None,y,1823.4706516005099,None,"['y', 'return']","[1.079466300085187, 1.6313193002715707]",1823.4706516005099,None,,,53,001,2023_Apr_24_1143,ExactRep-v3-final,2021.2.3,59.97051879906467,
,,,,,,,,,,,,39,0,39,0,,,,,,,,,,,,,,,,,,,,,,,,,,,,,,,,,,,,,,,,,,,,,,,,,1828.4329936997965,None,,,,,,,,,,,,,,,,,,,,,,,,,,,,,,,,,,,,,,,,,,,,,,,,,,,,,,,,,speech,46,40,silent,old,red,1825.6570098996162,None,n,1825.6570098996162,None,"['n', 'return']","[1.8212271993979812, 2.732915699481964]",1825.6570098996162,None,,,53,001,2023_Apr_24_1143,ExactRep-v3-final,2021.2.3,59.97051879906467,
,,,,,,,,,,,,40,0,40,0,,,,,,,,,,,,,,,,,,,,,,,,,,,,,,,,,,,,,,,,,,,,,,,,,1830.384898500517,None,,,,,,,,,,,,,,,,,,,,,,,,,,,,,,,,,,,,,,,,,,,,,,,,,,,,,,,,,moment,129,41,silent,new,red,1828.9397820001468,None,n,1828.9397820001468,None,"['n', 'return']","[0.9381483998149633, 1.4101448003202677]",1828.9397820001468,None,,,53,001,2023_Apr_24_1143,ExactRep-v3-final,2021.2.3,59.97051879906467,
,,,,,,,,,,,,41,0,41,0,,,,,,,,,,,,,,,,,,,,,,,,,,,,,,,,,,,,,,,,,,,,,,,,,1834.0885824002326,None,,,,,,,,,,,,,,,,,,,,,,,,,,,,,,,,,,,,,,,,,,,,,,,,,,,,,,,,,origin,146,42,silent,new,red,1830.894834799692,None,n,1830.894834799692,None,"['n', 'return']","[2.4309868002310395, 3.15124490018934]",1830.894834799692,None,,,53,001,2023_Apr_24_1143,ExactRep-v3-final,2021.2.3,59.97051879906467,
,,,,,,,,,,,,42,0,42,0,,,,,,,,,,,,,,,,,,,,,,,,,,,,,,,,,,,,,,,,,,,,,,,,,1838.3429811000824,None,,,,,,,,,,,,,,,,,,,,,,,,,,,,,,,,,,,,,,,,,,,,,,,,,,,,,,,,,murder,173,43,sing,new,blue,1834.5995987998322,None,n,1834.5995987998322,None,"['n', 'return']","[1.9663750994950533, 3.7106702998280525]",1834.5995987998322,None,,,53,001,2023_Apr_24_1143,ExactRep-v3-final,2021.2.3,59.97051879906467,
,,,,,,,,,,,,43,0,43,0,,,,,,,,,,,,,,,,,,,,,,,,,,,,,,,,,,,,,,,,,,,,,,,,,1840.42819720041,None,,,,,,,,,,,,,,,,,,,,,,,,,,,,,,,,,,,,,,,,,,,,,,,,,,,,,,,,,rock,91,44,aloud,old,white,1838.8562588002533,None,y,1838.8562588002533,None,"['y', 'return']","[0.9737109001725912, 1.5256909998133779]",1838.8562588002533,None,,,53,001,2023_Apr_24_1143,ExactRep-v3-final,2021.2.3,59.97051879906467,
,,,,,,,,,,,,44,0,44,0,,,,,,,,,,,,,,,,,,,,,,,,,,,,,,,,,,,,,,,,,,,,,,,,,1844.198658999987,None,,,,,,,,,,,,,,,,,,,,,,,,,,,,,,,,,,,,,,,,,,,,,,,,,,,,,,,,,green,63,45,silent,old,red,1840.9406211003661,None,n,1840.9406211003661,None,"['n', 'return']","[1.9934061001986265, 3.225324099883437]",1840.9406211003661,None,,,53,001,2023_Apr_24_1143,ExactRep-v3-final,2021.2.3,59.97051879906467,
,,,,,,,,,,,,45,0,45,0,,,,,,,,,,,,,,,,,,,,,,,,,,,,,,,,,,,,,,,,,,,,,,,,,1848.0858851997182,None,,,,,,,,,,,,,,,,,,,,,,,,,,,,,,,,,,,,,,,,,,,,,,,,,,,,,,,,,house,87,46,aloud,old,white,1844.7142041996121,None,n,1844.7142041996121,None,"['n', 'return']","[2.5557808000594378, 3.3319776002317667]",1844.7142041996121,None,,,53,001,2023_Apr_24_1143,ExactRep-v3-final,2021.2.3,59.97051879906467,
,,,,,,,,,,,,46,0,46,0,,,,,,,,,,,,,,,,,,,,,,,,,,,,,,,,,,,,,,,,,,,,,,,,,1850.2381135001779,None,,,,,,,,,,,,,,,,,,,,,,,,,,,,,,,,,,,,,,,,,,,,,,,,,,,,,,,,,passion,169,47,sing,new,blue,1848.5929445000365,None,n,1848.5929445000365,None,"['n', 'return']","[1.1250841999426484, 1.613106600008905]",1848.5929445000365,None,,,53,001,2023_Apr_24_1143,ExactRep-v3-final,2021.2.3,59.97051879906467,
,,,,,,,,,,,,47,0,47,0,,,,,,,,,,,,,,,,,,,,,,,,,,,,,,,,,,,,,,,,,,,,,,,,,1852.3067586002871,None,,,,,,,,,,,,,,,,,,,,,,,,,,,,,,,,,,,,,,,,,,,,,,,,,,,,,,,,,avenue,210,48,aloud,new,white,1850.7489785002545,None,n,1850.7489785002545,None,"['n', 'return']","[0.9450418995693326, 1.5210271999239922]",1850.7489785002545,None,,,53,001,2023_Apr_24_1143,ExactRep-v3-final,2021.2.3,59.97051879906467,
,,,,,,,,,,,,48,0,48,0,,,,,,,,,,,,,,,,,,,,,,,,,,,,,,,,,,,,,,,,,,,,,,,,,1854.6926688002422,None,,,,,,,,,,,,,,,,,,,,,,,,,,,,,,,,,,,,,,,,,,,,,,,,,,,,,,,,,chance,57,49,silent,old,red,1852.8176127001643,None,n,1852.8176127001643,None,"['n', 'return']","[1.2284757001325488, 1.8284189002588391]",1852.8176127001643,None,,,53,001,2023_Apr_24_1143,ExactRep-v3-final,2021.2.3,59.97051879906467,
,,,,,,,,,,,,49,0,49,0,,,,,,,,,,,,,,,,,,,,,,,,,,,,,,,,,,,,,,,,,,,,,,,,,1857.2784168999642,None,,,,,,,,,,,,,,,,,,,,,,,,,,,,,,,,,,,,,,,,,,,,,,,,,,,,,,,,,blood,64,50,silent,old,red,1855.194304600358,None,n,1855.194304600358,None,"['n', 'return']","[1.483827999792993, 2.0357703994959593]",1855.194304600358,None,,,53,001,2023_Apr_24_1143,ExactRep-v3-final,2021.2.3,59.97051879906467,
,,,,,,,,,,,,50,0,50,0,,,,,,,,,,,,,,,,,,,,,,,,,,,,,,,,,,,,,,,,,,,,,,,,,1865.203003800474,None,,,,,,,,,,,,,,,,,,,,,,,,,,,,,,,,,,,,,,,,,,,,,,,,,,,,,,,,,method,9,51,sing,old,blue,1857.7900294000283,None,n,1857.7900294000283,None,"['n', 'y', 'y', 'return']","[1.3839899003505707, 3.1199455996975303, 6.063926599919796, 7.375960499979556]",1857.7900294000283,None,,,53,001,2023_Apr_24_1143,ExactRep-v3-final,2021.2.3,59.97051879906467,
,,,,,,,,,,,,51,0,51,0,,,,,,,,,,,,,,,,,,,,,,,,,,,,,,,,,,,,,,,,,,,,,,,,,1870.0579166999087,None,,,,,,,,,,,,,,,,,,,,,,,,,,,,,,,,,,,,,,,,,,,,,,,,,,,,,,,,,storm,80,52,aloud,old,white,1865.7131006000564,None,y,1865.7131006000564,None,"['y', 'return']","[3.3812274001538754, 4.308943999931216]",1865.7131006000564,None,,,53,001,2023_Apr_24_1143,ExactRep-v3-final,2021.2.3,59.97051879906467,
,,,,,,,,,,,,52,0,52,0,,,,,,,,,,,,,,,,,,,,,,,,,,,,,,,,,,,,,,,,,,,,,,,,,1873.4946546005085,None,,,,,,,,,,,,,,,,,,,,,,,,,,,,,,,,,,,,,,,,,,,,,,,,,,,,,,,,,tree,19,53,sing,old,blue,1870.5662602996454,None,y,1870.5662602996454,None,"['y', 'return']","[2.351871100254357, 2.8956570997834206]",1870.5662602996454,None,,,53,001,2023_Apr_24_1143,ExactRep-v3-final,2021.2.3,59.97051879906467,
,,,,,,,,,,,,53,0,53,0,,,,,,,,,,,,,,,,,,,,,,,,,,,,,,,,,,,,,,,,,,,,,,,,,1875.747971800156,None,,,,,,,,,,,,,,,,,,,,,,,,,,,,,,,,,,,,,,,,,,,,,,,,,,,,,,,,,science,152,54,silent,new,red,1874.003056799993,None,n,1874.003056799993,None,"['n', 'return']","[1.0428677005693316, 1.6990071004256606]",1874.003056799993,None,,,53,001,2023_Apr_24_1143,ExactRep-v3-final,2021.2.3,59.97051879906467,
,,,,,,,,,,,,54,0,54,0,,,,,,,,,,,,,,,,,,,,,,,,,,,,,,,,,,,,,,,,,,,,,,,,,1880.4850406004116,None,,,,,,,,,,,,,,,,,,,,,,,,,,,,,,,,,,,,,,,,,,,,,,,,,,,,,,,,,dollar,78,55,silent,old,red,1876.2629517996684,None,n,1876.2629517996684,None,"['n', 'return']","[3.3191571002826095, 4.183035800233483]",1876.2629517996684,None,,,53,001,2023_Apr_24_1143,ExactRep-v3-final,2021.2.3,59.97051879906467,
,,,,,,,,,,,,55,0,55,0,,,,,,,,,,,,,,,,,,,,,,,,,,,,,,,,,,,,,,,,,,,,,,,,,1883.3044587001204,None,,,,,,,,,,,,,,,,,,,,,,,,,,,,,,,,,,,,,,,,,,,,,,,,,,,,,,,,,money,47,56,silent,old,red,1880.9860364999622,None,n,1880.9860364999622,None,"['n', 'return']","[1.78808500058949, 2.2839704006910324]",1880.9860364999622,None,,,53,001,2023_Apr_24_1143,ExactRep-v3-final,2021.2.3,59.97051879906467,
,,,,,,,,,,,,56,0,56,0,,,,,,,,,,,,,,,,,,,,,,,,,,,,,,,,,,,,,,,,,,,,,,,,,1888.6432851999998,None,,,,,,,,,,,,,,,,,,,,,,,,,,,,,,,,,,,,,,,,,,,,,,,,,,,,,,,,,table,29,57,sing,old,blue,1883.814490900375,None,n,1883.814490900375,None,"['n', 'return']","[4.271809900179505, 4.783614799380302]",1883.814490900375,None,,,53,001,2023_Apr_24_1143,ExactRep-v3-final,2021.2.3,59.97051879906467,
,,,,,,,,,,,,57,0,57,0,,,,,,,,,,,,,,,,,,,,,,,,,,,,,,,,,,,,,,,,,,,,,,,,,1890.7286211000755,None,,,,,,,,,,,,,,,,,,,,,,,,,,,,,,,,,,,,,,,,,,,,,,,,,,,,,,,,,journal,215,58,sing,new,blue,1889.1551229003817,None,n,1889.1551229003817,None,"['n', 'return']","[0.9470301000401378, 1.530896999873221]",1889.1551229003817,None,,,53,001,2023_Apr_24_1143,ExactRep-v3-final,2021.2.3,59.97051879906467,
,,,,,,,,,,,,58,0,58,0,,,,,,,,,,,,,,,,,,,,,,,,,,,,,,,,,,,,,,,,,,,,,,,,,1892.9975618999451,None,,,,,,,,,,,,,,,,,,,,,,,,,,,,,,,,,,,,,,,,,,,,,,,,,,,,,,,,,shadow,108,59,aloud,old,white,1891.2457544002682,None,y,1891.2457544002682,None,"['y', 'return']","[1.0723341004922986, 1.712296299636364]",1891.2457544002682,None,,,53,001,2023_Apr_24_1143,ExactRep-v3-final,2021.2.3,59.97051879906467,
,,,,,,,,,,,,59,0,59,0,,,,,,,,,,,,,,,,,,,,,,,,,,,,,,,,,,,,,,,,,,,,,,,,,1895.0995771996677,None,,,,,,,,,,,,,,,,,,,,,,,,,,,,,,,,,,,,,,,,,,,,,,,,,,,,,,,,,mother,83,60,aloud,old,white,1893.501327900216,None,y,1893.501327900216,None,"['y', 'return']","[1.072902100160718, 1.5527598997578025]",1893.501327900216,None,,,53,001,2023_Apr_24_1143,ExactRep-v3-final,2021.2.3,59.97051879906467,
,,,,,,,,,,,,60,0,60,0,,,,,,,,,,,,,,,,,,,,,,,,,,,,,,,,,,,,,,,,,,,,,,,,,1898.636450599879,None,,,,,,,,,,,,,,,,,,,,,,,,,,,,,,,,,,,,,,,,,,,,,,,,,,,,,,,,,shore,168,61,aloud,new,white,1895.6030080998316,None,n,1895.6030080998316,None,"['n', 'return']","[2.4669716991484165, 2.9870262993499637]",1895.6030080998316,None,,,53,001,2023_Apr_24_1143,ExactRep-v3-final,2021.2.3,59.97051879906467,
,,,,,,,,,,,,61,0,61,0,,,,,,,,,,,,,,,,,,,,,,,,,,,,,,,,,,,,,,,,,,,,,,,,,1900.6552889999002,None,,,,,,,,,,,,,,,,,,,,,,,,,,,,,,,,,,,,,,,,,,,,,,,,,,,,,,,,,trouble,52,62,silent,old,red,1899.1450388999656,None,n,1899.1450388999656,None,"['n', 'return']","[0.9489377001300454, 1.4771572006866336]",1899.1450388999656,None,,,53,001,2023_Apr_24_1143,ExactRep-v3-final,2021.2.3,59.97051879906467,
,,,,,,,,,,,,62,0,62,0,,,,,,,,,,,,,,,,,,,,,,,,,,,,,,,,,,,,,,,,,,,,,,,,,1903.1076180003583,None,,,,,,,,,,,,,,,,,,,,,,,,,,,,,,,,,,,,,,,,,,,,,,,,,,,,,,,,,shock,106,63,aloud,old,white,1901.1687350999564,None,n,1901.1687350999564,None,"['n', 'return']","[1.2695332001894712, 1.9013839000836015]",1901.1687350999564,None,,,53,001,2023_Apr_24_1143,ExactRep-v3-final,2021.2.3,59.97051879906467,
,,,,,,,,,,,,63,0,63,0,,,,,,,,,,,,,,,,,,,,,,,,,,,,,,,,,,,,,,,,,,,,,,,,,1905.192999199964,None,,,,,,,,,,,,,,,,,,,,,,,,,,,,,,,,,,,,,,,,,,,,,,,,,,,,,,,,,custom,50,64,silent,old,red,1903.6148803997785,None,n,1903.6148803997785,None,"['n', 'return']","[0.8472469002008438, 1.5351189002394676]",1903.6148803997785,None,,,53,001,2023_Apr_24_1143,ExactRep-v3-final,2021.2.3,59.97051879906467,
,,,,,,,,,,,,64,0,64,0,,,,,,,,,,,,,,,,,,,,,,,,,,,,,,,,,,,,,,,,,,,,,,,,,1907.1618804000318,None,,,,,,,,,,,,,,,,,,,,,,,,,,,,,,,,,,,,,,,,,,,,,,,,,,,,,,,,,boy,32,65,sing,old,blue,1905.7174148997292,None,y,1905.7174148997292,None,"['y', 'return']","[0.9046978997066617, 1.4005737993866205]",1905.7174148997292,None,,,53,001,2023_Apr_24_1143,ExactRep-v3-final,2021.2.3,59.97051879906467,
,,,,,,,,,,,,65,0,65,0,,,,,,,,,,,,,,,,,,,,,,,,,,,,,,,,,,,,,,,,,,,,,,,,,1909.3638559998944,None,,,,,,,,,,,,,,,,,,,,,,,,,,,,,,,,,,,,,,,,,,,,,,,,,,,,,,,,,form,181,66,sing,new,blue,1907.6733697997406,None,n,1907.6733697997406,None,"['n', 'return']","[1.0366804003715515, 1.6448261998593807]",1907.6733697997406,None,,,53,001,2023_Apr_24_1143,ExactRep-v3-final,2021.2.3,59.97051879906467,
,,,,,,,,,,,,66,0,66,0,,,,,,,,,,,,,,,,,,,,,,,,,,,,,,,,,,,,,,,,,,,,,,,,,1911.749731800519,None,,,,,,,,,,,,,,,,,,,,,,,,,,,,,,,,,,,,,,,,,,,,,,,,,,,,,,,,,body,5,67,sing,old,blue,1909.8740034000948,None,y,1909.8740034000948,None,"['y', 'return']","[1.0041805999353528, 1.828064899891615]",1909.8740034000948,None,,,53,001,2023_Apr_24_1143,ExactRep-v3-final,2021.2.3,59.97051879906467,
,,,,,,,,,,,,67,0,67,0,,,,,,,,,,,,,,,,,,,,,,,,,,,,,,,,,,,,,,,,,,,,,,,,,1915.7368758004159,None,,,,,,,,,,,,,,,,,,,,,,,,,,,,,,,,,,,,,,,,,,,,,,,,,,,,,,,,,child,199,68,sing,new,blue,1912.259745599702,None,n,1912.259745599702,None,"['n', 'return']","[2.650346400216222, 3.434279600158334]",1912.259745599702,None,,,53,001,2023_Apr_24_1143,ExactRep-v3-final,2021.2.3,59.97051879906467,
,,,,,,,,,,,,68,0,68,0,,,,,,,,,,,,,,,,,,,,,,,,,,,,,,,,,,,,,,,,,,,,,,,,,1917.8558274004608,None,,,,,,,,,,,,,,,,,,,,,,,,,,,,,,,,,,,,,,,,,,,,,,,,,,,,,,,,,anger,236,69,aloud,new,white,1916.2466743001714,None,n,1916.2466743001714,None,"['n', 'return']","[0.8553546005859971, 1.567366000264883]",1916.2466743001714,None,,,53,001,2023_Apr_24_1143,ExactRep-v3-final,2021.2.3,59.97051879906467,
,,,,,,,,,,,,69,0,69,0,,,,,,,,,,,,,,,,,,,,,,,,,,,,,,,,,,,,,,,,,,,,,,,,,1920.6583489999175,None,,,,,,,,,,,,,,,,,,,,,,,,,,,,,,,,,,,,,,,,,,,,,,,,,,,,,,,,,picture,185,70,sing,new,blue,1918.361421099864,None,n,1918.361421099864,None,"['n', 'return']","[1.6685536000877619, 2.252528600394726]",1918.361421099864,None,,,53,001,2023_Apr_24_1143,ExactRep-v3-final,2021.2.3,59.97051879906467,
,,,,,,,,,,,,70,0,70,0,,,,,,,,,,,,,,,,,,,,,,,,,,,,,,,,,,,,,,,,,,,,,,,,,1922.8273759000003,None,,,,,,,,,,,,,,,,,,,,,,,,,,,,,,,,,,,,,,,,,,,,,,,,,,,,,,,,,palace,15,71,sing,old,blue,1921.1685193004087,None,y,1921.1685193004087,None,"['y', 'return']","[1.1495642997324467, 1.6215198999270797]",1921.1685193004087,None,,,53,001,2023_Apr_24_1143,ExactRep-v3-final,2021.2.3,59.97051879906467,
,,,,,,,,,,,,71,0,71,0,,,,,,,,,,,,,,,,,,,,,,,,,,,,,,,,,,,,,,,,,,,,,,,,,1925.0462546003982,None,,,,,,,,,,,,,,,,,,,,,,,,,,,,,,,,,,,,,,,,,,,,,,,,,,,,,,,,,sea,196,72,aloud,new,white,1923.3409030996263,None,n,1923.3409030996263,None,"['n', 'return']","[0.9451619992032647, 1.6651397999376059]",1923.3409030996263,None,,,53,001,2023_Apr_24_1143,ExactRep-v3-final,2021.2.3,59.97051879906467,
,,,,,,,,,,,,72,0,72,0,,,,,,,,,,,,,,,,,,,,,,,,,,,,,,,,,,,,,,,,,,,,,,,,,1927.5821519000456,None,,,,,,,,,,,,,,,,,,,,,,,,,,,,,,,,,,,,,,,,,,,,,,,,,,,,,,,,,board,65,73,silent,old,red,1925.5584575003013,None,n,1925.5584575003013,None,"['n', 'return']","[1.391665500588715, 1.9917346006259322]",1925.5584575003013,None,,,53,001,2023_Apr_24_1143,ExactRep-v3-final,2021.2.3,59.97051879906467,
,,,,,,,,,,,,73,0,73,0,,,,,,,,,,,,,,,,,,,,,,,,,,,,,,,,,,,,,,,,,,,,,,,,,1932.4535873997957,None,,,,,,,,,,,,,,,,,,,,,,,,,,,,,,,,,,,,,,,,,,,,,,,,,,,,,,,,,paper,172,74,aloud,new,white,1928.082739399746,None,y,1928.082739399746,None,"['y', 'return']","[3.643513400107622, 4.3233145996928215]",1928.082739399746,None,,,53,001,2023_Apr_24_1143,ExactRep-v3-final,2021.2.3,59.97051879906467,
,,,,,,,,,,,,74,0,74,0,,,,,,,,,,,,,,,,,,,,,,,,,,,,,,,,,,,,,,,,,,,,,,,,,1935.5235545001924,None,,,,,,,,,,,,,,,,,,,,,,,,,,,,,,,,,,,,,,,,,,,,,,,,,,,,,,,,,arm,102,75,aloud,old,white,1932.958186400123,None,n,1932.958186400123,None,"['n', 'return']","[1.896202800795436, 2.5199448000639677]",1932.958186400123,None,,,53,001,2023_Apr_24_1143,ExactRep-v3-final,2021.2.3,59.97051879906467,
,,,,,,,,,,,,75,0,75,0,,,,,,,,,,,,,,,,,,,,,,,,,,,,,,,,,,,,,,,,,,,,,,,,,1937.7321624001488,None,,,,,,,,,,,,,,,,,,,,,,,,,,,,,,,,,,,,,,,,,,,,,,,,,,,,,,,,,soil,81,76,aloud,old,white,1936.0322997998446,None,y,1936.0322997998446,None,"['y', 'return']","[1.1337660998106003, 1.6458099000155926]",1936.0322997998446,None,,,53,001,2023_Apr_24_1143,ExactRep-v3-final,2021.2.3,59.97051879906467,
,,,,,,,,,,,,76,0,76,0,,,,,,,,,,,,,,,,,,,,,,,,,,,,,,,,,,,,,,,,,,,,,,,,,1940.2780919997022,None,,,,,,,,,,,,,,,,,,,,,,,,,,,,,,,,,,,,,,,,,,,,,,,,,,,,,,,,,answer,139,77,silent,new,red,1938.243945499882,None,n,1938.243945499882,None,"['n', 'return']","[1.2662265999242663, 2.0021423995494843]",1938.243945499882,None,,,53,001,2023_Apr_24_1143,ExactRep-v3-final,2021.2.3,59.97051879906467,
,,,,,,,,,,,,77,0,77,0,,,,,,,,,,,,,,,,,,,,,,,,,,,,,,,,,,,,,,,,,,,,,,,,,1942.2967570004985,None,,,,,,,,,,,,,,,,,,,,,,,,,,,,,,,,,,,,,,,,,,,,,,,,,,,,,,,,,city,151,78,silent,new,red,1940.7889576004818,None,n,1940.7889576004818,None,"['n', 'return']","[0.8972877999767661, 1.4650790998712182]",1940.7889576004818,None,,,53,001,2023_Apr_24_1143,ExactRep-v3-final,2021.2.3,59.97051879906467,
,,,,,,,,,,,,78,0,78,0,,,,,,,,,,,,,,,,,,,,,,,,,,,,,,,,,,,,,,,,,,,,,,,,,1945.6501261005178,None,,,,,,,,,,,,,,,,,,,,,,,,,,,,,,,,,,,,,,,,,,,,,,,,,,,,,,,,,clock,44,79,silent,old,red,1942.810080099851,None,y,1942.810080099851,None,"['y', 'return']","[1.915990199893713, 2.795957500115037]",1942.810080099851,None,,,53,001,2023_Apr_24_1143,ExactRep-v3-final,2021.2.3,59.97051879906467,
,,,,,,,,,,,,79,0,79,0,,,,,,,,,,,,,,,,,,,,,,,,,,,,,,,,,,,,,,,,,,,,,,,,,1948.0859508998692,None,,,,,,,,,,,,,,,,,,,,,,,,,,,,,,,,,,,,,,,,,,,,,,,,,,,,,,,,,toy,228,80,aloud,new,white,1946.1602383004501,None,n,1946.1602383004501,None,"['n', 'return']","[1.1422447003424168, 1.8777665002271533]",1946.1602383004501,None,,,53,001,2023_Apr_24_1143,ExactRep-v3-final,2021.2.3,59.97051879906467,
,,,,,,,,,,,,80,0,80,0,,,,,,,,,,,,,,,,,,,,,,,,,,,,,,,,,,,,,,,,,,,,,,,,,1950.2047126004472,None,,,,,,,,,,,,,,,,,,,,,,,,,,,,,,,,,,,,,,,,,,,,,,,,,,,,,,,,,product,67,81,silent,old,red,1948.5926895001903,None,n,1948.5926895001903,None,"['n', 'return']","[0.9253759002313018, 1.5653900997713208]",1948.5926895001903,None,,,53,001,2023_Apr_24_1143,ExactRep-v3-final,2021.2.3,59.97051879906467,
,,,,,,,,,,,,81,0,81,0,,,,,,,,,,,,,,,,,,,,,,,,,,,,,,,,,,,,,,,,,,,,,,,,,1952.5236630998552,None,,,,,,,,,,,,,,,,,,,,,,,,,,,,,,,,,,,,,,,,,,,,,,,,,,,,,,,,,insect,118,82,aloud,old,white,1950.7201644005254,None,y,1950.7201644005254,None,"['y', 'return']","[1.2458762004971504, 1.7578903008252382]",1950.7201644005254,None,,,53,001,2023_Apr_24_1143,ExactRep-v3-final,2021.2.3,59.97051879906467,
,,,,,,,,,,,,82,0,82,0,,,,,,,,,,,,,,,,,,,,,,,,,,,,,,,,,,,,,,,,,,,,,,,,,1954.9762692004442,None,,,,,,,,,,,,,,,,,,,,,,,,,,,,,,,,,,,,,,,,,,,,,,,,,,,,,,,,,coin,84,83,aloud,old,white,1953.0353193003684,None,y,1953.0353193003684,None,"['y', 'return']","[1.4027968002483249, 1.9067477993667126]",1953.0353193003684,None,,,53,001,2023_Apr_24_1143,ExactRep-v3-final,2021.2.3,59.97051879906467,
,,,,,,,,,,,,83,0,83,0,,,,,,,,,,,,,,,,,,,,,,,,,,,,,,,,,,,,,,,,,,,,,,,,,1959.6307447999716,None,,,,,,,,,,,,,,,,,,,,,,,,,,,,,,,,,,,,,,,,,,,,,,,,,,,,,,,,,star,27,84,sing,old,blue,1955.4832883002236,None,n,1955.4832883002236,None,"['n', 'return']","[0.9548145001754165, 4.11477730050683]",1955.4832883002236,None,,,53,001,2023_Apr_24_1143,ExactRep-v3-final,2021.2.3,59.97051879906467,
,,,,,,,,,,,,84,0,84,0,,,,,,,,,,,,,,,,,,,,,,,,,,,,,,,,,,,,,,,,,,,,,,,,,1964.619153900072,None,,,,,,,,,,,,,,,,,,,,,,,,,,,,,,,,,,,,,,,,,,,,,,,,,,,,,,,,,chief,98,85,aloud,old,white,1960.1420782003552,None,n,1960.1420782003552,None,"['n', 'return']","[1.7762609999626875, 4.4400690998882055]",1960.1420782003552,None,,,53,001,2023_Apr_24_1143,ExactRep-v3-final,2021.2.3,59.97051879906467,
,,,,,,,,,,,,85,0,85,0,,,,,,,,,,,,,,,,,,,,,,,,,,,,,,,,,,,,,,,,,,,,,,,,,1967.0550221996382,None,,,,,,,,,,,,,,,,,,,,,,,,,,,,,,,,,,,,,,,,,,,,,,,,,,,,,,,,,market,235,86,sing,new,blue,1965.1330589000136,None,n,1965.1330589000136,None,"['n', 'return']","[1.2890914995223284, 1.8810307998210192]",1965.1330589000136,None,,,53,001,2023_Apr_24_1143,ExactRep-v3-final,2021.2.3,59.97051879906467,
,,,,,,,,,,,,86,0,86,0,,,,,,,,,,,,,,,,,,,,,,,,,,,,,,,,,,,,,,,,,,,,,,,,,1971.9264778001234,None,,,,,,,,,,,,,,,,,,,,,,,,,,,,,,,,,,,,,,,,,,,,,,,,,,,,,,,,,justice,144,87,silent,new,red,1967.5655675996095,None,n,1967.5655675996095,None,"['n', 'return']","[3.8647541999816895, 4.328558799810708]",1967.5655675996095,None,,,53,001,2023_Apr_24_1143,ExactRep-v3-final,2021.2.3,59.97051879906467,
,,,,,,,,,,,,87,0,87,0,,,,,,,,,,,,,,,,,,,,,,,,,,,,,,,,,,,,,,,,,,,,,,,,,1973.8617778001353,None,,,,,,,,,,,,,,,,,,,,,,,,,,,,,,,,,,,,,,,,,,,,,,,,,,,,,,,,,ability,239,88,sing,new,blue,1972.441552599892,None,n,1972.441552599892,None,"['n', 'return']","[0.9084834000095725, 1.3806190006434917]",1972.441552599892,None,,,53,001,2023_Apr_24_1143,ExactRep-v3-final,2021.2.3,59.97051879906467,
,,,,,,,,,,,,88,0,88,0,,,,,,,,,,,,,,,,,,,,,,,,,,,,,,,,,,,,,,,,,,,,,,,,,1976.2475174004212,None,,,,,,,,,,,,,,,,,,,,,,,,,,,,,,,,,,,,,,,,,,,,,,,,,,,,,,,,,love,147,89,silent,new,red,1974.367863100022,None,n,1974.367863100022,None,"['n', 'return']","[0.7984378999099135, 1.8463839003816247]",1974.367863100022,None,,,53,001,2023_Apr_24_1143,ExactRep-v3-final,2021.2.3,59.97051879906467,
,,,,,,,,,,,,89,0,89,0,,,,,,,,,,,,,,,,,,,,,,,,,,,,,,,,,,,,,,,,,,,,,,,,,1979.534157300368,None,,,,,,,,,,,,,,,,,,,,,,,,,,,,,,,,,,,,,,,,,,,,,,,,,,,,,,,,,health,117,90,aloud,old,white,1976.7590584000573,None,n,1976.7590584000573,None,"['n', 'return']","[2.1670284997671843, 2.7431564005091786]",1976.7590584000573,None,,,53,001,2023_Apr_24_1143,ExactRep-v3-final,2021.2.3,59.97051879906467,
,,,,,,,,,,,,90,0,90,0,,,,,,,,,,,,,,,,,,,,,,,,,,,,,,,,,,,,,,,,,,,,,,,,,1983.5213310001418,None,,,,,,,,,,,,,,,,,,,,,,,,,,,,,,,,,,,,,,,,,,,,,,,,,,,,,,,,,pride,56,91,silent,old,red,1980.0448797997087,None,y,1980.0448797997087,None,"['y', 'return']","[2.8653947999700904, 3.441351200453937]",1980.0448797997087,None,,,53,001,2023_Apr_24_1143,ExactRep-v3-final,2021.2.3,59.97051879906467,
,,,,,,,,,,,,91,0,91,0,,,,,,,,,,,,,,,,,,,,,,,,,,,,,,,,,,,,,,,,,,,,,,,,,1985.6569538004696,None,,,,,,,,,,,,,,,,,,,,,,,,,,,,,,,,,,,,,,,,,,,,,,,,,,,,,,,,,teacher,110,92,aloud,old,white,1984.032700699754,None,n,1984.032700699754,None,"['n', 'return']","[1.0615704003721476, 1.589372499845922]",1984.032700699754,None,,,53,001,2023_Apr_24_1143,ExactRep-v3-final,2021.2.3,59.97051879906467,
,,,,,,,,,,,,92,0,92,0,,,,,,,,,,,,,,,,,,,,,,,,,,,,,,,,,,,,,,,,,,,,,,,,,1987.9091579001397,None,,,,,,,,,,,,,,,,,,,,,,,,,,,,,,,,,,,,,,,,,,,,,,,,,,,,,,,,,meadow,170,93,aloud,new,white,1986.1651523001492,None,y,1986.1651523001492,None,"['y', 'return']","[1.1212662002071738, 1.7052446994930506]",1986.1651523001492,None,,,53,001,2023_Apr_24_1143,ExactRep-v3-final,2021.2.3,59.97051879906467,
,,,,,,,,,,,,93,0,93,0,,,,,,,,,,,,,,,,,,,,,,,,,,,,,,,,,,,,,,,,,,,,,,,,,1991.3291584001854,None,,,,,,,,,,,,,,,,,,,,,,,,,,,,,,,,,,,,,,,,,,,,,,,,,,,,,,,,,brain,107,94,aloud,old,white,1988.4209532998502,None,n,1988.4209532998502,None,"['n', 'return']","[2.36118929926306, 2.8731721993535757]",1988.4209532998502,None,,,53,001,2023_Apr_24_1143,ExactRep-v3-final,2021.2.3,59.97051879906467,
,,,,,,,,,,,,94,0,94,0,,,,,,,,,,,,,,,,,,,,,,,,,,,,,,,,,,,,,,,,,,,,,,,,,1993.2811727998778,None,,,,,,,,,,,,,,,,,,,,,,,,,,,,,,,,,,,,,,,,,,,,,,,,,,,,,,,,,library,206,95,aloud,new,white,1991.8405266003683,None,n,1991.8405266003683,None,"['n', 'return']","[0.9178887000307441, 1.3976393006742]",1991.8405266003683,None,,,53,001,2023_Apr_24_1143,ExactRep-v3-final,2021.2.3,59.97051879906467,
,,,,,,,,,,,,95,0,95,0,,,,,,,,,,,,,,,,,,,,,,,,,,,,,,,,,,,,,,,,,,,,,,,,,1995.3833352001384,None,,,,,,,,,,,,,,,,,,,,,,,,,,,,,,,,,,,,,,,,,,,,,,,,,,,,,,,,,window,17,96,sing,old,blue,1993.7901376998052,None,y,1993.7901376998052,None,"['y', 'return']","[1.1362338000908494, 1.5519845997914672]",1993.7901376998052,None,,,53,001,2023_Apr_24_1143,ExactRep-v3-final,2021.2.3,59.97051879906467,
,,,,,,,,,,,,96,0,96,0,,,,,,,,,,,,,,,,,,,,,,,,,,,,,,,,,,,,,,,,,,,,,,,,,1997.1349796997383,None,,,,,,,,,,,,,,,,,,,,,,,,,,,,,,,,,,,,,,,,,,,,,,,,,,,,,,,,,advice,201,97,sing,new,blue,1995.8913628002629,None,n,1995.8913628002629,None,"['n', 'return']","[0.8427716000005603, 1.202790499664843]",1995.8913628002629,None,,,53,001,2023_Apr_24_1143,ExactRep-v3-final,2021.2.3,59.97051879906467,
,,,,,,,,,,,,97,0,97,0,,,,,,,,,,,,,,,,,,,,,,,,,,,,,,,,,,,,,,,,,,,,,,,,,1999.3539810003713,None,,,,,,,,,,,,,,,,,,,,,,,,,,,,,,,,,,,,,,,,,,,,,,,,,,,,,,,,,tool,214,98,aloud,new,white,1997.6532893003896,None,n,1997.6532893003896,None,"['n', 'return']","[1.0888704992830753, 1.6568799996748567]",1997.6532893003896,None,,,53,001,2023_Apr_24_1143,ExactRep-v3-final,2021.2.3,59.97051879906467,
,,,,,,,,,,,,98,0,98,0,,,,,,,,,,,,,,,,,,,,,,,,,,,,,,,,,,,,,,,,,,,,,,,,,2001.6061517000198,None,,,,,,,,,,,,,,,,,,,,,,,,,,,,,,,,,,,,,,,,,,,,,,,,,,,,,,,,,hall,230,99,aloud,new,white,1999.8647344997153,None,n,1999.8647344997153,None,"['n', 'return']","[0.8774747997522354, 1.6935700001195073]",1999.8647344997153,None,,,53,001,2023_Apr_24_1143,ExactRep-v3-final,2021.2.3,59.97051879906467,
,,,,,,,,,,,,99,0,99,0,,,,,,,,,,,,,,,,,,,,,,,,,,,,,,,,,,,,,,,,,,,,,,,,,2003.6080788001418,None,,,,,,,,,,,,,,,,,,,,,,,,,,,,,,,,,,,,,,,,,,,,,,,,,,,,,,,,,blossom,141,100,silent,new,red,2002.1247370000929,None,n,2002.1247370000929,None,"['n', 'return']","[0.9295087000355124, 1.4414055002853274]",2002.1247370000929,None,,,53,001,2023_Apr_24_1143,ExactRep-v3-final,2021.2.3,59.97051879906467,
,,,,,,,,,,,,100,0,100,0,,,,,,,,,,,,,,,,,,,,,,,,,,,,,,,,,,,,,,,,,,,,,,,,,2005.4933214001358,None,,,,,,,,,,,,,,,,,,,,,,,,,,,,,,,,,,,,,,,,,,,,,,,,,,,,,,,,,meeting,154,101,silent,new,red,2004.11811569985,None,n,2004.11811569985,None,"['n', 'return']","[0.8243616996333003, 1.3360839001834393]",2004.11811569985,None,,,53,001,2023_Apr_24_1143,ExactRep-v3-final,2021.2.3,59.97051879906467,
,,,,,,,,,,,,101,0,101,0,,,,,,,,,,,,,,,,,,,,,,,,,,,,,,,,,,,,,,,,,,,,,,,,,2009.6308506997302,None,,,,,,,,,,,,,,,,,,,,,,,,,,,,,,,,,,,,,,,,,,,,,,,,,,,,,,,,,bottle,95,102,aloud,old,white,2006.0002260999754,None,n,2006.0002260999754,None,"['n', 'return']","[2.4619383001700044, 3.5900055998936296]",2006.0002260999754,None,,,53,001,2023_Apr_24_1143,ExactRep-v3-final,2021.2.3,59.97051879906467,
,,,,,,,,,,,,102,0,102,0,,,,,,,,,,,,,,,,,,,,,,,,,,,,,,,,,,,,,,,,,,,,,,,,,2012.016445999965,None,,,,,,,,,,,,,,,,,,,,,,,,,,,,,,,,,,,,,,,,,,,,,,,,,,,,,,,,,coffee,92,103,aloud,old,white,2010.144829900004,None,n,2010.144829900004,None,"['n', 'return']","[1.285296999849379, 1.8372718002647161]",2010.144829900004,None,,,53,001,2023_Apr_24_1143,ExactRep-v3-final,2021.2.3,59.97051879906467,
,,,,,,,,,,,,103,0,103,0,,,,,,,,,,,,,,,,,,,,,,,,,,,,,,,,,,,,,,,,,,,,,,,,,2013.9350811997429,None,,,,,,,,,,,,,,,,,,,,,,,,,,,,,,,,,,,,,,,,,,,,,,,,,,,,,,,,,cottage,190,104,aloud,new,white,2012.5268994998187,None,n,2012.5268994998187,None,"['n', 'return']","[0.8552546994760633, 1.3752737995237112]",2012.5268994998187,None,,,53,001,2023_Apr_24_1143,ExactRep-v3-final,2021.2.3,59.97051879906467,
,,,,,,,,,,,,104,0,104,0,,,,,,,,,,,,,,,,,,,,,,,,,,,,,,,,,,,,,,,,,,,,,,,,,2016.1709050005302,None,,,,,,,,,,,,,,,,,,,,,,,,,,,,,,,,,,,,,,,,,,,,,,,,,,,,,,,,,woman,28,105,sing,old,blue,2014.4450486004353,None,y,2014.4450486004353,None,"['y', 'return']","[1.1373878996819258, 1.6891205003485084]",2014.4450486004353,None,,,53,001,2023_Apr_24_1143,ExactRep-v3-final,2021.2.3,59.97051879906467,
,,,,,,,,,,,,105,0,105,0,,,,,,,,,,,,,,,,,,,,,,,,,,,,,,,,,,,,,,,,,,,,,,,,,2018.255999200046,None,,,,,,,,,,,,,,,,,,,,,,,,,,,,,,,,,,,,,,,,,,,,,,,,,,,,,,,,,heaven,16,106,sing,old,blue,2016.6821151999757,None,y,2016.6821151999757,None,"['y', 'return']","[0.9721013000234962, 1.5400044992566109]",2016.6821151999757,None,,,53,001,2023_Apr_24_1143,ExactRep-v3-final,2021.2.3,59.97051879906467,
,,,,,,,,,,,,106,0,106,0,,,,,,,,,,,,,,,,,,,,,,,,,,,,,,,,,,,,,,,,,,,,,,,,,2021.9264417998493,None,,,,,,,,,,,,,,,,,,,,,,,,,,,,,,,,,,,,,,,,,,,,,,,,,,,,,,,,,death,73,107,silent,old,red,2018.7679697005078,None,y,2018.7679697005078,None,"['y', 'return']","[2.3183116000145674, 3.126260899938643]",2018.7679697005078,None,,,53,001,2023_Apr_24_1143,ExactRep-v3-final,2021.2.3,59.97051879906467,
,,,,,,,,,,,,107,0,107,0,,,,,,,,,,,,,,,,,,,,,,,,,,,,,,,,,,,,,,,,,,,,,,,,,2023.9951985003427,None,,,,,,,,,,,,,,,,,,,,,,,,,,,,,,,,,,,,,,,,,,,,,,,,,,,,,,,,,sky,220,108,aloud,new,white,2022.4310258999467,None,n,2022.4310258999467,None,"['n', 'return']","[1.0473479004576802, 1.5192854003980756]",2022.4310258999467,None,,,53,001,2023_Apr_24_1143,ExactRep-v3-final,2021.2.3,59.97051879906467,
,,,,,,,,,,,,108,0,108,0,,,,,,,,,,,,,,,,,,,,,,,,,,,,,,,,,,,,,,,,,,,,,,,,,2025.897032700479,None,,,,,,,,,,,,,,,,,,,,,,,,,,,,,,,,,,,,,,,,,,,,,,,,,,,,,,,,,wine,131,109,silent,new,red,2024.5024992004037,None,n,2024.5024992004037,None,"['n', 'return']","[0.759897300042212, 1.3596411002799869]",2024.5024992004037,None,,,53,001,2023_Apr_24_1143,ExactRep-v3-final,2021.2.3,59.97051879906467,
,,,,,,,,,,,,109,0,109,0,,,,,,,,,,,,,,,,,,,,,,,,,,,,,,,,,,,,,,,,,,,,,,,,,2027.8826404996216,None,,,,,,,,,,,,,,,,,,,,,,,,,,,,,,,,,,,,,,,,,,,,,,,,,,,,,,,,,lake,62,110,silent,old,red,2026.4079387001693,None,n,2026.4079387001693,None,"['n', 'return']","[0.8062927005812526, 1.430179400369525]",2026.4079387001693,None,,,53,001,2023_Apr_24_1143,ExactRep-v3-final,2021.2.3,59.97051879906467,
,,,,,,,,,,,,110,0,110,0,,,,,,,,,,,,,,,,,,,,,,,,,,,,,,,,,,,,,,,,,,,,,,,,,2030.6017121002078,None,,,,,,,,,,,,,,,,,,,,,,,,,,,,,,,,,,,,,,,,,,,,,,,,,,,,,,,,,string,115,111,aloud,old,white,2028.3949116002768,None,n,2028.3949116002768,None,"['n', 'return']","[1.6032544998452067, 2.1714457999914885]",2028.3949116002768,None,,,53,001,2023_Apr_24_1143,ExactRep-v3-final,2021.2.3,59.97051879906467,
,,,,,,,,,,,,111,0,111,0,,,,,,,,,,,,,,,,,,,,,,,,,,,,,,,,,,,,,,,,,,,,,,,,,2034.8059422001243,None,,,,,,,,,,,,,,,,,,,,,,,,,,,,,,,,,,,,,,,,,,,,,,,,,,,,,,,,,car,21,112,sing,old,blue,2031.1117150001228,None,y,2031.1117150001228,None,"['y', 'return']","[3.1344192000105977, 3.6464419001713395]",2031.1117150001228,None,,,53,001,2023_Apr_24_1143,ExactRep-v3-final,2021.2.3,59.97051879906467,
,,,,,,,,,,,,112,0,112,0,,,,,,,,,,,,,,,,,,,,,,,,,,,,,,,,,,,,,,,,,,,,,,,,,2036.841317200102,None,,,,,,,,,,,,,,,,,,,,,,,,,,,,,,,,,,,,,,,,,,,,,,,,,,,,,,,,,pipe,209,113,sing,new,blue,2035.3159533003345,None,n,2035.3159533003345,None,"['n', 'return']","[0.970245199277997, 1.482324599288404]",2035.3159533003345,None,,,53,001,2023_Apr_24_1143,ExactRep-v3-final,2021.2.3,59.97051879906467,
,,,,,,,,,,,,113,0,113,0,,,,,,,,,,,,,,,,,,,,,,,,,,,,,,,,,,,,,,,,,,,,,,,,,2039.410728700459,None,,,,,,,,,,,,,,,,,,,,,,,,,,,,,,,,,,,,,,,,,,,,,,,,,,,,,,,,,shame,138,114,silent,new,red,2037.353662200272,None,y,2037.353662200272,None,"['y', 'return']","[1.5325038991868496, 2.020517999306321]",2037.353662200272,None,,,53,001,2023_Apr_24_1143,ExactRep-v3-final,2021.2.3,59.97051879906467,
,,,,,,,,,,,,114,0,114,0,,,,,,,,,,,,,,,,,,,,,,,,,,,,,,,,,,,,,,,,,,,,,,,,,2041.6294036004692,None,,,,,,,,,,,,,,,,,,,,,,,,,,,,,,,,,,,,,,,,,,,,,,,,,,,,,,,,,cotton,39,115,silent,old,red,2039.9207082996145,None,n,2039.9207082996145,None,"['n', 'return']","[1.181399599649012, 1.66153259947896]",2039.9207082996145,None,,,53,001,2023_Apr_24_1143,ExactRep-v3-final,2021.2.3,59.97051879906467,
,,,,,,,,,,,,115,0,115,0,,,,,,,,,,,,,,,,,,,,,,,,,,,,,,,,,,,,,,,,,,,,,,,,,2043.9986410997808,None,,,,,,,,,,,,,,,,,,,,,,,,,,,,,,,,,,,,,,,,,,,,,,,,,,,,,,,,,plant,69,116,silent,old,red,2042.1451781000942,None,n,2042.1451781000942,None,"['n', 'return']","[0.956997400149703, 1.8130133002996445]",2042.1451781000942,None,,,53,001,2023_Apr_24_1143,ExactRep-v3-final,2021.2.3,59.97051879906467,
,,,,,,,,,,,,116,0,116,0,,,,,,,,,,,,,,,,,,,,,,,,,,,,,,,,,,,,,,,,,,,,,,,,,2047.1349667003378,None,,,,,,,,,,,,,,,,,,,,,,,,,,,,,,,,,,,,,,,,,,,,,,,,,,,,,,,,,devil,85,117,aloud,old,white,2044.5062210997567,None,y,2044.5062210997567,None,"['y', 'return']","[1.9480123994871974, 2.5879841996356845]",2044.5062210997567,None,,,53,001,2023_Apr_24_1143,ExactRep-v3-final,2021.2.3,59.97051879906467,
,,,,,,,,,,,,117,0,117,0,,,,,,,,,,,,,,,,,,,,,,,,,,,,,,,,,,,,,,,,,,,,,,,,,2049.3037500996143,None,,,,,,,,,,,,,,,,,,,,,,,,,,,,,,,,,,,,,,,,,,,,,,,,,,,,,,,,,butter,123,118,silent,new,red,2047.644437899813,None,n,2047.644437899813,None,"['n', 'return']","[1.097761799581349, 1.6177794998511672]",2047.644437899813,None,,,53,001,2023_Apr_24_1143,ExactRep-v3-final,2021.2.3,59.97051879906467,
,,,,,,,,,,,,118,0,118,0,,,,,,,,,,,,,,,,,,,,,,,,,,,,,,,,,,,,,,,,,,,,,,,,,2051.8564119003713,None,,,,,,,,,,,,,,,,,,,,,,,,,,,,,,,,,,,,,,,,,,,,,,,,,,,,,,,,,cat,54,119,silent,old,red,2049.817126300186,None,y,2049.817126300186,None,"['y', 'return']","[1.3730733003467321, 2.0050205001607537]",2049.817126300186,None,,,53,001,2023_Apr_24_1143,ExactRep-v3-final,2021.2.3,59.97051879906467,
,,,,,,,,,,,,119,0,119,0,,,,,,,,,,,,,,,,,,,,,,,,,,,,,,,,,,,,,,,,,,,,,,,,,2054.0918878996745,None,,,,,,,,,,,,,,,,,,,,,,,,,,,,,,,,,,,,,,,,,,,,,,,,,,,,,,,,,corn,51,120,silent,old,red,2052.3739622998983,None,y,2052.3739622998983,None,"['y', 'return']","[1.0322768008336425, 1.6804363001137972]",2052.3739622998983,None,,,53,001,2023_Apr_24_1143,ExactRep-v3-final,2021.2.3,59.97051879906467,
,,,,,,,,,,,,120,0,120,0,,,,,,,,,,,,,,,,,,,,,,,,,,,,,,,,,,,,,,,,,,,,,,,,,2056.5110031003132,None,,,,,,,,,,,,,,,,,,,,,,,,,,,,,,,,,,,,,,,,,,,,,,,,,,,,,,,,,pole,3,121,sing,old,blue,2054.6015734001994,None,y,2054.6015734001994,None,"['y', 'return']","[1.1246843999251723, 1.8686640998348594]",2054.6015734001994,None,,,53,001,2023_Apr_24_1143,ExactRep-v3-final,2021.2.3,59.97051879906467,
,,,,,,,,,,,,121,0,121,0,,,,,,,,,,,,,,,,,,,,,,,,,,,,,,,,,,,,,,,,,,,,,,,,,2058.3296391004696,None,,,,,,,,,,,,,,,,,,,,,,,,,,,,,,,,,,,,,,,,,,,,,,,,,,,,,,,,,ticket,226,122,aloud,new,white,2057.015107500367,None,n,2057.015107500367,None,"['n', 'return']","[0.8711106004193425, 1.2792062005028129]",2057.015107500367,None,,,53,001,2023_Apr_24_1143,ExactRep-v3-final,2021.2.3,59.97051879906467,
,,,,,,,,,,,,122,0,122,0,,,,,,,,,,,,,,,,,,,,,,,,,,,,,,,,,,,,,,,,,,,,,,,,,2060.1982118999586,None,,,,,,,,,,,,,,,,,,,,,,,,,,,,,,,,,,,,,,,,,,,,,,,,,,,,,,,,,priest,225,123,sing,new,blue,2058.839185100049,None,n,2058.839185100049,None,"['n', 'return']","[0.8710240991786122, 1.311129699461162]",2058.839185100049,None,,,53,001,2023_Apr_24_1143,ExactRep-v3-final,2021.2.3,59.97051879906467,
,,,,,,,,,,,,123,0,123,0,,,,,,,,,,,,,,,,,,,,,,,,,,,,,,,,,,,,,,,,,,,,,,,,,2062.0832344004884,None,,,,,,,,,,,,,,,,,,,,,,,,,,,,,,,,,,,,,,,,,,,,,,,,,,,,,,,,,dress,205,124,sing,new,blue,2060.707819700241,None,n,2060.707819700241,None,"['n', 'return']","[0.8026018999516964, 1.3304586000740528]",2060.707819700241,None,,,53,001,2023_Apr_24_1143,ExactRep-v3-final,2021.2.3,59.97051879906467,
,,,,,,,,,,,,124,0,124,0,,,,,,,,,,,,,,,,,,,,,,,,,,,,,,,,,,,,,,,,,,,,,,,,,2067.638767500408,None,,,,,,,,,,,,,,,,,,,,,,,,,,,,,,,,,,,,,,,,,,,,,,,,,,,,,,,,,mercy,59,125,silent,old,red,2062.587141700089,None,n,2062.587141700089,None,"['n', 'return']","[3.3470825999975204, 5.01110940054059]",2062.587141700089,None,,,53,001,2023_Apr_24_1143,ExactRep-v3-final,2021.2.3,59.97051879906467,
,,,,,,,,,,,,125,0,125,0,,,,,,,,,,,,,,,,,,,,,,,,,,,,,,,,,,,,,,,,,,,,,,,,,2070.124761899933,None,,,,,,,,,,,,,,,,,,,,,,,,,,,,,,,,,,,,,,,,,,,,,,,,,,,,,,,,,master,34,126,sing,old,blue,2068.1488274000585,None,y,2068.1488274000585,None,"['y', 'return']","[1.3696473995223641, 1.9374468997120857]",2068.1488274000585,None,,,53,001,2023_Apr_24_1143,ExactRep-v3-final,2021.2.3,59.97051879906467,
,,,,,,,,,,,,126,0,126,0,,,,,,,,,,,,,,,,,,,,,,,,,,,,,,,,,,,,,,,,,,,,,,,,,2073.911800299771,None,,,,,,,,,,,,,,,,,,,,,,,,,,,,,,,,,,,,,,,,,,,,,,,,,,,,,,,,,square,11,127,sing,old,blue,2070.645835599862,None,y,2070.645835599862,None,"['return', 'y', 'return']","[1.5363012999296188, 2.5366350999101996, 3.224439200013876]",2070.645835599862,None,,,53,001,2023_Apr_24_1143,ExactRep-v3-final,2021.2.3,59.97051879906467,
,,,,,,,,,,,,127,0,127,0,,,,,,,,,,,,,,,,,,,,,,,,,,,,,,,,,,,,,,,,,,,,,,,,,2076.0638508005068,None,,,,,,,,,,,,,,,,,,,,,,,,,,,,,,,,,,,,,,,,,,,,,,,,,,,,,,,,,prayer,96,128,aloud,old,white,2074.422949399799,None,y,2074.422949399799,None,"['y', 'return']","[1.11137880012393, 1.6072680996730924]",2074.422949399799,None,,,53,001,2023_Apr_24_1143,ExactRep-v3-final,2021.2.3,59.97051879906467,
,,,,,,,,,,,,128,0,128,0,,,,,,,,,,,,,,,,,,,,,,,,,,,,,,,,,,,,,,,,,,,,,,,,,2078.3494213996455,None,,,,,,,,,,,,,,,,,,,,,,,,,,,,,,,,,,,,,,,,,,,,,,,,,,,,,,,,,virtue,48,129,silent,old,red,2076.5738532003015,None,y,2076.5738532003015,None,"['y', 'return']","[1.2565223993733525, 1.7362124994397163]",2076.5738532003015,None,,,53,001,2023_Apr_24_1143,ExactRep-v3-final,2021.2.3,59.97051879906467,
,,,,,,,,,,,,129,0,129,0,,,,,,,,,,,,,,,,,,,,,,,,,,,,,,,,,,,,,,,,,,,,,,,,,2080.785276699811,None,,,,,,,,,,,,,,,,,,,,,,,,,,,,,,,,,,,,,,,,,,,,,,,,,,,,,,,,,grief,101,130,aloud,old,white,2078.865139500238,None,y,2078.865139500238,None,"['y', 'return']","[1.501397400163114, 1.885114500299096]",2078.865139500238,None,,,53,001,2023_Apr_24_1143,ExactRep-v3-final,2021.2.3,59.97051879906467,
,,,,,,,,,,,,130,0,130,0,,,,,,,,,,,,,,,,,,,,,,,,,,,,,,,,,,,,,,,,,,,,,,,,,2082.587291800417,None,,,,,,,,,,,,,,,,,,,,,,,,,,,,,,,,,,,,,,,,,,,,,,,,,,,,,,,,,friend,165,131,sing,new,blue,2081.2909879004583,None,n,2081.2909879004583,None,"['n', 'return']","[0.7951804008334875, 1.251302900724113]",2081.2909879004583,None,,,53,001,2023_Apr_24_1143,ExactRep-v3-final,2021.2.3,59.97051879906467,
,,,,,,,,,,,,131,0,131,0,,,,,,,,,,,,,,,,,,,,,,,,,,,,,,,,,,,,,,,,,,,,,,,,,2084.9562098998576,None,,,,,,,,,,,,,,,,,,,,,,,,,,,,,,,,,,,,,,,,,,,,,,,,,,,,,,,,,wheat,137,132,silent,new,red,2083.1005205996335,None,n,2083.1005205996335,None,"['n', 'return']","[1.3380001997575164, 1.8177460003644228]",2083.1005205996335,None,,,53,001,2023_Apr_24_1143,ExactRep-v3-final,2021.2.3,59.97051879906467,
