trials_fam.thisRepN,trials_fam.thisTrialN,trials_fam.thisN,trials_fam.thisIndex,trials_prc.thisRepN,trials_prc.thisTrialN,trials_prc.thisN,trials_prc.thisIndex,StudyLoop.thisRepN,StudyLoop.thisTrialN,StudyLoop.thisN,StudyLoop.thisIndex,TestLoop.thisRepN,TestLoop.thisTrialN,TestLoop.thisN,TestLoop.thisIndex,text_colortest.started,text_colortest.stopped,key_colortest.keys,key_colortest.rt,key_colortest.started,key_colortest.stopped,textCondition.started,textCondition.stopped,keyCondition.keys,keyCondition.rt,keyCondition.started,keyCondition.stopped,Condition_between,Condition_counterbal,keyWelcome.keys,keyWelcome.rt,keyWelcome.started,keyWelcome.stopped,welcome_a.started,welcome_a.stopped,welcome_b.started,welcome_b.stopped,welcome_c.started,welcome_c.stopped,welcome_d.started,welcome_d.stopped,welcome_e.started,welcome_e.stopped,welcome_f.started,welcome_f.stopped,key_resp_fam_inst.keys,key_resp_fam_inst.rt,key_resp_fam_inst.started,key_resp_fam_inst.stopped,fam_a.started,fam_a.stopped,fam_b.started,fam_b.stopped,fam_c.started,fam_c.stopped,fam_d.started,fam_d.stopped,fam_e.started,fam_e.stopped,fam_f.started,fam_f.stopped,text_famil.started,text_famil.stopped,textBlank500.started,textBlank500.stopped,key_resp_prc_inst.keys,key_resp_prc_inst.rt,key_resp_prc_inst.started,key_resp_prc_inst.stopped,prac_a.started,prac_a.stopped,prac_b.started,prac_b.stopped,prac_c.started,prac_c.stopped,prac_d.started,prac_d.stopped,prac_e.started,prac_e.stopped,prac_f.started,prac_f.stopped,text_prc_trial.started,text_prc_trial.stopped,key_resp_study_inst.keys,key_resp_study_inst.rt,key_resp_study_inst.started,key_resp_study_inst.stopped,crit_a.started,crit_a.stopped,crit_b.started,crit_b.stopped,crit_c.started,crit_c.stopped,crit_d.started,crit_d.stopped,crit_e.started,crit_e.stopped,crit_f.started,crit_f.stopped,study_word,study_num,study_order,study_type,word_color,textStudy.started,textStudy.stopped,keyStudy.keys,keyStudy.started,keyStudy.stopped,post_study.started,post_study.stopped,key_resp_post_study.keys,key_resp_post_study.rt,key_resp_post_study.started,key_resp_post_study.stopped,test_inst.started,test_inst.stopped,key_resp_test_inst.keys,key_resp_test_inst.rt,key_resp_test_inst.started,key_resp_test_inst.stopped,test_word,test_num,test_order,test_condition,old_new_test,word_color_test,textConf.started,textConf.stopped,Participant Response,textInput.started,textInput.stopped,keyResp.keys,keyResp.rt,keyResp.started,keyResp.stopped,textEnd.started,textEnd.stopped,participant,session,date,expName,psychopyVersion,frameRate,
,,,,,,,,,,,,,,,,17.355895900167525,None,y,1.9755163993686438,17.355895900167525,None,,,,,,,,,,,,,,,,,,,,,,,,,,,,,,,,,,,,,,,,,,,,,,,,,,,,,,,,,,,,,,,,,,,,,,,,,,,,,,,,,,,,,,,,,,,,,,,,,,,,,,,,,,,,,,,,,,,,,,54,001,2023_Apr_24_1223,ExactRep-v3-final,2021.2.3,59.792984558630245,
,,,,,,,,,,,,,,,,,,,,,,19.356722599826753,None,f,0.27063149958848953,19.356722599826753,None,,,,,,,,,,,,,,,,,,,,,,,,,,,,,,,,,,,,,,,,,,,,,,,,,,,,,,,,,,,,,,,,,,,,,,,,,,,,,,,,,,,,,,,,,,,,,,,,,,,,,,,,,,,,,,,,54,001,2023_Apr_24_1223,ExactRep-v3-final,2021.2.3,59.792984558630245,
,,,,,,,,,,,,,,,,,,,,,,,,,,,,colorfoils,f,space,2731.342019099742,29.751891000196338,None,,,,,,,,,,,,,,,,,,,,,,,,,,,,,,,,,,,,,,,,,,,,,,,,,,,,,,,,,,,,,,,,,,,,,,,,,,,,,,,,,,,,,,,,,,,,,,,,,,,,,,,,,,54,001,2023_Apr_24_1223,ExactRep-v3-final,2021.2.3,59.792984558630245,
,,,,,,,,,,,,,,,,,,,,,,,,,,,,,,,,,,19.808086299337447,None,19.808086299337447,None,19.808086299337447,None,19.808086299337447,None,19.808086299337447,None,19.808086299337447,None,space,17.52986800018698,2771.26838220004,None,,,,,,,,,,,,,,,,,,,,,,,,,,,,,,,,,,,,,,,,,,,,,,,,,,,,,,,,,,,,,,,,,,,,,,,,,,,,,,,,,,,,,,,,,,54,001,2023_Apr_24_1223,ExactRep-v3-final,2021.2.3,59.792984558630245,
0,0,0,0,,,,,,,,,,,,,,,,,,,,,,,,,,,,,,,,,,,,,,,,,,,,,,,2761.289142999798,None,2761.289142999798,None,2761.289142999798,None,2761.289142999798,None,2761.289142999798,None,2761.289142999798,None,2788.877318699844,None,2790.8781492998824,None,,,,,,,,,,,,,,,,,,,,,,,,,,,,,,,,,,,,,,,,,,,,,,,,,,,,,,,,,,,,,,,,,,,,,,,,,,54,001,2023_Apr_24_1223,ExactRep-v3-final,2021.2.3,59.792984558630245,
1,0,1,0,,,,,,,,,,,,,,,,,,,,,,,,,,,,,,,,,,,,,,,,,,,,,,,,,,,,,,,,,,,2791.3787185000256,None,2793.3806726001203,None,,,,,,,,,,,,,,,,,,,,,,,,,,,,,,,,,,,,,,,,,,,,,,,,,,,,,,,,,,,,,,,,,,,,,,,,,,54,001,2023_Apr_24_1223,ExactRep-v3-final,2021.2.3,59.792984558630245,
2,0,2,0,,,,,,,,,,,,,,,,,,,,,,,,,,,,,,,,,,,,,,,,,,,,,,,,,,,,,,,,,,,2793.9052325999364,None,2795.899858499877,None,,,,,,,,,,,,,,,,,,,,,,,,,,,,,,,,,,,,,,,,,,,,,,,,,,,,,,,,,,,,,,,,,,,,,,,,,,54,001,2023_Apr_24_1223,ExactRep-v3-final,2021.2.3,59.792984558630245,
3,0,3,0,,,,,,,,,,,,,,,,,,,,,,,,,,,,,,,,,,,,,,,,,,,,,,,,,,,,,,,,,,,2796.4035355998203,None,2798.4191077994183,None,,,,,,,,,,,,,,,,,,,,,,,,,,,,,,,,,,,,,,,,,,,,,,,,,,,,,,,,,,,,,,,,,,,,,,,,,,54,001,2023_Apr_24_1223,ExactRep-v3-final,2021.2.3,59.792984558630245,
4,0,4,0,,,,,,,,,,,,,,,,,,,,,,,,,,,,,,,,,,,,,,,,,,,,,,,,,,,,,,,,,,,2798.9196875002235,None,2800.9212604993954,None,,,,,,,,,,,,,,,,,,,,,,,,,,,,,,,,,,,,,,,,,,,,,,,,,,,,,,,,,,,,,,,,,,,,,,,,,,54,001,2023_Apr_24_1223,ExactRep-v3-final,2021.2.3,59.792984558630245,
5,0,5,0,,,,,,,,,,,,,,,,,,,,,,,,,,,,,,,,,,,,,,,,,,,,,,,,,,,,,,,,,,,2801.4221160002053,None,2803.4240472996607,None,,,,,,,,,,,,,,,,,,,,,,,,,,,,,,,,,,,,,,,,,,,,,,,,,,,,,,,,,,,,,,,,,,,,,,,,,,54,001,2023_Apr_24_1223,ExactRep-v3-final,2021.2.3,59.792984558630245,
6,0,6,0,,,,,,,,,,,,,,,,,,,,,,,,,,,,,,,,,,,,,,,,,,,,,,,,,,,,,,,,,,,2803.9303887998685,None,2805.943274700083,None,,,,,,,,,,,,,,,,,,,,,,,,,,,,,,,,,,,,,,,,,,,,,,,,,,,,,,,,,,,,,,,,,,,,,,,,,,54,001,2023_Apr_24_1223,ExactRep-v3-final,2021.2.3,59.792984558630245,
7,0,7,0,,,,,,,,,,,,,,,,,,,,,,,,,,,,,,,,,,,,,,,,,,,,,,,,,,,,,,,,,,,2806.446834700182,None,2808.445886099711,None,,,,,,,,,,,,,,,,,,,,,,,,,,,,,,,,,,,,,,,,,,,,,,,,,,,,,,,,,,,,,,,,,,,,,,,,,,54,001,2023_Apr_24_1223,ExactRep-v3-final,2021.2.3,59.792984558630245,
8,0,8,0,,,,,,,,,,,,,,,,,,,,,,,,,,,,,,,,,,,,,,,,,,,,,,,,,,,,,,,,,,,2808.9463435998186,None,2810.9480277998373,None,,,,,,,,,,,,,,,,,,,,,,,,,,,,,,,,,,,,,,,,,,,,,,,,,,,,,,,,,,,,,,,,,,,,,,,,,,54,001,2023_Apr_24_1223,ExactRep-v3-final,2021.2.3,59.792984558630245,
9,0,9,0,,,,,,,,,,,,,,,,,,,,,,,,,,,,,,,,,,,,,,,,,,,,,,,,,,,,,,,,,,,2811.4592650998384,None,2813.4676014995202,None,,,,,,,,,,,,,,,,,,,,,,,,,,,,,,,,,,,,,,,,,,,,,,,,,,,,,,,,,,,,,,,,,,,,,,,,,,54,001,2023_Apr_24_1223,ExactRep-v3-final,2021.2.3,59.792984558630245,
10,0,10,0,,,,,,,,,,,,,,,,,,,,,,,,,,,,,,,,,,,,,,,,,,,,,,,,,,,,,,,,,,,2813.967955299653,None,2815.9699094993994,None,,,,,,,,,,,,,,,,,,,,,,,,,,,,,,,,,,,,,,,,,,,,,,,,,,,,,,,,,,,,,,,,,,,,,,,,,,54,001,2023_Apr_24_1223,ExactRep-v3-final,2021.2.3,59.792984558630245,
11,0,11,0,,,,,,,,,,,,,,,,,,,,,,,,,,,,,,,,,,,,,,,,,,,,,,,,,,,,,,,,,,,2816.470520200208,None,2818.4724222999066,None,,,,,,,,,,,,,,,,,,,,,,,,,,,,,,,,,,,,,,,,,,,,,,,,,,,,,,,,,,,,,,,,,,,,,,,,,,54,001,2023_Apr_24_1223,ExactRep-v3-final,2021.2.3,59.792984558630245,
12,0,12,0,,,,,,,,,,,,,,,,,,,,,,,,,,,,,,,,,,,,,,,,,,,,,,,,,,,,,,,,,,,2818.976040199399,None,2820.991569600068,None,,,,,,,,,,,,,,,,,,,,,,,,,,,,,,,,,,,,,,,,,,,,,,,,,,,,,,,,,,,,,,,,,,,,,,,,,,54,001,2023_Apr_24_1223,ExactRep-v3-final,2021.2.3,59.792984558630245,
13,0,13,0,,,,,,,,,,,,,,,,,,,,,,,,,,,,,,,,,,,,,,,,,,,,,,,,,,,,,,,,,,,2821.4921246999875,None,2823.4941723998636,None,,,,,,,,,,,,,,,,,,,,,,,,,,,,,,,,,,,,,,,,,,,,,,,,,,,,,,,,,,,,,,,,,,,,,,,,,,54,001,2023_Apr_24_1223,ExactRep-v3-final,2021.2.3,59.792984558630245,
14,0,14,0,,,,,,,,,,,,,,,,,,,,,,,,,,,,,,,,,,,,,,,,,,,,,,,,,,,,,,,,,,,2824.0005629993975,None,2826.013293299824,None,,,,,,,,,,,,,,,,,,,,,,,,,,,,,,,,,,,,,,,,,,,,,,,,,,,,,,,,,,,,,,,,,,,,,,,,,,54,001,2023_Apr_24_1223,ExactRep-v3-final,2021.2.3,59.792984558630245,
,,,,,,,,,,,,,,,,,,,,,,,,,,,,,,,,,,,,,,,,,,,,,,,,,,,,,,,,,,,,,,,,,,space,19.39245260041207,2836.6298365993425,None,,,,,,,,,,,,,,,,,,,,,,,,,,,,,,,,,,,,,,,,,,,,,,,,,,,,,,,,,,,,,,,,,,,,,,54,001,2023_Apr_24_1223,ExactRep-v3-final,2021.2.3,59.792984558630245,
,,,,0,0,0,0,,,,,,,,,,,,,,,,,,,,,,,,,,,,,,,,,,,,,,,,,,,,,,,,,,,,,,,,,2858.0953843994066,None,,,,,2826.661330100149,None,2826.661330100149,None,2826.661330100149,None,2826.661330100149,None,2826.661330100149,None,2826.661330100149,None,2856.0919313998893,None,,,,,,,,,,,,,,,,,,,,,,,,,,,,,,,,,,,,,,,,,,,,,,,,,,,,,,,,54,001,2023_Apr_24_1223,ExactRep-v3-final,2021.2.3,59.792984558630245,
,,,,1,0,1,0,,,,,,,,,,,,,,,,,,,,,,,,,,,,,,,,,,,,,,,,,,,,,,,,,,,,,,,,,2860.5979022998363,None,,,,,,,,,,,,,,,,,2858.5957773001865,None,,,,,,,,,,,,,,,,,,,,,,,,,,,,,,,,,,,,,,,,,,,,,,,,,,,,,,,,54,001,2023_Apr_24_1223,ExactRep-v3-final,2021.2.3,59.792984558630245,
,,,,2,0,2,0,,,,,,,,,,,,,,,,,,,,,,,,,,,,,,,,,,,,,,,,,,,,,,,,,,,,,,,,,2863.1003713998944,None,,,,,,,,,,,,,,,,,2861.0984092997387,None,,,,,,,,,,,,,,,,,,,,,,,,,,,,,,,,,,,,,,,,,,,,,,,,,,,,,,,,54,001,2023_Apr_24_1223,ExactRep-v3-final,2021.2.3,59.792984558630245,
,,,,3,0,3,0,,,,,,,,,,,,,,,,,,,,,,,,,,,,,,,,,,,,,,,,,,,,,,,,,,,,,,,,,2865.6028920998797,None,,,,,,,,,,,,,,,,,2863.60080640018,None,,,,,,,,,,,,,,,,,,,,,,,,,,,,,,,,,,,,,,,,,,,,,,,,,,,,,,,,54,001,2023_Apr_24_1223,ExactRep-v3-final,2021.2.3,59.792984558630245,
,,,,4,0,4,0,,,,,,,,,,,,,,,,,,,,,,,,,,,,,,,,,,,,,,,,,,,,,,,,,,,,,,,,,2868.10531109944,None,,,,,,,,,,,,,,,,,2866.103420900181,None,,,,,,,,,,,,,,,,,,,,,,,,,,,,,,,,,,,,,,,,,,,,,,,,,,,,,,,,54,001,2023_Apr_24_1223,ExactRep-v3-final,2021.2.3,59.792984558630245,
,,,,5,0,5,0,,,,,,,,,,,,,,,,,,,,,,,,,,,,,,,,,,,,,,,,,,,,,,,,,,,,,,,,,2870.607901999727,None,,,,,,,,,,,,,,,,,2868.605912500061,None,,,,,,,,,,,,,,,,,,,,,,,,,,,,,,,,,,,,,,,,,,,,,,,,,,,,,,,,54,001,2023_Apr_24_1223,ExactRep-v3-final,2021.2.3,59.792984558630245,
,,,,6,0,6,0,,,,,,,,,,,,,,,,,,,,,,,,,,,,,,,,,,,,,,,,,,,,,,,,,,,,,,,,,2873.110405500047,None,,,,,,,,,,,,,,,,,2871.1084270998836,None,,,,,,,,,,,,,,,,,,,,,,,,,,,,,,,,,,,,,,,,,,,,,,,,,,,,,,,,54,001,2023_Apr_24_1223,ExactRep-v3-final,2021.2.3,59.792984558630245,
,,,,7,0,7,0,,,,,,,,,,,,,,,,,,,,,,,,,,,,,,,,,,,,,,,,,,,,,,,,,,,,,,,,,2875.6128043001518,None,,,,,,,,,,,,,,,,,2873.61082299985,None,,,,,,,,,,,,,,,,,,,,,,,,,,,,,,,,,,,,,,,,,,,,,,,,,,,,,,,,54,001,2023_Apr_24_1223,ExactRep-v3-final,2021.2.3,59.792984558630245,
,,,,8,0,8,0,,,,,,,,,,,,,,,,,,,,,,,,,,,,,,,,,,,,,,,,,,,,,,,,,,,,,,,,,2878.115235399455,None,,,,,,,,,,,,,,,,,2876.113272000104,None,,,,,,,,,,,,,,,,,,,,,,,,,,,,,,,,,,,,,,,,,,,,,,,,,,,,,,,,54,001,2023_Apr_24_1223,ExactRep-v3-final,2021.2.3,59.792984558630245,
,,,,9,0,9,0,,,,,,,,,,,,,,,,,,,,,,,,,,,,,,,,,,,,,,,,,,,,,,,,,,,,,,,,,2880.6179390996695,None,,,,,,,,,,,,,,,,,2878.616109699942,None,,,,,,,,,,,,,,,,,,,,,,,,,,,,,,,,,,,,,,,,,,,,,,,,,,,,,,,,54,001,2023_Apr_24_1223,ExactRep-v3-final,2021.2.3,59.792984558630245,
,,,,10,0,10,0,,,,,,,,,,,,,,,,,,,,,,,,,,,,,,,,,,,,,,,,,,,,,,,,,,,,,,,,,2883.120400699787,None,,,,,,,,,,,,,,,,,2881.1184423994273,None,,,,,,,,,,,,,,,,,,,,,,,,,,,,,,,,,,,,,,,,,,,,,,,,,,,,,,,,54,001,2023_Apr_24_1223,ExactRep-v3-final,2021.2.3,59.792984558630245,
,,,,11,0,11,0,,,,,,,,,,,,,,,,,,,,,,,,,,,,,,,,,,,,,,,,,,,,,,,,,,,,,,,,,2885.6229983000085,None,,,,,,,,,,,,,,,,,2883.6209923001006,None,,,,,,,,,,,,,,,,,,,,,,,,,,,,,,,,,,,,,,,,,,,,,,,,,,,,,,,,54,001,2023_Apr_24_1223,ExactRep-v3-final,2021.2.3,59.792984558630245,
,,,,12,0,12,0,,,,,,,,,,,,,,,,,,,,,,,,,,,,,,,,,,,,,,,,,,,,,,,,,,,,,,,,,2888.1254326999187,None,,,,,,,,,,,,,,,,,2886.123286499642,None,,,,,,,,,,,,,,,,,,,,,,,,,,,,,,,,,,,,,,,,,,,,,,,,,,,,,,,,54,001,2023_Apr_24_1223,ExactRep-v3-final,2021.2.3,59.792984558630245,
,,,,13,0,13,0,,,,,,,,,,,,,,,,,,,,,,,,,,,,,,,,,,,,,,,,,,,,,,,,,,,,,,,,,2890.6278999997303,None,,,,,,,,,,,,,,,,,2888.6259285993874,None,,,,,,,,,,,,,,,,,,,,,,,,,,,,,,,,,,,,,,,,,,,,,,,,,,,,,,,,54,001,2023_Apr_24_1223,ExactRep-v3-final,2021.2.3,59.792984558630245,
,,,,14,0,14,0,,,,,,,,,,,,,,,,,,,,,,,,,,,,,,,,,,,,,,,,,,,,,,,,,,,,,,,,,2893.1302082994953,None,,,,,,,,,,,,,,,,,2891.1283791000023,None,,,,,,,,,,,,,,,,,,,,,,,,,,,,,,,,,,,,,,,,,,,,,,,,,,,,,,,,54,001,2023_Apr_24_1223,ExactRep-v3-final,2021.2.3,59.792984558630245,
,,,,,,,,,,,,,,,,,,,,,,,,,,,,,,,,,,,,,,,,,,,,,,,,,,,,,,,,,,,,,,,,,,,,,,,,,,,,,,,,,,,,space,25.57046230044216,2903.75558109954,None,,,,,,,,,,,,,,,,,,,,,,,,,,,,,,,,,,,,,,,,,,,,,,,,,,,,54,001,2023_Apr_24_1223,ExactRep-v3-final,2021.2.3,59.792984558630245,
,,,,,,,,0,0,0,0,,,,,,,,,,,,,,,,,,,,,,,,,,,,,,,,,,,,,,,,,,,,,,,,,,,,,2931.4206507997587,None,,,,,,,,,,,,,,,,,,,,,,,2893.8065439993516,None,2893.8065439993516,None,2893.8065439993516,None,2893.8065439993516,None,2893.8065439993516,None,2893.8065439993516,None,cat,112,1,aloud,white,2929.414670799859,None,None,2929.414670799859,None,,,,,,,,,,,,,,,,,,,,,,,,,,,,,,54,001,2023_Apr_24_1223,ExactRep-v3-final,2021.2.3,59.792984558630245,
,,,,,,,,1,0,1,0,,,,,,,,,,,,,,,,,,,,,,,,,,,,,,,,,,,,,,,,,,,,,,,,,,,,,2933.9545741993934,None,,,,,,,,,,,,,,,,,,,,,,,,,,,,,,,,,,,king,100,2,aloud,white,2931.9396313996986,None,None,2931.9396313996986,None,,,,,,,,,,,,,,,,,,,,,,,,,,,,,,54,001,2023_Apr_24_1223,ExactRep-v3-final,2021.2.3,59.792984558630245,
,,,,,,,,2,0,2,0,,,,,,,,,,,,,,,,,,,,,,,,,,,,,,,,,,,,,,,,,,,,,,,,,,,,,2936.4737796001136,None,,,,,,,,,,,,,,,,,,,,,,,,,,,,,,,,,,,deed,40,3,silent,blue,2934.4602932995185,None,None,2934.4602932995185,None,,,,,,,,,,,,,,,,,,,,,,,,,,,,,,54,001,2023_Apr_24_1223,ExactRep-v3-final,2021.2.3,59.792984558630245,
,,,,,,,,3,0,3,0,,,,,,,,,,,,,,,,,,,,,,,,,,,,,,,,,,,,,,,,,,,,,,,,,,,,,2938.9938388001174,None,,,,,,,,,,,,,,,,,,,,,,,,,,,,,,,,,,,insect,62,4,silent,blue,2936.978665399365,None,None,2936.978665399365,None,,,,,,,,,,,,,,,,,,,,,,,,,,,,,,54,001,2023_Apr_24_1223,ExactRep-v3-final,2021.2.3,59.792984558630245,
,,,,,,,,4,0,4,0,,,,,,,,,,,,,,,,,,,,,,,,,,,,,,,,,,,,,,,,,,,,,,,,,,,,,2941.4953159000725,None,,,,,,,,,,,,,,,,,,,,,,,,,,,,,,,,,,,grief,38,5,sing,red,2939.495413400233,None,None,2939.495413400233,None,,,,,,,,,,,,,,,,,,,,,,,,,,,,,,54,001,2023_Apr_24_1223,ExactRep-v3-final,2021.2.3,59.792984558630245,
,,,,,,,,5,0,5,0,,,,,,,,,,,,,,,,,,,,,,,,,,,,,,,,,,,,,,,,,,,,,,,,,,,,,2943.9980084998533,None,,,,,,,,,,,,,,,,,,,,,,,,,,,,,,,,,,,cottage,103,6,aloud,white,2941.9971747994423,None,None,2941.9971747994423,None,,,,,,,,,,,,,,,,,,,,,,,,,,,,,,54,001,2023_Apr_24_1223,ExactRep-v3-final,2021.2.3,59.792984558630245,
,,,,,,,,6,0,6,0,,,,,,,,,,,,,,,,,,,,,,,,,,,,,,,,,,,,,,,,,,,,,,,,,,,,,2946.5171699002385,None,,,,,,,,,,,,,,,,,,,,,,,,,,,,,,,,,,,earth,57,7,silent,blue,2944.5078293997794,None,None,2944.5078293997794,None,,,,,,,,,,,,,,,,,,,,,,,,,,,,,,54,001,2023_Apr_24_1223,ExactRep-v3-final,2021.2.3,59.792984558630245,
,,,,,,,,7,0,7,0,,,,,,,,,,,,,,,,,,,,,,,,,,,,,,,,,,,,,,,,,,,,,,,,,,,,,2949.0193321993575,None,,,,,,,,,,,,,,,,,,,,,,,,,,,,,,,,,,,passion,26,8,sing,red,2947.0185046000406,None,None,2947.0185046000406,None,,,,,,,,,,,,,,,,,,,,,,,,,,,,,,54,001,2023_Apr_24_1223,ExactRep-v3-final,2021.2.3,59.792984558630245,
,,,,,,,,8,0,8,0,,,,,,,,,,,,,,,,,,,,,,,,,,,,,,,,,,,,,,,,,,,,,,,,,,,,,2951.5388257000595,None,,,,,,,,,,,,,,,,,,,,,,,,,,,,,,,,,,,volume,56,9,silent,blue,2949.5317354993895,None,None,2949.5317354993895,None,,,,,,,,,,,,,,,,,,,,,,,,,,,,,,54,001,2023_Apr_24_1223,ExactRep-v3-final,2021.2.3,59.792984558630245,
,,,,,,,,9,0,9,0,,,,,,,,,,,,,,,,,,,,,,,,,,,,,,,,,,,,,,,,,,,,,,,,,,,,,2954.0413318993524,None,,,,,,,,,,,,,,,,,,,,,,,,,,,,,,,,,,,army,6,10,sing,red,2952.0390472002327,None,None,2952.0390472002327,None,,,,,,,,,,,,,,,,,,,,,,,,,,,,,,54,001,2023_Apr_24_1223,ExactRep-v3-final,2021.2.3,59.792984558630245,
,,,,,,,,10,0,10,0,,,,,,,,,,,,,,,,,,,,,,,,,,,,,,,,,,,,,,,,,,,,,,,,,,,,,2956.5605406994,None,,,,,,,,,,,,,,,,,,,,,,,,,,,,,,,,,,,pipe,29,11,sing,red,2954.5502749001607,None,None,2954.5502749001607,None,,,,,,,,,,,,,,,,,,,,,,,,,,,,,,54,001,2023_Apr_24_1223,ExactRep-v3-final,2021.2.3,59.792984558630245,
,,,,,,,,11,0,11,0,,,,,,,,,,,,,,,,,,,,,,,,,,,,,,,,,,,,,,,,,,,,,,,,,,,,,2959.0796746993437,None,,,,,,,,,,,,,,,,,,,,,,,,,,,,,,,,,,,woman,10,12,sing,red,2957.0664510000497,None,None,2957.0664510000497,None,,,,,,,,,,,,,,,,,,,,,,,,,,,,,,54,001,2023_Apr_24_1223,ExactRep-v3-final,2021.2.3,59.792984558630245,
,,,,,,,,12,0,12,0,,,,,,,,,,,,,,,,,,,,,,,,,,,,,,,,,,,,,,,,,,,,,,,,,,,,,2961.582216099836,None,,,,,,,,,,,,,,,,,,,,,,,,,,,,,,,,,,,opinion,92,13,aloud,white,2959.582155799493,None,None,2959.582155799493,None,,,,,,,,,,,,,,,,,,,,,,,,,,,,,,54,001,2023_Apr_24_1223,ExactRep-v3-final,2021.2.3,59.792984558630245,
,,,,,,,,13,0,13,0,,,,,,,,,,,,,,,,,,,,,,,,,,,,,,,,,,,,,,,,,,,,,,,,,,,,,2964.0846630996093,None,,,,,,,,,,,,,,,,,,,,,,,,,,,,,,,,,,,mind,27,14,sing,red,2962.0854011001065,None,None,2962.0854011001065,None,,,,,,,,,,,,,,,,,,,,,,,,,,,,,,54,001,2023_Apr_24_1223,ExactRep-v3-final,2021.2.3,59.792984558630245,
,,,,,,,,14,0,14,0,,,,,,,,,,,,,,,,,,,,,,,,,,,,,,,,,,,,,,,,,,,,,,,,,,,,,2966.6036767000332,None,,,,,,,,,,,,,,,,,,,,,,,,,,,,,,,,,,,green,65,15,silent,blue,2964.593447700143,None,None,2964.593447700143,None,,,,,,,,,,,,,,,,,,,,,,,,,,,,,,54,001,2023_Apr_24_1223,ExactRep-v3-final,2021.2.3,59.792984558630245,
,,,,,,,,15,0,15,0,,,,,,,,,,,,,,,,,,,,,,,,,,,,,,,,,,,,,,,,,,,,,,,,,,,,,2969.123059899546,None,,,,,,,,,,,,,,,,,,,,,,,,,,,,,,,,,,,dress,86,16,aloud,white,2967.111607199535,None,None,2967.111607199535,None,,,,,,,,,,,,,,,,,,,,,,,,,,,,,,54,001,2023_Apr_24_1223,ExactRep-v3-final,2021.2.3,59.792984558630245,
,,,,,,,,16,0,16,0,,,,,,,,,,,,,,,,,,,,,,,,,,,,,,,,,,,,,,,,,,,,,,,,,,,,,2971.62523279991,None,,,,,,,,,,,,,,,,,,,,,,,,,,,,,,,,,,,dust,47,17,silent,blue,2969.6235999995843,None,None,2969.6235999995843,None,,,,,,,,,,,,,,,,,,,,,,,,,,,,,,54,001,2023_Apr_24_1223,ExactRep-v3-final,2021.2.3,59.792984558630245,
,,,,,,,,17,0,17,0,,,,,,,,,,,,,,,,,,,,,,,,,,,,,,,,,,,,,,,,,,,,,,,,,,,,,2974.144637099467,None,,,,,,,,,,,,,,,,,,,,,,,,,,,,,,,,,,,plain,116,18,aloud,white,2972.1357098994777,None,None,2972.1357098994777,None,,,,,,,,,,,,,,,,,,,,,,,,,,,,,,54,001,2023_Apr_24_1223,ExactRep-v3-final,2021.2.3,59.792984558630245,
,,,,,,,,18,0,18,0,,,,,,,,,,,,,,,,,,,,,,,,,,,,,,,,,,,,,,,,,,,,,,,,,,,,,2976.663927999325,None,,,,,,,,,,,,,,,,,,,,,,,,,,,,,,,,,,,season,33,19,sing,red,2974.653031599708,None,None,2974.653031599708,None,,,,,,,,,,,,,,,,,,,,,,,,,,,,,,54,001,2023_Apr_24_1223,ExactRep-v3-final,2021.2.3,59.792984558630245,
,,,,,,,,19,0,19,0,,,,,,,,,,,,,,,,,,,,,,,,,,,,,,,,,,,,,,,,,,,,,,,,,,,,,2979.1666056998074,None,,,,,,,,,,,,,,,,,,,,,,,,,,,,,,,,,,,temple,43,20,silent,blue,2977.1645660996437,None,None,2977.1645660996437,None,,,,,,,,,,,,,,,,,,,,,,,,,,,,,,54,001,2023_Apr_24_1223,ExactRep-v3-final,2021.2.3,59.792984558630245,
,,,,,,,,20,0,20,0,,,,,,,,,,,,,,,,,,,,,,,,,,,,,,,,,,,,,,,,,,,,,,,,,,,,,2981.6858565993607,None,,,,,,,,,,,,,,,,,,,,,,,,,,,,,,,,,,,fortune,107,21,aloud,white,2979.671168299392,None,None,2979.671168299392,None,,,,,,,,,,,,,,,,,,,,,,,,,,,,,,54,001,2023_Apr_24_1223,ExactRep-v3-final,2021.2.3,59.792984558630245,
,,,,,,,,21,0,21,0,,,,,,,,,,,,,,,,,,,,,,,,,,,,,,,,,,,,,,,,,,,,,,,,,,,,,2984.1881555002183,None,,,,,,,,,,,,,,,,,,,,,,,,,,,,,,,,,,,effort,88,22,aloud,white,2982.185836499557,None,None,2982.185836499557,None,,,,,,,,,,,,,,,,,,,,,,,,,,,,,,54,001,2023_Apr_24_1223,ExactRep-v3-final,2021.2.3,59.792984558630245,
,,,,,,,,22,0,22,0,,,,,,,,,,,,,,,,,,,,,,,,,,,,,,,,,,,,,,,,,,,,,,,,,,,,,2986.7073141001165,None,,,,,,,,,,,,,,,,,,,,,,,,,,,,,,,,,,,quality,95,23,aloud,white,2984.6954346997663,None,None,2984.6954346997663,None,,,,,,,,,,,,,,,,,,,,,,,,,,,,,,54,001,2023_Apr_24_1223,ExactRep-v3-final,2021.2.3,59.792984558630245,
,,,,,,,,23,0,23,0,,,,,,,,,,,,,,,,,,,,,,,,,,,,,,,,,,,,,,,,,,,,,,,,,,,,,2989.209824900143,None,,,,,,,,,,,,,,,,,,,,,,,,,,,,,,,,,,,artist,108,24,aloud,white,2987.2095560999587,None,None,2987.2095560999587,None,,,,,,,,,,,,,,,,,,,,,,,,,,,,,,54,001,2023_Apr_24_1223,ExactRep-v3-final,2021.2.3,59.792984558630245,
,,,,,,,,24,0,24,0,,,,,,,,,,,,,,,,,,,,,,,,,,,,,,,,,,,,,,,,,,,,,,,,,,,,,2991.728981799446,None,,,,,,,,,,,,,,,,,,,,,,,,,,,,,,,,,,,answer,44,25,silent,blue,2989.714185299352,None,None,2989.714185299352,None,,,,,,,,,,,,,,,,,,,,,,,,,,,,,,54,001,2023_Apr_24_1223,ExactRep-v3-final,2021.2.3,59.792984558630245,
,,,,,,,,25,0,25,0,,,,,,,,,,,,,,,,,,,,,,,,,,,,,,,,,,,,,,,,,,,,,,,,,,,,,2994.231361299753,None,,,,,,,,,,,,,,,,,,,,,,,,,,,,,,,,,,,body,117,26,aloud,white,2992.2293109996244,None,None,2992.2293109996244,None,,,,,,,,,,,,,,,,,,,,,,,,,,,,,,54,001,2023_Apr_24_1223,ExactRep-v3-final,2021.2.3,59.792984558630245,
,,,,,,,,26,0,26,0,,,,,,,,,,,,,,,,,,,,,,,,,,,,,,,,,,,,,,,,,,,,,,,,,,,,,2996.7505425000563,None,,,,,,,,,,,,,,,,,,,,,,,,,,,,,,,,,,,justice,13,27,sing,red,2994.7457507001236,None,None,2994.7457507001236,None,,,,,,,,,,,,,,,,,,,,,,,,,,,,,,54,001,2023_Apr_24_1223,ExactRep-v3-final,2021.2.3,59.792984558630245,
,,,,,,,,27,0,27,0,,,,,,,,,,,,,,,,,,,,,,,,,,,,,,,,,,,,,,,,,,,,,,,,,,,,,2999.2697466993704,None,,,,,,,,,,,,,,,,,,,,,,,,,,,,,,,,,,,lake,53,28,silent,blue,2997.259759299457,None,None,2997.259759299457,None,,,,,,,,,,,,,,,,,,,,,,,,,,,,,,54,001,2023_Apr_24_1223,ExactRep-v3-final,2021.2.3,59.792984558630245,
,,,,,,,,28,0,28,0,,,,,,,,,,,,,,,,,,,,,,,,,,,,,,,,,,,,,,,,,,,,,,,,,,,,,3001.772250600159,None,,,,,,,,,,,,,,,,,,,,,,,,,,,,,,,,,,,brain,30,29,sing,red,2999.770252599381,None,None,2999.770252599381,None,,,,,,,,,,,,,,,,,,,,,,,,,,,,,,54,001,2023_Apr_24_1223,ExactRep-v3-final,2021.2.3,59.792984558630245,
,,,,,,,,29,0,29,0,,,,,,,,,,,,,,,,,,,,,,,,,,,,,,,,,,,,,,,,,,,,,,,,,,,,,3004.291460399516,None,,,,,,,,,,,,,,,,,,,,,,,,,,,,,,,,,,,meeting,101,30,aloud,white,3002.2826903993264,None,None,3002.2826903993264,None,,,,,,,,,,,,,,,,,,,,,,,,,,,,,,54,001,2023_Apr_24_1223,ExactRep-v3-final,2021.2.3,59.792984558630245,
,,,,,,,,30,0,30,0,,,,,,,,,,,,,,,,,,,,,,,,,,,,,,,,,,,,,,,,,,,,,,,,,,,,,3006.810825799592,None,,,,,,,,,,,,,,,,,,,,,,,,,,,,,,,,,,,custom,109,31,aloud,white,3004.796678399667,None,None,3004.796678399667,None,,,,,,,,,,,,,,,,,,,,,,,,,,,,,,54,001,2023_Apr_24_1223,ExactRep-v3-final,2021.2.3,59.792984558630245,
,,,,,,,,31,0,31,0,,,,,,,,,,,,,,,,,,,,,,,,,,,,,,,,,,,,,,,,,,,,,,,,,,,,,3009.313320499845,None,,,,,,,,,,,,,,,,,,,,,,,,,,,,,,,,,,,tool,22,32,sing,red,3007.311046999879,None,None,3007.311046999879,None,,,,,,,,,,,,,,,,,,,,,,,,,,,,,,54,001,2023_Apr_24_1223,ExactRep-v3-final,2021.2.3,59.792984558630245,
,,,,,,,,32,0,32,0,,,,,,,,,,,,,,,,,,,,,,,,,,,,,,,,,,,,,,,,,,,,,,,,,,,,,3011.832480300218,None,,,,,,,,,,,,,,,,,,,,,,,,,,,,,,,,,,,city,35,33,sing,red,3009.8177169999108,None,None,3009.8177169999108,None,,,,,,,,,,,,,,,,,,,,,,,,,,,,,,54,001,2023_Apr_24_1223,ExactRep-v3-final,2021.2.3,59.792984558630245,
,,,,,,,,33,0,33,0,,,,,,,,,,,,,,,,,,,,,,,,,,,,,,,,,,,,,,,,,,,,,,,,,,,,,3014.3349358001724,None,,,,,,,,,,,,,,,,,,,,,,,,,,,,,,,,,,,crime,82,34,aloud,white,3012.3326482996345,None,None,3012.3326482996345,None,,,,,,,,,,,,,,,,,,,,,,,,,,,,,,54,001,2023_Apr_24_1223,ExactRep-v3-final,2021.2.3,59.792984558630245,
,,,,,,,,34,0,34,0,,,,,,,,,,,,,,,,,,,,,,,,,,,,,,,,,,,,,,,,,,,,,,,,,,,,,3016.837557199411,None,,,,,,,,,,,,,,,,,,,,,,,,,,,,,,,,,,,party,90,35,aloud,white,3014.8369565000758,None,None,3014.8369565000758,None,,,,,,,,,,,,,,,,,,,,,,,,,,,,,,54,001,2023_Apr_24_1223,ExactRep-v3-final,2021.2.3,59.792984558630245,
,,,,,,,,35,0,35,0,,,,,,,,,,,,,,,,,,,,,,,,,,,,,,,,,,,,,,,,,,,,,,,,,,,,,3019.3566646995023,None,,,,,,,,,,,,,,,,,,,,,,,,,,,,,,,,,,,fate,99,36,aloud,white,3017.3437434993684,None,None,3017.3437434993684,None,,,,,,,,,,,,,,,,,,,,,,,,,,,,,,54,001,2023_Apr_24_1223,ExactRep-v3-final,2021.2.3,59.792984558630245,
,,,,,,,,36,0,36,0,,,,,,,,,,,,,,,,,,,,,,,,,,,,,,,,,,,,,,,,,,,,,,,,,,,,,3021.875855899416,None,,,,,,,,,,,,,,,,,,,,,,,,,,,,,,,,,,,mother,69,37,silent,blue,3019.863094800152,None,None,3019.863094800152,None,,,,,,,,,,,,,,,,,,,,,,,,,,,,,,54,001,2023_Apr_24_1223,ExactRep-v3-final,2021.2.3,59.792984558630245,
,,,,,,,,37,0,37,0,,,,,,,,,,,,,,,,,,,,,,,,,,,,,,,,,,,,,,,,,,,,,,,,,,,,,3024.3780972994864,None,,,,,,,,,,,,,,,,,,,,,,,,,,,,,,,,,,,coast,42,38,silent,blue,3022.3760877996683,None,None,3022.3760877996683,None,,,,,,,,,,,,,,,,,,,,,,,,,,,,,,54,001,2023_Apr_24_1223,ExactRep-v3-final,2021.2.3,59.792984558630245,
,,,,,,,,38,0,38,0,,,,,,,,,,,,,,,,,,,,,,,,,,,,,,,,,,,,,,,,,,,,,,,,,,,,,3026.897328100167,None,,,,,,,,,,,,,,,,,,,,,,,,,,,,,,,,,,,pole,89,39,aloud,white,3024.891503700055,None,None,3024.891503700055,None,,,,,,,,,,,,,,,,,,,,,,,,,,,,,,54,001,2023_Apr_24_1223,ExactRep-v3-final,2021.2.3,59.792984558630245,
,,,,,,,,39,0,39,0,,,,,,,,,,,,,,,,,,,,,,,,,,,,,,,,,,,,,,,,,,,,,,,,,,,,,3029.4000693000853,None,,,,,,,,,,,,,,,,,,,,,,,,,,,,,,,,,,,humour,23,40,sing,red,3027.400333499536,None,None,3027.400333499536,None,,,,,,,,,,,,,,,,,,,,,,,,,,,,,,54,001,2023_Apr_24_1223,ExactRep-v3-final,2021.2.3,59.792984558630245,
,,,,,,,,40,0,40,0,,,,,,,,,,,,,,,,,,,,,,,,,,,,,,,,,,,,,,,,,,,,,,,,,,,,,3031.91932970006,None,,,,,,,,,,,,,,,,,,,,,,,,,,,,,,,,,,,safety,78,41,silent,blue,3029.9058454995975,None,None,3029.9058454995975,None,,,,,,,,,,,,,,,,,,,,,,,,,,,,,,54,001,2023_Apr_24_1223,ExactRep-v3-final,2021.2.3,59.792984558630245,
,,,,,,,,41,0,41,0,,,,,,,,,,,,,,,,,,,,,,,,,,,,,,,,,,,,,,,,,,,,,,,,,,,,,3034.438354499638,None,,,,,,,,,,,,,,,,,,,,,,,,,,,,,,,,,,,girl,64,42,silent,blue,3032.429073399864,None,None,3032.429073399864,None,,,,,,,,,,,,,,,,,,,,,,,,,,,,,,54,001,2023_Apr_24_1223,ExactRep-v3-final,2021.2.3,59.792984558630245,
,,,,,,,,42,0,42,0,,,,,,,,,,,,,,,,,,,,,,,,,,,,,,,,,,,,,,,,,,,,,,,,,,,,,3036.940922100097,None,,,,,,,,,,,,,,,,,,,,,,,,,,,,,,,,,,,salary,5,43,sing,red,3034.9411656996235,None,None,3034.9411656996235,None,,,,,,,,,,,,,,,,,,,,,,,,,,,,,,54,001,2023_Apr_24_1223,ExactRep-v3-final,2021.2.3,59.792984558630245,
,,,,,,,,43,0,43,0,,,,,,,,,,,,,,,,,,,,,,,,,,,,,,,,,,,,,,,,,,,,,,,,,,,,,3039.460085399449,None,,,,,,,,,,,,,,,,,,,,,,,,,,,,,,,,,,,sugar,2,44,sing,red,3037.448484700173,None,None,3037.448484700173,None,,,,,,,,,,,,,,,,,,,,,,,,,,,,,,54,001,2023_Apr_24_1223,ExactRep-v3-final,2021.2.3,59.792984558630245,
,,,,,,,,44,0,44,0,,,,,,,,,,,,,,,,,,,,,,,,,,,,,,,,,,,,,,,,,,,,,,,,,,,,,3041.9626233996823,None,,,,,,,,,,,,,,,,,,,,,,,,,,,,,,,,,,,health,37,45,sing,red,3039.9617847995833,None,None,3039.9617847995833,None,,,,,,,,,,,,,,,,,,,,,,,,,,,,,,54,001,2023_Apr_24_1223,ExactRep-v3-final,2021.2.3,59.792984558630245,
,,,,,,,,45,0,45,0,,,,,,,,,,,,,,,,,,,,,,,,,,,,,,,,,,,,,,,,,,,,,,,,,,,,,3044.465261899866,None,,,,,,,,,,,,,,,,,,,,,,,,,,,,,,,,,,,hide,63,46,silent,blue,3042.4627376999706,None,None,3042.4627376999706,None,,,,,,,,,,,,,,,,,,,,,,,,,,,,,,54,001,2023_Apr_24_1223,ExactRep-v3-final,2021.2.3,59.792984558630245,
,,,,,,,,46,0,46,0,,,,,,,,,,,,,,,,,,,,,,,,,,,,,,,,,,,,,,,,,,,,,,,,,,,,,3046.967575199902,None,,,,,,,,,,,,,,,,,,,,,,,,,,,,,,,,,,,tree,106,47,aloud,white,3044.9677849998698,None,None,3044.9677849998698,None,,,,,,,,,,,,,,,,,,,,,,,,,,,,,,54,001,2023_Apr_24_1223,ExactRep-v3-final,2021.2.3,59.792984558630245,
,,,,,,,,47,0,47,0,,,,,,,,,,,,,,,,,,,,,,,,,,,,,,,,,,,,,,,,,,,,,,,,,,,,,3049.470166599378,None,,,,,,,,,,,,,,,,,,,,,,,,,,,,,,,,,,,forest,111,48,aloud,white,3047.4708851994947,None,None,3047.4708851994947,None,,,,,,,,,,,,,,,,,,,,,,,,,,,,,,54,001,2023_Apr_24_1223,ExactRep-v3-final,2021.2.3,59.792984558630245,
,,,,,,,,48,0,48,0,,,,,,,,,,,,,,,,,,,,,,,,,,,,,,,,,,,,,,,,,,,,,,,,,,,,,3051.9727144995704,None,,,,,,,,,,,,,,,,,,,,,,,,,,,,,,,,,,,freedom,77,49,silent,blue,3049.9736632993445,None,None,3049.9736632993445,None,,,,,,,,,,,,,,,,,,,,,,,,,,,,,,54,001,2023_Apr_24_1223,ExactRep-v3-final,2021.2.3,59.792984558630245,
,,,,,,,,49,0,49,0,,,,,,,,,,,,,,,,,,,,,,,,,,,,,,,,,,,,,,,,,,,,,,,,,,,,,3054.491787799634,None,,,,,,,,,,,,,,,,,,,,,,,,,,,,,,,,,,,weapon,60,50,silent,blue,3052.48285140004,None,None,3052.48285140004,None,,,,,,,,,,,,,,,,,,,,,,,,,,,,,,54,001,2023_Apr_24_1223,ExactRep-v3-final,2021.2.3,59.792984558630245,
,,,,,,,,50,0,50,0,,,,,,,,,,,,,,,,,,,,,,,,,,,,,,,,,,,,,,,,,,,,,,,,,,,,,3056.9940943997353,None,,,,,,,,,,,,,,,,,,,,,,,,,,,,,,,,,,,style,34,51,sing,red,3054.9922845996916,None,None,3054.9922845996916,None,,,,,,,,,,,,,,,,,,,,,,,,,,,,,,54,001,2023_Apr_24_1223,ExactRep-v3-final,2021.2.3,59.792984558630245,
,,,,,,,,51,0,51,0,,,,,,,,,,,,,,,,,,,,,,,,,,,,,,,,,,,,,,,,,,,,,,,,,,,,,3059.4968411000445,None,,,,,,,,,,,,,,,,,,,,,,,,,,,,,,,,,,,cash,87,52,aloud,white,3057.4968229997903,None,None,3057.4968229997903,None,,,,,,,,,,,,,,,,,,,,,,,,,,,,,,54,001,2023_Apr_24_1223,ExactRep-v3-final,2021.2.3,59.792984558630245,
,,,,,,,,52,0,52,0,,,,,,,,,,,,,,,,,,,,,,,,,,,,,,,,,,,,,,,,,,,,,,,,,,,,,3062.015783599578,None,,,,,,,,,,,,,,,,,,,,,,,,,,,,,,,,,,,home,119,53,aloud,white,3060.001370199956,None,None,3060.001370199956,None,,,,,,,,,,,,,,,,,,,,,,,,,,,,,,54,001,2023_Apr_24_1223,ExactRep-v3-final,2021.2.3,59.792984558630245,
,,,,,,,,53,0,53,0,,,,,,,,,,,,,,,,,,,,,,,,,,,,,,,,,,,,,,,,,,,,,,,,,,,,,3064.5183584000915,None,,,,,,,,,,,,,,,,,,,,,,,,,,,,,,,,,,,boy,28,54,sing,red,3062.5162746999413,None,None,3062.5162746999413,None,,,,,,,,,,,,,,,,,,,,,,,,,,,,,,54,001,2023_Apr_24_1223,ExactRep-v3-final,2021.2.3,59.792984558630245,
,,,,,,,,54,0,54,0,,,,,,,,,,,,,,,,,,,,,,,,,,,,,,,,,,,,,,,,,,,,,,,,,,,,,3067.037687899545,None,,,,,,,,,,,,,,,,,,,,,,,,,,,,,,,,,,,metal,70,55,silent,blue,3065.0234016999602,None,None,3065.0234016999602,None,,,,,,,,,,,,,,,,,,,,,,,,,,,,,,54,001,2023_Apr_24_1223,ExactRep-v3-final,2021.2.3,59.792984558630245,
,,,,,,,,55,0,55,0,,,,,,,,,,,,,,,,,,,,,,,,,,,,,,,,,,,,,,,,,,,,,,,,,,,,,3069.5401617996395,None,,,,,,,,,,,,,,,,,,,,,,,,,,,,,,,,,,,nail,3,56,sing,red,3067.539181499742,None,None,3067.539181499742,None,,,,,,,,,,,,,,,,,,,,,,,,,,,,,,54,001,2023_Apr_24_1223,ExactRep-v3-final,2021.2.3,59.792984558630245,
,,,,,,,,56,0,56,0,,,,,,,,,,,,,,,,,,,,,,,,,,,,,,,,,,,,,,,,,,,,,,,,,,,,,3072.0428014993668,None,,,,,,,,,,,,,,,,,,,,,,,,,,,,,,,,,,,cotton,115,57,aloud,white,3070.0420912997797,None,None,3070.0420912997797,None,,,,,,,,,,,,,,,,,,,,,,,,,,,,,,54,001,2023_Apr_24_1223,ExactRep-v3-final,2021.2.3,59.792984558630245,
,,,,,,,,57,0,57,0,,,,,,,,,,,,,,,,,,,,,,,,,,,,,,,,,,,,,,,,,,,,,,,,,,,,,3074.561941999942,None,,,,,,,,,,,,,,,,,,,,,,,,,,,,,,,,,,,dollar,31,58,sing,red,3072.5527786994353,None,None,3072.5527786994353,None,,,,,,,,,,,,,,,,,,,,,,,,,,,,,,54,001,2023_Apr_24_1223,ExactRep-v3-final,2021.2.3,59.792984558630245,
,,,,,,,,58,0,58,0,,,,,,,,,,,,,,,,,,,,,,,,,,,,,,,,,,,,,,,,,,,,,,,,,,,,,3077.064315499738,None,,,,,,,,,,,,,,,,,,,,,,,,,,,,,,,,,,,prison,25,59,sing,red,3075.0646473998204,None,None,3075.0646473998204,None,,,,,,,,,,,,,,,,,,,,,,,,,,,,,,54,001,2023_Apr_24_1223,ExactRep-v3-final,2021.2.3,59.792984558630245,
,,,,,,,,59,0,59,0,,,,,,,,,,,,,,,,,,,,,,,,,,,,,,,,,,,,,,,,,,,,,,,,,,,,,3079.5669011995196,None,,,,,,,,,,,,,,,,,,,,,,,,,,,,,,,,,,,rock,74,60,silent,blue,3077.5664396993816,None,None,3077.5664396993816,None,,,,,,,,,,,,,,,,,,,,,,,,,,,,,,54,001,2023_Apr_24_1223,ExactRep-v3-final,2021.2.3,59.792984558630245,
,,,,,,,,60,0,60,0,,,,,,,,,,,,,,,,,,,,,,,,,,,,,,,,,,,,,,,,,,,,,,,,,,,,,3082.08603699971,None,,,,,,,,,,,,,,,,,,,,,,,,,,,,,,,,,,,leader,72,61,silent,blue,3080.0726879993454,None,None,3080.0726879993454,None,,,,,,,,,,,,,,,,,,,,,,,,,,,,,,54,001,2023_Apr_24_1223,ExactRep-v3-final,2021.2.3,59.792984558630245,
,,,,,,,,61,0,61,0,,,,,,,,,,,,,,,,,,,,,,,,,,,,,,,,,,,,,,,,,,,,,,,,,,,,,3084.5885921996087,None,,,,,,,,,,,,,,,,,,,,,,,,,,,,,,,,,,,method,32,62,sing,red,3082.5874584997073,None,None,3082.5874584997073,None,,,,,,,,,,,,,,,,,,,,,,,,,,,,,,54,001,2023_Apr_24_1223,ExactRep-v3-final,2021.2.3,59.792984558630245,
,,,,,,,,62,0,62,0,,,,,,,,,,,,,,,,,,,,,,,,,,,,,,,,,,,,,,,,,,,,,,,,,,,,,3087.091074800119,None,,,,,,,,,,,,,,,,,,,,,,,,,,,,,,,,,,,book,83,63,aloud,white,3085.091074999422,None,None,3085.091074999422,None,,,,,,,,,,,,,,,,,,,,,,,,,,,,,,54,001,2023_Apr_24_1223,ExactRep-v3-final,2021.2.3,59.792984558630245,
,,,,,,,,63,0,63,0,,,,,,,,,,,,,,,,,,,,,,,,,,,,,,,,,,,,,,,,,,,,,,,,,,,,,3089.610071799718,None,,,,,,,,,,,,,,,,,,,,,,,,,,,,,,,,,,,length,84,64,aloud,white,3087.5972512997687,None,None,3087.5972512997687,None,,,,,,,,,,,,,,,,,,,,,,,,,,,,,,54,001,2023_Apr_24_1223,ExactRep-v3-final,2021.2.3,59.792984558630245,
,,,,,,,,64,0,64,0,,,,,,,,,,,,,,,,,,,,,,,,,,,,,,,,,,,,,,,,,,,,,,,,,,,,,3092.1294243996963,None,,,,,,,,,,,,,,,,,,,,,,,,,,,,,,,,,,,queen,104,65,aloud,white,3090.114416299388,None,None,3090.114416299388,None,,,,,,,,,,,,,,,,,,,,,,,,,,,,,,54,001,2023_Apr_24_1223,ExactRep-v3-final,2021.2.3,59.792984558630245,
,,,,,,,,65,0,65,0,,,,,,,,,,,,,,,,,,,,,,,,,,,,,,,,,,,,,,,,,,,,,,,,,,,,,3094.6319351997226,None,,,,,,,,,,,,,,,,,,,,,,,,,,,,,,,,,,,mercy,50,66,silent,blue,3092.6297477995977,None,None,3092.6297477995977,None,,,,,,,,,,,,,,,,,,,,,,,,,,,,,,54,001,2023_Apr_24_1223,ExactRep-v3-final,2021.2.3,59.792984558630245,
,,,,,,,,66,0,66,0,,,,,,,,,,,,,,,,,,,,,,,,,,,,,,,,,,,,,,,,,,,,,,,,,,,,,3097.1343406001106,None,,,,,,,,,,,,,,,,,,,,,,,,,,,,,,,,,,,market,54,67,silent,blue,3095.132279800251,None,None,3095.132279800251,None,,,,,,,,,,,,,,,,,,,,,,,,,,,,,,54,001,2023_Apr_24_1223,ExactRep-v3-final,2021.2.3,59.792984558630245,
,,,,,,,,67,0,67,0,,,,,,,,,,,,,,,,,,,,,,,,,,,,,,,,,,,,,,,,,,,,,,,,,,,,,3099.6536965994164,None,,,,,,,,,,,,,,,,,,,,,,,,,,,,,,,,,,,silence,96,68,aloud,white,3097.6415620995685,None,None,3097.6415620995685,None,,,,,,,,,,,,,,,,,,,,,,,,,,,,,,54,001,2023_Apr_24_1223,ExactRep-v3-final,2021.2.3,59.792984558630245,
,,,,,,,,68,0,68,0,,,,,,,,,,,,,,,,,,,,,,,,,,,,,,,,,,,,,,,,,,,,,,,,,,,,,3102.1728007998317,None,,,,,,,,,,,,,,,,,,,,,,,,,,,,,,,,,,,blood,4,69,sing,red,3100.1582001000643,None,None,3100.1582001000643,None,,,,,,,,,,,,,,,,,,,,,,,,,,,,,,54,001,2023_Apr_24_1223,ExactRep-v3-final,2021.2.3,59.792984558630245,
,,,,,,,,69,0,69,0,,,,,,,,,,,,,,,,,,,,,,,,,,,,,,,,,,,,,,,,,,,,,,,,,,,,,3104.675349599682,None,,,,,,,,,,,,,,,,,,,,,,,,,,,,,,,,,,,present,18,70,sing,red,3102.673315499909,None,None,3102.673315499909,None,,,,,,,,,,,,,,,,,,,,,,,,,,,,,,54,001,2023_Apr_24_1223,ExactRep-v3-final,2021.2.3,59.792984558630245,
,,,,,,,,70,0,70,0,,,,,,,,,,,,,,,,,,,,,,,,,,,,,,,,,,,,,,,,,,,,,,,,,,,,,3107.199848299846,None,,,,,,,,,,,,,,,,,,,,,,,,,,,,,,,,,,,wheat,80,71,aloud,white,3105.1829725001007,None,None,3105.1829725001007,None,,,,,,,,,,,,,,,,,,,,,,,,,,,,,,54,001,2023_Apr_24_1223,ExactRep-v3-final,2021.2.3,59.792984558630245,
,,,,,,,,71,0,71,0,,,,,,,,,,,,,,,,,,,,,,,,,,,,,,,,,,,,,,,,,,,,,,,,,,,,,3109.697640899569,None,,,,,,,,,,,,,,,,,,,,,,,,,,,,,,,,,,,car,85,72,aloud,white,3107.69477180019,None,None,3107.69477180019,None,,,,,,,,,,,,,,,,,,,,,,,,,,,,,,54,001,2023_Apr_24_1223,ExactRep-v3-final,2021.2.3,59.792984558630245,
,,,,,,,,72,0,72,0,,,,,,,,,,,,,,,,,,,,,,,,,,,,,,,,,,,,,,,,,,,,,,,,,,,,,3112.199372199364,None,,,,,,,,,,,,,,,,,,,,,,,,,,,,,,,,,,,money,110,73,aloud,white,3110.199142499827,None,None,3110.199142499827,None,,,,,,,,,,,,,,,,,,,,,,,,,,,,,,54,001,2023_Apr_24_1223,ExactRep-v3-final,2021.2.3,59.792984558630245,
,,,,,,,,73,0,73,0,,,,,,,,,,,,,,,,,,,,,,,,,,,,,,,,,,,,,,,,,,,,,,,,,,,,,3114.718721699901,None,,,,,,,,,,,,,,,,,,,,,,,,,,,,,,,,,,,cost,114,74,aloud,white,3112.7069493001327,None,None,3112.7069493001327,None,,,,,,,,,,,,,,,,,,,,,,,,,,,,,,54,001,2023_Apr_24_1223,ExactRep-v3-final,2021.2.3,59.792984558630245,
,,,,,,,,74,0,74,0,,,,,,,,,,,,,,,,,,,,,,,,,,,,,,,,,,,,,,,,,,,,,,,,,,,,,3117.237725299783,None,,,,,,,,,,,,,,,,,,,,,,,,,,,,,,,,,,,gold,12,75,sing,red,3115.2238958999515,None,None,3115.2238958999515,None,,,,,,,,,,,,,,,,,,,,,,,,,,,,,,54,001,2023_Apr_24_1223,ExactRep-v3-final,2021.2.3,59.792984558630245,
,,,,,,,,75,0,75,0,,,,,,,,,,,,,,,,,,,,,,,,,,,,,,,,,,,,,,,,,,,,,,,,,,,,,3119.7570151994005,None,,,,,,,,,,,,,,,,,,,,,,,,,,,,,,,,,,,door,48,76,silent,blue,3117.7451034002006,None,None,3117.7451034002006,None,,,,,,,,,,,,,,,,,,,,,,,,,,,,,,54,001,2023_Apr_24_1223,ExactRep-v3-final,2021.2.3,59.792984558630245,
,,,,,,,,76,0,76,0,,,,,,,,,,,,,,,,,,,,,,,,,,,,,,,,,,,,,,,,,,,,,,,,,,,,,3122.276228199713,None,,,,,,,,,,,,,,,,,,,,,,,,,,,,,,,,,,,blossom,113,77,aloud,white,3120.2608722001314,None,None,3120.2608722001314,None,,,,,,,,,,,,,,,,,,,,,,,,,,,,,,54,001,2023_Apr_24_1223,ExactRep-v3-final,2021.2.3,59.792984558630245,
,,,,,,,,77,0,77,0,,,,,,,,,,,,,,,,,,,,,,,,,,,,,,,,,,,,,,,,,,,,,,,,,,,,,3124.7955024996772,None,,,,,,,,,,,,,,,,,,,,,,,,,,,,,,,,,,,love,46,78,silent,blue,3122.7819221997634,None,None,3122.7819221997634,None,,,,,,,,,,,,,,,,,,,,,,,,,,,,,,54,001,2023_Apr_24_1223,ExactRep-v3-final,2021.2.3,59.792984558630245,
,,,,,,,,78,0,78,0,,,,,,,,,,,,,,,,,,,,,,,,,,,,,,,,,,,,,,,,,,,,,,,,,,,,,3127.2978909993544,None,,,,,,,,,,,,,,,,,,,,,,,,,,,,,,,,,,,breast,98,79,aloud,white,3125.2956959996372,None,None,3125.2956959996372,None,,,,,,,,,,,,,,,,,,,,,,,,,,,,,,54,001,2023_Apr_24_1223,ExactRep-v3-final,2021.2.3,59.792984558630245,
,,,,,,,,79,0,79,0,,,,,,,,,,,,,,,,,,,,,,,,,,,,,,,,,,,,,,,,,,,,,,,,,,,,,3129.80024900008,None,,,,,,,,,,,,,,,,,,,,,,,,,,,,,,,,,,,library,58,80,silent,blue,3127.8011734997854,None,None,3127.8011734997854,None,,,,,,,,,,,,,,,,,,,,,,,,,,,,,,54,001,2023_Apr_24_1223,ExactRep-v3-final,2021.2.3,59.792984558630245,
,,,,,,,,80,0,80,0,,,,,,,,,,,,,,,,,,,,,,,,,,,,,,,,,,,,,,,,,,,,,,,,,,,,,3132.3027900001034,None,,,,,,,,,,,,,,,,,,,,,,,,,,,,,,,,,,,fire,20,81,sing,red,3130.300762999803,None,None,3130.300762999803,None,,,,,,,,,,,,,,,,,,,,,,,,,,,,,,54,001,2023_Apr_24_1223,ExactRep-v3-final,2021.2.3,59.792984558630245,
,,,,,,,,81,0,81,0,,,,,,,,,,,,,,,,,,,,,,,,,,,,,,,,,,,,,,,,,,,,,,,,,,,,,3134.8054178999737,None,,,,,,,,,,,,,,,,,,,,,,,,,,,,,,,,,,,truth,67,82,silent,blue,3132.8044582996517,None,None,3132.8044582996517,None,,,,,,,,,,,,,,,,,,,,,,,,,,,,,,54,001,2023_Apr_24_1223,ExactRep-v3-final,2021.2.3,59.792984558630245,
,,,,,,,,82,0,82,0,,,,,,,,,,,,,,,,,,,,,,,,,,,,,,,,,,,,,,,,,,,,,,,,,,,,,3137.3079348998144,None,,,,,,,,,,,,,,,,,,,,,,,,,,,,,,,,,,,time,16,83,sing,red,3135.3075441000983,None,None,3135.3075441000983,None,,,,,,,,,,,,,,,,,,,,,,,,,,,,,,54,001,2023_Apr_24_1223,ExactRep-v3-final,2021.2.3,59.792984558630245,
,,,,,,,,83,0,83,0,,,,,,,,,,,,,,,,,,,,,,,,,,,,,,,,,,,,,,,,,,,,,,,,,,,,,3139.81046159938,None,,,,,,,,,,,,,,,,,,,,,,,,,,,,,,,,,,,lord,102,84,aloud,white,3137.808319900185,None,None,3137.808319900185,None,,,,,,,,,,,,,,,,,,,,,,,,,,,,,,54,001,2023_Apr_24_1223,ExactRep-v3-final,2021.2.3,59.792984558630245,
,,,,,,,,84,0,84,0,,,,,,,,,,,,,,,,,,,,,,,,,,,,,,,,,,,,,,,,,,,,,,,,,,,,,3142.3297670995817,None,,,,,,,,,,,,,,,,,,,,,,,,,,,,,,,,,,,spirit,79,85,sing,red,3140.3151271995157,None,None,3140.3151271995157,None,,,,,,,,,,,,,,,,,,,,,,,,,,,,,,54,001,2023_Apr_24_1223,ExactRep-v3-final,2021.2.3,59.792984558630245,
,,,,,,,,85,0,85,0,,,,,,,,,,,,,,,,,,,,,,,,,,,,,,,,,,,,,,,,,,,,,,,,,,,,,3144.8321340000257,None,,,,,,,,,,,,,,,,,,,,,,,,,,,,,,,,,,,series,45,86,silent,blue,3142.830174599774,None,None,3142.830174599774,None,,,,,,,,,,,,,,,,,,,,,,,,,,,,,,54,001,2023_Apr_24_1223,ExactRep-v3-final,2021.2.3,59.792984558630245,
,,,,,,,,86,0,86,0,,,,,,,,,,,,,,,,,,,,,,,,,,,,,,,,,,,,,,,,,,,,,,,,,,,,,3147.3348417999223,None,,,,,,,,,,,,,,,,,,,,,,,,,,,,,,,,,,,hope,76,87,silent,blue,3145.334374300204,None,None,3145.334374300204,None,,,,,,,,,,,,,,,,,,,,,,,,,,,,,,54,001,2023_Apr_24_1223,ExactRep-v3-final,2021.2.3,59.792984558630245,
,,,,,,,,87,0,87,0,,,,,,,,,,,,,,,,,,,,,,,,,,,,,,,,,,,,,,,,,,,,,,,,,,,,,3149.8538151998073,None,,,,,,,,,,,,,,,,,,,,,,,,,,,,,,,,,,,origin,0,88,sing,red,3147.8382049994543,None,None,3147.8382049994543,None,,,,,,,,,,,,,,,,,,,,,,,,,,,,,,54,001,2023_Apr_24_1223,ExactRep-v3-final,2021.2.3,59.792984558630245,
,,,,,,,,88,0,88,0,,,,,,,,,,,,,,,,,,,,,,,,,,,,,,,,,,,,,,,,,,,,,,,,,,,,,3152.37283870019,None,,,,,,,,,,,,,,,,,,,,,,,,,,,,,,,,,,,journal,39,89,silent,blue,3150.3576123993844,None,None,3150.3576123993844,None,,,,,,,,,,,,,,,,,,,,,,,,,,,,,,54,001,2023_Apr_24_1223,ExactRep-v3-final,2021.2.3,59.792984558630245,
,,,,,,,,89,0,89,0,,,,,,,,,,,,,,,,,,,,,,,,,,,,,,,,,,,,,,,,,,,,,,,,,,,,,3154.8755548000336,None,,,,,,,,,,,,,,,,,,,,,,,,,,,,,,,,,,,apple,21,90,sing,red,3152.873832100071,None,None,3152.873832100071,None,,,,,,,,,,,,,,,,,,,,,,,,,,,,,,54,001,2023_Apr_24_1223,ExactRep-v3-final,2021.2.3,59.792984558630245,
,,,,,,,,90,0,90,0,,,,,,,,,,,,,,,,,,,,,,,,,,,,,,,,,,,,,,,,,,,,,,,,,,,,,3157.3780488995835,None,,,,,,,,,,,,,,,,,,,,,,,,,,,,,,,,,,,table,68,91,silent,blue,3155.377363299951,None,None,3155.377363299951,None,,,,,,,,,,,,,,,,,,,,,,,,,,,,,,54,001,2023_Apr_24_1223,ExactRep-v3-final,2021.2.3,59.792984558630245,
,,,,,,,,91,0,91,0,,,,,,,,,,,,,,,,,,,,,,,,,,,,,,,,,,,,,,,,,,,,,,,,,,,,,3159.880495400168,None,,,,,,,,,,,,,,,,,,,,,,,,,,,,,,,,,,,engine,93,92,aloud,white,3157.879835399799,None,None,3157.879835399799,None,,,,,,,,,,,,,,,,,,,,,,,,,,,,,,54,001,2023_Apr_24_1223,ExactRep-v3-final,2021.2.3,59.792984558630245,
,,,,,,,,92,0,92,0,,,,,,,,,,,,,,,,,,,,,,,,,,,,,,,,,,,,,,,,,,,,,,,,,,,,,3162.383060899563,None,,,,,,,,,,,,,,,,,,,,,,,,,,,,,,,,,,,trouble,11,93,sing,red,3160.3824884993955,None,None,3160.3824884993955,None,,,,,,,,,,,,,,,,,,,,,,,,,,,,,,54,001,2023_Apr_24_1223,ExactRep-v3-final,2021.2.3,59.792984558630245,
,,,,,,,,93,0,93,0,,,,,,,,,,,,,,,,,,,,,,,,,,,,,,,,,,,,,,,,,,,,,,,,,,,,,3164.885557900183,None,,,,,,,,,,,,,,,,,,,,,,,,,,,,,,,,,,,law,14,94,sing,red,3162.8849113993347,None,None,3162.8849113993347,None,,,,,,,,,,,,,,,,,,,,,,,,,,,,,,54,001,2023_Apr_24_1223,ExactRep-v3-final,2021.2.3,59.792984558630245,
,,,,,,,,94,0,94,0,,,,,,,,,,,,,,,,,,,,,,,,,,,,,,,,,,,,,,,,,,,,,,,,,,,,,3167.388054399751,None,,,,,,,,,,,,,,,,,,,,,,,,,,,,,,,,,,,vision,36,95,sing,red,3165.3889894001186,None,None,3165.3889894001186,None,,,,,,,,,,,,,,,,,,,,,,,,,,,,,,54,001,2023_Apr_24_1223,ExactRep-v3-final,2021.2.3,59.792984558630245,
,,,,,,,,95,0,95,0,,,,,,,,,,,,,,,,,,,,,,,,,,,,,,,,,,,,,,,,,,,,,,,,,,,,,3169.8905678996816,None,,,,,,,,,,,,,,,,,,,,,,,,,,,,,,,,,,,corn,19,96,sing,red,3167.8882924001664,None,None,3167.8882924001664,None,,,,,,,,,,,,,,,,,,,,,,,,,,,,,,54,001,2023_Apr_24_1223,ExactRep-v3-final,2021.2.3,59.792984558630245,
,,,,,,,,96,0,96,0,,,,,,,,,,,,,,,,,,,,,,,,,,,,,,,,,,,,,,,,,,,,,,,,,,,,,3172.3929917002097,None,,,,,,,,,,,,,,,,,,,,,,,,,,,,,,,,,,,bowl,55,97,silent,blue,3170.3931478997692,None,None,3170.3931478997692,None,,,,,,,,,,,,,,,,,,,,,,,,,,,,,,54,001,2023_Apr_24_1223,ExactRep-v3-final,2021.2.3,59.792984558630245,
,,,,,,,,97,0,97,0,,,,,,,,,,,,,,,,,,,,,,,,,,,,,,,,,,,,,,,,,,,,,,,,,,,,,3174.8954088995233,None,,,,,,,,,,,,,,,,,,,,,,,,,,,,,,,,,,,meadow,91,98,aloud,white,3172.8963639996946,None,None,3172.8963639996946,None,,,,,,,,,,,,,,,,,,,,,,,,,,,,,,54,001,2023_Apr_24_1223,ExactRep-v3-final,2021.2.3,59.792984558630245,
,,,,,,,,98,0,98,0,,,,,,,,,,,,,,,,,,,,,,,,,,,,,,,,,,,,,,,,,,,,,,,,,,,,,3177.397839299403,None,,,,,,,,,,,,,,,,,,,,,,,,,,,,,,,,,,,hall,118,99,aloud,white,3175.3978070998564,None,None,3175.3978070998564,None,,,,,,,,,,,,,,,,,,,,,,,,,,,,,,54,001,2023_Apr_24_1223,ExactRep-v3-final,2021.2.3,59.792984558630245,
,,,,,,,,99,0,99,0,,,,,,,,,,,,,,,,,,,,,,,,,,,,,,,,,,,,,,,,,,,,,,,,,,,,,3179.9172224998474,None,,,,,,,,,,,,,,,,,,,,,,,,,,,,,,,,,,,master,17,100,sing,red,3177.905201399699,None,None,3177.905201399699,None,,,,,,,,,,,,,,,,,,,,,,,,,,,,,,54,001,2023_Apr_24_1223,ExactRep-v3-final,2021.2.3,59.792984558630245,
,,,,,,,,100,0,100,0,,,,,,,,,,,,,,,,,,,,,,,,,,,,,,,,,,,,,,,,,,,,,,,,,,,,,3182.419746699743,None,,,,,,,,,,,,,,,,,,,,,,,,,,,,,,,,,,,horse,61,101,silent,blue,3180.4186899997294,None,None,3180.4186899997294,None,,,,,,,,,,,,,,,,,,,,,,,,,,,,,,54,001,2023_Apr_24_1223,ExactRep-v3-final,2021.2.3,59.792984558630245,
,,,,,,,,101,0,101,0,,,,,,,,,,,,,,,,,,,,,,,,,,,,,,,,,,,,,,,,,,,,,,,,,,,,,3184.9390177000314,None,,,,,,,,,,,,,,,,,,,,,,,,,,,,,,,,,,,bird,52,102,silent,blue,3182.925979900174,None,None,3182.925979900174,None,,,,,,,,,,,,,,,,,,,,,,,,,,,,,,54,001,2023_Apr_24_1223,ExactRep-v3-final,2021.2.3,59.792984558630245,
,,,,,,,,102,0,102,0,,,,,,,,,,,,,,,,,,,,,,,,,,,,,,,,,,,,,,,,,,,,,,,,,,,,,3187.4412744995207,None,,,,,,,,,,,,,,,,,,,,,,,,,,,,,,,,,,,colony,66,103,silent,blue,3185.439186600037,None,None,3185.439186600037,None,,,,,,,,,,,,,,,,,,,,,,,,,,,,,,54,001,2023_Apr_24_1223,ExactRep-v3-final,2021.2.3,59.792984558630245,
,,,,,,,,103,0,103,0,,,,,,,,,,,,,,,,,,,,,,,,,,,,,,,,,,,,,,,,,,,,,,,,,,,,,3189.960620299913,None,,,,,,,,,,,,,,,,,,,,,,,,,,,,,,,,,,,doctor,59,104,silent,blue,3187.9489011997357,None,None,3187.9489011997357,None,,,,,,,,,,,,,,,,,,,,,,,,,,,,,,54,001,2023_Apr_24_1223,ExactRep-v3-final,2021.2.3,59.792984558630245,
,,,,,,,,104,0,104,0,,,,,,,,,,,,,,,,,,,,,,,,,,,,,,,,,,,,,,,,,,,,,,,,,,,,,3192.463067399338,None,,,,,,,,,,,,,,,,,,,,,,,,,,,,,,,,,,,hotel,15,105,sing,red,3190.4621917996556,None,None,3190.4621917996556,None,,,,,,,,,,,,,,,,,,,,,,,,,,,,,,54,001,2023_Apr_24_1223,ExactRep-v3-final,2021.2.3,59.792984558630245,
,,,,,,,,105,0,105,0,,,,,,,,,,,,,,,,,,,,,,,,,,,,,,,,,,,,,,,,,,,,,,,,,,,,,3194.967305299826,None,,,,,,,,,,,,,,,,,,,,,,,,,,,,,,,,,,,month,7,106,sing,red,3192.965132200159,None,None,3192.965132200159,None,,,,,,,,,,,,,,,,,,,,,,,,,,,,,,54,001,2023_Apr_24_1223,ExactRep-v3-final,2021.2.3,59.792984558630245,
,,,,,,,,106,0,106,0,,,,,,,,,,,,,,,,,,,,,,,,,,,,,,,,,,,,,,,,,,,,,,,,,,,,,3197.501297700219,None,,,,,,,,,,,,,,,,,,,,,,,,,,,,,,,,,,,bottle,105,107,aloud,white,3195.4888261994347,None,None,3195.4888261994347,None,,,,,,,,,,,,,,,,,,,,,,,,,,,,,,54,001,2023_Apr_24_1223,ExactRep-v3-final,2021.2.3,59.792984558630245,
,,,,,,,,107,0,107,0,,,,,,,,,,,,,,,,,,,,,,,,,,,,,,,,,,,,,,,,,,,,,,,,,,,,,3200.0039991997182,None,,,,,,,,,,,,,,,,,,,,,,,,,,,,,,,,,,,palace,71,108,silent,blue,3198.001941399649,None,None,3198.001941399649,None,,,,,,,,,,,,,,,,,,,,,,,,,,,,,,54,001,2023_Apr_24_1223,ExactRep-v3-final,2021.2.3,59.792984558630245,
,,,,,,,,108,0,108,0,,,,,,,,,,,,,,,,,,,,,,,,,,,,,,,,,,,,,,,,,,,,,,,,,,,,,3202.5232008993626,None,,,,,,,,,,,,,,,,,,,,,,,,,,,,,,,,,,,fault,49,109,silent,blue,3200.508562799543,None,None,3200.508562799543,None,,,,,,,,,,,,,,,,,,,,,,,,,,,,,,54,001,2023_Apr_24_1223,ExactRep-v3-final,2021.2.3,59.792984558630245,
,,,,,,,,109,0,109,0,,,,,,,,,,,,,,,,,,,,,,,,,,,,,,,,,,,,,,,,,,,,,,,,,,,,,3205.025599000044,None,,,,,,,,,,,,,,,,,,,,,,,,,,,,,,,,,,,fun,97,110,aloud,white,3203.0252794995904,None,None,3203.0252794995904,None,,,,,,,,,,,,,,,,,,,,,,,,,,,,,,54,001,2023_Apr_24_1223,ExactRep-v3-final,2021.2.3,59.792984558630245,
,,,,,,,,110,0,110,0,,,,,,,,,,,,,,,,,,,,,,,,,,,,,,,,,,,,,,,,,,,,,,,,,,,,,3207.544877499342,None,,,,,,,,,,,,,,,,,,,,,,,,,,,,,,,,,,,square,94,111,aloud,white,3205.529206899926,None,None,3205.529206899926,None,,,,,,,,,,,,,,,,,,,,,,,,,,,,,,54,001,2023_Apr_24_1223,ExactRep-v3-final,2021.2.3,59.792984558630245,
,,,,,,,,111,0,111,0,,,,,,,,,,,,,,,,,,,,,,,,,,,,,,,,,,,,,,,,,,,,,,,,,,,,,3210.0473970994353,None,,,,,,,,,,,,,,,,,,,,,,,,,,,,,,,,,,,soil,9,112,sing,red,3208.047889799811,None,None,3208.047889799811,None,,,,,,,,,,,,,,,,,,,,,,,,,,,,,,54,001,2023_Apr_24_1223,ExactRep-v3-final,2021.2.3,59.792984558630245,
,,,,,,,,112,0,112,0,,,,,,,,,,,,,,,,,,,,,,,,,,,,,,,,,,,,,,,,,,,,,,,,,,,,,3212.54987099953,None,,,,,,,,,,,,,,,,,,,,,,,,,,,,,,,,,,,storm,8,113,sing,red,3210.550902599469,None,None,3210.550902599469,None,,,,,,,,,,,,,,,,,,,,,,,,,,,,,,54,001,2023_Apr_24_1223,ExactRep-v3-final,2021.2.3,59.792984558630245,
,,,,,,,,113,0,113,0,,,,,,,,,,,,,,,,,,,,,,,,,,,,,,,,,,,,,,,,,,,,,,,,,,,,,3215.0690836999565,None,,,,,,,,,,,,,,,,,,,,,,,,,,,,,,,,,,,amount,73,114,silent,blue,3213.0556347994134,None,None,3213.0556347994134,None,,,,,,,,,,,,,,,,,,,,,,,,,,,,,,54,001,2023_Apr_24_1223,ExactRep-v3-final,2021.2.3,59.792984558630245,
,,,,,,,,114,0,114,0,,,,,,,,,,,,,,,,,,,,,,,,,,,,,,,,,,,,,,,,,,,,,,,,,,,,,3217.5715888999403,None,,,,,,,,,,,,,,,,,,,,,,,,,,,,,,,,,,,virtue,24,115,sing,red,3215.5694201001897,None,None,3215.5694201001897,None,,,,,,,,,,,,,,,,,,,,,,,,,,,,,,54,001,2023_Apr_24_1223,ExactRep-v3-final,2021.2.3,59.792984558630245,
,,,,,,,,115,0,115,0,,,,,,,,,,,,,,,,,,,,,,,,,,,,,,,,,,,,,,,,,,,,,,,,,,,,,3220.0906026000157,None,,,,,,,,,,,,,,,,,,,,,,,,,,,,,,,,,,,bar,81,116,aloud,white,3218.0755699994043,None,None,3218.0755699994043,None,,,,,,,,,,,,,,,,,,,,,,,,,,,,,,54,001,2023_Apr_24_1223,ExactRep-v3-final,2021.2.3,59.792984558630245,
,,,,,,,,116,0,116,0,,,,,,,,,,,,,,,,,,,,,,,,,,,,,,,,,,,,,,,,,,,,,,,,,,,,,3222.610029200092,None,,,,,,,,,,,,,,,,,,,,,,,,,,,,,,,,,,,devil,41,117,silent,blue,3220.5945154000074,None,None,3220.5945154000074,None,,,,,,,,,,,,,,,,,,,,,,,,,,,,,,54,001,2023_Apr_24_1223,ExactRep-v3-final,2021.2.3,59.792984558630245,
,,,,,,,,117,0,117,0,,,,,,,,,,,,,,,,,,,,,,,,,,,,,,,,,,,,,,,,,,,,,,,,,,,,,3225.1292778998613,None,,,,,,,,,,,,,,,,,,,,,,,,,,,,,,,,,,,shock,51,118,silent,blue,3223.118773999624,None,None,3223.118773999624,None,,,,,,,,,,,,,,,,,,,,,,,,,,,,,,54,001,2023_Apr_24_1223,ExactRep-v3-final,2021.2.3,59.792984558630245,
,,,,,,,,118,0,118,0,,,,,,,,,,,,,,,,,,,,,,,,,,,,,,,,,,,,,,,,,,,,,,,,,,,,,3227.6315954998136,None,,,,,,,,,,,,,,,,,,,,,,,,,,,,,,,,,,,fact,1,119,sing,red,3225.6295174993575,None,None,3225.6295174993575,None,,,,,,,,,,,,,,,,,,,,,,,,,,,,,,54,001,2023_Apr_24_1223,ExactRep-v3-final,2021.2.3,59.792984558630245,
,,,,,,,,119,0,119,0,,,,,,,,,,,,,,,,,,,,,,,,,,,,,,,,,,,,,,,,,,,,,,,,,,,,,3230.150947299786,None,,,,,,,,,,,,,,,,,,,,,,,,,,,,,,,,,,,shoes,75,120,silent,blue,3228.1354553997517,None,None,3228.1354553997517,None,,,,,,,,,,,,,,,,,,,,,,,,,,,,,,54,001,2023_Apr_24_1223,ExactRep-v3-final,2021.2.3,59.792984558630245,
,,,,,,,,,,,,,,,,,,,,,,,,,,,,,,,,,,,,,,,,,,,,,,,,,,,,,,,,,,,,,,,,,,,,,,,,,,,,,,,,,,,,,,,,,,,,,,,,,,,,,,,,,,,,,,3230.652784699574,None,space,1.9214604999870062,3240.629328499548,None,,,,,,,,,,,,,,,,,,,,,,,,54,001,2023_Apr_24_1223,ExactRep-v3-final,2021.2.3,59.792984558630245,
,,,,,,,,,,,,,,,,,,,,,,,,,,,,,,,,,,,,,,,,,,,,,,,,,,,,,,,,,,,,,,,,,,,,,,,,,,,,,,,,,,,,,,,,,,,,,,,,,,,,,,,,,,,,,,,,,,,,3242.581707299687,None,space,33.95280399918556,3252.5580095993355,None,,,,,,,,,,,,,,,,,,54,001,2023_Apr_24_1223,ExactRep-v3-final,2021.2.3,59.792984558630245,
,,,,,,,,,,,,0,0,0,0,,,,,,,,,,,,,,,,,,,,,,,,,,,,,,,,,,,,,,,,,,,,,,,,,3291.2616916000843,None,,,,,,,,,,,,,,,,,,,,,,,,,,,,,,,,,,,,,,,,,,,,,,,,,,,,,,,,,science,151,1,silent,new,blue,3287.066443699412,None,n,3287.066443699412,None,"['n', 'return']","[1.9403136000037193, 4.156042600050569]",3287.066443699412,None,,,54,001,2023_Apr_24_1223,ExactRep-v3-final,2021.2.3,59.792984558630245,
,,,,,,,,,,,,1,0,1,0,,,,,,,,,,,,,,,,,,,,,,,,,,,,,,,,,,,,,,,,,,,,,,,,,3293.8477485999465,None,,,,,,,,,,,,,,,,,,,,,,,,,,,,,,,,,,,,,,,,,,,,,,,,,,,,,,,,,garden,209,2,sing,new,red,3291.771253099665,None,n,3291.771253099665,None,"['n', 'return']","[1.4194945003837347, 2.035194500349462]",3291.771253099665,None,,,54,001,2023_Apr_24_1223,ExactRep-v3-final,2021.2.3,59.792984558630245,
,,,,,,,,,,,,2,0,2,0,,,,,,,,,,,,,,,,,,,,,,,,,,,,,,,,,,,,,,,,,,,,,,,,,3296.366818599403,None,,,,,,,,,,,,,,,,,,,,,,,,,,,,,,,,,,,,,,,,,,,,,,,,,,,,,,,,,kiss,131,3,silent,new,blue,3294.358879399486,None,n,3294.358879399486,None,"['n', 'return']","[1.3596036992967129, 1.9675939995795488]",3294.358879399486,None,,,54,001,2023_Apr_24_1223,ExactRep-v3-final,2021.2.3,59.792984558630245,
,,,,,,,,,,,,3,0,3,0,,,,,,,,,,,,,,,,,,,,,,,,,,,,,,,,,,,,,,,,,,,,,,,,,3300.037208199501,None,,,,,,,,,,,,,,,,,,,,,,,,,,,,,,,,,,,,,,,,,,,,,,,,,,,,,,,,,teacher,178,4,aloud,new,white,3296.8782166000456,None,n,3296.8782166000456,None,"['n', 'return']","[2.5763165997341275, 3.1122834999114275]",3296.8782166000456,None,,,54,001,2023_Apr_24_1223,ExactRep-v3-final,2021.2.3,59.792984558630245,
,,,,,,,,,,,,4,0,4,0,,,,,,,,,,,,,,,,,,,,,,,,,,,,,,,,,,,,,,,,,,,,,,,,,3303.023528999649,None,,,,,,,,,,,,,,,,,,,,,,,,,,,,,,,,,,,,,,,,,,,,,,,,,,,,,,,,,pride,239,5,sing,new,red,3300.547170699574,None,y,3300.547170699574,None,"['y', 'return']","[1.72356509976089, 2.4352855999022722]",3300.547170699574,None,,,54,001,2023_Apr_24_1223,ExactRep-v3-final,2021.2.3,59.792984558630245,
,,,,,,,,,,,,5,0,5,0,,,,,,,,,,,,,,,,,,,,,,,,,,,,,,,,,,,,,,,,,,,,,,,,,3309.329814899713,None,,,,,,,,,,,,,,,,,,,,,,,,,,,,,,,,,,,,,,,,,,,,,,,,,,,,,,,,,world,180,6,aloud,new,white,3303.527919099666,None,n,3303.527919099666,None,"['return', 'n', 'return']","[2.934767300263047, 4.894542300142348, 5.766823500394821]",3303.527919099666,None,,,54,001,2023_Apr_24_1223,ExactRep-v3-final,2021.2.3,59.792984558630245,
,,,,,,,,,,,,6,0,6,0,,,,,,,,,,,,,,,,,,,,,,,,,,,,,,,,,,,,,,,,,,,,,,,,,3311.9490399993956,None,,,,,,,,,,,,,,,,,,,,,,,,,,,,,,,,,,,,,,,,,,,,,,,,,,,,,,,,,hide,63,7,silent,old,blue,3309.837551199831,None,y,3309.837551199831,None,"['y', 'return']","[1.5051865000277758, 2.072962399572134]",3309.837551199831,None,,,54,001,2023_Apr_24_1223,ExactRep-v3-final,2021.2.3,59.792984558630245,
,,,,,,,,,,,,7,0,7,0,,,,,,,,,,,,,,,,,,,,,,,,,,,,,,,,,,,,,,,,,,,,,,,,,3314.468302499503,None,,,,,,,,,,,,,,,,,,,,,,,,,,,,,,,,,,,,,,,,,,,,,,,,,,,,,,,,,truth,67,8,silent,old,blue,3312.4583457000554,None,y,3312.4583457000554,None,"['y', 'return']","[1.24411900062114, 1.9642163002863526]",3312.4583457000554,None,,,54,001,2023_Apr_24_1223,ExactRep-v3-final,2021.2.3,59.792984558630245,
,,,,,,,,,,,,8,0,8,0,,,,,,,,,,,,,,,,,,,,,,,,,,,,,,,,,,,,,,,,,,,,,,,,,3316.720555000007,None,,,,,,,,,,,,,,,,,,,,,,,,,,,,,,,,,,,,,,,,,,,,,,,,,,,,,,,,,moment,126,9,silent,new,blue,3314.9751289999112,None,n,3314.9751289999112,None,"['n', 'return']","[1.1193631002679467, 1.7034434005618095]",3314.9751289999112,None,,,54,001,2023_Apr_24_1223,ExactRep-v3-final,2021.2.3,59.792984558630245,
,,,,,,,,,,,,9,0,9,0,,,,,,,,,,,,,,,,,,,,,,,,,,,,,,,,,,,,,,,,,,,,,,,,,3319.106221999973,None,,,,,,,,,,,,,,,,,,,,,,,,,,,,,,,,,,,,,,,,,,,,,,,,,,,,,,,,,camp,193,10,sing,new,red,3317.229055999778,None,n,3317.229055999778,None,"['n', 'return']","[1.1534203998744488, 1.8334760004654527]",3317.229055999778,None,,,54,001,2023_Apr_24_1223,ExactRep-v3-final,2021.2.3,59.792984558630245,
,,,,,,,,,,,,10,0,10,0,,,,,,,,,,,,,,,,,,,,,,,,,,,,,,,,,,,,,,,,,,,,,,,,,3321.9091560002416,None,,,,,,,,,,,,,,,,,,,,,,,,,,,,,,,,,,,,,,,,,,,,,,,,,,,,,,,,,arm,129,11,silent,new,blue,3319.613406700082,None,n,3319.613406700082,None,"['n', 'return']","[1.5611695004627109, 2.257137100212276]",3319.613406700082,None,,,54,001,2023_Apr_24_1223,ExactRep-v3-final,2021.2.3,59.792984558630245,
,,,,,,,,,,,,11,0,11,0,,,,,,,,,,,,,,,,,,,,,,,,,,,,,,,,,,,,,,,,,,,,,,,,,3324.895464499481,None,,,,,,,,,,,,,,,,,,,,,,,,,,,,,,,,,,,,,,,,,,,,,,,,,,,,,,,,,doctor,59,12,silent,old,blue,3322.42594440002,None,n,3322.42594440002,None,"['n', 'return']","[1.6686302004382014, 2.428594700060785]",3322.42594440002,None,,,54,001,2023_Apr_24_1223,ExactRep-v3-final,2021.2.3,59.792984558630245,
,,,,,,,,,,,,12,0,12,0,,,,,,,,,,,,,,,,,,,,,,,,,,,,,,,,,,,,,,,,,,,,,,,,,3327.781608699821,None,,,,,,,,,,,,,,,,,,,,,,,,,,,,,,,,,,,,,,,,,,,,,,,,,,,,,,,,,season,33,13,sing,old,red,3325.399101499468,None,n,3325.399101499468,None,"['n', 'return']","[1.6155758993700147, 2.335530599579215]",3325.399101499468,None,,,54,001,2023_Apr_24_1223,ExactRep-v3-final,2021.2.3,59.792984558630245,
,,,,,,,,,,,,13,0,13,0,,,,,,,,,,,,,,,,,,,,,,,,,,,,,,,,,,,,,,,,,,,,,,,,,3330.167310799472,None,,,,,,,,,,,,,,,,,,,,,,,,,,,,,,,,,,,,,,,,,,,,,,,,,,,,,,,,,wheat,80,14,aloud,old,white,3328.284721999429,None,y,3328.284721999429,None,"['y', 'return']","[1.2020097998902202, 1.8418322997167706]",3328.284721999429,None,,,54,001,2023_Apr_24_1223,ExactRep-v3-final,2021.2.3,59.792984558630245,
,,,,,,,,,,,,14,0,14,0,,,,,,,,,,,,,,,,,,,,,,,,,,,,,,,,,,,,,,,,,,,,,,,,,3332.836686800234,None,,,,,,,,,,,,,,,,,,,,,,,,,,,,,,,,,,,,,,,,,,,,,,,,,,,,,,,,,storm,8,15,sing,old,red,3330.6826780997217,None,y,3330.6826780997217,None,"['y', 'return']","[1.2439636997878551, 2.1078335996717215]",3330.6826780997217,None,,,54,001,2023_Apr_24_1223,ExactRep-v3-final,2021.2.3,59.792984558630245,
,,,,,,,,,,,,15,0,15,0,,,,,,,,,,,,,,,,,,,,,,,,,,,,,,,,,,,,,,,,,,,,,,,,,3335.355835000053,None,,,,,,,,,,,,,,,,,,,,,,,,,,,,,,,,,,,,,,,,,,,,,,,,,,,,,,,,,author,134,16,silent,new,blue,3333.348939099349,None,n,3333.348939099349,None,"['n', 'return']","[1.273453900590539, 1.969564100727439]",3333.348939099349,None,,,54,001,2023_Apr_24_1223,ExactRep-v3-final,2021.2.3,59.792984558630245,
,,,,,,,,,,,,16,0,16,0,,,,,,,,,,,,,,,,,,,,,,,,,,,,,,,,,,,,,,,,,,,,,,,,,3338.49859079998,None,,,,,,,,,,,,,,,,,,,,,,,,,,,,,,,,,,,,,,,,,,,,,,,,,,,,,,,,,shore,128,17,silent,new,blue,3335.865513499826,None,n,3335.865513499826,None,"['n', 'return']","[1.669109900481999, 2.5811448004096746]",3335.865513499826,None,,,54,001,2023_Apr_24_1223,ExactRep-v3-final,2021.2.3,59.792984558630245,
,,,,,,,,,,,,17,0,17,0,,,,,,,,,,,,,,,,,,,,,,,,,,,,,,,,,,,,,,,,,,,,,,,,,3341.9127350002527,None,,,,,,,,,,,,,,,,,,,,,,,,,,,,,,,,,,,,,,,,,,,,,,,,,,,,,,,,,hour,228,18,aloud,new,white,3339.0179811995476,None,n,3339.0179811995476,None,"['n', 'return']","[2.14879020024091, 2.8605736000463367]",3339.0179811995476,None,,,54,001,2023_Apr_24_1223,ExactRep-v3-final,2021.2.3,59.792984558630245,
,,,,,,,,,,,,18,0,18,0,,,,,,,,,,,,,,,,,,,,,,,,,,,,,,,,,,,,,,,,,,,,,,,,,3344.9988151993603,None,,,,,,,,,,,,,,,,,,,,,,,,,,,,,,,,,,,,,,,,,,,,,,,,,,,,,,,,,method,32,19,sing,old,red,3342.422587099485,None,y,3342.422587099485,None,"['y', 'return']","[1.983967199921608, 2.543976300396025]",3342.422587099485,None,,,54,001,2023_Apr_24_1223,ExactRep-v3-final,2021.2.3,59.792984558630245,
,,,,,,,,,,,,19,0,19,0,,,,,,,,,,,,,,,,,,,,,,,,,,,,,,,,,,,,,,,,,,,,,,,,,3347.5023716995493,None,,,,,,,,,,,,,,,,,,,,,,,,,,,,,,,,,,,,,,,,,,,,,,,,,,,,,,,,,factory,156,20,silent,new,blue,3345.50636999961,None,n,3345.50636999961,None,"['n', 'return']","[1.2202522000297904, 1.9561741007491946]",3345.50636999961,None,,,54,001,2023_Apr_24_1223,ExactRep-v3-final,2021.2.3,59.792984558630245,
,,,,,,,,,,,,20,0,20,0,,,,,,,,,,,,,,,,,,,,,,,,,,,,,,,,,,,,,,,,,,,,,,,,,3350.971427800134,None,,,,,,,,,,,,,,,,,,,,,,,,,,,,,,,,,,,,,,,,,,,,,,,,,,,,,,,,,virtue,24,21,sing,old,red,3348.0123201999813,None,y,3348.0123201999813,None,"['y', 'return']","[2.410457200370729, 2.9222047002986073]",3348.0123201999813,None,,,54,001,2023_Apr_24_1223,ExactRep-v3-final,2021.2.3,59.792984558630245,
,,,,,,,,,,,,21,0,21,0,,,,,,,,,,,,,,,,,,,,,,,,,,,,,,,,,,,,,,,,,,,,,,,,,3353.474070600234,None,,,,,,,,,,,,,,,,,,,,,,,,,,,,,,,,,,,,,,,,,,,,,,,,,,,,,,,,,dream,164,22,aloud,new,white,3351.488184100017,None,y,3351.488184100017,None,"['y', 'return']","[1.2623565001413226, 1.9505041996017098]",3351.488184100017,None,,,54,001,2023_Apr_24_1223,ExactRep-v3-final,2021.2.3,59.792984558630245,
,,,,,,,,,,,,22,0,22,0,,,,,,,,,,,,,,,,,,,,,,,,,,,,,,,,,,,,,,,,,,,,,,,,,3356.0099193993956,None,,,,,,,,,,,,,,,,,,,,,,,,,,,,,,,,,,,,,,,,,,,,,,,,,,,,,,,,,picture,190,23,aloud,new,white,3353.9892261996865,None,y,3353.9892261996865,None,"['y', 'return']","[1.2013667998835444, 1.9772776002064347]",3353.9892261996865,None,,,54,001,2023_Apr_24_1223,ExactRep-v3-final,2021.2.3,59.792984558630245,
,,,,,,,,,,,,23,0,23,0,,,,,,,,,,,,,,,,,,,,,,,,,,,,,,,,,,,,,,,,,,,,,,,,,3358.445621199906,None,,,,,,,,,,,,,,,,,,,,,,,,,,,,,,,,,,,,,,,,,,,,,,,,,,,,,,,,,time,16,24,sing,old,red,3356.5165521996096,None,y,3356.5165521996096,None,"['y', 'return']","[1.2179997004568577, 1.8900092002004385]",3356.5165521996096,None,,,54,001,2023_Apr_24_1223,ExactRep-v3-final,2021.2.3,59.792984558630245,
,,,,,,,,,,,,24,0,24,0,,,,,,,,,,,,,,,,,,,,,,,,,,,,,,,,,,,,,,,,,,,,,,,,,3360.7990699000657,None,,,,,,,,,,,,,,,,,,,,,,,,,,,,,,,,,,,,,,,,,,,,,,,,,,,,,,,,,cat,112,25,aloud,old,white,3358.951323499903,None,y,3358.951323499903,None,"['y', 'return']","[1.1030558999627829, 1.7992231994867325]",3358.951323499903,None,,,54,001,2023_Apr_24_1223,ExactRep-v3-final,2021.2.3,59.792984558630245,
,,,,,,,,,,,,25,0,25,0,,,,,,,,,,,,,,,,,,,,,,,,,,,,,,,,,,,,,,,,,,,,,,,,,3364.2346427999437,None,,,,,,,,,,,,,,,,,,,,,,,,,,,,,,,,,,,,,,,,,,,,,,,,,,,,,,,,,church,150,26,silent,new,blue,3361.30795559939,None,y,3361.30795559939,None,"['y', 'return']","[2.2105465000495315, 2.882506599649787]",3361.30795559939,None,,,54,001,2023_Apr_24_1223,ExactRep-v3-final,2021.2.3,59.792984558630245,
,,,,,,,,,,,,26,0,26,0,,,,,,,,,,,,,,,,,,,,,,,,,,,,,,,,,,,,,,,,,,,,,,,,,3367.2545301998034,None,,,,,,,,,,,,,,,,,,,,,,,,,,,,,,,,,,,,,,,,,,,,,,,,,,,,,,,,,grass,166,27,aloud,new,white,3364.745648299344,None,y,3364.745648299344,None,"['y', 'return']","[1.7009878996759653, 2.4689080994576216]",3364.745648299344,None,,,54,001,2023_Apr_24_1223,ExactRep-v3-final,2021.2.3,59.792984558630245,
,,,,,,,,,,,,27,0,27,0,,,,,,,,,,,,,,,,,,,,,,,,,,,,,,,,,,,,,,,,,,,,,,,,,3370.2406556000933,None,,,,,,,,,,,,,,,,,,,,,,,,,,,,,,,,,,,,,,,,,,,,,,,,,,,,,,,,,child,124,28,silent,new,blue,3367.7626430997625,None,n,3367.7626430997625,None,"['n', 'return']","[1.7239360995590687, 2.4439535001292825]",3367.7626430997625,None,,,54,001,2023_Apr_24_1223,ExactRep-v3-final,2021.2.3,59.792984558630245,
,,,,,,,,,,,,28,0,28,0,,,,,,,,,,,,,,,,,,,,,,,,,,,,,,,,,,,,,,,,,,,,,,,,,3372.5106653999537,None,,,,,,,,,,,,,,,,,,,,,,,,,,,,,,,,,,,,,,,,,,,,,,,,,,,,,,,,,poet,227,29,sing,new,red,3370.7577801998705,None,n,3370.7577801998705,None,"['n', 'return']","[1.1927679004147649, 1.7047650003805757]",3370.7577801998705,None,,,54,001,2023_Apr_24_1223,ExactRep-v3-final,2021.2.3,59.792984558630245,
,,,,,,,,,,,,29,0,29,0,,,,,,,,,,,,,,,,,,,,,,,,,,,,,,,,,,,,,,,,,,,,,,,,,3374.978789499961,None,,,,,,,,,,,,,,,,,,,,,,,,,,,,,,,,,,,,,,,,,,,,,,,,,,,,,,,,,bird,52,30,silent,old,blue,3373.022547500208,None,y,3373.022547500208,None,"['y', 'return']","[1.3360347002744675, 1.9119648998603225]",3373.022547500208,None,,,54,001,2023_Apr_24_1223,ExactRep-v3-final,2021.2.3,59.792984558630245,
,,,,,,,,,,,,30,0,30,0,,,,,,,,,,,,,,,,,,,,,,,,,,,,,,,,,,,,,,,,,,,,,,,,,3378.0151808997616,None,,,,,,,,,,,,,,,,,,,,,,,,,,,,,,,,,,,,,,,,,,,,,,,,,,,,,,,,,cattle,123,31,silent,new,blue,3375.479163300246,None,n,3375.479163300246,None,"['n', 'return']","[1.8156525008380413, 2.4953379007056355]",3375.479163300246,None,,,54,001,2023_Apr_24_1223,ExactRep-v3-final,2021.2.3,59.792984558630245,
,,,,,,,,,,,,31,0,31,0,,,,,,,,,,,,,,,,,,,,,,,,,,,,,,,,,,,,,,,,,,,,,,,,,3380.7180372001603,None,,,,,,,,,,,,,,,,,,,,,,,,,,,,,,,,,,,,,,,,,,,,,,,,,,,,,,,,,safety,78,32,silent,old,blue,3378.5156788993627,None,n,3378.5156788993627,None,"['n', 'return']","[1.4589229002594948, 2.162968499585986]",3378.5156788993627,None,,,54,001,2023_Apr_24_1223,ExactRep-v3-final,2021.2.3,59.792984558630245,
,,,,,,,,,,,,32,0,32,0,,,,,,,,,,,,,,,,,,,,,,,,,,,,,,,,,,,,,,,,,,,,,,,,,3383.0701756998897,None,,,,,,,,,,,,,,,,,,,,,,,,,,,,,,,,,,,,,,,,,,,,,,,,,,,,,,,,,judge,231,33,sing,new,red,3381.2293202998117,None,n,3381.2293202998117,None,"['n', 'return']","[1.0974252000451088, 1.8092519994825125]",3381.2293202998117,None,,,54,001,2023_Apr_24_1223,ExactRep-v3-final,2021.2.3,59.792984558630245,
,,,,,,,,,,,,33,0,33,0,,,,,,,,,,,,,,,,,,,,,,,,,,,,,,,,,,,,,,,,,,,,,,,,,3385.6062070000917,None,,,,,,,,,,,,,,,,,,,,,,,,,,,,,,,,,,,,,,,,,,,,,,,,,,,,,,,,,shock,51,34,silent,old,blue,3383.5741304997355,None,y,3383.5741304997355,None,"['y', 'return']","[1.3364800997078419, 1.9924551993608475]",3383.5741304997355,None,,,54,001,2023_Apr_24_1223,ExactRep-v3-final,2021.2.3,59.792984558630245,
,,,,,,,,,,,,34,0,34,0,,,,,,,,,,,,,,,,,,,,,,,,,,,,,,,,,,,,,,,,,,,,,,,,,3388.0417869994417,None,,,,,,,,,,,,,,,,,,,,,,,,,,,,,,,,,,,,,,,,,,,,,,,,,,,,,,,,,board,188,35,aloud,new,white,3386.1196975000203,None,y,3386.1196975000203,None,"['y', 'return']","[1.1589640006422997, 1.8868522001430392]",3386.1196975000203,None,,,54,001,2023_Apr_24_1223,ExactRep-v3-final,2021.2.3,59.792984558630245,
,,,,,,,,,,,,35,0,35,0,,,,,,,,,,,,,,,,,,,,,,,,,,,,,,,,,,,,,,,,,,,,,,,,,3390.4608745994046,None,,,,,,,,,,,,,,,,,,,,,,,,,,,,,,,,,,,,,,,,,,,,,,,,,,,,,,,,,volume,56,36,silent,old,blue,3388.5550050996244,None,n,3388.5550050996244,None,"['n', 'return']","[1.187576100230217, 1.8676805002614856]",3388.5550050996244,None,,,54,001,2023_Apr_24_1223,ExactRep-v3-final,2021.2.3,59.792984558630245,
,,,,,,,,,,,,36,0,36,0,,,,,,,,,,,,,,,,,,,,,,,,,,,,,,,,,,,,,,,,,,,,,,,,,3392.846778700128,None,,,,,,,,,,,,,,,,,,,,,,,,,,,,,,,,,,,,,,,,,,,,,,,,,,,,,,,,,blossom,113,37,aloud,old,white,3390.971687999554,None,y,3390.971687999554,None,"['y', 'return']","[1.0909879002720118, 1.8348561003804207]",3390.971687999554,None,,,54,001,2023_Apr_24_1223,ExactRep-v3-final,2021.2.3,59.792984558630245,
,,,,,,,,,,,,37,0,37,0,,,,,,,,,,,,,,,,,,,,,,,,,,,,,,,,,,,,,,,,,,,,,,,,,3395.4325161995366,None,,,,,,,,,,,,,,,,,,,,,,,,,,,,,,,,,,,,,,,,,,,,,,,,,,,,,,,,,gift,211,38,sing,new,red,3393.358437099494,None,y,3393.358437099494,None,"['y', 'return']","[1.3681373996660113, 2.040128500200808]",3393.358437099494,None,,,54,001,2023_Apr_24_1223,ExactRep-v3-final,2021.2.3,59.792984558630245,
,,,,,,,,,,,,38,0,38,0,,,,,,,,,,,,,,,,,,,,,,,,,,,,,,,,,,,,,,,,,,,,,,,,,3397.9183780001476,None,,,,,,,,,,,,,,,,,,,,,,,,,,,,,,,,,,,,,,,,,,,,,,,,,,,,,,,,,water,132,39,silent,new,blue,3395.943754299544,None,y,3395.943754299544,None,"['y', 'return']","[1.18288809992373, 1.927020600065589]",3395.943754299544,None,,,54,001,2023_Apr_24_1223,ExactRep-v3-final,2021.2.3,59.792984558630245,
,,,,,,,,,,,,39,0,39,0,,,,,,,,,,,,,,,,,,,,,,,,,,,,,,,,,,,,,,,,,,,,,,,,,3400.654467999935,None,,,,,,,,,,,,,,,,,,,,,,,,,,,,,,,,,,,,,,,,,,,,,,,,,,,,,,,,,style,34,40,sing,old,red,3398.4364668997005,None,n,3398.4364668997005,None,"['n', 'return']","[1.5701106004416943, 2.186140799894929]",3398.4364668997005,None,,,54,001,2023_Apr_24_1223,ExactRep-v3-final,2021.2.3,59.792984558630245,
,,,,,,,,,,,,40,0,40,0,,,,,,,,,,,,,,,,,,,,,,,,,,,,,,,,,,,,,,,,,,,,,,,,,3402.9066172996536,None,,,,,,,,,,,,,,,,,,,,,,,,,,,,,,,,,,,,,,,,,,,,,,,,,,,,,,,,,girl,64,41,silent,old,blue,3401.1575405998155,None,n,3401.1575405998155,None,"['n', 'return']","[1.009290300309658, 1.7131225997582078]",3401.1575405998155,None,,,54,001,2023_Apr_24_1223,ExactRep-v3-final,2021.2.3,59.792984558630245,
,,,,,,,,,,,,41,0,41,0,,,,,,,,,,,,,,,,,,,,,,,,,,,,,,,,,,,,,,,,,,,,,,,,,3405.1757662994787,None,,,,,,,,,,,,,,,,,,,,,,,,,,,,,,,,,,,,,,,,,,,,,,,,,,,,,,,,,flag,162,42,aloud,new,white,3403.4159968998283,None,n,3403.4159968998283,None,"['n', 'return']","[0.9667342994362116, 1.7267140001058578]",3403.4159968998283,None,,,54,001,2023_Apr_24_1223,ExactRep-v3-final,2021.2.3,59.792984558630245,
,,,,,,,,,,,,42,0,42,0,,,,,,,,,,,,,,,,,,,,,,,,,,,,,,,,,,,,,,,,,,,,,,,,,3407.577995799482,None,,,,,,,,,,,,,,,,,,,,,,,,,,,,,,,,,,,,,,,,,,,,,,,,,,,,,,,,,forest,111,43,aloud,old,white,3405.6779926000163,None,y,3405.6779926000163,None,"['y', 'return']","[1.1764618000015616, 1.8565544001758099]",3405.6779926000163,None,,,54,001,2023_Apr_24_1223,ExactRep-v3-final,2021.2.3,59.792984558630245,
,,,,,,,,,,,,43,0,43,0,,,,,,,,,,,,,,,,,,,,,,,,,,,,,,,,,,,,,,,,,,,,,,,,,3409.6801782995462,None,,,,,,,,,,,,,,,,,,,,,,,,,,,,,,,,,,,,,,,,,,,,,,,,,,,,,,,,,ability,214,44,aloud,new,white,3408.0992506993935,None,n,3408.0992506993935,None,"['n', 'return']","[1.0033910991623998, 1.5394340995699167]",3408.0992506993935,None,,,54,001,2023_Apr_24_1223,ExactRep-v3-final,2021.2.3,59.792984558630245,
,,,,,,,,,,,,44,0,44,0,,,,,,,,,,,,,,,,,,,,,,,,,,,,,,,,,,,,,,,,,,,,,,,,,3411.782262600027,None,,,,,,,,,,,,,,,,,,,,,,,,,,,,,,,,,,,,,,,,,,,,,,,,,,,,,,,,,air,204,45,aloud,new,white,3410.1807127995417,None,n,3410.1807127995417,None,"['n', 'return']","[0.9702131999656558, 1.5698902001604438]",3410.1807127995417,None,,,54,001,2023_Apr_24_1223,ExactRep-v3-final,2021.2.3,59.792984558630245,
,,,,,,,,,,,,45,0,45,0,,,,,,,,,,,,,,,,,,,,,,,,,,,,,,,,,,,,,,,,,,,,,,,,,3414.318281600252,None,,,,,,,,,,,,,,,,,,,,,,,,,,,,,,,,,,,,,,,,,,,,,,,,,,,,,,,,,cost,114,46,aloud,old,white,3412.29379149992,None,y,3412.29379149992,None,"['y', 'return']","[1.4009833000600338, 1.984855399467051]",3412.29379149992,None,,,54,001,2023_Apr_24_1223,ExactRep-v3-final,2021.2.3,59.792984558630245,
,,,,,,,,,,,,46,0,46,0,,,,,,,,,,,,,,,,,,,,,,,,,,,,,,,,,,,,,,,,,,,,,,,,,3416.687184399925,None,,,,,,,,,,,,,,,,,,,,,,,,,,,,,,,,,,,,,,,,,,,,,,,,,,,,,,,,,cabin,194,47,aloud,new,white,3414.8374028997496,None,n,3414.8374028997496,None,"['n', 'return']","[1.1933538001030684, 1.8091874001547694]",3414.8374028997496,None,,,54,001,2023_Apr_24_1223,ExactRep-v3-final,2021.2.3,59.792984558630245,
,,,,,,,,,,,,47,0,47,0,,,,,,,,,,,,,,,,,,,,,,,,,,,,,,,,,,,,,,,,,,,,,,,,,3419.1564561994746,None,,,,,,,,,,,,,,,,,,,,,,,,,,,,,,,,,,,,,,,,,,,,,,,,,,,,,,,,,street,187,48,sing,new,red,3417.1965602999553,None,n,3417.1965602999553,None,"['n', 'return']","[1.0100095998495817, 1.9141220999881625]",3417.1965602999553,None,,,54,001,2023_Apr_24_1223,ExactRep-v3-final,2021.2.3,59.792984558630245,
,,,,,,,,,,,,48,0,48,0,,,,,,,,,,,,,,,,,,,,,,,,,,,,,,,,,,,,,,,,,,,,,,,,,3421.4752902993932,None,,,,,,,,,,,,,,,,,,,,,,,,,,,,,,,,,,,,,,,,,,,,,,,,,,,,,,,,,doll,233,49,sing,new,red,3419.6651048995554,None,n,3419.6651048995554,None,"['n', 'return']","[1.1413810001686215, 1.7654353994876146]",3419.6651048995554,None,,,54,001,2023_Apr_24_1223,ExactRep-v3-final,2021.2.3,59.792984558630245,
,,,,,,,,,,,,49,0,49,0,,,,,,,,,,,,,,,,,,,,,,,,,,,,,,,,,,,,,,,,,,,,,,,,,3424.02795109991,None,,,,,,,,,,,,,,,,,,,,,,,,,,,,,,,,,,,,,,,,,,,,,,,,,,,,,,,,,heaven,130,50,silent,new,blue,3421.981246199459,None,n,3421.981246199459,None,"['n', 'return']","[1.3294639997184277, 2.0013737995177507]",3421.981246199459,None,,,54,001,2023_Apr_24_1223,ExactRep-v3-final,2021.2.3,59.792984558630245,
,,,,,,,,,,,,50,0,50,0,,,,,,,,,,,,,,,,,,,,,,,,,,,,,,,,,,,,,,,,,,,,,,,,,3426.54699539952,None,,,,,,,,,,,,,,,,,,,,,,,,,,,,,,,,,,,,,,,,,,,,,,,,,,,,,,,,,square,94,51,aloud,old,white,3424.5390288000926,None,y,3424.5390288000926,None,"['y', 'return']","[1.2675498994067311, 1.9716561995446682]",3424.5390288000926,None,,,54,001,2023_Apr_24_1223,ExactRep-v3-final,2021.2.3,59.792984558630245,
,,,,,,,,,,,,51,0,51,0,,,,,,,,,,,,,,,,,,,,,,,,,,,,,,,,,,,,,,,,,,,,,,,,,3428.8159523997456,None,,,,,,,,,,,,,,,,,,,,,,,,,,,,,,,,,,,,,,,,,,,,,,,,,,,,,,,,,bottle,105,52,aloud,old,white,3427.0569340996444,None,y,3427.0569340996444,None,"['y', 'return']","[1.2376888999715447, 1.7176865004003048]",3427.0569340996444,None,,,54,001,2023_Apr_24_1223,ExactRep-v3-final,2021.2.3,59.792984558630245,
,,,,,,,,,,,,52,0,52,0,,,,,,,,,,,,,,,,,,,,,,,,,,,,,,,,,,,,,,,,,,,,,,,,,3432.069230599329,None,,,,,,,,,,,,,,,,,,,,,,,,,,,,,,,,,,,,,,,,,,,,,,,,,,,,,,,,,insect,62,53,silent,old,blue,3429.323646799661,None,y,3429.323646799661,None,"['y', 'return']","[2.0909527000039816, 2.6989886006340384]",3429.323646799661,None,,,54,001,2023_Apr_24_1223,ExactRep-v3-final,2021.2.3,59.792984558630245,
,,,,,,,,,,,,53,0,53,0,,,,,,,,,,,,,,,,,,,,,,,,,,,,,,,,,,,,,,,,,,,,,,,,,3434.2880819002166,None,,,,,,,,,,,,,,,,,,,,,,,,,,,,,,,,,,,,,,,,,,,,,,,,,,,,,,,,,iron,199,54,sing,new,red,3432.5719937002286,None,n,3432.5719937002286,None,"['n', 'return']","[1.1386050004512072, 1.6826259000226855]",3432.5719937002286,None,,,54,001,2023_Apr_24_1223,ExactRep-v3-final,2021.2.3,59.792984558630245,
,,,,,,,,,,,,54,0,54,0,,,,,,,,,,,,,,,,,,,,,,,,,,,,,,,,,,,,,,,,,,,,,,,,,3436.4904034994543,None,,,,,,,,,,,,,,,,,,,,,,,,,,,,,,,,,,,,,,,,,,,,,,,,,,,,,,,,,beast,225,55,sing,new,red,3434.798048399389,None,n,3434.798048399389,None,"['n', 'return']","[1.1924373991787434, 1.6565540991723537]",3434.798048399389,None,,,54,001,2023_Apr_24_1223,ExactRep-v3-final,2021.2.3,59.792984558630245,
,,,,,,,,,,,,55,0,55,0,,,,,,,,,,,,,,,,,,,,,,,,,,,,,,,,,,,,,,,,,,,,,,,,,3438.959584900178,None,,,,,,,,,,,,,,,,,,,,,,,,,,,,,,,,,,,,,,,,,,,,,,,,,,,,,,,,,soil,9,56,sing,old,red,3436.997000699863,None,y,3436.997000699863,None,"['y', 'return']","[1.3855646001175046, 1.9216979006305337]",3436.997000699863,None,,,54,001,2023_Apr_24_1223,ExactRep-v3-final,2021.2.3,59.792984558630245,
,,,,,,,,,,,,56,0,56,0,,,,,,,,,,,,,,,,,,,,,,,,,,,,,,,,,,,,,,,,,,,,,,,,,3441.545360200107,None,,,,,,,,,,,,,,,,,,,,,,,,,,,,,,,,,,,,,,,,,,,,,,,,,,,,,,,,,toy,173,57,sing,new,red,3439.4714134996757,None,n,3439.4714134996757,None,"['n', 'return']","[1.2392119001597166, 2.031342100352049]",3439.4714134996757,None,,,54,001,2023_Apr_24_1223,ExactRep-v3-final,2021.2.3,59.792984558630245,
,,,,,,,,,,,,57,0,57,0,,,,,,,,,,,,,,,,,,,,,,,,,,,,,,,,,,,,,,,,,,,,,,,,,3444.398226299323,None,,,,,,,,,,,,,,,,,,,,,,,,,,,,,,,,,,,,,,,,,,,,,,,,,,,,,,,,,soul,213,58,sing,new,red,3442.054409299977,None,n,3442.054409299977,None,"['n', 'return']","[1.6401721993461251, 2.3121523996815085]",3442.054409299977,None,,,54,001,2023_Apr_24_1223,ExactRep-v3-final,2021.2.3,59.792984558630245,
,,,,,,,,,,,,58,0,58,0,,,,,,,,,,,,,,,,,,,,,,,,,,,,,,,,,,,,,,,,,,,,,,,,,3446.6003823997453,None,,,,,,,,,,,,,,,,,,,,,,,,,,,,,,,,,,,,,,,,,,,,,,,,,,,,,,,,,coast,42,59,silent,old,blue,3444.9094599997625,None,y,3444.9094599997625,None,"['y', 'return']","[1.1931661004200578, 1.6492047002539039]",3444.9094599997625,None,,,54,001,2023_Apr_24_1223,ExactRep-v3-final,2021.2.3,59.792984558630245,
,,,,,,,,,,,,59,0,59,0,,,,,,,,,,,,,,,,,,,,,,,,,,,,,,,,,,,,,,,,,,,,,,,,,3448.736091699451,None,,,,,,,,,,,,,,,,,,,,,,,,,,,,,,,,,,,,,,,,,,,,,,,,,,,,,,,,,sugar,2,60,sing,old,red,3447.1099100001156,None,n,3447.1099100001156,None,"['n', 'return']","[1.088845199905336, 1.5847600996494293]",3447.1099100001156,None,,,54,001,2023_Apr_24_1223,ExactRep-v3-final,2021.2.3,59.792984558630245,
,,,,,,,,,,,,60,0,60,0,,,,,,,,,,,,,,,,,,,,,,,,,,,,,,,,,,,,,,,,,,,,,,,,,3451.855689499527,None,,,,,,,,,,,,,,,,,,,,,,,,,,,,,,,,,,,,,,,,,,,,,,,,,,,,,,,,,product,230,61,aloud,new,white,3449.250760800205,None,y,3449.250760800205,None,"['y', 'return']","[1.8438587998971343, 2.5720597999170423]",3449.250760800205,None,,,54,001,2023_Apr_24_1223,ExactRep-v3-final,2021.2.3,59.792984558630245,
,,,,,,,,,,,,61,0,61,0,,,,,,,,,,,,,,,,,,,,,,,,,,,,,,,,,,,,,,,,,,,,,,,,,3454.5750633999705,None,,,,,,,,,,,,,,,,,,,,,,,,,,,,,,,,,,,,,,,,,,,,,,,,,,,,,,,,,series,45,62,silent,old,blue,3452.363246499561,None,n,3452.363246499561,None,"['n', 'return']","[1.6034101992845535, 2.1713467994704843]",3452.363246499561,None,,,54,001,2023_Apr_24_1223,ExactRep-v3-final,2021.2.3,59.792984558630245,
,,,,,,,,,,,,62,0,62,0,,,,,,,,,,,,,,,,,,,,,,,,,,,,,,,,,,,,,,,,,,,,,,,,,3461.7155572995543,None,,,,,,,,,,,,,,,,,,,,,,,,,,,,,,,,,,,,,,,,,,,,,,,,,,,,,,,,,leader,72,63,silent,old,blue,3455.0891346000135,None,n,3455.0891346000135,None,"['backspace', 'n', 'return']","[2.101765500381589, 5.773705899715424, 6.589526300318539]",3455.0891346000135,None,,,54,001,2023_Apr_24_1223,ExactRep-v3-final,2021.2.3,59.792984558630245,
,,,,,,,,,,,,63,0,63,0,,,,,,,,,,,,,,,,,,,,,,,,,,,,,,,,,,,,,,,,,,,,,,,,,3464.33483370021,None,,,,,,,,,,,,,,,,,,,,,,,,,,,,,,,,,,,,,,,,,,,,,,,,,,,,,,,,,pupil,191,64,sing,new,red,3462.2280451999977,None,n,3462.2280451999977,None,"['n', 'return']","[1.6826526997610927, 2.0666613997891545]",3462.2280451999977,None,,,54,001,2023_Apr_24_1223,ExactRep-v3-final,2021.2.3,59.792984558630245,
,,,,,,,,,,,,64,0,64,0,,,,,,,,,,,,,,,,,,,,,,,,,,,,,,,,,,,,,,,,,,,,,,,,,3467.487950699404,None,,,,,,,,,,,,,,,,,,,,,,,,,,,,,,,,,,,,,,,,,,,,,,,,,,,,,,,,,opinion,92,65,aloud,old,white,3464.843162099831,None,y,3464.843162099831,None,"['y', 'return']","[2.2116208001971245, 2.6115688001737]",3464.843162099831,None,,,54,001,2023_Apr_24_1223,ExactRep-v3-final,2021.2.3,59.792984558630245,
,,,,,,,,,,,,65,0,65,0,,,,,,,,,,,,,,,,,,,,,,,,,,,,,,,,,,,,,,,,,,,,,,,,,3471.3751941993833,None,,,,,,,,,,,,,,,,,,,,,,,,,,,,,,,,,,,,,,,,,,,,,,,,,,,,,,,,,vision,36,66,sing,old,red,3467.997259899974,None,y,3467.997259899974,None,"['y', 'return']","[2.9854129003360868, 3.3453466007485986]",3467.997259899974,None,,,54,001,2023_Apr_24_1223,ExactRep-v3-final,2021.2.3,59.792984558630245,
,,,,,,,,,,,,66,0,66,0,,,,,,,,,,,,,,,,,,,,,,,,,,,,,,,,,,,,,,,,,,,,,,,,,3473.9445203999057,None,,,,,,,,,,,,,,,,,,,,,,,,,,,,,,,,,,,,,,,,,,,,,,,,,,,,,,,,,table,68,67,silent,old,blue,3471.88501009997,None,n,3471.88501009997,None,"['n', 'return']","[1.5937943998724222, 2.01763859950006]",3471.88501009997,None,,,54,001,2023_Apr_24_1223,ExactRep-v3-final,2021.2.3,59.792984558630245,
,,,,,,,,,,,,67,0,67,0,,,,,,,,,,,,,,,,,,,,,,,,,,,,,,,,,,,,,,,,,,,,,,,,,3479.3832844998688,None,,,,,,,,,,,,,,,,,,,,,,,,,,,,,,,,,,,,,,,,,,,,,,,,,,,,,,,,,prayer,200,68,aloud,new,white,3474.453742799349,None,y,3474.453742799349,None,"['y', 'return']","[4.529072199948132, 4.88891030009836]",3474.453742799349,None,,,54,001,2023_Apr_24_1223,ExactRep-v3-final,2021.2.3,59.792984558630245,
,,,,,,,,,,,,68,0,68,0,,,,,,,,,,,,,,,,,,,,,,,,,,,,,,,,,,,,,,,,,,,,,,,,,3481.3184019997716,None,,,,,,,,,,,,,,,,,,,,,,,,,,,,,,,,,,,,,,,,,,,,,,,,,,,,,,,,,law,14,69,sing,old,red,3479.893100399524,None,n,3479.893100399524,None,"['n', 'return']","[1.04955490026623, 1.3935620002448559]",3479.893100399524,None,,,54,001,2023_Apr_24_1223,ExactRep-v3-final,2021.2.3,59.792984558630245,
,,,,,,,,,,,,69,0,69,0,,,,,,,,,,,,,,,,,,,,,,,,,,,,,,,,,,,,,,,,,,,,,,,,,3485.9062025994062,None,,,,,,,,,,,,,,,,,,,,,,,,,,,,,,,,,,,,,,,,,,,,,,,,,,,,,,,,,library,58,70,silent,old,blue,3481.824767999351,None,n,3481.824767999351,None,"['n', 'return']","[3.709925500676036, 4.037777100689709]",3481.824767999351,None,,,54,001,2023_Apr_24_1223,ExactRep-v3-final,2021.2.3,59.792984558630245,
,,,,,,,,,,,,70,0,70,0,,,,,,,,,,,,,,,,,,,,,,,,,,,,,,,,,,,,,,,,,,,,,,,,,3488.0084342993796,None,,,,,,,,,,,,,,,,,,,,,,,,,,,,,,,,,,,,,,,,,,,,,,,,,,,,,,,,,fate,99,71,aloud,old,white,3486.413667799905,None,y,3486.413667799905,None,"['y', 'return']","[1.2410275004804134, 1.5610315008088946]",3486.413667799905,None,,,54,001,2023_Apr_24_1223,ExactRep-v3-final,2021.2.3,59.792984558630245,
,,,,,,,,,,,,71,0,71,0,,,,,,,,,,,,,,,,,,,,,,,,,,,,,,,,,,,,,,,,,,,,,,,,,3490.2608989002183,None,,,,,,,,,,,,,,,,,,,,,,,,,,,,,,,,,,,,,,,,,,,,,,,,,,,,,,,,,lake,53,72,silent,old,blue,3488.5171515000984,None,y,3488.5171515000984,None,"['y', 'return']","[1.3937697997316718, 1.7057214993983507]",3488.5171515000984,None,,,54,001,2023_Apr_24_1223,ExactRep-v3-final,2021.2.3,59.792984558630245,
,,,,,,,,,,,,72,0,72,0,,,,,,,,,,,,,,,,,,,,,,,,,,,,,,,,,,,,,,,,,,,,,,,,,3492.246074399911,None,,,,,,,,,,,,,,,,,,,,,,,,,,,,,,,,,,,,,,,,,,,,,,,,,,,,,,,,,ocean,182,73,aloud,new,white,3490.771808799356,None,y,3490.771808799356,None,"['y', 'return']","[1.0988757004961371, 1.4268982000648975]",3490.771808799356,None,,,54,001,2023_Apr_24_1223,ExactRep-v3-final,2021.2.3,59.792984558630245,
,,,,,,,,,,,,73,0,73,0,,,,,,,,,,,,,,,,,,,,,,,,,,,,,,,,,,,,,,,,,,,,,,,,,3494.0645562000573,None,,,,,,,,,,,,,,,,,,,,,,,,,,,,,,,,,,,,,,,,,,,,,,,,,,,,,,,,,hotel,15,74,sing,old,red,3492.755726199597,None,y,3492.755726199597,None,"['y', 'return']","[0.8990546995773911, 1.2669569002464414]",3492.755726199597,None,,,54,001,2023_Apr_24_1223,ExactRep-v3-final,2021.2.3,59.792984558630245,
,,,,,,,,,,,,74,0,74,0,,,,,,,,,,,,,,,,,,,,,,,,,,,,,,,,,,,,,,,,,,,,,,,,,3495.9664000999182,None,,,,,,,,,,,,,,,,,,,,,,,,,,,,,,,,,,,,,,,,,,,,,,,,,,,,,,,,,spirit,79,75,sing,old,red,3494.5775990001857,None,y,3494.5775990001857,None,"['y', 'return']","[0.933177700266242, 1.341168100014329]",3494.5775990001857,None,,,54,001,2023_Apr_24_1223,ExactRep-v3-final,2021.2.3,59.792984558630245,
,,,,,,,,,,,,75,0,75,0,,,,,,,,,,,,,,,,,,,,,,,,,,,,,,,,,,,,,,,,,,,,,,,,,3497.7348290001974,None,,,,,,,,,,,,,,,,,,,,,,,,,,,,,,,,,,,,,,,,,,,,,,,,,,,,,,,,,fact,1,76,sing,old,red,3496.4856880996376,None,y,3496.4856880996376,None,"['y', 'return']","[0.809099099598825, 1.2090496998280287]",3496.4856880996376,None,,,54,001,2023_Apr_24_1223,ExactRep-v3-final,2021.2.3,59.792984558630245,
,,,,,,,,,,,,76,0,76,0,,,,,,,,,,,,,,,,,,,,,,,,,,,,,,,,,,,,,,,,,,,,,,,,,3499.7871186994016,None,,,,,,,,,,,,,,,,,,,,,,,,,,,,,,,,,,,,,,,,,,,,,,,,,,,,,,,,,apple,21,77,sing,old,red,3498.2423760993406,None,n,3498.2423760993406,None,"['n', 'return']","[1.1722804000601172, 1.5002228999510407]",3498.2423760993406,None,,,54,001,2023_Apr_24_1223,ExactRep-v3-final,2021.2.3,59.792984558630245,
,,,,,,,,,,,,77,0,77,0,,,,,,,,,,,,,,,,,,,,,,,,,,,,,,,,,,,,,,,,,,,,,,,,,3502.0058338996023,None,,,,,,,,,,,,,,,,,,,,,,,,,,,,,,,,,,,,,,,,,,,,,,,,,,,,,,,,,sea,176,78,aloud,new,white,3500.3020626995713,None,y,3500.3020626995713,None,"['y', 'return']","[1.3847345001995564, 1.6566340001299977]",3500.3020626995713,None,,,54,001,2023_Apr_24_1223,ExactRep-v3-final,2021.2.3,59.792984558630245,
,,,,,,,,,,,,78,0,78,0,,,,,,,,,,,,,,,,,,,,,,,,,,,,,,,,,,,,,,,,,,,,,,,,,3504.4748995993286,None,,,,,,,,,,,,,,,,,,,,,,,,,,,,,,,,,,,,,,,,,,,,,,,,,,,,,,,,,priest,207,79,sing,new,red,3502.518319999799,None,y,3502.518319999799,None,"['y', 'return']","[1.632340700365603, 1.9122720006853342]",3502.518319999799,None,,,54,001,2023_Apr_24_1223,ExactRep-v3-final,2021.2.3,59.792984558630245,
,,,,,,,,,,,,79,0,79,0,,,,,,,,,,,,,,,,,,,,,,,,,,,,,,,,,,,,,,,,,,,,,,,,,3506.393602799624,None,,,,,,,,,,,,,,,,,,,,,,,,,,,,,,,,,,,,,,,,,,,,,,,,,,,,,,,,,effort,88,80,aloud,old,white,3504.9828113997355,None,y,3504.9828113997355,None,"['y', 'return']","[1.072011400014162, 1.3759065000340343]",3504.9828113997355,None,,,54,001,2023_Apr_24_1223,ExactRep-v3-final,2021.2.3,59.792984558630245,
,,,,,,,,,,,,80,0,80,0,,,,,,,,,,,,,,,,,,,,,,,,,,,,,,,,,,,,,,,,,,,,,,,,,3509.6969539001584,None,,,,,,,,,,,,,,,,,,,,,,,,,,,,,,,,,,,,,,,,,,,,,,,,,,,,,,,,,thought,154,81,silent,new,blue,3506.9004696998745,None,y,3506.9004696998745,None,"['y', 'return']","[2.5302626993507147, 2.762237399816513]",3506.9004696998745,None,,,54,001,2023_Apr_24_1223,ExactRep-v3-final,2021.2.3,59.792984558630245,
,,,,,,,,,,,,81,0,81,0,,,,,,,,,,,,,,,,,,,,,,,,,,,,,,,,,,,,,,,,,,,,,,,,,3511.615427499637,None,,,,,,,,,,,,,,,,,,,,,,,,,,,,,,,,,,,,,,,,,,,,,,,,,,,,,,,,,lip,232,82,aloud,new,white,3510.206688599661,None,n,3510.206688599661,None,"['n', 'return']","[1.0479837004095316, 1.3759288005530834]",3510.206688599661,None,,,54,001,2023_Apr_24_1223,ExactRep-v3-final,2021.2.3,59.792984558630245,
,,,,,,,,,,,,82,0,82,0,,,,,,,,,,,,,,,,,,,,,,,,,,,,,,,,,,,,,,,,,,,,,,,,,3513.550848999992,None,,,,,,,,,,,,,,,,,,,,,,,,,,,,,,,,,,,,,,,,,,,,,,,,,,,,,,,,,colony,66,83,silent,old,blue,3512.1233417997137,None,y,3512.1233417997137,None,"['y', 'return']","[1.0754642002284527, 1.395405299961567]",3512.1233417997137,None,,,54,001,2023_Apr_24_1223,ExactRep-v3-final,2021.2.3,59.792984558630245,
,,,,,,,,,,,,83,0,83,0,,,,,,,,,,,,,,,,,,,,,,,,,,,,,,,,,,,,,,,,,,,,,,,,,3516.270181099884,None,,,,,,,,,,,,,,,,,,,,,,,,,,,,,,,,,,,,,,,,,,,,,,,,,,,,,,,,,person,181,84,sing,new,red,3514.0629503000528,None,y,3514.0629503000528,None,"['y', 'return']","[1.9197658002376556, 2.1678440999239683]",3514.0629503000528,None,,,54,001,2023_Apr_24_1223,ExactRep-v3-final,2021.2.3,59.792984558630245,
,,,,,,,,,,,,84,0,84,0,,,,,,,,,,,,,,,,,,,,,,,,,,,,,,,,,,,,,,,,,,,,,,,,,3518.155235200189,None,,,,,,,,,,,,,,,,,,,,,,,,,,,,,,,,,,,,,,,,,,,,,,,,,,,,,,,,,paper,163,85,sing,new,red,3516.7868716996163,None,n,3516.7868716996163,None,"['n', 'return']","[1.0279073007404804, 1.3237658003345132]",3516.7868716996163,None,,,54,001,2023_Apr_24_1223,ExactRep-v3-final,2021.2.3,59.792984558630245,
,,,,,,,,,,,,85,0,85,0,,,,,,,,,,,,,,,,,,,,,,,,,,,,,,,,,,,,,,,,,,,,,,,,,3520.107259599492,None,,,,,,,,,,,,,,,,,,,,,,,,,,,,,,,,,,,,,,,,,,,,,,,,,,,,,,,,,temple,43,86,silent,old,blue,3518.663560899906,None,y,3518.663560899906,None,"['y', 'return']","[1.0152609003707767, 1.4071794003248215]",3518.663560899906,None,,,54,001,2023_Apr_24_1223,ExactRep-v3-final,2021.2.3,59.792984558630245,
,,,,,,,,,,,,86,0,86,0,,,,,,,,,,,,,,,,,,,,,,,,,,,,,,,,,,,,,,,,,,,,,,,,,3522.176011200063,None,,,,,,,,,,,,,,,,,,,,,,,,,,,,,,,,,,,,,,,,,,,,,,,,,,,,,,,,,fire,20,87,sing,old,red,3520.6218036999926,None,y,3520.6218036999926,None,"['y', 'return']","[1.184837399981916, 1.5210488997399807]",3520.6218036999926,None,,,54,001,2023_Apr_24_1223,ExactRep-v3-final,2021.2.3,59.792984558630245,
,,,,,,,,,,,,87,0,87,0,,,,,,,,,,,,,,,,,,,,,,,,,,,,,,,,,,,,,,,,,,,,,,,,,3523.8610132997856,None,,,,,,,,,,,,,,,,,,,,,,,,,,,,,,,,,,,,,,,,,,,,,,,,,,,,,,,,,silence,96,88,aloud,old,white,3522.6871333997697,None,y,3522.6871333997697,None,"['y', 'return']","[0.7916840994730592, 1.1357079995796084]",3522.6871333997697,None,,,54,001,2023_Apr_24_1223,ExactRep-v3-final,2021.2.3,59.792984558630245,
,,,,,,,,,,,,88,0,88,0,,,,,,,,,,,,,,,,,,,,,,,,,,,,,,,,,,,,,,,,,,,,,,,,,3525.8797189993784,None,,,,,,,,,,,,,,,,,,,,,,,,,,,,,,,,,,,,,,,,,,,,,,,,,,,,,,,,,flesh,165,89,sing,new,red,3524.3703177999705,None,n,3524.3703177999705,None,"['n', 'return']","[1.1483805002644658, 1.4684638995677233]",3524.3703177999705,None,,,54,001,2023_Apr_24_1223,ExactRep-v3-final,2021.2.3,59.792984558630245,
,,,,,,,,,,,,89,0,89,0,,,,,,,,,,,,,,,,,,,,,,,,,,,,,,,,,,,,,,,,,,,,,,,,,3527.765007399954,None,,,,,,,,,,,,,,,,,,,,,,,,,,,,,,,,,,,,,,,,,,,,,,,,,,,,,,,,,shadow,161,90,sing,new,red,3526.3903064997867,None,n,3526.3903064997867,None,"['n', 'return']","[1.0483996998518705, 1.336488500237465]",3526.3903064997867,None,,,54,001,2023_Apr_24_1223,ExactRep-v3-final,2021.2.3,59.792984558630245,
,,,,,,,,,,,,90,0,90,0,,,,,,,,,,,,,,,,,,,,,,,,,,,,,,,,,,,,,,,,,,,,,,,,,3531.235159999691,None,,,,,,,,,,,,,,,,,,,,,,,,,,,,,,,,,,,,,,,,,,,,,,,,,,,,,,,,,circle,120,91,silent,new,blue,3528.279896499589,None,n,3528.279896499589,None,"['n', 'return']","[2.1669455002993345, 2.9188995007425547]",3528.279896499589,None,,,54,001,2023_Apr_24_1223,ExactRep-v3-final,2021.2.3,59.792984558630245,
,,,,,,,,,,,,91,0,91,0,,,,,,,,,,,,,,,,,,,,,,,,,,,,,,,,,,,,,,,,,,,,,,,,,3533.520756700076,None,,,,,,,,,,,,,,,,,,,,,,,,,,,,,,,,,,,,,,,,,,,,,,,,,,,,,,,,,home,119,92,aloud,old,white,3531.7436763001606,None,n,3531.7436763001606,None,"['n', 'return']","[1.4152979999780655, 1.7352400003001094]",3531.7436763001606,None,,,54,001,2023_Apr_24_1223,ExactRep-v3-final,2021.2.3,59.792984558630245,
,,,,,,,,,,,,92,0,92,0,,,,,,,,,,,,,,,,,,,,,,,,,,,,,,,,,,,,,,,,,,,,,,,,,3536.173331399448,None,,,,,,,,,,,,,,,,,,,,,,,,,,,,,,,,,,,,,,,,,,,,,,,,,,,,,,,,,star,133,93,silent,new,blue,3534.0236205002293,None,n,3534.0236205002293,None,"['n', 'return']","[1.5431347992271185, 2.10312859993428]",3534.0236205002293,None,,,54,001,2023_Apr_24_1223,ExactRep-v3-final,2021.2.3,59.792984558630245,
,,,,,,,,,,,,93,0,93,0,,,,,,,,,,,,,,,,,,,,,,,,,,,,,,,,,,,,,,,,,,,,,,,,,3538.7593663996086,None,,,,,,,,,,,,,,,,,,,,,,,,,,,,,,,,,,,,,,,,,,,,,,,,,,,,,,,,,wine,224,94,aloud,new,white,3536.68949569948,None,n,3536.68949569948,None,"['n', 'return']","[1.685275100171566, 2.037178199738264]",3536.68949569948,None,,,54,001,2023_Apr_24_1223,ExactRep-v3-final,2021.2.3,59.792984558630245,
,,,,,,,,,,,,94,0,94,0,,,,,,,,,,,,,,,,,,,,,,,,,,,,,,,,,,,,,,,,,,,,,,,,,3542.6132247000933,None,,,,,,,,,,,,,,,,,,,,,,,,,,,,,,,,,,,,,,,,,,,,,,,,,,,,,,,,,body,117,95,aloud,old,white,3539.268180199899,None,y,3539.268180199899,None,"['y', 'return']","[2.954510999843478, 3.298598300665617]",3539.268180199899,None,,,54,001,2023_Apr_24_1223,ExactRep-v3-final,2021.2.3,59.792984558630245,
,,,,,,,,,,,,95,0,95,0,,,,,,,,,,,,,,,,,,,,,,,,,,,,,,,,,,,,,,,,,,,,,,,,,3547.7681558001786,None,,,,,,,,,,,,,,,,,,,,,,,,,,,,,,,,,,,,,,,,,,,,,,,,,,,,,,,,,bowl,55,96,silent,old,blue,3543.118032399565,None,n,3543.118032399565,None,"['n', 'return']","[4.27259930036962, 4.608695600181818]",3543.118032399565,None,,,54,001,2023_Apr_24_1223,ExactRep-v3-final,2021.2.3,59.792984558630245,
,,,,,,,,,,,,96,0,96,0,,,,,,,,,,,,,,,,,,,,,,,,,,,,,,,,,,,,,,,,,,,,,,,,,3549.6367272995412,None,,,,,,,,,,,,,,,,,,,,,,,,,,,,,,,,,,,,,,,,,,,,,,,,,,,,,,,,,friend,170,97,aloud,new,white,3548.2789766993374,None,n,3548.2789766993374,None,"['n', 'return']","[0.9760004999116063, 1.311782700009644]",3548.2789766993374,None,,,54,001,2023_Apr_24_1223,ExactRep-v3-final,2021.2.3,59.792984558630245,
,,,,,,,,,,,,97,0,97,0,,,,,,,,,,,,,,,,,,,,,,,,,,,,,,,,,,,,,,,,,,,,,,,,,3551.822249699384,None,,,,,,,,,,,,,,,,,,,,,,,,,,,,,,,,,,,,,,,,,,,,,,,,,,,,,,,,,stone,212,98,aloud,new,white,3550.1468182001263,None,n,3550.1468182001263,None,"['n', 'return']","[1.3638315005227923, 1.643869200721383]",3550.1468182001263,None,,,54,001,2023_Apr_24_1223,ExactRep-v3-final,2021.2.3,59.792984558630245,
,,,,,,,,,,,,98,0,98,0,,,,,,,,,,,,,,,,,,,,,,,,,,,,,,,,,,,,,,,,,,,,,,,,,3555.008920399472,None,,,,,,,,,,,,,,,,,,,,,,,,,,,,,,,,,,,,,,,,,,,,,,,,,,,,,,,,,ship,184,99,aloud,new,white,3552.325228699483,None,y,3552.325228699483,None,"['y', 'return']","[2.3616843996569514, 2.6415520003065467]",3552.325228699483,None,,,54,001,2023_Apr_24_1223,ExactRep-v3-final,2021.2.3,59.792984558630245,
,,,,,,,,,,,,99,0,99,0,,,,,,,,,,,,,,,,,,,,,,,,,,,,,,,,,,,,,,,,,,,,,,,,,3557.744888499379,None,,,,,,,,,,,,,,,,,,,,,,,,,,,,,,,,,,,,,,,,,,,,,,,,,,,,,,,,,blood,4,100,sing,old,red,3555.5229911999777,None,y,3555.5229911999777,None,"['y', 'return']","[1.7637111004441977, 2.1876567006111145]",3555.5229911999777,None,,,54,001,2023_Apr_24_1223,ExactRep-v3-final,2021.2.3,59.792984558630245,
,,,,,,,,,,,,100,0,100,0,,,,,,,,,,,,,,,,,,,,,,,,,,,,,,,,,,,,,,,,,,,,,,,,,3561.1815940998495,None,,,,,,,,,,,,,,,,,,,,,,,,,,,,,,,,,,,,,,,,,,,,,,,,,,,,,,,,,bar,81,101,aloud,old,white,3558.248854099773,None,y,3558.248854099773,None,"['y', 'return']","[2.5899805994704366, 2.894016600213945]",3558.248854099773,None,,,54,001,2023_Apr_24_1223,ExactRep-v3-final,2021.2.3,59.792984558630245,
,,,,,,,,,,,,101,0,101,0,,,,,,,,,,,,,,,,,,,,,,,,,,,,,,,,,,,,,,,,,,,,,,,,,3563.016935599968,None,,,,,,,,,,,,,,,,,,,,,,,,,,,,,,,,,,,,,,,,,,,,,,,,,,,,,,,,,fortune,107,102,aloud,old,white,3561.6888136994094,None,y,3561.6888136994094,None,"['y', 'return']","[1.0540140997618437, 1.2859476990997791]",3561.6888136994094,None,,,54,001,2023_Apr_24_1223,ExactRep-v3-final,2021.2.3,59.792984558630245,
,,,,,,,,,,,,102,0,102,0,,,,,,,,,,,,,,,,,,,,,,,,,,,,,,,,,,,,,,,,,,,,,,,,,3568.178460999392,None,,,,,,,,,,,,,,,,,,,,,,,,,,,,,,,,,,,,,,,,,,,,,,,,,,,,,,,,,meeting,101,103,aloud,old,white,3563.52685679961,None,n,3563.52685679961,None,"['n', 'return']","[4.32785340026021, 4.599923100322485]",3563.52685679961,None,,,54,001,2023_Apr_24_1223,ExactRep-v3-final,2021.2.3,59.792984558630245,
,,,,,,,,,,,,103,0,103,0,,,,,,,,,,,,,,,,,,,,,,,,,,,,,,,,,,,,,,,,,,,,,,,,,3572.7767500998452,None,,,,,,,,,,,,,,,,,,,,,,,,,,,,,,,,,,,,,,,,,,,,,,,,,,,,,,,,,shoes,75,104,silent,old,blue,3568.6983583997935,None,y,3568.6983583997935,None,"['y', 'return']","[3.7883732998743653, 4.036386999301612]",3568.6983583997935,None,,,54,001,2023_Apr_24_1223,ExactRep-v3-final,2021.2.3,59.792984558630245,
,,,,,,,,,,,,104,0,104,0,,,,,,,,,,,,,,,,,,,,,,,,,,,,,,,,,,,,,,,,,,,,,,,,,3574.528445499949,None,,,,,,,,,,,,,,,,,,,,,,,,,,,,,,,,,,,,,,,,,,,,,,,,,,,,,,,,,memory,152,105,silent,new,blue,3573.2891152994707,None,y,3573.2891152994707,None,"['y', 'return']","[0.9175971001386642, 1.2056066999211907]",3573.2891152994707,None,,,54,001,2023_Apr_24_1223,ExactRep-v3-final,2021.2.3,59.792984558630245,
,,,,,,,,,,,,105,0,105,0,,,,,,,,,,,,,,,,,,,,,,,,,,,,,,,,,,,,,,,,,,,,,,,,,3576.196626299992,None,,,,,,,,,,,,,,,,,,,,,,,,,,,,,,,,,,,,,,,,,,,,,,,,,,,,,,,,,plain,116,106,aloud,old,white,3575.0351114999503,None,y,3575.0351114999503,None,"['y', 'return']","[0.8596411002799869, 1.123671400360763]",3575.0351114999503,None,,,54,001,2023_Apr_24_1223,ExactRep-v3-final,2021.2.3,59.792984558630245,
,,,,,,,,,,,,106,0,106,0,,,,,,,,,,,,,,,,,,,,,,,,,,,,,,,,,,,,,,,,,,,,,,,,,3578.1153782000765,None,,,,,,,,,,,,,,,,,,,,,,,,,,,,,,,,,,,,,,,,,,,,,,,,,,,,,,,,,skin,206,107,aloud,new,white,3576.709405399859,None,y,3576.709405399859,None,"['y', 'return']","[1.0896624997258186, 1.3694202993065119]",3576.709405399859,None,,,54,001,2023_Apr_24_1223,ExactRep-v3-final,2021.2.3,59.792984558630245,
,,,,,,,,,,,,107,0,107,0,,,,,,,,,,,,,,,,,,,,,,,,,,,,,,,,,,,,,,,,,,,,,,,,,3579.7502598995343,None,,,,,,,,,,,,,,,,,,,,,,,,,,,,,,,,,,,,,,,,,,,,,,,,,,,,,,,,,slave,158,108,silent,new,blue,3578.6245912993327,None,y,3578.6245912993327,None,"['y', 'return']","[0.7901109997183084, 1.0861802995204926]",3578.6245912993327,None,,,54,001,2023_Apr_24_1223,ExactRep-v3-final,2021.2.3,59.792984558630245,
,,,,,,,,,,,,108,0,108,0,,,,,,,,,,,,,,,,,,,,,,,,,,,,,,,,,,,,,,,,,,,,,,,,,3581.435263399966,None,,,,,,,,,,,,,,,,,,,,,,,,,,,,,,,,,,,,,,,,,,,,,,,,,,,,,,,,,corner,148,109,silent,new,blue,3580.2595357997343,None,y,3580.2595357997343,None,"['y', 'return']","[0.8592705000191927, 1.1392644001170993]",3580.2595357997343,None,,,54,001,2023_Apr_24_1223,ExactRep-v3-final,2021.2.3,59.792984558630245,
,,,,,,,,,,,,109,0,109,0,,,,,,,,,,,,,,,,,,,,,,,,,,,,,,,,,,,,,,,,,,,,,,,,,3583.1870050998405,None,,,,,,,,,,,,,,,,,,,,,,,,,,,,,,,,,,,,,,,,,,,,,,,,,,,,,,,,,nail,3,110,sing,old,red,3581.947486699559,None,n,3581.947486699559,None,"['n', 'return']","[0.9153121998533607, 1.2033523004502058]",3581.947486699559,None,,,54,001,2023_Apr_24_1223,ExactRep-v3-final,2021.2.3,59.792984558630245,
,,,,,,,,,,,,110,0,110,0,,,,,,,,,,,,,,,,,,,,,,,,,,,,,,,,,,,,,,,,,,,,,,,,,3586.4738633995876,None,,,,,,,,,,,,,,,,,,,,,,,,,,,,,,,,,,,,,,,,,,,,,,,,,,,,,,,,,coin,139,111,silent,new,blue,3583.6957847997546,None,y,3583.6957847997546,None,"['y', 'return']","[2.470982700586319, 2.7429724000394344]",3583.6957847997546,None,,,54,001,2023_Apr_24_1223,ExactRep-v3-final,2021.2.3,59.792984558630245,
,,,,,,,,,,,,111,0,111,0,,,,,,,,,,,,,,,,,,,,,,,,,,,,,,,,,,,,,,,,,,,,,,,,,3588.4088602000847,None,,,,,,,,,,,,,,,,,,,,,,,,,,,,,,,,,,,,,,,,,,,,,,,,,,,,,,,,,prison,25,112,sing,old,red,3586.977290299721,None,y,3586.977290299721,None,"['y', 'return']","[1.0536190997809172, 1.3895076997578144]",3586.977290299721,None,,,54,001,2023_Apr_24_1223,ExactRep-v3-final,2021.2.3,59.792984558630245,
,,,,,,,,,,,,112,0,112,0,,,,,,,,,,,,,,,,,,,,,,,,,,,,,,,,,,,,,,,,,,,,,,,,,3590.1939546996728,None,,,,,,,,,,,,,,,,,,,,,,,,,,,,,,,,,,,,,,,,,,,,,,,,,,,,,,,,,custom,109,113,aloud,old,white,3588.9156462000683,None,y,3588.9156462000683,None,"['y', 'return']","[0.9871168006211519, 1.2432212000712752]",3588.9156462000683,None,,,54,001,2023_Apr_24_1223,ExactRep-v3-final,2021.2.3,59.792984558630245,
,,,,,,,,,,,,113,0,113,0,,,,,,,,,,,,,,,,,,,,,,,,,,,,,,,,,,,,,,,,,,,,,,,,,3592.095878600143,None,,,,,,,,,,,,,,,,,,,,,,,,,,,,,,,,,,,,,,,,,,,,,,,,,,,,,,,,,butter,185,114,sing,new,red,3590.7063156999648,None,n,3590.7063156999648,None,"['n', 'return']","[1.044464100152254, 1.3485497999936342]",3590.7063156999648,None,,,54,001,2023_Apr_24_1223,ExactRep-v3-final,2021.2.3,59.792984558630245,
,,,,,,,,,,,,114,0,114,0,,,,,,,,,,,,,,,,,,,,,,,,,,,,,,,,,,,,,,,,,,,,,,,,,3594.4012299999595,None,,,,,,,,,,,,,,,,,,,,,,,,,,,,,,,,,,,,,,,,,,,,,,,,,,,,,,,,,meat,234,115,aloud,new,white,3592.6057992000133,None,n,3592.6057992000133,None,"['n', 'return']","[1.440943700261414, 1.745057400316]",3592.6057992000133,None,,,54,001,2023_Apr_24_1223,ExactRep-v3-final,2021.2.3,59.792984558630245,
,,,,,,,,,,,,115,0,115,0,,,,,,,,,,,,,,,,,,,,,,,,,,,,,,,,,,,,,,,,,,,,,,,,,3596.6838061995804,None,,,,,,,,,,,,,,,,,,,,,,,,,,,,,,,,,,,,,,,,,,,,,,,,,,,,,,,,,shame,220,116,aloud,new,white,3594.9252729993314,None,n,3594.9252729993314,None,"['n', 'return']","[1.465574100613594, 1.721543500199914]",3594.9252729993314,None,,,54,001,2023_Apr_24_1223,ExactRep-v3-final,2021.2.3,59.792984558630245,
,,,,,,,,,,,,116,0,116,0,,,,,,,,,,,,,,,,,,,,,,,,,,,,,,,,,,,,,,,,,,,,,,,,,3598.502228300087,None,,,,,,,,,,,,,,,,,,,,,,,,,,,,,,,,,,,,,,,,,,,,,,,,,,,,,,,,,diamond,144,117,silent,new,blue,3597.193825699389,None,n,3597.193825699389,None,"['n', 'return']","[1.0290533993393183, 1.2689843997359276]",3597.193825699389,None,,,54,001,2023_Apr_24_1223,ExactRep-v3-final,2021.2.3,59.792984558630245,
,,,,,,,,,,,,117,0,117,0,,,,,,,,,,,,,,,,,,,,,,,,,,,,,,,,,,,,,,,,,,,,,,,,,3600.5709937997162,None,,,,,,,,,,,,,,,,,,,,,,,,,,,,,,,,,,,,,,,,,,,,,,,,,,,,,,,,,history,142,118,silent,new,blue,3599.0157059999183,None,y,3599.0157059999183,None,"['y', 'return']","[1.1196389002725482, 1.5110498005524278]",3599.0157059999183,None,,,54,001,2023_Apr_24_1223,ExactRep-v3-final,2021.2.3,59.792984558630245,
,,,,,,,,,,,,118,0,118,0,,,,,,,,,,,,,,,,,,,,,,,,,,,,,,,,,,,,,,,,,,,,,,,,,3602.2060099001974,None,,,,,,,,,,,,,,,,,,,,,,,,,,,,,,,,,,,,,,,,,,,,,,,,,,,,,,,,,vessel,226,119,aloud,new,white,3601.082124900073,None,n,3601.082124900073,None,"['n', 'return']","[0.8446442000567913, 1.0846063001081347]",3601.082124900073,None,,,54,001,2023_Apr_24_1223,ExactRep-v3-final,2021.2.3,59.792984558630245,
,,,,,,,,,,,,119,0,119,0,,,,,,,,,,,,,,,,,,,,,,,,,,,,,,,,,,,,,,,,,,,,,,,,,3606.3125040000305,None,,,,,,,,,,,,,,,,,,,,,,,,,,,,,,,,,,,,,,,,,,,,,,,,,,,,,,,,,car,85,120,aloud,old,white,3602.716354600154,None,n,3602.716354600154,None,"['n', 'return']","[3.266532100737095, 3.554320100694895]",3602.716354600154,None,,,54,001,2023_Apr_24_1223,ExactRep-v3-final,2021.2.3,59.792984558630245,
,,,,,,,,,,,,120,0,120,0,,,,,,,,,,,,,,,,,,,,,,,,,,,,,,,,,,,,,,,,,,,,,,,,,3608.0952008999884,None,,,,,,,,,,,,,,,,,,,,,,,,,,,,,,,,,,,,,,,,,,,,,,,,,,,,,,,,,ticket,192,121,aloud,new,white,3606.8324924996123,None,n,3606.8324924996123,None,"['n', 'return']","[1.0222881995141506, 1.2221748000010848]",3606.8324924996123,None,,,54,001,2023_Apr_24_1223,ExactRep-v3-final,2021.2.3,59.792984558630245,
,,,,,,,,,,,,121,0,121,0,,,,,,,,,,,,,,,,,,,,,,,,,,,,,,,,,,,,,,,,,,,,,,,,,3611.198292000219,None,,,,,,,,,,,,,,,,,,,,,,,,,,,,,,,,,,,,,,,,,,,,,,,,,,,,,,,,,idea,160,122,aloud,new,white,3608.607591900043,None,n,3608.607591900043,None,"['n', 'return']","[2.143184599466622, 2.543261599726975]",3608.607591900043,None,,,54,001,2023_Apr_24_1223,ExactRep-v3-final,2021.2.3,59.792984558630245,
,,,,,,,,,,,,122,0,122,0,,,,,,,,,,,,,,,,,,,,,,,,,,,,,,,,,,,,,,,,,,,,,,,,,3613.083564599976,None,,,,,,,,,,,,,,,,,,,,,,,,,,,,,,,,,,,,,,,,,,,,,,,,,,,,,,,,,justice,13,123,sing,old,red,3611.7177781993523,None,y,3611.7177781993523,None,"['y', 'return']","[1.1050343001261353, 1.320988300256431]",3611.7177781993523,None,,,54,001,2023_Apr_24_1223,ExactRep-v3-final,2021.2.3,59.792984558630245,
,,,,,,,,,,,,123,0,123,0,,,,,,,,,,,,,,,,,,,,,,,,,,,,,,,,,,,,,,,,,,,,,,,,,3616.0865762000903,None,,,,,,,,,,,,,,,,,,,,,,,,,,,,,,,,,,,,,,,,,,,,,,,,,,,,,,,,,month,7,124,sing,old,red,3613.5933919996023,None,y,3613.5933919996023,None,"['y', 'return']","[2.3335033003240824, 2.4614474000409245]",3613.5933919996023,None,,,54,001,2023_Apr_24_1223,ExactRep-v3-final,2021.2.3,59.792984558630245,
,,,,,,,,,,,,124,0,124,0,,,,,,,,,,,,,,,,,,,,,,,,,,,,,,,,,,,,,,,,,,,,,,,,,3618.221999099478,None,,,,,,,,,,,,,,,,,,,,,,,,,,,,,,,,,,,,,,,,,,,,,,,,,,,,,,,,,book,83,125,aloud,old,white,3616.594967599958,None,n,3616.594967599958,None,"['n', 'return']","[1.0359677001833916, 1.5798621997237206]",3616.594967599958,None,,,54,001,2023_Apr_24_1223,ExactRep-v3-final,2021.2.3,59.792984558630245,
,,,,,,,,,,,,125,0,125,0,,,,,,,,,,,,,,,,,,,,,,,,,,,,,,,,,,,,,,,,,,,,,,,,,3619.823579499498,None,,,,,,,,,,,,,,,,,,,,,,,,,,,,,,,,,,,,,,,,,,,,,,,,,,,,,,,,,excuse,198,126,aloud,new,white,3618.7418304001912,None,n,3618.7418304001912,None,"['n', 'return']","[0.7289922991767526, 1.0409939996898174]",3618.7418304001912,None,,,54,001,2023_Apr_24_1223,ExactRep-v3-final,2021.2.3,59.792984558630245,
,,,,,,,,,,,,126,0,126,0,,,,,,,,,,,,,,,,,,,,,,,,,,,,,,,,,,,,,,,,,,,,,,,,,3622.9935662997887,None,,,,,,,,,,,,,,,,,,,,,,,,,,,,,,,,,,,,,,,,,,,,,,,,,,,,,,,,,life,196,127,aloud,new,white,3620.3364301994443,None,n,3620.3364301994443,None,"['n', 'return']","[2.126616700552404, 2.6143475007265806]",3620.3364301994443,None,,,54,001,2023_Apr_24_1223,ExactRep-v3-final,2021.2.3,59.792984558630245,
,,,,,,,,,,,,127,0,127,0,,,,,,,,,,,,,,,,,,,,,,,,,,,,,,,,,,,,,,,,,,,,,,,,,3624.6785257998854,None,,,,,,,,,,,,,,,,,,,,,,,,,,,,,,,,,,,,,,,,,,,,,,,,,,,,,,,,,duty,168,128,aloud,new,white,3623.502964099869,None,n,3623.502964099869,None,"['n', 'return']","[0.647745699621737, 1.1358022997155786]",3623.502964099869,None,,,54,001,2023_Apr_24_1223,ExactRep-v3-final,2021.2.3,59.792984558630245,
,,,,,,,,,,,,128,0,128,0,,,,,,,,,,,,,,,,,,,,,,,,,,,,,,,,,,,,,,,,,,,,,,,,,3626.2633518995717,None,,,,,,,,,,,,,,,,,,,,,,,,,,,,,,,,,,,,,,,,,,,,,,,,,,,,,,,,,officer,229,129,sing,new,red,3625.1854429999366,None,n,3625.1854429999366,None,"['n', 'return']","[0.7413307996466756, 1.0374696999788284]",3625.1854429999366,None,,,54,001,2023_Apr_24_1223,ExactRep-v3-final,2021.2.3,59.792984558630245,
,,,,,,,,,,,,129,0,129,0,,,,,,,,,,,,,,,,,,,,,,,,,,,,,,,,,,,,,,,,,,,,,,,,,3628.8659905996174,None,,,,,,,,,,,,,,,,,,,,,,,,,,,,,,,,,,,,,,,,,,,,,,,,,,,,,,,,,speech,138,130,silent,new,blue,3626.7802804000676,None,y,3626.7802804000676,None,"['y', 'return']","[1.826506800018251, 2.0504935001954436]",3626.7802804000676,None,,,54,001,2023_Apr_24_1223,ExactRep-v3-final,2021.2.3,59.792984558630245,
,,,,,,,,,,,,130,0,130,0,,,,,,,,,,,,,,,,,,,,,,,,,,,,,,,,,,,,,,,,,,,,,,,,,3630.8847198998556,None,,,,,,,,,,,,,,,,,,,,,,,,,,,,,,,,,,,,,,,,,,,,,,,,,,,,,,,,,college,195,131,sing,new,red,3629.3756034998223,None,n,3629.3756034998223,None,"['n', 'return']","[1.1751314997673035, 1.4712998997420073]",3629.3756034998223,None,,,54,001,2023_Apr_24_1223,ExactRep-v3-final,2021.2.3,59.792984558630245,
