trials_fam.thisRepN,trials_fam.thisTrialN,trials_fam.thisN,trials_fam.thisIndex,trials_prc.thisRepN,trials_prc.thisTrialN,trials_prc.thisN,trials_prc.thisIndex,StudyLoop.thisRepN,StudyLoop.thisTrialN,StudyLoop.thisN,StudyLoop.thisIndex,TestLoop.thisRepN,TestLoop.thisTrialN,TestLoop.thisN,TestLoop.thisIndex,text_colortest.started,text_colortest.stopped,key_colortest.keys,key_colortest.rt,key_colortest.started,key_colortest.stopped,textCondition.started,textCondition.stopped,keyCondition.keys,keyCondition.rt,keyCondition.started,keyCondition.stopped,Condition_between,Condition_counterbal,keyWelcome.keys,keyWelcome.rt,keyWelcome.started,keyWelcome.stopped,welcome_a.started,welcome_a.stopped,welcome_b.started,welcome_b.stopped,welcome_c.started,welcome_c.stopped,welcome_d.started,welcome_d.stopped,welcome_e.started,welcome_e.stopped,welcome_f.started,welcome_f.stopped,key_resp_fam_inst.keys,key_resp_fam_inst.rt,key_resp_fam_inst.started,key_resp_fam_inst.stopped,fam_a.started,fam_a.stopped,fam_b.started,fam_b.stopped,fam_c.started,fam_c.stopped,fam_d.started,fam_d.stopped,fam_e.started,fam_e.stopped,fam_f.started,fam_f.stopped,text_famil.started,text_famil.stopped,textBlank500.started,textBlank500.stopped,key_resp_prc_inst.keys,key_resp_prc_inst.rt,key_resp_prc_inst.started,key_resp_prc_inst.stopped,prac_a.started,prac_a.stopped,prac_b.started,prac_b.stopped,prac_c.started,prac_c.stopped,prac_d.started,prac_d.stopped,prac_e.started,prac_e.stopped,prac_f.started,prac_f.stopped,text_prc_trial.started,text_prc_trial.stopped,key_resp_study_inst.keys,key_resp_study_inst.rt,key_resp_study_inst.started,key_resp_study_inst.stopped,crit_a.started,crit_a.stopped,crit_b.started,crit_b.stopped,crit_c.started,crit_c.stopped,crit_d.started,crit_d.stopped,crit_e.started,crit_e.stopped,crit_f.started,crit_f.stopped,study_word,study_num,study_order,study_type,word_color,textStudy.started,textStudy.stopped,keyStudy.keys,keyStudy.started,keyStudy.stopped,post_study.started,post_study.stopped,key_resp_post_study.keys,key_resp_post_study.rt,key_resp_post_study.started,key_resp_post_study.stopped,test_inst.started,test_inst.stopped,key_resp_test_inst.keys,key_resp_test_inst.rt,key_resp_test_inst.started,key_resp_test_inst.stopped,test_word,test_num,test_order,test_condition,old_new_test,word_color_test,textConf.started,textConf.stopped,Participant Response,textInput.started,textInput.stopped,keyResp.keys,keyResp.rt,keyResp.started,keyResp.stopped,textEnd.started,textEnd.stopped,participant,session,date,expName,psychopyVersion,frameRate,
,,,,,,,,,,,,,,,,38.359676299616694,None,n,1.1208951994776726,38.359676299616694,None,,,,,,,,,,,,,,,,,,,,,,,,,,,,,,,,,,,,,,,,,,,,,,,,,,,,,,,,,,,,,,,,,,,,,,,,,,,,,,,,,,,,,,,,,,,,,,,,,,,,,,,,,,,,,,,,,,,,,,55,001,2023_Apr_26_1030,ExactRep-v3-final,2021.2.3,59.888666859590984,
,,,,,,,,,,,,,,,,,,,,,,39.51498569920659,None,a,0.6935264999046922,39.51498569920659,None,,,,,,,,,,,,,,,,,,,,,,,,,,,,,,,,,,,,,,,,,,,,,,,,,,,,,,,,,,,,,,,,,,,,,,,,,,,,,,,,,,,,,,,,,,,,,,,,,,,,,,,,,,,,,,,,55,001,2023_Apr_26_1030,ExactRep-v3-final,2021.2.3,59.888666859590984,
,,,,,,,,,,,,,,,,,,,,,,,,,,,,whitefoils,a,space,139.454189799726,50.39420329965651,None,,,,,,,,,,,,,,,,,,,,,,,,,,,,,,,,,,,,,,,,,,,,,,,,,,,,,,,,,,,,,,,,,,,,,,,,,,,,,,,,,,,,,,,,,,,,,,,,,,,,,,,,,,55,001,2023_Apr_26_1030,ExactRep-v3-final,2021.2.3,59.888666859590984,
,,,,,,,,,,,,,,,,,,,,,,,,,,,,,,,,,,40.41750569920987,None,40.41750569920987,None,40.41750569920987,None,40.41750569920987,None,40.41750569920987,None,40.41750569920987,None,space,16.679792900569737,200.06465779989958,None,,,,,,,,,,,,,,,,,,,,,,,,,,,,,,,,,,,,,,,,,,,,,,,,,,,,,,,,,,,,,,,,,,,,,,,,,,,,,,,,,,,,,,,,,,55,001,2023_Apr_26_1030,ExactRep-v3-final,2021.2.3,59.888666859590984,
0,0,0,0,,,,,,,,,,,,,,,,,,,,,,,,,,,,,,,,,,,,,,,,,,,,,,,190.04459279961884,None,190.04459279961884,None,190.04459279961884,None,190.04459279961884,None,190.04459279961884,None,190.04459279961884,None,216.878351399675,None,218.8772443998605,None,,,,,,,,,,,,,,,,,,,,,,,,,,,,,,,,,,,,,,,,,,,,,,,,,,,,,,,,,,,,,,,,,,,,,,,,,,55,001,2023_Apr_26_1030,ExactRep-v3-final,2021.2.3,59.888666859590984,
1,0,1,0,,,,,,,,,,,,,,,,,,,,,,,,,,,,,,,,,,,,,,,,,,,,,,,,,,,,,,,,,,,219.37777569983155,None,221.38000539969653,None,,,,,,,,,,,,,,,,,,,,,,,,,,,,,,,,,,,,,,,,,,,,,,,,,,,,,,,,,,,,,,,,,,,,,,,,,,55,001,2023_Apr_26_1030,ExactRep-v3-final,2021.2.3,59.888666859590984,
2,0,2,0,,,,,,,,,,,,,,,,,,,,,,,,,,,,,,,,,,,,,,,,,,,,,,,,,,,,,,,,,,,221.90463399980217,None,223.89916369970888,None,,,,,,,,,,,,,,,,,,,,,,,,,,,,,,,,,,,,,,,,,,,,,,,,,,,,,,,,,,,,,,,,,,,,,,,,,,55,001,2023_Apr_26_1030,ExactRep-v3-final,2021.2.3,59.888666859590984,
3,0,3,0,,,,,,,,,,,,,,,,,,,,,,,,,,,,,,,,,,,,,,,,,,,,,,,,,,,,,,,,,,,224.42425489984453,None,226.41814869921654,None,,,,,,,,,,,,,,,,,,,,,,,,,,,,,,,,,,,,,,,,,,,,,,,,,,,,,,,,,,,,,,,,,,,,,,,,,,55,001,2023_Apr_26_1030,ExactRep-v3-final,2021.2.3,59.888666859590984,
4,0,4,0,,,,,,,,,,,,,,,,,,,,,,,,,,,,,,,,,,,,,,,,,,,,,,,,,,,,,,,,,,,226.91895129997283,None,228.92085689958185,None,,,,,,,,,,,,,,,,,,,,,,,,,,,,,,,,,,,,,,,,,,,,,,,,,,,,,,,,,,,,,,,,,,,,,,,,,,55,001,2023_Apr_26_1030,ExactRep-v3-final,2021.2.3,59.888666859590984,
5,0,5,0,,,,,,,,,,,,,,,,,,,,,,,,,,,,,,,,,,,,,,,,,,,,,,,,,,,,,,,,,,,229.4284330997616,None,231.43975539971143,None,,,,,,,,,,,,,,,,,,,,,,,,,,,,,,,,,,,,,,,,,,,,,,,,,,,,,,,,,,,,,,,,,,,,,,,,,,55,001,2023_Apr_26_1030,ExactRep-v3-final,2021.2.3,59.888666859590984,
6,0,6,0,,,,,,,,,,,,,,,,,,,,,,,,,,,,,,,,,,,,,,,,,,,,,,,,,,,,,,,,,,,231.94429519958794,None,233.9593863999471,None,,,,,,,,,,,,,,,,,,,,,,,,,,,,,,,,,,,,,,,,,,,,,,,,,,,,,,,,,,,,,,,,,,,,,,,,,,55,001,2023_Apr_26_1030,ExactRep-v3-final,2021.2.3,59.888666859590984,
7,0,7,0,,,,,,,,,,,,,,,,,,,,,,,,,,,,,,,,,,,,,,,,,,,,,,,,,,,,,,,,,,,234.45984289981425,None,236.4617289993912,None,,,,,,,,,,,,,,,,,,,,,,,,,,,,,,,,,,,,,,,,,,,,,,,,,,,,,,,,,,,,,,,,,,,,,,,,,,55,001,2023_Apr_26_1030,ExactRep-v3-final,2021.2.3,59.888666859590984,
8,0,8,0,,,,,,,,,,,,,,,,,,,,,,,,,,,,,,,,,,,,,,,,,,,,,,,,,,,,,,,,,,,236.9703303994611,None,238.98096460010856,None,,,,,,,,,,,,,,,,,,,,,,,,,,,,,,,,,,,,,,,,,,,,,,,,,,,,,,,,,,,,,,,,,,,,,,,,,,55,001,2023_Apr_26_1030,ExactRep-v3-final,2021.2.3,59.888666859590984,
9,0,9,0,,,,,,,,,,,,,,,,,,,,,,,,,,,,,,,,,,,,,,,,,,,,,,,,,,,,,,,,,,,239.48915189970285,None,241.5000334000215,None,,,,,,,,,,,,,,,,,,,,,,,,,,,,,,,,,,,,,,,,,,,,,,,,,,,,,,,,,,,,,,,,,,,,,,,,,,55,001,2023_Apr_26_1030,ExactRep-v3-final,2021.2.3,59.888666859590984,
10,0,10,0,,,,,,,,,,,,,,,,,,,,,,,,,,,,,,,,,,,,,,,,,,,,,,,,,,,,,,,,,,,242.0021039992571,None,244.0026714997366,None,,,,,,,,,,,,,,,,,,,,,,,,,,,,,,,,,,,,,,,,,,,,,,,,,,,,,,,,,,,,,,,,,,,,,,,,,,55,001,2023_Apr_26_1030,ExactRep-v3-final,2021.2.3,59.888666859590984,
11,0,11,0,,,,,,,,,,,,,,,,,,,,,,,,,,,,,,,,,,,,,,,,,,,,,,,,,,,,,,,,,,,244.51159749925137,None,246.52178959921002,None,,,,,,,,,,,,,,,,,,,,,,,,,,,,,,,,,,,,,,,,,,,,,,,,,,,,,,,,,,,,,,,,,,,,,,,,,,55,001,2023_Apr_26_1030,ExactRep-v3-final,2021.2.3,59.888666859590984,
12,0,12,0,,,,,,,,,,,,,,,,,,,,,,,,,,,,,,,,,,,,,,,,,,,,,,,,,,,,,,,,,,,247.02631550002843,None,249.04070740006864,None,,,,,,,,,,,,,,,,,,,,,,,,,,,,,,,,,,,,,,,,,,,,,,,,,,,,,,,,,,,,,,,,,,,,,,,,,,55,001,2023_Apr_26_1030,ExactRep-v3-final,2021.2.3,59.888666859590984,
13,0,13,0,,,,,,,,,,,,,,,,,,,,,,,,,,,,,,,,,,,,,,,,,,,,,,,,,,,,,,,,,,,249.54504839982837,None,251.56024989951402,None,,,,,,,,,,,,,,,,,,,,,,,,,,,,,,,,,,,,,,,,,,,,,,,,,,,,,,,,,,,,,,,,,,,,,,,,,,55,001,2023_Apr_26_1030,ExactRep-v3-final,2021.2.3,59.888666859590984,
14,0,14,0,,,,,,,,,,,,,,,,,,,,,,,,,,,,,,,,,,,,,,,,,,,,,,,,,,,,,,,,,,,252.06084039993584,None,254.06260219961405,None,,,,,,,,,,,,,,,,,,,,,,,,,,,,,,,,,,,,,,,,,,,,,,,,,,,,,,,,,,,,,,,,,,,,,,,,,,55,001,2023_Apr_26_1030,ExactRep-v3-final,2021.2.3,59.888666859590984,
,,,,,,,,,,,,,,,,,,,,,,,,,,,,,,,,,,,,,,,,,,,,,,,,,,,,,,,,,,,,,,,,,,space,19.327745500020683,264.68898320011795,None,,,,,,,,,,,,,,,,,,,,,,,,,,,,,,,,,,,,,,,,,,,,,,,,,,,,,,,,,,,,,,,,,,,,,,55,001,2023_Apr_26_1030,ExactRep-v3-final,2021.2.3,59.888666859590984,
,,,,0,0,0,0,,,,,,,,,,,,,,,,,,,,,,,,,,,,,,,,,,,,,,,,,,,,,,,,,,,,,,,,,286.0947797000408,None,,,,,254.7306693997234,None,254.7306693997234,None,254.7306693997234,None,254.7306693997234,None,254.7306693997234,None,254.7306693997234,None,284.082907599397,None,,,,,,,,,,,,,,,,,,,,,,,,,,,,,,,,,,,,,,,,,,,,,,,,,,,,,,,,55,001,2023_Apr_26_1030,ExactRep-v3-final,2021.2.3,59.888666859590984,
,,,,1,0,1,0,,,,,,,,,,,,,,,,,,,,,,,,,,,,,,,,,,,,,,,,,,,,,,,,,,,,,,,,,288.59700549952686,None,,,,,,,,,,,,,,,,,286.595232299529,None,,,,,,,,,,,,,,,,,,,,,,,,,,,,,,,,,,,,,,,,,,,,,,,,,,,,,,,,55,001,2023_Apr_26_1030,ExactRep-v3-final,2021.2.3,59.888666859590984,
,,,,2,0,2,0,,,,,,,,,,,,,,,,,,,,,,,,,,,,,,,,,,,,,,,,,,,,,,,,,,,,,,,,,291.09962920006365,None,,,,,,,,,,,,,,,,,289.09764529950917,None,,,,,,,,,,,,,,,,,,,,,,,,,,,,,,,,,,,,,,,,,,,,,,,,,,,,,,,,55,001,2023_Apr_26_1030,ExactRep-v3-final,2021.2.3,59.888666859590984,
,,,,3,0,3,0,,,,,,,,,,,,,,,,,,,,,,,,,,,,,,,,,,,,,,,,,,,,,,,,,,,,,,,,,293.6022005993873,None,,,,,,,,,,,,,,,,,291.6000346997753,None,,,,,,,,,,,,,,,,,,,,,,,,,,,,,,,,,,,,,,,,,,,,,,,,,,,,,,,,55,001,2023_Apr_26_1030,ExactRep-v3-final,2021.2.3,59.888666859590984,
,,,,4,0,4,0,,,,,,,,,,,,,,,,,,,,,,,,,,,,,,,,,,,,,,,,,,,,,,,,,,,,,,,,,296.1047128997743,None,,,,,,,,,,,,,,,,,294.1027408996597,None,,,,,,,,,,,,,,,,,,,,,,,,,,,,,,,,,,,,,,,,,,,,,,,,,,,,,,,,55,001,2023_Apr_26_1030,ExactRep-v3-final,2021.2.3,59.888666859590984,
,,,,5,0,5,0,,,,,,,,,,,,,,,,,,,,,,,,,,,,,,,,,,,,,,,,,,,,,,,,,,,,,,,,,298.6072146994993,None,,,,,,,,,,,,,,,,,296.60498089995235,None,,,,,,,,,,,,,,,,,,,,,,,,,,,,,,,,,,,,,,,,,,,,,,,,,,,,,,,,55,001,2023_Apr_26_1030,ExactRep-v3-final,2021.2.3,59.888666859590984,
,,,,6,0,6,0,,,,,,,,,,,,,,,,,,,,,,,,,,,,,,,,,,,,,,,,,,,,,,,,,,,,,,,,,301.10966309998184,None,,,,,,,,,,,,,,,,,299.10759510006756,None,,,,,,,,,,,,,,,,,,,,,,,,,,,,,,,,,,,,,,,,,,,,,,,,,,,,,,,,55,001,2023_Apr_26_1030,ExactRep-v3-final,2021.2.3,59.888666859590984,
,,,,7,0,7,0,,,,,,,,,,,,,,,,,,,,,,,,,,,,,,,,,,,,,,,,,,,,,,,,,,,,,,,,,303.6122896997258,None,,,,,,,,,,,,,,,,,301.6102137994021,None,,,,,,,,,,,,,,,,,,,,,,,,,,,,,,,,,,,,,,,,,,,,,,,,,,,,,,,,55,001,2023_Apr_26_1030,ExactRep-v3-final,2021.2.3,59.888666859590984,
,,,,8,0,8,0,,,,,,,,,,,,,,,,,,,,,,,,,,,,,,,,,,,,,,,,,,,,,,,,,,,,,,,,,306.11471309978515,None,,,,,,,,,,,,,,,,,304.1127985995263,None,,,,,,,,,,,,,,,,,,,,,,,,,,,,,,,,,,,,,,,,,,,,,,,,,,,,,,,,55,001,2023_Apr_26_1030,ExactRep-v3-final,2021.2.3,59.888666859590984,
,,,,9,0,9,0,,,,,,,,,,,,,,,,,,,,,,,,,,,,,,,,,,,,,,,,,,,,,,,,,,,,,,,,,308.61718659941107,None,,,,,,,,,,,,,,,,,306.6153120994568,None,,,,,,,,,,,,,,,,,,,,,,,,,,,,,,,,,,,,,,,,,,,,,,,,,,,,,,,,55,001,2023_Apr_26_1030,ExactRep-v3-final,2021.2.3,59.888666859590984,
,,,,10,0,10,0,,,,,,,,,,,,,,,,,,,,,,,,,,,,,,,,,,,,,,,,,,,,,,,,,,,,,,,,,311.1197004998103,None,,,,,,,,,,,,,,,,,309.11766039952636,None,,,,,,,,,,,,,,,,,,,,,,,,,,,,,,,,,,,,,,,,,,,,,,,,,,,,,,,,55,001,2023_Apr_26_1030,ExactRep-v3-final,2021.2.3,59.888666859590984,
,,,,11,0,11,0,,,,,,,,,,,,,,,,,,,,,,,,,,,,,,,,,,,,,,,,,,,,,,,,,,,,,,,,,313.62196519970894,None,,,,,,,,,,,,,,,,,311.6200144998729,None,,,,,,,,,,,,,,,,,,,,,,,,,,,,,,,,,,,,,,,,,,,,,,,,,,,,,,,,55,001,2023_Apr_26_1030,ExactRep-v3-final,2021.2.3,59.888666859590984,
,,,,12,0,12,0,,,,,,,,,,,,,,,,,,,,,,,,,,,,,,,,,,,,,,,,,,,,,,,,,,,,,,,,,316.12463659979403,None,,,,,,,,,,,,,,,,,314.1226955000311,None,,,,,,,,,,,,,,,,,,,,,,,,,,,,,,,,,,,,,,,,,,,,,,,,,,,,,,,,55,001,2023_Apr_26_1030,ExactRep-v3-final,2021.2.3,59.888666859590984,
,,,,13,0,13,0,,,,,,,,,,,,,,,,,,,,,,,,,,,,,,,,,,,,,,,,,,,,,,,,,,,,,,,,,318.6273341998458,None,,,,,,,,,,,,,,,,,316.6253843996674,None,,,,,,,,,,,,,,,,,,,,,,,,,,,,,,,,,,,,,,,,,,,,,,,,,,,,,,,,55,001,2023_Apr_26_1030,ExactRep-v3-final,2021.2.3,59.888666859590984,
,,,,14,0,14,0,,,,,,,,,,,,,,,,,,,,,,,,,,,,,,,,,,,,,,,,,,,,,,,,,,,,,,,,,321.12974269967526,None,,,,,,,,,,,,,,,,,319.12782999966294,None,,,,,,,,,,,,,,,,,,,,,,,,,,,,,,,,,,,,,,,,,,,,,,,,,,,,,,,,55,001,2023_Apr_26_1030,ExactRep-v3-final,2021.2.3,59.888666859590984,
,,,,,,,,,,,,,,,,,,,,,,,,,,,,,,,,,,,,,,,,,,,,,,,,,,,,,,,,,,,,,,,,,,,,,,,,,,,,,,,,,,,,space,23.784864000044763,331.74423779919744,None,,,,,,,,,,,,,,,,,,,,,,,,,,,,,,,,,,,,,,,,,,,,,,,,,,,,55,001,2023_Apr_26_1030,ExactRep-v3-final,2021.2.3,59.888666859590984,
,,,,,,,,0,0,0,0,,,,,,,,,,,,,,,,,,,,,,,,,,,,,,,,,,,,,,,,,,,,,,,,,,,,,357.5994597999379,None,,,,,,,,,,,,,,,,,,,,,,,321.8055266998708,None,321.8055266998708,None,321.8055266998708,None,321.8055266998708,None,321.8055266998708,None,321.8055266998708,None,breast,45,1,silent,blue,355.5921090999618,None,None,355.5921090999618,None,,,,,,,,,,,,,,,,,,,,,,,,,,,,,,55,001,2023_Apr_26_1030,ExactRep-v3-final,2021.2.3,59.888666859590984,
,,,,,,,,1,0,1,0,,,,,,,,,,,,,,,,,,,,,,,,,,,,,,,,,,,,,,,,,,,,,,,,,,,,,360.1020088996738,None,,,,,,,,,,,,,,,,,,,,,,,,,,,,,,,,,,,library,27,2,sing,white,358.0998638998717,None,None,358.0998638998717,None,,,,,,,,,,,,,,,,,,,,,,,,,,,,,,55,001,2023_Apr_26_1030,ExactRep-v3-final,2021.2.3,59.888666859590984,
,,,,,,,,2,0,2,0,,,,,,,,,,,,,,,,,,,,,,,,,,,,,,,,,,,,,,,,,,,,,,,,,,,,,362.6211981996894,None,,,,,,,,,,,,,,,,,,,,,,,,,,,,,,,,,,,star,101,3,aloud,red,360.6056447001174,None,None,360.6056447001174,None,,,,,,,,,,,,,,,,,,,,,,,,,,,,,,55,001,2023_Apr_26_1030,ExactRep-v3-final,2021.2.3,59.888666859590984,
,,,,,,,,3,0,3,0,,,,,,,,,,,,,,,,,,,,,,,,,,,,,,,,,,,,,,,,,,,,,,,,,,,,,365.1408084994182,None,,,,,,,,,,,,,,,,,,,,,,,,,,,,,,,,,,,form,49,4,silent,blue,363.12738039996475,None,None,363.12738039996475,None,,,,,,,,,,,,,,,,,,,,,,,,,,,,,,55,001,2023_Apr_26_1030,ExactRep-v3-final,2021.2.3,59.888666859590984,
,,,,,,,,4,0,4,0,,,,,,,,,,,,,,,,,,,,,,,,,,,,,,,,,,,,,,,,,,,,,,,,,,,,,367.65954469982535,None,,,,,,,,,,,,,,,,,,,,,,,,,,,,,,,,,,,picture,30,5,sing,white,365.64816749934107,None,None,365.64816749934107,None,,,,,,,,,,,,,,,,,,,,,,,,,,,,,,55,001,2023_Apr_26_1030,ExactRep-v3-final,2021.2.3,59.888666859590984,
,,,,,,,,5,0,5,0,,,,,,,,,,,,,,,,,,,,,,,,,,,,,,,,,,,,,,,,,,,,,,,,,,,,,370.1786934994161,None,,,,,,,,,,,,,,,,,,,,,,,,,,,,,,,,,,,flesh,108,6,aloud,red,368.16318679973483,None,None,368.16318679973483,None,,,,,,,,,,,,,,,,,,,,,,,,,,,,,,55,001,2023_Apr_26_1030,ExactRep-v3-final,2021.2.3,59.888666859590984,
,,,,,,,,6,0,6,0,,,,,,,,,,,,,,,,,,,,,,,,,,,,,,,,,,,,,,,,,,,,,,,,,,,,,372.68126679956913,None,,,,,,,,,,,,,,,,,,,,,,,,,,,,,,,,,,,rock,89,7,aloud,red,370.6822202000767,None,None,370.6822202000767,None,,,,,,,,,,,,,,,,,,,,,,,,,,,,,,55,001,2023_Apr_26_1030,ExactRep-v3-final,2021.2.3,59.888666859590984,
,,,,,,,,7,0,7,0,,,,,,,,,,,,,,,,,,,,,,,,,,,,,,,,,,,,,,,,,,,,,,,,,,,,,375.1836899993941,None,,,,,,,,,,,,,,,,,,,,,,,,,,,,,,,,,,,boulder,111,8,aloud,red,373.18471179995686,None,None,373.18471179995686,None,,,,,,,,,,,,,,,,,,,,,,,,,,,,,,55,001,2023_Apr_26_1030,ExactRep-v3-final,2021.2.3,59.888666859590984,
,,,,,,,,8,0,8,0,,,,,,,,,,,,,,,,,,,,,,,,,,,,,,,,,,,,,,,,,,,,,,,,,,,,,377.68621909990907,None,,,,,,,,,,,,,,,,,,,,,,,,,,,,,,,,,,,prayer,8,9,sing,white,375.6847329996526,None,None,375.6847329996526,None,,,,,,,,,,,,,,,,,,,,,,,,,,,,,,55,001,2023_Apr_26_1030,ExactRep-v3-final,2021.2.3,59.888666859590984,
,,,,,,,,9,0,9,0,,,,,,,,,,,,,,,,,,,,,,,,,,,,,,,,,,,,,,,,,,,,,,,,,,,,,380.1887067994103,None,,,,,,,,,,,,,,,,,,,,,,,,,,,,,,,,,,,city,0,10,sing,white,378.18657979927957,None,None,378.18657979927957,None,,,,,,,,,,,,,,,,,,,,,,,,,,,,,,55,001,2023_Apr_26_1030,ExactRep-v3-final,2021.2.3,59.888666859590984,
,,,,,,,,10,0,10,0,,,,,,,,,,,,,,,,,,,,,,,,,,,,,,,,,,,,,,,,,,,,,,,,,,,,,382.7078059995547,None,,,,,,,,,,,,,,,,,,,,,,,,,,,,,,,,,,,home,54,11,silent,blue,380.6948520997539,None,None,380.6948520997539,None,,,,,,,,,,,,,,,,,,,,,,,,,,,,,,55,001,2023_Apr_26_1030,ExactRep-v3-final,2021.2.3,59.888666859590984,
,,,,,,,,11,0,11,0,,,,,,,,,,,,,,,,,,,,,,,,,,,,,,,,,,,,,,,,,,,,,,,,,,,,,385.2271237997338,None,,,,,,,,,,,,,,,,,,,,,,,,,,,,,,,,,,,winter,98,12,aloud,red,383.21172089967877,None,None,383.21172089967877,None,,,,,,,,,,,,,,,,,,,,,,,,,,,,,,55,001,2023_Apr_26_1030,ExactRep-v3-final,2021.2.3,59.888666859590984,
,,,,,,,,12,0,12,0,,,,,,,,,,,,,,,,,,,,,,,,,,,,,,,,,,,,,,,,,,,,,,,,,,,,,387.7464723996818,None,,,,,,,,,,,,,,,,,,,,,,,,,,,,,,,,,,,sugar,52,13,silent,blue,385.73584819957614,None,None,385.73584819957614,None,,,,,,,,,,,,,,,,,,,,,,,,,,,,,,55,001,2023_Apr_26_1030,ExactRep-v3-final,2021.2.3,59.888666859590984,
,,,,,,,,13,0,13,0,,,,,,,,,,,,,,,,,,,,,,,,,,,,,,,,,,,,,,,,,,,,,,,,,,,,,390.26545229926705,None,,,,,,,,,,,,,,,,,,,,,,,,,,,,,,,,,,,ship,35,14,sing,white,388.2545401994139,None,None,388.2545401994139,None,,,,,,,,,,,,,,,,,,,,,,,,,,,,,,55,001,2023_Apr_26_1030,ExactRep-v3-final,2021.2.3,59.888666859590984,
,,,,,,,,14,0,14,0,,,,,,,,,,,,,,,,,,,,,,,,,,,,,,,,,,,,,,,,,,,,,,,,,,,,,392.7680118000135,None,,,,,,,,,,,,,,,,,,,,,,,,,,,,,,,,,,,doctor,66,15,silent,blue,390.767023999244,None,None,390.767023999244,None,,,,,,,,,,,,,,,,,,,,,,,,,,,,,,55,001,2023_Apr_26_1030,ExactRep-v3-final,2021.2.3,59.888666859590984,
,,,,,,,,15,0,15,0,,,,,,,,,,,,,,,,,,,,,,,,,,,,,,,,,,,,,,,,,,,,,,,,,,,,,395.2871800996363,None,,,,,,,,,,,,,,,,,,,,,,,,,,,,,,,,,,,crime,112,16,aloud,red,393.27152179926634,None,None,393.27152179926634,None,,,,,,,,,,,,,,,,,,,,,,,,,,,,,,55,001,2023_Apr_26_1030,ExactRep-v3-final,2021.2.3,59.888666859590984,
,,,,,,,,16,0,16,0,,,,,,,,,,,,,,,,,,,,,,,,,,,,,,,,,,,,,,,,,,,,,,,,,,,,,397.8063698997721,None,,,,,,,,,,,,,,,,,,,,,,,,,,,,,,,,,,,glory,81,17,aloud,red,395.793366599828,None,None,395.793366599828,None,,,,,,,,,,,,,,,,,,,,,,,,,,,,,,55,001,2023_Apr_26_1030,ExactRep-v3-final,2021.2.3,59.888666859590984,
,,,,,,,,17,0,17,0,,,,,,,,,,,,,,,,,,,,,,,,,,,,,,,,,,,,,,,,,,,,,,,,,,,,,400.30885479971766,None,,,,,,,,,,,,,,,,,,,,,,,,,,,,,,,,,,,hour,60,18,silent,blue,398.306863299571,None,None,398.306863299571,None,,,,,,,,,,,,,,,,,,,,,,,,,,,,,,55,001,2023_Apr_26_1030,ExactRep-v3-final,2021.2.3,59.888666859590984,
,,,,,,,,18,0,18,0,,,,,,,,,,,,,,,,,,,,,,,,,,,,,,,,,,,,,,,,,,,,,,,,,,,,,402.828056499362,None,,,,,,,,,,,,,,,,,,,,,,,,,,,,,,,,,,,fault,56,19,silent,blue,400.8127072993666,None,None,400.8127072993666,None,,,,,,,,,,,,,,,,,,,,,,,,,,,,,,55,001,2023_Apr_26_1030,ExactRep-v3-final,2021.2.3,59.888666859590984,
,,,,,,,,19,0,19,0,,,,,,,,,,,,,,,,,,,,,,,,,,,,,,,,,,,,,,,,,,,,,,,,,,,,,405.3305445993319,None,,,,,,,,,,,,,,,,,,,,,,,,,,,,,,,,,,,tool,70,20,silent,blue,403.3295013997704,None,None,403.3295013997704,None,,,,,,,,,,,,,,,,,,,,,,,,,,,,,,55,001,2023_Apr_26_1030,ExactRep-v3-final,2021.2.3,59.888666859590984,
,,,,,,,,20,0,20,0,,,,,,,,,,,,,,,,,,,,,,,,,,,,,,,,,,,,,,,,,,,,,,,,,,,,,407.84975910000503,None,,,,,,,,,,,,,,,,,,,,,,,,,,,,,,,,,,,circle,34,21,sing,white,405.83502519968897,None,None,405.83502519968897,None,,,,,,,,,,,,,,,,,,,,,,,,,,,,,,55,001,2023_Apr_26_1030,ExactRep-v3-final,2021.2.3,59.888666859590984,
,,,,,,,,21,0,21,0,,,,,,,,,,,,,,,,,,,,,,,,,,,,,,,,,,,,,,,,,,,,,,,,,,,,,410.35225469991565,None,,,,,,,,,,,,,,,,,,,,,,,,,,,,,,,,,,,dream,72,22,silent,blue,408.3501150999218,None,None,408.3501150999218,None,,,,,,,,,,,,,,,,,,,,,,,,,,,,,,55,001,2023_Apr_26_1030,ExactRep-v3-final,2021.2.3,59.888666859590984,
,,,,,,,,22,0,22,0,,,,,,,,,,,,,,,,,,,,,,,,,,,,,,,,,,,,,,,,,,,,,,,,,,,,,412.87125199940056,None,,,,,,,,,,,,,,,,,,,,,,,,,,,,,,,,,,,pole,55,23,silent,blue,410.8578744996339,None,None,410.8578744996339,None,,,,,,,,,,,,,,,,,,,,,,,,,,,,,,55,001,2023_Apr_26_1030,ExactRep-v3-final,2021.2.3,59.888666859590984,
,,,,,,,,23,0,23,0,,,,,,,,,,,,,,,,,,,,,,,,,,,,,,,,,,,,,,,,,,,,,,,,,,,,,415.37376249954104,None,,,,,,,,,,,,,,,,,,,,,,,,,,,,,,,,,,,anger,58,24,silent,blue,413.3718926999718,None,None,413.3718926999718,None,,,,,,,,,,,,,,,,,,,,,,,,,,,,,,55,001,2023_Apr_26_1030,ExactRep-v3-final,2021.2.3,59.888666859590984,
,,,,,,,,24,0,24,0,,,,,,,,,,,,,,,,,,,,,,,,,,,,,,,,,,,,,,,,,,,,,,,,,,,,,417.8930715993047,None,,,,,,,,,,,,,,,,,,,,,,,,,,,,,,,,,,,event,46,25,silent,blue,415.8906913995743,None,None,415.8906913995743,None,,,,,,,,,,,,,,,,,,,,,,,,,,,,,,55,001,2023_Apr_26_1030,ExactRep-v3-final,2021.2.3,59.888666859590984,
,,,,,,,,25,0,25,0,,,,,,,,,,,,,,,,,,,,,,,,,,,,,,,,,,,,,,,,,,,,,,,,,,,,,420.39558499958366,None,,,,,,,,,,,,,,,,,,,,,,,,,,,,,,,,,,,length,33,26,sing,white,418.39361729938537,None,None,418.39361729938537,None,,,,,,,,,,,,,,,,,,,,,,,,,,,,,,55,001,2023_Apr_26_1030,ExactRep-v3-final,2021.2.3,59.888666859590984,
,,,,,,,,26,0,26,0,,,,,,,,,,,,,,,,,,,,,,,,,,,,,,,,,,,,,,,,,,,,,,,,,,,,,422.89811219926924,None,,,,,,,,,,,,,,,,,,,,,,,,,,,,,,,,,,,market,113,27,aloud,red,420.8976035993546,None,None,420.8976035993546,None,,,,,,,,,,,,,,,,,,,,,,,,,,,,,,55,001,2023_Apr_26_1030,ExactRep-v3-final,2021.2.3,59.888666859590984,
,,,,,,,,27,0,27,0,,,,,,,,,,,,,,,,,,,,,,,,,,,,,,,,,,,,,,,,,,,,,,,,,,,,,425.41749099921435,None,,,,,,,,,,,,,,,,,,,,,,,,,,,,,,,,,,,volume,83,28,aloud,red,423.401957700029,None,None,423.401957700029,None,,,,,,,,,,,,,,,,,,,,,,,,,,,,,,55,001,2023_Apr_26_1030,ExactRep-v3-final,2021.2.3,59.888666859590984,
,,,,,,,,28,0,28,0,,,,,,,,,,,,,,,,,,,,,,,,,,,,,,,,,,,,,,,,,,,,,,,,,,,,,427.91977169923484,None,,,,,,,,,,,,,,,,,,,,,,,,,,,,,,,,,,,letter,103,29,aloud,red,425.9196628993377,None,None,425.9196628993377,None,,,,,,,,,,,,,,,,,,,,,,,,,,,,,,55,001,2023_Apr_26_1030,ExactRep-v3-final,2021.2.3,59.888666859590984,
,,,,,,,,29,0,29,0,,,,,,,,,,,,,,,,,,,,,,,,,,,,,,,,,,,,,,,,,,,,,,,,,,,,,430.42239769920707,None,,,,,,,,,,,,,,,,,,,,,,,,,,,,,,,,,,,palace,87,30,aloud,red,428.42334909923375,None,None,428.42334909923375,None,,,,,,,,,,,,,,,,,,,,,,,,,,,,,,55,001,2023_Apr_26_1030,ExactRep-v3-final,2021.2.3,59.888666859590984,
,,,,,,,,30,0,30,0,,,,,,,,,,,,,,,,,,,,,,,,,,,,,,,,,,,,,,,,,,,,,,,,,,,,,432.9414911996573,None,,,,,,,,,,,,,,,,,,,,,,,,,,,,,,,,,,,corn,109,31,aloud,red,430.93151559960097,None,None,430.93151559960097,None,,,,,,,,,,,,,,,,,,,,,,,,,,,,,,55,001,2023_Apr_26_1030,ExactRep-v3-final,2021.2.3,59.888666859590984,
,,,,,,,,31,0,31,0,,,,,,,,,,,,,,,,,,,,,,,,,,,,,,,,,,,,,,,,,,,,,,,,,,,,,435.44402239937335,None,,,,,,,,,,,,,,,,,,,,,,,,,,,,,,,,,,,flag,68,32,silent,blue,433.4418401001021,None,None,433.4418401001021,None,,,,,,,,,,,,,,,,,,,,,,,,,,,,,,55,001,2023_Apr_26_1030,ExactRep-v3-final,2021.2.3,59.888666859590984,
,,,,,,,,32,0,32,0,,,,,,,,,,,,,,,,,,,,,,,,,,,,,,,,,,,,,,,,,,,,,,,,,,,,,437.9631508998573,None,,,,,,,,,,,,,,,,,,,,,,,,,,,,,,,,,,,college,37,33,sing,white,435.94867660012096,None,None,435.94867660012096,None,,,,,,,,,,,,,,,,,,,,,,,,,,,,,,55,001,2023_Apr_26_1030,ExactRep-v3-final,2021.2.3,59.888666859590984,
,,,,,,,,33,0,33,0,,,,,,,,,,,,,,,,,,,,,,,,,,,,,,,,,,,,,,,,,,,,,,,,,,,,,440.4656083993614,None,,,,,,,,,,,,,,,,,,,,,,,,,,,,,,,,,,,grief,84,34,aloud,red,438.46343909949064,None,None,438.46343909949064,None,,,,,,,,,,,,,,,,,,,,,,,,,,,,,,55,001,2023_Apr_26_1030,ExactRep-v3-final,2021.2.3,59.888666859590984,
,,,,,,,,34,0,34,0,,,,,,,,,,,,,,,,,,,,,,,,,,,,,,,,,,,,,,,,,,,,,,,,,,,,,442.9848326994106,None,,,,,,,,,,,,,,,,,,,,,,,,,,,,,,,,,,,nail,105,35,aloud,red,440.9705226998776,None,None,440.9705226998776,None,,,,,,,,,,,,,,,,,,,,,,,,,,,,,,55,001,2023_Apr_26_1030,ExactRep-v3-final,2021.2.3,59.888666859590984,
,,,,,,,,35,0,35,0,,,,,,,,,,,,,,,,,,,,,,,,,,,,,,,,,,,,,,,,,,,,,,,,,,,,,445.5038072997704,None,,,,,,,,,,,,,,,,,,,,,,,,,,,,,,,,,,,trouble,80,36,aloud,red,443.48969389963895,None,None,443.48969389963895,None,,,,,,,,,,,,,,,,,,,,,,,,,,,,,,55,001,2023_Apr_26_1030,ExactRep-v3-final,2021.2.3,59.888666859590984,
,,,,,,,,36,0,36,0,,,,,,,,,,,,,,,,,,,,,,,,,,,,,,,,,,,,,,,,,,,,,,,,,,,,,448.00644139945507,None,,,,,,,,,,,,,,,,,,,,,,,,,,,,,,,,,,,board,99,37,aloud,red,446.00519359949976,None,None,446.00519359949976,None,,,,,,,,,,,,,,,,,,,,,,,,,,,,,,55,001,2023_Apr_26_1030,ExactRep-v3-final,2021.2.3,59.888666859590984,
,,,,,,,,37,0,37,0,,,,,,,,,,,,,,,,,,,,,,,,,,,,,,,,,,,,,,,,,,,,,,,,,,,,,450.52573889959604,None,,,,,,,,,,,,,,,,,,,,,,,,,,,,,,,,,,,apple,118,38,aloud,red,448.5149492993951,None,None,448.5149492993951,None,,,,,,,,,,,,,,,,,,,,,,,,,,,,,,55,001,2023_Apr_26_1030,ExactRep-v3-final,2021.2.3,59.888666859590984,
,,,,,,,,38,0,38,0,,,,,,,,,,,,,,,,,,,,,,,,,,,,,,,,,,,,,,,,,,,,,,,,,,,,,453.0282890992239,None,,,,,,,,,,,,,,,,,,,,,,,,,,,,,,,,,,,plain,11,39,sing,white,451.0262258993462,None,None,451.0262258993462,None,,,,,,,,,,,,,,,,,,,,,,,,,,,,,,55,001,2023_Apr_26_1030,ExactRep-v3-final,2021.2.3,59.888666859590984,
,,,,,,,,39,0,39,0,,,,,,,,,,,,,,,,,,,,,,,,,,,,,,,,,,,,,,,,,,,,,,,,,,,,,455.54741430003196,None,,,,,,,,,,,,,,,,,,,,,,,,,,,,,,,,,,,opinion,76,40,silent,blue,453.5354383997619,None,None,453.5354383997619,None,,,,,,,,,,,,,,,,,,,,,,,,,,,,,,55,001,2023_Apr_26_1030,ExactRep-v3-final,2021.2.3,59.888666859590984,
,,,,,,,,40,0,40,0,,,,,,,,,,,,,,,,,,,,,,,,,,,,,,,,,,,,,,,,,,,,,,,,,,,,,458.0499489000067,None,,,,,,,,,,,,,,,,,,,,,,,,,,,,,,,,,,,science,114,41,aloud,red,456.0500031998381,None,None,456.0500031998381,None,,,,,,,,,,,,,,,,,,,,,,,,,,,,,,55,001,2023_Apr_26_1030,ExactRep-v3-final,2021.2.3,59.888666859590984,
,,,,,,,,41,0,41,0,,,,,,,,,,,,,,,,,,,,,,,,,,,,,,,,,,,,,,,,,,,,,,,,,,,,,460.5525517994538,None,,,,,,,,,,,,,,,,,,,,,,,,,,,,,,,,,,,answer,79,42,sing,white,458.5509466994554,None,None,458.5509466994554,None,,,,,,,,,,,,,,,,,,,,,,,,,,,,,,55,001,2023_Apr_26_1030,ExactRep-v3-final,2021.2.3,59.888666859590984,
,,,,,,,,42,0,42,0,,,,,,,,,,,,,,,,,,,,,,,,,,,,,,,,,,,,,,,,,,,,,,,,,,,,,463.05507209990174,None,,,,,,,,,,,,,,,,,,,,,,,,,,,,,,,,,,,fur,90,43,aloud,red,461.0553698996082,None,None,461.0553698996082,None,,,,,,,,,,,,,,,,,,,,,,,,,,,,,,55,001,2023_Apr_26_1030,ExactRep-v3-final,2021.2.3,59.888666859590984,
,,,,,,,,43,0,43,0,,,,,,,,,,,,,,,,,,,,,,,,,,,,,,,,,,,,,,,,,,,,,,,,,,,,,465.5572230992839,None,,,,,,,,,,,,,,,,,,,,,,,,,,,,,,,,,,,army,67,44,silent,blue,463.55768089927733,None,None,463.55768089927733,None,,,,,,,,,,,,,,,,,,,,,,,,,,,,,,55,001,2023_Apr_26_1030,ExactRep-v3-final,2021.2.3,59.888666859590984,
,,,,,,,,44,0,44,0,,,,,,,,,,,,,,,,,,,,,,,,,,,,,,,,,,,,,,,,,,,,,,,,,,,,,468.07662419974804,None,,,,,,,,,,,,,,,,,,,,,,,,,,,,,,,,,,,arm,48,45,silent,blue,466.0653737997636,None,None,466.0653737997636,None,,,,,,,,,,,,,,,,,,,,,,,,,,,,,,55,001,2023_Apr_26_1030,ExactRep-v3-final,2021.2.3,59.888666859590984,
,,,,,,,,45,0,45,0,,,,,,,,,,,,,,,,,,,,,,,,,,,,,,,,,,,,,,,,,,,,,,,,,,,,,470.5791579000652,None,,,,,,,,,,,,,,,,,,,,,,,,,,,,,,,,,,,car,26,46,sing,white,468.57696439977735,None,None,468.57696439977735,None,,,,,,,,,,,,,,,,,,,,,,,,,,,,,,55,001,2023_Apr_26_1030,ExactRep-v3-final,2021.2.3,59.888666859590984,
,,,,,,,,46,0,46,0,,,,,,,,,,,,,,,,,,,,,,,,,,,,,,,,,,,,,,,,,,,,,,,,,,,,,473.0983140999451,None,,,,,,,,,,,,,,,,,,,,,,,,,,,,,,,,,,,temple,16,47,sing,white,471.08365909941494,None,None,471.08365909941494,None,,,,,,,,,,,,,,,,,,,,,,,,,,,,,,55,001,2023_Apr_26_1030,ExactRep-v3-final,2021.2.3,59.888666859590984,
,,,,,,,,47,0,47,0,,,,,,,,,,,,,,,,,,,,,,,,,,,,,,,,,,,,,,,,,,,,,,,,,,,,,475.60085349995643,None,,,,,,,,,,,,,,,,,,,,,,,,,,,,,,,,,,,cat,75,48,silent,blue,473.5987765993923,None,None,473.5987765993923,None,,,,,,,,,,,,,,,,,,,,,,,,,,,,,,55,001,2023_Apr_26_1030,ExactRep-v3-final,2021.2.3,59.888666859590984,
,,,,,,,,48,0,48,0,,,,,,,,,,,,,,,,,,,,,,,,,,,,,,,,,,,,,,,,,,,,,,,,,,,,,478.11998999956995,None,,,,,,,,,,,,,,,,,,,,,,,,,,,,,,,,,,,dollar,14,49,sing,white,476.1066988995299,None,None,476.1066988995299,None,,,,,,,,,,,,,,,,,,,,,,,,,,,,,,55,001,2023_Apr_26_1030,ExactRep-v3-final,2021.2.3,59.888666859590984,
,,,,,,,,49,0,49,0,,,,,,,,,,,,,,,,,,,,,,,,,,,,,,,,,,,,,,,,,,,,,,,,,,,,,480.6231429995969,None,,,,,,,,,,,,,,,,,,,,,,,,,,,,,,,,,,,humour,42,50,silent,blue,478.6205129995942,None,None,478.6205129995942,None,,,,,,,,,,,,,,,,,,,,,,,,,,,,,,55,001,2023_Apr_26_1030,ExactRep-v3-final,2021.2.3,59.888666859590984,
,,,,,,,,50,0,50,0,,,,,,,,,,,,,,,,,,,,,,,,,,,,,,,,,,,,,,,,,,,,,,,,,,,,,483.125024699606,None,,,,,,,,,,,,,,,,,,,,,,,,,,,,,,,,,,,silence,110,51,aloud,red,481.1233443999663,None,None,481.1233443999663,None,,,,,,,,,,,,,,,,,,,,,,,,,,,,,,55,001,2023_Apr_26_1030,ExactRep-v3-final,2021.2.3,59.888666859590984,
,,,,,,,,51,0,51,0,,,,,,,,,,,,,,,,,,,,,,,,,,,,,,,,,,,,,,,,,,,,,,,,,,,,,485.64422139991075,None,,,,,,,,,,,,,,,,,,,,,,,,,,,,,,,,,,,clock,88,52,aloud,red,483.6290128994733,None,None,483.6290128994733,None,,,,,,,,,,,,,,,,,,,,,,,,,,,,,,55,001,2023_Apr_26_1030,ExactRep-v3-final,2021.2.3,59.888666859590984,
,,,,,,,,52,0,52,0,,,,,,,,,,,,,,,,,,,,,,,,,,,,,,,,,,,,,,,,,,,,,,,,,,,,,488.14645119942725,None,,,,,,,,,,,,,,,,,,,,,,,,,,,,,,,,,,,bar,57,53,silent,blue,486.14467569999397,None,None,486.14467569999397,None,,,,,,,,,,,,,,,,,,,,,,,,,,,,,,55,001,2023_Apr_26_1030,ExactRep-v3-final,2021.2.3,59.888666859590984,
,,,,,,,,53,0,53,0,,,,,,,,,,,,,,,,,,,,,,,,,,,,,,,,,,,,,,,,,,,,,,,,,,,,,490.6491755992174,None,,,,,,,,,,,,,,,,,,,,,,,,,,,,,,,,,,,body,107,54,aloud,red,488.64888649992645,None,None,488.64888649992645,None,,,,,,,,,,,,,,,,,,,,,,,,,,,,,,55,001,2023_Apr_26_1030,ExactRep-v3-final,2021.2.3,59.888666859590984,
,,,,,,,,54,0,54,0,,,,,,,,,,,,,,,,,,,,,,,,,,,,,,,,,,,,,,,,,,,,,,,,,,,,,493.1516721993685,None,,,,,,,,,,,,,,,,,,,,,,,,,,,,,,,,,,,woman,91,55,aloud,red,491.1514002000913,None,None,491.1514002000913,None,,,,,,,,,,,,,,,,,,,,,,,,,,,,,,55,001,2023_Apr_26_1030,ExactRep-v3-final,2021.2.3,59.888666859590984,
,,,,,,,,55,0,55,0,,,,,,,,,,,,,,,,,,,,,,,,,,,,,,,,,,,,,,,,,,,,,,,,,,,,,495.65419639926404,None,,,,,,,,,,,,,,,,,,,,,,,,,,,,,,,,,,,garden,50,56,silent,blue,493.6525344001129,None,None,493.6525344001129,None,,,,,,,,,,,,,,,,,,,,,,,,,,,,,,55,001,2023_Apr_26_1030,ExactRep-v3-final,2021.2.3,59.888666859590984,
,,,,,,,,56,0,56,0,,,,,,,,,,,,,,,,,,,,,,,,,,,,,,,,,,,,,,,,,,,,,,,,,,,,,498.1733721001074,None,,,,,,,,,,,,,,,,,,,,,,,,,,,,,,,,,,,justice,94,57,aloud,red,496.1606260994449,None,None,496.1606260994449,None,,,,,,,,,,,,,,,,,,,,,,,,,,,,,,55,001,2023_Apr_26_1030,ExactRep-v3-final,2021.2.3,59.888666859590984,
,,,,,,,,57,0,57,0,,,,,,,,,,,,,,,,,,,,,,,,,,,,,,,,,,,,,,,,,,,,,,,,,,,,,500.6759167993441,None,,,,,,,,,,,,,,,,,,,,,,,,,,,,,,,,,,,series,69,58,silent,blue,498.67491609975696,None,None,498.67491609975696,None,,,,,,,,,,,,,,,,,,,,,,,,,,,,,,55,001,2023_Apr_26_1030,ExactRep-v3-final,2021.2.3,59.888666859590984,
,,,,,,,,58,0,58,0,,,,,,,,,,,,,,,,,,,,,,,,,,,,,,,,,,,,,,,,,,,,,,,,,,,,,503.17841989919543,None,,,,,,,,,,,,,,,,,,,,,,,,,,,,,,,,,,,friend,19,59,sing,white,501.1781581994146,None,None,501.1781581994146,None,,,,,,,,,,,,,,,,,,,,,,,,,,,,,,55,001,2023_Apr_26_1030,ExactRep-v3-final,2021.2.3,59.888666859590984,
,,,,,,,,59,0,59,0,,,,,,,,,,,,,,,,,,,,,,,,,,,,,,,,,,,,,,,,,,,,,,,,,,,,,505.6984441000968,None,,,,,,,,,,,,,,,,,,,,,,,,,,,,,,,,,,,lip,119,60,aloud,red,503.68240109924227,None,None,503.68240109924227,None,,,,,,,,,,,,,,,,,,,,,,,,,,,,,,55,001,2023_Apr_26_1030,ExactRep-v3-final,2021.2.3,59.888666859590984,
,,,,,,,,60,0,60,0,,,,,,,,,,,,,,,,,,,,,,,,,,,,,,,,,,,,,,,,,,,,,,,,,,,,,508.2166138999164,None,,,,,,,,,,,,,,,,,,,,,,,,,,,,,,,,,,,meadow,63,61,silent,blue,506.2074943995103,None,None,506.2074943995103,None,,,,,,,,,,,,,,,,,,,,,,,,,,,,,,55,001,2023_Apr_26_1030,ExactRep-v3-final,2021.2.3,59.888666859590984,
,,,,,,,,61,0,61,0,,,,,,,,,,,,,,,,,,,,,,,,,,,,,,,,,,,,,,,,,,,,,,,,,,,,,510.7192542999983,None,,,,,,,,,,,,,,,,,,,,,,,,,,,,,,,,,,,charm,53,62,silent,blue,508.7170922998339,None,None,508.7170922998339,None,,,,,,,,,,,,,,,,,,,,,,,,,,,,,,55,001,2023_Apr_26_1030,ExactRep-v3-final,2021.2.3,59.888666859590984,
,,,,,,,,62,0,62,0,,,,,,,,,,,,,,,,,,,,,,,,,,,,,,,,,,,,,,,,,,,,,,,,,,,,,513.2217493997887,None,,,,,,,,,,,,,,,,,,,,,,,,,,,,,,,,,,,master,73,63,silent,blue,511.2224574992433,None,None,511.2224574992433,None,,,,,,,,,,,,,,,,,,,,,,,,,,,,,,55,001,2023_Apr_26_1030,ExactRep-v3-final,2021.2.3,59.888666859590984,
,,,,,,,,63,0,63,0,,,,,,,,,,,,,,,,,,,,,,,,,,,,,,,,,,,,,,,,,,,,,,,,,,,,,515.7242792993784,None,,,,,,,,,,,,,,,,,,,,,,,,,,,,,,,,,,,bottle,5,64,sing,white,513.7247885996476,None,None,513.7247885996476,None,,,,,,,,,,,,,,,,,,,,,,,,,,,,,,55,001,2023_Apr_26_1030,ExactRep-v3-final,2021.2.3,59.888666859590984,
,,,,,,,,64,0,64,0,,,,,,,,,,,,,,,,,,,,,,,,,,,,,,,,,,,,,,,,,,,,,,,,,,,,,518.2434679996222,None,,,,,,,,,,,,,,,,,,,,,,,,,,,,,,,,,,,ocean,41,65,silent,blue,516.2279527001083,None,None,516.2279527001083,None,,,,,,,,,,,,,,,,,,,,,,,,,,,,,,55,001,2023_Apr_26_1030,ExactRep-v3-final,2021.2.3,59.888666859590984,
,,,,,,,,65,0,65,0,,,,,,,,,,,,,,,,,,,,,,,,,,,,,,,,,,,,,,,,,,,,,,,,,,,,,520.7459533000365,None,,,,,,,,,,,,,,,,,,,,,,,,,,,,,,,,,,,engine,39,66,silent,blue,518.7439514994621,None,None,518.7439514994621,None,,,,,,,,,,,,,,,,,,,,,,,,,,,,,,55,001,2023_Apr_26_1030,ExactRep-v3-final,2021.2.3,59.888666859590984,
,,,,,,,,66,0,66,0,,,,,,,,,,,,,,,,,,,,,,,,,,,,,,,,,,,,,,,,,,,,,,,,,,,,,523.2485037995502,None,,,,,,,,,,,,,,,,,,,,,,,,,,,,,,,,,,,amount,22,67,sing,white,521.2482001995668,None,None,521.2482001995668,None,,,,,,,,,,,,,,,,,,,,,,,,,,,,,,55,001,2023_Apr_26_1030,ExactRep-v3-final,2021.2.3,59.888666859590984,
,,,,,,,,67,0,67,0,,,,,,,,,,,,,,,,,,,,,,,,,,,,,,,,,,,,,,,,,,,,,,,,,,,,,525.7674971995875,None,,,,,,,,,,,,,,,,,,,,,,,,,,,,,,,,,,,plant,64,68,silent,blue,523.7549407994375,None,None,523.7549407994375,None,,,,,,,,,,,,,,,,,,,,,,,,,,,,,,55,001,2023_Apr_26_1030,ExactRep-v3-final,2021.2.3,59.888666859590984,
,,,,,,,,68,0,68,0,,,,,,,,,,,,,,,,,,,,,,,,,,,,,,,,,,,,,,,,,,,,,,,,,,,,,528.2699846997857,None,,,,,,,,,,,,,,,,,,,,,,,,,,,,,,,,,,,avenue,32,69,sing,white,526.2680080998689,None,None,526.2680080998689,None,,,,,,,,,,,,,,,,,,,,,,,,,,,,,,55,001,2023_Apr_26_1030,ExactRep-v3-final,2021.2.3,59.888666859590984,
,,,,,,,,69,0,69,0,,,,,,,,,,,,,,,,,,,,,,,,,,,,,,,,,,,,,,,,,,,,,,,,,,,,,530.7898400994018,None,,,,,,,,,,,,,,,,,,,,,,,,,,,,,,,,,,,leader,31,70,sing,white,528.7791168997064,None,None,528.7791168997064,None,,,,,,,,,,,,,,,,,,,,,,,,,,,,,,55,001,2023_Apr_26_1030,ExactRep-v3-final,2021.2.3,59.888666859590984,
,,,,,,,,70,0,70,0,,,,,,,,,,,,,,,,,,,,,,,,,,,,,,,,,,,,,,,,,,,,,,,,,,,,,533.291830400005,None,,,,,,,,,,,,,,,,,,,,,,,,,,,,,,,,,,,window,40,71,silent,blue,531.2921404996887,None,None,531.2921404996887,None,,,,,,,,,,,,,,,,,,,,,,,,,,,,,,55,001,2023_Apr_26_1030,ExactRep-v3-final,2021.2.3,59.888666859590984,
,,,,,,,,71,0,71,0,,,,,,,,,,,,,,,,,,,,,,,,,,,,,,,,,,,,,,,,,,,,,,,,,,,,,535.7944046994671,None,,,,,,,,,,,,,,,,,,,,,,,,,,,,,,,,,,,cottage,28,72,sing,white,533.7937036994845,None,None,533.7937036994845,None,,,,,,,,,,,,,,,,,,,,,,,,,,,,,,55,001,2023_Apr_26_1030,ExactRep-v3-final,2021.2.3,59.888666859590984,
,,,,,,,,72,0,72,0,,,,,,,,,,,,,,,,,,,,,,,,,,,,,,,,,,,,,,,,,,,,,,,,,,,,,538.3135055992752,None,,,,,,,,,,,,,,,,,,,,,,,,,,,,,,,,,,,season,29,73,sing,white,536.3015009993687,None,None,536.3015009993687,None,,,,,,,,,,,,,,,,,,,,,,,,,,,,,,55,001,2023_Apr_26_1030,ExactRep-v3-final,2021.2.3,59.888666859590984,
,,,,,,,,73,0,73,0,,,,,,,,,,,,,,,,,,,,,,,,,,,,,,,,,,,,,,,,,,,,,,,,,,,,,540.8161136992276,None,,,,,,,,,,,,,,,,,,,,,,,,,,,,,,,,,,,air,18,74,sing,white,538.814000999555,None,None,538.814000999555,None,,,,,,,,,,,,,,,,,,,,,,,,,,,,,,55,001,2023_Apr_26_1030,ExactRep-v3-final,2021.2.3,59.888666859590984,
,,,,,,,,74,0,74,0,,,,,,,,,,,,,,,,,,,,,,,,,,,,,,,,,,,,,,,,,,,,,,,,,,,,,543.3183258995414,None,,,,,,,,,,,,,,,,,,,,,,,,,,,,,,,,,,,troops,38,75,sing,white,541.3166128993034,None,None,541.3166128993034,None,,,,,,,,,,,,,,,,,,,,,,,,,,,,,,55,001,2023_Apr_26_1030,ExactRep-v3-final,2021.2.3,59.888666859590984,
,,,,,,,,75,0,75,0,,,,,,,,,,,,,,,,,,,,,,,,,,,,,,,,,,,,,,,,,,,,,,,,,,,,,545.8210536995903,None,,,,,,,,,,,,,,,,,,,,,,,,,,,,,,,,,,,poet,116,76,aloud,red,543.8215962992981,None,None,543.8215962992981,None,,,,,,,,,,,,,,,,,,,,,,,,,,,,,,55,001,2023_Apr_26_1030,ExactRep-v3-final,2021.2.3,59.888666859590984,
,,,,,,,,76,0,76,0,,,,,,,,,,,,,,,,,,,,,,,,,,,,,,,,,,,,,,,,,,,,,,,,,,,,,548.3402305999771,None,,,,,,,,,,,,,,,,,,,,,,,,,,,,,,,,,,,square,17,77,sing,white,546.330396999605,None,None,546.330396999605,None,,,,,,,,,,,,,,,,,,,,,,,,,,,,,,55,001,2023_Apr_26_1030,ExactRep-v3-final,2021.2.3,59.888666859590984,
,,,,,,,,77,0,77,0,,,,,,,,,,,,,,,,,,,,,,,,,,,,,,,,,,,,,,,,,,,,,,,,,,,,,550.8427048996091,None,,,,,,,,,,,,,,,,,,,,,,,,,,,,,,,,,,,journal,2,78,sing,white,548.8418378001079,None,None,548.8418378001079,None,,,,,,,,,,,,,,,,,,,,,,,,,,,,,,55,001,2023_Apr_26_1030,ExactRep-v3-final,2021.2.3,59.888666859590984,
,,,,,,,,78,0,78,0,,,,,,,,,,,,,,,,,,,,,,,,,,,,,,,,,,,,,,,,,,,,,,,,,,,,,553.3619812000543,None,,,,,,,,,,,,,,,,,,,,,,,,,,,,,,,,,,,shame,1,79,sing,white,551.3462718995288,None,None,551.3462718995288,None,,,,,,,,,,,,,,,,,,,,,,,,,,,,,,55,001,2023_Apr_26_1030,ExactRep-v3-final,2021.2.3,59.888666859590984,
,,,,,,,,79,0,79,0,,,,,,,,,,,,,,,,,,,,,,,,,,,,,,,,,,,,,,,,,,,,,,,,,,,,,555.8644124995917,None,,,,,,,,,,,,,,,,,,,,,,,,,,,,,,,,,,,colony,78,80,silent,blue,553.8623142996803,None,None,553.8623142996803,None,,,,,,,,,,,,,,,,,,,,,,,,,,,,,,55,001,2023_Apr_26_1030,ExactRep-v3-final,2021.2.3,59.888666859590984,
,,,,,,,,80,0,80,0,,,,,,,,,,,,,,,,,,,,,,,,,,,,,,,,,,,,,,,,,,,,,,,,,,,,,558.3836343996227,None,,,,,,,,,,,,,,,,,,,,,,,,,,,,,,,,,,,iron,86,81,aloud,red,556.3717387998477,None,None,556.3717387998477,None,,,,,,,,,,,,,,,,,,,,,,,,,,,,,,55,001,2023_Apr_26_1030,ExactRep-v3-final,2021.2.3,59.888666859590984,
,,,,,,,,81,0,81,0,,,,,,,,,,,,,,,,,,,,,,,,,,,,,,,,,,,,,,,,,,,,,,,,,,,,,560.8861203994602,None,,,,,,,,,,,,,,,,,,,,,,,,,,,,,,,,,,,weapon,115,82,aloud,red,558.8840202996507,None,None,558.8840202996507,None,,,,,,,,,,,,,,,,,,,,,,,,,,,,,,55,001,2023_Apr_26_1030,ExactRep-v3-final,2021.2.3,59.888666859590984,
,,,,,,,,82,0,82,0,,,,,,,,,,,,,,,,,,,,,,,,,,,,,,,,,,,,,,,,,,,,,,,,,,,,,563.405336599797,None,,,,,,,,,,,,,,,,,,,,,,,,,,,,,,,,,,,pupil,85,83,aloud,red,561.3940965998918,None,None,561.3940965998918,None,,,,,,,,,,,,,,,,,,,,,,,,,,,,,,55,001,2023_Apr_26_1030,ExactRep-v3-final,2021.2.3,59.888666859590984,
,,,,,,,,83,0,83,0,,,,,,,,,,,,,,,,,,,,,,,,,,,,,,,,,,,,,,,,,,,,,,,,,,,,,565.9078013999388,None,,,,,,,,,,,,,,,,,,,,,,,,,,,,,,,,,,,ability,96,84,aloud,red,563.9057752992958,None,None,563.9057752992958,None,,,,,,,,,,,,,,,,,,,,,,,,,,,,,,55,001,2023_Apr_26_1030,ExactRep-v3-final,2021.2.3,59.888666859590984,
,,,,,,,,84,0,84,0,,,,,,,,,,,,,,,,,,,,,,,,,,,,,,,,,,,,,,,,,,,,,,,,,,,,,568.4101636996493,None,,,,,,,,,,,,,,,,,,,,,,,,,,,,,,,,,,,fact,71,85,silent,blue,566.4103229995817,None,None,566.4103229995817,None,,,,,,,,,,,,,,,,,,,,,,,,,,,,,,55,001,2023_Apr_26_1030,ExactRep-v3-final,2021.2.3,59.888666859590984,
,,,,,,,,85,0,85,0,,,,,,,,,,,,,,,,,,,,,,,,,,,,,,,,,,,,,,,,,,,,,,,,,,,,,570.9128906996921,None,,,,,,,,,,,,,,,,,,,,,,,,,,,,,,,,,,,moment,74,86,silent,blue,568.9124641995877,None,None,568.9124641995877,None,,,,,,,,,,,,,,,,,,,,,,,,,,,,,,55,001,2023_Apr_26_1030,ExactRep-v3-final,2021.2.3,59.888666859590984,
,,,,,,,,86,0,86,0,,,,,,,,,,,,,,,,,,,,,,,,,,,,,,,,,,,,,,,,,,,,,,,,,,,,,573.415317999199,None,,,,,,,,,,,,,,,,,,,,,,,,,,,,,,,,,,,lake,97,87,aloud,red,571.4153086999431,None,None,571.4153086999431,None,,,,,,,,,,,,,,,,,,,,,,,,,,,,,,55,001,2023_Apr_26_1030,ExactRep-v3-final,2021.2.3,59.888666859590984,
,,,,,,,,87,0,87,0,,,,,,,,,,,,,,,,,,,,,,,,,,,,,,,,,,,,,,,,,,,,,,,,,,,,,575.9176896000281,None,,,,,,,,,,,,,,,,,,,,,,,,,,,,,,,,,,,history,61,88,silent,blue,573.918478699401,None,None,573.918478699401,None,,,,,,,,,,,,,,,,,,,,,,,,,,,,,,55,001,2023_Apr_26_1030,ExactRep-v3-final,2021.2.3,59.888666859590984,
,,,,,,,,88,0,88,0,,,,,,,,,,,,,,,,,,,,,,,,,,,,,,,,,,,,,,,,,,,,,,,,,,,,,578.4202964995056,None,,,,,,,,,,,,,,,,,,,,,,,,,,,,,,,,,,,king,3,89,sing,white,576.4202228998765,None,None,576.4202228998765,None,,,,,,,,,,,,,,,,,,,,,,,,,,,,,,55,001,2023_Apr_26_1030,ExactRep-v3-final,2021.2.3,59.888666859590984,
,,,,,,,,89,0,89,0,,,,,,,,,,,,,,,,,,,,,,,,,,,,,,,,,,,,,,,,,,,,,,,,,,,,,580.9394729994237,None,,,,,,,,,,,,,,,,,,,,,,,,,,,,,,,,,,,slave,6,90,sing,white,578.9302942994982,None,None,578.9302942994982,None,,,,,,,,,,,,,,,,,,,,,,,,,,,,,,55,001,2023_Apr_26_1030,ExactRep-v3-final,2021.2.3,59.888666859590984,
,,,,,,,,90,0,90,0,,,,,,,,,,,,,,,,,,,,,,,,,,,,,,,,,,,,,,,,,,,,,,,,,,,,,583.4586853999645,None,,,,,,,,,,,,,,,,,,,,,,,,,,,,,,,,,,,person,93,91,aloud,red,581.4512411998585,None,None,581.4512411998585,None,,,,,,,,,,,,,,,,,,,,,,,,,,,,,,55,001,2023_Apr_26_1030,ExactRep-v3-final,2021.2.3,59.888666859590984,
,,,,,,,,91,0,91,0,,,,,,,,,,,,,,,,,,,,,,,,,,,,,,,,,,,,,,,,,,,,,,,,,,,,,585.9793780995533,None,,,,,,,,,,,,,,,,,,,,,,,,,,,,,,,,,,,freedom,106,92,aloud,red,583.9676888994873,None,None,583.9676888994873,None,,,,,,,,,,,,,,,,,,,,,,,,,,,,,,55,001,2023_Apr_26_1030,ExactRep-v3-final,2021.2.3,59.888666859590984,
,,,,,,,,92,0,92,0,,,,,,,,,,,,,,,,,,,,,,,,,,,,,,,,,,,,,,,,,,,,,,,,,,,,,588.4804042000324,None,,,,,,,,,,,,,,,,,,,,,,,,,,,,,,,,,,,theory,102,93,aloud,red,586.4807449998334,None,None,586.4807449998334,None,,,,,,,,,,,,,,,,,,,,,,,,,,,,,,55,001,2023_Apr_26_1030,ExactRep-v3-final,2021.2.3,59.888666859590984,
,,,,,,,,93,0,93,0,,,,,,,,,,,,,,,,,,,,,,,,,,,,,,,,,,,,,,,,,,,,,,,,,,,,,590.9995548995212,None,,,,,,,,,,,,,,,,,,,,,,,,,,,,,,,,,,,murder,117,94,aloud,red,588.9840760994703,None,None,588.9840760994703,None,,,,,,,,,,,,,,,,,,,,,,,,,,,,,,55,001,2023_Apr_26_1030,ExactRep-v3-final,2021.2.3,59.888666859590984,
,,,,,,,,94,0,94,0,,,,,,,,,,,,,,,,,,,,,,,,,,,,,,,,,,,,,,,,,,,,,,,,,,,,,593.502017499879,None,,,,,,,,,,,,,,,,,,,,,,,,,,,,,,,,,,,diamond,47,95,silent,blue,591.5021222997457,None,None,591.5021222997457,None,,,,,,,,,,,,,,,,,,,,,,,,,,,,,,55,001,2023_Apr_26_1030,ExactRep-v3-final,2021.2.3,59.888666859590984,
,,,,,,,,95,0,95,0,,,,,,,,,,,,,,,,,,,,,,,,,,,,,,,,,,,,,,,,,,,,,,,,,,,,,596.0211394000798,None,,,,,,,,,,,,,,,,,,,,,,,,,,,,,,,,,,,cotton,51,96,silent,blue,594.0167910996825,None,None,594.0167910996825,None,,,,,,,,,,,,,,,,,,,,,,,,,,,,,,55,001,2023_Apr_26_1030,ExactRep-v3-final,2021.2.3,59.888666859590984,
,,,,,,,,96,0,96,0,,,,,,,,,,,,,,,,,,,,,,,,,,,,,,,,,,,,,,,,,,,,,,,,,,,,,598.5237486995757,None,,,,,,,,,,,,,,,,,,,,,,,,,,,,,,,,,,,hall,82,97,aloud,red,596.5238703992218,None,None,596.5238703992218,None,,,,,,,,,,,,,,,,,,,,,,,,,,,,,,55,001,2023_Apr_26_1030,ExactRep-v3-final,2021.2.3,59.888666859590984,
,,,,,,,,97,0,97,0,,,,,,,,,,,,,,,,,,,,,,,,,,,,,,,,,,,,,,,,,,,,,,,,,,,,,601.0262907994911,None,,,,,,,,,,,,,,,,,,,,,,,,,,,,,,,,,,,potato,24,98,sing,white,599.0258064996451,None,None,599.0258064996451,None,,,,,,,,,,,,,,,,,,,,,,,,,,,,,,55,001,2023_Apr_26_1030,ExactRep-v3-final,2021.2.3,59.888666859590984,
,,,,,,,,98,0,98,0,,,,,,,,,,,,,,,,,,,,,,,,,,,,,,,,,,,,,,,,,,,,,,,,,,,,,603.545389899984,None,,,,,,,,,,,,,,,,,,,,,,,,,,,,,,,,,,,shore,23,99,sing,white,601.5311041995883,None,None,601.5311041995883,None,,,,,,,,,,,,,,,,,,,,,,,,,,,,,,55,001,2023_Apr_26_1030,ExactRep-v3-final,2021.2.3,59.888666859590984,
,,,,,,,,99,0,99,0,,,,,,,,,,,,,,,,,,,,,,,,,,,,,,,,,,,,,,,,,,,,,,,,,,,,,606.0479911994189,None,,,,,,,,,,,,,,,,,,,,,,,,,,,,,,,,,,,village,20,100,sing,white,604.0459303995594,None,None,604.0459303995594,None,,,,,,,,,,,,,,,,,,,,,,,,,,,,,,55,001,2023_Apr_26_1030,ExactRep-v3-final,2021.2.3,59.888666859590984,
,,,,,,,,100,0,100,0,,,,,,,,,,,,,,,,,,,,,,,,,,,,,,,,,,,,,,,,,,,,,,,,,,,,,608.5504310000688,None,,,,,,,,,,,,,,,,,,,,,,,,,,,,,,,,,,,artist,36,101,sing,white,606.549403199926,None,None,606.549403199926,None,,,,,,,,,,,,,,,,,,,,,,,,,,,,,,55,001,2023_Apr_26_1030,ExactRep-v3-final,2021.2.3,59.888666859590984,
,,,,,,,,101,0,101,0,,,,,,,,,,,,,,,,,,,,,,,,,,,,,,,,,,,,,,,,,,,,,,,,,,,,,611.0530180996284,None,,,,,,,,,,,,,,,,,,,,,,,,,,,,,,,,,,,shock,43,102,silent,blue,609.0538916001096,None,None,609.0538916001096,None,,,,,,,,,,,,,,,,,,,,,,,,,,,,,,55,001,2023_Apr_26_1030,ExactRep-v3-final,2021.2.3,59.888666859590984,
,,,,,,,,102,0,102,0,,,,,,,,,,,,,,,,,,,,,,,,,,,,,,,,,,,,,,,,,,,,,,,,,,,,,613.5555241992697,None,,,,,,,,,,,,,,,,,,,,,,,,,,,,,,,,,,,paper,13,103,sing,white,611.5564812999219,None,None,611.5564812999219,None,,,,,,,,,,,,,,,,,,,,,,,,,,,,,,55,001,2023_Apr_26_1030,ExactRep-v3-final,2021.2.3,59.888666859590984,
,,,,,,,,103,0,103,0,,,,,,,,,,,,,,,,,,,,,,,,,,,,,,,,,,,,,,,,,,,,,,,,,,,,,616.074449500069,None,,,,,,,,,,,,,,,,,,,,,,,,,,,,,,,,,,,queen,95,104,aloud,red,614.0590686993673,None,None,614.0590686993673,None,,,,,,,,,,,,,,,,,,,,,,,,,,,,,,55,001,2023_Apr_26_1030,ExactRep-v3-final,2021.2.3,59.888666859590984,
,,,,,,,,104,0,104,0,,,,,,,,,,,,,,,,,,,,,,,,,,,,,,,,,,,,,,,,,,,,,,,,,,,,,618.5771731995046,None,,,,,,,,,,,,,,,,,,,,,,,,,,,,,,,,,,,fate,7,105,sing,white,616.5750086996704,None,None,616.5750086996704,None,,,,,,,,,,,,,,,,,,,,,,,,,,,,,,55,001,2023_Apr_26_1030,ExactRep-v3-final,2021.2.3,59.888666859590984,
,,,,,,,,105,0,105,0,,,,,,,,,,,,,,,,,,,,,,,,,,,,,,,,,,,,,,,,,,,,,,,,,,,,,621.0796429999173,None,,,,,,,,,,,,,,,,,,,,,,,,,,,,,,,,,,,power,62,106,silent,blue,619.0803446993232,None,None,619.0803446993232,None,,,,,,,,,,,,,,,,,,,,,,,,,,,,,,55,001,2023_Apr_26_1030,ExactRep-v3-final,2021.2.3,59.888666859590984,
,,,,,,,,106,0,106,0,,,,,,,,,,,,,,,,,,,,,,,,,,,,,,,,,,,,,,,,,,,,,,,,,,,,,623.5988561995327,None,,,,,,,,,,,,,,,,,,,,,,,,,,,,,,,,,,,meeting,12,107,sing,white,621.5834590997547,None,None,621.5834590997547,None,,,,,,,,,,,,,,,,,,,,,,,,,,,,,,55,001,2023_Apr_26_1030,ExactRep-v3-final,2021.2.3,59.888666859590984,
,,,,,,,,107,0,107,0,,,,,,,,,,,,,,,,,,,,,,,,,,,,,,,,,,,,,,,,,,,,,,,,,,,,,626.1181056993082,None,,,,,,,,,,,,,,,,,,,,,,,,,,,,,,,,,,,spirit,104,108,aloud,red,624.1077998997644,None,None,624.1077998997644,None,,,,,,,,,,,,,,,,,,,,,,,,,,,,,,55,001,2023_Apr_26_1030,ExactRep-v3-final,2021.2.3,59.888666859590984,
,,,,,,,,108,0,108,0,,,,,,,,,,,,,,,,,,,,,,,,,,,,,,,,,,,,,,,,,,,,,,,,,,,,,628.6369877997786,None,,,,,,,,,,,,,,,,,,,,,,,,,,,,,,,,,,,safety,15,109,sing,white,626.627910499461,None,None,626.627910499461,None,,,,,,,,,,,,,,,,,,,,,,,,,,,,,,55,001,2023_Apr_26_1030,ExactRep-v3-final,2021.2.3,59.888666859590984,
,,,,,,,,109,0,109,0,,,,,,,,,,,,,,,,,,,,,,,,,,,,,,,,,,,,,,,,,,,,,,,,,,,,,631.1395994992927,None,,,,,,,,,,,,,,,,,,,,,,,,,,,,,,,,,,,bird,77,110,silent,blue,629.1402041995898,None,None,629.1402041995898,None,,,,,,,,,,,,,,,,,,,,,,,,,,,,,,55,001,2023_Apr_26_1030,ExactRep-v3-final,2021.2.3,59.888666859590984,
,,,,,,,,110,0,110,0,,,,,,,,,,,,,,,,,,,,,,,,,,,,,,,,,,,,,,,,,,,,,,,,,,,,,633.6589425997809,None,,,,,,,,,,,,,,,,,,,,,,,,,,,,,,,,,,,skin,44,111,silent,blue,631.6487505994737,None,None,631.6487505994737,None,,,,,,,,,,,,,,,,,,,,,,,,,,,,,,55,001,2023_Apr_26_1030,ExactRep-v3-final,2021.2.3,59.888666859590984,
,,,,,,,,111,0,111,0,,,,,,,,,,,,,,,,,,,,,,,,,,,,,,,,,,,,,,,,,,,,,,,,,,,,,636.1615316998214,None,,,,,,,,,,,,,,,,,,,,,,,,,,,,,,,,,,,flower,59,112,silent,blue,634.1603431999683,None,None,634.1603431999683,None,,,,,,,,,,,,,,,,,,,,,,,,,,,,,,55,001,2023_Apr_26_1030,ExactRep-v3-final,2021.2.3,59.888666859590984,
,,,,,,,,112,0,112,0,,,,,,,,,,,,,,,,,,,,,,,,,,,,,,,,,,,,,,,,,,,,,,,,,,,,,638.6804430996999,None,,,,,,,,,,,,,,,,,,,,,,,,,,,,,,,,,,,dawn,21,113,sing,white,636.6702147992328,None,None,636.6702147992328,None,,,,,,,,,,,,,,,,,,,,,,,,,,,,,,55,001,2023_Apr_26_1030,ExactRep-v3-final,2021.2.3,59.888666859590984,
,,,,,,,,113,0,113,0,,,,,,,,,,,,,,,,,,,,,,,,,,,,,,,,,,,,,,,,,,,,,,,,,,,,,641.1997845992446,None,,,,,,,,,,,,,,,,,,,,,,,,,,,,,,,,,,,beast,9,114,sing,white,639.1863810000941,None,None,639.1863810000941,None,,,,,,,,,,,,,,,,,,,,,,,,,,,,,,55,001,2023_Apr_26_1030,ExactRep-v3-final,2021.2.3,59.888666859590984,
,,,,,,,,114,0,114,0,,,,,,,,,,,,,,,,,,,,,,,,,,,,,,,,,,,,,,,,,,,,,,,,,,,,,643.7022702991962,None,,,,,,,,,,,,,,,,,,,,,,,,,,,,,,,,,,,money,25,115,sing,white,641.7002106998116,None,None,641.7002106998116,None,,,,,,,,,,,,,,,,,,,,,,,,,,,,,,55,001,2023_Apr_26_1030,ExactRep-v3-final,2021.2.3,59.888666859590984,
,,,,,,,,115,0,115,0,,,,,,,,,,,,,,,,,,,,,,,,,,,,,,,,,,,,,,,,,,,,,,,,,,,,,646.2047747001052,None,,,,,,,,,,,,,,,,,,,,,,,,,,,,,,,,,,,lord,10,116,sing,white,644.2047691997141,None,None,644.2047691997141,None,,,,,,,,,,,,,,,,,,,,,,,,,,,,,,55,001,2023_Apr_26_1030,ExactRep-v3-final,2021.2.3,59.888666859590984,
,,,,,,,,116,0,116,0,,,,,,,,,,,,,,,,,,,,,,,,,,,,,,,,,,,,,,,,,,,,,,,,,,,,,648.7072276994586,None,,,,,,,,,,,,,,,,,,,,,,,,,,,,,,,,,,,pipe,65,117,silent,blue,646.7066452996805,None,None,646.7066452996805,None,,,,,,,,,,,,,,,,,,,,,,,,,,,,,,55,001,2023_Apr_26_1030,ExactRep-v3-final,2021.2.3,59.888666859590984,
,,,,,,,,117,0,117,0,,,,,,,,,,,,,,,,,,,,,,,,,,,,,,,,,,,,,,,,,,,,,,,,,,,,,651.2095917994156,None,,,,,,,,,,,,,,,,,,,,,,,,,,,,,,,,,,,doll,100,118,aloud,red,649.2093623997644,None,None,649.2093623997644,None,,,,,,,,,,,,,,,,,,,,,,,,,,,,,,55,001,2023_Apr_26_1030,ExactRep-v3-final,2021.2.3,59.888666859590984,
,,,,,,,,118,0,118,0,,,,,,,,,,,,,,,,,,,,,,,,,,,,,,,,,,,,,,,,,,,,,,,,,,,,,653.7123643998057,None,,,,,,,,,,,,,,,,,,,,,,,,,,,,,,,,,,,method,92,119,aloud,red,651.7102211993188,None,None,651.7102211993188,None,,,,,,,,,,,,,,,,,,,,,,,,,,,,,,55,001,2023_Apr_26_1030,ExactRep-v3-final,2021.2.3,59.888666859590984,
,,,,,,,,119,0,119,0,,,,,,,,,,,,,,,,,,,,,,,,,,,,,,,,,,,,,,,,,,,,,,,,,,,,,656.2314419997856,None,,,,,,,,,,,,,,,,,,,,,,,,,,,,,,,,,,,time,4,120,sing,white,654.2188534997404,None,None,654.2188534997404,None,,,,,,,,,,,,,,,,,,,,,,,,,,,,,,55,001,2023_Apr_26_1030,ExactRep-v3-final,2021.2.3,59.888666859590984,
,,,,,,,,,,,,,,,,,,,,,,,,,,,,,,,,,,,,,,,,,,,,,,,,,,,,,,,,,,,,,,,,,,,,,,,,,,,,,,,,,,,,,,,,,,,,,,,,,,,,,,,,,,,,,,656.7334739994258,None,space,7.475654699839652,666.7097495999187,None,,,,,,,,,,,,,,,,,,,,,,,,55,001,2023_Apr_26_1030,ExactRep-v3-final,2021.2.3,59.888666859590984,
,,,,,,,,,,,,,,,,,,,,,,,,,,,,,,,,,,,,,,,,,,,,,,,,,,,,,,,,,,,,,,,,,,,,,,,,,,,,,,,,,,,,,,,,,,,,,,,,,,,,,,,,,,,,,,,,,,,,674.2012036992237,None,space,31.127818799577653,684.1775375995785,None,,,,,,,,,,,,,,,,,,55,001,2023_Apr_26_1030,ExactRep-v3-final,2021.2.3,59.888666859590984,
,,,,,,,,,,,,0,0,0,0,,,,,,,,,,,,,,,,,,,,,,,,,,,,,,,,,,,,,,,,,,,,,,,,,727.168846199289,None,,,,,,,,,,,,,,,,,,,,,,,,,,,,,,,,,,,,,,,,,,,,,,,,,,,,,,,,,mind,147,1,silent,new,yellow,715.8379016993567,None,y,715.8379016993567,None,"['y', 'return']","[6.7551764994859695, 11.299060000106692]",715.8379016993567,None,,,55,001,2023_Apr_26_1030,ExactRep-v3-final,2021.2.3,59.888666859590984,
,,,,,,,,,,,,1,0,1,0,,,,,,,,,,,,,,,,,,,,,,,,,,,,,,,,,,,,,,,,,,,,,,,,,730.4721401995048,None,,,,,,,,,,,,,,,,,,,,,,,,,,,,,,,,,,,,,,,,,,,,,,,,,,,,,,,,,lad,185,2,sing,new,yellow,727.6825347999111,None,n,727.6825347999111,None,"['n', 'return']","[2.1746601993218064, 2.750513299368322]",727.6825347999111,None,,,55,001,2023_Apr_26_1030,ExactRep-v3-final,2021.2.3,59.888666859590984,
,,,,,,,,,,,,2,0,2,0,,,,,,,,,,,,,,,,,,,,,,,,,,,,,,,,,,,,,,,,,,,,,,,,,734.1424907995388,None,,,,,,,,,,,,,,,,,,,,,,,,,,,,,,,,,,,,,,,,,,,,,,,,,,,,,,,,,pipe,65,3,silent,old,yellow,730.9795436998829,None,n,730.9795436998829,None,"['n', 'return']","[2.7893606005236506, 3.1254436001181602]",730.9795436998829,None,,,55,001,2023_Apr_26_1030,ExactRep-v3-final,2021.2.3,59.888666859590984,
,,,,,,,,,,,,3,0,3,0,,,,,,,,,,,,,,,,,,,,,,,,,,,,,,,,,,,,,,,,,,,,,,,,,736.7451275000349,None,,,,,,,,,,,,,,,,,,,,,,,,,,,,,,,,,,,,,,,,,,,,,,,,,,,,,,,,,rod,233,4,sing,new,yellow,734.6430224999785,None,n,734.6430224999785,None,"['n', 'return']","[1.734205299988389, 2.0699721006676555]",734.6430224999785,None,,,55,001,2023_Apr_26_1030,ExactRep-v3-final,2021.2.3,59.888666859590984,
,,,,,,,,,,,,4,0,4,0,,,,,,,,,,,,,,,,,,,,,,,,,,,,,,,,,,,,,,,,,,,,,,,,,739.2976553998888,None,,,,,,,,,,,,,,,,,,,,,,,,,,,,,,,,,,,,,,,,,,,,,,,,,,,,,,,,,pupil,85,5,aloud,old,yellow,737.252374199219,None,y,737.252374199219,None,"['y', 'return']","[1.6687736995518208, 2.0125439995899796]",737.252374199219,None,,,55,001,2023_Apr_26_1030,ExactRep-v3-final,2021.2.3,59.888666859590984,
,,,,,,,,,,,,5,0,5,0,,,,,,,,,,,,,,,,,,,,,,,,,,,,,,,,,,,,,,,,,,,,,,,,,741.8168342998251,None,,,,,,,,,,,,,,,,,,,,,,,,,,,,,,,,,,,,,,,,,,,,,,,,,,,,,,,,,factory,204,6,aloud,new,yellow,739.8068650998175,None,n,739.8068650998175,None,"['n', 'return']","[1.6100516002625227, 1.9782170001417398]",739.8068650998175,None,,,55,001,2023_Apr_26_1030,ExactRep-v3-final,2021.2.3,59.888666859590984,
,,,,,,,,,,,,6,0,6,0,,,,,,,,,,,,,,,,,,,,,,,,,,,,,,,,,,,,,,,,,,,,,,,,,744.0525950994343,None,,,,,,,,,,,,,,,,,,,,,,,,,,,,,,,,,,,,,,,,,,,,,,,,,,,,,,,,,table,200,7,aloud,new,yellow,742.3269123993814,None,y,742.3269123993814,None,"['y', 'return']","[1.2899823002517223, 1.6901815002784133]",742.3269123993814,None,,,55,001,2023_Apr_26_1030,ExactRep-v3-final,2021.2.3,59.888666859590984,
,,,,,,,,,,,,7,0,7,0,,,,,,,,,,,,,,,,,,,,,,,,,,,,,,,,,,,,,,,,,,,,,,,,,746.5050355000421,None,,,,,,,,,,,,,,,,,,,,,,,,,,,,,,,,,,,,,,,,,,,,,,,,,,,,,,,,,storm,193,8,sing,new,yellow,744.5608920995146,None,n,744.5608920995146,None,"['n', 'return']","[1.5444136997684836, 1.8962269993498921]",744.5608920995146,None,,,55,001,2023_Apr_26_1030,ExactRep-v3-final,2021.2.3,59.888666859590984,
,,,,,,,,,,,,8,0,8,0,,,,,,,,,,,,,,,,,,,,,,,,,,,,,,,,,,,,,,,,,,,,,,,,,748.8072192994878,None,,,,,,,,,,,,,,,,,,,,,,,,,,,,,,,,,,,,,,,,,,,,,,,,,,,,,,,,,power,62,9,silent,old,yellow,747.0182853993028,None,y,747.0182853993028,None,"['y', 'return']","[1.2226760992780328, 1.7427138993516564]",747.0182853993028,None,,,55,001,2023_Apr_26_1030,ExactRep-v3-final,2021.2.3,59.888666859590984,
,,,,,,,,,,,,9,0,9,0,,,,,,,,,,,,,,,,,,,,,,,,,,,,,,,,,,,,,,,,,,,,,,,,,750.7092157993466,None,,,,,,,,,,,,,,,,,,,,,,,,,,,,,,,,,,,,,,,,,,,,,,,,,,,,,,,,,apple,118,10,aloud,old,yellow,749.3176465993747,None,y,749.3176465993747,None,"['y', 'return']","[0.9714359007775784, 1.3473535003140569]",749.3176465993747,None,,,55,001,2023_Apr_26_1030,ExactRep-v3-final,2021.2.3,59.888666859590984,
,,,,,,,,,,,,10,0,10,0,,,,,,,,,,,,,,,,,,,,,,,,,,,,,,,,,,,,,,,,,,,,,,,,,752.6277217995375,None,,,,,,,,,,,,,,,,,,,,,,,,,,,,,,,,,,,,,,,,,,,,,,,,,,,,,,,,,string,138,11,silent,new,yellow,751.2189619997516,None,n,751.2189619997516,None,"['n', 'return']","[1.0623206999152899, 1.3660781001672149]",751.2189619997516,None,,,55,001,2023_Apr_26_1030,ExactRep-v3-final,2021.2.3,59.888666859590984,
,,,,,,,,,,,,11,0,11,0,,,,,,,,,,,,,,,,,,,,,,,,,,,,,,,,,,,,,,,,,,,,,,,,,755.5305399000645,None,,,,,,,,,,,,,,,,,,,,,,,,,,,,,,,,,,,,,,,,,,,,,,,,,,,,,,,,,advice,178,12,aloud,new,yellow,753.1314616994932,None,n,753.1314616994932,None,"['n', 'return']","[2.077663500793278, 2.3655271008610725]",753.1314616994932,None,,,55,001,2023_Apr_26_1030,ExactRep-v3-final,2021.2.3,59.888666859590984,
,,,,,,,,,,,,12,0,12,0,,,,,,,,,,,,,,,,,,,,,,,,,,,,,,,,,,,,,,,,,,,,,,,,,758.9672737997025,None,,,,,,,,,,,,,,,,,,,,,,,,,,,,,,,,,,,,,,,,,,,,,,,,,,,,,,,,,health,222,13,aloud,new,yellow,756.0406091995537,None,n,756.0406091995537,None,"['return', 'n', 'return']","[1.1605981001630425, 1.6003548000007868, 2.880440100096166]",756.0406091995537,None,,,55,001,2023_Apr_26_1030,ExactRep-v3-final,2021.2.3,59.888666859590984,
,,,,,,,,,,,,13,0,13,0,,,,,,,,,,,,,,,,,,,,,,,,,,,,,,,,,,,,,,,,,,,,,,,,,761.1862240992486,None,,,,,,,,,,,,,,,,,,,,,,,,,,,,,,,,,,,,,,,,,,,,,,,,,,,,,,,,,car,26,14,sing,old,yellow,759.4813299998641,None,n,759.4813299998641,None,"['n', 'return']","[1.3997073005884886, 1.6636936999857426]",759.4813299998641,None,,,55,001,2023_Apr_26_1030,ExactRep-v3-final,2021.2.3,59.888666859590984,
,,,,,,,,,,,,14,0,14,0,,,,,,,,,,,,,,,,,,,,,,,,,,,,,,,,,,,,,,,,,,,,,,,,,763.1216143993661,None,,,,,,,,,,,,,,,,,,,,,,,,,,,,,,,,,,,,,,,,,,,,,,,,,,,,,,,,,wheat,235,15,sing,new,yellow,761.6926886998117,None,n,761.6926886998117,None,"['n', 'return']","[1.1164813004434109, 1.3962954003363848]",761.6926886998117,None,,,55,001,2023_Apr_26_1030,ExactRep-v3-final,2021.2.3,59.888666859590984,
,,,,,,,,,,,,15,0,15,0,,,,,,,,,,,,,,,,,,,,,,,,,,,,,,,,,,,,,,,,,,,,,,,,,765.0567450998351,None,,,,,,,,,,,,,,,,,,,,,,,,,,,,,,,,,,,,,,,,,,,,,,,,,,,,,,,,,spirit,104,16,aloud,old,yellow,763.6314284997061,None,y,763.6314284997061,None,"['y', 'return']","[0.7535567004233599, 1.3776237005367875]",763.6314284997061,None,,,55,001,2023_Apr_26_1030,ExactRep-v3-final,2021.2.3,59.888666859590984,
,,,,,,,,,,,,16,0,16,0,,,,,,,,,,,,,,,,,,,,,,,,,,,,,,,,,,,,,,,,,,,,,,,,,766.7585047995672,None,,,,,,,,,,,,,,,,,,,,,,,,,,,,,,,,,,,,,,,,,,,,,,,,,,,,,,,,,queen,95,17,aloud,old,yellow,765.5721116997302,None,y,765.5721116997302,None,"['y', 'return']","[0.8288671998307109, 1.1490149991586804]",765.5721116997302,None,,,55,001,2023_Apr_26_1030,ExactRep-v3-final,2021.2.3,59.888666859590984,
,,,,,,,,,,,,17,0,17,0,,,,,,,,,,,,,,,,,,,,,,,,,,,,,,,,,,,,,,,,,,,,,,,,,769.4479729998857,None,,,,,,,,,,,,,,,,,,,,,,,,,,,,,,,,,,,,,,,,,,,,,,,,,,,,,,,,,body,107,18,aloud,old,yellow,767.2698359992355,None,y,767.2698359992355,None,"['y', 'return']","[1.8111506002023816, 2.13102070055902]",767.2698359992355,None,,,55,001,2023_Apr_26_1030,ExactRep-v3-final,2021.2.3,59.888666859590984,
,,,,,,,,,,,,18,0,18,0,,,,,,,,,,,,,,,,,,,,,,,,,,,,,,,,,,,,,,,,,,,,,,,,,771.5298654995859,None,,,,,,,,,,,,,,,,,,,,,,,,,,,,,,,,,,,,,,,,,,,,,,,,,,,,,,,,,ocean,41,19,silent,old,yellow,769.961660400033,None,y,769.961660400033,None,"['y', 'return']","[1.0392223997041583, 1.527364299632609]",769.961660400033,None,,,55,001,2023_Apr_26_1030,ExactRep-v3-final,2021.2.3,59.888666859590984,
,,,,,,,,,,,,19,0,19,0,,,,,,,,,,,,,,,,,,,,,,,,,,,,,,,,,,,,,,,,,,,,,,,,,774.2160697998479,None,,,,,,,,,,,,,,,,,,,,,,,,,,,,,,,,,,,,,,,,,,,,,,,,,,,,,,,,,doctor,66,20,silent,old,yellow,772.0433821994811,None,n,772.0433821994811,None,"['n', 'return']","[1.8375367997214198, 2.125748699530959]",772.0433821994811,None,,,55,001,2023_Apr_26_1030,ExactRep-v3-final,2021.2.3,59.888666859590984,
,,,,,,,,,,,,20,0,20,0,,,,,,,,,,,,,,,,,,,,,,,,,,,,,,,,,,,,,,,,,,,,,,,,,776.5193881997839,None,,,,,,,,,,,,,,,,,,,,,,,,,,,,,,,,,,,,,,,,,,,,,,,,,,,,,,,,,idea,186,21,aloud,new,yellow,774.7230326998979,None,n,774.7230326998979,None,"['n', 'return']","[1.4780625002458692, 1.750037499703467]",774.7230326998979,None,,,55,001,2023_Apr_26_1030,ExactRep-v3-final,2021.2.3,59.888666859590984,
,,,,,,,,,,,,21,0,21,0,,,,,,,,,,,,,,,,,,,,,,,,,,,,,,,,,,,,,,,,,,,,,,,,,778.4033974995837,None,,,,,,,,,,,,,,,,,,,,,,,,,,,,,,,,,,,,,,,,,,,,,,,,,,,,,,,,,person,93,22,aloud,old,yellow,777.0281978994608,None,y,777.0281978994608,None,"['y', 'return']","[1.0290128998458385, 1.3328867992386222]",777.0281978994608,None,,,55,001,2023_Apr_26_1030,ExactRep-v3-final,2021.2.3,59.888666859590984,
,,,,,,,,,,,,22,0,22,0,,,,,,,,,,,,,,,,,,,,,,,,,,,,,,,,,,,,,,,,,,,,,,,,,779.9883495001122,None,,,,,,,,,,,,,,,,,,,,,,,,,,,,,,,,,,,,,,,,,,,,,,,,,,,,,,,,,grief,84,23,aloud,old,yellow,778.9149422999471,None,y,778.9149422999471,None,"['y', 'return']","[0.7183611001819372, 1.0300253005698323]",778.9149422999471,None,,,55,001,2023_Apr_26_1030,ExactRep-v3-final,2021.2.3,59.888666859590984,
,,,,,,,,,,,,23,0,23,0,,,,,,,,,,,,,,,,,,,,,,,,,,,,,,,,,,,,,,,,,,,,,,,,,781.856866799295,None,,,,,,,,,,,,,,,,,,,,,,,,,,,,,,,,,,,,,,,,,,,,,,,,,,,,,,,,,machine,151,24,silent,new,yellow,780.4935459997505,None,n,780.4935459997505,None,"['n', 'return']","[1.027780399657786, 1.33153809979558]",780.4935459997505,None,,,55,001,2023_Apr_26_1030,ExactRep-v3-final,2021.2.3,59.888666859590984,
,,,,,,,,,,,,24,0,24,0,,,,,,,,,,,,,,,,,,,,,,,,,,,,,,,,,,,,,,,,,,,,,,,,,783.4751496994868,None,,,,,,,,,,,,,,,,,,,,,,,,,,,,,,,,,,,,,,,,,,,,,,,,,,,,,,,,,length,33,25,sing,old,yellow,782.3679076991975,None,n,782.3679076991975,None,"['n', 'return']","[0.7212662994861603, 1.0651720995083451]",782.3679076991975,None,,,55,001,2023_Apr_26_1030,ExactRep-v3-final,2021.2.3,59.888666859590984,
,,,,,,,,,,,,25,0,25,0,,,,,,,,,,,,,,,,,,,,,,,,,,,,,,,,,,,,,,,,,,,,,,,,,785.92769189924,None,,,,,,,,,,,,,,,,,,,,,,,,,,,,,,,,,,,,,,,,,,,,,,,,,,,,,,,,,poet,116,26,aloud,old,yellow,783.9904593992978,None,n,783.9904593992978,None,"['n', 'return']","[1.570669200271368, 1.8906824998557568]",783.9904593992978,None,,,55,001,2023_Apr_26_1030,ExactRep-v3-final,2021.2.3,59.888666859590984,
,,,,,,,,,,,,26,0,26,0,,,,,,,,,,,,,,,,,,,,,,,,,,,,,,,,,,,,,,,,,,,,,,,,,787.9462418993935,None,,,,,,,,,,,,,,,,,,,,,,,,,,,,,,,,,,,,,,,,,,,,,,,,,,,,,,,,,wife,209,27,sing,new,yellow,786.4473567996174,None,n,786.4473567996174,None,"['n', 'return']","[1.1778057999908924, 1.4575766995549202]",786.4473567996174,None,,,55,001,2023_Apr_26_1030,ExactRep-v3-final,2021.2.3,59.888666859590984,
,,,,,,,,,,,,27,0,27,0,,,,,,,,,,,,,,,,,,,,,,,,,,,,,,,,,,,,,,,,,,,,,,,,,790.0317223994061,None,,,,,,,,,,,,,,,,,,,,,,,,,,,,,,,,,,,,,,,,,,,,,,,,,,,,,,,,,method,92,28,aloud,old,yellow,788.458692099899,None,n,788.458692099899,None,"['n', 'return']","[1.254351600073278, 1.5263916002586484]",788.458692099899,None,,,55,001,2023_Apr_26_1030,ExactRep-v3-final,2021.2.3,59.888666859590984,
,,,,,,,,,,,,28,0,28,0,,,,,,,,,,,,,,,,,,,,,,,,,,,,,,,,,,,,,,,,,,,,,,,,,791.8168430998921,None,,,,,,,,,,,,,,,,,,,,,,,,,,,,,,,,,,,,,,,,,,,,,,,,,,,,,,,,,cottage,28,29,sing,old,yellow,790.5440711993724,None,y,790.5440711993724,None,"['y', 'return']","[0.9209514996036887, 1.2249985998496413]",790.5440711993724,None,,,55,001,2023_Apr_26_1030,ExactRep-v3-final,2021.2.3,59.888666859590984,
,,,,,,,,,,,,29,0,29,0,,,,,,,,,,,,,,,,,,,,,,,,,,,,,,,,,,,,,,,,,,,,,,,,,793.5685817999765,None,,,,,,,,,,,,,,,,,,,,,,,,,,,,,,,,,,,,,,,,,,,,,,,,,,,,,,,,,beast,9,30,sing,old,yellow,792.3237771000713,None,y,792.3237771000713,None,"['y', 'return']","[0.9253887003287673, 1.2053684005513787]",792.3237771000713,None,,,55,001,2023_Apr_26_1030,ExactRep-v3-final,2021.2.3,59.888666859590984,
,,,,,,,,,,,,30,0,30,0,,,,,,,,,,,,,,,,,,,,,,,,,,,,,,,,,,,,,,,,,,,,,,,,,795.3537012999877,None,,,,,,,,,,,,,,,,,,,,,,,,,,,,,,,,,,,,,,,,,,,,,,,,,,,,,,,,,church,198,31,aloud,new,yellow,794.0692524993792,None,n,794.0692524993792,None,"['n', 'return']","[0.9477604003623128, 1.2437785007059574]",794.0692524993792,None,,,55,001,2023_Apr_26_1030,ExactRep-v3-final,2021.2.3,59.888666859590984,
,,,,,,,,,,,,31,0,31,0,,,,,,,,,,,,,,,,,,,,,,,,,,,,,,,,,,,,,,,,,,,,,,,,,797.756041799672,None,,,,,,,,,,,,,,,,,,,,,,,,,,,,,,,,,,,,,,,,,,,,,,,,,,,,,,,,,colony,78,32,silent,old,yellow,795.866696299985,None,n,795.866696299985,None,"['n', 'return']","[1.4943323004990816, 1.8462688000872731]",795.866696299985,None,,,55,001,2023_Apr_26_1030,ExactRep-v3-final,2021.2.3,59.888666859590984,
,,,,,,,,,,,,32,0,32,0,,,,,,,,,,,,,,,,,,,,,,,,,,,,,,,,,,,,,,,,,,,,,,,,,799.3967574993148,None,,,,,,,,,,,,,,,,,,,,,,,,,,,,,,,,,,,,,,,,,,,,,,,,,,,,,,,,,murder,117,33,aloud,old,yellow,798.2672104993835,None,y,798.2672104993835,None,"['y', 'return']","[0.7261565001681447, 1.0778978997841477]",798.2672104993835,None,,,55,001,2023_Apr_26_1030,ExactRep-v3-final,2021.2.3,59.888666859590984,
,,,,,,,,,,,,33,0,33,0,,,,,,,,,,,,,,,,,,,,,,,,,,,,,,,,,,,,,,,,,,,,,,,,,801.3096428997815,None,,,,,,,,,,,,,,,,,,,,,,,,,,,,,,,,,,,,,,,,,,,,,,,,,,,,,,,,,custom,153,34,silent,new,yellow,799.9238987993449,None,n,799.9238987993449,None,"['n', 'return']","[1.0452044997364283, 1.3492636997252703]",799.9238987993449,None,,,55,001,2023_Apr_26_1030,ExactRep-v3-final,2021.2.3,59.888666859590984,
,,,,,,,,,,,,34,0,34,0,,,,,,,,,,,,,,,,,,,,,,,,,,,,,,,,,,,,,,,,,,,,,,,,,803.345172399655,None,,,,,,,,,,,,,,,,,,,,,,,,,,,,,,,,,,,,,,,,,,,,,,,,,,,,,,,,,door,237,35,sing,new,yellow,801.8189511997625,None,n,801.8189511997625,None,"['n', 'return']","[1.1982270004227757, 1.4781983001157641]",801.8189511997625,None,,,55,001,2023_Apr_26_1030,ExactRep-v3-final,2021.2.3,59.888666859590984,
,,,,,,,,,,,,35,0,35,0,,,,,,,,,,,,,,,,,,,,,,,,,,,,,,,,,,,,,,,,,,,,,,,,,805.0133440000936,None,,,,,,,,,,,,,,,,,,,,,,,,,,,,,,,,,,,,,,,,,,,,,,,,,,,,,,,,,journal,2,36,sing,old,yellow,803.8566239997745,None,n,803.8566239997745,None,"['n', 'return']","[0.8244800996035337, 1.1205439995974302]",803.8566239997745,None,,,55,001,2023_Apr_26_1030,ExactRep-v3-final,2021.2.3,59.888666859590984,
,,,,,,,,,,,,36,0,36,0,,,,,,,,,,,,,,,,,,,,,,,,,,,,,,,,,,,,,,,,,,,,,,,,,806.8319159997627,None,,,,,,,,,,,,,,,,,,,,,,,,,,,,,,,,,,,,,,,,,,,,,,,,,,,,,,,,,board,99,37,aloud,old,yellow,805.524234299548,None,y,805.524234299548,None,"['y', 'return']","[0.9808100005611777, 1.268826900050044]",805.524234299548,None,,,55,001,2023_Apr_26_1030,ExactRep-v3-final,2021.2.3,59.888666859590984,
,,,,,,,,,,,,37,0,37,0,,,,,,,,,,,,,,,,,,,,,,,,,,,,,,,,,,,,,,,,,,,,,,,,,808.6337273996323,None,,,,,,,,,,,,,,,,,,,,,,,,,,,,,,,,,,,,,,,,,,,,,,,,,,,,,,,,,dust,158,38,silent,new,yellow,807.3401342993602,None,n,807.3401342993602,None,"['n', 'return']","[0.9728973992168903, 1.2530014999210835]",807.3401342993602,None,,,55,001,2023_Apr_26_1030,ExactRep-v3-final,2021.2.3,59.888666859590984,
,,,,,,,,,,,,38,0,38,0,,,,,,,,,,,,,,,,,,,,,,,,,,,,,,,,,,,,,,,,,,,,,,,,,810.6189794996753,None,,,,,,,,,,,,,,,,,,,,,,,,,,,,,,,,,,,,,,,,,,,,,,,,,,,,,,,,,camp,123,39,silent,new,yellow,809.1429212000221,None,n,809.1429212000221,None,"['n', 'return']","[1.1621434995904565, 1.4420998999848962]",809.1429212000221,None,,,55,001,2023_Apr_26_1030,ExactRep-v3-final,2021.2.3,59.888666859590984,
,,,,,,,,,,,,39,0,39,0,,,,,,,,,,,,,,,,,,,,,,,,,,,,,,,,,,,,,,,,,,,,,,,,,812.320755799301,None,,,,,,,,,,,,,,,,,,,,,,,,,,,,,,,,,,,,,,,,,,,,,,,,,,,,,,,,,seat,143,40,silent,new,yellow,811.128169699572,None,n,811.128169699572,None,"['n', 'return']","[0.9132484002038836, 1.16095419973135]",811.128169699572,None,,,55,001,2023_Apr_26_1030,ExactRep-v3-final,2021.2.3,59.888666859590984,
,,,,,,,,,,,,40,0,40,0,,,,,,,,,,,,,,,,,,,,,,,,,,,,,,,,,,,,,,,,,,,,,,,,,814.0891762999818,None,,,,,,,,,,,,,,,,,,,,,,,,,,,,,,,,,,,,,,,,,,,,,,,,,,,,,,,,,dawn,21,41,sing,old,yellow,812.8305852999911,None,y,812.8305852999911,None,"['y', 'return']","[0.9063999000936747, 1.210313900373876]",812.8305852999911,None,,,55,001,2023_Apr_26_1030,ExactRep-v3-final,2021.2.3,59.888666859590984,
,,,,,,,,,,,,41,0,41,0,,,,,,,,,,,,,,,,,,,,,,,,,,,,,,,,,,,,,,,,,,,,,,,,,815.8744356995448,None,,,,,,,,,,,,,,,,,,,,,,,,,,,,,,,,,,,,,,,,,,,,,,,,,,,,,,,,,arm,48,42,silent,old,yellow,814.601622399874,None,n,814.601622399874,None,"['n', 'return']","[0.9115613996982574, 1.2316429000347853]",814.601622399874,None,,,55,001,2023_Apr_26_1030,ExactRep-v3-final,2021.2.3,59.888666859590984,
,,,,,,,,,,,,42,0,42,0,,,,,,,,,,,,,,,,,,,,,,,,,,,,,,,,,,,,,,,,,,,,,,,,,817.5092295994982,None,,,,,,,,,,,,,,,,,,,,,,,,,,,,,,,,,,,,,,,,,,,,,,,,,,,,,,,,,justice,94,43,aloud,old,yellow,816.3883666992188,None,y,816.3883666992188,None,"['y', 'return']","[0.7648359993472695, 1.076647199690342]",816.3883666992188,None,,,55,001,2023_Apr_26_1030,ExactRep-v3-final,2021.2.3,59.888666859590984,
,,,,,,,,,,,,43,0,43,0,,,,,,,,,,,,,,,,,,,,,,,,,,,,,,,,,,,,,,,,,,,,,,,,,819.2443247996271,None,,,,,,,,,,,,,,,,,,,,,,,,,,,,,,,,,,,,,,,,,,,,,,,,,,,,,,,,,meeting,12,44,sing,old,yellow,818.0193617995828,None,y,818.0193617995828,None,"['y', 'return']","[0.9177152998745441, 1.1816536001861095]",818.0193617995828,None,,,55,001,2023_Apr_26_1030,ExactRep-v3-final,2021.2.3,59.888666859590984,
,,,,,,,,,,,,44,0,44,0,,,,,,,,,,,,,,,,,,,,,,,,,,,,,,,,,,,,,,,,,,,,,,,,,820.9459334993735,None,,,,,,,,,,,,,,,,,,,,,,,,,,,,,,,,,,,,,,,,,,,,,,,,,,,,,,,,,tool,70,45,silent,old,yellow,819.7564187999815,None,y,819.7564187999815,None,"['y', 'return']","[0.9006827995181084, 1.1565664000809193]",819.7564187999815,None,,,55,001,2023_Apr_26_1030,ExactRep-v3-final,2021.2.3,59.888666859590984,
,,,,,,,,,,,,45,0,45,0,,,,,,,,,,,,,,,,,,,,,,,,,,,,,,,,,,,,,,,,,,,,,,,,,823.848906699568,None,,,,,,,,,,,,,,,,,,,,,,,,,,,,,,,,,,,,,,,,,,,,,,,,,,,,,,,,,green,210,46,aloud,new,yellow,821.456948899664,None,n,821.456948899664,None,"['n', 'return']","[2.0642419001087546, 2.3601533994078636]",821.456948899664,None,,,55,001,2023_Apr_26_1030,ExactRep-v3-final,2021.2.3,59.888666859590984,
,,,,,,,,,,,,46,0,46,0,,,,,,,,,,,,,,,,,,,,,,,,,,,,,,,,,,,,,,,,,,,,,,,,,825.9509207997471,None,,,,,,,,,,,,,,,,,,,,,,,,,,,,,,,,,,,,,,,,,,,,,,,,,,,,,,,,,love,160,47,aloud,new,yellow,824.357880000025,None,n,824.357880000025,None,"['n', 'return']","[1.2990281991660595, 1.5472526997327805]",824.357880000025,None,,,55,001,2023_Apr_26_1030,ExactRep-v3-final,2021.2.3,59.888666859590984,
,,,,,,,,,,,,47,0,47,0,,,,,,,,,,,,,,,,,,,,,,,,,,,,,,,,,,,,,,,,,,,,,,,,,828.0030766995624,None,,,,,,,,,,,,,,,,,,,,,,,,,,,,,,,,,,,,,,,,,,,,,,,,,,,,,,,,,home,54,48,silent,old,yellow,826.4600267000496,None,n,826.4600267000496,None,"['n', 'return']","[1.2530356999486685, 1.5090164998546243]",826.4600267000496,None,,,55,001,2023_Apr_26_1030,ExactRep-v3-final,2021.2.3,59.888666859590984,
,,,,,,,,,,,,48,0,48,0,,,,,,,,,,,,,,,,,,,,,,,,,,,,,,,,,,,,,,,,,,,,,,,,,829.7881279001012,None,,,,,,,,,,,,,,,,,,,,,,,,,,,,,,,,,,,,,,,,,,,,,,,,,,,,,,,,,child,205,49,sing,new,yellow,828.510446799919,None,n,828.510446799919,None,"['n', 'return']","[0.9626033995300531, 1.2345762997865677]",828.510446799919,None,,,55,001,2023_Apr_26_1030,ExactRep-v3-final,2021.2.3,59.888666859590984,
,,,,,,,,,,,,49,0,49,0,,,,,,,,,,,,,,,,,,,,,,,,,,,,,,,,,,,,,,,,,,,,,,,,,831.3730552000925,None,,,,,,,,,,,,,,,,,,,,,,,,,,,,,,,,,,,,,,,,,,,,,,,,,,,,,,,,,ship,35,50,sing,old,yellow,830.3063312992454,None,n,830.3063312992454,None,"['n', 'return']","[0.7748862002044916, 1.0226533003151417]",830.3063312992454,None,,,55,001,2023_Apr_26_1030,ExactRep-v3-final,2021.2.3,59.888666859590984,
,,,,,,,,,,,,50,0,50,0,,,,,,,,,,,,,,,,,,,,,,,,,,,,,,,,,,,,,,,,,,,,,,,,,833.8756486000493,None,,,,,,,,,,,,,,,,,,,,,,,,,,,,,,,,,,,,,,,,,,,,,,,,,,,,,,,,,time,4,51,sing,old,yellow,831.8749798992649,None,n,831.8749798992649,None,"['n', 'return']","[1.670270700007677, 1.95805829949677]",831.8749798992649,None,,,55,001,2023_Apr_26_1030,ExactRep-v3-final,2021.2.3,59.888666859590984,
,,,,,,,,,,,,51,0,51,0,,,,,,,,,,,,,,,,,,,,,,,,,,,,,,,,,,,,,,,,,,,,,,,,,836.0444638999179,None,,,,,,,,,,,,,,,,,,,,,,,,,,,,,,,,,,,,,,,,,,,,,,,,,,,,,,,,,speech,145,52,silent,new,yellow,834.3850317997858,None,n,834.3850317997858,None,"['n', 'return']","[1.1759993992745876, 1.61623299960047]",834.3850317997858,None,,,55,001,2023_Apr_26_1030,ExactRep-v3-final,2021.2.3,59.888666859590984,
,,,,,,,,,,,,52,0,52,0,,,,,,,,,,,,,,,,,,,,,,,,,,,,,,,,,,,,,,,,,,,,,,,,,838.0131286000833,None,,,,,,,,,,,,,,,,,,,,,,,,,,,,,,,,,,,,,,,,,,,,,,,,,,,,,,,,,cash,166,53,aloud,new,yellow,836.5553971994668,None,n,836.5553971994668,None,"['n', 'return']","[1.1977773001417518, 1.4216936994343996]",836.5553971994668,None,,,55,001,2023_Apr_26_1030,ExactRep-v3-final,2021.2.3,59.888666859590984,
,,,,,,,,,,,,53,0,53,0,,,,,,,,,,,,,,,,,,,,,,,,,,,,,,,,,,,,,,,,,,,,,,,,,840.0819577993825,None,,,,,,,,,,,,,,,,,,,,,,,,,,,,,,,,,,,,,,,,,,,,,,,,,,,,,,,,,square,17,54,sing,old,yellow,838.5313366996124,None,n,838.5313366996124,None,"['n', 'return']","[1.3177968999370933, 1.517726800404489]",838.5313366996124,None,,,55,001,2023_Apr_26_1030,ExactRep-v3-final,2021.2.3,59.888666859590984,
,,,,,,,,,,,,54,0,54,0,,,,,,,,,,,,,,,,,,,,,,,,,,,,,,,,,,,,,,,,,,,,,,,,,841.7836263999343,None,,,,,,,,,,,,,,,,,,,,,,,,,,,,,,,,,,,,,,,,,,,,,,,,,,,,,,,,,sea,134,55,silent,new,yellow,840.5901838997379,None,n,840.5901838997379,None,"['n', 'return']","[1.0188945000991225, 1.1549821998924017]",840.5901838997379,None,,,55,001,2023_Apr_26_1030,ExactRep-v3-final,2021.2.3,59.888666859590984,
,,,,,,,,,,,,55,0,55,0,,,,,,,,,,,,,,,,,,,,,,,,,,,,,,,,,,,,,,,,,,,,,,,,,843.5852170996368,None,,,,,,,,,,,,,,,,,,,,,,,,,,,,,,,,,,,,,,,,,,,,,,,,,,,,,,,,,fortune,181,56,sing,new,yellow,842.2960243998095,None,n,842.2960243998095,None,"['n', 'return']","[0.9290394000709057, 1.257038800045848]",842.2960243998095,None,,,55,001,2023_Apr_26_1030,ExactRep-v3-final,2021.2.3,59.888666859590984,
,,,,,,,,,,,,56,0,56,0,,,,,,,,,,,,,,,,,,,,,,,,,,,,,,,,,,,,,,,,,,,,,,,,,845.2702688993886,None,,,,,,,,,,,,,,,,,,,,,,,,,,,,,,,,,,,,,,,,,,,,,,,,,,,,,,,,,lake,97,57,aloud,old,yellow,844.086875599809,None,y,844.086875599809,None,"['y', 'return']","[0.8742210008203983, 1.1463317004963756]",844.086875599809,None,,,55,001,2023_Apr_26_1030,ExactRep-v3-final,2021.2.3,59.888666859590984,
,,,,,,,,,,,,57,0,57,0,,,,,,,,,,,,,,,,,,,,,,,,,,,,,,,,,,,,,,,,,,,,,,,,,847.7560676997527,None,,,,,,,,,,,,,,,,,,,,,,,,,,,,,,,,,,,,,,,,,,,,,,,,,,,,,,,,,origin,162,58,aloud,new,yellow,845.7802145993337,None,n,845.7802145993337,None,"['n', 'return']","[1.6609299005940557, 1.9328581001609564]",845.7802145993337,None,,,55,001,2023_Apr_26_1030,ExactRep-v3-final,2021.2.3,59.888666859590984,
,,,,,,,,,,,,58,0,58,0,,,,,,,,,,,,,,,,,,,,,,,,,,,,,,,,,,,,,,,,,,,,,,,,,849.6582894995809,None,,,,,,,,,,,,,,,,,,,,,,,,,,,,,,,,,,,,,,,,,,,,,,,,,,,,,,,,,shadow,228,59,aloud,new,yellow,848.2662435993552,None,n,848.2662435993552,None,"['n', 'return']","[1.0870074005797505, 1.3588467007502913]",848.2662435993552,None,,,55,001,2023_Apr_26_1030,ExactRep-v3-final,2021.2.3,59.888666859590984,
,,,,,,,,,,,,59,0,59,0,,,,,,,,,,,,,,,,,,,,,,,,,,,,,,,,,,,,,,,,,,,,,,,,,851.6600989000872,None,,,,,,,,,,,,,,,,,,,,,,,,,,,,,,,,,,,,,,,,,,,,,,,,,,,,,,,,,quality,136,60,silent,new,yellow,850.16956799943,None,n,850.16956799943,None,"['n', 'return']","[1.0075225001201034, 1.4475157000124454]",850.16956799943,None,,,55,001,2023_Apr_26_1030,ExactRep-v3-final,2021.2.3,59.888666859590984,
,,,,,,,,,,,,60,0,60,0,,,,,,,,,,,,,,,,,,,,,,,,,,,,,,,,,,,,,,,,,,,,,,,,,853.4284451995045,None,,,,,,,,,,,,,,,,,,,,,,,,,,,,,,,,,,,,,,,,,,,,,,,,,,,,,,,,,hide,216,61,aloud,new,yellow,852.1714268000796,None,n,852.1714268000796,None,"['n', 'return']","[0.941661799326539, 1.2217753995209932]",852.1714268000796,None,,,55,001,2023_Apr_26_1030,ExactRep-v3-final,2021.2.3,59.888666859590984,
,,,,,,,,,,,,61,0,61,0,,,,,,,,,,,,,,,,,,,,,,,,,,,,,,,,,,,,,,,,,,,,,,,,,855.0969646992162,None,,,,,,,,,,,,,,,,,,,,,,,,,,,,,,,,,,,,,,,,,,,,,,,,,,,,,,,,,leader,31,62,sing,old,yellow,853.9383638994768,None,y,853.9383638994768,None,"['y', 'return']","[0.8148384997621179, 1.1186451995745301]",853.9383638994768,None,,,55,001,2023_Apr_26_1030,ExactRep-v3-final,2021.2.3,59.888666859590984,
,,,,,,,,,,,,62,0,62,0,,,,,,,,,,,,,,,,,,,,,,,,,,,,,,,,,,,,,,,,,,,,,,,,,856.5982212992385,None,,,,,,,,,,,,,,,,,,,,,,,,,,,,,,,,,,,,,,,,,,,,,,,,,,,,,,,,,theory,102,63,aloud,old,yellow,855.6069748997688,None,y,855.6069748997688,None,"['y', 'return']","[0.6822557998821139, 0.9541327999904752]",855.6069748997688,None,,,55,001,2023_Apr_26_1030,ExactRep-v3-final,2021.2.3,59.888666859590984,
,,,,,,,,,,,,63,0,63,0,,,,,,,,,,,,,,,,,,,,,,,,,,,,,,,,,,,,,,,,,,,,,,,,,858.1331056999043,None,,,,,,,,,,,,,,,,,,,,,,,,,,,,,,,,,,,,,,,,,,,,,,,,,,,,,,,,,river,141,64,silent,new,yellow,857.1072653001174,None,y,857.1072653001174,None,"['y', 'return']","[0.6539806006476283, 0.9899585004895926]",857.1072653001174,None,,,55,001,2023_Apr_26_1030,ExactRep-v3-final,2021.2.3,59.888666859590984,
,,,,,,,,,,,,64,0,64,0,,,,,,,,,,,,,,,,,,,,,,,,,,,,,,,,,,,,,,,,,,,,,,,,,860.1851813998073,None,,,,,,,,,,,,,,,,,,,,,,,,,,,,,,,,,,,,,,,,,,,,,,,,,,,,,,,,,city,0,65,sing,old,yellow,858.6440829997882,None,y,858.6440829997882,None,"['y', 'return']","[1.2210315996780992, 1.5011234004050493]",858.6440829997882,None,,,55,001,2023_Apr_26_1030,ExactRep-v3-final,2021.2.3,59.888666859590984,
,,,,,,,,,,,,65,0,65,0,,,,,,,,,,,,,,,,,,,,,,,,,,,,,,,,,,,,,,,,,,,,,,,,,862.0537302996963,None,,,,,,,,,,,,,,,,,,,,,,,,,,,,,,,,,,,,,,,,,,,,,,,,,,,,,,,,,flesh,108,66,aloud,old,yellow,860.6981346998364,None,y,860.6981346998364,None,"['y', 'return']","[1.0790236992761493, 1.319085699506104]",860.6981346998364,None,,,55,001,2023_Apr_26_1030,ExactRep-v3-final,2021.2.3,59.888666859590984,
,,,,,,,,,,,,66,0,66,0,,,,,,,,,,,,,,,,,,,,,,,,,,,,,,,,,,,,,,,,,,,,,,,,,864.339361699298,None,,,,,,,,,,,,,,,,,,,,,,,,,,,,,,,,,,,,,,,,,,,,,,,,,,,,,,,,,vision,175,67,sing,new,yellow,862.56115149986,None,n,862.56115149986,None,"['n', 'return']","[1.4321053000167012, 1.7441381998360157]",862.56115149986,None,,,55,001,2023_Apr_26_1030,ExactRep-v3-final,2021.2.3,59.888666859590984,
,,,,,,,,,,,,67,0,67,0,,,,,,,,,,,,,,,,,,,,,,,,,,,,,,,,,,,,,,,,,,,,,,,,,866.5916033992544,None,,,,,,,,,,,,,,,,,,,,,,,,,,,,,,,,,,,,,,,,,,,,,,,,,,,,,,,,,corn,109,68,aloud,old,yellow,864.8468100000173,None,y,864.8468100000173,None,"['y', 'return']","[1.4662501998245716, 1.7062995005398989]",864.8468100000173,None,,,55,001,2023_Apr_26_1030,ExactRep-v3-final,2021.2.3,59.888666859590984,
,,,,,,,,,,,,68,0,68,0,,,,,,,,,,,,,,,,,,,,,,,,,,,,,,,,,,,,,,,,,,,,,,,,,868.4935014992952,None,,,,,,,,,,,,,,,,,,,,,,,,,,,,,,,,,,,,,,,,,,,,,,,,,,,,,,,,,woman,91,69,aloud,old,yellow,867.094952499494,None,n,867.094952499494,None,"['n', 'return']","[1.0420925999060273, 1.3621477000415325]",867.094952499494,None,,,55,001,2023_Apr_26_1030,ExactRep-v3-final,2021.2.3,59.888666859590984,
,,,,,,,,,,,,69,0,69,0,,,,,,,,,,,,,,,,,,,,,,,,,,,,,,,,,,,,,,,,,,,,,,,,,870.312124199234,None,,,,,,,,,,,,,,,,,,,,,,,,,,,,,,,,,,,,,,,,,,,,,,,,,,,,,,,,,steam,223,70,sing,new,yellow,869.0031447997317,None,y,869.0031447997317,None,"['y', 'return']","[1.037996499799192, 1.2619924005120993]",869.0031447997317,None,,,55,001,2023_Apr_26_1030,ExactRep-v3-final,2021.2.3,59.888666859590984,
,,,,,,,,,,,,70,0,70,0,,,,,,,,,,,,,,,,,,,,,,,,,,,,,,,,,,,,,,,,,,,,,,,,,872.3139865994453,None,,,,,,,,,,,,,,,,,,,,,,,,,,,,,,,,,,,,,,,,,,,,,,,,,,,,,,,,,gift,122,71,silent,new,yellow,870.8235986996442,None,n,870.8235986996442,None,"['n', 'return']","[1.1856216993182898, 1.4576448993757367]",870.8235986996442,None,,,55,001,2023_Apr_26_1030,ExactRep-v3-final,2021.2.3,59.888666859590984,
,,,,,,,,,,,,71,0,71,0,,,,,,,,,,,,,,,,,,,,,,,,,,,,,,,,,,,,,,,,,,,,,,,,,873.8990863999352,None,,,,,,,,,,,,,,,,,,,,,,,,,,,,,,,,,,,,,,,,,,,,,,,,,,,,,,,,,cost,133,72,silent,new,yellow,872.8216367000714,None,n,872.8216367000714,None,"['n', 'return']","[0.8435811996459961, 1.035631200298667]",872.8216367000714,None,,,55,001,2023_Apr_26_1030,ExactRep-v3-final,2021.2.3,59.888666859590984,
,,,,,,,,,,,,72,0,72,0,,,,,,,,,,,,,,,,,,,,,,,,,,,,,,,,,,,,,,,,,,,,,,,,,875.4504227992147,None,,,,,,,,,,,,,,,,,,,,,,,,,,,,,,,,,,,,,,,,,,,,,,,,,,,,,,,,,chance,137,73,silent,new,yellow,874.4072321997955,None,n,874.4072321997955,None,"['n', 'return']","[0.865845700725913, 1.0097919004037976]",874.4072321997955,None,,,55,001,2023_Apr_26_1030,ExactRep-v3-final,2021.2.3,59.888666859590984,
,,,,,,,,,,,,73,0,73,0,,,,,,,,,,,,,,,,,,,,,,,,,,,,,,,,,,,,,,,,,,,,,,,,,877.1688393000513,None,,,,,,,,,,,,,,,,,,,,,,,,,,,,,,,,,,,,,,,,,,,,,,,,,,,,,,,,,troops,38,74,sing,old,yellow,875.9675418995321,None,y,875.9675418995321,None,"['y', 'return']","[0.8656358998268843, 1.1616612998768687]",875.9675418995321,None,,,55,001,2023_Apr_26_1030,ExactRep-v3-final,2021.2.3,59.888666859590984,
,,,,,,,,,,,,74,0,74,0,,,,,,,,,,,,,,,,,,,,,,,,,,,,,,,,,,,,,,,,,,,,,,,,,878.8540522996336,None,,,,,,,,,,,,,,,,,,,,,,,,,,,,,,,,,,,,,,,,,,,,,,,,,,,,,,,,,meadow,63,75,silent,old,yellow,877.6751168994233,None,y,877.6751168994233,None,"['y', 'return']","[0.92612100020051, 1.1421403996646404]",877.6751168994233,None,,,55,001,2023_Apr_26_1030,ExactRep-v3-final,2021.2.3,59.888666859590984,
,,,,,,,,,,,,75,0,75,0,,,,,,,,,,,,,,,,,,,,,,,,,,,,,,,,,,,,,,,,,,,,,,,,,880.1884920997545,None,,,,,,,,,,,,,,,,,,,,,,,,,,,,,,,,,,,,,,,,,,,,,,,,,,,,,,,,,pride,207,76,sing,new,yellow,879.3658019993454,None,y,879.3658019993454,None,"['y', 'return']","[0.6273312997072935, 0.7873937003314495]",879.3658019993454,None,,,55,001,2023_Apr_26_1030,ExactRep-v3-final,2021.2.3,59.888666859590984,
,,,,,,,,,,,,76,0,76,0,,,,,,,,,,,,,,,,,,,,,,,,,,,,,,,,,,,,,,,,,,,,,,,,,882.2574843997136,None,,,,,,,,,,,,,,,,,,,,,,,,,,,,,,,,,,,,,,,,,,,,,,,,,,,,,,,,,garden,50,77,silent,old,yellow,880.7010333994403,None,y,880.7010333994403,None,"['return', 'y', 'return']","[0.7640910996124148, 1.332146399654448, 1.524160100147128]",880.7010333994403,None,,,55,001,2023_Apr_26_1030,ExactRep-v3-final,2021.2.3,59.888666859590984,
,,,,,,,,,,,,77,0,77,0,,,,,,,,,,,,,,,,,,,,,,,,,,,,,,,,,,,,,,,,,,,,,,,,,884.8096775999293,None,,,,,,,,,,,,,,,,,,,,,,,,,,,,,,,,,,,,,,,,,,,,,,,,,,,,,,,,,brain,232,78,aloud,new,yellow,882.7656247997656,None,y,882.7656247997656,None,"['return', 'y', 'return']","[1.3475692002102733, 1.8114507002756, 2.0035874005407095]",882.7656247997656,None,,,55,001,2023_Apr_26_1030,ExactRep-v3-final,2021.2.3,59.888666859590984,
,,,,,,,,,,,,78,0,78,0,,,,,,,,,,,,,,,,,,,,,,,,,,,,,,,,,,,,,,,,,,,,,,,,,886.4448441993445,None,,,,,,,,,,,,,,,,,,,,,,,,,,,,,,,,,,,,,,,,,,,,,,,,,,,,,,,,,heaven,121,79,silent,new,yellow,885.3108043996617,None,n,885.3108043996617,None,"['n', 'return']","[1.0424156999215484, 1.0903091002255678]",885.3108043996617,None,,,55,001,2023_Apr_26_1030,ExactRep-v3-final,2021.2.3,59.888666859590984,
,,,,,,,,,,,,79,0,79,0,,,,,,,,,,,,,,,,,,,,,,,,,,,,,,,,,,,,,,,,,,,,,,,,,888.013086299412,None,,,,,,,,,,,,,,,,,,,,,,,,,,,,,,,,,,,,,,,,,,,,,,,,,,,,,,,,,circle,34,80,sing,old,yellow,886.9522947994992,None,y,886.9522947994992,None,"['y', 'return']","[1.0009920001029968, 1.0249648997560143]",886.9522947994992,None,,,55,001,2023_Apr_26_1030,ExactRep-v3-final,2021.2.3,59.888666859590984,
,,,,,,,,,,,,80,0,80,0,,,,,,,,,,,,,,,,,,,,,,,,,,,,,,,,,,,,,,,,,,,,,,,,,893.1348116993904,None,,,,,,,,,,,,,,,,,,,,,,,,,,,,,,,,,,,,,,,,,,,,,,,,,,,,,,,,,insect,154,81,silent,new,yellow,888.5170467998832,None,n,888.5170467998832,None,"['return', 'y', 'backspace', 'n', 'return']","[1.2841424001380801, 1.300139999948442, 3.228082500398159, 4.21211179997772, 4.580227400176227]",888.5170467998832,None,,,55,001,2023_Apr_26_1030,ExactRep-v3-final,2021.2.3,59.888666859590984,
,,,,,,,,,,,,81,0,81,0,,,,,,,,,,,,,,,,,,,,,,,,,,,,,,,,,,,,,,,,,,,,,,,,,894.9866723995656,None,,,,,,,,,,,,,,,,,,,,,,,,,,,,,,,,,,,,,,,,,,,,,,,,,,,,,,,,,vessel,203,82,sing,new,yellow,893.6408118000254,None,n,893.6408118000254,None,"['n', 'return']","[1.0884622000157833, 1.3123027998954058]",893.6408118000254,None,,,55,001,2023_Apr_26_1030,ExactRep-v3-final,2021.2.3,59.888666859590984,
,,,,,,,,,,,,82,0,82,0,,,,,,,,,,,,,,,,,,,,,,,,,,,,,,,,,,,,,,,,,,,,,,,,,896.588272199966,None,,,,,,,,,,,,,,,,,,,,,,,,,,,,,,,,,,,,,,,,,,,,,,,,,,,,,,,,,ticket,239,83,sing,new,yellow,895.4965638993308,None,n,895.4965638993308,None,"['n', 'return']","[0.8725645998492837, 1.0567138995975256]",895.4965638993308,None,,,55,001,2023_Apr_26_1030,ExactRep-v3-final,2021.2.3,59.888666859590984,
,,,,,,,,,,,,83,0,83,0,,,,,,,,,,,,,,,,,,,,,,,,,,,,,,,,,,,,,,,,,,,,,,,,,898.3233412997797,None,,,,,,,,,,,,,,,,,,,,,,,,,,,,,,,,,,,,,,,,,,,,,,,,,,,,,,,,,diamond,47,84,silent,old,yellow,897.0949943000451,None,n,897.0949943000451,None,"['n', 'return']","[1.018096199259162, 1.1862494992092252]",897.0949943000451,None,,,55,001,2023_Apr_26_1030,ExactRep-v3-final,2021.2.3,59.888666859590984,
,,,,,,,,,,,,84,0,84,0,,,,,,,,,,,,,,,,,,,,,,,,,,,,,,,,,,,,,,,,,,,,,,,,,900.1418197993189,None,,,,,,,,,,,,,,,,,,,,,,,,,,,,,,,,,,,,,,,,,,,,,,,,,,,,,,,,,shoes,144,85,silent,new,yellow,898.8306511994451,None,n,898.8306511994451,None,"['n', 'return']","[1.0987836997956038, 1.274622700177133]",898.8306511994451,None,,,55,001,2023_Apr_26_1030,ExactRep-v3-final,2021.2.3,59.888666859590984,
,,,,,,,,,,,,85,0,85,0,,,,,,,,,,,,,,,,,,,,,,,,,,,,,,,,,,,,,,,,,,,,,,,,,901.943741299212,None,,,,,,,,,,,,,,,,,,,,,,,,,,,,,,,,,,,,,,,,,,,,,,,,,,,,,,,,,kiss,163,86,sing,new,yellow,900.6507532997057,None,n,900.6507532997057,None,"['n', 'return']","[1.0306707005947828, 1.2546038003638387]",900.6507532997057,None,,,55,001,2023_Apr_26_1030,ExactRep-v3-final,2021.2.3,59.888666859590984,
,,,,,,,,,,,,86,0,86,0,,,,,,,,,,,,,,,,,,,,,,,,,,,,,,,,,,,,,,,,,,,,,,,,,903.7620908999816,None,,,,,,,,,,,,,,,,,,,,,,,,,,,,,,,,,,,,,,,,,,,,,,,,,,,,,,,,,prison,124,87,silent,new,yellow,902.4565028995275,None,n,902.4565028995275,None,"['n', 'return']","[1.0407368000596762, 1.2645984999835491]",902.4565028995275,None,,,55,001,2023_Apr_26_1030,ExactRep-v3-final,2021.2.3,59.888666859590984,
,,,,,,,,,,,,87,0,87,0,,,,,,,,,,,,,,,,,,,,,,,,,,,,,,,,,,,,,,,,,,,,,,,,,905.3470213999972,None,,,,,,,,,,,,,,,,,,,,,,,,,,,,,,,,,,,,,,,,,,,,,,,,,,,,,,,,,earth,128,88,silent,new,yellow,904.2640601992607,None,n,904.2640601992607,None,"['n', 'return']","[0.7290308997035027, 1.0491122994571924]",904.2640601992607,None,,,55,001,2023_Apr_26_1030,ExactRep-v3-final,2021.2.3,59.888666859590984,
,,,,,,,,,,,,88,0,88,0,,,,,,,,,,,,,,,,,,,,,,,,,,,,,,,,,,,,,,,,,,,,,,,,,907.282279599458,None,,,,,,,,,,,,,,,,,,,,,,,,,,,,,,,,,,,,,,,,,,,,,,,,,,,,,,,,,clock,88,89,aloud,old,yellow,905.8587805991992,None,n,905.8587805991992,None,"['n', 'return']","[1.0705054998397827, 1.3906179005280137]",905.8587805991992,None,,,55,001,2023_Apr_26_1030,ExactRep-v3-final,2021.2.3,59.888666859590984,
,,,,,,,,,,,,89,0,89,0,,,,,,,,,,,,,,,,,,,,,,,,,,,,,,,,,,,,,,,,,,,,,,,,,909.0841039996594,None,,,,,,,,,,,,,,,,,,,,,,,,,,,,,,,,,,,,,,,,,,,,,,,,,,,,,,,,,engine,39,90,silent,old,yellow,907.7980397995561,None,n,907.7980397995561,None,"['n', 'return']","[0.9390481002628803, 1.2510251002386212]",907.7980397995561,None,,,55,001,2023_Apr_26_1030,ExactRep-v3-final,2021.2.3,59.888666859590984,
,,,,,,,,,,,,90,0,90,0,,,,,,,,,,,,,,,,,,,,,,,,,,,,,,,,,,,,,,,,,,,,,,,,,910.9025742998347,None,,,,,,,,,,,,,,,,,,,,,,,,,,,,,,,,,,,,,,,,,,,,,,,,,,,,,,,,,fate,7,91,sing,old,yellow,909.5970282992348,None,n,909.5970282992348,None,"['n', 'return']","[0.8841420998796821, 1.2601473005488515]",909.5970282992348,None,,,55,001,2023_Apr_26_1030,ExactRep-v3-final,2021.2.3,59.888666859590984,
,,,,,,,,,,,,91,0,91,0,,,,,,,,,,,,,,,,,,,,,,,,,,,,,,,,,,,,,,,,,,,,,,,,,912.5875942995772,None,,,,,,,,,,,,,,,,,,,,,,,,,,,,,,,,,,,,,,,,,,,,,,,,,,,,,,,,,king,3,92,sing,old,yellow,911.4116845000535,None,n,911.4116845000535,None,"['n', 'return']","[0.8295229002833366, 1.1414355002343655]",911.4116845000535,None,,,55,001,2023_Apr_26_1030,ExactRep-v3-final,2021.2.3,59.888666859590984,
,,,,,,,,,,,,92,0,92,0,,,,,,,,,,,,,,,,,,,,,,,,,,,,,,,,,,,,,,,,,,,,,,,,,914.6730372998863,None,,,,,,,,,,,,,,,,,,,,,,,,,,,,,,,,,,,,,,,,,,,,,,,,,,,,,,,,,world,164,93,aloud,new,yellow,913.0976978996769,None,n,913.0976978996769,None,"['n', 'return']","[1.1836635004729033, 1.5354332998394966]",913.0976978996769,None,,,55,001,2023_Apr_26_1030,ExactRep-v3-final,2021.2.3,59.888666859590984,
,,,,,,,,,,,,93,0,93,0,,,,,,,,,,,,,,,,,,,,,,,,,,,,,,,,,,,,,,,,,,,,,,,,,916.5583761995658,None,,,,,,,,,,,,,,,,,,,,,,,,,,,,,,,,,,,,,,,,,,,,,,,,,,,,,,,,,blossom,132,94,silent,new,yellow,915.181163999252,None,n,915.181163999252,None,"['n', 'return']","[1.0119993006810546, 1.3400519005954266]",915.181163999252,None,,,55,001,2023_Apr_26_1030,ExactRep-v3-final,2021.2.3,59.888666859590984,
,,,,,,,,,,,,94,0,94,0,,,,,,,,,,,,,,,,,,,,,,,,,,,,,,,,,,,,,,,,,,,,,,,,,918.3935995995998,None,,,,,,,,,,,,,,,,,,,,,,,,,,,,,,,,,,,,,,,,,,,,,,,,,,,,,,,,,ability,96,95,aloud,old,yellow,917.0649040993303,None,y,917.0649040993303,None,"['y', 'return']","[1.0723580000922084, 1.280480700545013]",917.0649040993303,None,,,55,001,2023_Apr_26_1030,ExactRep-v3-final,2021.2.3,59.888666859590984,
,,,,,,,,,,,,95,0,95,0,,,,,,,,,,,,,,,,,,,,,,,,,,,,,,,,,,,,,,,,,,,,,,,,,920.1785218995064,None,,,,,,,,,,,,,,,,,,,,,,,,,,,,,,,,,,,,,,,,,,,,,,,,,,,,,,,,,tree,226,96,aloud,new,yellow,918.9014272000641,None,n,918.9014272000641,None,"['n', 'return']","[0.9798025004565716, 1.2358761001378298]",918.9014272000641,None,,,55,001,2023_Apr_26_1030,ExactRep-v3-final,2021.2.3,59.888666859590984,
,,,,,,,,,,,,96,0,96,0,,,,,,,,,,,,,,,,,,,,,,,,,,,,,,,,,,,,,,,,,,,,,,,,,922.6810250999406,None,,,,,,,,,,,,,,,,,,,,,,,,,,,,,,,,,,,,,,,,,,,,,,,,,,,,,,,,,excuse,125,97,silent,new,yellow,920.6946115000173,None,n,920.6946115000173,None,"['return', 'n', 'return']","[1.0024132002145052, 1.530621500685811, 1.9386309999972582]",920.6946115000173,None,,,55,001,2023_Apr_26_1030,ExactRep-v3-final,2021.2.3,59.888666859590984,
,,,,,,,,,,,,97,0,97,0,,,,,,,,,,,,,,,,,,,,,,,,,,,,,,,,,,,,,,,,,,,,,,,,,924.432745099999,None,,,,,,,,,,,,,,,,,,,,,,,,,,,,,,,,,,,,,,,,,,,,,,,,,,,,,,,,,hope,211,98,sing,new,yellow,923.1900300998241,None,n,923.1900300998241,None,"['n', 'return']","[0.8593403995037079, 1.203303299844265]",923.1900300998241,None,,,55,001,2023_Apr_26_1030,ExactRep-v3-final,2021.2.3,59.888666859590984,
,,,,,,,,,,,,98,0,98,0,,,,,,,,,,,,,,,,,,,,,,,,,,,,,,,,,,,,,,,,,,,,,,,,,926.3180932998657,None,,,,,,,,,,,,,,,,,,,,,,,,,,,,,,,,,,,,,,,,,,,,,,,,,,,,,,,,,honour,236,99,aloud,new,yellow,924.9345372999087,None,n,924.9345372999087,None,"['n', 'return']","[1.0587606998160481, 1.3467207998037338]",924.9345372999087,None,,,55,001,2023_Apr_26_1030,ExactRep-v3-final,2021.2.3,59.888666859590984,
,,,,,,,,,,,,99,0,99,0,,,,,,,,,,,,,,,,,,,,,,,,,,,,,,,,,,,,,,,,,,,,,,,,,928.4203099999577,None,,,,,,,,,,,,,,,,,,,,,,,,,,,,,,,,,,,,,,,,,,,,,,,,,,,,,,,,,dream,72,100,silent,old,yellow,926.8233536994085,None,n,926.8233536994085,None,"['n', 'return']","[1.3137854002416134, 1.5617861999198794]",926.8233536994085,None,,,55,001,2023_Apr_26_1030,ExactRep-v3-final,2021.2.3,59.888666859590984,
,,,,,,,,,,,,100,0,100,0,,,,,,,,,,,,,,,,,,,,,,,,,,,,,,,,,,,,,,,,,,,,,,,,,931.7903148997575,None,,,,,,,,,,,,,,,,,,,,,,,,,,,,,,,,,,,,,,,,,,,,,,,,,,,,,,,,,chair,190,101,aloud,new,yellow,928.930315499194,None,n,928.930315499194,None,"['n', 'return']","[2.454880299977958, 2.8229584004729986]",928.930315499194,None,,,55,001,2023_Apr_26_1030,ExactRep-v3-final,2021.2.3,59.888666859590984,
,,,,,,,,,,,,101,0,101,0,,,,,,,,,,,,,,,,,,,,,,,,,,,,,,,,,,,,,,,,,,,,,,,,,933.3929812991992,None,,,,,,,,,,,,,,,,,,,,,,,,,,,,,,,,,,,,,,,,,,,,,,,,,,,,,,,,,boulder,111,102,aloud,old,yellow,932.3080567996949,None,y,932.3080567996949,None,"['y', 'return']","[0.9411310004070401, 1.0452183997258544]",932.3080567996949,None,,,55,001,2023_Apr_26_1030,ExactRep-v3-final,2021.2.3,59.888666859590984,
,,,,,,,,,,,,102,0,102,0,,,,,,,,,,,,,,,,,,,,,,,,,,,,,,,,,,,,,,,,,,,,,,,,,935.3605784997344,None,,,,,,,,,,,,,,,,,,,,,,,,,,,,,,,,,,,,,,,,,,,,,,,,,,,,,,,,,flag,68,103,silent,old,yellow,933.9023913992569,None,n,933.9023913992569,None,"['n', 'return']","[1.170816999860108, 1.4109020996838808]",933.9023913992569,None,,,55,001,2023_Apr_26_1030,ExactRep-v3-final,2021.2.3,59.888666859590984,
,,,,,,,,,,,,103,0,103,0,,,,,,,,,,,,,,,,,,,,,,,,,,,,,,,,,,,,,,,,,,,,,,,,,937.2955684000626,None,,,,,,,,,,,,,,,,,,,,,,,,,,,,,,,,,,,,,,,,,,,,,,,,,,,,,,,,,truth,225,104,sing,new,yellow,935.8738308995962,None,n,935.8738308995962,None,"['n', 'return']","[1.2393436003476381, 1.375419800169766]",935.8738308995962,None,,,55,001,2023_Apr_26_1030,ExactRep-v3-final,2021.2.3,59.888666859590984,
,,,,,,,,,,,,104,0,104,0,,,,,,,,,,,,,,,,,,,,,,,,,,,,,,,,,,,,,,,,,,,,,,,,,939.0974362995476,None,,,,,,,,,,,,,,,,,,,,,,,,,,,,,,,,,,,,,,,,,,,,,,,,,,,,,,,,,hotel,238,105,aloud,new,yellow,937.8000750998035,None,n,937.8000750998035,None,"['n', 'return']","[1.0252863997593522, 1.2651396002620459]",937.8000750998035,None,,,55,001,2023_Apr_26_1030,ExactRep-v3-final,2021.2.3,59.888666859590984,
,,,,,,,,,,,,105,0,105,0,,,,,,,,,,,,,,,,,,,,,,,,,,,,,,,,,,,,,,,,,,,,,,,,,941.8837255993858,None,,,,,,,,,,,,,,,,,,,,,,,,,,,,,,,,,,,,,,,,,,,,,,,,,,,,,,,,,flower,59,106,silent,old,yellow,939.5981322992593,None,y,939.5981322992593,None,"['y', 'return']","[1.9310567993670702, 2.251049899496138]",939.5981322992593,None,,,55,001,2023_Apr_26_1030,ExactRep-v3-final,2021.2.3,59.888666859590984,
,,,,,,,,,,,,106,0,106,0,,,,,,,,,,,,,,,,,,,,,,,,,,,,,,,,,,,,,,,,,,,,,,,,,943.5186084993184,None,,,,,,,,,,,,,,,,,,,,,,,,,,,,,,,,,,,,,,,,,,,,,,,,,,,,,,,,,present,195,107,sing,new,yellow,942.391925599426,None,n,942.391925599426,None,"['n', 'return']","[0.8732896000146866, 1.0893395002931356]",942.391925599426,None,,,55,001,2023_Apr_26_1030,ExactRep-v3-final,2021.2.3,59.888666859590984,
,,,,,,,,,,,,107,0,107,0,,,,,,,,,,,,,,,,,,,,,,,,,,,,,,,,,,,,,,,,,,,,,,,,,945.3369661998004,None,,,,,,,,,,,,,,,,,,,,,,,,,,,,,,,,,,,,,,,,,,,,,,,,,,,,,,,,,plain,11,108,sing,old,yellow,944.0189565997571,None,y,944.0189565997571,None,"['y', 'return']","[1.0061608999967575, 1.2702500000596046]",944.0189565997571,None,,,55,001,2023_Apr_26_1030,ExactRep-v3-final,2021.2.3,59.888666859590984,
,,,,,,,,,,,,108,0,108,0,,,,,,,,,,,,,,,,,,,,,,,,,,,,,,,,,,,,,,,,,,,,,,,,,946.7051161993295,None,,,,,,,,,,,,,,,,,,,,,,,,,,,,,,,,,,,,,,,,,,,,,,,,,,,,,,,,,product,230,109,aloud,new,yellow,945.8389277998358,None,n,945.8389277998358,None,"['n', 'return']","[0.698195000179112, 0.8343222998082638]",945.8389277998358,None,,,55,001,2023_Apr_26_1030,ExactRep-v3-final,2021.2.3,59.888666859590984,
,,,,,,,,,,,,109,0,109,0,,,,,,,,,,,,,,,,,,,,,,,,,,,,,,,,,,,,,,,,,,,,,,,,,948.9573800992221,None,,,,,,,,,,,,,,,,,,,,,,,,,,,,,,,,,,,,,,,,,,,,,,,,,,,,,,,,,glory,81,110,aloud,old,yellow,947.2149943998083,None,y,947.2149943998083,None,"['y', 'return']","[1.4101655995473266, 1.706267699599266]",947.2149943998083,None,,,55,001,2023_Apr_26_1030,ExactRep-v3-final,2021.2.3,59.888666859590984,
,,,,,,,,,,,,110,0,110,0,,,,,,,,,,,,,,,,,,,,,,,,,,,,,,,,,,,,,,,,,,,,,,,,,950.3755491999909,None,,,,,,,,,,,,,,,,,,,,,,,,,,,,,,,,,,,,,,,,,,,,,,,,,,,,,,,,,author,212,111,aloud,new,yellow,949.4656729996204,None,n,949.4656729996204,None,"['n', 'return']","[0.8077437002211809, 0.8715314995497465]",949.4656729996204,None,,,55,001,2023_Apr_26_1030,ExactRep-v3-final,2021.2.3,59.888666859590984,
,,,,,,,,,,,,111,0,111,0,,,,,,,,,,,,,,,,,,,,,,,,,,,,,,,,,,,,,,,,,,,,,,,,,951.9770623994991,None,,,,,,,,,,,,,,,,,,,,,,,,,,,,,,,,,,,,,,,,,,,,,,,,,,,,,,,,,market,113,112,aloud,old,yellow,950.88536129985,None,n,950.88536129985,None,"['n', 'return']","[0.9397972002625465, 1.052059500478208]",950.88536129985,None,,,55,001,2023_Apr_26_1030,ExactRep-v3-final,2021.2.3,59.888666859590984,
,,,,,,,,,,,,112,0,112,0,,,,,,,,,,,,,,,,,,,,,,,,,,,,,,,,,,,,,,,,,,,,,,,,,953.8956452999264,None,,,,,,,,,,,,,,,,,,,,,,,,,,,,,,,,,,,,,,,,,,,,,,,,,,,,,,,,,duty,227,113,sing,new,yellow,952.4871662994847,None,n,952.4871662994847,None,"['n', 'return']","[1.1541550001129508, 1.3624025005847216]",952.4871662994847,None,,,55,001,2023_Apr_26_1030,ExactRep-v3-final,2021.2.3,59.888666859590984,
,,,,,,,,,,,,113,0,113,0,,,,,,,,,,,,,,,,,,,,,,,,,,,,,,,,,,,,,,,,,,,,,,,,,955.3639391995966,None,,,,,,,,,,,,,,,,,,,,,,,,,,,,,,,,,,,,,,,,,,,,,,,,,,,,,,,,,life,129,114,silent,new,yellow,954.4068917995319,None,n,954.4068917995319,None,"['n', 'return']","[0.8182797003537416, 0.9222675003111362]",954.4068917995319,None,,,55,001,2023_Apr_26_1030,ExactRep-v3-final,2021.2.3,59.888666859590984,
,,,,,,,,,,,,114,0,114,0,,,,,,,,,,,,,,,,,,,,,,,,,,,,,,,,,,,,,,,,,,,,,,,,,957.0154555998743,None,,,,,,,,,,,,,,,,,,,,,,,,,,,,,,,,,,,,,,,,,,,,,,,,,,,,,,,,,avenue,32,115,sing,old,yellow,955.8719565998763,None,y,955.8719565998763,None,"['y', 'return']","[0.8651590002700686, 1.0972294006496668]",955.8719565998763,None,,,55,001,2023_Apr_26_1030,ExactRep-v3-final,2021.2.3,59.888666859590984,
,,,,,,,,,,,,115,0,115,0,,,,,,,,,,,,,,,,,,,,,,,,,,,,,,,,,,,,,,,,,,,,,,,,,958.7337459996343,None,,,,,,,,,,,,,,,,,,,,,,,,,,,,,,,,,,,,,,,,,,,,,,,,,,,,,,,,,air,18,116,sing,old,yellow,957.5244624996558,None,n,957.5244624996558,None,"['n', 'return']","[1.0527434004470706, 1.1728426003828645]",957.5244624996558,None,,,55,001,2023_Apr_26_1030,ExactRep-v3-final,2021.2.3,59.888666859590984,
,,,,,,,,,,,,116,0,116,0,,,,,,,,,,,,,,,,,,,,,,,,,,,,,,,,,,,,,,,,,,,,,,,,,960.8859807997942,None,,,,,,,,,,,,,,,,,,,,,,,,,,,,,,,,,,,,,,,,,,,,,,,,,,,,,,,,,water,135,117,silent,new,yellow,959.2507047997788,None,n,959.2507047997788,None,"['return', 'n', 'return']","[1.0065711000934243, 1.0865382002666593, 1.5985890002921224]",959.2507047997788,None,,,55,001,2023_Apr_26_1030,ExactRep-v3-final,2021.2.3,59.888666859590984,
,,,,,,,,,,,,117,0,117,0,,,,,,,,,,,,,,,,,,,,,,,,,,,,,,,,,,,,,,,,,,,,,,,,,962.904592199251,None,,,,,,,,,,,,,,,,,,,,,,,,,,,,,,,,,,,,,,,,,,,,,,,,,,,,,,,,,fur,90,118,aloud,old,yellow,961.3864647001028,None,y,961.3864647001028,None,"['y', 'return']","[1.2467568004503846, 1.4708367008715868]",961.3864647001028,None,,,55,001,2023_Apr_26_1030,ExactRep-v3-final,2021.2.3,59.888666859590984,
,,,,,,,,,,,,118,0,118,0,,,,,,,,,,,,,,,,,,,,,,,,,,,,,,,,,,,,,,,,,,,,,,,,,964.2894632993266,None,,,,,,,,,,,,,,,,,,,,,,,,,,,,,,,,,,,,,,,,,,,,,,,,,,,,,,,,,priest,218,119,aloud,new,yellow,963.4185197995976,None,n,963.4185197995976,None,"['n', 'return']","[0.7988101998344064, 0.8306935001164675]",963.4185197995976,None,,,55,001,2023_Apr_26_1030,ExactRep-v3-final,2021.2.3,59.888666859590984,
,,,,,,,,,,,,119,0,119,0,,,,,,,,,,,,,,,,,,,,,,,,,,,,,,,,,,,,,,,,,,,,,,,,,965.7408323995769,None,,,,,,,,,,,,,,,,,,,,,,,,,,,,,,,,,,,,,,,,,,,,,,,,,,,,,,,,,animal,159,120,silent,new,yellow,964.79903979972,None,n,964.79903979972,None,"['n', 'return']","[0.866172400303185, 0.9063577000051737]",964.79903979972,None,,,55,001,2023_Apr_26_1030,ExactRep-v3-final,2021.2.3,59.888666859590984,
,,,,,,,,,,,,120,0,120,0,,,,,,,,,,,,,,,,,,,,,,,,,,,,,,,,,,,,,,,,,,,,,,,,,967.1089743999764,None,,,,,,,,,,,,,,,,,,,,,,,,,,,,,,,,,,,,,,,,,,,,,,,,,,,,,,,,,officer,220,121,aloud,new,yellow,966.2507352000102,None,n,966.2507352000102,None,"['n', 'return']","[0.7906155996024609, 0.8146407995373011]",966.2507352000102,None,,,55,001,2023_Apr_26_1030,ExactRep-v3-final,2021.2.3,59.888666859590984,
,,,,,,,,,,,,121,0,121,0,,,,,,,,,,,,,,,,,,,,,,,,,,,,,,,,,,,,,,,,,,,,,,,,,968.9442133996636,None,,,,,,,,,,,,,,,,,,,,,,,,,,,,,,,,,,,,,,,,,,,,,,,,,,,,,,,,,corner,180,122,aloud,new,yellow,967.6108170999214,None,n,967.6108170999214,None,"['n', 'return']","[1.2786698006093502, 1.3024449003860354]",967.6108170999214,None,,,55,001,2023_Apr_26_1030,ExactRep-v3-final,2021.2.3,59.888666859590984,
,,,,,,,,,,,,122,0,122,0,,,,,,,,,,,,,,,,,,,,,,,,,,,,,,,,,,,,,,,,,,,,,,,,,971.1294371997938,None,,,,,,,,,,,,,,,,,,,,,,,,,,,,,,,,,,,,,,,,,,,,,,,,,,,,,,,,,master,73,123,silent,old,yellow,969.4525011992082,None,n,969.4525011992082,None,"['return', 'n', 'return']","[1.0527294995263219, 1.0687874993309379, 1.6367980996146798]",969.4525011992082,None,,,55,001,2023_Apr_26_1030,ExactRep-v3-final,2021.2.3,59.888666859590984,
,,,,,,,,,,,,123,0,123,0,,,,,,,,,,,,,,,,,,,,,,,,,,,,,,,,,,,,,,,,,,,,,,,,,976.6851214999333,None,,,,,,,,,,,,,,,,,,,,,,,,,,,,,,,,,,,,,,,,,,,,,,,,,,,,,,,,,slave,6,124,sing,old,yellow,971.6365248998627,None,y,971.6365248998627,None,"['y', 'return', 'y', 'return']","[0.97308489959687, 0.97308489959687, 4.908652000129223, 5.012789499945939]",971.6365248998627,None,,,55,001,2023_Apr_26_1030,ExactRep-v3-final,2021.2.3,59.888666859590984,
,,,,,,,,,,,,124,0,124,0,,,,,,,,,,,,,,,,,,,,,,,,,,,,,,,,,,,,,,,,,,,,,,,,,978.0697490992025,None,,,,,,,,,,,,,,,,,,,,,,,,,,,,,,,,,,,,,,,,,,,,,,,,,,,,,,,,,palace,87,125,aloud,old,yellow,977.1930702999234,None,y,977.1930702999234,None,"['y', 'return']","[0.8081641998142004, 0.8401692993938923]",977.1930702999234,None,,,55,001,2023_Apr_26_1030,ExactRep-v3-final,2021.2.3,59.888666859590984,
,,,,,,,,,,,,125,0,125,0,,,,,,,,,,,,,,,,,,,,,,,,,,,,,,,,,,,,,,,,,,,,,,,,,980.6057765996084,None,,,,,,,,,,,,,,,,,,,,,,,,,,,,,,,,,,,,,,,,,,,,,,,,,,,,,,,,,friend,19,126,sing,old,yellow,978.5825664997101,None,y,978.5825664997101,None,"['y', 'return', 'y', 'return']","[0.8509216997772455, 0.8509216997772455, 1.714970899745822, 1.986697199754417]",978.5825664997101,None,,,55,001,2023_Apr_26_1030,ExactRep-v3-final,2021.2.3,59.888666859590984,
,,,,,,,,,,,,126,0,126,0,,,,,,,,,,,,,,,,,,,,,,,,,,,,,,,,,,,,,,,,,,,,,,,,,982.891248899512,None,,,,,,,,,,,,,,,,,,,,,,,,,,,,,,,,,,,,,,,,,,,,,,,,,,,,,,,,,window,40,127,silent,old,yellow,981.1179938996211,None,y,981.1179938996211,None,"['y', 'return']","[1.5634478004649282, 1.7312708999961615]",981.1179938996211,None,,,55,001,2023_Apr_26_1030,ExactRep-v3-final,2021.2.3,59.888666859590984,
,,,,,,,,,,,,127,0,127,0,,,,,,,,,,,,,,,,,,,,,,,,,,,,,,,,,,,,,,,,,,,,,,,,,985.010090299882,None,,,,,,,,,,,,,,,,,,,,,,,,,,,,,,,,,,,,,,,,,,,,,,,,,,,,,,,,,woods,156,128,silent,new,yellow,983.3986545000225,None,n,983.3986545000225,None,"['n', 'return']","[1.3305435003712773, 1.570660600438714]",983.3986545000225,None,,,55,001,2023_Apr_26_1030,ExactRep-v3-final,2021.2.3,59.888666859590984,
,,,,,,,,,,,,128,0,128,0,,,,,,,,,,,,,,,,,,,,,,,,,,,,,,,,,,,,,,,,,,,,,,,,,986.6783563001081,None,,,,,,,,,,,,,,,,,,,,,,,,,,,,,,,,,,,,,,,,,,,,,,,,,,,,,,,,,amount,22,129,sing,old,yellow,985.5244880998507,None,n,985.5244880998507,None,"['n', 'return']","[0.9088933002203703, 1.1168367005884647]",985.5244880998507,None,,,55,001,2023_Apr_26_1030,ExactRep-v3-final,2021.2.3,59.888666859590984,
,,,,,,,,,,,,129,0,129,0,,,,,,,,,,,,,,,,,,,,,,,,,,,,,,,,,,,,,,,,,,,,,,,,,988.5469838995486,None,,,,,,,,,,,,,,,,,,,,,,,,,,,,,,,,,,,,,,,,,,,,,,,,,,,,,,,,,forest,131,130,silent,new,yellow,987.1898459997028,None,n,987.1898459997028,None,"['return', 'n', 'return']","[1.0354847004637122, 1.08346279989928, 1.3233951004222035]",987.1898459997028,None,,,55,001,2023_Apr_26_1030,ExactRep-v3-final,2021.2.3,59.888666859590984,
,,,,,,,,,,,,130,0,130,0,,,,,,,,,,,,,,,,,,,,,,,,,,,,,,,,,,,,,,,,,,,,,,,,,990.5322775999084,None,,,,,,,,,,,,,,,,,,,,,,,,,,,,,,,,,,,,,,,,,,,,,,,,,,,,,,,,,butter,172,131,aloud,new,yellow,989.0624858001247,None,n,989.0624858001247,None,"['n', 'return']","[1.3227997003123164, 1.4346435004845262]",989.0624858001247,None,,,55,001,2023_Apr_26_1030,ExactRep-v3-final,2021.2.3,59.888666859590984,
