trials_fam.thisRepN,trials_fam.thisTrialN,trials_fam.thisN,trials_fam.thisIndex,trials_prc.thisRepN,trials_prc.thisTrialN,trials_prc.thisN,trials_prc.thisIndex,StudyLoop.thisRepN,StudyLoop.thisTrialN,StudyLoop.thisN,StudyLoop.thisIndex,TestLoop.thisRepN,TestLoop.thisTrialN,TestLoop.thisN,TestLoop.thisIndex,text_colortest.started,text_colortest.stopped,key_colortest.keys,key_colortest.rt,key_colortest.started,key_colortest.stopped,textCondition.started,textCondition.stopped,keyCondition.keys,keyCondition.rt,keyCondition.started,keyCondition.stopped,Condition_between,Condition_counterbal,keyWelcome.keys,keyWelcome.rt,keyWelcome.started,keyWelcome.stopped,welcome_a.started,welcome_a.stopped,welcome_b.started,welcome_b.stopped,welcome_c.started,welcome_c.stopped,welcome_d.started,welcome_d.stopped,welcome_e.started,welcome_e.stopped,welcome_f.started,welcome_f.stopped,key_resp_fam_inst.keys,key_resp_fam_inst.rt,key_resp_fam_inst.started,key_resp_fam_inst.stopped,fam_a.started,fam_a.stopped,fam_b.started,fam_b.stopped,fam_c.started,fam_c.stopped,fam_d.started,fam_d.stopped,fam_e.started,fam_e.stopped,fam_f.started,fam_f.stopped,text_famil.started,text_famil.stopped,textBlank500.started,textBlank500.stopped,key_resp_prc_inst.keys,key_resp_prc_inst.rt,key_resp_prc_inst.started,key_resp_prc_inst.stopped,prac_a.started,prac_a.stopped,prac_b.started,prac_b.stopped,prac_c.started,prac_c.stopped,prac_d.started,prac_d.stopped,prac_e.started,prac_e.stopped,prac_f.started,prac_f.stopped,text_prc_trial.started,text_prc_trial.stopped,key_resp_study_inst.keys,key_resp_study_inst.rt,key_resp_study_inst.started,key_resp_study_inst.stopped,crit_a.started,crit_a.stopped,crit_b.started,crit_b.stopped,crit_c.started,crit_c.stopped,crit_d.started,crit_d.stopped,crit_e.started,crit_e.stopped,crit_f.started,crit_f.stopped,study_word,study_num,study_order,study_type,word_color,textStudy.started,textStudy.stopped,keyStudy.keys,keyStudy.started,keyStudy.stopped,post_study.started,post_study.stopped,key_resp_post_study.keys,key_resp_post_study.rt,key_resp_post_study.started,key_resp_post_study.stopped,test_inst.started,test_inst.stopped,key_resp_test_inst.keys,key_resp_test_inst.rt,key_resp_test_inst.started,key_resp_test_inst.stopped,test_word,test_num,test_order,test_condition,old_new_test,word_color_test,textConf.started,textConf.stopped,Participant Response,textInput.started,textInput.stopped,keyResp.keys,keyResp.rt,keyResp.started,keyResp.stopped,textEnd.started,textEnd.stopped,participant,session,date,expName,psychopyVersion,frameRate,
,,,,,,,,,,,,,,,,16.15226580016315,None,n,1.7751919003203511,16.15226580016315,None,,,,,,,,,,,,,,,,,,,,,,,,,,,,,,,,,,,,,,,,,,,,,,,,,,,,,,,,,,,,,,,,,,,,,,,,,,,,,,,,,,,,,,,,,,,,,,,,,,,,,,,,,,,,,,,,,,,,,,56,001,2023_Apr_26_1113,ExactRep-v3-final,2021.2.3,59.90384248459387,
,,,,,,,,,,,,,,,,,,,,,,17.9436811003834,None,b,0.2795965000987053,17.9436811003834,None,,,,,,,,,,,,,,,,,,,,,,,,,,,,,,,,,,,,,,,,,,,,,,,,,,,,,,,,,,,,,,,,,,,,,,,,,,,,,,,,,,,,,,,,,,,,,,,,,,,,,,,,,,,,,,,,56,001,2023_Apr_26_1113,ExactRep-v3-final,2021.2.3,59.90384248459387,
,,,,,,,,,,,,,,,,,,,,,,,,,,,,whitefoils,b,space,1149.1459569996223,28.334256500005722,None,,,,,,,,,,,,,,,,,,,,,,,,,,,,,,,,,,,,,,,,,,,,,,,,,,,,,,,,,,,,,,,,,,,,,,,,,,,,,,,,,,,,,,,,,,,,,,,,,,,,,,,,,,56,001,2023_Apr_26_1113,ExactRep-v3-final,2021.2.3,59.90384248459387,
,,,,,,,,,,,,,,,,,,,,,,,,,,,,,,,,,,18.405350499786437,None,18.405350499786437,None,18.405350499786437,None,18.405350499786437,None,18.405350499786437,None,18.405350499786437,None,space,15.242488399147987,1187.67771920003,None,,,,,,,,,,,,,,,,,,,,,,,,,,,,,,,,,,,,,,,,,,,,,,,,,,,,,,,,,,,,,,,,,,,,,,,,,,,,,,,,,,,,,,,,,,56,001,2023_Apr_26_1113,ExactRep-v3-final,2021.2.3,59.90384248459387,
0,0,0,0,,,,,,,,,,,,,,,,,,,,,,,,,,,,,,,,,,,,,,,,,,,,,,,1177.6782665997744,None,1177.6782665997744,None,1177.6782665997744,None,1177.6782665997744,None,1177.6782665997744,None,1177.6782665997744,None,1203.014606400393,None,1205.0136864995584,None,,,,,,,,,,,,,,,,,,,,,,,,,,,,,,,,,,,,,,,,,,,,,,,,,,,,,,,,,,,,,,,,,,,,,,,,,,56,001,2023_Apr_26_1113,ExactRep-v3-final,2021.2.3,59.90384248459387,
1,0,1,0,,,,,,,,,,,,,,,,,,,,,,,,,,,,,,,,,,,,,,,,,,,,,,,,,,,,,,,,,,,1205.5215499000624,None,1207.5329404994845,None,,,,,,,,,,,,,,,,,,,,,,,,,,,,,,,,,,,,,,,,,,,,,,,,,,,,,,,,,,,,,,,,,,,,,,,,,,56,001,2023_Apr_26_1113,ExactRep-v3-final,2021.2.3,59.90384248459387,
2,0,2,0,,,,,,,,,,,,,,,,,,,,,,,,,,,,,,,,,,,,,,,,,,,,,,,,,,,,,,,,,,,1208.044409999624,None,1210.0525027001277,None,,,,,,,,,,,,,,,,,,,,,,,,,,,,,,,,,,,,,,,,,,,,,,,,,,,,,,,,,,,,,,,,,,,,,,,,,,56,001,2023_Apr_26_1113,ExactRep-v3-final,2021.2.3,59.90384248459387,
3,0,3,0,,,,,,,,,,,,,,,,,,,,,,,,,,,,,,,,,,,,,,,,,,,,,,,,,,,,,,,,,,,1210.553072099574,None,1212.5550397001207,None,,,,,,,,,,,,,,,,,,,,,,,,,,,,,,,,,,,,,,,,,,,,,,,,,,,,,,,,,,,,,,,,,,,,,,,,,,56,001,2023_Apr_26_1113,ExactRep-v3-final,2021.2.3,59.90384248459387,
4,0,4,0,,,,,,,,,,,,,,,,,,,,,,,,,,,,,,,,,,,,,,,,,,,,,,,,,,,,,,,,,,,1213.0552134001628,None,1215.0570409996435,None,,,,,,,,,,,,,,,,,,,,,,,,,,,,,,,,,,,,,,,,,,,,,,,,,,,,,,,,,,,,,,,,,,,,,,,,,,56,001,2023_Apr_26_1113,ExactRep-v3-final,2021.2.3,59.90384248459387,
5,0,5,0,,,,,,,,,,,,,,,,,,,,,,,,,,,,,,,,,,,,,,,,,,,,,,,,,,,,,,,,,,,1215.5576371997595,None,1217.5596235003322,None,,,,,,,,,,,,,,,,,,,,,,,,,,,,,,,,,,,,,,,,,,,,,,,,,,,,,,,,,,,,,,,,,,,,,,,,,,56,001,2023_Apr_26_1113,ExactRep-v3-final,2021.2.3,59.90384248459387,
6,0,6,0,,,,,,,,,,,,,,,,,,,,,,,,,,,,,,,,,,,,,,,,,,,,,,,,,,,,,,,,,,,1218.067195800133,None,1220.0789070995525,None,,,,,,,,,,,,,,,,,,,,,,,,,,,,,,,,,,,,,,,,,,,,,,,,,,,,,,,,,,,,,,,,,,,,,,,,,,56,001,2023_Apr_26_1113,ExactRep-v3-final,2021.2.3,59.90384248459387,
7,0,7,0,,,,,,,,,,,,,,,,,,,,,,,,,,,,,,,,,,,,,,,,,,,,,,,,,,,,,,,,,,,1220.5796568999067,None,1222.5813605999574,None,,,,,,,,,,,,,,,,,,,,,,,,,,,,,,,,,,,,,,,,,,,,,,,,,,,,,,,,,,,,,,,,,,,,,,,,,,56,001,2023_Apr_26_1113,ExactRep-v3-final,2021.2.3,59.90384248459387,
8,0,8,0,,,,,,,,,,,,,,,,,,,,,,,,,,,,,,,,,,,,,,,,,,,,,,,,,,,,,,,,,,,1223.082889500074,None,1225.0840295003727,None,,,,,,,,,,,,,,,,,,,,,,,,,,,,,,,,,,,,,,,,,,,,,,,,,,,,,,,,,,,,,,,,,,,,,,,,,,56,001,2023_Apr_26_1113,ExactRep-v3-final,2021.2.3,59.90384248459387,
9,0,9,0,,,,,,,,,,,,,,,,,,,,,,,,,,,,,,,,,,,,,,,,,,,,,,,,,,,,,,,,,,,1225.5843388997018,None,1227.5863765999675,None,,,,,,,,,,,,,,,,,,,,,,,,,,,,,,,,,,,,,,,,,,,,,,,,,,,,,,,,,,,,,,,,,,,,,,,,,,56,001,2023_Apr_26_1113,ExactRep-v3-final,2021.2.3,59.90384248459387,
10,0,10,0,,,,,,,,,,,,,,,,,,,,,,,,,,,,,,,,,,,,,,,,,,,,,,,,,,,,,,,,,,,1228.0872246995568,None,1230.0889240996912,None,,,,,,,,,,,,,,,,,,,,,,,,,,,,,,,,,,,,,,,,,,,,,,,,,,,,,,,,,,,,,,,,,,,,,,,,,,56,001,2023_Apr_26_1113,ExactRep-v3-final,2021.2.3,59.90384248459387,
11,0,11,0,,,,,,,,,,,,,,,,,,,,,,,,,,,,,,,,,,,,,,,,,,,,,,,,,,,,,,,,,,,1230.590835900046,None,1232.5916881002486,None,,,,,,,,,,,,,,,,,,,,,,,,,,,,,,,,,,,,,,,,,,,,,,,,,,,,,,,,,,,,,,,,,,,,,,,,,,56,001,2023_Apr_26_1113,ExactRep-v3-final,2021.2.3,59.90384248459387,
12,0,12,0,,,,,,,,,,,,,,,,,,,,,,,,,,,,,,,,,,,,,,,,,,,,,,,,,,,,,,,,,,,1233.0965462997556,None,1235.1107070995495,None,,,,,,,,,,,,,,,,,,,,,,,,,,,,,,,,,,,,,,,,,,,,,,,,,,,,,,,,,,,,,,,,,,,,,,,,,,56,001,2023_Apr_26_1113,ExactRep-v3-final,2021.2.3,59.90384248459387,
13,0,13,0,,,,,,,,,,,,,,,,,,,,,,,,,,,,,,,,,,,,,,,,,,,,,,,,,,,,,,,,,,,1235.6116070998833,None,1237.613248700276,None,,,,,,,,,,,,,,,,,,,,,,,,,,,,,,,,,,,,,,,,,,,,,,,,,,,,,,,,,,,,,,,,,,,,,,,,,,56,001,2023_Apr_26_1113,ExactRep-v3-final,2021.2.3,59.90384248459387,
14,0,14,0,,,,,,,,,,,,,,,,,,,,,,,,,,,,,,,,,,,,,,,,,,,,,,,,,,,,,,,,,,,1238.1141050001606,None,1240.115749400109,None,,,,,,,,,,,,,,,,,,,,,,,,,,,,,,,,,,,,,,,,,,,,,,,,,,,,,,,,,,,,,,,,,,,,,,,,,,56,001,2023_Apr_26_1113,ExactRep-v3-final,2021.2.3,59.90384248459387,
,,,,,,,,,,,,,,,,,,,,,,,,,,,,,,,,,,,,,,,,,,,,,,,,,,,,,,,,,,,,,,,,,,space,21.353678500279784,1250.7586684003472,None,,,,,,,,,,,,,,,,,,,,,,,,,,,,,,,,,,,,,,,,,,,,,,,,,,,,,,,,,,,,,,,,,,,,,,56,001,2023_Apr_26_1113,ExactRep-v3-final,2021.2.3,59.90384248459387,
,,,,0,0,0,0,,,,,,,,,,,,,,,,,,,,,,,,,,,,,,,,,,,,,,,,,,,,,,,,,,,,,,,,,1274.19979029987,None,,,,,1240.7605876000598,None,1240.7605876000598,None,1240.7605876000598,None,1240.7605876000598,None,1240.7605876000598,None,1240.7605876000598,None,1272.1893162000924,None,,,,,,,,,,,,,,,,,,,,,,,,,,,,,,,,,,,,,,,,,,,,,,,,,,,,,,,,56,001,2023_Apr_26_1113,ExactRep-v3-final,2021.2.3,59.90384248459387,
,,,,1,0,1,0,,,,,,,,,,,,,,,,,,,,,,,,,,,,,,,,,,,,,,,,,,,,,,,,,,,,,,,,,1276.7023861994967,None,,,,,,,,,,,,,,,,,1274.7003814000636,None,,,,,,,,,,,,,,,,,,,,,,,,,,,,,,,,,,,,,,,,,,,,,,,,,,,,,,,,56,001,2023_Apr_26_1113,ExactRep-v3-final,2021.2.3,59.90384248459387,
,,,,2,0,2,0,,,,,,,,,,,,,,,,,,,,,,,,,,,,,,,,,,,,,,,,,,,,,,,,,,,,,,,,,1279.2050356995314,None,,,,,,,,,,,,,,,,,1277.2026231996715,None,,,,,,,,,,,,,,,,,,,,,,,,,,,,,,,,,,,,,,,,,,,,,,,,,,,,,,,,56,001,2023_Apr_26_1113,ExactRep-v3-final,2021.2.3,59.90384248459387,
,,,,3,0,3,0,,,,,,,,,,,,,,,,,,,,,,,,,,,,,,,,,,,,,,,,,,,,,,,,,,,,,,,,,1281.7071482995525,None,,,,,,,,,,,,,,,,,1279.705534399487,None,,,,,,,,,,,,,,,,,,,,,,,,,,,,,,,,,,,,,,,,,,,,,,,,,,,,,,,,56,001,2023_Apr_26_1113,ExactRep-v3-final,2021.2.3,59.90384248459387,
,,,,4,0,4,0,,,,,,,,,,,,,,,,,,,,,,,,,,,,,,,,,,,,,,,,,,,,,,,,,,,,,,,,,1284.209645099938,None,,,,,,,,,,,,,,,,,1282.2079726001248,None,,,,,,,,,,,,,,,,,,,,,,,,,,,,,,,,,,,,,,,,,,,,,,,,,,,,,,,,56,001,2023_Apr_26_1113,ExactRep-v3-final,2021.2.3,59.90384248459387,
,,,,5,0,5,0,,,,,,,,,,,,,,,,,,,,,,,,,,,,,,,,,,,,,,,,,,,,,,,,,,,,,,,,,1286.712372499518,None,,,,,,,,,,,,,,,,,1284.710333599709,None,,,,,,,,,,,,,,,,,,,,,,,,,,,,,,,,,,,,,,,,,,,,,,,,,,,,,,,,56,001,2023_Apr_26_1113,ExactRep-v3-final,2021.2.3,59.90384248459387,
,,,,6,0,6,0,,,,,,,,,,,,,,,,,,,,,,,,,,,,,,,,,,,,,,,,,,,,,,,,,,,,,,,,,1289.2148649999872,None,,,,,,,,,,,,,,,,,1287.2129301996902,None,,,,,,,,,,,,,,,,,,,,,,,,,,,,,,,,,,,,,,,,,,,,,,,,,,,,,,,,56,001,2023_Apr_26_1113,ExactRep-v3-final,2021.2.3,59.90384248459387,
,,,,7,0,7,0,,,,,,,,,,,,,,,,,,,,,,,,,,,,,,,,,,,,,,,,,,,,,,,,,,,,,,,,,1291.717380899936,None,,,,,,,,,,,,,,,,,1289.7154783997685,None,,,,,,,,,,,,,,,,,,,,,,,,,,,,,,,,,,,,,,,,,,,,,,,,,,,,,,,,56,001,2023_Apr_26_1113,ExactRep-v3-final,2021.2.3,59.90384248459387,
,,,,8,0,8,0,,,,,,,,,,,,,,,,,,,,,,,,,,,,,,,,,,,,,,,,,,,,,,,,,,,,,,,,,1294.2199561996385,None,,,,,,,,,,,,,,,,,1292.2179217003286,None,,,,,,,,,,,,,,,,,,,,,,,,,,,,,,,,,,,,,,,,,,,,,,,,,,,,,,,,56,001,2023_Apr_26_1113,ExactRep-v3-final,2021.2.3,59.90384248459387,
,,,,9,0,9,0,,,,,,,,,,,,,,,,,,,,,,,,,,,,,,,,,,,,,,,,,,,,,,,,,,,,,,,,,1296.7224220000207,None,,,,,,,,,,,,,,,,,1294.7203850001097,None,,,,,,,,,,,,,,,,,,,,,,,,,,,,,,,,,,,,,,,,,,,,,,,,,,,,,,,,56,001,2023_Apr_26_1113,ExactRep-v3-final,2021.2.3,59.90384248459387,
,,,,10,0,10,0,,,,,,,,,,,,,,,,,,,,,,,,,,,,,,,,,,,,,,,,,,,,,,,,,,,,,,,,,1299.2249942999333,None,,,,,,,,,,,,,,,,,1297.2228908995166,None,,,,,,,,,,,,,,,,,,,,,,,,,,,,,,,,,,,,,,,,,,,,,,,,,,,,,,,,56,001,2023_Apr_26_1113,ExactRep-v3-final,2021.2.3,59.90384248459387,
,,,,11,0,11,0,,,,,,,,,,,,,,,,,,,,,,,,,,,,,,,,,,,,,,,,,,,,,,,,,,,,,,,,,1301.7271384000778,None,,,,,,,,,,,,,,,,,1299.7253638999537,None,,,,,,,,,,,,,,,,,,,,,,,,,,,,,,,,,,,,,,,,,,,,,,,,,,,,,,,,56,001,2023_Apr_26_1113,ExactRep-v3-final,2021.2.3,59.90384248459387,
,,,,12,0,12,0,,,,,,,,,,,,,,,,,,,,,,,,,,,,,,,,,,,,,,,,,,,,,,,,,,,,,,,,,1304.2300132997334,None,,,,,,,,,,,,,,,,,1302.2279978003353,None,,,,,,,,,,,,,,,,,,,,,,,,,,,,,,,,,,,,,,,,,,,,,,,,,,,,,,,,56,001,2023_Apr_26_1113,ExactRep-v3-final,2021.2.3,59.90384248459387,
,,,,13,0,13,0,,,,,,,,,,,,,,,,,,,,,,,,,,,,,,,,,,,,,,,,,,,,,,,,,,,,,,,,,1306.7322391998023,None,,,,,,,,,,,,,,,,,1304.7305266996846,None,,,,,,,,,,,,,,,,,,,,,,,,,,,,,,,,,,,,,,,,,,,,,,,,,,,,,,,,56,001,2023_Apr_26_1113,ExactRep-v3-final,2021.2.3,59.90384248459387,
,,,,14,0,14,0,,,,,,,,,,,,,,,,,,,,,,,,,,,,,,,,,,,,,,,,,,,,,,,,,,,,,,,,,1309.2347117997706,None,,,,,,,,,,,,,,,,,1307.2328572999686,None,,,,,,,,,,,,,,,,,,,,,,,,,,,,,,,,,,,,,,,,,,,,,,,,,,,,,,,,56,001,2023_Apr_26_1113,ExactRep-v3-final,2021.2.3,59.90384248459387,
,,,,,,,,,,,,,,,,,,,,,,,,,,,,,,,,,,,,,,,,,,,,,,,,,,,,,,,,,,,,,,,,,,,,,,,,,,,,,,,,,,,,space,22.557708899490535,1319.8188036000356,None,,,,,,,,,,,,,,,,,,,,,,,,,,,,,,,,,,,,,,,,,,,,,,,,,,,,56,001,2023_Apr_26_1113,ExactRep-v3-final,2021.2.3,59.90384248459387,
,,,,,,,,0,0,0,0,,,,,,,,,,,,,,,,,,,,,,,,,,,,,,,,,,,,,,,,,,,,,,,,,,,,,1344.455926399678,None,,,,,,,,,,,,,,,,,,,,,,,1309.8926269998774,None,1309.8926269998774,None,1309.8926269998774,None,1309.8926269998774,None,1309.8926269998774,None,1309.8926269998774,None,wine,99,1,aloud,red,1342.444243799895,None,None,1342.444243799895,None,,,,,,,,,,,,,,,,,,,,,,,,,,,,,,56,001,2023_Apr_26_1113,ExactRep-v3-final,2021.2.3,59.90384248459387,
,,,,,,,,1,0,1,0,,,,,,,,,,,,,,,,,,,,,,,,,,,,,,,,,,,,,,,,,,,,,,,,,,,,,1346.9726686999202,None,,,,,,,,,,,,,,,,,,,,,,,,,,,,,,,,,,,mother,65,2,silent,white,1344.960612299852,None,None,1344.960612299852,None,,,,,,,,,,,,,,,,,,,,,,,,,,,,,,56,001,2023_Apr_26_1113,ExactRep-v3-final,2021.2.3,59.90384248459387,
,,,,,,,,2,0,2,0,,,,,,,,,,,,,,,,,,,,,,,,,,,,,,,,,,,,,,,,,,,,,,,,,,,,,1349.4923582999036,None,,,,,,,,,,,,,,,,,,,,,,,,,,,,,,,,,,,money,38,3,sing,blue,1347.4792446997017,None,None,1347.4792446997017,None,,,,,,,,,,,,,,,,,,,,,,,,,,,,,,56,001,2023_Apr_26_1113,ExactRep-v3-final,2021.2.3,59.90384248459387,
,,,,,,,,3,0,3,0,,,,,,,,,,,,,,,,,,,,,,,,,,,,,,,,,,,,,,,,,,,,,,,,,,,,,1352.0108207995072,None,,,,,,,,,,,,,,,,,,,,,,,,,,,,,,,,,,,coffee,27,4,sing,blue,1350.0077993003651,None,None,1350.0077993003651,None,,,,,,,,,,,,,,,,,,,,,,,,,,,,,,56,001,2023_Apr_26_1113,ExactRep-v3-final,2021.2.3,59.90384248459387,
,,,,,,,,4,0,4,0,,,,,,,,,,,,,,,,,,,,,,,,,,,,,,,,,,,,,,,,,,,,,,,,,,,,,1354.5302911000326,None,,,,,,,,,,,,,,,,,,,,,,,,,,,,,,,,,,,time,46,5,silent,white,1352.520654800348,None,None,1352.520654800348,None,,,,,,,,,,,,,,,,,,,,,,,,,,,,,,56,001,2023_Apr_26_1113,ExactRep-v3-final,2021.2.3,59.90384248459387,
,,,,,,,,5,0,5,0,,,,,,,,,,,,,,,,,,,,,,,,,,,,,,,,,,,,,,,,,,,,,,,,,,,,,1357.0327433003113,None,,,,,,,,,,,,,,,,,,,,,,,,,,,,,,,,,,,meadow,80,6,aloud,red,1355.030550500378,None,None,1355.030550500378,None,,,,,,,,,,,,,,,,,,,,,,,,,,,,,,56,001,2023_Apr_26_1113,ExactRep-v3-final,2021.2.3,59.90384248459387,
,,,,,,,,6,0,6,0,,,,,,,,,,,,,,,,,,,,,,,,,,,,,,,,,,,,,,,,,,,,,,,,,,,,,1359.5517298001796,None,,,,,,,,,,,,,,,,,,,,,,,,,,,,,,,,,,,cost,17,7,sing,blue,1357.5376247996464,None,None,1357.5376247996464,None,,,,,,,,,,,,,,,,,,,,,,,,,,,,,,56,001,2023_Apr_26_1113,ExactRep-v3-final,2021.2.3,59.90384248459387,
,,,,,,,,7,0,7,0,,,,,,,,,,,,,,,,,,,,,,,,,,,,,,,,,,,,,,,,,,,,,,,,,,,,,1362.054328000173,None,,,,,,,,,,,,,,,,,,,,,,,,,,,,,,,,,,,gold,62,8,silent,white,1360.0547660999,None,None,1360.0547660999,None,,,,,,,,,,,,,,,,,,,,,,,,,,,,,,56,001,2023_Apr_26_1113,ExactRep-v3-final,2021.2.3,59.90384248459387,
,,,,,,,,8,0,8,0,,,,,,,,,,,,,,,,,,,,,,,,,,,,,,,,,,,,,,,,,,,,,,,,,,,,,1364.57358700037,None,,,,,,,,,,,,,,,,,,,,,,,,,,,,,,,,,,,series,4,9,sing,blue,1362.5604956997558,None,None,1362.5604956997558,None,,,,,,,,,,,,,,,,,,,,,,,,,,,,,,56,001,2023_Apr_26_1113,ExactRep-v3-final,2021.2.3,59.90384248459387,
,,,,,,,,9,0,9,0,,,,,,,,,,,,,,,,,,,,,,,,,,,,,,,,,,,,,,,,,,,,,,,,,,,,,1367.0758891999722,None,,,,,,,,,,,,,,,,,,,,,,,,,,,,,,,,,,,ship,67,10,silent,white,1365.0738647002727,None,None,1365.0738647002727,None,,,,,,,,,,,,,,,,,,,,,,,,,,,,,,56,001,2023_Apr_26_1113,ExactRep-v3-final,2021.2.3,59.90384248459387,
,,,,,,,,10,0,10,0,,,,,,,,,,,,,,,,,,,,,,,,,,,,,,,,,,,,,,,,,,,,,,,,,,,,,1369.5783788999543,None,,,,,,,,,,,,,,,,,,,,,,,,,,,,,,,,,,,body,82,11,aloud,red,1367.5763889998198,None,None,1367.5763889998198,None,,,,,,,,,,,,,,,,,,,,,,,,,,,,,,56,001,2023_Apr_26_1113,ExactRep-v3-final,2021.2.3,59.90384248459387,
,,,,,,,,11,0,11,0,,,,,,,,,,,,,,,,,,,,,,,,,,,,,,,,,,,,,,,,,,,,,,,,,,,,,1372.0808753995225,None,,,,,,,,,,,,,,,,,,,,,,,,,,,,,,,,,,,plant,9,12,sing,blue,1370.0788100995123,None,None,1370.0788100995123,None,,,,,,,,,,,,,,,,,,,,,,,,,,,,,,56,001,2023_Apr_26_1113,ExactRep-v3-final,2021.2.3,59.90384248459387,
,,,,,,,,12,0,12,0,,,,,,,,,,,,,,,,,,,,,,,,,,,,,,,,,,,,,,,,,,,,,,,,,,,,,1374.5836680997163,None,,,,,,,,,,,,,,,,,,,,,,,,,,,,,,,,,,,method,11,13,sing,blue,1372.582913200371,None,None,1372.582913200371,None,,,,,,,,,,,,,,,,,,,,,,,,,,,,,,56,001,2023_Apr_26_1113,ExactRep-v3-final,2021.2.3,59.90384248459387,
,,,,,,,,13,0,13,0,,,,,,,,,,,,,,,,,,,,,,,,,,,,,,,,,,,,,,,,,,,,,,,,,,,,,1377.086121100001,None,,,,,,,,,,,,,,,,,,,,,,,,,,,,,,,,,,,shame,18,14,sing,blue,1375.0839900001884,None,None,1375.0839900001884,None,,,,,,,,,,,,,,,,,,,,,,,,,,,,,,56,001,2023_Apr_26_1113,ExactRep-v3-final,2021.2.3,59.90384248459387,
,,,,,,,,14,0,14,0,,,,,,,,,,,,,,,,,,,,,,,,,,,,,,,,,,,,,,,,,,,,,,,,,,,,,1379.6050599999726,None,,,,,,,,,,,,,,,,,,,,,,,,,,,,,,,,,,,star,25,15,sing,blue,1377.5938715999946,None,None,1377.5938715999946,None,,,,,,,,,,,,,,,,,,,,,,,,,,,,,,56,001,2023_Apr_26_1113,ExactRep-v3-final,2021.2.3,59.90384248459387,
,,,,,,,,15,0,15,0,,,,,,,,,,,,,,,,,,,,,,,,,,,,,,,,,,,,,,,,,,,,,,,,,,,,,1382.1077330997214,None,,,,,,,,,,,,,,,,,,,,,,,,,,,,,,,,,,,bar,115,16,aloud,red,1380.1055947998539,None,None,1380.1055947998539,None,,,,,,,,,,,,,,,,,,,,,,,,,,,,,,56,001,2023_Apr_26_1113,ExactRep-v3-final,2021.2.3,59.90384248459387,
,,,,,,,,16,0,16,0,,,,,,,,,,,,,,,,,,,,,,,,,,,,,,,,,,,,,,,,,,,,,,,,,,,,,1384.6101006995887,None,,,,,,,,,,,,,,,,,,,,,,,,,,,,,,,,,,,fault,119,17,aloud,red,1382.6098723998293,None,None,1382.6098723998293,None,,,,,,,,,,,,,,,,,,,,,,,,,,,,,,56,001,2023_Apr_26_1113,ExactRep-v3-final,2021.2.3,59.90384248459387,
,,,,,,,,17,0,17,0,,,,,,,,,,,,,,,,,,,,,,,,,,,,,,,,,,,,,,,,,,,,,,,,,,,,,1387.1294483002275,None,,,,,,,,,,,,,,,,,,,,,,,,,,,,,,,,,,,sky,117,18,aloud,red,1385.119930899702,None,None,1385.119930899702,None,,,,,,,,,,,,,,,,,,,,,,,,,,,,,,56,001,2023_Apr_26_1113,ExactRep-v3-final,2021.2.3,59.90384248459387,
,,,,,,,,18,0,18,0,,,,,,,,,,,,,,,,,,,,,,,,,,,,,,,,,,,,,,,,,,,,,,,,,,,,,1389.6319276001304,None,,,,,,,,,,,,,,,,,,,,,,,,,,,,,,,,,,,cat,76,19,silent,white,1387.632842199877,None,None,1387.632842199877,None,,,,,,,,,,,,,,,,,,,,,,,,,,,,,,56,001,2023_Apr_26_1113,ExactRep-v3-final,2021.2.3,59.90384248459387,
,,,,,,,,19,0,19,0,,,,,,,,,,,,,,,,,,,,,,,,,,,,,,,,,,,,,,,,,,,,,,,,,,,,,1392.154098900035,None,,,,,,,,,,,,,,,,,,,,,,,,,,,,,,,,,,,king,30,20,sing,blue,1390.1380954002962,None,None,1390.1380954002962,None,,,,,,,,,,,,,,,,,,,,,,,,,,,,,,56,001,2023_Apr_26_1113,ExactRep-v3-final,2021.2.3,59.90384248459387,
,,,,,,,,20,0,20,0,,,,,,,,,,,,,,,,,,,,,,,,,,,,,,,,,,,,,,,,,,,,,,,,,,,,,1394.6533971000463,None,,,,,,,,,,,,,,,,,,,,,,,,,,,,,,,,,,,excuse,22,21,sing,blue,1392.6518120002002,None,None,1392.6518120002002,None,,,,,,,,,,,,,,,,,,,,,,,,,,,,,,56,001,2023_Apr_26_1113,ExactRep-v3-final,2021.2.3,59.90384248459387,
,,,,,,,,21,0,21,0,,,,,,,,,,,,,,,,,,,,,,,,,,,,,,,,,,,,,,,,,,,,,,,,,,,,,1397.1763886995614,None,,,,,,,,,,,,,,,,,,,,,,,,,,,,,,,,,,,coast,19,22,sing,blue,1395.159616800025,None,None,1395.159616800025,None,,,,,,,,,,,,,,,,,,,,,,,,,,,,,,56,001,2023_Apr_26_1113,ExactRep-v3-final,2021.2.3,59.90384248459387,
,,,,,,,,22,0,22,0,,,,,,,,,,,,,,,,,,,,,,,,,,,,,,,,,,,,,,,,,,,,,,,,,,,,,1399.6918334001675,None,,,,,,,,,,,,,,,,,,,,,,,,,,,,,,,,,,,avenue,102,23,aloud,red,1397.6844790996984,None,None,1397.6844790996984,None,,,,,,,,,,,,,,,,,,,,,,,,,,,,,,56,001,2023_Apr_26_1113,ExactRep-v3-final,2021.2.3,59.90384248459387,
,,,,,,,,23,0,23,0,,,,,,,,,,,,,,,,,,,,,,,,,,,,,,,,,,,,,,,,,,,,,,,,,,,,,1402.1945337001234,None,,,,,,,,,,,,,,,,,,,,,,,,,,,,,,,,,,,door,35,24,sing,blue,1400.1924077002332,None,None,1400.1924077002332,None,,,,,,,,,,,,,,,,,,,,,,,,,,,,,,56,001,2023_Apr_26_1113,ExactRep-v3-final,2021.2.3,59.90384248459387,
,,,,,,,,24,0,24,0,,,,,,,,,,,,,,,,,,,,,,,,,,,,,,,,,,,,,,,,,,,,,,,,,,,,,1404.7134248996153,None,,,,,,,,,,,,,,,,,,,,,,,,,,,,,,,,,,,arm,75,25,silent,white,1402.6992822000757,None,None,1402.6992822000757,None,,,,,,,,,,,,,,,,,,,,,,,,,,,,,,56,001,2023_Apr_26_1113,ExactRep-v3-final,2021.2.3,59.90384248459387,
,,,,,,,,25,0,25,0,,,,,,,,,,,,,,,,,,,,,,,,,,,,,,,,,,,,,,,,,,,,,,,,,,,,,1407.2329120999202,None,,,,,,,,,,,,,,,,,,,,,,,,,,,,,,,,,,,kiss,107,26,aloud,red,1405.218603800051,None,None,1405.218603800051,None,,,,,,,,,,,,,,,,,,,,,,,,,,,,,,56,001,2023_Apr_26_1113,ExactRep-v3-final,2021.2.3,59.90384248459387,
,,,,,,,,26,0,26,0,,,,,,,,,,,,,,,,,,,,,,,,,,,,,,,,,,,,,,,,,,,,,,,,,,,,,1409.7353644995019,None,,,,,,,,,,,,,,,,,,,,,,,,,,,,,,,,,,,woods,111,27,aloud,red,1407.7340647997335,None,None,1407.7340647997335,None,,,,,,,,,,,,,,,,,,,,,,,,,,,,,,56,001,2023_Apr_26_1113,ExactRep-v3-final,2021.2.3,59.90384248459387,
,,,,,,,,27,0,27,0,,,,,,,,,,,,,,,,,,,,,,,,,,,,,,,,,,,,,,,,,,,,,,,,,,,,,1412.2376856999472,None,,,,,,,,,,,,,,,,,,,,,,,,,,,,,,,,,,,passion,8,28,sing,blue,1410.2366378000006,None,None,1410.2366378000006,None,,,,,,,,,,,,,,,,,,,,,,,,,,,,,,56,001,2023_Apr_26_1113,ExactRep-v3-final,2021.2.3,59.90384248459387,
,,,,,,,,28,0,28,0,,,,,,,,,,,,,,,,,,,,,,,,,,,,,,,,,,,,,,,,,,,,,,,,,,,,,1414.7570714000612,None,,,,,,,,,,,,,,,,,,,,,,,,,,,,,,,,,,,sea,58,29,silent,white,1412.7465727003291,None,None,1412.7465727003291,None,,,,,,,,,,,,,,,,,,,,,,,,,,,,,,56,001,2023_Apr_26_1113,ExactRep-v3-final,2021.2.3,59.90384248459387,
,,,,,,,,29,0,29,0,,,,,,,,,,,,,,,,,,,,,,,,,,,,,,,,,,,,,,,,,,,,,,,,,,,,,1417.2762799998745,None,,,,,,,,,,,,,,,,,,,,,,,,,,,,,,,,,,,memory,56,30,silent,white,1415.262274599634,None,None,1415.262274599634,None,,,,,,,,,,,,,,,,,,,,,,,,,,,,,,56,001,2023_Apr_26_1113,ExactRep-v3-final,2021.2.3,59.90384248459387,
,,,,,,,,30,0,30,0,,,,,,,,,,,,,,,,,,,,,,,,,,,,,,,,,,,,,,,,,,,,,,,,,,,,,1419.781560299918,None,,,,,,,,,,,,,,,,,,,,,,,,,,,,,,,,,,,health,44,31,silent,white,1417.778771799989,None,None,1417.778771799989,None,,,,,,,,,,,,,,,,,,,,,,,,,,,,,,56,001,2023_Apr_26_1113,ExactRep-v3-final,2021.2.3,59.90384248459387,
,,,,,,,,31,0,31,0,,,,,,,,,,,,,,,,,,,,,,,,,,,,,,,,,,,,,,,,,,,,,,,,,,,,,1422.2977838004008,None,,,,,,,,,,,,,,,,,,,,,,,,,,,,,,,,,,,air,3,32,sing,blue,1420.295912699774,None,None,1420.295912699774,None,,,,,,,,,,,,,,,,,,,,,,,,,,,,,,56,001,2023_Apr_26_1113,ExactRep-v3-final,2021.2.3,59.90384248459387,
,,,,,,,,32,0,32,0,,,,,,,,,,,,,,,,,,,,,,,,,,,,,,,,,,,,,,,,,,,,,,,,,,,,,1424.8004083000124,None,,,,,,,,,,,,,,,,,,,,,,,,,,,,,,,,,,,humour,105,33,aloud,red,1422.7982911998406,None,None,1422.7982911998406,None,,,,,,,,,,,,,,,,,,,,,,,,,,,,,,56,001,2023_Apr_26_1113,ExactRep-v3-final,2021.2.3,59.90384248459387,
,,,,,,,,33,0,33,0,,,,,,,,,,,,,,,,,,,,,,,,,,,,,,,,,,,,,,,,,,,,,,,,,,,,,1427.3196345996112,None,,,,,,,,,,,,,,,,,,,,,,,,,,,,,,,,,,,church,60,34,silent,white,1425.310366500169,None,None,1425.310366500169,None,,,,,,,,,,,,,,,,,,,,,,,,,,,,,,56,001,2023_Apr_26_1113,ExactRep-v3-final,2021.2.3,59.90384248459387,
,,,,,,,,34,0,34,0,,,,,,,,,,,,,,,,,,,,,,,,,,,,,,,,,,,,,,,,,,,,,,,,,,,,,1429.8386738998815,None,,,,,,,,,,,,,,,,,,,,,,,,,,,,,,,,,,,letter,45,35,silent,white,1427.8272078996524,None,None,1427.8272078996524,None,,,,,,,,,,,,,,,,,,,,,,,,,,,,,,56,001,2023_Apr_26_1113,ExactRep-v3-final,2021.2.3,59.90384248459387,
,,,,,,,,35,0,35,0,,,,,,,,,,,,,,,,,,,,,,,,,,,,,,,,,,,,,,,,,,,,,,,,,,,,,1432.3413177002221,None,,,,,,,,,,,,,,,,,,,,,,,,,,,,,,,,,,,stone,109,36,aloud,red,1430.339164700359,None,None,1430.339164700359,None,,,,,,,,,,,,,,,,,,,,,,,,,,,,,,56,001,2023_Apr_26_1113,ExactRep-v3-final,2021.2.3,59.90384248459387,
,,,,,,,,36,0,36,0,,,,,,,,,,,,,,,,,,,,,,,,,,,,,,,,,,,,,,,,,,,,,,,,,,,,,1434.8438274003565,None,,,,,,,,,,,,,,,,,,,,,,,,,,,,,,,,,,,seat,0,37,sing,blue,1432.843561399728,None,None,1432.843561399728,None,,,,,,,,,,,,,,,,,,,,,,,,,,,,,,56,001,2023_Apr_26_1113,ExactRep-v3-final,2021.2.3,59.90384248459387,
,,,,,,,,37,0,37,0,,,,,,,,,,,,,,,,,,,,,,,,,,,,,,,,,,,,,,,,,,,,,,,,,,,,,1437.3628404000774,None,,,,,,,,,,,,,,,,,,,,,,,,,,,,,,,,,,,animal,28,38,sing,blue,1435.3472709003836,None,None,1435.3472709003836,None,,,,,,,,,,,,,,,,,,,,,,,,,,,,,,56,001,2023_Apr_26_1113,ExactRep-v3-final,2021.2.3,59.90384248459387,
,,,,,,,,38,0,38,0,,,,,,,,,,,,,,,,,,,,,,,,,,,,,,,,,,,,,,,,,,,,,,,,,,,,,1439.8654169002548,None,,,,,,,,,,,,,,,,,,,,,,,,,,,,,,,,,,,shore,16,39,sing,blue,1437.8633749997243,None,None,1437.8633749997243,None,,,,,,,,,,,,,,,,,,,,,,,,,,,,,,56,001,2023_Apr_26_1113,ExactRep-v3-final,2021.2.3,59.90384248459387,
,,,,,,,,39,0,39,0,,,,,,,,,,,,,,,,,,,,,,,,,,,,,,,,,,,,,,,,,,,,,,,,,,,,,1442.367835599929,None,,,,,,,,,,,,,,,,,,,,,,,,,,,,,,,,,,,thought,108,40,aloud,red,1440.365787600167,None,None,1440.365787600167,None,,,,,,,,,,,,,,,,,,,,,,,,,,,,,,56,001,2023_Apr_26_1113,ExactRep-v3-final,2021.2.3,59.90384248459387,
,,,,,,,,40,0,40,0,,,,,,,,,,,,,,,,,,,,,,,,,,,,,,,,,,,,,,,,,,,,,,,,,,,,,1444.887189200148,None,,,,,,,,,,,,,,,,,,,,,,,,,,,,,,,,,,,hall,116,41,aloud,red,1442.8768737995997,None,None,1442.8768737995997,None,,,,,,,,,,,,,,,,,,,,,,,,,,,,,,56,001,2023_Apr_26_1113,ExactRep-v3-final,2021.2.3,59.90384248459387,
,,,,,,,,41,0,41,0,,,,,,,,,,,,,,,,,,,,,,,,,,,,,,,,,,,,,,,,,,,,,,,,,,,,,1447.3897350998595,None,,,,,,,,,,,,,,,,,,,,,,,,,,,,,,,,,,,breast,61,42,silent,white,1445.3876734003425,None,None,1445.3876734003425,None,,,,,,,,,,,,,,,,,,,,,,,,,,,,,,56,001,2023_Apr_26_1113,ExactRep-v3-final,2021.2.3,59.90384248459387,
,,,,,,,,42,0,42,0,,,,,,,,,,,,,,,,,,,,,,,,,,,,,,,,,,,,,,,,,,,,,,,,,,,,,1449.9085469003767,None,,,,,,,,,,,,,,,,,,,,,,,,,,,,,,,,,,,horse,96,43,aloud,red,1447.894535199739,None,None,1447.894535199739,None,,,,,,,,,,,,,,,,,,,,,,,,,,,,,,56,001,2023_Apr_26_1113,ExactRep-v3-final,2021.2.3,59.90384248459387,
,,,,,,,,43,0,43,0,,,,,,,,,,,,,,,,,,,,,,,,,,,,,,,,,,,,,,,,,,,,,,,,,,,,,1452.4280725000426,None,,,,,,,,,,,,,,,,,,,,,,,,,,,,,,,,,,,plain,50,44,silent,white,1450.4184141997248,None,None,1450.4184141997248,None,,,,,,,,,,,,,,,,,,,,,,,,,,,,,,56,001,2023_Apr_26_1113,ExactRep-v3-final,2021.2.3,59.90384248459387,
,,,,,,,,44,0,44,0,,,,,,,,,,,,,,,,,,,,,,,,,,,,,,,,,,,,,,,,,,,,,,,,,,,,,1454.930627499707,None,,,,,,,,,,,,,,,,,,,,,,,,,,,,,,,,,,,moment,10,45,sing,blue,1452.9287775997072,None,None,1452.9287775997072,None,,,,,,,,,,,,,,,,,,,,,,,,,,,,,,56,001,2023_Apr_26_1113,ExactRep-v3-final,2021.2.3,59.90384248459387,
,,,,,,,,45,0,45,0,,,,,,,,,,,,,,,,,,,,,,,,,,,,,,,,,,,,,,,,,,,,,,,,,,,,,1457.4330631997436,None,,,,,,,,,,,,,,,,,,,,,,,,,,,,,,,,,,,artist,70,46,silent,white,1455.4320449000224,None,None,1455.4320449000224,None,,,,,,,,,,,,,,,,,,,,,,,,,,,,,,56,001,2023_Apr_26_1113,ExactRep-v3-final,2021.2.3,59.90384248459387,
,,,,,,,,46,0,46,0,,,,,,,,,,,,,,,,,,,,,,,,,,,,,,,,,,,,,,,,,,,,,,,,,,,,,1459.9520837003365,None,,,,,,,,,,,,,,,,,,,,,,,,,,,,,,,,,,,boy,47,47,silent,white,1457.9411284001544,None,None,1457.9411284001544,None,,,,,,,,,,,,,,,,,,,,,,,,,,,,,,56,001,2023_Apr_26_1113,ExactRep-v3-final,2021.2.3,59.90384248459387,
,,,,,,,,47,0,47,0,,,,,,,,,,,,,,,,,,,,,,,,,,,,,,,,,,,,,,,,,,,,,,,,,,,,,1462.4548215996474,None,,,,,,,,,,,,,,,,,,,,,,,,,,,,,,,,,,,garden,21,48,sing,blue,1460.4537447001785,None,None,1460.4537447001785,None,,,,,,,,,,,,,,,,,,,,,,,,,,,,,,56,001,2023_Apr_26_1113,ExactRep-v3-final,2021.2.3,59.90384248459387,
,,,,,,,,48,0,48,0,,,,,,,,,,,,,,,,,,,,,,,,,,,,,,,,,,,,,,,,,,,,,,,,,,,,,1464.9571246998385,None,,,,,,,,,,,,,,,,,,,,,,,,,,,,,,,,,,,metal,36,49,sing,blue,1462.9551221998408,None,None,1462.9551221998408,None,,,,,,,,,,,,,,,,,,,,,,,,,,,,,,56,001,2023_Apr_26_1113,ExactRep-v3-final,2021.2.3,59.90384248459387,
,,,,,,,,49,0,49,0,,,,,,,,,,,,,,,,,,,,,,,,,,,,,,,,,,,,,,,,,,,,,,,,,,,,,1467.4762821001932,None,,,,,,,,,,,,,,,,,,,,,,,,,,,,,,,,,,,circle,112,50,aloud,red,1465.4610056998208,None,None,1465.4610056998208,None,,,,,,,,,,,,,,,,,,,,,,,,,,,,,,56,001,2023_Apr_26_1113,ExactRep-v3-final,2021.2.3,59.90384248459387,
,,,,,,,,50,0,50,0,,,,,,,,,,,,,,,,,,,,,,,,,,,,,,,,,,,,,,,,,,,,,,,,,,,,,1469.9788459995762,None,,,,,,,,,,,,,,,,,,,,,,,,,,,,,,,,,,,event,90,51,aloud,red,1467.9778444003314,None,None,1467.9778444003314,None,,,,,,,,,,,,,,,,,,,,,,,,,,,,,,56,001,2023_Apr_26_1113,ExactRep-v3-final,2021.2.3,59.90384248459387,
,,,,,,,,51,0,51,0,,,,,,,,,,,,,,,,,,,,,,,,,,,,,,,,,,,,,,,,,,,,,,,,,,,,,1472.4814299000427,None,,,,,,,,,,,,,,,,,,,,,,,,,,,,,,,,,,,chair,64,52,silent,white,1470.480995199643,None,None,1470.480995199643,None,,,,,,,,,,,,,,,,,,,,,,,,,,,,,,56,001,2023_Apr_26_1113,ExactRep-v3-final,2021.2.3,59.90384248459387,
,,,,,,,,52,0,52,0,,,,,,,,,,,,,,,,,,,,,,,,,,,,,,,,,,,,,,,,,,,,,,,,,,,,,1475.000417499803,None,,,,,,,,,,,,,,,,,,,,,,,,,,,,,,,,,,,victory,94,53,aloud,red,1472.9864020003006,None,None,1472.9864020003006,None,,,,,,,,,,,,,,,,,,,,,,,,,,,,,,56,001,2023_Apr_26_1113,ExactRep-v3-final,2021.2.3,59.90384248459387,
,,,,,,,,53,0,53,0,,,,,,,,,,,,,,,,,,,,,,,,,,,,,,,,,,,,,,,,,,,,,,,,,,,,,1477.5032112998888,None,,,,,,,,,,,,,,,,,,,,,,,,,,,,,,,,,,,cottage,43,54,silent,white,1475.5017168996856,None,None,1475.5017168996856,None,,,,,,,,,,,,,,,,,,,,,,,,,,,,,,56,001,2023_Apr_26_1113,ExactRep-v3-final,2021.2.3,59.90384248459387,
,,,,,,,,54,0,54,0,,,,,,,,,,,,,,,,,,,,,,,,,,,,,,,,,,,,,,,,,,,,,,,,,,,,,1480.0056164003909,None,,,,,,,,,,,,,,,,,,,,,,,,,,,,,,,,,,,machine,63,55,silent,white,1478.0053861998022,None,None,1478.0053861998022,None,,,,,,,,,,,,,,,,,,,,,,,,,,,,,,56,001,2023_Apr_26_1113,ExactRep-v3-final,2021.2.3,59.90384248459387,
,,,,,,,,55,0,55,0,,,,,,,,,,,,,,,,,,,,,,,,,,,,,,,,,,,,,,,,,,,,,,,,,,,,,1482.5248181996867,None,,,,,,,,,,,,,,,,,,,,,,,,,,,,,,,,,,,lord,31,56,sing,blue,1480.5148424003273,None,None,1480.5148424003273,None,,,,,,,,,,,,,,,,,,,,,,,,,,,,,,56,001,2023_Apr_26_1113,ExactRep-v3-final,2021.2.3,59.90384248459387,
,,,,,,,,56,0,56,0,,,,,,,,,,,,,,,,,,,,,,,,,,,,,,,,,,,,,,,,,,,,,,,,,,,,,1485.0274222996086,None,,,,,,,,,,,,,,,,,,,,,,,,,,,,,,,,,,,glory,23,57,sing,blue,1483.0250033000484,None,None,1483.0250033000484,None,,,,,,,,,,,,,,,,,,,,,,,,,,,,,,56,001,2023_Apr_26_1113,ExactRep-v3-final,2021.2.3,59.90384248459387,
,,,,,,,,57,0,57,0,,,,,,,,,,,,,,,,,,,,,,,,,,,,,,,,,,,,,,,,,,,,,,,,,,,,,1487.5470294998959,None,,,,,,,,,,,,,,,,,,,,,,,,,,,,,,,,,,,earth,78,58,silent,white,1485.5337648997083,None,None,1485.5337648997083,None,,,,,,,,,,,,,,,,,,,,,,,,,,,,,,56,001,2023_Apr_26_1113,ExactRep-v3-final,2021.2.3,59.90384248459387,
,,,,,,,,58,0,58,0,,,,,,,,,,,,,,,,,,,,,,,,,,,,,,,,,,,,,,,,,,,,,,,,,,,,,1490.0491386996582,None,,,,,,,,,,,,,,,,,,,,,,,,,,,,,,,,,,,officer,89,59,aloud,red,1488.0467644995078,None,None,1488.0467644995078,None,,,,,,,,,,,,,,,,,,,,,,,,,,,,,,56,001,2023_Apr_26_1113,ExactRep-v3-final,2021.2.3,59.90384248459387,
,,,,,,,,59,0,59,0,,,,,,,,,,,,,,,,,,,,,,,,,,,,,,,,,,,,,,,,,,,,,,,,,,,,,1492.568253500387,None,,,,,,,,,,,,,,,,,,,,,,,,,,,,,,,,,,,master,95,60,aloud,red,1490.5573790995404,None,None,1490.5573790995404,None,,,,,,,,,,,,,,,,,,,,,,,,,,,,,,56,001,2023_Apr_26_1113,ExactRep-v3-final,2021.2.3,59.90384248459387,
,,,,,,,,60,0,60,0,,,,,,,,,,,,,,,,,,,,,,,,,,,,,,,,,,,,,,,,,,,,,,,,,,,,,1495.0706832995638,None,,,,,,,,,,,,,,,,,,,,,,,,,,,,,,,,,,,month,40,61,silent,white,1493.0717211999,None,None,1493.0717211999,None,,,,,,,,,,,,,,,,,,,,,,,,,,,,,,56,001,2023_Apr_26_1113,ExactRep-v3-final,2021.2.3,59.90384248459387,
,,,,,,,,61,0,61,0,,,,,,,,,,,,,,,,,,,,,,,,,,,,,,,,,,,,,,,,,,,,,,,,,,,,,1497.589713100344,None,,,,,,,,,,,,,,,,,,,,,,,,,,,,,,,,,,,safety,71,62,silent,white,1495.5756080001593,None,None,1495.5756080001593,None,,,,,,,,,,,,,,,,,,,,,,,,,,,,,,56,001,2023_Apr_26_1113,ExactRep-v3-final,2021.2.3,59.90384248459387,
,,,,,,,,62,0,62,0,,,,,,,,,,,,,,,,,,,,,,,,,,,,,,,,,,,,,,,,,,,,,,,,,,,,,1500.092366299592,None,,,,,,,,,,,,,,,,,,,,,,,,,,,,,,,,,,,owner,87,63,aloud,red,1498.0911975996569,None,None,1498.0911975996569,None,,,,,,,,,,,,,,,,,,,,,,,,,,,,,,56,001,2023_Apr_26_1113,ExactRep-v3-final,2021.2.3,59.90384248459387,
,,,,,,,,63,0,63,0,,,,,,,,,,,,,,,,,,,,,,,,,,,,,,,,,,,,,,,,,,,,,,,,,,,,,1502.6114026000723,None,,,,,,,,,,,,,,,,,,,,,,,,,,,,,,,,,,,prison,85,64,aloud,red,1500.6021847994998,None,None,1500.6021847994998,None,,,,,,,,,,,,,,,,,,,,,,,,,,,,,,56,001,2023_Apr_26_1113,ExactRep-v3-final,2021.2.3,59.90384248459387,
,,,,,,,,64,0,64,0,,,,,,,,,,,,,,,,,,,,,,,,,,,,,,,,,,,,,,,,,,,,,,,,,,,,,1505.1307776998729,None,,,,,,,,,,,,,,,,,,,,,,,,,,,,,,,,,,,pole,57,65,silent,white,1503.1207539997995,None,None,1503.1207539997995,None,,,,,,,,,,,,,,,,,,,,,,,,,,,,,,56,001,2023_Apr_26_1113,ExactRep-v3-final,2021.2.3,59.90384248459387,
,,,,,,,,65,0,65,0,,,,,,,,,,,,,,,,,,,,,,,,,,,,,,,,,,,,,,,,,,,,,,,,,,,,,1507.6500046998262,None,,,,,,,,,,,,,,,,,,,,,,,,,,,,,,,,,,,love,53,66,silent,white,1505.6427124002948,None,None,1505.6427124002948,None,,,,,,,,,,,,,,,,,,,,,,,,,,,,,,56,001,2023_Apr_26_1113,ExactRep-v3-final,2021.2.3,59.90384248459387,
,,,,,,,,66,0,66,0,,,,,,,,,,,,,,,,,,,,,,,,,,,,,,,,,,,,,,,,,,,,,,,,,,,,,1510.1525218999013,None,,,,,,,,,,,,,,,,,,,,,,,,,,,,,,,,,,,soul,39,67,silent,white,1508.150499000214,None,None,1508.150499000214,None,,,,,,,,,,,,,,,,,,,,,,,,,,,,,,56,001,2023_Apr_26_1113,ExactRep-v3-final,2021.2.3,59.90384248459387,
,,,,,,,,67,0,67,0,,,,,,,,,,,,,,,,,,,,,,,,,,,,,,,,,,,,,,,,,,,,,,,,,,,,,1512.6715129995719,None,,,,,,,,,,,,,,,,,,,,,,,,,,,,,,,,,,,tree,14,68,sing,blue,1510.65763780009,None,None,1510.65763780009,None,,,,,,,,,,,,,,,,,,,,,,,,,,,,,,56,001,2023_Apr_26_1113,ExactRep-v3-final,2021.2.3,59.90384248459387,
,,,,,,,,68,0,68,0,,,,,,,,,,,,,,,,,,,,,,,,,,,,,,,,,,,,,,,,,,,,,,,,,,,,,1515.1742447996512,None,,,,,,,,,,,,,,,,,,,,,,,,,,,,,,,,,,,college,12,69,sing,blue,1513.1719845002517,None,None,1513.1719845002517,None,,,,,,,,,,,,,,,,,,,,,,,,,,,,,,56,001,2023_Apr_26_1113,ExactRep-v3-final,2021.2.3,59.90384248459387,
,,,,,,,,69,0,69,0,,,,,,,,,,,,,,,,,,,,,,,,,,,,,,,,,,,,,,,,,,,,,,,,,,,,,1517.6932364003733,None,,,,,,,,,,,,,,,,,,,,,,,,,,,,,,,,,,,leader,41,70,silent,white,1515.684135899879,None,None,1515.684135899879,None,,,,,,,,,,,,,,,,,,,,,,,,,,,,,,56,001,2023_Apr_26_1113,ExactRep-v3-final,2021.2.3,59.90384248459387,
,,,,,,,,70,0,70,0,,,,,,,,,,,,,,,,,,,,,,,,,,,,,,,,,,,,,,,,,,,,,,,,,,,,,1520.1956444000825,None,,,,,,,,,,,,,,,,,,,,,,,,,,,,,,,,,,,idea,13,71,sing,blue,1518.1936550997198,None,None,1518.1936550997198,None,,,,,,,,,,,,,,,,,,,,,,,,,,,,,,56,001,2023_Apr_26_1113,ExactRep-v3-final,2021.2.3,59.90384248459387,
,,,,,,,,71,0,71,0,,,,,,,,,,,,,,,,,,,,,,,,,,,,,,,,,,,,,,,,,,,,,,,,,,,,,1522.698174700141,None,,,,,,,,,,,,,,,,,,,,,,,,,,,,,,,,,,,diamond,100,72,aloud,red,1520.6961923995987,None,None,1520.6961923995987,None,,,,,,,,,,,,,,,,,,,,,,,,,,,,,,56,001,2023_Apr_26_1113,ExactRep-v3-final,2021.2.3,59.90384248459387,
,,,,,,,,72,0,72,0,,,,,,,,,,,,,,,,,,,,,,,,,,,,,,,,,,,,,,,,,,,,,,,,,,,,,1525.2009487003088,None,,,,,,,,,,,,,,,,,,,,,,,,,,,,,,,,,,,dawn,55,73,silent,white,1523.1987223997712,None,None,1523.1987223997712,None,,,,,,,,,,,,,,,,,,,,,,,,,,,,,,56,001,2023_Apr_26_1113,ExactRep-v3-final,2021.2.3,59.90384248459387,
,,,,,,,,73,0,73,0,,,,,,,,,,,,,,,,,,,,,,,,,,,,,,,,,,,,,,,,,,,,,,,,,,,,,1527.703352900222,None,,,,,,,,,,,,,,,,,,,,,,,,,,,,,,,,,,,skin,104,74,aloud,red,1525.7010476998985,None,None,1525.7010476998985,None,,,,,,,,,,,,,,,,,,,,,,,,,,,,,,56,001,2023_Apr_26_1113,ExactRep-v3-final,2021.2.3,59.90384248459387,
,,,,,,,,74,0,74,0,,,,,,,,,,,,,,,,,,,,,,,,,,,,,,,,,,,,,,,,,,,,,,,,,,,,,1530.2225476000458,None,,,,,,,,,,,,,,,,,,,,,,,,,,,,,,,,,,,grief,24,75,sing,blue,1528.2068962994963,None,None,1528.2068962994963,None,,,,,,,,,,,,,,,,,,,,,,,,,,,,,,56,001,2023_Apr_26_1113,ExactRep-v3-final,2021.2.3,59.90384248459387,
,,,,,,,,75,0,75,0,,,,,,,,,,,,,,,,,,,,,,,,,,,,,,,,,,,,,,,,,,,,,,,,,,,,,1532.7416733000427,None,,,,,,,,,,,,,,,,,,,,,,,,,,,,,,,,,,,flesh,32,76,sing,blue,1530.7261162996292,None,None,1530.7261162996292,None,,,,,,,,,,,,,,,,,,,,,,,,,,,,,,56,001,2023_Apr_26_1113,ExactRep-v3-final,2021.2.3,59.90384248459387,
,,,,,,,,76,0,76,0,,,,,,,,,,,,,,,,,,,,,,,,,,,,,,,,,,,,,,,,,,,,,,,,,,,,,1535.2448923001066,None,,,,,,,,,,,,,,,,,,,,,,,,,,,,,,,,,,,paper,15,77,sing,blue,1533.2441053995863,None,None,1533.2441053995863,None,,,,,,,,,,,,,,,,,,,,,,,,,,,,,,56,001,2023_Apr_26_1113,ExactRep-v3-final,2021.2.3,59.90384248459387,
,,,,,,,,77,0,77,0,,,,,,,,,,,,,,,,,,,,,,,,,,,,,,,,,,,,,,,,,,,,,,,,,,,,,1537.763382700272,None,,,,,,,,,,,,,,,,,,,,,,,,,,,,,,,,,,,green,66,78,silent,white,1535.7530009998009,None,None,1535.7530009998009,None,,,,,,,,,,,,,,,,,,,,,,,,,,,,,,56,001,2023_Apr_26_1113,ExactRep-v3-final,2021.2.3,59.90384248459387,
,,,,,,,,78,0,78,0,,,,,,,,,,,,,,,,,,,,,,,,,,,,,,,,,,,,,,,,,,,,,,,,,,,,,1540.2659582002088,None,,,,,,,,,,,,,,,,,,,,,,,,,,,,,,,,,,,string,26,79,sing,blue,1538.2659365003929,None,None,1538.2659365003929,None,,,,,,,,,,,,,,,,,,,,,,,,,,,,,,56,001,2023_Apr_26_1113,ExactRep-v3-final,2021.2.3,59.90384248459387,
,,,,,,,,79,0,79,0,,,,,,,,,,,,,,,,,,,,,,,,,,,,,,,,,,,,,,,,,,,,,,,,,,,,,1542.7685276996344,None,,,,,,,,,,,,,,,,,,,,,,,,,,,,,,,,,,,cabin,79,80,sing,blue,1540.7685059998184,None,None,1540.7685059998184,None,,,,,,,,,,,,,,,,,,,,,,,,,,,,,,56,001,2023_Apr_26_1113,ExactRep-v3-final,2021.2.3,59.90384248459387,
,,,,,,,,80,0,80,0,,,,,,,,,,,,,,,,,,,,,,,,,,,,,,,,,,,,,,,,,,,,,,,,,,,,,1545.2876233998686,None,,,,,,,,,,,,,,,,,,,,,,,,,,,,,,,,,,,vessel,110,81,aloud,red,1543.2721902998164,None,None,1543.2721902998164,None,,,,,,,,,,,,,,,,,,,,,,,,,,,,,,56,001,2023_Apr_26_1113,ExactRep-v3-final,2021.2.3,59.90384248459387,
,,,,,,,,81,0,81,0,,,,,,,,,,,,,,,,,,,,,,,,,,,,,,,,,,,,,,,,,,,,,,,,,,,,,1547.8065841998905,None,,,,,,,,,,,,,,,,,,,,,,,,,,,,,,,,,,,beast,5,82,sing,blue,1545.7977646002546,None,None,1545.7977646002546,None,,,,,,,,,,,,,,,,,,,,,,,,,,,,,,56,001,2023_Apr_26_1113,ExactRep-v3-final,2021.2.3,59.90384248459387,
,,,,,,,,82,0,82,0,,,,,,,,,,,,,,,,,,,,,,,,,,,,,,,,,,,,,,,,,,,,,,,,,,,,,1550.3260012995452,None,,,,,,,,,,,,,,,,,,,,,,,,,,,,,,,,,,,queen,91,83,aloud,red,1548.3237520996481,None,None,1548.3237520996481,None,,,,,,,,,,,,,,,,,,,,,,,,,,,,,,56,001,2023_Apr_26_1113,ExactRep-v3-final,2021.2.3,59.90384248459387,
,,,,,,,,83,0,83,0,,,,,,,,,,,,,,,,,,,,,,,,,,,,,,,,,,,,,,,,,,,,,,,,,,,,,1552.8284662002698,None,,,,,,,,,,,,,,,,,,,,,,,,,,,,,,,,,,,house,6,84,sing,blue,1550.8264015000314,None,None,1550.8264015000314,None,,,,,,,,,,,,,,,,,,,,,,,,,,,,,,56,001,2023_Apr_26_1113,ExactRep-v3-final,2021.2.3,59.90384248459387,
,,,,,,,,84,0,84,0,,,,,,,,,,,,,,,,,,,,,,,,,,,,,,,,,,,,,,,,,,,,,,,,,,,,,1555.33100309968,None,,,,,,,,,,,,,,,,,,,,,,,,,,,,,,,,,,,temple,74,85,silent,white,1553.3316989000887,None,None,1553.3316989000887,None,,,,,,,,,,,,,,,,,,,,,,,,,,,,,,56,001,2023_Apr_26_1113,ExactRep-v3-final,2021.2.3,59.90384248459387,
,,,,,,,,85,0,85,0,,,,,,,,,,,,,,,,,,,,,,,,,,,,,,,,,,,,,,,,,,,,,,,,,,,,,1557.8501824997365,None,,,,,,,,,,,,,,,,,,,,,,,,,,,,,,,,,,,history,83,86,aloud,red,1555.8378676995635,None,None,1555.8378676995635,None,,,,,,,,,,,,,,,,,,,,,,,,,,,,,,56,001,2023_Apr_26_1113,ExactRep-v3-final,2021.2.3,59.90384248459387,
,,,,,,,,86,0,86,0,,,,,,,,,,,,,,,,,,,,,,,,,,,,,,,,,,,,,,,,,,,,,,,,,,,,,1560.369118399918,None,,,,,,,,,,,,,,,,,,,,,,,,,,,,,,,,,,,market,49,87,silent,white,1558.3546478003263,None,None,1558.3546478003263,None,,,,,,,,,,,,,,,,,,,,,,,,,,,,,,56,001,2023_Apr_26_1113,ExactRep-v3-final,2021.2.3,59.90384248459387,
,,,,,,,,87,0,87,0,,,,,,,,,,,,,,,,,,,,,,,,,,,,,,,,,,,,,,,,,,,,,,,,,,,,,1562.8718603001907,None,,,,,,,,,,,,,,,,,,,,,,,,,,,,,,,,,,,flower,69,88,silent,white,1560.8706881003454,None,None,1560.8706881003454,None,,,,,,,,,,,,,,,,,,,,,,,,,,,,,,56,001,2023_Apr_26_1113,ExactRep-v3-final,2021.2.3,59.90384248459387,
,,,,,,,,88,0,88,0,,,,,,,,,,,,,,,,,,,,,,,,,,,,,,,,,,,,,,,,,,,,,,,,,,,,,1565.3742258995771,None,,,,,,,,,,,,,,,,,,,,,,,,,,,,,,,,,,,camp,118,89,aloud,red,1563.3729088995606,None,None,1563.3729088995606,None,,,,,,,,,,,,,,,,,,,,,,,,,,,,,,56,001,2023_Apr_26_1113,ExactRep-v3-final,2021.2.3,59.90384248459387,
,,,,,,,,89,0,89,0,,,,,,,,,,,,,,,,,,,,,,,,,,,,,,,,,,,,,,,,,,,,,,,,,,,,,1567.8935663998127,None,,,,,,,,,,,,,,,,,,,,,,,,,,,,,,,,,,,pipe,42,90,silent,white,1565.87811089959,None,None,1565.87811089959,None,,,,,,,,,,,,,,,,,,,,,,,,,,,,,,56,001,2023_Apr_26_1113,ExactRep-v3-final,2021.2.3,59.90384248459387,
,,,,,,,,90,0,90,0,,,,,,,,,,,,,,,,,,,,,,,,,,,,,,,,,,,,,,,,,,,,,,,,,,,,,1570.4127228995785,None,,,,,,,,,,,,,,,,,,,,,,,,,,,,,,,,,,,amount,54,91,silent,white,1568.397388599813,None,None,1568.397388599813,None,,,,,,,,,,,,,,,,,,,,,,,,,,,,,,56,001,2023_Apr_26_1113,ExactRep-v3-final,2021.2.3,59.90384248459387,
,,,,,,,,91,0,91,0,,,,,,,,,,,,,,,,,,,,,,,,,,,,,,,,,,,,,,,,,,,,,,,,,,,,,1572.93202739954,None,,,,,,,,,,,,,,,,,,,,,,,,,,,,,,,,,,,ability,34,92,sing,blue,1570.9173681996763,None,None,1570.9173681996763,None,,,,,,,,,,,,,,,,,,,,,,,,,,,,,,56,001,2023_Apr_26_1113,ExactRep-v3-final,2021.2.3,59.90384248459387,
,,,,,,,,92,0,92,0,,,,,,,,,,,,,,,,,,,,,,,,,,,,,,,,,,,,,,,,,,,,,,,,,,,,,1575.4344611996785,None,,,,,,,,,,,,,,,,,,,,,,,,,,,,,,,,,,,opinion,106,93,aloud,red,1573.4325599996373,None,None,1573.4325599996373,None,,,,,,,,,,,,,,,,,,,,,,,,,,,,,,56,001,2023_Apr_26_1113,ExactRep-v3-final,2021.2.3,59.90384248459387,
,,,,,,,,93,0,93,0,,,,,,,,,,,,,,,,,,,,,,,,,,,,,,,,,,,,,,,,,,,,,,,,,,,,,1577.9534547999501,None,,,,,,,,,,,,,,,,,,,,,,,,,,,,,,,,,,,moral,48,94,silent,white,1575.9390826001763,None,None,1575.9390826001763,None,,,,,,,,,,,,,,,,,,,,,,,,,,,,,,56,001,2023_Apr_26_1113,ExactRep-v3-final,2021.2.3,59.90384248459387,
,,,,,,,,94,0,94,0,,,,,,,,,,,,,,,,,,,,,,,,,,,,,,,,,,,,,,,,,,,,,,,,,,,,,1580.4726240998134,None,,,,,,,,,,,,,,,,,,,,,,,,,,,,,,,,,,,fate,98,95,aloud,red,1578.4597878996283,None,None,1578.4597878996283,None,,,,,,,,,,,,,,,,,,,,,,,,,,,,,,56,001,2023_Apr_26_1113,ExactRep-v3-final,2021.2.3,59.90384248459387,
,,,,,,,,95,0,95,0,,,,,,,,,,,,,,,,,,,,,,,,,,,,,,,,,,,,,,,,,,,,,,,,,,,,,1582.9752687998116,None,,,,,,,,,,,,,,,,,,,,,,,,,,,,,,,,,,,shadow,86,96,aloud,red,1580.9732513995841,None,None,1580.9732513995841,None,,,,,,,,,,,,,,,,,,,,,,,,,,,,,,56,001,2023_Apr_26_1113,ExactRep-v3-final,2021.2.3,59.90384248459387,
,,,,,,,,96,0,96,0,,,,,,,,,,,,,,,,,,,,,,,,,,,,,,,,,,,,,,,,,,,,,,,,,,,,,1585.4776187995449,None,,,,,,,,,,,,,,,,,,,,,,,,,,,,,,,,,,,rod,88,97,aloud,red,1583.4775758003816,None,None,1583.4775758003816,None,,,,,,,,,,,,,,,,,,,,,,,,,,,,,,56,001,2023_Apr_26_1113,ExactRep-v3-final,2021.2.3,59.90384248459387,
,,,,,,,,97,0,97,0,,,,,,,,,,,,,,,,,,,,,,,,,,,,,,,,,,,,,,,,,,,,,,,,,,,,,1587.9968255003914,None,,,,,,,,,,,,,,,,,,,,,,,,,,,,,,,,,,,flag,103,98,aloud,red,1585.9853189997375,None,None,1585.9853189997375,None,,,,,,,,,,,,,,,,,,,,,,,,,,,,,,56,001,2023_Apr_26_1113,ExactRep-v3-final,2021.2.3,59.90384248459387,
,,,,,,,,98,0,98,0,,,,,,,,,,,,,,,,,,,,,,,,,,,,,,,,,,,,,,,,,,,,,,,,,,,,,1590.5159927997738,None,,,,,,,,,,,,,,,,,,,,,,,,,,,,,,,,,,,hide,92,99,aloud,red,1588.502762099728,None,None,1588.502762099728,None,,,,,,,,,,,,,,,,,,,,,,,,,,,,,,56,001,2023_Apr_26_1113,ExactRep-v3-final,2021.2.3,59.90384248459387,
,,,,,,,,99,0,99,0,,,,,,,,,,,,,,,,,,,,,,,,,,,,,,,,,,,,,,,,,,,,,,,,,,,,,1593.0185182997957,None,,,,,,,,,,,,,,,,,,,,,,,,,,,,,,,,,,,car,97,100,aloud,red,1591.0167263997719,None,None,1591.0167263997719,None,,,,,,,,,,,,,,,,,,,,,,,,,,,,,,56,001,2023_Apr_26_1113,ExactRep-v3-final,2021.2.3,59.90384248459387,
,,,,,,,,100,0,100,0,,,,,,,,,,,,,,,,,,,,,,,,,,,,,,,,,,,,,,,,,,,,,,,,,,,,,1595.5211500003934,None,,,,,,,,,,,,,,,,,,,,,,,,,,,,,,,,,,,style,29,101,sing,blue,1593.5208927001804,None,None,1593.5208927001804,None,,,,,,,,,,,,,,,,,,,,,,,,,,,,,,56,001,2023_Apr_26_1113,ExactRep-v3-final,2021.2.3,59.90384248459387,
,,,,,,,,101,0,101,0,,,,,,,,,,,,,,,,,,,,,,,,,,,,,,,,,,,,,,,,,,,,,,,,,,,,,1598.0440993001685,None,,,,,,,,,,,,,,,,,,,,,,,,,,,,,,,,,,,murder,51,102,silent,white,1596.0318301999941,None,None,1596.0318301999941,None,,,,,,,,,,,,,,,,,,,,,,,,,,,,,,56,001,2023_Apr_26_1113,ExactRep-v3-final,2021.2.3,59.90384248459387,
,,,,,,,,102,0,102,0,,,,,,,,,,,,,,,,,,,,,,,,,,,,,,,,,,,,,,,,,,,,,,,,,,,,,1600.542859699577,None,,,,,,,,,,,,,,,,,,,,,,,,,,,,,,,,,,,lip,93,103,aloud,red,1598.5406665001065,None,None,1598.5406665001065,None,,,,,,,,,,,,,,,,,,,,,,,,,,,,,,56,001,2023_Apr_26_1113,ExactRep-v3-final,2021.2.3,59.90384248459387,
,,,,,,,,103,0,103,0,,,,,,,,,,,,,,,,,,,,,,,,,,,,,,,,,,,,,,,,,,,,,,,,,,,,,1603.0453869998455,None,,,,,,,,,,,,,,,,,,,,,,,,,,,,,,,,,,,toy,72,104,silent,white,1601.0462969997898,None,None,1601.0462969997898,None,,,,,,,,,,,,,,,,,,,,,,,,,,,,,,56,001,2023_Apr_26_1113,ExactRep-v3-final,2021.2.3,59.90384248459387,
,,,,,,,,104,0,104,0,,,,,,,,,,,,,,,,,,,,,,,,,,,,,,,,,,,,,,,,,,,,,,,,,,,,,1605.5480238003656,None,,,,,,,,,,,,,,,,,,,,,,,,,,,,,,,,,,,anger,81,105,aloud,red,1603.5488585000858,None,None,1603.5488585000858,None,,,,,,,,,,,,,,,,,,,,,,,,,,,,,,56,001,2023_Apr_26_1113,ExactRep-v3-final,2021.2.3,59.90384248459387,
,,,,,,,,105,0,105,0,,,,,,,,,,,,,,,,,,,,,,,,,,,,,,,,,,,,,,,,,,,,,,,,,,,,,1608.0503618000075,None,,,,,,,,,,,,,,,,,,,,,,,,,,,,,,,,,,,wheat,37,106,sing,blue,1606.050081900321,None,None,1606.050081900321,None,,,,,,,,,,,,,,,,,,,,,,,,,,,,,,56,001,2023_Apr_26_1113,ExactRep-v3-final,2021.2.3,59.90384248459387,
,,,,,,,,106,0,106,0,,,,,,,,,,,,,,,,,,,,,,,,,,,,,,,,,,,,,,,,,,,,,,,,,,,,,1610.5528157996014,None,,,,,,,,,,,,,,,,,,,,,,,,,,,,,,,,,,,bowl,33,107,sing,blue,1608.553000899963,None,None,1608.553000899963,None,,,,,,,,,,,,,,,,,,,,,,,,,,,,,,56,001,2023_Apr_26_1113,ExactRep-v3-final,2021.2.3,59.90384248459387,
,,,,,,,,107,0,107,0,,,,,,,,,,,,,,,,,,,,,,,,,,,,,,,,,,,,,,,,,,,,,,,,,,,,,1613.055420000106,None,,,,,,,,,,,,,,,,,,,,,,,,,,,,,,,,,,,library,7,108,sing,blue,1611.0549085997045,None,None,1611.0549085997045,None,,,,,,,,,,,,,,,,,,,,,,,,,,,,,,56,001,2023_Apr_26_1113,ExactRep-v3-final,2021.2.3,59.90384248459387,
,,,,,,,,108,0,108,0,,,,,,,,,,,,,,,,,,,,,,,,,,,,,,,,,,,,,,,,,,,,,,,,,,,,,1615.574436900206,None,,,,,,,,,,,,,,,,,,,,,,,,,,,,,,,,,,,boulder,1,109,sing,blue,1613.5613652002066,None,None,1613.5613652002066,None,,,,,,,,,,,,,,,,,,,,,,,,,,,,,,56,001,2023_Apr_26_1113,ExactRep-v3-final,2021.2.3,59.90384248459387,
,,,,,,,,109,0,109,0,,,,,,,,,,,,,,,,,,,,,,,,,,,,,,,,,,,,,,,,,,,,,,,,,,,,,1618.0938820997253,None,,,,,,,,,,,,,,,,,,,,,,,,,,,,,,,,,,,soil,73,110,silent,white,1616.0788259999827,None,None,1616.0788259999827,None,,,,,,,,,,,,,,,,,,,,,,,,,,,,,,56,001,2023_Apr_26_1113,ExactRep-v3-final,2021.2.3,59.90384248459387,
,,,,,,,,110,0,110,0,,,,,,,,,,,,,,,,,,,,,,,,,,,,,,,,,,,,,,,,,,,,,,,,,,,,,1620.612973799929,None,,,,,,,,,,,,,,,,,,,,,,,,,,,,,,,,,,,journal,59,111,silent,white,1618.6018810998648,None,None,1618.6018810998648,None,,,,,,,,,,,,,,,,,,,,,,,,,,,,,,56,001,2023_Apr_26_1113,ExactRep-v3-final,2021.2.3,59.90384248459387,
,,,,,,,,111,0,111,0,,,,,,,,,,,,,,,,,,,,,,,,,,,,,,,,,,,,,,,,,,,,,,,,,,,,,1623.1154303997755,None,,,,,,,,,,,,,,,,,,,,,,,,,,,,,,,,,,,dream,68,112,silent,white,1621.1158085996285,None,None,1621.1158085996285,None,,,,,,,,,,,,,,,,,,,,,,,,,,,,,,56,001,2023_Apr_26_1113,ExactRep-v3-final,2021.2.3,59.90384248459387,
,,,,,,,,112,0,112,0,,,,,,,,,,,,,,,,,,,,,,,,,,,,,,,,,,,,,,,,,,,,,,,,,,,,,1625.6344566000625,None,,,,,,,,,,,,,,,,,,,,,,,,,,,,,,,,,,,corner,52,113,silent,white,1623.618981800042,None,None,1623.618981800042,None,,,,,,,,,,,,,,,,,,,,,,,,,,,,,,56,001,2023_Apr_26_1113,ExactRep-v3-final,2021.2.3,59.90384248459387,
,,,,,,,,113,0,113,0,,,,,,,,,,,,,,,,,,,,,,,,,,,,,,,,,,,,,,,,,,,,,,,,,,,,,1628.1536229997873,None,,,,,,,,,,,,,,,,,,,,,,,,,,,,,,,,,,,theory,20,114,sing,blue,1626.1398865999654,None,None,1626.1398865999654,None,,,,,,,,,,,,,,,,,,,,,,,,,,,,,,56,001,2023_Apr_26_1113,ExactRep-v3-final,2021.2.3,59.90384248459387,
,,,,,,,,114,0,114,0,,,,,,,,,,,,,,,,,,,,,,,,,,,,,,,,,,,,,,,,,,,,,,,,,,,,,1630.6728310994804,None,,,,,,,,,,,,,,,,,,,,,,,,,,,,,,,,,,,product,2,115,sing,blue,1628.6579922996461,None,None,1628.6579922996461,None,,,,,,,,,,,,,,,,,,,,,,,,,,,,,,56,001,2023_Apr_26_1113,ExactRep-v3-final,2021.2.3,59.90384248459387,
,,,,,,,,115,0,115,0,,,,,,,,,,,,,,,,,,,,,,,,,,,,,,,,,,,,,,,,,,,,,,,,,,,,,1633.1754614999518,None,,,,,,,,,,,,,,,,,,,,,,,,,,,,,,,,,,,heaven,113,116,aloud,red,1631.1753487000242,None,None,1631.1753487000242,None,,,,,,,,,,,,,,,,,,,,,,,,,,,,,,56,001,2023_Apr_26_1113,ExactRep-v3-final,2021.2.3,59.90384248459387,
,,,,,,,,116,0,116,0,,,,,,,,,,,,,,,,,,,,,,,,,,,,,,,,,,,,,,,,,,,,,,,,,,,,,1635.6779592996463,None,,,,,,,,,,,,,,,,,,,,,,,,,,,,,,,,,,,world,101,117,aloud,red,1633.6776548000053,None,None,1633.6776548000053,None,,,,,,,,,,,,,,,,,,,,,,,,,,,,,,56,001,2023_Apr_26_1113,ExactRep-v3-final,2021.2.3,59.90384248459387,
,,,,,,,,117,0,117,0,,,,,,,,,,,,,,,,,,,,,,,,,,,,,,,,,,,,,,,,,,,,,,,,,,,,,1638.1804921999574,None,,,,,,,,,,,,,,,,,,,,,,,,,,,,,,,,,,,present,77,118,silent,white,1636.1799676995724,None,None,1636.1799676995724,None,,,,,,,,,,,,,,,,,,,,,,,,,,,,,,56,001,2023_Apr_26_1113,ExactRep-v3-final,2021.2.3,59.90384248459387,
,,,,,,,,118,0,118,0,,,,,,,,,,,,,,,,,,,,,,,,,,,,,,,,,,,,,,,,,,,,,,,,,,,,,1640.7020440995693,None,,,,,,,,,,,,,,,,,,,,,,,,,,,,,,,,,,,person,114,119,aloud,red,1638.68534119986,None,None,1638.68534119986,None,,,,,,,,,,,,,,,,,,,,,,,,,,,,,,56,001,2023_Apr_26_1113,ExactRep-v3-final,2021.2.3,59.90384248459387,
,,,,,,,,119,0,119,0,,,,,,,,,,,,,,,,,,,,,,,,,,,,,,,,,,,,,,,,,,,,,,,,,,,,,1643.2020394001156,None,,,,,,,,,,,,,,,,,,,,,,,,,,,,,,,,,,,shoes,84,120,aloud,red,1641.1999754998833,None,None,1641.1999754998833,None,,,,,,,,,,,,,,,,,,,,,,,,,,,,,,56,001,2023_Apr_26_1113,ExactRep-v3-final,2021.2.3,59.90384248459387,
,,,,,,,,,,,,,,,,,,,,,,,,,,,,,,,,,,,,,,,,,,,,,,,,,,,,,,,,,,,,,,,,,,,,,,,,,,,,,,,,,,,,,,,,,,,,,,,,,,,,,,,,,,,,,,1643.7040176996961,None,space,2.2004185002297163,1653.6806445997208,None,,,,,,,,,,,,,,,,,,,,,,,,56,001,2023_Apr_26_1113,ExactRep-v3-final,2021.2.3,59.90384248459387,
,,,,,,,,,,,,,,,,,,,,,,,,,,,,,,,,,,,,,,,,,,,,,,,,,,,,,,,,,,,,,,,,,,,,,,,,,,,,,,,,,,,,,,,,,,,,,,,,,,,,,,,,,,,,,,,,,,,,1655.9000027999282,None,space,29.24489609990269,1665.8763108998537,None,,,,,,,,,,,,,,,,,,56,001,2023_Apr_26_1113,ExactRep-v3-final,2021.2.3,59.90384248459387,
,,,,,,,,,,,,0,0,0,0,,,,,,,,,,,,,,,,,,,,,,,,,,,,,,,,,,,,,,,,,,,,,,,,,1714.1395888999104,None,,,,,,,,,,,,,,,,,,,,,,,,,,,,,,,,,,,,,,,,,,,,,,,,,,,,,,,,,bottle,173,1,sing,new,yellow,1695.6495797000825,None,n,1695.6495797000825,None,"['n', 'return']","[1.6952034002169967, 18.45533089991659]",1695.6495797000825,None,,,56,001,2023_Apr_26_1113,ExactRep-v3-final,2021.2.3,59.90384248459387,
,,,,,,,,,,,,1,0,1,0,,,,,,,,,,,,,,,,,,,,,,,,,,,,,,,,,,,,,,,,,,,,,,,,,1721.0465051000938,None,,,,,,,,,,,,,,,,,,,,,,,,,,,,,,,,,,,,,,,,,,,,,,,,,,,,,,,,,plant,9,2,sing,old,yellow,1714.6561295995489,None,y,1714.6561295995489,None,"['y', 'return']","[5.704564600251615, 6.344653000123799]",1714.6561295995489,None,,,56,001,2023_Apr_26_1113,ExactRep-v3-final,2021.2.3,59.90384248459387,
,,,,,,,,,,,,2,0,2,0,,,,,,,,,,,,,,,,,,,,,,,,,,,,,,,,,,,,,,,,,,,,,,,,,1723.251970499754,None,,,,,,,,,,,,,,,,,,,,,,,,,,,,,,,,,,,,,,,,,,,,,,,,,,,,,,,,,clock,195,3,sing,new,yellow,1721.555657000281,None,n,1721.555657000281,None,"['n', 'return']","[1.2131282007321715, 1.645066600292921]",1721.555657000281,None,,,56,001,2023_Apr_26_1113,ExactRep-v3-final,2021.2.3,59.90384248459387,
,,,,,,,,,,,,3,0,3,0,,,,,,,,,,,,,,,,,,,,,,,,,,,,,,,,,,,,,,,,,,,,,,,,,1725.901403900236,None,,,,,,,,,,,,,,,,,,,,,,,,,,,,,,,,,,,,,,,,,,,,,,,,,,,,,,,,,vision,176,4,aloud,new,yellow,1723.775527600199,None,y,1723.775527600199,None,"['y', 'return']","[1.729225200600922, 2.089227500371635]",1723.775527600199,None,,,56,001,2023_Apr_26_1113,ExactRep-v3-final,2021.2.3,59.90384248459387,
,,,,,,,,,,,,4,0,4,0,,,,,,,,,,,,,,,,,,,,,,,,,,,,,,,,,,,,,,,,,,,,,,,,,1727.9534636000171,None,,,,,,,,,,,,,,,,,,,,,,,,,,,,,,,,,,,,,,,,,,,,,,,,,,,,,,,,,dream,68,5,silent,old,yellow,1726.408630900085,None,y,1726.408630900085,None,"['y', 'return']","[1.1601026998832822, 1.5041129998862743]",1726.408630900085,None,,,56,001,2023_Apr_26_1113,ExactRep-v3-final,2021.2.3,59.90384248459387,
,,,,,,,,,,,,5,0,5,0,,,,,,,,,,,,,,,,,,,,,,,,,,,,,,,,,,,,,,,,,,,,,,,,,1729.972068700008,None,,,,,,,,,,,,,,,,,,,,,,,,,,,,,,,,,,,,,,,,,,,,,,,,,,,,,,,,,hour,234,6,aloud,new,yellow,1728.4662226997316,None,n,1728.4662226997316,None,"['n', 'return']","[1.11855380050838, 1.470631199888885]",1728.4662226997316,None,,,56,001,2023_Apr_26_1113,ExactRep-v3-final,2021.2.3,59.90384248459387,
,,,,,,,,,,,,6,0,6,0,,,,,,,,,,,,,,,,,,,,,,,,,,,,,,,,,,,,,,,,,,,,,,,,,1732.7581527000293,None,,,,,,,,,,,,,,,,,,,,,,,,,,,,,,,,,,,,,,,,,,,,,,,,,,,,,,,,,picture,152,7,silent,new,yellow,1730.482800300233,None,y,1730.482800300233,None,"['y', 'return']","[1.8700616993010044, 2.2301415000110865]",1730.482800300233,None,,,56,001,2023_Apr_26_1113,ExactRep-v3-final,2021.2.3,59.90384248459387,
,,,,,,,,,,,,7,0,7,0,,,,,,,,,,,,,,,,,,,,,,,,,,,,,,,,,,,,,,,,,,,,,,,,,1734.9938578996807,None,,,,,,,,,,,,,,,,,,,,,,,,,,,,,,,,,,,,,,,,,,,,,,,,,,,,,,,,,power,160,8,aloud,new,yellow,1733.272246000357,None,n,1733.272246000357,None,"['n', 'return']","[1.3685416001826525, 1.6885297000408173]",1733.272246000357,None,,,56,001,2023_Apr_26_1113,ExactRep-v3-final,2021.2.3,59.90384248459387,
,,,,,,,,,,,,8,0,8,0,,,,,,,,,,,,,,,,,,,,,,,,,,,,,,,,,,,,,,,,,,,,,,,,,1736.9457059996203,None,,,,,,,,,,,,,,,,,,,,,,,,,,,,,,,,,,,,,,,,,,,,,,,,,,,,,,,,,anger,81,9,aloud,old,yellow,1735.5043773995712,None,y,1735.5043773995712,None,"['y', 'return']","[1.056393200531602, 1.408377700485289]",1735.5043773995712,None,,,56,001,2023_Apr_26_1113,ExactRep-v3-final,2021.2.3,59.90384248459387,
,,,,,,,,,,,,9,0,9,0,,,,,,,,,,,,,,,,,,,,,,,,,,,,,,,,,,,,,,,,,,,,,,,,,1738.7809009002522,None,,,,,,,,,,,,,,,,,,,,,,,,,,,,,,,,,,,,,,,,,,,,,,,,,,,,,,,,,breast,61,10,silent,old,yellow,1737.4539364995435,None,y,1737.4539364995435,None,"['y', 'return']","[0.9548295997083187, 1.2828622004017234]",1737.4539364995435,None,,,56,001,2023_Apr_26_1113,ExactRep-v3-final,2021.2.3,59.90384248459387,
,,,,,,,,,,,,10,0,10,0,,,,,,,,,,,,,,,,,,,,,,,,,,,,,,,,,,,,,,,,,,,,,,,,,1740.6161278001964,None,,,,,,,,,,,,,,,,,,,,,,,,,,,,,,,,,,,,,,,,,,,,,,,,,,,,,,,,,opinion,106,11,aloud,old,yellow,1739.291649499908,None,y,1739.291649499908,None,"['y', 'return']","[0.9492557002231479, 1.2771342005580664]",1739.291649499908,None,,,56,001,2023_Apr_26_1113,ExactRep-v3-final,2021.2.3,59.90384248459387,
,,,,,,,,,,,,11,0,11,0,,,,,,,,,,,,,,,,,,,,,,,,,,,,,,,,,,,,,,,,,,,,,,,,,1742.801654400304,None,,,,,,,,,,,,,,,,,,,,,,,,,,,,,,,,,,,,,,,,,,,,,,,,,,,,,,,,,truth,150,12,silent,new,yellow,1741.1267652995884,None,n,1741.1267652995884,None,"['n', 'return']","[1.3139114994555712, 1.634001599624753]",1741.1267652995884,None,,,56,001,2023_Apr_26_1113,ExactRep-v3-final,2021.2.3,59.90384248459387,
,,,,,,,,,,,,12,0,12,0,,,,,,,,,,,,,,,,,,,,,,,,,,,,,,,,,,,,,,,,,,,,,,,,,1744.703482300043,None,,,,,,,,,,,,,,,,,,,,,,,,,,,,,,,,,,,,,,,,,,,,,,,,,,,,,,,,,season,200,13,aloud,new,yellow,1743.3178183995187,None,n,1743.3178183995187,None,"['n', 'return']","[0.9629921996966004, 1.3389763999730349]",1743.3178183995187,None,,,56,001,2023_Apr_26_1113,ExactRep-v3-final,2021.2.3,59.90384248459387,
,,,,,,,,,,,,13,0,13,0,,,,,,,,,,,,,,,,,,,,,,,,,,,,,,,,,,,,,,,,,,,,,,,,,1746.6721088001505,None,,,,,,,,,,,,,,,,,,,,,,,,,,,,,,,,,,,,,,,,,,,,,,,,,,,,,,,,,product,2,14,sing,old,yellow,1745.2134825997055,None,y,1745.2134825997055,None,"['y', 'return']","[1.1154583003371954, 1.4113851003348827]",1745.2134825997055,None,,,56,001,2023_Apr_26_1113,ExactRep-v3-final,2021.2.3,59.90384248459387,
,,,,,,,,,,,,14,0,14,0,,,,,,,,,,,,,,,,,,,,,,,,,,,,,,,,,,,,,,,,,,,,,,,,,1749.6917880997062,None,,,,,,,,,,,,,,,,,,,,,,,,,,,,,,,,,,,,,,,,,,,,,,,,,,,,,,,,,stone,109,15,aloud,old,yellow,1747.1802492002025,None,y,1747.1802492002025,None,"['y', 'return']","[2.1405759006738663, 2.4684971002861857]",1747.1802492002025,None,,,56,001,2023_Apr_26_1113,ExactRep-v3-final,2021.2.3,59.90384248459387,
,,,,,,,,,,,,15,0,15,0,,,,,,,,,,,,,,,,,,,,,,,,,,,,,,,,,,,,,,,,,,,,,,,,,1751.6437000995502,None,,,,,,,,,,,,,,,,,,,,,,,,,,,,,,,,,,,,,,,,,,,,,,,,,,,,,,,,,chance,139,16,silent,new,yellow,1750.2040996998549,None,n,1750.2040996998549,None,"['n', 'return']","[1.10883569996804, 1.3967411005869508]",1750.2040996998549,None,,,56,001,2023_Apr_26_1113,ExactRep-v3-final,2021.2.3,59.90384248459387,
,,,,,,,,,,,,16,0,16,0,,,,,,,,,,,,,,,,,,,,,,,,,,,,,,,,,,,,,,,,,,,,,,,,,1753.530833300203,None,,,,,,,,,,,,,,,,,,,,,,,,,,,,,,,,,,,,,,,,,,,,,,,,,,,,,,,,,quality,134,17,silent,new,yellow,1752.1550100995228,None,n,1752.1550100995228,None,"['n', 'return']","[1.0057908007875085, 1.3337868005037308]",1752.1550100995228,None,,,56,001,2023_Apr_26_1113,ExactRep-v3-final,2021.2.3,59.90384248459387,
,,,,,,,,,,,,17,0,17,0,,,,,,,,,,,,,,,,,,,,,,,,,,,,,,,,,,,,,,,,,,,,,,,,,1756.4318752996624,None,,,,,,,,,,,,,,,,,,,,,,,,,,,,,,,,,,,,,,,,,,,,,,,,,,,,,,,,,honour,179,18,sing,new,yellow,1754.0519743002951,None,n,1754.0519743002951,None,"['n', 'return']","[1.9809470996260643, 2.332961699925363]",1754.0519743002951,None,,,56,001,2023_Apr_26_1113,ExactRep-v3-final,2021.2.3,59.90384248459387,
,,,,,,,,,,,,18,0,18,0,,,,,,,,,,,,,,,,,,,,,,,,,,,,,,,,,,,,,,,,,,,,,,,,,1758.3671279000118,None,,,,,,,,,,,,,,,,,,,,,,,,,,,,,,,,,,,,,,,,,,,,,,,,,,,,,,,,,cottage,43,19,silent,old,yellow,1756.9402428995818,None,y,1756.9402428995818,None,"['y', 'return']","[1.0604675998911262, 1.3805301999673247]",1756.9402428995818,None,,,56,001,2023_Apr_26_1113,ExactRep-v3-final,2021.2.3,59.90384248459387,
,,,,,,,,,,,,19,0,19,0,,,,,,,,,,,,,,,,,,,,,,,,,,,,,,,,,,,,,,,,,,,,,,,,,1761.1700900001451,None,,,,,,,,,,,,,,,,,,,,,,,,,,,,,,,,,,,,,,,,,,,,,,,,,,,,,,,,,blossom,177,20,sing,new,yellow,1758.880454099737,None,n,1758.880454099737,None,"['n', 'return']","[1.9205002002418041, 2.248484100215137]",1758.880454099737,None,,,56,001,2023_Apr_26_1113,ExactRep-v3-final,2021.2.3,59.90384248459387,
,,,,,,,,,,,,20,0,20,0,,,,,,,,,,,,,,,,,,,,,,,,,,,,,,,,,,,,,,,,,,,,,,,,,1763.0051780994982,None,,,,,,,,,,,,,,,,,,,,,,,,,,,,,,,,,,,,,,,,,,,,,,,,,,,,,,,,,hall,116,21,aloud,old,yellow,1761.68137129955,None,y,1761.68137129955,None,"['y', 'return']","[0.9755726996809244, 1.2874951995909214]",1761.68137129955,None,,,56,001,2023_Apr_26_1113,ExactRep-v3-final,2021.2.3,59.90384248459387,
,,,,,,,,,,,,21,0,21,0,,,,,,,,,,,,,,,,,,,,,,,,,,,,,,,,,,,,,,,,,,,,,,,,,1764.8735924996436,None,,,,,,,,,,,,,,,,,,,,,,,,,,,,,,,,,,,,,,,,,,,,,,,,,,,,,,,,,apple,158,22,silent,new,yellow,1763.5239321002737,None,n,1763.5239321002737,None,"['n', 'return']","[1.0048785004764795, 1.3167724004015326]",1763.5239321002737,None,,,56,001,2023_Apr_26_1113,ExactRep-v3-final,2021.2.3,59.90384248459387,
,,,,,,,,,,,,22,0,22,0,,,,,,,,,,,,,,,,,,,,,,,,,,,,,,,,,,,,,,,,,,,,,,,,,1766.692285399884,None,,,,,,,,,,,,,,,,,,,,,,,,,,,,,,,,,,,,,,,,,,,,,,,,,,,,,,,,,time,46,23,silent,old,yellow,1765.380946200341,None,y,1765.380946200341,None,"['y', 'return']","[0.948050600476563, 1.2760153003036976]",1765.380946200341,None,,,56,001,2023_Apr_26_1113,ExactRep-v3-final,2021.2.3,59.90384248459387,
,,,,,,,,,,,,23,0,23,0,,,,,,,,,,,,,,,,,,,,,,,,,,,,,,,,,,,,,,,,,,,,,,,,,1768.8444344997406,None,,,,,,,,,,,,,,,,,,,,,,,,,,,,,,,,,,,,,,,,,,,,,,,,,,,,,,,,,seat,0,24,sing,old,yellow,1767.2014440000057,None,y,1767.2014440000057,None,"['y', 'return']","[1.023441500030458, 1.607493600808084]",1767.2014440000057,None,,,56,001,2023_Apr_26_1113,ExactRep-v3-final,2021.2.3,59.90384248459387,
,,,,,,,,,,,,24,0,24,0,,,,,,,,,,,,,,,,,,,,,,,,,,,,,,,,,,,,,,,,,,,,,,,,,1771.7638221001253,None,,,,,,,,,,,,,,,,,,,,,,,,,,,,,,,,,,,,,,,,,,,,,,,,,,,,,,,,,leader,41,25,silent,old,yellow,1769.3541989000514,None,y,1769.3541989000514,None,"['y', 'return']","[2.006589399650693, 2.3665266996249557]",1769.3541989000514,None,,,56,001,2023_Apr_26_1113,ExactRep-v3-final,2021.2.3,59.90384248459387,
,,,,,,,,,,,,25,0,25,0,,,,,,,,,,,,,,,,,,,,,,,,,,,,,,,,,,,,,,,,,,,,,,,,,1773.6157892001793,None,,,,,,,,,,,,,,,,,,,,,,,,,,,,,,,,,,,,,,,,,,,,,,,,,,,,,,,,,square,232,26,aloud,new,yellow,1772.273547699675,None,n,1772.273547699675,None,"['n', 'return']","[0.9993857992812991, 1.3034079996868968]",1772.273547699675,None,,,56,001,2023_Apr_26_1113,ExactRep-v3-final,2021.2.3,59.90384248459387,
,,,,,,,,,,,,26,0,26,0,,,,,,,,,,,,,,,,,,,,,,,,,,,,,,,,,,,,,,,,,,,,,,,,,1775.4175456995144,None,,,,,,,,,,,,,,,,,,,,,,,,,,,,,,,,,,,,,,,,,,,,,,,,,,,,,,,,,custom,215,27,sing,new,yellow,1774.1267932998016,None,y,1774.1267932998016,None,"['y', 'return']","[0.9383014002814889, 1.2579728001728654]",1774.1267932998016,None,,,56,001,2023_Apr_26_1113,ExactRep-v3-final,2021.2.3,59.90384248459387,
,,,,,,,,,,,,27,0,27,0,,,,,,,,,,,,,,,,,,,,,,,,,,,,,,,,,,,,,,,,,,,,,,,,,1777.1859636995941,None,,,,,,,,,,,,,,,,,,,,,,,,,,,,,,,,,,,,,,,,,,,,,,,,,,,,,,,,,forest,162,28,aloud,new,yellow,1775.9344213996083,None,y,1775.9344213996083,None,"['y', 'return']","[0.8826247993856668, 1.2185781998559833]",1775.9344213996083,None,,,56,001,2023_Apr_26_1113,ExactRep-v3-final,2021.2.3,59.90384248459387,
,,,,,,,,,,,,28,0,28,0,,,,,,,,,,,,,,,,,,,,,,,,,,,,,,,,,,,,,,,,,,,,,,,,,1778.904507899657,None,,,,,,,,,,,,,,,,,,,,,,,,,,,,,,,,,,,,,,,,,,,,,,,,,,,,,,,,,bowl,33,29,sing,old,yellow,1777.6879315003753,None,y,1777.6879315003753,None,"['y', 'return']","[0.8489148998633027, 1.176999899558723]",1777.6879315003753,None,,,56,001,2023_Apr_26_1113,ExactRep-v3-final,2021.2.3,59.90384248459387,
,,,,,,,,,,,,29,0,29,0,,,,,,,,,,,,,,,,,,,,,,,,,,,,,,,,,,,,,,,,,,,,,,,,,1780.7561002001166,None,,,,,,,,,,,,,,,,,,,,,,,,,,,,,,,,,,,,,,,,,,,,,,,,,,,,,,,,,meeting,231,30,sing,new,yellow,1779.4127332000062,None,n,1779.4127332000062,None,"['n', 'return']","[0.980048400349915, 1.2999948002398014]",1779.4127332000062,None,,,56,001,2023_Apr_26_1113,ExactRep-v3-final,2021.2.3,59.90384248459387,
,,,,,,,,,,,,30,0,30,0,,,,,,,,,,,,,,,,,,,,,,,,,,,,,,,,,,,,,,,,,,,,,,,,,1782.5766158001497,None,,,,,,,,,,,,,,,,,,,,,,,,,,,,,,,,,,,,,,,,,,,,,,,,,,,,,,,,,passion,8,31,sing,old,yellow,1781.2630617003888,None,y,1781.2630617003888,None,"['y', 'return']","[0.9218749003484845, 1.2658245004713535]",1781.2630617003888,None,,,56,001,2023_Apr_26_1113,ExactRep-v3-final,2021.2.3,59.90384248459387,
,,,,,,,,,,,,31,0,31,0,,,,,,,,,,,,,,,,,,,,,,,,,,,,,,,,,,,,,,,,,,,,,,,,,1786.328441400081,None,,,,,,,,,,,,,,,,,,,,,,,,,,,,,,,,,,,,,,,,,,,,,,,,,,,,,,,,,form,224,32,aloud,new,yellow,1783.102562500164,None,n,1783.102562500164,None,"['n', 'return']","[2.826169299893081, 3.1942469999194145]",1783.102562500164,None,,,56,001,2023_Apr_26_1113,ExactRep-v3-final,2021.2.3,59.90384248459387,
,,,,,,,,,,,,32,0,32,0,,,,,,,,,,,,,,,,,,,,,,,,,,,,,,,,,,,,,,,,,,,,,,,,,1788.5472860997543,None,,,,,,,,,,,,,,,,,,,,,,,,,,,,,,,,,,,,,,,,,,,,,,,,,,,,,,,,,woods,111,33,aloud,old,yellow,1786.8307330003008,None,y,1786.8307330003008,None,"['y', 'return']","[1.3302076999098063, 1.68201810028404]",1786.8307330003008,None,,,56,001,2023_Apr_26_1113,ExactRep-v3-final,2021.2.3,59.90384248459387,
,,,,,,,,,,,,33,0,33,0,,,,,,,,,,,,,,,,,,,,,,,,,,,,,,,,,,,,,,,,,,,,,,,,,1790.4325403999537,None,,,,,,,,,,,,,,,,,,,,,,,,,,,,,,,,,,,,,,,,,,,,,,,,,,,,,,,,,theory,20,34,sing,old,yellow,1789.055719899945,None,y,1789.055719899945,None,"['y', 'return']","[0.9691366003826261, 1.3452117005363107]",1789.055719899945,None,,,56,001,2023_Apr_26_1113,ExactRep-v3-final,2021.2.3,59.90384248459387,
,,,,,,,,,,,,34,0,34,0,,,,,,,,,,,,,,,,,,,,,,,,,,,,,,,,,,,,,,,,,,,,,,,,,1792.351279400289,None,,,,,,,,,,,,,,,,,,,,,,,,,,,,,,,,,,,,,,,,,,,,,,,,,,,,,,,,,teacher,143,35,silent,new,yellow,1790.94440869987,None,n,1790.94440869987,None,"['n', 'return']","[0.960598099976778, 1.3604682004079223]",1790.94440869987,None,,,56,001,2023_Apr_26_1113,ExactRep-v3-final,2021.2.3,59.90384248459387,
,,,,,,,,,,,,35,0,35,0,,,,,,,,,,,,,,,,,,,,,,,,,,,,,,,,,,,,,,,,,,,,,,,,,1794.0196230001748,None,,,,,,,,,,,,,,,,,,,,,,,,,,,,,,,,,,,,,,,,,,,,,,,,,,,,,,,,,garden,21,36,sing,old,yellow,1792.8672072002664,None,y,1792.8672072002664,None,"['y', 'return']","[0.7898664996027946, 1.1175903994590044]",1792.8672072002664,None,,,56,001,2023_Apr_26_1113,ExactRep-v3-final,2021.2.3,59.90384248459387,
,,,,,,,,,,,,36,0,36,0,,,,,,,,,,,,,,,,,,,,,,,,,,,,,,,,,,,,,,,,,,,,,,,,,1795.972375500016,None,,,,,,,,,,,,,,,,,,,,,,,,,,,,,,,,,,,,,,,,,,,,,,,,,,,,,,,,,window,172,37,aloud,new,yellow,1794.529162899591,None,n,1794.529162899591,None,"['n', 'return']","[1.0476636998355389, 1.399625999853015]",1794.529162899591,None,,,56,001,2023_Apr_26_1113,ExactRep-v3-final,2021.2.3,59.90384248459387,
,,,,,,,,,,,,37,0,37,0,,,,,,,,,,,,,,,,,,,,,,,,,,,,,,,,,,,,,,,,,,,,,,,,,1797.7731785001233,None,,,,,,,,,,,,,,,,,,,,,,,,,,,,,,,,,,,,,,,,,,,,,,,,,,,,,,,,,wheat,37,38,sing,old,yellow,1796.482297600247,None,y,1796.482297600247,None,"['y', 'return']","[0.8867069007828832, 1.2545538004487753]",1796.482297600247,None,,,56,001,2023_Apr_26_1113,ExactRep-v3-final,2021.2.3,59.90384248459387,
,,,,,,,,,,,,38,0,38,0,,,,,,,,,,,,,,,,,,,,,,,,,,,,,,,,,,,,,,,,,,,,,,,,,1799.5084300003946,None,,,,,,,,,,,,,,,,,,,,,,,,,,,,,,,,,,,,,,,,,,,,,,,,,,,,,,,,,fur,211,39,sing,new,yellow,1798.2809343999252,None,n,1798.2809343999252,None,"['n', 'return']","[0.8640118995681405, 1.1838897000998259]",1798.2809343999252,None,,,56,001,2023_Apr_26_1113,ExactRep-v3-final,2021.2.3,59.90384248459387,
,,,,,,,,,,,,39,0,39,0,,,,,,,,,,,,,,,,,,,,,,,,,,,,,,,,,,,,,,,,,,,,,,,,,1801.2267357995734,None,,,,,,,,,,,,,,,,,,,,,,,,,,,,,,,,,,,,,,,,,,,,,,,,,,,,,,,,,fate,98,40,aloud,old,yellow,1800.0265795998275,None,y,1800.0265795998275,None,"['y', 'return']","[0.7902516005560756, 1.1582597000524402]",1800.0265795998275,None,,,56,001,2023_Apr_26_1113,ExactRep-v3-final,2021.2.3,59.90384248459387,
,,,,,,,,,,,,40,0,40,0,,,,,,,,,,,,,,,,,,,,,,,,,,,,,,,,,,,,,,,,,,,,,,,,,1802.9950951999053,None,,,,,,,,,,,,,,,,,,,,,,,,,,,,,,,,,,,,,,,,,,,,,,,,,,,,,,,,,market,49,41,silent,old,yellow,1801.7366899996996,None,y,1801.7366899996996,None,"['y', 'return']","[0.8563113994896412, 1.224112699739635]",1801.7366899996996,None,,,56,001,2023_Apr_26_1113,ExactRep-v3-final,2021.2.3,59.90384248459387,
,,,,,,,,,,,,41,0,41,0,,,,,,,,,,,,,,,,,,,,,,,,,,,,,,,,,,,,,,,,,,,,,,,,,1804.663435800001,None,,,,,,,,,,,,,,,,,,,,,,,,,,,,,,,,,,,,,,,,,,,,,,,,,,,,,,,,,love,53,42,silent,old,yellow,1803.5096164001152,None,n,1803.5096164001152,None,"['n', 'return']","[0.7951889000833035, 1.1072444003075361]",1803.5096164001152,None,,,56,001,2023_Apr_26_1113,ExactRep-v3-final,2021.2.3,59.90384248459387,
,,,,,,,,,,,,42,0,42,0,,,,,,,,,,,,,,,,,,,,,,,,,,,,,,,,,,,,,,,,,,,,,,,,,1806.515351000242,None,,,,,,,,,,,,,,,,,,,,,,,,,,,,,,,,,,,,,,,,,,,,,,,,,,,,,,,,,priest,181,43,sing,new,yellow,1805.1822533998638,None,n,1805.1822533998638,None,"['n', 'return']","[0.9065359998494387, 1.290658500045538]",1805.1822533998638,None,,,56,001,2023_Apr_26_1113,ExactRep-v3-final,2021.2.3,59.90384248459387,
,,,,,,,,,,,,43,0,43,0,,,,,,,,,,,,,,,,,,,,,,,,,,,,,,,,,,,,,,,,,,,,,,,,,1808.4338667001575,None,,,,,,,,,,,,,,,,,,,,,,,,,,,,,,,,,,,,,,,,,,,,,,,,,,,,,,,,,grass,198,44,aloud,new,yellow,1807.0285432003438,None,y,1807.0285432003438,None,"['y', 'return']","[1.0122936004772782, 1.3643203005194664]",1807.0285432003438,None,,,56,001,2023_Apr_26_1113,ExactRep-v3-final,2021.2.3,59.90384248459387,
,,,,,,,,,,,,44,0,44,0,,,,,,,,,,,,,,,,,,,,,,,,,,,,,,,,,,,,,,,,,,,,,,,,,1810.3524687997997,None,,,,,,,,,,,,,,,,,,,,,,,,,,,,,,,,,,,,,,,,,,,,,,,,,,,,,,,,,science,154,45,silent,new,yellow,1808.9458355996758,None,n,1808.9458355996758,None,"['n', 'return']","[1.0549749005585909, 1.3750232001766562]",1808.9458355996758,None,,,56,001,2023_Apr_26_1113,ExactRep-v3-final,2021.2.3,59.90384248459387,
,,,,,,,,,,,,45,0,45,0,,,,,,,,,,,,,,,,,,,,,,,,,,,,,,,,,,,,,,,,,,,,,,,,,1811.987436699681,None,,,,,,,,,,,,,,,,,,,,,,,,,,,,,,,,,,,,,,,,,,,,,,,,,,,,,,,,,college,12,46,sing,old,yellow,1810.8624345995486,None,y,1810.8624345995486,None,"['y', 'return']","[0.8023843001574278, 1.0825004000216722]",1810.8624345995486,None,,,56,001,2023_Apr_26_1113,ExactRep-v3-final,2021.2.3,59.90384248459387,
,,,,,,,,,,,,46,0,46,0,,,,,,,,,,,,,,,,,,,,,,,,,,,,,,,,,,,,,,,,,,,,,,,,,1813.5891317995265,None,,,,,,,,,,,,,,,,,,,,,,,,,,,,,,,,,,,,,,,,,,,,,,,,,,,,,,,,,memory,56,47,silent,old,yellow,1812.4973721997812,None,y,1812.4973721997812,None,"['y', 'return']","[0.7114951005205512, 1.055570499971509]",1812.4973721997812,None,,,56,001,2023_Apr_26_1113,ExactRep-v3-final,2021.2.3,59.90384248459387,
,,,,,,,,,,,,47,0,47,0,,,,,,,,,,,,,,,,,,,,,,,,,,,,,,,,,,,,,,,,,,,,,,,,,1815.1739331996068,None,,,,,,,,,,,,,,,,,,,,,,,,,,,,,,,,,,,,,,,,,,,,,,,,,,,,,,,,,idea,13,48,sing,old,yellow,1814.0904818000272,None,y,1814.0904818000272,None,"['y', 'return']","[0.7343672001734376, 1.0384224997833371]",1814.0904818000272,None,,,56,001,2023_Apr_26_1113,ExactRep-v3-final,2021.2.3,59.90384248459387,
,,,,,,,,,,,,48,0,48,0,,,,,,,,,,,,,,,,,,,,,,,,,,,,,,,,,,,,,,,,,,,,,,,,,1816.9090289995074,None,,,,,,,,,,,,,,,,,,,,,,,,,,,,,,,,,,,,,,,,,,,,,,,,,,,,,,,,,avenue,102,49,aloud,old,yellow,1815.701496399939,None,n,1815.701496399939,None,"['n', 'return']","[0.9234664998948574, 1.1714241998270154]",1815.701496399939,None,,,56,001,2023_Apr_26_1113,ExactRep-v3-final,2021.2.3,59.90384248459387,
,,,,,,,,,,,,49,0,49,0,,,,,,,,,,,,,,,,,,,,,,,,,,,,,,,,,,,,,,,,,,,,,,,,,1818.8444360001013,None,,,,,,,,,,,,,,,,,,,,,,,,,,,,,,,,,,,,,,,,,,,,,,,,,,,,,,,,,mind,155,50,silent,new,yellow,1817.4146245000884,None,n,1817.4146245000884,None,"['n', 'return']","[1.1221646992489696, 1.3862085994333029]",1817.4146245000884,None,,,56,001,2023_Apr_26_1113,ExactRep-v3-final,2021.2.3,59.90384248459387,
,,,,,,,,,,,,50,0,50,0,,,,,,,,,,,,,,,,,,,,,,,,,,,,,,,,,,,,,,,,,,,,,,,,,1820.596053299494,None,,,,,,,,,,,,,,,,,,,,,,,,,,,,,,,,,,,,,,,,,,,,,,,,,,,,,,,,,friend,156,51,silent,new,yellow,1819.3537886999547,None,n,1819.3537886999547,None,"['n', 'return']","[0.9271812001243234, 1.1990066999569535]",1819.3537886999547,None,,,56,001,2023_Apr_26_1113,ExactRep-v3-final,2021.2.3,59.90384248459387,
,,,,,,,,,,,,51,0,51,0,,,,,,,,,,,,,,,,,,,,,,,,,,,,,,,,,,,,,,,,,,,,,,,,,1822.514631900005,None,,,,,,,,,,,,,,,,,,,,,,,,,,,,,,,,,,,,,,,,,,,,,,,,,,,,,,,,,justice,148,52,silent,new,yellow,1821.1102342996746,None,n,1821.1102342996746,None,"['n', 'return']","[1.1147170001640916, 1.3705770000815392]",1821.1102342996746,None,,,56,001,2023_Apr_26_1113,ExactRep-v3-final,2021.2.3,59.90384248459387,
,,,,,,,,,,,,52,0,52,0,,,,,,,,,,,,,,,,,,,,,,,,,,,,,,,,,,,,,,,,,,,,,,,,,1824.1161799002439,None,,,,,,,,,,,,,,,,,,,,,,,,,,,,,,,,,,,,,,,,,,,,,,,,,,,,,,,,,heaven,113,53,aloud,old,yellow,1823.0260618003085,None,y,1823.0260618003085,None,"['y', 'return']","[0.7828003000468016, 1.0467067994177341]",1823.0260618003085,None,,,56,001,2023_Apr_26_1113,ExactRep-v3-final,2021.2.3,59.90384248459387,
,,,,,,,,,,,,53,0,53,0,,,,,,,,,,,,,,,,,,,,,,,,,,,,,,,,,,,,,,,,,,,,,,,,,1825.6676744995639,None,,,,,,,,,,,,,,,,,,,,,,,,,,,,,,,,,,,,,,,,,,,,,,,,,,,,,,,,,mother,65,54,silent,old,yellow,1824.626126400195,None,y,1824.626126400195,None,"['y', 'return']","[0.6627846993505955, 0.9986977996304631]",1824.626126400195,None,,,56,001,2023_Apr_26_1113,ExactRep-v3-final,2021.2.3,59.90384248459387,
,,,,,,,,,,,,54,0,54,0,,,,,,,,,,,,,,,,,,,,,,,,,,,,,,,,,,,,,,,,,,,,,,,,,1827.3527426999062,None,,,,,,,,,,,,,,,,,,,,,,,,,,,,,,,,,,,,,,,,,,,,,,,,,,,,,,,,,poet,216,55,aloud,new,yellow,1826.1729892995209,None,n,1826.1729892995209,None,"['n', 'return']","[0.8358799004927278, 1.1399753000587225]",1826.1729892995209,None,,,56,001,2023_Apr_26_1113,ExactRep-v3-final,2021.2.3,59.90384248459387,
,,,,,,,,,,,,55,0,55,0,,,,,,,,,,,,,,,,,,,,,,,,,,,,,,,,,,,,,,,,,,,,,,,,,1829.2047549001873,None,,,,,,,,,,,,,,,,,,,,,,,,,,,,,,,,,,,,,,,,,,,,,,,,,,,,,,,,,meat,225,56,sing,new,yellow,1827.861641000025,None,n,1827.861641000025,None,"['n', 'return']","[1.0033439006656408, 1.2992078000679612]",1827.861641000025,None,,,56,001,2023_Apr_26_1113,ExactRep-v3-final,2021.2.3,59.90384248459387,
,,,,,,,,,,,,56,0,56,0,,,,,,,,,,,,,,,,,,,,,,,,,,,,,,,,,,,,,,,,,,,,,,,,,1830.8897348996252,None,,,,,,,,,,,,,,,,,,,,,,,,,,,,,,,,,,,,,,,,,,,,,,,,,,,,,,,,,flower,69,57,silent,old,yellow,1829.7141487998888,None,y,1829.7141487998888,None,"['y', 'return']","[0.8387131001800299, 1.142616800032556]",1829.7141487998888,None,,,56,001,2023_Apr_26_1113,ExactRep-v3-final,2021.2.3,59.90384248459387,
,,,,,,,,,,,,57,0,57,0,,,,,,,,,,,,,,,,,,,,,,,,,,,,,,,,,,,,,,,,,,,,,,,,,1832.558080099523,None,,,,,,,,,,,,,,,,,,,,,,,,,,,,,,,,,,,,,,,,,,,,,,,,,,,,,,,,,effort,230,58,aloud,new,yellow,1831.3996447995305,None,n,1831.3996447995305,None,"['n', 'return']","[0.8652105005457997, 1.1211983999237418]",1831.3996447995305,None,,,56,001,2023_Apr_26_1113,ExactRep-v3-final,2021.2.3,59.90384248459387,
,,,,,,,,,,,,58,0,58,0,,,,,,,,,,,,,,,,,,,,,,,,,,,,,,,,,,,,,,,,,,,,,,,,,1834.1930291997269,None,,,,,,,,,,,,,,,,,,,,,,,,,,,,,,,,,,,,,,,,,,,,,,,,,,,,,,,,,volume,189,59,sing,new,yellow,1833.0674336999655,None,n,1833.0674336999655,None,"['n', 'return']","[0.8135874001309276, 1.0935341995209455]",1833.0674336999655,None,,,56,001,2023_Apr_26_1113,ExactRep-v3-final,2021.2.3,59.90384248459387,
,,,,,,,,,,,,59,0,59,0,,,,,,,,,,,,,,,,,,,,,,,,,,,,,,,,,,,,,,,,,,,,,,,,,1836.1617764998227,None,,,,,,,,,,,,,,,,,,,,,,,,,,,,,,,,,,,,,,,,,,,,,,,,,,,,,,,,,door,35,60,sing,old,yellow,1834.7090394003317,None,n,1834.7090394003317,None,"['n', 'return']","[1.1398831000551581, 1.41974710021168]",1834.7090394003317,None,,,56,001,2023_Apr_26_1113,ExactRep-v3-final,2021.2.3,59.90384248459387,
,,,,,,,,,,,,60,0,60,0,,,,,,,,,,,,,,,,,,,,,,,,,,,,,,,,,,,,,,,,,,,,,,,,,1838.5307110995054,None,,,,,,,,,,,,,,,,,,,,,,,,,,,,,,,,,,,,,,,,,,,,,,,,,,,,,,,,,engine,217,61,sing,new,yellow,1836.6753759998828,None,n,1836.6753759998828,None,"['n', 'return']","[1.4697987996041775, 1.8214857997372746]",1836.6753759998828,None,,,56,001,2023_Apr_26_1113,ExactRep-v3-final,2021.2.3,59.90384248459387,
,,,,,,,,,,,,61,0,61,0,,,,,,,,,,,,,,,,,,,,,,,,,,,,,,,,,,,,,,,,,,,,,,,,,1840.4993422999978,None,,,,,,,,,,,,,,,,,,,,,,,,,,,,,,,,,,,,,,,,,,,,,,,,,,,,,,,,,murder,51,62,silent,old,yellow,1839.03999369964,None,y,1839.03999369964,None,"['y', 'return']","[1.1209601005539298, 1.4168570004403591]",1839.03999369964,None,,,56,001,2023_Apr_26_1113,ExactRep-v3-final,2021.2.3,59.90384248459387,
,,,,,,,,,,,,62,0,62,0,,,,,,,,,,,,,,,,,,,,,,,,,,,,,,,,,,,,,,,,,,,,,,,,,1842.7015589997172,None,,,,,,,,,,,,,,,,,,,,,,,,,,,,,,,,,,,,,,,,,,,,,,,,,,,,,,,,,length,208,63,aloud,new,yellow,1841.0084950998425,None,y,1841.0084950998425,None,"['y', 'return']","[1.3684545997530222, 1.6484147999435663]",1841.0084950998425,None,,,56,001,2023_Apr_26_1113,ExactRep-v3-final,2021.2.3,59.90384248459387,
,,,,,,,,,,,,63,0,63,0,,,,,,,,,,,,,,,,,,,,,,,,,,,,,,,,,,,,,,,,,,,,,,,,,1844.520155100152,None,,,,,,,,,,,,,,,,,,,,,,,,,,,,,,,,,,,,,,,,,,,,,,,,,,,,,,,,,queen,91,64,aloud,old,yellow,1843.2032359000295,None,y,1843.2032359000295,None,"['y', 'return']","[0.9495666995644569, 1.277615400031209]",1843.2032359000295,None,,,56,001,2023_Apr_26_1113,ExactRep-v3-final,2021.2.3,59.90384248459387,
,,,,,,,,,,,,64,0,64,0,,,,,,,,,,,,,,,,,,,,,,,,,,,,,,,,,,,,,,,,,,,,,,,,,1846.355197600089,None,,,,,,,,,,,,,,,,,,,,,,,,,,,,,,,,,,,,,,,,,,,,,,,,,,,,,,,,,excuse,22,65,sing,old,yellow,1845.0319143002853,None,y,1845.0319143002853,None,"['y', 'return']","[0.977144599892199, 1.2809669999405742]",1845.0319143002853,None,,,56,001,2023_Apr_26_1113,ExactRep-v3-final,2021.2.3,59.90384248459387,
,,,,,,,,,,,,65,0,65,0,,,,,,,,,,,,,,,,,,,,,,,,,,,,,,,,,,,,,,,,,,,,,,,,,1848.6741987997666,None,,,,,,,,,,,,,,,,,,,,,,,,,,,,,,,,,,,,,,,,,,,,,,,,,,,,,,,,,body,82,66,aloud,old,yellow,1846.8663895996287,None,y,1846.8663895996287,None,"['y', 'return']","[1.4465648997575045, 1.7665673000738025]",1846.8663895996287,None,,,56,001,2023_Apr_26_1113,ExactRep-v3-final,2021.2.3,59.90384248459387,
,,,,,,,,,,,,66,0,66,0,,,,,,,,,,,,,,,,,,,,,,,,,,,,,,,,,,,,,,,,,,,,,,,,,1850.442620200105,None,,,,,,,,,,,,,,,,,,,,,,,,,,,,,,,,,,,,,,,,,,,,,,,,,,,,,,,,,tree,14,67,sing,old,yellow,1849.1858879998326,None,y,1849.1858879998326,None,"['y', 'return']","[0.9110469007864594, 1.215098900720477]",1849.1858879998326,None,,,56,001,2023_Apr_26_1113,ExactRep-v3-final,2021.2.3,59.90384248459387,
,,,,,,,,,,,,67,0,67,0,,,,,,,,,,,,,,,,,,,,,,,,,,,,,,,,,,,,,,,,,,,,,,,,,1852.0276958998293,None,,,,,,,,,,,,,,,,,,,,,,,,,,,,,,,,,,,,,,,,,,,,,,,,,,,,,,,,,winter,120,68,silent,new,yellow,1850.958571399562,None,n,1850.958571399562,None,"['n', 'return']","[0.7863640999421477, 1.0262666000053287]",1850.958571399562,None,,,56,001,2023_Apr_26_1113,ExactRep-v3-final,2021.2.3,59.90384248459387,
,,,,,,,,,,,,68,0,68,0,,,,,,,,,,,,,,,,,,,,,,,,,,,,,,,,,,,,,,,,,,,,,,,,,1853.6459755003452,None,,,,,,,,,,,,,,,,,,,,,,,,,,,,,,,,,,,,,,,,,,,,,,,,,,,,,,,,,victory,94,69,aloud,old,yellow,1852.5385344997048,None,n,1852.5385344997048,None,"['n', 'return']","[0.7983470996841788, 1.062394100241363]",1852.5385344997048,None,,,56,001,2023_Apr_26_1113,ExactRep-v3-final,2021.2.3,59.90384248459387,
,,,,,,,,,,,,69,0,69,0,,,,,,,,,,,,,,,,,,,,,,,,,,,,,,,,,,,,,,,,,,,,,,,,,1855.5143210999668,None,,,,,,,,,,,,,,,,,,,,,,,,,,,,,,,,,,,,,,,,,,,,,,,,,,,,,,,,,moral,48,70,silent,old,yellow,1854.1547392001376,None,y,1854.1547392001376,None,"['y', 'return']","[1.0302435997873545, 1.3181721000000834]",1854.1547392001376,None,,,56,001,2023_Apr_26_1113,ExactRep-v3-final,2021.2.3,59.90384248459387,
,,,,,,,,,,,,70,0,70,0,,,,,,,,,,,,,,,,,,,,,,,,,,,,,,,,,,,,,,,,,,,,,,,,,1857.0993884000927,None,,,,,,,,,,,,,,,,,,,,,,,,,,,,,,,,,,,,,,,,,,,,,,,,,,,,,,,,,money,38,71,sing,old,yellow,1856.0249801995233,None,y,1856.0249801995233,None,"['y', 'return']","[0.7600063001736999, 1.0318809999153018]",1856.0249801995233,None,,,56,001,2023_Apr_26_1113,ExactRep-v3-final,2021.2.3,59.90384248459387,
,,,,,,,,,,,,71,0,71,0,,,,,,,,,,,,,,,,,,,,,,,,,,,,,,,,,,,,,,,,,,,,,,,,,1859.4016843000427,None,,,,,,,,,,,,,,,,,,,,,,,,,,,,,,,,,,,,,,,,,,,,,,,,,,,,,,,,,prayer,190,72,aloud,new,yellow,1857.609097899869,None,n,1857.609097899869,None,"['n', 'return']","[1.503782500512898, 1.7518698005005717]",1857.609097899869,None,,,56,001,2023_Apr_26_1113,ExactRep-v3-final,2021.2.3,59.90384248459387,
,,,,,,,,,,,,72,0,72,0,,,,,,,,,,,,,,,,,,,,,,,,,,,,,,,,,,,,,,,,,,,,,,,,,1861.0867183003575,None,,,,,,,,,,,,,,,,,,,,,,,,,,,,,,,,,,,,,,,,,,,,,,,,,,,,,,,,,lake,221,73,sing,new,yellow,1859.9115821998566,None,n,1859.9115821998566,None,"['n', 'return']","[0.8734430000185966, 1.1294564008712769]",1859.9115821998566,None,,,56,001,2023_Apr_26_1113,ExactRep-v3-final,2021.2.3,59.90384248459387,
,,,,,,,,,,,,73,0,73,0,,,,,,,,,,,,,,,,,,,,,,,,,,,,,,,,,,,,,,,,,,,,,,,,,1863.8572666998953,None,,,,,,,,,,,,,,,,,,,,,,,,,,,,,,,,,,,,,,,,,,,,,,,,,,,,,,,,,safety,71,74,silent,old,yellow,1861.5949007002637,None,n,1861.5949007002637,None,"['n', 'return']","[1.942247699946165, 2.21403990034014]",1861.5949007002637,None,,,56,001,2023_Apr_26_1113,ExactRep-v3-final,2021.2.3,59.90384248459387,
,,,,,,,,,,,,74,0,74,0,,,,,,,,,,,,,,,,,,,,,,,,,,,,,,,,,,,,,,,,,,,,,,,,,1865.5410478999838,None,,,,,,,,,,,,,,,,,,,,,,,,,,,,,,,,,,,,,,,,,,,,,,,,,,,,,,,,,death,214,75,aloud,new,yellow,1864.3658777000383,None,y,1864.3658777000383,None,"['y', 'return']","[0.8351027006283402, 1.130999700166285]",1864.3658777000383,None,,,56,001,2023_Apr_26_1113,ExactRep-v3-final,2021.2.3,59.90384248459387,
,,,,,,,,,,,,75,0,75,0,,,,,,,,,,,,,,,,,,,,,,,,,,,,,,,,,,,,,,,,,,,,,,,,,1867.192720499821,None,,,,,,,,,,,,,,,,,,,,,,,,,,,,,,,,,,,,,,,,,,,,,,,,,,,,,,,,,month,40,76,silent,old,yellow,1866.0508330995217,None,y,1866.0508330995217,None,"['y', 'return']","[0.806117900647223, 1.1101494003087282]",1866.0508330995217,None,,,56,001,2023_Apr_26_1113,ExactRep-v3-final,2021.2.3,59.90384248459387,
,,,,,,,,,,,,76,0,76,0,,,,,,,,,,,,,,,,,,,,,,,,,,,,,,,,,,,,,,,,,,,,,,,,,1868.977846099995,None,,,,,,,,,,,,,,,,,,,,,,,,,,,,,,,,,,,,,,,,,,,,,,,,,,,,,,,,,hide,92,77,aloud,old,yellow,1867.707839500159,None,y,1867.707839500159,None,"['y', 'return']","[0.9330276995897293, 1.229033999145031]",1867.707839500159,None,,,56,001,2023_Apr_26_1113,ExactRep-v3-final,2021.2.3,59.90384248459387,
,,,,,,,,,,,,77,0,77,0,,,,,,,,,,,,,,,,,,,,,,,,,,,,,,,,,,,,,,,,,,,,,,,,,1871.213361799717,None,,,,,,,,,,,,,,,,,,,,,,,,,,,,,,,,,,,,,,,,,,,,,,,,,,,,,,,,,palace,147,78,silent,new,yellow,1869.4855154994875,None,n,1869.4855154994875,None,"['n', 'return']","[1.3957218006253242, 1.6833193004131317]",1869.4855154994875,None,,,56,001,2023_Apr_26_1113,ExactRep-v3-final,2021.2.3,59.90384248459387,
,,,,,,,,,,,,78,0,78,0,,,,,,,,,,,,,,,,,,,,,,,,,,,,,,,,,,,,,,,,,,,,,,,,,1873.115293700248,None,,,,,,,,,,,,,,,,,,,,,,,,,,,,,,,,,,,,,,,,,,,,,,,,,,,,,,,,,village,132,79,silent,new,yellow,1871.7301920000464,None,y,1871.7301920000464,None,"['y', 'return']","[1.0547537999227643, 1.3507800996303558]",1871.7301920000464,None,,,56,001,2023_Apr_26_1113,ExactRep-v3-final,2021.2.3,59.90384248459387,
,,,,,,,,,,,,79,0,79,0,,,,,,,,,,,,,,,,,,,,,,,,,,,,,,,,,,,,,,,,,,,,,,,,,1875.150673800148,None,,,,,,,,,,,,,,,,,,,,,,,,,,,,,,,,,,,,,,,,,,,,,,,,,,,,,,,,,arm,75,80,silent,old,yellow,1873.6181316003203,None,n,1873.6181316003203,None,"['n', 'return']","[1.2067430997267365, 1.4948319997638464]",1873.6181316003203,None,,,56,001,2023_Apr_26_1113,ExactRep-v3-final,2021.2.3,59.90384248459387,
,,,,,,,,,,,,80,0,80,0,,,,,,,,,,,,,,,,,,,,,,,,,,,,,,,,,,,,,,,,,,,,,,,,,1876.7730638002977,None,,,,,,,,,,,,,,,,,,,,,,,,,,,,,,,,,,,,,,,,,,,,,,,,,,,,,,,,,shock,183,81,sing,new,yellow,1875.6579064996913,None,n,1875.6579064996913,None,"['n', 'return']","[0.7029818994924426, 1.0629346994683146]",1875.6579064996913,None,,,56,001,2023_Apr_26_1113,ExactRep-v3-final,2021.2.3,59.90384248459387,
,,,,,,,,,,,,81,0,81,0,,,,,,,,,,,,,,,,,,,,,,,,,,,,,,,,,,,,,,,,,,,,,,,,,1878.4103159997612,None,,,,,,,,,,,,,,,,,,,,,,,,,,,,,,,,,,,,,,,,,,,,,,,,,,,,,,,,,water,184,82,aloud,new,yellow,1877.2876046001911,None,n,1877.2876046001911,None,"['n', 'return']","[0.7613639999181032, 1.0733308997005224]",1877.2876046001911,None,,,56,001,2023_Apr_26_1113,ExactRep-v3-final,2021.2.3,59.90384248459387,
,,,,,,,,,,,,82,0,82,0,,,,,,,,,,,,,,,,,,,,,,,,,,,,,,,,,,,,,,,,,,,,,,,,,1880.2890513995662,None,,,,,,,,,,,,,,,,,,,,,,,,,,,,,,,,,,,,,,,,,,,,,,,,,,,,,,,,,cost,17,83,sing,old,yellow,1878.9282927000895,None,y,1878.9282927000895,None,"['y', 'return']","[1.0007282001897693, 1.3126902002841234]",1878.9282927000895,None,,,56,001,2023_Apr_26_1113,ExactRep-v3-final,2021.2.3,59.90384248459387,
,,,,,,,,,,,,83,0,83,0,,,,,,,,,,,,,,,,,,,,,,,,,,,,,,,,,,,,,,,,,,,,,,,,,1882.6581689994782,None,,,,,,,,,,,,,,,,,,,,,,,,,,,,,,,,,,,,,,,,,,,,,,,,,,,,,,,,,ability,34,84,sing,old,yellow,1880.8019302003086,None,y,1880.8019302003086,None,"['y', 'return']","[1.0951102003455162, 1.8231784999370575]",1880.8019302003086,None,,,56,001,2023_Apr_26_1113,ExactRep-v3-final,2021.2.3,59.90384248459387,
,,,,,,,,,,,,84,0,84,0,,,,,,,,,,,,,,,,,,,,,,,,,,,,,,,,,,,,,,,,,,,,,,,,,1884.4933335995302,None,,,,,,,,,,,,,,,,,,,,,,,,,,,,,,,,,,,,,,,,,,,,,,,,,,,,,,,,,fact,196,85,aloud,new,yellow,1883.1660783998668,None,n,1883.1660783998668,None,"['n', 'return']","[1.0030592996627092, 1.2828366002067924]",1883.1660783998668,None,,,56,001,2023_Apr_26_1113,ExactRep-v3-final,2021.2.3,59.90384248459387,
,,,,,,,,,,,,85,0,85,0,,,,,,,,,,,,,,,,,,,,,,,,,,,,,,,,,,,,,,,,,,,,,,,,,1889.2481188997626,None,,,,,,,,,,,,,,,,,,,,,,,,,,,,,,,,,,,,,,,,,,,,,,,,,,,,,,,,,corner,52,86,silent,old,yellow,1885.005836199969,None,y,1885.005836199969,None,"['y', 'return']","[3.89121610019356, 4.195134500041604]",1885.005836199969,None,,,56,001,2023_Apr_26_1113,ExactRep-v3-final,2021.2.3,59.90384248459387,
,,,,,,,,,,,,86,0,86,0,,,,,,,,,,,,,,,,,,,,,,,,,,,,,,,,,,,,,,,,,,,,,,,,,1890.884965499863,None,,,,,,,,,,,,,,,,,,,,,,,,,,,,,,,,,,,,,,,,,,,,,,,,,,,,,,,,,street,236,87,aloud,new,yellow,1889.7509156996384,None,y,1889.7509156996384,None,"['y', 'return']","[0.7940407004207373, 1.0899652000516653]",1889.7509156996384,None,,,56,001,2023_Apr_26_1113,ExactRep-v3-final,2021.2.3,59.90384248459387,
,,,,,,,,,,,,87,0,87,0,,,,,,,,,,,,,,,,,,,,,,,,,,,,,,,,,,,,,,,,,,,,,,,,,1892.5346437999979,None,,,,,,,,,,,,,,,,,,,,,,,,,,,,,,,,,,,,,,,,,,,,,,,,,,,,,,,,,health,44,88,silent,old,yellow,1891.4115693001077,None,y,1891.4115693001077,None,"['y', 'return']","[0.8215461000800133, 1.0854158997535706]",1891.4115693001077,None,,,56,001,2023_Apr_26_1113,ExactRep-v3-final,2021.2.3,59.90384248459387,
,,,,,,,,,,,,88,0,88,0,,,,,,,,,,,,,,,,,,,,,,,,,,,,,,,,,,,,,,,,,,,,,,,,,1894.3199193999171,None,,,,,,,,,,,,,,,,,,,,,,,,,,,,,,,,,,,,,,,,,,,,,,,,,,,,,,,,,string,26,89,sing,old,yellow,1893.0522649995983,None,y,1893.0522649995983,None,"['y', 'return']","[0.908687099814415, 1.2286955993622541]",1893.0522649995983,None,,,56,001,2023_Apr_26_1113,ExactRep-v3-final,2021.2.3,59.90384248459387,
,,,,,,,,,,,,89,0,89,0,,,,,,,,,,,,,,,,,,,,,,,,,,,,,,,,,,,,,,,,,,,,,,,,,1895.9883382003754,None,,,,,,,,,,,,,,,,,,,,,,,,,,,,,,,,,,,,,,,,,,,,,,,,,,,,,,,,,dress,145,90,silent,new,yellow,1894.829690599814,None,n,1894.829690599814,None,"['n', 'return']","[0.8913499005138874, 1.123397900722921]",1894.829690599814,None,,,56,001,2023_Apr_26_1113,ExactRep-v3-final,2021.2.3,59.90384248459387,
,,,,,,,,,,,,90,0,90,0,,,,,,,,,,,,,,,,,,,,,,,,,,,,,,,,,,,,,,,,,,,,,,,,,1897.6399614997208,None,,,,,,,,,,,,,,,,,,,,,,,,,,,,,,,,,,,,,,,,,,,,,,,,,,,,,,,,,cotton,191,91,sing,new,yellow,1896.497912099585,None,n,1896.497912099585,None,"['n', 'return']","[0.8391487998887897, 1.1030985992401838]",1896.497912099585,None,,,56,001,2023_Apr_26_1113,ExactRep-v3-final,2021.2.3,59.90384248459387,
,,,,,,,,,,,,91,0,91,0,,,,,,,,,,,,,,,,,,,,,,,,,,,,,,,,,,,,,,,,,,,,,,,,,1899.424851000309,None,,,,,,,,,,,,,,,,,,,,,,,,,,,,,,,,,,,,,,,,,,,,,,,,,,,,,,,,,house,6,92,sing,old,yellow,1898.1434031995013,None,y,1898.1434031995013,None,"['y', 'return']","[0.9615756999701262, 1.2416457999497652]",1898.1434031995013,None,,,56,001,2023_Apr_26_1113,ExactRep-v3-final,2021.2.3,59.90384248459387,
,,,,,,,,,,,,92,0,92,0,,,,,,,,,,,,,,,,,,,,,,,,,,,,,,,,,,,,,,,,,,,,,,,,,1901.6105166999623,None,,,,,,,,,,,,,,,,,,,,,,,,,,,,,,,,,,,,,,,,,,,,,,,,,,,,,,,,,mercy,128,93,silent,new,yellow,1899.93314309977,None,n,1899.93314309977,None,"['n', 'return']","[1.4038909999653697, 1.6437314003705978]",1899.93314309977,None,,,56,001,2023_Apr_26_1113,ExactRep-v3-final,2021.2.3,59.90384248459387,
,,,,,,,,,,,,93,0,93,0,,,,,,,,,,,,,,,,,,,,,,,,,,,,,,,,,,,,,,,,,,,,,,,,,1903.4288582000881,None,,,,,,,,,,,,,,,,,,,,,,,,,,,,,,,,,,,,,,,,,,,,,,,,,,,,,,,,,animal,28,94,sing,old,yellow,1902.1252675997093,None,y,1902.1252675997093,None,"['y', 'return']","[0.987750600092113, 1.2677164999768138]",1902.1252675997093,None,,,56,001,2023_Apr_26_1113,ExactRep-v3-final,2021.2.3,59.90384248459387,
,,,,,,,,,,,,94,0,94,0,,,,,,,,,,,,,,,,,,,,,,,,,,,,,,,,,,,,,,,,,,,,,,,,,1905.3809147002175,None,,,,,,,,,,,,,,,,,,,,,,,,,,,,,,,,,,,,,,,,,,,,,,,,,,,,,,,,,kiss,107,95,aloud,old,yellow,1903.9399479003623,None,y,1903.9399479003623,None,"['y', 'return']","[1.0770965004339814, 1.4051198000088334]",1903.9399479003623,None,,,56,001,2023_Apr_26_1113,ExactRep-v3-final,2021.2.3,59.90384248459387,
,,,,,,,,,,,,95,0,95,0,,,,,,,,,,,,,,,,,,,,,,,,,,,,,,,,,,,,,,,,,,,,,,,,,1907.1160457003862,None,,,,,,,,,,,,,,,,,,,,,,,,,,,,,,,,,,,,,,,,,,,,,,,,,,,,,,,,,lip,93,96,aloud,old,yellow,1905.8920114003122,None,y,1905.8920114003122,None,"['y', 'return']","[0.9008003994822502, 1.180855100043118]",1905.8920114003122,None,,,56,001,2023_Apr_26_1113,ExactRep-v3-final,2021.2.3,59.90384248459387,
,,,,,,,,,,,,96,0,96,0,,,,,,,,,,,,,,,,,,,,,,,,,,,,,,,,,,,,,,,,,,,,,,,,,1911.5704888999462,None,,,,,,,,,,,,,,,,,,,,,,,,,,,,,,,,,,,,,,,,,,,,,,,,,,,,,,,,,silence,237,97,sing,new,yellow,1907.6254243003204,None,n,1907.6254243003204,None,"['n', 'return']","[3.6235272996127605, 3.9115340998396277]",1907.6254243003204,None,,,56,001,2023_Apr_26_1113,ExactRep-v3-final,2021.2.3,59.90384248459387,
,,,,,,,,,,,,97,0,97,0,,,,,,,,,,,,,,,,,,,,,,,,,,,,,,,,,,,,,,,,,,,,,,,,,1913.2720374995843,None,,,,,,,,,,,,,,,,,,,,,,,,,,,,,,,,,,,,,,,,,,,,,,,,,,,,,,,,,car,97,98,aloud,old,yellow,1912.0848452998325,None,y,1912.0848452998325,None,"['y', 'return']","[0.8122680997475982, 1.1482150005176663]",1912.0848452998325,None,,,56,001,2023_Apr_26_1113,ExactRep-v3-final,2021.2.3,59.90384248459387,
,,,,,,,,,,,,98,0,98,0,,,,,,,,,,,,,,,,,,,,,,,,,,,,,,,,,,,,,,,,,,,,,,,,,1915.0404800996184,None,,,,,,,,,,,,,,,,,,,,,,,,,,,,,,,,,,,,,,,,,,,,,,,,,,,,,,,,,slave,219,99,sing,new,yellow,1913.7879408998415,None,n,1913.7879408998415,None,"['n', 'return']","[0.9489823998883367, 1.2049342999234796]",1913.7879408998415,None,,,56,001,2023_Apr_26_1113,ExactRep-v3-final,2021.2.3,59.90384248459387,
,,,,,,,,,,,,99,0,99,0,,,,,,,,,,,,,,,,,,,,,,,,,,,,,,,,,,,,,,,,,,,,,,,,,1916.608723799698,None,,,,,,,,,,,,,,,,,,,,,,,,,,,,,,,,,,,,,,,,,,,,,,,,,,,,,,,,,girl,203,100,sing,new,yellow,1915.5487820003182,None,n,1915.5487820003182,None,"['n', 'return']","[0.7481736000627279, 1.0282856998965144]",1915.5487820003182,None,,,56,001,2023_Apr_26_1113,ExactRep-v3-final,2021.2.3,59.90384248459387,
,,,,,,,,,,,,100,0,100,0,,,,,,,,,,,,,,,,,,,,,,,,,,,,,,,,,,,,,,,,,,,,,,,,,1918.3104199999943,None,,,,,,,,,,,,,,,,,,,,,,,,,,,,,,,,,,,,,,,,,,,,,,,,,,,,,,,,,doll,188,101,aloud,new,yellow,1917.112686299719,None,n,1917.112686299719,None,"['n', 'return']","[0.8644441002979875, 1.1603909004479647]",1917.112686299719,None,,,56,001,2023_Apr_26_1113,ExactRep-v3-final,2021.2.3,59.90384248459387,
,,,,,,,,,,,,101,0,101,0,,,,,,,,,,,,,,,,,,,,,,,,,,,,,,,,,,,,,,,,,,,,,,,,,1919.92867129948,None,,,,,,,,,,,,,,,,,,,,,,,,,,,,,,,,,,,,,,,,,,,,,,,,,,,,,,,,,fun,151,102,silent,new,yellow,1918.8185363998637,None,n,1918.8185363998637,None,"['n', 'return']","[0.8065635999664664, 1.0624352004379034]",1918.8185363998637,None,,,56,001,2023_Apr_26_1113,ExactRep-v3-final,2021.2.3,59.90384248459387,
,,,,,,,,,,,,102,0,102,0,,,,,,,,,,,,,,,,,,,,,,,,,,,,,,,,,,,,,,,,,,,,,,,,,1922.3163897003978,None,,,,,,,,,,,,,,,,,,,,,,,,,,,,,,,,,,,,,,,,,,,,,,,,,,,,,,,,,journal,59,103,silent,old,yellow,1920.438683300279,None,y,1920.438683300279,None,"['y', 'y', 'return']","[1.114178099669516, 1.4504049997776747, 1.8422915004193783]",1920.438683300279,None,,,56,001,2023_Apr_26_1113,ExactRep-v3-final,2021.2.3,59.90384248459387,
,,,,,,,,,,,,103,0,103,0,,,,,,,,,,,,,,,,,,,,,,,,,,,,,,,,,,,,,,,,,,,,,,,,,1924.0327984001487,None,,,,,,,,,,,,,,,,,,,,,,,,,,,,,,,,,,,,,,,,,,,,,,,,,,,,,,,,,fault,119,104,aloud,old,yellow,1922.8395942002535,None,y,1922.8395942002535,None,"['y', 'return']","[0.8894946007058024, 1.1613875003531575]",1922.8395942002535,None,,,56,001,2023_Apr_26_1113,ExactRep-v3-final,2021.2.3,59.90384248459387,
,,,,,,,,,,,,104,0,104,0,,,,,,,,,,,,,,,,,,,,,,,,,,,,,,,,,,,,,,,,,,,,,,,,,1925.7011492997408,None,,,,,,,,,,,,,,,,,,,,,,,,,,,,,,,,,,,,,,,,,,,,,,,,,,,,,,,,,brain,186,105,aloud,new,yellow,1924.538421499543,None,n,1924.538421499543,None,"['n', 'return']","[0.8386347005143762, 1.1265858998522162]",1924.538421499543,None,,,56,001,2023_Apr_26_1113,ExactRep-v3-final,2021.2.3,59.90384248459387,
,,,,,,,,,,,,105,0,105,0,,,,,,,,,,,,,,,,,,,,,,,,,,,,,,,,,,,,,,,,,,,,,,,,,1927.2360944999382,None,,,,,,,,,,,,,,,,,,,,,,,,,,,,,,,,,,,,,,,,,,,,,,,,,,,,,,,,,pupil,204,106,aloud,new,yellow,1926.2147524999455,None,n,1926.2147524999455,None,"['n', 'return']","[0.7302615996450186, 0.9863421991467476]",1926.2147524999455,None,,,56,001,2023_Apr_26_1113,ExactRep-v3-final,2021.2.3,59.90384248459387,
,,,,,,,,,,,,106,0,106,0,,,,,,,,,,,,,,,,,,,,,,,,,,,,,,,,,,,,,,,,,,,,,,,,,1928.974310300313,None,,,,,,,,,,,,,,,,,,,,,,,,,,,,,,,,,,,,,,,,,,,,,,,,,,,,,,,,,maiden,199,107,sing,new,yellow,1927.7428906997666,None,n,1927.7428906997666,None,"['n', 'return']","[0.9062299998477101, 1.1860508006066084]",1927.7428906997666,None,,,56,001,2023_Apr_26_1113,ExactRep-v3-final,2021.2.3,59.90384248459387,
,,,,,,,,,,,,107,0,107,0,,,,,,,,,,,,,,,,,,,,,,,,,,,,,,,,,,,,,,,,,,,,,,,,,1930.706164199859,None,,,,,,,,,,,,,,,,,,,,,,,,,,,,,,,,,,,,,,,,,,,,,,,,,,,,,,,,,toy,72,108,silent,old,yellow,1929.5008832998574,None,y,1929.5008832998574,None,"['y', 'return']","[0.8680937997996807, 1.1720203999429941]",1929.5008832998574,None,,,56,001,2023_Apr_26_1113,ExactRep-v3-final,2021.2.3,59.90384248459387,
,,,,,,,,,,,,108,0,108,0,,,,,,,,,,,,,,,,,,,,,,,,,,,,,,,,,,,,,,,,,,,,,,,,,1932.541473899968,None,,,,,,,,,,,,,,,,,,,,,,,,,,,,,,,,,,,,,,,,,,,,,,,,,,,,,,,,,judge,131,109,silent,new,yellow,1931.2227942999452,None,n,1931.2227942999452,None,"['n', 'return']","[1.042153900489211, 1.282196699641645]",1931.2227942999452,None,,,56,001,2023_Apr_26_1113,ExactRep-v3-final,2021.2.3,59.90384248459387,
,,,,,,,,,,,,109,0,109,0,,,,,,,,,,,,,,,,,,,,,,,,,,,,,,,,,,,,,,,,,,,,,,,,,1934.2597864996642,None,,,,,,,,,,,,,,,,,,,,,,,,,,,,,,,,,,,,,,,,,,,,,,,,,,,,,,,,,party,136,110,silent,new,yellow,1933.0513340001926,None,n,1933.0513340001926,None,"['n', 'return']","[0.925700799562037, 1.1737019997090101]",1933.0513340001926,None,,,56,001,2023_Apr_26_1113,ExactRep-v3-final,2021.2.3,59.90384248459387,
,,,,,,,,,,,,110,0,110,0,,,,,,,,,,,,,,,,,,,,,,,,,,,,,,,,,,,,,,,,,,,,,,,,,1935.7613707995042,None,,,,,,,,,,,,,,,,,,,,,,,,,,,,,,,,,,,,,,,,,,,,,,,,,,,,,,,,,soul,39,111,silent,old,yellow,1934.7628245996311,None,n,1934.7628245996311,None,"['n', 'return']","[0.6862914003431797, 0.9662066008895636]",1934.7628245996311,None,,,56,001,2023_Apr_26_1113,ExactRep-v3-final,2021.2.3,59.90384248459387,
,,,,,,,,,,,,111,0,111,0,,,,,,,,,,,,,,,,,,,,,,,,,,,,,,,,,,,,,,,,,,,,,,,,,1937.3128241999075,None,,,,,,,,,,,,,,,,,,,,,,,,,,,,,,,,,,,,,,,,,,,,,,,,,,,,,,,,,church,60,112,silent,old,yellow,1936.2756471997127,None,n,1936.2756471997127,None,"['n', 'return']","[0.7171969003975391, 0.9892688002437353]",1936.2756471997127,None,,,56,001,2023_Apr_26_1113,ExactRep-v3-final,2021.2.3,59.90384248459387,
,,,,,,,,,,,,112,0,112,0,,,,,,,,,,,,,,,,,,,,,,,,,,,,,,,,,,,,,,,,,,,,,,,,,1939.16475190036,None,,,,,,,,,,,,,,,,,,,,,,,,,,,,,,,,,,,,,,,,,,,,,,,,,,,,,,,,,army,233,113,sing,new,yellow,1937.821466899477,None,n,1937.821466899477,None,"['n', 'return']","[0.8435076996684074, 1.2994821993634105]",1937.821466899477,None,,,56,001,2023_Apr_26_1113,ExactRep-v3-final,2021.2.3,59.90384248459387,
,,,,,,,,,,,,113,0,113,0,,,,,,,,,,,,,,,,,,,,,,,,,,,,,,,,,,,,,,,,,,,,,,,,,1940.7995394999161,None,,,,,,,,,,,,,,,,,,,,,,,,,,,,,,,,,,,,,,,,,,,,,,,,,,,,,,,,,plain,50,114,silent,old,yellow,1939.6758920997381,None,n,1939.6758920997381,None,"['n', 'return']","[0.7890379000455141, 1.0851924000307918]",1939.6758920997381,None,,,56,001,2023_Apr_26_1113,ExactRep-v3-final,2021.2.3,59.90384248459387,
,,,,,,,,,,,,114,0,114,0,,,,,,,,,,,,,,,,,,,,,,,,,,,,,,,,,,,,,,,,,,,,,,,,,1942.701718499884,None,,,,,,,,,,,,,,,,,,,,,,,,,,,,,,,,,,,,,,,,,,,,,,,,,,,,,,,,,hotel,192,115,aloud,new,yellow,1941.3160057002679,None,n,1941.3160057002679,None,"['n', 'return']","[1.092951999977231, 1.3490685997530818]",1941.3160057002679,None,,,56,001,2023_Apr_26_1113,ExactRep-v3-final,2021.2.3,59.90384248459387,
,,,,,,,,,,,,115,0,115,0,,,,,,,,,,,,,,,,,,,,,,,,,,,,,,,,,,,,,,,,,,,,,,,,,1944.8369321003556,None,,,,,,,,,,,,,,,,,,,,,,,,,,,,,,,,,,,,,,,,,,,,,,,,,,,,,,,,,speech,202,116,aloud,new,yellow,1943.2097939997911,None,n,1943.2097939997911,None,"['n', 'return']","[1.327211200259626, 1.5830985996872187]",1943.2097939997911,None,,,56,001,2023_Apr_26_1113,ExactRep-v3-final,2021.2.3,59.90384248459387,
,,,,,,,,,,,,116,0,116,0,,,,,,,,,,,,,,,,,,,,,,,,,,,,,,,,,,,,,,,,,,,,,,,,,1946.6554252998903,None,,,,,,,,,,,,,,,,,,,,,,,,,,,,,,,,,,,,,,,,,,,,,,,,,,,,,,,,,bar,115,117,aloud,old,yellow,1945.3467632001266,None,n,1945.3467632001266,None,"['n', 'return']","[0.9822068000212312, 1.2623028997331858]",1945.3467632001266,None,,,56,001,2023_Apr_26_1113,ExactRep-v3-final,2021.2.3,59.90384248459387,
,,,,,,,,,,,,117,0,117,0,,,,,,,,,,,,,,,,,,,,,,,,,,,,,,,,,,,,,,,,,,,,,,,,,1948.3404088998213,None,,,,,,,,,,,,,,,,,,,,,,,,,,,,,,,,,,,,,,,,,,,,,,,,,,,,,,,,,soil,73,118,silent,old,yellow,1947.158464299515,None,n,1947.158464299515,None,"['n', 'return']","[0.866563999094069, 1.1384681994095445]",1947.158464299515,None,,,56,001,2023_Apr_26_1113,ExactRep-v3-final,2021.2.3,59.90384248459387,
,,,,,,,,,,,,118,0,118,0,,,,,,,,,,,,,,,,,,,,,,,,,,,,,,,,,,,,,,,,,,,,,,,,,1950.0423138001934,None,,,,,,,,,,,,,,,,,,,,,,,,,,,,,,,,,,,,,,,,,,,,,,,,,,,,,,,,,freedom,125,119,silent,new,yellow,1948.8543776003644,None,n,1948.8543776003644,None,"['n', 'return']","[0.8827821994200349, 1.154761099256575]",1948.8543776003644,None,,,56,001,2023_Apr_26_1113,ExactRep-v3-final,2021.2.3,59.90384248459387,
,,,,,,,,,,,,119,0,119,0,,,,,,,,,,,,,,,,,,,,,,,,,,,,,,,,,,,,,,,,,,,,,,,,,1952.0776688000187,None,,,,,,,,,,,,,,,,,,,,,,,,,,,,,,,,,,,,,,,,,,,,,,,,,,,,,,,,,artist,70,120,silent,old,yellow,1950.5524377999827,None,y,1950.5524377999827,None,"['y', 'return']","[1.2006679000332952, 1.4805304994806647]",1950.5524377999827,None,,,56,001,2023_Apr_26_1113,ExactRep-v3-final,2021.2.3,59.90384248459387,
,,,,,,,,,,,,120,0,120,0,,,,,,,,,,,,,,,,,,,,,,,,,,,,,,,,,,,,,,,,,,,,,,,,,1953.7960540996864,None,,,,,,,,,,,,,,,,,,,,,,,,,,,,,,,,,,,,,,,,,,,,,,,,,,,,,,,,,iron,153,121,silent,new,yellow,1952.586683199741,None,n,1952.586683199741,None,"['n', 'return']","[0.8544594999402761, 1.1743462001904845]",1952.586683199741,None,,,56,001,2023_Apr_26_1113,ExactRep-v3-final,2021.2.3,59.90384248459387,
,,,,,,,,,,,,121,0,121,0,,,,,,,,,,,,,,,,,,,,,,,,,,,,,,,,,,,,,,,,,,,,,,,,,1955.3808204000816,None,,,,,,,,,,,,,,,,,,,,,,,,,,,,,,,,,,,,,,,,,,,,,,,,,,,,,,,,,crime,146,122,silent,new,yellow,1954.3057115999982,None,n,1954.3057115999982,None,"['n', 'return']","[0.7833282994106412, 1.031233599409461]",1954.3057115999982,None,,,56,001,2023_Apr_26_1113,ExactRep-v3-final,2021.2.3,59.90384248459387,
,,,,,,,,,,,,122,0,122,0,,,,,,,,,,,,,,,,,,,,,,,,,,,,,,,,,,,,,,,,,,,,,,,,,1957.115895099938,None,,,,,,,,,,,,,,,,,,,,,,,,,,,,,,,,,,,,,,,,,,,,,,,,,,,,,,,,,fortune,159,123,silent,new,yellow,1955.8891289997846,None,n,1955.8891289997846,None,"['n', 'return']","[0.9199974993243814, 1.183856399729848]",1955.8891289997846,None,,,56,001,2023_Apr_26_1113,ExactRep-v3-final,2021.2.3,59.90384248459387,
,,,,,,,,,,,,123,0,123,0,,,,,,,,,,,,,,,,,,,,,,,,,,,,,,,,,,,,,,,,,,,,,,,,,1958.9344539996237,None,,,,,,,,,,,,,,,,,,,,,,,,,,,,,,,,,,,,,,,,,,,,,,,,,,,,,,,,,temple,74,124,silent,old,yellow,1957.618955399841,None,y,1957.618955399841,None,"['y', 'return']","[0.9819959998130798, 1.2700511002913117]",1957.618955399841,None,,,56,001,2023_Apr_26_1113,ExactRep-v3-final,2021.2.3,59.90384248459387,
,,,,,,,,,,,,124,0,124,0,,,,,,,,,,,,,,,,,,,,,,,,,,,,,,,,,,,,,,,,,,,,,,,,,1960.7027650000528,None,,,,,,,,,,,,,,,,,,,,,,,,,,,,,,,,,,,,,,,,,,,,,,,,,,,,,,,,,meadow,80,125,aloud,old,yellow,1959.4406679999083,None,n,1959.4406679999083,None,"['n', 'return']","[0.952441499568522, 1.2163806995376945]",1959.4406679999083,None,,,56,001,2023_Apr_26_1113,ExactRep-v3-final,2021.2.3,59.90384248459387,
,,,,,,,,,,,,125,0,125,0,,,,,,,,,,,,,,,,,,,,,,,,,,,,,,,,,,,,,,,,,,,,,,,,,1962.3210583003238,None,,,,,,,,,,,,,,,,,,,,,,,,,,,,,,,,,,,,,,,,,,,,,,,,,,,,,,,,,ocean,229,126,sing,new,yellow,1961.2057373998687,None,n,1961.2057373998687,None,"['n', 'return']","[0.7792985998094082, 1.0673366002738476]",1961.2057373998687,None,,,56,001,2023_Apr_26_1113,ExactRep-v3-final,2021.2.3,59.90384248459387,
,,,,,,,,,,,,126,0,126,0,,,,,,,,,,,,,,,,,,,,,,,,,,,,,,,,,,,,,,,,,,,,,,,,,1964.00617699977,None,,,,,,,,,,,,,,,,,,,,,,,,,,,,,,,,,,,,,,,,,,,,,,,,,,,,,,,,,corn,123,127,silent,new,yellow,1962.8321749996394,None,n,1962.8321749996394,None,"['n', 'return']","[0.9049154995009303, 1.136845299974084]",1962.8321749996394,None,,,56,001,2023_Apr_26_1113,ExactRep-v3-final,2021.2.3,59.90384248459387,
,,,,,,,,,,,,127,0,127,0,,,,,,,,,,,,,,,,,,,,,,,,,,,,,,,,,,,,,,,,,,,,,,,,,1965.6744702002034,None,,,,,,,,,,,,,,,,,,,,,,,,,,,,,,,,,,,,,,,,,,,,,,,,,,,,,,,,,doctor,213,128,sing,new,yellow,1964.520325199701,None,n,1964.520325199701,None,"['n', 'return']","[0.8407212002202868, 1.120677400380373]",1964.520325199701,None,,,56,001,2023_Apr_26_1113,ExactRep-v3-final,2021.2.3,59.90384248459387,
,,,,,,,,,,,,128,0,128,0,,,,,,,,,,,,,,,,,,,,,,,,,,,,,,,,,,,,,,,,,,,,,,,,,1967.309302999638,None,,,,,,,,,,,,,,,,,,,,,,,,,,,,,,,,,,,,,,,,,,,,,,,,,,,,,,,,,butter,185,129,sing,new,yellow,1966.1821101000533,None,n,1966.1821101000533,None,"['n', 'return']","[0.8670324003323913, 1.0827664006501436]",1966.1821101000533,None,,,56,001,2023_Apr_26_1113,ExactRep-v3-final,2021.2.3,59.90384248459387,
,,,,,,,,,,,,129,0,129,0,,,,,,,,,,,,,,,,,,,,,,,,,,,,,,,,,,,,,,,,,,,,,,,,,1969.4783514002338,None,,,,,,,,,,,,,,,,,,,,,,,,,,,,,,,,,,,,,,,,,,,,,,,,,,,,,,,,,sky,117,130,aloud,old,yellow,1967.8245737003163,None,y,1967.8245737003163,None,"['y', 'return']","[1.2884817998856306, 1.6084889005869627]",1967.8245737003163,None,,,56,001,2023_Apr_26_1113,ExactRep-v3-final,2021.2.3,59.90384248459387,
,,,,,,,,,,,,130,0,130,0,,,,,,,,,,,,,,,,,,,,,,,,,,,,,,,,,,,,,,,,,,,,,,,,,1971.2133103003725,None,,,,,,,,,,,,,,,,,,,,,,,,,,,,,,,,,,,,,,,,,,,,,,,,,,,,,,,,,bird,194,131,aloud,new,yellow,1969.9856930999085,None,n,1969.9856930999085,None,"['n', 'return']","[0.9514200007542968, 1.19145190063864]",1969.9856930999085,None,,,56,001,2023_Apr_26_1113,ExactRep-v3-final,2021.2.3,59.90384248459387,
