trials_fam.thisRepN,trials_fam.thisTrialN,trials_fam.thisN,trials_fam.thisIndex,trials_prc.thisRepN,trials_prc.thisTrialN,trials_prc.thisN,trials_prc.thisIndex,StudyLoop.thisRepN,StudyLoop.thisTrialN,StudyLoop.thisN,StudyLoop.thisIndex,TestLoop.thisRepN,TestLoop.thisTrialN,TestLoop.thisN,TestLoop.thisIndex,text_colortest.started,text_colortest.stopped,key_colortest.keys,key_colortest.rt,key_colortest.started,key_colortest.stopped,textCondition.started,textCondition.stopped,keyCondition.keys,keyCondition.rt,keyCondition.started,keyCondition.stopped,Condition_between,Condition_counterbal,keyWelcome.keys,keyWelcome.rt,keyWelcome.started,keyWelcome.stopped,welcome_a.started,welcome_a.stopped,welcome_b.started,welcome_b.stopped,welcome_c.started,welcome_c.stopped,welcome_d.started,welcome_d.stopped,welcome_e.started,welcome_e.stopped,welcome_f.started,welcome_f.stopped,key_resp_fam_inst.keys,key_resp_fam_inst.rt,key_resp_fam_inst.started,key_resp_fam_inst.stopped,fam_a.started,fam_a.stopped,fam_b.started,fam_b.stopped,fam_c.started,fam_c.stopped,fam_d.started,fam_d.stopped,fam_e.started,fam_e.stopped,fam_f.started,fam_f.stopped,text_famil.started,text_famil.stopped,textBlank500.started,textBlank500.stopped,key_resp_prc_inst.keys,key_resp_prc_inst.rt,key_resp_prc_inst.started,key_resp_prc_inst.stopped,prac_a.started,prac_a.stopped,prac_b.started,prac_b.stopped,prac_c.started,prac_c.stopped,prac_d.started,prac_d.stopped,prac_e.started,prac_e.stopped,prac_f.started,prac_f.stopped,text_prc_trial.started,text_prc_trial.stopped,key_resp_study_inst.keys,key_resp_study_inst.rt,key_resp_study_inst.started,key_resp_study_inst.stopped,crit_a.started,crit_a.stopped,crit_b.started,crit_b.stopped,crit_c.started,crit_c.stopped,crit_d.started,crit_d.stopped,crit_e.started,crit_e.stopped,crit_f.started,crit_f.stopped,study_word,study_num,study_order,study_type,word_color,textStudy.started,textStudy.stopped,keyStudy.keys,keyStudy.started,keyStudy.stopped,post_study.started,post_study.stopped,key_resp_post_study.keys,key_resp_post_study.rt,key_resp_post_study.started,key_resp_post_study.stopped,test_inst.started,test_inst.stopped,key_resp_test_inst.keys,key_resp_test_inst.rt,key_resp_test_inst.started,key_resp_test_inst.stopped,test_word,test_num,test_order,test_condition,old_new_test,word_color_test,textConf.started,textConf.stopped,Participant Response,textInput.started,textInput.stopped,keyResp.keys,keyResp.rt,keyResp.started,keyResp.stopped,textEnd.started,textEnd.stopped,participant,session,date,expName,psychopyVersion,frameRate,
,,,,,,,,,,,,,,,,25.428725000470877,None,n,8.785201099701226,25.428725000470877,None,,,,,,,,,,,,,,,,,,,,,,,,,,,,,,,,,,,,,,,,,,,,,,,,,,,,,,,,,,,,,,,,,,,,,,,,,,,,,,,,,,,,,,,,,,,,,,,,,,,,,,,,,,,,,,,,,,,,,,57NC,001,2023_Apr_26_1643,ExactRep-v3-final,2021.2.3,59.946719564073405,
,,,,,,,,,,,,,,,,,,,,,,34.24015800002962,None,c,3.349448800086975,34.24015800002962,None,,,,,,,,,,,,,,,,,,,,,,,,,,,,,,,,,,,,,,,,,,,,,,,,,,,,,,,,,,,,,,,,,,,,,,,,,,,,,,,,,,,,,,,,,,,,,,,,,,,,,,,,,,,,,,,,57NC,001,2023_Apr_26_1643,ExactRep-v3-final,2021.2.3,59.946719564073405,
,,,,,,,,,,,,,,,,,,,,,,,,,,,,whitefoils,c,space,2612.7929053008556,47.719642200507224,None,,,,,,,,,,,,,,,,,,,,,,,,,,,,,,,,,,,,,,,,,,,,,,,,,,,,,,,,,,,,,,,,,,,,,,,,,,,,,,,,,,,,,,,,,,,,,,,,,,,,,,,,,,57NC,001,2023_Apr_26_1643,ExactRep-v3-final,2021.2.3,59.946719564073405,
,,,,,,,,,,,,,,,,,,,,,,,,,,,,,,,,,,37.782527199946344,None,37.782527199946344,None,37.782527199946344,None,37.782527199946344,None,37.782527199946344,None,37.782527199946344,None,space,16.60711370036006,2670.66520259995,None,,,,,,,,,,,,,,,,,,,,,,,,,,,,,,,,,,,,,,,,,,,,,,,,,,,,,,,,,,,,,,,,,,,,,,,,,,,,,,,,,,,,,,,,,,57NC,001,2023_Apr_26_1643,ExactRep-v3-final,2021.2.3,59.946719564073405,
0,0,0,0,,,,,,,,,,,,,,,,,,,,,,,,,,,,,,,,,,,,,,,,,,,,,,,2660.705848599784,None,2660.705848599784,None,2660.705848599784,None,2660.705848599784,None,2660.705848599784,None,2660.705848599784,None,2687.364683200605,None,2689.3614051006734,None,,,,,,,,,,,,,,,,,,,,,,,,,,,,,,,,,,,,,,,,,,,,,,,,,,,,,,,,,,,,,,,,,,,,,,,,,,57NC,001,2023_Apr_26_1643,ExactRep-v3-final,2021.2.3,59.946719564073405,
1,0,1,0,,,,,,,,,,,,,,,,,,,,,,,,,,,,,,,,,,,,,,,,,,,,,,,,,,,,,,,,,,,2689.8778690006584,None,2691.880627799779,None,,,,,,,,,,,,,,,,,,,,,,,,,,,,,,,,,,,,,,,,,,,,,,,,,,,,,,,,,,,,,,,,,,,,,,,,,,57NC,001,2023_Apr_26_1643,ExactRep-v3-final,2021.2.3,59.946719564073405,
2,0,2,0,,,,,,,,,,,,,,,,,,,,,,,,,,,,,,,,,,,,,,,,,,,,,,,,,,,,,,,,,,,2692.381177900359,None,2694.3833301998675,None,,,,,,,,,,,,,,,,,,,,,,,,,,,,,,,,,,,,,,,,,,,,,,,,,,,,,,,,,,,,,,,,,,,,,,,,,,57NC,001,2023_Apr_26_1643,ExactRep-v3-final,2021.2.3,59.946719564073405,
3,0,3,0,,,,,,,,,,,,,,,,,,,,,,,,,,,,,,,,,,,,,,,,,,,,,,,,,,,,,,,,,,,2694.883846499957,None,2696.8856309000403,None,,,,,,,,,,,,,,,,,,,,,,,,,,,,,,,,,,,,,,,,,,,,,,,,,,,,,,,,,,,,,,,,,,,,,,,,,,57NC,001,2023_Apr_26_1643,ExactRep-v3-final,2021.2.3,59.946719564073405,
4,0,4,0,,,,,,,,,,,,,,,,,,,,,,,,,,,,,,,,,,,,,,,,,,,,,,,,,,,,,,,,,,,2697.38655559998,None,2699.3879139004275,None,,,,,,,,,,,,,,,,,,,,,,,,,,,,,,,,,,,,,,,,,,,,,,,,,,,,,,,,,,,,,,,,,,,,,,,,,,57NC,001,2023_Apr_26_1643,ExactRep-v3-final,2021.2.3,59.946719564073405,
5,0,5,0,,,,,,,,,,,,,,,,,,,,,,,,,,,,,,,,,,,,,,,,,,,,,,,,,,,,,,,,,,,2699.910234199837,None,2701.9075752999634,None,,,,,,,,,,,,,,,,,,,,,,,,,,,,,,,,,,,,,,,,,,,,,,,,,,,,,,,,,,,,,,,,,,,,,,,,,,57NC,001,2023_Apr_26_1643,ExactRep-v3-final,2021.2.3,59.946719564073405,
6,0,6,0,,,,,,,,,,,,,,,,,,,,,,,,,,,,,,,,,,,,,,,,,,,,,,,,,,,,,,,,,,,2702.4078684998676,None,2704.410050100647,None,,,,,,,,,,,,,,,,,,,,,,,,,,,,,,,,,,,,,,,,,,,,,,,,,,,,,,,,,,,,,,,,,,,,,,,,,,57NC,001,2023_Apr_26_1643,ExactRep-v3-final,2021.2.3,59.946719564073405,
7,0,7,0,,,,,,,,,,,,,,,,,,,,,,,,,,,,,,,,,,,,,,,,,,,,,,,,,,,,,,,,,,,2704.9121339004487,None,2706.9124388005584,None,,,,,,,,,,,,,,,,,,,,,,,,,,,,,,,,,,,,,,,,,,,,,,,,,,,,,,,,,,,,,,,,,,,,,,,,,,57NC,001,2023_Apr_26_1643,ExactRep-v3-final,2021.2.3,59.946719564073405,
8,0,8,0,,,,,,,,,,,,,,,,,,,,,,,,,,,,,,,,,,,,,,,,,,,,,,,,,,,,,,,,,,,2707.4157589003444,None,2709.4150220006704,None,,,,,,,,,,,,,,,,,,,,,,,,,,,,,,,,,,,,,,,,,,,,,,,,,,,,,,,,,,,,,,,,,,,,,,,,,,57NC,001,2023_Apr_26_1643,ExactRep-v3-final,2021.2.3,59.946719564073405,
9,0,9,0,,,,,,,,,,,,,,,,,,,,,,,,,,,,,,,,,,,,,,,,,,,,,,,,,,,,,,,,,,,2709.917295699939,None,2711.9176671998575,None,,,,,,,,,,,,,,,,,,,,,,,,,,,,,,,,,,,,,,,,,,,,,,,,,,,,,,,,,,,,,,,,,,,,,,,,,,57NC,001,2023_Apr_26_1643,ExactRep-v3-final,2021.2.3,59.946719564073405,
10,0,10,0,,,,,,,,,,,,,,,,,,,,,,,,,,,,,,,,,,,,,,,,,,,,,,,,,,,,,,,,,,,2712.4265899006277,None,2714.4367930004373,None,,,,,,,,,,,,,,,,,,,,,,,,,,,,,,,,,,,,,,,,,,,,,,,,,,,,,,,,,,,,,,,,,,,,,,,,,,57NC,001,2023_Apr_26_1643,ExactRep-v3-final,2021.2.3,59.946719564073405,
11,0,11,0,,,,,,,,,,,,,,,,,,,,,,,,,,,,,,,,,,,,,,,,,,,,,,,,,,,,,,,,,,,2714.9400399001315,None,2716.9389954004437,None,,,,,,,,,,,,,,,,,,,,,,,,,,,,,,,,,,,,,,,,,,,,,,,,,,,,,,,,,,,,,,,,,,,,,,,,,,57NC,001,2023_Apr_26_1643,ExactRep-v3-final,2021.2.3,59.946719564073405,
12,0,12,0,,,,,,,,,,,,,,,,,,,,,,,,,,,,,,,,,,,,,,,,,,,,,,,,,,,,,,,,,,,2717.44150870014,None,2719.441772500053,None,,,,,,,,,,,,,,,,,,,,,,,,,,,,,,,,,,,,,,,,,,,,,,,,,,,,,,,,,,,,,,,,,,,,,,,,,,57NC,001,2023_Apr_26_1643,ExactRep-v3-final,2021.2.3,59.946719564073405,
13,0,13,0,,,,,,,,,,,,,,,,,,,,,,,,,,,,,,,,,,,,,,,,,,,,,,,,,,,,,,,,,,,2719.9423868004233,None,2721.9442888004705,None,,,,,,,,,,,,,,,,,,,,,,,,,,,,,,,,,,,,,,,,,,,,,,,,,,,,,,,,,,,,,,,,,,,,,,,,,,57NC,001,2023_Apr_26_1643,ExactRep-v3-final,2021.2.3,59.946719564073405,
14,0,14,0,,,,,,,,,,,,,,,,,,,,,,,,,,,,,,,,,,,,,,,,,,,,,,,,,,,,,,,,,,,2722.455306900665,None,2724.4632184999064,None,,,,,,,,,,,,,,,,,,,,,,,,,,,,,,,,,,,,,,,,,,,,,,,,,,,,,,,,,,,,,,,,,,,,,,,,,,57NC,001,2023_Apr_26_1643,ExactRep-v3-final,2021.2.3,59.946719564073405,
,,,,,,,,,,,,,,,,,,,,,,,,,,,,,,,,,,,,,,,,,,,,,,,,,,,,,,,,,,,,,,,,,,space,15.038697199895978,2735.0736870002,None,,,,,,,,,,,,,,,,,,,,,,,,,,,,,,,,,,,,,,,,,,,,,,,,,,,,,,,,,,,,,,,,,,,,,,57NC,001,2023_Apr_26_1643,ExactRep-v3-final,2021.2.3,59.946719564073405,
,,,,0,0,0,0,,,,,,,,,,,,,,,,,,,,,,,,,,,,,,,,,,,,,,,,,,,,,,,,,,,,,,,,,2752.1909594004974,None,,,,,2725.1295258002356,None,2725.1295258002356,None,2725.1295258002356,None,2725.1295258002356,None,2725.1295258002356,None,2725.1295258002356,None,2750.187444000505,None,,,,,,,,,,,,,,,,,,,,,,,,,,,,,,,,,,,,,,,,,,,,,,,,,,,,,,,,57NC,001,2023_Apr_26_1643,ExactRep-v3-final,2021.2.3,59.946719564073405,
,,,,1,0,1,0,,,,,,,,,,,,,,,,,,,,,,,,,,,,,,,,,,,,,,,,,,,,,,,,,,,,,,,,,2754.6932993000373,None,,,,,,,,,,,,,,,,,2752.6916244998574,None,,,,,,,,,,,,,,,,,,,,,,,,,,,,,,,,,,,,,,,,,,,,,,,,,,,,,,,,57NC,001,2023_Apr_26_1643,ExactRep-v3-final,2021.2.3,59.946719564073405,
,,,,2,0,2,0,,,,,,,,,,,,,,,,,,,,,,,,,,,,,,,,,,,,,,,,,,,,,,,,,,,,,,,,,2757.196153299883,None,,,,,,,,,,,,,,,,,2755.194158700295,None,,,,,,,,,,,,,,,,,,,,,,,,,,,,,,,,,,,,,,,,,,,,,,,,,,,,,,,,57NC,001,2023_Apr_26_1643,ExactRep-v3-final,2021.2.3,59.946719564073405,
,,,,3,0,3,0,,,,,,,,,,,,,,,,,,,,,,,,,,,,,,,,,,,,,,,,,,,,,,,,,,,,,,,,,2759.6982861002907,None,,,,,,,,,,,,,,,,,2757.696686900221,None,,,,,,,,,,,,,,,,,,,,,,,,,,,,,,,,,,,,,,,,,,,,,,,,,,,,,,,,57NC,001,2023_Apr_26_1643,ExactRep-v3-final,2021.2.3,59.946719564073405,
,,,,4,0,4,0,,,,,,,,,,,,,,,,,,,,,,,,,,,,,,,,,,,,,,,,,,,,,,,,,,,,,,,,,2762.2013159999624,None,,,,,,,,,,,,,,,,,2760.1992335999385,None,,,,,,,,,,,,,,,,,,,,,,,,,,,,,,,,,,,,,,,,,,,,,,,,,,,,,,,,57NC,001,2023_Apr_26_1643,ExactRep-v3-final,2021.2.3,59.946719564073405,
,,,,5,0,5,0,,,,,,,,,,,,,,,,,,,,,,,,,,,,,,,,,,,,,,,,,,,,,,,,,,,,,,,,,2764.7038118001074,None,,,,,,,,,,,,,,,,,2762.7018117997795,None,,,,,,,,,,,,,,,,,,,,,,,,,,,,,,,,,,,,,,,,,,,,,,,,,,,,,,,,57NC,001,2023_Apr_26_1643,ExactRep-v3-final,2021.2.3,59.946719564073405,
,,,,6,0,6,0,,,,,,,,,,,,,,,,,,,,,,,,,,,,,,,,,,,,,,,,,,,,,,,,,,,,,,,,,2767.206173900515,None,,,,,,,,,,,,,,,,,2765.2041356004775,None,,,,,,,,,,,,,,,,,,,,,,,,,,,,,,,,,,,,,,,,,,,,,,,,,,,,,,,,57NC,001,2023_Apr_26_1643,ExactRep-v3-final,2021.2.3,59.946719564073405,
,,,,7,0,7,0,,,,,,,,,,,,,,,,,,,,,,,,,,,,,,,,,,,,,,,,,,,,,,,,,,,,,,,,,2769.7086915001273,None,,,,,,,,,,,,,,,,,2767.706496800296,None,,,,,,,,,,,,,,,,,,,,,,,,,,,,,,,,,,,,,,,,,,,,,,,,,,,,,,,,57NC,001,2023_Apr_26_1643,ExactRep-v3-final,2021.2.3,59.946719564073405,
,,,,8,0,8,0,,,,,,,,,,,,,,,,,,,,,,,,,,,,,,,,,,,,,,,,,,,,,,,,,,,,,,,,,2772.21110960003,None,,,,,,,,,,,,,,,,,2770.208876900375,None,,,,,,,,,,,,,,,,,,,,,,,,,,,,,,,,,,,,,,,,,,,,,,,,,,,,,,,,57NC,001,2023_Apr_26_1643,ExactRep-v3-final,2021.2.3,59.946719564073405,
,,,,9,0,9,0,,,,,,,,,,,,,,,,,,,,,,,,,,,,,,,,,,,,,,,,,,,,,,,,,,,,,,,,,2774.713620999828,None,,,,,,,,,,,,,,,,,2772.711648600176,None,,,,,,,,,,,,,,,,,,,,,,,,,,,,,,,,,,,,,,,,,,,,,,,,,,,,,,,,57NC,001,2023_Apr_26_1643,ExactRep-v3-final,2021.2.3,59.946719564073405,
,,,,10,0,10,0,,,,,,,,,,,,,,,,,,,,,,,,,,,,,,,,,,,,,,,,,,,,,,,,,,,,,,,,,2777.2163045005873,None,,,,,,,,,,,,,,,,,2775.214143600315,None,,,,,,,,,,,,,,,,,,,,,,,,,,,,,,,,,,,,,,,,,,,,,,,,,,,,,,,,57NC,001,2023_Apr_26_1643,ExactRep-v3-final,2021.2.3,59.946719564073405,
,,,,11,0,11,0,,,,,,,,,,,,,,,,,,,,,,,,,,,,,,,,,,,,,,,,,,,,,,,,,,,,,,,,,2779.7186318999156,None,,,,,,,,,,,,,,,,,2777.7168225003406,None,,,,,,,,,,,,,,,,,,,,,,,,,,,,,,,,,,,,,,,,,,,,,,,,,,,,,,,,57NC,001,2023_Apr_26_1643,ExactRep-v3-final,2021.2.3,59.946719564073405,
,,,,12,0,12,0,,,,,,,,,,,,,,,,,,,,,,,,,,,,,,,,,,,,,,,,,,,,,,,,,,,,,,,,,2782.2212423002347,None,,,,,,,,,,,,,,,,,2780.219008900225,None,,,,,,,,,,,,,,,,,,,,,,,,,,,,,,,,,,,,,,,,,,,,,,,,,,,,,,,,57NC,001,2023_Apr_26_1643,ExactRep-v3-final,2021.2.3,59.946719564073405,
,,,,13,0,13,0,,,,,,,,,,,,,,,,,,,,,,,,,,,,,,,,,,,,,,,,,,,,,,,,,,,,,,,,,2784.723346900195,None,,,,,,,,,,,,,,,,,2782.7217760998756,None,,,,,,,,,,,,,,,,,,,,,,,,,,,,,,,,,,,,,,,,,,,,,,,,,,,,,,,,57NC,001,2023_Apr_26_1643,ExactRep-v3-final,2021.2.3,59.946719564073405,
,,,,14,0,14,0,,,,,,,,,,,,,,,,,,,,,,,,,,,,,,,,,,,,,,,,,,,,,,,,,,,,,,,,,2787.226147199981,None,,,,,,,,,,,,,,,,,2785.2241356000304,None,,,,,,,,,,,,,,,,,,,,,,,,,,,,,,,,,,,,,,,,,,,,,,,,,,,,,,,,57NC,001,2023_Apr_26_1643,ExactRep-v3-final,2021.2.3,59.946719564073405,
,,,,,,,,,,,,,,,,,,,,,,,,,,,,,,,,,,,,,,,,,,,,,,,,,,,,,,,,,,,,,,,,,,,,,,,,,,,,,,,,,,,,space,14.959022900089622,2797.8894784003496,None,,,,,,,,,,,,,,,,,,,,,,,,,,,,,,,,,,,,,,,,,,,,,,,,,,,,57NC,001,2023_Apr_26_1643,ExactRep-v3-final,2021.2.3,59.946719564073405,
,,,,,,,,0,0,0,0,,,,,,,,,,,,,,,,,,,,,,,,,,,,,,,,,,,,,,,,,,,,,,,,,,,,,2814.9537387005985,None,,,,,,,,,,,,,,,,,,,,,,,2787.9241021005437,None,2787.9241021005437,None,2787.9241021005437,None,2787.9241021005437,None,2787.9241021005437,None,2787.9241021005437,None,door,61,1,silent,red,2812.95105720032,None,None,2812.95105720032,None,,,,,,,,,,,,,,,,,,,,,,,,,,,,,,57NC,001,2023_Apr_26_1643,ExactRep-v3-final,2021.2.3,59.946719564073405,
,,,,,,,,1,0,1,0,,,,,,,,,,,,,,,,,,,,,,,,,,,,,,,,,,,,,,,,,,,,,,,,,,,,,2817.472869699821,None,,,,,,,,,,,,,,,,,,,,,,,,,,,,,,,,,,,poet,81,2,aloud,blue,2815.4576615002006,None,None,2815.4576615002006,None,,,,,,,,,,,,,,,,,,,,,,,,,,,,,,57NC,001,2023_Apr_26_1643,ExactRep-v3-final,2021.2.3,59.946719564073405,
,,,,,,,,2,0,2,0,,,,,,,,,,,,,,,,,,,,,,,,,,,,,,,,,,,,,,,,,,,,,,,,,,,,,2819.9756803000346,None,,,,,,,,,,,,,,,,,,,,,,,,,,,,,,,,,,,sugar,106,3,aloud,blue,2817.974830100313,None,None,2817.974830100313,None,,,,,,,,,,,,,,,,,,,,,,,,,,,,,,57NC,001,2023_Apr_26_1643,ExactRep-v3-final,2021.2.3,59.946719564073405,
,,,,,,,,3,0,3,0,,,,,,,,,,,,,,,,,,,,,,,,,,,,,,,,,,,,,,,,,,,,,,,,,,,,,2822.4948062999174,None,,,,,,,,,,,,,,,,,,,,,,,,,,,,,,,,,,,hotel,94,4,aloud,blue,2820.481019699946,None,None,2820.481019699946,None,,,,,,,,,,,,,,,,,,,,,,,,,,,,,,57NC,001,2023_Apr_26_1643,ExactRep-v3-final,2021.2.3,59.946719564073405,
,,,,,,,,4,0,4,0,,,,,,,,,,,,,,,,,,,,,,,,,,,,,,,,,,,,,,,,,,,,,,,,,,,,,2825.013786200434,None,,,,,,,,,,,,,,,,,,,,,,,,,,,,,,,,,,,flesh,77,5,silent,red,2823.0027181003243,None,None,2823.0027181003243,None,,,,,,,,,,,,,,,,,,,,,,,,,,,,,,57NC,001,2023_Apr_26_1643,ExactRep-v3-final,2021.2.3,59.946719564073405,
,,,,,,,,5,0,5,0,,,,,,,,,,,,,,,,,,,,,,,,,,,,,,,,,,,,,,,,,,,,,,,,,,,,,2827.516285699792,None,,,,,,,,,,,,,,,,,,,,,,,,,,,,,,,,,,,devil,13,6,sing,white,2825.5172524005175,None,None,2825.5172524005175,None,,,,,,,,,,,,,,,,,,,,,,,,,,,,,,57NC,001,2023_Apr_26_1643,ExactRep-v3-final,2021.2.3,59.946719564073405,
,,,,,,,,6,0,6,0,,,,,,,,,,,,,,,,,,,,,,,,,,,,,,,,,,,,,,,,,,,,,,,,,,,,,2830.0186482006684,None,,,,,,,,,,,,,,,,,,,,,,,,,,,,,,,,,,,teacher,91,7,aloud,blue,2828.0191715005785,None,None,2828.0191715005785,None,,,,,,,,,,,,,,,,,,,,,,,,,,,,,,57NC,001,2023_Apr_26_1643,ExactRep-v3-final,2021.2.3,59.946719564073405,
,,,,,,,,7,0,7,0,,,,,,,,,,,,,,,,,,,,,,,,,,,,,,,,,,,,,,,,,,,,,,,,,,,,,2832.521221799776,None,,,,,,,,,,,,,,,,,,,,,,,,,,,,,,,,,,,dust,115,8,aloud,blue,2830.5191839002073,None,None,2830.5191839002073,None,,,,,,,,,,,,,,,,,,,,,,,,,,,,,,57NC,001,2023_Apr_26_1643,ExactRep-v3-final,2021.2.3,59.946719564073405,
,,,,,,,,8,0,8,0,,,,,,,,,,,,,,,,,,,,,,,,,,,,,,,,,,,,,,,,,,,,,,,,,,,,,2835.02366979979,None,,,,,,,,,,,,,,,,,,,,,,,,,,,,,,,,,,,plant,108,9,aloud,blue,2833.0217860005796,None,None,2833.0217860005796,None,,,,,,,,,,,,,,,,,,,,,,,,,,,,,,57NC,001,2023_Apr_26_1643,ExactRep-v3-final,2021.2.3,59.946719564073405,
,,,,,,,,9,0,9,0,,,,,,,,,,,,,,,,,,,,,,,,,,,,,,,,,,,,,,,,,,,,,,,,,,,,,2837.526606700383,None,,,,,,,,,,,,,,,,,,,,,,,,,,,,,,,,,,,truth,87,10,aloud,blue,2835.5254720002413,None,None,2835.5254720002413,None,,,,,,,,,,,,,,,,,,,,,,,,,,,,,,57NC,001,2023_Apr_26_1643,ExactRep-v3-final,2021.2.3,59.946719564073405,
,,,,,,,,10,0,10,0,,,,,,,,,,,,,,,,,,,,,,,,,,,,,,,,,,,,,,,,,,,,,,,,,,,,,2840.045448699966,None,,,,,,,,,,,,,,,,,,,,,,,,,,,,,,,,,,,humour,27,11,sing,white,2838.0322684999555,None,None,2838.0322684999555,None,,,,,,,,,,,,,,,,,,,,,,,,,,,,,,57NC,001,2023_Apr_26_1643,ExactRep-v3-final,2021.2.3,59.946719564073405,
,,,,,,,,11,0,11,0,,,,,,,,,,,,,,,,,,,,,,,,,,,,,,,,,,,,,,,,,,,,,,,,,,,,,2842.547967900522,None,,,,,,,,,,,,,,,,,,,,,,,,,,,,,,,,,,,meeting,4,12,sing,white,2840.546948400326,None,None,2840.546948400326,None,,,,,,,,,,,,,,,,,,,,,,,,,,,,,,57NC,001,2023_Apr_26_1643,ExactRep-v3-final,2021.2.3,59.946719564073405,
,,,,,,,,12,0,12,0,,,,,,,,,,,,,,,,,,,,,,,,,,,,,,,,,,,,,,,,,,,,,,,,,,,,,2845.067334599793,None,,,,,,,,,,,,,,,,,,,,,,,,,,,,,,,,,,,corn,102,13,aloud,blue,2843.0568671002984,None,None,2843.0568671002984,None,,,,,,,,,,,,,,,,,,,,,,,,,,,,,,57NC,001,2023_Apr_26_1643,ExactRep-v3-final,2021.2.3,59.946719564073405,
,,,,,,,,13,0,13,0,,,,,,,,,,,,,,,,,,,,,,,,,,,,,,,,,,,,,,,,,,,,,,,,,,,,,2847.5864885002375,None,,,,,,,,,,,,,,,,,,,,,,,,,,,,,,,,,,,present,93,14,aloud,blue,2845.5763630000874,None,None,2845.5763630000874,None,,,,,,,,,,,,,,,,,,,,,,,,,,,,,,57NC,001,2023_Apr_26_1643,ExactRep-v3-final,2021.2.3,59.946719564073405,
,,,,,,,,14,0,14,0,,,,,,,,,,,,,,,,,,,,,,,,,,,,,,,,,,,,,,,,,,,,,,,,,,,,,2850.0890758000314,None,,,,,,,,,,,,,,,,,,,,,,,,,,,,,,,,,,,volume,3,15,sing,white,2848.0868974998593,None,None,2848.0868974998593,None,,,,,,,,,,,,,,,,,,,,,,,,,,,,,,57NC,001,2023_Apr_26_1643,ExactRep-v3-final,2021.2.3,59.946719564073405,
,,,,,,,,15,0,15,0,,,,,,,,,,,,,,,,,,,,,,,,,,,,,,,,,,,,,,,,,,,,,,,,,,,,,2852.607849000022,None,,,,,,,,,,,,,,,,,,,,,,,,,,,,,,,,,,,charm,45,16,silent,red,2850.598774800077,None,None,2850.598774800077,None,,,,,,,,,,,,,,,,,,,,,,,,,,,,,,57NC,001,2023_Apr_26_1643,ExactRep-v3-final,2021.2.3,59.946719564073405,
,,,,,,,,16,0,16,0,,,,,,,,,,,,,,,,,,,,,,,,,,,,,,,,,,,,,,,,,,,,,,,,,,,,,2855.1108347000554,None,,,,,,,,,,,,,,,,,,,,,,,,,,,,,,,,,,,shame,119,17,aloud,blue,2853.1086891004816,None,None,2853.1086891004816,None,,,,,,,,,,,,,,,,,,,,,,,,,,,,,,57NC,001,2023_Apr_26_1643,ExactRep-v3-final,2021.2.3,59.946719564073405,
,,,,,,,,17,0,17,0,,,,,,,,,,,,,,,,,,,,,,,,,,,,,,,,,,,,,,,,,,,,,,,,,,,,,2857.613179200329,None,,,,,,,,,,,,,,,,,,,,,,,,,,,,,,,,,,,corner,33,18,sing,white,2855.613043400459,None,None,2855.613043400459,None,,,,,,,,,,,,,,,,,,,,,,,,,,,,,,57NC,001,2023_Apr_26_1643,ExactRep-v3-final,2021.2.3,59.946719564073405,
,,,,,,,,18,0,18,0,,,,,,,,,,,,,,,,,,,,,,,,,,,,,,,,,,,,,,,,,,,,,,,,,,,,,2860.1320222001523,None,,,,,,,,,,,,,,,,,,,,,,,,,,,,,,,,,,,winter,58,19,silent,red,2858.1197100998834,None,None,2858.1197100998834,None,,,,,,,,,,,,,,,,,,,,,,,,,,,,,,57NC,001,2023_Apr_26_1643,ExactRep-v3-final,2021.2.3,59.946719564073405,
,,,,,,,,19,0,19,0,,,,,,,,,,,,,,,,,,,,,,,,,,,,,,,,,,,,,,,,,,,,,,,,,,,,,2862.651553600095,None,,,,,,,,,,,,,,,,,,,,,,,,,,,,,,,,,,,avenue,7,20,sing,white,2860.6435286002234,None,None,2860.6435286002234,None,,,,,,,,,,,,,,,,,,,,,,,,,,,,,,57NC,001,2023_Apr_26_1643,ExactRep-v3-final,2021.2.3,59.946719564073405,
,,,,,,,,20,0,20,0,,,,,,,,,,,,,,,,,,,,,,,,,,,,,,,,,,,,,,,,,,,,,,,,,,,,,2865.170996100642,None,,,,,,,,,,,,,,,,,,,,,,,,,,,,,,,,,,,window,18,21,sing,white,2863.159924100153,None,None,2863.159924100153,None,,,,,,,,,,,,,,,,,,,,,,,,,,,,,,57NC,001,2023_Apr_26_1643,ExactRep-v3-final,2021.2.3,59.946719564073405,
,,,,,,,,21,0,21,0,,,,,,,,,,,,,,,,,,,,,,,,,,,,,,,,,,,,,,,,,,,,,,,,,,,,,2867.673292499967,None,,,,,,,,,,,,,,,,,,,,,,,,,,,,,,,,,,,butter,23,22,sing,white,2865.6712436005473,None,None,2865.6712436005473,None,,,,,,,,,,,,,,,,,,,,,,,,,,,,,,57NC,001,2023_Apr_26_1643,ExactRep-v3-final,2021.2.3,59.946719564073405,
,,,,,,,,22,0,22,0,,,,,,,,,,,,,,,,,,,,,,,,,,,,,,,,,,,,,,,,,,,,,,,,,,,,,2870.175782300532,None,,,,,,,,,,,,,,,,,,,,,,,,,,,,,,,,,,,opinion,99,23,aloud,blue,2868.176159400493,None,None,2868.176159400493,None,,,,,,,,,,,,,,,,,,,,,,,,,,,,,,57NC,001,2023_Apr_26_1643,ExactRep-v3-final,2021.2.3,59.946719564073405,
,,,,,,,,23,0,23,0,,,,,,,,,,,,,,,,,,,,,,,,,,,,,,,,,,,,,,,,,,,,,,,,,,,,,2872.6949784001336,None,,,,,,,,,,,,,,,,,,,,,,,,,,,,,,,,,,,wine,54,24,silent,red,2870.6850561005995,None,None,2870.6850561005995,None,,,,,,,,,,,,,,,,,,,,,,,,,,,,,,57NC,001,2023_Apr_26_1643,ExactRep-v3-final,2021.2.3,59.946719564073405,
,,,,,,,,24,0,24,0,,,,,,,,,,,,,,,,,,,,,,,,,,,,,,,,,,,,,,,,,,,,,,,,,,,,,2875.2141591003165,None,,,,,,,,,,,,,,,,,,,,,,,,,,,,,,,,,,,earth,107,25,aloud,blue,2873.202082999982,None,None,2873.202082999982,None,,,,,,,,,,,,,,,,,,,,,,,,,,,,,,57NC,001,2023_Apr_26_1643,ExactRep-v3-final,2021.2.3,59.946719564073405,
,,,,,,,,25,0,25,0,,,,,,,,,,,,,,,,,,,,,,,,,,,,,,,,,,,,,,,,,,,,,,,,,,,,,2877.717973699793,None,,,,,,,,,,,,,,,,,,,,,,,,,,,,,,,,,,,soul,88,26,aloud,blue,2875.7145047998056,None,None,2875.7145047998056,None,,,,,,,,,,,,,,,,,,,,,,,,,,,,,,57NC,001,2023_Apr_26_1643,ExactRep-v3-final,2021.2.3,59.946719564073405,
,,,,,,,,26,0,26,0,,,,,,,,,,,,,,,,,,,,,,,,,,,,,,,,,,,,,,,,,,,,,,,,,,,,,2880.2189656002447,None,,,,,,,,,,,,,,,,,,,,,,,,,,,,,,,,,,,amount,57,27,silent,red,2878.2185808001086,None,None,2878.2185808001086,None,,,,,,,,,,,,,,,,,,,,,,,,,,,,,,57NC,001,2023_Apr_26_1643,ExactRep-v3-final,2021.2.3,59.946719564073405,
,,,,,,,,27,0,27,0,,,,,,,,,,,,,,,,,,,,,,,,,,,,,,,,,,,,,,,,,,,,,,,,,,,,,2882.7383946999907,None,,,,,,,,,,,,,,,,,,,,,,,,,,,,,,,,,,,virtue,95,28,aloud,blue,2880.727910700254,None,None,2880.727910700254,None,,,,,,,,,,,,,,,,,,,,,,,,,,,,,,57NC,001,2023_Apr_26_1643,ExactRep-v3-final,2021.2.3,59.946719564073405,
,,,,,,,,28,0,28,0,,,,,,,,,,,,,,,,,,,,,,,,,,,,,,,,,,,,,,,,,,,,,,,,,,,,,2885.257509100251,None,,,,,,,,,,,,,,,,,,,,,,,,,,,,,,,,,,,judge,109,29,aloud,blue,2883.24510239996,None,None,2883.24510239996,None,,,,,,,,,,,,,,,,,,,,,,,,,,,,,,57NC,001,2023_Apr_26_1643,ExactRep-v3-final,2021.2.3,59.946719564073405,
,,,,,,,,29,0,29,0,,,,,,,,,,,,,,,,,,,,,,,,,,,,,,,,,,,,,,,,,,,,,,,,,,,,,2887.7767273001373,None,,,,,,,,,,,,,,,,,,,,,,,,,,,,,,,,,,,style,15,30,sing,white,2885.7636635005474,None,None,2885.7636635005474,None,,,,,,,,,,,,,,,,,,,,,,,,,,,,,,57NC,001,2023_Apr_26_1643,ExactRep-v3-final,2021.2.3,59.946719564073405,
,,,,,,,,30,0,30,0,,,,,,,,,,,,,,,,,,,,,,,,,,,,,,,,,,,,,,,,,,,,,,,,,,,,,2890.2959115002304,None,,,,,,,,,,,,,,,,,,,,,,,,,,,,,,,,,,,kiss,31,31,sing,white,2888.2837438005954,None,None,2888.2837438005954,None,,,,,,,,,,,,,,,,,,,,,,,,,,,,,,57NC,001,2023_Apr_26_1643,ExactRep-v3-final,2021.2.3,59.946719564073405,
,,,,,,,,31,0,31,0,,,,,,,,,,,,,,,,,,,,,,,,,,,,,,,,,,,,,,,,,,,,,,,,,,,,,2892.7985676005483,None,,,,,,,,,,,,,,,,,,,,,,,,,,,,,,,,,,,car,97,32,aloud,blue,2890.7980117006227,None,None,2890.7980117006227,None,,,,,,,,,,,,,,,,,,,,,,,,,,,,,,57NC,001,2023_Apr_26_1643,ExactRep-v3-final,2021.2.3,59.946719564073405,
,,,,,,,,32,0,32,0,,,,,,,,,,,,,,,,,,,,,,,,,,,,,,,,,,,,,,,,,,,,,,,,,,,,,2895.3008941998705,None,,,,,,,,,,,,,,,,,,,,,,,,,,,,,,,,,,,garden,98,33,aloud,blue,2893.2989942999557,None,None,2893.2989942999557,None,,,,,,,,,,,,,,,,,,,,,,,,,,,,,,57NC,001,2023_Apr_26_1643,ExactRep-v3-final,2021.2.3,59.946719564073405,
,,,,,,,,33,0,33,0,,,,,,,,,,,,,,,,,,,,,,,,,,,,,,,,,,,,,,,,,,,,,,,,,,,,,2897.8200419005007,None,,,,,,,,,,,,,,,,,,,,,,,,,,,,,,,,,,,animal,22,34,sing,white,2895.809188200161,None,None,2895.809188200161,None,,,,,,,,,,,,,,,,,,,,,,,,,,,,,,57NC,001,2023_Apr_26_1643,ExactRep-v3-final,2021.2.3,59.946719564073405,
,,,,,,,,34,0,34,0,,,,,,,,,,,,,,,,,,,,,,,,,,,,,,,,,,,,,,,,,,,,,,,,,,,,,2900.322689800523,None,,,,,,,,,,,,,,,,,,,,,,,,,,,,,,,,,,,shoes,100,35,aloud,blue,2898.320419200696,None,None,2898.320419200696,None,,,,,,,,,,,,,,,,,,,,,,,,,,,,,,57NC,001,2023_Apr_26_1643,ExactRep-v3-final,2021.2.3,59.946719564073405,
,,,,,,,,35,0,35,0,,,,,,,,,,,,,,,,,,,,,,,,,,,,,,,,,,,,,,,,,,,,,,,,,,,,,2902.824914400466,None,,,,,,,,,,,,,,,,,,,,,,,,,,,,,,,,,,,water,113,36,aloud,blue,2900.824578099884,None,None,2900.824578099884,None,,,,,,,,,,,,,,,,,,,,,,,,,,,,,,57NC,001,2023_Apr_26_1643,ExactRep-v3-final,2021.2.3,59.946719564073405,
,,,,,,,,36,0,36,0,,,,,,,,,,,,,,,,,,,,,,,,,,,,,,,,,,,,,,,,,,,,,,,,,,,,,2905.327703100629,None,,,,,,,,,,,,,,,,,,,,,,,,,,,,,,,,,,,speech,55,37,silent,red,2903.325438200496,None,None,2903.325438200496,None,,,,,,,,,,,,,,,,,,,,,,,,,,,,,,57NC,001,2023_Apr_26_1643,ExactRep-v3-final,2021.2.3,59.946719564073405,
,,,,,,,,37,0,37,0,,,,,,,,,,,,,,,,,,,,,,,,,,,,,,,,,,,,,,,,,,,,,,,,,,,,,2907.8467731000856,None,,,,,,,,,,,,,,,,,,,,,,,,,,,,,,,,,,,prison,72,38,silent,red,2905.8348698001355,None,None,2905.8348698001355,None,,,,,,,,,,,,,,,,,,,,,,,,,,,,,,57NC,001,2023_Apr_26_1643,ExactRep-v3-final,2021.2.3,59.946719564073405,
,,,,,,,,38,0,38,0,,,,,,,,,,,,,,,,,,,,,,,,,,,,,,,,,,,,,,,,,,,,,,,,,,,,,2910.3661612998694,None,,,,,,,,,,,,,,,,,,,,,,,,,,,,,,,,,,,storm,38,39,sing,white,2908.354117100127,None,None,2908.354117100127,None,,,,,,,,,,,,,,,,,,,,,,,,,,,,,,57NC,001,2023_Apr_26_1643,ExactRep-v3-final,2021.2.3,59.946719564073405,
,,,,,,,,39,0,39,0,,,,,,,,,,,,,,,,,,,,,,,,,,,,,,,,,,,,,,,,,,,,,,,,,,,,,2912.8850014004856,None,,,,,,,,,,,,,,,,,,,,,,,,,,,,,,,,,,,meadow,2,40,sing,white,2910.8730758000165,None,None,2910.8730758000165,None,,,,,,,,,,,,,,,,,,,,,,,,,,,,,,57NC,001,2023_Apr_26_1643,ExactRep-v3-final,2021.2.3,59.946719564073405,
,,,,,,,,40,0,40,0,,,,,,,,,,,,,,,,,,,,,,,,,,,,,,,,,,,,,,,,,,,,,,,,,,,,,2915.3875085003674,None,,,,,,,,,,,,,,,,,,,,,,,,,,,,,,,,,,,cottage,41,41,silent,red,2913.385611400008,None,None,2913.385611400008,None,,,,,,,,,,,,,,,,,,,,,,,,,,,,,,57NC,001,2023_Apr_26_1643,ExactRep-v3-final,2021.2.3,59.946719564073405,
,,,,,,,,41,0,41,0,,,,,,,,,,,,,,,,,,,,,,,,,,,,,,,,,,,,,,,,,,,,,,,,,,,,,2917.890167900361,None,,,,,,,,,,,,,,,,,,,,,,,,,,,,,,,,,,,murder,79,42,sing,white,2915.889928500168,None,None,2915.889928500168,None,,,,,,,,,,,,,,,,,,,,,,,,,,,,,,57NC,001,2023_Apr_26_1643,ExactRep-v3-final,2021.2.3,59.946719564073405,
,,,,,,,,42,0,42,0,,,,,,,,,,,,,,,,,,,,,,,,,,,,,,,,,,,,,,,,,,,,,,,,,,,,,2920.392477599904,None,,,,,,,,,,,,,,,,,,,,,,,,,,,,,,,,,,,skin,17,43,sing,white,2918.3925021998584,None,None,2918.3925021998584,None,,,,,,,,,,,,,,,,,,,,,,,,,,,,,,57NC,001,2023_Apr_26_1643,ExactRep-v3-final,2021.2.3,59.946719564073405,
,,,,,,,,43,0,43,0,,,,,,,,,,,,,,,,,,,,,,,,,,,,,,,,,,,,,,,,,,,,,,,,,,,,,2922.911681099795,None,,,,,,,,,,,,,,,,,,,,,,,,,,,,,,,,,,,boulder,103,44,aloud,blue,2920.8996135005727,None,None,2920.8996135005727,None,,,,,,,,,,,,,,,,,,,,,,,,,,,,,,57NC,001,2023_Apr_26_1643,ExactRep-v3-final,2021.2.3,59.946719564073405,
,,,,,,,,44,0,44,0,,,,,,,,,,,,,,,,,,,,,,,,,,,,,,,,,,,,,,,,,,,,,,,,,,,,,2925.4143834002316,None,,,,,,,,,,,,,,,,,,,,,,,,,,,,,,,,,,,mind,65,45,silent,red,2923.4121781000867,None,None,2923.4121781000867,None,,,,,,,,,,,,,,,,,,,,,,,,,,,,,,57NC,001,2023_Apr_26_1643,ExactRep-v3-final,2021.2.3,59.946719564073405,
,,,,,,,,45,0,45,0,,,,,,,,,,,,,,,,,,,,,,,,,,,,,,,,,,,,,,,,,,,,,,,,,,,,,2927.9335235999897,None,,,,,,,,,,,,,,,,,,,,,,,,,,,,,,,,,,,shock,85,46,aloud,blue,2925.924914199859,None,None,2925.924914199859,None,,,,,,,,,,,,,,,,,,,,,,,,,,,,,,57NC,001,2023_Apr_26_1643,ExactRep-v3-final,2021.2.3,59.946719564073405,
,,,,,,,,46,0,46,0,,,,,,,,,,,,,,,,,,,,,,,,,,,,,,,,,,,,,,,,,,,,,,,,,,,,,2930.4359912006184,None,,,,,,,,,,,,,,,,,,,,,,,,,,,,,,,,,,,paper,111,47,aloud,blue,2928.436987900175,None,None,2928.436987900175,None,,,,,,,,,,,,,,,,,,,,,,,,,,,,,,57NC,001,2023_Apr_26_1643,ExactRep-v3-final,2021.2.3,59.946719564073405,
,,,,,,,,47,0,47,0,,,,,,,,,,,,,,,,,,,,,,,,,,,,,,,,,,,,,,,,,,,,,,,,,,,,,2932.9385836999863,None,,,,,,,,,,,,,,,,,,,,,,,,,,,,,,,,,,,child,5,48,sing,white,2930.9380967998877,None,None,2930.9380967998877,None,,,,,,,,,,,,,,,,,,,,,,,,,,,,,,57NC,001,2023_Apr_26_1643,ExactRep-v3-final,2021.2.3,59.946719564073405,
,,,,,,,,48,0,48,0,,,,,,,,,,,,,,,,,,,,,,,,,,,,,,,,,,,,,,,,,,,,,,,,,,,,,2935.4410481005907,None,,,,,,,,,,,,,,,,,,,,,,,,,,,,,,,,,,,fault,20,49,sing,white,2933.441006200388,None,None,2933.441006200388,None,,,,,,,,,,,,,,,,,,,,,,,,,,,,,,57NC,001,2023_Apr_26_1643,ExactRep-v3-final,2021.2.3,59.946719564073405,
,,,,,,,,49,0,49,0,,,,,,,,,,,,,,,,,,,,,,,,,,,,,,,,,,,,,,,,,,,,,,,,,,,,,2937.9602899998426,None,,,,,,,,,,,,,,,,,,,,,,,,,,,,,,,,,,,theory,1,50,sing,white,2935.945325099863,None,None,2935.945325099863,None,,,,,,,,,,,,,,,,,,,,,,,,,,,,,,57NC,001,2023_Apr_26_1643,ExactRep-v3-final,2021.2.3,59.946719564073405,
,,,,,,,,50,0,50,0,,,,,,,,,,,,,,,,,,,,,,,,,,,,,,,,,,,,,,,,,,,,,,,,,,,,,2940.479255099781,None,,,,,,,,,,,,,,,,,,,,,,,,,,,,,,,,,,,freedom,96,51,aloud,blue,2938.467449900694,None,None,2938.467449900694,None,,,,,,,,,,,,,,,,,,,,,,,,,,,,,,57NC,001,2023_Apr_26_1643,ExactRep-v3-final,2021.2.3,59.946719564073405,
,,,,,,,,51,0,51,0,,,,,,,,,,,,,,,,,,,,,,,,,,,,,,,,,,,,,,,,,,,,,,,,,,,,,2942.981745700352,None,,,,,,,,,,,,,,,,,,,,,,,,,,,,,,,,,,,mother,49,52,silent,red,2940.9797227000818,None,None,2940.9797227000818,None,,,,,,,,,,,,,,,,,,,,,,,,,,,,,,57NC,001,2023_Apr_26_1643,ExactRep-v3-final,2021.2.3,59.946719564073405,
,,,,,,,,52,0,52,0,,,,,,,,,,,,,,,,,,,,,,,,,,,,,,,,,,,,,,,,,,,,,,,,,,,,,2945.484449500218,None,,,,,,,,,,,,,,,,,,,,,,,,,,,,,,,,,,,breast,32,53,sing,white,2943.4822085006163,None,None,2943.4822085006163,None,,,,,,,,,,,,,,,,,,,,,,,,,,,,,,57NC,001,2023_Apr_26_1643,ExactRep-v3-final,2021.2.3,59.946719564073405,
,,,,,,,,53,0,53,0,,,,,,,,,,,,,,,,,,,,,,,,,,,,,,,,,,,,,,,,,,,,,,,,,,,,,2948.0036546997726,None,,,,,,,,,,,,,,,,,,,,,,,,,,,,,,,,,,,boy,80,54,aloud,blue,2945.989550200291,None,None,2945.989550200291,None,,,,,,,,,,,,,,,,,,,,,,,,,,,,,,57NC,001,2023_Apr_26_1643,ExactRep-v3-final,2021.2.3,59.946719564073405,
,,,,,,,,54,0,54,0,,,,,,,,,,,,,,,,,,,,,,,,,,,,,,,,,,,,,,,,,,,,,,,,,,,,,2950.5225905003026,None,,,,,,,,,,,,,,,,,,,,,,,,,,,,,,,,,,,cash,70,55,silent,red,2948.5135861998424,None,None,2948.5135861998424,None,,,,,,,,,,,,,,,,,,,,,,,,,,,,,,57NC,001,2023_Apr_26_1643,ExactRep-v3-final,2021.2.3,59.946719564073405,
,,,,,,,,55,0,55,0,,,,,,,,,,,,,,,,,,,,,,,,,,,,,,,,,,,,,,,,,,,,,,,,,,,,,2953.0252932999283,None,,,,,,,,,,,,,,,,,,,,,,,,,,,,,,,,,,,stone,53,56,silent,red,2951.023166799918,None,None,2951.023166799918,None,,,,,,,,,,,,,,,,,,,,,,,,,,,,,,57NC,001,2023_Apr_26_1643,ExactRep-v3-final,2021.2.3,59.946719564073405,
,,,,,,,,56,0,56,0,,,,,,,,,,,,,,,,,,,,,,,,,,,,,,,,,,,,,,,,,,,,,,,,,,,,,2955.5278850002214,None,,,,,,,,,,,,,,,,,,,,,,,,,,,,,,,,,,,crime,117,57,aloud,blue,2953.5274691004306,None,None,2953.5274691004306,None,,,,,,,,,,,,,,,,,,,,,,,,,,,,,,57NC,001,2023_Apr_26_1643,ExactRep-v3-final,2021.2.3,59.946719564073405,
,,,,,,,,57,0,57,0,,,,,,,,,,,,,,,,,,,,,,,,,,,,,,,,,,,,,,,,,,,,,,,,,,,,,2958.0469879005104,None,,,,,,,,,,,,,,,,,,,,,,,,,,,,,,,,,,,fun,39,58,silent,red,2956.036415000446,None,None,2956.036415000446,None,,,,,,,,,,,,,,,,,,,,,,,,,,,,,,57NC,001,2023_Apr_26_1643,ExactRep-v3-final,2021.2.3,59.946719564073405,
,,,,,,,,58,0,58,0,,,,,,,,,,,,,,,,,,,,,,,,,,,,,,,,,,,,,,,,,,,,,,,,,,,,,2960.549307900481,None,,,,,,,,,,,,,,,,,,,,,,,,,,,,,,,,,,,salary,30,59,sing,white,2958.5474522998556,None,None,2958.5474522998556,None,,,,,,,,,,,,,,,,,,,,,,,,,,,,,,57NC,001,2023_Apr_26_1643,ExactRep-v3-final,2021.2.3,59.946719564073405,
,,,,,,,,59,0,59,0,,,,,,,,,,,,,,,,,,,,,,,,,,,,,,,,,,,,,,,,,,,,,,,,,,,,,2963.0517996000126,None,,,,,,,,,,,,,,,,,,,,,,,,,,,,,,,,,,,bottle,56,60,silent,red,2961.0504588000476,None,None,2961.0504588000476,None,,,,,,,,,,,,,,,,,,,,,,,,,,,,,,57NC,001,2023_Apr_26_1643,ExactRep-v3-final,2021.2.3,59.946719564073405,
,,,,,,,,60,0,60,0,,,,,,,,,,,,,,,,,,,,,,,,,,,,,,,,,,,,,,,,,,,,,,,,,,,,,2965.5543149001896,None,,,,,,,,,,,,,,,,,,,,,,,,,,,,,,,,,,,engine,35,61,sing,white,2963.5523054003716,None,None,2963.5523054003716,None,,,,,,,,,,,,,,,,,,,,,,,,,,,,,,57NC,001,2023_Apr_26_1643,ExactRep-v3-final,2021.2.3,59.946719564073405,
,,,,,,,,61,0,61,0,,,,,,,,,,,,,,,,,,,,,,,,,,,,,,,,,,,,,,,,,,,,,,,,,,,,,2968.056818500161,None,,,,,,,,,,,,,,,,,,,,,,,,,,,,,,,,,,,moment,71,62,silent,red,2966.054863399826,None,None,2966.054863399826,None,,,,,,,,,,,,,,,,,,,,,,,,,,,,,,57NC,001,2023_Apr_26_1643,ExactRep-v3-final,2021.2.3,59.946719564073405,
,,,,,,,,62,0,62,0,,,,,,,,,,,,,,,,,,,,,,,,,,,,,,,,,,,,,,,,,,,,,,,,,,,,,2970.5604689000174,None,,,,,,,,,,,,,,,,,,,,,,,,,,,,,,,,,,,chance,66,63,silent,red,2968.5573367998004,None,None,2968.5573367998004,None,,,,,,,,,,,,,,,,,,,,,,,,,,,,,,57NC,001,2023_Apr_26_1643,ExactRep-v3-final,2021.2.3,59.946719564073405,
,,,,,,,,63,0,63,0,,,,,,,,,,,,,,,,,,,,,,,,,,,,,,,,,,,,,,,,,,,,,,,,,,,,,2973.078714100644,None,,,,,,,,,,,,,,,,,,,,,,,,,,,,,,,,,,,heaven,68,64,silent,red,2971.063423300162,None,None,2971.063423300162,None,,,,,,,,,,,,,,,,,,,,,,,,,,,,,,57NC,001,2023_Apr_26_1643,ExactRep-v3-final,2021.2.3,59.946719564073405,
,,,,,,,,64,0,64,0,,,,,,,,,,,,,,,,,,,,,,,,,,,,,,,,,,,,,,,,,,,,,,,,,,,,,2975.5979479001835,None,,,,,,,,,,,,,,,,,,,,,,,,,,,,,,,,,,,sky,60,65,silent,red,2973.58595590014,None,None,2973.58595590014,None,,,,,,,,,,,,,,,,,,,,,,,,,,,,,,57NC,001,2023_Apr_26_1643,ExactRep-v3-final,2021.2.3,59.946719564073405,
,,,,,,,,65,0,65,0,,,,,,,,,,,,,,,,,,,,,,,,,,,,,,,,,,,,,,,,,,,,,,,,,,,,,2978.1170717002824,None,,,,,,,,,,,,,,,,,,,,,,,,,,,,,,,,,,,rod,47,66,silent,red,2976.102489400655,None,None,2976.102489400655,None,,,,,,,,,,,,,,,,,,,,,,,,,,,,,,57NC,001,2023_Apr_26_1643,ExactRep-v3-final,2021.2.3,59.946719564073405,
,,,,,,,,66,0,66,0,,,,,,,,,,,,,,,,,,,,,,,,,,,,,,,,,,,,,,,,,,,,,,,,,,,,,2980.619463200681,None,,,,,,,,,,,,,,,,,,,,,,,,,,,,,,,,,,,bowl,11,67,sing,white,2978.617624199949,None,None,2978.617624199949,None,,,,,,,,,,,,,,,,,,,,,,,,,,,,,,57NC,001,2023_Apr_26_1643,ExactRep-v3-final,2021.2.3,59.946719564073405,
,,,,,,,,67,0,67,0,,,,,,,,,,,,,,,,,,,,,,,,,,,,,,,,,,,,,,,,,,,,,,,,,,,,,2983.122147200629,None,,,,,,,,,,,,,,,,,,,,,,,,,,,,,,,,,,,home,84,68,aloud,blue,2981.1199358003214,None,None,2981.1199358003214,None,,,,,,,,,,,,,,,,,,,,,,,,,,,,,,57NC,001,2023_Apr_26_1643,ExactRep-v3-final,2021.2.3,59.946719564073405,
,,,,,,,,68,0,68,0,,,,,,,,,,,,,,,,,,,,,,,,,,,,,,,,,,,,,,,,,,,,,,,,,,,,,2985.6412840001285,None,,,,,,,,,,,,,,,,,,,,,,,,,,,,,,,,,,,death,76,69,silent,red,2983.632142400369,None,None,2983.632142400369,None,,,,,,,,,,,,,,,,,,,,,,,,,,,,,,57NC,001,2023_Apr_26_1643,ExactRep-v3-final,2021.2.3,59.946719564073405,
,,,,,,,,69,0,69,0,,,,,,,,,,,,,,,,,,,,,,,,,,,,,,,,,,,,,,,,,,,,,,,,,,,,,2988.1434073001146,None,,,,,,,,,,,,,,,,,,,,,,,,,,,,,,,,,,,grass,52,70,silent,red,2986.1416595000774,None,None,2986.1416595000774,None,,,,,,,,,,,,,,,,,,,,,,,,,,,,,,57NC,001,2023_Apr_26_1643,ExactRep-v3-final,2021.2.3,59.946719564073405,
,,,,,,,,70,0,70,0,,,,,,,,,,,,,,,,,,,,,,,,,,,,,,,,,,,,,,,,,,,,,,,,,,,,,2990.662789899856,None,,,,,,,,,,,,,,,,,,,,,,,,,,,,,,,,,,,dress,28,71,sing,white,2988.650105900131,None,None,2988.650105900131,None,,,,,,,,,,,,,,,,,,,,,,,,,,,,,,57NC,001,2023_Apr_26_1643,ExactRep-v3-final,2021.2.3,59.946719564073405,
,,,,,,,,71,0,71,0,,,,,,,,,,,,,,,,,,,,,,,,,,,,,,,,,,,,,,,,,,,,,,,,,,,,,2993.1651486000046,None,,,,,,,,,,,,,,,,,,,,,,,,,,,,,,,,,,,glory,110,72,aloud,blue,2991.1633021002635,None,None,2991.1633021002635,None,,,,,,,,,,,,,,,,,,,,,,,,,,,,,,57NC,001,2023_Apr_26_1643,ExactRep-v3-final,2021.2.3,59.946719564073405,
,,,,,,,,72,0,72,0,,,,,,,,,,,,,,,,,,,,,,,,,,,,,,,,,,,,,,,,,,,,,,,,,,,,,2995.6679643997923,None,,,,,,,,,,,,,,,,,,,,,,,,,,,,,,,,,,,brain,86,73,aloud,blue,2993.6658770004287,None,None,2993.6658770004287,None,,,,,,,,,,,,,,,,,,,,,,,,,,,,,,57NC,001,2023_Apr_26_1643,ExactRep-v3-final,2021.2.3,59.946719564073405,
,,,,,,,,73,0,73,0,,,,,,,,,,,,,,,,,,,,,,,,,,,,,,,,,,,,,,,,,,,,,,,,,,,,,2998.170557100326,None,,,,,,,,,,,,,,,,,,,,,,,,,,,,,,,,,,,custom,29,74,sing,white,2996.171395299956,None,None,2996.171395299956,None,,,,,,,,,,,,,,,,,,,,,,,,,,,,,,57NC,001,2023_Apr_26_1643,ExactRep-v3-final,2021.2.3,59.946719564073405,
,,,,,,,,74,0,74,0,,,,,,,,,,,,,,,,,,,,,,,,,,,,,,,,,,,,,,,,,,,,,,,,,,,,,3000.6897395001724,None,,,,,,,,,,,,,,,,,,,,,,,,,,,,,,,,,,,ocean,92,75,aloud,blue,2998.6781211998314,None,None,2998.6781211998314,None,,,,,,,,,,,,,,,,,,,,,,,,,,,,,,57NC,001,2023_Apr_26_1643,ExactRep-v3-final,2021.2.3,59.946719564073405,
,,,,,,,,75,0,75,0,,,,,,,,,,,,,,,,,,,,,,,,,,,,,,,,,,,,,,,,,,,,,,,,,,,,,3003.1919426005334,None,,,,,,,,,,,,,,,,,,,,,,,,,,,,,,,,,,,method,12,76,sing,white,3001.189941300079,None,None,3001.189941300079,None,,,,,,,,,,,,,,,,,,,,,,,,,,,,,,57NC,001,2023_Apr_26_1643,ExactRep-v3-final,2021.2.3,59.946719564073405,
,,,,,,,,76,0,76,0,,,,,,,,,,,,,,,,,,,,,,,,,,,,,,,,,,,,,,,,,,,,,,,,,,,,,3005.6944545004517,None,,,,,,,,,,,,,,,,,,,,,,,,,,,,,,,,,,,cat,104,77,aloud,blue,3003.6926922006533,None,None,3003.6926922006533,None,,,,,,,,,,,,,,,,,,,,,,,,,,,,,,57NC,001,2023_Apr_26_1643,ExactRep-v3-final,2021.2.3,59.946719564073405,
,,,,,,,,77,0,77,0,,,,,,,,,,,,,,,,,,,,,,,,,,,,,,,,,,,,,,,,,,,,,,,,,,,,,3008.1971084000543,None,,,,,,,,,,,,,,,,,,,,,,,,,,,,,,,,,,,sea,67,78,silent,red,3006.1959632001817,None,None,3006.1959632001817,None,,,,,,,,,,,,,,,,,,,,,,,,,,,,,,57NC,001,2023_Apr_26_1643,ExactRep-v3-final,2021.2.3,59.946719564073405,
,,,,,,,,78,0,78,0,,,,,,,,,,,,,,,,,,,,,,,,,,,,,,,,,,,,,,,,,,,,,,,,,,,,,3010.6995895002037,None,,,,,,,,,,,,,,,,,,,,,,,,,,,,,,,,,,,dollar,112,79,aloud,blue,3008.699195000343,None,None,3008.699195000343,None,,,,,,,,,,,,,,,,,,,,,,,,,,,,,,57NC,001,2023_Apr_26_1643,ExactRep-v3-final,2021.2.3,59.946719564073405,
,,,,,,,,79,0,79,0,,,,,,,,,,,,,,,,,,,,,,,,,,,,,,,,,,,,,,,,,,,,,,,,,,,,,3013.202146200463,None,,,,,,,,,,,,,,,,,,,,,,,,,,,,,,,,,,,dream,69,80,silent,red,3011.2001196006313,None,None,3011.2001196006313,None,,,,,,,,,,,,,,,,,,,,,,,,,,,,,,57NC,001,2023_Apr_26_1643,ExactRep-v3-final,2021.2.3,59.946719564073405,
,,,,,,,,80,0,80,0,,,,,,,,,,,,,,,,,,,,,,,,,,,,,,,,,,,,,,,,,,,,,,,,,,,,,3015.7047051005065,None,,,,,,,,,,,,,,,,,,,,,,,,,,,,,,,,,,,passion,89,81,aloud,blue,3013.705372100696,None,None,3013.705372100696,None,,,,,,,,,,,,,,,,,,,,,,,,,,,,,,57NC,001,2023_Apr_26_1643,ExactRep-v3-final,2021.2.3,59.946719564073405,
,,,,,,,,81,0,81,0,,,,,,,,,,,,,,,,,,,,,,,,,,,,,,,,,,,,,,,,,,,,,,,,,,,,,3018.2069784998894,None,,,,,,,,,,,,,,,,,,,,,,,,,,,,,,,,,,,flower,0,82,sing,white,3016.2070923000574,None,None,3016.2070923000574,None,,,,,,,,,,,,,,,,,,,,,,,,,,,,,,57NC,001,2023_Apr_26_1643,ExactRep-v3-final,2021.2.3,59.946719564073405,
,,,,,,,,82,0,82,0,,,,,,,,,,,,,,,,,,,,,,,,,,,,,,,,,,,,,,,,,,,,,,,,,,,,,3020.726382200606,None,,,,,,,,,,,,,,,,,,,,,,,,,,,,,,,,,,,leader,83,83,aloud,blue,3018.7109500002116,None,None,3018.7109500002116,None,,,,,,,,,,,,,,,,,,,,,,,,,,,,,,57NC,001,2023_Apr_26_1643,ExactRep-v3-final,2021.2.3,59.946719564073405,
,,,,,,,,83,0,83,0,,,,,,,,,,,,,,,,,,,,,,,,,,,,,,,,,,,,,,,,,,,,,,,,,,,,,3023.2289305999875,None,,,,,,,,,,,,,,,,,,,,,,,,,,,,,,,,,,,student,14,84,sing,white,3021.2265701005235,None,None,3021.2265701005235,None,,,,,,,,,,,,,,,,,,,,,,,,,,,,,,57NC,001,2023_Apr_26_1643,ExactRep-v3-final,2021.2.3,59.946719564073405,
,,,,,,,,84,0,84,0,,,,,,,,,,,,,,,,,,,,,,,,,,,,,,,,,,,,,,,,,,,,,,,,,,,,,3025.748208099976,None,,,,,,,,,,,,,,,,,,,,,,,,,,,,,,,,,,,excuse,90,85,aloud,blue,3023.7465548003092,None,None,3023.7465548003092,None,,,,,,,,,,,,,,,,,,,,,,,,,,,,,,57NC,001,2023_Apr_26_1643,ExactRep-v3-final,2021.2.3,59.946719564073405,
,,,,,,,,85,0,85,0,,,,,,,,,,,,,,,,,,,,,,,,,,,,,,,,,,,,,,,,,,,,,,,,,,,,,3028.2505930000916,None,,,,,,,,,,,,,,,,,,,,,,,,,,,,,,,,,,,shore,64,86,silent,red,3026.2496937001124,None,None,3026.2496937001124,None,,,,,,,,,,,,,,,,,,,,,,,,,,,,,,57NC,001,2023_Apr_26_1643,ExactRep-v3-final,2021.2.3,59.946719564073405,
,,,,,,,,86,0,86,0,,,,,,,,,,,,,,,,,,,,,,,,,,,,,,,,,,,,,,,,,,,,,,,,,,,,,3030.769834499806,None,,,,,,,,,,,,,,,,,,,,,,,,,,,,,,,,,,,steam,9,87,sing,white,3028.754257700406,None,None,3028.754257700406,None,,,,,,,,,,,,,,,,,,,,,,,,,,,,,,57NC,001,2023_Apr_26_1643,ExactRep-v3-final,2021.2.3,59.946719564073405,
,,,,,,,,87,0,87,0,,,,,,,,,,,,,,,,,,,,,,,,,,,,,,,,,,,,,,,,,,,,,,,,,,,,,3033.2722970005125,None,,,,,,,,,,,,,,,,,,,,,,,,,,,,,,,,,,,hall,6,88,sing,white,3031.26993910037,None,None,3031.26993910037,None,,,,,,,,,,,,,,,,,,,,,,,,,,,,,,57NC,001,2023_Apr_26_1643,ExactRep-v3-final,2021.2.3,59.946719564073405,
,,,,,,,,88,0,88,0,,,,,,,,,,,,,,,,,,,,,,,,,,,,,,,,,,,,,,,,,,,,,,,,,,,,,3035.7913012001663,None,,,,,,,,,,,,,,,,,,,,,,,,,,,,,,,,,,,beast,10,89,sing,white,3033.780606900342,None,None,3033.780606900342,None,,,,,,,,,,,,,,,,,,,,,,,,,,,,,,57NC,001,2023_Apr_26_1643,ExactRep-v3-final,2021.2.3,59.946719564073405,
,,,,,,,,89,0,89,0,,,,,,,,,,,,,,,,,,,,,,,,,,,,,,,,,,,,,,,,,,,,,,,,,,,,,3038.3104309998453,None,,,,,,,,,,,,,,,,,,,,,,,,,,,,,,,,,,,length,105,90,aloud,blue,3036.299171300605,None,None,3036.299171300605,None,,,,,,,,,,,,,,,,,,,,,,,,,,,,,,57NC,001,2023_Apr_26_1643,ExactRep-v3-final,2021.2.3,59.946719564073405,
,,,,,,,,90,0,90,0,,,,,,,,,,,,,,,,,,,,,,,,,,,,,,,,,,,,,,,,,,,,,,,,,,,,,3040.8130606003106,None,,,,,,,,,,,,,,,,,,,,,,,,,,,,,,,,,,,temple,19,91,sing,white,3038.81111270003,None,None,3038.81111270003,None,,,,,,,,,,,,,,,,,,,,,,,,,,,,,,57NC,001,2023_Apr_26_1643,ExactRep-v3-final,2021.2.3,59.946719564073405,
,,,,,,,,91,0,91,0,,,,,,,,,,,,,,,,,,,,,,,,,,,,,,,,,,,,,,,,,,,,,,,,,,,,,3043.3155716005713,None,,,,,,,,,,,,,,,,,,,,,,,,,,,,,,,,,,,month,25,92,sing,white,3041.3165874006227,None,None,3041.3165874006227,None,,,,,,,,,,,,,,,,,,,,,,,,,,,,,,57NC,001,2023_Apr_26_1643,ExactRep-v3-final,2021.2.3,59.946719564073405,
,,,,,,,,92,0,92,0,,,,,,,,,,,,,,,,,,,,,,,,,,,,,,,,,,,,,,,,,,,,,,,,,,,,,3045.8181608002633,None,,,,,,,,,,,,,,,,,,,,,,,,,,,,,,,,,,,health,34,93,sing,white,3043.817941300571,None,None,3043.817941300571,None,,,,,,,,,,,,,,,,,,,,,,,,,,,,,,57NC,001,2023_Apr_26_1643,ExactRep-v3-final,2021.2.3,59.946719564073405,
,,,,,,,,93,0,93,0,,,,,,,,,,,,,,,,,,,,,,,,,,,,,,,,,,,,,,,,,,,,,,,,,,,,,3048.320627500303,None,,,,,,,,,,,,,,,,,,,,,,,,,,,,,,,,,,,camp,59,94,silent,red,3046.3185319006443,None,None,3046.3185319006443,None,,,,,,,,,,,,,,,,,,,,,,,,,,,,,,57NC,001,2023_Apr_26_1643,ExactRep-v3-final,2021.2.3,59.946719564073405,
,,,,,,,,94,0,94,0,,,,,,,,,,,,,,,,,,,,,,,,,,,,,,,,,,,,,,,,,,,,,,,,,,,,,3050.823000400327,None,,,,,,,,,,,,,,,,,,,,,,,,,,,,,,,,,,,author,78,95,silent,red,3048.820957100019,None,None,3048.820957100019,None,,,,,,,,,,,,,,,,,,,,,,,,,,,,,,57NC,001,2023_Apr_26_1643,ExactRep-v3-final,2021.2.3,59.946719564073405,
,,,,,,,,95,0,95,0,,,,,,,,,,,,,,,,,,,,,,,,,,,,,,,,,,,,,,,,,,,,,,,,,,,,,3053.3289916003123,None,,,,,,,,,,,,,,,,,,,,,,,,,,,,,,,,,,,life,73,96,silent,red,3051.3234830005094,None,None,3051.3234830005094,None,,,,,,,,,,,,,,,,,,,,,,,,,,,,,,57NC,001,2023_Apr_26_1643,ExactRep-v3-final,2021.2.3,59.946719564073405,
,,,,,,,,96,0,96,0,,,,,,,,,,,,,,,,,,,,,,,,,,,,,,,,,,,,,,,,,,,,,,,,,,,,,3055.844897300005,None,,,,,,,,,,,,,,,,,,,,,,,,,,,,,,,,,,,vessel,116,97,aloud,blue,3053.8441622005776,None,None,3053.8441622005776,None,,,,,,,,,,,,,,,,,,,,,,,,,,,,,,57NC,001,2023_Apr_26_1643,ExactRep-v3-final,2021.2.3,59.946719564073405,
,,,,,,,,97,0,97,0,,,,,,,,,,,,,,,,,,,,,,,,,,,,,,,,,,,,,,,,,,,,,,,,,,,,,3058.3639451004565,None,,,,,,,,,,,,,,,,,,,,,,,,,,,,,,,,,,,table,26,98,sing,white,3056.350726700388,None,None,3056.350726700388,None,,,,,,,,,,,,,,,,,,,,,,,,,,,,,,57NC,001,2023_Apr_26_1643,ExactRep-v3-final,2021.2.3,59.946719564073405,
,,,,,,,,98,0,98,0,,,,,,,,,,,,,,,,,,,,,,,,,,,,,,,,,,,,,,,,,,,,,,,,,,,,,3060.8830021005124,None,,,,,,,,,,,,,,,,,,,,,,,,,,,,,,,,,,,artist,82,99,aloud,blue,3058.867873299867,None,None,3058.867873299867,None,,,,,,,,,,,,,,,,,,,,,,,,,,,,,,57NC,001,2023_Apr_26_1643,ExactRep-v3-final,2021.2.3,59.946719564073405,
,,,,,,,,99,0,99,0,,,,,,,,,,,,,,,,,,,,,,,,,,,,,,,,,,,,,,,,,,,,,,,,,,,,,3063.385686300695,None,,,,,,,,,,,,,,,,,,,,,,,,,,,,,,,,,,,cotton,40,100,silent,red,3061.383379000239,None,None,3061.383379000239,None,,,,,,,,,,,,,,,,,,,,,,,,,,,,,,57NC,001,2023_Apr_26_1643,ExactRep-v3-final,2021.2.3,59.946719564073405,
,,,,,,,,100,0,100,0,,,,,,,,,,,,,,,,,,,,,,,,,,,,,,,,,,,,,,,,,,,,,,,,,,,,,3065.888148000464,None,,,,,,,,,,,,,,,,,,,,,,,,,,,,,,,,,,,lip,46,101,silent,red,3063.8886769004166,None,None,3063.8886769004166,None,,,,,,,,,,,,,,,,,,,,,,,,,,,,,,57NC,001,2023_Apr_26_1643,ExactRep-v3-final,2021.2.3,59.946719564073405,
,,,,,,,,101,0,101,0,,,,,,,,,,,,,,,,,,,,,,,,,,,,,,,,,,,,,,,,,,,,,,,,,,,,,3068.407189000398,None,,,,,,,,,,,,,,,,,,,,,,,,,,,,,,,,,,,grief,24,102,sing,white,3066.392453200184,None,None,3066.392453200184,None,,,,,,,,,,,,,,,,,,,,,,,,,,,,,,57NC,001,2023_Apr_26_1643,ExactRep-v3-final,2021.2.3,59.946719564073405,
,,,,,,,,102,0,102,0,,,,,,,,,,,,,,,,,,,,,,,,,,,,,,,,,,,,,,,,,,,,,,,,,,,,,3070.9265401000157,None,,,,,,,,,,,,,,,,,,,,,,,,,,,,,,,,,,,answer,74,103,silent,red,3068.9138408005238,None,None,3068.9138408005238,None,,,,,,,,,,,,,,,,,,,,,,,,,,,,,,57NC,001,2023_Apr_26_1643,ExactRep-v3-final,2021.2.3,59.946719564073405,
,,,,,,,,103,0,103,0,,,,,,,,,,,,,,,,,,,,,,,,,,,,,,,,,,,,,,,,,,,,,,,,,,,,,3073.445670700632,None,,,,,,,,,,,,,,,,,,,,,,,,,,,,,,,,,,,apple,43,104,silent,red,3071.4312629001215,None,None,3071.4312629001215,None,,,,,,,,,,,,,,,,,,,,,,,,,,,,,,57NC,001,2023_Apr_26_1643,ExactRep-v3-final,2021.2.3,59.946719564073405,
,,,,,,,,104,0,104,0,,,,,,,,,,,,,,,,,,,,,,,,,,,,,,,,,,,,,,,,,,,,,,,,,,,,,3075.948189000599,None,,,,,,,,,,,,,,,,,,,,,,,,,,,,,,,,,,,gift,75,105,silent,red,3073.946238500066,None,None,3073.946238500066,None,,,,,,,,,,,,,,,,,,,,,,,,,,,,,,57NC,001,2023_Apr_26_1643,ExactRep-v3-final,2021.2.3,59.946719564073405,
,,,,,,,,105,0,105,0,,,,,,,,,,,,,,,,,,,,,,,,,,,,,,,,,,,,,,,,,,,,,,,,,,,,,3078.4506981000304,None,,,,,,,,,,,,,,,,,,,,,,,,,,,,,,,,,,,air,114,106,aloud,blue,3076.4504506997764,None,None,3076.4504506997764,None,,,,,,,,,,,,,,,,,,,,,,,,,,,,,,57NC,001,2023_Apr_26_1643,ExactRep-v3-final,2021.2.3,59.946719564073405,
,,,,,,,,106,0,106,0,,,,,,,,,,,,,,,,,,,,,,,,,,,,,,,,,,,,,,,,,,,,,,,,,,,,,3080.9696992998943,None,,,,,,,,,,,,,,,,,,,,,,,,,,,,,,,,,,,market,37,107,sing,white,3078.9542970005423,None,None,3078.9542970005423,None,,,,,,,,,,,,,,,,,,,,,,,,,,,,,,57NC,001,2023_Apr_26_1643,ExactRep-v3-final,2021.2.3,59.946719564073405,
,,,,,,,,107,0,107,0,,,,,,,,,,,,,,,,,,,,,,,,,,,,,,,,,,,,,,,,,,,,,,,,,,,,,3083.4890731005,None,,,,,,,,,,,,,,,,,,,,,,,,,,,,,,,,,,,fate,8,108,sing,white,3081.476686500013,None,None,3081.476686500013,None,,,,,,,,,,,,,,,,,,,,,,,,,,,,,,57NC,001,2023_Apr_26_1643,ExactRep-v3-final,2021.2.3,59.946719564073405,
,,,,,,,,108,0,108,0,,,,,,,,,,,,,,,,,,,,,,,,,,,,,,,,,,,,,,,,,,,,,,,,,,,,,3085.9915578998625,None,,,,,,,,,,,,,,,,,,,,,,,,,,,,,,,,,,,circle,21,109,sing,white,3083.9896253999323,None,None,3083.9896253999323,None,,,,,,,,,,,,,,,,,,,,,,,,,,,,,,57NC,001,2023_Apr_26_1643,ExactRep-v3-final,2021.2.3,59.946719564073405,
,,,,,,,,109,0,109,0,,,,,,,,,,,,,,,,,,,,,,,,,,,,,,,,,,,,,,,,,,,,,,,,,,,,,3088.4940622001886,None,,,,,,,,,,,,,,,,,,,,,,,,,,,,,,,,,,,iron,16,110,sing,white,3086.4938717000186,None,None,3086.4938717000186,None,,,,,,,,,,,,,,,,,,,,,,,,,,,,,,57NC,001,2023_Apr_26_1643,ExactRep-v3-final,2021.2.3,59.946719564073405,
,,,,,,,,110,0,110,0,,,,,,,,,,,,,,,,,,,,,,,,,,,,,,,,,,,,,,,,,,,,,,,,,,,,,3090.9966583000496,None,,,,,,,,,,,,,,,,,,,,,,,,,,,,,,,,,,,victory,63,111,silent,red,3088.9962825998664,None,None,3088.9962825998664,None,,,,,,,,,,,,,,,,,,,,,,,,,,,,,,57NC,001,2023_Apr_26_1643,ExactRep-v3-final,2021.2.3,59.946719564073405,
,,,,,,,,111,0,111,0,,,,,,,,,,,,,,,,,,,,,,,,,,,,,,,,,,,,,,,,,,,,,,,,,,,,,3093.4990587001666,None,,,,,,,,,,,,,,,,,,,,,,,,,,,,,,,,,,,pride,48,112,silent,red,3091.4970607003197,None,None,3091.4970607003197,None,,,,,,,,,,,,,,,,,,,,,,,,,,,,,,57NC,001,2023_Apr_26_1643,ExactRep-v3-final,2021.2.3,59.946719564073405,
,,,,,,,,112,0,112,0,,,,,,,,,,,,,,,,,,,,,,,,,,,,,,,,,,,,,,,,,,,,,,,,,,,,,3096.0014223000035,None,,,,,,,,,,,,,,,,,,,,,,,,,,,,,,,,,,,coin,36,113,sing,white,3093.999650400132,None,None,3093.999650400132,None,,,,,,,,,,,,,,,,,,,,,,,,,,,,,,57NC,001,2023_Apr_26_1643,ExactRep-v3-final,2021.2.3,59.946719564073405,
,,,,,,,,113,0,113,0,,,,,,,,,,,,,,,,,,,,,,,,,,,,,,,,,,,,,,,,,,,,,,,,,,,,,3098.5041188001633,None,,,,,,,,,,,,,,,,,,,,,,,,,,,,,,,,,,,effort,44,114,silent,red,3096.5019185002893,None,None,3096.5019185002893,None,,,,,,,,,,,,,,,,,,,,,,,,,,,,,,57NC,001,2023_Apr_26_1643,ExactRep-v3-final,2021.2.3,59.946719564073405,
,,,,,,,,114,0,114,0,,,,,,,,,,,,,,,,,,,,,,,,,,,,,,,,,,,,,,,,,,,,,,,,,,,,,3101.023169199936,None,,,,,,,,,,,,,,,,,,,,,,,,,,,,,,,,,,,person,42,115,silent,red,3099.0079449005425,None,None,3099.0079449005425,None,,,,,,,,,,,,,,,,,,,,,,,,,,,,,,57NC,001,2023_Apr_26_1643,ExactRep-v3-final,2021.2.3,59.946719564073405,
,,,,,,,,115,0,115,0,,,,,,,,,,,,,,,,,,,,,,,,,,,,,,,,,,,,,,,,,,,,,,,,,,,,,3103.544349499978,None,,,,,,,,,,,,,,,,,,,,,,,,,,,,,,,,,,,insect,118,116,aloud,blue,3101.530591700226,None,None,3101.530591700226,None,,,,,,,,,,,,,,,,,,,,,,,,,,,,,,57NC,001,2023_Apr_26_1643,ExactRep-v3-final,2021.2.3,59.946719564073405,
,,,,,,,,116,0,116,0,,,,,,,,,,,,,,,,,,,,,,,,,,,,,,,,,,,,,,,,,,,,,,,,,,,,,3106.044932800345,None,,,,,,,,,,,,,,,,,,,,,,,,,,,,,,,,,,,colony,62,117,silent,red,3104.043000000529,None,None,3104.043000000529,None,,,,,,,,,,,,,,,,,,,,,,,,,,,,,,57NC,001,2023_Apr_26_1643,ExactRep-v3-final,2021.2.3,59.946719564073405,
,,,,,,,,117,0,117,0,,,,,,,,,,,,,,,,,,,,,,,,,,,,,,,,,,,,,,,,,,,,,,,,,,,,,3108.547453400679,None,,,,,,,,,,,,,,,,,,,,,,,,,,,,,,,,,,,weapon,51,118,silent,red,3106.54576820042,None,None,3106.54576820042,None,,,,,,,,,,,,,,,,,,,,,,,,,,,,,,57NC,001,2023_Apr_26_1643,ExactRep-v3-final,2021.2.3,59.946719564073405,
,,,,,,,,118,0,118,0,,,,,,,,,,,,,,,,,,,,,,,,,,,,,,,,,,,,,,,,,,,,,,,,,,,,,3111.0499512003735,None,,,,,,,,,,,,,,,,,,,,,,,,,,,,,,,,,,,dawn,101,119,aloud,blue,3109.0478269997984,None,None,3109.0478269997984,None,,,,,,,,,,,,,,,,,,,,,,,,,,,,,,57NC,001,2023_Apr_26_1643,ExactRep-v3-final,2021.2.3,59.946719564073405,
,,,,,,,,119,0,119,0,,,,,,,,,,,,,,,,,,,,,,,,,,,,,,,,,,,,,,,,,,,,,,,,,,,,,3113.5524909002706,None,,,,,,,,,,,,,,,,,,,,,,,,,,,,,,,,,,,pipe,50,120,silent,red,3111.5510646998882,None,None,3111.5510646998882,None,,,,,,,,,,,,,,,,,,,,,,,,,,,,,,57NC,001,2023_Apr_26_1643,ExactRep-v3-final,2021.2.3,59.946719564073405,
,,,,,,,,,,,,,,,,,,,,,,,,,,,,,,,,,,,,,,,,,,,,,,,,,,,,,,,,,,,,,,,,,,,,,,,,,,,,,,,,,,,,,,,,,,,,,,,,,,,,,,,,,,,,,,3114.054613799788,None,space,0.09805629961192608,3124.0309480000287,None,,,,,,,,,,,,,,,,,,,,,,,,57NC,001,2023_Apr_26_1643,ExactRep-v3-final,2021.2.3,59.946719564073405,
,,,,,,,,,,,,,,,,,,,,,,,,,,,,,,,,,,,,,,,,,,,,,,,,,,,,,,,,,,,,,,,,,,,,,,,,,,,,,,,,,,,,,,,,,,,,,,,,,,,,,,,,,,,,,,,,,,,,3124.1482771001756,None,space,22.524526899680495,3134.1246079001576,None,,,,,,,,,,,,,,,,,,57NC,001,2023_Apr_26_1643,ExactRep-v3-final,2021.2.3,59.946719564073405,
,,,,,,,,,,,,0,0,0,0,,,,,,,,,,,,,,,,,,,,,,,,,,,,,,,,,,,,,,,,,,,,,,,,,3160.7830395000055,None,,,,,,,,,,,,,,,,,,,,,,,,,,,,,,,,,,,,,,,,,,,,,,,,,,,,,,,,,nail,153,1,silent,new,yellow,3157.1975548006594,None,n,3157.1975548006594,None,"['n', 'return']","[2.1712054004892707, 3.5472547002136707]",3157.1975548006594,None,,,57NC,001,2023_Apr_26_1643,ExactRep-v3-final,2021.2.3,59.946719564073405,
,,,,,,,,,,,,1,0,1,0,,,,,,,,,,,,,,,,,,,,,,,,,,,,,,,,,,,,,,,,,,,,,,,,,3163.6356792002916,None,,,,,,,,,,,,,,,,,,,,,,,,,,,,,,,,,,,,,,,,,,,,,,,,,,,,,,,,,plain,143,2,silent,new,yellow,3161.293763199821,None,y,3161.293763199821,None,"['y', 'return']","[2.027063900604844, 2.3069653008133173]",3161.293763199821,None,,,57NC,001,2023_Apr_26_1643,ExactRep-v3-final,2021.2.3,59.946719564073405,
,,,,,,,,,,,,2,0,2,0,,,,,,,,,,,,,,,,,,,,,,,,,,,,,,,,,,,,,,,,,,,,,,,,,3168.9576635006815,None,,,,,,,,,,,,,,,,,,,,,,,,,,,,,,,,,,,,,,,,,,,,,,,,,,,,,,,,,duty,181,3,sing,new,yellow,3164.147224499844,None,n,3164.147224499844,None,"['n', 'return']","[3.821774600073695, 4.765559300780296]",3164.147224499844,None,,,57NC,001,2023_Apr_26_1643,ExactRep-v3-final,2021.2.3,59.946719564073405,
,,,,,,,,,,,,3,0,3,0,,,,,,,,,,,,,,,,,,,,,,,,,,,,,,,,,,,,,,,,,,,,,,,,,3171.6270617004484,None,,,,,,,,,,,,,,,,,,,,,,,,,,,,,,,,,,,,,,,,,,,,,,,,,,,,,,,,,chair,188,4,aloud,new,yellow,3169.464710100554,None,y,3169.464710100554,None,"['y', 'return']","[1.840068900026381, 2.1201596995815635]",3169.464710100554,None,,,57NC,001,2023_Apr_26_1643,ExactRep-v3-final,2021.2.3,59.946719564073405,
,,,,,,,,,,,,4,0,4,0,,,,,,,,,,,,,,,,,,,,,,,,,,,,,,,,,,,,,,,,,,,,,,,,,3173.1118344003335,None,,,,,,,,,,,,,,,,,,,,,,,,,,,,,,,,,,,,,,,,,,,,,,,,,,,,,,,,,trouble,122,5,silent,new,yellow,3172.1360026998445,None,n,3172.1360026998445,None,"['n', 'return']","[0.7127758003771305, 0.9367885999381542]",3172.1360026998445,None,,,57NC,001,2023_Apr_26_1643,ExactRep-v3-final,2021.2.3,59.946719564073405,
,,,,,,,,,,,,5,0,5,0,,,,,,,,,,,,,,,,,,,,,,,,,,,,,,,,,,,,,,,,,,,,,,,,,3176.598645700142,None,,,,,,,,,,,,,,,,,,,,,,,,,,,,,,,,,,,,,,,,,,,,,,,,,,,,,,,,,library,213,6,sing,new,yellow,3173.621945399791,None,n,3173.621945399791,None,"['n', 'return']","[2.690871000289917, 2.9388853004202247]",3173.621945399791,None,,,57NC,001,2023_Apr_26_1643,ExactRep-v3-final,2021.2.3,59.946719564073405,
,,,,,,,,,,,,6,0,6,0,,,,,,,,,,,,,,,,,,,,,,,,,,,,,,,,,,,,,,,,,,,,,,,,,3178.4172349004075,None,,,,,,,,,,,,,,,,,,,,,,,,,,,,,,,,,,,,,,,,,,,,,,,,,,,,,,,,,storm,38,7,sing,old,yellow,3177.1055084001273,None,y,3177.1055084001273,None,"['y', 'return']","[1.0314937001094222, 1.2713077999651432]",3177.1055084001273,None,,,57NC,001,2023_Apr_26_1643,ExactRep-v3-final,2021.2.3,59.946719564073405,
,,,,,,,,,,,,7,0,7,0,,,,,,,,,,,,,,,,,,,,,,,,,,,,,,,,,,,,,,,,,,,,,,,,,3180.7861540000886,None,,,,,,,,,,,,,,,,,,,,,,,,,,,,,,,,,,,,,,,,,,,,,,,,,,,,,,,,,valley,162,8,aloud,new,yellow,3178.9282339001074,None,n,3178.9282339001074,None,"['n', 'return']","[1.5768261002376676, 1.8165515000000596]",3178.9282339001074,None,,,57NC,001,2023_Apr_26_1643,ExactRep-v3-final,2021.2.3,59.946719564073405,
,,,,,,,,,,,,8,0,8,0,,,,,,,,,,,,,,,,,,,,,,,,,,,,,,,,,,,,,,,,,,,,,,,,,3182.4879045002162,None,,,,,,,,,,,,,,,,,,,,,,,,,,,,,,,,,,,,,,,,,,,,,,,,,,,,,,,,,college,131,9,silent,new,yellow,3181.2926372000948,None,n,3181.2926372000948,None,"['n', 'return']","[0.924040500074625, 1.1482098000124097]",3181.2926372000948,None,,,57NC,001,2023_Apr_26_1643,ExactRep-v3-final,2021.2.3,59.946719564073405,
,,,,,,,,,,,,9,0,9,0,,,,,,,,,,,,,,,,,,,,,,,,,,,,,,,,,,,,,,,,,,,,,,,,,3186.1415462000296,None,,,,,,,,,,,,,,,,,,,,,,,,,,,,,,,,,,,,,,,,,,,,,,,,,,,,,,,,,plant,108,10,aloud,old,yellow,3182.995146700181,None,y,3182.995146700181,None,"['y', 'return']","[2.9498124001547694, 3.1098040994256735]",3182.995146700181,None,,,57NC,001,2023_Apr_26_1643,ExactRep-v3-final,2021.2.3,59.946719564073405,
,,,,,,,,,,,,10,0,10,0,,,,,,,,,,,,,,,,,,,,,,,,,,,,,,,,,,,,,,,,,,,,,,,,,3188.844215900637,None,,,,,,,,,,,,,,,,,,,,,,,,,,,,,,,,,,,,,,,,,,,,,,,,,,,,,,,,,ability,166,11,aloud,new,yellow,3186.6588109005243,None,y,3186.6588109005243,None,"['y', 'return']","[1.669976499862969, 2.1421416997909546]",3186.6588109005243,None,,,57NC,001,2023_Apr_26_1643,ExactRep-v3-final,2021.2.3,59.946719564073405,
,,,,,,,,,,,,11,0,11,0,,,,,,,,,,,,,,,,,,,,,,,,,,,,,,,,,,,,,,,,,,,,,,,,,3191.063288600184,None,,,,,,,,,,,,,,,,,,,,,,,,,,,,,,,,,,,,,,,,,,,,,,,,,,,,,,,,,forest,137,12,silent,new,yellow,3189.344858000055,None,y,3189.344858000055,None,"['y', 'return']","[1.1680444004014134, 1.6719735004007816]",3189.344858000055,None,,,57NC,001,2023_Apr_26_1643,ExactRep-v3-final,2021.2.3,59.946719564073405,
,,,,,,,,,,,,12,0,12,0,,,,,,,,,,,,,,,,,,,,,,,,,,,,,,,,,,,,,,,,,,,,,,,,,3193.348853100091,None,,,,,,,,,,,,,,,,,,,,,,,,,,,,,,,,,,,,,,,,,,,,,,,,,,,,,,,,,speech,55,13,silent,old,yellow,3191.578371300362,None,n,3191.578371300362,None,"['n', 'return']","[1.5104165002703667, 1.7344464994966984]",3191.578371300362,None,,,57NC,001,2023_Apr_26_1643,ExactRep-v3-final,2021.2.3,59.946719564073405,
,,,,,,,,,,,,13,0,13,0,,,,,,,,,,,,,,,,,,,,,,,,,,,,,,,,,,,,,,,,,,,,,,,,,3195.1338814003393,None,,,,,,,,,,,,,,,,,,,,,,,,,,,,,,,,,,,,,,,,,,,,,,,,,,,,,,,,,leader,83,14,aloud,old,yellow,3193.8581127002835,None,y,3193.8581127002835,None,"['y', 'return']","[0.8708008006215096, 1.2387298000976443]",3193.8581127002835,None,,,57NC,001,2023_Apr_26_1643,ExactRep-v3-final,2021.2.3,59.946719564073405,
,,,,,,,,,,,,14,0,14,0,,,,,,,,,,,,,,,,,,,,,,,,,,,,,,,,,,,,,,,,,,,,,,,,,3197.4030180005357,None,,,,,,,,,,,,,,,,,,,,,,,,,,,,,,,,,,,,,,,,,,,,,,,,,,,,,,,,,pride,48,15,silent,old,yellow,3195.646212399937,None,n,3195.646212399937,None,"['n', 'return']","[0.9308901997283101, 1.7225852999836206]",3195.646212399937,None,,,57NC,001,2023_Apr_26_1643,ExactRep-v3-final,2021.2.3,59.946719564073405,
,,,,,,,,,,,,15,0,15,0,,,,,,,,,,,,,,,,,,,,,,,,,,,,,,,,,,,,,,,,,,,,,,,,,3199.588437899947,None,,,,,,,,,,,,,,,,,,,,,,,,,,,,,,,,,,,,,,,,,,,,,,,,,,,,,,,,,passion,89,16,aloud,old,yellow,3197.9128231005743,None,n,3197.9128231005743,None,"['n', 'return']","[1.4161272998899221, 1.640128399245441]",3197.9128231005743,None,,,57NC,001,2023_Apr_26_1643,ExactRep-v3-final,2021.2.3,59.946719564073405,
,,,,,,,,,,,,16,0,16,0,,,,,,,,,,,,,,,,,,,,,,,,,,,,,,,,,,,,,,,,,,,,,,,,,3204.07632930018,None,,,,,,,,,,,,,,,,,,,,,,,,,,,,,,,,,,,,,,,,,,,,,,,,,,,,,,,,,clock,174,17,aloud,new,yellow,3200.0974010005593,None,y,3200.0974010005593,None,"['y', 'return']","[3.7514618998393416, 3.9354152996093035]",3200.0974010005593,None,,,57NC,001,2023_Apr_26_1643,ExactRep-v3-final,2021.2.3,59.946719564073405,
,,,,,,,,,,,,17,0,17,0,,,,,,,,,,,,,,,,,,,,,,,,,,,,,,,,,,,,,,,,,,,,,,,,,3206.0458823004737,None,,,,,,,,,,,,,,,,,,,,,,,,,,,,,,,,,,,,,,,,,,,,,,,,,,,,,,,,,paper,111,18,aloud,old,yellow,3204.5888173999265,None,n,3204.5888173999265,None,"['n', 'return']","[1.1640205001458526, 1.4119391003623605]",3204.5888173999265,None,,,57NC,001,2023_Apr_26_1643,ExactRep-v3-final,2021.2.3,59.946719564073405,
,,,,,,,,,,,,18,0,18,0,,,,,,,,,,,,,,,,,,,,,,,,,,,,,,,,,,,,,,,,,,,,,,,,,3207.9299900000915,None,,,,,,,,,,,,,,,,,,,,,,,,,,,,,,,,,,,,,,,,,,,,,,,,,,,,,,,,,excuse,90,19,aloud,old,yellow,3206.5525222998112,None,y,3206.5525222998112,None,"['y', 'return']","[0.9203236997127533, 1.3443120000883937]",3206.5525222998112,None,,,57NC,001,2023_Apr_26_1643,ExactRep-v3-final,2021.2.3,59.946719564073405,
,,,,,,,,,,,,19,0,19,0,,,,,,,,,,,,,,,,,,,,,,,,,,,,,,,,,,,,,,,,,,,,,,,,,3209.5649206005037,None,,,,,,,,,,,,,,,,,,,,,,,,,,,,,,,,,,,,,,,,,,,,,,,,,,,,,,,,,shore,64,20,silent,old,yellow,3208.4387576999143,None,y,3208.4387576999143,None,"['y', 'return']","[0.7701071994379163, 1.0900535993278027]",3208.4387576999143,None,,,57NC,001,2023_Apr_26_1643,ExactRep-v3-final,2021.2.3,59.946719564073405,
,,,,,,,,,,,,20,0,20,0,,,,,,,,,,,,,,,,,,,,,,,,,,,,,,,,,,,,,,,,,,,,,,,,,3211.0831799004227,None,,,,,,,,,,,,,,,,,,,,,,,,,,,,,,,,,,,,,,,,,,,,,,,,,,,,,,,,,pole,154,21,silent,new,yellow,3210.0737235005945,None,n,3210.0737235005945,None,"['n', 'return']","[0.7511133998632431, 0.9750871006399393]",3210.0737235005945,None,,,57NC,001,2023_Apr_26_1643,ExactRep-v3-final,2021.2.3,59.946719564073405,
,,,,,,,,,,,,21,0,21,0,,,,,,,,,,,,,,,,,,,,,,,,,,,,,,,,,,,,,,,,,,,,,,,,,3212.701426899992,None,,,,,,,,,,,,,,,,,,,,,,,,,,,,,,,,,,,,,,,,,,,,,,,,,,,,,,,,,weapon,51,22,silent,old,yellow,3211.5980045003816,None,y,3211.5980045003816,None,"['y', 'return']","[0.8267270000651479, 1.066895599476993]",3211.5980045003816,None,,,57NC,001,2023_Apr_26_1643,ExactRep-v3-final,2021.2.3,59.946719564073405,
,,,,,,,,,,,,22,0,22,0,,,,,,,,,,,,,,,,,,,,,,,,,,,,,,,,,,,,,,,,,,,,,,,,,3214.4198334002867,None,,,,,,,,,,,,,,,,,,,,,,,,,,,,,,,,,,,,,,,,,,,,,,,,,,,,,,,,,flag,121,23,silent,new,yellow,3213.2106443000957,None,n,3213.2106443000957,None,"['n', 'return']","[0.9901848994195461, 1.1662639994174242]",3213.2106443000957,None,,,57NC,001,2023_Apr_26_1643,ExactRep-v3-final,2021.2.3,59.946719564073405,
,,,,,,,,,,,,23,0,23,0,,,,,,,,,,,,,,,,,,,,,,,,,,,,,,,,,,,,,,,,,,,,,,,,,3215.8879757001996,None,,,,,,,,,,,,,,,,,,,,,,,,,,,,,,,,,,,,,,,,,,,,,,,,,,,,,,,,,ticket,136,24,silent,new,yellow,3214.933708500117,None,n,3214.933708500117,None,"['n', 'return']","[0.7311402000486851, 0.9152289004996419]",3214.933708500117,None,,,57NC,001,2023_Apr_26_1643,ExactRep-v3-final,2021.2.3,59.946719564073405,
,,,,,,,,,,,,24,0,24,0,,,,,,,,,,,,,,,,,,,,,,,,,,,,,,,,,,,,,,,,,,,,,,,,,3217.2726488001645,None,,,,,,,,,,,,,,,,,,,,,,,,,,,,,,,,,,,,,,,,,,,,,,,,,,,,,,,,,mercy,125,25,silent,new,yellow,3216.3979528006166,None,y,3216.3979528006166,None,"['y', 'return']","[0.6270433999598026, 0.8350177006796002]",3216.3979528006166,None,,,57NC,001,2023_Apr_26_1643,ExactRep-v3-final,2021.2.3,59.946719564073405,
,,,,,,,,,,,,25,0,25,0,,,,,,,,,,,,,,,,,,,,,,,,,,,,,,,,,,,,,,,,,,,,,,,,,3218.9078435003757,None,,,,,,,,,,,,,,,,,,,,,,,,,,,,,,,,,,,,,,,,,,,,,,,,,,,,,,,,,hour,155,26,silent,new,yellow,3217.790023700334,None,n,3217.790023700334,None,"['n', 'return']","[0.8428637003526092, 1.0828283000737429]",3217.790023700334,None,,,57NC,001,2023_Apr_26_1643,ExactRep-v3-final,2021.2.3,59.946719564073405,
,,,,,,,,,,,,26,0,26,0,,,,,,,,,,,,,,,,,,,,,,,,,,,,,,,,,,,,,,,,,,,,,,,,,3220.9598297001794,None,,,,,,,,,,,,,,,,,,,,,,,,,,,,,,,,,,,,,,,,,,,,,,,,,,,,,,,,,boulder,103,27,aloud,old,yellow,3219.417708700523,None,n,3219.417708700523,None,"['n', 'return']","[1.3591104000806808, 1.4952394999563694]",3219.417708700523,None,,,57NC,001,2023_Apr_26_1643,ExactRep-v3-final,2021.2.3,59.946719564073405,
,,,,,,,,,,,,27,0,27,0,,,,,,,,,,,,,,,,,,,,,,,,,,,,,,,,,,,,,,,,,,,,,,,,,3222.377794600092,None,,,,,,,,,,,,,,,,,,,,,,,,,,,,,,,,,,,,,,,,,,,,,,,,,,,,,,,,,devil,13,28,sing,old,yellow,3221.4721036003903,None,y,3221.4721036003903,None,"['y', 'return']","[0.6167406998574734, 0.8726514996960759]",3221.4721036003903,None,,,57NC,001,2023_Apr_26_1643,ExactRep-v3-final,2021.2.3,59.946719564073405,
,,,,,,,,,,,,28,0,28,0,,,,,,,,,,,,,,,,,,,,,,,,,,,,,,,,,,,,,,,,,,,,,,,,,3223.9461978003383,None,,,,,,,,,,,,,,,,,,,,,,,,,,,,,,,,,,,,,,,,,,,,,,,,,,,,,,,,,bird,173,29,sing,new,yellow,3222.897108600475,None,y,3222.897108600475,None,"['y', 'return']","[0.8317130003124475, 1.0077878003939986]",3222.897108600475,None,,,57NC,001,2023_Apr_26_1643,ExactRep-v3-final,2021.2.3,59.946719564073405,
,,,,,,,,,,,,29,0,29,0,,,,,,,,,,,,,,,,,,,,,,,,,,,,,,,,,,,,,,,,,,,,,,,,,3225.9148511998355,None,,,,,,,,,,,,,,,,,,,,,,,,,,,,,,,,,,,,,,,,,,,,,,,,,,,,,,,,,humour,27,30,sing,old,yellow,3224.455854699947,None,y,3224.455854699947,None,"['y', 'return']","[1.177131500095129, 1.4169982001185417]",3224.455854699947,None,,,57NC,001,2023_Apr_26_1643,ExactRep-v3-final,2021.2.3,59.946719564073405,
,,,,,,,,,,,,30,0,30,0,,,,,,,,,,,,,,,,,,,,,,,,,,,,,,,,,,,,,,,,,,,,,,,,,3227.416310600005,None,,,,,,,,,,,,,,,,,,,,,,,,,,,,,,,,,,,,,,,,,,,,,,,,,,,,,,,,,string,222,31,aloud,new,yellow,3226.424647499807,None,n,3226.424647499807,None,"['n', 'return']","[0.7441783994436264, 0.9601811999455094]",3226.424647499807,None,,,57NC,001,2023_Apr_26_1643,ExactRep-v3-final,2021.2.3,59.946719564073405,
,,,,,,,,,,,,31,0,31,0,,,,,,,,,,,,,,,,,,,,,,,,,,,,,,,,,,,,,,,,,,,,,,,,,3228.8342332001776,None,,,,,,,,,,,,,,,,,,,,,,,,,,,,,,,,,,,,,,,,,,,,,,,,,,,,,,,,,blossom,191,32,sing,new,yellow,3227.9240172002465,None,n,3227.9240172002465,None,"['n', 'return']","[0.6608645999804139, 0.8767699999734759]",3227.9240172002465,None,,,57NC,001,2023_Apr_26_1643,ExactRep-v3-final,2021.2.3,59.946719564073405,
,,,,,,,,,,,,32,0,32,0,,,,,,,,,,,,,,,,,,,,,,,,,,,,,,,,,,,,,,,,,,,,,,,,,3231.570346100256,None,,,,,,,,,,,,,,,,,,,,,,,,,,,,,,,,,,,,,,,,,,,,,,,,,,,,,,,,,money,133,33,silent,new,yellow,3229.337175300345,None,y,3229.337175300345,None,"['y', 'return']","[1.9676620000973344, 2.1996253998950124]",3229.337175300345,None,,,57NC,001,2023_Apr_26_1643,ExactRep-v3-final,2021.2.3,59.946719564073405,
,,,,,,,,,,,,33,0,33,0,,,,,,,,,,,,,,,,,,,,,,,,,,,,,,,,,,,,,,,,,,,,,,,,,3233.0384797006845,None,,,,,,,,,,,,,,,,,,,,,,,,,,,,,,,,,,,,,,,,,,,,,,,,,,,,,,,,,shock,85,34,aloud,old,yellow,3232.0812597004697,None,y,3232.0812597004697,None,"['y', 'return']","[0.735577299259603, 0.9116320991888642]",3232.0812597004697,None,,,57NC,001,2023_Apr_26_1643,ExactRep-v3-final,2021.2.3,59.946719564073405,
,,,,,,,,,,,,34,0,34,0,,,,,,,,,,,,,,,,,,,,,,,,,,,,,,,,,,,,,,,,,,,,,,,,,3234.7734847003594,None,,,,,,,,,,,,,,,,,,,,,,,,,,,,,,,,,,,,,,,,,,,,,,,,,,,,,,,,,corner,33,35,sing,old,yellow,3233.547398599796,None,n,3233.547398599796,None,"['n', 'return']","[1.0294524999335408, 1.1894490998238325]",3233.547398599796,None,,,57NC,001,2023_Apr_26_1643,ExactRep-v3-final,2021.2.3,59.946719564073405,
,,,,,,,,,,,,35,0,35,0,,,,,,,,,,,,,,,,,,,,,,,,,,,,,,,,,,,,,,,,,,,,,,,,,3236.7921933000907,None,,,,,,,,,,,,,,,,,,,,,,,,,,,,,,,,,,,,,,,,,,,,,,,,,,,,,,,,,ship,151,36,silent,new,yellow,3235.2881383001804,None,y,3235.2881383001804,None,"['y', 'return']","[1.2406822992488742, 1.4567887000739574]",3235.2881383001804,None,,,57NC,001,2023_Apr_26_1643,ExactRep-v3-final,2021.2.3,59.946719564073405,
,,,,,,,,,,,,36,0,36,0,,,,,,,,,,,,,,,,,,,,,,,,,,,,,,,,,,,,,,,,,,,,,,,,,3239.378140600398,None,,,,,,,,,,,,,,,,,,,,,,,,,,,,,,,,,,,,,,,,,,,,,,,,,,,,,,,,,fortune,144,37,silent,new,yellow,3237.303675699979,None,y,3237.303675699979,None,"['y', 'return']","[1.8573441002517939, 2.041385999880731]",3237.303675699979,None,,,57NC,001,2023_Apr_26_1643,ExactRep-v3-final,2021.2.3,59.946719564073405,
,,,,,,,,,,,,37,0,37,0,,,,,,,,,,,,,,,,,,,,,,,,,,,,,,,,,,,,,,,,,,,,,,,,,3241.6136461999267,None,,,,,,,,,,,,,,,,,,,,,,,,,,,,,,,,,,,,,,,,,,,,,,,,,,,,,,,,,party,139,38,silent,new,yellow,3239.884169800207,None,n,3239.884169800207,None,"['n', 'return']","[1.49266770016402, 1.6927917003631592]",3239.884169800207,None,,,57NC,001,2023_Apr_26_1643,ExactRep-v3-final,2021.2.3,59.946719564073405,
,,,,,,,,,,,,38,0,38,0,,,,,,,,,,,,,,,,,,,,,,,,,,,,,,,,,,,,,,,,,,,,,,,,,3243.1485622003675,None,,,,,,,,,,,,,,,,,,,,,,,,,,,,,,,,,,,,,,,,,,,,,,,,,,,,,,,,,season,184,39,aloud,new,yellow,3242.123300500214,None,n,3242.123300500214,None,"['n', 'return']","[0.8055341001600027, 0.9895441997796297]",3242.123300500214,None,,,57NC,001,2023_Apr_26_1643,ExactRep-v3-final,2021.2.3,59.946719564073405,
,,,,,,,,,,,,39,0,39,0,,,,,,,,,,,,,,,,,,,,,,,,,,,,,,,,,,,,,,,,,,,,,,,,,3244.917005499825,None,,,,,,,,,,,,,,,,,,,,,,,,,,,,,,,,,,,,,,,,,,,,,,,,,,,,,,,,,arm,180,40,aloud,new,yellow,3243.657584500499,None,n,3243.657584500499,None,"['n', 'return']","[1.0392621997743845, 1.2152100000530481]",3243.657584500499,None,,,57NC,001,2023_Apr_26_1643,ExactRep-v3-final,2021.2.3,59.946719564073405,
,,,,,,,,,,,,40,0,40,0,,,,,,,,,,,,,,,,,,,,,,,,,,,,,,,,,,,,,,,,,,,,,,,,,3247.0890800999478,None,,,,,,,,,,,,,,,,,,,,,,,,,,,,,,,,,,,,,,,,,,,,,,,,,,,,,,,,,series,135,41,silent,new,yellow,3245.426408700645,None,n,3245.426408700645,None,"['n', 'return']","[1.4946339996531606, 1.614479599520564]",3245.426408700645,None,,,57NC,001,2023_Apr_26_1643,ExactRep-v3-final,2021.2.3,59.946719564073405,
,,,,,,,,,,,,41,0,41,0,,,,,,,,,,,,,,,,,,,,,,,,,,,,,,,,,,,,,,,,,,,,,,,,,3248.8041976001114,None,,,,,,,,,,,,,,,,,,,,,,,,,,,,,,,,,,,,,,,,,,,,,,,,,,,,,,,,,doll,210,42,aloud,new,yellow,3247.6052433000877,None,n,3247.6052433000877,None,"['n', 'return']","[0.9957508994266391, 1.163867499679327]",3247.6052433000877,None,,,57NC,001,2023_Apr_26_1643,ExactRep-v3-final,2021.2.3,59.946719564073405,
,,,,,,,,,,,,42,0,42,0,,,,,,,,,,,,,,,,,,,,,,,,,,,,,,,,,,,,,,,,,,,,,,,,,3250.8563432004303,None,,,,,,,,,,,,,,,,,,,,,,,,,,,,,,,,,,,,,,,,,,,,,,,,,,,,,,,,,cattle,197,43,sing,new,yellow,3249.3142635999247,None,y,3249.3142635999247,None,"['y', 'return']","[1.2705739000812173, 1.502678600139916]",3249.3142635999247,None,,,57NC,001,2023_Apr_26_1643,ExactRep-v3-final,2021.2.3,59.946719564073405,
,,,,,,,,,,,,43,0,43,0,,,,,,,,,,,,,,,,,,,,,,,,,,,,,,,,,,,,,,,,,,,,,,,,,3252.4746216004714,None,,,,,,,,,,,,,,,,,,,,,,,,,,,,,,,,,,,,,,,,,,,,,,,,,,,,,,,,,thought,206,44,aloud,new,yellow,3251.3661604998633,None,n,3251.3661604998633,None,"['n', 'return']","[0.906640600413084, 1.074686300009489]",3251.3661604998633,None,,,57NC,001,2023_Apr_26_1643,ExactRep-v3-final,2021.2.3,59.946719564073405,
,,,,,,,,,,,,44,0,44,0,,,,,,,,,,,,,,,,,,,,,,,,,,,,,,,,,,,,,,,,,,,,,,,,,3254.05933440011,None,,,,,,,,,,,,,,,,,,,,,,,,,,,,,,,,,,,,,,,,,,,,,,,,,,,,,,,,,priest,205,45,sing,new,yellow,3252.9845197005197,None,y,3252.9845197005197,None,"['y', 'return']","[0.6962822005152702, 1.0324560003355145]",3252.9845197005197,None,,,57NC,001,2023_Apr_26_1643,ExactRep-v3-final,2021.2.3,59.946719564073405,
,,,,,,,,,,,,45,0,45,0,,,,,,,,,,,,,,,,,,,,,,,,,,,,,,,,,,,,,,,,,,,,,,,,,3255.3605678007007,None,,,,,,,,,,,,,,,,,,,,,,,,,,,,,,,,,,,,,,,,,,,,,,,,,,,,,,,,,poet,81,46,aloud,old,yellow,3254.571365499869,None,y,3254.571365499869,None,"['y', 'return']","[0.5733974995091558, 0.7495767995715141]",3254.571365499869,None,,,57NC,001,2023_Apr_26_1643,ExactRep-v3-final,2021.2.3,59.946719564073405,
,,,,,,,,,,,,46,0,46,0,,,,,,,,,,,,,,,,,,,,,,,,,,,,,,,,,,,,,,,,,,,,,,,,,3258.297032800503,None,,,,,,,,,,,,,,,,,,,,,,,,,,,,,,,,,,,,,,,,,,,,,,,,,,,,,,,,,door,61,47,silent,old,yellow,3255.871827300638,None,y,3255.871827300638,None,"['y', 'return']","[2.033013899810612, 2.3851127000525594]",3255.871827300638,None,,,57NC,001,2023_Apr_26_1643,ExactRep-v3-final,2021.2.3,59.946719564073405,
,,,,,,,,,,,,47,0,47,0,,,,,,,,,,,,,,,,,,,,,,,,,,,,,,,,,,,,,,,,,,,,,,,,,3259.848746799864,None,,,,,,,,,,,,,,,,,,,,,,,,,,,,,,,,,,,,,,,,,,,,,,,,,,,,,,,,,tool,219,48,sing,new,yellow,3258.8055335003883,None,n,3258.8055335003883,None,"['n', 'return']","[0.7794850999489427, 1.0034997994080186]",3258.8055335003883,None,,,57NC,001,2023_Apr_26_1643,ExactRep-v3-final,2021.2.3,59.946719564073405,
,,,,,,,,,,,,48,0,48,0,,,,,,,,,,,,,,,,,,,,,,,,,,,,,,,,,,,,,,,,,,,,,,,,,3261.33338870015,None,,,,,,,,,,,,,,,,,,,,,,,,,,,,,,,,,,,,,,,,,,,,,,,,,,,,,,,,,month,25,49,sing,old,yellow,3260.358008400537,None,y,3260.358008400537,None,"['y', 'return']","[0.7307792007923126, 0.9307832000777125]",3260.358008400537,None,,,57NC,001,2023_Apr_26_1643,ExactRep-v3-final,2021.2.3,59.946719564073405,
,,,,,,,,,,,,49,0,49,0,,,,,,,,,,,,,,,,,,,,,,,,,,,,,,,,,,,,,,,,,,,,,,,,,3262.8350634006783,None,,,,,,,,,,,,,,,,,,,,,,,,,,,,,,,,,,,,,,,,,,,,,,,,,,,,,,,,,love,134,50,silent,new,yellow,3261.843406700529,None,y,3261.843406700529,None,"['y', 'return']","[0.7655894998461008, 0.9496823996305466]",3261.843406700529,None,,,57NC,001,2023_Apr_26_1643,ExactRep-v3-final,2021.2.3,59.946719564073405,
,,,,,,,,,,,,50,0,50,0,,,,,,,,,,,,,,,,,,,,,,,,,,,,,,,,,,,,,,,,,,,,,,,,,3264.369750400074,None,,,,,,,,,,,,,,,,,,,,,,,,,,,,,,,,,,,,,,,,,,,,,,,,,,,,,,,,,victory,63,51,silent,old,yellow,3263.3434902001172,None,y,3263.3434902001172,None,"['y', 'return']","[0.7134556006640196, 0.9855559002608061]",3263.3434902001172,None,,,57NC,001,2023_Apr_26_1643,ExactRep-v3-final,2021.2.3,59.946719564073405,
,,,,,,,,,,,,51,0,51,0,,,,,,,,,,,,,,,,,,,,,,,,,,,,,,,,,,,,,,,,,,,,,,,,,3265.8713012998924,None,,,,,,,,,,,,,,,,,,,,,,,,,,,,,,,,,,,,,,,,,,,,,,,,,,,,,,,,,justice,232,52,aloud,new,yellow,3264.8798064002767,None,n,3264.8798064002767,None,"['n', 'return']","[0.713217799551785, 0.9531706999987364]",3264.8798064002767,None,,,57NC,001,2023_Apr_26_1643,ExactRep-v3-final,2021.2.3,59.946719564073405,
,,,,,,,,,,,,52,0,52,0,,,,,,,,,,,,,,,,,,,,,,,,,,,,,,,,,,,,,,,,,,,,,,,,,3267.422715499997,None,,,,,,,,,,,,,,,,,,,,,,,,,,,,,,,,,,,,,,,,,,,,,,,,,,,,,,,,,honour,163,53,sing,new,yellow,3266.3812680998817,None,y,3266.3812680998817,None,"['y', 'return']","[0.7955918004736304, 0.9956976007670164]",3266.3812680998817,None,,,57NC,001,2023_Apr_26_1643,ExactRep-v3-final,2021.2.3,59.946719564073405,
,,,,,,,,,,,,53,0,53,0,,,,,,,,,,,,,,,,,,,,,,,,,,,,,,,,,,,,,,,,,,,,,,,,,3269.4247500002384,None,,,,,,,,,,,,,,,,,,,,,,,,,,,,,,,,,,,,,,,,,,,,,,,,,,,,,,,,,disease,164,54,aloud,new,yellow,3267.9283223999664,None,n,3267.9283223999664,None,"['n', 'return']","[1.2407189002260566, 1.4565828004851937]",3267.9283223999664,None,,,57NC,001,2023_Apr_26_1643,ExactRep-v3-final,2021.2.3,59.946719564073405,
,,,,,,,,,,,,54,0,54,0,,,,,,,,,,,,,,,,,,,,,,,,,,,,,,,,,,,,,,,,,,,,,,,,,3270.7929472997785,None,,,,,,,,,,,,,,,,,,,,,,,,,,,,,,,,,,,,,,,,,,,,,,,,,,,,,,,,,cottage,41,55,silent,old,yellow,3269.9346393002197,None,n,3269.9346393002197,None,"['n', 'return']","[0.6183437993749976, 0.818287699483335]",3269.9346393002197,None,,,57NC,001,2023_Apr_26_1643,ExactRep-v3-final,2021.2.3,59.946719564073405,
,,,,,,,,,,,,55,0,55,0,,,,,,,,,,,,,,,,,,,,,,,,,,,,,,,,,,,,,,,,,,,,,,,,,3273.812395500019,None,,,,,,,,,,,,,,,,,,,,,,,,,,,,,,,,,,,,,,,,,,,,,,,,,,,,,,,,,car,97,56,aloud,old,yellow,3271.2982692997903,None,y,3271.2982692997903,None,"['y', 'return']","[1.7985958000645041, 2.4789255997166038]",3271.2982692997903,None,,,57NC,001,2023_Apr_26_1643,ExactRep-v3-final,2021.2.3,59.946719564073405,
,,,,,,,,,,,,56,0,56,0,,,,,,,,,,,,,,,,,,,,,,,,,,,,,,,,,,,,,,,,,,,,,,,,,3275.4141893005,None,,,,,,,,,,,,,,,,,,,,,,,,,,,,,,,,,,,,,,,,,,,,,,,,,,,,,,,,,lord,208,57,aloud,new,yellow,3274.3131031999364,None,y,3274.3131031999364,None,"['y', 'return']","[0.815960499458015, 1.0558741996064782]",3274.3131031999364,None,,,57NC,001,2023_Apr_26_1643,ExactRep-v3-final,2021.2.3,59.946719564073405,
,,,,,,,,,,,,57,0,57,0,,,,,,,,,,,,,,,,,,,,,,,,,,,,,,,,,,,,,,,,,,,,,,,,,3276.8156334003434,None,,,,,,,,,,,,,,,,,,,,,,,,,,,,,,,,,,,,,,,,,,,,,,,,,,,,,,,,,animal,22,58,sing,old,yellow,3275.922396699898,None,y,3275.922396699898,None,"['y', 'return']","[0.64662029966712, 0.8465961003676057]",3275.922396699898,None,,,57NC,001,2023_Apr_26_1643,ExactRep-v3-final,2021.2.3,59.946719564073405,
,,,,,,,,,,,,58,0,58,0,,,,,,,,,,,,,,,,,,,,,,,,,,,,,,,,,,,,,,,,,,,,,,,,,3278.784252599813,None,,,,,,,,,,,,,,,,,,,,,,,,,,,,,,,,,,,,,,,,,,,,,,,,,,,,,,,,,custom,29,59,sing,old,yellow,3277.3212382998317,None,y,3277.3212382998317,None,"['y', 'return']","[1.3356192000210285, 1.4236598005518317]",3277.3212382998317,None,,,57NC,001,2023_Apr_26_1643,ExactRep-v3-final,2021.2.3,59.946719564073405,
,,,,,,,,,,,,59,0,59,0,,,,,,,,,,,,,,,,,,,,,,,,,,,,,,,,,,,,,,,,,,,,,,,,,3280.5025476003066,None,,,,,,,,,,,,,,,,,,,,,,,,,,,,,,,,,,,,,,,,,,,,,,,,,,,,,,,,,wheat,189,60,sing,new,yellow,3279.2913163006306,None,n,3279.2913163006306,None,"['n', 'return']","[0.8779028002172709, 1.1735709002241492]",3279.2913163006306,None,,,57NC,001,2023_Apr_26_1643,ExactRep-v3-final,2021.2.3,59.946719564073405,
,,,,,,,,,,,,60,0,60,0,,,,,,,,,,,,,,,,,,,,,,,,,,,,,,,,,,,,,,,,,,,,,,,,,3283.4223063997924,None,,,,,,,,,,,,,,,,,,,,,,,,,,,,,,,,,,,,,,,,,,,,,,,,,,,,,,,,,city,215,61,sing,new,yellow,3281.006418400444,None,y,3281.006418400444,None,"['y', 'return']","[2.1544003998860717, 2.3705016998574138]",3281.006418400444,None,,,57NC,001,2023_Apr_26_1643,ExactRep-v3-final,2021.2.3,59.946719564073405,
,,,,,,,,,,,,61,0,61,0,,,,,,,,,,,,,,,,,,,,,,,,,,,,,,,,,,,,,,,,,,,,,,,,,3284.906826400198,None,,,,,,,,,,,,,,,,,,,,,,,,,,,,,,,,,,,,,,,,,,,,,,,,,,,,,,,,,earth,107,62,aloud,old,yellow,3283.9318896001205,None,y,3283.9318896001205,None,"['y', 'return']","[0.7890098998323083, 0.941228199750185]",3283.9318896001205,None,,,57NC,001,2023_Apr_26_1643,ExactRep-v3-final,2021.2.3,59.946719564073405,
,,,,,,,,,,,,62,0,62,0,,,,,,,,,,,,,,,,,,,,,,,,,,,,,,,,,,,,,,,,,,,,,,,,,3286.325022100471,None,,,,,,,,,,,,,,,,,,,,,,,,,,,,,,,,,,,,,,,,,,,,,,,,,,,,,,,,,beast,10,63,sing,old,yellow,3285.4167987005785,None,y,3285.4167987005785,None,"['y', 'return']","[0.7123036999255419, 0.8643458997830749]",3285.4167987005785,None,,,57NC,001,2023_Apr_26_1643,ExactRep-v3-final,2021.2.3,59.946719564073405,
,,,,,,,,,,,,63,0,63,0,,,,,,,,,,,,,,,,,,,,,,,,,,,,,,,,,,,,,,,,,,,,,,,,,3287.676265100017,None,,,,,,,,,,,,,,,,,,,,,,,,,,,,,,,,,,,,,,,,,,,,,,,,,,,,,,,,,flood,142,64,silent,new,yellow,3286.832312900573,None,n,3286.832312900573,None,"['n', 'return']","[0.6246679006144404, 0.8005761997774243]",3286.832312900573,None,,,57NC,001,2023_Apr_26_1643,ExactRep-v3-final,2021.2.3,59.946719564073405,
,,,,,,,,,,,,64,0,64,0,,,,,,,,,,,,,,,,,,,,,,,,,,,,,,,,,,,,,,,,,,,,,,,,,3289.3780270004645,None,,,,,,,,,,,,,,,,,,,,,,,,,,,,,,,,,,,,,,,,,,,,,,,,,,,,,,,,,circle,21,65,sing,old,yellow,3288.185713100247,None,y,3288.185713100247,None,"['y', 'return']","[1.0552082993090153, 1.1589831998571754]",3288.185713100247,None,,,57NC,001,2023_Apr_26_1643,ExactRep-v3-final,2021.2.3,59.946719564073405,
,,,,,,,,,,,,65,0,65,0,,,,,,,,,,,,,,,,,,,,,,,,,,,,,,,,,,,,,,,,,,,,,,,,,3291.163440399803,None,,,,,,,,,,,,,,,,,,,,,,,,,,,,,,,,,,,,,,,,,,,,,,,,,,,,,,,,,gold,179,66,sing,new,yellow,3289.8853369997814,None,n,3289.8853369997814,None,"['n', 'return']","[1.1155754001811147, 1.2356687001883984]",3289.8853369997814,None,,,57NC,001,2023_Apr_26_1643,ExactRep-v3-final,2021.2.3,59.946719564073405,
,,,,,,,,,,,,66,0,66,0,,,,,,,,,,,,,,,,,,,,,,,,,,,,,,,,,,,,,,,,,,,,,,,,,3292.548150400631,None,,,,,,,,,,,,,,,,,,,,,,,,,,,,,,,,,,,,,,,,,,,,,,,,,,,,,,,,,fate,8,67,sing,old,yellow,3291.670400400646,None,y,3291.670400400646,None,"['y', 'return']","[0.6666789995506406, 0.8344625998288393]",3291.670400400646,None,,,57NC,001,2023_Apr_26_1643,ExactRep-v3-final,2021.2.3,59.946719564073405,
,,,,,,,,,,,,67,0,67,0,,,,,,,,,,,,,,,,,,,,,,,,,,,,,,,,,,,,,,,,,,,,,,,,,3294.0993189001456,None,,,,,,,,,,,,,,,,,,,,,,,,,,,,,,,,,,,,,,,,,,,,,,,,,,,,,,,,,flesh,77,68,silent,old,yellow,3293.0575306005776,None,y,3293.0575306005776,None,"['y', 'return']","[0.831441099755466, 1.0072948997840285]",3293.0575306005776,None,,,57NC,001,2023_Apr_26_1643,ExactRep-v3-final,2021.2.3,59.946719564073405,
,,,,,,,,,,,,68,0,68,0,,,,,,,,,,,,,,,,,,,,,,,,,,,,,,,,,,,,,,,,,,,,,,,,,3295.41757229995,None,,,,,,,,,,,,,,,,,,,,,,,,,,,,,,,,,,,,,,,,,,,,,,,,,,,,,,,,,village,234,69,aloud,new,yellow,3294.613384500146,None,y,3294.613384500146,None,"['y', 'return']","[0.6035356000065804, 0.7716584000736475]",3294.613384500146,None,,,57NC,001,2023_Apr_26_1643,ExactRep-v3-final,2021.2.3,59.946719564073405,
,,,,,,,,,,,,69,0,69,0,,,,,,,,,,,,,,,,,,,,,,,,,,,,,,,,,,,,,,,,,,,,,,,,,3297.336103499867,None,,,,,,,,,,,,,,,,,,,,,,,,,,,,,,,,,,,,,,,,,,,,,,,,,,,,,,,,,prayer,201,70,sing,new,yellow,3295.924590700306,None,n,3295.924590700306,None,"['n', 'return']","[1.2523974999785423, 1.3722021002322435]",3295.924590700306,None,,,57NC,001,2023_Apr_26_1643,ExactRep-v3-final,2021.2.3,59.946719564073405,
,,,,,,,,,,,,70,0,70,0,,,,,,,,,,,,,,,,,,,,,,,,,,,,,,,,,,,,,,,,,,,,,,,,,3299.1212325999513,None,,,,,,,,,,,,,,,,,,,,,,,,,,,,,,,,,,,,,,,,,,,,,,,,,,,,,,,,,metal,132,71,silent,new,yellow,3297.843812400475,None,y,3297.843812400475,None,"['y', 'return']","[1.141155100427568, 1.237219899892807]",3297.843812400475,None,,,57NC,001,2023_Apr_26_1643,ExactRep-v3-final,2021.2.3,59.946719564073405,
,,,,,,,,,,,,71,0,71,0,,,,,,,,,,,,,,,,,,,,,,,,,,,,,,,,,,,,,,,,,,,,,,,,,3300.4557752003893,None,,,,,,,,,,,,,,,,,,,,,,,,,,,,,,,,,,,,,,,,,,,,,,,,,,,,,,,,,colony,62,72,silent,old,yellow,3299.6315002003685,None,y,3299.6315002003685,None,"['y', 'return']","[0.6815160997211933, 0.7775545995682478]",3299.6315002003685,None,,,57NC,001,2023_Apr_26_1643,ExactRep-v3-final,2021.2.3,59.946719564073405,
,,,,,,,,,,,,72,0,72,0,,,,,,,,,,,,,,,,,,,,,,,,,,,,,,,,,,,,,,,,,,,,,,,,,3302.708110900596,None,,,,,,,,,,,,,,,,,,,,,,,,,,,,,,,,,,,,,,,,,,,,,,,,,,,,,,,,,vessel,116,73,aloud,old,yellow,3300.965672600083,None,y,3300.965672600083,None,"['y', 'return']","[1.5235986998304725, 1.7074075993150473]",3300.965672600083,None,,,57NC,001,2023_Apr_26_1643,ExactRep-v3-final,2021.2.3,59.946719564073405,
,,,,,,,,,,,,73,0,73,0,,,,,,,,,,,,,,,,,,,,,,,,,,,,,,,,,,,,,,,,,,,,,,,,,3305.160570300184,None,,,,,,,,,,,,,,,,,,,,,,,,,,,,,,,,,,,,,,,,,,,,,,,,,,,,,,,,,author,78,74,silent,old,yellow,3303.2085678000003,None,n,3303.2085678000003,None,"['n', 'return']","[1.4163482999429107, 1.9043684992939234]",3303.2085678000003,None,,,57NC,001,2023_Apr_26_1643,ExactRep-v3-final,2021.2.3,59.946719564073405,
,,,,,,,,,,,,74,0,74,0,,,,,,,,,,,,,,,,,,,,,,,,,,,,,,,,,,,,,,,,,,,,,,,,,3306.845676300116,None,,,,,,,,,,,,,,,,,,,,,,,,,,,,,,,,,,,,,,,,,,,,,,,,,,,,,,,,,doctor,185,75,sing,new,yellow,3305.668786900118,None,n,3305.668786900118,None,"['n', 'return']","[0.9641950000077486, 1.140233900398016]",3305.668786900118,None,,,57NC,001,2023_Apr_26_1643,ExactRep-v3-final,2021.2.3,59.946719564073405,
,,,,,,,,,,,,75,0,75,0,,,,,,,,,,,,,,,,,,,,,,,,,,,,,,,,,,,,,,,,,,,,,,,,,3308.580655200407,None,,,,,,,,,,,,,,,,,,,,,,,,,,,,,,,,,,,,,,,,,,,,,,,,,,,,,,,,,wife,238,76,aloud,new,yellow,3307.354123500176,None,n,3307.354123500176,None,"['n', 'return']","[1.0228923000395298, 1.1829399997368455]",3307.354123500176,None,,,57NC,001,2023_Apr_26_1643,ExactRep-v3-final,2021.2.3,59.946719564073405,
,,,,,,,,,,,,76,0,76,0,,,,,,,,,,,,,,,,,,,,,,,,,,,,,,,,,,,,,,,,,,,,,,,,,3309.915466300212,None,,,,,,,,,,,,,,,,,,,,,,,,,,,,,,,,,,,,,,,,,,,,,,,,,,,,,,,,,boy,80,77,aloud,old,yellow,3309.0887342002243,None,y,3309.0887342002243,None,"['y', 'return']","[0.6163396993651986, 0.7842250000685453]",3309.0887342002243,None,,,57NC,001,2023_Apr_26_1643,ExactRep-v3-final,2021.2.3,59.946719564073405,
,,,,,,,,,,,,77,0,77,0,,,,,,,,,,,,,,,,,,,,,,,,,,,,,,,,,,,,,,,,,,,,,,,,,3311.4834564998746,None,,,,,,,,,,,,,,,,,,,,,,,,,,,,,,,,,,,,,,,,,,,,,,,,,,,,,,,,,market,37,78,sing,old,yellow,3310.4181070001796,None,y,3310.4181070001796,None,"['y', 'return']","[0.886833499185741, 1.0308376997709274]",3310.4181070001796,None,,,57NC,001,2023_Apr_26_1643,ExactRep-v3-final,2021.2.3,59.946719564073405,
,,,,,,,,,,,,78,0,78,0,,,,,,,,,,,,,,,,,,,,,,,,,,,,,,,,,,,,,,,,,,,,,,,,,3312.818329100497,None,,,,,,,,,,,,,,,,,,,,,,,,,,,,,,,,,,,,,,,,,,,,,,,,,,,,,,,,,world,159,79,silent,new,yellow,3311.993574200198,None,y,3311.993574200198,None,"['y', 'return']","[0.655430999584496, 0.7914701998233795]",3311.993574200198,None,,,57NC,001,2023_Apr_26_1643,ExactRep-v3-final,2021.2.3,59.946719564073405,
,,,,,,,,,,,,79,0,79,0,,,,,,,,,,,,,,,,,,,,,,,,,,,,,,,,,,,,,,,,,,,,,,,,,3314.453308099881,None,,,,,,,,,,,,,,,,,,,,,,,,,,,,,,,,,,,,,,,,,,,,,,,,,,,,,,,,,fault,20,80,sing,old,yellow,3313.32764150016,None,y,3313.32764150016,None,"['y', 'return']","[1.001363699324429, 1.0894054993987083]",3313.32764150016,None,,,57NC,001,2023_Apr_26_1643,ExactRep-v3-final,2021.2.3,59.946719564073405,
,,,,,,,,,,,,80,0,80,0,,,,,,,,,,,,,,,,,,,,,,,,,,,,,,,,,,,,,,,,,,,,,,,,,3315.7877748999745,None,,,,,,,,,,,,,,,,,,,,,,,,,,,,,,,,,,,,,,,,,,,,,,,,,,,,,,,,,vision,168,81,aloud,new,yellow,3314.9654873004183,None,y,3314.9654873004183,None,"['y', 'return']","[0.6594154005870223, 0.7794121000915766]",3314.9654873004183,None,,,57NC,001,2023_Apr_26_1643,ExactRep-v3-final,2021.2.3,59.946719564073405,
,,,,,,,,,,,,81,0,81,0,,,,,,,,,,,,,,,,,,,,,,,,,,,,,,,,,,,,,,,,,,,,,,,,,3317.18929270003,None,,,,,,,,,,,,,,,,,,,,,,,,,,,,,,,,,,,,,,,,,,,,,,,,,,,,,,,,,home,84,82,aloud,old,yellow,3316.2988963006064,None,n,3316.2988963006064,None,"['n', 'return']","[0.7020493000745773, 0.8459831001237035]",3316.2988963006064,None,,,57NC,001,2023_Apr_26_1643,ExactRep-v3-final,2021.2.3,59.946719564073405,
,,,,,,,,,,,,82,0,82,0,,,,,,,,,,,,,,,,,,,,,,,,,,,,,,,,,,,,,,,,,,,,,,,,,3319.608392400667,None,,,,,,,,,,,,,,,,,,,,,,,,,,,,,,,,,,,,,,,,,,,,,,,,,,,,,,,,,stone,53,83,silent,old,yellow,3317.6998057998717,None,n,3317.6998057998717,None,"['n', 'return']","[1.733182399533689, 1.8611428998410702]",3317.6998057998717,None,,,57NC,001,2023_Apr_26_1643,ExactRep-v3-final,2021.2.3,59.946719564073405,
,,,,,,,,,,,,83,0,83,0,,,,,,,,,,,,,,,,,,,,,,,,,,,,,,,,,,,,,,,,,,,,,,,,,3321.460196199827,None,,,,,,,,,,,,,,,,,,,,,,,,,,,,,,,,,,,,,,,,,,,,,,,,,,,,,,,,,mind,65,84,silent,old,yellow,3320.1198575003073,None,y,3320.1198575003073,None,"['y', 'return']","[1.2011373993009329, 1.3052474996075034]",3320.1198575003073,None,,,57NC,001,2023_Apr_26_1643,ExactRep-v3-final,2021.2.3,59.946719564073405,
,,,,,,,,,,,,84,0,84,0,,,,,,,,,,,,,,,,,,,,,,,,,,,,,,,,,,,,,,,,,,,,,,,,,3323.4122712006792,None,,,,,,,,,,,,,,,,,,,,,,,,,,,,,,,,,,,,,,,,,,,,,,,,,,,,,,,,,sugar,106,85,aloud,old,yellow,3321.975074100308,None,y,3321.975074100308,None,"['y', 'return']","[1.1459258003160357, 1.4020490003749728]",3321.975074100308,None,,,57NC,001,2023_Apr_26_1643,ExactRep-v3-final,2021.2.3,59.946719564073405,
,,,,,,,,,,,,85,0,85,0,,,,,,,,,,,,,,,,,,,,,,,,,,,,,,,,,,,,,,,,,,,,,,,,,3326.348448900506,None,,,,,,,,,,,,,,,,,,,,,,,,,,,,,,,,,,,,,,,,,,,,,,,,,,,,,,,,,tree,146,86,silent,new,yellow,3323.921197200194,None,y,3323.921197200194,None,"['y', 'return']","[2.175636399537325, 2.3918286999687552]",3323.921197200194,None,,,57NC,001,2023_Apr_26_1643,ExactRep-v3-final,2021.2.3,59.946719564073405,
,,,,,,,,,,,,86,0,86,0,,,,,,,,,,,,,,,,,,,,,,,,,,,,,,,,,,,,,,,,,,,,,,,,,3328.0667190998793,None,,,,,,,,,,,,,,,,,,,,,,,,,,,,,,,,,,,,,,,,,,,,,,,,,,,,,,,,,church,167,87,sing,new,yellow,3326.8652029000223,None,n,3326.8652029000223,None,"['n', 'return']","[0.7515898002311587, 1.1598036997020245]",3326.8652029000223,None,,,57NC,001,2023_Apr_26_1643,ExactRep-v3-final,2021.2.3,59.946719564073405,
,,,,,,,,,,,,87,0,87,0,,,,,,,,,,,,,,,,,,,,,,,,,,,,,,,,,,,,,,,,,,,,,,,,,3331.00306859985,None,,,,,,,,,,,,,,,,,,,,,,,,,,,,,,,,,,,,,,,,,,,,,,,,,,,,,,,,,air,114,88,aloud,old,yellow,3328.581580400467,None,n,3328.581580400467,None,"['n', 'return']","[2.139359099790454, 2.3793954998254776]",3328.581580400467,None,,,57NC,001,2023_Apr_26_1643,ExactRep-v3-final,2021.2.3,59.946719564073405,
,,,,,,,,,,,,88,0,88,0,,,,,,,,,,,,,,,,,,,,,,,,,,,,,,,,,,,,,,,,,,,,,,,,,3333.1051821000874,None,,,,,,,,,,,,,,,,,,,,,,,,,,,,,,,,,,,,,,,,,,,,,,,,,,,,,,,,,soul,88,89,aloud,old,yellow,3331.5118770999834,None,y,3331.5118770999834,None,"['y', 'return']","[0.7929536001756787, 1.55319709982723]",3331.5118770999834,None,,,57NC,001,2023_Apr_26_1643,ExactRep-v3-final,2021.2.3,59.946719564073405,
,,,,,,,,,,,,89,0,89,0,,,,,,,,,,,,,,,,,,,,,,,,,,,,,,,,,,,,,,,,,,,,,,,,,3334.8736789003015,None,,,,,,,,,,,,,,,,,,,,,,,,,,,,,,,,,,,,,,,,,,,,,,,,,,,,,,,,,star,228,90,aloud,new,yellow,3333.615173299797,None,y,3333.615173299797,None,"['y', 'return']","[0.9537487998604774, 1.2177758002653718]",3333.615173299797,None,,,57NC,001,2023_Apr_26_1643,ExactRep-v3-final,2021.2.3,59.946719564073405,
,,,,,,,,,,,,90,0,90,0,,,,,,,,,,,,,,,,,,,,,,,,,,,,,,,,,,,,,,,,,,,,,,,,,3336.5419255997986,None,,,,,,,,,,,,,,,,,,,,,,,,,,,,,,,,,,,,,,,,,,,,,,,,,,,,,,,,,woman,178,91,aloud,new,yellow,3335.3847767999396,None,y,3335.3847767999396,None,"['y', 'return']","[0.8802887992933393, 1.1203016992658377]",3335.3847767999396,None,,,57NC,001,2023_Apr_26_1643,ExactRep-v3-final,2021.2.3,59.946719564073405,
,,,,,,,,,,,,91,0,91,0,,,,,,,,,,,,,,,,,,,,,,,,,,,,,,,,,,,,,,,,,,,,,,,,,3337.92654330004,None,,,,,,,,,,,,,,,,,,,,,,,,,,,,,,,,,,,,,,,,,,,,,,,,,,,,,,,,,meadow,2,92,sing,old,yellow,3337.05136220064,None,n,3337.05136220064,None,"['n', 'return']","[0.5815818002447486, 0.8296937001869082]",3337.05136220064,None,,,57NC,001,2023_Apr_26_1643,ExactRep-v3-final,2021.2.3,59.946719564073405,
,,,,,,,,,,,,92,0,92,0,,,,,,,,,,,,,,,,,,,,,,,,,,,,,,,,,,,,,,,,,,,,,,,,,3339.9119934001938,None,,,,,,,,,,,,,,,,,,,,,,,,,,,,,,,,,,,,,,,,,,,,,,,,,,,,,,,,,lad,170,93,aloud,new,yellow,3338.4326913999394,None,n,3338.4326913999394,None,"['n', 'return']","[1.1764075998216867, 1.4322806000709534]",3338.4326913999394,None,,,57NC,001,2023_Apr_26_1643,ExactRep-v3-final,2021.2.3,59.946719564073405,
,,,,,,,,,,,,93,0,93,0,,,,,,,,,,,,,,,,,,,,,,,,,,,,,,,,,,,,,,,,,,,,,,,,,3341.4970045005903,None,,,,,,,,,,,,,,,,,,,,,,,,,,,,,,,,,,,,,,,,,,,,,,,,,,,,,,,,,hall,6,94,sing,old,yellow,3340.4194456003606,None,y,3340.4194456003606,None,"['y', 'return']","[0.8055002996698022, 1.0374899003654718]",3340.4194456003606,None,,,57NC,001,2023_Apr_26_1643,ExactRep-v3-final,2021.2.3,59.946719564073405,
,,,,,,,,,,,,94,0,94,0,,,,,,,,,,,,,,,,,,,,,,,,,,,,,,,,,,,,,,,,,,,,,,,,,3342.9150025006384,None,,,,,,,,,,,,,,,,,,,,,,,,,,,,,,,,,,,,,,,,,,,,,,,,,,,,,,,,,opinion,99,95,aloud,old,yellow,3342.006450000219,None,y,3342.006450000219,None,"['y', 'return']","[0.6905019003897905, 0.8745607007294893]",3342.006450000219,None,,,57NC,001,2023_Apr_26_1643,ExactRep-v3-final,2021.2.3,59.946719564073405,
,,,,,,,,,,,,95,0,95,0,,,,,,,,,,,,,,,,,,,,,,,,,,,,,,,,,,,,,,,,,,,,,,,,,3344.716831800528,None,,,,,,,,,,,,,,,,,,,,,,,,,,,,,,,,,,,,,,,,,,,,,,,,,,,,,,,,,moment,71,96,silent,old,yellow,3343.4259339002892,None,y,3343.4259339002892,None,"['y', 'return']","[0.895019699819386, 1.2469477001577616]",3343.4259339002892,None,,,57NC,001,2023_Apr_26_1643,ExactRep-v3-final,2021.2.3,59.946719564073405,
,,,,,,,,,,,,96,0,96,0,,,,,,,,,,,,,,,,,,,,,,,,,,,,,,,,,,,,,,,,,,,,,,,,,3348.920985800214,None,,,,,,,,,,,,,,,,,,,,,,,,,,,,,,,,,,,,,,,,,,,,,,,,,,,,,,,,,camp,59,97,silent,old,yellow,3345.228540699929,None,y,3345.228540699929,None,"['y', 'return']","[3.4123030994087458, 3.652408699505031]",3345.228540699929,None,,,57NC,001,2023_Apr_26_1643,ExactRep-v3-final,2021.2.3,59.946719564073405,
,,,,,,,,,,,,97,0,97,0,,,,,,,,,,,,,,,,,,,,,,,,,,,,,,,,,,,,,,,,,,,,,,,,,3350.5728456005454,None,,,,,,,,,,,,,,,,,,,,,,,,,,,,,,,,,,,,,,,,,,,,,,,,,,,,,,,,,bottle,56,98,silent,old,yellow,3349.424916599877,None,n,3349.424916599877,None,"['n', 'return']","[0.9281387999653816, 1.104186000302434]",3349.424916599877,None,,,57NC,001,2023_Apr_26_1643,ExactRep-v3-final,2021.2.3,59.946719564073405,
,,,,,,,,,,,,98,0,98,0,,,,,,,,,,,,,,,,,,,,,,,,,,,,,,,,,,,,,,,,,,,,,,,,,3352.0575823001564,None,,,,,,,,,,,,,,,,,,,,,,,,,,,,,,,,,,,,,,,,,,,,,,,,,,,,,,,,,origin,236,99,aloud,new,yellow,3351.08396970015,None,y,3351.08396970015,None,"['y', 'return']","[0.7171330004930496, 0.9329026006162167]",3351.08396970015,None,,,57NC,001,2023_Apr_26_1643,ExactRep-v3-final,2021.2.3,59.946719564073405,
,,,,,,,,,,,,99,0,99,0,,,,,,,,,,,,,,,,,,,,,,,,,,,,,,,,,,,,,,,,,,,,,,,,,3353.6926159001887,None,,,,,,,,,,,,,,,,,,,,,,,,,,,,,,,,,,,,,,,,,,,,,,,,,,,,,,,,,fact,161,100,sing,new,yellow,3352.5674165999517,None,y,3352.5674165999517,None,"['y', 'return']","[0.9455596003681421, 1.0897799003869295]",3352.5674165999517,None,,,57NC,001,2023_Apr_26_1643,ExactRep-v3-final,2021.2.3,59.946719564073405,
,,,,,,,,,,,,100,0,100,0,,,,,,,,,,,,,,,,,,,,,,,,,,,,,,,,,,,,,,,,,,,,,,,,,3355.110476600006,None,,,,,,,,,,,,,,,,,,,,,,,,,,,,,,,,,,,,,,,,,,,,,,,,,,,,,,,,,history,156,101,silent,new,yellow,3354.196855700575,None,n,3354.196855700575,None,"['n', 'return']","[0.6679979003965855, 0.8761371998116374]",3354.196855700575,None,,,57NC,001,2023_Apr_26_1643,ExactRep-v3-final,2021.2.3,59.946719564073405,
,,,,,,,,,,,,101,0,101,0,,,,,,,,,,,,,,,,,,,,,,,,,,,,,,,,,,,,,,,,,,,,,,,,,3356.9626526003703,None,,,,,,,,,,,,,,,,,,,,,,,,,,,,,,,,,,,,,,,,,,,,,,,,,,,,,,,,,law,204,102,aloud,new,yellow,3355.614030700177,None,n,3355.614030700177,None,"['n', 'return']","[1.1069478997960687, 1.3148639993742108]",3355.614030700177,None,,,57NC,001,2023_Apr_26_1643,ExactRep-v3-final,2021.2.3,59.946719564073405,
,,,,,,,,,,,,102,0,102,0,,,,,,,,,,,,,,,,,,,,,,,,,,,,,,,,,,,,,,,,,,,,,,,,,3359.882041300647,None,,,,,,,,,,,,,,,,,,,,,,,,,,,,,,,,,,,,,,,,,,,,,,,,,,,,,,,,,grass,52,103,silent,old,yellow,3357.462894800119,None,y,3357.462894800119,None,"['y', 'return']","[2.162009700201452, 2.378005100414157]",3357.462894800119,None,,,57NC,001,2023_Apr_26_1643,ExactRep-v3-final,2021.2.3,59.946719564073405,
,,,,,,,,,,,,103,0,103,0,,,,,,,,,,,,,,,,,,,,,,,,,,,,,,,,,,,,,,,,,,,,,,,,,3361.166609900072,None,,,,,,,,,,,,,,,,,,,,,,,,,,,,,,,,,,,,,,,,,,,,,,,,,,,,,,,,,kiss,31,104,sing,old,yellow,3360.3825391000137,None,y,3360.3825391000137,None,"['y', 'return']","[0.5463237995281816, 0.746377999894321]",3360.3825391000137,None,,,57NC,001,2023_Apr_26_1643,ExactRep-v3-final,2021.2.3,59.946719564073405,
,,,,,,,,,,,,104,0,104,0,,,,,,,,,,,,,,,,,,,,,,,,,,,,,,,,,,,,,,,,,,,,,,,,,3362.755257599987,None,,,,,,,,,,,,,,,,,,,,,,,,,,,,,,,,,,,,,,,,,,,,,,,,,,,,,,,,,avenue,7,105,sing,old,yellow,3361.667022900656,None,y,3361.667022900656,None,"['y', 'return']","[0.8538561007007957, 1.0460369000211358]",3361.667022900656,None,,,57NC,001,2023_Apr_26_1643,ExactRep-v3-final,2021.2.3,59.946719564073405,
,,,,,,,,,,,,105,0,105,0,,,,,,,,,,,,,,,,,,,,,,,,,,,,,,,,,,,,,,,,,,,,,,,,,3364.2863354003057,None,,,,,,,,,,,,,,,,,,,,,,,,,,,,,,,,,,,,,,,,,,,,,,,,,,,,,,,,,quality,149,106,silent,new,yellow,3363.27173530031,None,n,3363.27173530031,None,"['n', 'return']","[0.7771508991718292, 0.9771762993186712]",3363.27173530031,None,,,57NC,001,2023_Apr_26_1643,ExactRep-v3-final,2021.2.3,59.946719564073405,
,,,,,,,,,,,,106,0,106,0,,,,,,,,,,,,,,,,,,,,,,,,,,,,,,,,,,,,,,,,,,,,,,,,,3365.9046513000503,None,,,,,,,,,,,,,,,,,,,,,,,,,,,,,,,,,,,,,,,,,,,,,,,,,,,,,,,,,cotton,40,107,silent,old,yellow,3364.78694890067,None,y,3364.78694890067,None,"['y', 'return']","[0.9179181000217795, 1.0703036999329925]",3364.78694890067,None,,,57NC,001,2023_Apr_26_1643,ExactRep-v3-final,2021.2.3,59.946719564073405,
,,,,,,,,,,,,107,0,107,0,,,,,,,,,,,,,,,,,,,,,,,,,,,,,,,,,,,,,,,,,,,,,,,,,3367.422868200578,None,,,,,,,,,,,,,,,,,,,,,,,,,,,,,,,,,,,,,,,,,,,,,,,,,,,,,,,,,meat,200,108,aloud,new,yellow,3366.405129900202,None,n,3366.405129900202,None,"['n', 'return']","[0.8278472991660237, 0.9798369994387031]",3366.405129900202,None,,,57NC,001,2023_Apr_26_1643,ExactRep-v3-final,2021.2.3,59.946719564073405,
,,,,,,,,,,,,108,0,108,0,,,,,,,,,,,,,,,,,,,,,,,,,,,,,,,,,,,,,,,,,,,,,,,,,3369.007949400693,None,,,,,,,,,,,,,,,,,,,,,,,,,,,,,,,,,,,,,,,,,,,,,,,,,,,,,,,,,grief,24,109,sing,old,yellow,3367.923417800106,None,n,3367.923417800106,None,"['n', 'return']","[0.9015409993007779, 1.0455732000991702]",3367.923417800106,None,,,57NC,001,2023_Apr_26_1643,ExactRep-v3-final,2021.2.3,59.946719564073405,
,,,,,,,,,,,,109,0,109,0,,,,,,,,,,,,,,,,,,,,,,,,,,,,,,,,,,,,,,,,,,,,,,,,,3370.3257578006014,None,,,,,,,,,,,,,,,,,,,,,,,,,,,,,,,,,,,,,,,,,,,,,,,,,,,,,,,,,effort,44,110,silent,old,yellow,3369.5082328999415,None,y,3369.5082328999415,None,"['y', 'return']","[0.620647999458015, 0.7806347003206611]",3369.5082328999415,None,,,57NC,001,2023_Apr_26_1643,ExactRep-v3-final,2021.2.3,59.946719564073405,
,,,,,,,,,,,,110,0,110,0,,,,,,,,,,,,,,,,,,,,,,,,,,,,,,,,,,,,,,,,,,,,,,,,,3372.1775478003547,None,,,,,,,,,,,,,,,,,,,,,,,,,,,,,,,,,,,,,,,,,,,,,,,,,,,,,,,,,bowl,11,111,sing,old,yellow,3370.826350499876,None,n,3370.826350499876,None,"['n', 'return']","[1.190515799447894, 1.318562500178814]",3370.826350499876,None,,,57NC,001,2023_Apr_26_1643,ExactRep-v3-final,2021.2.3,59.946719564073405,
,,,,,,,,,,,,111,0,111,0,,,,,,,,,,,,,,,,,,,,,,,,,,,,,,,,,,,,,,,,,,,,,,,,,3373.629023499787,None,,,,,,,,,,,,,,,,,,,,,,,,,,,,,,,,,,,,,,,,,,,,,,,,,,,,,,,,,brain,86,112,aloud,old,yellow,3372.6787391006947,None,n,3372.6787391006947,None,"['n', 'return']","[0.7942260000854731, 0.9141490003094077]",3372.6787391006947,None,,,57NC,001,2023_Apr_26_1643,ExactRep-v3-final,2021.2.3,59.946719564073405,
,,,,,,,,,,,,112,0,112,0,,,,,,,,,,,,,,,,,,,,,,,,,,,,,,,,,,,,,,,,,,,,,,,,,3376.982429800555,None,,,,,,,,,,,,,,,,,,,,,,,,,,,,,,,,,,,,,,,,,,,,,,,,,,,,,,,,,gift,75,113,silent,old,yellow,3374.1295332005247,None,y,3374.1295332005247,None,"['y', 'return']","[2.671444700099528, 2.8154545007273555]",3374.1295332005247,None,,,57NC,001,2023_Apr_26_1643,ExactRep-v3-final,2021.2.3,59.946719564073405,
,,,,,,,,,,,,113,0,113,0,,,,,,,,,,,,,,,,,,,,,,,,,,,,,,,,,,,,,,,,,,,,,,,,,3378.3004031004384,None,,,,,,,,,,,,,,,,,,,,,,,,,,,,,,,,,,,,,,,,,,,,,,,,,,,,,,,,,virtue,95,114,aloud,old,yellow,3377.483084600419,None,y,3377.483084600419,None,"['y', 'return']","[0.6697917003184557, 0.7819055998697877]",3377.483084600419,None,,,57NC,001,2023_Apr_26_1643,ExactRep-v3-final,2021.2.3,59.946719564073405,
,,,,,,,,,,,,114,0,114,0,,,,,,,,,,,,,,,,,,,,,,,,,,,,,,,,,,,,,,,,,,,,,,,,,3382.2542500998825,None,,,,,,,,,,,,,,,,,,,,,,,,,,,,,,,,,,,,,,,,,,,,,,,,,,,,,,,,,judge,109,115,aloud,old,yellow,3378.801119199954,None,y,3378.801119199954,None,"['y', 'return']","[3.2717734007164836, 3.407757400535047]",3378.801119199954,None,,,57NC,001,2023_Apr_26_1643,ExactRep-v3-final,2021.2.3,59.946719564073405,
,,,,,,,,,,,,115,0,115,0,,,,,,,,,,,,,,,,,,,,,,,,,,,,,,,,,,,,,,,,,,,,,,,,,3383.7557993000373,None,,,,,,,,,,,,,,,,,,,,,,,,,,,,,,,,,,,,,,,,,,,,,,,,,,,,,,,,,heaven,68,116,silent,old,yellow,3382.7548471000046,None,n,3382.7548471000046,None,"['n', 'return']","[0.8461490999907255, 0.9581726994365454]",3382.7548471000046,None,,,57NC,001,2023_Apr_26_1643,ExactRep-v3-final,2021.2.3,59.946719564073405,
,,,,,,,,,,,,116,0,116,0,,,,,,,,,,,,,,,,,,,,,,,,,,,,,,,,,,,,,,,,,,,,,,,,,3385.2434996003285,None,,,,,,,,,,,,,,,,,,,,,,,,,,,,,,,,,,,,,,,,,,,,,,,,,,,,,,,,,journal,227,117,sing,new,yellow,3384.2584364004433,None,y,3384.2584364004433,None,"['y', 'return']","[0.8067338000983, 0.9427196001634002]",3384.2584364004433,None,,,57NC,001,2023_Apr_26_1643,ExactRep-v3-final,2021.2.3,59.946719564073405,
,,,,,,,,,,,,117,0,117,0,,,,,,,,,,,,,,,,,,,,,,,,,,,,,,,,,,,,,,,,,,,,,,,,,3387.1091454001144,None,,,,,,,,,,,,,,,,,,,,,,,,,,,,,,,,,,,,,,,,,,,,,,,,,,,,,,,,,power,226,118,aloud,new,yellow,3385.7726298002526,None,y,3385.7726298002526,None,"['y', 'return']","[1.1082998001948, 1.2922880994156003]",3385.7726298002526,None,,,57NC,001,2023_Apr_26_1643,ExactRep-v3-final,2021.2.3,59.946719564073405,
,,,,,,,,,,,,118,0,118,0,,,,,,,,,,,,,,,,,,,,,,,,,,,,,,,,,,,,,,,,,,,,,,,,,3388.560481700115,None,,,,,,,,,,,,,,,,,,,,,,,,,,,,,,,,,,,,,,,,,,,,,,,,,,,,,,,,,toy,207,119,sing,new,yellow,3387.6096077002585,None,n,3387.6096077002585,None,"['n', 'return']","[0.7035085000097752, 0.9034216003492475]",3387.6096077002585,None,,,57NC,001,2023_Apr_26_1643,ExactRep-v3-final,2021.2.3,59.946719564073405,
,,,,,,,,,,,,119,0,119,0,,,,,,,,,,,,,,,,,,,,,,,,,,,,,,,,,,,,,,,,,,,,,,,,,3389.962133199908,None,,,,,,,,,,,,,,,,,,,,,,,,,,,,,,,,,,,,,,,,,,,,,,,,,,,,,,,,,cost,218,120,aloud,new,yellow,3389.0658731004223,None,y,3389.0658731004223,None,"['y', 'return']","[0.6472695004194975, 0.85515830013901]",3389.0658731004223,None,,,57NC,001,2023_Apr_26_1643,ExactRep-v3-final,2021.2.3,59.946719564073405,
,,,,,,,,,,,,120,0,120,0,,,,,,,,,,,,,,,,,,,,,,,,,,,,,,,,,,,,,,,,,,,,,,,,,3391.4969714004546,None,,,,,,,,,,,,,,,,,,,,,,,,,,,,,,,,,,,,,,,,,,,,,,,,,,,,,,,,,fire,229,121,sing,new,yellow,3390.4720061998814,None,y,3390.4720061998814,None,"['y', 'return']","[0.8170027006417513, 0.9930732008069754]",3390.4720061998814,None,,,57NC,001,2023_Apr_26_1643,ExactRep-v3-final,2021.2.3,59.946719564073405,
,,,,,,,,,,,,121,0,121,0,,,,,,,,,,,,,,,,,,,,,,,,,,,,,,,,,,,,,,,,,,,,,,,,,3392.781654700637,None,,,,,,,,,,,,,,,,,,,,,,,,,,,,,,,,,,,,,,,,,,,,,,,,,,,,,,,,,bar,183,122,sing,new,yellow,3392.0106044001877,None,n,3392.0106044001877,None,"['n', 'return']","[0.5263371001929045, 0.7264300007373095]",3392.0106044001877,None,,,57NC,001,2023_Apr_26_1643,ExactRep-v3-final,2021.2.3,59.946719564073405,
,,,,,,,,,,,,122,0,122,0,,,,,,,,,,,,,,,,,,,,,,,,,,,,,,,,,,,,,,,,,,,,,,,,,3394.232803599909,None,,,,,,,,,,,,,,,,,,,,,,,,,,,,,,,,,,,,,,,,,,,,,,,,,,,,,,,,,sea,67,123,silent,old,yellow,3393.2927214000374,None,n,3393.2927214000374,None,"['n', 'return']","[0.5881650000810623, 0.8922776002436876]",3393.2927214000374,None,,,57NC,001,2023_Apr_26_1643,ExactRep-v3-final,2021.2.3,59.946719564073405,
,,,,,,,,,,,,123,0,123,0,,,,,,,,,,,,,,,,,,,,,,,,,,,,,,,,,,,,,,,,,,,,,,,,,3395.6510789003223,None,,,,,,,,,,,,,,,,,,,,,,,,,,,,,,,,,,,,,,,,,,,,,,,,,,,,,,,,,soil,148,124,silent,new,yellow,3394.7403560001403,None,y,3394.7403560001403,None,"['y', 'return']","[0.620711199939251, 0.8766598999500275]",3394.7403560001403,None,,,57NC,001,2023_Apr_26_1643,ExactRep-v3-final,2021.2.3,59.946719564073405,
,,,,,,,,,,,,124,0,124,0,,,,,,,,,,,,,,,,,,,,,,,,,,,,,,,,,,,,,,,,,,,,,,,,,3397.236003700644,None,,,,,,,,,,,,,,,,,,,,,,,,,,,,,,,,,,,,,,,,,,,,,,,,,,,,,,,,,method,12,125,sing,old,yellow,3396.161082400009,None,y,3396.161082400009,None,"['y', 'return']","[0.8799578007310629, 1.0319691002368927]",3396.161082400009,None,,,57NC,001,2023_Apr_26_1643,ExactRep-v3-final,2021.2.3,59.946719564073405,
,,,,,,,,,,,,125,0,125,0,,,,,,,,,,,,,,,,,,,,,,,,,,,,,,,,,,,,,,,,,,,,,,,,,3398.987745200284,None,,,,,,,,,,,,,,,,,,,,,,,,,,,,,,,,,,,,,,,,,,,,,,,,,,,,,,,,,hope,198,126,aloud,new,yellow,3397.743106899783,None,n,3397.743106899783,None,"['n', 'return']","[1.0581527007743716, 1.2101608999073505]",3397.743106899783,None,,,57NC,001,2023_Apr_26_1643,ExactRep-v3-final,2021.2.3,59.946719564073405,
,,,,,,,,,,,,126,0,126,0,,,,,,,,,,,,,,,,,,,,,,,,,,,,,,,,,,,,,,,,,,,,,,,,,3400.355780400336,None,,,,,,,,,,,,,,,,,,,,,,,,,,,,,,,,,,,,,,,,,,,,,,,,,,,,,,,,,glory,110,127,aloud,old,yellow,3399.4975487003103,None,y,3399.4975487003103,None,"['y', 'return']","[0.6474623000249267, 0.8233971996232867]",3399.4975487003103,None,,,57NC,001,2023_Apr_26_1643,ExactRep-v3-final,2021.2.3,59.946719564073405,
,,,,,,,,,,,,127,0,127,0,,,,,,,,,,,,,,,,,,,,,,,,,,,,,,,,,,,,,,,,,,,,,,,,,3402.274554300122,None,,,,,,,,,,,,,,,,,,,,,,,,,,,,,,,,,,,,,,,,,,,,,,,,,,,,,,,,,silence,235,128,sing,new,yellow,3400.866608600132,None,y,3400.866608600132,None,"['y', 'return']","[1.214589700102806, 1.3748484002426267]",3400.866608600132,None,,,57NC,001,2023_Apr_26_1643,ExactRep-v3-final,2021.2.3,59.946719564073405,
,,,,,,,,,,,,128,0,128,0,,,,,,,,,,,,,,,,,,,,,,,,,,,,,,,,,,,,,,,,,,,,,,,,,3403.859252700582,None,,,,,,,,,,,,,,,,,,,,,,,,,,,,,,,,,,,,,,,,,,,,,,,,,,,,,,,,,meeting,4,129,sing,old,yellow,3402.7822015006095,None,y,3402.7822015006095,None,"['y', 'return']","[0.8028058996424079, 1.042800199240446]",3402.7822015006095,None,,,57NC,001,2023_Apr_26_1643,ExactRep-v3-final,2021.2.3,59.946719564073405,
