trials_fam.thisRepN,trials_fam.thisTrialN,trials_fam.thisN,trials_fam.thisIndex,trials_prc.thisRepN,trials_prc.thisTrialN,trials_prc.thisN,trials_prc.thisIndex,StudyLoop.thisRepN,StudyLoop.thisTrialN,StudyLoop.thisN,StudyLoop.thisIndex,TestLoop.thisRepN,TestLoop.thisTrialN,TestLoop.thisN,TestLoop.thisIndex,text_colortest.started,text_colortest.stopped,key_colortest.keys,key_colortest.rt,key_colortest.started,key_colortest.stopped,textCondition.started,textCondition.stopped,keyCondition.keys,keyCondition.rt,keyCondition.started,keyCondition.stopped,Condition_between,Condition_counterbal,keyWelcome.keys,keyWelcome.rt,keyWelcome.started,keyWelcome.stopped,welcome_a.started,welcome_a.stopped,welcome_b.started,welcome_b.stopped,welcome_c.started,welcome_c.stopped,welcome_d.started,welcome_d.stopped,welcome_e.started,welcome_e.stopped,welcome_f.started,welcome_f.stopped,key_resp_fam_inst.keys,key_resp_fam_inst.rt,key_resp_fam_inst.started,key_resp_fam_inst.stopped,fam_a.started,fam_a.stopped,fam_b.started,fam_b.stopped,fam_c.started,fam_c.stopped,fam_d.started,fam_d.stopped,fam_e.started,fam_e.stopped,fam_f.started,fam_f.stopped,text_famil.started,text_famil.stopped,textBlank500.started,textBlank500.stopped,key_resp_prc_inst.keys,key_resp_prc_inst.rt,key_resp_prc_inst.started,key_resp_prc_inst.stopped,prac_a.started,prac_a.stopped,prac_b.started,prac_b.stopped,prac_c.started,prac_c.stopped,prac_d.started,prac_d.stopped,prac_e.started,prac_e.stopped,prac_f.started,prac_f.stopped,text_prc_trial.started,text_prc_trial.stopped,key_resp_study_inst.keys,key_resp_study_inst.rt,key_resp_study_inst.started,key_resp_study_inst.stopped,crit_a.started,crit_a.stopped,crit_b.started,crit_b.stopped,crit_c.started,crit_c.stopped,crit_d.started,crit_d.stopped,crit_e.started,crit_e.stopped,crit_f.started,crit_f.stopped,study_word,study_num,study_order,study_type,word_color,textStudy.started,textStudy.stopped,keyStudy.keys,keyStudy.started,keyStudy.stopped,post_study.started,post_study.stopped,key_resp_post_study.keys,key_resp_post_study.rt,key_resp_post_study.started,key_resp_post_study.stopped,test_inst.started,test_inst.stopped,key_resp_test_inst.keys,key_resp_test_inst.rt,key_resp_test_inst.started,key_resp_test_inst.stopped,test_word,test_num,test_order,test_condition,old_new_test,word_color_test,textConf.started,textConf.stopped,Participant Response,textInput.started,textInput.stopped,keyResp.keys,keyResp.rt,keyResp.started,keyResp.stopped,textEnd.started,textEnd.stopped,participant,session,date,expName,psychopyVersion,frameRate,
,,,,,,,,,,,,,,,,32.379677900113165,None,n,3.5753076002001762,32.379677900113165,None,,,,,,,,,,,,,,,,,,,,,,,,,,,,,,,,,,,,,,,,,,,,,,,,,,,,,,,,,,,,,,,,,,,,,,,,,,,,,,,,,,,,,,,,,,,,,,,,,,,,,,,,,,,,,,,,,,,,,,58ND,001,2023_Apr_26_1747,ExactRep-v3-final,2021.2.3,60.03424340180482,
,,,,,,,,,,,,,,,,,,,,,,35.98183960001916,None,d,0.5969265000894666,35.98183960001916,None,,,,,,,,,,,,,,,,,,,,,,,,,,,,,,,,,,,,,,,,,,,,,,,,,,,,,,,,,,,,,,,,,,,,,,,,,,,,,,,,,,,,,,,,,,,,,,,,,,,,,,,,,,,,,,,,58ND,001,2023_Apr_26_1747,ExactRep-v3-final,2021.2.3,60.03424340180482,
,,,,,,,,,,,,,,,,,,,,,,,,,,,,whitefoils,d,space,761.9203172000125,46.70736880041659,None,,,,,,,,,,,,,,,,,,,,,,,,,,,,,,,,,,,,,,,,,,,,,,,,,,,,,,,,,,,,,,,,,,,,,,,,,,,,,,,,,,,,,,,,,,,,,,,,,,,,,,,,,,58ND,001,2023_Apr_26_1747,ExactRep-v3-final,2021.2.3,60.03424340180482,
,,,,,,,,,,,,,,,,,,,,,,,,,,,,,,,,,,36.74854820035398,None,36.74854820035398,None,36.74854820035398,None,36.74854820035398,None,36.74854820035398,None,36.74854820035398,None,space,16.497923300601542,818.7857764000073,None,,,,,,,,,,,,,,,,,,,,,,,,,,,,,,,,,,,,,,,,,,,,,,,,,,,,,,,,,,,,,,,,,,,,,,,,,,,,,,,,,,,,,,,,,,58ND,001,2023_Apr_26_1747,ExactRep-v3-final,2021.2.3,60.03424340180482,
0,0,0,0,,,,,,,,,,,,,,,,,,,,,,,,,,,,,,,,,,,,,,,,,,,,,,,808.839188599959,None,808.839188599959,None,808.839188599959,None,808.839188599959,None,808.839188599959,None,808.839188599959,None,835.4005131004378,None,837.399836900644,None,,,,,,,,,,,,,,,,,,,,,,,,,,,,,,,,,,,,,,,,,,,,,,,,,,,,,,,,,,,,,,,,,,,,,,,,,,58ND,001,2023_Apr_26_1747,ExactRep-v3-final,2021.2.3,60.03424340180482,
1,0,1,0,,,,,,,,,,,,,,,,,,,,,,,,,,,,,,,,,,,,,,,,,,,,,,,,,,,,,,,,,,,837.9406791999936,None,839.918867399916,None,,,,,,,,,,,,,,,,,,,,,,,,,,,,,,,,,,,,,,,,,,,,,,,,,,,,,,,,,,,,,,,,,,,,,,,,,,58ND,001,2023_Apr_26_1747,ExactRep-v3-final,2021.2.3,60.03424340180482,
2,0,2,0,,,,,,,,,,,,,,,,,,,,,,,,,,,,,,,,,,,,,,,,,,,,,,,,,,,,,,,,,,,840.4244912005961,None,842.4214853001758,None,,,,,,,,,,,,,,,,,,,,,,,,,,,,,,,,,,,,,,,,,,,,,,,,,,,,,,,,,,,,,,,,,,,,,,,,,,58ND,001,2023_Apr_26_1747,ExactRep-v3-final,2021.2.3,60.03424340180482,
3,0,3,0,,,,,,,,,,,,,,,,,,,,,,,,,,,,,,,,,,,,,,,,,,,,,,,,,,,,,,,,,,,842.9220118001103,None,844.9241995001212,None,,,,,,,,,,,,,,,,,,,,,,,,,,,,,,,,,,,,,,,,,,,,,,,,,,,,,,,,,,,,,,,,,,,,,,,,,,58ND,001,2023_Apr_26_1747,ExactRep-v3-final,2021.2.3,60.03424340180482,
4,0,4,0,,,,,,,,,,,,,,,,,,,,,,,,,,,,,,,,,,,,,,,,,,,,,,,,,,,,,,,,,,,845.42683030013,None,847.4263451006263,None,,,,,,,,,,,,,,,,,,,,,,,,,,,,,,,,,,,,,,,,,,,,,,,,,,,,,,,,,,,,,,,,,,,,,,,,,,58ND,001,2023_Apr_26_1747,ExactRep-v3-final,2021.2.3,60.03424340180482,
5,0,5,0,,,,,,,,,,,,,,,,,,,,,,,,,,,,,,,,,,,,,,,,,,,,,,,,,,,,,,,,,,,847.9277360998094,None,849.9290168005973,None,,,,,,,,,,,,,,,,,,,,,,,,,,,,,,,,,,,,,,,,,,,,,,,,,,,,,,,,,,,,,,,,,,,,,,,,,,58ND,001,2023_Apr_26_1747,ExactRep-v3-final,2021.2.3,60.03424340180482,
6,0,6,0,,,,,,,,,,,,,,,,,,,,,,,,,,,,,,,,,,,,,,,,,,,,,,,,,,,,,,,,,,,850.4296436002478,None,852.4315718999133,None,,,,,,,,,,,,,,,,,,,,,,,,,,,,,,,,,,,,,,,,,,,,,,,,,,,,,,,,,,,,,,,,,,,,,,,,,,58ND,001,2023_Apr_26_1747,ExactRep-v3-final,2021.2.3,60.03424340180482,
7,0,7,0,,,,,,,,,,,,,,,,,,,,,,,,,,,,,,,,,,,,,,,,,,,,,,,,,,,,,,,,,,,852.9328875998035,None,854.9341985005885,None,,,,,,,,,,,,,,,,,,,,,,,,,,,,,,,,,,,,,,,,,,,,,,,,,,,,,,,,,,,,,,,,,,,,,,,,,,58ND,001,2023_Apr_26_1747,ExactRep-v3-final,2021.2.3,60.03424340180482,
8,0,8,0,,,,,,,,,,,,,,,,,,,,,,,,,,,,,,,,,,,,,,,,,,,,,,,,,,,,,,,,,,,855.4348611002788,None,857.4368675006554,None,,,,,,,,,,,,,,,,,,,,,,,,,,,,,,,,,,,,,,,,,,,,,,,,,,,,,,,,,,,,,,,,,,,,,,,,,,58ND,001,2023_Apr_26_1747,ExactRep-v3-final,2021.2.3,60.03424340180482,
9,0,9,0,,,,,,,,,,,,,,,,,,,,,,,,,,,,,,,,,,,,,,,,,,,,,,,,,,,,,,,,,,,857.9446739004925,None,859.9557455005124,None,,,,,,,,,,,,,,,,,,,,,,,,,,,,,,,,,,,,,,,,,,,,,,,,,,,,,,,,,,,,,,,,,,,,,,,,,,58ND,001,2023_Apr_26_1747,ExactRep-v3-final,2021.2.3,60.03424340180482,
10,0,10,0,,,,,,,,,,,,,,,,,,,,,,,,,,,,,,,,,,,,,,,,,,,,,,,,,,,,,,,,,,,860.4566174000502,None,862.4582949001342,None,,,,,,,,,,,,,,,,,,,,,,,,,,,,,,,,,,,,,,,,,,,,,,,,,,,,,,,,,,,,,,,,,,,,,,,,,,58ND,001,2023_Apr_26_1747,ExactRep-v3-final,2021.2.3,60.03424340180482,
11,0,11,0,,,,,,,,,,,,,,,,,,,,,,,,,,,,,,,,,,,,,,,,,,,,,,,,,,,,,,,,,,,862.9619427006692,None,864.960916900076,None,,,,,,,,,,,,,,,,,,,,,,,,,,,,,,,,,,,,,,,,,,,,,,,,,,,,,,,,,,,,,,,,,,,,,,,,,,58ND,001,2023_Apr_26_1747,ExactRep-v3-final,2021.2.3,60.03424340180482,
12,0,12,0,,,,,,,,,,,,,,,,,,,,,,,,,,,,,,,,,,,,,,,,,,,,,,,,,,,,,,,,,,,865.4649148005992,None,867.480219299905,None,,,,,,,,,,,,,,,,,,,,,,,,,,,,,,,,,,,,,,,,,,,,,,,,,,,,,,,,,,,,,,,,,,,,,,,,,,58ND,001,2023_Apr_26_1747,ExactRep-v3-final,2021.2.3,60.03424340180482,
13,0,13,0,,,,,,,,,,,,,,,,,,,,,,,,,,,,,,,,,,,,,,,,,,,,,,,,,,,,,,,,,,,867.9807441001758,None,869.9823662005365,None,,,,,,,,,,,,,,,,,,,,,,,,,,,,,,,,,,,,,,,,,,,,,,,,,,,,,,,,,,,,,,,,,,,,,,,,,,58ND,001,2023_Apr_26_1747,ExactRep-v3-final,2021.2.3,60.03424340180482,
14,0,14,0,,,,,,,,,,,,,,,,,,,,,,,,,,,,,,,,,,,,,,,,,,,,,,,,,,,,,,,,,,,870.4845833005384,None,872.4852261003107,None,,,,,,,,,,,,,,,,,,,,,,,,,,,,,,,,,,,,,,,,,,,,,,,,,,,,,,,,,,,,,,,,,,,,,,,,,,58ND,001,2023_Apr_26_1747,ExactRep-v3-final,2021.2.3,60.03424340180482,
,,,,,,,,,,,,,,,,,,,,,,,,,,,,,,,,,,,,,,,,,,,,,,,,,,,,,,,,,,,,,,,,,,space,20.159111799672246,883.1086229998618,None,,,,,,,,,,,,,,,,,,,,,,,,,,,,,,,,,,,,,,,,,,,,,,,,,,,,,,,,,,,,,,,,,,,,,,58ND,001,2023_Apr_26_1747,ExactRep-v3-final,2021.2.3,60.03424340180482,
,,,,0,0,0,0,,,,,,,,,,,,,,,,,,,,,,,,,,,,,,,,,,,,,,,,,,,,,,,,,,,,,,,,,905.3512593004853,None,,,,,873.15409119986,None,873.15409119986,None,873.15409119986,None,873.15409119986,None,873.15409119986,None,873.15409119986,None,903.3445147005841,None,,,,,,,,,,,,,,,,,,,,,,,,,,,,,,,,,,,,,,,,,,,,,,,,,,,,,,,,58ND,001,2023_Apr_26_1747,ExactRep-v3-final,2021.2.3,60.03424340180482,
,,,,1,0,1,0,,,,,,,,,,,,,,,,,,,,,,,,,,,,,,,,,,,,,,,,,,,,,,,,,,,,,,,,,907.8537755003199,None,,,,,,,,,,,,,,,,,905.8516688998789,None,,,,,,,,,,,,,,,,,,,,,,,,,,,,,,,,,,,,,,,,,,,,,,,,,,,,,,,,58ND,001,2023_Apr_26_1747,ExactRep-v3-final,2021.2.3,60.03424340180482,
,,,,2,0,2,0,,,,,,,,,,,,,,,,,,,,,,,,,,,,,,,,,,,,,,,,,,,,,,,,,,,,,,,,,910.3561411006376,None,,,,,,,,,,,,,,,,,908.3542650006711,None,,,,,,,,,,,,,,,,,,,,,,,,,,,,,,,,,,,,,,,,,,,,,,,,,,,,,,,,58ND,001,2023_Apr_26_1747,ExactRep-v3-final,2021.2.3,60.03424340180482,
,,,,3,0,3,0,,,,,,,,,,,,,,,,,,,,,,,,,,,,,,,,,,,,,,,,,,,,,,,,,,,,,,,,,912.8588244002312,None,,,,,,,,,,,,,,,,,910.8568593999371,None,,,,,,,,,,,,,,,,,,,,,,,,,,,,,,,,,,,,,,,,,,,,,,,,,,,,,,,,58ND,001,2023_Apr_26_1747,ExactRep-v3-final,2021.2.3,60.03424340180482,
,,,,4,0,4,0,,,,,,,,,,,,,,,,,,,,,,,,,,,,,,,,,,,,,,,,,,,,,,,,,,,,,,,,,915.3612894006073,None,,,,,,,,,,,,,,,,,913.3591809002683,None,,,,,,,,,,,,,,,,,,,,,,,,,,,,,,,,,,,,,,,,,,,,,,,,,,,,,,,,58ND,001,2023_Apr_26_1747,ExactRep-v3-final,2021.2.3,60.03424340180482,
,,,,5,0,5,0,,,,,,,,,,,,,,,,,,,,,,,,,,,,,,,,,,,,,,,,,,,,,,,,,,,,,,,,,917.8638224005699,None,,,,,,,,,,,,,,,,,915.8615474998951,None,,,,,,,,,,,,,,,,,,,,,,,,,,,,,,,,,,,,,,,,,,,,,,,,,,,,,,,,58ND,001,2023_Apr_26_1747,ExactRep-v3-final,2021.2.3,60.03424340180482,
,,,,6,0,6,0,,,,,,,,,,,,,,,,,,,,,,,,,,,,,,,,,,,,,,,,,,,,,,,,,,,,,,,,,920.3662304002792,None,,,,,,,,,,,,,,,,,918.3641910003498,None,,,,,,,,,,,,,,,,,,,,,,,,,,,,,,,,,,,,,,,,,,,,,,,,,,,,,,,,58ND,001,2023_Apr_26_1747,ExactRep-v3-final,2021.2.3,60.03424340180482,
,,,,7,0,7,0,,,,,,,,,,,,,,,,,,,,,,,,,,,,,,,,,,,,,,,,,,,,,,,,,,,,,,,,,922.868910100311,None,,,,,,,,,,,,,,,,,920.8668087003753,None,,,,,,,,,,,,,,,,,,,,,,,,,,,,,,,,,,,,,,,,,,,,,,,,,,,,,,,,58ND,001,2023_Apr_26_1747,ExactRep-v3-final,2021.2.3,60.03424340180482,
,,,,8,0,8,0,,,,,,,,,,,,,,,,,,,,,,,,,,,,,,,,,,,,,,,,,,,,,,,,,,,,,,,,,925.37142350059,None,,,,,,,,,,,,,,,,,923.3693446004763,None,,,,,,,,,,,,,,,,,,,,,,,,,,,,,,,,,,,,,,,,,,,,,,,,,,,,,,,,58ND,001,2023_Apr_26_1747,ExactRep-v3-final,2021.2.3,60.03424340180482,
,,,,9,0,9,0,,,,,,,,,,,,,,,,,,,,,,,,,,,,,,,,,,,,,,,,,,,,,,,,,,,,,,,,,927.8737988006324,None,,,,,,,,,,,,,,,,,925.8719676006585,None,,,,,,,,,,,,,,,,,,,,,,,,,,,,,,,,,,,,,,,,,,,,,,,,,,,,,,,,58ND,001,2023_Apr_26_1747,ExactRep-v3-final,2021.2.3,60.03424340180482,
,,,,10,0,10,0,,,,,,,,,,,,,,,,,,,,,,,,,,,,,,,,,,,,,,,,,,,,,,,,,,,,,,,,,930.3763214005157,None,,,,,,,,,,,,,,,,,928.3743045004085,None,,,,,,,,,,,,,,,,,,,,,,,,,,,,,,,,,,,,,,,,,,,,,,,,,,,,,,,,58ND,001,2023_Apr_26_1747,ExactRep-v3-final,2021.2.3,60.03424340180482,
,,,,11,0,11,0,,,,,,,,,,,,,,,,,,,,,,,,,,,,,,,,,,,,,,,,,,,,,,,,,,,,,,,,,932.8788104997948,None,,,,,,,,,,,,,,,,,930.876807000488,None,,,,,,,,,,,,,,,,,,,,,,,,,,,,,,,,,,,,,,,,,,,,,,,,,,,,,,,,58ND,001,2023_Apr_26_1747,ExactRep-v3-final,2021.2.3,60.03424340180482,
,,,,12,0,12,0,,,,,,,,,,,,,,,,,,,,,,,,,,,,,,,,,,,,,,,,,,,,,,,,,,,,,,,,,935.3812019005418,None,,,,,,,,,,,,,,,,,933.3795261001214,None,,,,,,,,,,,,,,,,,,,,,,,,,,,,,,,,,,,,,,,,,,,,,,,,,,,,,,,,58ND,001,2023_Apr_26_1747,ExactRep-v3-final,2021.2.3,60.03424340180482,
,,,,13,0,13,0,,,,,,,,,,,,,,,,,,,,,,,,,,,,,,,,,,,,,,,,,,,,,,,,,,,,,,,,,937.8835868006572,None,,,,,,,,,,,,,,,,,935.8817918999121,None,,,,,,,,,,,,,,,,,,,,,,,,,,,,,,,,,,,,,,,,,,,,,,,,,,,,,,,,58ND,001,2023_Apr_26_1747,ExactRep-v3-final,2021.2.3,60.03424340180482,
,,,,14,0,14,0,,,,,,,,,,,,,,,,,,,,,,,,,,,,,,,,,,,,,,,,,,,,,,,,,,,,,,,,,940.386373099871,None,,,,,,,,,,,,,,,,,938.3844753000885,None,,,,,,,,,,,,,,,,,,,,,,,,,,,,,,,,,,,,,,,,,,,,,,,,,,,,,,,,58ND,001,2023_Apr_26_1747,ExactRep-v3-final,2021.2.3,60.03424340180482,
,,,,,,,,,,,,,,,,,,,,,,,,,,,,,,,,,,,,,,,,,,,,,,,,,,,,,,,,,,,,,,,,,,,,,,,,,,,,,,,,,,,,space,25.46032330021262,950.9995117001235,None,,,,,,,,,,,,,,,,,,,,,,,,,,,,,,,,,,,,,,,,,,,,,,,,,,,,58ND,001,2023_Apr_26_1747,ExactRep-v3-final,2021.2.3,60.03424340180482,
,,,,,,,,0,0,0,0,,,,,,,,,,,,,,,,,,,,,,,,,,,,,,,,,,,,,,,,,,,,,,,,,,,,,978.5574152003974,None,,,,,,,,,,,,,,,,,,,,,,,941.0440613999963,None,941.0440613999963,None,941.0440613999963,None,941.0440613999963,None,941.0440613999963,None,941.0440613999963,None,officer,113,1,aloud,blue,976.5578698003665,None,None,976.5578698003665,None,,,,,,,,,,,,,,,,,,,,,,,,,,,,,,58ND,001,2023_Apr_26_1747,ExactRep-v3-final,2021.2.3,60.03424340180482,
,,,,,,,,1,0,1,0,,,,,,,,,,,,,,,,,,,,,,,,,,,,,,,,,,,,,,,,,,,,,,,,,,,,,981.0770882004872,None,,,,,,,,,,,,,,,,,,,,,,,,,,,,,,,,,,,deed,112,2,aloud,blue,979.062393900007,None,None,979.062393900007,None,,,,,,,,,,,,,,,,,,,,,,,,,,,,,,58ND,001,2023_Apr_26_1747,ExactRep-v3-final,2021.2.3,60.03424340180482,
,,,,,,,,2,0,2,0,,,,,,,,,,,,,,,,,,,,,,,,,,,,,,,,,,,,,,,,,,,,,,,,,,,,,983.5798383997753,None,,,,,,,,,,,,,,,,,,,,,,,,,,,,,,,,,,,fire,27,3,sing,red,981.5784868001938,None,None,981.5784868001938,None,,,,,,,,,,,,,,,,,,,,,,,,,,,,,,58ND,001,2023_Apr_26_1747,ExactRep-v3-final,2021.2.3,60.03424340180482,
,,,,,,,,3,0,3,0,,,,,,,,,,,,,,,,,,,,,,,,,,,,,,,,,,,,,,,,,,,,,,,,,,,,,986.0987737001851,None,,,,,,,,,,,,,,,,,,,,,,,,,,,,,,,,,,,coffee,1,4,sing,red,984.0835531000048,None,None,984.0835531000048,None,,,,,,,,,,,,,,,,,,,,,,,,,,,,,,58ND,001,2023_Apr_26_1747,ExactRep-v3-final,2021.2.3,60.03424340180482,
,,,,,,,,4,0,4,0,,,,,,,,,,,,,,,,,,,,,,,,,,,,,,,,,,,,,,,,,,,,,,,,,,,,,988.601000700146,None,,,,,,,,,,,,,,,,,,,,,,,,,,,,,,,,,,,author,32,5,sing,red,986.5990409003571,None,None,986.5990409003571,None,,,,,,,,,,,,,,,,,,,,,,,,,,,,,,58ND,001,2023_Apr_26_1747,ExactRep-v3-final,2021.2.3,60.03424340180482,
,,,,,,,,5,0,5,0,,,,,,,,,,,,,,,,,,,,,,,,,,,,,,,,,,,,,,,,,,,,,,,,,,,,,991.1035103006288,None,,,,,,,,,,,,,,,,,,,,,,,,,,,,,,,,,,,church,84,6,aloud,blue,989.1015835003927,None,None,989.1015835003927,None,,,,,,,,,,,,,,,,,,,,,,,,,,,,,,58ND,001,2023_Apr_26_1747,ExactRep-v3-final,2021.2.3,60.03424340180482,
,,,,,,,,6,0,6,0,,,,,,,,,,,,,,,,,,,,,,,,,,,,,,,,,,,,,,,,,,,,,,,,,,,,,993.6058780001476,None,,,,,,,,,,,,,,,,,,,,,,,,,,,,,,,,,,,journal,9,7,sing,red,991.605645599775,None,None,991.605645599775,None,,,,,,,,,,,,,,,,,,,,,,,,,,,,,,58ND,001,2023_Apr_26_1747,ExactRep-v3-final,2021.2.3,60.03424340180482,
,,,,,,,,7,0,7,0,,,,,,,,,,,,,,,,,,,,,,,,,,,,,,,,,,,,,,,,,,,,,,,,,,,,,996.1085087005049,None,,,,,,,,,,,,,,,,,,,,,,,,,,,,,,,,,,,bar,6,8,sing,red,994.1064782999456,None,None,994.1064782999456,None,,,,,,,,,,,,,,,,,,,,,,,,,,,,,,58ND,001,2023_Apr_26_1747,ExactRep-v3-final,2021.2.3,60.03424340180482,
,,,,,,,,8,0,8,0,,,,,,,,,,,,,,,,,,,,,,,,,,,,,,,,,,,,,,,,,,,,,,,,,,,,,998.6276003997773,None,,,,,,,,,,,,,,,,,,,,,,,,,,,,,,,,,,,quality,89,9,aloud,blue,996.6120746005327,None,None,996.6120746005327,None,,,,,,,,,,,,,,,,,,,,,,,,,,,,,,58ND,001,2023_Apr_26_1747,ExactRep-v3-final,2021.2.3,60.03424340180482,
,,,,,,,,9,0,9,0,,,,,,,,,,,,,,,,,,,,,,,,,,,,,,,,,,,,,,,,,,,,,,,,,,,,,1001.1303943004459,None,,,,,,,,,,,,,,,,,,,,,,,,,,,,,,,,,,,girl,90,10,aloud,blue,999.1282452000305,None,None,999.1282452000305,None,,,,,,,,,,,,,,,,,,,,,,,,,,,,,,58ND,001,2023_Apr_26_1747,ExactRep-v3-final,2021.2.3,60.03424340180482,
,,,,,,,,10,0,10,0,,,,,,,,,,,,,,,,,,,,,,,,,,,,,,,,,,,,,,,,,,,,,,,,,,,,,1003.6495427004993,None,,,,,,,,,,,,,,,,,,,,,,,,,,,,,,,,,,,hall,83,11,aloud,blue,1001.644747200422,None,None,1001.644747200422,None,,,,,,,,,,,,,,,,,,,,,,,,,,,,,,58ND,001,2023_Apr_26_1747,ExactRep-v3-final,2021.2.3,60.03424340180482,
,,,,,,,,11,0,11,0,,,,,,,,,,,,,,,,,,,,,,,,,,,,,,,,,,,,,,,,,,,,,,,,,,,,,1006.1521220002323,None,,,,,,,,,,,,,,,,,,,,,,,,,,,,,,,,,,,corner,18,12,sing,red,1004.1509656002745,None,None,1004.1509656002745,None,,,,,,,,,,,,,,,,,,,,,,,,,,,,,,58ND,001,2023_Apr_26_1747,ExactRep-v3-final,2021.2.3,60.03424340180482,
,,,,,,,,12,0,12,0,,,,,,,,,,,,,,,,,,,,,,,,,,,,,,,,,,,,,,,,,,,,,,,,,,,,,1008.6544117005542,None,,,,,,,,,,,,,,,,,,,,,,,,,,,,,,,,,,,gift,57,13,silent,white,1006.6550922999159,None,None,1006.6550922999159,None,,,,,,,,,,,,,,,,,,,,,,,,,,,,,,58ND,001,2023_Apr_26_1747,ExactRep-v3-final,2021.2.3,60.03424340180482,
,,,,,,,,13,0,13,0,,,,,,,,,,,,,,,,,,,,,,,,,,,,,,,,,,,,,,,,,,,,,,,,,,,,,1011.1736016003415,None,,,,,,,,,,,,,,,,,,,,,,,,,,,,,,,,,,,paper,82,14,aloud,blue,1009.1619496000931,None,None,1009.1619496000931,None,,,,,,,,,,,,,,,,,,,,,,,,,,,,,,58ND,001,2023_Apr_26_1747,ExactRep-v3-final,2021.2.3,60.03424340180482,
,,,,,,,,14,0,14,0,,,,,,,,,,,,,,,,,,,,,,,,,,,,,,,,,,,,,,,,,,,,,,,,,,,,,1013.6928136004135,None,,,,,,,,,,,,,,,,,,,,,,,,,,,,,,,,,,,law,110,15,aloud,blue,1011.6843694997951,None,None,1011.6843694997951,None,,,,,,,,,,,,,,,,,,,,,,,,,,,,,,58ND,001,2023_Apr_26_1747,ExactRep-v3-final,2021.2.3,60.03424340180482,
,,,,,,,,15,0,15,0,,,,,,,,,,,,,,,,,,,,,,,,,,,,,,,,,,,,,,,,,,,,,,,,,,,,,1016.1951545998454,None,,,,,,,,,,,,,,,,,,,,,,,,,,,,,,,,,,,fact,119,16,aloud,blue,1014.1943971002474,None,None,1014.1943971002474,None,,,,,,,,,,,,,,,,,,,,,,,,,,,,,,58ND,001,2023_Apr_26_1747,ExactRep-v3-final,2021.2.3,60.03424340180482,
,,,,,,,,16,0,16,0,,,,,,,,,,,,,,,,,,,,,,,,,,,,,,,,,,,,,,,,,,,,,,,,,,,,,1018.7143814004958,None,,,,,,,,,,,,,,,,,,,,,,,,,,,,,,,,,,,door,106,17,aloud,blue,1016.6991777000949,None,None,1016.6991777000949,None,,,,,,,,,,,,,,,,,,,,,,,,,,,,,,58ND,001,2023_Apr_26_1747,ExactRep-v3-final,2021.2.3,60.03424340180482,
,,,,,,,,17,0,17,0,,,,,,,,,,,,,,,,,,,,,,,,,,,,,,,,,,,,,,,,,,,,,,,,,,,,,1021.2337389998138,None,,,,,,,,,,,,,,,,,,,,,,,,,,,,,,,,,,,insect,19,18,sing,red,1019.2240384006873,None,None,1019.2240384006873,None,,,,,,,,,,,,,,,,,,,,,,,,,,,,,,58ND,001,2023_Apr_26_1747,ExactRep-v3-final,2021.2.3,60.03424340180482,
,,,,,,,,18,0,18,0,,,,,,,,,,,,,,,,,,,,,,,,,,,,,,,,,,,,,,,,,,,,,,,,,,,,,1023.7544497000054,None,,,,,,,,,,,,,,,,,,,,,,,,,,,,,,,,,,,soul,30,19,sing,red,1021.7437457004562,None,None,1021.7437457004562,None,,,,,,,,,,,,,,,,,,,,,,,,,,,,,,58ND,001,2023_Apr_26_1747,ExactRep-v3-final,2021.2.3,60.03424340180482,
,,,,,,,,19,0,19,0,,,,,,,,,,,,,,,,,,,,,,,,,,,,,,,,,,,,,,,,,,,,,,,,,,,,,1026.2555202003568,None,,,,,,,,,,,,,,,,,,,,,,,,,,,,,,,,,,,grass,78,20,silent,white,1024.2534698005766,None,None,1024.2534698005766,None,,,,,,,,,,,,,,,,,,,,,,,,,,,,,,58ND,001,2023_Apr_26_1747,ExactRep-v3-final,2021.2.3,60.03424340180482,
,,,,,,,,20,0,20,0,,,,,,,,,,,,,,,,,,,,,,,,,,,,,,,,,,,,,,,,,,,,,,,,,,,,,1028.7744946004823,None,,,,,,,,,,,,,,,,,,,,,,,,,,,,,,,,,,,house,44,21,silent,white,1026.7599304001778,None,None,1026.7599304001778,None,,,,,,,,,,,,,,,,,,,,,,,,,,,,,,58ND,001,2023_Apr_26_1747,ExactRep-v3-final,2021.2.3,60.03424340180482,
,,,,,,,,21,0,21,0,,,,,,,,,,,,,,,,,,,,,,,,,,,,,,,,,,,,,,,,,,,,,,,,,,,,,1031.2778369002044,None,,,,,,,,,,,,,,,,,,,,,,,,,,,,,,,,,,,truth,95,22,aloud,blue,1029.275108200498,None,None,1029.275108200498,None,,,,,,,,,,,,,,,,,,,,,,,,,,,,,,58ND,001,2023_Apr_26_1747,ExactRep-v3-final,2021.2.3,60.03424340180482,
,,,,,,,,22,0,22,0,,,,,,,,,,,,,,,,,,,,,,,,,,,,,,,,,,,,,,,,,,,,,,,,,,,,,1033.7796601001173,None,,,,,,,,,,,,,,,,,,,,,,,,,,,,,,,,,,,spirit,70,23,silent,white,1031.7776561006904,None,None,1031.7776561006904,None,,,,,,,,,,,,,,,,,,,,,,,,,,,,,,58ND,001,2023_Apr_26_1747,ExactRep-v3-final,2021.2.3,60.03424340180482,
,,,,,,,,23,0,23,0,,,,,,,,,,,,,,,,,,,,,,,,,,,,,,,,,,,,,,,,,,,,,,,,,,,,,1036.2986837001517,None,,,,,,,,,,,,,,,,,,,,,,,,,,,,,,,,,,,form,91,24,aloud,blue,1034.2850596997887,None,None,1034.2850596997887,None,,,,,,,,,,,,,,,,,,,,,,,,,,,,,,58ND,001,2023_Apr_26_1747,ExactRep-v3-final,2021.2.3,60.03424340180482,
,,,,,,,,24,0,24,0,,,,,,,,,,,,,,,,,,,,,,,,,,,,,,,,,,,,,,,,,,,,,,,,,,,,,1038.8022428005934,None,,,,,,,,,,,,,,,,,,,,,,,,,,,,,,,,,,,meat,25,25,sing,red,1036.8001299006864,None,None,1036.8001299006864,None,,,,,,,,,,,,,,,,,,,,,,,,,,,,,,58ND,001,2023_Apr_26_1747,ExactRep-v3-final,2021.2.3,60.03424340180482,
,,,,,,,,25,0,25,0,,,,,,,,,,,,,,,,,,,,,,,,,,,,,,,,,,,,,,,,,,,,,,,,,,,,,1041.3036775002256,None,,,,,,,,,,,,,,,,,,,,,,,,,,,,,,,,,,,cost,73,26,silent,white,1039.3035967005417,None,None,1039.3035967005417,None,,,,,,,,,,,,,,,,,,,,,,,,,,,,,,58ND,001,2023_Apr_26_1747,ExactRep-v3-final,2021.2.3,60.03424340180482,
,,,,,,,,26,0,26,0,,,,,,,,,,,,,,,,,,,,,,,,,,,,,,,,,,,,,,,,,,,,,,,,,,,,,1043.8229370005429,None,,,,,,,,,,,,,,,,,,,,,,,,,,,,,,,,,,,honour,80,27,aloud,blue,1041.808836900629,None,None,1041.808836900629,None,,,,,,,,,,,,,,,,,,,,,,,,,,,,,,58ND,001,2023_Apr_26_1747,ExactRep-v3-final,2021.2.3,60.03424340180482,
,,,,,,,,27,0,27,0,,,,,,,,,,,,,,,,,,,,,,,,,,,,,,,,,,,,,,,,,,,,,,,,,,,,,1046.3422738006338,None,,,,,,,,,,,,,,,,,,,,,,,,,,,,,,,,,,,camp,33,28,sing,red,1044.3296070005745,None,None,1044.3296070005745,None,,,,,,,,,,,,,,,,,,,,,,,,,,,,,,58ND,001,2023_Apr_26_1747,ExactRep-v3-final,2021.2.3,60.03424340180482,
,,,,,,,,28,0,28,0,,,,,,,,,,,,,,,,,,,,,,,,,,,,,,,,,,,,,,,,,,,,,,,,,,,,,1048.8612973000854,None,,,,,,,,,,,,,,,,,,,,,,,,,,,,,,,,,,,volume,81,29,aloud,blue,1046.853943400085,None,None,1046.853943400085,None,,,,,,,,,,,,,,,,,,,,,,,,,,,,,,58ND,001,2023_Apr_26_1747,ExactRep-v3-final,2021.2.3,60.03424340180482,
,,,,,,,,29,0,29,0,,,,,,,,,,,,,,,,,,,,,,,,,,,,,,,,,,,,,,,,,,,,,,,,,,,,,1051.3639344004914,None,,,,,,,,,,,,,,,,,,,,,,,,,,,,,,,,,,,thought,118,30,aloud,blue,1049.3642747998238,None,None,1049.3642747998238,None,,,,,,,,,,,,,,,,,,,,,,,,,,,,,,58ND,001,2023_Apr_26_1747,ExactRep-v3-final,2021.2.3,60.03424340180482,
,,,,,,,,30,0,30,0,,,,,,,,,,,,,,,,,,,,,,,,,,,,,,,,,,,,,,,,,,,,,,,,,,,,,1053.8664429998025,None,,,,,,,,,,,,,,,,,,,,,,,,,,,,,,,,,,,shame,107,31,aloud,blue,1051.864357800223,None,None,1051.864357800223,None,,,,,,,,,,,,,,,,,,,,,,,,,,,,,,58ND,001,2023_Apr_26_1747,ExactRep-v3-final,2021.2.3,60.03424340180482,
,,,,,,,,31,0,31,0,,,,,,,,,,,,,,,,,,,,,,,,,,,,,,,,,,,,,,,,,,,,,,,,,,,,,1056.3687920002267,None,,,,,,,,,,,,,,,,,,,,,,,,,,,,,,,,,,,tree,111,32,aloud,blue,1054.3669336000457,None,None,1054.3669336000457,None,,,,,,,,,,,,,,,,,,,,,,,,,,,,,,58ND,001,2023_Apr_26_1747,ExactRep-v3-final,2021.2.3,60.03424340180482,
,,,,,,,,32,0,32,0,,,,,,,,,,,,,,,,,,,,,,,,,,,,,,,,,,,,,,,,,,,,,,,,,,,,,1058.8714075004682,None,,,,,,,,,,,,,,,,,,,,,,,,,,,,,,,,,,,cat,104,33,aloud,blue,1056.8696819003671,None,None,1056.8696819003671,None,,,,,,,,,,,,,,,,,,,,,,,,,,,,,,58ND,001,2023_Apr_26_1747,ExactRep-v3-final,2021.2.3,60.03424340180482,
,,,,,,,,33,0,33,0,,,,,,,,,,,,,,,,,,,,,,,,,,,,,,,,,,,,,,,,,,,,,,,,,,,,,1061.373902999796,None,,,,,,,,,,,,,,,,,,,,,,,,,,,,,,,,,,,moral,46,34,silent,white,1059.371779200621,None,None,1059.371779200621,None,,,,,,,,,,,,,,,,,,,,,,,,,,,,,,58ND,001,2023_Apr_26_1747,ExactRep-v3-final,2021.2.3,60.03424340180482,
,,,,,,,,34,0,34,0,,,,,,,,,,,,,,,,,,,,,,,,,,,,,,,,,,,,,,,,,,,,,,,,,,,,,1063.8932359004393,None,,,,,,,,,,,,,,,,,,,,,,,,,,,,,,,,,,,clock,17,35,sing,red,1061.8785727005452,None,None,1061.8785727005452,None,,,,,,,,,,,,,,,,,,,,,,,,,,,,,,58ND,001,2023_Apr_26_1747,ExactRep-v3-final,2021.2.3,60.03424340180482,
,,,,,,,,35,0,35,0,,,,,,,,,,,,,,,,,,,,,,,,,,,,,,,,,,,,,,,,,,,,,,,,,,,,,1066.39548380021,None,,,,,,,,,,,,,,,,,,,,,,,,,,,,,,,,,,,cabin,49,36,silent,white,1064.3936908999458,None,None,1064.3936908999458,None,,,,,,,,,,,,,,,,,,,,,,,,,,,,,,58ND,001,2023_Apr_26_1747,ExactRep-v3-final,2021.2.3,60.03424340180482,
,,,,,,,,36,0,36,0,,,,,,,,,,,,,,,,,,,,,,,,,,,,,,,,,,,,,,,,,,,,,,,,,,,,,1068.9146512998268,None,,,,,,,,,,,,,,,,,,,,,,,,,,,,,,,,,,,lake,114,37,aloud,blue,1066.8995643006638,None,None,1066.8995643006638,None,,,,,,,,,,,,,,,,,,,,,,,,,,,,,,58ND,001,2023_Apr_26_1747,ExactRep-v3-final,2021.2.3,60.03424340180482,
,,,,,,,,37,0,37,0,,,,,,,,,,,,,,,,,,,,,,,,,,,,,,,,,,,,,,,,,,,,,,,,,,,,,1071.4338161004707,None,,,,,,,,,,,,,,,,,,,,,,,,,,,,,,,,,,,party,85,38,aloud,blue,1069.418687400408,None,None,1069.418687400408,None,,,,,,,,,,,,,,,,,,,,,,,,,,,,,,58ND,001,2023_Apr_26_1747,ExactRep-v3-final,2021.2.3,60.03424340180482,
,,,,,,,,38,0,38,0,,,,,,,,,,,,,,,,,,,,,,,,,,,,,,,,,,,,,,,,,,,,,,,,,,,,,1073.9365231003612,None,,,,,,,,,,,,,,,,,,,,,,,,,,,,,,,,,,,speech,108,39,aloud,blue,1071.9366464000195,None,None,1071.9366464000195,None,,,,,,,,,,,,,,,,,,,,,,,,,,,,,,58ND,001,2023_Apr_26_1747,ExactRep-v3-final,2021.2.3,60.03424340180482,
,,,,,,,,39,0,39,0,,,,,,,,,,,,,,,,,,,,,,,,,,,,,,,,,,,,,,,,,,,,,,,,,,,,,1076.4555267002434,None,,,,,,,,,,,,,,,,,,,,,,,,,,,,,,,,,,,world,26,40,sing,red,1074.4507063003257,None,None,1074.4507063003257,None,,,,,,,,,,,,,,,,,,,,,,,,,,,,,,58ND,001,2023_Apr_26_1747,ExactRep-v3-final,2021.2.3,60.03424340180482,
,,,,,,,,40,0,40,0,,,,,,,,,,,,,,,,,,,,,,,,,,,,,,,,,,,,,,,,,,,,,,,,,,,,,1078.9579851003364,None,,,,,,,,,,,,,,,,,,,,,,,,,,,,,,,,,,,table,48,41,silent,white,1076.9560433998704,None,None,1076.9560433998704,None,,,,,,,,,,,,,,,,,,,,,,,,,,,,,,58ND,001,2023_Apr_26_1747,ExactRep-v3-final,2021.2.3,60.03424340180482,
,,,,,,,,41,0,41,0,,,,,,,,,,,,,,,,,,,,,,,,,,,,,,,,,,,,,,,,,,,,,,,,,,,,,1081.477443200536,None,,,,,,,,,,,,,,,,,,,,,,,,,,,,,,,,,,,corn,13,42,sing,red,1079.4620281001553,None,None,1079.4620281001553,None,,,,,,,,,,,,,,,,,,,,,,,,,,,,,,58ND,001,2023_Apr_26_1747,ExactRep-v3-final,2021.2.3,60.03424340180482,
,,,,,,,,42,0,42,0,,,,,,,,,,,,,,,,,,,,,,,,,,,,,,,,,,,,,,,,,,,,,,,,,,,,,1083.9965952001512,None,,,,,,,,,,,,,,,,,,,,,,,,,,,,,,,,,,,storm,64,43,silent,white,1081.981713999994,None,None,1081.981713999994,None,,,,,,,,,,,,,,,,,,,,,,,,,,,,,,58ND,001,2023_Apr_26_1747,ExactRep-v3-final,2021.2.3,60.03424340180482,
,,,,,,,,43,0,43,0,,,,,,,,,,,,,,,,,,,,,,,,,,,,,,,,,,,,,,,,,,,,,,,,,,,,,1086.4990768004209,None,,,,,,,,,,,,,,,,,,,,,,,,,,,,,,,,,,,skin,69,44,silent,white,1084.4984474005178,None,None,1084.4984474005178,None,,,,,,,,,,,,,,,,,,,,,,,,,,,,,,58ND,001,2023_Apr_26_1747,ExactRep-v3-final,2021.2.3,60.03424340180482,
,,,,,,,,44,0,44,0,,,,,,,,,,,,,,,,,,,,,,,,,,,,,,,,,,,,,,,,,,,,,,,,,,,,,1089.0182739999145,None,,,,,,,,,,,,,,,,,,,,,,,,,,,,,,,,,,,anger,58,45,silent,white,1087.0026770001277,None,None,1087.0026770001277,None,,,,,,,,,,,,,,,,,,,,,,,,,,,,,,58ND,001,2023_Apr_26_1747,ExactRep-v3-final,2021.2.3,60.03424340180482,
,,,,,,,,45,0,45,0,,,,,,,,,,,,,,,,,,,,,,,,,,,,,,,,,,,,,,,,,,,,,,,,,,,,,1091.5207773000002,None,,,,,,,,,,,,,,,,,,,,,,,,,,,,,,,,,,,woman,38,46,sing,red,1089.5186924003065,None,None,1089.5186924003065,None,,,,,,,,,,,,,,,,,,,,,,,,,,,,,,58ND,001,2023_Apr_26_1747,ExactRep-v3-final,2021.2.3,60.03424340180482,
,,,,,,,,46,0,46,0,,,,,,,,,,,,,,,,,,,,,,,,,,,,,,,,,,,,,,,,,,,,,,,,,,,,,1094.0230290004984,None,,,,,,,,,,,,,,,,,,,,,,,,,,,,,,,,,,,city,99,47,aloud,blue,1092.0235205003992,None,None,1092.0235205003992,None,,,,,,,,,,,,,,,,,,,,,,,,,,,,,,58ND,001,2023_Apr_26_1747,ExactRep-v3-final,2021.2.3,60.03424340180482,
,,,,,,,,47,0,47,0,,,,,,,,,,,,,,,,,,,,,,,,,,,,,,,,,,,,,,,,,,,,,,,,,,,,,1096.5257328003645,None,,,,,,,,,,,,,,,,,,,,,,,,,,,,,,,,,,,charm,15,48,sing,red,1094.524446000345,None,None,1094.524446000345,None,,,,,,,,,,,,,,,,,,,,,,,,,,,,,,58ND,001,2023_Apr_26_1747,ExactRep-v3-final,2021.2.3,60.03424340180482,
,,,,,,,,48,0,48,0,,,,,,,,,,,,,,,,,,,,,,,,,,,,,,,,,,,,,,,,,,,,,,,,,,,,,1099.028245500289,None,,,,,,,,,,,,,,,,,,,,,,,,,,,,,,,,,,,product,72,49,silent,white,1097.0292827002704,None,None,1097.0292827002704,None,,,,,,,,,,,,,,,,,,,,,,,,,,,,,,58ND,001,2023_Apr_26_1747,ExactRep-v3-final,2021.2.3,60.03424340180482,
,,,,,,,,49,0,49,0,,,,,,,,,,,,,,,,,,,,,,,,,,,,,,,,,,,,,,,,,,,,,,,,,,,,,1101.530731400475,None,,,,,,,,,,,,,,,,,,,,,,,,,,,,,,,,,,,queen,12,50,sing,red,1099.5301601001993,None,None,1099.5301601001993,None,,,,,,,,,,,,,,,,,,,,,,,,,,,,,,58ND,001,2023_Apr_26_1747,ExactRep-v3-final,2021.2.3,60.03424340180482,
,,,,,,,,50,0,50,0,,,,,,,,,,,,,,,,,,,,,,,,,,,,,,,,,,,,,,,,,,,,,,,,,,,,,1104.050157399848,None,,,,,,,,,,,,,,,,,,,,,,,,,,,,,,,,,,,temple,54,51,silent,white,1102.0356382001191,None,None,1102.0356382001191,None,,,,,,,,,,,,,,,,,,,,,,,,,,,,,,58ND,001,2023_Apr_26_1747,ExactRep-v3-final,2021.2.3,60.03424340180482,
,,,,,,,,51,0,51,0,,,,,,,,,,,,,,,,,,,,,,,,,,,,,,,,,,,,,,,,,,,,,,,,,,,,,1106.552512000315,None,,,,,,,,,,,,,,,,,,,,,,,,,,,,,,,,,,,engine,117,52,aloud,blue,1104.5503642000258,None,None,1104.5503642000258,None,,,,,,,,,,,,,,,,,,,,,,,,,,,,,,58ND,001,2023_Apr_26_1747,ExactRep-v3-final,2021.2.3,60.03424340180482,
,,,,,,,,52,0,52,0,,,,,,,,,,,,,,,,,,,,,,,,,,,,,,,,,,,,,,,,,,,,,,,,,,,,,1109.0714440001175,None,,,,,,,,,,,,,,,,,,,,,,,,,,,,,,,,,,,student,65,53,silent,white,1107.059657100588,None,None,1107.059657100588,None,,,,,,,,,,,,,,,,,,,,,,,,,,,,,,58ND,001,2023_Apr_26_1747,ExactRep-v3-final,2021.2.3,60.03424340180482,
,,,,,,,,53,0,53,0,,,,,,,,,,,,,,,,,,,,,,,,,,,,,,,,,,,,,,,,,,,,,,,,,,,,,1111.5740250004455,None,,,,,,,,,,,,,,,,,,,,,,,,,,,,,,,,,,,lord,59,54,silent,white,1109.5720111997798,None,None,1109.5720111997798,None,,,,,,,,,,,,,,,,,,,,,,,,,,,,,,58ND,001,2023_Apr_26_1747,ExactRep-v3-final,2021.2.3,60.03424340180482,
,,,,,,,,54,0,54,0,,,,,,,,,,,,,,,,,,,,,,,,,,,,,,,,,,,,,,,,,,,,,,,,,,,,,1114.0934568000957,None,,,,,,,,,,,,,,,,,,,,,,,,,,,,,,,,,,,fur,100,55,aloud,blue,1112.0832620998845,None,None,1112.0832620998845,None,,,,,,,,,,,,,,,,,,,,,,,,,,,,,,58ND,001,2023_Apr_26_1747,ExactRep-v3-final,2021.2.3,60.03424340180482,
,,,,,,,,55,0,55,0,,,,,,,,,,,,,,,,,,,,,,,,,,,,,,,,,,,,,,,,,,,,,,,,,,,,,1116.5958651006222,None,,,,,,,,,,,,,,,,,,,,,,,,,,,,,,,,,,,pole,103,56,aloud,blue,1114.5937267998233,None,None,1114.5937267998233,None,,,,,,,,,,,,,,,,,,,,,,,,,,,,,,58ND,001,2023_Apr_26_1747,ExactRep-v3-final,2021.2.3,60.03424340180482,
,,,,,,,,56,0,56,0,,,,,,,,,,,,,,,,,,,,,,,,,,,,,,,,,,,,,,,,,,,,,,,,,,,,,1119.0982087003067,None,,,,,,,,,,,,,,,,,,,,,,,,,,,,,,,,,,,ship,7,57,sing,red,1117.0962319001555,None,None,1117.0962319001555,None,,,,,,,,,,,,,,,,,,,,,,,,,,,,,,58ND,001,2023_Apr_26_1747,ExactRep-v3-final,2021.2.3,60.03424340180482,
,,,,,,,,57,0,57,0,,,,,,,,,,,,,,,,,,,,,,,,,,,,,,,,,,,,,,,,,,,,,,,,,,,,,1121.6008509006351,None,,,,,,,,,,,,,,,,,,,,,,,,,,,,,,,,,,,prison,29,58,sing,red,1119.600337699987,None,None,1119.600337699987,None,,,,,,,,,,,,,,,,,,,,,,,,,,,,,,58ND,001,2023_Apr_26_1747,ExactRep-v3-final,2021.2.3,60.03424340180482,
,,,,,,,,58,0,58,0,,,,,,,,,,,,,,,,,,,,,,,,,,,,,,,,,,,,,,,,,,,,,,,,,,,,,1124.1033982001245,None,,,,,,,,,,,,,,,,,,,,,,,,,,,,,,,,,,,sky,2,59,sing,red,1122.10305920057,None,None,1122.10305920057,None,,,,,,,,,,,,,,,,,,,,,,,,,,,,,,58ND,001,2023_Apr_26_1747,ExactRep-v3-final,2021.2.3,60.03424340180482,
,,,,,,,,59,0,59,0,,,,,,,,,,,,,,,,,,,,,,,,,,,,,,,,,,,,,,,,,,,,,,,,,,,,,1126.622574600391,None,,,,,,,,,,,,,,,,,,,,,,,,,,,,,,,,,,,river,63,60,silent,white,1124.6139267999679,None,None,1124.6139267999679,None,,,,,,,,,,,,,,,,,,,,,,,,,,,,,,58ND,001,2023_Apr_26_1747,ExactRep-v3-final,2021.2.3,60.03424340180482,
,,,,,,,,60,0,60,0,,,,,,,,,,,,,,,,,,,,,,,,,,,,,,,,,,,,,,,,,,,,,,,,,,,,,1129.1250755004585,None,,,,,,,,,,,,,,,,,,,,,,,,,,,,,,,,,,,flower,98,61,aloud,blue,1127.1230496000499,None,None,1127.1230496000499,None,,,,,,,,,,,,,,,,,,,,,,,,,,,,,,58ND,001,2023_Apr_26_1747,ExactRep-v3-final,2021.2.3,60.03424340180482,
,,,,,,,,61,0,61,0,,,,,,,,,,,,,,,,,,,,,,,,,,,,,,,,,,,,,,,,,,,,,,,,,,,,,1131.6440611006692,None,,,,,,,,,,,,,,,,,,,,,,,,,,,,,,,,,,,winter,116,62,aloud,blue,1129.6368998000398,None,None,1129.6368998000398,None,,,,,,,,,,,,,,,,,,,,,,,,,,,,,,58ND,001,2023_Apr_26_1747,ExactRep-v3-final,2021.2.3,60.03424340180482,
,,,,,,,,62,0,62,0,,,,,,,,,,,,,,,,,,,,,,,,,,,,,,,,,,,,,,,,,,,,,,,,,,,,,1134.146798000671,None,,,,,,,,,,,,,,,,,,,,,,,,,,,,,,,,,,,army,62,63,silent,white,1132.147416099906,None,None,1132.147416099906,None,,,,,,,,,,,,,,,,,,,,,,,,,,,,,,58ND,001,2023_Apr_26_1747,ExactRep-v3-final,2021.2.3,60.03424340180482,
,,,,,,,,63,0,63,0,,,,,,,,,,,,,,,,,,,,,,,,,,,,,,,,,,,,,,,,,,,,,,,,,,,,,1136.6659826003015,None,,,,,,,,,,,,,,,,,,,,,,,,,,,,,,,,,,,nail,115,64,aloud,blue,1134.650551199913,None,None,1134.650551199913,None,,,,,,,,,,,,,,,,,,,,,,,,,,,,,,58ND,001,2023_Apr_26_1747,ExactRep-v3-final,2021.2.3,60.03424340180482,
,,,,,,,,64,0,64,0,,,,,,,,,,,,,,,,,,,,,,,,,,,,,,,,,,,,,,,,,,,,,,,,,,,,,1139.1684573004022,None,,,,,,,,,,,,,,,,,,,,,,,,,,,,,,,,,,,dollar,8,65,sing,red,1137.1663238005713,None,None,1137.1663238005713,None,,,,,,,,,,,,,,,,,,,,,,,,,,,,,,58ND,001,2023_Apr_26_1747,ExactRep-v3-final,2021.2.3,60.03424340180482,
,,,,,,,,65,0,65,0,,,,,,,,,,,,,,,,,,,,,,,,,,,,,,,,,,,,,,,,,,,,,,,,,,,,,1141.6874168999493,None,,,,,,,,,,,,,,,,,,,,,,,,,,,,,,,,,,,arm,0,66,sing,red,1139.6722295004874,None,None,1139.6722295004874,None,,,,,,,,,,,,,,,,,,,,,,,,,,,,,,58ND,001,2023_Apr_26_1747,ExactRep-v3-final,2021.2.3,60.03424340180482,
,,,,,,,,66,0,66,0,,,,,,,,,,,,,,,,,,,,,,,,,,,,,,,,,,,,,,,,,,,,,,,,,,,,,1144.2068122001365,None,,,,,,,,,,,,,,,,,,,,,,,,,,,,,,,,,,,cotton,66,67,silent,white,1142.1958712004125,None,None,1142.1958712004125,None,,,,,,,,,,,,,,,,,,,,,,,,,,,,,,58ND,001,2023_Apr_26_1747,ExactRep-v3-final,2021.2.3,60.03424340180482,
,,,,,,,,67,0,67,0,,,,,,,,,,,,,,,,,,,,,,,,,,,,,,,,,,,,,,,,,,,,,,,,,,,,,1146.7093005003408,None,,,,,,,,,,,,,,,,,,,,,,,,,,,,,,,,,,,glory,102,68,aloud,blue,1144.7072760006413,None,None,1144.7072760006413,None,,,,,,,,,,,,,,,,,,,,,,,,,,,,,,58ND,001,2023_Apr_26_1747,ExactRep-v3-final,2021.2.3,60.03424340180482,
,,,,,,,,68,0,68,0,,,,,,,,,,,,,,,,,,,,,,,,,,,,,,,,,,,,,,,,,,,,,,,,,,,,,1149.2284754002467,None,,,,,,,,,,,,,,,,,,,,,,,,,,,,,,,,,,,potato,75,69,silent,white,1147.2139082998037,None,None,1147.2139082998037,None,,,,,,,,,,,,,,,,,,,,,,,,,,,,,,58ND,001,2023_Apr_26_1747,ExactRep-v3-final,2021.2.3,60.03424340180482,
,,,,,,,,69,0,69,0,,,,,,,,,,,,,,,,,,,,,,,,,,,,,,,,,,,,,,,,,,,,,,,,,,,,,1151.7308756997809,None,,,,,,,,,,,,,,,,,,,,,,,,,,,,,,,,,,,square,5,70,sing,red,1149.7288875002414,None,None,1149.7288875002414,None,,,,,,,,,,,,,,,,,,,,,,,,,,,,,,58ND,001,2023_Apr_26_1747,ExactRep-v3-final,2021.2.3,60.03424340180482,
,,,,,,,,70,0,70,0,,,,,,,,,,,,,,,,,,,,,,,,,,,,,,,,,,,,,,,,,,,,,,,,,,,,,1154.2500266004354,None,,,,,,,,,,,,,,,,,,,,,,,,,,,,,,,,,,,mind,77,71,silent,white,1152.2357262000442,None,None,1152.2357262000442,None,,,,,,,,,,,,,,,,,,,,,,,,,,,,,,58ND,001,2023_Apr_26_1747,ExactRep-v3-final,2021.2.3,60.03424340180482,
,,,,,,,,71,0,71,0,,,,,,,,,,,,,,,,,,,,,,,,,,,,,,,,,,,,,,,,,,,,,,,,,,,,,1156.752722600475,None,,,,,,,,,,,,,,,,,,,,,,,,,,,,,,,,,,,coin,37,72,sing,red,1154.750495100394,None,None,1154.750495100394,None,,,,,,,,,,,,,,,,,,,,,,,,,,,,,,58ND,001,2023_Apr_26_1747,ExactRep-v3-final,2021.2.3,60.03424340180482,
,,,,,,,,72,0,72,0,,,,,,,,,,,,,,,,,,,,,,,,,,,,,,,,,,,,,,,,,,,,,,,,,,,,,1159.2718377998099,None,,,,,,,,,,,,,,,,,,,,,,,,,,,,,,,,,,,horse,24,73,sing,red,1157.2565069999546,None,None,1157.2565069999546,None,,,,,,,,,,,,,,,,,,,,,,,,,,,,,,58ND,001,2023_Apr_26_1747,ExactRep-v3-final,2021.2.3,60.03424340180482,
,,,,,,,,73,0,73,0,,,,,,,,,,,,,,,,,,,,,,,,,,,,,,,,,,,,,,,,,,,,,,,,,,,,,1161.7908789003268,None,,,,,,,,,,,,,,,,,,,,,,,,,,,,,,,,,,,moment,42,74,silent,white,1159.777975000441,None,None,1159.777975000441,None,,,,,,,,,,,,,,,,,,,,,,,,,,,,,,58ND,001,2023_Apr_26_1747,ExactRep-v3-final,2021.2.3,60.03424340180482,
,,,,,,,,74,0,74,0,,,,,,,,,,,,,,,,,,,,,,,,,,,,,,,,,,,,,,,,,,,,,,,,,,,,,1164.2935843998566,None,,,,,,,,,,,,,,,,,,,,,,,,,,,,,,,,,,,coast,88,75,aloud,blue,1162.2927817003801,None,None,1162.2927817003801,None,,,,,,,,,,,,,,,,,,,,,,,,,,,,,,58ND,001,2023_Apr_26_1747,ExactRep-v3-final,2021.2.3,60.03424340180482,
,,,,,,,,75,0,75,0,,,,,,,,,,,,,,,,,,,,,,,,,,,,,,,,,,,,,,,,,,,,,,,,,,,,,1166.812785600312,None,,,,,,,,,,,,,,,,,,,,,,,,,,,,,,,,,,,judge,23,76,sing,red,1164.8038359005004,None,None,1164.8038359005004,None,,,,,,,,,,,,,,,,,,,,,,,,,,,,,,58ND,001,2023_Apr_26_1747,ExactRep-v3-final,2021.2.3,60.03424340180482,
,,,,,,,,76,0,76,0,,,,,,,,,,,,,,,,,,,,,,,,,,,,,,,,,,,,,,,,,,,,,,,,,,,,,1169.3150757998228,None,,,,,,,,,,,,,,,,,,,,,,,,,,,,,,,,,,,valley,79,77,sing,red,1167.314073599875,None,None,1167.314073599875,None,,,,,,,,,,,,,,,,,,,,,,,,,,,,,,58ND,001,2023_Apr_26_1747,ExactRep-v3-final,2021.2.3,60.03424340180482,
,,,,,,,,77,0,77,0,,,,,,,,,,,,,,,,,,,,,,,,,,,,,,,,,,,,,,,,,,,,,,,,,,,,,1171.8175673000515,None,,,,,,,,,,,,,,,,,,,,,,,,,,,,,,,,,,,money,21,78,sing,red,1169.8155330000445,None,None,1169.8155330000445,None,,,,,,,,,,,,,,,,,,,,,,,,,,,,,,58ND,001,2023_Apr_26_1747,ExactRep-v3-final,2021.2.3,60.03424340180482,
,,,,,,,,78,0,78,0,,,,,,,,,,,,,,,,,,,,,,,,,,,,,,,,,,,,,,,,,,,,,,,,,,,,,1174.3369149006903,None,,,,,,,,,,,,,,,,,,,,,,,,,,,,,,,,,,,effort,94,79,aloud,blue,1172.3275944003835,None,None,1172.3275944003835,None,,,,,,,,,,,,,,,,,,,,,,,,,,,,,,58ND,001,2023_Apr_26_1747,ExactRep-v3-final,2021.2.3,60.03424340180482,
,,,,,,,,79,0,79,0,,,,,,,,,,,,,,,,,,,,,,,,,,,,,,,,,,,,,,,,,,,,,,,,,,,,,1176.83952639997,None,,,,,,,,,,,,,,,,,,,,,,,,,,,,,,,,,,,pupil,34,80,sing,red,1174.838505600579,None,None,1174.838505600579,None,,,,,,,,,,,,,,,,,,,,,,,,,,,,,,58ND,001,2023_Apr_26_1747,ExactRep-v3-final,2021.2.3,60.03424340180482,
,,,,,,,,80,0,80,0,,,,,,,,,,,,,,,,,,,,,,,,,,,,,,,,,,,,,,,,,,,,,,,,,,,,,1179.341986199841,None,,,,,,,,,,,,,,,,,,,,,,,,,,,,,,,,,,,hide,10,81,sing,red,1177.340938700363,None,None,1177.340938700363,None,,,,,,,,,,,,,,,,,,,,,,,,,,,,,,58ND,001,2023_Apr_26_1747,ExactRep-v3-final,2021.2.3,60.03424340180482,
,,,,,,,,81,0,81,0,,,,,,,,,,,,,,,,,,,,,,,,,,,,,,,,,,,,,,,,,,,,,,,,,,,,,1181.861155600287,None,,,,,,,,,,,,,,,,,,,,,,,,,,,,,,,,,,,death,61,82,silent,white,1179.8489720001817,None,None,1179.8489720001817,None,,,,,,,,,,,,,,,,,,,,,,,,,,,,,,58ND,001,2023_Apr_26_1747,ExactRep-v3-final,2021.2.3,60.03424340180482,
,,,,,,,,82,0,82,0,,,,,,,,,,,,,,,,,,,,,,,,,,,,,,,,,,,,,,,,,,,,,,,,,,,,,1184.363447099924,None,,,,,,,,,,,,,,,,,,,,,,,,,,,,,,,,,,,fortune,105,83,aloud,blue,1182.363644500263,None,None,1182.363644500263,None,,,,,,,,,,,,,,,,,,,,,,,,,,,,,,58ND,001,2023_Apr_26_1747,ExactRep-v3-final,2021.2.3,60.03424340180482,
,,,,,,,,83,0,83,0,,,,,,,,,,,,,,,,,,,,,,,,,,,,,,,,,,,,,,,,,,,,,,,,,,,,,1186.8826640006155,None,,,,,,,,,,,,,,,,,,,,,,,,,,,,,,,,,,,crime,16,84,sing,red,1184.872602100484,None,None,1184.872602100484,None,,,,,,,,,,,,,,,,,,,,,,,,,,,,,,58ND,001,2023_Apr_26_1747,ExactRep-v3-final,2021.2.3,60.03424340180482,
,,,,,,,,84,0,84,0,,,,,,,,,,,,,,,,,,,,,,,,,,,,,,,,,,,,,,,,,,,,,,,,,,,,,1189.3853048002347,None,,,,,,,,,,,,,,,,,,,,,,,,,,,,,,,,,,,weapon,53,85,silent,white,1187.3832413004711,None,None,1187.3832413004711,None,,,,,,,,,,,,,,,,,,,,,,,,,,,,,,58ND,001,2023_Apr_26_1747,ExactRep-v3-final,2021.2.3,60.03424340180482,
,,,,,,,,85,0,85,0,,,,,,,,,,,,,,,,,,,,,,,,,,,,,,,,,,,,,,,,,,,,,,,,,,,,,1191.904337800108,None,,,,,,,,,,,,,,,,,,,,,,,,,,,,,,,,,,,doll,74,86,silent,white,1189.8902106005698,None,None,1189.8902106005698,None,,,,,,,,,,,,,,,,,,,,,,,,,,,,,,58ND,001,2023_Apr_26_1747,ExactRep-v3-final,2021.2.3,60.03424340180482,
,,,,,,,,86,0,86,0,,,,,,,,,,,,,,,,,,,,,,,,,,,,,,,,,,,,,,,,,,,,,,,,,,,,,1194.407076000236,None,,,,,,,,,,,,,,,,,,,,,,,,,,,,,,,,,,,vision,22,87,sing,red,1192.404941400513,None,None,1192.404941400513,None,,,,,,,,,,,,,,,,,,,,,,,,,,,,,,58ND,001,2023_Apr_26_1747,ExactRep-v3-final,2021.2.3,60.03424340180482,
,,,,,,,,87,0,87,0,,,,,,,,,,,,,,,,,,,,,,,,,,,,,,,,,,,,,,,,,,,,,,,,,,,,,1196.9260047003627,None,,,,,,,,,,,,,,,,,,,,,,,,,,,,,,,,,,,lip,39,88,silent,white,1194.912348500453,None,None,1194.912348500453,None,,,,,,,,,,,,,,,,,,,,,,,,,,,,,,58ND,001,2023_Apr_26_1747,ExactRep-v3-final,2021.2.3,60.03424340180482,
,,,,,,,,88,0,88,0,,,,,,,,,,,,,,,,,,,,,,,,,,,,,,,,,,,,,,,,,,,,,,,,,,,,,1199.428745499812,None,,,,,,,,,,,,,,,,,,,,,,,,,,,,,,,,,,,blood,11,89,sing,red,1197.42914030049,None,None,1197.42914030049,None,,,,,,,,,,,,,,,,,,,,,,,,,,,,,,58ND,001,2023_Apr_26_1747,ExactRep-v3-final,2021.2.3,60.03424340180482,
,,,,,,,,89,0,89,0,,,,,,,,,,,,,,,,,,,,,,,,,,,,,,,,,,,,,,,,,,,,,,,,,,,,,1201.9312522001565,None,,,,,,,,,,,,,,,,,,,,,,,,,,,,,,,,,,,theory,67,90,silent,white,1199.9304828001186,None,None,1199.9304828001186,None,,,,,,,,,,,,,,,,,,,,,,,,,,,,,,58ND,001,2023_Apr_26_1747,ExactRep-v3-final,2021.2.3,60.03424340180482,
,,,,,,,,90,0,90,0,,,,,,,,,,,,,,,,,,,,,,,,,,,,,,,,,,,,,,,,,,,,,,,,,,,,,1204.4336068006232,None,,,,,,,,,,,,,,,,,,,,,,,,,,,,,,,,,,,star,93,91,aloud,blue,1202.4337747003883,None,None,1202.4337747003883,None,,,,,,,,,,,,,,,,,,,,,,,,,,,,,,58ND,001,2023_Apr_26_1747,ExactRep-v3-final,2021.2.3,60.03424340180482,
,,,,,,,,91,0,91,0,,,,,,,,,,,,,,,,,,,,,,,,,,,,,,,,,,,,,,,,,,,,,,,,,,,,,1206.9361804006621,None,,,,,,,,,,,,,,,,,,,,,,,,,,,,,,,,,,,bowl,20,92,sing,red,1204.934007000178,None,None,1204.934007000178,None,,,,,,,,,,,,,,,,,,,,,,,,,,,,,,58ND,001,2023_Apr_26_1747,ExactRep-v3-final,2021.2.3,60.03424340180482,
,,,,,,,,92,0,92,0,,,,,,,,,,,,,,,,,,,,,,,,,,,,,,,,,,,,,,,,,,,,,,,,,,,,,1209.4387640003115,None,,,,,,,,,,,,,,,,,,,,,,,,,,,,,,,,,,,pride,87,93,aloud,blue,1207.4382047001272,None,None,1207.4382047001272,None,,,,,,,,,,,,,,,,,,,,,,,,,,,,,,58ND,001,2023_Apr_26_1747,ExactRep-v3-final,2021.2.3,60.03424340180482,
,,,,,,,,93,0,93,0,,,,,,,,,,,,,,,,,,,,,,,,,,,,,,,,,,,,,,,,,,,,,,,,,,,,,1211.9411586001515,None,,,,,,,,,,,,,,,,,,,,,,,,,,,,,,,,,,,custom,56,94,silent,white,1209.9398014005274,None,None,1209.9398014005274,None,,,,,,,,,,,,,,,,,,,,,,,,,,,,,,58ND,001,2023_Apr_26_1747,ExactRep-v3-final,2021.2.3,60.03424340180482,
,,,,,,,,94,0,94,0,,,,,,,,,,,,,,,,,,,,,,,,,,,,,,,,,,,,,,,,,,,,,,,,,,,,,1214.4436862003058,None,,,,,,,,,,,,,,,,,,,,,,,,,,,,,,,,,,,artist,35,95,sing,red,1212.4423158001155,None,None,1212.4423158001155,None,,,,,,,,,,,,,,,,,,,,,,,,,,,,,,58ND,001,2023_Apr_26_1747,ExactRep-v3-final,2021.2.3,60.03424340180482,
,,,,,,,,95,0,95,0,,,,,,,,,,,,,,,,,,,,,,,,,,,,,,,,,,,,,,,,,,,,,,,,,,,,,1216.9639913998544,None,,,,,,,,,,,,,,,,,,,,,,,,,,,,,,,,,,,salary,71,96,silent,white,1214.9480106998235,None,None,1214.9480106998235,None,,,,,,,,,,,,,,,,,,,,,,,,,,,,,,58ND,001,2023_Apr_26_1747,ExactRep-v3-final,2021.2.3,60.03424340180482,
,,,,,,,,96,0,96,0,,,,,,,,,,,,,,,,,,,,,,,,,,,,,,,,,,,,,,,,,,,,,,,,,,,,,1219.4819157002494,None,,,,,,,,,,,,,,,,,,,,,,,,,,,,,,,,,,,opinion,51,97,silent,white,1217.468824500218,None,None,1217.468824500218,None,,,,,,,,,,,,,,,,,,,,,,,,,,,,,,58ND,001,2023_Apr_26_1747,ExactRep-v3-final,2021.2.3,60.03424340180482,
,,,,,,,,97,0,97,0,,,,,,,,,,,,,,,,,,,,,,,,,,,,,,,,,,,,,,,,,,,,,,,,,,,,,1222.0012777000666,None,,,,,,,,,,,,,,,,,,,,,,,,,,,,,,,,,,,rock,31,98,sing,red,1219.9898819997907,None,None,1219.9898819997907,None,,,,,,,,,,,,,,,,,,,,,,,,,,,,,,58ND,001,2023_Apr_26_1747,ExactRep-v3-final,2021.2.3,60.03424340180482,
,,,,,,,,98,0,98,0,,,,,,,,,,,,,,,,,,,,,,,,,,,,,,,,,,,,,,,,,,,,,,,,,,,,,1224.5204568002373,None,,,,,,,,,,,,,,,,,,,,,,,,,,,,,,,,,,,beast,28,99,sing,red,1222.5048406999558,None,None,1222.5048406999558,None,,,,,,,,,,,,,,,,,,,,,,,,,,,,,,58ND,001,2023_Apr_26_1747,ExactRep-v3-final,2021.2.3,60.03424340180482,
,,,,,,,,99,0,99,0,,,,,,,,,,,,,,,,,,,,,,,,,,,,,,,,,,,,,,,,,,,,,,,,,,,,,1227.0396669004112,None,,,,,,,,,,,,,,,,,,,,,,,,,,,,,,,,,,,maiden,86,100,aloud,blue,1225.0251919003204,None,None,1225.0251919003204,None,,,,,,,,,,,,,,,,,,,,,,,,,,,,,,58ND,001,2023_Apr_26_1747,ExactRep-v3-final,2021.2.3,60.03424340180482,
,,,,,,,,100,0,100,0,,,,,,,,,,,,,,,,,,,,,,,,,,,,,,,,,,,,,,,,,,,,,,,,,,,,,1229.5586366998032,None,,,,,,,,,,,,,,,,,,,,,,,,,,,,,,,,,,,memory,55,101,silent,white,1227.543789700605,None,None,1227.543789700605,None,,,,,,,,,,,,,,,,,,,,,,,,,,,,,,58ND,001,2023_Apr_26_1747,ExactRep-v3-final,2021.2.3,60.03424340180482,
,,,,,,,,101,0,101,0,,,,,,,,,,,,,,,,,,,,,,,,,,,,,,,,,,,,,,,,,,,,,,,,,,,,,1232.0779905002564,None,,,,,,,,,,,,,,,,,,,,,,,,,,,,,,,,,,,book,47,102,silent,white,1230.0684577003121,None,None,1230.0684577003121,None,,,,,,,,,,,,,,,,,,,,,,,,,,,,,,58ND,001,2023_Apr_26_1747,ExactRep-v3-final,2021.2.3,60.03424340180482,
,,,,,,,,102,0,102,0,,,,,,,,,,,,,,,,,,,,,,,,,,,,,,,,,,,,,,,,,,,,,,,,,,,,,1234.580506999977,None,,,,,,,,,,,,,,,,,,,,,,,,,,,,,,,,,,,car,40,103,silent,white,1232.579615100287,None,None,1232.579615100287,None,,,,,,,,,,,,,,,,,,,,,,,,,,,,,,58ND,001,2023_Apr_26_1747,ExactRep-v3-final,2021.2.3,60.03424340180482,
,,,,,,,,103,0,103,0,,,,,,,,,,,,,,,,,,,,,,,,,,,,,,,,,,,,,,,,,,,,,,,,,,,,,1237.0996884005144,None,,,,,,,,,,,,,,,,,,,,,,,,,,,,,,,,,,,trouble,3,104,sing,red,1235.0841501997784,None,None,1235.0841501997784,None,,,,,,,,,,,,,,,,,,,,,,,,,,,,,,58ND,001,2023_Apr_26_1747,ExactRep-v3-final,2021.2.3,60.03424340180482,
,,,,,,,,104,0,104,0,,,,,,,,,,,,,,,,,,,,,,,,,,,,,,,,,,,,,,,,,,,,,,,,,,,,,1239.6188793005422,None,,,,,,,,,,,,,,,,,,,,,,,,,,,,,,,,,,,person,36,105,sing,red,1237.6035144999623,None,None,1237.6035144999623,None,,,,,,,,,,,,,,,,,,,,,,,,,,,,,,58ND,001,2023_Apr_26_1747,ExactRep-v3-final,2021.2.3,60.03424340180482,
,,,,,,,,105,0,105,0,,,,,,,,,,,,,,,,,,,,,,,,,,,,,,,,,,,,,,,,,,,,,,,,,,,,,1242.1213982999325,None,,,,,,,,,,,,,,,,,,,,,,,,,,,,,,,,,,,street,41,106,silent,white,1240.1215486004949,None,None,1240.1215486004949,None,,,,,,,,,,,,,,,,,,,,,,,,,,,,,,58ND,001,2023_Apr_26_1747,ExactRep-v3-final,2021.2.3,60.03424340180482,
,,,,,,,,106,0,106,0,,,,,,,,,,,,,,,,,,,,,,,,,,,,,,,,,,,,,,,,,,,,,,,,,,,,,1244.640412000008,None,,,,,,,,,,,,,,,,,,,,,,,,,,,,,,,,,,,cattle,45,107,silent,white,1242.6250132005662,None,None,1242.6250132005662,None,,,,,,,,,,,,,,,,,,,,,,,,,,,,,,58ND,001,2023_Apr_26_1747,ExactRep-v3-final,2021.2.3,60.03424340180482,
,,,,,,,,107,0,107,0,,,,,,,,,,,,,,,,,,,,,,,,,,,,,,,,,,,,,,,,,,,,,,,,,,,,,1247.159638499841,None,,,,,,,,,,,,,,,,,,,,,,,,,,,,,,,,,,,shadow,76,108,silent,white,1245.1466851001605,None,None,1245.1466851001605,None,,,,,,,,,,,,,,,,,,,,,,,,,,,,,,58ND,001,2023_Apr_26_1747,ExactRep-v3-final,2021.2.3,60.03424340180482,
,,,,,,,,108,0,108,0,,,,,,,,,,,,,,,,,,,,,,,,,,,,,,,,,,,,,,,,,,,,,,,,,,,,,1249.6623093001544,None,,,,,,,,,,,,,,,,,,,,,,,,,,,,,,,,,,,cash,96,109,aloud,blue,1247.6613875003532,None,None,1247.6613875003532,None,,,,,,,,,,,,,,,,,,,,,,,,,,,,,,58ND,001,2023_Apr_26_1747,ExactRep-v3-final,2021.2.3,60.03424340180482,
,,,,,,,,109,0,109,0,,,,,,,,,,,,,,,,,,,,,,,,,,,,,,,,,,,,,,,,,,,,,,,,,,,,,1252.181451600045,None,,,,,,,,,,,,,,,,,,,,,,,,,,,,,,,,,,,machine,101,110,aloud,blue,1250.1695376001298,None,None,1250.1695376001298,None,,,,,,,,,,,,,,,,,,,,,,,,,,,,,,58ND,001,2023_Apr_26_1747,ExactRep-v3-final,2021.2.3,60.03424340180482,
,,,,,,,,110,0,110,0,,,,,,,,,,,,,,,,,,,,,,,,,,,,,,,,,,,,,,,,,,,,,,,,,,,,,1254.683963900432,None,,,,,,,,,,,,,,,,,,,,,,,,,,,,,,,,,,,apple,52,111,silent,white,1252.683068100363,None,None,1252.683068100363,None,,,,,,,,,,,,,,,,,,,,,,,,,,,,,,58ND,001,2023_Apr_26_1747,ExactRep-v3-final,2021.2.3,60.03424340180482,
,,,,,,,,111,0,111,0,,,,,,,,,,,,,,,,,,,,,,,,,,,,,,,,,,,,,,,,,,,,,,,,,,,,,1257.1863281000406,None,,,,,,,,,,,,,,,,,,,,,,,,,,,,,,,,,,,lad,60,112,silent,white,1255.1868909997866,None,None,1255.1868909997866,None,,,,,,,,,,,,,,,,,,,,,,,,,,,,,,58ND,001,2023_Apr_26_1747,ExactRep-v3-final,2021.2.3,60.03424340180482,
,,,,,,,,112,0,112,0,,,,,,,,,,,,,,,,,,,,,,,,,,,,,,,,,,,,,,,,,,,,,,,,,,,,,1259.6889848997816,None,,,,,,,,,,,,,,,,,,,,,,,,,,,,,,,,,,,breast,109,113,aloud,blue,1257.6867353999987,None,None,1257.6867353999987,None,,,,,,,,,,,,,,,,,,,,,,,,,,,,,,58ND,001,2023_Apr_26_1747,ExactRep-v3-final,2021.2.3,60.03424340180482,
,,,,,,,,113,0,113,0,,,,,,,,,,,,,,,,,,,,,,,,,,,,,,,,,,,,,,,,,,,,,,,,,,,,,1262.2081662006676,None,,,,,,,,,,,,,,,,,,,,,,,,,,,,,,,,,,,shore,68,114,silent,white,1260.1928179003298,None,None,1260.1928179003298,None,,,,,,,,,,,,,,,,,,,,,,,,,,,,,,58ND,001,2023_Apr_26_1747,ExactRep-v3-final,2021.2.3,60.03424340180482,
,,,,,,,,114,0,114,0,,,,,,,,,,,,,,,,,,,,,,,,,,,,,,,,,,,,,,,,,,,,,,,,,,,,,1264.7275157002732,None,,,,,,,,,,,,,,,,,,,,,,,,,,,,,,,,,,,stone,97,115,aloud,blue,1262.7132990006357,None,None,1262.7132990006357,None,,,,,,,,,,,,,,,,,,,,,,,,,,,,,,58ND,001,2023_Apr_26_1747,ExactRep-v3-final,2021.2.3,60.03424340180482,
,,,,,,,,115,0,115,0,,,,,,,,,,,,,,,,,,,,,,,,,,,,,,,,,,,,,,,,,,,,,,,,,,,,,1267.2298571998253,None,,,,,,,,,,,,,,,,,,,,,,,,,,,,,,,,,,,poet,4,116,sing,red,1265.230204500258,None,None,1265.230204500258,None,,,,,,,,,,,,,,,,,,,,,,,,,,,,,,58ND,001,2023_Apr_26_1747,ExactRep-v3-final,2021.2.3,60.03424340180482,
,,,,,,,,116,0,116,0,,,,,,,,,,,,,,,,,,,,,,,,,,,,,,,,,,,,,,,,,,,,,,,,,,,,,1269.7491955999285,None,,,,,,,,,,,,,,,,,,,,,,,,,,,,,,,,,,,woods,50,117,silent,white,1267.733724700287,None,None,1267.733724700287,None,,,,,,,,,,,,,,,,,,,,,,,,,,,,,,58ND,001,2023_Apr_26_1747,ExactRep-v3-final,2021.2.3,60.03424340180482,
,,,,,,,,117,0,117,0,,,,,,,,,,,,,,,,,,,,,,,,,,,,,,,,,,,,,,,,,,,,,,,,,,,,,1272.2680761003867,None,,,,,,,,,,,,,,,,,,,,,,,,,,,,,,,,,,,market,43,118,silent,white,1270.2603975003585,None,None,1270.2603975003585,None,,,,,,,,,,,,,,,,,,,,,,,,,,,,,,58ND,001,2023_Apr_26_1747,ExactRep-v3-final,2021.2.3,60.03424340180482,
,,,,,,,,118,0,118,0,,,,,,,,,,,,,,,,,,,,,,,,,,,,,,,,,,,,,,,,,,,,,,,,,,,,,1274.7707933997735,None,,,,,,,,,,,,,,,,,,,,,,,,,,,,,,,,,,,style,14,119,sing,red,1272.7685886006802,None,None,1272.7685886006802,None,,,,,,,,,,,,,,,,,,,,,,,,,,,,,,58ND,001,2023_Apr_26_1747,ExactRep-v3-final,2021.2.3,60.03424340180482,
,,,,,,,,119,0,119,0,,,,,,,,,,,,,,,,,,,,,,,,,,,,,,,,,,,,,,,,,,,,,,,,,,,,,1277.2899160999805,None,,,,,,,,,,,,,,,,,,,,,,,,,,,,,,,,,,,flood,92,120,aloud,blue,1275.2744792001322,None,None,1275.2744792001322,None,,,,,,,,,,,,,,,,,,,,,,,,,,,,,,58ND,001,2023_Apr_26_1747,ExactRep-v3-final,2021.2.3,60.03424340180482,
,,,,,,,,,,,,,,,,,,,,,,,,,,,,,,,,,,,,,,,,,,,,,,,,,,,,,,,,,,,,,,,,,,,,,,,,,,,,,,,,,,,,,,,,,,,,,,,,,,,,,,,,,,,,,,1277.79197090026,None,space,1.9964828006923199,1287.7679941998795,None,,,,,,,,,,,,,,,,,,,,,,,,58ND,001,2023_Apr_26_1747,ExactRep-v3-final,2021.2.3,60.03424340180482,
,,,,,,,,,,,,,,,,,,,,,,,,,,,,,,,,,,,,,,,,,,,,,,,,,,,,,,,,,,,,,,,,,,,,,,,,,,,,,,,,,,,,,,,,,,,,,,,,,,,,,,,,,,,,,,,,,,,,1289.7876134999096,None,space,25.67265160009265,1299.7638141000643,None,,,,,,,,,,,,,,,,,,58ND,001,2023_Apr_26_1747,ExactRep-v3-final,2021.2.3,60.03424340180482,
,,,,,,,,,,,,0,0,0,0,,,,,,,,,,,,,,,,,,,,,,,,,,,,,,,,,,,,,,,,,,,,,,,,,1332.8787623001263,None,,,,,,,,,,,,,,,,,,,,,,,,,,,,,,,,,,,,,,,,,,,,,,,,,,,,,,,,,flood,92,1,aloud,old,yellow,1325.9634444005787,None,y,1325.9634444005787,None,"['y', 'return']","[1.8407533001154661, 6.87282230053097]",1325.9634444005787,None,,,58ND,001,2023_Apr_26_1747,ExactRep-v3-final,2021.2.3,60.03424340180482,
,,,,,,,,,,,,1,0,1,0,,,,,,,,,,,,,,,,,,,,,,,,,,,,,,,,,,,,,,,,,,,,,,,,,1345.9082759004086,None,,,,,,,,,,,,,,,,,,,,,,,,,,,,,,,,,,,,,,,,,,,,,,,,,,,,,,,,,church,84,2,aloud,old,yellow,1333.386590000242,None,y,1333.386590000242,None,"['y', 'return']","[1.889619399793446, 12.473721799440682]",1333.386590000242,None,,,58ND,001,2023_Apr_26_1747,ExactRep-v3-final,2021.2.3,60.03424340180482,
,,,,,,,,,,,,2,0,2,0,,,,,,,,,,,,,,,,,,,,,,,,,,,,,,,,,,,,,,,,,,,,,,,,,1348.3114200998098,None,,,,,,,,,,,,,,,,,,,,,,,,,,,,,,,,,,,,,,,,,,,,,,,,,,,,,,,,,idea,120,3,silent,new,yellow,1346.4173998003826,None,n,1346.4173998003826,None,"['n', 'return']","[1.3949855007231236, 1.8507021004334092]",1346.4173998003826,None,,,58ND,001,2023_Apr_26_1747,ExactRep-v3-final,2021.2.3,60.03424340180482,
,,,,,,,,,,,,3,0,3,0,,,,,,,,,,,,,,,,,,,,,,,,,,,,,,,,,,,,,,,,,,,,,,,,,1350.512927500531,None,,,,,,,,,,,,,,,,,,,,,,,,,,,,,,,,,,,,,,,,,,,,,,,,,,,,,,,,,series,124,4,silent,new,yellow,1348.8235525004566,None,n,1348.8235525004566,None,"['n', 'return']","[1.3246202999725938, 1.6527031995356083]",1348.8235525004566,None,,,58ND,001,2023_Apr_26_1747,ExactRep-v3-final,2021.2.3,60.03424340180482,
,,,,,,,,,,,,4,0,4,0,,,,,,,,,,,,,,,,,,,,,,,,,,,,,,,,,,,,,,,,,,,,,,,,,1353.299007200636,None,,,,,,,,,,,,,,,,,,,,,,,,,,,,,,,,,,,,,,,,,,,,,,,,,,,,,,,,,house,44,5,silent,old,yellow,1351.0244193999097,None,y,1351.0244193999097,None,"['y', 'return']","[1.8358533000573516, 2.227867300622165]",1351.0244193999097,None,,,58ND,001,2023_Apr_26_1747,ExactRep-v3-final,2021.2.3,60.03424340180482,
,,,,,,,,,,,,5,0,5,0,,,,,,,,,,,,,,,,,,,,,,,,,,,,,,,,,,,,,,,,,,,,,,,,,1355.2009123004973,None,,,,,,,,,,,,,,,,,,,,,,,,,,,,,,,,,,,,,,,,,,,,,,,,,,,,,,,,,safety,201,6,sing,new,yellow,1353.808987500146,None,n,1353.808987500146,None,"['n', 'return']","[1.0993786007165909, 1.3553785001859069]",1353.808987500146,None,,,58ND,001,2023_Apr_26_1747,ExactRep-v3-final,2021.2.3,60.03424340180482,
,,,,,,,,,,,,6,0,6,0,,,,,,,,,,,,,,,,,,,,,,,,,,,,,,,,,,,,,,,,,,,,,,,,,1356.9861810002476,None,,,,,,,,,,,,,,,,,,,,,,,,,,,,,,,,,,,,,,,,,,,,,,,,,,,,,,,,,square,5,7,sing,old,yellow,1355.7102869004011,None,y,1355.7102869004011,None,"['y', 'return']","[0.9499911004677415, 1.2300812005996704]",1355.7102869004011,None,,,58ND,001,2023_Apr_26_1747,ExactRep-v3-final,2021.2.3,60.03424340180482,
,,,,,,,,,,,,7,0,7,0,,,,,,,,,,,,,,,,,,,,,,,,,,,,,,,,,,,,,,,,,,,,,,,,,1358.9546894002706,None,,,,,,,,,,,,,,,,,,,,,,,,,,,,,,,,,,,,,,,,,,,,,,,,,,,,,,,,,grass,78,8,silent,old,yellow,1357.496181000024,None,n,1357.496181000024,None,"['n', 'return']","[1.0763392997905612, 1.4201475996524096]",1357.496181000024,None,,,58ND,001,2023_Apr_26_1747,ExactRep-v3-final,2021.2.3,60.03424340180482,
,,,,,,,,,,,,8,0,8,0,,,,,,,,,,,,,,,,,,,,,,,,,,,,,,,,,,,,,,,,,,,,,,,,,1360.8732479000464,None,,,,,,,,,,,,,,,,,,,,,,,,,,,,,,,,,,,,,,,,,,,,,,,,,,,,,,,,,passion,152,9,silent,new,yellow,1359.4631399000064,None,n,1359.4631399000064,None,"['n', 'return']","[1.093078600242734, 1.3729817001149058]",1359.4631399000064,None,,,58ND,001,2023_Apr_26_1747,ExactRep-v3-final,2021.2.3,60.03424340180482,
,,,,,,,,,,,,9,0,9,0,,,,,,,,,,,,,,,,,,,,,,,,,,,,,,,,,,,,,,,,,,,,,,,,,1362.7918484006077,None,,,,,,,,,,,,,,,,,,,,,,,,,,,,,,,,,,,,,,,,,,,,,,,,,,,,,,,,,queen,12,10,sing,old,yellow,1361.38323280029,None,y,1361.38323280029,None,"['y', 'return']","[1.0449788998812437, 1.3731840997934341]",1361.38323280029,None,,,58ND,001,2023_Apr_26_1747,ExactRep-v3-final,2021.2.3,60.03424340180482,
,,,,,,,,,,,,10,0,10,0,,,,,,,,,,,,,,,,,,,,,,,,,,,,,,,,,,,,,,,,,,,,,,,,,1364.6270663002506,None,,,,,,,,,,,,,,,,,,,,,,,,,,,,,,,,,,,,,,,,,,,,,,,,,,,,,,,,,history,224,11,aloud,new,yellow,1363.3001840002835,None,n,1363.3001840002835,None,"['n', 'return']","[1.0001001004129648, 1.2880421997979283]",1363.3001840002835,None,,,58ND,001,2023_Apr_26_1747,ExactRep-v3-final,2021.2.3,60.03424340180482,
,,,,,,,,,,,,11,0,11,0,,,,,,,,,,,,,,,,,,,,,,,,,,,,,,,,,,,,,,,,,,,,,,,,,1367.6801233002916,None,,,,,,,,,,,,,,,,,,,,,,,,,,,,,,,,,,,,,,,,,,,,,,,,,,,,,,,,,officer,113,12,aloud,old,yellow,1365.129882399924,None,y,1365.129882399924,None,"['y', 'return']","[2.2822691993787885, 2.5062784999608994]",1365.129882399924,None,,,58ND,001,2023_Apr_26_1747,ExactRep-v3-final,2021.2.3,60.03424340180482,
,,,,,,,,,,,,12,0,12,0,,,,,,,,,,,,,,,,,,,,,,,,,,,,,,,,,,,,,,,,,,,,,,,,,1369.9825504999608,None,,,,,,,,,,,,,,,,,,,,,,,,,,,,,,,,,,,,,,,,,,,,,,,,,,,,,,,,,death,61,13,silent,old,yellow,1368.1892176000401,None,y,1368.1892176000401,None,"['y', 'return']","[1.3990418994799256, 1.7589951995760202]",1368.1892176000401,None,,,58ND,001,2023_Apr_26_1747,ExactRep-v3-final,2021.2.3,60.03424340180482,
,,,,,,,,,,,,13,0,13,0,,,,,,,,,,,,,,,,,,,,,,,,,,,,,,,,,,,,,,,,,,,,,,,,,1372.0014056004584,None,,,,,,,,,,,,,,,,,,,,,,,,,,,,,,,,,,,,,,,,,,,,,,,,,,,,,,,,,teacher,211,14,sing,new,yellow,1370.492379100062,None,n,1370.492379100062,None,"['n', 'return']","[1.1760325003415346, 1.4718583999201655]",1370.492379100062,None,,,58ND,001,2023_Apr_26_1747,ExactRep-v3-final,2021.2.3,60.03424340180482,
,,,,,,,,,,,,14,0,14,0,,,,,,,,,,,,,,,,,,,,,,,,,,,,,,,,,,,,,,,,,,,,,,,,,1373.7360776998103,None,,,,,,,,,,,,,,,,,,,,,,,,,,,,,,,,,,,,,,,,,,,,,,,,,,,,,,,,,spirit,70,15,silent,old,yellow,1372.510505899787,None,n,1372.510505899787,None,"['n', 'return']","[0.8697721995413303, 1.181692199781537]",1372.510505899787,None,,,58ND,001,2023_Apr_26_1747,ExactRep-v3-final,2021.2.3,60.03424340180482,
,,,,,,,,,,,,15,0,15,0,,,,,,,,,,,,,,,,,,,,,,,,,,,,,,,,,,,,,,,,,,,,,,,,,1375.5713932001963,None,,,,,,,,,,,,,,,,,,,,,,,,,,,,,,,,,,,,,,,,,,,,,,,,,,,,,,,,,cash,96,16,aloud,old,yellow,1374.2444144999608,None,y,1374.2444144999608,None,"['y', 'return']","[1.0238626999780536, 1.2799645001068711]",1374.2444144999608,None,,,58ND,001,2023_Apr_26_1747,ExactRep-v3-final,2021.2.3,60.03424340180482,
,,,,,,,,,,,,16,0,16,0,,,,,,,,,,,,,,,,,,,,,,,,,,,,,,,,,,,,,,,,,,,,,,,,,1377.0227554999292,None,,,,,,,,,,,,,,,,,,,,,,,,,,,,,,,,,,,,,,,,,,,,,,,,,,,,,,,,,car,40,17,silent,old,yellow,1376.073271700181,None,y,1376.073271700181,None,"['y', 'return']","[0.6191528998315334, 0.9069229997694492]",1376.073271700181,None,,,58ND,001,2023_Apr_26_1747,ExactRep-v3-final,2021.2.3,60.03424340180482,
,,,,,,,,,,,,17,0,17,0,,,,,,,,,,,,,,,,,,,,,,,,,,,,,,,,,,,,,,,,,,,,,,,,,1378.7912809997797,None,,,,,,,,,,,,,,,,,,,,,,,,,,,,,,,,,,,,,,,,,,,,,,,,,,,,,,,,,college,139,18,silent,new,yellow,1377.5296848006546,None,n,1377.5296848006546,None,"['n', 'return']","[0.9224984003230929, 1.2264919001609087]",1377.5296848006546,None,,,58ND,001,2023_Apr_26_1747,ExactRep-v3-final,2021.2.3,60.03424340180482,
,,,,,,,,,,,,18,0,18,0,,,,,,,,,,,,,,,,,,,,,,,,,,,,,,,,,,,,,,,,,,,,,,,,,1380.7765103001148,None,,,,,,,,,,,,,,,,,,,,,,,,,,,,,,,,,,,,,,,,,,,,,,,,,,,,,,,,,board,230,19,aloud,new,yellow,1379.2964342003688,None,y,1379.2964342003688,None,"['y', 'return']","[1.0839940998703241, 1.443957599811256]",1379.2964342003688,None,,,58ND,001,2023_Apr_26_1747,ExactRep-v3-final,2021.2.3,60.03424340180482,
,,,,,,,,,,,,19,0,19,0,,,,,,,,,,,,,,,,,,,,,,,,,,,,,,,,,,,,,,,,,,,,,,,,,1382.328119800426,None,,,,,,,,,,,,,,,,,,,,,,,,,,,,,,,,,,,,,,,,,,,,,,,,,,,,,,,,,meat,25,20,sing,old,yellow,1381.2945043006912,None,y,1381.2945043006912,None,"['y', 'return']","[0.7257254002615809, 0.9897282002493739]",1381.2945043006912,None,,,58ND,001,2023_Apr_26_1747,ExactRep-v3-final,2021.2.3,60.03424340180482,
,,,,,,,,,,,,20,0,20,0,,,,,,,,,,,,,,,,,,,,,,,,,,,,,,,,,,,,,,,,,,,,,,,,,1384.4136262005195,None,,,,,,,,,,,,,,,,,,,,,,,,,,,,,,,,,,,,,,,,,,,,,,,,,,,,,,,,,nail,115,21,aloud,old,yellow,1382.837154100649,None,n,1382.837154100649,None,"['n', 'return']","[1.2390948003157973, 1.5350984996184707]",1382.837154100649,None,,,58ND,001,2023_Apr_26_1747,ExactRep-v3-final,2021.2.3,60.03424340180482,
,,,,,,,,,,,,21,0,21,0,,,,,,,,,,,,,,,,,,,,,,,,,,,,,,,,,,,,,,,,,,,,,,,,,1388.3507869997993,None,,,,,,,,,,,,,,,,,,,,,,,,,,,,,,,,,,,,,,,,,,,,,,,,,,,,,,,,,horse,24,22,sing,old,yellow,1384.9232890000567,None,y,1384.9232890000567,None,"['y', 'return']","[3.0808575991541147, 3.3849149998277426]",1384.9232890000567,None,,,58ND,001,2023_Apr_26_1747,ExactRep-v3-final,2021.2.3,60.03424340180482,
,,,,,,,,,,,,22,0,22,0,,,,,,,,,,,,,,,,,,,,,,,,,,,,,,,,,,,,,,,,,,,,,,,,,1390.1026865998283,None,,,,,,,,,,,,,,,,,,,,,,,,,,,,,,,,,,,,,,,,,,,,,,,,,,,,,,,,,soil,154,23,silent,new,yellow,1388.857706000097,None,n,1388.857706000097,None,"['n', 'return']","[0.9226000001654029, 1.2105307998135686]",1388.857706000097,None,,,58ND,001,2023_Apr_26_1747,ExactRep-v3-final,2021.2.3,60.03424340180482,
,,,,,,,,,,,,23,0,23,0,,,,,,,,,,,,,,,,,,,,,,,,,,,,,,,,,,,,,,,,,,,,,,,,,1391.8043980998918,None,,,,,,,,,,,,,,,,,,,,,,,,,,,,,,,,,,,,,,,,,,,,,,,,,,,,,,,,,freedom,214,24,aloud,new,yellow,1390.606434499845,None,n,1390.606434499845,None,"['n', 'return']","[0.9019256997853518, 1.165922099724412]",1390.606434499845,None,,,58ND,001,2023_Apr_26_1747,ExactRep-v3-final,2021.2.3,60.03424340180482,
,,,,,,,,,,,,24,0,24,0,,,,,,,,,,,,,,,,,,,,,,,,,,,,,,,,,,,,,,,,,,,,,,,,,1394.6070445999503,None,,,,,,,,,,,,,,,,,,,,,,,,,,,,,,,,,,,,,,,,,,,,,,,,,,,,,,,,,metal,207,25,sing,new,yellow,1392.313977200538,None,n,1392.313977200538,None,"['n', 'return']","[1.9543130993843079, 2.2583368998020887]",1392.313977200538,None,,,58ND,001,2023_Apr_26_1747,ExactRep-v3-final,2021.2.3,60.03424340180482,
,,,,,,,,,,,,25,0,25,0,,,,,,,,,,,,,,,,,,,,,,,,,,,,,,,,,,,,,,,,,,,,,,,,,1396.2086711004376,None,,,,,,,,,,,,,,,,,,,,,,,,,,,,,,,,,,,,,,,,,,,,,,,,,,,,,,,,,brain,208,26,aloud,new,yellow,1395.1238472005352,None,n,1395.1238472005352,None,"['n', 'return']","[0.7683910001069307, 1.0484435996040702]",1395.1238472005352,None,,,58ND,001,2023_Apr_26_1747,ExactRep-v3-final,2021.2.3,60.03424340180482,
,,,,,,,,,,,,26,0,26,0,,,,,,,,,,,,,,,,,,,,,,,,,,,,,,,,,,,,,,,,,,,,,,,,,1398.0771808000281,None,,,,,,,,,,,,,,,,,,,,,,,,,,,,,,,,,,,,,,,,,,,,,,,,,,,,,,,,,glory,102,27,aloud,old,yellow,1396.7181579004973,None,y,1396.7181579004973,None,"['y', 'return']","[1.0620487006381154, 1.31813820078969]",1396.7181579004973,None,,,58ND,001,2023_Apr_26_1747,ExactRep-v3-final,2021.2.3,60.03424340180482,
,,,,,,,,,,,,27,0,27,0,,,,,,,,,,,,,,,,,,,,,,,,,,,,,,,,,,,,,,,,,,,,,,,,,1400.3296261001378,None,,,,,,,,,,,,,,,,,,,,,,,,,,,,,,,,,,,,,,,,,,,,,,,,,,,,,,,,,master,170,28,aloud,new,yellow,1398.5899609001353,None,n,1398.5899609001353,None,"['n', 'return']","[1.3663117997348309, 1.7024042000994086]",1398.5899609001353,None,,,58ND,001,2023_Apr_26_1747,ExactRep-v3-final,2021.2.3,60.03424340180482,
,,,,,,,,,,,,28,0,28,0,,,,,,,,,,,,,,,,,,,,,,,,,,,,,,,,,,,,,,,,,,,,,,,,,1402.1979846004397,None,,,,,,,,,,,,,,,,,,,,,,,,,,,,,,,,,,,,,,,,,,,,,,,,,,,,,,,,,moral,46,29,silent,old,yellow,1400.8465935997665,None,n,1400.8465935997665,None,"['n', 'return']","[0.9817069005221128, 1.3176538003608584]",1400.8465935997665,None,,,58ND,001,2023_Apr_26_1747,ExactRep-v3-final,2021.2.3,60.03424340180482,
,,,,,,,,,,,,29,0,29,0,,,,,,,,,,,,,,,,,,,,,,,,,,,,,,,,,,,,,,,,,,,,,,,,,1404.7337559005246,None,,,,,,,,,,,,,,,,,,,,,,,,,,,,,,,,,,,,,,,,,,,,,,,,,,,,,,,,,steam,233,30,sing,new,yellow,1402.7078645005822,None,y,1402.7078645005822,None,"['y', 'return']","[1.7446033004671335, 1.98442090023309]",1402.7078645005822,None,,,58ND,001,2023_Apr_26_1747,ExactRep-v3-final,2021.2.3,60.03424340180482,
,,,,,,,,,,,,30,0,30,0,,,,,,,,,,,,,,,,,,,,,,,,,,,,,,,,,,,,,,,,,,,,,,,,,1406.385783799924,None,,,,,,,,,,,,,,,,,,,,,,,,,,,,,,,,,,,,,,,,,,,,,,,,,,,,,,,,,time,145,31,silent,new,yellow,1405.2343994006515,None,n,1405.2343994006515,None,"['n', 'return']","[0.8498034002259374, 1.1140579003840685]",1405.2343994006515,None,,,58ND,001,2023_Apr_26_1747,ExactRep-v3-final,2021.2.3,60.03424340180482,
,,,,,,,,,,,,31,0,31,0,,,,,,,,,,,,,,,,,,,,,,,,,,,,,,,,,,,,,,,,,,,,,,,,,1408.3207648005337,None,,,,,,,,,,,,,,,,,,,,,,,,,,,,,,,,,,,,,,,,,,,,,,,,,,,,,,,,,letter,177,32,sing,new,yellow,1406.8910971004516,None,n,1406.8910971004516,None,"['n', 'return']","[0.76920469943434, 1.3931931992992759]",1406.8910971004516,None,,,58ND,001,2023_Apr_26_1747,ExactRep-v3-final,2021.2.3,60.03424340180482,
,,,,,,,,,,,,32,0,32,0,,,,,,,,,,,,,,,,,,,,,,,,,,,,,,,,,,,,,,,,,,,,,,,,,1410.9401695998386,None,,,,,,,,,,,,,,,,,,,,,,,,,,,,,,,,,,,,,,,,,,,,,,,,,,,,,,,,,troops,215,33,sing,new,yellow,1408.8316322006285,None,y,1408.8316322006285,None,"['y', 'return']","[1.8206265000626445, 2.0607502004131675]",1408.8316322006285,None,,,58ND,001,2023_Apr_26_1747,ExactRep-v3-final,2021.2.3,60.03424340180482,
,,,,,,,,,,,,33,0,33,0,,,,,,,,,,,,,,,,,,,,,,,,,,,,,,,,,,,,,,,,,,,,,,,,,1412.6252374006435,None,,,,,,,,,,,,,,,,,,,,,,,,,,,,,,,,,,,,,,,,,,,,,,,,,,,,,,,,,duty,184,34,aloud,new,yellow,1411.4493622006848,None,n,1411.4493622006848,None,"['n', 'return']","[0.8509891992434859, 1.1309623997658491]",1411.4493622006848,None,,,58ND,001,2023_Apr_26_1747,ExactRep-v3-final,2021.2.3,60.03424340180482,
,,,,,,,,,,,,34,0,34,0,,,,,,,,,,,,,,,,,,,,,,,,,,,,,,,,,,,,,,,,,,,,,,,,,1414.3767686998472,None,,,,,,,,,,,,,,,,,,,,,,,,,,,,,,,,,,,,,,,,,,,,,,,,,,,,,,,,,beast,28,35,sing,old,yellow,1413.1360416002572,None,y,1413.1360416002572,None,"['y', 'return']","[0.9642351996153593, 1.1961640994995832]",1413.1360416002572,None,,,58ND,001,2023_Apr_26_1747,ExactRep-v3-final,2021.2.3,60.03424340180482,
,,,,,,,,,,,,35,0,35,0,,,,,,,,,,,,,,,,,,,,,,,,,,,,,,,,,,,,,,,,,,,,,,,,,1416.011818899773,None,,,,,,,,,,,,,,,,,,,,,,,,,,,,,,,,,,,,,,,,,,,,,,,,,,,,,,,,,toy,209,36,sing,new,yellow,1414.8888004999608,None,n,1414.8888004999608,None,"['n', 'return']","[0.8196258004754782, 1.0754817007109523]",1414.8888004999608,None,,,58ND,001,2023_Apr_26_1747,ExactRep-v3-final,2021.2.3,60.03424340180482,
,,,,,,,,,,,,36,0,36,0,,,,,,,,,,,,,,,,,,,,,,,,,,,,,,,,,,,,,,,,,,,,,,,,,1417.6311226002872,None,,,,,,,,,,,,,,,,,,,,,,,,,,,,,,,,,,,,,,,,,,,,,,,,,,,,,,,,,picture,235,37,sing,new,yellow,1416.5185315003619,None,n,1416.5185315003619,None,"['n', 'return']","[0.7578263999894261, 1.0698817996308208]",1416.5185315003619,None,,,58ND,001,2023_Apr_26_1747,ExactRep-v3-final,2021.2.3,60.03424340180482,
,,,,,,,,,,,,37,0,37,0,,,,,,,,,,,,,,,,,,,,,,,,,,,,,,,,,,,,,,,,,,,,,,,,,1419.4151877006516,None,,,,,,,,,,,,,,,,,,,,,,,,,,,,,,,,,,,,,,,,,,,,,,,,,,,,,,,,,silence,219,38,sing,new,yellow,1418.141340800561,None,n,1418.141340800561,None,"['n', 'return']","[0.7670489000156522, 1.2390101002529263]",1418.141340800561,None,,,58ND,001,2023_Apr_26_1747,ExactRep-v3-final,2021.2.3,60.03424340180482,
,,,,,,,,,,,,38,0,38,0,,,,,,,,,,,,,,,,,,,,,,,,,,,,,,,,,,,,,,,,,,,,,,,,,1420.983490999788,None,,,,,,,,,,,,,,,,,,,,,,,,,,,,,,,,,,,,,,,,,,,,,,,,,,,,,,,,,fate,140,39,silent,new,yellow,1419.9266162998974,None,n,1419.9266162998974,None,"['n', 'return']","[0.8297277996316552, 1.0216367999091744]",1419.9266162998974,None,,,58ND,001,2023_Apr_26_1747,ExactRep-v3-final,2021.2.3,60.03424340180482,
,,,,,,,,,,,,39,0,39,0,,,,,,,,,,,,,,,,,,,,,,,,,,,,,,,,,,,,,,,,,,,,,,,,,1422.46988360025,None,,,,,,,,,,,,,,,,,,,,,,,,,,,,,,,,,,,,,,,,,,,,,,,,,,,,,,,,,excuse,190,40,aloud,new,yellow,1421.4941687006503,None,n,1421.4941687006503,None,"['n', 'return']","[0.6703193997964263, 0.9341122005134821]",1421.4941687006503,None,,,58ND,001,2023_Apr_26_1747,ExactRep-v3-final,2021.2.3,60.03424340180482,
,,,,,,,,,,,,40,0,40,0,,,,,,,,,,,,,,,,,,,,,,,,,,,,,,,,,,,,,,,,,,,,,,,,,1424.0198312001303,None,,,,,,,,,,,,,,,,,,,,,,,,,,,,,,,,,,,,,,,,,,,,,,,,,,,,,,,,,plain,203,41,sing,new,yellow,1422.985580100678,None,n,1422.985580100678,None,"['n', 'return']","[0.7068344000726938, 0.9867270002141595]",1422.985580100678,None,,,58ND,001,2023_Apr_26_1747,ExactRep-v3-final,2021.2.3,60.03424340180482,
,,,,,,,,,,,,41,0,41,0,,,,,,,,,,,,,,,,,,,,,,,,,,,,,,,,,,,,,,,,,,,,,,,,,1425.4044630005956,None,,,,,,,,,,,,,,,,,,,,,,,,,,,,,,,,,,,,,,,,,,,,,,,,,,,,,,,,,palace,217,42,sing,new,yellow,1424.5214614002034,None,n,1424.5214614002034,None,"['n', 'return']","[0.5709148999303579, 0.8428568001836538]",1424.5214614002034,None,,,58ND,001,2023_Apr_26_1747,ExactRep-v3-final,2021.2.3,60.03424340180482,
,,,,,,,,,,,,42,0,42,0,,,,,,,,,,,,,,,,,,,,,,,,,,,,,,,,,,,,,,,,,,,,,,,,,1426.83926920034,None,,,,,,,,,,,,,,,,,,,,,,,,,,,,,,,,,,,,,,,,,,,,,,,,,,,,,,,,,chance,127,43,silent,new,yellow,1425.9117550998926,None,n,1425.9117550998926,None,"['n', 'return']","[0.6525373002514243, 0.8924950994551182]",1425.9117550998926,None,,,58ND,001,2023_Apr_26_1747,ExactRep-v3-final,2021.2.3,60.03424340180482,
,,,,,,,,,,,,43,0,43,0,,,,,,,,,,,,,,,,,,,,,,,,,,,,,,,,,,,,,,,,,,,,,,,,,1428.224013400264,None,,,,,,,,,,,,,,,,,,,,,,,,,,,,,,,,,,,,,,,,,,,,,,,,,,,,,,,,,slave,213,44,sing,new,yellow,1427.341578300111,None,n,1427.341578300111,None,"['n', 'return']","[0.598759800195694, 0.8468168005347252]",1427.341578300111,None,,,58ND,001,2023_Apr_26_1747,ExactRep-v3-final,2021.2.3,60.03424340180482,
,,,,,,,,,,,,44,0,44,0,,,,,,,,,,,,,,,,,,,,,,,,,,,,,,,,,,,,,,,,,,,,,,,,,1433.0954319005832,None,,,,,,,,,,,,,,,,,,,,,,,,,,,,,,,,,,,,,,,,,,,,,,,,,,,,,,,,,table,48,45,silent,old,yellow,1428.7246305998415,None,y,1428.7246305998415,None,"['n', 'backspace', 'y', 'return']","[0.7196340998634696, 2.159683399833739, 3.479692599736154, 4.327640599571168]",1428.7246305998415,None,,,58ND,001,2023_Apr_26_1747,ExactRep-v3-final,2021.2.3,60.03424340180482,
,,,,,,,,,,,,45,0,45,0,,,,,,,,,,,,,,,,,,,,,,,,,,,,,,,,,,,,,,,,,,,,,,,,,1434.7638632999733,None,,,,,,,,,,,,,,,,,,,,,,,,,,,,,,,,,,,,,,,,,,,,,,,,,,,,,,,,,science,232,46,aloud,new,yellow,1433.6038827998564,None,n,1433.6038827998564,None,"['n', 'return']","[0.8404060993343592, 1.1285052001476288]",1433.6038827998564,None,,,58ND,001,2023_Apr_26_1747,ExactRep-v3-final,2021.2.3,60.03424340180482,
,,,,,,,,,,,,46,0,46,0,,,,,,,,,,,,,,,,,,,,,,,,,,,,,,,,,,,,,,,,,,,,,,,,,1436.1988479001448,None,,,,,,,,,,,,,,,,,,,,,,,,,,,,,,,,,,,,,,,,,,,,,,,,,,,,,,,,,gold,161,47,sing,new,yellow,1435.265686600469,None,n,1435.265686600469,None,"['n', 'return']","[0.6825396995991468, 0.8985887998715043]",1435.265686600469,None,,,58ND,001,2023_Apr_26_1747,ExactRep-v3-final,2021.2.3,60.03424340180482,
,,,,,,,,,,,,47,0,47,0,,,,,,,,,,,,,,,,,,,,,,,,,,,,,,,,,,,,,,,,,,,,,,,,,1438.0004660999402,None,,,,,,,,,,,,,,,,,,,,,,,,,,,,,,,,,,,,,,,,,,,,,,,,,,,,,,,,,cotton,66,48,silent,old,yellow,1436.706937899813,None,n,1436.706937899813,None,"['n', 'return']","[0.9854696001857519, 1.2574568996205926]",1436.706937899813,None,,,58ND,001,2023_Apr_26_1747,ExactRep-v3-final,2021.2.3,60.03424340180482,
,,,,,,,,,,,,48,0,48,0,,,,,,,,,,,,,,,,,,,,,,,,,,,,,,,,,,,,,,,,,,,,,,,,,1440.0859802998602,None,,,,,,,,,,,,,,,,,,,,,,,,,,,,,,,,,,,,,,,,,,,,,,,,,,,,,,,,,honour,80,49,aloud,old,yellow,1438.5079120006412,None,y,1438.5079120006412,None,"['y', 'return']","[1.2244125995784998, 1.5365061992779374]",1438.5079120006412,None,,,58ND,001,2023_Apr_26_1747,ExactRep-v3-final,2021.2.3,60.03424340180482,
,,,,,,,,,,,,49,0,49,0,,,,,,,,,,,,,,,,,,,,,,,,,,,,,,,,,,,,,,,,,,,,,,,,,1441.8777272002771,None,,,,,,,,,,,,,,,,,,,,,,,,,,,,,,,,,,,,,,,,,,,,,,,,,,,,,,,,,health,205,50,sing,new,yellow,1440.5914916004986,None,n,1440.5914916004986,None,"['n', 'return']","[0.9968511993065476, 1.236783099360764]",1440.5914916004986,None,,,58ND,001,2023_Apr_26_1747,ExactRep-v3-final,2021.2.3,60.03424340180482,
,,,,,,,,,,,,50,0,50,0,,,,,,,,,,,,,,,,,,,,,,,,,,,,,,,,,,,,,,,,,,,,,,,,,1443.4058902999386,None,,,,,,,,,,,,,,,,,,,,,,,,,,,,,,,,,,,,,,,,,,,,,,,,,,,,,,,,,butter,171,51,sing,new,yellow,1442.4006219999865,None,n,1442.4006219999865,None,"['n', 'return']","[0.7316527999937534, 0.9637930998578668]",1442.4006219999865,None,,,58ND,001,2023_Apr_26_1747,ExactRep-v3-final,2021.2.3,60.03424340180482,
,,,,,,,,,,,,51,0,51,0,,,,,,,,,,,,,,,,,,,,,,,,,,,,,,,,,,,,,,,,,,,,,,,,,1446.4755922006443,None,,,,,,,,,,,,,,,,,,,,,,,,,,,,,,,,,,,,,,,,,,,,,,,,,,,,,,,,,bird,168,52,aloud,new,yellow,1443.9076658003032,None,y,1443.9076658003032,None,"['y', 'return']","[2.2887068996205926, 2.528656999580562]",1443.9076658003032,None,,,58ND,001,2023_Apr_26_1747,ExactRep-v3-final,2021.2.3,60.03424340180482,
,,,,,,,,,,,,52,0,52,0,,,,,,,,,,,,,,,,,,,,,,,,,,,,,,,,,,,,,,,,,,,,,,,,,1448.3941841004416,None,,,,,,,,,,,,,,,,,,,,,,,,,,,,,,,,,,,,,,,,,,,,,,,,,,,,,,,,,hall,83,53,aloud,old,yellow,1446.9829787006602,None,y,1446.9829787006602,None,"['y', 'return']","[1.1415034998208284, 1.3737772004678845]",1446.9829787006602,None,,,58ND,001,2023_Apr_26_1747,ExactRep-v3-final,2021.2.3,60.03424340180482,
,,,,,,,,,,,,53,0,53,0,,,,,,,,,,,,,,,,,,,,,,,,,,,,,,,,,,,,,,,,,,,,,,,,,1450.0457516005263,None,,,,,,,,,,,,,,,,,,,,,,,,,,,,,,,,,,,,,,,,,,,,,,,,,,,,,,,,,love,218,54,aloud,new,yellow,1448.9084852999076,None,n,1448.9084852999076,None,"['n', 'return']","[0.8639214998111129, 1.103770500048995]",1448.9084852999076,None,,,58ND,001,2023_Apr_26_1747,ExactRep-v3-final,2021.2.3,60.03424340180482,
,,,,,,,,,,,,54,0,54,0,,,,,,,,,,,,,,,,,,,,,,,,,,,,,,,,,,,,,,,,,,,,,,,,,1453.682794000022,None,,,,,,,,,,,,,,,,,,,,,,,,,,,,,,,,,,,,,,,,,,,,,,,,,,,,,,,,,market,43,55,silent,old,yellow,1450.5610223999247,None,y,1450.5610223999247,None,"['y', 'return']","[2.8352982001379132, 3.0753215001896024]",1450.5610223999247,None,,,58ND,001,2023_Apr_26_1747,ExactRep-v3-final,2021.2.3,60.03424340180482,
,,,,,,,,,,,,55,0,55,0,,,,,,,,,,,,,,,,,,,,,,,,,,,,,,,,,,,,,,,,,,,,,,,,,1455.3845139006153,None,,,,,,,,,,,,,,,,,,,,,,,,,,,,,,,,,,,,,,,,,,,,,,,,,,,,,,,,,power,197,56,sing,new,yellow,1454.190471299924,None,n,1454.190471299924,None,"['n', 'return']","[0.9020143998786807, 1.1578901000320911]",1454.190471299924,None,,,58ND,001,2023_Apr_26_1747,ExactRep-v3-final,2021.2.3,60.03424340180482,
,,,,,,,,,,,,56,0,56,0,,,,,,,,,,,,,,,,,,,,,,,,,,,,,,,,,,,,,,,,,,,,,,,,,1458.2875775005668,None,,,,,,,,,,,,,,,,,,,,,,,,,,,,,,,,,,,,,,,,,,,,,,,,,,,,,,,,,shadow,76,57,silent,old,yellow,1455.887425799854,None,n,1455.887425799854,None,"['n', 'return']","[2.117034999653697, 2.3649354996159673]",1455.887425799854,None,,,58ND,001,2023_Apr_26_1747,ExactRep-v3-final,2021.2.3,60.03424340180482,
,,,,,,,,,,,,57,0,57,0,,,,,,,,,,,,,,,,,,,,,,,,,,,,,,,,,,,,,,,,,,,,,,,,,1460.239516899921,None,,,,,,,,,,,,,,,,,,,,,,,,,,,,,,,,,,,,,,,,,,,,,,,,,,,,,,,,,string,169,58,sing,new,yellow,1458.7974147005007,None,n,1458.7974147005007,None,"['n', 'return']","[1.150976600125432, 1.398920699954033]",1458.7974147005007,None,,,58ND,001,2023_Apr_26_1747,ExactRep-v3-final,2021.2.3,60.03424340180482,
,,,,,,,,,,,,58,0,58,0,,,,,,,,,,,,,,,,,,,,,,,,,,,,,,,,,,,,,,,,,,,,,,,,,1462.658409100026,None,,,,,,,,,,,,,,,,,,,,,,,,,,,,,,,,,,,,,,,,,,,,,,,,,,,,,,,,,friend,134,59,silent,new,yellow,1460.7493543000892,None,n,1460.7493543000892,None,"['n', 'return']","[1.6631977995857596, 1.8710711002349854]",1460.7493543000892,None,,,58ND,001,2023_Apr_26_1747,ExactRep-v3-final,2021.2.3,60.03424340180482,
,,,,,,,,,,,,59,0,59,0,,,,,,,,,,,,,,,,,,,,,,,,,,,,,,,,,,,,,,,,,,,,,,,,,1466.295419599861,None,,,,,,,,,,,,,,,,,,,,,,,,,,,,,,,,,,,,,,,,,,,,,,,,,,,,,,,,,sky,2,60,sing,old,yellow,1463.1670919004828,None,y,1463.1670919004828,None,"['n', 'backspace', 'y', 'return']","[1.3252664003521204, 2.341425900347531, 2.565375699661672, 3.08524680044502]",1463.1670919004828,None,,,58ND,001,2023_Apr_26_1747,ExactRep-v3-final,2021.2.3,60.03424340180482,
,,,,,,,,,,,,60,0,60,0,,,,,,,,,,,,,,,,,,,,,,,,,,,,,,,,,,,,,,,,,,,,,,,,,1468.2475247001275,None,,,,,,,,,,,,,,,,,,,,,,,,,,,,,,,,,,,,,,,,,,,,,,,,,,,,,,,,,street,41,61,silent,old,yellow,1466.8025722000748,None,n,1466.8025722000748,None,"['n', 'return']","[1.1377436993643641, 1.4098109994083643]",1466.8025722000748,None,,,58ND,001,2023_Apr_26_1747,ExactRep-v3-final,2021.2.3,60.03424340180482,
,,,,,,,,,,,,61,0,61,0,,,,,,,,,,,,,,,,,,,,,,,,,,,,,,,,,,,,,,,,,,,,,,,,,1469.6993637997657,None,,,,,,,,,,,,,,,,,,,,,,,,,,,,,,,,,,,,,,,,,,,,,,,,,,,,,,,,,lip,39,62,silent,old,yellow,1468.7565008997917,None,n,1468.7565008997917,None,"['n', 'return']","[0.6398254996165633, 0.903715199790895]",1468.7565008997917,None,,,58ND,001,2023_Apr_26_1747,ExactRep-v3-final,2021.2.3,60.03424340180482,
,,,,,,,,,,,,62,0,62,0,,,,,,,,,,,,,,,,,,,,,,,,,,,,,,,,,,,,,,,,,,,,,,,,,1471.0501548005268,None,,,,,,,,,,,,,,,,,,,,,,,,,,,,,,,,,,,,,,,,,,,,,,,,,,,,,,,,,disease,226,63,aloud,new,yellow,1470.2051718002185,None,n,1470.2051718002185,None,"['n', 'return']","[0.5670907003805041, 0.7992540001869202]",1470.2051718002185,None,,,58ND,001,2023_Apr_26_1747,ExactRep-v3-final,2021.2.3,60.03424340180482,
,,,,,,,,,,,,63,0,63,0,,,,,,,,,,,,,,,,,,,,,,,,,,,,,,,,,,,,,,,,,,,,,,,,,1475.0041190003976,None,,,,,,,,,,,,,,,,,,,,,,,,,,,,,,,,,,,,,,,,,,,,,,,,,,,,,,,,,wine,188,64,aloud,new,yellow,1471.5600890005007,None,n,1471.5600890005007,None,"['n', 'return']","[2.004230000078678, 3.412373499944806]",1471.5600890005007,None,,,58ND,001,2023_Apr_26_1747,ExactRep-v3-final,2021.2.3,60.03424340180482,
,,,,,,,,,,,,64,0,64,0,,,,,,,,,,,,,,,,,,,,,,,,,,,,,,,,,,,,,,,,,,,,,,,,,1476.9895226005465,None,,,,,,,,,,,,,,,,,,,,,,,,,,,,,,,,,,,,,,,,,,,,,,,,,,,,,,,,,lad,60,65,silent,old,yellow,1475.5128260003403,None,n,1475.5128260003403,None,"['n', 'return']","[1.0676724994555116, 1.427674999460578]",1475.5128260003403,None,,,58ND,001,2023_Apr_26_1747,ExactRep-v3-final,2021.2.3,60.03424340180482,
,,,,,,,,,,,,65,0,65,0,,,,,,,,,,,,,,,,,,,,,,,,,,,,,,,,,,,,,,,,,,,,,,,,,1481.4941010000184,None,,,,,,,,,,,,,,,,,,,,,,,,,,,,,,,,,,,,,,,,,,,,,,,,,,,,,,,,,storm,64,66,silent,old,yellow,1477.4977441001683,None,n,1477.4977441001683,None,"['n', 'return']","[3.642604200169444, 3.95476539991796]",1477.4977441001683,None,,,58ND,001,2023_Apr_26_1747,ExactRep-v3-final,2021.2.3,60.03424340180482,
,,,,,,,,,,,,66,0,66,0,,,,,,,,,,,,,,,,,,,,,,,,,,,,,,,,,,,,,,,,,,,,,,,,,1483.1122257998213,None,,,,,,,,,,,,,,,,,,,,,,,,,,,,,,,,,,,,,,,,,,,,,,,,,,,,,,,,,custom,56,67,silent,old,yellow,1482.0037115998566,None,n,1482.0037115998566,None,"['n', 'return']","[0.8166089002043009, 1.0646212995052338]",1482.0037115998566,None,,,58ND,001,2023_Apr_26_1747,ExactRep-v3-final,2021.2.3,60.03424340180482,
,,,,,,,,,,,,67,0,67,0,,,,,,,,,,,,,,,,,,,,,,,,,,,,,,,,,,,,,,,,,,,,,,,,,1484.4135159002617,None,,,,,,,,,,,,,,,,,,,,,,,,,,,,,,,,,,,,,,,,,,,,,,,,,,,,,,,,,avenue,182,68,aloud,new,yellow,1483.6237853001803,None,n,1483.6237853001803,None,"['n', 'return']","[0.5005683992058039, 0.7486214991658926]",1483.6237853001803,None,,,58ND,001,2023_Apr_26_1747,ExactRep-v3-final,2021.2.3,60.03424340180482,
,,,,,,,,,,,,68,0,68,0,,,,,,,,,,,,,,,,,,,,,,,,,,,,,,,,,,,,,,,,,,,,,,,,,1487.3497313000262,None,,,,,,,,,,,,,,,,,,,,,,,,,,,,,,,,,,,,,,,,,,,,,,,,,,,,,,,,,quality,89,69,aloud,old,yellow,1484.92346870061,None,n,1484.92346870061,None,"['n', 'return']","[0.8249840000644326, 2.392919600009918]",1484.92346870061,None,,,58ND,001,2023_Apr_26_1747,ExactRep-v3-final,2021.2.3,60.03424340180482,
,,,,,,,,,,,,69,0,69,0,,,,,,,,,,,,,,,,,,,,,,,,,,,,,,,,,,,,,,,,,,,,,,,,,1489.151613600552,None,,,,,,,,,,,,,,,,,,,,,,,,,,,,,,,,,,,,,,,,,,,,,,,,,,,,,,,,,product,72,70,silent,old,yellow,1487.8572677997872,None,n,1487.8572677997872,None,"['n', 'return']","[1.0590726006776094, 1.251069700345397]",1487.8572677997872,None,,,58ND,001,2023_Apr_26_1747,ExactRep-v3-final,2021.2.3,60.03424340180482,
,,,,,,,,,,,,70,0,70,0,,,,,,,,,,,,,,,,,,,,,,,,,,,,,,,,,,,,,,,,,,,,,,,,,1490.7366890003905,None,,,,,,,,,,,,,,,,,,,,,,,,,,,,,,,,,,,,,,,,,,,,,,,,,,,,,,,,,home,192,71,aloud,new,yellow,1489.6597319003195,None,n,1489.6597319003195,None,"['n', 'return']","[0.5845568003132939, 1.0407145004719496]",1489.6597319003195,None,,,58ND,001,2023_Apr_26_1747,ExactRep-v3-final,2021.2.3,60.03424340180482,
,,,,,,,,,,,,71,0,71,0,,,,,,,,,,,,,,,,,,,,,,,,,,,,,,,,,,,,,,,,,,,,,,,,,1492.6718161003664,None,,,,,,,,,,,,,,,,,,,,,,,,,,,,,,,,,,,,,,,,,,,,,,,,,,,,,,,,,judge,23,72,sing,old,yellow,1491.2487603006884,None,n,1491.2487603006884,None,"['n', 'return']","[1.0276914993301034, 1.3795372992753983]",1491.2487603006884,None,,,58ND,001,2023_Apr_26_1747,ExactRep-v3-final,2021.2.3,60.03424340180482,
,,,,,,,,,,,,72,0,72,0,,,,,,,,,,,,,,,,,,,,,,,,,,,,,,,,,,,,,,,,,,,,,,,,,1494.0398401999846,None,,,,,,,,,,,,,,,,,,,,,,,,,,,,,,,,,,,,,,,,,,,,,,,,,,,,,,,,,hotel,198,73,aloud,new,yellow,1493.1815435001627,None,n,1493.1815435001627,None,"['n', 'return']","[0.5748411994427443, 0.8228889992460608]",1493.1815435001627,None,,,58ND,001,2023_Apr_26_1747,ExactRep-v3-final,2021.2.3,60.03424340180482,
,,,,,,,,,,,,73,0,73,0,,,,,,,,,,,,,,,,,,,,,,,,,,,,,,,,,,,,,,,,,,,,,,,,,1496.4923438001424,None,,,,,,,,,,,,,,,,,,,,,,,,,,,,,,,,,,,,,,,,,,,,,,,,,,,,,,,,,thought,118,74,aloud,old,yellow,1494.5488625997677,None,n,1494.5488625997677,None,"['n', 'return']","[1.695524299517274, 1.9117024997249246]",1494.5488625997677,None,,,58ND,001,2023_Apr_26_1747,ExactRep-v3-final,2021.2.3,60.03424340180482,
,,,,,,,,,,,,74,0,74,0,,,,,,,,,,,,,,,,,,,,,,,,,,,,,,,,,,,,,,,,,,,,,,,,,1498.544341799803,None,,,,,,,,,,,,,,,,,,,,,,,,,,,,,,,,,,,,,,,,,,,,,,,,,,,,,,,,,cottage,195,75,sing,new,yellow,1497.0039146002382,None,n,1497.0039146002382,None,"['n', 'return']","[0.8403689004480839, 1.5045242998749018]",1497.0039146002382,None,,,58ND,001,2023_Apr_26_1747,ExactRep-v3-final,2021.2.3,60.03424340180482,
,,,,,,,,,,,,75,0,75,0,,,,,,,,,,,,,,,,,,,,,,,,,,,,,,,,,,,,,,,,,,,,,,,,,1499.9289731997997,None,,,,,,,,,,,,,,,,,,,,,,,,,,,,,,,,,,,,,,,,,,,,,,,,,,,,,,,,,book,47,76,silent,old,yellow,1499.0546171003953,None,n,1499.0546171003953,None,"['n', 'return']","[0.5257620001211762, 0.8376221004873514]",1499.0546171003953,None,,,58ND,001,2023_Apr_26_1747,ExactRep-v3-final,2021.2.3,60.03424340180482,
,,,,,,,,,,,,76,0,76,0,,,,,,,,,,,,,,,,,,,,,,,,,,,,,,,,,,,,,,,,,,,,,,,,,1502.2692758999765,None,,,,,,,,,,,,,,,,,,,,,,,,,,,,,,,,,,,,,,,,,,,,,,,,,,,,,,,,,star,93,77,aloud,old,yellow,1500.4336839001626,None,n,1500.4336839001626,None,"['n', 'return']","[0.9067877996712923, 1.794565999880433]",1500.4336839001626,None,,,58ND,001,2023_Apr_26_1747,ExactRep-v3-final,2021.2.3,60.03424340180482,
,,,,,,,,,,,,77,0,77,0,,,,,,,,,,,,,,,,,,,,,,,,,,,,,,,,,,,,,,,,,,,,,,,,,1507.8869302999228,None,,,,,,,,,,,,,,,,,,,,,,,,,,,,,,,,,,,,,,,,,,,,,,,,,,,,,,,,,prayer,196,78,aloud,new,yellow,1502.7876842003316,None,n,1502.7876842003316,None,"['n', 'return']","[2.9689277997240424, 5.056706000119448]",1502.7876842003316,None,,,58ND,001,2023_Apr_26_1747,ExactRep-v3-final,2021.2.3,60.03424340180482,
,,,,,,,,,,,,78,0,78,0,,,,,,,,,,,,,,,,,,,,,,,,,,,,,,,,,,,,,,,,,,,,,,,,,1509.471893100068,None,,,,,,,,,,,,,,,,,,,,,,,,,,,,,,,,,,,,,,,,,,,,,,,,,,,,,,,,,dust,194,79,aloud,new,yellow,1508.3956384006888,None,n,1508.3956384006888,None,"['n', 'return']","[0.7367178006097674, 1.0408361004665494]",1508.3956384006888,None,,,58ND,001,2023_Apr_26_1747,ExactRep-v3-final,2021.2.3,60.03424340180482,
,,,,,,,,,,,,79,0,79,0,,,,,,,,,,,,,,,,,,,,,,,,,,,,,,,,,,,,,,,,,,,,,,,,,1511.9409932000563,None,,,,,,,,,,,,,,,,,,,,,,,,,,,,,,,,,,,,,,,,,,,,,,,,,,,,,,,,,mind,77,80,silent,old,yellow,1509.9817802002653,None,n,1509.9817802002653,None,"['n', 'return']","[1.6066296994686127, 1.91864849999547]",1509.9817802002653,None,,,58ND,001,2023_Apr_26_1747,ExactRep-v3-final,2021.2.3,60.03424340180482,
,,,,,,,,,,,,80,0,80,0,,,,,,,,,,,,,,,,,,,,,,,,,,,,,,,,,,,,,,,,,,,,,,,,,1516.9460578002036,None,,,,,,,,,,,,,,,,,,,,,,,,,,,,,,,,,,,,,,,,,,,,,,,,,,,,,,,,,hide,10,81,sing,old,yellow,1512.4527826001868,None,y,1512.4527826001868,None,"['n', 'backspace', 'y', 'return']","[0.6397565007209778, 3.6476179007440805, 3.9036016007885337, 4.455612500198185]",1512.4527826001868,None,,,58ND,001,2023_Apr_26_1747,ExactRep-v3-final,2021.2.3,60.03424340180482,
,,,,,,,,,,,,81,0,81,0,,,,,,,,,,,,,,,,,,,,,,,,,,,,,,,,,,,,,,,,,,,,,,,,,1519.4486661003903,None,,,,,,,,,,,,,,,,,,,,,,,,,,,,,,,,,,,,,,,,,,,,,,,,,,,,,,,,,army,62,82,silent,old,yellow,1517.4561279006302,None,n,1517.4561279006302,None,"['n', 'return']","[1.0684174997732043, 1.9481717003509402]",1517.4561279006302,None,,,58ND,001,2023_Apr_26_1747,ExactRep-v3-final,2021.2.3,60.03424340180482,
,,,,,,,,,,,,82,0,82,0,,,,,,,,,,,,,,,,,,,,,,,,,,,,,,,,,,,,,,,,,,,,,,,,,1521.9011348998174,None,,,,,,,,,,,,,,,,,,,,,,,,,,,,,,,,,,,,,,,,,,,,,,,,,,,,,,,,,gift,57,83,silent,old,yellow,1519.9601945998147,None,y,1519.9601945998147,None,"['y', 'return']","[1.380184800364077, 1.9081357000395656]",1519.9601945998147,None,,,58ND,001,2023_Apr_26_1747,ExactRep-v3-final,2021.2.3,60.03424340180482,
,,,,,,,,,,,,83,0,83,0,,,,,,,,,,,,,,,,,,,,,,,,,,,,,,,,,,,,,,,,,,,,,,,,,1523.769604800269,None,,,,,,,,,,,,,,,,,,,,,,,,,,,,,,,,,,,,,,,,,,,,,,,,,,,,,,,,,village,212,84,aloud,new,yellow,1522.4122769003734,None,n,1522.4122769003734,None,"['n', 'return']","[1.0881994999945164, 1.3201190000399947]",1522.4122769003734,None,,,58ND,001,2023_Apr_26_1747,ExactRep-v3-final,2021.2.3,60.03424340180482,
,,,,,,,,,,,,84,0,84,0,,,,,,,,,,,,,,,,,,,,,,,,,,,,,,,,,,,,,,,,,,,,,,,,,1526.7559850001708,None,,,,,,,,,,,,,,,,,,,,,,,,,,,,,,,,,,,,,,,,,,,,,,,,,,,,,,,,,opinion,51,85,silent,old,yellow,1524.2779509006068,None,n,1524.2779509006068,None,"['n', 'return']","[1.4384680995717645, 2.43042270001024]",1524.2779509006068,None,,,58ND,001,2023_Apr_26_1747,ExactRep-v3-final,2021.2.3,60.03424340180482,
,,,,,,,,,,,,85,0,85,0,,,,,,,,,,,,,,,,,,,,,,,,,,,,,,,,,,,,,,,,,,,,,,,,,1529.3252197997645,None,,,,,,,,,,,,,,,,,,,,,,,,,,,,,,,,,,,,,,,,,,,,,,,,,,,,,,,,,fact,119,86,aloud,old,yellow,1527.26757489983,None,y,1527.26757489983,None,"['y', 'return']","[1.7848755000159144, 2.0247893994674087]",1527.26757489983,None,,,58ND,001,2023_Apr_26_1747,ExactRep-v3-final,2021.2.3,60.03424340180482,
,,,,,,,,,,,,86,0,86,0,,,,,,,,,,,,,,,,,,,,,,,,,,,,,,,,,,,,,,,,,,,,,,,,,1531.093560100533,None,,,,,,,,,,,,,,,,,,,,,,,,,,,,,,,,,,,,,,,,,,,,,,,,,,,,,,,,,amount,155,87,silent,new,yellow,1529.8349615000188,None,n,1529.8349615000188,None,"['n', 'return']","[1.0175398997962475, 1.2175470003858209]",1529.8349615000188,None,,,58ND,001,2023_Apr_26_1747,ExactRep-v3-final,2021.2.3,60.03424340180482,
,,,,,,,,,,,,87,0,87,0,,,,,,,,,,,,,,,,,,,,,,,,,,,,,,,,,,,,,,,,,,,,,,,,,1533.3124265000224,None,,,,,,,,,,,,,,,,,,,,,,,,,,,,,,,,,,,,,,,,,,,,,,,,,,,,,,,,,lake,114,88,aloud,old,yellow,1531.6052072998136,None,y,1531.6052072998136,None,"['y', 'return']","[1.455133800394833, 1.6711732000112534]",1531.6052072998136,None,,,58ND,001,2023_Apr_26_1747,ExactRep-v3-final,2021.2.3,60.03424340180482,
,,,,,,,,,,,,88,0,88,0,,,,,,,,,,,,,,,,,,,,,,,,,,,,,,,,,,,,,,,,,,,,,,,,,1536.2654322003946,None,,,,,,,,,,,,,,,,,,,,,,,,,,,,,,,,,,,,,,,,,,,,,,,,,,,,,,,,,moment,42,89,silent,old,yellow,1533.8236042000353,None,n,1533.8236042000353,None,"['n', 'return']","[1.8848245004191995, 2.4048171006143093]",1533.8236042000353,None,,,58ND,001,2023_Apr_26_1747,ExactRep-v3-final,2021.2.3,60.03424340180482,
,,,,,,,,,,,,89,0,89,0,,,,,,,,,,,,,,,,,,,,,,,,,,,,,,,,,,,,,,,,,,,,,,,,,1540.3695299997926,None,,,,,,,,,,,,,,,,,,,,,,,,,,,,,,,,,,,,,,,,,,,,,,,,,,,,,,,,,apple,52,90,silent,old,yellow,1536.7763155000284,None,y,1536.7763155000284,None,"['y', 'return']","[3.316000900231302, 3.548106599599123]",1536.7763155000284,None,,,58ND,001,2023_Apr_26_1747,ExactRep-v3-final,2021.2.3,60.03424340180482,
,,,,,,,,,,,,90,0,90,0,,,,,,,,,,,,,,,,,,,,,,,,,,,,,,,,,,,,,,,,,,,,,,,,,1542.338279100135,None,,,,,,,,,,,,,,,,,,,,,,,,,,,,,,,,,,,,,,,,,,,,,,,,,,,,,,,,,mercy,125,91,silent,new,yellow,1540.8794293003157,None,n,1540.8794293003157,None,"['n', 'return']","[1.2289886996150017, 1.4209983004257083]",1540.8794293003157,None,,,58ND,001,2023_Apr_26_1747,ExactRep-v3-final,2021.2.3,60.03424340180482,
,,,,,,,,,,,,91,0,91,0,,,,,,,,,,,,,,,,,,,,,,,,,,,,,,,,,,,,,,,,,,,,,,,,,1543.7728484002873,None,,,,,,,,,,,,,,,,,,,,,,,,,,,,,,,,,,,,,,,,,,,,,,,,,,,,,,,,,kiss,148,92,silent,new,yellow,1542.850978700444,None,n,1542.850978700444,None,"['n', 'return']","[0.6574221001937985, 0.8894736003130674]",1542.850978700444,None,,,58ND,001,2023_Apr_26_1747,ExactRep-v3-final,2021.2.3,60.03424340180482,
,,,,,,,,,,,,92,0,92,0,,,,,,,,,,,,,,,,,,,,,,,,,,,,,,,,,,,,,,,,,,,,,,,,,1545.2575941001996,None,,,,,,,,,,,,,,,,,,,,,,,,,,,,,,,,,,,,,,,,,,,,,,,,,,,,,,,,,shock,157,93,silent,new,yellow,1544.2832808000967,None,n,1544.2832808000967,None,"['n', 'return']","[0.5931027997285128, 0.929140199907124]",1544.2832808000967,None,,,58ND,001,2023_Apr_26_1747,ExactRep-v3-final,2021.2.3,60.03424340180482,
,,,,,,,,,,,,93,0,93,0,,,,,,,,,,,,,,,,,,,,,,,,,,,,,,,,,,,,,,,,,,,,,,,,,1547.4432554002851,None,,,,,,,,,,,,,,,,,,,,,,,,,,,,,,,,,,,,,,,,,,,,,,,,,,,,,,,,,forest,156,94,silent,new,yellow,1545.7672498999164,None,y,1545.7672498999164,None,"['y', 'return']","[1.3572378000244498, 1.6290610004216433]",1545.7672498999164,None,,,58ND,001,2023_Apr_26_1747,ExactRep-v3-final,2021.2.3,60.03424340180482,
,,,,,,,,,,,,94,0,94,0,,,,,,,,,,,,,,,,,,,,,,,,,,,,,,,,,,,,,,,,,,,,,,,,,1549.5285809002817,None,,,,,,,,,,,,,,,,,,,,,,,,,,,,,,,,,,,,,,,,,,,,,,,,,,,,,,,,,seat,236,95,aloud,new,yellow,1547.943756800145,None,n,1547.943756800145,None,"['n', 'return']","[0.8206375995650887, 1.5406569000333548]",1547.943756800145,None,,,58ND,001,2023_Apr_26_1747,ExactRep-v3-final,2021.2.3,60.03424340180482,
,,,,,,,,,,,,95,0,95,0,,,,,,,,,,,,,,,,,,,,,,,,,,,,,,,,,,,,,,,,,,,,,,,,,1554.4169693998992,None,,,,,,,,,,,,,,,,,,,,,,,,,,,,,,,,,,,,,,,,,,,,,,,,,,,,,,,,,pupil,34,96,sing,old,yellow,1550.0427549006417,None,n,1550.0427549006417,None,"['n', 'return']","[4.105667199939489, 4.337800400331616]",1550.0427549006417,None,,,58ND,001,2023_Apr_26_1747,ExactRep-v3-final,2021.2.3,60.03424340180482,
,,,,,,,,,,,,96,0,96,0,,,,,,,,,,,,,,,,,,,,,,,,,,,,,,,,,,,,,,,,,,,,,,,,,1555.7349387006834,None,,,,,,,,,,,,,,,,,,,,,,,,,,,,,,,,,,,,,,,,,,,,,,,,,,,,,,,,,vessel,146,97,silent,new,yellow,1554.9313007006422,None,n,1554.9313007006422,None,"['n', 'return']","[0.5532029001042247, 0.7690825005993247]",1554.9313007006422,None,,,58ND,001,2023_Apr_26_1747,ExactRep-v3-final,2021.2.3,60.03424340180482,
,,,,,,,,,,,,97,0,97,0,,,,,,,,,,,,,,,,,,,,,,,,,,,,,,,,,,,,,,,,,,,,,,,,,1558.8881339998916,None,,,,,,,,,,,,,,,,,,,,,,,,,,,,,,,,,,,,,,,,,,,,,,,,,,,,,,,,,shame,107,98,aloud,old,yellow,1556.2368499999866,None,y,1556.2368499999866,None,"['n', 'backspace', 'y', 'return']","[0.6876050001010299, 1.9755073999986053, 2.2796210004016757, 2.615802399814129]",1556.2368499999866,None,,,58ND,001,2023_Apr_26_1747,ExactRep-v3-final,2021.2.3,60.03424340180482,
,,,,,,,,,,,,98,0,98,0,,,,,,,,,,,,,,,,,,,,,,,,,,,,,,,,,,,,,,,,,,,,,,,,,1561.4907464999706,None,,,,,,,,,,,,,,,,,,,,,,,,,,,,,,,,,,,,,,,,,,,,,,,,,,,,,,,,,shore,68,99,silent,old,yellow,1559.3962630005553,None,n,1559.3962630005553,None,"['n', 'return']","[1.8883037995547056, 2.0561611000448465]",1559.3962630005553,None,,,58ND,001,2023_Apr_26_1747,ExactRep-v3-final,2021.2.3,60.03424340180482,
,,,,,,,,,,,,99,0,99,0,,,,,,,,,,,,,,,,,,,,,,,,,,,,,,,,,,,,,,,,,,,,,,,,,1562.9586914004758,None,,,,,,,,,,,,,,,,,,,,,,,,,,,,,,,,,,,,,,,,,,,,,,,,,,,,,,,,,ship,7,100,sing,old,yellow,1561.9978307997808,None,n,1561.9978307997808,None,"['n', 'return']","[0.774745000526309, 0.9186185002326965]",1561.9978307997808,None,,,58ND,001,2023_Apr_26_1747,ExactRep-v3-final,2021.2.3,60.03424340180482,
,,,,,,,,,,,,100,0,100,0,,,,,,,,,,,,,,,,,,,,,,,,,,,,,,,,,,,,,,,,,,,,,,,,,1566.4791055005044,None,,,,,,,,,,,,,,,,,,,,,,,,,,,,,,,,,,,,,,,,,,,,,,,,,,,,,,,,,fire,27,101,sing,old,yellow,1563.463468500413,None,n,1563.463468500413,None,"['n', 'return']","[2.7729453993961215, 2.980985699221492]",1563.463468500413,None,,,58ND,001,2023_Apr_26_1747,ExactRep-v3-final,2021.2.3,60.03424340180482,
,,,,,,,,,,,,101,0,101,0,,,,,,,,,,,,,,,,,,,,,,,,,,,,,,,,,,,,,,,,,,,,,,,,,1568.2973629999906,None,,,,,,,,,,,,,,,,,,,,,,,,,,,,,,,,,,,,,,,,,,,,,,,,,,,,,,,,,tree,111,102,aloud,old,yellow,1566.9908445002511,None,y,1566.9908445002511,None,"['y', 'return']","[0.9576106993481517, 1.2616924000903964]",1566.9908445002511,None,,,58ND,001,2023_Apr_26_1747,ExactRep-v3-final,2021.2.3,60.03424340180482,
,,,,,,,,,,,,102,0,102,0,,,,,,,,,,,,,,,,,,,,,,,,,,,,,,,,,,,,,,,,,,,,,,,,,1570.3677662005648,None,,,,,,,,,,,,,,,,,,,,,,,,,,,,,,,,,,,,,,,,,,,,,,,,,,,,,,,,,vision,22,103,sing,old,yellow,1568.8088867003098,None,n,1568.8088867003098,None,"['n', 'return']","[1.3235344998538494, 1.523492599837482]",1568.8088867003098,None,,,58ND,001,2023_Apr_26_1747,ExactRep-v3-final,2021.2.3,60.03424340180482,
,,,,,,,,,,,,103,0,103,0,,,,,,,,,,,,,,,,,,,,,,,,,,,,,,,,,,,,,,,,,,,,,,,,,1573.85288960021,None,,,,,,,,,,,,,,,,,,,,,,,,,,,,,,,,,,,,,,,,,,,,,,,,,,,,,,,,,window,151,104,silent,new,yellow,1570.8745055999607,None,y,1570.8745055999607,None,"['y', 'return']","[2.449910799972713, 2.9459218000993133]",1570.8745055999607,None,,,58ND,001,2023_Apr_26_1747,ExactRep-v3-final,2021.2.3,60.03424340180482,
,,,,,,,,,,,,104,0,104,0,,,,,,,,,,,,,,,,,,,,,,,,,,,,,,,,,,,,,,,,,,,,,,,,,1576.5222711004317,None,,,,,,,,,,,,,,,,,,,,,,,,,,,,,,,,,,,,,,,,,,,,,,,,,,,,,,,,,deed,112,105,aloud,old,yellow,1574.3614697000012,None,y,1574.3614697000012,None,"['y', 'return']","[1.8108002999797463, 2.115045099519193]",1574.3614697000012,None,,,58ND,001,2023_Apr_26_1747,ExactRep-v3-final,2021.2.3,60.03424340180482,
,,,,,,,,,,,,105,0,105,0,,,,,,,,,,,,,,,,,,,,,,,,,,,,,,,,,,,,,,,,,,,,,,,,,1578.6743940003216,None,,,,,,,,,,,,,,,,,,,,,,,,,,,,,,,,,,,,,,,,,,,,,,,,,,,,,,,,,memory,55,106,silent,old,yellow,1577.0325201004744,None,n,1577.0325201004744,None,"['n', 'return']","[1.3880593003705144, 1.6039942996576428]",1577.0325201004744,None,,,58ND,001,2023_Apr_26_1747,ExactRep-v3-final,2021.2.3,60.03424340180482,
,,,,,,,,,,,,106,0,106,0,,,,,,,,,,,,,,,,,,,,,,,,,,,,,,,,,,,,,,,,,,,,,,,,,1579.9424417000264,None,,,,,,,,,,,,,,,,,,,,,,,,,,,,,,,,,,,,,,,,,,,,,,,,,,,,,,,,,pipe,200,107,aloud,new,yellow,1579.184343200177,None,n,1579.184343200177,None,"['n', 'return']","[0.524095400236547, 0.724074300378561]",1579.184343200177,None,,,58ND,001,2023_Apr_26_1747,ExactRep-v3-final,2021.2.3,60.03424340180482,
,,,,,,,,,,,,107,0,107,0,,,,,,,,,,,,,,,,,,,,,,,,,,,,,,,,,,,,,,,,,,,,,,,,,1581.377315199934,None,,,,,,,,,,,,,,,,,,,,,,,,,,,,,,,,,,,,,,,,,,,,,,,,,,,,,,,,,effort,94,108,aloud,old,yellow,1580.4516414003447,None,n,1580.4516414003447,None,"['n', 'return']","[0.6810164004564285, 0.8888587998226285]",1580.4516414003447,None,,,58ND,001,2023_Apr_26_1747,ExactRep-v3-final,2021.2.3,60.03424340180482,
,,,,,,,,,,,,108,0,108,0,,,,,,,,,,,,,,,,,,,,,,,,,,,,,,,,,,,,,,,,,,,,,,,,,1585.130933300592,None,,,,,,,,,,,,,,,,,,,,,,,,,,,,,,,,,,,,,,,,,,,,,,,,,,,,,,,,,fortune,105,109,aloud,old,yellow,1581.8871563998982,None,y,1581.8871563998982,None,"['n', 'backspace', 'y', 'return']","[0.6773149995133281, 1.701375000178814, 2.6374247996136546, 3.2053480995818973]",1581.8871563998982,None,,,58ND,001,2023_Apr_26_1747,ExactRep-v3-final,2021.2.3,60.03424340180482,
,,,,,,,,,,,,109,0,109,0,,,,,,,,,,,,,,,,,,,,,,,,,,,,,,,,,,,,,,,,,,,,,,,,,1586.699164699763,None,,,,,,,,,,,,,,,,,,,,,,,,,,,,,,,,,,,,,,,,,,,,,,,,,,,,,,,,,clock,17,110,sing,old,yellow,1585.6406695004553,None,n,1585.6406695004553,None,"['n', 'return']","[0.7717840997502208, 1.011833700351417]",1585.6406695004553,None,,,58ND,001,2023_Apr_26_1747,ExactRep-v3-final,2021.2.3,60.03424340180482,
,,,,,,,,,,,,110,0,110,0,,,,,,,,,,,,,,,,,,,,,,,,,,,,,,,,,,,,,,,,,,,,,,,,,1589.0348446005955,None,,,,,,,,,,,,,,,,,,,,,,,,,,,,,,,,,,,,,,,,,,,,,,,,,,,,,,,,,justice,163,111,sing,new,yellow,1587.2074971999973,None,y,1587.2074971999973,None,"['y', 'return']","[1.5169690996408463, 1.7890261998400092]",1587.2074971999973,None,,,58ND,001,2023_Apr_26_1747,ExactRep-v3-final,2021.2.3,60.03424340180482,
,,,,,,,,,,,,111,0,111,0,,,,,,,,,,,,,,,,,,,,,,,,,,,,,,,,,,,,,,,,,,,,,,,,,1590.6532410997897,None,,,,,,,,,,,,,,,,,,,,,,,,,,,,,,,,,,,,,,,,,,,,,,,,,,,,,,,,,coffee,1,112,sing,old,yellow,1589.5449512004852,None,n,1589.5449512004852,None,"['n', 'return']","[0.8753720000386238, 1.0754863005131483]",1589.5449512004852,None,,,58ND,001,2023_Apr_26_1747,ExactRep-v3-final,2021.2.3,60.03424340180482,
,,,,,,,,,,,,112,0,112,0,,,,,,,,,,,,,,,,,,,,,,,,,,,,,,,,,,,,,,,,,,,,,,,,,1592.0544373998418,None,,,,,,,,,,,,,,,,,,,,,,,,,,,,,,,,,,,,,,,,,,,,,,,,,,,,,,,,,owner,206,113,aloud,new,yellow,1591.1669370001182,None,n,1591.1669370001182,None,"['n', 'return']","[0.597554000094533, 0.8536564996466041]",1591.1669370001182,None,,,58ND,001,2023_Apr_26_1747,ExactRep-v3-final,2021.2.3,60.03424340180482,
,,,,,,,,,,,,113,0,113,0,,,,,,,,,,,,,,,,,,,,,,,,,,,,,,,,,,,,,,,,,,,,,,,,,1593.4725595004857,None,,,,,,,,,,,,,,,,,,,,,,,,,,,,,,,,,,,,,,,,,,,,,,,,,,,,,,,,,child,175,114,sing,new,yellow,1592.5644295001402,None,n,1592.5644295001402,None,"['n', 'return']","[0.6721483999863267, 0.8721510004252195]",1592.5644295001402,None,,,58ND,001,2023_Apr_26_1747,ExactRep-v3-final,2021.2.3,60.03424340180482,
,,,,,,,,,,,,114,0,114,0,,,,,,,,,,,,,,,,,,,,,,,,,,,,,,,,,,,,,,,,,,,,,,,,,1594.9740011999384,None,,,,,,,,,,,,,,,,,,,,,,,,,,,,,,,,,,,,,,,,,,,,,,,,,,,,,,,,,flesh,123,115,silent,new,yellow,1593.9833885999396,None,n,1593.9833885999396,None,"['n', 'return']","[0.7890170998871326, 0.9490905003622174]",1593.9833885999396,None,,,58ND,001,2023_Apr_26_1747,ExactRep-v3-final,2021.2.3,60.03424340180482,
,,,,,,,,,,,,115,0,115,0,,,,,,,,,,,,,,,,,,,,,,,,,,,,,,,,,,,,,,,,,,,,,,,,,1596.4756419006735,None,,,,,,,,,,,,,,,,,,,,,,,,,,,,,,,,,,,,,,,,,,,,,,,,,,,,,,,,,victory,227,116,sing,new,yellow,1595.490081800148,None,n,1595.490081800148,None,"['n', 'return']","[0.7543201996013522, 0.9383729994297028]",1595.490081800148,None,,,58ND,001,2023_Apr_26_1747,ExactRep-v3-final,2021.2.3,60.03424340180482,
,,,,,,,,,,,,116,0,116,0,,,,,,,,,,,,,,,,,,,,,,,,,,,,,,,,,,,,,,,,,,,,,,,,,1599.8121866006404,None,,,,,,,,,,,,,,,,,,,,,,,,,,,,,,,,,,,,,,,,,,,,,,,,,,,,,,,,,cat,104,117,aloud,old,yellow,1596.9785636002198,None,y,1596.9785636002198,None,"['y', 'return']","[2.4340591998770833, 2.794022399932146]",1596.9785636002198,None,,,58ND,001,2023_Apr_26_1747,ExactRep-v3-final,2021.2.3,60.03424340180482,
,,,,,,,,,,,,117,0,117,0,,,,,,,,,,,,,,,,,,,,,,,,,,,,,,,,,,,,,,,,,,,,,,,,,1601.2803530003875,None,,,,,,,,,,,,,,,,,,,,,,,,,,,,,,,,,,,,,,,,,,,,,,,,,,,,,,,,,temple,54,118,silent,old,yellow,1600.322247600183,None,n,1600.322247600183,None,"['n', 'return']","[0.7301623998209834, 0.9222089992836118]",1600.322247600183,None,,,58ND,001,2023_Apr_26_1747,ExactRep-v3-final,2021.2.3,60.03424340180482,
,,,,,,,,,,,,118,0,118,0,,,,,,,,,,,,,,,,,,,,,,,,,,,,,,,,,,,,,,,,,,,,,,,,,1602.5817169006914,None,,,,,,,,,,,,,,,,,,,,,,,,,,,,,,,,,,,,,,,,,,,,,,,,,,,,,,,,,tool,228,119,aloud,new,yellow,1601.7894958006218,None,n,1601.7894958006218,None,"['n', 'return']","[0.5909561002627015, 0.7591097000986338]",1601.7894958006218,None,,,58ND,001,2023_Apr_26_1747,ExactRep-v3-final,2021.2.3,60.03424340180482,
,,,,,,,,,,,,119,0,119,0,,,,,,,,,,,,,,,,,,,,,,,,,,,,,,,,,,,,,,,,,,,,,,,,,1604.2500145006925,None,,,,,,,,,,,,,,,,,,,,,,,,,,,,,,,,,,,,,,,,,,,,,,,,,,,,,,,,,season,193,120,sing,new,yellow,1603.0905651999637,None,n,1603.0905651999637,None,"['n', 'return']","[0.9538021003827453, 1.122006700374186]",1603.0905651999637,None,,,58ND,001,2023_Apr_26_1747,ExactRep-v3-final,2021.2.3,60.03424340180482,
,,,,,,,,,,,,120,0,120,0,,,,,,,,,,,,,,,,,,,,,,,,,,,,,,,,,,,,,,,,,,,,,,,,,1606.1352622006088,None,,,,,,,,,,,,,,,,,,,,,,,,,,,,,,,,,,,,,,,,,,,,,,,,,,,,,,,,,author,32,121,sing,old,yellow,1604.7629191000015,None,y,1604.7629191000015,None,"['y', 'return']","[1.0255330996587873, 1.3374733999371529]",1604.7629191000015,None,,,58ND,001,2023_Apr_26_1747,ExactRep-v3-final,2021.2.3,60.03424340180482,
,,,,,,,,,,,,121,0,121,0,,,,,,,,,,,,,,,,,,,,,,,,,,,,,,,,,,,,,,,,,,,,,,,,,1608.0704914005473,None,,,,,,,,,,,,,,,,,,,,,,,,,,,,,,,,,,,,,,,,,,,,,,,,,,,,,,,,,student,65,122,silent,old,yellow,1606.6387702003121,None,n,1606.6387702003121,None,"['n', 'return']","[1.213655499741435, 1.3898247992619872]",1606.6387702003121,None,,,58ND,001,2023_Apr_26_1747,ExactRep-v3-final,2021.2.3,60.03424340180482,
,,,,,,,,,,,,122,0,122,0,,,,,,,,,,,,,,,,,,,,,,,,,,,,,,,,,,,,,,,,,,,,,,,,,1609.8389653004706,None,,,,,,,,,,,,,,,,,,,,,,,,,,,,,,,,,,,,,,,,,,,,,,,,,,,,,,,,,fault,191,123,sing,new,yellow,1608.5787089997903,None,n,1608.5787089997903,None,"['n', 'return']","[0.913842000067234, 1.217757100239396]",1608.5787089997903,None,,,58ND,001,2023_Apr_26_1747,ExactRep-v3-final,2021.2.3,60.03424340180482,
,,,,,,,,,,,,123,0,123,0,,,,,,,,,,,,,,,,,,,,,,,,,,,,,,,,,,,,,,,,,,,,,,,,,1612.4583900002763,None,,,,,,,,,,,,,,,,,,,,,,,,,,,,,,,,,,,,,,,,,,,,,,,,,,,,,,,,,woman,38,124,sing,old,yellow,1610.3503627004102,None,n,1610.3503627004102,None,"['n', 'return']","[1.7980843000113964, 2.062136299908161]",1610.3503627004102,None,,,58ND,001,2023_Apr_26_1747,ExactRep-v3-final,2021.2.3,60.03424340180482,
,,,,,,,,,,,,124,0,124,0,,,,,,,,,,,,,,,,,,,,,,,,,,,,,,,,,,,,,,,,,,,,,,,,,1613.9430811004713,None,,,,,,,,,,,,,,,,,,,,,,,,,,,,,,,,,,,,,,,,,,,,,,,,,,,,,,,,,trouble,3,125,sing,old,yellow,1612.963581399992,None,n,1612.963581399992,None,"['n', 'return']","[0.7848291005939245, 0.945015599951148]",1612.963581399992,None,,,58ND,001,2023_Apr_26_1747,ExactRep-v3-final,2021.2.3,60.03424340180482,
,,,,,,,,,,,,125,0,125,0,,,,,,,,,,,,,,,,,,,,,,,,,,,,,,,,,,,,,,,,,,,,,,,,,1615.694937100634,None,,,,,,,,,,,,,,,,,,,,,,,,,,,,,,,,,,,,,,,,,,,,,,,,,,,,,,,,,arm,0,126,sing,old,yellow,1614.459614600055,None,n,1614.459614600055,None,"['n', 'return']","[0.6169122001156211, 1.200894900597632]",1614.459614600055,None,,,58ND,001,2023_Apr_26_1747,ExactRep-v3-final,2021.2.3,60.03424340180482,
,,,,,,,,,,,,126,0,126,0,,,,,,,,,,,,,,,,,,,,,,,,,,,,,,,,,,,,,,,,,,,,,,,,,1617.2964200004935,None,,,,,,,,,,,,,,,,,,,,,,,,,,,,,,,,,,,,,,,,,,,,,,,,,,,,,,,,,corn,13,127,sing,old,yellow,1616.2061443002895,None,y,1616.2061443002895,None,"['y', 'return']","[0.7264646999537945, 1.0464452998712659]",1616.2061443002895,None,,,58ND,001,2023_Apr_26_1747,ExactRep-v3-final,2021.2.3,60.03424340180482,
,,,,,,,,,,,,127,0,127,0,,,,,,,,,,,,,,,,,,,,,,,,,,,,,,,,,,,,,,,,,,,,,,,,,1619.0147975999862,None,,,,,,,,,,,,,,,,,,,,,,,,,,,,,,,,,,,,,,,,,,,,,,,,,,,,,,,,,ability,129,128,silent,new,yellow,1617.8049210002646,None,n,1617.8049210002646,None,"['n', 'return']","[0.6317058000713587, 1.167506500147283]",1617.8049210002646,None,,,58ND,001,2023_Apr_26_1747,ExactRep-v3-final,2021.2.3,60.03424340180482,
,,,,,,,,,,,,128,0,128,0,,,,,,,,,,,,,,,,,,,,,,,,,,,,,,,,,,,,,,,,,,,,,,,,,1620.5544456997886,None,,,,,,,,,,,,,,,,,,,,,,,,,,,,,,,,,,,,,,,,,,,,,,,,,,,,,,,,,meadow,199,129,sing,new,yellow,1619.5245984001085,None,n,1619.5245984001085,None,"['n', 'return']","[0.7119102999567986, 0.9840021999552846]",1619.5245984001085,None,,,58ND,001,2023_Apr_26_1747,ExactRep-v3-final,2021.2.3,60.03424340180482,
