trials_fam.thisRepN,trials_fam.thisTrialN,trials_fam.thisN,trials_fam.thisIndex,trials_prc.thisRepN,trials_prc.thisTrialN,trials_prc.thisN,trials_prc.thisIndex,StudyLoop.thisRepN,StudyLoop.thisTrialN,StudyLoop.thisN,StudyLoop.thisIndex,TestLoop.thisRepN,TestLoop.thisTrialN,TestLoop.thisN,TestLoop.thisIndex,text_colortest.started,text_colortest.stopped,key_colortest.keys,key_colortest.rt,key_colortest.started,key_colortest.stopped,textCondition.started,textCondition.stopped,keyCondition.keys,keyCondition.rt,keyCondition.started,keyCondition.stopped,Condition_between,Condition_counterbal,keyWelcome.keys,keyWelcome.rt,keyWelcome.started,keyWelcome.stopped,welcome_a.started,welcome_a.stopped,welcome_b.started,welcome_b.stopped,welcome_c.started,welcome_c.stopped,welcome_d.started,welcome_d.stopped,welcome_e.started,welcome_e.stopped,welcome_f.started,welcome_f.stopped,key_resp_fam_inst.keys,key_resp_fam_inst.rt,key_resp_fam_inst.started,key_resp_fam_inst.stopped,fam_a.started,fam_a.stopped,fam_b.started,fam_b.stopped,fam_c.started,fam_c.stopped,fam_d.started,fam_d.stopped,fam_e.started,fam_e.stopped,fam_f.started,fam_f.stopped,text_famil.started,text_famil.stopped,textBlank500.started,textBlank500.stopped,key_resp_prc_inst.keys,key_resp_prc_inst.rt,key_resp_prc_inst.started,key_resp_prc_inst.stopped,prac_a.started,prac_a.stopped,prac_b.started,prac_b.stopped,prac_c.started,prac_c.stopped,prac_d.started,prac_d.stopped,prac_e.started,prac_e.stopped,prac_f.started,prac_f.stopped,text_prc_trial.started,text_prc_trial.stopped,key_resp_study_inst.keys,key_resp_study_inst.rt,key_resp_study_inst.started,key_resp_study_inst.stopped,crit_a.started,crit_a.stopped,crit_b.started,crit_b.stopped,crit_c.started,crit_c.stopped,crit_d.started,crit_d.stopped,crit_e.started,crit_e.stopped,crit_f.started,crit_f.stopped,study_word,study_num,study_order,study_type,word_color,textStudy.started,textStudy.stopped,keyStudy.keys,keyStudy.started,keyStudy.stopped,post_study.started,post_study.stopped,key_resp_post_study.keys,key_resp_post_study.rt,key_resp_post_study.started,key_resp_post_study.stopped,test_inst.started,test_inst.stopped,key_resp_test_inst.keys,key_resp_test_inst.rt,key_resp_test_inst.started,key_resp_test_inst.stopped,test_word,test_num,test_order,test_condition,old_new_test,word_color_test,textConf.started,textConf.stopped,Participant Response,textInput.started,textInput.stopped,keyResp.keys,keyResp.rt,keyResp.started,keyResp.stopped,textEnd.started,textEnd.stopped,participant,session,date,expName,psychopyVersion,frameRate,
,,,,,,,,,,,,,,,,20.78858679998666,None,n,0.52485609985888,20.78858679998666,None,,,,,,,,,,,,,,,,,,,,,,,,,,,,,,,,,,,,,,,,,,,,,,,,,,,,,,,,,,,,,,,,,,,,,,,,,,,,,,,,,,,,,,,,,,,,,,,,,,,,,,,,,,,,,,,,,,,,,,59NE,001,2023_Apr_28_0958,ExactRep-v3-final,2021.2.3,59.78215412027395,
,,,,,,,,,,,,,,,,,,,,,,21.341233599931,None,e,0.5640593999996781,21.341233599931,None,,,,,,,,,,,,,,,,,,,,,,,,,,,,,,,,,,,,,,,,,,,,,,,,,,,,,,,,,,,,,,,,,,,,,,,,,,,,,,,,,,,,,,,,,,,,,,,,,,,,,,,,,,,,,,,,59NE,001,2023_Apr_28_0958,ExactRep-v3-final,2021.2.3,59.78215412027395,
,,,,,,,,,,,,,,,,,,,,,,,,,,,,whitefoils,e,space,2278.6164392000064,32.06709329970181,None,,,,,,,,,,,,,,,,,,,,,,,,,,,,,,,,,,,,,,,,,,,,,,,,,,,,,,,,,,,,,,,,,,,,,,,,,,,,,,,,,,,,,,,,,,,,,,,,,,,,,,,,,,59NE,001,2023_Apr_28_0958,ExactRep-v3-final,2021.2.3,59.78215412027395,
,,,,,,,,,,,,,,,,,,,,,,,,,,,,,,,,,,22.098280800506473,None,22.098280800506473,None,22.098280800506473,None,22.098280800506473,None,22.098280800506473,None,22.098280800506473,None,space,30.160014499910176,2320.8675699997693,None,,,,,,,,,,,,,,,,,,,,,,,,,,,,,,,,,,,,,,,,,,,,,,,,,,,,,,,,,,,,,,,,,,,,,,,,,,,,,,,,,,,,,,,,,,59NE,001,2023_Apr_28_0958,ExactRep-v3-final,2021.2.3,59.78215412027395,
0,0,0,0,,,,,,,,,,,,,,,,,,,,,,,,,,,,,,,,,,,,,,,,,,,,,,,2310.8950687004253,None,2310.8950687004253,None,2310.8950687004253,None,2310.8950687004253,None,2310.8950687004253,None,2310.8950687004253,None,2351.151326299645,None,2353.1416691001505,None,,,,,,,,,,,,,,,,,,,,,,,,,,,,,,,,,,,,,,,,,,,,,,,,,,,,,,,,,,,,,,,,,,,,,,,,,,59NE,001,2023_Apr_28_0958,ExactRep-v3-final,2021.2.3,59.78215412027395,
1,0,1,0,,,,,,,,,,,,,,,,,,,,,,,,,,,,,,,,,,,,,,,,,,,,,,,,,,,,,,,,,,,2353.662350400351,None,2355.660825899802,None,,,,,,,,,,,,,,,,,,,,,,,,,,,,,,,,,,,,,,,,,,,,,,,,,,,,,,,,,,,,,,,,,,,,,,,,,,59NE,001,2023_Apr_28_0958,ExactRep-v3-final,2021.2.3,59.78215412027395,
2,0,2,0,,,,,,,,,,,,,,,,,,,,,,,,,,,,,,,,,,,,,,,,,,,,,,,,,,,,,,,,,,,2356.1613904004917,None,2358.163479999639,None,,,,,,,,,,,,,,,,,,,,,,,,,,,,,,,,,,,,,,,,,,,,,,,,,,,,,,,,,,,,,,,,,,,,,,,,,,59NE,001,2023_Apr_28_0958,ExactRep-v3-final,2021.2.3,59.78215412027395,
3,0,3,0,,,,,,,,,,,,,,,,,,,,,,,,,,,,,,,,,,,,,,,,,,,,,,,,,,,,,,,,,,,2358.698056800291,None,2360.68300130032,None,,,,,,,,,,,,,,,,,,,,,,,,,,,,,,,,,,,,,,,,,,,,,,,,,,,,,,,,,,,,,,,,,,,,,,,,,,59NE,001,2023_Apr_28_0958,ExactRep-v3-final,2021.2.3,59.78215412027395,
4,0,4,0,,,,,,,,,,,,,,,,,,,,,,,,,,,,,,,,,,,,,,,,,,,,,,,,,,,,,,,,,,,2361.1838450003415,None,2363.1850973004475,None,,,,,,,,,,,,,,,,,,,,,,,,,,,,,,,,,,,,,,,,,,,,,,,,,,,,,,,,,,,,,,,,,,,,,,,,,,59NE,001,2023_Apr_28_0958,ExactRep-v3-final,2021.2.3,59.78215412027395,
5,0,5,0,,,,,,,,,,,,,,,,,,,,,,,,,,,,,,,,,,,,,,,,,,,,,,,,,,,,,,,,,,,2363.689871000126,None,2365.7044214000925,None,,,,,,,,,,,,,,,,,,,,,,,,,,,,,,,,,,,,,,,,,,,,,,,,,,,,,,,,,,,,,,,,,,,,,,,,,,59NE,001,2023_Apr_28_0958,ExactRep-v3-final,2021.2.3,59.78215412027395,
6,0,6,0,,,,,,,,,,,,,,,,,,,,,,,,,,,,,,,,,,,,,,,,,,,,,,,,,,,,,,,,,,,2366.2051509004086,None,2368.2068704999983,None,,,,,,,,,,,,,,,,,,,,,,,,,,,,,,,,,,,,,,,,,,,,,,,,,,,,,,,,,,,,,,,,,,,,,,,,,,59NE,001,2023_Apr_28_0958,ExactRep-v3-final,2021.2.3,59.78215412027395,
7,0,7,0,,,,,,,,,,,,,,,,,,,,,,,,,,,,,,,,,,,,,,,,,,,,,,,,,,,,,,,,,,,2368.7167020998895,None,2370.7262124996632,None,,,,,,,,,,,,,,,,,,,,,,,,,,,,,,,,,,,,,,,,,,,,,,,,,,,,,,,,,,,,,,,,,,,,,,,,,,59NE,001,2023_Apr_28_0958,ExactRep-v3-final,2021.2.3,59.78215412027395,
8,0,8,0,,,,,,,,,,,,,,,,,,,,,,,,,,,,,,,,,,,,,,,,,,,,,,,,,,,,,,,,,,,2371.226875100285,None,2373.2288089003414,None,,,,,,,,,,,,,,,,,,,,,,,,,,,,,,,,,,,,,,,,,,,,,,,,,,,,,,,,,,,,,,,,,,,,,,,,,,59NE,001,2023_Apr_28_0958,ExactRep-v3-final,2021.2.3,59.78215412027395,
9,0,9,0,,,,,,,,,,,,,,,,,,,,,,,,,,,,,,,,,,,,,,,,,,,,,,,,,,,,,,,,,,,2373.7293937997892,None,2375.7312417002395,None,,,,,,,,,,,,,,,,,,,,,,,,,,,,,,,,,,,,,,,,,,,,,,,,,,,,,,,,,,,,,,,,,,,,,,,,,,59NE,001,2023_Apr_28_0958,ExactRep-v3-final,2021.2.3,59.78215412027395,
10,0,10,0,,,,,,,,,,,,,,,,,,,,,,,,,,,,,,,,,,,,,,,,,,,,,,,,,,,,,,,,,,,2376.2317968998104,None,2378.2337304996327,None,,,,,,,,,,,,,,,,,,,,,,,,,,,,,,,,,,,,,,,,,,,,,,,,,,,,,,,,,,,,,,,,,,,,,,,,,,59NE,001,2023_Apr_28_0958,ExactRep-v3-final,2021.2.3,59.78215412027395,
11,0,11,0,,,,,,,,,,,,,,,,,,,,,,,,,,,,,,,,,,,,,,,,,,,,,,,,,,,,,,,,,,,2378.7376913996413,None,2380.752727200277,None,,,,,,,,,,,,,,,,,,,,,,,,,,,,,,,,,,,,,,,,,,,,,,,,,,,,,,,,,,,,,,,,,,,,,,,,,,59NE,001,2023_Apr_28_0958,ExactRep-v3-final,2021.2.3,59.78215412027395,
12,0,12,0,,,,,,,,,,,,,,,,,,,,,,,,,,,,,,,,,,,,,,,,,,,,,,,,,,,,,,,,,,,2381.2532965997234,None,2383.255266999826,None,,,,,,,,,,,,,,,,,,,,,,,,,,,,,,,,,,,,,,,,,,,,,,,,,,,,,,,,,,,,,,,,,,,,,,,,,,59NE,001,2023_Apr_28_0958,ExactRep-v3-final,2021.2.3,59.78215412027395,
13,0,13,0,,,,,,,,,,,,,,,,,,,,,,,,,,,,,,,,,,,,,,,,,,,,,,,,,,,,,,,,,,,2383.7559984996915,None,2385.7577823996544,None,,,,,,,,,,,,,,,,,,,,,,,,,,,,,,,,,,,,,,,,,,,,,,,,,,,,,,,,,,,,,,,,,,,,,,,,,,59NE,001,2023_Apr_28_0958,ExactRep-v3-final,2021.2.3,59.78215412027395,
14,0,14,0,,,,,,,,,,,,,,,,,,,,,,,,,,,,,,,,,,,,,,,,,,,,,,,,,,,,,,,,,,,2386.260705200024,None,2388.2600247999653,None,,,,,,,,,,,,,,,,,,,,,,,,,,,,,,,,,,,,,,,,,,,,,,,,,,,,,,,,,,,,,,,,,,,,,,,,,,59NE,001,2023_Apr_28_0958,ExactRep-v3-final,2021.2.3,59.78215412027395,
,,,,,,,,,,,,,,,,,,,,,,,,,,,,,,,,,,,,,,,,,,,,,,,,,,,,,,,,,,,,,,,,,,space,53.27946439944208,2398.8761919001117,None,,,,,,,,,,,,,,,,,,,,,,,,,,,,,,,,,,,,,,,,,,,,,,,,,,,,,,,,,,,,,,,,,,,,,,59NE,001,2023_Apr_28_0958,ExactRep-v3-final,2021.2.3,59.78215412027395,
,,,,0,0,0,0,,,,,,,,,,,,,,,,,,,,,,,,,,,,,,,,,,,,,,,,,,,,,,,,,,,,,,,,,2454.242774100043,None,,,,,2388.916085300036,None,2388.916085300036,None,2388.916085300036,None,2388.916085300036,None,2388.916085300036,None,2388.916085300036,None,2452.2349501000717,None,,,,,,,,,,,,,,,,,,,,,,,,,,,,,,,,,,,,,,,,,,,,,,,,,,,,,,,,59NE,001,2023_Apr_28_0958,ExactRep-v3-final,2021.2.3,59.78215412027395,
,,,,1,0,1,0,,,,,,,,,,,,,,,,,,,,,,,,,,,,,,,,,,,,,,,,,,,,,,,,,,,,,,,,,2456.745729399845,None,,,,,,,,,,,,,,,,,2454.74347580038,None,,,,,,,,,,,,,,,,,,,,,,,,,,,,,,,,,,,,,,,,,,,,,,,,,,,,,,,,59NE,001,2023_Apr_28_0958,ExactRep-v3-final,2021.2.3,59.78215412027395,
,,,,2,0,2,0,,,,,,,,,,,,,,,,,,,,,,,,,,,,,,,,,,,,,,,,,,,,,,,,,,,,,,,,,2459.2481668004766,None,,,,,,,,,,,,,,,,,2457.2462633000687,None,,,,,,,,,,,,,,,,,,,,,,,,,,,,,,,,,,,,,,,,,,,,,,,,,,,,,,,,59NE,001,2023_Apr_28_0958,ExactRep-v3-final,2021.2.3,59.78215412027395,
,,,,3,0,3,0,,,,,,,,,,,,,,,,,,,,,,,,,,,,,,,,,,,,,,,,,,,,,,,,,,,,,,,,,2461.750700299628,None,,,,,,,,,,,,,,,,,2459.7483026003465,None,,,,,,,,,,,,,,,,,,,,,,,,,,,,,,,,,,,,,,,,,,,,,,,,,,,,,,,,59NE,001,2023_Apr_28_0958,ExactRep-v3-final,2021.2.3,59.78215412027395,
,,,,4,0,4,0,,,,,,,,,,,,,,,,,,,,,,,,,,,,,,,,,,,,,,,,,,,,,,,,,,,,,,,,,2464.253177200444,None,,,,,,,,,,,,,,,,,2462.251166000031,None,,,,,,,,,,,,,,,,,,,,,,,,,,,,,,,,,,,,,,,,,,,,,,,,,,,,,,,,59NE,001,2023_Apr_28_0958,ExactRep-v3-final,2021.2.3,59.78215412027395,
,,,,5,0,5,0,,,,,,,,,,,,,,,,,,,,,,,,,,,,,,,,,,,,,,,,,,,,,,,,,,,,,,,,,2466.755366800353,None,,,,,,,,,,,,,,,,,2464.753680099733,None,,,,,,,,,,,,,,,,,,,,,,,,,,,,,,,,,,,,,,,,,,,,,,,,,,,,,,,,59NE,001,2023_Apr_28_0958,ExactRep-v3-final,2021.2.3,59.78215412027395,
,,,,6,0,6,0,,,,,,,,,,,,,,,,,,,,,,,,,,,,,,,,,,,,,,,,,,,,,,,,,,,,,,,,,2469.257947199978,None,,,,,,,,,,,,,,,,,2467.2561991997063,None,,,,,,,,,,,,,,,,,,,,,,,,,,,,,,,,,,,,,,,,,,,,,,,,,,,,,,,,59NE,001,2023_Apr_28_0958,ExactRep-v3-final,2021.2.3,59.78215412027395,
,,,,7,0,7,0,,,,,,,,,,,,,,,,,,,,,,,,,,,,,,,,,,,,,,,,,,,,,,,,,,,,,,,,,2471.7603465998545,None,,,,,,,,,,,,,,,,,2469.758577399887,None,,,,,,,,,,,,,,,,,,,,,,,,,,,,,,,,,,,,,,,,,,,,,,,,,,,,,,,,59NE,001,2023_Apr_28_0958,ExactRep-v3-final,2021.2.3,59.78215412027395,
,,,,8,0,8,0,,,,,,,,,,,,,,,,,,,,,,,,,,,,,,,,,,,,,,,,,,,,,,,,,,,,,,,,,2474.263161400333,None,,,,,,,,,,,,,,,,,2472.260955300182,None,,,,,,,,,,,,,,,,,,,,,,,,,,,,,,,,,,,,,,,,,,,,,,,,,,,,,,,,59NE,001,2023_Apr_28_0958,ExactRep-v3-final,2021.2.3,59.78215412027395,
,,,,9,0,9,0,,,,,,,,,,,,,,,,,,,,,,,,,,,,,,,,,,,,,,,,,,,,,,,,,,,,,,,,,2476.765491500497,None,,,,,,,,,,,,,,,,,2474.763707499951,None,,,,,,,,,,,,,,,,,,,,,,,,,,,,,,,,,,,,,,,,,,,,,,,,,,,,,,,,59NE,001,2023_Apr_28_0958,ExactRep-v3-final,2021.2.3,59.78215412027395,
,,,,10,0,10,0,,,,,,,,,,,,,,,,,,,,,,,,,,,,,,,,,,,,,,,,,,,,,,,,,,,,,,,,,2479.2681705998257,None,,,,,,,,,,,,,,,,,2477.2659406997263,None,,,,,,,,,,,,,,,,,,,,,,,,,,,,,,,,,,,,,,,,,,,,,,,,,,,,,,,,59NE,001,2023_Apr_28_0958,ExactRep-v3-final,2021.2.3,59.78215412027395,
,,,,11,0,11,0,,,,,,,,,,,,,,,,,,,,,,,,,,,,,,,,,,,,,,,,,,,,,,,,,,,,,,,,,2481.770623500459,None,,,,,,,,,,,,,,,,,2479.769592200406,None,,,,,,,,,,,,,,,,,,,,,,,,,,,,,,,,,,,,,,,,,,,,,,,,,,,,,,,,59NE,001,2023_Apr_28_0958,ExactRep-v3-final,2021.2.3,59.78215412027395,
,,,,12,0,12,0,,,,,,,,,,,,,,,,,,,,,,,,,,,,,,,,,,,,,,,,,,,,,,,,,,,,,,,,,2484.2729938002303,None,,,,,,,,,,,,,,,,,2482.2709771003574,None,,,,,,,,,,,,,,,,,,,,,,,,,,,,,,,,,,,,,,,,,,,,,,,,,,,,,,,,59NE,001,2023_Apr_28_0958,ExactRep-v3-final,2021.2.3,59.78215412027395,
,,,,13,0,13,0,,,,,,,,,,,,,,,,,,,,,,,,,,,,,,,,,,,,,,,,,,,,,,,,,,,,,,,,,2486.7755990996957,None,,,,,,,,,,,,,,,,,2484.7734006000683,None,,,,,,,,,,,,,,,,,,,,,,,,,,,,,,,,,,,,,,,,,,,,,,,,,,,,,,,,59NE,001,2023_Apr_28_0958,ExactRep-v3-final,2021.2.3,59.78215412027395,
,,,,14,0,14,0,,,,,,,,,,,,,,,,,,,,,,,,,,,,,,,,,,,,,,,,,,,,,,,,,,,,,,,,,2489.2779513997957,None,,,,,,,,,,,,,,,,,2487.276102900505,None,,,,,,,,,,,,,,,,,,,,,,,,,,,,,,,,,,,,,,,,,,,,,,,,,,,,,,,,59NE,001,2023_Apr_28_0958,ExactRep-v3-final,2021.2.3,59.78215412027395,
,,,,,,,,,,,,,,,,,,,,,,,,,,,,,,,,,,,,,,,,,,,,,,,,,,,,,,,,,,,,,,,,,,,,,,,,,,,,,,,,,,,,space,24.856534900143743,2499.859249399975,None,,,,,,,,,,,,,,,,,,,,,,,,,,,,,,,,,,,,,,,,,,,,,,,,,,,,59NE,001,2023_Apr_28_0958,ExactRep-v3-final,2021.2.3,59.78215412027395,
,,,,,,,,0,0,0,0,,,,,,,,,,,,,,,,,,,,,,,,,,,,,,,,,,,,,,,,,,,,,,,,,,,,,2526.8322122003883,None,,,,,,,,,,,,,,,,,,,,,,,2489.9305363995954,None,2489.9305363995954,None,2489.9305363995954,None,2489.9305363995954,None,2489.9305363995954,None,2489.9305363995954,None,fortune,70,1,silent,red,2524.8240807000548,None,None,2524.8240807000548,None,,,,,,,,,,,,,,,,,,,,,,,,,,,,,,59NE,001,2023_Apr_28_0958,ExactRep-v3-final,2021.2.3,59.78215412027395,
,,,,,,,,1,0,1,0,,,,,,,,,,,,,,,,,,,,,,,,,,,,,,,,,,,,,,,,,,,,,,,,,,,,,2529.3348615001887,None,,,,,,,,,,,,,,,,,,,,,,,,,,,,,,,,,,,style,76,2,silent,red,2527.3330552000552,None,None,2527.3330552000552,None,,,,,,,,,,,,,,,,,,,,,,,,,,,,,,59NE,001,2023_Apr_28_0958,ExactRep-v3-final,2021.2.3,59.78215412027395,
,,,,,,,,2,0,2,0,,,,,,,,,,,,,,,,,,,,,,,,,,,,,,,,,,,,,,,,,,,,,,,,,,,,,2531.8374936999753,None,,,,,,,,,,,,,,,,,,,,,,,,,,,,,,,,,,,anger,38,3,sing,blue,2529.837176100351,None,None,2529.837176100351,None,,,,,,,,,,,,,,,,,,,,,,,,,,,,,,59NE,001,2023_Apr_28_0958,ExactRep-v3-final,2021.2.3,59.78215412027395,
,,,,,,,,3,0,3,0,,,,,,,,,,,,,,,,,,,,,,,,,,,,,,,,,,,,,,,,,,,,,,,,,,,,,2534.356596699916,None,,,,,,,,,,,,,,,,,,,,,,,,,,,,,,,,,,,shock,13,4,sing,blue,2532.3509742002934,None,None,2532.3509742002934,None,,,,,,,,,,,,,,,,,,,,,,,,,,,,,,59NE,001,2023_Apr_28_0958,ExactRep-v3-final,2021.2.3,59.78215412027395,
,,,,,,,,4,0,4,0,,,,,,,,,,,,,,,,,,,,,,,,,,,,,,,,,,,,,,,,,,,,,,,,,,,,,2536.859071300365,None,,,,,,,,,,,,,,,,,,,,,,,,,,,,,,,,,,,seat,74,5,silent,red,2534.858627900481,None,None,2534.858627900481,None,,,,,,,,,,,,,,,,,,,,,,,,,,,,,,59NE,001,2023_Apr_28_0958,ExactRep-v3-final,2021.2.3,59.78215412027395,
,,,,,,,,5,0,5,0,,,,,,,,,,,,,,,,,,,,,,,,,,,,,,,,,,,,,,,,,,,,,,,,,,,,,2539.378303600475,None,,,,,,,,,,,,,,,,,,,,,,,,,,,,,,,,,,,officer,11,6,sing,blue,2537.362672800198,None,None,2537.362672800198,None,,,,,,,,,,,,,,,,,,,,,,,,,,,,,,59NE,001,2023_Apr_28_0958,ExactRep-v3-final,2021.2.3,59.78215412027395,
,,,,,,,,6,0,6,0,,,,,,,,,,,,,,,,,,,,,,,,,,,,,,,,,,,,,,,,,,,,,,,,,,,,,2541.8971031997353,None,,,,,,,,,,,,,,,,,,,,,,,,,,,,,,,,,,,humour,112,7,aloud,white,2539.886804900132,None,None,2539.886804900132,None,,,,,,,,,,,,,,,,,,,,,,,,,,,,,,59NE,001,2023_Apr_28_0958,ExactRep-v3-final,2021.2.3,59.78215412027395,
,,,,,,,,7,0,7,0,,,,,,,,,,,,,,,,,,,,,,,,,,,,,,,,,,,,,,,,,,,,,,,,,,,,,2544.39993970003,None,,,,,,,,,,,,,,,,,,,,,,,,,,,,,,,,,,,shoes,23,8,sing,blue,2542.3977923002094,None,None,2542.3977923002094,None,,,,,,,,,,,,,,,,,,,,,,,,,,,,,,59NE,001,2023_Apr_28_0958,ExactRep-v3-final,2021.2.3,59.78215412027395,
,,,,,,,,8,0,8,0,,,,,,,,,,,,,,,,,,,,,,,,,,,,,,,,,,,,,,,,,,,,,,,,,,,,,2546.9195680003613,None,,,,,,,,,,,,,,,,,,,,,,,,,,,,,,,,,,,house,96,9,aloud,white,2544.9086771998554,None,None,2544.9086771998554,None,,,,,,,,,,,,,,,,,,,,,,,,,,,,,,59NE,001,2023_Apr_28_0958,ExactRep-v3-final,2021.2.3,59.78215412027395,
,,,,,,,,9,0,9,0,,,,,,,,,,,,,,,,,,,,,,,,,,,,,,,,,,,,,,,,,,,,,,,,,,,,,2549.438142100349,None,,,,,,,,,,,,,,,,,,,,,,,,,,,,,,,,,,,square,45,10,silent,red,2547.424385400489,None,None,2547.424385400489,None,,,,,,,,,,,,,,,,,,,,,,,,,,,,,,59NE,001,2023_Apr_28_0958,ExactRep-v3-final,2021.2.3,59.78215412027395,
,,,,,,,,10,0,10,0,,,,,,,,,,,,,,,,,,,,,,,,,,,,,,,,,,,,,,,,,,,,,,,,,,,,,2551.940712600015,None,,,,,,,,,,,,,,,,,,,,,,,,,,,,,,,,,,,glory,6,11,sing,blue,2549.939644199796,None,None,2549.939644199796,None,,,,,,,,,,,,,,,,,,,,,,,,,,,,,,59NE,001,2023_Apr_28_0958,ExactRep-v3-final,2021.2.3,59.78215412027395,
,,,,,,,,11,0,11,0,,,,,,,,,,,,,,,,,,,,,,,,,,,,,,,,,,,,,,,,,,,,,,,,,,,,,2554.4596119998023,None,,,,,,,,,,,,,,,,,,,,,,,,,,,,,,,,,,,kiss,87,12,aloud,white,2552.4456152999774,None,None,2552.4456152999774,None,,,,,,,,,,,,,,,,,,,,,,,,,,,,,,59NE,001,2023_Apr_28_0958,ExactRep-v3-final,2021.2.3,59.78215412027395,
,,,,,,,,12,0,12,0,,,,,,,,,,,,,,,,,,,,,,,,,,,,,,,,,,,,,,,,,,,,,,,,,,,,,2556.978939799592,None,,,,,,,,,,,,,,,,,,,,,,,,,,,,,,,,,,,star,84,13,aloud,white,2554.9672536998987,None,None,2554.9672536998987,None,,,,,,,,,,,,,,,,,,,,,,,,,,,,,,59NE,001,2023_Apr_28_0958,ExactRep-v3-final,2021.2.3,59.78215412027395,
,,,,,,,,13,0,13,0,,,,,,,,,,,,,,,,,,,,,,,,,,,,,,,,,,,,,,,,,,,,,,,,,,,,,2559.4816562002525,None,,,,,,,,,,,,,,,,,,,,,,,,,,,,,,,,,,,hide,116,14,aloud,white,2557.47949829977,None,None,2557.47949829977,None,,,,,,,,,,,,,,,,,,,,,,,,,,,,,,59NE,001,2023_Apr_28_0958,ExactRep-v3-final,2021.2.3,59.78215412027395,
,,,,,,,,14,0,14,0,,,,,,,,,,,,,,,,,,,,,,,,,,,,,,,,,,,,,,,,,,,,,,,,,,,,,2562.0008220002055,None,,,,,,,,,,,,,,,,,,,,,,,,,,,,,,,,,,,college,42,15,silent,red,2559.991955500096,None,None,2559.991955500096,None,,,,,,,,,,,,,,,,,,,,,,,,,,,,,,59NE,001,2023_Apr_28_0958,ExactRep-v3-final,2021.2.3,59.78215412027395,
,,,,,,,,15,0,15,0,,,,,,,,,,,,,,,,,,,,,,,,,,,,,,,,,,,,,,,,,,,,,,,,,,,,,2564.5034515997395,None,,,,,,,,,,,,,,,,,,,,,,,,,,,,,,,,,,,mother,115,16,aloud,white,2562.5043476996943,None,None,2562.5043476996943,None,,,,,,,,,,,,,,,,,,,,,,,,,,,,,,59NE,001,2023_Apr_28_0958,ExactRep-v3-final,2021.2.3,59.78215412027395,
,,,,,,,,16,0,16,0,,,,,,,,,,,,,,,,,,,,,,,,,,,,,,,,,,,,,,,,,,,,,,,,,,,,,2567.022353899665,None,,,,,,,,,,,,,,,,,,,,,,,,,,,,,,,,,,,coast,27,17,sing,blue,2565.00744639989,None,None,2565.00744639989,None,,,,,,,,,,,,,,,,,,,,,,,,,,,,,,59NE,001,2023_Apr_28_0958,ExactRep-v3-final,2021.2.3,59.78215412027395,
,,,,,,,,17,0,17,0,,,,,,,,,,,,,,,,,,,,,,,,,,,,,,,,,,,,,,,,,,,,,,,,,,,,,2569.525022899732,None,,,,,,,,,,,,,,,,,,,,,,,,,,,,,,,,,,,victory,86,18,aloud,white,2567.5253104995936,None,None,2567.5253104995936,None,,,,,,,,,,,,,,,,,,,,,,,,,,,,,,59NE,001,2023_Apr_28_0958,ExactRep-v3-final,2021.2.3,59.78215412027395,
,,,,,,,,18,0,18,0,,,,,,,,,,,,,,,,,,,,,,,,,,,,,,,,,,,,,,,,,,,,,,,,,,,,,2572.044111699797,None,,,,,,,,,,,,,,,,,,,,,,,,,,,,,,,,,,,wine,103,19,aloud,white,2570.033783099614,None,None,2570.033783099614,None,,,,,,,,,,,,,,,,,,,,,,,,,,,,,,59NE,001,2023_Apr_28_0958,ExactRep-v3-final,2021.2.3,59.78215412027395,
,,,,,,,,19,0,19,0,,,,,,,,,,,,,,,,,,,,,,,,,,,,,,,,,,,,,,,,,,,,,,,,,,,,,2574.546735299751,None,,,,,,,,,,,,,,,,,,,,,,,,,,,,,,,,,,,history,89,20,aloud,white,2572.546987200156,None,None,2572.546987200156,None,,,,,,,,,,,,,,,,,,,,,,,,,,,,,,59NE,001,2023_Apr_28_0958,ExactRep-v3-final,2021.2.3,59.78215412027395,
,,,,,,,,20,0,20,0,,,,,,,,,,,,,,,,,,,,,,,,,,,,,,,,,,,,,,,,,,,,,,,,,,,,,2577.0490295002237,None,,,,,,,,,,,,,,,,,,,,,,,,,,,,,,,,,,,earth,94,21,aloud,white,2575.0488055003807,None,None,2575.0488055003807,None,,,,,,,,,,,,,,,,,,,,,,,,,,,,,,59NE,001,2023_Apr_28_0958,ExactRep-v3-final,2021.2.3,59.78215412027395,
,,,,,,,,21,0,21,0,,,,,,,,,,,,,,,,,,,,,,,,,,,,,,,,,,,,,,,,,,,,,,,,,,,,,2579.56828700006,None,,,,,,,,,,,,,,,,,,,,,,,,,,,,,,,,,,,sugar,62,22,silent,red,2577.5557557996362,None,None,2577.5557557996362,None,,,,,,,,,,,,,,,,,,,,,,,,,,,,,,59NE,001,2023_Apr_28_0958,ExactRep-v3-final,2021.2.3,59.78215412027395,
,,,,,,,,22,0,22,0,,,,,,,,,,,,,,,,,,,,,,,,,,,,,,,,,,,,,,,,,,,,,,,,,,,,,2582.0708937002346,None,,,,,,,,,,,,,,,,,,,,,,,,,,,,,,,,,,,street,101,23,aloud,white,2580.0687602004036,None,None,2580.0687602004036,None,,,,,,,,,,,,,,,,,,,,,,,,,,,,,,59NE,001,2023_Apr_28_0958,ExactRep-v3-final,2021.2.3,59.78215412027395,
,,,,,,,,23,0,23,0,,,,,,,,,,,,,,,,,,,,,,,,,,,,,,,,,,,,,,,,,,,,,,,,,,,,,2584.5732252001762,None,,,,,,,,,,,,,,,,,,,,,,,,,,,,,,,,,,,prayer,119,24,aloud,white,2582.5712850997224,None,None,2582.5712850997224,None,,,,,,,,,,,,,,,,,,,,,,,,,,,,,,59NE,001,2023_Apr_28_0958,ExactRep-v3-final,2021.2.3,59.78215412027395,
,,,,,,,,24,0,24,0,,,,,,,,,,,,,,,,,,,,,,,,,,,,,,,,,,,,,,,,,,,,,,,,,,,,,2587.0924439998344,None,,,,,,,,,,,,,,,,,,,,,,,,,,,,,,,,,,,fate,18,25,sing,blue,2585.079871600494,None,None,2585.079871600494,None,,,,,,,,,,,,,,,,,,,,,,,,,,,,,,59NE,001,2023_Apr_28_0958,ExactRep-v3-final,2021.2.3,59.78215412027395,
,,,,,,,,25,0,25,0,,,,,,,,,,,,,,,,,,,,,,,,,,,,,,,,,,,,,,,,,,,,,,,,,,,,,2589.595120700076,None,,,,,,,,,,,,,,,,,,,,,,,,,,,,,,,,,,,storm,43,26,silent,red,2587.5930898999795,None,None,2587.5930898999795,None,,,,,,,,,,,,,,,,,,,,,,,,,,,,,,59NE,001,2023_Apr_28_0958,ExactRep-v3-final,2021.2.3,59.78215412027395,
,,,,,,,,26,0,26,0,,,,,,,,,,,,,,,,,,,,,,,,,,,,,,,,,,,,,,,,,,,,,,,,,,,,,2592.114199399948,None,,,,,,,,,,,,,,,,,,,,,,,,,,,,,,,,,,,pride,88,27,aloud,white,2590.101323399693,None,None,2590.101323399693,None,,,,,,,,,,,,,,,,,,,,,,,,,,,,,,59NE,001,2023_Apr_28_0958,ExactRep-v3-final,2021.2.3,59.78215412027395,
,,,,,,,,27,0,27,0,,,,,,,,,,,,,,,,,,,,,,,,,,,,,,,,,,,,,,,,,,,,,,,,,,,,,2594.6332823997363,None,,,,,,,,,,,,,,,,,,,,,,,,,,,,,,,,,,,book,4,28,sing,blue,2592.621330300346,None,None,2592.621330300346,None,,,,,,,,,,,,,,,,,,,,,,,,,,,,,,59NE,001,2023_Apr_28_0958,ExactRep-v3-final,2021.2.3,59.78215412027395,
,,,,,,,,28,0,28,0,,,,,,,,,,,,,,,,,,,,,,,,,,,,,,,,,,,,,,,,,,,,,,,,,,,,,2597.135768200271,None,,,,,,,,,,,,,,,,,,,,,,,,,,,,,,,,,,,fault,60,29,silent,red,2595.135126300156,None,None,2595.135126300156,None,,,,,,,,,,,,,,,,,,,,,,,,,,,,,,59NE,001,2023_Apr_28_0958,ExactRep-v3-final,2021.2.3,59.78215412027395,
,,,,,,,,29,0,29,0,,,,,,,,,,,,,,,,,,,,,,,,,,,,,,,,,,,,,,,,,,,,,,,,,,,,,2599.6385933002457,None,,,,,,,,,,,,,,,,,,,,,,,,,,,,,,,,,,,custom,40,30,silent,red,2597.636337400414,None,None,2597.636337400414,None,,,,,,,,,,,,,,,,,,,,,,,,,,,,,,59NE,001,2023_Apr_28_0958,ExactRep-v3-final,2021.2.3,59.78215412027395,
,,,,,,,,30,0,30,0,,,,,,,,,,,,,,,,,,,,,,,,,,,,,,,,,,,,,,,,,,,,,,,,,,,,,2602.157678999938,None,,,,,,,,,,,,,,,,,,,,,,,,,,,,,,,,,,,flesh,111,31,aloud,white,2600.142542500049,None,None,2600.142542500049,None,,,,,,,,,,,,,,,,,,,,,,,,,,,,,,59NE,001,2023_Apr_28_0958,ExactRep-v3-final,2021.2.3,59.78215412027395,
,,,,,,,,31,0,31,0,,,,,,,,,,,,,,,,,,,,,,,,,,,,,,,,,,,,,,,,,,,,,,,,,,,,,2604.6599890999496,None,,,,,,,,,,,,,,,,,,,,,,,,,,,,,,,,,,,ability,10,32,sing,blue,2602.6587308002636,None,None,2602.6587308002636,None,,,,,,,,,,,,,,,,,,,,,,,,,,,,,,59NE,001,2023_Apr_28_0958,ExactRep-v3-final,2021.2.3,59.78215412027395,
,,,,,,,,32,0,32,0,,,,,,,,,,,,,,,,,,,,,,,,,,,,,,,,,,,,,,,,,,,,,,,,,,,,,2607.162690400146,None,,,,,,,,,,,,,,,,,,,,,,,,,,,,,,,,,,,passion,2,33,sing,blue,2605.161457300186,None,None,2605.161457300186,None,,,,,,,,,,,,,,,,,,,,,,,,,,,,,,59NE,001,2023_Apr_28_0958,ExactRep-v3-final,2021.2.3,59.78215412027395,
,,,,,,,,33,0,33,0,,,,,,,,,,,,,,,,,,,,,,,,,,,,,,,,,,,,,,,,,,,,,,,,,,,,,2609.6818545004353,None,,,,,,,,,,,,,,,,,,,,,,,,,,,,,,,,,,,palace,17,34,sing,blue,2607.6680664001033,None,None,2607.6680664001033,None,,,,,,,,,,,,,,,,,,,,,,,,,,,,,,59NE,001,2023_Apr_28_0958,ExactRep-v3-final,2021.2.3,59.78215412027395,
,,,,,,,,34,0,34,0,,,,,,,,,,,,,,,,,,,,,,,,,,,,,,,,,,,,,,,,,,,,,,,,,,,,,2612.184174899943,None,,,,,,,,,,,,,,,,,,,,,,,,,,,,,,,,,,,steam,64,35,silent,red,2610.182340200059,None,None,2610.182340200059,None,,,,,,,,,,,,,,,,,,,,,,,,,,,,,,59NE,001,2023_Apr_28_0958,ExactRep-v3-final,2021.2.3,59.78215412027395,
,,,,,,,,35,0,35,0,,,,,,,,,,,,,,,,,,,,,,,,,,,,,,,,,,,,,,,,,,,,,,,,,,,,,2614.70340950042,None,,,,,,,,,,,,,,,,,,,,,,,,,,,,,,,,,,,corner,68,36,silent,red,2612.69394559972,None,None,2612.69394559972,None,,,,,,,,,,,,,,,,,,,,,,,,,,,,,,59NE,001,2023_Apr_28_0958,ExactRep-v3-final,2021.2.3,59.78215412027395,
,,,,,,,,36,0,36,0,,,,,,,,,,,,,,,,,,,,,,,,,,,,,,,,,,,,,,,,,,,,,,,,,,,,,2617.205872300081,None,,,,,,,,,,,,,,,,,,,,,,,,,,,,,,,,,,,king,55,37,silent,red,2615.203865800053,None,None,2615.203865800053,None,,,,,,,,,,,,,,,,,,,,,,,,,,,,,,59NE,001,2023_Apr_28_0958,ExactRep-v3-final,2021.2.3,59.78215412027395,
,,,,,,,,37,0,37,0,,,,,,,,,,,,,,,,,,,,,,,,,,,,,,,,,,,,,,,,,,,,,,,,,,,,,2619.7084496002644,None,,,,,,,,,,,,,,,,,,,,,,,,,,,,,,,,,,,river,104,38,aloud,white,2617.7065078997985,None,None,2617.7065078997985,None,,,,,,,,,,,,,,,,,,,,,,,,,,,,,,59NE,001,2023_Apr_28_0958,ExactRep-v3-final,2021.2.3,59.78215412027395,
,,,,,,,,38,0,38,0,,,,,,,,,,,,,,,,,,,,,,,,,,,,,,,,,,,,,,,,,,,,,,,,,,,,,2622.227696799673,None,,,,,,,,,,,,,,,,,,,,,,,,,,,,,,,,,,,colony,73,39,silent,red,2620.21531879995,None,None,2620.21531879995,None,,,,,,,,,,,,,,,,,,,,,,,,,,,,,,59NE,001,2023_Apr_28_0958,ExactRep-v3-final,2021.2.3,59.78215412027395,
,,,,,,,,39,0,39,0,,,,,,,,,,,,,,,,,,,,,,,,,,,,,,,,,,,,,,,,,,,,,,,,,,,,,2624.7301072999835,None,,,,,,,,,,,,,,,,,,,,,,,,,,,,,,,,,,,ticket,63,40,silent,red,2622.728824900463,None,None,2622.728824900463,None,,,,,,,,,,,,,,,,,,,,,,,,,,,,,,59NE,001,2023_Apr_28_0958,ExactRep-v3-final,2021.2.3,59.78215412027395,
,,,,,,,,40,0,40,0,,,,,,,,,,,,,,,,,,,,,,,,,,,,,,,,,,,,,,,,,,,,,,,,,,,,,2627.232779700309,None,,,,,,,,,,,,,,,,,,,,,,,,,,,,,,,,,,,quality,108,41,aloud,white,2625.23129399959,None,None,2625.23129399959,None,,,,,,,,,,,,,,,,,,,,,,,,,,,,,,59NE,001,2023_Apr_28_0958,ExactRep-v3-final,2021.2.3,59.78215412027395,
,,,,,,,,41,0,41,0,,,,,,,,,,,,,,,,,,,,,,,,,,,,,,,,,,,,,,,,,,,,,,,,,,,,,2629.752066500485,None,,,,,,,,,,,,,,,,,,,,,,,,,,,,,,,,,,,freedom,83,42,aloud,white,2627.7367110000923,None,None,2627.7367110000923,None,,,,,,,,,,,,,,,,,,,,,,,,,,,,,,59NE,001,2023_Apr_28_0958,ExactRep-v3-final,2021.2.3,59.78215412027395,
,,,,,,,,42,0,42,0,,,,,,,,,,,,,,,,,,,,,,,,,,,,,,,,,,,,,,,,,,,,,,,,,,,,,2632.2544240998104,None,,,,,,,,,,,,,,,,,,,,,,,,,,,,,,,,,,,rod,109,43,aloud,white,2630.252269499935,None,None,2630.252269499935,None,,,,,,,,,,,,,,,,,,,,,,,,,,,,,,59NE,001,2023_Apr_28_0958,ExactRep-v3-final,2021.2.3,59.78215412027395,
,,,,,,,,43,0,43,0,,,,,,,,,,,,,,,,,,,,,,,,,,,,,,,,,,,,,,,,,,,,,,,,,,,,,2634.7569271996617,None,,,,,,,,,,,,,,,,,,,,,,,,,,,,,,,,,,,machine,77,44,silent,red,2632.7573712002486,None,None,2632.7573712002486,None,,,,,,,,,,,,,,,,,,,,,,,,,,,,,,59NE,001,2023_Apr_28_0958,ExactRep-v3-final,2021.2.3,59.78215412027395,
,,,,,,,,44,0,44,0,,,,,,,,,,,,,,,,,,,,,,,,,,,,,,,,,,,,,,,,,,,,,,,,,,,,,2637.2592305997387,None,,,,,,,,,,,,,,,,,,,,,,,,,,,,,,,,,,,sky,95,45,aloud,white,2635.258993100375,None,None,2635.258993100375,None,,,,,,,,,,,,,,,,,,,,,,,,,,,,,,59NE,001,2023_Apr_28_0958,ExactRep-v3-final,2021.2.3,59.78215412027395,
,,,,,,,,45,0,45,0,,,,,,,,,,,,,,,,,,,,,,,,,,,,,,,,,,,,,,,,,,,,,,,,,,,,,2639.7619872996584,None,,,,,,,,,,,,,,,,,,,,,,,,,,,,,,,,,,,arm,91,46,aloud,white,2637.75989519991,None,None,2637.75989519991,None,,,,,,,,,,,,,,,,,,,,,,,,,,,,,,59NE,001,2023_Apr_28_0958,ExactRep-v3-final,2021.2.3,59.78215412027395,
,,,,,,,,46,0,46,0,,,,,,,,,,,,,,,,,,,,,,,,,,,,,,,,,,,,,,,,,,,,,,,,,,,,,2642.2811810998246,None,,,,,,,,,,,,,,,,,,,,,,,,,,,,,,,,,,,deed,46,47,silent,red,2640.266306400299,None,None,2640.266306400299,None,,,,,,,,,,,,,,,,,,,,,,,,,,,,,,59NE,001,2023_Apr_28_0958,ExactRep-v3-final,2021.2.3,59.78215412027395,
,,,,,,,,47,0,47,0,,,,,,,,,,,,,,,,,,,,,,,,,,,,,,,,,,,,,,,,,,,,,,,,,,,,,2644.800289399922,None,,,,,,,,,,,,,,,,,,,,,,,,,,,,,,,,,,,dream,85,48,aloud,white,2642.785006799735,None,None,2642.785006799735,None,,,,,,,,,,,,,,,,,,,,,,,,,,,,,,59NE,001,2023_Apr_28_0958,ExactRep-v3-final,2021.2.3,59.78215412027395,
,,,,,,,,48,0,48,0,,,,,,,,,,,,,,,,,,,,,,,,,,,,,,,,,,,,,,,,,,,,,,,,,,,,,2647.302838999778,None,,,,,,,,,,,,,,,,,,,,,,,,,,,,,,,,,,,friend,19,49,sing,blue,2645.300691500306,None,None,2645.300691500306,None,,,,,,,,,,,,,,,,,,,,,,,,,,,,,,59NE,001,2023_Apr_28_0958,ExactRep-v3-final,2021.2.3,59.78215412027395,
,,,,,,,,49,0,49,0,,,,,,,,,,,,,,,,,,,,,,,,,,,,,,,,,,,,,,,,,,,,,,,,,,,,,2649.8220627000555,None,,,,,,,,,,,,,,,,,,,,,,,,,,,,,,,,,,,present,52,50,silent,red,2647.80918319989,None,None,2647.80918319989,None,,,,,,,,,,,,,,,,,,,,,,,,,,,,,,59NE,001,2023_Apr_28_0958,ExactRep-v3-final,2021.2.3,59.78215412027395,
,,,,,,,,50,0,50,0,,,,,,,,,,,,,,,,,,,,,,,,,,,,,,,,,,,,,,,,,,,,,,,,,,,,,2652.341046700254,None,,,,,,,,,,,,,,,,,,,,,,,,,,,,,,,,,,,teacher,66,51,silent,red,2650.3255738001317,None,None,2650.3255738001317,None,,,,,,,,,,,,,,,,,,,,,,,,,,,,,,59NE,001,2023_Apr_28_0958,ExactRep-v3-final,2021.2.3,59.78215412027395,
,,,,,,,,51,0,51,0,,,,,,,,,,,,,,,,,,,,,,,,,,,,,,,,,,,,,,,,,,,,,,,,,,,,,2654.8437200998887,None,,,,,,,,,,,,,,,,,,,,,,,,,,,,,,,,,,,answer,29,52,sing,blue,2652.841554099694,None,None,2652.841554099694,None,,,,,,,,,,,,,,,,,,,,,,,,,,,,,,59NE,001,2023_Apr_28_0958,ExactRep-v3-final,2021.2.3,59.78215412027395,
,,,,,,,,52,0,52,0,,,,,,,,,,,,,,,,,,,,,,,,,,,,,,,,,,,,,,,,,,,,,,,,,,,,,2657.362912000157,None,,,,,,,,,,,,,,,,,,,,,,,,,,,,,,,,,,,judge,26,53,sing,blue,2655.3529035001993,None,None,2655.3529035001993,None,,,,,,,,,,,,,,,,,,,,,,,,,,,,,,59NE,001,2023_Apr_28_0958,ExactRep-v3-final,2021.2.3,59.78215412027395,
,,,,,,,,53,0,53,0,,,,,,,,,,,,,,,,,,,,,,,,,,,,,,,,,,,,,,,,,,,,,,,,,,,,,2659.865407399833,None,,,,,,,,,,,,,,,,,,,,,,,,,,,,,,,,,,,dawn,3,54,sing,blue,2657.8658827999607,None,None,2657.8658827999607,None,,,,,,,,,,,,,,,,,,,,,,,,,,,,,,59NE,001,2023_Apr_28_0958,ExactRep-v3-final,2021.2.3,59.78215412027395,
,,,,,,,,54,0,54,0,,,,,,,,,,,,,,,,,,,,,,,,,,,,,,,,,,,,,,,,,,,,,,,,,,,,,2662.3844424001873,None,,,,,,,,,,,,,,,,,,,,,,,,,,,,,,,,,,,prison,54,55,silent,red,2660.3702443996444,None,None,2660.3702443996444,None,,,,,,,,,,,,,,,,,,,,,,,,,,,,,,59NE,001,2023_Apr_28_0958,ExactRep-v3-final,2021.2.3,59.78215412027395,
,,,,,,,,55,0,55,0,,,,,,,,,,,,,,,,,,,,,,,,,,,,,,,,,,,,,,,,,,,,,,,,,,,,,2664.903714600019,None,,,,,,,,,,,,,,,,,,,,,,,,,,,,,,,,,,,disease,44,56,silent,red,2662.8883566996083,None,None,2662.8883566996083,None,,,,,,,,,,,,,,,,,,,,,,,,,,,,,,59NE,001,2023_Apr_28_0958,ExactRep-v3-final,2021.2.3,59.78215412027395,
,,,,,,,,56,0,56,0,,,,,,,,,,,,,,,,,,,,,,,,,,,,,,,,,,,,,,,,,,,,,,,,,,,,,2667.4063630998135,None,,,,,,,,,,,,,,,,,,,,,,,,,,,,,,,,,,,dust,90,57,aloud,white,2665.4046700000763,None,None,2665.4046700000763,None,,,,,,,,,,,,,,,,,,,,,,,,,,,,,,59NE,001,2023_Apr_28_0958,ExactRep-v3-final,2021.2.3,59.78215412027395,
,,,,,,,,57,0,57,0,,,,,,,,,,,,,,,,,,,,,,,,,,,,,,,,,,,,,,,,,,,,,,,,,,,,,2669.9255136996508,None,,,,,,,,,,,,,,,,,,,,,,,,,,,,,,,,,,,engine,32,58,sing,blue,2667.9127238001674,None,None,2667.9127238001674,None,,,,,,,,,,,,,,,,,,,,,,,,,,,,,,59NE,001,2023_Apr_28_0958,ExactRep-v3-final,2021.2.3,59.78215412027395,
,,,,,,,,58,0,58,0,,,,,,,,,,,,,,,,,,,,,,,,,,,,,,,,,,,,,,,,,,,,,,,,,,,,,2672.427782200277,None,,,,,,,,,,,,,,,,,,,,,,,,,,,,,,,,,,,skin,9,59,sing,blue,2670.425792200491,None,None,2670.425792200491,None,,,,,,,,,,,,,,,,,,,,,,,,,,,,,,59NE,001,2023_Apr_28_0958,ExactRep-v3-final,2021.2.3,59.78215412027395,
,,,,,,,,59,0,59,0,,,,,,,,,,,,,,,,,,,,,,,,,,,,,,,,,,,,,,,,,,,,,,,,,,,,,2674.930423599668,None,,,,,,,,,,,,,,,,,,,,,,,,,,,,,,,,,,,pole,105,60,aloud,white,2672.9313347004354,None,None,2672.9313347004354,None,,,,,,,,,,,,,,,,,,,,,,,,,,,,,,59NE,001,2023_Apr_28_0958,ExactRep-v3-final,2021.2.3,59.78215412027395,
,,,,,,,,60,0,60,0,,,,,,,,,,,,,,,,,,,,,,,,,,,,,,,,,,,,,,,,,,,,,,,,,,,,,2677.4502667998895,None,,,,,,,,,,,,,,,,,,,,,,,,,,,,,,,,,,,factory,5,61,sing,blue,2675.4350225003436,None,None,2675.4350225003436,None,,,,,,,,,,,,,,,,,,,,,,,,,,,,,,59NE,001,2023_Apr_28_0958,ExactRep-v3-final,2021.2.3,59.78215412027395,
,,,,,,,,61,0,61,0,,,,,,,,,,,,,,,,,,,,,,,,,,,,,,,,,,,,,,,,,,,,,,,,,,,,,2679.9686981998384,None,,,,,,,,,,,,,,,,,,,,,,,,,,,,,,,,,,,valley,118,62,aloud,white,2677.954226399772,None,None,2677.954226399772,None,,,,,,,,,,,,,,,,,,,,,,,,,,,,,,59NE,001,2023_Apr_28_0958,ExactRep-v3-final,2021.2.3,59.78215412027395,
,,,,,,,,62,0,62,0,,,,,,,,,,,,,,,,,,,,,,,,,,,,,,,,,,,,,,,,,,,,,,,,,,,,,2682.4712854996324,None,,,,,,,,,,,,,,,,,,,,,,,,,,,,,,,,,,,charm,75,63,silent,red,2680.4691551998258,None,None,2680.4691551998258,None,,,,,,,,,,,,,,,,,,,,,,,,,,,,,,59NE,001,2023_Apr_28_0958,ExactRep-v3-final,2021.2.3,59.78215412027395,
,,,,,,,,63,0,63,0,,,,,,,,,,,,,,,,,,,,,,,,,,,,,,,,,,,,,,,,,,,,,,,,,,,,,2684.973778700456,None,,,,,,,,,,,,,,,,,,,,,,,,,,,,,,,,,,,city,36,64,sing,blue,2682.972871599719,None,None,2682.972871599719,None,,,,,,,,,,,,,,,,,,,,,,,,,,,,,,59NE,001,2023_Apr_28_0958,ExactRep-v3-final,2021.2.3,59.78215412027395,
,,,,,,,,64,0,64,0,,,,,,,,,,,,,,,,,,,,,,,,,,,,,,,,,,,,,,,,,,,,,,,,,,,,,2687.4932458996773,None,,,,,,,,,,,,,,,,,,,,,,,,,,,,,,,,,,,death,50,65,silent,red,2685.4783049998805,None,None,2685.4783049998805,None,,,,,,,,,,,,,,,,,,,,,,,,,,,,,,59NE,001,2023_Apr_28_0958,ExactRep-v3-final,2021.2.3,59.78215412027395,
,,,,,,,,65,0,65,0,,,,,,,,,,,,,,,,,,,,,,,,,,,,,,,,,,,,,,,,,,,,,,,,,,,,,2689.995326699689,None,,,,,,,,,,,,,,,,,,,,,,,,,,,,,,,,,,,bowl,49,66,silent,red,2687.9933802997693,None,None,2687.9933802997693,None,,,,,,,,,,,,,,,,,,,,,,,,,,,,,,59NE,001,2023_Apr_28_0958,ExactRep-v3-final,2021.2.3,59.78215412027395,
,,,,,,,,66,0,66,0,,,,,,,,,,,,,,,,,,,,,,,,,,,,,,,,,,,,,,,,,,,,,,,,,,,,,2692.4978181999177,None,,,,,,,,,,,,,,,,,,,,,,,,,,,,,,,,,,,fire,56,67,silent,red,2690.4960158998147,None,None,2690.4960158998147,None,,,,,,,,,,,,,,,,,,,,,,,,,,,,,,59NE,001,2023_Apr_28_0958,ExactRep-v3-final,2021.2.3,59.78215412027395,
,,,,,,,,67,0,67,0,,,,,,,,,,,,,,,,,,,,,,,,,,,,,,,,,,,,,,,,,,,,,,,,,,,,,2695.0005321996287,None,,,,,,,,,,,,,,,,,,,,,,,,,,,,,,,,,,,power,8,68,sing,blue,2692.999320199713,None,None,2692.999320199713,None,,,,,,,,,,,,,,,,,,,,,,,,,,,,,,59NE,001,2023_Apr_28_0958,ExactRep-v3-final,2021.2.3,59.78215412027395,
,,,,,,,,68,0,68,0,,,,,,,,,,,,,,,,,,,,,,,,,,,,,,,,,,,,,,,,,,,,,,,,,,,,,2697.5028098002076,None,,,,,,,,,,,,,,,,,,,,,,,,,,,,,,,,,,,doctor,25,69,sing,blue,2695.5013370998204,None,None,2695.5013370998204,None,,,,,,,,,,,,,,,,,,,,,,,,,,,,,,59NE,001,2023_Apr_28_0958,ExactRep-v3-final,2021.2.3,59.78215412027395,
,,,,,,,,69,0,69,0,,,,,,,,,,,,,,,,,,,,,,,,,,,,,,,,,,,,,,,,,,,,,,,,,,,,,2700.022015900351,None,,,,,,,,,,,,,,,,,,,,,,,,,,,,,,,,,,,weapon,58,70,silent,red,2698.0079289004207,None,None,2698.0079289004207,None,,,,,,,,,,,,,,,,,,,,,,,,,,,,,,59NE,001,2023_Apr_28_0958,ExactRep-v3-final,2021.2.3,59.78215412027395,
,,,,,,,,70,0,70,0,,,,,,,,,,,,,,,,,,,,,,,,,,,,,,,,,,,,,,,,,,,,,,,,,,,,,2702.541389799677,None,,,,,,,,,,,,,,,,,,,,,,,,,,,,,,,,,,,theory,28,71,sing,blue,2700.536356699653,None,None,2700.536356699653,None,,,,,,,,,,,,,,,,,,,,,,,,,,,,,,59NE,001,2023_Apr_28_0958,ExactRep-v3-final,2021.2.3,59.78215412027395,
,,,,,,,,71,0,71,0,,,,,,,,,,,,,,,,,,,,,,,,,,,,,,,,,,,,,,,,,,,,,,,,,,,,,2705.043843500316,None,,,,,,,,,,,,,,,,,,,,,,,,,,,,,,,,,,,nail,31,72,sing,blue,2703.041899899952,None,None,2703.041899899952,None,,,,,,,,,,,,,,,,,,,,,,,,,,,,,,59NE,001,2023_Apr_28_0958,ExactRep-v3-final,2021.2.3,59.78215412027395,
,,,,,,,,72,0,72,0,,,,,,,,,,,,,,,,,,,,,,,,,,,,,,,,,,,,,,,,,,,,,,,,,,,,,2707.5462605003268,None,,,,,,,,,,,,,,,,,,,,,,,,,,,,,,,,,,,stone,15,73,sing,blue,2705.54470129963,None,None,2705.54470129963,None,,,,,,,,,,,,,,,,,,,,,,,,,,,,,,59NE,001,2023_Apr_28_0958,ExactRep-v3-final,2021.2.3,59.78215412027395,
,,,,,,,,73,0,73,0,,,,,,,,,,,,,,,,,,,,,,,,,,,,,,,,,,,,,,,,,,,,,,,,,,,,,2710.065534199588,None,,,,,,,,,,,,,,,,,,,,,,,,,,,,,,,,,,,lake,113,74,aloud,white,2708.0504497000948,None,None,2708.0504497000948,None,,,,,,,,,,,,,,,,,,,,,,,,,,,,,,59NE,001,2023_Apr_28_0958,ExactRep-v3-final,2021.2.3,59.78215412027395,
,,,,,,,,74,0,74,0,,,,,,,,,,,,,,,,,,,,,,,,,,,,,,,,,,,,,,,,,,,,,,,,,,,,,2712.568063599989,None,,,,,,,,,,,,,,,,,,,,,,,,,,,,,,,,,,,meeting,71,75,silent,red,2710.565714499913,None,None,2710.565714499913,None,,,,,,,,,,,,,,,,,,,,,,,,,,,,,,59NE,001,2023_Apr_28_0958,ExactRep-v3-final,2021.2.3,59.78215412027395,
,,,,,,,,75,0,75,0,,,,,,,,,,,,,,,,,,,,,,,,,,,,,,,,,,,,,,,,,,,,,,,,,,,,,2715.087113100104,None,,,,,,,,,,,,,,,,,,,,,,,,,,,,,,,,,,,flood,93,76,aloud,white,2713.07266779989,None,None,2713.07266779989,None,,,,,,,,,,,,,,,,,,,,,,,,,,,,,,59NE,001,2023_Apr_28_0958,ExactRep-v3-final,2021.2.3,59.78215412027395,
,,,,,,,,76,0,76,0,,,,,,,,,,,,,,,,,,,,,,,,,,,,,,,,,,,,,,,,,,,,,,,,,,,,,2717.5895777000114,None,,,,,,,,,,,,,,,,,,,,,,,,,,,,,,,,,,,hall,33,77,sing,blue,2715.58886730019,None,None,2715.58886730019,None,,,,,,,,,,,,,,,,,,,,,,,,,,,,,,59NE,001,2023_Apr_28_0958,ExactRep-v3-final,2021.2.3,59.78215412027395,
,,,,,,,,77,0,77,0,,,,,,,,,,,,,,,,,,,,,,,,,,,,,,,,,,,,,,,,,,,,,,,,,,,,,2720.1087819999084,None,,,,,,,,,,,,,,,,,,,,,,,,,,,,,,,,,,,girl,37,78,sing,blue,2718.0952144004405,None,None,2718.0952144004405,None,,,,,,,,,,,,,,,,,,,,,,,,,,,,,,59NE,001,2023_Apr_28_0958,ExactRep-v3-final,2021.2.3,59.78215412027395,
,,,,,,,,78,0,78,0,,,,,,,,,,,,,,,,,,,,,,,,,,,,,,,,,,,,,,,,,,,,,,,,,,,,,2722.6112845996395,None,,,,,,,,,,,,,,,,,,,,,,,,,,,,,,,,,,,gold,98,79,aloud,white,2720.6104105999693,None,None,2720.6104105999693,None,,,,,,,,,,,,,,,,,,,,,,,,,,,,,,59NE,001,2023_Apr_28_0958,ExactRep-v3-final,2021.2.3,59.78215412027395,
,,,,,,,,79,0,79,0,,,,,,,,,,,,,,,,,,,,,,,,,,,,,,,,,,,,,,,,,,,,,,,,,,,,,2725.1304705003276,None,,,,,,,,,,,,,,,,,,,,,,,,,,,,,,,,,,,clock,97,80,aloud,white,2723.1192685998976,None,None,2723.1192685998976,None,,,,,,,,,,,,,,,,,,,,,,,,,,,,,,59NE,001,2023_Apr_28_0958,ExactRep-v3-final,2021.2.3,59.78215412027395,
,,,,,,,,80,0,80,0,,,,,,,,,,,,,,,,,,,,,,,,,,,,,,,,,,,,,,,,,,,,,,,,,,,,,2727.6329480996355,None,,,,,,,,,,,,,,,,,,,,,,,,,,,,,,,,,,,safety,61,81,silent,red,2725.631148699671,None,None,2725.631148699671,None,,,,,,,,,,,,,,,,,,,,,,,,,,,,,,59NE,001,2023_Apr_28_0958,ExactRep-v3-final,2021.2.3,59.78215412027395,
,,,,,,,,81,0,81,0,,,,,,,,,,,,,,,,,,,,,,,,,,,,,,,,,,,,,,,,,,,,,,,,,,,,,2730.152280700393,None,,,,,,,,,,,,,,,,,,,,,,,,,,,,,,,,,,,excuse,7,82,sing,blue,2728.1384389000013,None,None,2728.1384389000013,None,,,,,,,,,,,,,,,,,,,,,,,,,,,,,,59NE,001,2023_Apr_28_0958,ExactRep-v3-final,2021.2.3,59.78215412027395,
,,,,,,,,82,0,82,0,,,,,,,,,,,,,,,,,,,,,,,,,,,,,,,,,,,,,,,,,,,,,,,,,,,,,2732.6549243004993,None,,,,,,,,,,,,,,,,,,,,,,,,,,,,,,,,,,,cabin,34,83,sing,blue,2730.652636899613,None,None,2730.652636899613,None,,,,,,,,,,,,,,,,,,,,,,,,,,,,,,59NE,001,2023_Apr_28_0958,ExactRep-v3-final,2021.2.3,59.78215412027395,
,,,,,,,,83,0,83,0,,,,,,,,,,,,,,,,,,,,,,,,,,,,,,,,,,,,,,,,,,,,,,,,,,,,,2735.157516799867,None,,,,,,,,,,,,,,,,,,,,,,,,,,,,,,,,,,,cost,24,84,sing,blue,2733.1568975001574,None,None,2733.1568975001574,None,,,,,,,,,,,,,,,,,,,,,,,,,,,,,,59NE,001,2023_Apr_28_0958,ExactRep-v3-final,2021.2.3,59.78215412027395,
,,,,,,,,84,0,84,0,,,,,,,,,,,,,,,,,,,,,,,,,,,,,,,,,,,,,,,,,,,,,,,,,,,,,2737.6762447003275,None,,,,,,,,,,,,,,,,,,,,,,,,,,,,,,,,,,,blossom,69,85,silent,red,2735.6613803002983,None,None,2735.6613803002983,None,,,,,,,,,,,,,,,,,,,,,,,,,,,,,,59NE,001,2023_Apr_28_0958,ExactRep-v3-final,2021.2.3,59.78215412027395,
,,,,,,,,85,0,85,0,,,,,,,,,,,,,,,,,,,,,,,,,,,,,,,,,,,,,,,,,,,,,,,,,,,,,2740.178697200492,None,,,,,,,,,,,,,,,,,,,,,,,,,,,,,,,,,,,fur,57,86,silent,red,2738.1770109999925,None,None,2738.1770109999925,None,,,,,,,,,,,,,,,,,,,,,,,,,,,,,,59NE,001,2023_Apr_28_0958,ExactRep-v3-final,2021.2.3,59.78215412027395,
,,,,,,,,86,0,86,0,,,,,,,,,,,,,,,,,,,,,,,,,,,,,,,,,,,,,,,,,,,,,,,,,,,,,2742.697992200032,None,,,,,,,,,,,,,,,,,,,,,,,,,,,,,,,,,,,bottle,67,87,silent,red,2740.683322899975,None,None,2740.683322899975,None,,,,,,,,,,,,,,,,,,,,,,,,,,,,,,59NE,001,2023_Apr_28_0958,ExactRep-v3-final,2021.2.3,59.78215412027395,
,,,,,,,,87,0,87,0,,,,,,,,,,,,,,,,,,,,,,,,,,,,,,,,,,,,,,,,,,,,,,,,,,,,,2745.2007384998724,None,,,,,,,,,,,,,,,,,,,,,,,,,,,,,,,,,,,butter,78,88,silent,red,2743.1984617998824,None,None,2743.1984617998824,None,,,,,,,,,,,,,,,,,,,,,,,,,,,,,,59NE,001,2023_Apr_28_0958,ExactRep-v3-final,2021.2.3,59.78215412027395,
,,,,,,,,88,0,88,0,,,,,,,,,,,,,,,,,,,,,,,,,,,,,,,,,,,,,,,,,,,,,,,,,,,,,2747.7196899000555,None,,,,,,,,,,,,,,,,,,,,,,,,,,,,,,,,,,,salary,106,89,aloud,white,2745.7053428003564,None,None,2745.7053428003564,None,,,,,,,,,,,,,,,,,,,,,,,,,,,,,,59NE,001,2023_Apr_28_0958,ExactRep-v3-final,2021.2.3,59.78215412027395,
,,,,,,,,89,0,89,0,,,,,,,,,,,,,,,,,,,,,,,,,,,,,,,,,,,,,,,,,,,,,,,,,,,,,2750.2222082000226,None,,,,,,,,,,,,,,,,,,,,,,,,,,,,,,,,,,,temple,53,90,silent,red,2748.2217594003305,None,None,2748.2217594003305,None,,,,,,,,,,,,,,,,,,,,,,,,,,,,,,59NE,001,2023_Apr_28_0958,ExactRep-v3-final,2021.2.3,59.78215412027395,
,,,,,,,,90,0,90,0,,,,,,,,,,,,,,,,,,,,,,,,,,,,,,,,,,,,,,,,,,,,,,,,,,,,,2752.7248727995902,None,,,,,,,,,,,,,,,,,,,,,,,,,,,,,,,,,,,rock,79,91,sing,blue,2750.724503800273,None,None,2750.724503800273,None,,,,,,,,,,,,,,,,,,,,,,,,,,,,,,59NE,001,2023_Apr_28_0958,ExactRep-v3-final,2021.2.3,59.78215412027395,
,,,,,,,,91,0,91,0,,,,,,,,,,,,,,,,,,,,,,,,,,,,,,,,,,,,,,,,,,,,,,,,,,,,,2755.227427699603,None,,,,,,,,,,,,,,,,,,,,,,,,,,,,,,,,,,,silence,114,92,aloud,white,2753.226737299934,None,None,2753.226737299934,None,,,,,,,,,,,,,,,,,,,,,,,,,,,,,,59NE,001,2023_Apr_28_0958,ExactRep-v3-final,2021.2.3,59.78215412027395,
,,,,,,,,92,0,92,0,,,,,,,,,,,,,,,,,,,,,,,,,,,,,,,,,,,,,,,,,,,,,,,,,,,,,2757.7464218996465,None,,,,,,,,,,,,,,,,,,,,,,,,,,,,,,,,,,,person,110,93,aloud,white,2755.733559999615,None,None,2755.733559999615,None,,,,,,,,,,,,,,,,,,,,,,,,,,,,,,59NE,001,2023_Apr_28_0958,ExactRep-v3-final,2021.2.3,59.78215412027395,
,,,,,,,,93,0,93,0,,,,,,,,,,,,,,,,,,,,,,,,,,,,,,,,,,,,,,,,,,,,,,,,,,,,,2760.249006900005,None,,,,,,,,,,,,,,,,,,,,,,,,,,,,,,,,,,,circle,30,94,sing,blue,2758.247075400315,None,None,2758.247075400315,None,,,,,,,,,,,,,,,,,,,,,,,,,,,,,,59NE,001,2023_Apr_28_0958,ExactRep-v3-final,2021.2.3,59.78215412027395,
,,,,,,,,94,0,94,0,,,,,,,,,,,,,,,,,,,,,,,,,,,,,,,,,,,,,,,,,,,,,,,,,,,,,2762.7682739999145,None,,,,,,,,,,,,,,,,,,,,,,,,,,,,,,,,,,,chance,72,95,silent,red,2760.7527622999623,None,None,2760.7527622999623,None,,,,,,,,,,,,,,,,,,,,,,,,,,,,,,59NE,001,2023_Apr_28_0958,ExactRep-v3-final,2021.2.3,59.78215412027395,
,,,,,,,,95,0,95,0,,,,,,,,,,,,,,,,,,,,,,,,,,,,,,,,,,,,,,,,,,,,,,,,,,,,,2765.270760900341,None,,,,,,,,,,,,,,,,,,,,,,,,,,,,,,,,,,,lad,48,96,silent,red,2763.270480999723,None,None,2763.270480999723,None,,,,,,,,,,,,,,,,,,,,,,,,,,,,,,59NE,001,2023_Apr_28_0958,ExactRep-v3-final,2021.2.3,59.78215412027395,
,,,,,,,,96,0,96,0,,,,,,,,,,,,,,,,,,,,,,,,,,,,,,,,,,,,,,,,,,,,,,,,,,,,,2767.789855499752,None,,,,,,,,,,,,,,,,,,,,,,,,,,,,,,,,,,,cottage,47,97,silent,red,2765.774573800154,None,None,2765.774573800154,None,,,,,,,,,,,,,,,,,,,,,,,,,,,,,,59NE,001,2023_Apr_28_0958,ExactRep-v3-final,2021.2.3,59.78215412027395,
,,,,,,,,97,0,97,0,,,,,,,,,,,,,,,,,,,,,,,,,,,,,,,,,,,,,,,,,,,,,,,,,,,,,2770.3091887999326,None,,,,,,,,,,,,,,,,,,,,,,,,,,,,,,,,,,,honour,35,98,sing,blue,2768.2976064998657,None,None,2768.2976064998657,None,,,,,,,,,,,,,,,,,,,,,,,,,,,,,,59NE,001,2023_Apr_28_0958,ExactRep-v3-final,2021.2.3,59.78215412027395,
,,,,,,,,98,0,98,0,,,,,,,,,,,,,,,,,,,,,,,,,,,,,,,,,,,,,,,,,,,,,,,,,,,,,2772.811646300368,None,,,,,,,,,,,,,,,,,,,,,,,,,,,,,,,,,,,mercy,14,99,sing,blue,2770.8116629002616,None,None,2770.8116629002616,None,,,,,,,,,,,,,,,,,,,,,,,,,,,,,,59NE,001,2023_Apr_28_0958,ExactRep-v3-final,2021.2.3,59.78215412027395,
,,,,,,,,99,0,99,0,,,,,,,,,,,,,,,,,,,,,,,,,,,,,,,,,,,,,,,,,,,,,,,,,,,,,2775.3326425999403,None,,,,,,,,,,,,,,,,,,,,,,,,,,,,,,,,,,,horse,100,100,aloud,white,2773.3157873004675,None,None,2773.3157873004675,None,,,,,,,,,,,,,,,,,,,,,,,,,,,,,,59NE,001,2023_Apr_28_0958,ExactRep-v3-final,2021.2.3,59.78215412027395,
,,,,,,,,100,0,100,0,,,,,,,,,,,,,,,,,,,,,,,,,,,,,,,,,,,,,,,,,,,,,,,,,,,,,2777.8500950997695,None,,,,,,,,,,,,,,,,,,,,,,,,,,,,,,,,,,,plain,51,101,silent,red,2775.835773699917,None,None,2775.835773699917,None,,,,,,,,,,,,,,,,,,,,,,,,,,,,,,59NE,001,2023_Apr_28_0958,ExactRep-v3-final,2021.2.3,59.78215412027395,
,,,,,,,,101,0,101,0,,,,,,,,,,,,,,,,,,,,,,,,,,,,,,,,,,,,,,,,,,,,,,,,,,,,,2780.3693383997306,None,,,,,,,,,,,,,,,,,,,,,,,,,,,,,,,,,,,woman,16,102,sing,blue,2778.3545514997095,None,None,2778.3545514997095,None,,,,,,,,,,,,,,,,,,,,,,,,,,,,,,59NE,001,2023_Apr_28_0958,ExactRep-v3-final,2021.2.3,59.78215412027395,
,,,,,,,,102,0,102,0,,,,,,,,,,,,,,,,,,,,,,,,,,,,,,,,,,,,,,,,,,,,,,,,,,,,,2782.888225399889,None,,,,,,,,,,,,,,,,,,,,,,,,,,,,,,,,,,,forest,82,103,aloud,white,2780.879124700092,None,None,2780.879124700092,None,,,,,,,,,,,,,,,,,,,,,,,,,,,,,,59NE,001,2023_Apr_28_0958,ExactRep-v3-final,2021.2.3,59.78215412027395,
,,,,,,,,103,0,103,0,,,,,,,,,,,,,,,,,,,,,,,,,,,,,,,,,,,,,,,,,,,,,,,,,,,,,2785.4076680997387,None,,,,,,,,,,,,,,,,,,,,,,,,,,,,,,,,,,,priest,117,104,aloud,white,2783.392085599713,None,None,2783.392085599713,None,,,,,,,,,,,,,,,,,,,,,,,,,,,,,,59NE,001,2023_Apr_28_0958,ExactRep-v3-final,2021.2.3,59.78215412027395,
,,,,,,,,104,0,104,0,,,,,,,,,,,,,,,,,,,,,,,,,,,,,,,,,,,,,,,,,,,,,,,,,,,,,2787.909870799631,None,,,,,,,,,,,,,,,,,,,,,,,,,,,,,,,,,,,tree,102,105,aloud,white,2785.9101130999625,None,None,2785.9101130999625,None,,,,,,,,,,,,,,,,,,,,,,,,,,,,,,59NE,001,2023_Apr_28_0958,ExactRep-v3-final,2021.2.3,59.78215412027395,
,,,,,,,,105,0,105,0,,,,,,,,,,,,,,,,,,,,,,,,,,,,,,,,,,,,,,,,,,,,,,,,,,,,,2790.4125683996826,None,,,,,,,,,,,,,,,,,,,,,,,,,,,,,,,,,,,heaven,99,106,aloud,white,2788.4104134999216,None,None,2788.4104134999216,None,,,,,,,,,,,,,,,,,,,,,,,,,,,,,,59NE,001,2023_Apr_28_0958,ExactRep-v3-final,2021.2.3,59.78215412027395,
,,,,,,,,106,0,106,0,,,,,,,,,,,,,,,,,,,,,,,,,,,,,,,,,,,,,,,,,,,,,,,,,,,,,2792.931629099883,None,,,,,,,,,,,,,,,,,,,,,,,,,,,,,,,,,,,opinion,20,107,sing,blue,2790.916089099832,None,None,2790.916089099832,None,,,,,,,,,,,,,,,,,,,,,,,,,,,,,,59NE,001,2023_Apr_28_0958,ExactRep-v3-final,2021.2.3,59.78215412027395,
,,,,,,,,107,0,107,0,,,,,,,,,,,,,,,,,,,,,,,,,,,,,,,,,,,,,,,,,,,,,,,,,,,,,2795.43428019993,None,,,,,,,,,,,,,,,,,,,,,,,,,,,,,,,,,,,memory,41,108,silent,red,2793.4340327000245,None,None,2793.4340327000245,None,,,,,,,,,,,,,,,,,,,,,,,,,,,,,,59NE,001,2023_Apr_28_0958,ExactRep-v3-final,2021.2.3,59.78215412027395,
,,,,,,,,108,0,108,0,,,,,,,,,,,,,,,,,,,,,,,,,,,,,,,,,,,,,,,,,,,,,,,,,,,,,2797.9366600997746,None,,,,,,,,,,,,,,,,,,,,,,,,,,,,,,,,,,,murder,21,109,sing,blue,2795.9364593001083,None,None,2795.9364593001083,None,,,,,,,,,,,,,,,,,,,,,,,,,,,,,,59NE,001,2023_Apr_28_0958,ExactRep-v3-final,2021.2.3,59.78215412027395,
,,,,,,,,109,0,109,0,,,,,,,,,,,,,,,,,,,,,,,,,,,,,,,,,,,,,,,,,,,,,,,,,,,,,2800.4558418998495,None,,,,,,,,,,,,,,,,,,,,,,,,,,,,,,,,,,,gift,80,110,aloud,white,2798.440272799693,None,None,2798.440272799693,None,,,,,,,,,,,,,,,,,,,,,,,,,,,,,,59NE,001,2023_Apr_28_0958,ExactRep-v3-final,2021.2.3,59.78215412027395,
,,,,,,,,110,0,110,0,,,,,,,,,,,,,,,,,,,,,,,,,,,,,,,,,,,,,,,,,,,,,,,,,,,,,2802.9584665996954,None,,,,,,,,,,,,,,,,,,,,,,,,,,,,,,,,,,,hope,81,111,aloud,white,2800.9580202000216,None,None,2800.9580202000216,None,,,,,,,,,,,,,,,,,,,,,,,,,,,,,,59NE,001,2023_Apr_28_0958,ExactRep-v3-final,2021.2.3,59.78215412027395,
,,,,,,,,111,0,111,0,,,,,,,,,,,,,,,,,,,,,,,,,,,,,,,,,,,,,,,,,,,,,,,,,,,,,2805.4776945002377,None,,,,,,,,,,,,,,,,,,,,,,,,,,,,,,,,,,,library,59,112,silent,red,2803.4682184997946,None,None,2803.4682184997946,None,,,,,,,,,,,,,,,,,,,,,,,,,,,,,,59NE,001,2023_Apr_28_0958,ExactRep-v3-final,2021.2.3,59.78215412027395,
,,,,,,,,112,0,112,0,,,,,,,,,,,,,,,,,,,,,,,,,,,,,,,,,,,,,,,,,,,,,,,,,,,,,2807.9801692003384,None,,,,,,,,,,,,,,,,,,,,,,,,,,,,,,,,,,,length,39,113,silent,red,2805.9789704000577,None,None,2805.9789704000577,None,,,,,,,,,,,,,,,,,,,,,,,,,,,,,,59NE,001,2023_Apr_28_0958,ExactRep-v3-final,2021.2.3,59.78215412027395,
,,,,,,,,113,0,113,0,,,,,,,,,,,,,,,,,,,,,,,,,,,,,,,,,,,,,,,,,,,,,,,,,,,,,2810.4826859002933,None,,,,,,,,,,,,,,,,,,,,,,,,,,,,,,,,,,,trouble,65,114,silent,red,2808.48260070011,None,None,2808.48260070011,None,,,,,,,,,,,,,,,,,,,,,,,,,,,,,,59NE,001,2023_Apr_28_0958,ExactRep-v3-final,2021.2.3,59.78215412027395,
,,,,,,,,114,0,114,0,,,,,,,,,,,,,,,,,,,,,,,,,,,,,,,,,,,,,,,,,,,,,,,,,,,,,2813.0017173001543,None,,,,,,,,,,,,,,,,,,,,,,,,,,,,,,,,,,,board,12,115,sing,blue,2810.986181399785,None,None,2810.986181399785,None,,,,,,,,,,,,,,,,,,,,,,,,,,,,,,59NE,001,2023_Apr_28_0958,ExactRep-v3-final,2021.2.3,59.78215412027395,
,,,,,,,,115,0,115,0,,,,,,,,,,,,,,,,,,,,,,,,,,,,,,,,,,,,,,,,,,,,,,,,,,,,,2815.504374399781,None,,,,,,,,,,,,,,,,,,,,,,,,,,,,,,,,,,,child,107,116,aloud,white,2813.505279900506,None,None,2813.505279900506,None,,,,,,,,,,,,,,,,,,,,,,,,,,,,,,59NE,001,2023_Apr_28_0958,ExactRep-v3-final,2021.2.3,59.78215412027395,
,,,,,,,,116,0,116,0,,,,,,,,,,,,,,,,,,,,,,,,,,,,,,,,,,,,,,,,,,,,,,,,,,,,,2818.023548300378,None,,,,,,,,,,,,,,,,,,,,,,,,,,,,,,,,,,,metal,0,117,sing,blue,2816.008053599857,None,None,2816.008053599857,None,,,,,,,,,,,,,,,,,,,,,,,,,,,,,,59NE,001,2023_Apr_28_0958,ExactRep-v3-final,2021.2.3,59.78215412027395,
,,,,,,,,117,0,117,0,,,,,,,,,,,,,,,,,,,,,,,,,,,,,,,,,,,,,,,,,,,,,,,,,,,,,2820.525851599872,None,,,,,,,,,,,,,,,,,,,,,,,,,,,,,,,,,,,pupil,92,118,aloud,white,2818.5258160000667,None,None,2818.5258160000667,None,,,,,,,,,,,,,,,,,,,,,,,,,,,,,,59NE,001,2023_Apr_28_0958,ExactRep-v3-final,2021.2.3,59.78215412027395,
,,,,,,,,118,0,118,0,,,,,,,,,,,,,,,,,,,,,,,,,,,,,,,,,,,,,,,,,,,,,,,,,,,,,2823.045196900144,None,,,,,,,,,,,,,,,,,,,,,,,,,,,,,,,,,,,truth,22,119,sing,blue,2821.029955100268,None,None,2821.029955100268,None,,,,,,,,,,,,,,,,,,,,,,,,,,,,,,59NE,001,2023_Apr_28_0958,ExactRep-v3-final,2021.2.3,59.78215412027395,
,,,,,,,,119,0,119,0,,,,,,,,,,,,,,,,,,,,,,,,,,,,,,,,,,,,,,,,,,,,,,,,,,,,,2825.5642282003537,None,,,,,,,,,,,,,,,,,,,,,,,,,,,,,,,,,,,tool,1,120,sing,blue,2823.5509050004184,None,None,2823.5509050004184,None,,,,,,,,,,,,,,,,,,,,,,,,,,,,,,59NE,001,2023_Apr_28_0958,ExactRep-v3-final,2021.2.3,59.78215412027395,
,,,,,,,,,,,,,,,,,,,,,,,,,,,,,,,,,,,,,,,,,,,,,,,,,,,,,,,,,,,,,,,,,,,,,,,,,,,,,,,,,,,,,,,,,,,,,,,,,,,,,,,,,,,,,,2826.066464100033,None,space,1.3934006998315454,2836.0428536003456,None,,,,,,,,,,,,,,,,,,,,,,,,59NE,001,2023_Apr_28_0958,ExactRep-v3-final,2021.2.3,59.78215412027395,
,,,,,,,,,,,,,,,,,,,,,,,,,,,,,,,,,,,,,,,,,,,,,,,,,,,,,,,,,,,,,,,,,,,,,,,,,,,,,,,,,,,,,,,,,,,,,,,,,,,,,,,,,,,,,,,,,,,,2837.461340200156,None,space,30.40701359976083,2847.4375210003927,None,,,,,,,,,,,,,,,,,,59NE,001,2023_Apr_28_0958,ExactRep-v3-final,2021.2.3,59.78215412027395,
,,,,,,,,,,,,0,0,0,0,,,,,,,,,,,,,,,,,,,,,,,,,,,,,,,,,,,,,,,,,,,,,,,,,2885.8244570000097,None,,,,,,,,,,,,,,,,,,,,,,,,,,,,,,,,,,,,,,,,,,,,,,,,,,,,,,,,,meeting,71,1,silent,old,yellow,2878.3765711998567,None,n,2878.3765711998567,None,"['n', 'return']","[3.603611900471151, 7.403589700348675]",2878.3765711998567,None,,,59NE,001,2023_Apr_28_0958,ExactRep-v3-final,2021.2.3,59.78215412027395,
,,,,,,,,,,,,1,0,1,0,,,,,,,,,,,,,,,,,,,,,,,,,,,,,,,,,,,,,,,,,,,,,,,,,2896.7855163002387,None,,,,,,,,,,,,,,,,,,,,,,,,,,,,,,,,,,,,,,,,,,,,,,,,,,,,,,,,,bar,171,2,sing,new,yellow,2886.333846299909,None,n,2886.333846299909,None,"['n', 'return']","[3.334315599873662, 10.414396199397743]",2886.333846299909,None,,,59NE,001,2023_Apr_28_0958,ExactRep-v3-final,2021.2.3,59.78215412027395,
,,,,,,,,,,,,2,0,2,0,,,,,,,,,,,,,,,,,,,,,,,,,,,,,,,,,,,,,,,,,,,,,,,,,2900.8063359996304,None,,,,,,,,,,,,,,,,,,,,,,,,,,,,,,,,,,,,,,,,,,,,,,,,,,,,,,,,,shoes,23,3,sing,old,yellow,2897.298443599604,None,y,2897.298443599604,None,"['y', 'return']","[2.642063400708139, 3.473819000646472]",2897.298443599604,None,,,59NE,001,2023_Apr_28_0958,ExactRep-v3-final,2021.2.3,59.78215412027395,
,,,,,,,,,,,,3,0,3,0,,,,,,,,,,,,,,,,,,,,,,,,,,,,,,,,,,,,,,,,,,,,,,,,,2903.6923468001187,None,,,,,,,,,,,,,,,,,,,,,,,,,,,,,,,,,,,,,,,,,,,,,,,,,,,,,,,,,author,236,4,aloud,new,yellow,2901.3168935999274,None,n,2901.3168935999274,None,"['n', 'return']","[1.5593181001022458, 2.34333229996264]",2901.3168935999274,None,,,59NE,001,2023_Apr_28_0958,ExactRep-v3-final,2021.2.3,59.78215412027395,
,,,,,,,,,,,,4,0,4,0,,,,,,,,,,,,,,,,,,,,,,,,,,,,,,,,,,,,,,,,,,,,,,,,,2907.379409899935,None,,,,,,,,,,,,,,,,,,,,,,,,,,,,,,,,,,,,,,,,,,,,,,,,,,,,,,,,,silence,114,5,aloud,old,yellow,2904.201806199737,None,y,2904.201806199737,None,"['y', 'return']","[2.4586041001603007, 3.1304361997172236]",2904.201806199737,None,,,59NE,001,2023_Apr_28_0958,ExactRep-v3-final,2021.2.3,59.78215412027395,
,,,,,,,,,,,,5,0,5,0,,,,,,,,,,,,,,,,,,,,,,,,,,,,,,,,,,,,,,,,,,,,,,,,,2911.250035200268,None,,,,,,,,,,,,,,,,,,,,,,,,,,,,,,,,,,,,,,,,,,,,,,,,,,,,,,,,,fur,57,6,silent,old,yellow,2907.887109000236,None,y,2907.887109000236,None,"['y', 'return']","[2.677138900384307, 3.317222500219941]",2907.887109000236,None,,,59NE,001,2023_Apr_28_0958,ExactRep-v3-final,2021.2.3,59.78215412027395,
,,,,,,,,,,,,6,0,6,0,,,,,,,,,,,,,,,,,,,,,,,,,,,,,,,,,,,,,,,,,,,,,,,,,2913.9859400000423,None,,,,,,,,,,,,,,,,,,,,,,,,,,,,,,,,,,,,,,,,,,,,,,,,,,,,,,,,,volume,194,7,aloud,new,yellow,2911.760522400029,None,y,2911.760522400029,None,"['y', 'return']","[1.595873000100255, 2.18783409986645]",2911.760522400029,None,,,59NE,001,2023_Apr_28_0958,ExactRep-v3-final,2021.2.3,59.78215412027395,
,,,,,,,,,,,,7,0,7,0,,,,,,,,,,,,,,,,,,,,,,,,,,,,,,,,,,,,,,,,,,,,,,,,,2916.3716556001455,None,,,,,,,,,,,,,,,,,,,,,,,,,,,,,,,,,,,,,,,,,,,,,,,,,,,,,,,,,speech,163,8,sing,new,yellow,2914.4989087004215,None,n,2914.4989087004215,None,"['n', 'return']","[1.217412800528109, 1.841389000415802]",2914.4989087004215,None,,,59NE,001,2023_Apr_28_0958,ExactRep-v3-final,2021.2.3,59.78215412027395,
,,,,,,,,,,,,8,0,8,0,,,,,,,,,,,,,,,,,,,,,,,,,,,,,,,,,,,,,,,,,,,,,,,,,2918.6908507002518,None,,,,,,,,,,,,,,,,,,,,,,,,,,,,,,,,,,,,,,,,,,,,,,,,,,,,,,,,,student,151,9,silent,new,yellow,2916.881028899923,None,n,2916.881028899923,None,"['n', 'return']","[1.155227699317038, 1.7632126994431019]",2916.881028899923,None,,,59NE,001,2023_Apr_28_0958,ExactRep-v3-final,2021.2.3,59.78215412027395,
,,,,,,,,,,,,9,0,9,0,,,,,,,,,,,,,,,,,,,,,,,,,,,,,,,,,,,,,,,,,,,,,,,,,2921.1932217003778,None,,,,,,,,,,,,,,,,,,,,,,,,,,,,,,,,,,,,,,,,,,,,,,,,,,,,,,,,,artist,198,10,aloud,new,yellow,2919.1979021998122,None,n,2919.1979021998122,None,"['n', 'return']","[1.2302842000499368, 1.9582989998161793]",2919.1979021998122,None,,,59NE,001,2023_Apr_28_0958,ExactRep-v3-final,2021.2.3,59.78215412027395,
,,,,,,,,,,,,10,0,10,0,,,,,,,,,,,,,,,,,,,,,,,,,,,,,,,,,,,,,,,,,,,,,,,,,2924.146348499693,None,,,,,,,,,,,,,,,,,,,,,,,,,,,,,,,,,,,,,,,,,,,,,,,,,,,,,,,,,cotton,170,11,aloud,new,yellow,2921.701551700011,None,n,2921.701551700011,None,"['n', 'return']","[1.8306690994650126, 2.4067489998415112]",2921.701551700011,None,,,59NE,001,2023_Apr_28_0958,ExactRep-v3-final,2021.2.3,59.78215412027395,
,,,,,,,,,,,,11,0,11,0,,,,,,,,,,,,,,,,,,,,,,,,,,,,,,,,,,,,,,,,,,,,,,,,,2926.4985370002687,None,,,,,,,,,,,,,,,,,,,,,,,,,,,,,,,,,,,,,,,,,,,,,,,,,,,,,,,,,sugar,62,12,silent,old,yellow,2924.6505658999085,None,n,2924.6505658999085,None,"['n', 'return']","[1.2576634995639324, 1.8096962999552488]",2924.6505658999085,None,,,59NE,001,2023_Apr_28_0958,ExactRep-v3-final,2021.2.3,59.78215412027395,
,,,,,,,,,,,,12,0,12,0,,,,,,,,,,,,,,,,,,,,,,,,,,,,,,,,,,,,,,,,,,,,,,,,,2929.7352269999683,None,,,,,,,,,,,,,,,,,,,,,,,,,,,,,,,,,,,,,,,,,,,,,,,,,,,,,,,,,memory,41,13,silent,old,yellow,2927.007970600389,None,y,2927.007970600389,None,"['y', 'return']","[1.8124729003757238, 2.6842965008690953]",2927.007970600389,None,,,59NE,001,2023_Apr_28_0958,ExactRep-v3-final,2021.2.3,59.78215412027395,
,,,,,,,,,,,,13,0,13,0,,,,,,,,,,,,,,,,,,,,,,,,,,,,,,,,,,,,,,,,,,,,,,,,,2932.0039724996313,None,,,,,,,,,,,,,,,,,,,,,,,,,,,,,,,,,,,,,,,,,,,,,,,,,,,,,,,,,brain,200,14,aloud,new,yellow,2930.243912599981,None,n,2930.243912599981,None,"['n', 'return']","[1.1922572003677487, 1.720388300716877]",2930.243912599981,None,,,59NE,001,2023_Apr_28_0958,ExactRep-v3-final,2021.2.3,59.78215412027395,
,,,,,,,,,,,,14,0,14,0,,,,,,,,,,,,,,,,,,,,,,,,,,,,,,,,,,,,,,,,,,,,,,,,,2934.373003900051,None,,,,,,,,,,,,,,,,,,,,,,,,,,,,,,,,,,,,,,,,,,,,,,,,,,,,,,,,,custom,40,15,silent,old,yellow,2932.512452200055,None,n,2932.512452200055,None,"['n', 'return']","[1.2677542995661497, 1.819845199584961]",2932.512452200055,None,,,59NE,001,2023_Apr_28_0958,ExactRep-v3-final,2021.2.3,59.78215412027395,
,,,,,,,,,,,,15,0,15,0,,,,,,,,,,,,,,,,,,,,,,,,,,,,,,,,,,,,,,,,,,,,,,,,,2936.675342200324,None,,,,,,,,,,,,,,,,,,,,,,,,,,,,,,,,,,,,,,,,,,,,,,,,,,,,,,,,,humour,112,16,aloud,old,yellow,2934.8805852001533,None,y,2934.8805852001533,None,"['y', 'return']","[1.3078011004254222, 1.7557549001649022]",2934.8805852001533,None,,,59NE,001,2023_Apr_28_0958,ExactRep-v3-final,2021.2.3,59.78215412027395,
,,,,,,,,,,,,16,0,16,0,,,,,,,,,,,,,,,,,,,,,,,,,,,,,,,,,,,,,,,,,,,,,,,,,2939.327997099608,None,,,,,,,,,,,,,,,,,,,,,,,,,,,,,,,,,,,,,,,,,,,,,,,,,,,,,,,,,market,186,17,aloud,new,yellow,2937.18534119986,None,n,2937.18534119986,None,"['n', 'return']","[1.1628737999126315, 2.106868900358677]",2937.18534119986,None,,,59NE,001,2023_Apr_28_0958,ExactRep-v3-final,2021.2.3,59.78215412027395,
,,,,,,,,,,,,17,0,17,0,,,,,,,,,,,,,,,,,,,,,,,,,,,,,,,,,,,,,,,,,,,,,,,,,2941.463528100401,None,,,,,,,,,,,,,,,,,,,,,,,,,,,,,,,,,,,,,,,,,,,,,,,,,,,,,,,,,fact,172,18,aloud,new,yellow,2939.8341242996976,None,n,2939.8341242996976,None,"['n', 'return']","[1.1382090002298355, 1.586052500642836]",2939.8341242996976,None,,,59NE,001,2023_Apr_28_0958,ExactRep-v3-final,2021.2.3,59.78215412027395,
,,,,,,,,,,,,18,0,18,0,,,,,,,,,,,,,,,,,,,,,,,,,,,,,,,,,,,,,,,,,,,,,,,,,2943.632272399962,None,,,,,,,,,,,,,,,,,,,,,,,,,,,,,,,,,,,,,,,,,,,,,,,,,,,,,,,,,shame,140,19,silent,new,yellow,2941.973898000084,None,n,2941.973898000084,None,"['n', 'return']","[1.0783385001122952, 1.6142708994448185]",2941.973898000084,None,,,59NE,001,2023_Apr_28_0958,ExactRep-v3-final,2021.2.3,59.78215412027395,
,,,,,,,,,,,,19,0,19,0,,,,,,,,,,,,,,,,,,,,,,,,,,,,,,,,,,,,,,,,,,,,,,,,,2946.218074399978,None,,,,,,,,,,,,,,,,,,,,,,,,,,,,,,,,,,,,,,,,,,,,,,,,,,,,,,,,,lad,48,20,silent,old,yellow,2944.1342307003215,None,n,2944.1342307003215,None,"['n', 'return']","[1.57396740000695, 2.038007299415767]",2944.1342307003215,None,,,59NE,001,2023_Apr_28_0958,ExactRep-v3-final,2021.2.3,59.78215412027395,
,,,,,,,,,,,,20,0,20,0,,,,,,,,,,,,,,,,,,,,,,,,,,,,,,,,,,,,,,,,,,,,,,,,,2948.8708408996463,None,,,,,,,,,,,,,,,,,,,,,,,,,,,,,,,,,,,,,,,,,,,,,,,,,,,,,,,,,boulder,213,21,sing,new,yellow,2946.730685999617,None,n,2946.730685999617,None,"['n', 'return']","[1.657646699808538, 2.097634599544108]",2946.730685999617,None,,,59NE,001,2023_Apr_28_0958,ExactRep-v3-final,2021.2.3,59.78215412027395,
,,,,,,,,,,,,21,0,21,0,,,,,,,,,,,,,,,,,,,,,,,,,,,,,,,,,,,,,,,,,,,,,,,,,2950.9727648003027,None,,,,,,,,,,,,,,,,,,,,,,,,,,,,,,,,,,,,,,,,,,,,,,,,,,,,,,,,,disease,44,22,silent,old,yellow,2949.381117500365,None,n,2949.381117500365,None,"['n', 'return']","[1.10314179956913, 1.551150399260223]",2949.381117500365,None,,,59NE,001,2023_Apr_28_0958,ExactRep-v3-final,2021.2.3,59.78215412027395,
,,,,,,,,,,,,22,0,22,0,,,,,,,,,,,,,,,,,,,,,,,,,,,,,,,,,,,,,,,,,,,,,,,,,2953.058551900089,None,,,,,,,,,,,,,,,,,,,,,,,,,,,,,,,,,,,,,,,,,,,,,,,,,,,,,,,,,bottle,67,23,silent,old,yellow,2951.4843941004947,None,n,2951.4843941004947,None,"['n', 'return']","[1.1280792001634836, 1.5279329000040889]",2951.4843941004947,None,,,59NE,001,2023_Apr_28_0958,ExactRep-v3-final,2021.2.3,59.78215412027395,
,,,,,,,,,,,,23,0,23,0,,,,,,,,,,,,,,,,,,,,,,,,,,,,,,,,,,,,,,,,,,,,,,,,,2955.3272968996316,None,,,,,,,,,,,,,,,,,,,,,,,,,,,,,,,,,,,,,,,,,,,,,,,,,,,,,,,,,river,104,24,aloud,old,yellow,2953.568302599713,None,y,2953.568302599713,None,"['y', 'return']","[1.188055300153792, 1.7158596999943256]",2953.568302599713,None,,,59NE,001,2023_Apr_28_0958,ExactRep-v3-final,2021.2.3,59.78215412027395,
,,,,,,,,,,,,24,0,24,0,,,,,,,,,,,,,,,,,,,,,,,,,,,,,,,,,,,,,,,,,,,,,,,,,2957.6630030004308,None,,,,,,,,,,,,,,,,,,,,,,,,,,,,,,,,,,,,,,,,,,,,,,,,,,,,,,,,,prayer,119,25,aloud,old,yellow,2955.8278101999313,None,y,2955.8278101999313,None,"['y', 'return']","[1.1364726005122066, 1.800322299823165]",2955.8278101999313,None,,,59NE,001,2023_Apr_28_0958,ExactRep-v3-final,2021.2.3,59.78215412027395,
,,,,,,,,,,,,25,0,25,0,,,,,,,,,,,,,,,,,,,,,,,,,,,,,,,,,,,,,,,,,,,,,,,,,2959.681476600468,None,,,,,,,,,,,,,,,,,,,,,,,,,,,,,,,,,,,,,,,,,,,,,,,,,,,,,,,,,history,89,26,aloud,old,yellow,2958.1801944999024,None,y,2958.1801944999024,None,"['y', 'return']","[1.0640989998355508, 1.456084500066936]",2958.1801944999024,None,,,59NE,001,2023_Apr_28_0958,ExactRep-v3-final,2021.2.3,59.78215412027395,
,,,,,,,,,,,,26,0,26,0,,,,,,,,,,,,,,,,,,,,,,,,,,,,,,,,,,,,,,,,,,,,,,,,,2961.7169928997755,None,,,,,,,,,,,,,,,,,,,,,,,,,,,,,,,,,,,,,,,,,,,,,,,,,,,,,,,,,circle,30,27,sing,old,yellow,2960.1938426997513,None,y,2960.1938426997513,None,"['y', 'return']","[1.0423949006944895, 1.4824817003682256]",2960.1938426997513,None,,,59NE,001,2023_Apr_28_0958,ExactRep-v3-final,2021.2.3,59.78215412027395,
,,,,,,,,,,,,27,0,27,0,,,,,,,,,,,,,,,,,,,,,,,,,,,,,,,,,,,,,,,,,,,,,,,,,2963.7692008996382,None,,,,,,,,,,,,,,,,,,,,,,,,,,,,,,,,,,,,,,,,,,,,,,,,,,,,,,,,,earth,94,28,aloud,old,yellow,2962.2280176999047,None,n,2962.2280176999047,None,"['n', 'return']","[1.1362017001956701, 1.504228400066495]",2962.2280176999047,None,,,59NE,001,2023_Apr_28_0958,ExactRep-v3-final,2021.2.3,59.78215412027395,
,,,,,,,,,,,,28,0,28,0,,,,,,,,,,,,,,,,,,,,,,,,,,,,,,,,,,,,,,,,,,,,,,,,,2968.52372200042,None,,,,,,,,,,,,,,,,,,,,,,,,,,,,,,,,,,,,,,,,,,,,,,,,,,,,,,,,,mother,115,29,aloud,old,yellow,2964.2758817002177,None,n,2964.2758817002177,None,"['n', 'return']","[3.4723792001605034, 4.200455999933183]",2964.2758817002177,None,,,59NE,001,2023_Apr_28_0958,ExactRep-v3-final,2021.2.3,59.78215412027395,
,,,,,,,,,,,,29,0,29,0,,,,,,,,,,,,,,,,,,,,,,,,,,,,,,,,,,,,,,,,,,,,,,,,,2970.992794699967,None,,,,,,,,,,,,,,,,,,,,,,,,,,,,,,,,,,,,,,,,,,,,,,,,,,,,,,,,,ocean,219,30,sing,new,yellow,2969.0353210996836,None,n,2969.0353210996836,None,"['n', 'return']","[1.4570003999397159, 1.9128152998164296]",2969.0353210996836,None,,,59NE,001,2023_Apr_28_0958,ExactRep-v3-final,2021.2.3,59.78215412027395,
,,,,,,,,,,,,30,0,30,0,,,,,,,,,,,,,,,,,,,,,,,,,,,,,,,,,,,,,,,,,,,,,,,,,2973.011848900467,None,,,,,,,,,,,,,,,,,,,,,,,,,,,,,,,,,,,,,,,,,,,,,,,,,,,,,,,,,toy,216,31,aloud,new,yellow,2971.494929499924,None,n,2971.494929499924,None,"['n', 'return']","[1.0293680997565389, 1.4693541005253792]",2971.494929499924,None,,,59NE,001,2023_Apr_28_0958,ExactRep-v3-final,2021.2.3,59.78215412027395,
,,,,,,,,,,,,31,0,31,0,,,,,,,,,,,,,,,,,,,,,,,,,,,,,,,,,,,,,,,,,,,,,,,,,2975.0137595999986,None,,,,,,,,,,,,,,,,,,,,,,,,,,,,,,,,,,,,,,,,,,,,,,,,,,,,,,,,,grief,174,32,aloud,new,yellow,2973.516919599846,None,n,2973.516919599846,None,"['n', 'return']","[1.0474546002224088, 1.463297300040722]",2973.516919599846,None,,,59NE,001,2023_Apr_28_0958,ExactRep-v3-final,2021.2.3,59.78215412027395,
,,,,,,,,,,,,32,0,32,0,,,,,,,,,,,,,,,,,,,,,,,,,,,,,,,,,,,,,,,,,,,,,,,,,2977.099117100239,None,,,,,,,,,,,,,,,,,,,,,,,,,,,,,,,,,,,,,,,,,,,,,,,,,,,,,,,,,mercy,14,33,sing,old,yellow,2975.52349819988,None,y,2975.52349819988,None,"['y', 'return']","[1.080728999339044, 1.5289338994771242]",2975.52349819988,None,,,59NE,001,2023_Apr_28_0958,ExactRep-v3-final,2021.2.3,59.78215412027395,
,,,,,,,,,,,,33,0,33,0,,,,,,,,,,,,,,,,,,,,,,,,,,,,,,,,,,,,,,,,,,,,,,,,,2979.1678649000823,None,,,,,,,,,,,,,,,,,,,,,,,,,,,,,,,,,,,,,,,,,,,,,,,,,,,,,,,,,cattle,223,34,sing,new,yellow,2977.6081961998716,None,n,2977.6081961998716,None,"['n', 'return']","[1.0681819003075361, 1.5242739003151655]",2977.6081961998716,None,,,59NE,001,2023_Apr_28_0958,ExactRep-v3-final,2021.2.3,59.78215412027395,
,,,,,,,,,,,,34,0,34,0,,,,,,,,,,,,,,,,,,,,,,,,,,,,,,,,,,,,,,,,,,,,,,,,,2981.269894500263,None,,,,,,,,,,,,,,,,,,,,,,,,,,,,,,,,,,,,,,,,,,,,,,,,,,,,,,,,,woods,126,35,silent,new,yellow,2979.6789992004633,None,n,2979.6789992004633,None,"['n', 'return']","[1.0373317999765277, 1.5572525998577476]",2979.6789992004633,None,,,59NE,001,2023_Apr_28_0958,ExactRep-v3-final,2021.2.3,59.78215412027395,
,,,,,,,,,,,,35,0,35,0,,,,,,,,,,,,,,,,,,,,,,,,,,,,,,,,,,,,,,,,,,,,,,,,,2984.7233739001676,None,,,,,,,,,,,,,,,,,,,,,,,,,,,,,,,,,,,,,,,,,,,,,,,,,,,,,,,,,queen,202,36,aloud,new,yellow,2981.7794952001423,None,n,2981.7794952001423,None,"['n', 'return']","[1.1848667999729514, 2.9047694001346827]",2981.7794952001423,None,,,59NE,001,2023_Apr_28_0958,ExactRep-v3-final,2021.2.3,59.78215412027395,
,,,,,,,,,,,,36,0,36,0,,,,,,,,,,,,,,,,,,,,,,,,,,,,,,,,,,,,,,,,,,,,,,,,,2987.909926000051,None,,,,,,,,,,,,,,,,,,,,,,,,,,,,,,,,,,,,,,,,,,,,,,,,,,,,,,,,,party,214,37,aloud,new,yellow,2985.2345022996888,None,n,2985.2345022996888,None,"['n', 'return']","[2.0418525002896786, 2.6418002005666494]",2985.2345022996888,None,,,59NE,001,2023_Apr_28_0958,ExactRep-v3-final,2021.2.3,59.78215412027395,
,,,,,,,,,,,,37,0,37,0,,,,,,,,,,,,,,,,,,,,,,,,,,,,,,,,,,,,,,,,,,,,,,,,,2991.6634580995888,None,,,,,,,,,,,,,,,,,,,,,,,,,,,,,,,,,,,,,,,,,,,,,,,,,,,,,,,,,horse,100,38,aloud,old,yellow,2988.4241260001436,None,n,2988.4241260001436,None,"['n', 'return']","[2.6761657996103168, 3.204305499792099]",2988.4241260001436,None,,,59NE,001,2023_Apr_28_0958,ExactRep-v3-final,2021.2.3,59.78215412027395,
,,,,,,,,,,,,38,0,38,0,,,,,,,,,,,,,,,,,,,,,,,,,,,,,,,,,,,,,,,,,,,,,,,,,2993.732192000374,None,,,,,,,,,,,,,,,,,,,,,,,,,,,,,,,,,,,,,,,,,,,,,,,,,,,,,,,,,grass,129,39,silent,new,yellow,2992.173728100024,None,n,2992.173728100024,None,"['n', 'return']","[1.1588560994714499, 1.5104856994003057]",2992.173728100024,None,,,59NE,001,2023_Apr_28_0958,ExactRep-v3-final,2021.2.3,59.78215412027395,
,,,,,,,,,,,,39,0,39,0,,,,,,,,,,,,,,,,,,,,,,,,,,,,,,,,,,,,,,,,,,,,,,,,,2995.651026500389,None,,,,,,,,,,,,,,,,,,,,,,,,,,,,,,,,,,,,,,,,,,,,,,,,,,,,,,,,,apple,179,40,sing,new,yellow,2994.237139100209,None,n,2994.237139100209,None,"['n', 'return']","[0.9911401001736522, 1.3751133000478148]",2994.237139100209,None,,,59NE,001,2023_Apr_28_0958,ExactRep-v3-final,2021.2.3,59.78215412027395,
,,,,,,,,,,,,40,0,40,0,,,,,,,,,,,,,,,,,,,,,,,,,,,,,,,,,,,,,,,,,,,,,,,,,2997.869796000421,None,,,,,,,,,,,,,,,,,,,,,,,,,,,,,,,,,,,,,,,,,,,,,,,,,,,,,,,,,air,229,41,sing,new,yellow,2996.1524897003546,None,n,2996.1524897003546,None,"['n', 'return']","[1.2597952000796795, 1.6757988007739186]",2996.1524897003546,None,,,59NE,001,2023_Apr_28_0958,ExactRep-v3-final,2021.2.3,59.78215412027395,
,,,,,,,,,,,,41,0,41,0,,,,,,,,,,,,,,,,,,,,,,,,,,,,,,,,,,,,,,,,,,,,,,,,,3000.0551829002798,None,,,,,,,,,,,,,,,,,,,,,,,,,,,,,,,,,,,,,,,,,,,,,,,,,,,,,,,,,avenue,209,42,sing,new,yellow,2998.370989999734,None,n,2998.370989999734,None,"['n', 'return']","[1.161286300048232, 1.6413155999034643]",2998.370989999734,None,,,59NE,001,2023_Apr_28_0958,ExactRep-v3-final,2021.2.3,59.78215412027395,
,,,,,,,,,,,,42,0,42,0,,,,,,,,,,,,,,,,,,,,,,,,,,,,,,,,,,,,,,,,,,,,,,,,,3002.1408668002114,None,,,,,,,,,,,,,,,,,,,,,,,,,,,,,,,,,,,,,,,,,,,,,,,,,,,,,,,,,flag,190,43,aloud,new,yellow,3000.5629403004423,None,n,3000.5629403004423,None,"['n', 'return']","[0.9533325005322695, 1.5374957006424665]",3000.5629403004423,None,,,59NE,001,2023_Apr_28_0958,ExactRep-v3-final,2021.2.3,59.78215412027395,
,,,,,,,,,,,,43,0,43,0,,,,,,,,,,,,,,,,,,,,,,,,,,,,,,,,,,,,,,,,,,,,,,,,,3004.29276330024,None,,,,,,,,,,,,,,,,,,,,,,,,,,,,,,,,,,,,,,,,,,,,,,,,,,,,,,,,,king,55,44,silent,old,yellow,3002.649478400126,None,n,3002.649478400126,None,"['n', 'return']","[1.1227994002401829, 1.6107291001826525]",3002.649478400126,None,,,59NE,001,2023_Apr_28_0958,ExactRep-v3-final,2021.2.3,59.78215412027395,
,,,,,,,,,,,,44,0,44,0,,,,,,,,,,,,,,,,,,,,,,,,,,,,,,,,,,,,,,,,,,,,,,,,,3006.6452435003594,None,,,,,,,,,,,,,,,,,,,,,,,,,,,,,,,,,,,,,,,,,,,,,,,,,,,,,,,,,rod,109,45,aloud,old,yellow,3004.801518600434,None,y,3004.801518600434,None,"['y', 'return']","[1.179021899588406, 1.8107772003859282]",3004.801518600434,None,,,59NE,001,2023_Apr_28_0958,ExactRep-v3-final,2021.2.3,59.78215412027395,
,,,,,,,,,,,,45,0,45,0,,,,,,,,,,,,,,,,,,,,,,,,,,,,,,,,,,,,,,,,,,,,,,,,,3011.8337764004245,None,,,,,,,,,,,,,,,,,,,,,,,,,,,,,,,,,,,,,,,,,,,,,,,,,,,,,,,,,chance,72,46,silent,old,yellow,3007.153232799843,None,n,3007.153232799843,None,"['y', 'backspace', 'n', 'return']","[1.2990806000307202, 3.139056099578738, 4.019027199596167, 4.643101399764419]",3007.153232799843,None,,,59NE,001,2023_Apr_28_0958,ExactRep-v3-final,2021.2.3,59.78215412027395,
,,,,,,,,,,,,46,0,46,0,,,,,,,,,,,,,,,,,,,,,,,,,,,,,,,,,,,,,,,,,,,,,,,,,3014.1526961000636,None,,,,,,,,,,,,,,,,,,,,,,,,,,,,,,,,,,,,,,,,,,,,,,,,,,,,,,,,,officer,11,47,sing,old,yellow,3012.337185599841,None,y,3012.337185599841,None,"['y', 'return']","[1.2834127992391586, 1.7791802994906902]",3012.337185599841,None,,,59NE,001,2023_Apr_28_0958,ExactRep-v3-final,2021.2.3,59.78215412027395,
,,,,,,,,,,,,47,0,47,0,,,,,,,,,,,,,,,,,,,,,,,,,,,,,,,,,,,,,,,,,,,,,,,,,3016.2049657003954,None,,,,,,,,,,,,,,,,,,,,,,,,,,,,,,,,,,,,,,,,,,,,,,,,,,,,,,,,,poet,182,48,aloud,new,yellow,3014.66205240041,None,n,3014.66205240041,None,"['n', 'return']","[1.078247499652207, 1.510249299928546]",3014.66205240041,None,,,59NE,001,2023_Apr_28_0958,ExactRep-v3-final,2021.2.3,59.78215412027395,
,,,,,,,,,,,,48,0,48,0,,,,,,,,,,,,,,,,,,,,,,,,,,,,,,,,,,,,,,,,,,,,,,,,,3018.2900759996846,None,,,,,,,,,,,,,,,,,,,,,,,,,,,,,,,,,,,,,,,,,,,,,,,,,,,,,,,,,camp,224,49,aloud,new,yellow,3016.717140699737,None,n,3016.717140699737,None,"['n', 'return']","[1.07108089979738, 1.5351622998714447]",3016.717140699737,None,,,59NE,001,2023_Apr_28_0958,ExactRep-v3-final,2021.2.3,59.78215412027395,
,,,,,,,,,,,,49,0,49,0,,,,,,,,,,,,,,,,,,,,,,,,,,,,,,,,,,,,,,,,,,,,,,,,,3020.52582260035,None,,,,,,,,,,,,,,,,,,,,,,,,,,,,,,,,,,,,,,,,,,,,,,,,,,,,,,,,,cabin,34,50,sing,old,yellow,3018.7967910002917,None,y,3018.7967910002917,None,"['y', 'return']","[1.2474692994728684, 1.687598300166428]",3018.7967910002917,None,,,59NE,001,2023_Apr_28_0958,ExactRep-v3-final,2021.2.3,59.78215412027395,
,,,,,,,,,,,,50,0,50,0,,,,,,,,,,,,,,,,,,,,,,,,,,,,,,,,,,,,,,,,,,,,,,,,,3023.0615210998803,None,,,,,,,,,,,,,,,,,,,,,,,,,,,,,,,,,,,,,,,,,,,,,,,,,,,,,,,,,anger,38,51,sing,old,yellow,3021.037176899612,None,y,3021.037176899612,None,"['y', 'return']","[1.423136499710381, 1.9832525001838803]",3021.037176899612,None,,,59NE,001,2023_Apr_28_0958,ExactRep-v3-final,2021.2.3,59.78215412027395,
,,,,,,,,,,,,51,0,51,0,,,,,,,,,,,,,,,,,,,,,,,,,,,,,,,,,,,,,,,,,,,,,,,,,3025.797772199847,None,,,,,,,,,,,,,,,,,,,,,,,,,,,,,,,,,,,,,,,,,,,,,,,,,,,,,,,,,ability,10,52,sing,old,yellow,3023.5765532003716,None,y,3023.5765532003716,None,"['y', 'return']","[1.7078565005213022, 2.179764499887824]",3023.5765532003716,None,,,59NE,001,2023_Apr_28_0958,ExactRep-v3-final,2021.2.3,59.78215412027395,
,,,,,,,,,,,,52,0,52,0,,,,,,,,,,,,,,,,,,,,,,,,,,,,,,,,,,,,,,,,,,,,,,,,,3027.8997593997046,None,,,,,,,,,,,,,,,,,,,,,,,,,,,,,,,,,,,,,,,,,,,,,,,,,,,,,,,,,deed,46,53,silent,old,yellow,3026.307306200266,None,n,3026.307306200266,None,"['n', 'return']","[1.1128655998036265, 1.5450058998540044]",3026.307306200266,None,,,59NE,001,2023_Apr_28_0958,ExactRep-v3-final,2021.2.3,59.78215412027395,
,,,,,,,,,,,,53,0,53,0,,,,,,,,,,,,,,,,,,,,,,,,,,,,,,,,,,,,,,,,,,,,,,,,,3029.935245499946,None,,,,,,,,,,,,,,,,,,,,,,,,,,,,,,,,,,,,,,,,,,,,,,,,,,,,,,,,,palace,17,54,sing,old,yellow,3028.417442300357,None,n,3028.417442300357,None,"['n', 'return']","[0.890824000351131, 1.4828268997371197]",3028.417442300357,None,,,59NE,001,2023_Apr_28_0958,ExactRep-v3-final,2021.2.3,59.78215412027395,
,,,,,,,,,,,,54,0,54,0,,,,,,,,,,,,,,,,,,,,,,,,,,,,,,,,,,,,,,,,,,,,,,,,,3032.6380324000493,None,,,,,,,,,,,,,,,,,,,,,,,,,,,,,,,,,,,,,,,,,,,,,,,,,,,,,,,,,square,45,55,silent,old,yellow,3030.4477505004033,None,n,3030.4477505004033,None,"['n', 'return']","[1.2125221993774176, 2.156564800068736]",3030.4477505004033,None,,,59NE,001,2023_Apr_28_0958,ExactRep-v3-final,2021.2.3,59.78215412027395,
,,,,,,,,,,,,55,0,55,0,,,,,,,,,,,,,,,,,,,,,,,,,,,,,,,,,,,,,,,,,,,,,,,,,3035.257391899824,None,,,,,,,,,,,,,,,,,,,,,,,,,,,,,,,,,,,,,,,,,,,,,,,,,,,,,,,,,advice,188,56,aloud,new,yellow,3033.15685189981,None,n,3033.15685189981,None,"['n', 'return']","[1.0312903998419642, 2.055430599488318]",3033.15685189981,None,,,59NE,001,2023_Apr_28_0958,ExactRep-v3-final,2021.2.3,59.78215412027395,
,,,,,,,,,,,,56,0,56,0,,,,,,,,,,,,,,,,,,,,,,,,,,,,,,,,,,,,,,,,,,,,,,,,,3037.8099026996642,None,,,,,,,,,,,,,,,,,,,,,,,,,,,,,,,,,,,,,,,,,,,,,,,,,,,,,,,,,chief,131,57,silent,new,yellow,3035.768403300084,None,n,3035.768403300084,None,"['n', 'return']","[1.5079469997435808, 1.9959213994443417]",3035.768403300084,None,,,59NE,001,2023_Apr_28_0958,ExactRep-v3-final,2021.2.3,59.78215412027395,
,,,,,,,,,,,,57,0,57,0,,,,,,,,,,,,,,,,,,,,,,,,,,,,,,,,,,,,,,,,,,,,,,,,,3043.148337099701,None,,,,,,,,,,,,,,,,,,,,,,,,,,,,,,,,,,,,,,,,,,,,,,,,,,,,,,,,,sea,159,58,silent,new,yellow,3038.3226445997134,None,n,3038.3226445997134,None,"['n', 'return']","[4.3217099998146296, 4.793730899691582]",3038.3226445997134,None,,,59NE,001,2023_Apr_28_0958,ExactRep-v3-final,2021.2.3,59.78215412027395,
,,,,,,,,,,,,58,0,58,0,,,,,,,,,,,,,,,,,,,,,,,,,,,,,,,,,,,,,,,,,,,,,,,,,3046.802250499837,None,,,,,,,,,,,,,,,,,,,,,,,,,,,,,,,,,,,,,,,,,,,,,,,,,,,,,,,,,event,184,59,aloud,new,yellow,3043.661913000047,None,y,3043.661913000047,None,"['y', 'return']","[2.5025287000462413, 3.0945645002648234]",3043.661913000047,None,,,59NE,001,2023_Apr_28_0958,ExactRep-v3-final,2021.2.3,59.78215412027395,
,,,,,,,,,,,,59,0,59,0,,,,,,,,,,,,,,,,,,,,,,,,,,,,,,,,,,,,,,,,,,,,,,,,,3050.72270150017,None,,,,,,,,,,,,,,,,,,,,,,,,,,,,,,,,,,,,,,,,,,,,,,,,,,,,,,,,,virtue,218,60,aloud,new,yellow,3047.3123805997893,None,y,3047.3123805997893,None,"['y', 'return']","[1.9802380995824933, 3.3640088997781277]",3047.3123805997893,None,,,59NE,001,2023_Apr_28_0958,ExactRep-v3-final,2021.2.3,59.78215412027395,
,,,,,,,,,,,,60,0,60,0,,,,,,,,,,,,,,,,,,,,,,,,,,,,,,,,,,,,,,,,,,,,,,,,,3053.525448200293,None,,,,,,,,,,,,,,,,,,,,,,,,,,,,,,,,,,,,,,,,,,,,,,,,,,,,,,,,,board,12,61,sing,old,yellow,3051.2390906997025,None,y,3051.2390906997025,None,"['y', 'return']","[1.5013359002768993, 2.2534645004197955]",3051.2390906997025,None,,,59NE,001,2023_Apr_28_0958,ExactRep-v3-final,2021.2.3,59.78215412027395,
,,,,,,,,,,,,61,0,61,0,,,,,,,,,,,,,,,,,,,,,,,,,,,,,,,,,,,,,,,,,,,,,,,,,3056.478284600191,None,,,,,,,,,,,,,,,,,,,,,,,,,,,,,,,,,,,,,,,,,,,,,,,,,,,,,,,,,hide,116,62,aloud,old,yellow,3054.0344968000427,None,n,3054.0344968000427,None,"['n', 'return']","[1.810084500350058, 2.409866699948907]",3054.0344968000427,None,,,59NE,001,2023_Apr_28_0958,ExactRep-v3-final,2021.2.3,59.78215412027395,
,,,,,,,,,,,,62,0,62,0,,,,,,,,,,,,,,,,,,,,,,,,,,,,,,,,,,,,,,,,,,,,,,,,,3060.782845299691,None,,,,,,,,,,,,,,,,,,,,,,,,,,,,,,,,,,,,,,,,,,,,,,,,,,,,,,,,,style,76,63,silent,old,yellow,3056.9871517997235,None,n,3056.9871517997235,None,"['n', 'return']","[2.7931185998022556, 3.761196999810636]",3056.9871517997235,None,,,59NE,001,2023_Apr_28_0958,ExactRep-v3-final,2021.2.3,59.78215412027395,
,,,,,,,,,,,,63,0,63,0,,,,,,,,,,,,,,,,,,,,,,,,,,,,,,,,,,,,,,,,,,,,,,,,,3063.46881019976,None,,,,,,,,,,,,,,,,,,,,,,,,,,,,,,,,,,,,,,,,,,,,,,,,,,,,,,,,,butter,78,64,silent,old,yellow,3061.2907715002075,None,y,3061.2907715002075,None,"['y', 'return']","[1.5455986997112632, 2.145604600198567]",3061.2907715002075,None,,,59NE,001,2023_Apr_28_0958,ExactRep-v3-final,2021.2.3,59.78215412027395,
,,,,,,,,,,,,64,0,64,0,,,,,,,,,,,,,,,,,,,,,,,,,,,,,,,,,,,,,,,,,,,,,,,,,3067.122624400072,None,,,,,,,,,,,,,,,,,,,,,,,,,,,,,,,,,,,,,,,,,,,,,,,,,,,,,,,,,storm,43,65,silent,old,yellow,3063.975626300089,None,n,3063.975626300089,None,"['n', 'return']","[1.964929400011897, 3.1006397996097803]",3063.975626300089,None,,,59NE,001,2023_Apr_28_0958,ExactRep-v3-final,2021.2.3,59.78215412027395,
,,,,,,,,,,,,65,0,65,0,,,,,,,,,,,,,,,,,,,,,,,,,,,,,,,,,,,,,,,,,,,,,,,,,3070.6091467002407,None,,,,,,,,,,,,,,,,,,,,,,,,,,,,,,,,,,,,,,,,,,,,,,,,,,,,,,,,,money,138,66,silent,new,yellow,3067.629172099754,None,n,3067.629172099754,None,"['n', 'return']","[1.8713847994804382, 2.9432183001190424]",3067.629172099754,None,,,59NE,001,2023_Apr_28_0958,ExactRep-v3-final,2021.2.3,59.78215412027395,
,,,,,,,,,,,,66,0,66,0,,,,,,,,,,,,,,,,,,,,,,,,,,,,,,,,,,,,,,,,,,,,,,,,,3074.4798023998737,None,,,,,,,,,,,,,,,,,,,,,,,,,,,,,,,,,,,,,,,,,,,,,,,,,,,,,,,,,hall,33,67,sing,old,yellow,3071.1163352997974,None,y,3071.1163352997974,None,"['y', 'return']","[2.5760901998728514, 3.3282628003507853]",3071.1163352997974,None,,,59NE,001,2023_Apr_28_0958,ExactRep-v3-final,2021.2.3,59.78215412027395,
,,,,,,,,,,,,67,0,67,0,,,,,,,,,,,,,,,,,,,,,,,,,,,,,,,,,,,,,,,,,,,,,,,,,3078.3502556998283,None,,,,,,,,,,,,,,,,,,,,,,,,,,,,,,,,,,,,,,,,,,,,,,,,,,,,,,,,,house,96,68,aloud,old,yellow,3074.988984799944,None,n,3074.988984799944,None,"['n', 'return']","[2.639540799893439, 3.3194427993148565]",3074.988984799944,None,,,59NE,001,2023_Apr_28_0958,ExactRep-v3-final,2021.2.3,59.78215412027395,
,,,,,,,,,,,,68,0,68,0,,,,,,,,,,,,,,,,,,,,,,,,,,,,,,,,,,,,,,,,,,,,,,,,,3081.9537382004783,None,,,,,,,,,,,,,,,,,,,,,,,,,,,,,,,,,,,,,,,,,,,,,,,,,,,,,,,,,machine,77,69,silent,old,yellow,3078.8532809000462,None,y,3078.8532809000462,None,"['y', 'return']","[2.263113299384713, 3.0631717992946506]",3078.8532809000462,None,,,59NE,001,2023_Apr_28_0958,ExactRep-v3-final,2021.2.3,59.78215412027395,
,,,,,,,,,,,,69,0,69,0,,,,,,,,,,,,,,,,,,,,,,,,,,,,,,,,,,,,,,,,,,,,,,,,,3084.7399142002687,None,,,,,,,,,,,,,,,,,,,,,,,,,,,,,,,,,,,,,,,,,,,,,,,,,,,,,,,,,cost,24,70,sing,old,yellow,3082.462929399684,None,y,3082.462929399684,None,"['y', 'return']","[1.493559899739921, 2.2375044003129005]",3082.462929399684,None,,,59NE,001,2023_Apr_28_0958,ExactRep-v3-final,2021.2.3,59.78215412027395,
,,,,,,,,,,,,70,0,70,0,,,,,,,,,,,,,,,,,,,,,,,,,,,,,,,,,,,,,,,,,,,,,,,,,3087.1089113997295,None,,,,,,,,,,,,,,,,,,,,,,,,,,,,,,,,,,,,,,,,,,,,,,,,,,,,,,,,,series,230,71,aloud,new,yellow,3085.2502461001277,None,y,3085.2502461001277,None,"['y', 'return']","[1.114108900539577, 1.8261445006355643]",3085.2502461001277,None,,,59NE,001,2023_Apr_28_0958,ExactRep-v3-final,2021.2.3,59.78215412027395,
,,,,,,,,,,,,71,0,71,0,,,,,,,,,,,,,,,,,,,,,,,,,,,,,,,,,,,,,,,,,,,,,,,,,3089.344689300284,None,,,,,,,,,,,,,,,,,,,,,,,,,,,,,,,,,,,,,,,,,,,,,,,,,,,,,,,,,amount,149,72,silent,new,yellow,3087.615856300108,None,n,3087.615856300108,None,"['n', 'return']","[1.2205320997163653, 1.684417000040412]",3087.615856300108,None,,,59NE,001,2023_Apr_28_0958,ExactRep-v3-final,2021.2.3,59.78215412027395,
,,,,,,,,,,,,72,0,72,0,,,,,,,,,,,,,,,,,,,,,,,,,,,,,,,,,,,,,,,,,,,,,,,,,3091.596896099858,None,,,,,,,,,,,,,,,,,,,,,,,,,,,,,,,,,,,,,,,,,,,,,,,,,,,,,,,,,clock,97,73,aloud,old,yellow,3089.8570964997634,None,n,3089.8570964997634,None,"['n', 'return']","[1.2353563997894526, 1.6993551002815366]",3089.8570964997634,None,,,59NE,001,2023_Apr_28_0958,ExactRep-v3-final,2021.2.3,59.78215412027395,
,,,,,,,,,,,,73,0,73,0,,,,,,,,,,,,,,,,,,,,,,,,,,,,,,,,,,,,,,,,,,,,,,,,,3094.082638300024,None,,,,,,,,,,,,,,,,,,,,,,,,,,,,,,,,,,,,,,,,,,,,,,,,,,,,,,,,,vision,231,74,sing,new,yellow,3092.1051334002987,None,y,3092.1051334002987,None,"['y', 'return']","[1.4035104997456074, 1.9313225001096725]",3092.1051334002987,None,,,59NE,001,2023_Apr_28_0958,ExactRep-v3-final,2021.2.3,59.78215412027395,
,,,,,,,,,,,,74,0,74,0,,,,,,,,,,,,,,,,,,,,,,,,,,,,,,,,,,,,,,,,,,,,,,,,,3096.318346099928,None,,,,,,,,,,,,,,,,,,,,,,,,,,,,,,,,,,,,,,,,,,,,,,,,,,,,,,,,,sky,95,75,aloud,old,yellow,3094.594217499718,None,n,3094.594217499718,None,"['n', 'return']","[1.162177899852395, 1.6822931999340653]",3094.594217499718,None,,,59NE,001,2023_Apr_28_0958,ExactRep-v3-final,2021.2.3,59.78215412027395,
,,,,,,,,,,,,75,0,75,0,,,,,,,,,,,,,,,,,,,,,,,,,,,,,,,,,,,,,,,,,,,,,,,,,3098.3367991000414,None,,,,,,,,,,,,,,,,,,,,,,,,,,,,,,,,,,,,,,,,,,,,,,,,,,,,,,,,,shock,13,76,sing,old,yellow,3096.8273636996746,None,n,3096.8273636996746,None,"['n', 'return']","[1.0251603992655873, 1.4650205997750163]",3096.8273636996746,None,,,59NE,001,2023_Apr_28_0958,ExactRep-v3-final,2021.2.3,59.78215412027395,
,,,,,,,,,,,,76,0,76,0,,,,,,,,,,,,,,,,,,,,,,,,,,,,,,,,,,,,,,,,,,,,,,,,,3100.2388666998595,None,,,,,,,,,,,,,,,,,,,,,,,,,,,,,,,,,,,,,,,,,,,,,,,,,,,,,,,,,coin,232,77,aloud,new,yellow,3098.847599499859,None,n,3098.847599499859,None,"['n', 'return']","[0.9487657994031906, 1.3567463997751474]",3098.847599499859,None,,,59NE,001,2023_Apr_28_0958,ExactRep-v3-final,2021.2.3,59.78215412027395,
,,,,,,,,,,,,77,0,77,0,,,,,,,,,,,,,,,,,,,,,,,,,,,,,,,,,,,,,,,,,,,,,,,,,3102.6079662004486,None,,,,,,,,,,,,,,,,,,,,,,,,,,,,,,,,,,,,,,,,,,,,,,,,,,,,,,,,,honour,35,78,sing,old,yellow,3100.747890500352,None,y,3100.747890500352,None,"['y', 'return']","[1.2244637999683619, 1.8164216997101903]",3100.747890500352,None,,,59NE,001,2023_Apr_28_0958,ExactRep-v3-final,2021.2.3,59.78215412027395,
,,,,,,,,,,,,78,0,78,0,,,,,,,,,,,,,,,,,,,,,,,,,,,,,,,,,,,,,,,,,,,,,,,,,3106.6285741999745,None,,,,,,,,,,,,,,,,,,,,,,,,,,,,,,,,,,,,,,,,,,,,,,,,,,,,,,,,,weapon,58,79,silent,old,yellow,3103.1200043996796,None,n,3103.1200043996796,None,"['n', 'return']","[2.9643152998760343, 3.476571999490261]",3103.1200043996796,None,,,59NE,001,2023_Apr_28_0958,ExactRep-v3-final,2021.2.3,59.78215412027395,
,,,,,,,,,,,,79,0,79,0,,,,,,,,,,,,,,,,,,,,,,,,,,,,,,,,,,,,,,,,,,,,,,,,,3113.6021360000595,None,,,,,,,,,,,,,,,,,,,,,,,,,,,,,,,,,,,,,,,,,,,,,,,,,,,,,,,,,seat,74,80,silent,old,yellow,3107.1378180002794,None,y,3107.1378180002794,None,"['y', 'return']","[6.034575500525534, 6.418607700616121]",3107.1378180002794,None,,,59NE,001,2023_Apr_28_0958,ExactRep-v3-final,2021.2.3,59.78215412027395,
,,,,,,,,,,,,80,0,80,0,,,,,,,,,,,,,,,,,,,,,,,,,,,,,,,,,,,,,,,,,,,,,,,,,3119.275802199729,None,,,,,,,,,,,,,,,,,,,,,,,,,,,,,,,,,,,,,,,,,,,,,,,,,,,,,,,,,shore,161,81,sing,new,yellow,3114.1060480996966,None,y,3114.1060480996966,None,"['n', 'backspace', 'y', 'return']","[1.5545108001679182, 3.6183847999200225, 4.0583979999646544, 5.1143037006258965]",3114.1060480996966,None,,,59NE,001,2023_Apr_28_0958,ExactRep-v3-final,2021.2.3,59.78215412027395,
,,,,,,,,,,,,81,0,81,0,,,,,,,,,,,,,,,,,,,,,,,,,,,,,,,,,,,,,,,,,,,,,,,,,3124.4295448996127,None,,,,,,,,,,,,,,,,,,,,,,,,,,,,,,,,,,,,,,,,,,,,,,,,,,,,,,,,,fun,197,82,sing,new,yellow,3119.7882131002843,None,n,3119.7882131002843,None,"['n', 'return']","[4.216297899372876, 4.600187500007451]",3119.7882131002843,None,,,59NE,001,2023_Apr_28_0958,ExactRep-v3-final,2021.2.3,59.78215412027395,
,,,,,,,,,,,,82,0,82,0,,,,,,,,,,,,,,,,,,,,,,,,,,,,,,,,,,,,,,,,,,,,,,,,,3126.531917399727,None,,,,,,,,,,,,,,,,,,,,,,,,,,,,,,,,,,,,,,,,,,,,,,,,,,,,,,,,,effort,215,83,sing,new,yellow,3124.938408800401,None,n,3124.938408800401,None,"['n', 'return']","[1.0341901993378997, 1.546072999946773]",3124.938408800401,None,,,59NE,001,2023_Apr_28_0958,ExactRep-v3-final,2021.2.3,59.78215412027395,
,,,,,,,,,,,,83,0,83,0,,,,,,,,,,,,,,,,,,,,,,,,,,,,,,,,,,,,,,,,,,,,,,,,,3128.4335709000006,None,,,,,,,,,,,,,,,,,,,,,,,,,,,,,,,,,,,,,,,,,,,,,,,,,,,,,,,,,idea,139,84,silent,new,yellow,3127.0410951003432,None,n,3127.0410951003432,None,"['n', 'return']","[0.8514648005366325, 1.3473824001848698]",3127.0410951003432,None,,,59NE,001,2023_Apr_28_0958,ExactRep-v3-final,2021.2.3,59.78215412027395,
,,,,,,,,,,,,84,0,84,0,,,,,,,,,,,,,,,,,,,,,,,,,,,,,,,,,,,,,,,,,,,,,,,,,3130.452470900491,None,,,,,,,,,,,,,,,,,,,,,,,,,,,,,,,,,,,,,,,,,,,,,,,,,,,,,,,,,corner,68,85,silent,old,yellow,3128.9434492997825,None,n,3128.9434492997825,None,"['n', 'return']","[1.0372552005574107, 1.4610724998638034]",3128.9434492997825,None,,,59NE,001,2023_Apr_28_0958,ExactRep-v3-final,2021.2.3,59.78215412027395,
,,,,,,,,,,,,85,0,85,0,,,,,,,,,,,,,,,,,,,,,,,,,,,,,,,,,,,,,,,,,,,,,,,,,3133.188375500031,None,,,,,,,,,,,,,,,,,,,,,,,,,,,,,,,,,,,,,,,,,,,,,,,,,,,,,,,,,pupil,92,86,aloud,old,yellow,3130.9625033997,None,y,3130.9625033997,None,"['y', 'return']","[1.7781097004190087, 2.1780749997124076]",3130.9625033997,None,,,59NE,001,2023_Apr_28_0958,ExactRep-v3-final,2021.2.3,59.78215412027395,
,,,,,,,,,,,,86,0,86,0,,,,,,,,,,,,,,,,,,,,,,,,,,,,,,,,,,,,,,,,,,,,,,,,,3135.2737164003775,None,,,,,,,,,,,,,,,,,,,,,,,,,,,,,,,,,,,,,,,,,,,,,,,,,,,,,,,,,owner,208,87,aloud,new,yellow,3133.6974414000288,None,y,3133.6974414000288,None,"['y', 'return']","[0.91501360014081, 1.5310340002179146]",3133.6974414000288,None,,,59NE,001,2023_Apr_28_0958,ExactRep-v3-final,2021.2.3,59.78215412027395,
,,,,,,,,,,,,87,0,87,0,,,,,,,,,,,,,,,,,,,,,,,,,,,,,,,,,,,,,,,,,,,,,,,,,3137.6761346999556,None,,,,,,,,,,,,,,,,,,,,,,,,,,,,,,,,,,,,,,,,,,,,,,,,,,,,,,,,,hour,238,88,aloud,new,yellow,3135.7756511000916,None,n,3135.7756511000916,None,"['n', 'return']","[1.3970656003803015, 1.8688743999227881]",3135.7756511000916,None,,,59NE,001,2023_Apr_28_0958,ExactRep-v3-final,2021.2.3,59.78215412027395,
,,,,,,,,,,,,88,0,88,0,,,,,,,,,,,,,,,,,,,,,,,,,,,,,,,,,,,,,,,,,,,,,,,,,3139.9620145997033,None,,,,,,,,,,,,,,,,,,,,,,,,,,,,,,,,,,,,,,,,,,,,,,,,,,,,,,,,,city,36,89,sing,old,yellow,3138.1864320002496,None,n,3138.1864320002496,None,"['n', 'return']","[1.1699747005477548, 1.7300422005355358]",3138.1864320002496,None,,,59NE,001,2023_Apr_28_0958,ExactRep-v3-final,2021.2.3,59.78215412027395,
,,,,,,,,,,,,89,0,89,0,,,,,,,,,,,,,,,,,,,,,,,,,,,,,,,,,,,,,,,,,,,,,,,,,3142.447736600414,None,,,,,,,,,,,,,,,,,,,,,,,,,,,,,,,,,,,,,,,,,,,,,,,,,,,,,,,,,coffee,180,90,aloud,new,yellow,3140.4706038003787,None,n,3140.4706038003787,None,"['n', 'return']","[1.5178359998390079, 1.9419585997238755]",3140.4706038003787,None,,,59NE,001,2023_Apr_28_0958,ExactRep-v3-final,2021.2.3,59.78215412027395,
,,,,,,,,,,,,90,0,90,0,,,,,,,,,,,,,,,,,,,,,,,,,,,,,,,,,,,,,,,,,,,,,,,,,3144.8669044999406,None,,,,,,,,,,,,,,,,,,,,,,,,,,,,,,,,,,,,,,,,,,,,,,,,,,,,,,,,,theory,28,91,sing,old,yellow,3142.9589913003147,None,n,3142.9589913003147,None,"['n', 'return']","[1.4774106992408633, 1.8614221001043916]",3142.9589913003147,None,,,59NE,001,2023_Apr_28_0958,ExactRep-v3-final,2021.2.3,59.78215412027395,
,,,,,,,,,,,,91,0,91,0,,,,,,,,,,,,,,,,,,,,,,,,,,,,,,,,,,,,,,,,,,,,,,,,,3147.502861100249,None,,,,,,,,,,,,,,,,,,,,,,,,,,,,,,,,,,,,,,,,,,,,,,,,,,,,,,,,,coast,27,92,sing,old,yellow,3145.3766839997843,None,n,3145.3766839997843,None,"['n', 'return']","[1.6117609003558755, 2.083713300526142]",3145.3766839997843,None,,,59NE,001,2023_Apr_28_0958,ExactRep-v3-final,2021.2.3,59.78215412027395,
,,,,,,,,,,,,92,0,92,0,,,,,,,,,,,,,,,,,,,,,,,,,,,,,,,,,,,,,,,,,,,,,,,,,3149.5998467002064,None,,,,,,,,,,,,,,,,,,,,,,,,,,,,,,,,,,,,,,,,,,,,,,,,,,,,,,,,,journal,193,93,sing,new,yellow,3148.024491599761,None,n,3148.024491599761,None,"['n', 'return']","[1.0358476005494595, 1.515849200077355]",3148.024491599761,None,,,59NE,001,2023_Apr_28_0958,ExactRep-v3-final,2021.2.3,59.78215412027395,
,,,,,,,,,,,,93,0,93,0,,,,,,,,,,,,,,,,,,,,,,,,,,,,,,,,,,,,,,,,,,,,,,,,,3152.290990400128,None,,,,,,,,,,,,,,,,,,,,,,,,,,,,,,,,,,,,,,,,,,,,,,,,,,,,,,,,,corn,220,94,aloud,new,yellow,3150.108868399635,None,y,3150.108868399635,None,"['y', 'return']","[0.9676684001460671, 2.1357822995632887]",3150.108868399635,None,,,59NE,001,2023_Apr_28_0958,ExactRep-v3-final,2021.2.3,59.78215412027395,
,,,,,,,,,,,,94,0,94,0,,,,,,,,,,,,,,,,,,,,,,,,,,,,,,,,,,,,,,,,,,,,,,,,,3154.8936232998967,None,,,,,,,,,,,,,,,,,,,,,,,,,,,,,,,,,,,,,,,,,,,,,,,,,,,,,,,,,shadow,144,95,silent,new,yellow,3152.80302160047,None,n,3152.80302160047,None,"['n', 'return']","[1.0174486003816128, 2.049494800157845]",3152.80302160047,None,,,59NE,001,2023_Apr_28_0958,ExactRep-v3-final,2021.2.3,59.78215412027395,
,,,,,,,,,,,,95,0,95,0,,,,,,,,,,,,,,,,,,,,,,,,,,,,,,,,,,,,,,,,,,,,,,,,,3156.7953497003764,None,,,,,,,,,,,,,,,,,,,,,,,,,,,,,,,,,,,,,,,,,,,,,,,,,,,,,,,,,colony,73,96,silent,old,yellow,3155.4086020998657,None,n,3155.4086020998657,None,"['n', 'return']","[0.9640010995790362, 1.3478782996535301]",3155.4086020998657,None,,,59NE,001,2023_Apr_28_0958,ExactRep-v3-final,2021.2.3,59.78215412027395,
,,,,,,,,,,,,96,0,96,0,,,,,,,,,,,,,,,,,,,,,,,,,,,,,,,,,,,,,,,,,,,,,,,,,3159.9818369997665,None,,,,,,,,,,,,,,,,,,,,,,,,,,,,,,,,,,,,,,,,,,,,,,,,,,,,,,,,,valley,118,97,aloud,old,yellow,3157.3033587001264,None,n,3157.3033587001264,None,"['n', 'return']","[2.069311700761318, 2.637146000750363]",3157.3033587001264,None,,,59NE,001,2023_Apr_28_0958,ExactRep-v3-final,2021.2.3,59.78215412027395,
,,,,,,,,,,,,97,0,97,0,,,,,,,,,,,,,,,,,,,,,,,,,,,,,,,,,,,,,,,,,,,,,,,,,3162.9348857002333,None,,,,,,,,,,,,,,,,,,,,,,,,,,,,,,,,,,,,,,,,,,,,,,,,,,,,,,,,,nail,31,98,sing,old,yellow,3160.4847801998258,None,y,3160.4847801998258,None,"['y', 'return']","[1.4716334994882345, 2.4077284997329116]",3160.4847801998258,None,,,59NE,001,2023_Apr_28_0958,ExactRep-v3-final,2021.2.3,59.78215412027395,
,,,,,,,,,,,,98,0,98,0,,,,,,,,,,,,,,,,,,,,,,,,,,,,,,,,,,,,,,,,,,,,,,,,,3165.2372813001275,None,,,,,,,,,,,,,,,,,,,,,,,,,,,,,,,,,,,,,,,,,,,,,,,,,,,,,,,,,teacher,66,99,silent,old,yellow,3163.4521569004282,None,n,3163.4521569004282,None,"['n', 'return']","[1.1604313999414444, 1.7443090993911028]",3163.4521569004282,None,,,59NE,001,2023_Apr_28_0958,ExactRep-v3-final,2021.2.3,59.78215412027395,
,,,,,,,,,,,,99,0,99,0,,,,,,,,,,,,,,,,,,,,,,,,,,,,,,,,,,,,,,,,,,,,,,,,,3168.0901277000085,None,,,,,,,,,,,,,,,,,,,,,,,,,,,,,,,,,,,,,,,,,,,,,,,,,,,,,,,,,glory,6,100,sing,old,yellow,3165.7473718998954,None,y,3165.7473718998954,None,"['y', 'return']","[1.8010538993403316, 2.3050963999703526]",3165.7473718998954,None,,,59NE,001,2023_Apr_28_0958,ExactRep-v3-final,2021.2.3,59.78215412027395,
,,,,,,,,,,,,100,0,100,0,,,,,,,,,,,,,,,,,,,,,,,,,,,,,,,,,,,,,,,,,,,,,,,,,3170.5258216001093,None,,,,,,,,,,,,,,,,,,,,,,,,,,,,,,,,,,,,,,,,,,,,,,,,,,,,,,,,,origin,141,101,silent,new,yellow,3168.607411400415,None,n,3168.607411400415,None,"['n', 'return']","[1.3011478995904326, 1.877050899900496]",3168.607411400415,None,,,59NE,001,2023_Apr_28_0958,ExactRep-v3-final,2021.2.3,59.78215412027395,
,,,,,,,,,,,,101,0,101,0,,,,,,,,,,,,,,,,,,,,,,,,,,,,,,,,,,,,,,,,,,,,,,,,,3174.513168499805,None,,,,,,,,,,,,,,,,,,,,,,,,,,,,,,,,,,,,,,,,,,,,,,,,,,,,,,,,,engine,32,102,sing,old,yellow,3171.036896600388,None,n,3171.036896600388,None,"['n', 'return']","[2.807590899989009, 3.431527500040829]",3171.036896600388,None,,,59NE,001,2023_Apr_28_0958,ExactRep-v3-final,2021.2.3,59.78215412027395,
,,,,,,,,,,,,102,0,102,0,,,,,,,,,,,,,,,,,,,,,,,,,,,,,,,,,,,,,,,,,,,,,,,,,3177.382593399845,None,,,,,,,,,,,,,,,,,,,,,,,,,,,,,,,,,,,,,,,,,,,,,,,,,,,,,,,,,steam,64,103,silent,old,yellow,3175.025340599939,None,n,3175.025340599939,None,"['n', 'return']","[1.6674097999930382, 2.323082899674773]",3175.025340599939,None,,,59NE,001,2023_Apr_28_0958,ExactRep-v3-final,2021.2.3,59.78215412027395,
,,,,,,,,,,,,103,0,103,0,,,,,,,,,,,,,,,,,,,,,,,,,,,,,,,,,,,,,,,,,,,,,,,,,3181.336711799726,None,,,,,,,,,,,,,,,,,,,,,,,,,,,,,,,,,,,,,,,,,,,,,,,,,,,,,,,,,moral,204,104,aloud,new,yellow,3177.895663900301,None,n,3177.895663900301,None,"['n', 'return']","[2.2847688999027014, 3.404797099530697]",3177.895663900301,None,,,59NE,001,2023_Apr_28_0958,ExactRep-v3-final,2021.2.3,59.78215412027395,
,,,,,,,,,,,,104,0,104,0,,,,,,,,,,,,,,,,,,,,,,,,,,,,,,,,,,,,,,,,,,,,,,,,,3185.974577999674,None,,,,,,,,,,,,,,,,,,,,,,,,,,,,,,,,,,,,,,,,,,,,,,,,,,,,,,,,,present,52,105,silent,old,yellow,3181.8477828996256,None,y,3181.8477828996256,None,"['y', 'return']","[3.340779200196266, 4.08470069989562]",3181.8477828996256,None,,,59NE,001,2023_Apr_28_0958,ExactRep-v3-final,2021.2.3,59.78215412027395,
,,,,,,,,,,,,105,0,105,0,,,,,,,,,,,,,,,,,,,,,,,,,,,,,,,,,,,,,,,,,,,,,,,,,3189.6284902002662,None,,,,,,,,,,,,,,,,,,,,,,,,,,,,,,,,,,,,,,,,,,,,,,,,,,,,,,,,,home,125,106,silent,new,yellow,3186.48600159958,None,n,3186.48600159958,None,"['n', 'return']","[2.1984184002503753, 3.1024644002318382]",3186.48600159958,None,,,59NE,001,2023_Apr_28_0958,ExactRep-v3-final,2021.2.3,59.78215412027395,
,,,,,,,,,,,,106,0,106,0,,,,,,,,,,,,,,,,,,,,,,,,,,,,,,,,,,,,,,,,,,,,,,,,,3192.1474449001253,None,,,,,,,,,,,,,,,,,,,,,,,,,,,,,,,,,,,,,,,,,,,,,,,,,,,,,,,,,person,110,107,aloud,old,yellow,3190.137621000409,None,n,3190.137621000409,None,"['n', 'return']","[1.2669500997290015, 1.9709124993532896]",3190.137621000409,None,,,59NE,001,2023_Apr_28_0958,ExactRep-v3-final,2021.2.3,59.78215412027395,
,,,,,,,,,,,,107,0,107,0,,,,,,,,,,,,,,,,,,,,,,,,,,,,,,,,,,,,,,,,,,,,,,,,,3194.4498538998887,None,,,,,,,,,,,,,,,,,,,,,,,,,,,,,,,,,,,,,,,,,,,,,,,,,,,,,,,,,wine,103,108,aloud,old,yellow,3192.664768899791,None,n,3192.664768899791,None,"['n', 'return']","[1.1317491000518203, 1.739759899675846]",3192.664768899791,None,,,59NE,001,2023_Apr_28_0958,ExactRep-v3-final,2021.2.3,59.78215412027395,
,,,,,,,,,,,,108,0,108,0,,,,,,,,,,,,,,,,,,,,,,,,,,,,,,,,,,,,,,,,,,,,,,,,,3197.3691940996796,None,,,,,,,,,,,,,,,,,,,,,,,,,,,,,,,,,,,,,,,,,,,,,,,,,,,,,,,,,judge,26,109,sing,old,yellow,3194.963723500259,None,n,3194.963723500259,None,"['n', 'return']","[1.7846431005746126, 2.3608133997768164]",3194.963723500259,None,,,59NE,001,2023_Apr_28_0958,ExactRep-v3-final,2021.2.3,59.78215412027395,
,,,,,,,,,,,,109,0,109,0,,,,,,,,,,,,,,,,,,,,,,,,,,,,,,,,,,,,,,,,,,,,,,,,,3199.4380141003057,None,,,,,,,,,,,,,,,,,,,,,,,,,,,,,,,,,,,,,,,,,,,,,,,,,,,,,,,,,fire,56,110,silent,old,yellow,3197.877802300267,None,n,3197.877802300267,None,"['n', 'return']","[1.0787475993856788, 1.5266320994123816]",3197.877802300267,None,,,59NE,001,2023_Apr_28_0958,ExactRep-v3-final,2021.2.3,59.78215412027395,
,,,,,,,,,,,,110,0,110,0,,,,,,,,,,,,,,,,,,,,,,,,,,,,,,,,,,,,,,,,,,,,,,,,,3201.5902730999514,None,,,,,,,,,,,,,,,,,,,,,,,,,,,,,,,,,,,,,,,,,,,,,,,,,,,,,,,,,science,235,111,sing,new,yellow,3199.9578008996323,None,n,3199.9578008996323,None,"['n', 'return']","[1.2147524999454618, 1.5906343003734946]",3199.9578008996323,None,,,59NE,001,2023_Apr_28_0958,ExactRep-v3-final,2021.2.3,59.78215412027395,
,,,,,,,,,,,,111,0,111,0,,,,,,,,,,,,,,,,,,,,,,,,,,,,,,,,,,,,,,,,,,,,,,,,,3203.8424613000825,None,,,,,,,,,,,,,,,,,,,,,,,,,,,,,,,,,,,,,,,,,,,,,,,,,,,,,,,,,village,135,112,silent,new,yellow,3202.1013989998028,None,n,3202.1013989998028,None,"['n', 'return']","[1.191198500804603, 1.703115800395608]",3202.1013989998028,None,,,59NE,001,2023_Apr_28_0958,ExactRep-v3-final,2021.2.3,59.78215412027395,
,,,,,,,,,,,,112,0,112,0,,,,,,,,,,,,,,,,,,,,,,,,,,,,,,,,,,,,,,,,,,,,,,,,,3206.0611851997674,None,,,,,,,,,,,,,,,,,,,,,,,,,,,,,,,,,,,,,,,,,,,,,,,,,,,,,,,,,charm,75,113,silent,old,yellow,3204.355438699946,None,n,3204.355438699946,None,"['n', 'return']","[1.1850685998797417, 1.6650705002248287]",3204.355438699946,None,,,59NE,001,2023_Apr_28_0958,ExactRep-v3-final,2021.2.3,59.78215412027395,
,,,,,,,,,,,,113,0,113,0,,,,,,,,,,,,,,,,,,,,,,,,,,,,,,,,,,,,,,,,,,,,,,,,,3208.1635325001553,None,,,,,,,,,,,,,,,,,,,,,,,,,,,,,,,,,,,,,,,,,,,,,,,,,,,,,,,,,dress,153,114,silent,new,yellow,3206.5724996998906,None,n,3206.5724996998906,None,"['n', 'return']","[1.0000454001128674, 1.5521085001528263]",3206.5724996998906,None,,,59NE,001,2023_Apr_28_0958,ExactRep-v3-final,2021.2.3,59.78215412027395,
,,,,,,,,,,,,114,0,114,0,,,,,,,,,,,,,,,,,,,,,,,,,,,,,,,,,,,,,,,,,,,,,,,,,3215.6042451001704,None,,,,,,,,,,,,,,,,,,,,,,,,,,,,,,,,,,,,,,,,,,,,,,,,,,,,,,,,,window,158,115,silent,new,yellow,3208.6696333000436,None,n,3208.6696333000436,None,"['n', 'return']","[6.366915600374341, 6.894894000142813]",3208.6696333000436,None,,,59NE,001,2023_Apr_28_0958,ExactRep-v3-final,2021.2.3,59.78215412027395,
,,,,,,,,,,,,115,0,115,0,,,,,,,,,,,,,,,,,,,,,,,,,,,,,,,,,,,,,,,,,,,,,,,,,3217.5229024998844,None,,,,,,,,,,,,,,,,,,,,,,,,,,,,,,,,,,,,,,,,,,,,,,,,,,,,,,,,,troops,222,116,aloud,new,yellow,3216.1128409001976,None,n,3216.1128409001976,None,"['n', 'return']","[0.9799042996019125, 1.3716893997043371]",3216.1128409001976,None,,,59NE,001,2023_Apr_28_0958,ExactRep-v3-final,2021.2.3,59.78215412027395,
,,,,,,,,,,,,116,0,116,0,,,,,,,,,,,,,,,,,,,,,,,,,,,,,,,,,,,,,,,,,,,,,,,,,3219.7249114997685,None,,,,,,,,,,,,,,,,,,,,,,,,,,,,,,,,,,,,,,,,,,,,,,,,,,,,,,,,,soul,150,117,silent,new,yellow,3218.023982799612,None,n,3218.023982799612,None,"['n', 'return']","[1.2526257000863552, 1.6685365000739694]",3218.023982799612,None,,,59NE,001,2023_Apr_28_0958,ExactRep-v3-final,2021.2.3,59.78215412027395,
,,,,,,,,,,,,117,0,117,0,,,,,,,,,,,,,,,,,,,,,,,,,,,,,,,,,,,,,,,,,,,,,,,,,3221.6603778004646,None,,,,,,,,,,,,,,,,,,,,,,,,,,,,,,,,,,,,,,,,,,,,,,,,,,,,,,,,,body,120,118,silent,new,yellow,3220.2393794003874,None,n,3220.2393794003874,None,"['n', 'return']","[0.9251349996775389, 1.3731525000184774]",3220.2393794003874,None,,,59NE,001,2023_Apr_28_0958,ExactRep-v3-final,2021.2.3,59.78215412027395,
,,,,,,,,,,,,118,0,118,0,,,,,,,,,,,,,,,,,,,,,,,,,,,,,,,,,,,,,,,,,,,,,,,,,3223.562236400321,None,,,,,,,,,,,,,,,,,,,,,,,,,,,,,,,,,,,,,,,,,,,,,,,,,,,,,,,,,garden,203,119,sing,new,yellow,3222.1707234000787,None,n,3222.1707234000787,None,"['n', 'return']","[0.9698445992544293, 1.3538320995867252]",3222.1707234000787,None,,,59NE,001,2023_Apr_28_0958,ExactRep-v3-final,2021.2.3,59.78215412027395,
,,,,,,,,,,,,119,0,119,0,,,,,,,,,,,,,,,,,,,,,,,,,,,,,,,,,,,,,,,,,,,,,,,,,3225.4474946996197,None,,,,,,,,,,,,,,,,,,,,,,,,,,,,,,,,,,,,,,,,,,,,,,,,,,,,,,,,,girl,37,120,sing,old,yellow,3224.0740091996267,None,n,3224.0740091996267,None,"['n', 'return']","[0.8664977997541428, 1.3305043000727892]",3224.0740091996267,None,,,59NE,001,2023_Apr_28_0958,ExactRep-v3-final,2021.2.3,59.78215412027395,
,,,,,,,,,,,,120,0,120,0,,,,,,,,,,,,,,,,,,,,,,,,,,,,,,,,,,,,,,,,,,,,,,,,,3227.5161945996806,None,,,,,,,,,,,,,,,,,,,,,,,,,,,,,,,,,,,,,,,,,,,,,,,,,,,,,,,,,plain,51,121,silent,old,yellow,3225.959837799892,None,n,3225.959837799892,None,"['n', 'return']","[0.9650311004370451, 1.5166629003360868]",3225.959837799892,None,,,59NE,001,2023_Apr_28_0958,ExactRep-v3-final,2021.2.3,59.78215412027395,
,,,,,,,,,,,,121,0,121,0,,,,,,,,,,,,,,,,,,,,,,,,,,,,,,,,,,,,,,,,,,,,,,,,,3229.618080800399,None,,,,,,,,,,,,,,,,,,,,,,,,,,,,,,,,,,,,,,,,,,,,,,,,,,,,,,,,,picture,124,122,silent,new,yellow,3228.0361288003623,None,n,3228.0361288003623,None,"['n', 'return']","[1.0803669998422265, 1.544387400150299]",3228.0361288003623,None,,,59NE,001,2023_Apr_28_0958,ExactRep-v3-final,2021.2.3,59.78215412027395,
,,,,,,,,,,,,122,0,122,0,,,,,,,,,,,,,,,,,,,,,,,,,,,,,,,,,,,,,,,,,,,,,,,,,3231.78700369969,None,,,,,,,,,,,,,,,,,,,,,,,,,,,,,,,,,,,,,,,,,,,,,,,,,,,,,,,,,tool,1,123,sing,old,yellow,3230.1299564996734,None,y,3230.1299564996734,None,"['y', 'return']","[1.1147370003163815, 1.610679100267589]",3230.1299564996734,None,,,59NE,001,2023_Apr_28_0958,ExactRep-v3-final,2021.2.3,59.78215412027395,
,,,,,,,,,,,,123,0,123,0,,,,,,,,,,,,,,,,,,,,,,,,,,,,,,,,,,,,,,,,,,,,,,,,,3234.0727380001917,None,,,,,,,,,,,,,,,,,,,,,,,,,,,,,,,,,,,,,,,,,,,,,,,,,,,,,,,,,cash,148,124,silent,new,yellow,3232.2964994003996,None,n,3232.2964994003996,None,"['n', 'return']","[1.4040161008015275, 1.7402203008532524]",3232.2964994003996,None,,,59NE,001,2023_Apr_28_0958,ExactRep-v3-final,2021.2.3,59.78215412027395,
,,,,,,,,,,,,124,0,124,0,,,,,,,,,,,,,,,,,,,,,,,,,,,,,,,,,,,,,,,,,,,,,,,,,3236.0428891004995,None,,,,,,,,,,,,,,,,,,,,,,,,,,,,,,,,,,,,,,,,,,,,,,,,,,,,,,,,,love,146,125,silent,new,yellow,3234.581263899803,None,n,3234.581263899803,None,"['n', 'return']","[1.0872053997591138, 1.423328099772334]",3234.581263899803,None,,,59NE,001,2023_Apr_28_0958,ExactRep-v3-final,2021.2.3,59.78215412027395,
,,,,,,,,,,,,125,0,125,0,,,,,,,,,,,,,,,,,,,,,,,,,,,,,,,,,,,,,,,,,,,,,,,,,3238.5939415004104,None,,,,,,,,,,,,,,,,,,,,,,,,,,,,,,,,,,,,,,,,,,,,,,,,,,,,,,,,,mind,207,126,sing,new,yellow,3236.5484448997304,None,n,3236.5484448997304,None,"['n', 'return']","[1.048063499853015, 2.008178099989891]",3236.5484448997304,None,,,59NE,001,2023_Apr_28_0958,ExactRep-v3-final,2021.2.3,59.78215412027395,
,,,,,,,,,,,,126,0,126,0,,,,,,,,,,,,,,,,,,,,,,,,,,,,,,,,,,,,,,,,,,,,,,,,,3240.8127854000777,None,,,,,,,,,,,,,,,,,,,,,,,,,,,,,,,,,,,,,,,,,,,,,,,,,,,,,,,,,soil,225,127,sing,new,yellow,3239.1060087997466,None,n,3239.1060087997466,None,"['n', 'return']","[1.1064604995772243, 1.6746241999790072]",3239.1060087997466,None,,,59NE,001,2023_Apr_28_0958,ExactRep-v3-final,2021.2.3,59.78215412027395,
,,,,,,,,,,,,127,0,127,0,,,,,,,,,,,,,,,,,,,,,,,,,,,,,,,,,,,,,,,,,,,,,,,,,3242.965006600134,None,,,,,,,,,,,,,,,,,,,,,,,,,,,,,,,,,,,,,,,,,,,,,,,,,,,,,,,,,doctor,25,128,sing,old,yellow,3241.3212010003626,None,y,3241.3212010003626,None,"['y', 'return']","[1.1873158998787403, 1.6113226003944874]",3241.3212010003626,None,,,59NE,001,2023_Apr_28_0958,ExactRep-v3-final,2021.2.3,59.78215412027395,
,,,,,,,,,,,,128,0,128,0,,,,,,,,,,,,,,,,,,,,,,,,,,,,,,,,,,,,,,,,,,,,,,,,,3245.000379299745,None,,,,,,,,,,,,,,,,,,,,,,,,,,,,,,,,,,,,,,,,,,,,,,,,,,,,,,,,,lord,183,129,sing,new,yellow,3243.475641500205,None,y,3243.475641500205,None,"['y', 'return']","[1.0248377993702888, 1.4889433002099395]",3243.475641500205,None,,,59NE,001,2023_Apr_28_0958,ExactRep-v3-final,2021.2.3,59.78215412027395,
,,,,,,,,,,,,129,0,129,0,,,,,,,,,,,,,,,,,,,,,,,,,,,,,,,,,,,,,,,,,,,,,,,,,3247.4362243004143,None,,,,,,,,,,,,,,,,,,,,,,,,,,,,,,,,,,,,,,,,,,,,,,,,,,,,,,,,,prison,54,130,silent,old,yellow,3245.5123733002692,None,y,3245.5123733002692,None,"['y', 'return']","[1.3482857001945376, 1.8761662002652884]",3245.5123733002692,None,,,59NE,001,2023_Apr_28_0958,ExactRep-v3-final,2021.2.3,59.78215412027395,
