trials_fam.thisRepN,trials_fam.thisTrialN,trials_fam.thisN,trials_fam.thisIndex,trials_prc.thisRepN,trials_prc.thisTrialN,trials_prc.thisN,trials_prc.thisIndex,StudyLoop.thisRepN,StudyLoop.thisTrialN,StudyLoop.thisN,StudyLoop.thisIndex,TestLoop.thisRepN,TestLoop.thisTrialN,TestLoop.thisN,TestLoop.thisIndex,text_colortest.started,text_colortest.stopped,key_colortest.keys,key_colortest.rt,key_colortest.started,key_colortest.stopped,textCondition.started,textCondition.stopped,keyCondition.keys,keyCondition.rt,keyCondition.started,keyCondition.stopped,Condition_between,Condition_counterbal,keyWelcome.keys,keyWelcome.rt,keyWelcome.started,keyWelcome.stopped,welcome_a.started,welcome_a.stopped,welcome_b.started,welcome_b.stopped,welcome_c.started,welcome_c.stopped,welcome_d.started,welcome_d.stopped,welcome_e.started,welcome_e.stopped,welcome_f.started,welcome_f.stopped,key_resp_fam_inst.keys,key_resp_fam_inst.rt,key_resp_fam_inst.started,key_resp_fam_inst.stopped,fam_a.started,fam_a.stopped,fam_b.started,fam_b.stopped,fam_c.started,fam_c.stopped,fam_d.started,fam_d.stopped,fam_e.started,fam_e.stopped,fam_f.started,fam_f.stopped,text_famil.started,text_famil.stopped,textBlank500.started,textBlank500.stopped,key_resp_prc_inst.keys,key_resp_prc_inst.rt,key_resp_prc_inst.started,key_resp_prc_inst.stopped,prac_a.started,prac_a.stopped,prac_b.started,prac_b.stopped,prac_c.started,prac_c.stopped,prac_d.started,prac_d.stopped,prac_e.started,prac_e.stopped,prac_f.started,prac_f.stopped,text_prc_trial.started,text_prc_trial.stopped,key_resp_study_inst.keys,key_resp_study_inst.rt,key_resp_study_inst.started,key_resp_study_inst.stopped,crit_a.started,crit_a.stopped,crit_b.started,crit_b.stopped,crit_c.started,crit_c.stopped,crit_d.started,crit_d.stopped,crit_e.started,crit_e.stopped,crit_f.started,crit_f.stopped,study_word,study_num,study_order,study_type,word_color,textStudy.started,textStudy.stopped,keyStudy.keys,keyStudy.started,keyStudy.stopped,post_study.started,post_study.stopped,key_resp_post_study.keys,key_resp_post_study.rt,key_resp_post_study.started,key_resp_post_study.stopped,test_inst.started,test_inst.stopped,key_resp_test_inst.keys,key_resp_test_inst.rt,key_resp_test_inst.started,key_resp_test_inst.stopped,test_word,test_num,test_order,test_condition,old_new_test,word_color_test,textConf.started,textConf.stopped,Participant Response,textInput.started,textInput.stopped,keyResp.keys,keyResp.rt,keyResp.started,keyResp.stopped,textEnd.started,textEnd.stopped,participant,session,date,expName,psychopyVersion,frameRate,
,,,,,,,,,,,,,,,,15.042464299942367,None,y,3.137498699943535,15.042464299942367,None,,,,,,,,,,,,,,,,,,,,,,,,,,,,,,,,,,,,,,,,,,,,,,,,,,,,,,,,,,,,,,,,,,,,,,,,,,,,,,,,,,,,,,,,,,,,,,,,,,,,,,,,,,,,,,,,,,,,,,5,001,2023_Jan_30_1213,ExactRep-v3-final,2021.2.3,59.925919544372796,
,,,,,,,,,,,,,,,,,,,,,,18.209525699960068,None,e,0.8904498999472708,18.209525699960068,None,,,,,,,,,,,,,,,,,,,,,,,,,,,,,,,,,,,,,,,,,,,,,,,,,,,,,,,,,,,,,,,,,,,,,,,,,,,,,,,,,,,,,,,,,,,,,,,,,,,,,,,,,,,,,,,,5,001,2023_Jan_30_1213,ExactRep-v3-final,2021.2.3,59.925919544372796,
,,,,,,,,,,,,,,,,,,,,,,,,,,,,colorfoils,e,space,887.7926368999761,29.2433752999641,None,,,,,,,,,,,,,,,,,,,,,,,,,,,,,,,,,,,,,,,,,,,,,,,,,,,,,,,,,,,,,,,,,,,,,,,,,,,,,,,,,,,,,,,,,,,,,,,,,,,,,,,,,,5,001,2023_Jan_30_1213,ExactRep-v3-final,2021.2.3,59.925919544372796,
,,,,,,,,,,,,,,,,,,,,,,,,,,,,,,,,,,19.299961399985477,None,19.299961399985477,None,19.299961399985477,None,19.299961399985477,None,19.299961399985477,None,19.299961399985477,None,space,21.36827199999243,927.1956917999778,None,,,,,,,,,,,,,,,,,,,,,,,,,,,,,,,,,,,,,,,,,,,,,,,,,,,,,,,,,,,,,,,,,,,,,,,,,,,,,,,,,,,,,,,,,,5,001,2023_Jan_30_1213,ExactRep-v3-final,2021.2.3,59.925919544372796,
0,0,0,0,,,,,,,,,,,,,,,,,,,,,,,,,,,,,,,,,,,,,,,,,,,,,,,917.2374715999467,None,917.2374715999467,None,917.2374715999467,None,917.2374715999467,None,917.2374715999467,None,917.2374715999467,None,948.6577070999192,None,950.6578376999823,None,,,,,,,,,,,,,,,,,,,,,,,,,,,,,,,,,,,,,,,,,,,,,,,,,,,,,,,,,,,,,,,,,,,,,,,,,,5,001,2023_Jan_30_1213,ExactRep-v3-final,2021.2.3,59.925919544372796,
1,0,1,0,,,,,,,,,,,,,,,,,,,,,,,,,,,,,,,,,,,,,,,,,,,,,,,,,,,,,,,,,,,951.1910085999407,None,953.1769623999717,None,,,,,,,,,,,,,,,,,,,,,,,,,,,,,,,,,,,,,,,,,,,,,,,,,,,,,,,,,,,,,,,,,,,,,,,,,,5,001,2023_Jan_30_1213,ExactRep-v3-final,2021.2.3,59.925919544372796,
2,0,2,0,,,,,,,,,,,,,,,,,,,,,,,,,,,,,,,,,,,,,,,,,,,,,,,,,,,,,,,,,,,953.6775370999239,None,955.6794976999518,None,,,,,,,,,,,,,,,,,,,,,,,,,,,,,,,,,,,,,,,,,,,,,,,,,,,,,,,,,,,,,,,,,,,,,,,,,,5,001,2023_Jan_30_1213,ExactRep-v3-final,2021.2.3,59.925919544372796,
3,0,3,0,,,,,,,,,,,,,,,,,,,,,,,,,,,,,,,,,,,,,,,,,,,,,,,,,,,,,,,,,,,956.182282899972,None,958.181942999945,None,,,,,,,,,,,,,,,,,,,,,,,,,,,,,,,,,,,,,,,,,,,,,,,,,,,,,,,,,,,,,,,,,,,,,,,,,,5,001,2023_Jan_30_1213,ExactRep-v3-final,2021.2.3,59.925919544372796,
4,0,4,0,,,,,,,,,,,,,,,,,,,,,,,,,,,,,,,,,,,,,,,,,,,,,,,,,,,,,,,,,,,958.6919515999034,None,960.701137600001,None,,,,,,,,,,,,,,,,,,,,,,,,,,,,,,,,,,,,,,,,,,,,,,,,,,,,,,,,,,,,,,,,,,,,,,,,,,5,001,2023_Jan_30_1213,ExactRep-v3-final,2021.2.3,59.925919544372796,
5,0,5,0,,,,,,,,,,,,,,,,,,,,,,,,,,,,,,,,,,,,,,,,,,,,,,,,,,,,,,,,,,,961.2016354999505,None,963.2034412999637,None,,,,,,,,,,,,,,,,,,,,,,,,,,,,,,,,,,,,,,,,,,,,,,,,,,,,,,,,,,,,,,,,,,,,,,,,,,5,001,2023_Jan_30_1213,ExactRep-v3-final,2021.2.3,59.925919544372796,
6,0,6,0,,,,,,,,,,,,,,,,,,,,,,,,,,,,,,,,,,,,,,,,,,,,,,,,,,,,,,,,,,,963.7039757999592,None,965.7060961999232,None,,,,,,,,,,,,,,,,,,,,,,,,,,,,,,,,,,,,,,,,,,,,,,,,,,,,,,,,,,,,,,,,,,,,,,,,,,5,001,2023_Jan_30_1213,ExactRep-v3-final,2021.2.3,59.925919544372796,
7,0,7,0,,,,,,,,,,,,,,,,,,,,,,,,,,,,,,,,,,,,,,,,,,,,,,,,,,,,,,,,,,,966.2067066999152,None,968.2086190999253,None,,,,,,,,,,,,,,,,,,,,,,,,,,,,,,,,,,,,,,,,,,,,,,,,,,,,,,,,,,,,,,,,,,,,,,,,,,5,001,2023_Jan_30_1213,ExactRep-v3-final,2021.2.3,59.925919544372796,
8,0,8,0,,,,,,,,,,,,,,,,,,,,,,,,,,,,,,,,,,,,,,,,,,,,,,,,,,,,,,,,,,,968.7090758999111,None,970.7109047999838,None,,,,,,,,,,,,,,,,,,,,,,,,,,,,,,,,,,,,,,,,,,,,,,,,,,,,,,,,,,,,,,,,,,,,,,,,,,5,001,2023_Jan_30_1213,ExactRep-v3-final,2021.2.3,59.925919544372796,
9,0,9,0,,,,,,,,,,,,,,,,,,,,,,,,,,,,,,,,,,,,,,,,,,,,,,,,,,,,,,,,,,,971.2112986999564,None,973.2136575999903,None,,,,,,,,,,,,,,,,,,,,,,,,,,,,,,,,,,,,,,,,,,,,,,,,,,,,,,,,,,,,,,,,,,,,,,,,,,5,001,2023_Jan_30_1213,ExactRep-v3-final,2021.2.3,59.925919544372796,
10,0,10,0,,,,,,,,,,,,,,,,,,,,,,,,,,,,,,,,,,,,,,,,,,,,,,,,,,,,,,,,,,,973.7139973999001,None,975.7157943999628,None,,,,,,,,,,,,,,,,,,,,,,,,,,,,,,,,,,,,,,,,,,,,,,,,,,,,,,,,,,,,,,,,,,,,,,,,,,5,001,2023_Jan_30_1213,ExactRep-v3-final,2021.2.3,59.925919544372796,
11,0,11,0,,,,,,,,,,,,,,,,,,,,,,,,,,,,,,,,,,,,,,,,,,,,,,,,,,,,,,,,,,,976.2164788999362,None,978.2185211000033,None,,,,,,,,,,,,,,,,,,,,,,,,,,,,,,,,,,,,,,,,,,,,,,,,,,,,,,,,,,,,,,,,,,,,,,,,,,5,001,2023_Jan_30_1213,ExactRep-v3-final,2021.2.3,59.925919544372796,
12,0,12,0,,,,,,,,,,,,,,,,,,,,,,,,,,,,,,,,,,,,,,,,,,,,,,,,,,,,,,,,,,,978.7190990999807,None,980.7208639999153,None,,,,,,,,,,,,,,,,,,,,,,,,,,,,,,,,,,,,,,,,,,,,,,,,,,,,,,,,,,,,,,,,,,,,,,,,,,5,001,2023_Jan_30_1213,ExactRep-v3-final,2021.2.3,59.925919544372796,
13,0,13,0,,,,,,,,,,,,,,,,,,,,,,,,,,,,,,,,,,,,,,,,,,,,,,,,,,,,,,,,,,,981.2214590999065,None,983.2233227000106,None,,,,,,,,,,,,,,,,,,,,,,,,,,,,,,,,,,,,,,,,,,,,,,,,,,,,,,,,,,,,,,,,,,,,,,,,,,5,001,2023_Jan_30_1213,ExactRep-v3-final,2021.2.3,59.925919544372796,
14,0,14,0,,,,,,,,,,,,,,,,,,,,,,,,,,,,,,,,,,,,,,,,,,,,,,,,,,,,,,,,,,,983.7240961999632,None,985.7261691999156,None,,,,,,,,,,,,,,,,,,,,,,,,,,,,,,,,,,,,,,,,,,,,,,,,,,,,,,,,,,,,,,,,,,,,,,,,,,5,001,2023_Jan_30_1213,ExactRep-v3-final,2021.2.3,59.925919544372796,
,,,,,,,,,,,,,,,,,,,,,,,,,,,,,,,,,,,,,,,,,,,,,,,,,,,,,,,,,,,,,,,,,,space,20.402444300008938,996.3694732999429,None,,,,,,,,,,,,,,,,,,,,,,,,,,,,,,,,,,,,,,,,,,,,,,,,,,,,,,,,,,,,,,,,,,,,,,5,001,2023_Jan_30_1213,ExactRep-v3-final,2021.2.3,59.925919544372796,
,,,,0,0,0,0,,,,,,,,,,,,,,,,,,,,,,,,,,,,,,,,,,,,,,,,,,,,,,,,,,,,,,,,,1018.8593208999373,None,,,,,986.405128799961,None,986.405128799961,None,986.405128799961,None,986.405128799961,None,986.405128799961,None,986.405128799961,None,1016.8549294999102,None,,,,,,,,,,,,,,,,,,,,,,,,,,,,,,,,,,,,,,,,,,,,,,,,,,,,,,,,5,001,2023_Jan_30_1213,ExactRep-v3-final,2021.2.3,59.925919544372796,
,,,,1,0,1,0,,,,,,,,,,,,,,,,,,,,,,,,,,,,,,,,,,,,,,,,,,,,,,,,,,,,,,,,,1021.3617445999989,None,,,,,,,,,,,,,,,,,1019.3598127999576,None,,,,,,,,,,,,,,,,,,,,,,,,,,,,,,,,,,,,,,,,,,,,,,,,,,,,,,,,5,001,2023_Jan_30_1213,ExactRep-v3-final,2021.2.3,59.925919544372796,
,,,,2,0,2,0,,,,,,,,,,,,,,,,,,,,,,,,,,,,,,,,,,,,,,,,,,,,,,,,,,,,,,,,,1023.8645520999562,None,,,,,,,,,,,,,,,,,1021.8623908999143,None,,,,,,,,,,,,,,,,,,,,,,,,,,,,,,,,,,,,,,,,,,,,,,,,,,,,,,,,5,001,2023_Jan_30_1213,ExactRep-v3-final,2021.2.3,59.925919544372796,
,,,,3,0,3,0,,,,,,,,,,,,,,,,,,,,,,,,,,,,,,,,,,,,,,,,,,,,,,,,,,,,,,,,,1026.3668120999355,None,,,,,,,,,,,,,,,,,1024.364734999952,None,,,,,,,,,,,,,,,,,,,,,,,,,,,,,,,,,,,,,,,,,,,,,,,,,,,,,,,,5,001,2023_Jan_30_1213,ExactRep-v3-final,2021.2.3,59.925919544372796,
,,,,4,0,4,0,,,,,,,,,,,,,,,,,,,,,,,,,,,,,,,,,,,,,,,,,,,,,,,,,,,,,,,,,1028.8693071999587,None,,,,,,,,,,,,,,,,,1026.8673185999505,None,,,,,,,,,,,,,,,,,,,,,,,,,,,,,,,,,,,,,,,,,,,,,,,,,,,,,,,,5,001,2023_Jan_30_1213,ExactRep-v3-final,2021.2.3,59.925919544372796,
,,,,5,0,5,0,,,,,,,,,,,,,,,,,,,,,,,,,,,,,,,,,,,,,,,,,,,,,,,,,,,,,,,,,1031.3719154999126,None,,,,,,,,,,,,,,,,,1029.369621999911,None,,,,,,,,,,,,,,,,,,,,,,,,,,,,,,,,,,,,,,,,,,,,,,,,,,,,,,,,5,001,2023_Jan_30_1213,ExactRep-v3-final,2021.2.3,59.925919544372796,
,,,,6,0,6,0,,,,,,,,,,,,,,,,,,,,,,,,,,,,,,,,,,,,,,,,,,,,,,,,,,,,,,,,,1033.8743282000069,None,,,,,,,,,,,,,,,,,1031.8726625000127,None,,,,,,,,,,,,,,,,,,,,,,,,,,,,,,,,,,,,,,,,,,,,,,,,,,,,,,,,5,001,2023_Jan_30_1213,ExactRep-v3-final,2021.2.3,59.925919544372796,
,,,,7,0,7,0,,,,,,,,,,,,,,,,,,,,,,,,,,,,,,,,,,,,,,,,,,,,,,,,,,,,,,,,,1036.376796299941,None,,,,,,,,,,,,,,,,,1034.374865599908,None,,,,,,,,,,,,,,,,,,,,,,,,,,,,,,,,,,,,,,,,,,,,,,,,,,,,,,,,5,001,2023_Jan_30_1213,ExactRep-v3-final,2021.2.3,59.925919544372796,
,,,,8,0,8,0,,,,,,,,,,,,,,,,,,,,,,,,,,,,,,,,,,,,,,,,,,,,,,,,,,,,,,,,,1038.879336999962,None,,,,,,,,,,,,,,,,,1036.8773277999135,None,,,,,,,,,,,,,,,,,,,,,,,,,,,,,,,,,,,,,,,,,,,,,,,,,,,,,,,,5,001,2023_Jan_30_1213,ExactRep-v3-final,2021.2.3,59.925919544372796,
,,,,9,0,9,0,,,,,,,,,,,,,,,,,,,,,,,,,,,,,,,,,,,,,,,,,,,,,,,,,,,,,,,,,1041.3819661999587,None,,,,,,,,,,,,,,,,,1039.3798756999895,None,,,,,,,,,,,,,,,,,,,,,,,,,,,,,,,,,,,,,,,,,,,,,,,,,,,,,,,,5,001,2023_Jan_30_1213,ExactRep-v3-final,2021.2.3,59.925919544372796,
,,,,10,0,10,0,,,,,,,,,,,,,,,,,,,,,,,,,,,,,,,,,,,,,,,,,,,,,,,,,,,,,,,,,1043.8843307999196,None,,,,,,,,,,,,,,,,,1041.8839275999926,None,,,,,,,,,,,,,,,,,,,,,,,,,,,,,,,,,,,,,,,,,,,,,,,,,,,,,,,,5,001,2023_Jan_30_1213,ExactRep-v3-final,2021.2.3,59.925919544372796,
,,,,11,0,11,0,,,,,,,,,,,,,,,,,,,,,,,,,,,,,,,,,,,,,,,,,,,,,,,,,,,,,,,,,1046.3867489999393,None,,,,,,,,,,,,,,,,,1044.3849638999673,None,,,,,,,,,,,,,,,,,,,,,,,,,,,,,,,,,,,,,,,,,,,,,,,,,,,,,,,,5,001,2023_Jan_30_1213,ExactRep-v3-final,2021.2.3,59.925919544372796,
,,,,12,0,12,0,,,,,,,,,,,,,,,,,,,,,,,,,,,,,,,,,,,,,,,,,,,,,,,,,,,,,,,,,1048.8894109999528,None,,,,,,,,,,,,,,,,,1046.8873270999175,None,,,,,,,,,,,,,,,,,,,,,,,,,,,,,,,,,,,,,,,,,,,,,,,,,,,,,,,,5,001,2023_Jan_30_1213,ExactRep-v3-final,2021.2.3,59.925919544372796,
,,,,13,0,13,0,,,,,,,,,,,,,,,,,,,,,,,,,,,,,,,,,,,,,,,,,,,,,,,,,,,,,,,,,1051.3918254999444,None,,,,,,,,,,,,,,,,,1049.3899341999786,None,,,,,,,,,,,,,,,,,,,,,,,,,,,,,,,,,,,,,,,,,,,,,,,,,,,,,,,,5,001,2023_Jan_30_1213,ExactRep-v3-final,2021.2.3,59.925919544372796,
,,,,14,0,14,0,,,,,,,,,,,,,,,,,,,,,,,,,,,,,,,,,,,,,,,,,,,,,,,,,,,,,,,,,1053.8943073999835,None,,,,,,,,,,,,,,,,,1051.8921685999958,None,,,,,,,,,,,,,,,,,,,,,,,,,,,,,,,,,,,,,,,,,,,,,,,,,,,,,,,,5,001,2023_Jan_30_1213,ExactRep-v3-final,2021.2.3,59.925919544372796,
,,,,,,,,,,,,,,,,,,,,,,,,,,,,,,,,,,,,,,,,,,,,,,,,,,,,,,,,,,,,,,,,,,,,,,,,,,,,,,,,,,,,space,23.802823400008492,1064.4971348999534,None,,,,,,,,,,,,,,,,,,,,,,,,,,,,,,,,,,,,,,,,,,,,,,,,,,,,5,001,2023_Jan_30_1213,ExactRep-v3-final,2021.2.3,59.925919544372796,
,,,,,,,,0,0,0,0,,,,,,,,,,,,,,,,,,,,,,,,,,,,,,,,,,,,,,,,,,,,,,,,,,,,,1090.4472904999275,None,,,,,,,,,,,,,,,,,,,,,,,1054.5534105999395,None,1054.5534105999395,None,1054.5534105999395,None,1054.5534105999395,None,1054.5534105999395,None,1054.5534105999395,None,army,82,1,aloud,white,1088.4359197999584,None,None,1088.4359197999584,None,,,,,,,,,,,,,,,,,,,,,,,,,,,,,,5,001,2023_Jan_30_1213,ExactRep-v3-final,2021.2.3,59.925919544372796,
,,,,,,,,1,0,1,0,,,,,,,,,,,,,,,,,,,,,,,,,,,,,,,,,,,,,,,,,,,,,,,,,,,,,1092.9664754999103,None,,,,,,,,,,,,,,,,,,,,,,,,,,,,,,,,,,,kiss,34,2,sing,blue,1090.9621617000084,None,None,1090.9621617000084,None,,,,,,,,,,,,,,,,,,,,,,,,,,,,,,5,001,2023_Jan_30_1213,ExactRep-v3-final,2021.2.3,59.925919544372796,
,,,,,,,,2,0,2,0,,,,,,,,,,,,,,,,,,,,,,,,,,,,,,,,,,,,,,,,,,,,,,,,,,,,,1095.4691759999841,None,,,,,,,,,,,,,,,,,,,,,,,,,,,,,,,,,,,form,55,3,silent,red,1093.4677779999329,None,None,1093.4677779999329,None,,,,,,,,,,,,,,,,,,,,,,,,,,,,,,5,001,2023_Jan_30_1213,ExactRep-v3-final,2021.2.3,59.925919544372796,
,,,,,,,,3,0,3,0,,,,,,,,,,,,,,,,,,,,,,,,,,,,,,,,,,,,,,,,,,,,,,,,,,,,,1097.9881362000015,None,,,,,,,,,,,,,,,,,,,,,,,,,,,,,,,,,,,table,50,4,silent,red,1095.9729247000068,None,None,1095.9729247000068,None,,,,,,,,,,,,,,,,,,,,,,,,,,,,,,5,001,2023_Jan_30_1213,ExactRep-v3-final,2021.2.3,59.925919544372796,
,,,,,,,,4,0,4,0,,,,,,,,,,,,,,,,,,,,,,,,,,,,,,,,,,,,,,,,,,,,,,,,,,,,,1100.4908408999909,None,,,,,,,,,,,,,,,,,,,,,,,,,,,,,,,,,,,fire,84,5,aloud,white,1098.489927599905,None,None,1098.489927599905,None,,,,,,,,,,,,,,,,,,,,,,,,,,,,,,5,001,2023_Jan_30_1213,ExactRep-v3-final,2021.2.3,59.925919544372796,
,,,,,,,,5,0,5,0,,,,,,,,,,,,,,,,,,,,,,,,,,,,,,,,,,,,,,,,,,,,,,,,,,,,,1103.0098661999218,None,,,,,,,,,,,,,,,,,,,,,,,,,,,,,,,,,,,journal,59,6,silent,red,1101.0036410999019,None,None,1101.0036410999019,None,,,,,,,,,,,,,,,,,,,,,,,,,,,,,,5,001,2023_Jan_30_1213,ExactRep-v3-final,2021.2.3,59.925919544372796,
,,,,,,,,6,0,6,0,,,,,,,,,,,,,,,,,,,,,,,,,,,,,,,,,,,,,,,,,,,,,,,,,,,,,1105.5136515999911,None,,,,,,,,,,,,,,,,,,,,,,,,,,,,,,,,,,,storm,68,7,silent,red,1103.5104855999816,None,None,1103.5104855999816,None,,,,,,,,,,,,,,,,,,,,,,,,,,,,,,5,001,2023_Jan_30_1213,ExactRep-v3-final,2021.2.3,59.925919544372796,
,,,,,,,,7,0,7,0,,,,,,,,,,,,,,,,,,,,,,,,,,,,,,,,,,,,,,,,,,,,,,,,,,,,,1108.0329654999077,None,,,,,,,,,,,,,,,,,,,,,,,,,,,,,,,,,,,safety,58,8,silent,red,1106.0219906999264,None,None,1106.0219906999264,None,,,,,,,,,,,,,,,,,,,,,,,,,,,,,,5,001,2023_Jan_30_1213,ExactRep-v3-final,2021.2.3,59.925919544372796,
,,,,,,,,8,0,8,0,,,,,,,,,,,,,,,,,,,,,,,,,,,,,,,,,,,,,,,,,,,,,,,,,,,,,1110.5513354999712,None,,,,,,,,,,,,,,,,,,,,,,,,,,,,,,,,,,,home,21,9,sing,blue,1108.5502612999408,None,None,1108.5502612999408,None,,,,,,,,,,,,,,,,,,,,,,,,,,,,,,5,001,2023_Jan_30_1213,ExactRep-v3-final,2021.2.3,59.925919544372796,
,,,,,,,,9,0,9,0,,,,,,,,,,,,,,,,,,,,,,,,,,,,,,,,,,,,,,,,,,,,,,,,,,,,,1113.0700592999347,None,,,,,,,,,,,,,,,,,,,,,,,,,,,,,,,,,,,victory,46,10,silent,red,1111.0680484999903,None,None,1111.0680484999903,None,,,,,,,,,,,,,,,,,,,,,,,,,,,,,,5,001,2023_Jan_30_1213,ExactRep-v3-final,2021.2.3,59.925919544372796,
,,,,,,,,10,0,10,0,,,,,,,,,,,,,,,,,,,,,,,,,,,,,,,,,,,,,,,,,,,,,,,,,,,,,1115.5893115999643,None,,,,,,,,,,,,,,,,,,,,,,,,,,,,,,,,,,,passion,95,11,aloud,white,1113.5789266999345,None,None,1113.5789266999345,None,,,,,,,,,,,,,,,,,,,,,,,,,,,,,,5,001,2023_Jan_30_1213,ExactRep-v3-final,2021.2.3,59.925919544372796,
,,,,,,,,11,0,11,0,,,,,,,,,,,,,,,,,,,,,,,,,,,,,,,,,,,,,,,,,,,,,,,,,,,,,1118.1084490999347,None,,,,,,,,,,,,,,,,,,,,,,,,,,,,,,,,,,,cottage,52,12,silent,red,1116.0955962999724,None,None,1116.0955962999724,None,,,,,,,,,,,,,,,,,,,,,,,,,,,,,,5,001,2023_Jan_30_1213,ExactRep-v3-final,2021.2.3,59.925919544372796,
,,,,,,,,12,0,12,0,,,,,,,,,,,,,,,,,,,,,,,,,,,,,,,,,,,,,,,,,,,,,,,,,,,,,1120.6274553999538,None,,,,,,,,,,,,,,,,,,,,,,,,,,,,,,,,,,,answer,101,13,aloud,white,1118.6174911999842,None,None,1118.6174911999842,None,,,,,,,,,,,,,,,,,,,,,,,,,,,,,,5,001,2023_Jan_30_1213,ExactRep-v3-final,2021.2.3,59.925919544372796,
,,,,,,,,13,0,13,0,,,,,,,,,,,,,,,,,,,,,,,,,,,,,,,,,,,,,,,,,,,,,,,,,,,,,1123.1301027999725,None,,,,,,,,,,,,,,,,,,,,,,,,,,,,,,,,,,,cost,117,14,aloud,white,1121.1280605999054,None,None,1121.1280605999054,None,,,,,,,,,,,,,,,,,,,,,,,,,,,,,,5,001,2023_Jan_30_1213,ExactRep-v3-final,2021.2.3,59.925919544372796,
,,,,,,,,14,0,14,0,,,,,,,,,,,,,,,,,,,,,,,,,,,,,,,,,,,,,,,,,,,,,,,,,,,,,1125.6326842999551,None,,,,,,,,,,,,,,,,,,,,,,,,,,,,,,,,,,,dollar,90,15,aloud,white,1123.63323139993,None,None,1123.63323139993,None,,,,,,,,,,,,,,,,,,,,,,,,,,,,,,5,001,2023_Jan_30_1213,ExactRep-v3-final,2021.2.3,59.925919544372796,
,,,,,,,,15,0,15,0,,,,,,,,,,,,,,,,,,,,,,,,,,,,,,,,,,,,,,,,,,,,,,,,,,,,,1128.135232099914,None,,,,,,,,,,,,,,,,,,,,,,,,,,,,,,,,,,,insect,27,16,sing,blue,1126.1361712999642,None,None,1126.1361712999642,None,,,,,,,,,,,,,,,,,,,,,,,,,,,,,,5,001,2023_Jan_30_1213,ExactRep-v3-final,2021.2.3,59.925919544372796,
,,,,,,,,16,0,16,0,,,,,,,,,,,,,,,,,,,,,,,,,,,,,,,,,,,,,,,,,,,,,,,,,,,,,1130.6376798999263,None,,,,,,,,,,,,,,,,,,,,,,,,,,,,,,,,,,,bird,63,17,silent,red,1128.6369419000112,None,None,1128.6369419000112,None,,,,,,,,,,,,,,,,,,,,,,,,,,,,,,5,001,2023_Jan_30_1213,ExactRep-v3-final,2021.2.3,59.925919544372796,
,,,,,,,,17,0,17,0,,,,,,,,,,,,,,,,,,,,,,,,,,,,,,,,,,,,,,,,,,,,,,,,,,,,,1133.160206199973,None,,,,,,,,,,,,,,,,,,,,,,,,,,,,,,,,,,,series,99,18,aloud,white,1131.1418342000106,None,None,1131.1418342000106,None,,,,,,,,,,,,,,,,,,,,,,,,,,,,,,5,001,2023_Jan_30_1213,ExactRep-v3-final,2021.2.3,59.925919544372796,
,,,,,,,,18,0,18,0,,,,,,,,,,,,,,,,,,,,,,,,,,,,,,,,,,,,,,,,,,,,,,,,,,,,,1135.6758940999862,None,,,,,,,,,,,,,,,,,,,,,,,,,,,,,,,,,,,machine,61,19,silent,red,1133.6651232999284,None,None,1133.6651232999284,None,,,,,,,,,,,,,,,,,,,,,,,,,,,,,,5,001,2023_Jan_30_1213,ExactRep-v3-final,2021.2.3,59.925919544372796,
,,,,,,,,19,0,19,0,,,,,,,,,,,,,,,,,,,,,,,,,,,,,,,,,,,,,,,,,,,,,,,,,,,,,1138.1951485999161,None,,,,,,,,,,,,,,,,,,,,,,,,,,,,,,,,,,,friend,103,20,aloud,white,1136.1830439999467,None,None,1136.1830439999467,None,,,,,,,,,,,,,,,,,,,,,,,,,,,,,,5,001,2023_Jan_30_1213,ExactRep-v3-final,2021.2.3,59.925919544372796,
,,,,,,,,20,0,20,0,,,,,,,,,,,,,,,,,,,,,,,,,,,,,,,,,,,,,,,,,,,,,,,,,,,,,1140.7143126999727,None,,,,,,,,,,,,,,,,,,,,,,,,,,,,,,,,,,,artist,4,21,sing,blue,1138.7060300000012,None,None,1138.7060300000012,None,,,,,,,,,,,,,,,,,,,,,,,,,,,,,,5,001,2023_Jan_30_1213,ExactRep-v3-final,2021.2.3,59.925919544372796,
,,,,,,,,21,0,21,0,,,,,,,,,,,,,,,,,,,,,,,,,,,,,,,,,,,,,,,,,,,,,,,,,,,,,1143.2168384999968,None,,,,,,,,,,,,,,,,,,,,,,,,,,,,,,,,,,,apple,19,22,sing,blue,1141.2148136999458,None,None,1141.2148136999458,None,,,,,,,,,,,,,,,,,,,,,,,,,,,,,,5,001,2023_Jan_30_1213,ExactRep-v3-final,2021.2.3,59.925919544372796,
,,,,,,,,22,0,22,0,,,,,,,,,,,,,,,,,,,,,,,,,,,,,,,,,,,,,,,,,,,,,,,,,,,,,1145.735988099943,None,,,,,,,,,,,,,,,,,,,,,,,,,,,,,,,,,,,circle,65,23,silent,red,1143.7204183998983,None,None,1143.7204183998983,None,,,,,,,,,,,,,,,,,,,,,,,,,,,,,,5,001,2023_Jan_30_1213,ExactRep-v3-final,2021.2.3,59.925919544372796,
,,,,,,,,23,0,23,0,,,,,,,,,,,,,,,,,,,,,,,,,,,,,,,,,,,,,,,,,,,,,,,,,,,,,1148.2554200999439,None,,,,,,,,,,,,,,,,,,,,,,,,,,,,,,,,,,,duty,25,24,sing,blue,1146.2455996999051,None,None,1146.2455996999051,None,,,,,,,,,,,,,,,,,,,,,,,,,,,,,,5,001,2023_Jan_30_1213,ExactRep-v3-final,2021.2.3,59.925919544372796,
,,,,,,,,24,0,24,0,,,,,,,,,,,,,,,,,,,,,,,,,,,,,,,,,,,,,,,,,,,,,,,,,,,,,1150.7576961999293,None,,,,,,,,,,,,,,,,,,,,,,,,,,,,,,,,,,,potato,115,25,aloud,white,1148.7553801999893,None,None,1148.7553801999893,None,,,,,,,,,,,,,,,,,,,,,,,,,,,,,,5,001,2023_Jan_30_1213,ExactRep-v3-final,2021.2.3,59.925919544372796,
,,,,,,,,25,0,25,0,,,,,,,,,,,,,,,,,,,,,,,,,,,,,,,,,,,,,,,,,,,,,,,,,,,,,1153.2601506999927,None,,,,,,,,,,,,,,,,,,,,,,,,,,,,,,,,,,,coffee,69,26,silent,red,1151.2582548999926,None,None,1151.2582548999926,None,,,,,,,,,,,,,,,,,,,,,,,,,,,,,,5,001,2023_Jan_30_1213,ExactRep-v3-final,2021.2.3,59.925919544372796,
,,,,,,,,26,0,26,0,,,,,,,,,,,,,,,,,,,,,,,,,,,,,,,,,,,,,,,,,,,,,,,,,,,,,1155.7794122999767,None,,,,,,,,,,,,,,,,,,,,,,,,,,,,,,,,,,,author,111,27,aloud,white,1153.7740813000128,None,None,1153.7740813000128,None,,,,,,,,,,,,,,,,,,,,,,,,,,,,,,5,001,2023_Jan_30_1213,ExactRep-v3-final,2021.2.3,59.925919544372796,
,,,,,,,,27,0,27,0,,,,,,,,,,,,,,,,,,,,,,,,,,,,,,,,,,,,,,,,,,,,,,,,,,,,,1158.2818839999381,None,,,,,,,,,,,,,,,,,,,,,,,,,,,,,,,,,,,arm,38,28,sing,blue,1156.281119299936,None,None,1156.281119299936,None,,,,,,,,,,,,,,,,,,,,,,,,,,,,,,5,001,2023_Jan_30_1213,ExactRep-v3-final,2021.2.3,59.925919544372796,
,,,,,,,,28,0,28,0,,,,,,,,,,,,,,,,,,,,,,,,,,,,,,,,,,,,,,,,,,,,,,,,,,,,,1160.78435969993,None,,,,,,,,,,,,,,,,,,,,,,,,,,,,,,,,,,,chief,110,29,aloud,white,1158.78373809997,None,None,1158.78373809997,None,,,,,,,,,,,,,,,,,,,,,,,,,,,,,,5,001,2023_Jan_30_1213,ExactRep-v3-final,2021.2.3,59.925919544372796,
,,,,,,,,29,0,29,0,,,,,,,,,,,,,,,,,,,,,,,,,,,,,,,,,,,,,,,,,,,,,,,,,,,,,1163.303559999913,None,,,,,,,,,,,,,,,,,,,,,,,,,,,,,,,,,,,death,81,30,aloud,white,1161.291035400005,None,None,1161.291035400005,None,,,,,,,,,,,,,,,,,,,,,,,,,,,,,,5,001,2023_Jan_30_1213,ExactRep-v3-final,2021.2.3,59.925919544372796,
,,,,,,,,30,0,30,0,,,,,,,,,,,,,,,,,,,,,,,,,,,,,,,,,,,,,,,,,,,,,,,,,,,,,1165.8091082999017,None,,,,,,,,,,,,,,,,,,,,,,,,,,,,,,,,,,,volume,93,31,aloud,white,1163.804987499956,None,None,1163.804987499956,None,,,,,,,,,,,,,,,,,,,,,,,,,,,,,,5,001,2023_Jan_30_1213,ExactRep-v3-final,2021.2.3,59.925919544372796,
,,,,,,,,31,0,31,0,,,,,,,,,,,,,,,,,,,,,,,,,,,,,,,,,,,,,,,,,,,,,,,,,,,,,1168.325104199932,None,,,,,,,,,,,,,,,,,,,,,,,,,,,,,,,,,,,party,42,32,silent,red,1166.3241336999927,None,None,1166.3241336999927,None,,,,,,,,,,,,,,,,,,,,,,,,,,,,,,5,001,2023_Jan_30_1213,ExactRep-v3-final,2021.2.3,59.925919544372796,
,,,,,,,,32,0,32,0,,,,,,,,,,,,,,,,,,,,,,,,,,,,,,,,,,,,,,,,,,,,,,,,,,,,,1170.8444221999962,None,,,,,,,,,,,,,,,,,,,,,,,,,,,,,,,,,,,boulder,15,33,sing,blue,1168.8316349999513,None,None,1168.8316349999513,None,,,,,,,,,,,,,,,,,,,,,,,,,,,,,,5,001,2023_Jan_30_1213,ExactRep-v3-final,2021.2.3,59.925919544372796,
,,,,,,,,33,0,33,0,,,,,,,,,,,,,,,,,,,,,,,,,,,,,,,,,,,,,,,,,,,,,,,,,,,,,1173.3469672999345,None,,,,,,,,,,,,,,,,,,,,,,,,,,,,,,,,,,,street,17,34,sing,blue,1171.3455356999766,None,None,1171.3455356999766,None,,,,,,,,,,,,,,,,,,,,,,,,,,,,,,5,001,2023_Jan_30_1213,ExactRep-v3-final,2021.2.3,59.925919544372796,
,,,,,,,,34,0,34,0,,,,,,,,,,,,,,,,,,,,,,,,,,,,,,,,,,,,,,,,,,,,,,,,,,,,,1175.8494739999296,None,,,,,,,,,,,,,,,,,,,,,,,,,,,,,,,,,,,troops,23,35,sing,blue,1173.8482205999317,None,None,1173.8482205999317,None,,,,,,,,,,,,,,,,,,,,,,,,,,,,,,5,001,2023_Jan_30_1213,ExactRep-v3-final,2021.2.3,59.925919544372796,
,,,,,,,,35,0,35,0,,,,,,,,,,,,,,,,,,,,,,,,,,,,,,,,,,,,,,,,,,,,,,,,,,,,,1178.3684683999745,None,,,,,,,,,,,,,,,,,,,,,,,,,,,,,,,,,,,humour,40,36,silent,red,1176.3560758999083,None,None,1176.3560758999083,None,,,,,,,,,,,,,,,,,,,,,,,,,,,,,,5,001,2023_Jan_30_1213,ExactRep-v3-final,2021.2.3,59.925919544372796,
,,,,,,,,36,0,36,0,,,,,,,,,,,,,,,,,,,,,,,,,,,,,,,,,,,,,,,,,,,,,,,,,,,,,1180.8711905999808,None,,,,,,,,,,,,,,,,,,,,,,,,,,,,,,,,,,,cat,43,37,silent,red,1178.869515099912,None,None,1178.869515099912,None,,,,,,,,,,,,,,,,,,,,,,,,,,,,,,5,001,2023_Jan_30_1213,ExactRep-v3-final,2021.2.3,59.925919544372796,
,,,,,,,,37,0,37,0,,,,,,,,,,,,,,,,,,,,,,,,,,,,,,,,,,,,,,,,,,,,,,,,,,,,,1183.3737005000003,None,,,,,,,,,,,,,,,,,,,,,,,,,,,,,,,,,,,gift,32,38,sing,blue,1181.3739843999501,None,None,1181.3739843999501,None,,,,,,,,,,,,,,,,,,,,,,,,,,,,,,5,001,2023_Jan_30_1213,ExactRep-v3-final,2021.2.3,59.925919544372796,
,,,,,,,,38,0,38,0,,,,,,,,,,,,,,,,,,,,,,,,,,,,,,,,,,,,,,,,,,,,,,,,,,,,,1185.8762132999254,None,,,,,,,,,,,,,,,,,,,,,,,,,,,,,,,,,,,vessel,79,39,sing,blue,1183.8770965998992,None,None,1183.8770965998992,None,,,,,,,,,,,,,,,,,,,,,,,,,,,,,,5,001,2023_Jan_30_1213,ExactRep-v3-final,2021.2.3,59.925919544372796,
,,,,,,,,39,0,39,0,,,,,,,,,,,,,,,,,,,,,,,,,,,,,,,,,,,,,,,,,,,,,,,,,,,,,1188.3950723999878,None,,,,,,,,,,,,,,,,,,,,,,,,,,,,,,,,,,,method,8,40,sing,blue,1186.3882912999252,None,None,1186.3882912999252,None,,,,,,,,,,,,,,,,,,,,,,,,,,,,,,5,001,2023_Jan_30_1213,ExactRep-v3-final,2021.2.3,59.925919544372796,
,,,,,,,,40,0,40,0,,,,,,,,,,,,,,,,,,,,,,,,,,,,,,,,,,,,,,,,,,,,,,,,,,,,,1190.8974867999787,None,,,,,,,,,,,,,,,,,,,,,,,,,,,,,,,,,,,judge,88,41,aloud,white,1188.8955757999793,None,None,1188.8955757999793,None,,,,,,,,,,,,,,,,,,,,,,,,,,,,,,5,001,2023_Jan_30_1213,ExactRep-v3-final,2021.2.3,59.925919544372796,
,,,,,,,,41,0,41,0,,,,,,,,,,,,,,,,,,,,,,,,,,,,,,,,,,,,,,,,,,,,,,,,,,,,,1193.4199194000103,None,,,,,,,,,,,,,,,,,,,,,,,,,,,,,,,,,,,teacher,104,42,aloud,white,1191.4040481999982,None,None,1191.4040481999982,None,,,,,,,,,,,,,,,,,,,,,,,,,,,,,,5,001,2023_Jan_30_1213,ExactRep-v3-final,2021.2.3,59.925919544372796,
,,,,,,,,42,0,42,0,,,,,,,,,,,,,,,,,,,,,,,,,,,,,,,,,,,,,,,,,,,,,,,,,,,,,1195.9362252999563,None,,,,,,,,,,,,,,,,,,,,,,,,,,,,,,,,,,,seat,75,43,silent,red,1193.923173999996,None,None,1193.923173999996,None,,,,,,,,,,,,,,,,,,,,,,,,,,,,,,5,001,2023_Jan_30_1213,ExactRep-v3-final,2021.2.3,59.925919544372796,
,,,,,,,,43,0,43,0,,,,,,,,,,,,,,,,,,,,,,,,,,,,,,,,,,,,,,,,,,,,,,,,,,,,,1198.4554513999028,None,,,,,,,,,,,,,,,,,,,,,,,,,,,,,,,,,,,excuse,78,44,silent,red,1196.4567729999544,None,None,1196.4567729999544,None,,,,,,,,,,,,,,,,,,,,,,,,,,,,,,5,001,2023_Jan_30_1213,ExactRep-v3-final,2021.2.3,59.925919544372796,
,,,,,,,,44,0,44,0,,,,,,,,,,,,,,,,,,,,,,,,,,,,,,,,,,,,,,,,,,,,,,,,,,,,,1200.9579703999916,None,,,,,,,,,,,,,,,,,,,,,,,,,,,,,,,,,,,lip,74,45,silent,red,1198.9583432999207,None,None,1198.9583432999207,None,,,,,,,,,,,,,,,,,,,,,,,,,,,,,,5,001,2023_Jan_30_1213,ExactRep-v3-final,2021.2.3,59.925919544372796,
,,,,,,,,45,0,45,0,,,,,,,,,,,,,,,,,,,,,,,,,,,,,,,,,,,,,,,,,,,,,,,,,,,,,1203.4768226000015,None,,,,,,,,,,,,,,,,,,,,,,,,,,,,,,,,,,,ocean,105,46,aloud,white,1201.4615691999206,None,None,1201.4615691999206,None,,,,,,,,,,,,,,,,,,,,,,,,,,,,,,5,001,2023_Jan_30_1213,ExactRep-v3-final,2021.2.3,59.925919544372796,
,,,,,,,,46,0,46,0,,,,,,,,,,,,,,,,,,,,,,,,,,,,,,,,,,,,,,,,,,,,,,,,,,,,,1205.9962567999028,None,,,,,,,,,,,,,,,,,,,,,,,,,,,,,,,,,,,shore,36,47,sing,blue,1203.9855164999608,None,None,1203.9855164999608,None,,,,,,,,,,,,,,,,,,,,,,,,,,,,,,5,001,2023_Jan_30_1213,ExactRep-v3-final,2021.2.3,59.925919544372796,
,,,,,,,,47,0,47,0,,,,,,,,,,,,,,,,,,,,,,,,,,,,,,,,,,,,,,,,,,,,,,,,,,,,,1208.5153888999484,None,,,,,,,,,,,,,,,,,,,,,,,,,,,,,,,,,,,door,47,48,silent,red,1206.5022348999046,None,None,1206.5022348999046,None,,,,,,,,,,,,,,,,,,,,,,,,,,,,,,5,001,2023_Jan_30_1213,ExactRep-v3-final,2021.2.3,59.925919544372796,
,,,,,,,,48,0,48,0,,,,,,,,,,,,,,,,,,,,,,,,,,,,,,,,,,,,,,,,,,,,,,,,,,,,,1211.0178453999106,None,,,,,,,,,,,,,,,,,,,,,,,,,,,,,,,,,,,market,44,49,silent,red,1209.0157633000053,None,None,1209.0157633000053,None,,,,,,,,,,,,,,,,,,,,,,,,,,,,,,5,001,2023_Jan_30_1213,ExactRep-v3-final,2021.2.3,59.925919544372796,
,,,,,,,,49,0,49,0,,,,,,,,,,,,,,,,,,,,,,,,,,,,,,,,,,,,,,,,,,,,,,,,,,,,,1213.5370978999417,None,,,,,,,,,,,,,,,,,,,,,,,,,,,,,,,,,,,meadow,116,50,aloud,white,1211.527045499999,None,None,1211.527045499999,None,,,,,,,,,,,,,,,,,,,,,,,,,,,,,,5,001,2023_Jan_30_1213,ExactRep-v3-final,2021.2.3,59.925919544372796,
,,,,,,,,50,0,50,0,,,,,,,,,,,,,,,,,,,,,,,,,,,,,,,,,,,,,,,,,,,,,,,,,,,,,1216.0573772999924,None,,,,,,,,,,,,,,,,,,,,,,,,,,,,,,,,,,,moment,24,51,sing,blue,1214.047868900001,None,None,1214.047868900001,None,,,,,,,,,,,,,,,,,,,,,,,,,,,,,,5,001,2023_Jan_30_1213,ExactRep-v3-final,2021.2.3,59.925919544372796,
,,,,,,,,51,0,51,0,,,,,,,,,,,,,,,,,,,,,,,,,,,,,,,,,,,,,,,,,,,,,,,,,,,,,1218.558782099979,None,,,,,,,,,,,,,,,,,,,,,,,,,,,,,,,,,,,virtue,6,52,sing,blue,1216.5568872999866,None,None,1216.5568872999866,None,,,,,,,,,,,,,,,,,,,,,,,,,,,,,,5,001,2023_Jan_30_1213,ExactRep-v3-final,2021.2.3,59.925919544372796,
,,,,,,,,52,0,52,0,,,,,,,,,,,,,,,,,,,,,,,,,,,,,,,,,,,,,,,,,,,,,,,,,,,,,1221.0780344000086,None,,,,,,,,,,,,,,,,,,,,,,,,,,,,,,,,,,,board,108,53,aloud,white,1219.0698699000059,None,None,1219.0698699000059,None,,,,,,,,,,,,,,,,,,,,,,,,,,,,,,5,001,2023_Jan_30_1213,ExactRep-v3-final,2021.2.3,59.925919544372796,
,,,,,,,,53,0,53,0,,,,,,,,,,,,,,,,,,,,,,,,,,,,,,,,,,,,,,,,,,,,,,,,,,,,,1223.5803263999987,None,,,,,,,,,,,,,,,,,,,,,,,,,,,,,,,,,,,tree,49,54,silent,red,1221.5810890999855,None,None,1221.5810890999855,None,,,,,,,,,,,,,,,,,,,,,,,,,,,,,,5,001,2023_Jan_30_1213,ExactRep-v3-final,2021.2.3,59.925919544372796,
,,,,,,,,54,0,54,0,,,,,,,,,,,,,,,,,,,,,,,,,,,,,,,,,,,,,,,,,,,,,,,,,,,,,1226.0829725000076,None,,,,,,,,,,,,,,,,,,,,,,,,,,,,,,,,,,,lord,11,55,sing,blue,1224.0809348999755,None,None,1224.0809348999755,None,,,,,,,,,,,,,,,,,,,,,,,,,,,,,,5,001,2023_Jan_30_1213,ExactRep-v3-final,2021.2.3,59.925919544372796,
,,,,,,,,55,0,55,0,,,,,,,,,,,,,,,,,,,,,,,,,,,,,,,,,,,,,,,,,,,,,,,,,,,,,1228.585465000011,None,,,,,,,,,,,,,,,,,,,,,,,,,,,,,,,,,,,coast,35,56,sing,blue,1226.584889199934,None,None,1226.584889199934,None,,,,,,,,,,,,,,,,,,,,,,,,,,,,,,5,001,2023_Jan_30_1213,ExactRep-v3-final,2021.2.3,59.925919544372796,
,,,,,,,,56,0,56,0,,,,,,,,,,,,,,,,,,,,,,,,,,,,,,,,,,,,,,,,,,,,,,,,,,,,,1231.104661499965,None,,,,,,,,,,,,,,,,,,,,,,,,,,,,,,,,,,,picture,31,57,sing,blue,1229.0895377999404,None,None,1229.0895377999404,None,,,,,,,,,,,,,,,,,,,,,,,,,,,,,,5,001,2023_Jan_30_1213,ExactRep-v3-final,2021.2.3,59.925919544372796,
,,,,,,,,57,0,57,0,,,,,,,,,,,,,,,,,,,,,,,,,,,,,,,,,,,,,,,,,,,,,,,,,,,,,1233.6070571999298,None,,,,,,,,,,,,,,,,,,,,,,,,,,,,,,,,,,,woman,77,58,silent,red,1231.6068263999186,None,None,1231.6068263999186,None,,,,,,,,,,,,,,,,,,,,,,,,,,,,,,5,001,2023_Jan_30_1213,ExactRep-v3-final,2021.2.3,59.925919544372796,
,,,,,,,,58,0,58,0,,,,,,,,,,,,,,,,,,,,,,,,,,,,,,,,,,,,,,,,,,,,,,,,,,,,,1236.1263438999886,None,,,,,,,,,,,,,,,,,,,,,,,,,,,,,,,,,,,origin,72,59,silent,red,1234.1114909999305,None,None,1234.1114909999305,None,,,,,,,,,,,,,,,,,,,,,,,,,,,,,,5,001,2023_Jan_30_1213,ExactRep-v3-final,2021.2.3,59.925919544372796,
,,,,,,,,59,0,59,0,,,,,,,,,,,,,,,,,,,,,,,,,,,,,,,,,,,,,,,,,,,,,,,,,,,,,1238.6455402999418,None,,,,,,,,,,,,,,,,,,,,,,,,,,,,,,,,,,,flag,20,60,sing,blue,1236.6361149000004,None,None,1236.6361149000004,None,,,,,,,,,,,,,,,,,,,,,,,,,,,,,,5,001,2023_Jan_30_1213,ExactRep-v3-final,2021.2.3,59.925919544372796,
,,,,,,,,60,0,60,0,,,,,,,,,,,,,,,,,,,,,,,,,,,,,,,,,,,,,,,,,,,,,,,,,,,,,1241.1480045999633,None,,,,,,,,,,,,,,,,,,,,,,,,,,,,,,,,,,,rod,94,61,aloud,white,1239.146920899977,None,None,1239.146920899977,None,,,,,,,,,,,,,,,,,,,,,,,,,,,,,,5,001,2023_Jan_30_1213,ExactRep-v3-final,2021.2.3,59.925919544372796,
,,,,,,,,61,0,61,0,,,,,,,,,,,,,,,,,,,,,,,,,,,,,,,,,,,,,,,,,,,,,,,,,,,,,1243.6671583999414,None,,,,,,,,,,,,,,,,,,,,,,,,,,,,,,,,,,,paper,29,62,sing,blue,1241.6528910999186,None,None,1241.6528910999186,None,,,,,,,,,,,,,,,,,,,,,,,,,,,,,,5,001,2023_Jan_30_1213,ExactRep-v3-final,2021.2.3,59.925919544372796,
,,,,,,,,62,0,62,0,,,,,,,,,,,,,,,,,,,,,,,,,,,,,,,,,,,,,,,,,,,,,,,,,,,,,1246.1864202999277,None,,,,,,,,,,,,,,,,,,,,,,,,,,,,,,,,,,,metal,73,63,silent,red,1244.1777578999754,None,None,1244.1777578999754,None,,,,,,,,,,,,,,,,,,,,,,,,,,,,,,5,001,2023_Jan_30_1213,ExactRep-v3-final,2021.2.3,59.925919544372796,
,,,,,,,,63,0,63,0,,,,,,,,,,,,,,,,,,,,,,,,,,,,,,,,,,,,,,,,,,,,,,,,,,,,,1248.6894700999837,None,,,,,,,,,,,,,,,,,,,,,,,,,,,,,,,,,,,officer,62,64,silent,red,1246.6878340999829,None,None,1246.6878340999829,None,,,,,,,,,,,,,,,,,,,,,,,,,,,,,,5,001,2023_Jan_30_1213,ExactRep-v3-final,2021.2.3,59.925919544372796,
,,,,,,,,64,0,64,0,,,,,,,,,,,,,,,,,,,,,,,,,,,,,,,,,,,,,,,,,,,,,,,,,,,,,1251.2081045999657,None,,,,,,,,,,,,,,,,,,,,,,,,,,,,,,,,,,,sky,87,65,aloud,white,1249.1933261000086,None,None,1249.1933261000086,None,,,,,,,,,,,,,,,,,,,,,,,,,,,,,,5,001,2023_Jan_30_1213,ExactRep-v3-final,2021.2.3,59.925919544372796,
,,,,,,,,65,0,65,0,,,,,,,,,,,,,,,,,,,,,,,,,,,,,,,,,,,,,,,,,,,,,,,,,,,,,1253.7106246999465,None,,,,,,,,,,,,,,,,,,,,,,,,,,,,,,,,,,,earth,97,66,aloud,white,1251.7085459999507,None,None,1251.7085459999507,None,,,,,,,,,,,,,,,,,,,,,,,,,,,,,,5,001,2023_Jan_30_1213,ExactRep-v3-final,2021.2.3,59.925919544372796,
,,,,,,,,66,0,66,0,,,,,,,,,,,,,,,,,,,,,,,,,,,,,,,,,,,,,,,,,,,,,,,,,,,,,1256.2132115999702,None,,,,,,,,,,,,,,,,,,,,,,,,,,,,,,,,,,,world,13,67,sing,blue,1254.213634799933,None,None,1254.213634799933,None,,,,,,,,,,,,,,,,,,,,,,,,,,,,,,5,001,2023_Jan_30_1213,ExactRep-v3-final,2021.2.3,59.925919544372796,
,,,,,,,,67,0,67,0,,,,,,,,,,,,,,,,,,,,,,,,,,,,,,,,,,,,,,,,,,,,,,,,,,,,,1258.7155744999181,None,,,,,,,,,,,,,,,,,,,,,,,,,,,,,,,,,,,shock,16,68,sing,blue,1256.7143071999308,None,None,1256.7143071999308,None,,,,,,,,,,,,,,,,,,,,,,,,,,,,,,5,001,2023_Jan_30_1213,ExactRep-v3-final,2021.2.3,59.925919544372796,
,,,,,,,,68,0,68,0,,,,,,,,,,,,,,,,,,,,,,,,,,,,,,,,,,,,,,,,,,,,,,,,,,,,,1261.234780299943,None,,,,,,,,,,,,,,,,,,,,,,,,,,,,,,,,,,,doctor,102,69,aloud,white,1259.2191955999006,None,None,1259.2191955999006,None,,,,,,,,,,,,,,,,,,,,,,,,,,,,,,5,001,2023_Jan_30_1213,ExactRep-v3-final,2021.2.3,59.925919544372796,
,,,,,,,,69,0,69,0,,,,,,,,,,,,,,,,,,,,,,,,,,,,,,,,,,,,,,,,,,,,,,,,,,,,,1263.7372171999887,None,,,,,,,,,,,,,,,,,,,,,,,,,,,,,,,,,,,thought,100,70,aloud,white,1261.7375052999705,None,None,1261.7375052999705,None,,,,,,,,,,,,,,,,,,,,,,,,,,,,,,5,001,2023_Jan_30_1213,ExactRep-v3-final,2021.2.3,59.925919544372796,
,,,,,,,,70,0,70,0,,,,,,,,,,,,,,,,,,,,,,,,,,,,,,,,,,,,,,,,,,,,,,,,,,,,,1266.2566117999377,None,,,,,,,,,,,,,,,,,,,,,,,,,,,,,,,,,,,church,39,71,silent,red,1264.2447552999947,None,None,1264.2447552999947,None,,,,,,,,,,,,,,,,,,,,,,,,,,,,,,5,001,2023_Jan_30_1213,ExactRep-v3-final,2021.2.3,59.925919544372796,
,,,,,,,,71,0,71,0,,,,,,,,,,,,,,,,,,,,,,,,,,,,,,,,,,,,,,,,,,,,,,,,,,,,,1268.7756297999294,None,,,,,,,,,,,,,,,,,,,,,,,,,,,,,,,,,,,charm,53,72,silent,red,1266.7658023999538,None,None,1266.7658023999538,None,,,,,,,,,,,,,,,,,,,,,,,,,,,,,,5,001,2023_Jan_30_1213,ExactRep-v3-final,2021.2.3,59.925919544372796,
,,,,,,,,72,0,72,0,,,,,,,,,,,,,,,,,,,,,,,,,,,,,,,,,,,,,,,,,,,,,,,,,,,,,1271.2781314000022,None,,,,,,,,,,,,,,,,,,,,,,,,,,,,,,,,,,,forest,26,73,sing,blue,1269.2758797999704,None,None,1269.2758797999704,None,,,,,,,,,,,,,,,,,,,,,,,,,,,,,,5,001,2023_Jan_30_1213,ExactRep-v3-final,2021.2.3,59.925919544372796,
,,,,,,,,73,0,73,0,,,,,,,,,,,,,,,,,,,,,,,,,,,,,,,,,,,,,,,,,,,,,,,,,,,,,1273.7982759999577,None,,,,,,,,,,,,,,,,,,,,,,,,,,,,,,,,,,,opinion,28,74,sing,blue,1271.7829904999817,None,None,1271.7829904999817,None,,,,,,,,,,,,,,,,,,,,,,,,,,,,,,5,001,2023_Jan_30_1213,ExactRep-v3-final,2021.2.3,59.925919544372796,
,,,,,,,,74,0,74,0,,,,,,,,,,,,,,,,,,,,,,,,,,,,,,,,,,,,,,,,,,,,,,,,,,,,,1276.3165902999463,None,,,,,,,,,,,,,,,,,,,,,,,,,,,,,,,,,,,quality,109,75,aloud,white,1274.3030565999215,None,None,1274.3030565999215,None,,,,,,,,,,,,,,,,,,,,,,,,,,,,,,5,001,2023_Jan_30_1213,ExactRep-v3-final,2021.2.3,59.925919544372796,
,,,,,,,,75,0,75,0,,,,,,,,,,,,,,,,,,,,,,,,,,,,,,,,,,,,,,,,,,,,,,,,,,,,,1278.8190363999456,None,,,,,,,,,,,,,,,,,,,,,,,,,,,,,,,,,,,amount,91,76,aloud,white,1276.8188922000118,None,None,1276.8188922000118,None,,,,,,,,,,,,,,,,,,,,,,,,,,,,,,5,001,2023_Jan_30_1213,ExactRep-v3-final,2021.2.3,59.925919544372796,
,,,,,,,,76,0,76,0,,,,,,,,,,,,,,,,,,,,,,,,,,,,,,,,,,,,,,,,,,,,,,,,,,,,,1281.3381434999174,None,,,,,,,,,,,,,,,,,,,,,,,,,,,,,,,,,,,house,54,77,silent,red,1279.3289072999032,None,None,1279.3289072999032,None,,,,,,,,,,,,,,,,,,,,,,,,,,,,,,5,001,2023_Jan_30_1213,ExactRep-v3-final,2021.2.3,59.925919544372796,
,,,,,,,,77,0,77,0,,,,,,,,,,,,,,,,,,,,,,,,,,,,,,,,,,,,,,,,,,,,,,,,,,,,,1283.8573801999446,None,,,,,,,,,,,,,,,,,,,,,,,,,,,,,,,,,,,city,98,78,aloud,white,1281.8471184999216,None,None,1281.8471184999216,None,,,,,,,,,,,,,,,,,,,,,,,,,,,,,,5,001,2023_Jan_30_1213,ExactRep-v3-final,2021.2.3,59.925919544372796,
,,,,,,,,78,0,78,0,,,,,,,,,,,,,,,,,,,,,,,,,,,,,,,,,,,,,,,,,,,,,,,,,,,,,1286.359633199987,None,,,,,,,,,,,,,,,,,,,,,,,,,,,,,,,,,,,history,71,79,silent,red,1284.3578302999958,None,None,1284.3578302999958,None,,,,,,,,,,,,,,,,,,,,,,,,,,,,,,5,001,2023_Jan_30_1213,ExactRep-v3-final,2021.2.3,59.925919544372796,
,,,,,,,,79,0,79,0,,,,,,,,,,,,,,,,,,,,,,,,,,,,,,,,,,,,,,,,,,,,,,,,,,,,,1288.8623952999478,None,,,,,,,,,,,,,,,,,,,,,,,,,,,,,,,,,,,fun,86,80,aloud,white,1286.8609940999886,None,None,1286.8609940999886,None,,,,,,,,,,,,,,,,,,,,,,,,,,,,,,5,001,2023_Jan_30_1213,ExactRep-v3-final,2021.2.3,59.925919544372796,
,,,,,,,,80,0,80,0,,,,,,,,,,,,,,,,,,,,,,,,,,,,,,,,,,,,,,,,,,,,,,,,,,,,,1291.3649283999112,None,,,,,,,,,,,,,,,,,,,,,,,,,,,,,,,,,,,poet,22,81,sing,blue,1289.3643030999228,None,None,1289.3643030999228,None,,,,,,,,,,,,,,,,,,,,,,,,,,,,,,5,001,2023_Jan_30_1213,ExactRep-v3-final,2021.2.3,59.925919544372796,
,,,,,,,,81,0,81,0,,,,,,,,,,,,,,,,,,,,,,,,,,,,,,,,,,,,,,,,,,,,,,,,,,,,,1293.8840513000032,None,,,,,,,,,,,,,,,,,,,,,,,,,,,,,,,,,,,pride,107,82,aloud,white,1291.8709422999527,None,None,1291.8709422999527,None,,,,,,,,,,,,,,,,,,,,,,,,,,,,,,5,001,2023_Jan_30_1213,ExactRep-v3-final,2021.2.3,59.925919544372796,
,,,,,,,,82,0,82,0,,,,,,,,,,,,,,,,,,,,,,,,,,,,,,,,,,,,,,,,,,,,,,,,,,,,,1296.3865545999724,None,,,,,,,,,,,,,,,,,,,,,,,,,,,,,,,,,,,life,57,83,silent,red,1294.3846222999273,None,None,1294.3846222999273,None,,,,,,,,,,,,,,,,,,,,,,,,,,,,,,5,001,2023_Jan_30_1213,ExactRep-v3-final,2021.2.3,59.925919544372796,
,,,,,,,,83,0,83,0,,,,,,,,,,,,,,,,,,,,,,,,,,,,,,,,,,,,,,,,,,,,,,,,,,,,,1298.889080199995,None,,,,,,,,,,,,,,,,,,,,,,,,,,,,,,,,,,,present,92,84,aloud,white,1296.888275999925,None,None,1296.888275999925,None,,,,,,,,,,,,,,,,,,,,,,,,,,,,,,5,001,2023_Jan_30_1213,ExactRep-v3-final,2021.2.3,59.925919544372796,
,,,,,,,,84,0,84,0,,,,,,,,,,,,,,,,,,,,,,,,,,,,,,,,,,,,,,,,,,,,,,,,,,,,,1301.4083142000018,None,,,,,,,,,,,,,,,,,,,,,,,,,,,,,,,,,,,hall,113,85,aloud,white,1299.3936897999374,None,None,1299.3936897999374,None,,,,,,,,,,,,,,,,,,,,,,,,,,,,,,5,001,2023_Jan_30_1213,ExactRep-v3-final,2021.2.3,59.925919544372796,
,,,,,,,,85,0,85,0,,,,,,,,,,,,,,,,,,,,,,,,,,,,,,,,,,,,,,,,,,,,,,,,,,,,,1303.910725499969,None,,,,,,,,,,,,,,,,,,,,,,,,,,,,,,,,,,,lake,80,86,aloud,white,1301.9087835999671,None,None,1301.9087835999671,None,,,,,,,,,,,,,,,,,,,,,,,,,,,,,,5,001,2023_Jan_30_1213,ExactRep-v3-final,2021.2.3,59.925919544372796,
,,,,,,,,86,0,86,0,,,,,,,,,,,,,,,,,,,,,,,,,,,,,,,,,,,,,,,,,,,,,,,,,,,,,1306.4132981000002,None,,,,,,,,,,,,,,,,,,,,,,,,,,,,,,,,,,,spirit,12,87,sing,blue,1304.412494399934,None,None,1304.412494399934,None,,,,,,,,,,,,,,,,,,,,,,,,,,,,,,5,001,2023_Jan_30_1213,ExactRep-v3-final,2021.2.3,59.925919544372796,
,,,,,,,,87,0,87,0,,,,,,,,,,,,,,,,,,,,,,,,,,,,,,,,,,,,,,,,,,,,,,,,,,,,,1308.9324097000062,None,,,,,,,,,,,,,,,,,,,,,,,,,,,,,,,,,,,diamond,14,88,sing,blue,1306.9201664999127,None,None,1306.9201664999127,None,,,,,,,,,,,,,,,,,,,,,,,,,,,,,,5,001,2023_Jan_30_1213,ExactRep-v3-final,2021.2.3,59.925919544372796,
,,,,,,,,88,0,88,0,,,,,,,,,,,,,,,,,,,,,,,,,,,,,,,,,,,,,,,,,,,,,,,,,,,,,1311.4528439999558,None,,,,,,,,,,,,,,,,,,,,,,,,,,,,,,,,,,,silence,41,89,silent,red,1309.4388311000075,None,None,1309.4388311000075,None,,,,,,,,,,,,,,,,,,,,,,,,,,,,,,5,001,2023_Jan_30_1213,ExactRep-v3-final,2021.2.3,59.925919544372796,
,,,,,,,,89,0,89,0,,,,,,,,,,,,,,,,,,,,,,,,,,,,,,,,,,,,,,,,,,,,,,,,,,,,,1313.954092699918,None,,,,,,,,,,,,,,,,,,,,,,,,,,,,,,,,,,,pipe,70,90,silent,red,1311.952150399913,None,None,1311.952150399913,None,,,,,,,,,,,,,,,,,,,,,,,,,,,,,,5,001,2023_Jan_30_1213,ExactRep-v3-final,2021.2.3,59.925919544372796,
,,,,,,,,90,0,90,0,,,,,,,,,,,,,,,,,,,,,,,,,,,,,,,,,,,,,,,,,,,,,,,,,,,,,1316.4733875999227,None,,,,,,,,,,,,,,,,,,,,,,,,,,,,,,,,,,,effort,5,91,sing,blue,1314.4579986999743,None,None,1314.4579986999743,None,,,,,,,,,,,,,,,,,,,,,,,,,,,,,,5,001,2023_Jan_30_1213,ExactRep-v3-final,2021.2.3,59.925919544372796,
,,,,,,,,91,0,91,0,,,,,,,,,,,,,,,,,,,,,,,,,,,,,,,,,,,,,,,,,,,,,,,,,,,,,1318.9758457998978,None,,,,,,,,,,,,,,,,,,,,,,,,,,,,,,,,,,,product,83,92,aloud,white,1316.9742104999023,None,None,1316.9742104999023,None,,,,,,,,,,,,,,,,,,,,,,,,,,,,,,5,001,2023_Jan_30_1213,ExactRep-v3-final,2021.2.3,59.925919544372796,
,,,,,,,,92,0,92,0,,,,,,,,,,,,,,,,,,,,,,,,,,,,,,,,,,,,,,,,,,,,,,,,,,,,,1321.4949484999524,None,,,,,,,,,,,,,,,,,,,,,,,,,,,,,,,,,,,air,33,93,sing,blue,1319.480746999965,None,None,1319.480746999965,None,,,,,,,,,,,,,,,,,,,,,,,,,,,,,,5,001,2023_Jan_30_1213,ExactRep-v3-final,2021.2.3,59.925919544372796,
,,,,,,,,93,0,93,0,,,,,,,,,,,,,,,,,,,,,,,,,,,,,,,,,,,,,,,,,,,,,,,,,,,,,1324.0141174999299,None,,,,,,,,,,,,,,,,,,,,,,,,,,,,,,,,,,,shame,30,94,sing,blue,1322.0015612998977,None,None,1322.0015612998977,None,,,,,,,,,,,,,,,,,,,,,,,,,,,,,,5,001,2023_Jan_30_1213,ExactRep-v3-final,2021.2.3,59.925919544372796,
,,,,,,,,94,0,94,0,,,,,,,,,,,,,,,,,,,,,,,,,,,,,,,,,,,,,,,,,,,,,,,,,,,,,1326.5166868999368,None,,,,,,,,,,,,,,,,,,,,,,,,,,,,,,,,,,,body,37,95,sing,blue,1324.5146456999937,None,None,1324.5146456999937,None,,,,,,,,,,,,,,,,,,,,,,,,,,,,,,5,001,2023_Jan_30_1213,ExactRep-v3-final,2021.2.3,59.925919544372796,
,,,,,,,,95,0,95,0,,,,,,,,,,,,,,,,,,,,,,,,,,,,,,,,,,,,,,,,,,,,,,,,,,,,,1329.035820899997,None,,,,,,,,,,,,,,,,,,,,,,,,,,,,,,,,,,,ship,119,96,aloud,white,1327.021581399953,None,None,1327.021581399953,None,,,,,,,,,,,,,,,,,,,,,,,,,,,,,,5,001,2023_Jan_30_1213,ExactRep-v3-final,2021.2.3,59.925919544372796,
,,,,,,,,96,0,96,0,,,,,,,,,,,,,,,,,,,,,,,,,,,,,,,,,,,,,,,,,,,,,,,,,,,,,1331.5383756000083,None,,,,,,,,,,,,,,,,,,,,,,,,,,,,,,,,,,,season,96,97,aloud,white,1329.5360140999546,None,None,1329.5360140999546,None,,,,,,,,,,,,,,,,,,,,,,,,,,,,,,5,001,2023_Jan_30_1213,ExactRep-v3-final,2021.2.3,59.925919544372796,
,,,,,,,,97,0,97,0,,,,,,,,,,,,,,,,,,,,,,,,,,,,,,,,,,,,,,,,,,,,,,,,,,,,,1334.057630599942,None,,,,,,,,,,,,,,,,,,,,,,,,,,,,,,,,,,,idea,106,98,aloud,white,1332.0424439999042,None,None,1332.0424439999042,None,,,,,,,,,,,,,,,,,,,,,,,,,,,,,,5,001,2023_Jan_30_1213,ExactRep-v3-final,2021.2.3,59.925919544372796,
,,,,,,,,98,0,98,0,,,,,,,,,,,,,,,,,,,,,,,,,,,,,,,,,,,,,,,,,,,,,,,,,,,,,1336.560377299902,None,,,,,,,,,,,,,,,,,,,,,,,,,,,,,,,,,,,square,18,99,sing,blue,1334.5589365999913,None,None,1334.5589365999913,None,,,,,,,,,,,,,,,,,,,,,,,,,,,,,,5,001,2023_Jan_30_1213,ExactRep-v3-final,2021.2.3,59.925919544372796,
,,,,,,,,99,0,99,0,,,,,,,,,,,,,,,,,,,,,,,,,,,,,,,,,,,,,,,,,,,,,,,,,,,,,1339.079289999907,None,,,,,,,,,,,,,,,,,,,,,,,,,,,,,,,,,,,hour,51,100,silent,red,1337.0685946999583,None,None,1337.0685946999583,None,,,,,,,,,,,,,,,,,,,,,,,,,,,,,,5,001,2023_Jan_30_1213,ExactRep-v3-final,2021.2.3,59.925919544372796,
,,,,,,,,100,0,100,0,,,,,,,,,,,,,,,,,,,,,,,,,,,,,,,,,,,,,,,,,,,,,,,,,,,,,1341.5984883999918,None,,,,,,,,,,,,,,,,,,,,,,,,,,,,,,,,,,,green,1,101,sing,blue,1339.5842852999922,None,None,1339.5842852999922,None,,,,,,,,,,,,,,,,,,,,,,,,,,,,,,5,001,2023_Jan_30_1213,ExactRep-v3-final,2021.2.3,59.925919544372796,
,,,,,,,,101,0,101,0,,,,,,,,,,,,,,,,,,,,,,,,,,,,,,,,,,,,,,,,,,,,,,,,,,,,,1344.117586200009,None,,,,,,,,,,,,,,,,,,,,,,,,,,,,,,,,,,,month,2,102,sing,blue,1342.1021058999468,None,None,1342.1021058999468,None,,,,,,,,,,,,,,,,,,,,,,,,,,,,,,5,001,2023_Jan_30_1213,ExactRep-v3-final,2021.2.3,59.925919544372796,
,,,,,,,,102,0,102,0,,,,,,,,,,,,,,,,,,,,,,,,,,,,,,,,,,,,,,,,,,,,,,,,,,,,,1346.6368681999156,None,,,,,,,,,,,,,,,,,,,,,,,,,,,,,,,,,,,owner,76,103,silent,red,1344.6233134999638,None,None,1344.6233134999638,None,,,,,,,,,,,,,,,,,,,,,,,,,,,,,,5,001,2023_Jan_30_1213,ExactRep-v3-final,2021.2.3,59.925919544372796,
,,,,,,,,103,0,103,0,,,,,,,,,,,,,,,,,,,,,,,,,,,,,,,,,,,,,,,,,,,,,,,,,,,,,1349.139190799906,None,,,,,,,,,,,,,,,,,,,,,,,,,,,,,,,,,,,skin,9,104,sing,blue,1347.1397646999685,None,None,1347.1397646999685,None,,,,,,,,,,,,,,,,,,,,,,,,,,,,,,5,001,2023_Jan_30_1213,ExactRep-v3-final,2021.2.3,59.925919544372796,
,,,,,,,,104,0,104,0,,,,,,,,,,,,,,,,,,,,,,,,,,,,,,,,,,,,,,,,,,,,,,,,,,,,,1351.6584678000072,None,,,,,,,,,,,,,,,,,,,,,,,,,,,,,,,,,,,coin,67,105,silent,red,1349.6508416999131,None,None,1349.6508416999131,None,,,,,,,,,,,,,,,,,,,,,,,,,,,,,,5,001,2023_Jan_30_1213,ExactRep-v3-final,2021.2.3,59.925919544372796,
,,,,,,,,105,0,105,0,,,,,,,,,,,,,,,,,,,,,,,,,,,,,,,,,,,,,,,,,,,,,,,,,,,,,1354.1609945999226,None,,,,,,,,,,,,,,,,,,,,,,,,,,,,,,,,,,,heaven,45,106,silent,red,1352.1611826999579,None,None,1352.1611826999579,None,,,,,,,,,,,,,,,,,,,,,,,,,,,,,,5,001,2023_Jan_30_1213,ExactRep-v3-final,2021.2.3,59.925919544372796,
,,,,,,,,106,0,106,0,,,,,,,,,,,,,,,,,,,,,,,,,,,,,,,,,,,,,,,,,,,,,,,,,,,,,1356.6693838000065,None,,,,,,,,,,,,,,,,,,,,,,,,,,,,,,,,,,,power,64,107,silent,red,1354.6614765999839,None,None,1354.6614765999839,None,,,,,,,,,,,,,,,,,,,,,,,,,,,,,,5,001,2023_Jan_30_1213,ExactRep-v3-final,2021.2.3,59.925919544372796,
,,,,,,,,107,0,107,0,,,,,,,,,,,,,,,,,,,,,,,,,,,,,,,,,,,,,,,,,,,,,,,,,,,,,1359.1825731999706,None,,,,,,,,,,,,,,,,,,,,,,,,,,,,,,,,,,,disease,114,108,aloud,white,1357.1815806999803,None,None,1357.1815806999803,None,,,,,,,,,,,,,,,,,,,,,,,,,,,,,,5,001,2023_Jan_30_1213,ExactRep-v3-final,2021.2.3,59.925919544372796,
,,,,,,,,108,0,108,0,,,,,,,,,,,,,,,,,,,,,,,,,,,,,,,,,,,,,,,,,,,,,,,,,,,,,1361.701783999917,None,,,,,,,,,,,,,,,,,,,,,,,,,,,,,,,,,,,style,85,109,aloud,white,1359.691580499988,None,None,1359.691580499988,None,,,,,,,,,,,,,,,,,,,,,,,,,,,,,,5,001,2023_Jan_30_1213,ExactRep-v3-final,2021.2.3,59.925919544372796,
,,,,,,,,109,0,109,0,,,,,,,,,,,,,,,,,,,,,,,,,,,,,,,,,,,,,,,,,,,,,,,,,,,,,1364.2043007999891,None,,,,,,,,,,,,,,,,,,,,,,,,,,,,,,,,,,,brain,66,110,silent,red,1362.2026632999768,None,None,1362.2026632999768,None,,,,,,,,,,,,,,,,,,,,,,,,,,,,,,5,001,2023_Jan_30_1213,ExactRep-v3-final,2021.2.3,59.925919544372796,
,,,,,,,,110,0,110,0,,,,,,,,,,,,,,,,,,,,,,,,,,,,,,,,,,,,,,,,,,,,,,,,,,,,,1366.7068022999447,None,,,,,,,,,,,,,,,,,,,,,,,,,,,,,,,,,,,river,89,111,aloud,white,1364.7063972000033,None,None,1364.7063972000033,None,,,,,,,,,,,,,,,,,,,,,,,,,,,,,,5,001,2023_Jan_30_1213,ExactRep-v3-final,2021.2.3,59.925919544372796,
,,,,,,,,111,0,111,0,,,,,,,,,,,,,,,,,,,,,,,,,,,,,,,,,,,,,,,,,,,,,,,,,,,,,1369.2094628999475,None,,,,,,,,,,,,,,,,,,,,,,,,,,,,,,,,,,,student,112,112,aloud,white,1367.2091869999422,None,None,1367.2091869999422,None,,,,,,,,,,,,,,,,,,,,,,,,,,,,,,5,001,2023_Jan_30_1213,ExactRep-v3-final,2021.2.3,59.925919544372796,
,,,,,,,,112,0,112,0,,,,,,,,,,,,,,,,,,,,,,,,,,,,,,,,,,,,,,,,,,,,,,,,,,,,,1371.7118138999213,None,,,,,,,,,,,,,,,,,,,,,,,,,,,,,,,,,,,gold,60,113,silent,red,1369.7105230999878,None,None,1369.7105230999878,None,,,,,,,,,,,,,,,,,,,,,,,,,,,,,,5,001,2023_Jan_30_1213,ExactRep-v3-final,2021.2.3,59.925919544372796,
,,,,,,,,113,0,113,0,,,,,,,,,,,,,,,,,,,,,,,,,,,,,,,,,,,,,,,,,,,,,,,,,,,,,1374.230961299967,None,,,,,,,,,,,,,,,,,,,,,,,,,,,,,,,,,,,pupil,56,114,silent,red,1372.2162291000132,None,None,1372.2162291000132,None,,,,,,,,,,,,,,,,,,,,,,,,,,,,,,5,001,2023_Jan_30_1213,ExactRep-v3-final,2021.2.3,59.925919544372796,
,,,,,,,,114,0,114,0,,,,,,,,,,,,,,,,,,,,,,,,,,,,,,,,,,,,,,,,,,,,,,,,,,,,,1376.7334666999523,None,,,,,,,,,,,,,,,,,,,,,,,,,,,,,,,,,,,prison,118,115,aloud,white,1374.7313130999682,None,None,1374.7313130999682,None,,,,,,,,,,,,,,,,,,,,,,,,,,,,,,5,001,2023_Jan_30_1213,ExactRep-v3-final,2021.2.3,59.925919544372796,
,,,,,,,,115,0,115,0,,,,,,,,,,,,,,,,,,,,,,,,,,,,,,,,,,,,,,,,,,,,,,,,,,,,,1379.2359973998973,None,,,,,,,,,,,,,,,,,,,,,,,,,,,,,,,,,,,factory,7,116,sing,blue,1377.2354800999165,None,None,1377.2354800999165,None,,,,,,,,,,,,,,,,,,,,,,,,,,,,,,5,001,2023_Jan_30_1213,ExactRep-v3-final,2021.2.3,59.925919544372796,
,,,,,,,,116,0,116,0,,,,,,,,,,,,,,,,,,,,,,,,,,,,,,,,,,,,,,,,,,,,,,,,,,,,,1381.7551731999265,None,,,,,,,,,,,,,,,,,,,,,,,,,,,,,,,,,,,temple,48,117,silent,red,1379.7414728999138,None,None,1379.7414728999138,None,,,,,,,,,,,,,,,,,,,,,,,,,,,,,,5,001,2023_Jan_30_1213,ExactRep-v3-final,2021.2.3,59.925919544372796,
,,,,,,,,117,0,117,0,,,,,,,,,,,,,,,,,,,,,,,,,,,,,,,,,,,,,,,,,,,,,,,,,,,,,1384.2743435999146,None,,,,,,,,,,,,,,,,,,,,,,,,,,,,,,,,,,,crime,3,118,sing,blue,1382.2587541999528,None,None,1382.2587541999528,None,,,,,,,,,,,,,,,,,,,,,,,,,,,,,,5,001,2023_Jan_30_1213,ExactRep-v3-final,2021.2.3,59.925919544372796,
,,,,,,,,118,0,118,0,,,,,,,,,,,,,,,,,,,,,,,,,,,,,,,,,,,,,,,,,,,,,,,,,,,,,1386.776872599963,None,,,,,,,,,,,,,,,,,,,,,,,,,,,,,,,,,,,leader,10,119,sing,blue,1384.7761270999908,None,None,1384.7761270999908,None,,,,,,,,,,,,,,,,,,,,,,,,,,,,,,5,001,2023_Jan_30_1213,ExactRep-v3-final,2021.2.3,59.925919544372796,
,,,,,,,,119,0,119,0,,,,,,,,,,,,,,,,,,,,,,,,,,,,,,,,,,,,,,,,,,,,,,,,,,,,,1389.2960005999776,None,,,,,,,,,,,,,,,,,,,,,,,,,,,,,,,,,,,person,0,120,sing,blue,1387.2832411999116,None,None,1387.2832411999116,None,,,,,,,,,,,,,,,,,,,,,,,,,,,,,,5,001,2023_Jan_30_1213,ExactRep-v3-final,2021.2.3,59.925919544372796,
,,,,,,,,,,,,,,,,,,,,,,,,,,,,,,,,,,,,,,,,,,,,,,,,,,,,,,,,,,,,,,,,,,,,,,,,,,,,,,,,,,,,,,,,,,,,,,,,,,,,,,,,,,,,,,1389.797778200009,None,space,2.3178945999825373,1399.7744779000059,None,,,,,,,,,,,,,,,,,,,,,,,,5,001,2023_Jan_30_1213,ExactRep-v3-final,2021.2.3,59.925919544372796,
,,,,,,,,,,,,,,,,,,,,,,,,,,,,,,,,,,,,,,,,,,,,,,,,,,,,,,,,,,,,,,,,,,,,,,,,,,,,,,,,,,,,,,,,,,,,,,,,,,,,,,,,,,,,,,,,,,,,1402.110588099924,None,space,28.733213499886915,1412.0869399999501,None,,,,,,,,,,,,,,,,,,5,001,2023_Jan_30_1213,ExactRep-v3-final,2021.2.3,59.925919544372796,
,,,,,,,,,,,,0,0,0,0,,,,,,,,,,,,,,,,,,,,,,,,,,,,,,,,,,,,,,,,,,,,,,,,,1445.2185590999434,None,,,,,,,,,,,,,,,,,,,,,,,,,,,,,,,,,,,,,,,,,,,,,,,,,,,,,,,,,cabin,208,1,aloud,new,white,1441.3572973000119,None,n,1441.3572973000119,None,"['n', 'return']","[3.2549483999609947, 3.822781099937856]",1441.3572973000119,None,,,5,001,2023_Jan_30_1213,ExactRep-v3-final,2021.2.3,59.925919544372796,
,,,,,,,,,,,,1,0,1,0,,,,,,,,,,,,,,,,,,,,,,,,,,,,,,,,,,,,,,,,,,,,,,,,,1448.071396799991,None,,,,,,,,,,,,,,,,,,,,,,,,,,,,,,,,,,,,,,,,,,,,,,,,,,,,,,,,,boy,125,2,silent,new,red,1445.7426899999846,None,y,1445.7426899999846,None,"['y', 'return']","[1.6774261998943985, 2.2853835999267176]",1445.7426899999846,None,,,5,001,2023_Jan_30_1213,ExactRep-v3-final,2021.2.3,59.925919544372796,
,,,,,,,,,,,,2,0,2,0,,,,,,,,,,,,,,,,,,,,,,,,,,,,,,,,,,,,,,,,,,,,,,,,,1449.88016229996,None,,,,,,,,,,,,,,,,,,,,,,,,,,,,,,,,,,,,,,,,,,,,,,,,,,,,,,,,,flag,20,3,sing,old,blue,1448.582559500006,None,y,1448.582559500006,None,"['y', 'return']","[0.7894655000418425, 1.2535602999851108]",1448.582559500006,None,,,5,001,2023_Jan_30_1213,ExactRep-v3-final,2021.2.3,59.925919544372796,
,,,,,,,,,,,,3,0,3,0,,,,,,,,,,,,,,,,,,,,,,,,,,,,,,,,,,,,,,,,,,,,,,,,,1452.2088746000081,None,,,,,,,,,,,,,,,,,,,,,,,,,,,,,,,,,,,,,,,,,,,,,,,,,,,,,,,,,priest,160,4,aloud,new,white,1450.3982601999305,None,n,1450.3982601999305,None,"['n', 'return']","[1.4776919999858364, 1.7738207000074908]",1450.3982601999305,None,,,5,001,2023_Jan_30_1213,ExactRep-v3-final,2021.2.3,59.925919544372796,
,,,,,,,,,,,,4,0,4,0,,,,,,,,,,,,,,,,,,,,,,,,,,,,,,,,,,,,,,,,,,,,,,,,,1454.177508899942,None,,,,,,,,,,,,,,,,,,,,,,,,,,,,,,,,,,,,,,,,,,,,,,,,,,,,,,,,,sea,155,5,silent,new,red,1452.7175477999263,None,y,1452.7175477999263,None,"['y', 'return']","[1.110680399928242, 1.4225898999720812]",1452.7175477999263,None,,,5,001,2023_Jan_30_1213,ExactRep-v3-final,2021.2.3,59.925919544372796,
,,,,,,,,,,,,5,0,5,0,,,,,,,,,,,,,,,,,,,,,,,,,,,,,,,,,,,,,,,,,,,,,,,,,1455.8292599999113,None,,,,,,,,,,,,,,,,,,,,,,,,,,,,,,,,,,,,,,,,,,,,,,,,,,,,,,,,,prison,118,6,aloud,old,white,1454.6869053000119,None,y,1454.6869053000119,None,"['y', 'return']","[0.8131740000098944, 1.1092853000154719]",1454.6869053000119,None,,,5,001,2023_Jan_30_1213,ExactRep-v3-final,2021.2.3,59.925919544372796,
,,,,,,,,,,,,6,0,6,0,,,,,,,,,,,,,,,,,,,,,,,,,,,,,,,,,,,,,,,,,,,,,,,,,1457.2138692999724,None,,,,,,,,,,,,,,,,,,,,,,,,,,,,,,,,,,,,,,,,,,,,,,,,,,,,,,,,,potato,115,7,aloud,old,white,1456.3375033999328,None,y,1456.3375033999328,None,"['y', 'return']","[0.5628300999524072, 0.8346108999103308]",1456.3375033999328,None,,,5,001,2023_Jan_30_1213,ExactRep-v3-final,2021.2.3,59.925919544372796,
,,,,,,,,,,,,7,0,7,0,,,,,,,,,,,,,,,,,,,,,,,,,,,,,,,,,,,,,,,,,,,,,,,,,1460.1835122999037,None,,,,,,,,,,,,,,,,,,,,,,,,,,,,,,,,,,,,,,,,,,,,,,,,,,,,,,,,,officer,62,8,silent,old,red,1457.7230976999272,None,n,1457.7230976999272,None,"['n', 'return']","[2.224964400054887, 2.4169360001105815]",1457.7230976999272,None,,,5,001,2023_Jan_30_1213,ExactRep-v3-final,2021.2.3,59.925919544372796,
,,,,,,,,,,,,8,0,8,0,,,,,,,,,,,,,,,,,,,,,,,,,,,,,,,,,,,,,,,,,,,,,,,,,1461.768418099964,None,,,,,,,,,,,,,,,,,,,,,,,,,,,,,,,,,,,,,,,,,,,,,,,,,,,,,,,,,moment,24,9,sing,old,blue,1460.6935839999933,None,y,1460.6935839999933,None,"['y', 'return']","[0.9424670999869704, 1.030505400034599]",1460.6935839999933,None,,,5,001,2023_Jan_30_1213,ExactRep-v3-final,2021.2.3,59.925919544372796,
,,,,,,,,,,,,9,0,9,0,,,,,,,,,,,,,,,,,,,,,,,,,,,,,,,,,,,,,,,,,,,,,,,,,1463.88718109997,None,,,,,,,,,,,,,,,,,,,,,,,,,,,,,,,,,,,,,,,,,,,,,,,,,,,,,,,,,machine,61,10,silent,old,red,1462.271019399981,None,n,1462.271019399981,None,"['n', 'return']","[1.404966300004162, 1.5730615999782458]",1462.271019399981,None,,,5,001,2023_Jan_30_1213,ExactRep-v3-final,2021.2.3,59.925919544372796,
,,,,,,,,,,,,10,0,10,0,,,,,,,,,,,,,,,,,,,,,,,,,,,,,,,,,,,,,,,,,,,,,,,,,1465.321966499905,None,,,,,,,,,,,,,,,,,,,,,,,,,,,,,,,,,,,,,,,,,,,,,,,,,,,,,,,,,meadow,116,11,aloud,old,white,1464.3985465998994,None,y,1464.3985465998994,None,"['y', 'return']","[0.7494944999925792, 0.8776146000018343]",1464.3985465998994,None,,,5,001,2023_Jan_30_1213,ExactRep-v3-final,2021.2.3,59.925919544372796,
,,,,,,,,,,,,11,0,11,0,,,,,,,,,,,,,,,,,,,,,,,,,,,,,,,,,,,,,,,,,,,,,,,,,1466.9402500999859,None,,,,,,,,,,,,,,,,,,,,,,,,,,,,,,,,,,,,,,,,,,,,,,,,,,,,,,,,,weapon,216,12,aloud,new,white,1465.8262927999021,None,n,1465.8262927999021,None,"['n', 'return']","[0.9058255999116227, 1.0737892999313772]",1465.8262927999021,None,,,5,001,2023_Jan_30_1213,ExactRep-v3-final,2021.2.3,59.925919544372796,
,,,,,,,,,,,,12,0,12,0,,,,,,,,,,,,,,,,,,,,,,,,,,,,,,,,,,,,,,,,,,,,,,,,,1469.3427279999014,None,,,,,,,,,,,,,,,,,,,,,,,,,,,,,,,,,,,,,,,,,,,,,,,,,,,,,,,,,history,71,13,silent,old,red,1467.451430899906,None,n,1467.451430899906,None,"['n', 'return']","[1.7366056999890134, 1.856679799966514]",1467.451430899906,None,,,5,001,2023_Jan_30_1213,ExactRep-v3-final,2021.2.3,59.925919544372796,
,,,,,,,,,,,,13,0,13,0,,,,,,,,,,,,,,,,,,,,,,,,,,,,,,,,,,,,,,,,,,,,,,,,,1470.6606725999154,None,,,,,,,,,,,,,,,,,,,,,,,,,,,,,,,,,,,,,,,,,,,,,,,,,,,,,,,,,product,83,14,aloud,old,white,1469.8548260999378,None,y,1469.8548260999378,None,"['y', 'return']","[0.6612135000759736, 0.7654163000406697]",1469.8548260999378,None,,,5,001,2023_Jan_30_1213,ExactRep-v3-final,2021.2.3,59.925919544372796,
,,,,,,,,,,,,14,0,14,0,,,,,,,,,,,,,,,,,,,,,,,,,,,,,,,,,,,,,,,,,,,,,,,,,1472.1621320999693,None,,,,,,,,,,,,,,,,,,,,,,,,,,,,,,,,,,,,,,,,,,,,,,,,,,,,,,,,,gold,60,15,silent,old,red,1471.1691256999038,None,y,1471.1691256999038,None,"['y', 'return']","[0.8669063000706956, 0.9549866000888869]",1471.1691256999038,None,,,5,001,2023_Jan_30_1213,ExactRep-v3-final,2021.2.3,59.925919544372796,
,,,,,,,,,,,,15,0,15,0,,,,,,,,,,,,,,,,,,,,,,,,,,,,,,,,,,,,,,,,,,,,,,,,,1473.5469128999393,None,,,,,,,,,,,,,,,,,,,,,,,,,,,,,,,,,,,,,,,,,,,,,,,,,,,,,,,,,arm,38,16,sing,old,blue,1472.6694984999485,None,y,1472.6694984999485,None,"['y', 'return']","[0.6866856999695301, 0.8385398000245914]",1472.6694984999485,None,,,5,001,2023_Jan_30_1213,ExactRep-v3-final,2021.2.3,59.925919544372796,
,,,,,,,,,,,,16,0,16,0,,,,,,,,,,,,,,,,,,,,,,,,,,,,,,,,,,,,,,,,,,,,,,,,,1475.1651082999306,None,,,,,,,,,,,,,,,,,,,,,,,,,,,,,,,,,,,,,,,,,,,,,,,,,,,,,,,,,sugar,174,17,aloud,new,white,1474.063274599961,None,n,1474.063274599961,None,"['n', 'return']","[0.8927859000395983, 1.0607497000601143]",1474.063274599961,None,,,5,001,2023_Jan_30_1213,ExactRep-v3-final,2021.2.3,59.925919544372796,
,,,,,,,,,,,,17,0,17,0,,,,,,,,,,,,,,,,,,,,,,,,,,,,,,,,,,,,,,,,,,,,,,,,,1476.6834278999595,None,,,,,,,,,,,,,,,,,,,,,,,,,,,,,,,,,,,,,,,,,,,,,,,,,,,,,,,,,rod,94,18,aloud,old,white,1475.678549299948,None,y,1475.678549299948,None,"['y', 'return']","[0.8296073999954388, 0.9655079999938607]",1475.678549299948,None,,,5,001,2023_Jan_30_1213,ExactRep-v3-final,2021.2.3,59.925919544372796,
,,,,,,,,,,,,18,0,18,0,,,,,,,,,,,,,,,,,,,,,,,,,,,,,,,,,,,,,,,,,,,,,,,,,1477.9677007999271,None,,,,,,,,,,,,,,,,,,,,,,,,,,,,,,,,,,,,,,,,,,,,,,,,,,,,,,,,,earth,97,19,aloud,old,white,1477.1958381999284,None,y,1477.1958381999284,None,"['y', 'return']","[0.6562209000112489, 0.7363663000287488]",1477.1958381999284,None,,,5,001,2023_Jan_30_1213,ExactRep-v3-final,2021.2.3,59.925919544372796,
,,,,,,,,,,,,19,0,19,0,,,,,,,,,,,,,,,,,,,,,,,,,,,,,,,,,,,,,,,,,,,,,,,,,1479.8865246999776,None,,,,,,,,,,,,,,,,,,,,,,,,,,,,,,,,,,,,,,,,,,,,,,,,,,,,,,,,,artist,4,20,sing,old,blue,1478.4770381000126,None,y,1478.4770381000126,None,"['y', 'return']","[1.3110740999691188, 1.3669941000407562]",1478.4770381000126,None,,,5,001,2023_Jan_30_1213,ExactRep-v3-final,2021.2.3,59.925919544372796,
,,,,,,,,,,,,20,0,20,0,,,,,,,,,,,,,,,,,,,,,,,,,,,,,,,,,,,,,,,,,,,,,,,,,1481.4047122999327,None,,,,,,,,,,,,,,,,,,,,,,,,,,,,,,,,,,,,,,,,,,,,,,,,,,,,,,,,,dream,217,21,sing,new,blue,1480.3964085999178,None,y,1480.3964085999178,None,"['y', 'return']","[0.7836368000134826, 0.9676370000233874]",1480.3964085999178,None,,,5,001,2023_Jan_30_1213,ExactRep-v3-final,2021.2.3,59.925919544372796,
,,,,,,,,,,,,21,0,21,0,,,,,,,,,,,,,,,,,,,,,,,,,,,,,,,,,,,,,,,,,,,,,,,,,1483.0730436999584,None,,,,,,,,,,,,,,,,,,,,,,,,,,,,,,,,,,,,,,,,,,,,,,,,,,,,,,,,,honour,233,22,sing,new,blue,1481.914288799977,None,n,1481.914288799977,None,"['n', 'return']","[0.9937845000531524, 1.1139734000898898]",1481.914288799977,None,,,5,001,2023_Jan_30_1213,ExactRep-v3-final,2021.2.3,59.925919544372796,
,,,,,,,,,,,,22,0,22,0,,,,,,,,,,,,,,,,,,,,,,,,,,,,,,,,,,,,,,,,,,,,,,,,,1486.094272099901,None,,,,,,,,,,,,,,,,,,,,,,,,,,,,,,,,,,,,,,,,,,,,,,,,,,,,,,,,,cottage,52,23,silent,old,red,1483.5842233999865,None,y,1483.5842233999865,None,"['y', 'return']","[2.395940399961546, 2.475825999979861]",1483.5842233999865,None,,,5,001,2023_Jan_30_1213,ExactRep-v3-final,2021.2.3,59.925919544372796,
,,,,,,,,,,,,23,0,23,0,,,,,,,,,,,,,,,,,,,,,,,,,,,,,,,,,,,,,,,,,,,,,,,,,1487.6109005999751,None,,,,,,,,,,,,,,,,,,,,,,,,,,,,,,,,,,,,,,,,,,,,,,,,,,,,,,,,,spirit,12,24,sing,old,blue,1486.6033710999181,None,y,1486.6033710999181,None,"['y', 'return']","[0.8726607999997213, 0.9689898999640718]",1486.6033710999181,None,,,5,001,2023_Jan_30_1213,ExactRep-v3-final,2021.2.3,59.925919544372796,
,,,,,,,,,,,,24,0,24,0,,,,,,,,,,,,,,,,,,,,,,,,,,,,,,,,,,,,,,,,,,,,,,,,,1489.6463358999463,None,,,,,,,,,,,,,,,,,,,,,,,,,,,,,,,,,,,,,,,,,,,,,,,,,,,,,,,,,house,54,25,silent,old,red,1488.123721599928,None,y,1488.123721599928,None,"['y', 'return']","[1.2722943000262603, 1.4803298999322578]",1488.123721599928,None,,,5,001,2023_Jan_30_1213,ExactRep-v3-final,2021.2.3,59.925919544372796,
,,,,,,,,,,,,25,0,25,0,,,,,,,,,,,,,,,,,,,,,,,,,,,,,,,,,,,,,,,,,,,,,,,,,1491.1655626998981,None,,,,,,,,,,,,,,,,,,,,,,,,,,,,,,,,,,,,,,,,,,,,,,,,,,,,,,,,,ticket,150,26,silent,new,red,1490.1490949,None,n,1490.1490949,None,"['n', 'return']","[0.815123499953188, 0.983000100008212]",1490.1490949,None,,,5,001,2023_Jan_30_1213,ExactRep-v3-final,2021.2.3,59.925919544372796,
,,,,,,,,,,,,26,0,26,0,,,,,,,,,,,,,,,,,,,,,,,,,,,,,,,,,,,,,,,,,,,,,,,,,1493.199917599908,None,,,,,,,,,,,,,,,,,,,,,,,,,,,,,,,,,,,,,,,,,,,,,,,,,,,,,,,,,length,202,27,aloud,new,white,1491.672607799992,None,n,1491.672607799992,None,"['n', 'return']","[1.37142490001861, 1.483474800013937]",1491.672607799992,None,,,5,001,2023_Jan_30_1213,ExactRep-v3-final,2021.2.3,59.925919544372796,
,,,,,,,,,,,,27,0,27,0,,,,,,,,,,,,,,,,,,,,,,,,,,,,,,,,,,,,,,,,,,,,,,,,,1494.8014152999967,None,,,,,,,,,,,,,,,,,,,,,,,,,,,,,,,,,,,,,,,,,,,,,,,,,,,,,,,,,chance,172,28,aloud,new,white,1493.7155151999323,None,n,1493.7155151999323,None,"['n', 'return']","[0.8805170999839902, 1.0405202999245375]",1493.7155151999323,None,,,5,001,2023_Jan_30_1213,ExactRep-v3-final,2021.2.3,59.925919544372796,
,,,,,,,,,,,,28,0,28,0,,,,,,,,,,,,,,,,,,,,,,,,,,,,,,,,,,,,,,,,,,,,,,,,,1497.238260599901,None,,,,,,,,,,,,,,,,,,,,,,,,,,,,,,,,,,,,,,,,,,,,,,,,,,,,,,,,,home,21,29,sing,old,blue,1495.311273099971,None,n,1495.311273099971,None,"['n', 'return']","[1.7808505001012236, 1.8929541000397876]",1495.311273099971,None,,,5,001,2023_Jan_30_1213,ExactRep-v3-final,2021.2.3,59.925919544372796,
,,,,,,,,,,,,29,0,29,0,,,,,,,,,,,,,,,,,,,,,,,,,,,,,,,,,,,,,,,,,,,,,,,,,1498.7720696999459,None,,,,,,,,,,,,,,,,,,,,,,,,,,,,,,,,,,,,,,,,,,,,,,,,,,,,,,,,,grief,164,30,aloud,new,white,1497.747886999976,None,n,1497.747886999976,None,"['n', 'return']","[0.85613120009657, 0.984203000087291]",1497.747886999976,None,,,5,001,2023_Jan_30_1213,ExactRep-v3-final,2021.2.3,59.925919544372796,
,,,,,,,,,,,,30,0,30,0,,,,,,,,,,,,,,,,,,,,,,,,,,,,,,,,,,,,,,,,,,,,,,,,,1501.3090627999045,None,,,,,,,,,,,,,,,,,,,,,,,,,,,,,,,,,,,,,,,,,,,,,,,,,,,,,,,,,market,44,31,silent,old,red,1499.272891099914,None,y,1499.272891099914,None,"['y', 'return']","[1.8674431999679655, 1.9951456000562757]",1499.272891099914,None,,,5,001,2023_Jan_30_1213,ExactRep-v3-final,2021.2.3,59.925919544372796,
,,,,,,,,,,,,31,0,31,0,,,,,,,,,,,,,,,,,,,,,,,,,,,,,,,,,,,,,,,,,,,,,,,,,1502.7927682999289,None,,,,,,,,,,,,,,,,,,,,,,,,,,,,,,,,,,,,,,,,,,,,,,,,,,,,,,,,,season,96,32,aloud,old,white,1501.8169229999185,None,y,1501.8169229999185,None,"['y', 'return']","[0.7711409999756142, 0.9391528000123799]",1501.8169229999185,None,,,5,001,2023_Jan_30_1213,ExactRep-v3-final,2021.2.3,59.925919544372796,
,,,,,,,,,,,,32,0,32,0,,,,,,,,,,,,,,,,,,,,,,,,,,,,,,,,,,,,,,,,,,,,,,,,,1505.162818999961,None,,,,,,,,,,,,,,,,,,,,,,,,,,,,,,,,,,,,,,,,,,,,,,,,,,,,,,,,,shame,30,33,sing,old,blue,1503.303968799999,None,y,1503.303968799999,None,"['y', 'return']","[1.6921178000047803, 1.8120834999717772]",1503.303968799999,None,,,5,001,2023_Jan_30_1213,ExactRep-v3-final,2021.2.3,59.925919544372796,
,,,,,,,,,,,,33,0,33,0,,,,,,,,,,,,,,,,,,,,,,,,,,,,,,,,,,,,,,,,,,,,,,,,,1507.6309150999878,None,,,,,,,,,,,,,,,,,,,,,,,,,,,,,,,,,,,,,,,,,,,,,,,,,,,,,,,,,woods,221,34,sing,new,blue,1505.6747390999226,None,n,1505.6747390999226,None,"['n', 'return']","[1.7693116998998448, 1.9132609999505803]",1505.6747390999226,None,,,5,001,2023_Jan_30_1213,ExactRep-v3-final,2021.2.3,59.925919544372796,
,,,,,,,,,,,,34,0,34,0,,,,,,,,,,,,,,,,,,,,,,,,,,,,,,,,,,,,,,,,,,,,,,,,,1512.5024546999484,None,,,,,,,,,,,,,,,,,,,,,,,,,,,,,,,,,,,,,,,,,,,,,,,,,,,,,,,,,hotel,188,35,aloud,new,white,1508.1406938999426,None,y,1508.1406938999426,None,"['n', 'backspace', 'y', 'return']","[3.031444099964574, 4.015437199966982, 4.151376699912362, 4.327357399975881]",1508.1406938999426,None,,,5,001,2023_Jan_30_1213,ExactRep-v3-final,2021.2.3,59.925919544372796,
,,,,,,,,,,,,35,0,35,0,,,,,,,,,,,,,,,,,,,,,,,,,,,,,,,,,,,,,,,,,,,,,,,,,1514.66240999999,None,,,,,,,,,,,,,,,,,,,,,,,,,,,,,,,,,,,,,,,,,,,,,,,,,,,,,,,,,soil,184,36,aloud,new,white,1513.0092745999573,None,n,1513.0092745999573,None,"['n', 'return']","[1.4509051000932232, 1.59477920003701]",1513.0092745999573,None,,,5,001,2023_Jan_30_1213,ExactRep-v3-final,2021.2.3,59.925919544372796,
,,,,,,,,,,,,36,0,36,0,,,,,,,,,,,,,,,,,,,,,,,,,,,,,,,,,,,,,,,,,,,,,,,,,1516.18943509995,None,,,,,,,,,,,,,,,,,,,,,,,,,,,,,,,,,,,,,,,,,,,,,,,,,,,,,,,,,event,199,37,sing,new,blue,1515.2048543000128,None,y,1515.2048543000128,None,"['y', 'return']","[0.8312019999139011, 0.9512232999550179]",1515.2048543000128,None,,,5,001,2023_Jan_30_1213,ExactRep-v3-final,2021.2.3,59.925919544372796,
,,,,,,,,,,,,37,0,37,0,,,,,,,,,,,,,,,,,,,,,,,,,,,,,,,,,,,,,,,,,,,,,,,,,1517.8244693999877,None,,,,,,,,,,,,,,,,,,,,,,,,,,,,,,,,,,,,,,,,,,,,,,,,,,,,,,,,,dress,179,38,sing,new,blue,1516.6987882999238,None,n,1516.6987882999238,None,"['n', 'return']","[0.9774015999864787, 1.0894822999835014]",1516.6987882999238,None,,,5,001,2023_Jan_30_1213,ExactRep-v3-final,2021.2.3,59.925919544372796,
,,,,,,,,,,,,38,0,38,0,,,,,,,,,,,,,,,,,,,,,,,,,,,,,,,,,,,,,,,,,,,,,,,,,1520.7773726999294,None,,,,,,,,,,,,,,,,,,,,,,,,,,,,,,,,,,,,,,,,,,,,,,,,,,,,,,,,,love,147,39,silent,new,red,1518.3325654999353,None,y,1518.3325654999353,None,"['y', 'return']","[2.335480700014159, 2.4076502999523655]",1518.3325654999353,None,,,5,001,2023_Jan_30_1213,ExactRep-v3-final,2021.2.3,59.925919544372796,
,,,,,,,,,,,,39,0,39,0,,,,,,,,,,,,,,,,,,,,,,,,,,,,,,,,,,,,,,,,,,,,,,,,,1522.9795861999737,None,,,,,,,,,,,,,,,,,,,,,,,,,,,,,,,,,,,,,,,,,,,,,,,,,,,,,,,,,humour,40,40,silent,old,red,1521.2870969999349,None,y,1521.2870969999349,None,"['y', 'return']","[1.2529680000152439, 1.6449317999649793]",1521.2870969999349,None,,,5,001,2023_Jan_30_1213,ExactRep-v3-final,2021.2.3,59.925919544372796,
,,,,,,,,,,,,40,0,40,0,,,,,,,,,,,,,,,,,,,,,,,,,,,,,,,,,,,,,,,,,,,,,,,,,1524.7657811999088,None,,,,,,,,,,,,,,,,,,,,,,,,,,,,,,,,,,,,,,,,,,,,,,,,,,,,,,,,,coin,67,41,silent,old,red,1523.482823899947,None,y,1523.482823899947,None,"['y', 'return']","[0.8573909000260755, 1.249183800071478]",1523.482823899947,None,,,5,001,2023_Jan_30_1213,ExactRep-v3-final,2021.2.3,59.925919544372796,
,,,,,,,,,,,,41,0,41,0,,,,,,,,,,,,,,,,,,,,,,,,,,,,,,,,,,,,,,,,,,,,,,,,,1529.3370171999559,None,,,,,,,,,,,,,,,,,,,,,,,,,,,,,,,,,,,,,,,,,,,,,,,,,,,,,,,,,street,17,42,sing,old,blue,1525.2770559999626,None,y,1525.2770559999626,None,"['y', 'return']","[3.8790033000987023, 4.023112100083381]",1525.2770559999626,None,,,5,001,2023_Jan_30_1213,ExactRep-v3-final,2021.2.3,59.925919544372796,
,,,,,,,,,,,,42,0,42,0,,,,,,,,,,,,,,,,,,,,,,,,,,,,,,,,,,,,,,,,,,,,,,,,,1530.870949700009,None,,,,,,,,,,,,,,,,,,,,,,,,,,,,,,,,,,,,,,,,,,,,,,,,,,,,,,,,,teacher,104,43,aloud,old,white,1529.8440709999995,None,y,1529.8440709999995,None,"['y', 'return']","[0.8159869000082836, 0.9841034000273794]",1529.8440709999995,None,,,5,001,2023_Jan_30_1213,ExactRep-v3-final,2021.2.3,59.925919544372796,
,,,,,,,,,,,,43,0,43,0,,,,,,,,,,,,,,,,,,,,,,,,,,,,,,,,,,,,,,,,,,,,,,,,,1532.3557011999656,None,,,,,,,,,,,,,,,,,,,,,,,,,,,,,,,,,,,,,,,,,,,,,,,,,,,,,,,,,diamond,14,44,sing,old,blue,1531.3874095999636,None,y,1531.3874095999636,None,"['y', 'return']","[0.720829900004901, 0.9206766999559477]",1531.3874095999636,None,,,5,001,2023_Jan_30_1213,ExactRep-v3-final,2021.2.3,59.925919544372796,
,,,,,,,,,,,,44,0,44,0,,,,,,,,,,,,,,,,,,,,,,,,,,,,,,,,,,,,,,,,,,,,,,,,,1534.8080590999452,None,,,,,,,,,,,,,,,,,,,,,,,,,,,,,,,,,,,,,,,,,,,,,,,,,,,,,,,,,plant,182,45,aloud,new,white,1532.8675648999633,None,n,1532.8675648999633,None,"['n', 'return']","[0.9928448999999091, 1.9045572999166325]",1532.8675648999633,None,,,5,001,2023_Jan_30_1213,ExactRep-v3-final,2021.2.3,59.925919544372796,
,,,,,,,,,,,,45,0,45,0,,,,,,,,,,,,,,,,,,,,,,,,,,,,,,,,,,,,,,,,,,,,,,,,,1538.39504079998,None,,,,,,,,,,,,,,,,,,,,,,,,,,,,,,,,,,,,,,,,,,,,,,,,,,,,,,,,,truth,134,46,silent,new,red,1535.320263599977,None,y,1535.320263599977,None,"['y', 'return']","[2.667796600027941, 3.0358075000112876]",1535.320263599977,None,,,5,001,2023_Jan_30_1213,ExactRep-v3-final,2021.2.3,59.925919544372796,
,,,,,,,,,,,,46,0,46,0,,,,,,,,,,,,,,,,,,,,,,,,,,,,,,,,,,,,,,,,,,,,,,,,,1540.2801609999733,None,,,,,,,,,,,,,,,,,,,,,,,,,,,,,,,,,,,,,,,,,,,,,,,,,,,,,,,,,coast,35,47,sing,old,blue,1538.9028568000067,None,y,1538.9028568000067,None,"['y', 'return']","[1.237347999936901, 1.3414131000172347]",1538.9028568000067,None,,,5,001,2023_Jan_30_1213,ExactRep-v3-final,2021.2.3,59.925919544372796,
,,,,,,,,,,,,47,0,47,0,,,,,,,,,,,,,,,,,,,,,,,,,,,,,,,,,,,,,,,,,,,,,,,,,1541.8495224999497,None,,,,,,,,,,,,,,,,,,,,,,,,,,,,,,,,,,,,,,,,,,,,,,,,,,,,,,,,,gift,32,48,sing,old,blue,1540.7870578999864,None,y,1540.7870578999864,None,"['y', 'return']","[0.896978099946864, 1.0169497999595478]",1540.7870578999864,None,,,5,001,2023_Jan_30_1213,ExactRep-v3-final,2021.2.3,59.925919544372796,
,,,,,,,,,,,,48,0,48,0,,,,,,,,,,,,,,,,,,,,,,,,,,,,,,,,,,,,,,,,,,,,,,,,,1543.4834047999466,None,,,,,,,,,,,,,,,,,,,,,,,,,,,,,,,,,,,,,,,,,,,,,,,,,,,,,,,,,master,167,49,sing,new,blue,1542.3580130999908,None,n,1542.3580130999908,None,"['n', 'return']","[0.8779030999867246, 1.0860256999731064]",1542.3580130999908,None,,,5,001,2023_Jan_30_1213,ExactRep-v3-final,2021.2.3,59.925919544372796,
,,,,,,,,,,,,49,0,49,0,,,,,,,,,,,,,,,,,,,,,,,,,,,,,,,,,,,,,,,,,,,,,,,,,1546.4363240000093,None,,,,,,,,,,,,,,,,,,,,,,,,,,,,,,,,,,,,,,,,,,,,,,,,,,,,,,,,,amount,91,50,aloud,old,white,1543.9931528999005,None,n,1543.9931528999005,None,"['n', 'return']","[2.2911536999745294, 2.4109488000394776]",1543.9931528999005,None,,,5,001,2023_Jan_30_1213,ExactRep-v3-final,2021.2.3,59.925919544372796,
,,,,,,,,,,,,50,0,50,0,,,,,,,,,,,,,,,,,,,,,,,,,,,,,,,,,,,,,,,,,,,,,,,,,1548.6385572999716,None,,,,,,,,,,,,,,,,,,,,,,,,,,,,,,,,,,,,,,,,,,,,,,,,,,,,,,,,,picture,31,51,sing,old,blue,1546.9460051999195,None,y,1546.9460051999195,None,"['y', 'return']","[1.4340892999898642, 1.650000299909152]",1546.9460051999195,None,,,5,001,2023_Jan_30_1213,ExactRep-v3-final,2021.2.3,59.925919544372796,
,,,,,,,,,,,,51,0,51,0,,,,,,,,,,,,,,,,,,,,,,,,,,,,,,,,,,,,,,,,,,,,,,,,,1551.0910088999663,None,,,,,,,,,,,,,,,,,,,,,,,,,,,,,,,,,,,,,,,,,,,,,,,,,,,,,,,,,dollar,90,52,aloud,old,white,1549.152431699913,None,y,1549.152431699913,None,"['y', 'return']","[1.7636092000175267, 1.8916408000513911]",1549.152431699913,None,,,5,001,2023_Jan_30_1213,ExactRep-v3-final,2021.2.3,59.925919544372796,
,,,,,,,,,,,,52,0,52,0,,,,,,,,,,,,,,,,,,,,,,,,,,,,,,,,,,,,,,,,,,,,,,,,,1552.7593361999607,None,,,,,,,,,,,,,,,,,,,,,,,,,,,,,,,,,,,,,,,,,,,,,,,,,,,,,,,,,toy,120,53,silent,new,red,1551.6000230999198,None,y,1551.6000230999198,None,"['y', 'return']","[0.9881731999339536, 1.1241092999698594]",1551.6000230999198,None,,,5,001,2023_Jan_30_1213,ExactRep-v3-final,2021.2.3,59.925919544372796,
,,,,,,,,,,,,53,0,53,0,,,,,,,,,,,,,,,,,,,,,,,,,,,,,,,,,,,,,,,,,,,,,,,,,1554.1106887999922,None,,,,,,,,,,,,,,,,,,,,,,,,,,,,,,,,,,,,,,,,,,,,,,,,,,,,,,,,,death,81,54,aloud,old,white,1553.2741131999064,None,y,1553.2741131999064,None,"['y', 'return']","[0.6657675999449566, 0.8017445999430493]",1553.2741131999064,None,,,5,001,2023_Jan_30_1213,ExactRep-v3-final,2021.2.3,59.925919544372796,
,,,,,,,,,,,,54,0,54,0,,,,,,,,,,,,,,,,,,,,,,,,,,,,,,,,,,,,,,,,,,,,,,,,,1558.0312817000085,None,,,,,,,,,,,,,,,,,,,,,,,,,,,,,,,,,,,,,,,,,,,,,,,,,,,,,,,,,bottle,143,55,silent,new,red,1554.6169957999373,None,y,1554.6169957999373,None,"['y', 'return']","[3.2430934000294656, 3.379112599999644]",1554.6169957999373,None,,,5,001,2023_Jan_30_1213,ExactRep-v3-final,2021.2.3,59.925919544372796,
,,,,,,,,,,,,55,0,55,0,,,,,,,,,,,,,,,,,,,,,,,,,,,,,,,,,,,,,,,,,,,,,,,,,1560.9353057999397,None,,,,,,,,,,,,,,,,,,,,,,,,,,,,,,,,,,,,,,,,,,,,,,,,,,,,,,,,,iron,126,56,silent,new,red,1558.5370416999795,None,y,1558.5370416999795,None,"['y', 'return']","[2.251006199978292, 2.355240499950014]",1558.5370416999795,None,,,5,001,2023_Jan_30_1213,ExactRep-v3-final,2021.2.3,59.925919544372796,
,,,,,,,,,,,,56,0,56,0,,,,,,,,,,,,,,,,,,,,,,,,,,,,,,,,,,,,,,,,,,,,,,,,,1563.7870159999002,None,,,,,,,,,,,,,,,,,,,,,,,,,,,,,,,,,,,,,,,,,,,,,,,,,,,,,,,,,excuse,78,57,silent,old,red,1561.4542213999666,None,n,1561.4542213999666,None,"['n', 'return']","[2.165975600015372, 2.2862181999953464]",1561.4542213999666,None,,,5,001,2023_Jan_30_1213,ExactRep-v3-final,2021.2.3,59.925919544372796,
,,,,,,,,,,,,57,0,57,0,,,,,,,,,,,,,,,,,,,,,,,,,,,,,,,,,,,,,,,,,,,,,,,,,1566.1560443999479,None,,,,,,,,,,,,,,,,,,,,,,,,,,,,,,,,,,,,,,,,,,,,,,,,,,,,,,,,,fault,235,58,sing,new,blue,1564.2898414999945,None,n,1564.2898414999945,None,"['n', 'return']","[1.6981675999704748, 1.8262676999438554]",1564.2898414999945,None,,,5,001,2023_Jan_30_1213,ExactRep-v3-final,2021.2.3,59.925919544372796,
,,,,,,,,,,,,58,0,58,0,,,,,,,,,,,,,,,,,,,,,,,,,,,,,,,,,,,,,,,,,,,,,,,,,1567.6241590999998,None,,,,,,,,,,,,,,,,,,,,,,,,,,,,,,,,,,,,,,,,,,,,,,,,,,,,,,,,,poet,22,59,sing,old,blue,1566.6714830999263,None,y,1566.6714830999263,None,"['y', 'return']","[0.7485662000253797, 0.916567699983716]",1566.6714830999263,None,,,5,001,2023_Jan_30_1213,ExactRep-v3-final,2021.2.3,59.925919544372796,
,,,,,,,,,,,,59,0,59,0,,,,,,,,,,,,,,,,,,,,,,,,,,,,,,,,,,,,,,,,,,,,,,,,,1571.7283930999693,None,,,,,,,,,,,,,,,,,,,,,,,,,,,,,,,,,,,,,,,,,,,,,,,,,,,,,,,,,justice,127,60,silent,new,red,1568.135482899961,None,y,1568.135482899961,None,"['n', 'backspace', 'y', 'return']","[1.2845917000668123, 3.1727243000641465, 3.4447904000990093, 3.5486582000739872]",1568.135482899961,None,,,5,001,2023_Jan_30_1213,ExactRep-v3-final,2021.2.3,59.925919544372796,
,,,,,,,,,,,,60,0,60,0,,,,,,,,,,,,,,,,,,,,,,,,,,,,,,,,,,,,,,,,,,,,,,,,,1573.3845630999422,None,,,,,,,,,,,,,,,,,,,,,,,,,,,,,,,,,,,,,,,,,,,,,,,,,,,,,,,,,fate,163,61,sing,new,blue,1572.229319899925,None,y,1572.229319899925,None,"['y', 'return']","[0.9747703999746591, 1.1107492999872193]",1572.229319899925,None,,,5,001,2023_Jan_30_1213,ExactRep-v3-final,2021.2.3,59.925919544372796,
,,,,,,,,,,,,61,0,61,0,,,,,,,,,,,,,,,,,,,,,,,,,,,,,,,,,,,,,,,,,,,,,,,,,1575.1484098999063,None,,,,,,,,,,,,,,,,,,,,,,,,,,,,,,,,,,,,,,,,,,,,,,,,,,,,,,,,,devil,161,62,sing,new,blue,1573.9104476999491,None,n,1573.9104476999491,None,"['n', 'return']","[1.0777720999903977, 1.1978553999215364]",1573.9104476999491,None,,,5,001,2023_Jan_30_1213,ExactRep-v3-final,2021.2.3,59.925919544372796,
,,,,,,,,,,,,62,0,62,0,,,,,,,,,,,,,,,,,,,,,,,,,,,,,,,,,,,,,,,,,,,,,,,,,1579.9205392999575,None,,,,,,,,,,,,,,,,,,,,,,,,,,,,,,,,,,,,,,,,,,,,,,,,,,,,,,,,,memory,194,63,aloud,new,white,1575.6596828999463,None,y,1575.6596828999463,None,"['y', 'return']","[4.080401100101881, 4.224487400031649]",1575.6596828999463,None,,,5,001,2023_Jan_30_1213,ExactRep-v3-final,2021.2.3,59.925919544372796,
,,,,,,,,,,,,63,0,63,0,,,,,,,,,,,,,,,,,,,,,,,,,,,,,,,,,,,,,,,,,,,,,,,,,1581.4047708999133,None,,,,,,,,,,,,,,,,,,,,,,,,,,,,,,,,,,,,,,,,,,,,,,,,,,,,,,,,,army,82,64,aloud,old,white,1580.429736699909,None,y,1580.429736699909,None,"['y', 'return']","[0.7424516000319272, 0.9423016000073403]",1580.429736699909,None,,,5,001,2023_Jan_30_1213,ExactRep-v3-final,2021.2.3,59.925919544372796,
,,,,,,,,,,,,64,0,64,0,,,,,,,,,,,,,,,,,,,,,,,,,,,,,,,,,,,,,,,,,,,,,,,,,1583.473363099969,None,,,,,,,,,,,,,,,,,,,,,,,,,,,,,,,,,,,,,,,,,,,,,,,,,,,,,,,,,power,64,65,silent,old,red,1581.9168478999054,None,y,1581.9168478999054,None,"['y', 'return']","[1.3592566000297666, 1.519240300054662]",1581.9168478999054,None,,,5,001,2023_Jan_30_1213,ExactRep-v3-final,2021.2.3,59.925919544372796,
,,,,,,,,,,,,65,0,65,0,,,,,,,,,,,,,,,,,,,,,,,,,,,,,,,,,,,,,,,,,,,,,,,,,1585.4253410999663,None,,,,,,,,,,,,,,,,,,,,,,,,,,,,,,,,,,,,,,,,,,,,,,,,,,,,,,,,,paper,29,66,sing,old,blue,1583.983206899953,None,y,1583.983206899953,None,"['y', 'return']","[1.1888514999300241, 1.4048619999084622]",1583.983206899953,None,,,5,001,2023_Jan_30_1213,ExactRep-v3-final,2021.2.3,59.925919544372796,
,,,,,,,,,,,,66,0,66,0,,,,,,,,,,,,,,,,,,,,,,,,,,,,,,,,,,,,,,,,,,,,,,,,,1588.1284198999638,None,,,,,,,,,,,,,,,,,,,,,,,,,,,,,,,,,,,,,,,,,,,,,,,,,,,,,,,,,meat,230,67,aloud,new,white,1585.9336439999752,None,n,1585.9336439999752,None,"['n', 'return']","[1.9986501999665052, 2.150400999933481]",1585.9336439999752,None,,,5,001,2023_Jan_30_1213,ExactRep-v3-final,2021.2.3,59.925919544372796,
,,,,,,,,,,,,67,0,67,0,,,,,,,,,,,,,,,,,,,,,,,,,,,,,,,,,,,,,,,,,,,,,,,,,1589.7461616999935,None,,,,,,,,,,,,,,,,,,,,,,,,,,,,,,,,,,,,,,,,,,,,,,,,,,,,,,,,,fur,225,68,sing,new,blue,1588.6370724999579,None,n,1588.6370724999579,None,"['n', 'return']","[0.9349985999288037, 1.0630042999982834]",1588.6370724999579,None,,,5,001,2023_Jan_30_1213,ExactRep-v3-final,2021.2.3,59.925919544372796,
,,,,,,,,,,,,68,0,68,0,,,,,,,,,,,,,,,,,,,,,,,,,,,,,,,,,,,,,,,,,,,,,,,,,1592.1319679999724,None,,,,,,,,,,,,,,,,,,,,,,,,,,,,,,,,,,,,,,,,,,,,,,,,,,,,,,,,,lip,74,69,silent,old,red,1590.2575817999896,None,n,1590.2575817999896,None,"['n', 'return']","[1.6665335000725463, 1.8347433999879286]",1590.2575817999896,None,,,5,001,2023_Jan_30_1213,ExactRep-v3-final,2021.2.3,59.925919544372796,
,,,,,,,,,,,,69,0,69,0,,,,,,,,,,,,,,,,,,,,,,,,,,,,,,,,,,,,,,,,,,,,,,,,,1596.5197325999616,None,,,,,,,,,,,,,,,,,,,,,,,,,,,,,,,,,,,,,,,,,,,,,,,,,,,,,,,,,body,37,70,sing,old,blue,1592.6337064999389,None,y,1592.6337064999389,None,"['y', 'return']","[3.7144197000889108, 3.8505647000856698]",1592.6337064999389,None,,,5,001,2023_Jan_30_1213,ExactRep-v3-final,2021.2.3,59.925919544372796,
,,,,,,,,,,,,70,0,70,0,,,,,,,,,,,,,,,,,,,,,,,,,,,,,,,,,,,,,,,,,,,,,,,,,1598.6385198999196,None,,,,,,,,,,,,,,,,,,,,,,,,,,,,,,,,,,,,,,,,,,,,,,,,,,,,,,,,,corner,218,71,aloud,new,white,1597.0351131999632,None,n,1597.0351131999632,None,"['n', 'return']","[1.4169884999282658, 1.5689103999175131]",1597.0351131999632,None,,,5,001,2023_Jan_30_1213,ExactRep-v3-final,2021.2.3,59.925919544372796,
,,,,,,,,,,,,71,0,71,0,,,,,,,,,,,,,,,,,,,,,,,,,,,,,,,,,,,,,,,,,,,,,,,,,1601.4745635999134,None,,,,,,,,,,,,,,,,,,,,,,,,,,,,,,,,,,,,,,,,,,,,,,,,,,,,,,,,,door,47,72,silent,old,red,1599.1497638999717,None,y,1599.1497638999717,None,"['y', 'return']","[2.1264409000286832, 2.2783531000604853]",1599.1497638999717,None,,,5,001,2023_Jan_30_1213,ExactRep-v3-final,2021.2.3,59.925919544372796,
,,,,,,,,,,,,72,0,72,0,,,,,,,,,,,,,,,,,,,,,,,,,,,,,,,,,,,,,,,,,,,,,,,,,1603.0608416999457,None,,,,,,,,,,,,,,,,,,,,,,,,,,,,,,,,,,,,,,,,,,,,,,,,,,,,,,,,,thought,100,73,aloud,old,white,1601.9819900000002,None,y,1601.9819900000002,None,"['y', 'return']","[0.8700630000093952, 1.0300932000391185]",1601.9819900000002,None,,,5,001,2023_Jan_30_1213,ExactRep-v3-final,2021.2.3,59.925919544372796,
,,,,,,,,,,,,73,0,73,0,,,,,,,,,,,,,,,,,,,,,,,,,,,,,,,,,,,,,,,,,,,,,,,,,1604.6611824999563,None,,,,,,,,,,,,,,,,,,,,,,,,,,,,,,,,,,,,,,,,,,,,,,,,,,,,,,,,,opinion,28,74,sing,old,blue,1603.5653443000047,None,y,1603.5653443000047,None,"['y', 'return']","[0.85475860000588, 1.0627450000029057]",1603.5653443000047,None,,,5,001,2023_Jan_30_1213,ExactRep-v3-final,2021.2.3,59.925919544372796,
,,,,,,,,,,,,74,0,74,0,,,,,,,,,,,,,,,,,,,,,,,,,,,,,,,,,,,,,,,,,,,,,,,,,1606.679928299971,None,,,,,,,,,,,,,,,,,,,,,,,,,,,,,,,,,,,,,,,,,,,,,,,,,,,,,,,,,hope,197,75,sing,new,blue,1605.1626934999367,None,n,1605.1626934999367,None,"['n', 'return']","[1.3693502999376506, 1.4733229998964816]",1605.1626934999367,None,,,5,001,2023_Jan_30_1213,ExactRep-v3-final,2021.2.3,59.925919544372796,
,,,,,,,,,,,,75,0,75,0,,,,,,,,,,,,,,,,,,,,,,,,,,,,,,,,,,,,,,,,,,,,,,,,,1609.0322041999316,None,,,,,,,,,,,,,,,,,,,,,,,,,,,,,,,,,,,,,,,,,,,,,,,,,,,,,,,,,apple,19,76,sing,old,blue,1607.1898919999367,None,n,1607.1898919999367,None,"['n', 'return']","[1.6702265000203624, 1.8067862000316381]",1607.1898919999367,None,,,5,001,2023_Jan_30_1213,ExactRep-v3-final,2021.2.3,59.925919544372796,
,,,,,,,,,,,,76,0,76,0,,,,,,,,,,,,,,,,,,,,,,,,,,,,,,,,,,,,,,,,,,,,,,,,,1610.9509213999845,None,,,,,,,,,,,,,,,,,,,,,,,,,,,,,,,,,,,,,,,,,,,,,,,,,,,,,,,,,wheat,135,77,silent,new,red,1609.5372629999183,None,n,1609.5372629999183,None,"['n', 'return']","[1.250939599936828, 1.3710085999919102]",1609.5372629999183,None,,,5,001,2023_Jan_30_1213,ExactRep-v3-final,2021.2.3,59.925919544372796,
,,,,,,,,,,,,77,0,77,0,,,,,,,,,,,,,,,,,,,,,,,,,,,,,,,,,,,,,,,,,,,,,,,,,1612.3856937999371,None,,,,,,,,,,,,,,,,,,,,,,,,,,,,,,,,,,,,,,,,,,,,,,,,,,,,,,,,,answer,101,78,aloud,old,white,1611.460711899912,None,y,1611.460711899912,None,"['y', 'return']","[0.7275773000437766, 0.8794317999854684]",1611.460711899912,None,,,5,001,2023_Jan_30_1213,ExactRep-v3-final,2021.2.3,59.925919544372796,
,,,,,,,,,,,,78,0,78,0,,,,,,,,,,,,,,,,,,,,,,,,,,,,,,,,,,,,,,,,,,,,,,,,,1614.98817529995,None,,,,,,,,,,,,,,,,,,,,,,,,,,,,,,,,,,,,,,,,,,,,,,,,,,,,,,,,,fun,86,79,aloud,old,white,1612.8899979999987,None,y,1612.8899979999987,None,"['y', 'return']","[1.8980533999856561, 2.0581145000178367]",1612.8899979999987,None,,,5,001,2023_Jan_30_1213,ExactRep-v3-final,2021.2.3,59.925919544372796,
,,,,,,,,,,,,79,0,79,0,,,,,,,,,,,,,,,,,,,,,,,,,,,,,,,,,,,,,,,,,,,,,,,,,1617.5407558999723,None,,,,,,,,,,,,,,,,,,,,,,,,,,,,,,,,,,,,,,,,,,,,,,,,,,,,,,,,,soul,133,80,silent,new,red,1615.4982042999472,None,y,1615.4982042999472,None,"['y', 'return']","[1.8657956999959424, 2.009825100074522]",1615.4982042999472,None,,,5,001,2023_Jan_30_1213,ExactRep-v3-final,2021.2.3,59.925919544372796,
,,,,,,,,,,,,80,0,80,0,,,,,,,,,,,,,,,,,,,,,,,,,,,,,,,,,,,,,,,,,,,,,,,,,1619.6428134999005,None,,,,,,,,,,,,,,,,,,,,,,,,,,,,,,,,,,,,,,,,,,,,,,,,,,,,,,,,,charm,53,81,silent,old,red,1618.0412132999627,None,n,1618.0412132999627,None,"['n', 'return']","[0.9228685999987647, 1.5628688998986036]",1618.0412132999627,None,,,5,001,2023_Jan_30_1213,ExactRep-v3-final,2021.2.3,59.925919544372796,
,,,,,,,,,,,,81,0,81,0,,,,,,,,,,,,,,,,,,,,,,,,,,,,,,,,,,,,,,,,,,,,,,,,,1622.095218100003,None,,,,,,,,,,,,,,,,,,,,,,,,,,,,,,,,,,,,,,,,,,,,,,,,,,,,,,,,,tree,49,82,silent,old,red,1620.1511093999725,None,n,1620.1511093999725,None,"['n', 'return']","[1.79699800000526, 1.9011004000203684]",1620.1511093999725,None,,,5,001,2023_Jan_30_1213,ExactRep-v3-final,2021.2.3,59.925919544372796,
,,,,,,,,,,,,82,0,82,0,,,,,,,,,,,,,,,,,,,,,,,,,,,,,,,,,,,,,,,,,,,,,,,,,1625.94924909994,None,,,,,,,,,,,,,,,,,,,,,,,,,,,,,,,,,,,,,,,,,,,,,,,,,,,,,,,,,avenue,162,83,aloud,new,white,1622.6017847999465,None,n,1622.6017847999465,None,"['n', 'return']","[3.194313499960117, 3.3145808998961]",1622.6017847999465,None,,,5,001,2023_Jan_30_1213,ExactRep-v3-final,2021.2.3,59.925919544372796,
,,,,,,,,,,,,83,0,83,0,,,,,,,,,,,,,,,,,,,,,,,,,,,,,,,,,,,,,,,,,,,,,,,,,1628.4182302999543,None,,,,,,,,,,,,,,,,,,,,,,,,,,,,,,,,,,,,,,,,,,,,,,,,,,,,,,,,,dawn,198,84,aloud,new,white,1626.456566699897,None,y,1626.456566699897,None,"['y', 'return']","[1.7877317999955267, 1.9155484000220895]",1626.456566699897,None,,,5,001,2023_Jan_30_1213,ExactRep-v3-final,2021.2.3,59.925919544372796,
,,,,,,,,,,,,84,0,84,0,,,,,,,,,,,,,,,,,,,,,,,,,,,,,,,,,,,,,,,,,,,,,,,,,1630.4201735999668,None,,,,,,,,,,,,,,,,,,,,,,,,,,,,,,,,,,,,,,,,,,,,,,,,,,,,,,,,,shoes,132,85,silent,new,red,1628.922538899933,None,y,1628.922538899933,None,"['y', 'return']","[1.3295155999949202, 1.4657807000912726]",1628.922538899933,None,,,5,001,2023_Jan_30_1213,ExactRep-v3-final,2021.2.3,59.925919544372796,
,,,,,,,,,,,,85,0,85,0,,,,,,,,,,,,,,,,,,,,,,,,,,,,,,,,,,,,,,,,,,,,,,,,,1634.8246725999052,None,,,,,,,,,,,,,,,,,,,,,,,,,,,,,,,,,,,,,,,,,,,,,,,,,,,,,,,,,tool,169,86,sing,new,blue,1630.9317382998997,None,n,1630.9317382998997,None,"['n', 'return']","[3.7523337999591604, 3.848299599951133]",1630.9317382998997,None,,,5,001,2023_Jan_30_1213,ExactRep-v3-final,2021.2.3,59.925919544372796,
,,,,,,,,,,,,86,0,86,0,,,,,,,,,,,,,,,,,,,,,,,,,,,,,,,,,,,,,,,,,,,,,,,,,1636.426260599983,None,,,,,,,,,,,,,,,,,,,,,,,,,,,,,,,,,,,,,,,,,,,,,,,,,,,,,,,,,shock,16,87,sing,old,blue,1635.326489500003,None,n,1635.326489500003,None,"['n', 'return']","[0.9416360999457538, 1.0617381000192836]",1635.326489500003,None,,,5,001,2023_Jan_30_1213,ExactRep-v3-final,2021.2.3,59.925919544372796,
,,,,,,,,,,,,87,0,87,0,,,,,,,,,,,,,,,,,,,,,,,,,,,,,,,,,,,,,,,,,,,,,,,,,1639.312468899996,None,,,,,,,,,,,,,,,,,,,,,,,,,,,,,,,,,,,,,,,,,,,,,,,,,,,,,,,,,pole,151,88,silent,new,red,1636.9396789999446,None,y,1636.9396789999446,None,"['y', 'return']","[2.0323808999964967, 2.3364463000325486]",1636.9396789999446,None,,,5,001,2023_Jan_30_1213,ExactRep-v3-final,2021.2.3,59.925919544372796,
,,,,,,,,,,,,88,0,88,0,,,,,,,,,,,,,,,,,,,,,,,,,,,,,,,,,,,,,,,,,,,,,,,,,1643.7502189999213,None,,,,,,,,,,,,,,,,,,,,,,,,,,,,,,,,,,,,,,,,,,,,,,,,,,,,,,,,,virtue,6,89,sing,old,blue,1639.8274599999422,None,n,1639.8274599999422,None,"['n', 'return']","[3.7527013999642804, 3.8887929000193253]",1639.8274599999422,None,,,5,001,2023_Jan_30_1213,ExactRep-v3-final,2021.2.3,59.925919544372796,
,,,,,,,,,,,,89,0,89,0,,,,,,,,,,,,,,,,,,,,,,,,,,,,,,,,,,,,,,,,,,,,,,,,,1645.83563649992,None,,,,,,,,,,,,,,,,,,,,,,,,,,,,,,,,,,,,,,,,,,,,,,,,,,,,,,,,,passion,95,90,aloud,old,white,1644.257326999912,None,y,1644.257326999912,None,"['y', 'return']","[1.3547752000158653, 1.5307155000045896]",1644.257326999912,None,,,5,001,2023_Jan_30_1213,ExactRep-v3-final,2021.2.3,59.925919544372796,
,,,,,,,,,,,,90,0,90,0,,,,,,,,,,,,,,,,,,,,,,,,,,,,,,,,,,,,,,,,,,,,,,,,,1647.7375479999464,None,,,,,,,,,,,,,,,,,,,,,,,,,,,,,,,,,,,,,,,,,,,,,,,,,,,,,,,,,metal,73,91,silent,old,red,1646.3443104999606,None,y,1646.3443104999606,None,"['y', 'return']","[1.2120784999569878, 1.3558087999699637]",1646.3443104999606,None,,,5,001,2023_Jan_30_1213,ExactRep-v3-final,2021.2.3,59.925919544372796,
,,,,,,,,,,,,91,0,91,0,,,,,,,,,,,,,,,,,,,,,,,,,,,,,,,,,,,,,,,,,,,,,,,,,1649.206779900007,None,,,,,,,,,,,,,,,,,,,,,,,,,,,,,,,,,,,,,,,,,,,,,,,,,,,,,,,,,journal,59,92,silent,old,red,1648.2467459999025,None,y,1648.2467459999025,None,"['y', 'return']","[0.7734637000830844, 0.9253161000087857]",1648.2467459999025,None,,,5,001,2023_Jan_30_1213,ExactRep-v3-final,2021.2.3,59.925919544372796,
,,,,,,,,,,,,92,0,92,0,,,,,,,,,,,,,,,,,,,,,,,,,,,,,,,,,,,,,,,,,,,,,,,,,1652.3924503999297,None,,,,,,,,,,,,,,,,,,,,,,,,,,,,,,,,,,,,,,,,,,,,,,,,,,,,,,,,,effort,5,93,sing,old,blue,1649.7163406999316,None,y,1649.7163406999316,None,"['y', 'return']","[2.5037388999480754, 2.639741800026968]",1649.7163406999316,None,,,5,001,2023_Jan_30_1213,ExactRep-v3-final,2021.2.3,59.925919544372796,
,,,,,,,,,,,,93,0,93,0,,,,,,,,,,,,,,,,,,,,,,,,,,,,,,,,,,,,,,,,,,,,,,,,,1653.9104064999847,None,,,,,,,,,,,,,,,,,,,,,,,,,,,,,,,,,,,,,,,,,,,,,,,,,,,,,,,,,kiss,34,94,sing,old,blue,1652.8950439000037,None,y,1652.8950439000037,None,"['y', 'return']","[0.8291762999724597, 0.9729955999646336]",1652.8950439000037,None,,,5,001,2023_Jan_30_1213,ExactRep-v3-final,2021.2.3,59.925919544372796,
,,,,,,,,,,,,94,0,94,0,,,,,,,,,,,,,,,,,,,,,,,,,,,,,,,,,,,,,,,,,,,,,,,,,1655.9624373000115,None,,,,,,,,,,,,,,,,,,,,,,,,,,,,,,,,,,,,,,,,,,,,,,,,,,,,,,,,,steam,176,95,aloud,new,white,1654.4156944999704,None,n,1654.4156944999704,None,"['n', 'return']","[1.380318499985151, 1.5083834000397474]",1654.4156944999704,None,,,5,001,2023_Jan_30_1213,ExactRep-v3-final,2021.2.3,59.925919544372796,
,,,,,,,,,,,,95,0,95,0,,,,,,,,,,,,,,,,,,,,,,,,,,,,,,,,,,,,,,,,,,,,,,,,,1657.5642325999215,None,,,,,,,,,,,,,,,,,,,,,,,,,,,,,,,,,,,,,,,,,,,,,,,,,,,,,,,,,factory,7,96,sing,old,blue,1656.4673168999143,None,y,1656.4673168999143,None,"['y', 'return']","[0.9127514999127015, 1.0567891999380663]",1656.4673168999143,None,,,5,001,2023_Jan_30_1213,ExactRep-v3-final,2021.2.3,59.925919544372796,
,,,,,,,,,,,,96,0,96,0,,,,,,,,,,,,,,,,,,,,,,,,,,,,,,,,,,,,,,,,,,,,,,,,,1662.4355903000105,None,,,,,,,,,,,,,,,,,,,,,,,,,,,,,,,,,,,,,,,,,,,,,,,,,,,,,,,,,vision,137,97,silent,new,red,1658.0812302000122,None,n,1658.0812302000122,None,"['n', 'return']","[4.194872799911536, 4.315086400019936]",1658.0812302000122,None,,,5,001,2023_Jan_30_1213,ExactRep-v3-final,2021.2.3,59.925919544372796,
,,,,,,,,,,,,97,0,97,0,,,,,,,,,,,,,,,,,,,,,,,,,,,,,,,,,,,,,,,,,,,,,,,,,1664.637551599997,None,,,,,,,,,,,,,,,,,,,,,,,,,,,,,,,,,,,,,,,,,,,,,,,,,,,,,,,,,silence,41,98,silent,old,red,1662.9452637999784,None,y,1662.9452637999784,None,"['y', 'return']","[1.5068609000882134, 1.6588141000829637]",1662.9452637999784,None,,,5,001,2023_Jan_30_1213,ExactRep-v3-final,2021.2.3,59.925919544372796,
,,,,,,,,,,,,98,0,98,0,,,,,,,,,,,,,,,,,,,,,,,,,,,,,,,,,,,,,,,,,,,,,,,,,1667.3571691999678,None,,,,,,,,,,,,,,,,,,,,,,,,,,,,,,,,,,,,,,,,,,,,,,,,,,,,,,,,,meeting,170,99,aloud,new,white,1665.1486175999744,None,n,1665.1486175999744,None,"['n', 'return']","[2.023387600085698, 2.1754915000637993]",1665.1486175999744,None,,,5,001,2023_Jan_30_1213,ExactRep-v3-final,2021.2.3,59.925919544372796,
,,,,,,,,,,,,99,0,99,0,,,,,,,,,,,,,,,,,,,,,,,,,,,,,,,,,,,,,,,,,,,,,,,,,1670.6275081000058,None,,,,,,,,,,,,,,,,,,,,,,,,,,,,,,,,,,,,,,,,,,,,,,,,,,,,,,,,,wine,157,100,silent,new,red,1667.8668987998972,None,n,1667.8668987998972,None,"['n', 'return']","[2.5772675999905914, 2.72127930005081]",1667.8668987998972,None,,,5,001,2023_Jan_30_1213,ExactRep-v3-final,2021.2.3,59.925919544372796,
,,,,,,,,,,,,100,0,100,0,,,,,,,,,,,,,,,,,,,,,,,,,,,,,,,,,,,,,,,,,,,,,,,,,1672.8793517999584,None,,,,,,,,,,,,,,,,,,,,,,,,,,,,,,,,,,,,,,,,,,,,,,,,,,,,,,,,,brain,66,101,silent,old,red,1671.1309879999608,None,y,1671.1309879999608,None,"['y', 'return']","[1.5131687000393867, 1.7131253000115976]",1671.1309879999608,None,,,5,001,2023_Jan_30_1213,ExactRep-v3-final,2021.2.3,59.925919544372796,
,,,,,,,,,,,,101,0,101,0,,,,,,,,,,,,,,,,,,,,,,,,,,,,,,,,,,,,,,,,,,,,,,,,,1676.9334066999145,None,,,,,,,,,,,,,,,,,,,,,,,,,,,,,,,,,,,,,,,,,,,,,,,,,,,,,,,,,village,180,102,aloud,new,white,1673.392269199947,None,n,1673.392269199947,None,"['n', 'return']","[3.363749000011012, 3.499900500057265]",1673.392269199947,None,,,5,001,2023_Jan_30_1213,ExactRep-v3-final,2021.2.3,59.925919544372796,
,,,,,,,,,,,,102,0,102,0,,,,,,,,,,,,,,,,,,,,,,,,,,,,,,,,,,,,,,,,,,,,,,,,,1678.7185956999892,None,,,,,,,,,,,,,,,,,,,,,,,,,,,,,,,,,,,,,,,,,,,,,,,,,,,,,,,,,crime,3,103,sing,old,blue,1677.444902399904,None,n,1677.444902399904,None,"['n', 'return']","[1.1033413999248296, 1.2314117999048904]",1677.444902399904,None,,,5,001,2023_Jan_30_1213,ExactRep-v3-final,2021.2.3,59.925919544372796,
,,,,,,,,,,,,103,0,103,0,,,,,,,,,,,,,,,,,,,,,,,,,,,,,,,,,,,,,,,,,,,,,,,,,1681.3211833999958,None,,,,,,,,,,,,,,,,,,,,,,,,,,,,,,,,,,,,,,,,,,,,,,,,,,,,,,,,,disease,114,104,aloud,old,white,1679.227488799952,None,y,1679.227488799952,None,"['y', 'return']","[1.8808040999574587, 2.048695500008762]",1679.227488799952,None,,,5,001,2023_Jan_30_1213,ExactRep-v3-final,2021.2.3,59.925919544372796,
,,,,,,,,,,,,104,0,104,0,,,,,,,,,,,,,,,,,,,,,,,,,,,,,,,,,,,,,,,,,,,,,,,,,1685.2417282999959,None,,,,,,,,,,,,,,,,,,,,,,,,,,,,,,,,,,,,,,,,,,,,,,,,,,,,,,,,,temple,48,105,silent,old,red,1681.8279763999162,None,n,1681.8279763999162,None,"['n', 'return']","[3.2881344999186695, 3.3681325999787077]",1681.8279763999162,None,,,5,001,2023_Jan_30_1213,ExactRep-v3-final,2021.2.3,59.925919544372796,
,,,,,,,,,,,,105,0,105,0,,,,,,,,,,,,,,,,,,,,,,,,,,,,,,,,,,,,,,,,,,,,,,,,,1687.410581599921,None,,,,,,,,,,,,,,,,,,,,,,,,,,,,,,,,,,,,,,,,,,,,,,,,,,,,,,,,,hour,51,106,silent,old,red,1685.7474697999423,None,y,1685.7474697999423,None,"['y', 'return']","[1.34478369995486, 1.6166630999650806]",1685.7474697999423,None,,,5,001,2023_Jan_30_1213,ExactRep-v3-final,2021.2.3,59.925919544372796,
,,,,,,,,,,,,106,0,106,0,,,,,,,,,,,,,,,,,,,,,,,,,,,,,,,,,,,,,,,,,,,,,,,,,1691.2143205999164,None,,,,,,,,,,,,,,,,,,,,,,,,,,,,,,,,,,,,,,,,,,,,,,,,,,,,,,,,,garden,153,107,silent,new,red,1687.9218577999854,None,n,1687.9218577999854,None,"['n', 'return']","[3.1221170000499114, 3.2582989000948146]",1687.9218577999854,None,,,5,001,2023_Jan_30_1213,ExactRep-v3-final,2021.2.3,59.925919544372796,
,,,,,,,,,,,,107,0,107,0,,,,,,,,,,,,,,,,,,,,,,,,,,,,,,,,,,,,,,,,,,,,,,,,,1693.1662805000087,None,,,,,,,,,,,,,,,,,,,,,,,,,,,,,,,,,,,,,,,,,,,,,,,,,,,,,,,,,moral,168,108,aloud,new,white,1691.7229096000083,None,n,1691.7229096000083,None,"['n', 'return']","[1.2815263000084087, 1.409415900008753]",1691.7229096000083,None,,,5,001,2023_Jan_30_1213,ExactRep-v3-final,2021.2.3,59.925919544372796,
,,,,,,,,,,,,108,0,108,0,,,,,,,,,,,,,,,,,,,,,,,,,,,,,,,,,,,,,,,,,,,,,,,,,1697.387234899914,None,,,,,,,,,,,,,,,,,,,,,,,,,,,,,,,,,,,,,,,,,,,,,,,,,,,,,,,,,bowl,201,109,sing,new,blue,1693.6776070999913,None,n,1693.6776070999913,None,"['n', 'return']","[3.51857720001135, 3.6705384000670165]",1693.6776070999913,None,,,5,001,2023_Jan_30_1213,ExactRep-v3-final,2021.2.3,59.925919544372796,
,,,,,,,,,,,,109,0,109,0,,,,,,,,,,,,,,,,,,,,,,,,,,,,,,,,,,,,,,,,,,,,,,,,,1698.9231657999335,None,,,,,,,,,,,,,,,,,,,,,,,,,,,,,,,,,,,,,,,,,,,,,,,,,,,,,,,,,square,18,110,sing,old,blue,1697.8964959000004,None,y,1697.8964959000004,None,"['y', 'return']","[0.7796977000543848, 0.9797174000414088]",1697.8964959000004,None,,,5,001,2023_Jan_30_1213,ExactRep-v3-final,2021.2.3,59.925919544372796,
,,,,,,,,,,,,110,0,110,0,,,,,,,,,,,,,,,,,,,,,,,,,,,,,,,,,,,,,,,,,,,,,,,,,1703.343170799897,None,,,,,,,,,,,,,,,,,,,,,,,,,,,,,,,,,,,,,,,,,,,,,,,,,,,,,,,,,skin,9,111,sing,old,blue,1699.4292730999878,None,y,1699.4292730999878,None,"['y', 'return']","[3.703018899890594, 3.8709100999403745]",1699.4292730999878,None,,,5,001,2023_Jan_30_1213,ExactRep-v3-final,2021.2.3,59.925919544372796,
,,,,,,,,,,,,111,0,111,0,,,,,,,,,,,,,,,,,,,,,,,,,,,,,,,,,,,,,,,,,,,,,,,,,1707.8642949999776,None,,,,,,,,,,,,,,,,,,,,,,,,,,,,,,,,,,,,,,,,,,,,,,,,,,,,,,,,,stone,166,112,aloud,new,white,1703.852573000011,None,n,1703.852573000011,None,"['n', 'return']","[3.83960000006482, 3.967511299997568]",1703.852573000011,None,,,5,001,2023_Jan_30_1213,ExactRep-v3-final,2021.2.3,59.925919544372796,
,,,,,,,,,,,,112,0,112,0,,,,,,,,,,,,,,,,,,,,,,,,,,,,,,,,,,,,,,,,,,,,,,,,,1709.7662057999987,None,,,,,,,,,,,,,,,,,,,,,,,,,,,,,,,,,,,,,,,,,,,,,,,,,,,,,,,,,shore,36,113,sing,old,blue,1708.375027699978,None,y,1708.375027699978,None,"['y', 'return']","[1.2210567001020536, 1.3571051000617445]",1708.375027699978,None,,,5,001,2023_Jan_30_1213,ExactRep-v3-final,2021.2.3,59.925919544372796,
,,,,,,,,,,,,113,0,113,0,,,,,,,,,,,,,,,,,,,,,,,,,,,,,,,,,,,,,,,,,,,,,,,,,1711.6347776999464,None,,,,,,,,,,,,,,,,,,,,,,,,,,,,,,,,,,,,,,,,,,,,,,,,,,,,,,,,,money,215,114,sing,new,blue,1710.2819087000098,None,y,1710.2819087000098,None,"['y', 'return']","[1.2181899000424892, 1.306380599969998]",1710.2819087000098,None,,,5,001,2023_Jan_30_1213,ExactRep-v3-final,2021.2.3,59.925919544372796,
,,,,,,,,,,,,114,0,114,0,,,,,,,,,,,,,,,,,,,,,,,,,,,,,,,,,,,,,,,,,,,,,,,,,1714.0538591999793,None,,,,,,,,,,,,,,,,,,,,,,,,,,,,,,,,,,,,,,,,,,,,,,,,,,,,,,,,,mother,139,115,silent,new,red,1712.1439627999207,None,y,1712.1439627999207,None,"['y', 'return']","[1.7243570999708027, 1.8761353000300005]",1712.1439627999207,None,,,5,001,2023_Jan_30_1213,ExactRep-v3-final,2021.2.3,59.925919544372796,
,,,,,,,,,,,,115,0,115,0,,,,,,,,,,,,,,,,,,,,,,,,,,,,,,,,,,,,,,,,,,,,,,,,,1715.6721057000104,None,,,,,,,,,,,,,,,,,,,,,,,,,,,,,,,,,,,,,,,,,,,,,,,,,,,,,,,,,form,55,116,silent,old,red,1714.5706949000014,None,y,1714.5706949000014,None,"['y', 'return']","[0.8733443000819534, 1.0573061000322923]",1714.5706949000014,None,,,5,001,2023_Jan_30_1213,ExactRep-v3-final,2021.2.3,59.925919544372796,
,,,,,,,,,,,,116,0,116,0,,,,,,,,,,,,,,,,,,,,,,,,,,,,,,,,,,,,,,,,,,,,,,,,,1719.1756178999785,None,,,,,,,,,,,,,,,,,,,,,,,,,,,,,,,,,,,,,,,,,,,,,,,,,,,,,,,,,letter,211,117,sing,new,blue,1716.1816845999565,None,y,1716.1816845999565,None,"['y', 'return']","[2.150429999921471, 2.958416000008583]",1716.1816845999565,None,,,5,001,2023_Jan_30_1213,ExactRep-v3-final,2021.2.3,59.925919544372796,
,,,,,,,,,,,,117,0,117,0,,,,,,,,,,,,,,,,,,,,,,,,,,,,,,,,,,,,,,,,,,,,,,,,,1721.2946104999864,None,,,,,,,,,,,,,,,,,,,,,,,,,,,,,,,,,,,,,,,,,,,,,,,,,,,,,,,,,cost,117,118,aloud,old,white,1719.6839203999843,None,y,1719.6839203999843,None,"['y', 'return']","[1.4643180998973548, 1.5762725999811664]",1719.6839203999843,None,,,5,001,2023_Jan_30_1213,ExactRep-v3-final,2021.2.3,59.925919544372796,
,,,,,,,,,,,,118,0,118,0,,,,,,,,,,,,,,,,,,,,,,,,,,,,,,,,,,,,,,,,,,,,,,,,,1723.598022799939,None,,,,,,,,,,,,,,,,,,,,,,,,,,,,,,,,,,,,,,,,,,,,,,,,,,,,,,,,,mercy,149,119,silent,new,red,1721.8037710000062,None,y,1721.8037710000062,None,"['y', 'return']","[1.6003254000097513, 1.7603965000016615]",1721.8037710000062,None,,,5,001,2023_Jan_30_1213,ExactRep-v3-final,2021.2.3,59.925919544372796,
,,,,,,,,,,,,119,0,119,0,,,,,,,,,,,,,,,,,,,,,,,,,,,,,,,,,,,,,,,,,,,,,,,,,1725.315071299905,None,,,,,,,,,,,,,,,,,,,,,,,,,,,,,,,,,,,,,,,,,,,,,,,,,,,,,,,,,seat,75,120,silent,old,red,1724.104102699901,None,y,1724.104102699901,None,"['y', 'return']","[0.7078684000298381, 1.1640322000021115]",1724.104102699901,None,,,5,001,2023_Jan_30_1213,ExactRep-v3-final,2021.2.3,59.925919544372796,
,,,,,,,,,,,,120,0,120,0,,,,,,,,,,,,,,,,,,,,,,,,,,,,,,,,,,,,,,,,,,,,,,,,,1727.1002052999102,None,,,,,,,,,,,,,,,,,,,,,,,,,,,,,,,,,,,,,,,,,,,,,,,,,,,,,,,,,sky,87,121,aloud,old,white,1725.8325615999056,None,y,1725.8325615999056,None,"['y', 'return']","[1.0435828999616206, 1.2196020999690518]",1725.8325615999056,None,,,5,001,2023_Jan_30_1213,ExactRep-v3-final,2021.2.3,59.925919544372796,
,,,,,,,,,,,,121,0,121,0,,,,,,,,,,,,,,,,,,,,,,,,,,,,,,,,,,,,,,,,,,,,,,,,,1728.5694266000064,None,,,,,,,,,,,,,,,,,,,,,,,,,,,,,,,,,,,,,,,,,,,,,,,,,,,,,,,,,beast,144,122,silent,new,red,1727.6098601999693,None,n,1727.6098601999693,None,"['n', 'return']","[0.7622200000332668, 0.914160400046967]",1727.6098601999693,None,,,5,001,2023_Jan_30_1213,ExactRep-v3-final,2021.2.3,59.925919544372796,
,,,,,,,,,,,,122,0,122,0,,,,,,,,,,,,,,,,,,,,,,,,,,,,,,,,,,,,,,,,,,,,,,,,,1730.5537103000097,None,,,,,,,,,,,,,,,,,,,,,,,,,,,,,,,,,,,,,,,,,,,,,,,,,,,,,,,,,city,98,123,aloud,old,white,1729.0701337999199,None,y,1729.0701337999199,None,"['y', 'return']","[1.2859842999605462, 1.438029299955815]",1729.0701337999199,None,,,5,001,2023_Jan_30_1213,ExactRep-v3-final,2021.2.3,59.925919544372796,
,,,,,,,,,,,,123,0,123,0,,,,,,,,,,,,,,,,,,,,,,,,,,,,,,,,,,,,,,,,,,,,,,,,,1734.7078222999116,None,,,,,,,,,,,,,,,,,,,,,,,,,,,,,,,,,,,,,,,,,,,,,,,,,,,,,,,,,wife,234,124,aloud,new,white,1731.0647138999775,None,y,1731.0647138999775,None,"['n', 'backspace', 'y', 'return']","[1.1394083000486717, 3.0675563000841066, 3.299530000076629, 3.595445799990557]",1731.0647138999775,None,,,5,001,2023_Jan_30_1213,ExactRep-v3-final,2021.2.3,59.925919544372796,
,,,,,,,,,,,,124,0,124,0,,,,,,,,,,,,,,,,,,,,,,,,,,,,,,,,,,,,,,,,,,,,,,,,,1736.5763718999224,None,,,,,,,,,,,,,,,,,,,,,,,,,,,,,,,,,,,,,,,,,,,,,,,,,,,,,,,,,salary,223,125,sing,new,blue,1735.2167849999387,None,n,1735.2167849999387,None,"['n', 'return']","[1.1473314999602735, 1.315277799963951]",1735.2167849999387,None,,,5,001,2023_Jan_30_1213,ExactRep-v3-final,2021.2.3,59.925919544372796,
,,,,,,,,,,,,125,0,125,0,,,,,,,,,,,,,,,,,,,,,,,,,,,,,,,,,,,,,,,,,,,,,,,,,1738.8622080999194,None,,,,,,,,,,,,,,,,,,,,,,,,,,,,,,,,,,,,,,,,,,,,,,,,,,,,,,,,,camp,219,126,sing,new,blue,1737.0861764999572,None,n,1737.0861764999572,None,"['n', 'return']","[1.5979203999741003, 1.7418877999298275]",1737.0861764999572,None,,,5,001,2023_Jan_30_1213,ExactRep-v3-final,2021.2.3,59.925919544372796,
,,,,,,,,,,,,126,0,126,0,,,,,,,,,,,,,,,,,,,,,,,,,,,,,,,,,,,,,,,,,,,,,,,,,1740.4135777999181,None,,,,,,,,,,,,,,,,,,,,,,,,,,,,,,,,,,,,,,,,,,,,,,,,,,,,,,,,,author,111,127,aloud,old,white,1739.365245699999,None,y,1739.365245699999,None,"['y', 'return']","[0.8788924000691622, 1.014865200035274]",1739.365245699999,None,,,5,001,2023_Jan_30_1213,ExactRep-v3-final,2021.2.3,59.925919544372796,
,,,,,,,,,,,,127,0,127,0,,,,,,,,,,,,,,,,,,,,,,,,,,,,,,,,,,,,,,,,,,,,,,,,,1741.9650439999532,None,,,,,,,,,,,,,,,,,,,,,,,,,,,,,,,,,,,,,,,,,,,,,,,,,,,,,,,,,ship,119,128,aloud,old,white,1740.9288556999527,None,y,1740.9288556999527,None,"['y', 'return']","[0.8912446999456733, 0.9953364999964833]",1740.9288556999527,None,,,5,001,2023_Jan_30_1213,ExactRep-v3-final,2021.2.3,59.925919544372796,
,,,,,,,,,,,,128,0,128,0,,,,,,,,,,,,,,,,,,,,,,,,,,,,,,,,,,,,,,,,,,,,,,,,,1744.3507824999979,None,,,,,,,,,,,,,,,,,,,,,,,,,,,,,,,,,,,,,,,,,,,,,,,,,,,,,,,,,plain,212,129,aloud,new,white,1742.4755894999253,None,n,1742.4755894999253,None,"['n', 'return']","[1.6964244999689981, 1.8404915999853984]",1742.4755894999253,None,,,5,001,2023_Jan_30_1213,ExactRep-v3-final,2021.2.3,59.925919544372796,
,,,,,,,,,,,,129,0,129,0,,,,,,,,,,,,,,,,,,,,,,,,,,,,,,,,,,,,,,,,,,,,,,,,,1750.7903740999755,None,,,,,,,,,,,,,,,,,,,,,,,,,,,,,,,,,,,,,,,,,,,,,,,,,,,,,,,,,green,1,130,sing,old,blue,1744.8512140999082,None,y,1744.8512140999082,None,"['n', 'backspace', 'y', 'return']","[4.432914900011383, 5.472817300003953, 5.8008631999837235, 5.897078200010583]",1744.8512140999082,None,,,5,001,2023_Jan_30_1213,ExactRep-v3-final,2021.2.3,59.925919544372796,
,,,,,,,,,,,,130,0,130,0,,,,,,,,,,,,,,,,,,,,,,,,,,,,,,,,,,,,,,,,,,,,,,,,,1752.4088143999688,None,,,,,,,,,,,,,,,,,,,,,,,,,,,,,,,,,,,,,,,,,,,,,,,,,,,,,,,,,science,177,131,sing,new,blue,1751.2926776999375,None,n,1751.2926776999375,None,"['n', 'return']","[0.9274388999911025, 1.0714816999388859]",1751.2926776999375,None,,,5,001,2023_Jan_30_1213,ExactRep-v3-final,2021.2.3,59.925919544372796,
