trials_fam.thisRepN,trials_fam.thisTrialN,trials_fam.thisN,trials_fam.thisIndex,trials_prc.thisRepN,trials_prc.thisTrialN,trials_prc.thisN,trials_prc.thisIndex,StudyLoop.thisRepN,StudyLoop.thisTrialN,StudyLoop.thisN,StudyLoop.thisIndex,TestLoop.thisRepN,TestLoop.thisTrialN,TestLoop.thisN,TestLoop.thisIndex,text_colortest.started,text_colortest.stopped,key_colortest.keys,key_colortest.rt,key_colortest.started,key_colortest.stopped,textCondition.started,textCondition.stopped,keyCondition.keys,keyCondition.rt,keyCondition.started,keyCondition.stopped,Condition_between,Condition_counterbal,keyWelcome.keys,keyWelcome.rt,keyWelcome.started,keyWelcome.stopped,welcome_a.started,welcome_a.stopped,welcome_b.started,welcome_b.stopped,welcome_c.started,welcome_c.stopped,welcome_d.started,welcome_d.stopped,welcome_e.started,welcome_e.stopped,welcome_f.started,welcome_f.stopped,key_resp_fam_inst.keys,key_resp_fam_inst.rt,key_resp_fam_inst.started,key_resp_fam_inst.stopped,fam_a.started,fam_a.stopped,fam_b.started,fam_b.stopped,fam_c.started,fam_c.stopped,fam_d.started,fam_d.stopped,fam_e.started,fam_e.stopped,fam_f.started,fam_f.stopped,text_famil.started,text_famil.stopped,textBlank500.started,textBlank500.stopped,key_resp_prc_inst.keys,key_resp_prc_inst.rt,key_resp_prc_inst.started,key_resp_prc_inst.stopped,prac_a.started,prac_a.stopped,prac_b.started,prac_b.stopped,prac_c.started,prac_c.stopped,prac_d.started,prac_d.stopped,prac_e.started,prac_e.stopped,prac_f.started,prac_f.stopped,text_prc_trial.started,text_prc_trial.stopped,key_resp_study_inst.keys,key_resp_study_inst.rt,key_resp_study_inst.started,key_resp_study_inst.stopped,crit_a.started,crit_a.stopped,crit_b.started,crit_b.stopped,crit_c.started,crit_c.stopped,crit_d.started,crit_d.stopped,crit_e.started,crit_e.stopped,crit_f.started,crit_f.stopped,study_word,study_num,study_order,study_type,word_color,textStudy.started,textStudy.stopped,keyStudy.keys,keyStudy.started,keyStudy.stopped,post_study.started,post_study.stopped,key_resp_post_study.keys,key_resp_post_study.rt,key_resp_post_study.started,key_resp_post_study.stopped,test_inst.started,test_inst.stopped,key_resp_test_inst.keys,key_resp_test_inst.rt,key_resp_test_inst.started,key_resp_test_inst.stopped,test_word,test_num,test_order,test_condition,old_new_test,word_color_test,textConf.started,textConf.stopped,Participant Response,textInput.started,textInput.stopped,keyResp.keys,keyResp.rt,keyResp.started,keyResp.stopped,textEnd.started,textEnd.stopped,participant,session,date,expName,psychopyVersion,frameRate,
,,,,,,,,,,,,,,,,20.813153100199997,None,n,0.6227359008044004,20.813153100199997,None,,,,,,,,,,,,,,,,,,,,,,,,,,,,,,,,,,,,,,,,,,,,,,,,,,,,,,,,,,,,,,,,,,,,,,,,,,,,,,,,,,,,,,,,,,,,,,,,,,,,,,,,,,,,,,,,,,,,,,60NF,001,2023_Apr_28_1058,ExactRep-v3-final,2021.2.3,59.97623755491973,
,,,,,,,,,,,,,,,,,,,,,,21.458949900232255,None,f,0.6886582998558879,21.458949900232255,None,,,,,,,,,,,,,,,,,,,,,,,,,,,,,,,,,,,,,,,,,,,,,,,,,,,,,,,,,,,,,,,,,,,,,,,,,,,,,,,,,,,,,,,,,,,,,,,,,,,,,,,,,,,,,,,,60NF,001,2023_Apr_28_1058,ExactRep-v3-final,2021.2.3,59.97623755491973,
,,,,,,,,,,,,,,,,,,,,,,,,,,,,whitefoils,f,space,2016.375143200159,32.28658960014582,None,,,,,,,,,,,,,,,,,,,,,,,,,,,,,,,,,,,,,,,,,,,,,,,,,,,,,,,,,,,,,,,,,,,,,,,,,,,,,,,,,,,,,,,,,,,,,,,,,,,,,,,,,,60NF,001,2023_Apr_28_1058,ExactRep-v3-final,2021.2.3,59.97623755491973,
,,,,,,,,,,,,,,,,,,,,,,,,,,,,,,,,,,22.315099600702524,None,22.315099600702524,None,22.315099600702524,None,22.315099600702524,None,22.315099600702524,None,22.315099600702524,None,space,23.149482000619173,2058.9442204004154,None,,,,,,,,,,,,,,,,,,,,,,,,,,,,,,,,,,,,,,,,,,,,,,,,,,,,,,,,,,,,,,,,,,,,,,,,,,,,,,,,,,,,,,,,,,60NF,001,2023_Apr_28_1058,ExactRep-v3-final,2021.2.3,59.97623755491973,
0,0,0,0,,,,,,,,,,,,,,,,,,,,,,,,,,,,,,,,,,,,,,,,,,,,,,,2048.9420374007896,None,2048.9420374007896,None,2048.9420374007896,None,2048.9420374007896,None,2048.9420374007896,None,2048.9420374007896,None,2082.2167014004663,None,2084.2063675001264,None,,,,,,,,,,,,,,,,,,,,,,,,,,,,,,,,,,,,,,,,,,,,,,,,,,,,,,,,,,,,,,,,,,,,,,,,,,60NF,001,2023_Apr_28_1058,ExactRep-v3-final,2021.2.3,59.97623755491973,
1,0,1,0,,,,,,,,,,,,,,,,,,,,,,,,,,,,,,,,,,,,,,,,,,,,,,,,,,,,,,,,,,,2084.706624600105,None,2086.708689900115,None,,,,,,,,,,,,,,,,,,,,,,,,,,,,,,,,,,,,,,,,,,,,,,,,,,,,,,,,,,,,,,,,,,,,,,,,,,60NF,001,2023_Apr_28_1058,ExactRep-v3-final,2021.2.3,59.97623755491973,
2,0,2,0,,,,,,,,,,,,,,,,,,,,,,,,,,,,,,,,,,,,,,,,,,,,,,,,,,,,,,,,,,,2087.2186831003055,None,2089.2280500000343,None,,,,,,,,,,,,,,,,,,,,,,,,,,,,,,,,,,,,,,,,,,,,,,,,,,,,,,,,,,,,,,,,,,,,,,,,,,60NF,001,2023_Apr_28_1058,ExactRep-v3-final,2021.2.3,59.97623755491973,
3,0,3,0,,,,,,,,,,,,,,,,,,,,,,,,,,,,,,,,,,,,,,,,,,,,,,,,,,,,,,,,,,,2089.7315391004086,None,2091.7470525000244,None,,,,,,,,,,,,,,,,,,,,,,,,,,,,,,,,,,,,,,,,,,,,,,,,,,,,,,,,,,,,,,,,,,,,,,,,,,60NF,001,2023_Apr_28_1058,ExactRep-v3-final,2021.2.3,59.97623755491973,
4,0,4,0,,,,,,,,,,,,,,,,,,,,,,,,,,,,,,,,,,,,,,,,,,,,,,,,,,,,,,,,,,,2092.254773600027,None,2094.2664688006043,None,,,,,,,,,,,,,,,,,,,,,,,,,,,,,,,,,,,,,,,,,,,,,,,,,,,,,,,,,,,,,,,,,,,,,,,,,,60NF,001,2023_Apr_28_1058,ExactRep-v3-final,2021.2.3,59.97623755491973,
5,0,5,0,,,,,,,,,,,,,,,,,,,,,,,,,,,,,,,,,,,,,,,,,,,,,,,,,,,,,,,,,,,2094.767001000233,None,2096.7690571006387,None,,,,,,,,,,,,,,,,,,,,,,,,,,,,,,,,,,,,,,,,,,,,,,,,,,,,,,,,,,,,,,,,,,,,,,,,,,60NF,001,2023_Apr_28_1058,ExactRep-v3-final,2021.2.3,59.97623755491973,
6,0,6,0,,,,,,,,,,,,,,,,,,,,,,,,,,,,,,,,,,,,,,,,,,,,,,,,,,,,,,,,,,,2097.269640000537,None,2099.2712187003344,None,,,,,,,,,,,,,,,,,,,,,,,,,,,,,,,,,,,,,,,,,,,,,,,,,,,,,,,,,,,,,,,,,,,,,,,,,,60NF,001,2023_Apr_28_1058,ExactRep-v3-final,2021.2.3,59.97623755491973,
7,0,7,0,,,,,,,,,,,,,,,,,,,,,,,,,,,,,,,,,,,,,,,,,,,,,,,,,,,,,,,,,,,2099.7757798004895,None,2101.790600400418,None,,,,,,,,,,,,,,,,,,,,,,,,,,,,,,,,,,,,,,,,,,,,,,,,,,,,,,,,,,,,,,,,,,,,,,,,,,60NF,001,2023_Apr_28_1058,ExactRep-v3-final,2021.2.3,59.97623755491973,
8,0,8,0,,,,,,,,,,,,,,,,,,,,,,,,,,,,,,,,,,,,,,,,,,,,,,,,,,,,,,,,,,,2102.294503200799,None,2104.3100214004517,None,,,,,,,,,,,,,,,,,,,,,,,,,,,,,,,,,,,,,,,,,,,,,,,,,,,,,,,,,,,,,,,,,,,,,,,,,,60NF,001,2023_Apr_28_1058,ExactRep-v3-final,2021.2.3,59.97623755491973,
9,0,9,0,,,,,,,,,,,,,,,,,,,,,,,,,,,,,,,,,,,,,,,,,,,,,,,,,,,,,,,,,,,2104.810344800353,None,2106.8123319000006,None,,,,,,,,,,,,,,,,,,,,,,,,,,,,,,,,,,,,,,,,,,,,,,,,,,,,,,,,,,,,,,,,,,,,,,,,,,60NF,001,2023_Apr_28_1058,ExactRep-v3-final,2021.2.3,59.97623755491973,
10,0,10,0,,,,,,,,,,,,,,,,,,,,,,,,,,,,,,,,,,,,,,,,,,,,,,,,,,,,,,,,,,,2107.3144739000127,None,2109.315051100217,None,,,,,,,,,,,,,,,,,,,,,,,,,,,,,,,,,,,,,,,,,,,,,,,,,,,,,,,,,,,,,,,,,,,,,,,,,,60NF,001,2023_Apr_28_1058,ExactRep-v3-final,2021.2.3,59.97623755491973,
11,0,11,0,,,,,,,,,,,,,,,,,,,,,,,,,,,,,,,,,,,,,,,,,,,,,,,,,,,,,,,,,,,2109.817521100864,None,2111.8173353001475,None,,,,,,,,,,,,,,,,,,,,,,,,,,,,,,,,,,,,,,,,,,,,,,,,,,,,,,,,,,,,,,,,,,,,,,,,,,60NF,001,2023_Apr_28_1058,ExactRep-v3-final,2021.2.3,59.97623755491973,
12,0,12,0,,,,,,,,,,,,,,,,,,,,,,,,,,,,,,,,,,,,,,,,,,,,,,,,,,,,,,,,,,,2112.317899200134,None,2114.3196815000847,None,,,,,,,,,,,,,,,,,,,,,,,,,,,,,,,,,,,,,,,,,,,,,,,,,,,,,,,,,,,,,,,,,,,,,,,,,,60NF,001,2023_Apr_28_1058,ExactRep-v3-final,2021.2.3,59.97623755491973,
13,0,13,0,,,,,,,,,,,,,,,,,,,,,,,,,,,,,,,,,,,,,,,,,,,,,,,,,,,,,,,,,,,2114.820201500319,None,2116.8222068008035,None,,,,,,,,,,,,,,,,,,,,,,,,,,,,,,,,,,,,,,,,,,,,,,,,,,,,,,,,,,,,,,,,,,,,,,,,,,60NF,001,2023_Apr_28_1058,ExactRep-v3-final,2021.2.3,59.97623755491973,
14,0,14,0,,,,,,,,,,,,,,,,,,,,,,,,,,,,,,,,,,,,,,,,,,,,,,,,,,,,,,,,,,,2117.3268867004663,None,2119.3413300001994,None,,,,,,,,,,,,,,,,,,,,,,,,,,,,,,,,,,,,,,,,,,,,,,,,,,,,,,,,,,,,,,,,,,,,,,,,,,60NF,001,2023_Apr_28_1058,ExactRep-v3-final,2021.2.3,59.97623755491973,
,,,,,,,,,,,,,,,,,,,,,,,,,,,,,,,,,,,,,,,,,,,,,,,,,,,,,,,,,,,,,,,,,,space,20.691306199878454,2130.0264526000246,None,,,,,,,,,,,,,,,,,,,,,,,,,,,,,,,,,,,,,,,,,,,,,,,,,,,,,,,,,,,,,,,,,,,,,,60NF,001,2023_Apr_28_1058,ExactRep-v3-final,2021.2.3,59.97623755491973,
,,,,0,0,0,0,,,,,,,,,,,,,,,,,,,,,,,,,,,,,,,,,,,,,,,,,,,,,,,,,,,,,,,,,2152.8416563002393,None,,,,,2120.0251229004934,None,2120.0251229004934,None,2120.0251229004934,None,2120.0251229004934,None,2120.0251229004934,None,2120.0251229004934,None,2150.8262512004003,None,,,,,,,,,,,,,,,,,,,,,,,,,,,,,,,,,,,,,,,,,,,,,,,,,,,,,,,,60NF,001,2023_Apr_28_1058,ExactRep-v3-final,2021.2.3,59.97623755491973,
,,,,1,0,1,0,,,,,,,,,,,,,,,,,,,,,,,,,,,,,,,,,,,,,,,,,,,,,,,,,,,,,,,,,2155.344150000252,None,,,,,,,,,,,,,,,,,2153.342166000046,None,,,,,,,,,,,,,,,,,,,,,,,,,,,,,,,,,,,,,,,,,,,,,,,,,,,,,,,,60NF,001,2023_Apr_28_1058,ExactRep-v3-final,2021.2.3,59.97623755491973,
,,,,2,0,2,0,,,,,,,,,,,,,,,,,,,,,,,,,,,,,,,,,,,,,,,,,,,,,,,,,,,,,,,,,2157.8466626005247,None,,,,,,,,,,,,,,,,,2155.8447149004787,None,,,,,,,,,,,,,,,,,,,,,,,,,,,,,,,,,,,,,,,,,,,,,,,,,,,,,,,,60NF,001,2023_Apr_28_1058,ExactRep-v3-final,2021.2.3,59.97623755491973,
,,,,3,0,3,0,,,,,,,,,,,,,,,,,,,,,,,,,,,,,,,,,,,,,,,,,,,,,,,,,,,,,,,,,2160.349404000677,None,,,,,,,,,,,,,,,,,2158.347412100062,None,,,,,,,,,,,,,,,,,,,,,,,,,,,,,,,,,,,,,,,,,,,,,,,,,,,,,,,,60NF,001,2023_Apr_28_1058,ExactRep-v3-final,2021.2.3,59.97623755491973,
,,,,4,0,4,0,,,,,,,,,,,,,,,,,,,,,,,,,,,,,,,,,,,,,,,,,,,,,,,,,,,,,,,,,2162.8517367001623,None,,,,,,,,,,,,,,,,,2160.8497222000733,None,,,,,,,,,,,,,,,,,,,,,,,,,,,,,,,,,,,,,,,,,,,,,,,,,,,,,,,,60NF,001,2023_Apr_28_1058,ExactRep-v3-final,2021.2.3,59.97623755491973,
,,,,5,0,5,0,,,,,,,,,,,,,,,,,,,,,,,,,,,,,,,,,,,,,,,,,,,,,,,,,,,,,,,,,2165.3538578003645,None,,,,,,,,,,,,,,,,,2163.3522624000907,None,,,,,,,,,,,,,,,,,,,,,,,,,,,,,,,,,,,,,,,,,,,,,,,,,,,,,,,,60NF,001,2023_Apr_28_1058,ExactRep-v3-final,2021.2.3,59.97623755491973,
,,,,6,0,6,0,,,,,,,,,,,,,,,,,,,,,,,,,,,,,,,,,,,,,,,,,,,,,,,,,,,,,,,,,2167.856878500432,None,,,,,,,,,,,,,,,,,2165.8547891005874,None,,,,,,,,,,,,,,,,,,,,,,,,,,,,,,,,,,,,,,,,,,,,,,,,,,,,,,,,60NF,001,2023_Apr_28_1058,ExactRep-v3-final,2021.2.3,59.97623755491973,
,,,,7,0,7,0,,,,,,,,,,,,,,,,,,,,,,,,,,,,,,,,,,,,,,,,,,,,,,,,,,,,,,,,,2170.359180200845,None,,,,,,,,,,,,,,,,,2168.3572040004656,None,,,,,,,,,,,,,,,,,,,,,,,,,,,,,,,,,,,,,,,,,,,,,,,,,,,,,,,,60NF,001,2023_Apr_28_1058,ExactRep-v3-final,2021.2.3,59.97623755491973,
,,,,8,0,8,0,,,,,,,,,,,,,,,,,,,,,,,,,,,,,,,,,,,,,,,,,,,,,,,,,,,,,,,,,2172.8617517007515,None,,,,,,,,,,,,,,,,,2170.8597192000598,None,,,,,,,,,,,,,,,,,,,,,,,,,,,,,,,,,,,,,,,,,,,,,,,,,,,,,,,,60NF,001,2023_Apr_28_1058,ExactRep-v3-final,2021.2.3,59.97623755491973,
,,,,9,0,9,0,,,,,,,,,,,,,,,,,,,,,,,,,,,,,,,,,,,,,,,,,,,,,,,,,,,,,,,,,2175.3643725002185,None,,,,,,,,,,,,,,,,,2173.362450300716,None,,,,,,,,,,,,,,,,,,,,,,,,,,,,,,,,,,,,,,,,,,,,,,,,,,,,,,,,60NF,001,2023_Apr_28_1058,ExactRep-v3-final,2021.2.3,59.97623755491973,
,,,,10,0,10,0,,,,,,,,,,,,,,,,,,,,,,,,,,,,,,,,,,,,,,,,,,,,,,,,,,,,,,,,,2177.8668732000515,None,,,,,,,,,,,,,,,,,2175.864904200658,None,,,,,,,,,,,,,,,,,,,,,,,,,,,,,,,,,,,,,,,,,,,,,,,,,,,,,,,,60NF,001,2023_Apr_28_1058,ExactRep-v3-final,2021.2.3,59.97623755491973,
,,,,11,0,11,0,,,,,,,,,,,,,,,,,,,,,,,,,,,,,,,,,,,,,,,,,,,,,,,,,,,,,,,,,2180.3688858002424,None,,,,,,,,,,,,,,,,,2178.3673982005566,None,,,,,,,,,,,,,,,,,,,,,,,,,,,,,,,,,,,,,,,,,,,,,,,,,,,,,,,,60NF,001,2023_Apr_28_1058,ExactRep-v3-final,2021.2.3,59.97623755491973,
,,,,12,0,12,0,,,,,,,,,,,,,,,,,,,,,,,,,,,,,,,,,,,,,,,,,,,,,,,,,,,,,,,,,2182.871723900549,None,,,,,,,,,,,,,,,,,2180.8696111002937,None,,,,,,,,,,,,,,,,,,,,,,,,,,,,,,,,,,,,,,,,,,,,,,,,,,,,,,,,60NF,001,2023_Apr_28_1058,ExactRep-v3-final,2021.2.3,59.97623755491973,
,,,,13,0,13,0,,,,,,,,,,,,,,,,,,,,,,,,,,,,,,,,,,,,,,,,,,,,,,,,,,,,,,,,,2185.3742717001587,None,,,,,,,,,,,,,,,,,2183.372223000042,None,,,,,,,,,,,,,,,,,,,,,,,,,,,,,,,,,,,,,,,,,,,,,,,,,,,,,,,,60NF,001,2023_Apr_28_1058,ExactRep-v3-final,2021.2.3,59.97623755491973,
,,,,14,0,14,0,,,,,,,,,,,,,,,,,,,,,,,,,,,,,,,,,,,,,,,,,,,,,,,,,,,,,,,,,2187.8765716003254,None,,,,,,,,,,,,,,,,,2185.8749149003997,None,,,,,,,,,,,,,,,,,,,,,,,,,,,,,,,,,,,,,,,,,,,,,,,,,,,,,,,,60NF,001,2023_Apr_28_1058,ExactRep-v3-final,2021.2.3,59.97623755491973,
,,,,,,,,,,,,,,,,,,,,,,,,,,,,,,,,,,,,,,,,,,,,,,,,,,,,,,,,,,,,,,,,,,,,,,,,,,,,,,,,,,,,space,19.841684100218117,2198.5321468003094,None,,,,,,,,,,,,,,,,,,,,,,,,,,,,,,,,,,,,,,,,,,,,,,,,,,,,60NF,001,2023_Apr_28_1058,ExactRep-v3-final,2021.2.3,59.97623755491973,
,,,,,,,,0,0,0,0,,,,,,,,,,,,,,,,,,,,,,,,,,,,,,,,,,,,,,,,,,,,,,,,,,,,,2220.476883600466,None,,,,,,,,,,,,,,,,,,,,,,,2188.582676800899,None,2188.582676800899,None,2188.582676800899,None,2188.582676800899,None,2188.582676800899,None,2188.582676800899,None,rock,28,1,sing,red,2218.4728394001722,None,None,2218.4728394001722,None,,,,,,,,,,,,,,,,,,,,,,,,,,,,,,60NF,001,2023_Apr_28_1058,ExactRep-v3-final,2021.2.3,59.97623755491973,
,,,,,,,,1,0,1,0,,,,,,,,,,,,,,,,,,,,,,,,,,,,,,,,,,,,,,,,,,,,,,,,,,,,,2222.9952022004873,None,,,,,,,,,,,,,,,,,,,,,,,,,,,,,,,,,,,pole,117,2,aloud,white,2220.9798860000446,None,None,2220.9798860000446,None,,,,,,,,,,,,,,,,,,,,,,,,,,,,,,60NF,001,2023_Apr_28_1058,ExactRep-v3-final,2021.2.3,59.97623755491973,
,,,,,,,,2,0,2,0,,,,,,,,,,,,,,,,,,,,,,,,,,,,,,,,,,,,,,,,,,,,,,,,,,,,,2225.497512000613,None,,,,,,,,,,,,,,,,,,,,,,,,,,,,,,,,,,,doctor,29,3,sing,red,2223.496990600601,None,None,2223.496990600601,None,,,,,,,,,,,,,,,,,,,,,,,,,,,,,,60NF,001,2023_Apr_28_1058,ExactRep-v3-final,2021.2.3,59.97623755491973,
,,,,,,,,3,0,3,0,,,,,,,,,,,,,,,,,,,,,,,,,,,,,,,,,,,,,,,,,,,,,,,,,,,,,2228.0170611003414,None,,,,,,,,,,,,,,,,,,,,,,,,,,,,,,,,,,,river,65,4,silent,blue,2226.007435500622,None,None,2226.007435500622,None,,,,,,,,,,,,,,,,,,,,,,,,,,,,,,60NF,001,2023_Apr_28_1058,ExactRep-v3-final,2021.2.3,59.97623755491973,
,,,,,,,,4,0,4,0,,,,,,,,,,,,,,,,,,,,,,,,,,,,,,,,,,,,,,,,,,,,,,,,,,,,,2230.5194252002984,None,,,,,,,,,,,,,,,,,,,,,,,,,,,,,,,,,,,cotton,49,5,silent,blue,2228.5174212008715,None,None,2228.5174212008715,None,,,,,,,,,,,,,,,,,,,,,,,,,,,,,,60NF,001,2023_Apr_28_1058,ExactRep-v3-final,2021.2.3,59.97623755491973,
,,,,,,,,5,0,5,0,,,,,,,,,,,,,,,,,,,,,,,,,,,,,,,,,,,,,,,,,,,,,,,,,,,,,2233.021787600592,None,,,,,,,,,,,,,,,,,,,,,,,,,,,,,,,,,,,justice,59,6,silent,blue,2231.022714100778,None,None,2231.022714100778,None,,,,,,,,,,,,,,,,,,,,,,,,,,,,,,60NF,001,2023_Apr_28_1058,ExactRep-v3-final,2021.2.3,59.97623755491973,
,,,,,,,,6,0,6,0,,,,,,,,,,,,,,,,,,,,,,,,,,,,,,,,,,,,,,,,,,,,,,,,,,,,,2235.524247300811,None,,,,,,,,,,,,,,,,,,,,,,,,,,,,,,,,,,,series,42,7,silent,blue,2233.5222771000117,None,None,2233.5222771000117,None,,,,,,,,,,,,,,,,,,,,,,,,,,,,,,60NF,001,2023_Apr_28_1058,ExactRep-v3-final,2021.2.3,59.97623755491973,
,,,,,,,,7,0,7,0,,,,,,,,,,,,,,,,,,,,,,,,,,,,,,,,,,,,,,,,,,,,,,,,,,,,,2238.026551700197,None,,,,,,,,,,,,,,,,,,,,,,,,,,,,,,,,,,,doll,103,8,aloud,white,2236.0248763002455,None,None,2236.0248763002455,None,,,,,,,,,,,,,,,,,,,,,,,,,,,,,,60NF,001,2023_Apr_28_1058,ExactRep-v3-final,2021.2.3,59.97623755491973,
,,,,,,,,8,0,8,0,,,,,,,,,,,,,,,,,,,,,,,,,,,,,,,,,,,,,,,,,,,,,,,,,,,,,2240.545664000325,None,,,,,,,,,,,,,,,,,,,,,,,,,,,,,,,,,,,spirit,17,9,sing,red,2238.5358236003667,None,None,2238.5358236003667,None,,,,,,,,,,,,,,,,,,,,,,,,,,,,,,60NF,001,2023_Apr_28_1058,ExactRep-v3-final,2021.2.3,59.97623755491973,
,,,,,,,,9,0,9,0,,,,,,,,,,,,,,,,,,,,,,,,,,,,,,,,,,,,,,,,,,,,,,,,,,,,,2243.048252400011,None,,,,,,,,,,,,,,,,,,,,,,,,,,,,,,,,,,,picture,7,10,sing,red,2241.0464329002425,None,None,2241.0464329002425,None,,,,,,,,,,,,,,,,,,,,,,,,,,,,,,60NF,001,2023_Apr_28_1058,ExactRep-v3-final,2021.2.3,59.97623755491973,
,,,,,,,,10,0,10,0,,,,,,,,,,,,,,,,,,,,,,,,,,,,,,,,,,,,,,,,,,,,,,,,,,,,,2245.5509393000975,None,,,,,,,,,,,,,,,,,,,,,,,,,,,,,,,,,,,clock,37,11,sing,red,2243.5489128008485,None,None,2243.5489128008485,None,,,,,,,,,,,,,,,,,,,,,,,,,,,,,,60NF,001,2023_Apr_28_1058,ExactRep-v3-final,2021.2.3,59.97623755491973,
,,,,,,,,11,0,11,0,,,,,,,,,,,,,,,,,,,,,,,,,,,,,,,,,,,,,,,,,,,,,,,,,,,,,2248.0534274000674,None,,,,,,,,,,,,,,,,,,,,,,,,,,,,,,,,,,,dress,33,12,sing,red,2246.0512079000473,None,None,2246.0512079000473,None,,,,,,,,,,,,,,,,,,,,,,,,,,,,,,60NF,001,2023_Apr_28_1058,ExactRep-v3-final,2021.2.3,59.97623755491973,
,,,,,,,,12,0,12,0,,,,,,,,,,,,,,,,,,,,,,,,,,,,,,,,,,,,,,,,,,,,,,,,,,,,,2250.5724621005356,None,,,,,,,,,,,,,,,,,,,,,,,,,,,,,,,,,,,leader,104,13,aloud,white,2248.55709150061,None,None,2248.55709150061,None,,,,,,,,,,,,,,,,,,,,,,,,,,,,,,60NF,001,2023_Apr_28_1058,ExactRep-v3-final,2021.2.3,59.97623755491973,
,,,,,,,,13,0,13,0,,,,,,,,,,,,,,,,,,,,,,,,,,,,,,,,,,,,,,,,,,,,,,,,,,,,,2253.0917555000633,None,,,,,,,,,,,,,,,,,,,,,,,,,,,,,,,,,,,silence,92,14,aloud,white,2251.077004100196,None,None,2251.077004100196,None,,,,,,,,,,,,,,,,,,,,,,,,,,,,,,60NF,001,2023_Apr_28_1058,ExactRep-v3-final,2021.2.3,59.97623755491973,
,,,,,,,,14,0,14,0,,,,,,,,,,,,,,,,,,,,,,,,,,,,,,,,,,,,,,,,,,,,,,,,,,,,,2255.5943247005343,None,,,,,,,,,,,,,,,,,,,,,,,,,,,,,,,,,,,rod,99,15,aloud,white,2253.592441100627,None,None,2253.592441100627,None,,,,,,,,,,,,,,,,,,,,,,,,,,,,,,60NF,001,2023_Apr_28_1058,ExactRep-v3-final,2021.2.3,59.97623755491973,
,,,,,,,,15,0,15,0,,,,,,,,,,,,,,,,,,,,,,,,,,,,,,,,,,,,,,,,,,,,,,,,,,,,,2258.1136508006603,None,,,,,,,,,,,,,,,,,,,,,,,,,,,,,,,,,,,factory,43,16,silent,blue,2256.101903900504,None,None,2256.101903900504,None,,,,,,,,,,,,,,,,,,,,,,,,,,,,,,60NF,001,2023_Apr_28_1058,ExactRep-v3-final,2021.2.3,59.97623755491973,
,,,,,,,,16,0,16,0,,,,,,,,,,,,,,,,,,,,,,,,,,,,,,,,,,,,,,,,,,,,,,,,,,,,,2260.61602400057,None,,,,,,,,,,,,,,,,,,,,,,,,,,,,,,,,,,,party,86,17,aloud,white,2258.6141606001183,None,None,2258.6141606001183,None,,,,,,,,,,,,,,,,,,,,,,,,,,,,,,60NF,001,2023_Apr_28_1058,ExactRep-v3-final,2021.2.3,59.97623755491973,
,,,,,,,,17,0,17,0,,,,,,,,,,,,,,,,,,,,,,,,,,,,,,,,,,,,,,,,,,,,,,,,,,,,,2263.118559400551,None,,,,,,,,,,,,,,,,,,,,,,,,,,,,,,,,,,,potato,51,18,silent,blue,2261.116403700784,None,None,2261.116403700784,None,,,,,,,,,,,,,,,,,,,,,,,,,,,,,,60NF,001,2023_Apr_28_1058,ExactRep-v3-final,2021.2.3,59.97623755491973,
,,,,,,,,18,0,18,0,,,,,,,,,,,,,,,,,,,,,,,,,,,,,,,,,,,,,,,,,,,,,,,,,,,,,2265.621113100089,None,,,,,,,,,,,,,,,,,,,,,,,,,,,,,,,,,,,queen,78,19,silent,blue,2263.6208387007937,None,None,2263.6208387007937,None,,,,,,,,,,,,,,,,,,,,,,,,,,,,,,60NF,001,2023_Apr_28_1058,ExactRep-v3-final,2021.2.3,59.97623755491973,
,,,,,,,,19,0,19,0,,,,,,,,,,,,,,,,,,,,,,,,,,,,,,,,,,,,,,,,,,,,,,,,,,,,,2268.1403528004885,None,,,,,,,,,,,,,,,,,,,,,,,,,,,,,,,,,,,humour,21,20,sing,red,2266.1261121006683,None,None,2266.1261121006683,None,,,,,,,,,,,,,,,,,,,,,,,,,,,,,,60NF,001,2023_Apr_28_1058,ExactRep-v3-final,2021.2.3,59.97623755491973,
,,,,,,,,20,0,20,0,,,,,,,,,,,,,,,,,,,,,,,,,,,,,,,,,,,,,,,,,,,,,,,,,,,,,2270.6443326007575,None,,,,,,,,,,,,,,,,,,,,,,,,,,,,,,,,,,,circle,87,21,aloud,white,2268.643153300509,None,None,2268.643153300509,None,,,,,,,,,,,,,,,,,,,,,,,,,,,,,,60NF,001,2023_Apr_28_1058,ExactRep-v3-final,2021.2.3,59.97623755491973,
,,,,,,,,21,0,21,0,,,,,,,,,,,,,,,,,,,,,,,,,,,,,,,,,,,,,,,,,,,,,,,,,,,,,2273.162140400149,None,,,,,,,,,,,,,,,,,,,,,,,,,,,,,,,,,,,present,113,22,aloud,white,2271.1600153008476,None,None,2271.1600153008476,None,,,,,,,,,,,,,,,,,,,,,,,,,,,,,,60NF,001,2023_Apr_28_1058,ExactRep-v3-final,2021.2.3,59.97623755491973,
,,,,,,,,22,0,22,0,,,,,,,,,,,,,,,,,,,,,,,,,,,,,,,,,,,,,,,,,,,,,,,,,,,,,2275.68109070044,None,,,,,,,,,,,,,,,,,,,,,,,,,,,,,,,,,,,mind,13,23,sing,red,2273.671201400459,None,None,2273.671201400459,None,,,,,,,,,,,,,,,,,,,,,,,,,,,,,,60NF,001,2023_Apr_28_1058,ExactRep-v3-final,2021.2.3,59.97623755491973,
,,,,,,,,23,0,23,0,,,,,,,,,,,,,,,,,,,,,,,,,,,,,,,,,,,,,,,,,,,,,,,,,,,,,2278.1835245005786,None,,,,,,,,,,,,,,,,,,,,,,,,,,,,,,,,,,,house,22,24,sing,red,2276.181542600505,None,None,2276.181542600505,None,,,,,,,,,,,,,,,,,,,,,,,,,,,,,,60NF,001,2023_Apr_28_1058,ExactRep-v3-final,2021.2.3,59.97623755491973,
,,,,,,,,24,0,24,0,,,,,,,,,,,,,,,,,,,,,,,,,,,,,,,,,,,,,,,,,,,,,,,,,,,,,2280.7025681007653,None,,,,,,,,,,,,,,,,,,,,,,,,,,,,,,,,,,,body,36,25,sing,red,2278.6881348006427,None,None,2278.6881348006427,None,,,,,,,,,,,,,,,,,,,,,,,,,,,,,,60NF,001,2023_Apr_28_1058,ExactRep-v3-final,2021.2.3,59.97623755491973,
,,,,,,,,25,0,25,0,,,,,,,,,,,,,,,,,,,,,,,,,,,,,,,,,,,,,,,,,,,,,,,,,,,,,2283.2054123003036,None,,,,,,,,,,,,,,,,,,,,,,,,,,,,,,,,,,,trouble,71,26,silent,blue,2281.2035413002595,None,None,2281.2035413002595,None,,,,,,,,,,,,,,,,,,,,,,,,,,,,,,60NF,001,2023_Apr_28_1058,ExactRep-v3-final,2021.2.3,59.97623755491973,
,,,,,,,,26,0,26,0,,,,,,,,,,,,,,,,,,,,,,,,,,,,,,,,,,,,,,,,,,,,,,,,,,,,,2285.707721600309,None,,,,,,,,,,,,,,,,,,,,,,,,,,,,,,,,,,,air,82,27,aloud,white,2283.707776900381,None,None,2283.707776900381,None,,,,,,,,,,,,,,,,,,,,,,,,,,,,,,60NF,001,2023_Apr_28_1058,ExactRep-v3-final,2021.2.3,59.97623755491973,
,,,,,,,,27,0,27,0,,,,,,,,,,,,,,,,,,,,,,,,,,,,,,,,,,,,,,,,,,,,,,,,,,,,,2288.2270739004016,None,,,,,,,,,,,,,,,,,,,,,,,,,,,,,,,,,,,market,53,28,silent,blue,2286.212135100737,None,None,2286.212135100737,None,,,,,,,,,,,,,,,,,,,,,,,,,,,,,,60NF,001,2023_Apr_28_1058,ExactRep-v3-final,2021.2.3,59.97623755491973,
,,,,,,,,28,0,28,0,,,,,,,,,,,,,,,,,,,,,,,,,,,,,,,,,,,,,,,,,,,,,,,,,,,,,2290.729760000482,None,,,,,,,,,,,,,,,,,,,,,,,,,,,,,,,,,,,green,38,29,sing,red,2288.7293173000216,None,None,2288.7293173000216,None,,,,,,,,,,,,,,,,,,,,,,,,,,,,,,60NF,001,2023_Apr_28_1058,ExactRep-v3-final,2021.2.3,59.97623755491973,
,,,,,,,,29,0,29,0,,,,,,,,,,,,,,,,,,,,,,,,,,,,,,,,,,,,,,,,,,,,,,,,,,,,,2293.2320597004145,None,,,,,,,,,,,,,,,,,,,,,,,,,,,,,,,,,,,moral,26,30,sing,red,2291.232520500198,None,None,2291.232520500198,None,,,,,,,,,,,,,,,,,,,,,,,,,,,,,,60NF,001,2023_Apr_28_1058,ExactRep-v3-final,2021.2.3,59.97623755491973,
,,,,,,,,30,0,30,0,,,,,,,,,,,,,,,,,,,,,,,,,,,,,,,,,,,,,,,,,,,,,,,,,,,,,2295.7345899008214,None,,,,,,,,,,,,,,,,,,,,,,,,,,,,,,,,,,,tree,76,31,silent,blue,2293.7347094006836,None,None,2293.7347094006836,None,,,,,,,,,,,,,,,,,,,,,,,,,,,,,,60NF,001,2023_Apr_28_1058,ExactRep-v3-final,2021.2.3,59.97623755491973,
,,,,,,,,31,0,31,0,,,,,,,,,,,,,,,,,,,,,,,,,,,,,,,,,,,,,,,,,,,,,,,,,,,,,2298.237066200003,None,,,,,,,,,,,,,,,,,,,,,,,,,,,,,,,,,,,student,60,32,silent,blue,2296.2376780007035,None,None,2296.2376780007035,None,,,,,,,,,,,,,,,,,,,,,,,,,,,,,,60NF,001,2023_Apr_28_1058,ExactRep-v3-final,2021.2.3,59.97623755491973,
,,,,,,,,32,0,32,0,,,,,,,,,,,,,,,,,,,,,,,,,,,,,,,,,,,,,,,,,,,,,,,,,,,,,2300.7395899007097,None,,,,,,,,,,,,,,,,,,,,,,,,,,,,,,,,,,,hope,57,33,silent,blue,2298.7391138002276,None,None,2298.7391138002276,None,,,,,,,,,,,,,,,,,,,,,,,,,,,,,,60NF,001,2023_Apr_28_1058,ExactRep-v3-final,2021.2.3,59.97623755491973,
,,,,,,,,33,0,33,0,,,,,,,,,,,,,,,,,,,,,,,,,,,,,,,,,,,,,,,,,,,,,,,,,,,,,2303.258739700541,None,,,,,,,,,,,,,,,,,,,,,,,,,,,,,,,,,,,insect,106,34,aloud,white,2301.2474291007966,None,None,2301.2474291007966,None,,,,,,,,,,,,,,,,,,,,,,,,,,,,,,60NF,001,2023_Apr_28_1058,ExactRep-v3-final,2021.2.3,59.97623755491973,
,,,,,,,,34,0,34,0,,,,,,,,,,,,,,,,,,,,,,,,,,,,,,,,,,,,,,,,,,,,,,,,,,,,,2305.7613356001675,None,,,,,,,,,,,,,,,,,,,,,,,,,,,,,,,,,,,grass,96,35,aloud,white,2303.7592582004145,None,None,2303.7592582004145,None,,,,,,,,,,,,,,,,,,,,,,,,,,,,,,60NF,001,2023_Apr_28_1058,ExactRep-v3-final,2021.2.3,59.97623755491973,
,,,,,,,,35,0,35,0,,,,,,,,,,,,,,,,,,,,,,,,,,,,,,,,,,,,,,,,,,,,,,,,,,,,,2308.2804632000625,None,,,,,,,,,,,,,,,,,,,,,,,,,,,,,,,,,,,custom,41,36,silent,blue,2306.2676020003855,None,None,2306.2676020003855,None,,,,,,,,,,,,,,,,,,,,,,,,,,,,,,60NF,001,2023_Apr_28_1058,ExactRep-v3-final,2021.2.3,59.97623755491973,
,,,,,,,,36,0,36,0,,,,,,,,,,,,,,,,,,,,,,,,,,,,,,,,,,,,,,,,,,,,,,,,,,,,,2310.782973400317,None,,,,,,,,,,,,,,,,,,,,,,,,,,,,,,,,,,,lake,16,37,sing,red,2308.780967500061,None,None,2308.780967500061,None,,,,,,,,,,,,,,,,,,,,,,,,,,,,,,60NF,001,2023_Apr_28_1058,ExactRep-v3-final,2021.2.3,59.97623755491973,
,,,,,,,,37,0,37,0,,,,,,,,,,,,,,,,,,,,,,,,,,,,,,,,,,,,,,,,,,,,,,,,,,,,,2313.285360100679,None,,,,,,,,,,,,,,,,,,,,,,,,,,,,,,,,,,,cash,1,38,sing,red,2311.283292800188,None,None,2311.283292800188,None,,,,,,,,,,,,,,,,,,,,,,,,,,,,,,60NF,001,2023_Apr_28_1058,ExactRep-v3-final,2021.2.3,59.97623755491973,
,,,,,,,,38,0,38,0,,,,,,,,,,,,,,,,,,,,,,,,,,,,,,,,,,,,,,,,,,,,,,,,,,,,,2315.787824900821,None,,,,,,,,,,,,,,,,,,,,,,,,,,,,,,,,,,,animal,45,39,silent,blue,2313.7871781000867,None,None,2313.7871781000867,None,,,,,,,,,,,,,,,,,,,,,,,,,,,,,,60NF,001,2023_Apr_28_1058,ExactRep-v3-final,2021.2.3,59.97623755491973,
,,,,,,,,39,0,39,0,,,,,,,,,,,,,,,,,,,,,,,,,,,,,,,,,,,,,,,,,,,,,,,,,,,,,2318.290284000337,None,,,,,,,,,,,,,,,,,,,,,,,,,,,,,,,,,,,coast,58,40,silent,blue,2316.2883665002882,None,None,2316.2883665002882,None,,,,,,,,,,,,,,,,,,,,,,,,,,,,,,60NF,001,2023_Apr_28_1058,ExactRep-v3-final,2021.2.3,59.97623755491973,
,,,,,,,,40,0,40,0,,,,,,,,,,,,,,,,,,,,,,,,,,,,,,,,,,,,,,,,,,,,,,,,,,,,,2320.8096557008103,None,,,,,,,,,,,,,,,,,,,,,,,,,,,,,,,,,,,child,70,41,silent,blue,2318.8005997007713,None,None,2318.8005997007713,None,,,,,,,,,,,,,,,,,,,,,,,,,,,,,,60NF,001,2023_Apr_28_1058,ExactRep-v3-final,2021.2.3,59.97623755491973,
,,,,,,,,41,0,41,0,,,,,,,,,,,,,,,,,,,,,,,,,,,,,,,,,,,,,,,,,,,,,,,,,,,,,2323.3120033005252,None,,,,,,,,,,,,,,,,,,,,,,,,,,,,,,,,,,,honour,110,42,aloud,white,2321.311495900154,None,None,2321.311495900154,None,,,,,,,,,,,,,,,,,,,,,,,,,,,,,,60NF,001,2023_Apr_28_1058,ExactRep-v3-final,2021.2.3,59.97623755491973,
,,,,,,,,42,0,42,0,,,,,,,,,,,,,,,,,,,,,,,,,,,,,,,,,,,,,,,,,,,,,,,,,,,,,2325.81473140046,None,,,,,,,,,,,,,,,,,,,,,,,,,,,,,,,,,,,style,46,43,silent,blue,2323.8125271005556,None,None,2323.8125271005556,None,,,,,,,,,,,,,,,,,,,,,,,,,,,,,,60NF,001,2023_Apr_28_1058,ExactRep-v3-final,2021.2.3,59.97623755491973,
,,,,,,,,43,0,43,0,,,,,,,,,,,,,,,,,,,,,,,,,,,,,,,,,,,,,,,,,,,,,,,,,,,,,2328.333914500661,None,,,,,,,,,,,,,,,,,,,,,,,,,,,,,,,,,,,letter,12,44,sing,red,2326.3183922003955,None,None,2326.3183922003955,None,,,,,,,,,,,,,,,,,,,,,,,,,,,,,,60NF,001,2023_Apr_28_1058,ExactRep-v3-final,2021.2.3,59.97623755491973,
,,,,,,,,44,0,44,0,,,,,,,,,,,,,,,,,,,,,,,,,,,,,,,,,,,,,,,,,,,,,,,,,,,,,2330.853237000294,None,,,,,,,,,,,,,,,,,,,,,,,,,,,,,,,,,,,winter,61,45,silent,blue,2328.8457729006186,None,None,2328.8457729006186,None,,,,,,,,,,,,,,,,,,,,,,,,,,,,,,60NF,001,2023_Apr_28_1058,ExactRep-v3-final,2021.2.3,59.97623755491973,
,,,,,,,,45,0,45,0,,,,,,,,,,,,,,,,,,,,,,,,,,,,,,,,,,,,,,,,,,,,,,,,,,,,,2333.355563800782,None,,,,,,,,,,,,,,,,,,,,,,,,,,,,,,,,,,,coffee,111,46,aloud,white,2331.3545246003196,None,None,2331.3545246003196,None,,,,,,,,,,,,,,,,,,,,,,,,,,,,,,60NF,001,2023_Apr_28_1058,ExactRep-v3-final,2021.2.3,59.97623755491973,
,,,,,,,,46,0,46,0,,,,,,,,,,,,,,,,,,,,,,,,,,,,,,,,,,,,,,,,,,,,,,,,,,,,,2335.8580265007913,None,,,,,,,,,,,,,,,,,,,,,,,,,,,,,,,,,,,disease,40,47,silent,blue,2333.857791500166,None,None,2333.857791500166,None,,,,,,,,,,,,,,,,,,,,,,,,,,,,,,60NF,001,2023_Apr_28_1058,ExactRep-v3-final,2021.2.3,59.97623755491973,
,,,,,,,,47,0,47,0,,,,,,,,,,,,,,,,,,,,,,,,,,,,,,,,,,,,,,,,,,,,,,,,,,,,,2338.360549800098,None,,,,,,,,,,,,,,,,,,,,,,,,,,,,,,,,,,,soil,66,48,silent,blue,2336.360528600402,None,None,2336.360528600402,None,,,,,,,,,,,,,,,,,,,,,,,,,,,,,,60NF,001,2023_Apr_28_1058,ExactRep-v3-final,2021.2.3,59.97623755491973,
,,,,,,,,48,0,48,0,,,,,,,,,,,,,,,,,,,,,,,,,,,,,,,,,,,,,,,,,,,,,,,,,,,,,2340.8630641000345,None,,,,,,,,,,,,,,,,,,,,,,,,,,,,,,,,,,,string,97,49,aloud,white,2338.861480500549,None,None,2338.861480500549,None,,,,,,,,,,,,,,,,,,,,,,,,,,,,,,60NF,001,2023_Apr_28_1058,ExactRep-v3-final,2021.2.3,59.97623755491973,
,,,,,,,,49,0,49,0,,,,,,,,,,,,,,,,,,,,,,,,,,,,,,,,,,,,,,,,,,,,,,,,,,,,,2343.365653200075,None,,,,,,,,,,,,,,,,,,,,,,,,,,,,,,,,,,,crime,20,50,sing,red,2341.364352600649,None,None,2341.364352600649,None,,,,,,,,,,,,,,,,,,,,,,,,,,,,,,60NF,001,2023_Apr_28_1058,ExactRep-v3-final,2021.2.3,59.97623755491973,
,,,,,,,,50,0,50,0,,,,,,,,,,,,,,,,,,,,,,,,,,,,,,,,,,,,,,,,,,,,,,,,,,,,,2345.8681183001027,None,,,,,,,,,,,,,,,,,,,,,,,,,,,,,,,,,,,thought,89,51,aloud,white,2343.86759880092,None,None,2343.86759880092,None,,,,,,,,,,,,,,,,,,,,,,,,,,,,,,60NF,001,2023_Apr_28_1058,ExactRep-v3-final,2021.2.3,59.97623755491973,
,,,,,,,,51,0,51,0,,,,,,,,,,,,,,,,,,,,,,,,,,,,,,,,,,,,,,,,,,,,,,,,,,,,,2348.3872235007584,None,,,,,,,,,,,,,,,,,,,,,,,,,,,,,,,,,,,pipe,90,52,aloud,white,2346.3730605002493,None,None,2346.3730605002493,None,,,,,,,,,,,,,,,,,,,,,,,,,,,,,,60NF,001,2023_Apr_28_1058,ExactRep-v3-final,2021.2.3,59.97623755491973,
,,,,,,,,52,0,52,0,,,,,,,,,,,,,,,,,,,,,,,,,,,,,,,,,,,,,,,,,,,,,,,,,,,,,2350.889640700072,None,,,,,,,,,,,,,,,,,,,,,,,,,,,,,,,,,,,king,81,53,aloud,white,2348.8877814002335,None,None,2348.8877814002335,None,,,,,,,,,,,,,,,,,,,,,,,,,,,,,,60NF,001,2023_Apr_28_1058,ExactRep-v3-final,2021.2.3,59.97623755491973,
,,,,,,,,53,0,53,0,,,,,,,,,,,,,,,,,,,,,,,,,,,,,,,,,,,,,,,,,,,,,,,,,,,,,2353.39222470019,None,,,,,,,,,,,,,,,,,,,,,,,,,,,,,,,,,,,star,118,54,aloud,white,2351.39202220086,None,None,2351.39202220086,None,,,,,,,,,,,,,,,,,,,,,,,,,,,,,,60NF,001,2023_Apr_28_1058,ExactRep-v3-final,2021.2.3,59.97623755491973,
,,,,,,,,54,0,54,0,,,,,,,,,,,,,,,,,,,,,,,,,,,,,,,,,,,,,,,,,,,,,,,,,,,,,2355.9114845003933,None,,,,,,,,,,,,,,,,,,,,,,,,,,,,,,,,,,,pupil,55,55,silent,blue,2353.895819700323,None,None,2353.895819700323,None,,,,,,,,,,,,,,,,,,,,,,,,,,,,,,60NF,001,2023_Apr_28_1058,ExactRep-v3-final,2021.2.3,59.97623755491973,
,,,,,,,,55,0,55,0,,,,,,,,,,,,,,,,,,,,,,,,,,,,,,,,,,,,,,,,,,,,,,,,,,,,,2358.4138961005956,None,,,,,,,,,,,,,,,,,,,,,,,,,,,,,,,,,,,vision,109,56,aloud,white,2356.4133312003687,None,None,2356.4133312003687,None,,,,,,,,,,,,,,,,,,,,,,,,,,,,,,60NF,001,2023_Apr_28_1058,ExactRep-v3-final,2021.2.3,59.97623755491973,
,,,,,,,,56,0,56,0,,,,,,,,,,,,,,,,,,,,,,,,,,,,,,,,,,,,,,,,,,,,,,,,,,,,,2360.9164906004444,None,,,,,,,,,,,,,,,,,,,,,,,,,,,,,,,,,,,girl,84,57,aloud,white,2358.9154598005116,None,None,2358.9154598005116,None,,,,,,,,,,,,,,,,,,,,,,,,,,,,,,60NF,001,2023_Apr_28_1058,ExactRep-v3-final,2021.2.3,59.97623755491973,
,,,,,,,,57,0,57,0,,,,,,,,,,,,,,,,,,,,,,,,,,,,,,,,,,,,,,,,,,,,,,,,,,,,,2363.435631500557,None,,,,,,,,,,,,,,,,,,,,,,,,,,,,,,,,,,,breast,27,58,sing,red,2361.422514700331,None,None,2361.422514700331,None,,,,,,,,,,,,,,,,,,,,,,,,,,,,,,60NF,001,2023_Apr_28_1058,ExactRep-v3-final,2021.2.3,59.97623755491973,
,,,,,,,,58,0,58,0,,,,,,,,,,,,,,,,,,,,,,,,,,,,,,,,,,,,,,,,,,,,,,,,,,,,,2365.9381505008787,None,,,,,,,,,,,,,,,,,,,,,,,,,,,,,,,,,,,devil,10,59,sing,red,2363.9386224001646,None,None,2363.9386224001646,None,,,,,,,,,,,,,,,,,,,,,,,,,,,,,,60NF,001,2023_Apr_28_1058,ExactRep-v3-final,2021.2.3,59.97623755491973,
,,,,,,,,59,0,59,0,,,,,,,,,,,,,,,,,,,,,,,,,,,,,,,,,,,,,,,,,,,,,,,,,,,,,2368.4406489999965,None,,,,,,,,,,,,,,,,,,,,,,,,,,,,,,,,,,,love,54,60,silent,blue,2366.441140400246,None,None,2366.441140400246,None,,,,,,,,,,,,,,,,,,,,,,,,,,,,,,60NF,001,2023_Apr_28_1058,ExactRep-v3-final,2021.2.3,59.97623755491973,
,,,,,,,,60,0,60,0,,,,,,,,,,,,,,,,,,,,,,,,,,,,,,,,,,,,,,,,,,,,,,,,,,,,,2370.959950200282,None,,,,,,,,,,,,,,,,,,,,,,,,,,,,,,,,,,,cottage,3,61,sing,red,2368.946595400572,None,None,2368.946595400572,None,,,,,,,,,,,,,,,,,,,,,,,,,,,,,,60NF,001,2023_Apr_28_1058,ExactRep-v3-final,2021.2.3,59.97623755491973,
,,,,,,,,61,0,61,0,,,,,,,,,,,,,,,,,,,,,,,,,,,,,,,,,,,,,,,,,,,,,,,,,,,,,2373.4622265007347,None,,,,,,,,,,,,,,,,,,,,,,,,,,,,,,,,,,,hour,31,62,sing,red,2371.460319400765,None,None,2371.460319400765,None,,,,,,,,,,,,,,,,,,,,,,,,,,,,,,60NF,001,2023_Apr_28_1058,ExactRep-v3-final,2021.2.3,59.97623755491973,
,,,,,,,,62,0,62,0,,,,,,,,,,,,,,,,,,,,,,,,,,,,,,,,,,,,,,,,,,,,,,,,,,,,,2375.9814178003,None,,,,,,,,,,,,,,,,,,,,,,,,,,,,,,,,,,,corn,30,63,sing,red,2373.9667282002047,None,None,2373.9667282002047,None,,,,,,,,,,,,,,,,,,,,,,,,,,,,,,60NF,001,2023_Apr_28_1058,ExactRep-v3-final,2021.2.3,59.97623755491973,
,,,,,,,,63,0,63,0,,,,,,,,,,,,,,,,,,,,,,,,,,,,,,,,,,,,,,,,,,,,,,,,,,,,,2378.484010300599,None,,,,,,,,,,,,,,,,,,,,,,,,,,,,,,,,,,,bowl,114,64,aloud,white,2376.4818431008607,None,None,2376.4818431008607,None,,,,,,,,,,,,,,,,,,,,,,,,,,,,,,60NF,001,2023_Apr_28_1058,ExactRep-v3-final,2021.2.3,59.97623755491973,
,,,,,,,,64,0,64,0,,,,,,,,,,,,,,,,,,,,,,,,,,,,,,,,,,,,,,,,,,,,,,,,,,,,,2381.0032636001706,None,,,,,,,,,,,,,,,,,,,,,,,,,,,,,,,,,,,anger,107,65,aloud,white,2378.9881092002615,None,None,2378.9881092002615,None,,,,,,,,,,,,,,,,,,,,,,,,,,,,,,60NF,001,2023_Apr_28_1058,ExactRep-v3-final,2021.2.3,59.97623755491973,
,,,,,,,,65,0,65,0,,,,,,,,,,,,,,,,,,,,,,,,,,,,,,,,,,,,,,,,,,,,,,,,,,,,,2383.5057855006307,None,,,,,,,,,,,,,,,,,,,,,,,,,,,,,,,,,,,wine,5,66,sing,red,2381.5062133008614,None,None,2381.5062133008614,None,,,,,,,,,,,,,,,,,,,,,,,,,,,,,,60NF,001,2023_Apr_28_1058,ExactRep-v3-final,2021.2.3,59.97623755491973,
,,,,,,,,66,0,66,0,,,,,,,,,,,,,,,,,,,,,,,,,,,,,,,,,,,,,,,,,,,,,,,,,,,,,2386.0249093007296,None,,,,,,,,,,,,,,,,,,,,,,,,,,,,,,,,,,,law,108,67,aloud,white,2384.0103326002136,None,None,2384.0103326002136,None,,,,,,,,,,,,,,,,,,,,,,,,,,,,,,60NF,001,2023_Apr_28_1058,ExactRep-v3-final,2021.2.3,59.97623755491973,
,,,,,,,,67,0,67,0,,,,,,,,,,,,,,,,,,,,,,,,,,,,,,,,,,,,,,,,,,,,,,,,,,,,,2388.5441895006225,None,,,,,,,,,,,,,,,,,,,,,,,,,,,,,,,,,,,season,119,68,aloud,white,2386.5290543008596,None,None,2386.5290543008596,None,,,,,,,,,,,,,,,,,,,,,,,,,,,,,,60NF,001,2023_Apr_28_1058,ExactRep-v3-final,2021.2.3,59.97623755491973,
,,,,,,,,68,0,68,0,,,,,,,,,,,,,,,,,,,,,,,,,,,,,,,,,,,,,,,,,,,,,,,,,,,,,2391.063160300255,None,,,,,,,,,,,,,,,,,,,,,,,,,,,,,,,,,,,product,19,69,sing,red,2389.0484996000305,None,None,2389.0484996000305,None,,,,,,,,,,,,,,,,,,,,,,,,,,,,,,60NF,001,2023_Apr_28_1058,ExactRep-v3-final,2021.2.3,59.97623755491973,
,,,,,,,,69,0,69,0,,,,,,,,,,,,,,,,,,,,,,,,,,,,,,,,,,,,,,,,,,,,,,,,,,,,,2393.565597000532,None,,,,,,,,,,,,,,,,,,,,,,,,,,,,,,,,,,,salary,56,70,silent,blue,2391.563838300295,None,None,2391.563838300295,None,,,,,,,,,,,,,,,,,,,,,,,,,,,,,,60NF,001,2023_Apr_28_1058,ExactRep-v3-final,2021.2.3,59.97623755491973,
,,,,,,,,70,0,70,0,,,,,,,,,,,,,,,,,,,,,,,,,,,,,,,,,,,,,,,,,,,,,,,,,,,,,2396.068284300156,None,,,,,,,,,,,,,,,,,,,,,,,,,,,,,,,,,,,skin,4,71,sing,red,2394.0684612002224,None,None,2394.0684612002224,None,,,,,,,,,,,,,,,,,,,,,,,,,,,,,,60NF,001,2023_Apr_28_1058,ExactRep-v3-final,2021.2.3,59.97623755491973,
,,,,,,,,71,0,71,0,,,,,,,,,,,,,,,,,,,,,,,,,,,,,,,,,,,,,,,,,,,,,,,,,,,,,2398.5874401004985,None,,,,,,,,,,,,,,,,,,,,,,,,,,,,,,,,,,,engine,98,72,aloud,white,2396.5771738002077,None,None,2396.5771738002077,None,,,,,,,,,,,,,,,,,,,,,,,,,,,,,,60NF,001,2023_Apr_28_1058,ExactRep-v3-final,2021.2.3,59.97623755491973,
,,,,,,,,72,0,72,0,,,,,,,,,,,,,,,,,,,,,,,,,,,,,,,,,,,,,,,,,,,,,,,,,,,,,2401.0899354005232,None,,,,,,,,,,,,,,,,,,,,,,,,,,,,,,,,,,,moment,47,73,silent,blue,2399.0885899001732,None,None,2399.0885899001732,None,,,,,,,,,,,,,,,,,,,,,,,,,,,,,,60NF,001,2023_Apr_28_1058,ExactRep-v3-final,2021.2.3,59.97623755491973,
,,,,,,,,73,0,73,0,,,,,,,,,,,,,,,,,,,,,,,,,,,,,,,,,,,,,,,,,,,,,,,,,,,,,2403.6092215003446,None,,,,,,,,,,,,,,,,,,,,,,,,,,,,,,,,,,,time,75,74,silent,blue,2401.5953070009127,None,None,2401.5953070009127,None,,,,,,,,,,,,,,,,,,,,,,,,,,,,,,60NF,001,2023_Apr_28_1058,ExactRep-v3-final,2021.2.3,59.97623755491973,
,,,,,,,,74,0,74,0,,,,,,,,,,,,,,,,,,,,,,,,,,,,,,,,,,,,,,,,,,,,,,,,,,,,,2406.1283782003447,None,,,,,,,,,,,,,,,,,,,,,,,,,,,,,,,,,,,duty,101,75,aloud,white,2404.112915300764,None,None,2404.112915300764,None,,,,,,,,,,,,,,,,,,,,,,,,,,,,,,60NF,001,2023_Apr_28_1058,ExactRep-v3-final,2021.2.3,59.97623755491973,
,,,,,,,,75,0,75,0,,,,,,,,,,,,,,,,,,,,,,,,,,,,,,,,,,,,,,,,,,,,,,,,,,,,,2408.6474900003523,None,,,,,,,,,,,,,,,,,,,,,,,,,,,,,,,,,,,bird,91,76,aloud,white,2406.6340512000024,None,None,2406.6340512000024,None,,,,,,,,,,,,,,,,,,,,,,,,,,,,,,60NF,001,2023_Apr_28_1058,ExactRep-v3-final,2021.2.3,59.97623755491973,
,,,,,,,,76,0,76,0,,,,,,,,,,,,,,,,,,,,,,,,,,,,,,,,,,,,,,,,,,,,,,,,,,,,,2411.166520600207,None,,,,,,,,,,,,,,,,,,,,,,,,,,,,,,,,,,,length,72,77,silent,blue,2409.1559154000133,None,None,2409.1559154000133,None,,,,,,,,,,,,,,,,,,,,,,,,,,,,,,60NF,001,2023_Apr_28_1058,ExactRep-v3-final,2021.2.3,59.97623755491973,
,,,,,,,,77,0,77,0,,,,,,,,,,,,,,,,,,,,,,,,,,,,,,,,,,,,,,,,,,,,,,,,,,,,,2413.6690592002124,None,,,,,,,,,,,,,,,,,,,,,,,,,,,,,,,,,,,board,18,78,sing,red,2411.6677539004013,None,None,2411.6677539004013,None,,,,,,,,,,,,,,,,,,,,,,,,,,,,,,60NF,001,2023_Apr_28_1058,ExactRep-v3-final,2021.2.3,59.97623755491973,
,,,,,,,,78,0,78,0,,,,,,,,,,,,,,,,,,,,,,,,,,,,,,,,,,,,,,,,,,,,,,,,,,,,,2416.1715445006266,None,,,,,,,,,,,,,,,,,,,,,,,,,,,,,,,,,,,opinion,83,79,aloud,white,2414.1697093006223,None,None,2414.1697093006223,None,,,,,,,,,,,,,,,,,,,,,,,,,,,,,,60NF,001,2023_Apr_28_1058,ExactRep-v3-final,2021.2.3,59.97623755491973,
,,,,,,,,79,0,79,0,,,,,,,,,,,,,,,,,,,,,,,,,,,,,,,,,,,,,,,,,,,,,,,,,,,,,2418.6909250002354,None,,,,,,,,,,,,,,,,,,,,,,,,,,,,,,,,,,,shoes,88,80,aloud,white,2416.681360100396,None,None,2416.681360100396,None,,,,,,,,,,,,,,,,,,,,,,,,,,,,,,60NF,001,2023_Apr_28_1058,ExactRep-v3-final,2021.2.3,59.97623755491973,
,,,,,,,,80,0,80,0,,,,,,,,,,,,,,,,,,,,,,,,,,,,,,,,,,,,,,,,,,,,,,,,,,,,,2421.2100666007027,None,,,,,,,,,,,,,,,,,,,,,,,,,,,,,,,,,,,valley,69,81,silent,blue,2419.194924400188,None,None,2419.194924400188,None,,,,,,,,,,,,,,,,,,,,,,,,,,,,,,60NF,001,2023_Apr_28_1058,ExactRep-v3-final,2021.2.3,59.97623755491973,
,,,,,,,,81,0,81,0,,,,,,,,,,,,,,,,,,,,,,,,,,,,,,,,,,,,,,,,,,,,,,,,,,,,,2423.71259190049,None,,,,,,,,,,,,,,,,,,,,,,,,,,,,,,,,,,,beast,0,82,sing,red,2421.7116046007723,None,None,2421.7116046007723,None,,,,,,,,,,,,,,,,,,,,,,,,,,,,,,60NF,001,2023_Apr_28_1058,ExactRep-v3-final,2021.2.3,59.97623755491973,
,,,,,,,,82,0,82,0,,,,,,,,,,,,,,,,,,,,,,,,,,,,,,,,,,,,,,,,,,,,,,,,,,,,,2426.231787200086,None,,,,,,,,,,,,,,,,,,,,,,,,,,,,,,,,,,,colony,35,83,sing,red,2424.2177926003933,None,None,2424.2177926003933,None,,,,,,,,,,,,,,,,,,,,,,,,,,,,,,60NF,001,2023_Apr_28_1058,ExactRep-v3-final,2021.2.3,59.97623755491973,
,,,,,,,,83,0,83,0,,,,,,,,,,,,,,,,,,,,,,,,,,,,,,,,,,,,,,,,,,,,,,,,,,,,,2428.7509842002764,None,,,,,,,,,,,,,,,,,,,,,,,,,,,,,,,,,,,blood,62,84,silent,blue,2426.736085500568,None,None,2426.736085500568,None,,,,,,,,,,,,,,,,,,,,,,,,,,,,,,60NF,001,2023_Apr_28_1058,ExactRep-v3-final,2021.2.3,59.97623755491973,
,,,,,,,,84,0,84,0,,,,,,,,,,,,,,,,,,,,,,,,,,,,,,,,,,,,,,,,,,,,,,,,,,,,,2431.263378000818,None,,,,,,,,,,,,,,,,,,,,,,,,,,,,,,,,,,,murder,80,85,aloud,white,2429.252393200062,None,None,2429.252393200062,None,,,,,,,,,,,,,,,,,,,,,,,,,,,,,,60NF,001,2023_Apr_28_1058,ExactRep-v3-final,2021.2.3,59.97623755491973,
,,,,,,,,85,0,85,0,,,,,,,,,,,,,,,,,,,,,,,,,,,,,,,,,,,,,,,,,,,,,,,,,,,,,2433.7726788008586,None,,,,,,,,,,,,,,,,,,,,,,,,,,,,,,,,,,,victory,44,86,silent,blue,2431.7704845005646,None,None,2431.7704845005646,None,,,,,,,,,,,,,,,,,,,,,,,,,,,,,,60NF,001,2023_Apr_28_1058,ExactRep-v3-final,2021.2.3,59.97623755491973,
,,,,,,,,86,0,86,0,,,,,,,,,,,,,,,,,,,,,,,,,,,,,,,,,,,,,,,,,,,,,,,,,,,,,2436.2916918005794,None,,,,,,,,,,,,,,,,,,,,,,,,,,,,,,,,,,,heaven,64,87,silent,blue,2434.2885077008978,None,None,2434.2885077008978,None,,,,,,,,,,,,,,,,,,,,,,,,,,,,,,60NF,001,2023_Apr_28_1058,ExactRep-v3-final,2021.2.3,59.97623755491973,
,,,,,,,,87,0,87,0,,,,,,,,,,,,,,,,,,,,,,,,,,,,,,,,,,,,,,,,,,,,,,,,,,,,,2438.7941826004535,None,,,,,,,,,,,,,,,,,,,,,,,,,,,,,,,,,,,ocean,100,88,aloud,white,2436.792124300264,None,None,2436.792124300264,None,,,,,,,,,,,,,,,,,,,,,,,,,,,,,,60NF,001,2023_Apr_28_1058,ExactRep-v3-final,2021.2.3,59.97623755491973,
,,,,,,,,88,0,88,0,,,,,,,,,,,,,,,,,,,,,,,,,,,,,,,,,,,,,,,,,,,,,,,,,,,,,2441.296797300689,None,,,,,,,,,,,,,,,,,,,,,,,,,,,,,,,,,,,butter,102,89,aloud,white,2439.2964659007266,None,None,2439.2964659007266,None,,,,,,,,,,,,,,,,,,,,,,,,,,,,,,60NF,001,2023_Apr_28_1058,ExactRep-v3-final,2021.2.3,59.97623755491973,
,,,,,,,,89,0,89,0,,,,,,,,,,,,,,,,,,,,,,,,,,,,,,,,,,,,,,,,,,,,,,,,,,,,,2443.8158025005832,None,,,,,,,,,,,,,,,,,,,,,,,,,,,,,,,,,,,shame,34,90,sing,red,2441.801196500659,None,None,2441.801196500659,None,,,,,,,,,,,,,,,,,,,,,,,,,,,,,,60NF,001,2023_Apr_28_1058,ExactRep-v3-final,2021.2.3,59.97623755491973,
,,,,,,,,90,0,90,0,,,,,,,,,,,,,,,,,,,,,,,,,,,,,,,,,,,,,,,,,,,,,,,,,,,,,2446.318547900766,None,,,,,,,,,,,,,,,,,,,,,,,,,,,,,,,,,,,library,50,91,silent,blue,2444.3164323000237,None,None,2444.3164323000237,None,,,,,,,,,,,,,,,,,,,,,,,,,,,,,,60NF,001,2023_Apr_28_1058,ExactRep-v3-final,2021.2.3,59.97623755491973,
,,,,,,,,91,0,91,0,,,,,,,,,,,,,,,,,,,,,,,,,,,,,,,,,,,,,,,,,,,,,,,,,,,,,2448.8376880008727,None,,,,,,,,,,,,,,,,,,,,,,,,,,,,,,,,,,,church,73,92,silent,blue,2446.8235353007913,None,None,2446.8235353007913,None,,,,,,,,,,,,,,,,,,,,,,,,,,,,,,60NF,001,2023_Apr_28_1058,ExactRep-v3-final,2021.2.3,59.97623755491973,
,,,,,,,,92,0,92,0,,,,,,,,,,,,,,,,,,,,,,,,,,,,,,,,,,,,,,,,,,,,,,,,,,,,,2451.340209000744,None,,,,,,,,,,,,,,,,,,,,,,,,,,,,,,,,,,,meadow,67,93,silent,blue,2449.3389466004446,None,None,2449.3389466004446,None,,,,,,,,,,,,,,,,,,,,,,,,,,,,,,60NF,001,2023_Apr_28_1058,ExactRep-v3-final,2021.2.3,59.97623755491973,
,,,,,,,,93,0,93,0,,,,,,,,,,,,,,,,,,,,,,,,,,,,,,,,,,,,,,,,,,,,,,,,,,,,,2453.842560700141,None,,,,,,,,,,,,,,,,,,,,,,,,,,,,,,,,,,,fact,8,94,sing,red,2451.8422164004296,None,None,2451.8422164004296,None,,,,,,,,,,,,,,,,,,,,,,,,,,,,,,60NF,001,2023_Apr_28_1058,ExactRep-v3-final,2021.2.3,59.97623755491973,
,,,,,,,,94,0,94,0,,,,,,,,,,,,,,,,,,,,,,,,,,,,,,,,,,,,,,,,,,,,,,,,,,,,,2456.361985500902,None,,,,,,,,,,,,,,,,,,,,,,,,,,,,,,,,,,,author,68,95,silent,blue,2454.3531039003283,None,None,2454.3531039003283,None,,,,,,,,,,,,,,,,,,,,,,,,,,,,,,60NF,001,2023_Apr_28_1058,ExactRep-v3-final,2021.2.3,59.97623755491973,
,,,,,,,,95,0,95,0,,,,,,,,,,,,,,,,,,,,,,,,,,,,,,,,,,,,,,,,,,,,,,,,,,,,,2458.8810033006594,None,,,,,,,,,,,,,,,,,,,,,,,,,,,,,,,,,,,paper,24,96,sing,red,2456.8677313001826,None,None,2456.8677313001826,None,,,,,,,,,,,,,,,,,,,,,,,,,,,,,,60NF,001,2023_Apr_28_1058,ExactRep-v3-final,2021.2.3,59.97623755491973,
,,,,,,,,96,0,96,0,,,,,,,,,,,,,,,,,,,,,,,,,,,,,,,,,,,,,,,,,,,,,,,,,,,,,2461.4001484001055,None,,,,,,,,,,,,,,,,,,,,,,,,,,,,,,,,,,,hall,95,97,aloud,white,2459.3853785004467,None,None,2459.3853785004467,None,,,,,,,,,,,,,,,,,,,,,,,,,,,,,,60NF,001,2023_Apr_28_1058,ExactRep-v3-final,2021.2.3,59.97623755491973,
,,,,,,,,97,0,97,0,,,,,,,,,,,,,,,,,,,,,,,,,,,,,,,,,,,,,,,,,,,,,,,,,,,,,2463.9028935004026,None,,,,,,,,,,,,,,,,,,,,,,,,,,,,,,,,,,,meat,39,98,silent,blue,2461.900889900513,None,None,2461.900889900513,None,,,,,,,,,,,,,,,,,,,,,,,,,,,,,,60NF,001,2023_Apr_28_1058,ExactRep-v3-final,2021.2.3,59.97623755491973,
,,,,,,,,98,0,98,0,,,,,,,,,,,,,,,,,,,,,,,,,,,,,,,,,,,,,,,,,,,,,,,,,,,,,2466.4052544003353,None,,,,,,,,,,,,,,,,,,,,,,,,,,,,,,,,,,,science,11,99,sing,red,2464.403664400801,None,None,2464.403664400801,None,,,,,,,,,,,,,,,,,,,,,,,,,,,,,,60NF,001,2023_Apr_28_1058,ExactRep-v3-final,2021.2.3,59.97623755491973,
,,,,,,,,99,0,99,0,,,,,,,,,,,,,,,,,,,,,,,,,,,,,,,,,,,,,,,,,,,,,,,,,,,,,2468.924293600023,None,,,,,,,,,,,,,,,,,,,,,,,,,,,,,,,,,,,sea,52,100,silent,blue,2466.910478800535,None,None,2466.910478800535,None,,,,,,,,,,,,,,,,,,,,,,,,,,,,,,60NF,001,2023_Apr_28_1058,ExactRep-v3-final,2021.2.3,59.97623755491973,
,,,,,,,,100,0,100,0,,,,,,,,,,,,,,,,,,,,,,,,,,,,,,,,,,,,,,,,,,,,,,,,,,,,,2471.443596000783,None,,,,,,,,,,,,,,,,,,,,,,,,,,,,,,,,,,,idea,6,101,sing,red,2469.4310149000958,None,None,2469.4310149000958,None,,,,,,,,,,,,,,,,,,,,,,,,,,,,,,60NF,001,2023_Apr_28_1058,ExactRep-v3-final,2021.2.3,59.97623755491973,
,,,,,,,,101,0,101,0,,,,,,,,,,,,,,,,,,,,,,,,,,,,,,,,,,,,,,,,,,,,,,,,,,,,,2473.946099200286,None,,,,,,,,,,,,,,,,,,,,,,,,,,,,,,,,,,,toy,93,102,aloud,white,2471.944108600728,None,None,2471.944108600728,None,,,,,,,,,,,,,,,,,,,,,,,,,,,,,,60NF,001,2023_Apr_28_1058,ExactRep-v3-final,2021.2.3,59.97623755491973,
,,,,,,,,102,0,102,0,,,,,,,,,,,,,,,,,,,,,,,,,,,,,,,,,,,,,,,,,,,,,,,,,,,,,2476.4484981000423,None,,,,,,,,,,,,,,,,,,,,,,,,,,,,,,,,,,,gift,48,103,silent,blue,2474.4465303001925,None,None,2474.4465303001925,None,,,,,,,,,,,,,,,,,,,,,,,,,,,,,,60NF,001,2023_Apr_28_1058,ExactRep-v3-final,2021.2.3,59.97623755491973,
,,,,,,,,103,0,103,0,,,,,,,,,,,,,,,,,,,,,,,,,,,,,,,,,,,,,,,,,,,,,,,,,,,,,2478.9511516001076,None,,,,,,,,,,,,,,,,,,,,,,,,,,,,,,,,,,,owner,116,104,aloud,white,2476.9515273002908,None,None,2476.9515273002908,None,,,,,,,,,,,,,,,,,,,,,,,,,,,,,,60NF,001,2023_Apr_28_1058,ExactRep-v3-final,2021.2.3,59.97623755491973,
,,,,,,,,104,0,104,0,,,,,,,,,,,,,,,,,,,,,,,,,,,,,,,,,,,,,,,,,,,,,,,,,,,,,2481.4536691000685,None,,,,,,,,,,,,,,,,,,,,,,,,,,,,,,,,,,,woods,25,105,sing,red,2479.4530631005764,None,None,2479.4530631005764,None,,,,,,,,,,,,,,,,,,,,,,,,,,,,,,60NF,001,2023_Apr_28_1058,ExactRep-v3-final,2021.2.3,59.97623755491973,
,,,,,,,,105,0,105,0,,,,,,,,,,,,,,,,,,,,,,,,,,,,,,,,,,,,,,,,,,,,,,,,,,,,,2483.972760900855,None,,,,,,,,,,,,,,,,,,,,,,,,,,,,,,,,,,,life,32,106,sing,red,2481.9592058006674,None,None,2481.9592058006674,None,,,,,,,,,,,,,,,,,,,,,,,,,,,,,,60NF,001,2023_Apr_28_1058,ExactRep-v3-final,2021.2.3,59.97623755491973,
,,,,,,,,106,0,106,0,,,,,,,,,,,,,,,,,,,,,,,,,,,,,,,,,,,,,,,,,,,,,,,,,,,,,2486.475360300392,None,,,,,,,,,,,,,,,,,,,,,,,,,,,,,,,,,,,slave,2,107,sing,red,2484.4731797007844,None,None,2484.4731797007844,None,,,,,,,,,,,,,,,,,,,,,,,,,,,,,,60NF,001,2023_Apr_28_1058,ExactRep-v3-final,2021.2.3,59.97623755491973,
,,,,,,,,107,0,107,0,,,,,,,,,,,,,,,,,,,,,,,,,,,,,,,,,,,,,,,,,,,,,,,,,,,,,2488.994307300076,None,,,,,,,,,,,,,,,,,,,,,,,,,,,,,,,,,,,lad,74,108,silent,blue,2486.9831276005134,None,None,2486.9831276005134,None,,,,,,,,,,,,,,,,,,,,,,,,,,,,,,60NF,001,2023_Apr_28_1058,ExactRep-v3-final,2021.2.3,59.97623755491973,
,,,,,,,,108,0,108,0,,,,,,,,,,,,,,,,,,,,,,,,,,,,,,,,,,,,,,,,,,,,,,,,,,,,,2491.513515700586,None,,,,,,,,,,,,,,,,,,,,,,,,,,,,,,,,,,,passion,63,109,silent,blue,2489.500750500709,None,None,2489.500750500709,None,,,,,,,,,,,,,,,,,,,,,,,,,,,,,,60NF,001,2023_Apr_28_1058,ExactRep-v3-final,2021.2.3,59.97623755491973,
,,,,,,,,109,0,109,0,,,,,,,,,,,,,,,,,,,,,,,,,,,,,,,,,,,,,,,,,,,,,,,,,,,,,2494.016270400025,None,,,,,,,,,,,,,,,,,,,,,,,,,,,,,,,,,,,lip,112,110,aloud,white,2492.014214500785,None,None,2492.014214500785,None,,,,,,,,,,,,,,,,,,,,,,,,,,,,,,60NF,001,2023_Apr_28_1058,ExactRep-v3-final,2021.2.3,59.97623755491973,
,,,,,,,,110,0,110,0,,,,,,,,,,,,,,,,,,,,,,,,,,,,,,,,,,,,,,,,,,,,,,,,,,,,,2496.535448900424,None,,,,,,,,,,,,,,,,,,,,,,,,,,,,,,,,,,,bar,85,111,aloud,white,2494.521284300834,None,None,2494.521284300834,None,,,,,,,,,,,,,,,,,,,,,,,,,,,,,,60NF,001,2023_Apr_28_1058,ExactRep-v3-final,2021.2.3,59.97623755491973,
,,,,,,,,111,0,111,0,,,,,,,,,,,,,,,,,,,,,,,,,,,,,,,,,,,,,,,,,,,,,,,,,,,,,2499.0376947000623,None,,,,,,,,,,,,,,,,,,,,,,,,,,,,,,,,,,,hide,105,112,aloud,white,2497.0368457008153,None,None,2497.0368457008153,None,,,,,,,,,,,,,,,,,,,,,,,,,,,,,,60NF,001,2023_Apr_28_1058,ExactRep-v3-final,2021.2.3,59.97623755491973,
,,,,,,,,112,0,112,0,,,,,,,,,,,,,,,,,,,,,,,,,,,,,,,,,,,,,,,,,,,,,,,,,,,,,2501.5569382002577,None,,,,,,,,,,,,,,,,,,,,,,,,,,,,,,,,,,,ability,79,113,sing,red,2499.547435800545,None,None,2499.547435800545,None,,,,,,,,,,,,,,,,,,,,,,,,,,,,,,60NF,001,2023_Apr_28_1058,ExactRep-v3-final,2021.2.3,59.97623755491973,
,,,,,,,,113,0,113,0,,,,,,,,,,,,,,,,,,,,,,,,,,,,,,,,,,,,,,,,,,,,,,,,,,,,,2504.0596804004163,None,,,,,,,,,,,,,,,,,,,,,,,,,,,,,,,,,,,prison,14,114,sing,red,2502.0574515005574,None,None,2502.0574515005574,None,,,,,,,,,,,,,,,,,,,,,,,,,,,,,,60NF,001,2023_Apr_28_1058,ExactRep-v3-final,2021.2.3,59.97623755491973,
,,,,,,,,114,0,114,0,,,,,,,,,,,,,,,,,,,,,,,,,,,,,,,,,,,,,,,,,,,,,,,,,,,,,2506.5787368007004,None,,,,,,,,,,,,,,,,,,,,,,,,,,,,,,,,,,,table,115,115,aloud,white,2504.5653343005106,None,None,2504.5653343005106,None,,,,,,,,,,,,,,,,,,,,,,,,,,,,,,60NF,001,2023_Apr_28_1058,ExactRep-v3-final,2021.2.3,59.97623755491973,
,,,,,,,,115,0,115,0,,,,,,,,,,,,,,,,,,,,,,,,,,,,,,,,,,,,,,,,,,,,,,,,,,,,,2509.081259100698,None,,,,,,,,,,,,,,,,,,,,,,,,,,,,,,,,,,,plain,94,116,aloud,white,2507.079239900224,None,None,2507.079239900224,None,,,,,,,,,,,,,,,,,,,,,,,,,,,,,,60NF,001,2023_Apr_28_1058,ExactRep-v3-final,2021.2.3,59.97623755491973,
,,,,,,,,116,0,116,0,,,,,,,,,,,,,,,,,,,,,,,,,,,,,,,,,,,,,,,,,,,,,,,,,,,,,2511.5835862001404,None,,,,,,,,,,,,,,,,,,,,,,,,,,,,,,,,,,,shadow,9,117,sing,red,2509.5840444006026,None,None,2509.5840444006026,None,,,,,,,,,,,,,,,,,,,,,,,,,,,,,,60NF,001,2023_Apr_28_1058,ExactRep-v3-final,2021.2.3,59.97623755491973,
,,,,,,,,117,0,117,0,,,,,,,,,,,,,,,,,,,,,,,,,,,,,,,,,,,,,,,,,,,,,,,,,,,,,2514.1027963003144,None,,,,,,,,,,,,,,,,,,,,,,,,,,,,,,,,,,,person,77,118,silent,blue,2512.0922585008666,None,None,2512.0922585008666,None,,,,,,,,,,,,,,,,,,,,,,,,,,,,,,60NF,001,2023_Apr_28_1058,ExactRep-v3-final,2021.2.3,59.97623755491973,
,,,,,,,,118,0,118,0,,,,,,,,,,,,,,,,,,,,,,,,,,,,,,,,,,,,,,,,,,,,,,,,,,,,,2516.605428000912,None,,,,,,,,,,,,,,,,,,,,,,,,,,,,,,,,,,,avenue,23,119,sing,red,2514.603420600295,None,None,2514.603420600295,None,,,,,,,,,,,,,,,,,,,,,,,,,,,,,,60NF,001,2023_Apr_28_1058,ExactRep-v3-final,2021.2.3,59.97623755491973,
,,,,,,,,119,0,119,0,,,,,,,,,,,,,,,,,,,,,,,,,,,,,,,,,,,,,,,,,,,,,,,,,,,,,2519.1079245004803,None,,,,,,,,,,,,,,,,,,,,,,,,,,,,,,,,,,,fire,15,120,sing,red,2517.1080347001553,None,None,2517.1080347001553,None,,,,,,,,,,,,,,,,,,,,,,,,,,,,,,60NF,001,2023_Apr_28_1058,ExactRep-v3-final,2021.2.3,59.97623755491973,
,,,,,,,,,,,,,,,,,,,,,,,,,,,,,,,,,,,,,,,,,,,,,,,,,,,,,,,,,,,,,,,,,,,,,,,,,,,,,,,,,,,,,,,,,,,,,,,,,,,,,,,,,,,,,,2519.6099463002756,None,space,1.2201960003003478,2529.586464200169,None,,,,,,,,,,,,,,,,,,,,,,,,60NF,001,2023_Apr_28_1058,ExactRep-v3-final,2021.2.3,59.97623755491973,
,,,,,,,,,,,,,,,,,,,,,,,,,,,,,,,,,,,,,,,,,,,,,,,,,,,,,,,,,,,,,,,,,,,,,,,,,,,,,,,,,,,,,,,,,,,,,,,,,,,,,,,,,,,,,,,,,,,,2530.8381839003414,None,space,25.999994300305843,2540.8142618006095,None,,,,,,,,,,,,,,,,,,60NF,001,2023_Apr_28_1058,ExactRep-v3-final,2021.2.3,59.97623755491973,
,,,,,,,,,,,,0,0,0,0,,,,,,,,,,,,,,,,,,,,,,,,,,,,,,,,,,,,,,,,,,,,,,,,,2578.285991200246,None,,,,,,,,,,,,,,,,,,,,,,,,,,,,,,,,,,,,,,,,,,,,,,,,,,,,,,,,,flood,186,1,aloud,new,yellow,2567.349191600457,None,n,2567.349191600457,None,"['n', 'return']","[10.136980599723756, 10.897001000121236]",2567.349191600457,None,,,60NF,001,2023_Apr_28_1058,ExactRep-v3-final,2021.2.3,59.97623755491973,
,,,,,,,,,,,,1,0,1,0,,,,,,,,,,,,,,,,,,,,,,,,,,,,,,,,,,,,,,,,,,,,,,,,,2587.0969309005886,None,,,,,,,,,,,,,,,,,,,,,,,,,,,,,,,,,,,,,,,,,,,,,,,,,,,,,,,,,vision,109,2,aloud,old,yellow,2578.81148770079,None,y,2578.81148770079,None,"['y', 'return']","[7.683003600686789, 8.242672900669277]",2578.81148770079,None,,,60NF,001,2023_Apr_28_1058,ExactRep-v3-final,2021.2.3,59.97623755491973,
,,,,,,,,,,,,2,0,2,0,,,,,,,,,,,,,,,,,,,,,,,,,,,,,,,,,,,,,,,,,,,,,,,,,2589.962004300207,None,,,,,,,,,,,,,,,,,,,,,,,,,,,,,,,,,,,,,,,,,,,,,,,,,,,,,,,,,artist,219,3,sing,new,yellow,2587.6256447006017,None,y,2587.6256447006017,None,"['y', 'return']","[1.860563300549984, 2.292537299916148]",2587.6256447006017,None,,,60NF,001,2023_Apr_28_1058,ExactRep-v3-final,2021.2.3,59.97623755491973,
,,,,,,,,,,,,3,0,3,0,,,,,,,,,,,,,,,,,,,,,,,,,,,,,,,,,,,,,,,,,,,,,,,,,2591.913959200494,None,,,,,,,,,,,,,,,,,,,,,,,,,,,,,,,,,,,,,,,,,,,,,,,,,,,,,,,,,fire,15,4,sing,old,yellow,2590.4722473006696,None,y,2590.4722473006696,None,"['y', 'return']","[0.9179726000875235, 1.4059624997898936]",2590.4722473006696,None,,,60NF,001,2023_Apr_28_1058,ExactRep-v3-final,2021.2.3,59.97623755491973,
,,,,,,,,,,,,4,0,4,0,,,,,,,,,,,,,,,,,,,,,,,,,,,,,,,,,,,,,,,,,,,,,,,,,2594.1997421002015,None,,,,,,,,,,,,,,,,,,,,,,,,,,,,,,,,,,,,,,,,,,,,,,,,,,,,,,,,,window,140,5,silent,new,yellow,2592.4258395005018,None,y,2592.4258395005018,None,"['y', 'return']","[1.2044658996164799, 1.7324037998914719]",2592.4258395005018,None,,,60NF,001,2023_Apr_28_1058,ExactRep-v3-final,2021.2.3,59.97623755491973,
,,,,,,,,,,,,5,0,5,0,,,,,,,,,,,,,,,,,,,,,,,,,,,,,,,,,,,,,,,,,,,,,,,,,2596.7855133004487,None,,,,,,,,,,,,,,,,,,,,,,,,,,,,,,,,,,,,,,,,,,,,,,,,,,,,,,,,,effort,203,6,sing,new,yellow,2594.707884600386,None,n,2594.707884600386,None,"['n', 'return']","[1.306390100158751, 2.0424587996676564]",2594.707884600386,None,,,60NF,001,2023_Apr_28_1058,ExactRep-v3-final,2021.2.3,59.97623755491973,
,,,,,,,,,,,,6,0,6,0,,,,,,,,,,,,,,,,,,,,,,,,,,,,,,,,,,,,,,,,,,,,,,,,,2599.7719680005684,None,,,,,,,,,,,,,,,,,,,,,,,,,,,,,,,,,,,,,,,,,,,,,,,,,,,,,,,,,opinion,83,7,aloud,old,yellow,2597.2980235004798,None,y,2597.2980235004798,None,"['y', 'return']","[2.0444790003821254, 2.4282392002642155]",2597.2980235004798,None,,,60NF,001,2023_Apr_28_1058,ExactRep-v3-final,2021.2.3,59.97623755491973,
,,,,,,,,,,,,7,0,7,0,,,,,,,,,,,,,,,,,,,,,,,,,,,,,,,,,,,,,,,,,,,,,,,,,2603.6256123008206,None,,,,,,,,,,,,,,,,,,,,,,,,,,,,,,,,,,,,,,,,,,,,,,,,,,,,,,,,,dress,33,8,sing,old,yellow,2600.2835080008954,None,y,2600.2835080008954,None,"['y', 'return']","[2.994708299636841, 3.306891200132668]",2600.2835080008954,None,,,60NF,001,2023_Apr_28_1058,ExactRep-v3-final,2021.2.3,59.97623755491973,
,,,,,,,,,,,,8,0,8,0,,,,,,,,,,,,,,,,,,,,,,,,,,,,,,,,,,,,,,,,,,,,,,,,,2605.494356300682,None,,,,,,,,,,,,,,,,,,,,,,,,,,,,,,,,,,,,,,,,,,,,,,,,,,,,,,,,,priest,156,9,silent,new,yellow,2604.130955800414,None,n,2604.130955800414,None,"['n', 'return']","[1.0435814000666142, 1.3154142992570996]",2604.130955800414,None,,,60NF,001,2023_Apr_28_1058,ExactRep-v3-final,2021.2.3,59.97623755491973,
,,,,,,,,,,,,9,0,9,0,,,,,,,,,,,,,,,,,,,,,,,,,,,,,,,,,,,,,,,,,,,,,,,,,2607.1792108006775,None,,,,,,,,,,,,,,,,,,,,,,,,,,,,,,,,,,,,,,,,,,,,,,,,,,,,,,,,,woods,25,10,sing,old,yellow,2606.003344300203,None,y,2606.003344300203,None,"['y', 'return']","[0.8908700002357364, 1.1389439003542066]",2606.003344300203,None,,,60NF,001,2023_Apr_28_1058,ExactRep-v3-final,2021.2.3,59.97623755491973,
,,,,,,,,,,,,10,0,10,0,,,,,,,,,,,,,,,,,,,,,,,,,,,,,,,,,,,,,,,,,,,,,,,,,2609.96547000017,None,,,,,,,,,,,,,,,,,,,,,,,,,,,,,,,,,,,,,,,,,,,,,,,,,,,,,,,,,dollar,229,11,sing,new,yellow,2607.685983100906,None,y,2607.685983100906,None,"['y', 'return']","[1.7363509004935622, 2.240313299931586]",2607.685983100906,None,,,60NF,001,2023_Apr_28_1058,ExactRep-v3-final,2021.2.3,59.97623755491973,
,,,,,,,,,,,,11,0,11,0,,,,,,,,,,,,,,,,,,,,,,,,,,,,,,,,,,,,,,,,,,,,,,,,,2612.150853100233,None,,,,,,,,,,,,,,,,,,,,,,,,,,,,,,,,,,,,,,,,,,,,,,,,,,,,,,,,,dust,198,12,aloud,new,yellow,2610.47311930079,None,y,2610.47311930079,None,"['y', 'return']","[1.3810862004756927, 1.6371389999985695]",2610.47311930079,None,,,60NF,001,2023_Apr_28_1058,ExactRep-v3-final,2021.2.3,59.97623755491973,
,,,,,,,,,,,,12,0,12,0,,,,,,,,,,,,,,,,,,,,,,,,,,,,,,,,,,,,,,,,,,,,,,,,,2613.8858483005315,None,,,,,,,,,,,,,,,,,,,,,,,,,,,,,,,,,,,,,,,,,,,,,,,,,,,,,,,,,cottage,3,13,sing,old,yellow,2612.6692337002605,None,y,2612.6692337002605,None,"['y', 'return']","[0.9769004993140697, 1.1689565991982818]",2612.6692337002605,None,,,60NF,001,2023_Apr_28_1058,ExactRep-v3-final,2021.2.3,59.97623755491973,
,,,,,,,,,,,,13,0,13,0,,,,,,,,,,,,,,,,,,,,,,,,,,,,,,,,,,,,,,,,,,,,,,,,,2616.088079600595,None,,,,,,,,,,,,,,,,,,,,,,,,,,,,,,,,,,,,,,,,,,,,,,,,,,,,,,,,,river,65,14,silent,old,yellow,2614.3936281008646,None,y,2614.3936281008646,None,"['y', 'return']","[1.3966047996655107, 1.6526563996449113]",2614.3936281008646,None,,,60NF,001,2023_Apr_28_1058,ExactRep-v3-final,2021.2.3,59.97623755491973,
,,,,,,,,,,,,14,0,14,0,,,,,,,,,,,,,,,,,,,,,,,,,,,,,,,,,,,,,,,,,,,,,,,,,2617.823135100305,None,,,,,,,,,,,,,,,,,,,,,,,,,,,,,,,,,,,,,,,,,,,,,,,,,,,,,,,,,money,217,15,sing,new,yellow,2616.59872020036,None,y,2616.59872020036,None,"['y', 'return']","[0.9195143999531865, 1.1835369998589158]",2616.59872020036,None,,,60NF,001,2023_Apr_28_1058,ExactRep-v3-final,2021.2.3,59.97623755491973,
,,,,,,,,,,,,15,0,15,0,,,,,,,,,,,,,,,,,,,,,,,,,,,,,,,,,,,,,,,,,,,,,,,,,2619.574855200015,None,,,,,,,,,,,,,,,,,,,,,,,,,,,,,,,,,,,,,,,,,,,,,,,,,,,,,,,,,method,139,16,silent,new,yellow,2618.3332520006225,None,n,2618.3332520006225,None,"['n', 'return']","[0.9929845007136464, 1.2089487006887794]",2618.3332520006225,None,,,60NF,001,2023_Apr_28_1058,ExactRep-v3-final,2021.2.3,59.97623755491973,
,,,,,,,,,,,,16,0,16,0,,,,,,,,,,,,,,,,,,,,,,,,,,,,,,,,,,,,,,,,,,,,,,,,,2621.9606996001676,None,,,,,,,,,,,,,,,,,,,,,,,,,,,,,,,,,,,,,,,,,,,,,,,,,,,,,,,,,trouble,71,17,silent,old,yellow,2620.0846527004614,None,y,2620.0846527004614,None,"['y', 'return']","[1.5615771003067493, 1.8336995001882315]",2620.0846527004614,None,,,60NF,001,2023_Apr_28_1058,ExactRep-v3-final,2021.2.3,59.97623755491973,
,,,,,,,,,,,,17,0,17,0,,,,,,,,,,,,,,,,,,,,,,,,,,,,,,,,,,,,,,,,,,,,,,,,,2623.5791073003784,None,,,,,,,,,,,,,,,,,,,,,,,,,,,,,,,,,,,,,,,,,,,,,,,,,,,,,,,,,dream,224,18,aloud,new,yellow,2622.468963799998,None,y,2622.468963799998,None,"['y', 'return']","[0.8252472002059221, 1.0733847003430128]",2622.468963799998,None,,,60NF,001,2023_Apr_28_1058,ExactRep-v3-final,2021.2.3,59.97623755491973,
,,,,,,,,,,,,18,0,18,0,,,,,,,,,,,,,,,,,,,,,,,,,,,,,,,,,,,,,,,,,,,,,,,,,2625.230631400831,None,,,,,,,,,,,,,,,,,,,,,,,,,,,,,,,,,,,,,,,,,,,,,,,,,,,,,,,,,mother,136,19,silent,new,yellow,2624.084404800087,None,y,2624.084404800087,None,"['y', 'return']","[0.8738952009007335, 1.1059177005663514]",2624.084404800087,None,,,60NF,001,2023_Apr_28_1058,ExactRep-v3-final,2021.2.3,59.97623755491973,
,,,,,,,,,,,,19,0,19,0,,,,,,,,,,,,,,,,,,,,,,,,,,,,,,,,,,,,,,,,,,,,,,,,,2628.2337584001943,None,,,,,,,,,,,,,,,,,,,,,,,,,,,,,,,,,,,,,,,,,,,,,,,,,,,,,,,,,product,19,20,sing,old,yellow,2625.7389239007607,None,n,2625.7389239007607,None,"['n', 'return']","[2.2515137000009418, 2.45133369974792]",2625.7389239007607,None,,,60NF,001,2023_Apr_28_1058,ExactRep-v3-final,2021.2.3,59.97623755491973,
,,,,,,,,,,,,20,0,20,0,,,,,,,,,,,,,,,,,,,,,,,,,,,,,,,,,,,,,,,,,,,,,,,,,2630.0354749001563,None,,,,,,,,,,,,,,,,,,,,,,,,,,,,,,,,,,,,,,,,,,,,,,,,,,,,,,,,,ability,79,21,sing,old,yellow,2628.7431843001395,None,y,2628.7431843001395,None,"['y', 'return']","[1.0633414005860686, 1.2471882002428174]",2628.7431843001395,None,,,60NF,001,2023_Apr_28_1058,ExactRep-v3-final,2021.2.3,59.97623755491973,
,,,,,,,,,,,,21,0,21,0,,,,,,,,,,,,,,,,,,,,,,,,,,,,,,,,,,,,,,,,,,,,,,,,,2632.43803270068,None,,,,,,,,,,,,,,,,,,,,,,,,,,,,,,,,,,,,,,,,,,,,,,,,,,,,,,,,,apple,121,22,silent,new,yellow,2630.5418720003217,None,n,2630.5418720003217,None,"['n', 'return']","[1.6324471002444625, 1.8484300002455711]",2630.5418720003217,None,,,60NF,001,2023_Apr_28_1058,ExactRep-v3-final,2021.2.3,59.97623755491973,
,,,,,,,,,,,,22,0,22,0,,,,,,,,,,,,,,,,,,,,,,,,,,,,,,,,,,,,,,,,,,,,,,,,,2634.0561582008377,None,,,,,,,,,,,,,,,,,,,,,,,,,,,,,,,,,,,,,,,,,,,,,,,,,,,,,,,,,door,197,23,sing,new,yellow,2632.9409236004576,None,y,2632.9409236004576,None,"['y', 'return']","[0.9054001001641154, 1.0813440000638366]",2632.9409236004576,None,,,60NF,001,2023_Apr_28_1058,ExactRep-v3-final,2021.2.3,59.97623755491973,
,,,,,,,,,,,,23,0,23,0,,,,,,,,,,,,,,,,,,,,,,,,,,,,,,,,,,,,,,,,,,,,,,,,,2636.8422110006213,None,,,,,,,,,,,,,,,,,,,,,,,,,,,,,,,,,,,,,,,,,,,,,,,,,,,,,,,,,wife,228,24,aloud,new,yellow,2634.5684747006744,None,y,2634.5684747006744,None,"['y', 'return']","[1.9257535999640822, 2.2377868993207812]",2634.5684747006744,None,,,60NF,001,2023_Apr_28_1058,ExactRep-v3-final,2021.2.3,59.97623755491973,
,,,,,,,,,,,,24,0,24,0,,,,,,,,,,,,,,,,,,,,,,,,,,,,,,,,,,,,,,,,,,,,,,,,,2642.76478130091,None,,,,,,,,,,,,,,,,,,,,,,,,,,,,,,,,,,,,,,,,,,,,,,,,,,,,,,,,,street,142,25,silent,new,yellow,2637.3524345001206,None,y,2637.3524345001206,None,"['y', 'n', 'n', 'y', 'y', 'n', 'return']","[1.950067000463605, 2.717989600263536, 3.3660129997879267, 3.973907499574125, 4.373891100287437, 4.741956099867821, 5.37390820030123]",2637.3524345001206,None,,,60NF,001,2023_Apr_28_1058,ExactRep-v3-final,2021.2.3,59.97623755491973,
,,,,,,,,,,,,25,0,25,0,,,,,,,,,,,,,,,,,,,,,,,,,,,,,,,,,,,,,,,,,,,,,,,,,2645.0504401000217,None,,,,,,,,,,,,,,,,,,,,,,,,,,,,,,,,,,,,,,,,,,,,,,,,,,,,,,,,,boy,236,26,aloud,new,yellow,2643.2780268006027,None,n,2643.2780268006027,None,"['n', 'return']","[1.456237499602139, 1.7281756000593305]",2643.2780268006027,None,,,60NF,001,2023_Apr_28_1058,ExactRep-v3-final,2021.2.3,59.97623755491973,
,,,,,,,,,,,,26,0,26,0,,,,,,,,,,,,,,,,,,,,,,,,,,,,,,,,,,,,,,,,,,,,,,,,,2646.885629100725,None,,,,,,,,,,,,,,,,,,,,,,,,,,,,,,,,,,,,,,,,,,,,,,,,,,,,,,,,,duty,101,27,aloud,old,yellow,2645.5580696007237,None,y,2645.5580696007237,None,"['y', 'return']","[0.992340199649334, 1.2802518997341394]",2645.5580696007237,None,,,60NF,001,2023_Apr_28_1058,ExactRep-v3-final,2021.2.3,59.97623755491973,
,,,,,,,,,,,,27,0,27,0,,,,,,,,,,,,,,,,,,,,,,,,,,,,,,,,,,,,,,,,,,,,,,,,,2650.105398900807,None,,,,,,,,,,,,,,,,,,,,,,,,,,,,,,,,,,,,,,,,,,,,,,,,,,,,,,,,,garden,188,28,aloud,new,yellow,2647.3897953005508,None,y,2647.3897953005508,None,"['y', 'return']","[2.352652099914849, 2.6724674003198743]",2647.3897953005508,None,,,60NF,001,2023_Apr_28_1058,ExactRep-v3-final,2021.2.3,59.97623755491973,
,,,,,,,,,,,,28,0,28,0,,,,,,,,,,,,,,,,,,,,,,,,,,,,,,,,,,,,,,,,,,,,,,,,,2652.107398500666,None,,,,,,,,,,,,,,,,,,,,,,,,,,,,,,,,,,,,,,,,,,,,,,,,,,,,,,,,,corn,30,29,sing,old,yellow,2650.617175800726,None,y,2650.617175800726,None,"['y', 'return']","[1.0450516007840633, 1.4451524000614882]",2650.617175800726,None,,,60NF,001,2023_Apr_28_1058,ExactRep-v3-final,2021.2.3,59.97623755491973,
,,,,,,,,,,,,29,0,29,0,,,,,,,,,,,,,,,,,,,,,,,,,,,,,,,,,,,,,,,,,,,,,,,,,2653.825791900046,None,,,,,,,,,,,,,,,,,,,,,,,,,,,,,,,,,,,,,,,,,,,,,,,,,,,,,,,,,square,151,30,silent,new,yellow,2652.6186544001102,None,n,2652.6186544001102,None,"['n', 'return']","[0.9316766997799277, 1.1717675002291799]",2652.6186544001102,None,,,60NF,001,2023_Apr_28_1058,ExactRep-v3-final,2021.2.3,59.97623755491973,
,,,,,,,,,,,,30,0,30,0,,,,,,,,,,,,,,,,,,,,,,,,,,,,,,,,,,,,,,,,,,,,,,,,,2655.827805100009,None,,,,,,,,,,,,,,,,,,,,,,,,,,,,,,,,,,,,,,,,,,,,,,,,,,,,,,,,,nail,147,31,silent,new,yellow,2654.340318600647,None,n,2654.340318600647,None,"['n', 'return']","[1.2339950995519757, 1.4500772999599576]",2654.340318600647,None,,,60NF,001,2023_Apr_28_1058,ExactRep-v3-final,2021.2.3,59.97623755491973,
,,,,,,,,,,,,31,0,31,0,,,,,,,,,,,,,,,,,,,,,,,,,,,,,,,,,,,,,,,,,,,,,,,,,2657.546296500601,None,,,,,,,,,,,,,,,,,,,,,,,,,,,,,,,,,,,,,,,,,,,,,,,,,,,,,,,,,sugar,196,32,aloud,new,yellow,2656.335522800684,None,n,2656.335522800684,None,"['n', 'return']","[0.9908106997609138, 1.1667371997609735]",2656.335522800684,None,,,60NF,001,2023_Apr_28_1058,ExactRep-v3-final,2021.2.3,59.97623755491973,
,,,,,,,,,,,,32,0,32,0,,,,,,,,,,,,,,,,,,,,,,,,,,,,,,,,,,,,,,,,,,,,,,,,,2659.915296400897,None,,,,,,,,,,,,,,,,,,,,,,,,,,,,,,,,,,,,,,,,,,,,,,,,,,,,,,,,,insect,106,33,aloud,old,yellow,2658.0467408001423,None,y,2658.0467408001423,None,"['y', 'return']","[1.4796475991606712, 1.8235965995118022]",2658.0467408001423,None,,,60NF,001,2023_Apr_28_1058,ExactRep-v3-final,2021.2.3,59.97623755491973,
,,,,,,,,,,,,33,0,33,0,,,,,,,,,,,,,,,,,,,,,,,,,,,,,,,,,,,,,,,,,,,,,,,,,2661.8669870002195,None,,,,,,,,,,,,,,,,,,,,,,,,,,,,,,,,,,,,,,,,,,,,,,,,,,,,,,,,,avenue,23,34,sing,old,yellow,2660.4230557000265,None,y,2660.4230557000265,None,"['y', 'return']","[1.1032504001632333, 1.40733249951154]",2660.4230557000265,None,,,60NF,001,2023_Apr_28_1058,ExactRep-v3-final,2021.2.3,59.97623755491973,
,,,,,,,,,,,,34,0,34,0,,,,,,,,,,,,,,,,,,,,,,,,,,,,,,,,,,,,,,,,,,,,,,,,,2663.5522409006953,None,,,,,,,,,,,,,,,,,,,,,,,,,,,,,,,,,,,,,,,,,,,,,,,,,,,,,,,,,justice,59,35,silent,old,yellow,2662.3780707009137,None,y,2662.3780707009137,None,"['y', 'return']","[0.8922504996880889, 1.1324292002245784]",2662.3780707009137,None,,,60NF,001,2023_Apr_28_1058,ExactRep-v3-final,2021.2.3,59.97623755491973,
,,,,,,,,,,,,35,0,35,0,,,,,,,,,,,,,,,,,,,,,,,,,,,,,,,,,,,,,,,,,,,,,,,,,2665.070205400698,None,,,,,,,,,,,,,,,,,,,,,,,,,,,,,,,,,,,,,,,,,,,,,,,,,,,,,,,,,pride,165,36,sing,new,yellow,2664.064501900226,None,n,2664.064501900226,None,"['n', 'return']","[0.7417740002274513, 0.9738667001947761]",2664.064501900226,None,,,60NF,001,2023_Apr_28_1058,ExactRep-v3-final,2021.2.3,59.97623755491973,
,,,,,,,,,,,,36,0,36,0,,,,,,,,,,,,,,,,,,,,,,,,,,,,,,,,,,,,,,,,,,,,,,,,,2666.8053605007008,None,,,,,,,,,,,,,,,,,,,,,,,,,,,,,,,,,,,,,,,,,,,,,,,,,,,,,,,,,idea,6,37,sing,old,yellow,2665.577702600509,None,y,2665.577702600509,None,"['y', 'return']","[0.9088638005778193, 1.1886357003822923]",2665.577702600509,None,,,60NF,001,2023_Apr_28_1058,ExactRep-v3-final,2021.2.3,59.97623755491973,
,,,,,,,,,,,,37,0,37,0,,,,,,,,,,,,,,,,,,,,,,,,,,,,,,,,,,,,,,,,,,,,,,,,,2670.0753735005856,None,,,,,,,,,,,,,,,,,,,,,,,,,,,,,,,,,,,,,,,,,,,,,,,,,,,,,,,,,hide,105,38,aloud,old,yellow,2667.314449400641,None,y,2667.314449400641,None,"['y', 'return']","[2.5558826997876167, 2.7159047992900014]",2667.314449400641,None,,,60NF,001,2023_Apr_28_1058,ExactRep-v3-final,2021.2.3,59.97623755491973,
,,,,,,,,,,,,38,0,38,0,,,,,,,,,,,,,,,,,,,,,,,,,,,,,,,,,,,,,,,,,,,,,,,,,2672.411034100689,None,,,,,,,,,,,,,,,,,,,,,,,,,,,,,,,,,,,,,,,,,,,,,,,,,,,,,,,,,stone,133,39,silent,new,yellow,2670.5868371007964,None,n,2670.5868371007964,None,"['n', 'return']","[1.5955395000055432, 1.7794848000630736]",2670.5868371007964,None,,,60NF,001,2023_Apr_28_1058,ExactRep-v3-final,2021.2.3,59.97623755491973,
,,,,,,,,,,,,39,0,39,0,,,,,,,,,,,,,,,,,,,,,,,,,,,,,,,,,,,,,,,,,,,,,,,,,2676.7989391004667,None,,,,,,,,,,,,,,,,,,,,,,,,,,,,,,,,,,,,,,,,,,,,,,,,,,,,,,,,,grief,207,40,sing,new,yellow,2672.9207702009007,None,y,2672.9207702009007,None,"['y', 'return']","[3.63756600022316, 3.8375855004414916]",2672.9207702009007,None,,,60NF,001,2023_Apr_28_1058,ExactRep-v3-final,2021.2.3,59.97623755491973,
,,,,,,,,,,,,40,0,40,0,,,,,,,,,,,,,,,,,,,,,,,,,,,,,,,,,,,,,,,,,,,,,,,,,2678.4671070007607,None,,,,,,,,,,,,,,,,,,,,,,,,,,,,,,,,,,,,,,,,,,,,,,,,,,,,,,,,,life,32,41,sing,old,yellow,2677.307837200351,None,n,2677.307837200351,None,"['n', 'return']","[0.9144977005198598, 1.1225544000044465]",2677.307837200351,None,,,60NF,001,2023_Apr_28_1058,ExactRep-v3-final,2021.2.3,59.97623755491973,
,,,,,,,,,,,,41,0,41,0,,,,,,,,,,,,,,,,,,,,,,,,,,,,,,,,,,,,,,,,,,,,,,,,,2680.5857181008905,None,,,,,,,,,,,,,,,,,,,,,,,,,,,,,,,,,,,,,,,,,,,,,,,,,,,,,,,,,series,42,42,silent,old,yellow,2678.9759797006845,None,n,2678.9759797006845,None,"['n', 'return']","[1.350472499616444, 1.5663601998239756]",2678.9759797006845,None,,,60NF,001,2023_Apr_28_1058,ExactRep-v3-final,2021.2.3,59.97623755491973,
,,,,,,,,,,,,42,0,42,0,,,,,,,,,,,,,,,,,,,,,,,,,,,,,,,,,,,,,,,,,,,,,,,,,2682.9216652000323,None,,,,,,,,,,,,,,,,,,,,,,,,,,,,,,,,,,,,,,,,,,,,,,,,,,,,,,,,,coast,58,43,silent,old,yellow,2681.101399000734,None,n,2681.101399000734,None,"['return', 'n', 'n', 'return']","[0.9850059999153018, 1.144942699931562, 1.4249216997995973, 1.7769112000241876]",2681.101399000734,None,,,60NF,001,2023_Apr_28_1058,ExactRep-v3-final,2021.2.3,59.97623755491973,
,,,,,,,,,,,,43,0,43,0,,,,,,,,,,,,,,,,,,,,,,,,,,,,,,,,,,,,,,,,,,,,,,,,,2685.073690100573,None,,,,,,,,,,,,,,,,,,,,,,,,,,,,,,,,,,,,,,,,,,,,,,,,,,,,,,,,,cat,157,44,silent,new,yellow,2683.431035200134,None,n,2683.431035200134,None,"['n', 'return']","[1.455269600264728, 1.6074769999831915]",2683.431035200134,None,,,60NF,001,2023_Apr_28_1058,ExactRep-v3-final,2021.2.3,59.97623755491973,
,,,,,,,,,,,,44,0,44,0,,,,,,,,,,,,,,,,,,,,,,,,,,,,,,,,,,,,,,,,,,,,,,,,,2687.6427604006603,None,,,,,,,,,,,,,,,,,,,,,,,,,,,,,,,,,,,,,,,,,,,,,,,,,,,,,,,,,fact,8,45,sing,old,yellow,2685.5868279002607,None,y,2685.5868279002607,None,"['y', 'return']","[1.7796816993504763, 2.019747999496758]",2685.5868279002607,None,,,60NF,001,2023_Apr_28_1058,ExactRep-v3-final,2021.2.3,59.97623755491973,
,,,,,,,,,,,,45,0,45,0,,,,,,,,,,,,,,,,,,,,,,,,,,,,,,,,,,,,,,,,,,,,,,,,,2694.4164743004367,None,,,,,,,,,,,,,,,,,,,,,,,,,,,,,,,,,,,,,,,,,,,,,,,,,,,,,,,,,car,204,46,aloud,new,yellow,2688.147174200043,None,n,2688.147174200043,None,"['n', 'return']","[6.027211899869144, 6.235212299972773]",2688.147174200043,None,,,60NF,001,2023_Apr_28_1058,ExactRep-v3-final,2021.2.3,59.97623755491973,
,,,,,,,,,,,,46,0,46,0,,,,,,,,,,,,,,,,,,,,,,,,,,,,,,,,,,,,,,,,,,,,,,,,,2695.984625200741,None,,,,,,,,,,,,,,,,,,,,,,,,,,,,,,,,,,,,,,,,,,,,,,,,,,,,,,,,,devil,10,47,sing,old,yellow,2694.9244776004925,None,y,2694.9244776004925,None,"['y', 'return']","[0.7781392000615597, 1.0258536003530025]",2694.9244776004925,None,,,60NF,001,2023_Apr_28_1058,ExactRep-v3-final,2021.2.3,59.97623755491973,
,,,,,,,,,,,,47,0,47,0,,,,,,,,,,,,,,,,,,,,,,,,,,,,,,,,,,,,,,,,,,,,,,,,,2698.070042300038,None,,,,,,,,,,,,,,,,,,,,,,,,,,,,,,,,,,,,,,,,,,,,,,,,,,,,,,,,,book,146,48,silent,new,yellow,2696.496122800745,None,y,2696.496122800745,None,"['y', 'return']","[1.15037879999727, 1.5262240003794432]",2696.496122800745,None,,,60NF,001,2023_Apr_28_1058,ExactRep-v3-final,2021.2.3,59.97623755491973,
,,,,,,,,,,,,48,0,48,0,,,,,,,,,,,,,,,,,,,,,,,,,,,,,,,,,,,,,,,,,,,,,,,,,2700.489133500494,None,,,,,,,,,,,,,,,,,,,,,,,,,,,,,,,,,,,,,,,,,,,,,,,,,,,,,,,,,prayer,145,49,silent,new,yellow,2698.579713700339,None,n,2698.579713700339,None,"['n', 'return']","[1.6667902003973722, 1.86672979965806]",2698.579713700339,None,,,60NF,001,2023_Apr_28_1058,ExactRep-v3-final,2021.2.3,59.97623755491973,
,,,,,,,,,,,,49,0,49,0,,,,,,,,,,,,,,,,,,,,,,,,,,,,,,,,,,,,,,,,,,,,,,,,,2702.157450900413,None,,,,,,,,,,,,,,,,,,,,,,,,,,,,,,,,,,,,,,,,,,,,,,,,,,,,,,,,,moral,26,50,sing,old,yellow,2700.995993300341,None,n,2700.995993300341,None,"['n', 'return']","[0.8663029996678233, 1.1143468003720045]",2700.995993300341,None,,,60NF,001,2023_Apr_28_1058,ExactRep-v3-final,2021.2.3,59.97623755491973,
,,,,,,,,,,,,50,0,50,0,,,,,,,,,,,,,,,,,,,,,,,,,,,,,,,,,,,,,,,,,,,,,,,,,2704.1140210004523,None,,,,,,,,,,,,,,,,,,,,,,,,,,,,,,,,,,,,,,,,,,,,,,,,,,,,,,,,,soil,66,51,silent,old,yellow,2702.665361000225,None,n,2702.665361000225,None,"['n', 'return']","[1.116925099864602, 1.4050698997452855]",2702.665361000225,None,,,60NF,001,2023_Apr_28_1058,ExactRep-v3-final,2021.2.3,59.97623755491973,
,,,,,,,,,,,,51,0,51,0,,,,,,,,,,,,,,,,,,,,,,,,,,,,,,,,,,,,,,,,,,,,,,,,,2705.7609126009047,None,,,,,,,,,,,,,,,,,,,,,,,,,,,,,,,,,,,,,,,,,,,,,,,,,,,,,,,,,palace,124,52,silent,new,yellow,2704.64640300069,None,n,2704.64640300069,None,"['n', 'return']","[0.8960498999804258, 1.0799633003771305]",2704.64640300069,None,,,60NF,001,2023_Apr_28_1058,ExactRep-v3-final,2021.2.3,59.97623755491973,
,,,,,,,,,,,,52,0,52,0,,,,,,,,,,,,,,,,,,,,,,,,,,,,,,,,,,,,,,,,,,,,,,,,,2708.630604000762,None,,,,,,,,,,,,,,,,,,,,,,,,,,,,,,,,,,,,,,,,,,,,,,,,,,,,,,,,,toy,93,53,aloud,old,yellow,2706.2731466004625,None,y,2706.2731466004625,None,"['y', 'return']","[2.0613812999799848, 2.325249900110066]",2706.2731466004625,None,,,60NF,001,2023_Apr_28_1058,ExactRep-v3-final,2021.2.3,59.97623755491973,
,,,,,,,,,,,,53,0,53,0,,,,,,,,,,,,,,,,,,,,,,,,,,,,,,,,,,,,,,,,,,,,,,,,,2710.2488152002916,None,,,,,,,,,,,,,,,,,,,,,,,,,,,,,,,,,,,,,,,,,,,,,,,,,,,,,,,,,silence,92,54,aloud,old,yellow,2709.141745100729,None,y,2709.141745100729,None,"['y', 'return']","[0.8487660000100732, 1.072542100213468]",2709.141745100729,None,,,60NF,001,2023_Apr_28_1058,ExactRep-v3-final,2021.2.3,59.97623755491973,
,,,,,,,,,,,,54,0,54,0,,,,,,,,,,,,,,,,,,,,,,,,,,,,,,,,,,,,,,,,,,,,,,,,,2712.7850977005437,None,,,,,,,,,,,,,,,,,,,,,,,,,,,,,,,,,,,,,,,,,,,,,,,,,,,,,,,,,tree,76,55,silent,old,yellow,2710.759548800066,None,y,2710.759548800066,None,"['y', 'return']","[1.7830456998199224, 1.9909108998253942]",2710.759548800066,None,,,60NF,001,2023_Apr_28_1058,ExactRep-v3-final,2021.2.3,59.97623755491973,
,,,,,,,,,,,,55,0,55,0,,,,,,,,,,,,,,,,,,,,,,,,,,,,,,,,,,,,,,,,,,,,,,,,,2714.4364002002403,None,,,,,,,,,,,,,,,,,,,,,,,,,,,,,,,,,,,,,,,,,,,,,,,,,,,,,,,,,wheat,122,56,silent,new,yellow,2713.3013440007344,None,n,2713.3013440007344,None,"['n', 'return']","[0.8730663005262613, 1.0970381004735827]",2713.3013440007344,None,,,60NF,001,2023_Apr_28_1058,ExactRep-v3-final,2021.2.3,59.97623755491973,
,,,,,,,,,,,,56,0,56,0,,,,,,,,,,,,,,,,,,,,,,,,,,,,,,,,,,,,,,,,,,,,,,,,,2716.071385100484,None,,,,,,,,,,,,,,,,,,,,,,,,,,,,,,,,,,,,,,,,,,,,,,,,,,,,,,,,,pupil,55,57,silent,old,yellow,2714.9465468004346,None,n,2714.9465468004346,None,"['n', 'return']","[0.8998496998101473, 1.091792999766767]",2714.9465468004346,None,,,60NF,001,2023_Apr_28_1058,ExactRep-v3-final,2021.2.3,59.97623755491973,
,,,,,,,,,,,,57,0,57,0,,,,,,,,,,,,,,,,,,,,,,,,,,,,,,,,,,,,,,,,,,,,,,,,,2718.0734585002065,None,,,,,,,,,,,,,,,,,,,,,,,,,,,,,,,,,,,,,,,,,,,,,,,,,,,,,,,,,meeting,214,58,aloud,new,yellow,2716.580823200755,None,y,2716.580823200755,None,"['y', 'return']","[1.0015770997852087, 1.44951259996742]",2716.580823200755,None,,,60NF,001,2023_Apr_28_1058,ExactRep-v3-final,2021.2.3,59.97623755491973,
,,,,,,,,,,,,58,0,58,0,,,,,,,,,,,,,,,,,,,,,,,,,,,,,,,,,,,,,,,,,,,,,,,,,2720.7094146003947,None,,,,,,,,,,,,,,,,,,,,,,,,,,,,,,,,,,,,,,,,,,,,,,,,,,,,,,,,,brain,215,59,sing,new,yellow,2718.5823445999995,None,n,2718.5823445999995,None,"['n', 'return']","[1.912019300274551, 2.080103799700737]",2718.5823445999995,None,,,60NF,001,2023_Apr_28_1058,ExactRep-v3-final,2021.2.3,59.97623755491973,
,,,,,,,,,,,,59,0,59,0,,,,,,,,,,,,,,,,,,,,,,,,,,,,,,,,,,,,,,,,,,,,,,,,,2722.3442988004535,None,,,,,,,,,,,,,,,,,,,,,,,,,,,,,,,,,,,,,,,,,,,,,,,,,,,,,,,,,horse,191,60,sing,new,yellow,2721.210928200744,None,n,2721.210928200744,None,"['n', 'return']","[0.8995304005220532, 1.0995092000812292]",2721.210928200744,None,,,60NF,001,2023_Apr_28_1058,ExactRep-v3-final,2021.2.3,59.97623755491973,
,,,,,,,,,,,,60,0,60,0,,,,,,,,,,,,,,,,,,,,,,,,,,,,,,,,,,,,,,,,,,,,,,,,,2723.9124522004277,None,,,,,,,,,,,,,,,,,,,,,,,,,,,,,,,,,,,,,,,,,,,,,,,,,,,,,,,,,person,77,61,silent,old,yellow,2722.85548960045,None,y,2722.85548960045,None,"['y', 'return']","[0.7589080994948745, 1.0149330999702215]",2722.85548960045,None,,,60NF,001,2023_Apr_28_1058,ExactRep-v3-final,2021.2.3,59.97623755491973,
,,,,,,,,,,,,61,0,61,0,,,,,,,,,,,,,,,,,,,,,,,,,,,,,,,,,,,,,,,,,,,,,,,,,2725.5308403000236,None,,,,,,,,,,,,,,,,,,,,,,,,,,,,,,,,,,,,,,,,,,,,,,,,,,,,,,,,,rock,28,62,sing,old,yellow,2724.424159100279,None,y,2724.424159100279,None,"['y', 'return']","[0.8702215002849698, 1.0702472999691963]",2724.424159100279,None,,,60NF,001,2023_Apr_28_1058,ExactRep-v3-final,2021.2.3,59.97623755491973,
,,,,,,,,,,,,62,0,62,0,,,,,,,,,,,,,,,,,,,,,,,,,,,,,,,,,,,,,,,,,,,,,,,,,2728.2670261003077,None,,,,,,,,,,,,,,,,,,,,,,,,,,,,,,,,,,,,,,,,,,,,,,,,,,,,,,,,,arm,212,63,aloud,new,yellow,2726.0362510001287,None,n,2726.0362510001287,None,"['n', 'return']","[2.0341018000617623, 2.1942103002220392]",2726.0362510001287,None,,,60NF,001,2023_Apr_28_1058,ExactRep-v3-final,2021.2.3,59.97623755491973,
,,,,,,,,,,,,63,0,63,0,,,,,,,,,,,,,,,,,,,,,,,,,,,,,,,,,,,,,,,,,,,,,,,,,2731.186558600515,None,,,,,,,,,,,,,,,,,,,,,,,,,,,,,,,,,,,,,,,,,,,,,,,,,,,,,,,,,flower,173,64,sing,new,yellow,2728.7772386008874,None,n,2728.7772386008874,None,"['return', 'n', 'return']","[1.2611292991787195, 2.0690922997891903, 2.3731330996379256]",2728.7772386008874,None,,,60NF,001,2023_Apr_28_1058,ExactRep-v3-final,2021.2.3,59.97623755491973,
,,,,,,,,,,,,64,0,64,0,,,,,,,,,,,,,,,,,,,,,,,,,,,,,,,,,,,,,,,,,,,,,,,,,2732.8381459005177,None,,,,,,,,,,,,,,,,,,,,,,,,,,,,,,,,,,,,,,,,,,,,,,,,,,,,,,,,,spirit,17,65,sing,old,yellow,2731.6923444001004,None,y,2731.6923444001004,None,"['y', 'return']","[0.8581424001604319, 1.0981762995943427]",2731.6923444001004,None,,,60NF,001,2023_Apr_28_1058,ExactRep-v3-final,2021.2.3,59.97623755491973,
,,,,,,,,,,,,65,0,65,0,,,,,,,,,,,,,,,,,,,,,,,,,,,,,,,,,,,,,,,,,,,,,,,,,2734.239600500092,None,,,,,,,,,,,,,,,,,,,,,,,,,,,,,,,,,,,,,,,,,,,,,,,,,,,,,,,,,hall,95,66,aloud,old,yellow,2733.345281100832,None,y,2733.345281100832,None,"['y', 'return']","[0.637155900709331, 0.8611074006184936]",2733.345281100832,None,,,60NF,001,2023_Apr_28_1058,ExactRep-v3-final,2021.2.3,59.97623755491973,
,,,,,,,,,,,,66,0,66,0,,,,,,,,,,,,,,,,,,,,,,,,,,,,,,,,,,,,,,,,,,,,,,,,,2736.7754376009107,None,,,,,,,,,,,,,,,,,,,,,,,,,,,,,,,,,,,,,,,,,,,,,,,,,,,,,,,,,form,162,67,aloud,new,yellow,2734.7473073005676,None,y,2734.7473073005676,None,"['y', 'return']","[1.7870185999199748, 1.9870592998340726]",2734.7473073005676,None,,,60NF,001,2023_Apr_28_1058,ExactRep-v3-final,2021.2.3,59.97623755491973,
,,,,,,,,,,,,67,0,67,0,,,,,,,,,,,,,,,,,,,,,,,,,,,,,,,,,,,,,,,,,,,,,,,,,2738.3437224002555,None,,,,,,,,,,,,,,,,,,,,,,,,,,,,,,,,,,,,,,,,,,,,,,,,,,,,,,,,,coin,223,68,sing,new,yellow,2737.2880922006443,None,n,2737.2880922006443,None,"['n', 'return']","[0.8224023999646306, 1.0143667999655008]",2737.2880922006443,None,,,60NF,001,2023_Apr_28_1058,ExactRep-v3-final,2021.2.3,59.97623755491973,
,,,,,,,,,,,,68,0,68,0,,,,,,,,,,,,,,,,,,,,,,,,,,,,,,,,,,,,,,,,,,,,,,,,,2742.180752600543,None,,,,,,,,,,,,,,,,,,,,,,,,,,,,,,,,,,,,,,,,,,,,,,,,,,,,,,,,,master,183,69,sing,new,yellow,2738.859028700739,None,y,2738.859028700739,None,"['y', 'return']","[3.035458800382912, 3.283349299803376]",2738.859028700739,None,,,60NF,001,2023_Apr_28_1058,ExactRep-v3-final,2021.2.3,59.97623755491973,
,,,,,,,,,,,,69,0,69,0,,,,,,,,,,,,,,,,,,,,,,,,,,,,,,,,,,,,,,,,,,,,,,,,,2743.515479100868,None,,,,,,,,,,,,,,,,,,,,,,,,,,,,,,,,,,,,,,,,,,,,,,,,,,,,,,,,,colony,35,70,sing,old,yellow,2742.6908145006746,None,y,2742.6908145006746,None,"['y', 'return']","[0.5637031001970172, 0.7796710003167391]",2742.6908145006746,None,,,60NF,001,2023_Apr_28_1058,ExactRep-v3-final,2021.2.3,59.97623755491973,
,,,,,,,,,,,,70,0,70,0,,,,,,,,,,,,,,,,,,,,,,,,,,,,,,,,,,,,,,,,,,,,,,,,,2745.28399520088,None,,,,,,,,,,,,,,,,,,,,,,,,,,,,,,,,,,,,,,,,,,,,,,,,,,,,,,,,,soul,158,71,silent,new,yellow,2744.0233527002856,None,n,2744.0233527002856,None,"['n', 'return']","[1.023037999868393, 1.2150384997949004]",2744.0233527002856,None,,,60NF,001,2023_Apr_28_1058,ExactRep-v3-final,2021.2.3,59.97623755491973,
,,,,,,,,,,,,71,0,71,0,,,,,,,,,,,,,,,,,,,,,,,,,,,,,,,,,,,,,,,,,,,,,,,,,2746.985724300146,None,,,,,,,,,,,,,,,,,,,,,,,,,,,,,,,,,,,,,,,,,,,,,,,,,,,,,,,,,teacher,234,72,aloud,new,yellow,2745.7950729001313,None,n,2745.7950729001313,None,"['n', 'return']","[0.9233670001849532, 1.1473869001492858]",2745.7950729001313,None,,,60NF,001,2023_Apr_28_1058,ExactRep-v3-final,2021.2.3,59.97623755491973,
,,,,,,,,,,,,72,0,72,0,,,,,,,,,,,,,,,,,,,,,,,,,,,,,,,,,,,,,,,,,,,,,,,,,2748.5373502001166,None,,,,,,,,,,,,,,,,,,,,,,,,,,,,,,,,,,,,,,,,,,,,,,,,,,,,,,,,,engine,98,73,aloud,old,yellow,2747.4880264000967,None,y,2747.4880264000967,None,"['y', 'return']","[0.7663620999082923, 1.0064350003376603]",2747.4880264000967,None,,,60NF,001,2023_Apr_28_1058,ExactRep-v3-final,2021.2.3,59.97623755491973,
,,,,,,,,,,,,73,0,73,0,,,,,,,,,,,,,,,,,,,,,,,,,,,,,,,,,,,,,,,,,,,,,,,,,2750.2556770006195,None,,,,,,,,,,,,,,,,,,,,,,,,,,,,,,,,,,,,,,,,,,,,,,,,,,,,,,,,,board,18,74,sing,old,yellow,2749.0446663005278,None,y,2749.0446663005278,None,"['y', 'return']","[0.937720499932766, 1.169684799388051]",2749.0446663005278,None,,,60NF,001,2023_Apr_28_1058,ExactRep-v3-final,2021.2.3,59.97623755491973,
,,,,,,,,,,,,74,0,74,0,,,,,,,,,,,,,,,,,,,,,,,,,,,,,,,,,,,,,,,,,,,,,,,,,2752.7248505000025,None,,,,,,,,,,,,,,,,,,,,,,,,,,,,,,,,,,,,,,,,,,,,,,,,,,,,,,,,,friend,129,75,silent,new,yellow,2750.7653786009178,None,y,2750.7653786009178,None,"['y', 'return']","[1.7449765000492334, 1.9130829004570842]",2750.7653786009178,None,,,60NF,001,2023_Apr_28_1058,ExactRep-v3-final,2021.2.3,59.97623755491973,
,,,,,,,,,,,,75,0,75,0,,,,,,,,,,,,,,,,,,,,,,,,,,,,,,,,,,,,,,,,,,,,,,,,,2755.210842700675,None,,,,,,,,,,,,,,,,,,,,,,,,,,,,,,,,,,,,,,,,,,,,,,,,,,,,,,,,,salary,56,76,silent,old,yellow,2753.225170900114,None,n,2753.225170900114,None,"['n', 'return']","[1.7092200005427003, 1.949324700050056]",2753.225170900114,None,,,60NF,001,2023_Apr_28_1058,ExactRep-v3-final,2021.2.3,59.97623755491973,
,,,,,,,,,,,,76,0,76,0,,,,,,,,,,,,,,,,,,,,,,,,,,,,,,,,,,,,,,,,,,,,,,,,,2757.162541400641,None,,,,,,,,,,,,,,,,,,,,,,,,,,,,,,,,,,,,,,,,,,,,,,,,,,,,,,,,,answer,225,77,sing,new,yellow,2755.720846400596,None,y,2755.720846400596,None,"['y', 'return']","[1.1654621995985508, 1.4056530995294452]",2755.720846400596,None,,,60NF,001,2023_Apr_28_1058,ExactRep-v3-final,2021.2.3,59.97623755491973,
,,,,,,,,,,,,77,0,77,0,,,,,,,,,,,,,,,,,,,,,,,,,,,,,,,,,,,,,,,,,,,,,,,,,2758.9644496003166,None,,,,,,,,,,,,,,,,,,,,,,,,,,,,,,,,,,,,,,,,,,,,,,,,,,,,,,,,,king,81,78,aloud,old,yellow,2757.6673745000735,None,n,2757.6673745000735,None,"['n', 'return']","[1.0910137994214892, 1.2591148000210524]",2757.6673745000735,None,,,60NF,001,2023_Apr_28_1058,ExactRep-v3-final,2021.2.3,59.97623755491973,
,,,,,,,,,,,,78,0,78,0,,,,,,,,,,,,,,,,,,,,,,,,,,,,,,,,,,,,,,,,,,,,,,,,,2760.549268900417,None,,,,,,,,,,,,,,,,,,,,,,,,,,,,,,,,,,,,,,,,,,,,,,,,,,,,,,,,,law,108,79,aloud,old,yellow,2759.47192800045,None,n,2759.47192800045,None,"['n', 'return']","[0.790472200140357, 1.038557100109756]",2759.47192800045,None,,,60NF,001,2023_Apr_28_1058,ExactRep-v3-final,2021.2.3,59.97623755491973,
,,,,,,,,,,,,79,0,79,0,,,,,,,,,,,,,,,,,,,,,,,,,,,,,,,,,,,,,,,,,,,,,,,,,2766.621932800859,None,,,,,,,,,,,,,,,,,,,,,,,,,,,,,,,,,,,,,,,,,,,,,,,,,,,,,,,,,meat,39,80,silent,old,yellow,2761.0587117001414,None,y,2761.0587117001414,None,"['n', 'y', 'n', 'n', 'y', 'backspace', 'y', 'return']","[0.8276533996686339, 1.3476713001728058, 2.347605099901557, 2.7477265000343323, 2.9078019997105002, 3.6835445994511247, 4.243695300072432, 5.515763499774039]",2761.0587117001414,None,,,60NF,001,2023_Apr_28_1058,ExactRep-v3-final,2021.2.3,59.97623755491973,
,,,,,,,,,,,,80,0,80,0,,,,,,,,,,,,,,,,,,,,,,,,,,,,,,,,,,,,,,,,,,,,,,,,,2768.7240326004103,None,,,,,,,,,,,,,,,,,,,,,,,,,,,,,,,,,,,,,,,,,,,,,,,,,,,,,,,,,potato,51,81,silent,old,yellow,2767.1319160005078,None,y,2767.1319160005078,None,"['y', 'return']","[1.2504848996177316, 1.5464659994468093]",2767.1319160005078,None,,,60NF,001,2023_Apr_28_1058,ExactRep-v3-final,2021.2.3,59.97623755491973,
,,,,,,,,,,,,81,0,81,0,,,,,,,,,,,,,,,,,,,,,,,,,,,,,,,,,,,,,,,,,,,,,,,,,2771.143125800416,None,,,,,,,,,,,,,,,,,,,,,,,,,,,,,,,,,,,,,,,,,,,,,,,,,,,,,,,,,house,22,82,sing,old,yellow,2769.2342548007146,None,n,2769.2342548007146,None,"['n', 'return']","[1.6761314999312162, 1.8683186993002892]",2769.2342548007146,None,,,60NF,001,2023_Apr_28_1058,ExactRep-v3-final,2021.2.3,59.97623755491973,
,,,,,,,,,,,,82,0,82,0,,,,,,,,,,,,,,,,,,,,,,,,,,,,,,,,,,,,,,,,,,,,,,,,,2773.0451666004956,None,,,,,,,,,,,,,,,,,,,,,,,,,,,,,,,,,,,,,,,,,,,,,,,,,,,,,,,,,bottle,184,83,aloud,new,yellow,2771.650993200019,None,y,2771.650993200019,None,"['y', 'return']","[1.1077217003330588, 1.3555546002462506]",2771.650993200019,None,,,60NF,001,2023_Apr_28_1058,ExactRep-v3-final,2021.2.3,59.97623755491973,
,,,,,,,,,,,,83,0,83,0,,,,,,,,,,,,,,,,,,,,,,,,,,,,,,,,,,,,,,,,,,,,,,,,,2774.5798926008865,None,,,,,,,,,,,,,,,,,,,,,,,,,,,,,,,,,,,,,,,,,,,,,,,,,,,,,,,,,coffee,111,84,aloud,old,yellow,2773.554818400182,None,y,2773.554818400182,None,"['y', 'return']","[0.6596291000023484, 0.9877017997205257]",2773.554818400182,None,,,60NF,001,2023_Apr_28_1058,ExactRep-v3-final,2021.2.3,59.97623755491973,
,,,,,,,,,,,,84,0,84,0,,,,,,,,,,,,,,,,,,,,,,,,,,,,,,,,,,,,,,,,,,,,,,,,,2777.466272400692,None,,,,,,,,,,,,,,,,,,,,,,,,,,,,,,,,,,,,,,,,,,,,,,,,,,,,,,,,,mind,13,85,sing,old,yellow,2775.087723600678,None,y,2775.087723600678,None,"['y', 'return']","[2.0467368001118302, 2.334620200097561]",2775.087723600678,None,,,60NF,001,2023_Apr_28_1058,ExactRep-v3-final,2021.2.3,59.97623755491973,
,,,,,,,,,,,,85,0,85,0,,,,,,,,,,,,,,,,,,,,,,,,,,,,,,,,,,,,,,,,,,,,,,,,,2781.036435400136,None,,,,,,,,,,,,,,,,,,,,,,,,,,,,,,,,,,,,,,,,,,,,,,,,,,,,,,,,,volume,201,86,sing,new,yellow,2777.976086500101,None,y,2777.976086500101,None,"['y', 'return']","[2.7824092004448175, 3.0143662998452783]",2777.976086500101,None,,,60NF,001,2023_Apr_28_1058,ExactRep-v3-final,2021.2.3,59.97623755491973,
,,,,,,,,,,,,86,0,86,0,,,,,,,,,,,,,,,,,,,,,,,,,,,,,,,,,,,,,,,,,,,,,,,,,2782.4878698000684,None,,,,,,,,,,,,,,,,,,,,,,,,,,,,,,,,,,,,,,,,,,,,,,,,,,,,,,,,,power,190,87,aloud,new,yellow,2781.5488223005086,None,y,2781.5488223005086,None,"['y', 'return']","[0.6816945001482964, 0.8976891003549099]",2781.5488223005086,None,,,60NF,001,2023_Apr_28_1058,ExactRep-v3-final,2021.2.3,59.97623755491973,
,,,,,,,,,,,,87,0,87,0,,,,,,,,,,,,,,,,,,,,,,,,,,,,,,,,,,,,,,,,,,,,,,,,,2784.0727430004627,None,,,,,,,,,,,,,,,,,,,,,,,,,,,,,,,,,,,,,,,,,,,,,,,,,,,,,,,,,quality,125,88,silent,new,yellow,2782.99702240061,None,n,2782.99702240061,None,"['n', 'return']","[0.8014310002326965, 1.0414313999935985]",2782.99702240061,None,,,60NF,001,2023_Apr_28_1058,ExactRep-v3-final,2021.2.3,59.97623755491973,
,,,,,,,,,,,,88,0,88,0,,,,,,,,,,,,,,,,,,,,,,,,,,,,,,,,,,,,,,,,,,,,,,,,,2788.52716860082,None,,,,,,,,,,,,,,,,,,,,,,,,,,,,,,,,,,,,,,,,,,,,,,,,,,,,,,,,,ship,226,89,aloud,new,yellow,2784.584154000506,None,y,2784.584154000506,None,"['y', 'return']","[3.694284500554204, 3.9102129004895687]",2784.584154000506,None,,,60NF,001,2023_Apr_28_1058,ExactRep-v3-final,2021.2.3,59.97623755491973,
,,,,,,,,,,,,89,0,89,0,,,,,,,,,,,,,,,,,,,,,,,,,,,,,,,,,,,,,,,,,,,,,,,,,2790.5625415006652,None,,,,,,,,,,,,,,,,,,,,,,,,,,,,,,,,,,,,,,,,,,,,,,,,,,,,,,,,,flag,181,90,sing,new,yellow,2789.044863600284,None,n,2789.044863600284,None,"['n', 'return']","[1.2975441999733448, 1.4738075006753206]",2789.044863600284,None,,,60NF,001,2023_Apr_28_1058,ExactRep-v3-final,2021.2.3,59.97623755491973,
,,,,,,,,,,,,90,0,90,0,,,,,,,,,,,,,,,,,,,,,,,,,,,,,,,,,,,,,,,,,,,,,,,,,2792.7648418005556,None,,,,,,,,,,,,,,,,,,,,,,,,,,,,,,,,,,,,,,,,,,,,,,,,,,,,,,,,,diamond,176,91,aloud,new,yellow,2791.071235900745,None,n,2791.071235900745,None,"['n', 'return']","[1.4874686002731323, 1.6472854996100068]",2791.071235900745,None,,,60NF,001,2023_Apr_28_1058,ExactRep-v3-final,2021.2.3,59.97623755491973,
,,,,,,,,,,,,91,0,91,0,,,,,,,,,,,,,,,,,,,,,,,,,,,,,,,,,,,,,,,,,,,,,,,,,2796.0514753004536,None,,,,,,,,,,,,,,,,,,,,,,,,,,,,,,,,,,,,,,,,,,,,,,,,,,,,,,,,,heaven,64,92,silent,old,yellow,2793.274988300167,None,y,2793.274988300167,None,"['y', 'return']","[2.499370699748397, 2.7315284991636872]",2793.274988300167,None,,,60NF,001,2023_Apr_28_1058,ExactRep-v3-final,2021.2.3,59.97623755491973,
,,,,,,,,,,,,92,0,92,0,,,,,,,,,,,,,,,,,,,,,,,,,,,,,,,,,,,,,,,,,,,,,,,,,2797.9365997007117,None,,,,,,,,,,,,,,,,,,,,,,,,,,,,,,,,,,,,,,,,,,,,,,,,,,,,,,,,,death,189,93,sing,new,yellow,2796.557103600353,None,n,2796.557103600353,None,"['n', 'return']","[1.1215104991570115, 1.3373659998178482]",2796.557103600353,None,,,60NF,001,2023_Apr_28_1058,ExactRep-v3-final,2021.2.3,59.97623755491973,
,,,,,,,,,,,,93,0,93,0,,,,,,,,,,,,,,,,,,,,,,,,,,,,,,,,,,,,,,,,,,,,,,,,,2799.83859470021,None,,,,,,,,,,,,,,,,,,,,,,,,,,,,,,,,,,,,,,,,,,,,,,,,,,,,,,,,,valley,69,94,silent,old,yellow,2798.4448082000017,None,y,2798.4448082000017,None,"['y', 'return']","[1.121661700308323, 1.3457503002136946]",2798.4448082000017,None,,,60NF,001,2023_Apr_28_1058,ExactRep-v3-final,2021.2.3,59.97623755491973,
,,,,,,,,,,,,94,0,94,0,,,,,,,,,,,,,,,,,,,,,,,,,,,,,,,,,,,,,,,,,,,,,,,,,2802.391053600237,None,,,,,,,,,,,,,,,,,,,,,,,,,,,,,,,,,,,,,,,,,,,,,,,,,,,,,,,,,army,210,95,aloud,new,yellow,2800.3476373003796,None,n,2800.3476373003796,None,"['n', 'return']","[1.8268785001710057, 2.010738399811089]",2800.3476373003796,None,,,60NF,001,2023_Apr_28_1058,ExactRep-v3-final,2021.2.3,59.97623755491973,
,,,,,,,,,,,,95,0,95,0,,,,,,,,,,,,,,,,,,,,,,,,,,,,,,,,,,,,,,,,,,,,,,,,,2804.259746500291,None,,,,,,,,,,,,,,,,,,,,,,,,,,,,,,,,,,,,,,,,,,,,,,,,,,,,,,,,,college,199,96,sing,new,yellow,2802.904948600568,None,y,2802.904948600568,None,"['y', 'return']","[0.9254633001983166, 1.3094872999936342]",2802.904948600568,None,,,60NF,001,2023_Apr_28_1058,ExactRep-v3-final,2021.2.3,59.97623755491973,
,,,,,,,,,,,,96,0,96,0,,,,,,,,,,,,,,,,,,,,,,,,,,,,,,,,,,,,,,,,,,,,,,,,,2806.0280804000795,None,,,,,,,,,,,,,,,,,,,,,,,,,,,,,,,,,,,,,,,,,,,,,,,,,,,,,,,,,fate,159,97,silent,new,yellow,2804.768442600034,None,n,2804.768442600034,None,"['n', 'return']","[1.006168800406158, 1.2220601998269558]",2804.768442600034,None,,,60NF,001,2023_Apr_28_1058,ExactRep-v3-final,2021.2.3,59.97623755491973,
,,,,,,,,,,,,97,0,97,0,,,,,,,,,,,,,,,,,,,,,,,,,,,,,,,,,,,,,,,,,,,,,,,,,2807.846503400244,None,,,,,,,,,,,,,,,,,,,,,,,,,,,,,,,,,,,,,,,,,,,,,,,,,,,,,,,,,woman,177,98,sing,new,yellow,2806.5421544006094,None,y,2806.5421544006094,None,"['y', 'return']","[1.0565101997926831, 1.2643741006031632]",2806.5421544006094,None,,,60NF,001,2023_Apr_28_1058,ExactRep-v3-final,2021.2.3,59.97623755491973,
,,,,,,,,,,,,98,0,98,0,,,,,,,,,,,,,,,,,,,,,,,,,,,,,,,,,,,,,,,,,,,,,,,,,2809.3313219007105,None,,,,,,,,,,,,,,,,,,,,,,,,,,,,,,,,,,,,,,,,,,,,,,,,,,,,,,,,,hour,31,99,sing,old,yellow,2808.354650400579,None,y,2808.354650400579,None,"['y', 'return']","[0.77180300001055, 0.9398966999724507]",2808.354650400579,None,,,60NF,001,2023_Apr_28_1058,ExactRep-v3-final,2021.2.3,59.97623755491973,
,,,,,,,,,,,,99,0,99,0,,,,,,,,,,,,,,,,,,,,,,,,,,,,,,,,,,,,,,,,,,,,,,,,,2811.033139200881,None,,,,,,,,,,,,,,,,,,,,,,,,,,,,,,,,,,,,,,,,,,,,,,,,,,,,,,,,,thought,89,100,aloud,old,yellow,2809.8410163000226,None,n,2809.8410163000226,None,"['n', 'return']","[0.9413997000083327, 1.1495195999741554]",2809.8410163000226,None,,,60NF,001,2023_Apr_28_1058,ExactRep-v3-final,2021.2.3,59.97623755491973,
,,,,,,,,,,,,100,0,100,0,,,,,,,,,,,,,,,,,,,,,,,,,,,,,,,,,,,,,,,,,,,,,,,,,2813.101760700345,None,,,,,,,,,,,,,,,,,,,,,,,,,,,,,,,,,,,,,,,,,,,,,,,,,,,,,,,,,city,237,101,sing,new,yellow,2811.542240300216,None,y,2811.542240300216,None,"['y', 'return']","[1.3202325999736786, 1.5204539000988007]",2811.542240300216,None,,,60NF,001,2023_Apr_28_1058,ExactRep-v3-final,2021.2.3,59.97623755491973,
,,,,,,,,,,,,101,0,101,0,,,,,,,,,,,,,,,,,,,,,,,,,,,,,,,,,,,,,,,,,,,,,,,,,2817.5229492001235,None,,,,,,,,,,,,,,,,,,,,,,,,,,,,,,,,,,,,,,,,,,,,,,,,,,,,,,,,,cotton,49,102,silent,old,yellow,2813.6117792008445,None,n,2813.6117792008445,None,"['n', 'return']","[3.7066832995042205, 3.8667225996032357]",2813.6117792008445,None,,,60NF,001,2023_Apr_28_1058,ExactRep-v3-final,2021.2.3,59.97623755491973,
,,,,,,,,,,,,102,0,102,0,,,,,,,,,,,,,,,,,,,,,,,,,,,,,,,,,,,,,,,,,,,,,,,,,2819.191184400581,None,,,,,,,,,,,,,,,,,,,,,,,,,,,,,,,,,,,,,,,,,,,,,,,,,,,,,,,,,shock,227,103,sing,new,yellow,2818.0316660003737,None,n,2818.0316660003737,None,"['n', 'return']","[0.9828022001311183, 1.1269623003900051]",2818.0316660003737,None,,,60NF,001,2023_Apr_28_1058,ExactRep-v3-final,2021.2.3,59.97623755491973,
,,,,,,,,,,,,103,0,103,0,,,,,,,,,,,,,,,,,,,,,,,,,,,,,,,,,,,,,,,,,,,,,,,,,2821.426820900291,None,,,,,,,,,,,,,,,,,,,,,,,,,,,,,,,,,,,,,,,,,,,,,,,,,,,,,,,,,blood,62,104,silent,old,yellow,2819.7087001008913,None,n,2819.7087001008913,None,"['return', 'n', 'return']","[1.0977612007409334, 1.5218402007594705, 1.6737170005217195]",2819.7087001008913,None,,,60NF,001,2023_Apr_28_1058,ExactRep-v3-final,2021.2.3,59.97623755491973,
,,,,,,,,,,,,104,0,104,0,,,,,,,,,,,,,,,,,,,,,,,,,,,,,,,,,,,,,,,,,,,,,,,,,2823.528846100904,None,,,,,,,,,,,,,,,,,,,,,,,,,,,,,,,,,,,,,,,,,,,,,,,,,,,,,,,,,machine,169,105,sing,new,yellow,2821.931397800334,None,y,2821.931397800334,None,"['y', 'return']","[1.131119699217379, 1.5550205996260047]",2821.931397800334,None,,,60NF,001,2023_Apr_28_1058,ExactRep-v3-final,2021.2.3,59.97623755491973,
,,,,,,,,,,,,105,0,105,0,,,,,,,,,,,,,,,,,,,,,,,,,,,,,,,,,,,,,,,,,,,,,,,,,2825.2804811000824,None,,,,,,,,,,,,,,,,,,,,,,,,,,,,,,,,,,,,,,,,,,,,,,,,,,,,,,,,,winter,61,106,silent,old,yellow,2824.036537100561,None,y,2824.036537100561,None,"['y', 'return']","[1.00990130007267, 1.2019462995231152]",2824.036537100561,None,,,60NF,001,2023_Apr_28_1058,ExactRep-v3-final,2021.2.3,59.97623755491973,
,,,,,,,,,,,,106,0,106,0,,,,,,,,,,,,,,,,,,,,,,,,,,,,,,,,,,,,,,,,,,,,,,,,,2831.6702350005507,None,,,,,,,,,,,,,,,,,,,,,,,,,,,,,,,,,,,,,,,,,,,,,,,,,,,,,,,,,virtue,211,107,sing,new,yellow,2825.790839000605,None,n,2825.790839000605,None,"['y', 'backspace', 'n', 'return']","[2.2075230004265904, 5.287629500031471, 5.6556133003905416, 5.831628800369799]",2825.790839000605,None,,,60NF,001,2023_Apr_28_1058,ExactRep-v3-final,2021.2.3,59.97623755491973,
,,,,,,,,,,,,107,0,107,0,,,,,,,,,,,,,,,,,,,,,,,,,,,,,,,,,,,,,,,,,,,,,,,,,2833.438578900881,None,,,,,,,,,,,,,,,,,,,,,,,,,,,,,,,,,,,,,,,,,,,,,,,,,,,,,,,,,earth,178,108,aloud,new,yellow,2832.1813504006714,None,y,2832.1813504006714,None,"['y', 'return']","[0.841058200225234, 1.2171318996697664]",2832.1813504006714,None,,,60NF,001,2023_Apr_28_1058,ExactRep-v3-final,2021.2.3,59.97623755491973,
,,,,,,,,,,,,108,0,108,0,,,,,,,,,,,,,,,,,,,,,,,,,,,,,,,,,,,,,,,,,,,,,,,,,2837.6261590002105,None,,,,,,,,,,,,,,,,,,,,,,,,,,,,,,,,,,,,,,,,,,,,,,,,,,,,,,,,,star,118,109,aloud,old,yellow,2833.9472426008433,None,n,2833.9472426008433,None,"['n', 'return']","[3.2592666000127792, 3.6432897998020053]",2833.9472426008433,None,,,60NF,001,2023_Apr_28_1058,ExactRep-v3-final,2021.2.3,59.97623755491973,
,,,,,,,,,,,,109,0,109,0,,,,,,,,,,,,,,,,,,,,,,,,,,,,,,,,,,,,,,,,,,,,,,,,,2840.0118444003165,None,,,,,,,,,,,,,,,,,,,,,,,,,,,,,,,,,,,,,,,,,,,,,,,,,,,,,,,,,cash,1,110,sing,old,yellow,2838.135522900149,None,n,2838.135522900149,None,"['n', 'return']","[0.6631609005853534, 1.8390776002779603]",2838.135522900149,None,,,60NF,001,2023_Apr_28_1058,ExactRep-v3-final,2021.2.3,59.97623755491973,
,,,,,,,,,,,,110,0,110,0,,,,,,,,,,,,,,,,,,,,,,,,,,,,,,,,,,,,,,,,,,,,,,,,,2842.264072000049,None,,,,,,,,,,,,,,,,,,,,,,,,,,,,,,,,,,,,,,,,,,,,,,,,,,,,,,,,,boulder,220,111,aloud,new,yellow,2840.521381800063,None,y,2840.521381800063,None,"['y', 'return']","[0.9734239997342229, 1.7011099997907877]",2840.521381800063,None,,,60NF,001,2023_Apr_28_1058,ExactRep-v3-final,2021.2.3,59.97623755491973,
,,,,,,,,,,,,111,0,111,0,,,,,,,,,,,,,,,,,,,,,,,,,,,,,,,,,,,,,,,,,,,,,,,,,2843.9825344001874,None,,,,,,,,,,,,,,,,,,,,,,,,,,,,,,,,,,,,,,,,,,,,,,,,,,,,,,,,,length,72,112,silent,old,yellow,2842.7713355002925,None,n,2842.7713355002925,None,"['n', 'return']","[0.9712998000904918, 1.1712135998532176]",2842.7713355002925,None,,,60NF,001,2023_Apr_28_1058,ExactRep-v3-final,2021.2.3,59.97623755491973,
,,,,,,,,,,,,112,0,112,0,,,,,,,,,,,,,,,,,,,,,,,,,,,,,,,,,,,,,,,,,,,,,,,,,2846.868797500618,None,,,,,,,,,,,,,,,,,,,,,,,,,,,,,,,,,,,,,,,,,,,,,,,,,,,,,,,,,tool,144,113,silent,new,yellow,2844.4903558008373,None,n,2844.4903558008373,None,"['n', 'return']","[1.9001457002013922, 2.3401645002886653]",2844.4903558008373,None,,,60NF,001,2023_Apr_28_1058,ExactRep-v3-final,2021.2.3,59.97623755491973,
,,,,,,,,,,,,113,0,113,0,,,,,,,,,,,,,,,,,,,,,,,,,,,,,,,,,,,,,,,,,,,,,,,,,2857.3125367006287,None,,,,,,,,,,,,,,,,,,,,,,,,,,,,,,,,,,,,,,,,,,,,,,,,,,,,,,,,,party,86,114,aloud,old,yellow,2847.3765049008653,None,n,2847.3765049008653,None,"['y', 'n', 'backspace', 'n', 'return']","[4.32598439976573, 8.790024200454354, 9.533978899940848, 9.757978999987245, 9.894197899848223]",2847.3765049008653,None,,,60NF,001,2023_Apr_28_1058,ExactRep-v3-final,2021.2.3,59.97623755491973,
,,,,,,,,,,,,114,0,114,0,,,,,,,,,,,,,,,,,,,,,,,,,,,,,,,,,,,,,,,,,,,,,,,,,2859.1477805003524,None,,,,,,,,,,,,,,,,,,,,,,,,,,,,,,,,,,,,,,,,,,,,,,,,,,,,,,,,,factory,43,115,silent,old,yellow,2857.822184400633,None,n,2857.822184400633,None,"['n', 'return']","[1.1206251000985503, 1.2804703004658222]",2857.822184400633,None,,,60NF,001,2023_Apr_28_1058,ExactRep-v3-final,2021.2.3,59.97623755491973,
,,,,,,,,,,,,115,0,115,0,,,,,,,,,,,,,,,,,,,,,,,,,,,,,,,,,,,,,,,,,,,,,,,,,2861.0328361000866,None,,,,,,,,,,,,,,,,,,,,,,,,,,,,,,,,,,,,,,,,,,,,,,,,,,,,,,,,,string,97,116,aloud,old,yellow,2859.6512699006125,None,y,2859.6512699006125,None,"['y', 'return']","[0.7313490994274616, 1.3471916997805238]",2859.6512699006125,None,,,60NF,001,2023_Apr_28_1058,ExactRep-v3-final,2021.2.3,59.97623755491973,
,,,,,,,,,,,,116,0,116,0,,,,,,,,,,,,,,,,,,,,,,,,,,,,,,,,,,,,,,,,,,,,,,,,,2862.634551900439,None,,,,,,,,,,,,,,,,,,,,,,,,,,,,,,,,,,,,,,,,,,,,,,,,,,,,,,,,,lad,74,117,silent,old,yellow,2861.543105800636,None,n,2861.543105800636,None,"['n', 'return']","[0.6474858000874519, 1.0473357997834682]",2861.543105800636,None,,,60NF,001,2023_Apr_28_1058,ExactRep-v3-final,2021.2.3,59.97623755491973,
,,,,,,,,,,,,117,0,117,0,,,,,,,,,,,,,,,,,,,,,,,,,,,,,,,,,,,,,,,,,,,,,,,,,2864.286259200424,None,,,,,,,,,,,,,,,,,,,,,,,,,,,,,,,,,,,,,,,,,,,,,,,,,,,,,,,,,temple,135,118,silent,new,yellow,2863.1432359004393,None,y,2863.1432359004393,None,"['y', 'return']","[0.8952855002135038, 1.1113897999748588]",2863.1432359004393,None,,,60NF,001,2023_Apr_28_1058,ExactRep-v3-final,2021.2.3,59.97623755491973,
,,,,,,,,,,,,118,0,118,0,,,,,,,,,,,,,,,,,,,,,,,,,,,,,,,,,,,,,,,,,,,,,,,,,2866.071618400514,None,,,,,,,,,,,,,,,,,,,,,,,,,,,,,,,,,,,,,,,,,,,,,,,,,,,,,,,,,seat,143,119,silent,new,yellow,2864.795133800246,None,n,2864.795133800246,None,"['n', 'n', 'return']","[1.0033974004909396, 1.0674898996949196, 1.2354050995782018]",2864.795133800246,None,,,60NF,001,2023_Apr_28_1058,ExactRep-v3-final,2021.2.3,59.97623755491973,
,,,,,,,,,,,,119,0,119,0,,,,,,,,,,,,,,,,,,,,,,,,,,,,,,,,,,,,,,,,,,,,,,,,,2867.8899715002626,None,,,,,,,,,,,,,,,,,,,,,,,,,,,,,,,,,,,,,,,,,,,,,,,,,,,,,,,,,skin,4,120,sing,old,yellow,2866.5815737005323,None,y,2866.5815737005323,None,"['y', 'return']","[1.0889615006744862, 1.2649303004145622]",2866.5815737005323,None,,,60NF,001,2023_Apr_28_1058,ExactRep-v3-final,2021.2.3,59.97623755491973,
,,,,,,,,,,,,120,0,120,0,,,,,,,,,,,,,,,,,,,,,,,,,,,,,,,,,,,,,,,,,,,,,,,,,2869.39143180009,None,,,,,,,,,,,,,,,,,,,,,,,,,,,,,,,,,,,,,,,,,,,,,,,,,,,,,,,,,pipe,90,121,aloud,old,yellow,2868.4008312001824,None,y,2868.4008312001824,None,"['y', 'return']","[0.8056996995583177, 0.9578070994466543]",2868.4008312001824,None,,,60NF,001,2023_Apr_28_1058,ExactRep-v3-final,2021.2.3,59.97623755491973,
,,,,,,,,,,,,121,0,121,0,,,,,,,,,,,,,,,,,,,,,,,,,,,,,,,,,,,,,,,,,,,,,,,,,2871.176566700451,None,,,,,,,,,,,,,,,,,,,,,,,,,,,,,,,,,,,,,,,,,,,,,,,,,,,,,,,,,girl,84,122,aloud,old,yellow,2869.8942668000236,None,n,2869.8942668000236,None,"['n', 'return']","[0.9282582998275757, 1.2403519004583359]",2869.8942668000236,None,,,60NF,001,2023_Apr_28_1058,ExactRep-v3-final,2021.2.3,59.97623755491973,
,,,,,,,,,,,,122,0,122,0,,,,,,,,,,,,,,,,,,,,,,,,,,,,,,,,,,,,,,,,,,,,,,,,,2872.811540200375,None,,,,,,,,,,,,,,,,,,,,,,,,,,,,,,,,,,,,,,,,,,,,,,,,,,,,,,,,,picture,7,123,sing,old,yellow,2871.689157000743,None,n,2871.689157000743,None,"['n', 'return']","[0.8773355996236205, 1.0774106997996569]",2871.689157000743,None,,,60NF,001,2023_Apr_28_1058,ExactRep-v3-final,2021.2.3,59.97623755491973,
,,,,,,,,,,,,123,0,123,0,,,,,,,,,,,,,,,,,,,,,,,,,,,,,,,,,,,,,,,,,,,,,,,,,2874.2630029004067,None,,,,,,,,,,,,,,,,,,,,,,,,,,,,,,,,,,,,,,,,,,,,,,,,,,,,,,,,,passion,63,124,silent,old,yellow,2873.3142338003963,None,n,2873.3142338003963,None,"['n', 'return']","[0.7405605996027589, 0.9163451995700598]",2873.3142338003963,None,,,60NF,001,2023_Apr_28_1058,ExactRep-v3-final,2021.2.3,59.97623755491973,
,,,,,,,,,,,,124,0,124,0,,,,,,,,,,,,,,,,,,,,,,,,,,,,,,,,,,,,,,,,,,,,,,,,,2875.73112530075,None,,,,,,,,,,,,,,,,,,,,,,,,,,,,,,,,,,,,,,,,,,,,,,,,,,,,,,,,,village,141,125,silent,new,yellow,2874.764147100039,None,y,2874.764147100039,None,"['y', 'return']","[0.6585742002353072, 0.9223402002826333]",2874.764147100039,None,,,60NF,001,2023_Apr_28_1058,ExactRep-v3-final,2021.2.3,59.97623755491973,
,,,,,,,,,,,,125,0,125,0,,,,,,,,,,,,,,,,,,,,,,,,,,,,,,,,,,,,,,,,,,,,,,,,,2877.165910700336,None,,,,,,,,,,,,,,,,,,,,,,,,,,,,,,,,,,,,,,,,,,,,,,,,,,,,,,,,,poet,193,126,sing,new,yellow,2876.2395729003474,None,n,2876.2395729003474,None,"['n', 'return']","[0.7189743993803859, 0.8792093992233276]",2876.2395729003474,None,,,60NF,001,2023_Apr_28_1058,ExactRep-v3-final,2021.2.3,59.97623755491973,
,,,,,,,,,,,,126,0,126,0,,,,,,,,,,,,,,,,,,,,,,,,,,,,,,,,,,,,,,,,,,,,,,,,,2878.750731200911,None,,,,,,,,,,,,,,,,,,,,,,,,,,,,,,,,,,,,,,,,,,,,,,,,,,,,,,,,,ocean,100,127,aloud,old,yellow,2877.6774146007374,None,n,2877.6774146007374,None,"['n', 'return']","[0.625263899564743, 1.0412576999515295]",2877.6774146007374,None,,,60NF,001,2023_Apr_28_1058,ExactRep-v3-final,2021.2.3,59.97623755491973,
,,,,,,,,,,,,127,0,127,0,,,,,,,,,,,,,,,,,,,,,,,,,,,,,,,,,,,,,,,,,,,,,,,,,2880.3857059003785,None,,,,,,,,,,,,,,,,,,,,,,,,,,,,,,,,,,,,,,,,,,,,,,,,,,,,,,,,,troops,175,128,sing,new,yellow,2879.262080900371,None,n,2879.262080900371,None,"['n', 'return']","[0.9124688999727368, 1.0804286999627948]",2879.262080900371,None,,,60NF,001,2023_Apr_28_1058,ExactRep-v3-final,2021.2.3,59.97623755491973,
,,,,,,,,,,,,128,0,128,0,,,,,,,,,,,,,,,,,,,,,,,,,,,,,,,,,,,,,,,,,,,,,,,,,2882.2044105008245,None,,,,,,,,,,,,,,,,,,,,,,,,,,,,,,,,,,,,,,,,,,,,,,,,,,,,,,,,,excuse,132,129,silent,new,yellow,2880.9018809003755,None,n,2880.9018809003755,None,"['n', 'return']","[1.104631599970162, 1.2648511994630098]",2880.9018809003755,None,,,60NF,001,2023_Apr_28_1058,ExactRep-v3-final,2021.2.3,59.97623755491973,
