trials_fam.thisRepN,trials_fam.thisTrialN,trials_fam.thisN,trials_fam.thisIndex,trials_prc.thisRepN,trials_prc.thisTrialN,trials_prc.thisN,trials_prc.thisIndex,StudyLoop.thisRepN,StudyLoop.thisTrialN,StudyLoop.thisN,StudyLoop.thisIndex,TestLoop.thisRepN,TestLoop.thisTrialN,TestLoop.thisN,TestLoop.thisIndex,text_colortest.started,text_colortest.stopped,key_colortest.keys,key_colortest.rt,key_colortest.started,key_colortest.stopped,textCondition.started,textCondition.stopped,keyCondition.keys,keyCondition.rt,keyCondition.started,keyCondition.stopped,Condition_between,Condition_counterbal,keyWelcome.keys,keyWelcome.rt,keyWelcome.started,keyWelcome.stopped,welcome_a.started,welcome_a.stopped,welcome_b.started,welcome_b.stopped,welcome_c.started,welcome_c.stopped,welcome_d.started,welcome_d.stopped,welcome_e.started,welcome_e.stopped,welcome_f.started,welcome_f.stopped,key_resp_fam_inst.keys,key_resp_fam_inst.rt,key_resp_fam_inst.started,key_resp_fam_inst.stopped,fam_a.started,fam_a.stopped,fam_b.started,fam_b.stopped,fam_c.started,fam_c.stopped,fam_d.started,fam_d.stopped,fam_e.started,fam_e.stopped,fam_f.started,fam_f.stopped,text_famil.started,text_famil.stopped,textBlank500.started,textBlank500.stopped,key_resp_prc_inst.keys,key_resp_prc_inst.rt,key_resp_prc_inst.started,key_resp_prc_inst.stopped,prac_a.started,prac_a.stopped,prac_b.started,prac_b.stopped,prac_c.started,prac_c.stopped,prac_d.started,prac_d.stopped,prac_e.started,prac_e.stopped,prac_f.started,prac_f.stopped,text_prc_trial.started,text_prc_trial.stopped,key_resp_study_inst.keys,key_resp_study_inst.rt,key_resp_study_inst.started,key_resp_study_inst.stopped,crit_a.started,crit_a.stopped,crit_b.started,crit_b.stopped,crit_c.started,crit_c.stopped,crit_d.started,crit_d.stopped,crit_e.started,crit_e.stopped,crit_f.started,crit_f.stopped,study_word,study_num,study_order,study_type,word_color,textStudy.started,textStudy.stopped,keyStudy.keys,keyStudy.started,keyStudy.stopped,post_study.started,post_study.stopped,key_resp_post_study.keys,key_resp_post_study.rt,key_resp_post_study.started,key_resp_post_study.stopped,test_inst.started,test_inst.stopped,key_resp_test_inst.keys,key_resp_test_inst.rt,key_resp_test_inst.started,key_resp_test_inst.stopped,test_word,test_num,test_order,test_condition,old_new_test,word_color_test,textConf.started,textConf.stopped,Participant Response,textInput.started,textInput.stopped,keyResp.keys,keyResp.rt,keyResp.started,keyResp.stopped,textEnd.started,textEnd.stopped,participant,session,date,expName,psychopyVersion,frameRate,
,,,,,,,,,,,,,,,,32.028687899932265,None,y,1.0856496999040246,32.028687899932265,None,,,,,,,,,,,,,,,,,,,,,,,,,,,,,,,,,,,,,,,,,,,,,,,,,,,,,,,,,,,,,,,,,,,,,,,,,,,,,,,,,,,,,,,,,,,,,,,,,,,,,,,,,,,,,,,,,,,,,,61YA,001,2023_Apr_28_1152,ExactRep-v3-final,2021.2.3,59.941904226918105,
,,,,,,,,,,,,,,,,,,,,,,33.131802200339735,None,a,0.4867292009294033,33.131802200339735,None,,,,,,,,,,,,,,,,,,,,,,,,,,,,,,,,,,,,,,,,,,,,,,,,,,,,,,,,,,,,,,,,,,,,,,,,,,,,,,,,,,,,,,,,,,,,,,,,,,,,,,,,,,,,,,,,61YA,001,2023_Apr_28_1152,ExactRep-v3-final,2021.2.3,59.941904226918105,
,,,,,,,,,,,,,,,,,,,,,,,,,,,,colorfoils,a,space,511.14400659967214,43.7787377005443,None,,,,,,,,,,,,,,,,,,,,,,,,,,,,,,,,,,,,,,,,,,,,,,,,,,,,,,,,,,,,,,,,,,,,,,,,,,,,,,,,,,,,,,,,,,,,,,,,,,,,,,,,,,61YA,001,2023_Apr_28_1152,ExactRep-v3-final,2021.2.3,59.941904226918105,
,,,,,,,,,,,,,,,,,,,,,,,,,,,,,,,,,,33.8219827003777,None,33.8219827003777,None,33.8219827003777,None,33.8219827003777,None,33.8219827003777,None,33.8219827003777,None,space,15.536545200273395,565.1305614998564,None,,,,,,,,,,,,,,,,,,,,,,,,,,,,,,,,,,,,,,,,,,,,,,,,,,,,,,,,,,,,,,,,,,,,,,,,,,,,,,,,,,,,,,,,,,61YA,001,2023_Apr_28_1152,ExactRep-v3-final,2021.2.3,59.941904226918105,
0,0,0,0,,,,,,,,,,,,,,,,,,,,,,,,,,,,,,,,,,,,,,,,,,,,,,,555.1022255998105,None,555.1022255998105,None,555.1022255998105,None,555.1022255998105,None,555.1022255998105,None,555.1022255998105,None,580.7434320002794,None,582.748246899806,None,,,,,,,,,,,,,,,,,,,,,,,,,,,,,,,,,,,,,,,,,,,,,,,,,,,,,,,,,,,,,,,,,,,,,,,,,,61YA,001,2023_Apr_28_1152,ExactRep-v3-final,2021.2.3,59.941904226918105,
1,0,1,0,,,,,,,,,,,,,,,,,,,,,,,,,,,,,,,,,,,,,,,,,,,,,,,,,,,,,,,,,,,583.2672223001719,None,585.2672683000565,None,,,,,,,,,,,,,,,,,,,,,,,,,,,,,,,,,,,,,,,,,,,,,,,,,,,,,,,,,,,,,,,,,,,,,,,,,,61YA,001,2023_Apr_28_1152,ExactRep-v3-final,2021.2.3,59.941904226918105,
2,0,2,0,,,,,,,,,,,,,,,,,,,,,,,,,,,,,,,,,,,,,,,,,,,,,,,,,,,,,,,,,,,585.7676418004557,None,587.7696409998462,None,,,,,,,,,,,,,,,,,,,,,,,,,,,,,,,,,,,,,,,,,,,,,,,,,,,,,,,,,,,,,,,,,,,,,,,,,,61YA,001,2023_Apr_28_1152,ExactRep-v3-final,2021.2.3,59.941904226918105,
3,0,3,0,,,,,,,,,,,,,,,,,,,,,,,,,,,,,,,,,,,,,,,,,,,,,,,,,,,,,,,,,,,588.2843027999625,None,590.2889531003311,None,,,,,,,,,,,,,,,,,,,,,,,,,,,,,,,,,,,,,,,,,,,,,,,,,,,,,,,,,,,,,,,,,,,,,,,,,,61YA,001,2023_Apr_28_1152,ExactRep-v3-final,2021.2.3,59.941904226918105,
4,0,4,0,,,,,,,,,,,,,,,,,,,,,,,,,,,,,,,,,,,,,,,,,,,,,,,,,,,,,,,,,,,590.7892284002155,None,592.7915465999395,None,,,,,,,,,,,,,,,,,,,,,,,,,,,,,,,,,,,,,,,,,,,,,,,,,,,,,,,,,,,,,,,,,,,,,,,,,,61YA,001,2023_Apr_28_1152,ExactRep-v3-final,2021.2.3,59.941904226918105,
5,0,5,0,,,,,,,,,,,,,,,,,,,,,,,,,,,,,,,,,,,,,,,,,,,,,,,,,,,,,,,,,,,593.2954798005521,None,595.3107154006138,None,,,,,,,,,,,,,,,,,,,,,,,,,,,,,,,,,,,,,,,,,,,,,,,,,,,,,,,,,,,,,,,,,,,,,,,,,,61YA,001,2023_Apr_28_1152,ExactRep-v3-final,2021.2.3,59.941904226918105,
6,0,6,0,,,,,,,,,,,,,,,,,,,,,,,,,,,,,,,,,,,,,,,,,,,,,,,,,,,,,,,,,,,595.8114244006574,None,597.8132199998945,None,,,,,,,,,,,,,,,,,,,,,,,,,,,,,,,,,,,,,,,,,,,,,,,,,,,,,,,,,,,,,,,,,,,,,,,,,,61YA,001,2023_Apr_28_1152,ExactRep-v3-final,2021.2.3,59.941904226918105,
7,0,7,0,,,,,,,,,,,,,,,,,,,,,,,,,,,,,,,,,,,,,,,,,,,,,,,,,,,,,,,,,,,598.3173766005784,None,600.332343400456,None,,,,,,,,,,,,,,,,,,,,,,,,,,,,,,,,,,,,,,,,,,,,,,,,,,,,,,,,,,,,,,,,,,,,,,,,,,61YA,001,2023_Apr_28_1152,ExactRep-v3-final,2021.2.3,59.941904226918105,
8,0,8,0,,,,,,,,,,,,,,,,,,,,,,,,,,,,,,,,,,,,,,,,,,,,,,,,,,,,,,,,,,,600.8330041998997,None,602.834607699886,None,,,,,,,,,,,,,,,,,,,,,,,,,,,,,,,,,,,,,,,,,,,,,,,,,,,,,,,,,,,,,,,,,,,,,,,,,,61YA,001,2023_Apr_28_1152,ExactRep-v3-final,2021.2.3,59.941904226918105,
9,0,9,0,,,,,,,,,,,,,,,,,,,,,,,,,,,,,,,,,,,,,,,,,,,,,,,,,,,,,,,,,,,603.3420660998672,None,605.3542824005708,None,,,,,,,,,,,,,,,,,,,,,,,,,,,,,,,,,,,,,,,,,,,,,,,,,,,,,,,,,,,,,,,,,,,,,,,,,,61YA,001,2023_Apr_28_1152,ExactRep-v3-final,2021.2.3,59.941904226918105,
10,0,10,0,,,,,,,,,,,,,,,,,,,,,,,,,,,,,,,,,,,,,,,,,,,,,,,,,,,,,,,,,,,605.8544433005154,None,607.8565467000008,None,,,,,,,,,,,,,,,,,,,,,,,,,,,,,,,,,,,,,,,,,,,,,,,,,,,,,,,,,,,,,,,,,,,,,,,,,,61YA,001,2023_Apr_28_1152,ExactRep-v3-final,2021.2.3,59.941904226918105,
11,0,11,0,,,,,,,,,,,,,,,,,,,,,,,,,,,,,,,,,,,,,,,,,,,,,,,,,,,,,,,,,,,608.3584261005744,None,610.3591758003458,None,,,,,,,,,,,,,,,,,,,,,,,,,,,,,,,,,,,,,,,,,,,,,,,,,,,,,,,,,,,,,,,,,,,,,,,,,,61YA,001,2023_Apr_28_1152,ExactRep-v3-final,2021.2.3,59.941904226918105,
12,0,12,0,,,,,,,,,,,,,,,,,,,,,,,,,,,,,,,,,,,,,,,,,,,,,,,,,,,,,,,,,,,610.8619022006169,None,612.8613815000281,None,,,,,,,,,,,,,,,,,,,,,,,,,,,,,,,,,,,,,,,,,,,,,,,,,,,,,,,,,,,,,,,,,,,,,,,,,,61YA,001,2023_Apr_28_1152,ExactRep-v3-final,2021.2.3,59.941904226918105,
13,0,13,0,,,,,,,,,,,,,,,,,,,,,,,,,,,,,,,,,,,,,,,,,,,,,,,,,,,,,,,,,,,613.3618627004325,None,615.3642078004777,None,,,,,,,,,,,,,,,,,,,,,,,,,,,,,,,,,,,,,,,,,,,,,,,,,,,,,,,,,,,,,,,,,,,,,,,,,,61YA,001,2023_Apr_28_1152,ExactRep-v3-final,2021.2.3,59.941904226918105,
14,0,14,0,,,,,,,,,,,,,,,,,,,,,,,,,,,,,,,,,,,,,,,,,,,,,,,,,,,,,,,,,,,615.8647928005084,None,617.8661927999929,None,,,,,,,,,,,,,,,,,,,,,,,,,,,,,,,,,,,,,,,,,,,,,,,,,,,,,,,,,,,,,,,,,,,,,,,,,,61YA,001,2023_Apr_28_1152,ExactRep-v3-final,2021.2.3,59.941904226918105,
,,,,,,,,,,,,,,,,,,,,,,,,,,,,,,,,,,,,,,,,,,,,,,,,,,,,,,,,,,,,,,,,,,space,15.718694999814034,628.4919421998784,None,,,,,,,,,,,,,,,,,,,,,,,,,,,,,,,,,,,,,,,,,,,,,,,,,,,,,,,,,,,,,,,,,,,,,,61YA,001,2023_Apr_28_1152,ExactRep-v3-final,2021.2.3,59.941904226918105,
,,,,0,0,0,0,,,,,,,,,,,,,,,,,,,,,,,,,,,,,,,,,,,,,,,,,,,,,,,,,,,,,,,,,646.3283663000911,None,,,,,618.5052000004798,None,618.5052000004798,None,618.5052000004798,None,618.5052000004798,None,618.5052000004798,None,618.5052000004798,None,644.3255679002032,None,,,,,,,,,,,,,,,,,,,,,,,,,,,,,,,,,,,,,,,,,,,,,,,,,,,,,,,,61YA,001,2023_Apr_28_1152,ExactRep-v3-final,2021.2.3,59.941904226918105,
,,,,1,0,1,0,,,,,,,,,,,,,,,,,,,,,,,,,,,,,,,,,,,,,,,,,,,,,,,,,,,,,,,,,648.8308186000213,None,,,,,,,,,,,,,,,,,646.8287620004267,None,,,,,,,,,,,,,,,,,,,,,,,,,,,,,,,,,,,,,,,,,,,,,,,,,,,,,,,,61YA,001,2023_Apr_28_1152,ExactRep-v3-final,2021.2.3,59.941904226918105,
,,,,2,0,2,0,,,,,,,,,,,,,,,,,,,,,,,,,,,,,,,,,,,,,,,,,,,,,,,,,,,,,,,,,651.333511300385,None,,,,,,,,,,,,,,,,,649.33136020042,None,,,,,,,,,,,,,,,,,,,,,,,,,,,,,,,,,,,,,,,,,,,,,,,,,,,,,,,,61YA,001,2023_Apr_28_1152,ExactRep-v3-final,2021.2.3,59.941904226918105,
,,,,3,0,3,0,,,,,,,,,,,,,,,,,,,,,,,,,,,,,,,,,,,,,,,,,,,,,,,,,,,,,,,,,653.8358918000013,None,,,,,,,,,,,,,,,,,651.8338967999443,None,,,,,,,,,,,,,,,,,,,,,,,,,,,,,,,,,,,,,,,,,,,,,,,,,,,,,,,,61YA,001,2023_Apr_28_1152,ExactRep-v3-final,2021.2.3,59.941904226918105,
,,,,4,0,4,0,,,,,,,,,,,,,,,,,,,,,,,,,,,,,,,,,,,,,,,,,,,,,,,,,,,,,,,,,656.3383821006864,None,,,,,,,,,,,,,,,,,654.3363864999264,None,,,,,,,,,,,,,,,,,,,,,,,,,,,,,,,,,,,,,,,,,,,,,,,,,,,,,,,,61YA,001,2023_Apr_28_1152,ExactRep-v3-final,2021.2.3,59.941904226918105,
,,,,5,0,5,0,,,,,,,,,,,,,,,,,,,,,,,,,,,,,,,,,,,,,,,,,,,,,,,,,,,,,,,,,658.8409096002579,None,,,,,,,,,,,,,,,,,656.8388796001673,None,,,,,,,,,,,,,,,,,,,,,,,,,,,,,,,,,,,,,,,,,,,,,,,,,,,,,,,,61YA,001,2023_Apr_28_1152,ExactRep-v3-final,2021.2.3,59.941904226918105,
,,,,6,0,6,0,,,,,,,,,,,,,,,,,,,,,,,,,,,,,,,,,,,,,,,,,,,,,,,,,,,,,,,,,661.3433316005394,None,,,,,,,,,,,,,,,,,659.3413623999804,None,,,,,,,,,,,,,,,,,,,,,,,,,,,,,,,,,,,,,,,,,,,,,,,,,,,,,,,,61YA,001,2023_Apr_28_1152,ExactRep-v3-final,2021.2.3,59.941904226918105,
,,,,7,0,7,0,,,,,,,,,,,,,,,,,,,,,,,,,,,,,,,,,,,,,,,,,,,,,,,,,,,,,,,,,663.845859600231,None,,,,,,,,,,,,,,,,,661.843882500194,None,,,,,,,,,,,,,,,,,,,,,,,,,,,,,,,,,,,,,,,,,,,,,,,,,,,,,,,,61YA,001,2023_Apr_28_1152,ExactRep-v3-final,2021.2.3,59.941904226918105,
,,,,8,0,8,0,,,,,,,,,,,,,,,,,,,,,,,,,,,,,,,,,,,,,,,,,,,,,,,,,,,,,,,,,666.3483993001282,None,,,,,,,,,,,,,,,,,664.3464101003483,None,,,,,,,,,,,,,,,,,,,,,,,,,,,,,,,,,,,,,,,,,,,,,,,,,,,,,,,,61YA,001,2023_Apr_28_1152,ExactRep-v3-final,2021.2.3,59.941904226918105,
,,,,9,0,9,0,,,,,,,,,,,,,,,,,,,,,,,,,,,,,,,,,,,,,,,,,,,,,,,,,,,,,,,,,668.8505332004279,None,,,,,,,,,,,,,,,,,666.848988099955,None,,,,,,,,,,,,,,,,,,,,,,,,,,,,,,,,,,,,,,,,,,,,,,,,,,,,,,,,61YA,001,2023_Apr_28_1152,ExactRep-v3-final,2021.2.3,59.941904226918105,
,,,,10,0,10,0,,,,,,,,,,,,,,,,,,,,,,,,,,,,,,,,,,,,,,,,,,,,,,,,,,,,,,,,,671.3533207001165,None,,,,,,,,,,,,,,,,,669.3510520001873,None,,,,,,,,,,,,,,,,,,,,,,,,,,,,,,,,,,,,,,,,,,,,,,,,,,,,,,,,61YA,001,2023_Apr_28_1152,ExactRep-v3-final,2021.2.3,59.941904226918105,
,,,,11,0,11,0,,,,,,,,,,,,,,,,,,,,,,,,,,,,,,,,,,,,,,,,,,,,,,,,,,,,,,,,,673.8554934998974,None,,,,,,,,,,,,,,,,,671.8538966998458,None,,,,,,,,,,,,,,,,,,,,,,,,,,,,,,,,,,,,,,,,,,,,,,,,,,,,,,,,61YA,001,2023_Apr_28_1152,ExactRep-v3-final,2021.2.3,59.941904226918105,
,,,,12,0,12,0,,,,,,,,,,,,,,,,,,,,,,,,,,,,,,,,,,,,,,,,,,,,,,,,,,,,,,,,,676.358356400393,None,,,,,,,,,,,,,,,,,674.3564336998388,None,,,,,,,,,,,,,,,,,,,,,,,,,,,,,,,,,,,,,,,,,,,,,,,,,,,,,,,,61YA,001,2023_Apr_28_1152,ExactRep-v3-final,2021.2.3,59.941904226918105,
,,,,13,0,13,0,,,,,,,,,,,,,,,,,,,,,,,,,,,,,,,,,,,,,,,,,,,,,,,,,,,,,,,,,678.8609123006463,None,,,,,,,,,,,,,,,,,676.8589019002393,None,,,,,,,,,,,,,,,,,,,,,,,,,,,,,,,,,,,,,,,,,,,,,,,,,,,,,,,,61YA,001,2023_Apr_28_1152,ExactRep-v3-final,2021.2.3,59.941904226918105,
,,,,14,0,14,0,,,,,,,,,,,,,,,,,,,,,,,,,,,,,,,,,,,,,,,,,,,,,,,,,,,,,,,,,681.3634250005707,None,,,,,,,,,,,,,,,,,679.3615642003715,None,,,,,,,,,,,,,,,,,,,,,,,,,,,,,,,,,,,,,,,,,,,,,,,,,,,,,,,,61YA,001,2023_Apr_28_1152,ExactRep-v3-final,2021.2.3,59.941904226918105,
,,,,,,,,,,,,,,,,,,,,,,,,,,,,,,,,,,,,,,,,,,,,,,,,,,,,,,,,,,,,,,,,,,,,,,,,,,,,,,,,,,,,space,23.721002399921417,691.9698045002297,None,,,,,,,,,,,,,,,,,,,,,,,,,,,,,,,,,,,,,,,,,,,,,,,,,,,,61YA,001,2023_Apr_28_1152,ExactRep-v3-final,2021.2.3,59.941904226918105,
,,,,,,,,0,0,0,0,,,,,,,,,,,,,,,,,,,,,,,,,,,,,,,,,,,,,,,,,,,,,,,,,,,,,717.7996533000842,None,,,,,,,,,,,,,,,,,,,,,,,682.0253606000915,None,682.0253606000915,None,682.0253606000915,None,682.0253606000915,None,682.0253606000915,None,682.0253606000915,None,meadow,5,1,sing,white,715.7883492000401,None,None,715.7883492000401,None,,,,,,,,,,,,,,,,,,,,,,,,,,,,,,61YA,001,2023_Apr_28_1152,ExactRep-v3-final,2021.2.3,59.941904226918105,
,,,,,,,,1,0,1,0,,,,,,,,,,,,,,,,,,,,,,,,,,,,,,,,,,,,,,,,,,,,,,,,,,,,,720.302349800244,None,,,,,,,,,,,,,,,,,,,,,,,,,,,,,,,,,,,health,16,2,sing,white,718.302846999839,None,None,718.302846999839,None,,,,,,,,,,,,,,,,,,,,,,,,,,,,,,61YA,001,2023_Apr_28_1152,ExactRep-v3-final,2021.2.3,59.941904226918105,
,,,,,,,,2,0,2,0,,,,,,,,,,,,,,,,,,,,,,,,,,,,,,,,,,,,,,,,,,,,,,,,,,,,,722.8214829005301,None,,,,,,,,,,,,,,,,,,,,,,,,,,,,,,,,,,,corn,45,3,silent,blue,720.8098651003093,None,None,720.8098651003093,None,,,,,,,,,,,,,,,,,,,,,,,,,,,,,,61YA,001,2023_Apr_28_1152,ExactRep-v3-final,2021.2.3,59.941904226918105,
,,,,,,,,3,0,3,0,,,,,,,,,,,,,,,,,,,,,,,,,,,,,,,,,,,,,,,,,,,,,,,,,,,,,725.3239877000451,None,,,,,,,,,,,,,,,,,,,,,,,,,,,,,,,,,,,humour,11,4,sing,white,723.3219792004675,None,None,723.3219792004675,None,,,,,,,,,,,,,,,,,,,,,,,,,,,,,,61YA,001,2023_Apr_28_1152,ExactRep-v3-final,2021.2.3,59.941904226918105,
,,,,,,,,4,0,4,0,,,,,,,,,,,,,,,,,,,,,,,,,,,,,,,,,,,,,,,,,,,,,,,,,,,,,727.8432387001812,None,,,,,,,,,,,,,,,,,,,,,,,,,,,,,,,,,,,justice,101,5,aloud,red,725.8309623003006,None,None,725.8309623003006,None,,,,,,,,,,,,,,,,,,,,,,,,,,,,,,61YA,001,2023_Apr_28_1152,ExactRep-v3-final,2021.2.3,59.941904226918105,
,,,,,,,,5,0,5,0,,,,,,,,,,,,,,,,,,,,,,,,,,,,,,,,,,,,,,,,,,,,,,,,,,,,,730.3621760997921,None,,,,,,,,,,,,,,,,,,,,,,,,,,,,,,,,,,,origin,93,6,aloud,red,728.3483910001814,None,None,728.3483910001814,None,,,,,,,,,,,,,,,,,,,,,,,,,,,,,,61YA,001,2023_Apr_28_1152,ExactRep-v3-final,2021.2.3,59.941904226918105,
,,,,,,,,6,0,6,0,,,,,,,,,,,,,,,,,,,,,,,,,,,,,,,,,,,,,,,,,,,,,,,,,,,,,732.8813562998548,None,,,,,,,,,,,,,,,,,,,,,,,,,,,,,,,,,,,silence,114,7,aloud,red,730.8671377003193,None,None,730.8671377003193,None,,,,,,,,,,,,,,,,,,,,,,,,,,,,,,61YA,001,2023_Apr_28_1152,ExactRep-v3-final,2021.2.3,59.941904226918105,
,,,,,,,,7,0,7,0,,,,,,,,,,,,,,,,,,,,,,,,,,,,,,,,,,,,,,,,,,,,,,,,,,,,,735.3840593006462,None,,,,,,,,,,,,,,,,,,,,,,,,,,,,,,,,,,,flag,89,8,aloud,red,733.381927200593,None,None,733.381927200593,None,,,,,,,,,,,,,,,,,,,,,,,,,,,,,,61YA,001,2023_Apr_28_1152,ExactRep-v3-final,2021.2.3,59.941904226918105,
,,,,,,,,8,0,8,0,,,,,,,,,,,,,,,,,,,,,,,,,,,,,,,,,,,,,,,,,,,,,,,,,,,,,737.8866201005876,None,,,,,,,,,,,,,,,,,,,,,,,,,,,,,,,,,,,girl,55,9,silent,blue,735.8864467004314,None,None,735.8864467004314,None,,,,,,,,,,,,,,,,,,,,,,,,,,,,,,61YA,001,2023_Apr_28_1152,ExactRep-v3-final,2021.2.3,59.941904226918105,
,,,,,,,,9,0,9,0,,,,,,,,,,,,,,,,,,,,,,,,,,,,,,,,,,,,,,,,,,,,,,,,,,,,,740.3888643998653,None,,,,,,,,,,,,,,,,,,,,,,,,,,,,,,,,,,,answer,37,10,sing,white,738.3886780003086,None,None,738.3886780003086,None,,,,,,,,,,,,,,,,,,,,,,,,,,,,,,61YA,001,2023_Apr_28_1152,ExactRep-v3-final,2021.2.3,59.941904226918105,
,,,,,,,,10,0,10,0,,,,,,,,,,,,,,,,,,,,,,,,,,,,,,,,,,,,,,,,,,,,,,,,,,,,,742.9082535002381,None,,,,,,,,,,,,,,,,,,,,,,,,,,,,,,,,,,,slave,71,11,silent,blue,740.8938515000045,None,None,740.8938515000045,None,,,,,,,,,,,,,,,,,,,,,,,,,,,,,,61YA,001,2023_Apr_28_1152,ExactRep-v3-final,2021.2.3,59.941904226918105,
,,,,,,,,11,0,11,0,,,,,,,,,,,,,,,,,,,,,,,,,,,,,,,,,,,,,,,,,,,,,,,,,,,,,745.4105064999312,None,,,,,,,,,,,,,,,,,,,,,,,,,,,,,,,,,,,city,96,12,aloud,red,743.4086060998961,None,None,743.4086060998961,None,,,,,,,,,,,,,,,,,,,,,,,,,,,,,,61YA,001,2023_Apr_28_1152,ExactRep-v3-final,2021.2.3,59.941904226918105,
,,,,,,,,12,0,12,0,,,,,,,,,,,,,,,,,,,,,,,,,,,,,,,,,,,,,,,,,,,,,,,,,,,,,747.9130000006407,None,,,,,,,,,,,,,,,,,,,,,,,,,,,,,,,,,,,library,73,13,silent,blue,745.9110564002767,None,None,745.9110564002767,None,,,,,,,,,,,,,,,,,,,,,,,,,,,,,,61YA,001,2023_Apr_28_1152,ExactRep-v3-final,2021.2.3,59.941904226918105,
,,,,,,,,13,0,13,0,,,,,,,,,,,,,,,,,,,,,,,,,,,,,,,,,,,,,,,,,,,,,,,,,,,,,750.4156512003392,None,,,,,,,,,,,,,,,,,,,,,,,,,,,,,,,,,,,memory,90,14,aloud,red,748.4137337002903,None,None,748.4137337002903,None,,,,,,,,,,,,,,,,,,,,,,,,,,,,,,61YA,001,2023_Apr_28_1152,ExactRep-v3-final,2021.2.3,59.941904226918105,
,,,,,,,,14,0,14,0,,,,,,,,,,,,,,,,,,,,,,,,,,,,,,,,,,,,,,,,,,,,,,,,,,,,,752.9180642999709,None,,,,,,,,,,,,,,,,,,,,,,,,,,,,,,,,,,,air,118,15,aloud,red,750.916388399899,None,None,750.916388399899,None,,,,,,,,,,,,,,,,,,,,,,,,,,,,,,61YA,001,2023_Apr_28_1152,ExactRep-v3-final,2021.2.3,59.941904226918105,
,,,,,,,,15,0,15,0,,,,,,,,,,,,,,,,,,,,,,,,,,,,,,,,,,,,,,,,,,,,,,,,,,,,,755.4205761998892,None,,,,,,,,,,,,,,,,,,,,,,,,,,,,,,,,,,,shoes,50,16,silent,blue,753.4186534006149,None,None,753.4186534006149,None,,,,,,,,,,,,,,,,,,,,,,,,,,,,,,61YA,001,2023_Apr_28_1152,ExactRep-v3-final,2021.2.3,59.941904226918105,
,,,,,,,,16,0,16,0,,,,,,,,,,,,,,,,,,,,,,,,,,,,,,,,,,,,,,,,,,,,,,,,,,,,,757.9231119006872,None,,,,,,,,,,,,,,,,,,,,,,,,,,,,,,,,,,,dollar,77,17,silent,blue,755.9238195000216,None,None,755.9238195000216,None,,,,,,,,,,,,,,,,,,,,,,,,,,,,,,61YA,001,2023_Apr_28_1152,ExactRep-v3-final,2021.2.3,59.941904226918105,
,,,,,,,,17,0,17,0,,,,,,,,,,,,,,,,,,,,,,,,,,,,,,,,,,,,,,,,,,,,,,,,,,,,,760.4421423999593,None,,,,,,,,,,,,,,,,,,,,,,,,,,,,,,,,,,,bottle,26,18,sing,white,758.4273161999881,None,None,758.4273161999881,None,,,,,,,,,,,,,,,,,,,,,,,,,,,,,,61YA,001,2023_Apr_28_1152,ExactRep-v3-final,2021.2.3,59.941904226918105,
,,,,,,,,18,0,18,0,,,,,,,,,,,,,,,,,,,,,,,,,,,,,,,,,,,,,,,,,,,,,,,,,,,,,762.944744899869,None,,,,,,,,,,,,,,,,,,,,,,,,,,,,,,,,,,,circle,104,19,aloud,red,760.9453338002786,None,None,760.9453338002786,None,,,,,,,,,,,,,,,,,,,,,,,,,,,,,,61YA,001,2023_Apr_28_1152,ExactRep-v3-final,2021.2.3,59.941904226918105,
,,,,,,,,19,0,19,0,,,,,,,,,,,,,,,,,,,,,,,,,,,,,,,,,,,,,,,,,,,,,,,,,,,,,765.4472654005513,None,,,,,,,,,,,,,,,,,,,,,,,,,,,,,,,,,,,wife,65,20,silent,blue,763.4453309997916,None,None,763.4453309997916,None,,,,,,,,,,,,,,,,,,,,,,,,,,,,,,61YA,001,2023_Apr_28_1152,ExactRep-v3-final,2021.2.3,59.941904226918105,
,,,,,,,,20,0,20,0,,,,,,,,,,,,,,,,,,,,,,,,,,,,,,,,,,,,,,,,,,,,,,,,,,,,,767.9499837001786,None,,,,,,,,,,,,,,,,,,,,,,,,,,,,,,,,,,,water,119,21,aloud,red,765.9478246998042,None,None,765.9478246998042,None,,,,,,,,,,,,,,,,,,,,,,,,,,,,,,61YA,001,2023_Apr_28_1152,ExactRep-v3-final,2021.2.3,59.941904226918105,
,,,,,,,,21,0,21,0,,,,,,,,,,,,,,,,,,,,,,,,,,,,,,,,,,,,,,,,,,,,,,,,,,,,,770.4691845001653,None,,,,,,,,,,,,,,,,,,,,,,,,,,,,,,,,,,,flesh,53,22,silent,blue,768.4536827001721,None,None,768.4536827001721,None,,,,,,,,,,,,,,,,,,,,,,,,,,,,,,61YA,001,2023_Apr_28_1152,ExactRep-v3-final,2021.2.3,59.941904226918105,
,,,,,,,,22,0,22,0,,,,,,,,,,,,,,,,,,,,,,,,,,,,,,,,,,,,,,,,,,,,,,,,,,,,,772.9714691005647,None,,,,,,,,,,,,,,,,,,,,,,,,,,,,,,,,,,,machine,108,23,aloud,red,770.9694870002568,None,None,770.9694870002568,None,,,,,,,,,,,,,,,,,,,,,,,,,,,,,,61YA,001,2023_Apr_28_1152,ExactRep-v3-final,2021.2.3,59.941904226918105,
,,,,,,,,23,0,23,0,,,,,,,,,,,,,,,,,,,,,,,,,,,,,,,,,,,,,,,,,,,,,,,,,,,,,775.474184400402,None,,,,,,,,,,,,,,,,,,,,,,,,,,,,,,,,,,,rock,86,24,aloud,red,773.4742406001315,None,None,773.4742406001315,None,,,,,,,,,,,,,,,,,,,,,,,,,,,,,,61YA,001,2023_Apr_28_1152,ExactRep-v3-final,2021.2.3,59.941904226918105,
,,,,,,,,24,0,24,0,,,,,,,,,,,,,,,,,,,,,,,,,,,,,,,,,,,,,,,,,,,,,,,,,,,,,777.976613599807,None,,,,,,,,,,,,,,,,,,,,,,,,,,,,,,,,,,,history,32,25,sing,white,775.9745033998042,None,None,775.9745033998042,None,,,,,,,,,,,,,,,,,,,,,,,,,,,,,,61YA,001,2023_Apr_28_1152,ExactRep-v3-final,2021.2.3,59.941904226918105,
,,,,,,,,25,0,25,0,,,,,,,,,,,,,,,,,,,,,,,,,,,,,,,,,,,,,,,,,,,,,,,,,,,,,780.4958104006946,None,,,,,,,,,,,,,,,,,,,,,,,,,,,,,,,,,,,woman,94,26,aloud,red,778.4825023002923,None,None,778.4825023002923,None,,,,,,,,,,,,,,,,,,,,,,,,,,,,,,61YA,001,2023_Apr_28_1152,ExactRep-v3-final,2021.2.3,59.941904226918105,
,,,,,,,,26,0,26,0,,,,,,,,,,,,,,,,,,,,,,,,,,,,,,,,,,,,,,,,,,,,,,,,,,,,,782.9981473004445,None,,,,,,,,,,,,,,,,,,,,,,,,,,,,,,,,,,,style,56,27,silent,blue,780.9970575002953,None,None,780.9970575002953,None,,,,,,,,,,,,,,,,,,,,,,,,,,,,,,61YA,001,2023_Apr_28_1152,ExactRep-v3-final,2021.2.3,59.941904226918105,
,,,,,,,,27,0,27,0,,,,,,,,,,,,,,,,,,,,,,,,,,,,,,,,,,,,,,,,,,,,,,,,,,,,,785.5174898002297,None,,,,,,,,,,,,,,,,,,,,,,,,,,,,,,,,,,,board,87,28,aloud,red,783.5033479006961,None,None,783.5033479006961,None,,,,,,,,,,,,,,,,,,,,,,,,,,,,,,61YA,001,2023_Apr_28_1152,ExactRep-v3-final,2021.2.3,59.941904226918105,
,,,,,,,,28,0,28,0,,,,,,,,,,,,,,,,,,,,,,,,,,,,,,,,,,,,,,,,,,,,,,,,,,,,,788.0200613001361,None,,,,,,,,,,,,,,,,,,,,,,,,,,,,,,,,,,,car,107,29,aloud,red,786.0194481005892,None,None,786.0194481005892,None,,,,,,,,,,,,,,,,,,,,,,,,,,,,,,61YA,001,2023_Apr_28_1152,ExactRep-v3-final,2021.2.3,59.941904226918105,
,,,,,,,,29,0,29,0,,,,,,,,,,,,,,,,,,,,,,,,,,,,,,,,,,,,,,,,,,,,,,,,,,,,,790.5392022002488,None,,,,,,,,,,,,,,,,,,,,,,,,,,,,,,,,,,,gold,97,30,aloud,red,788.5244248006493,None,None,788.5244248006493,None,,,,,,,,,,,,,,,,,,,,,,,,,,,,,,61YA,001,2023_Apr_28_1152,ExactRep-v3-final,2021.2.3,59.941904226918105,
,,,,,,,,30,0,30,0,,,,,,,,,,,,,,,,,,,,,,,,,,,,,,,,,,,,,,,,,,,,,,,,,,,,,793.0583963999525,None,,,,,,,,,,,,,,,,,,,,,,,,,,,,,,,,,,,table,24,31,sing,white,791.0497783003375,None,None,791.0497783003375,None,,,,,,,,,,,,,,,,,,,,,,,,,,,,,,61YA,001,2023_Apr_28_1152,ExactRep-v3-final,2021.2.3,59.941904226918105,
,,,,,,,,31,0,31,0,,,,,,,,,,,,,,,,,,,,,,,,,,,,,,,,,,,,,,,,,,,,,,,,,,,,,795.5609259000048,None,,,,,,,,,,,,,,,,,,,,,,,,,,,,,,,,,,,effort,17,32,sing,white,793.5588988000527,None,None,793.5588988000527,None,,,,,,,,,,,,,,,,,,,,,,,,,,,,,,61YA,001,2023_Apr_28_1152,ExactRep-v3-final,2021.2.3,59.941904226918105,
,,,,,,,,32,0,32,0,,,,,,,,,,,,,,,,,,,,,,,,,,,,,,,,,,,,,,,,,,,,,,,,,,,,,798.067184000276,None,,,,,,,,,,,,,,,,,,,,,,,,,,,,,,,,,,,fur,63,33,silent,blue,796.0635162005201,None,None,796.0635162005201,None,,,,,,,,,,,,,,,,,,,,,,,,,,,,,,61YA,001,2023_Apr_28_1152,ExactRep-v3-final,2021.2.3,59.941904226918105,
,,,,,,,,33,0,33,0,,,,,,,,,,,,,,,,,,,,,,,,,,,,,,,,,,,,,,,,,,,,,,,,,,,,,800.5991278002039,None,,,,,,,,,,,,,,,,,,,,,,,,,,,,,,,,,,,animal,78,34,silent,blue,798.5862976005301,None,None,798.5862976005301,None,,,,,,,,,,,,,,,,,,,,,,,,,,,,,,61YA,001,2023_Apr_28_1152,ExactRep-v3-final,2021.2.3,59.941904226918105,
,,,,,,,,34,0,34,0,,,,,,,,,,,,,,,,,,,,,,,,,,,,,,,,,,,,,,,,,,,,,,,,,,,,,803.1015627998859,None,,,,,,,,,,,,,,,,,,,,,,,,,,,,,,,,,,,leader,109,35,aloud,red,801.0996620999649,None,None,801.0996620999649,None,,,,,,,,,,,,,,,,,,,,,,,,,,,,,,61YA,001,2023_Apr_28_1152,ExactRep-v3-final,2021.2.3,59.941904226918105,
,,,,,,,,35,0,35,0,,,,,,,,,,,,,,,,,,,,,,,,,,,,,,,,,,,,,,,,,,,,,,,,,,,,,805.604241900146,None,,,,,,,,,,,,,,,,,,,,,,,,,,,,,,,,,,,iron,49,36,silent,blue,803.6042601000518,None,None,803.6042601000518,None,,,,,,,,,,,,,,,,,,,,,,,,,,,,,,61YA,001,2023_Apr_28_1152,ExactRep-v3-final,2021.2.3,59.941904226918105,
,,,,,,,,36,0,36,0,,,,,,,,,,,,,,,,,,,,,,,,,,,,,,,,,,,,,,,,,,,,,,,,,,,,,808.1068454999477,None,,,,,,,,,,,,,,,,,,,,,,,,,,,,,,,,,,,murder,110,37,aloud,red,806.1050762003288,None,None,806.1050762003288,None,,,,,,,,,,,,,,,,,,,,,,,,,,,,,,61YA,001,2023_Apr_28_1152,ExactRep-v3-final,2021.2.3,59.941904226918105,
,,,,,,,,37,0,37,0,,,,,,,,,,,,,,,,,,,,,,,,,,,,,,,,,,,,,,,,,,,,,,,,,,,,,810.6102603003383,None,,,,,,,,,,,,,,,,,,,,,,,,,,,,,,,,,,,factory,113,38,aloud,red,808.6101890997961,None,None,808.6101890997961,None,,,,,,,,,,,,,,,,,,,,,,,,,,,,,,61YA,001,2023_Apr_28_1152,ExactRep-v3-final,2021.2.3,59.941904226918105,
,,,,,,,,38,0,38,0,,,,,,,,,,,,,,,,,,,,,,,,,,,,,,,,,,,,,,,,,,,,,,,,,,,,,813.1118409000337,None,,,,,,,,,,,,,,,,,,,,,,,,,,,,,,,,,,,cotton,33,39,sing,white,811.1096574999392,None,None,811.1096574999392,None,,,,,,,,,,,,,,,,,,,,,,,,,,,,,,61YA,001,2023_Apr_28_1152,ExactRep-v3-final,2021.2.3,59.941904226918105,
,,,,,,,,39,0,39,0,,,,,,,,,,,,,,,,,,,,,,,,,,,,,,,,,,,,,,,,,,,,,,,,,,,,,815.6310108006,None,,,,,,,,,,,,,,,,,,,,,,,,,,,,,,,,,,,queen,74,40,silent,blue,813.6187116000801,None,None,813.6187116000801,None,,,,,,,,,,,,,,,,,,,,,,,,,,,,,,61YA,001,2023_Apr_28_1152,ExactRep-v3-final,2021.2.3,59.941904226918105,
,,,,,,,,40,0,40,0,,,,,,,,,,,,,,,,,,,,,,,,,,,,,,,,,,,,,,,,,,,,,,,,,,,,,818.1335812006146,None,,,,,,,,,,,,,,,,,,,,,,,,,,,,,,,,,,,hide,64,41,silent,blue,816.1323318006471,None,None,816.1323318006471,None,,,,,,,,,,,,,,,,,,,,,,,,,,,,,,61YA,001,2023_Apr_28_1152,ExactRep-v3-final,2021.2.3,59.941904226918105,
,,,,,,,,41,0,41,0,,,,,,,,,,,,,,,,,,,,,,,,,,,,,,,,,,,,,,,,,,,,,,,,,,,,,820.6360062006861,None,,,,,,,,,,,,,,,,,,,,,,,,,,,,,,,,,,,book,39,42,silent,blue,818.6338945999742,None,None,818.6338945999742,None,,,,,,,,,,,,,,,,,,,,,,,,,,,,,,61YA,001,2023_Apr_28_1152,ExactRep-v3-final,2021.2.3,59.941904226918105,
,,,,,,,,42,0,42,0,,,,,,,,,,,,,,,,,,,,,,,,,,,,,,,,,,,,,,,,,,,,,,,,,,,,,823.1551729002967,None,,,,,,,,,,,,,,,,,,,,,,,,,,,,,,,,,,,ticket,18,43,sing,white,821.1435916004702,None,None,821.1435916004702,None,,,,,,,,,,,,,,,,,,,,,,,,,,,,,,61YA,001,2023_Apr_28_1152,ExactRep-v3-final,2021.2.3,59.941904226918105,
,,,,,,,,43,0,43,0,,,,,,,,,,,,,,,,,,,,,,,,,,,,,,,,,,,,,,,,,,,,,,,,,,,,,825.6577451005578,None,,,,,,,,,,,,,,,,,,,,,,,,,,,,,,,,,,,tree,62,44,silent,blue,823.6556488005444,None,None,823.6556488005444,None,,,,,,,,,,,,,,,,,,,,,,,,,,,,,,61YA,001,2023_Apr_28_1152,ExactRep-v3-final,2021.2.3,59.941904226918105,
,,,,,,,,44,0,44,0,,,,,,,,,,,,,,,,,,,,,,,,,,,,,,,,,,,,,,,,,,,,,,,,,,,,,828.1600307002664,None,,,,,,,,,,,,,,,,,,,,,,,,,,,,,,,,,,,butter,44,45,silent,blue,826.1591009004042,None,None,826.1591009004042,None,,,,,,,,,,,,,,,,,,,,,,,,,,,,,,61YA,001,2023_Apr_28_1152,ExactRep-v3-final,2021.2.3,59.941904226918105,
,,,,,,,,45,0,45,0,,,,,,,,,,,,,,,,,,,,,,,,,,,,,,,,,,,,,,,,,,,,,,,,,,,,,830.680014600046,None,,,,,,,,,,,,,,,,,,,,,,,,,,,,,,,,,,,hope,42,46,silent,blue,828.6654115002602,None,None,828.6654115002602,None,,,,,,,,,,,,,,,,,,,,,,,,,,,,,,61YA,001,2023_Apr_28_1152,ExactRep-v3-final,2021.2.3,59.941904226918105,
,,,,,,,,46,0,46,0,,,,,,,,,,,,,,,,,,,,,,,,,,,,,,,,,,,,,,,,,,,,,,,,,,,,,833.1983588002622,None,,,,,,,,,,,,,,,,,,,,,,,,,,,,,,,,,,,beast,75,47,silent,blue,831.1879266006872,None,None,831.1879266006872,None,,,,,,,,,,,,,,,,,,,,,,,,,,,,,,61YA,001,2023_Apr_28_1152,ExactRep-v3-final,2021.2.3,59.941904226918105,
,,,,,,,,47,0,47,0,,,,,,,,,,,,,,,,,,,,,,,,,,,,,,,,,,,,,,,,,,,,,,,,,,,,,835.7010896001011,None,,,,,,,,,,,,,,,,,,,,,,,,,,,,,,,,,,,safety,6,48,sing,white,833.6988892005756,None,None,833.6988892005756,None,,,,,,,,,,,,,,,,,,,,,,,,,,,,,,61YA,001,2023_Apr_28_1152,ExactRep-v3-final,2021.2.3,59.941904226918105,
,,,,,,,,48,0,48,0,,,,,,,,,,,,,,,,,,,,,,,,,,,,,,,,,,,,,,,,,,,,,,,,,,,,,838.2202126998454,None,,,,,,,,,,,,,,,,,,,,,,,,,,,,,,,,,,,grass,88,49,aloud,red,836.2048160005361,None,None,836.2048160005361,None,,,,,,,,,,,,,,,,,,,,,,,,,,,,,,61YA,001,2023_Apr_28_1152,ExactRep-v3-final,2021.2.3,59.941904226918105,
,,,,,,,,49,0,49,0,,,,,,,,,,,,,,,,,,,,,,,,,,,,,,,,,,,,,,,,,,,,,,,,,,,,,840.7227508006617,None,,,,,,,,,,,,,,,,,,,,,,,,,,,,,,,,,,,skin,7,50,sing,white,838.721813400276,None,None,838.721813400276,None,,,,,,,,,,,,,,,,,,,,,,,,,,,,,,61YA,001,2023_Apr_28_1152,ExactRep-v3-final,2021.2.3,59.941904226918105,
,,,,,,,,50,0,50,0,,,,,,,,,,,,,,,,,,,,,,,,,,,,,,,,,,,,,,,,,,,,,,,,,,,,,843.2422742005438,None,,,,,,,,,,,,,,,,,,,,,,,,,,,,,,,,,,,officer,14,51,sing,white,841.2269691005349,None,None,841.2269691005349,None,,,,,,,,,,,,,,,,,,,,,,,,,,,,,,61YA,001,2023_Apr_28_1152,ExactRep-v3-final,2021.2.3,59.941904226918105,
,,,,,,,,51,0,51,0,,,,,,,,,,,,,,,,,,,,,,,,,,,,,,,,,,,,,,,,,,,,,,,,,,,,,845.7445017006248,None,,,,,,,,,,,,,,,,,,,,,,,,,,,,,,,,,,,fault,29,52,sing,white,843.7423903997988,None,None,843.7423903997988,None,,,,,,,,,,,,,,,,,,,,,,,,,,,,,,61YA,001,2023_Apr_28_1152,ExactRep-v3-final,2021.2.3,59.941904226918105,
,,,,,,,,52,0,52,0,,,,,,,,,,,,,,,,,,,,,,,,,,,,,,,,,,,,,,,,,,,,,,,,,,,,,848.2636425001547,None,,,,,,,,,,,,,,,,,,,,,,,,,,,,,,,,,,,duty,69,53,silent,blue,846.2533018998802,None,None,846.2533018998802,None,,,,,,,,,,,,,,,,,,,,,,,,,,,,,,61YA,001,2023_Apr_28_1152,ExactRep-v3-final,2021.2.3,59.941904226918105,
,,,,,,,,53,0,53,0,,,,,,,,,,,,,,,,,,,,,,,,,,,,,,,,,,,,,,,,,,,,,,,,,,,,,850.7659525005147,None,,,,,,,,,,,,,,,,,,,,,,,,,,,,,,,,,,,poet,106,54,aloud,red,848.7668892005458,None,None,848.7668892005458,None,,,,,,,,,,,,,,,,,,,,,,,,,,,,,,61YA,001,2023_Apr_28_1152,ExactRep-v3-final,2021.2.3,59.941904226918105,
,,,,,,,,54,0,54,0,,,,,,,,,,,,,,,,,,,,,,,,,,,,,,,,,,,,,,,,,,,,,,,,,,,,,853.2686443002895,None,,,,,,,,,,,,,,,,,,,,,,,,,,,,,,,,,,,forest,19,55,sing,white,851.2677773004398,None,None,851.2677773004398,None,,,,,,,,,,,,,,,,,,,,,,,,,,,,,,61YA,001,2023_Apr_28_1152,ExactRep-v3-final,2021.2.3,59.941904226918105,
,,,,,,,,55,0,55,0,,,,,,,,,,,,,,,,,,,,,,,,,,,,,,,,,,,,,,,,,,,,,,,,,,,,,855.7709090998396,None,,,,,,,,,,,,,,,,,,,,,,,,,,,,,,,,,,,chance,48,56,silent,blue,853.7707483004779,None,None,853.7707483004779,None,,,,,,,,,,,,,,,,,,,,,,,,,,,,,,61YA,001,2023_Apr_28_1152,ExactRep-v3-final,2021.2.3,59.941904226918105,
,,,,,,,,56,0,56,0,,,,,,,,,,,,,,,,,,,,,,,,,,,,,,,,,,,,,,,,,,,,,,,,,,,,,858.2903227005154,None,,,,,,,,,,,,,,,,,,,,,,,,,,,,,,,,,,,advice,79,57,sing,white,856.2812817003578,None,None,856.2812817003578,None,,,,,,,,,,,,,,,,,,,,,,,,,,,,,,61YA,001,2023_Apr_28_1152,ExactRep-v3-final,2021.2.3,59.941904226918105,
,,,,,,,,57,0,57,0,,,,,,,,,,,,,,,,,,,,,,,,,,,,,,,,,,,,,,,,,,,,,,,,,,,,,860.7927379002795,None,,,,,,,,,,,,,,,,,,,,,,,,,,,,,,,,,,,journal,95,58,aloud,red,858.7907974999398,None,None,858.7907974999398,None,,,,,,,,,,,,,,,,,,,,,,,,,,,,,,61YA,001,2023_Apr_28_1152,ExactRep-v3-final,2021.2.3,59.941904226918105,
,,,,,,,,58,0,58,0,,,,,,,,,,,,,,,,,,,,,,,,,,,,,,,,,,,,,,,,,,,,,,,,,,,,,863.3118393002078,None,,,,,,,,,,,,,,,,,,,,,,,,,,,,,,,,,,,time,52,59,silent,blue,861.2971943998709,None,None,861.2971943998709,None,,,,,,,,,,,,,,,,,,,,,,,,,,,,,,61YA,001,2023_Apr_28_1152,ExactRep-v3-final,2021.2.3,59.941904226918105,
,,,,,,,,59,0,59,0,,,,,,,,,,,,,,,,,,,,,,,,,,,,,,,,,,,,,,,,,,,,,,,,,,,,,865.8144808998331,None,,,,,,,,,,,,,,,,,,,,,,,,,,,,,,,,,,,series,0,60,sing,white,863.8137915004045,None,None,863.8137915004045,None,,,,,,,,,,,,,,,,,,,,,,,,,,,,,,61YA,001,2023_Apr_28_1152,ExactRep-v3-final,2021.2.3,59.941904226918105,
,,,,,,,,60,0,60,0,,,,,,,,,,,,,,,,,,,,,,,,,,,,,,,,,,,,,,,,,,,,,,,,,,,,,868.3333520004526,None,,,,,,,,,,,,,,,,,,,,,,,,,,,,,,,,,,,life,10,61,sing,white,866.3181132003665,None,None,866.3181132003665,None,,,,,,,,,,,,,,,,,,,,,,,,,,,,,,61YA,001,2023_Apr_28_1152,ExactRep-v3-final,2021.2.3,59.941904226918105,
,,,,,,,,61,0,61,0,,,,,,,,,,,,,,,,,,,,,,,,,,,,,,,,,,,,,,,,,,,,,,,,,,,,,870.8529126001522,None,,,,,,,,,,,,,,,,,,,,,,,,,,,,,,,,,,,breast,61,62,silent,blue,868.8390350006521,None,None,868.8390350006521,None,,,,,,,,,,,,,,,,,,,,,,,,,,,,,,61YA,001,2023_Apr_28_1152,ExactRep-v3-final,2021.2.3,59.941904226918105,
,,,,,,,,62,0,62,0,,,,,,,,,,,,,,,,,,,,,,,,,,,,,,,,,,,,,,,,,,,,,,,,,,,,,873.3552548000589,None,,,,,,,,,,,,,,,,,,,,,,,,,,,,,,,,,,,disease,58,63,silent,blue,871.3532520001754,None,None,871.3532520001754,None,,,,,,,,,,,,,,,,,,,,,,,,,,,,,,61YA,001,2023_Apr_28_1152,ExactRep-v3-final,2021.2.3,59.941904226918105,
,,,,,,,,63,0,63,0,,,,,,,,,,,,,,,,,,,,,,,,,,,,,,,,,,,,,,,,,,,,,,,,,,,,,875.8743668003008,None,,,,,,,,,,,,,,,,,,,,,,,,,,,,,,,,,,,mother,82,64,aloud,red,873.8612203998491,None,None,873.8612203998491,None,,,,,,,,,,,,,,,,,,,,,,,,,,,,,,61YA,001,2023_Apr_28_1152,ExactRep-v3-final,2021.2.3,59.941904226918105,
,,,,,,,,64,0,64,0,,,,,,,,,,,,,,,,,,,,,,,,,,,,,,,,,,,,,,,,,,,,,,,,,,,,,878.3768506003544,None,,,,,,,,,,,,,,,,,,,,,,,,,,,,,,,,,,,college,116,65,aloud,red,876.3748973999172,None,None,876.3748973999172,None,,,,,,,,,,,,,,,,,,,,,,,,,,,,,,61YA,001,2023_Apr_28_1152,ExactRep-v3-final,2021.2.3,59.941904226918105,
,,,,,,,,65,0,65,0,,,,,,,,,,,,,,,,,,,,,,,,,,,,,,,,,,,,,,,,,,,,,,,,,,,,,880.8795346003026,None,,,,,,,,,,,,,,,,,,,,,,,,,,,,,,,,,,,shame,8,66,sing,white,878.8773236004636,None,None,878.8773236004636,None,,,,,,,,,,,,,,,,,,,,,,,,,,,,,,61YA,001,2023_Apr_28_1152,ExactRep-v3-final,2021.2.3,59.941904226918105,
,,,,,,,,66,0,66,0,,,,,,,,,,,,,,,,,,,,,,,,,,,,,,,,,,,,,,,,,,,,,,,,,,,,,883.3819583002478,None,,,,,,,,,,,,,,,,,,,,,,,,,,,,,,,,,,,gift,40,67,silent,blue,881.3817785000429,None,None,881.3817785000429,None,,,,,,,,,,,,,,,,,,,,,,,,,,,,,,61YA,001,2023_Apr_28_1152,ExactRep-v3-final,2021.2.3,59.941904226918105,
,,,,,,,,67,0,67,0,,,,,,,,,,,,,,,,,,,,,,,,,,,,,,,,,,,,,,,,,,,,,,,,,,,,,885.901269200258,None,,,,,,,,,,,,,,,,,,,,,,,,,,,,,,,,,,,salary,102,68,aloud,red,883.8856998002157,None,None,883.8856998002157,None,,,,,,,,,,,,,,,,,,,,,,,,,,,,,,61YA,001,2023_Apr_28_1152,ExactRep-v3-final,2021.2.3,59.941904226918105,
,,,,,,,,68,0,68,0,,,,,,,,,,,,,,,,,,,,,,,,,,,,,,,,,,,,,,,,,,,,,,,,,,,,,888.4035958005115,None,,,,,,,,,,,,,,,,,,,,,,,,,,,,,,,,,,,event,76,69,silent,blue,886.4027029005811,None,None,886.4027029005811,None,,,,,,,,,,,,,,,,,,,,,,,,,,,,,,61YA,001,2023_Apr_28_1152,ExactRep-v3-final,2021.2.3,59.941904226918105,
,,,,,,,,69,0,69,0,,,,,,,,,,,,,,,,,,,,,,,,,,,,,,,,,,,,,,,,,,,,,,,,,,,,,890.906258800067,None,,,,,,,,,,,,,,,,,,,,,,,,,,,,,,,,,,,wine,72,70,silent,blue,888.9060351001099,None,None,888.9060351001099,None,,,,,,,,,,,,,,,,,,,,,,,,,,,,,,61YA,001,2023_Apr_28_1152,ExactRep-v3-final,2021.2.3,59.941904226918105,
,,,,,,,,70,0,70,0,,,,,,,,,,,,,,,,,,,,,,,,,,,,,,,,,,,,,,,,,,,,,,,,,,,,,893.408767499961,None,,,,,,,,,,,,,,,,,,,,,,,,,,,,,,,,,,,anger,57,71,silent,blue,891.4082026006654,None,None,891.4082026006654,None,,,,,,,,,,,,,,,,,,,,,,,,,,,,,,61YA,001,2023_Apr_28_1152,ExactRep-v3-final,2021.2.3,59.941904226918105,
,,,,,,,,71,0,71,0,,,,,,,,,,,,,,,,,,,,,,,,,,,,,,,,,,,,,,,,,,,,,,,,,,,,,895.9277523998171,None,,,,,,,,,,,,,,,,,,,,,,,,,,,,,,,,,,,law,20,72,sing,white,893.9220588002354,None,None,893.9220588002354,None,,,,,,,,,,,,,,,,,,,,,,,,,,,,,,61YA,001,2023_Apr_28_1152,ExactRep-v3-final,2021.2.3,59.941904226918105,
,,,,,,,,72,0,72,0,,,,,,,,,,,,,,,,,,,,,,,,,,,,,,,,,,,,,,,,,,,,,,,,,,,,,898.4303796002641,None,,,,,,,,,,,,,,,,,,,,,,,,,,,,,,,,,,,sea,103,73,aloud,red,896.4282796001062,None,None,896.4282796001062,None,,,,,,,,,,,,,,,,,,,,,,,,,,,,,,61YA,001,2023_Apr_28_1152,ExactRep-v3-final,2021.2.3,59.941904226918105,
,,,,,,,,73,0,73,0,,,,,,,,,,,,,,,,,,,,,,,,,,,,,,,,,,,,,,,,,,,,,,,,,,,,,900.932936700061,None,,,,,,,,,,,,,,,,,,,,,,,,,,,,,,,,,,,ability,30,74,sing,white,898.9309049006552,None,None,898.9309049006552,None,,,,,,,,,,,,,,,,,,,,,,,,,,,,,,61YA,001,2023_Apr_28_1152,ExactRep-v3-final,2021.2.3,59.941904226918105,
,,,,,,,,74,0,74,0,,,,,,,,,,,,,,,,,,,,,,,,,,,,,,,,,,,,,,,,,,,,,,,,,,,,,903.4354488998652,None,,,,,,,,,,,,,,,,,,,,,,,,,,,,,,,,,,,moment,99,75,aloud,red,901.4350454006344,None,None,901.4350454006344,None,,,,,,,,,,,,,,,,,,,,,,,,,,,,,,61YA,001,2023_Apr_28_1152,ExactRep-v3-final,2021.2.3,59.941904226918105,
,,,,,,,,75,0,75,0,,,,,,,,,,,,,,,,,,,,,,,,,,,,,,,,,,,,,,,,,,,,,,,,,,,,,905.9377931999043,None,,,,,,,,,,,,,,,,,,,,,,,,,,,,,,,,,,,vessel,35,76,sing,white,903.9386568004265,None,None,903.9386568004265,None,,,,,,,,,,,,,,,,,,,,,,,,,,,,,,61YA,001,2023_Apr_28_1152,ExactRep-v3-final,2021.2.3,59.941904226918105,
,,,,,,,,76,0,76,0,,,,,,,,,,,,,,,,,,,,,,,,,,,,,,,,,,,,,,,,,,,,,,,,,,,,,908.440333600156,None,,,,,,,,,,,,,,,,,,,,,,,,,,,,,,,,,,,string,100,77,aloud,red,906.4383340999484,None,None,906.4383340999484,None,,,,,,,,,,,,,,,,,,,,,,,,,,,,,,61YA,001,2023_Apr_28_1152,ExactRep-v3-final,2021.2.3,59.941904226918105,
,,,,,,,,77,0,77,0,,,,,,,,,,,,,,,,,,,,,,,,,,,,,,,,,,,,,,,,,,,,,,,,,,,,,910.9429770000279,None,,,,,,,,,,,,,,,,,,,,,,,,,,,,,,,,,,,blossom,4,78,sing,white,908.9407545002177,None,None,908.9407545002177,None,,,,,,,,,,,,,,,,,,,,,,,,,,,,,,61YA,001,2023_Apr_28_1152,ExactRep-v3-final,2021.2.3,59.941904226918105,
,,,,,,,,78,0,78,0,,,,,,,,,,,,,,,,,,,,,,,,,,,,,,,,,,,,,,,,,,,,,,,,,,,,,913.4620446003973,None,,,,,,,,,,,,,,,,,,,,,,,,,,,,,,,,,,,ship,70,79,silent,blue,911.4470696002245,None,None,911.4470696002245,None,,,,,,,,,,,,,,,,,,,,,,,,,,,,,,61YA,001,2023_Apr_28_1152,ExactRep-v3-final,2021.2.3,59.941904226918105,
,,,,,,,,79,0,79,0,,,,,,,,,,,,,,,,,,,,,,,,,,,,,,,,,,,,,,,,,,,,,,,,,,,,,915.9813681999221,None,,,,,,,,,,,,,,,,,,,,,,,,,,,,,,,,,,,prison,15,80,sing,white,913.9691801005974,None,None,913.9691801005974,None,,,,,,,,,,,,,,,,,,,,,,,,,,,,,,61YA,001,2023_Apr_28_1152,ExactRep-v3-final,2021.2.3,59.941904226918105,
,,,,,,,,80,0,80,0,,,,,,,,,,,,,,,,,,,,,,,,,,,,,,,,,,,,,,,,,,,,,,,,,,,,,918.4836642006412,None,,,,,,,,,,,,,,,,,,,,,,,,,,,,,,,,,,,love,66,81,silent,blue,916.4842768004164,None,None,916.4842768004164,None,,,,,,,,,,,,,,,,,,,,,,,,,,,,,,61YA,001,2023_Apr_28_1152,ExactRep-v3-final,2021.2.3,59.941904226918105,
,,,,,,,,81,0,81,0,,,,,,,,,,,,,,,,,,,,,,,,,,,,,,,,,,,,,,,,,,,,,,,,,,,,,920.986386500299,None,,,,,,,,,,,,,,,,,,,,,,,,,,,,,,,,,,,picture,43,82,silent,blue,918.9854199998081,None,None,918.9854199998081,None,,,,,,,,,,,,,,,,,,,,,,,,,,,,,,61YA,001,2023_Apr_28_1152,ExactRep-v3-final,2021.2.3,59.941904226918105,
,,,,,,,,82,0,82,0,,,,,,,,,,,,,,,,,,,,,,,,,,,,,,,,,,,,,,,,,,,,,,,,,,,,,923.5054111005738,None,,,,,,,,,,,,,,,,,,,,,,,,,,,,,,,,,,,army,59,83,silent,blue,921.4926940007135,None,None,921.4926940007135,None,,,,,,,,,,,,,,,,,,,,,,,,,,,,,,61YA,001,2023_Apr_28_1152,ExactRep-v3-final,2021.2.3,59.941904226918105,
,,,,,,,,83,0,83,0,,,,,,,,,,,,,,,,,,,,,,,,,,,,,,,,,,,,,,,,,,,,,,,,,,,,,926.0079788006842,None,,,,,,,,,,,,,,,,,,,,,,,,,,,,,,,,,,,prayer,36,84,sing,white,924.0059272004291,None,None,924.0059272004291,None,,,,,,,,,,,,,,,,,,,,,,,,,,,,,,61YA,001,2023_Apr_28_1152,ExactRep-v3-final,2021.2.3,59.941904226918105,
,,,,,,,,84,0,84,0,,,,,,,,,,,,,,,,,,,,,,,,,,,,,,,,,,,,,,,,,,,,,,,,,,,,,928.5270671006292,None,,,,,,,,,,,,,,,,,,,,,,,,,,,,,,,,,,,heaven,21,85,sing,white,926.5127798998728,None,None,926.5127798998728,None,,,,,,,,,,,,,,,,,,,,,,,,,,,,,,61YA,001,2023_Apr_28_1152,ExactRep-v3-final,2021.2.3,59.941904226918105,
,,,,,,,,85,0,85,0,,,,,,,,,,,,,,,,,,,,,,,,,,,,,,,,,,,,,,,,,,,,,,,,,,,,,931.0300261005759,None,,,,,,,,,,,,,,,,,,,,,,,,,,,,,,,,,,,owner,117,86,aloud,red,929.0276088006794,None,None,929.0276088006794,None,,,,,,,,,,,,,,,,,,,,,,,,,,,,,,61YA,001,2023_Apr_28_1152,ExactRep-v3-final,2021.2.3,59.941904226918105,
,,,,,,,,86,0,86,0,,,,,,,,,,,,,,,,,,,,,,,,,,,,,,,,,,,,,,,,,,,,,,,,,,,,,933.532100500539,None,,,,,,,,,,,,,,,,,,,,,,,,,,,,,,,,,,,door,34,87,sing,white,931.5308800004423,None,None,931.5308800004423,None,,,,,,,,,,,,,,,,,,,,,,,,,,,,,,61YA,001,2023_Apr_28_1152,ExactRep-v3-final,2021.2.3,59.941904226918105,
,,,,,,,,87,0,87,0,,,,,,,,,,,,,,,,,,,,,,,,,,,,,,,,,,,,,,,,,,,,,,,,,,,,,936.0512676006183,None,,,,,,,,,,,,,,,,,,,,,,,,,,,,,,,,,,,arm,54,88,silent,blue,934.0365062998608,None,None,934.0365062998608,None,,,,,,,,,,,,,,,,,,,,,,,,,,,,,,61YA,001,2023_Apr_28_1152,ExactRep-v3-final,2021.2.3,59.941904226918105,
,,,,,,,,88,0,88,0,,,,,,,,,,,,,,,,,,,,,,,,,,,,,,,,,,,,,,,,,,,,,,,,,,,,,938.5706427004188,None,,,,,,,,,,,,,,,,,,,,,,,,,,,,,,,,,,,doctor,22,89,sing,white,936.558451000601,None,None,936.558451000601,None,,,,,,,,,,,,,,,,,,,,,,,,,,,,,,61YA,001,2023_Apr_28_1152,ExactRep-v3-final,2021.2.3,59.941904226918105,
,,,,,,,,89,0,89,0,,,,,,,,,,,,,,,,,,,,,,,,,,,,,,,,,,,,,,,,,,,,,,,,,,,,,941.0732519002631,None,,,,,,,,,,,,,,,,,,,,,,,,,,,,,,,,,,,lad,28,90,sing,white,939.0710944999009,None,None,939.0710944999009,None,,,,,,,,,,,,,,,,,,,,,,,,,,,,,,61YA,001,2023_Apr_28_1152,ExactRep-v3-final,2021.2.3,59.941904226918105,
,,,,,,,,90,0,90,0,,,,,,,,,,,,,,,,,,,,,,,,,,,,,,,,,,,,,,,,,,,,,,,,,,,,,943.5756474006921,None,,,,,,,,,,,,,,,,,,,,,,,,,,,,,,,,,,,stone,98,91,aloud,red,941.5742952004075,None,None,941.5742952004075,None,,,,,,,,,,,,,,,,,,,,,,,,,,,,,,61YA,001,2023_Apr_28_1152,ExactRep-v3-final,2021.2.3,59.941904226918105,
,,,,,,,,91,0,91,0,,,,,,,,,,,,,,,,,,,,,,,,,,,,,,,,,,,,,,,,,,,,,,,,,,,,,946.0779205001891,None,,,,,,,,,,,,,,,,,,,,,,,,,,,,,,,,,,,troops,112,92,aloud,red,944.0776065001264,None,None,944.0776065001264,None,,,,,,,,,,,,,,,,,,,,,,,,,,,,,,61YA,001,2023_Apr_28_1152,ExactRep-v3-final,2021.2.3,59.941904226918105,
,,,,,,,,92,0,92,0,,,,,,,,,,,,,,,,,,,,,,,,,,,,,,,,,,,,,,,,,,,,,,,,,,,,,948.5807141000405,None,,,,,,,,,,,,,,,,,,,,,,,,,,,,,,,,,,,garden,91,93,aloud,red,946.5797878000885,None,None,946.5797878000885,None,,,,,,,,,,,,,,,,,,,,,,,,,,,,,,61YA,001,2023_Apr_28_1152,ExactRep-v3-final,2021.2.3,59.941904226918105,
,,,,,,,,93,0,93,0,,,,,,,,,,,,,,,,,,,,,,,,,,,,,,,,,,,,,,,,,,,,,,,,,,,,,951.0832093004137,None,,,,,,,,,,,,,,,,,,,,,,,,,,,,,,,,,,,passion,84,94,aloud,red,949.0838731005788,None,None,949.0838731005788,None,,,,,,,,,,,,,,,,,,,,,,,,,,,,,,61YA,001,2023_Apr_28_1152,ExactRep-v3-final,2021.2.3,59.941904226918105,
,,,,,,,,94,0,94,0,,,,,,,,,,,,,,,,,,,,,,,,,,,,,,,,,,,,,,,,,,,,,,,,,,,,,953.6022804006934,None,,,,,,,,,,,,,,,,,,,,,,,,,,,,,,,,,,,teacher,9,95,sing,white,951.5899717006832,None,None,951.5899717006832,None,,,,,,,,,,,,,,,,,,,,,,,,,,,,,,61YA,001,2023_Apr_28_1152,ExactRep-v3-final,2021.2.3,59.941904226918105,
,,,,,,,,95,0,95,0,,,,,,,,,,,,,,,,,,,,,,,,,,,,,,,,,,,,,,,,,,,,,,,,,,,,,956.1048373002559,None,,,,,,,,,,,,,,,,,,,,,,,,,,,,,,,,,,,grief,80,96,aloud,red,954.1025752006099,None,None,954.1025752006099,None,,,,,,,,,,,,,,,,,,,,,,,,,,,,,,61YA,001,2023_Apr_28_1152,ExactRep-v3-final,2021.2.3,59.941904226918105,
,,,,,,,,96,0,96,0,,,,,,,,,,,,,,,,,,,,,,,,,,,,,,,,,,,,,,,,,,,,,,,,,,,,,958.6073569003493,None,,,,,,,,,,,,,,,,,,,,,,,,,,,,,,,,,,,green,2,97,sing,white,956.6051970003173,None,None,956.6051970003173,None,,,,,,,,,,,,,,,,,,,,,,,,,,,,,,61YA,001,2023_Apr_28_1152,ExactRep-v3-final,2021.2.3,59.941904226918105,
,,,,,,,,97,0,97,0,,,,,,,,,,,,,,,,,,,,,,,,,,,,,,,,,,,,,,,,,,,,,,,,,,,,,961.1263207998127,None,,,,,,,,,,,,,,,,,,,,,,,,,,,,,,,,,,,shock,38,98,sing,white,959.1163820000365,None,None,959.1163820000365,None,,,,,,,,,,,,,,,,,,,,,,,,,,,,,,61YA,001,2023_Apr_28_1152,ExactRep-v3-final,2021.2.3,59.941904226918105,
,,,,,,,,98,0,98,0,,,,,,,,,,,,,,,,,,,,,,,,,,,,,,,,,,,,,,,,,,,,,,,,,,,,,963.6290516005829,None,,,,,,,,,,,,,,,,,,,,,,,,,,,,,,,,,,,judge,23,99,sing,white,961.6268511004746,None,None,961.6268511004746,None,,,,,,,,,,,,,,,,,,,,,,,,,,,,,,61YA,001,2023_Apr_28_1152,ExactRep-v3-final,2021.2.3,59.941904226918105,
,,,,,,,,99,0,99,0,,,,,,,,,,,,,,,,,,,,,,,,,,,,,,,,,,,,,,,,,,,,,,,,,,,,,966.1481311004609,None,,,,,,,,,,,,,,,,,,,,,,,,,,,,,,,,,,,weapon,41,100,silent,blue,964.1428439998999,None,None,964.1428439998999,None,,,,,,,,,,,,,,,,,,,,,,,,,,,,,,61YA,001,2023_Apr_28_1152,ExactRep-v3-final,2021.2.3,59.941904226918105,
,,,,,,,,100,0,100,0,,,,,,,,,,,,,,,,,,,,,,,,,,,,,,,,,,,,,,,,,,,,,,,,,,,,,968.6507427003235,None,,,,,,,,,,,,,,,,,,,,,,,,,,,,,,,,,,,corner,25,101,sing,white,966.648785000667,None,None,966.648785000667,None,,,,,,,,,,,,,,,,,,,,,,,,,,,,,,61YA,001,2023_Apr_28_1152,ExactRep-v3-final,2021.2.3,59.941904226918105,
,,,,,,,,101,0,101,0,,,,,,,,,,,,,,,,,,,,,,,,,,,,,,,,,,,,,,,,,,,,,,,,,,,,,971.1530153006315,None,,,,,,,,,,,,,,,,,,,,,,,,,,,,,,,,,,,star,1,102,sing,white,969.151064700447,None,None,969.151064700447,None,,,,,,,,,,,,,,,,,,,,,,,,,,,,,,61YA,001,2023_Apr_28_1152,ExactRep-v3-final,2021.2.3,59.941904226918105,
,,,,,,,,102,0,102,0,,,,,,,,,,,,,,,,,,,,,,,,,,,,,,,,,,,,,,,,,,,,,,,,,,,,,973.6721908003092,None,,,,,,,,,,,,,,,,,,,,,,,,,,,,,,,,,,,product,31,103,sing,white,971.6615697005764,None,None,971.6615697005764,None,,,,,,,,,,,,,,,,,,,,,,,,,,,,,,61YA,001,2023_Apr_28_1152,ExactRep-v3-final,2021.2.3,59.941904226918105,
,,,,,,,,103,0,103,0,,,,,,,,,,,,,,,,,,,,,,,,,,,,,,,,,,,,,,,,,,,,,,,,,,,,,976.1915949005634,None,,,,,,,,,,,,,,,,,,,,,,,,,,,,,,,,,,,spirit,92,104,aloud,red,974.1849070005119,None,None,974.1849070005119,None,,,,,,,,,,,,,,,,,,,,,,,,,,,,,,61YA,001,2023_Apr_28_1152,ExactRep-v3-final,2021.2.3,59.941904226918105,
,,,,,,,,104,0,104,0,,,,,,,,,,,,,,,,,,,,,,,,,,,,,,,,,,,,,,,,,,,,,,,,,,,,,978.6942039998248,None,,,,,,,,,,,,,,,,,,,,,,,,,,,,,,,,,,,diamond,3,105,sing,white,976.694638600573,None,None,976.694638600573,None,,,,,,,,,,,,,,,,,,,,,,,,,,,,,,61YA,001,2023_Apr_28_1152,ExactRep-v3-final,2021.2.3,59.941904226918105,
,,,,,,,,105,0,105,0,,,,,,,,,,,,,,,,,,,,,,,,,,,,,,,,,,,,,,,,,,,,,,,,,,,,,981.2130410000682,None,,,,,,,,,,,,,,,,,,,,,,,,,,,,,,,,,,,speech,47,106,silent,blue,979.2005973001942,None,None,979.2005973001942,None,,,,,,,,,,,,,,,,,,,,,,,,,,,,,,61YA,001,2023_Apr_28_1152,ExactRep-v3-final,2021.2.3,59.941904226918105,
,,,,,,,,106,0,106,0,,,,,,,,,,,,,,,,,,,,,,,,,,,,,,,,,,,,,,,,,,,,,,,,,,,,,983.7157530002296,None,,,,,,,,,,,,,,,,,,,,,,,,,,,,,,,,,,,deed,12,107,sing,white,981.7134730005637,None,None,981.7134730005637,None,,,,,,,,,,,,,,,,,,,,,,,,,,,,,,61YA,001,2023_Apr_28_1152,ExactRep-v3-final,2021.2.3,59.941904226918105,
,,,,,,,,107,0,107,0,,,,,,,,,,,,,,,,,,,,,,,,,,,,,,,,,,,,,,,,,,,,,,,,,,,,,986.2349358005449,None,,,,,,,,,,,,,,,,,,,,,,,,,,,,,,,,,,,power,67,108,silent,blue,984.2225304003805,None,None,984.2225304003805,None,,,,,,,,,,,,,,,,,,,,,,,,,,,,,,61YA,001,2023_Apr_28_1152,ExactRep-v3-final,2021.2.3,59.941904226918105,
,,,,,,,,108,0,108,0,,,,,,,,,,,,,,,,,,,,,,,,,,,,,,,,,,,,,,,,,,,,,,,,,,,,,988.7374403001741,None,,,,,,,,,,,,,,,,,,,,,,,,,,,,,,,,,,,camp,105,109,aloud,red,986.7381199002266,None,None,986.7381199002266,None,,,,,,,,,,,,,,,,,,,,,,,,,,,,,,61YA,001,2023_Apr_28_1152,ExactRep-v3-final,2021.2.3,59.941904226918105,
,,,,,,,,109,0,109,0,,,,,,,,,,,,,,,,,,,,,,,,,,,,,,,,,,,,,,,,,,,,,,,,,,,,,991.256754600443,None,,,,,,,,,,,,,,,,,,,,,,,,,,,,,,,,,,,avenue,85,110,aloud,red,989.242138300091,None,None,989.242138300091,None,,,,,,,,,,,,,,,,,,,,,,,,,,,,,,61YA,001,2023_Apr_28_1152,ExactRep-v3-final,2021.2.3,59.941904226918105,
,,,,,,,,110,0,110,0,,,,,,,,,,,,,,,,,,,,,,,,,,,,,,,,,,,,,,,,,,,,,,,,,,,,,993.7591864001006,None,,,,,,,,,,,,,,,,,,,,,,,,,,,,,,,,,,,house,83,111,aloud,red,991.7600651001558,None,None,991.7600651001558,None,,,,,,,,,,,,,,,,,,,,,,,,,,,,,,61YA,001,2023_Apr_28_1152,ExactRep-v3-final,2021.2.3,59.941904226918105,
,,,,,,,,111,0,111,0,,,,,,,,,,,,,,,,,,,,,,,,,,,,,,,,,,,,,,,,,,,,,,,,,,,,,996.2617258001119,None,,,,,,,,,,,,,,,,,,,,,,,,,,,,,,,,,,,fun,68,112,silent,blue,994.2621643999591,None,None,994.2621643999591,None,,,,,,,,,,,,,,,,,,,,,,,,,,,,,,61YA,001,2023_Apr_28_1152,ExactRep-v3-final,2021.2.3,59.941904226918105,
,,,,,,,,112,0,112,0,,,,,,,,,,,,,,,,,,,,,,,,,,,,,,,,,,,,,,,,,,,,,,,,,,,,,998.7642362006009,None,,,,,,,,,,,,,,,,,,,,,,,,,,,,,,,,,,,cash,51,113,silent,blue,996.7641636999324,None,None,996.7641636999324,None,,,,,,,,,,,,,,,,,,,,,,,,,,,,,,61YA,001,2023_Apr_28_1152,ExactRep-v3-final,2021.2.3,59.941904226918105,
,,,,,,,,113,0,113,0,,,,,,,,,,,,,,,,,,,,,,,,,,,,,,,,,,,,,,,,,,,,,,,,,,,,,1001.2831780007109,None,,,,,,,,,,,,,,,,,,,,,,,,,,,,,,,,,,,hotel,27,114,sing,white,999.2682047002017,None,None,999.2682047002017,None,,,,,,,,,,,,,,,,,,,,,,,,,,,,,,61YA,001,2023_Apr_28_1152,ExactRep-v3-final,2021.2.3,59.941904226918105,
,,,,,,,,114,0,114,0,,,,,,,,,,,,,,,,,,,,,,,,,,,,,,,,,,,,,,,,,,,,,,,,,,,,,1003.7858985001221,None,,,,,,,,,,,,,,,,,,,,,,,,,,,,,,,,,,,village,46,115,silent,blue,1001.7836652006954,None,None,1001.7836652006954,None,,,,,,,,,,,,,,,,,,,,,,,,,,,,,,61YA,001,2023_Apr_28_1152,ExactRep-v3-final,2021.2.3,59.941904226918105,
,,,,,,,,115,0,115,0,,,,,,,,,,,,,,,,,,,,,,,,,,,,,,,,,,,,,,,,,,,,,,,,,,,,,1006.3050241004676,None,,,,,,,,,,,,,,,,,,,,,,,,,,,,,,,,,,,form,111,116,aloud,red,1004.2905595004559,None,None,1004.2905595004559,None,,,,,,,,,,,,,,,,,,,,,,,,,,,,,,61YA,001,2023_Apr_28_1152,ExactRep-v3-final,2021.2.3,59.941904226918105,
,,,,,,,,116,0,116,0,,,,,,,,,,,,,,,,,,,,,,,,,,,,,,,,,,,,,,,,,,,,,,,,,,,,,1008.8075271006674,None,,,,,,,,,,,,,,,,,,,,,,,,,,,,,,,,,,,dream,13,117,sing,white,1006.8054700000212,None,None,1006.8054700000212,None,,,,,,,,,,,,,,,,,,,,,,,,,,,,,,61YA,001,2023_Apr_28_1152,ExactRep-v3-final,2021.2.3,59.941904226918105,
,,,,,,,,117,0,117,0,,,,,,,,,,,,,,,,,,,,,,,,,,,,,,,,,,,,,,,,,,,,,,,,,,,,,1011.3100135000423,None,,,,,,,,,,,,,,,,,,,,,,,,,,,,,,,,,,,horse,115,118,aloud,red,1009.3108604000881,None,None,1009.3108604000881,None,,,,,,,,,,,,,,,,,,,,,,,,,,,,,,61YA,001,2023_Apr_28_1152,ExactRep-v3-final,2021.2.3,59.941904226918105,
,,,,,,,,118,0,118,0,,,,,,,,,,,,,,,,,,,,,,,,,,,,,,,,,,,,,,,,,,,,,,,,,,,,,1013.8292834004387,None,,,,,,,,,,,,,,,,,,,,,,,,,,,,,,,,,,,glory,81,119,aloud,red,1011.8154931003228,None,None,1011.8154931003228,None,,,,,,,,,,,,,,,,,,,,,,,,,,,,,,61YA,001,2023_Apr_28_1152,ExactRep-v3-final,2021.2.3,59.941904226918105,
,,,,,,,,119,0,119,0,,,,,,,,,,,,,,,,,,,,,,,,,,,,,,,,,,,,,,,,,,,,,,,,,,,,,1016.3483536001295,None,,,,,,,,,,,,,,,,,,,,,,,,,,,,,,,,,,,opinion,60,120,silent,blue,1014.3345784004778,None,None,1014.3345784004778,None,,,,,,,,,,,,,,,,,,,,,,,,,,,,,,61YA,001,2023_Apr_28_1152,ExactRep-v3-final,2021.2.3,59.941904226918105,
,,,,,,,,,,,,,,,,,,,,,,,,,,,,,,,,,,,,,,,,,,,,,,,,,,,,,,,,,,,,,,,,,,,,,,,,,,,,,,,,,,,,,,,,,,,,,,,,,,,,,,,,,,,,,,1016.8503539003432,None,space,1.4168150005862117,1026.8268686998636,None,,,,,,,,,,,,,,,,,,,,,,,,61YA,001,2023_Apr_28_1152,ExactRep-v3-final,2021.2.3,59.941904226918105,
,,,,,,,,,,,,,,,,,,,,,,,,,,,,,,,,,,,,,,,,,,,,,,,,,,,,,,,,,,,,,,,,,,,,,,,,,,,,,,,,,,,,,,,,,,,,,,,,,,,,,,,,,,,,,,,,,,,,1028.2621010001749,None,space,29.149372700601816,1038.2382466001436,None,,,,,,,,,,,,,,,,,,61YA,001,2023_Apr_28_1152,ExactRep-v3-final,2021.2.3,59.941904226918105,
,,,,,,,,,,,,0,0,0,0,,,,,,,,,,,,,,,,,,,,,,,,,,,,,,,,,,,,,,,,,,,,,,,,,1080.212041400373,None,,,,,,,,,,,,,,,,,,,,,,,,,,,,,,,,,,,,,,,,,,,,,,,,,,,,,,,,,shadow,195,1,sing,new,white,1067.9366872999817,None,y,1067.9366872999817,None,"['y', 'backspace', 'y', 'return']","[6.890767199918628, 10.946679700165987, 11.978674399666488, 12.23456980008632]",1067.9366872999817,None,,,61YA,001,2023_Apr_28_1152,ExactRep-v3-final,2021.2.3,59.941904226918105,
,,,,,,,,,,,,1,0,1,0,,,,,,,,,,,,,,,,,,,,,,,,,,,,,,,,,,,,,,,,,,,,,,,,,1083.782276400365,None,,,,,,,,,,,,,,,,,,,,,,,,,,,,,,,,,,,,,,,,,,,,,,,,,,,,,,,,,owner,117,2,aloud,old,red,1080.7245644005015,None,y,1080.7245644005015,None,"['y', 'return']","[1.9987043999135494, 3.022583399899304]",1080.7245644005015,None,,,61YA,001,2023_Apr_28_1152,ExactRep-v3-final,2021.2.3,59.941904226918105,
,,,,,,,,,,,,2,0,2,0,,,,,,,,,,,,,,,,,,,,,,,,,,,,,,,,,,,,,,,,,,,,,,,,,1085.834487900138,None,,,,,,,,,,,,,,,,,,,,,,,,,,,,,,,,,,,,,,,,,,,,,,,,,,,,,,,,,star,1,3,sing,old,white,1084.293421600014,None,y,1084.293421600014,None,"['y', 'return']","[0.8457292998209596, 1.493818199262023]",1084.293421600014,None,,,61YA,001,2023_Apr_28_1152,ExactRep-v3-final,2021.2.3,59.941904226918105,
,,,,,,,,,,,,3,0,3,0,,,,,,,,,,,,,,,,,,,,,,,,,,,,,,,,,,,,,,,,,,,,,,,,,1089.3046077005565,None,,,,,,,,,,,,,,,,,,,,,,,,,,,,,,,,,,,,,,,,,,,,,,,,,,,,,,,,,toy,212,4,aloud,new,red,1086.3463972005993,None,n,1086.3463972005993,None,"['n', 'return']","[2.5931198997423053, 2.920996400527656]",1086.3463972005993,None,,,61YA,001,2023_Apr_28_1152,ExactRep-v3-final,2021.2.3,59.941904226918105,
,,,,,,,,,,,,4,0,4,0,,,,,,,,,,,,,,,,,,,,,,,,,,,,,,,,,,,,,,,,,,,,,,,,,1091.3064496004954,None,,,,,,,,,,,,,,,,,,,,,,,,,,,,,,,,,,,,,,,,,,,,,,,,,,,,,,,,,boy,149,5,silent,new,blue,1089.8077579000965,None,n,1089.8077579000965,None,"['n', 'return']","[1.1555691007524729, 1.4595347000285983]",1089.8077579000965,None,,,61YA,001,2023_Apr_28_1152,ExactRep-v3-final,2021.2.3,59.941904226918105,
,,,,,,,,,,,,5,0,5,0,,,,,,,,,,,,,,,,,,,,,,,,,,,,,,,,,,,,,,,,,,,,,,,,,1093.6921545006335,None,,,,,,,,,,,,,,,,,,,,,,,,,,,,,,,,,,,,,,,,,,,,,,,,,,,,,,,,,potato,223,6,sing,new,white,1091.8191999997944,None,n,1091.8191999997944,None,"['return', 'n', 'return']","[0.8800766998901963, 1.3999177999794483, 1.8320509996265173]",1091.8191999997944,None,,,61YA,001,2023_Apr_28_1152,ExactRep-v3-final,2021.2.3,59.941904226918105,
,,,,,,,,,,,,6,0,6,0,,,,,,,,,,,,,,,,,,,,,,,,,,,,,,,,,,,,,,,,,,,,,,,,,1095.4107208000496,None,,,,,,,,,,,,,,,,,,,,,,,,,,,,,,,,,,,,,,,,,,,,,,,,,,,,,,,,,memory,90,7,aloud,old,red,1094.2065363004804,None,y,1094.2065363004804,None,"['y', 'return']","[0.804764200001955, 1.1648096004500985]",1094.2065363004804,None,,,61YA,001,2023_Apr_28_1152,ExactRep-v3-final,2021.2.3,59.941904226918105,
,,,,,,,,,,,,7,0,7,0,,,,,,,,,,,,,,,,,,,,,,,,,,,,,,,,,,,,,,,,,,,,,,,,,1099.4313922002912,None,,,,,,,,,,,,,,,,,,,,,,,,,,,,,,,,,,,,,,,,,,,,,,,,,,,,,,,,,freedom,122,8,silent,new,blue,1095.9206705000252,None,n,1095.9206705000252,None,"['n', 'return']","[3.1705553997308016, 3.4664892004802823]",1095.9206705000252,None,,,61YA,001,2023_Apr_28_1152,ExactRep-v3-final,2021.2.3,59.941904226918105,
,,,,,,,,,,,,8,0,8,0,,,,,,,,,,,,,,,,,,,,,,,,,,,,,,,,,,,,,,,,,,,,,,,,,1101.066196099855,None,,,,,,,,,,,,,,,,,,,,,,,,,,,,,,,,,,,,,,,,,,,,,,,,,,,,,,,,,pipe,133,9,silent,new,blue,1099.9319435004145,None,n,1099.9319435004145,None,"['n', 'return']","[0.7673709001392126, 1.0953495996072888]",1099.9319435004145,None,,,61YA,001,2023_Apr_28_1152,ExactRep-v3-final,2021.2.3,59.941904226918105,
,,,,,,,,,,,,9,0,9,0,,,,,,,,,,,,,,,,,,,,,,,,,,,,,,,,,,,,,,,,,,,,,,,,,1102.8012581998482,None,,,,,,,,,,,,,,,,,,,,,,,,,,,,,,,,,,,,,,,,,,,,,,,,,,,,,,,,,prison,15,10,sing,old,white,1101.5737632000819,None,y,1101.5737632000819,None,"['y', 'return']","[0.8614734001457691, 1.181488899514079]",1101.5737632000819,None,,,61YA,001,2023_Apr_28_1152,ExactRep-v3-final,2021.2.3,59.941904226918105,
,,,,,,,,,,,,10,0,10,0,,,,,,,,,,,,,,,,,,,,,,,,,,,,,,,,,,,,,,,,,,,,,,,,,1104.403088000603,None,,,,,,,,,,,,,,,,,,,,,,,,,,,,,,,,,,,,,,,,,,,,,,,,,,,,,,,,,sea,103,11,aloud,old,red,1103.3104702001438,None,y,1103.3104702001438,None,"['y', 'return']","[0.7488342998549342, 1.0447872998192906]",1103.3104702001438,None,,,61YA,001,2023_Apr_28_1152,ExactRep-v3-final,2021.2.3,59.941904226918105,
,,,,,,,,,,,,11,0,11,0,,,,,,,,,,,,,,,,,,,,,,,,,,,,,,,,,,,,,,,,,,,,,,,,,1105.9546035006642,None,,,,,,,,,,,,,,,,,,,,,,,,,,,,,,,,,,,,,,,,,,,,,,,,,,,,,,,,,fur,63,12,silent,old,blue,1104.9119677999988,None,y,1104.9119677999988,None,"['y', 'return']","[0.7154521001502872, 1.00326559972018]",1104.9119677999988,None,,,61YA,001,2023_Apr_28_1152,ExactRep-v3-final,2021.2.3,59.941904226918105,
,,,,,,,,,,,,12,0,12,0,,,,,,,,,,,,,,,,,,,,,,,,,,,,,,,,,,,,,,,,,,,,,,,,,1107.322618400678,None,,,,,,,,,,,,,,,,,,,,,,,,,,,,,,,,,,,,,,,,,,,,,,,,,,,,,,,,,house,83,13,aloud,old,red,1106.4737597005442,None,y,1106.4737597005442,None,"['y', 'return']","[0.5696315998211503, 0.8014914998784661]",1106.4737597005442,None,,,61YA,001,2023_Apr_28_1152,ExactRep-v3-final,2021.2.3,59.941904226918105,
,,,,,,,,,,,,13,0,13,0,,,,,,,,,,,,,,,,,,,,,,,,,,,,,,,,,,,,,,,,,,,,,,,,,1110.5257450006902,None,,,,,,,,,,,,,,,,,,,,,,,,,,,,,,,,,,,,,,,,,,,,,,,,,,,,,,,,,speech,47,14,silent,old,blue,1107.831719700247,None,n,1107.831719700247,None,"['n', 'return']","[2.3875072998926044, 2.659486699849367]",1107.831719700247,None,,,61YA,001,2023_Apr_28_1152,ExactRep-v3-final,2021.2.3,59.941904226918105,
,,,,,,,,,,,,14,0,14,0,,,,,,,,,,,,,,,,,,,,,,,,,,,,,,,,,,,,,,,,,,,,,,,,,1112.1273181000724,None,,,,,,,,,,,,,,,,,,,,,,,,,,,,,,,,,,,,,,,,,,,,,,,,,,,,,,,,,thought,144,15,silent,new,blue,1111.032921500504,None,n,1111.032921500504,None,"['n', 'return']","[0.754360499791801, 1.0502701997756958]",1111.032921500504,None,,,61YA,001,2023_Apr_28_1152,ExactRep-v3-final,2021.2.3,59.941904226918105,
,,,,,,,,,,,,15,0,15,0,,,,,,,,,,,,,,,,,,,,,,,,,,,,,,,,,,,,,,,,,,,,,,,,,1114.0625205002725,None,,,,,,,,,,,,,,,,,,,,,,,,,,,,,,,,,,,,,,,,,,,,,,,,,,,,,,,,,season,191,16,sing,new,white,1112.6355665000156,None,n,1112.6355665000156,None,"['n', 'return']","[1.071687700226903, 1.3835739996284246]",1112.6355665000156,None,,,61YA,001,2023_Apr_28_1152,ExactRep-v3-final,2021.2.3,59.941904226918105,
,,,,,,,,,,,,16,0,16,0,,,,,,,,,,,,,,,,,,,,,,,,,,,,,,,,,,,,,,,,,,,,,,,,,1115.8142694002017,None,,,,,,,,,,,,,,,,,,,,,,,,,,,,,,,,,,,,,,,,,,,,,,,,,,,,,,,,,soul,237,17,sing,new,white,1114.5701159005985,None,n,1114.5701159005985,None,"['n', 'return']","[0.8971295999363065, 1.201027300208807]",1114.5701159005985,None,,,61YA,001,2023_Apr_28_1152,ExactRep-v3-final,2021.2.3,59.941904226918105,
,,,,,,,,,,,,17,0,17,0,,,,,,,,,,,,,,,,,,,,,,,,,,,,,,,,,,,,,,,,,,,,,,,,,1118.5338472006842,None,,,,,,,,,,,,,,,,,,,,,,,,,,,,,,,,,,,,,,,,,,,,,,,,,,,,,,,,,dust,214,18,aloud,new,red,1116.333372199908,None,n,1116.333372199908,None,"['n', 'return']","[1.8057597000151873, 2.1658192994073033]",1116.333372199908,None,,,61YA,001,2023_Apr_28_1152,ExactRep-v3-final,2021.2.3,59.941904226918105,
,,,,,,,,,,,,18,0,18,0,,,,,,,,,,,,,,,,,,,,,,,,,,,,,,,,,,,,,,,,,,,,,,,,,1120.2186965998262,None,,,,,,,,,,,,,,,,,,,,,,,,,,,,,,,,,,,,,,,,,,,,,,,,,,,,,,,,,bottle,26,19,sing,old,white,1119.0420689005405,None,y,1119.0420689005405,None,"['y', 'return']","[0.8731750007718801, 1.1451730001717806]",1119.0420689005405,None,,,61YA,001,2023_Apr_28_1152,ExactRep-v3-final,2021.2.3,59.941904226918105,
,,,,,,,,,,,,19,0,19,0,,,,,,,,,,,,,,,,,,,,,,,,,,,,,,,,,,,,,,,,,,,,,,,,,1121.6702143000439,None,,,,,,,,,,,,,,,,,,,,,,,,,,,,,,,,,,,,,,,,,,,,,,,,,,,,,,,,,city,96,20,aloud,old,red,1120.7218132000417,None,y,1120.7218132000417,None,"['y', 'return']","[0.6494685998186469, 0.9135135998949409]",1120.7218132000417,None,,,61YA,001,2023_Apr_28_1152,ExactRep-v3-final,2021.2.3,59.941904226918105,
,,,,,,,,,,,,20,0,20,0,,,,,,,,,,,,,,,,,,,,,,,,,,,,,,,,,,,,,,,,,,,,,,,,,1125.5907335001975,None,,,,,,,,,,,,,,,,,,,,,,,,,,,,,,,,,,,,,,,,,,,,,,,,,,,,,,,,,coffee,206,21,aloud,new,red,1122.1799260005355,None,n,1122.1799260005355,None,"['y', 'backspace', 'n', 'return']","[0.49540069978684187, 2.5674230000004172, 3.0634009996429086, 3.3672658996656537]",1122.1799260005355,None,,,61YA,001,2023_Apr_28_1152,ExactRep-v3-final,2021.2.3,59.941904226918105,
,,,,,,,,,,,,21,0,21,0,,,,,,,,,,,,,,,,,,,,,,,,,,,,,,,,,,,,,,,,,,,,,,,,,1128.3268567007035,None,,,,,,,,,,,,,,,,,,,,,,,,,,,,,,,,,,,,,,,,,,,,,,,,,,,,,,,,,dawn,163,22,sing,new,white,1126.1246653003618,None,n,1126.1246653003618,None,"['n', 'return']","[1.8946409998461604, 2.1664559999480844]",1126.1246653003618,None,,,61YA,001,2023_Apr_28_1152,ExactRep-v3-final,2021.2.3,59.941904226918105,
,,,,,,,,,,,,22,0,22,0,,,,,,,,,,,,,,,,,,,,,,,,,,,,,,,,,,,,,,,,,,,,,,,,,1131.096230099909,None,,,,,,,,,,,,,,,,,,,,,,,,,,,,,,,,,,,,,,,,,,,,,,,,,,,,,,,,,party,164,23,aloud,new,red,1128.8365966007113,None,n,1128.8365966007113,None,"['n', 'return']","[1.9427450997754931, 2.222711400128901]",1128.8365966007113,None,,,61YA,001,2023_Apr_28_1152,ExactRep-v3-final,2021.2.3,59.941904226918105,
,,,,,,,,,,,,23,0,23,0,,,,,,,,,,,,,,,,,,,,,,,,,,,,,,,,,,,,,,,,,,,,,,,,,1132.7145159002393,None,,,,,,,,,,,,,,,,,,,,,,,,,,,,,,,,,,,,,,,,,,,,,,,,,,,,,,,,,iron,49,24,silent,old,blue,1131.60200120043,None,y,1131.60200120043,None,"['y', 'return']","[0.7613164000213146, 1.0733112003654242]",1131.60200120043,None,,,61YA,001,2023_Apr_28_1152,ExactRep-v3-final,2021.2.3,59.941904226918105,
,,,,,,,,,,,,24,0,24,0,,,,,,,,,,,,,,,,,,,,,,,,,,,,,,,,,,,,,,,,,,,,,,,,,1134.8500778004527,None,,,,,,,,,,,,,,,,,,,,,,,,,,,,,,,,,,,,,,,,,,,,,,,,,,,,,,,,,hide,64,25,silent,old,blue,1133.2246358999982,None,y,1133.2246358999982,None,"['y', 'return']","[1.3145490000024438, 1.58663700055331]",1133.2246358999982,None,,,61YA,001,2023_Apr_28_1152,ExactRep-v3-final,2021.2.3,59.941904226918105,
,,,,,,,,,,,,25,0,25,0,,,,,,,,,,,,,,,,,,,,,,,,,,,,,,,,,,,,,,,,,,,,,,,,,1137.4359110007063,None,,,,,,,,,,,,,,,,,,,,,,,,,,,,,,,,,,,,,,,,,,,,,,,,,,,,,,,,,custom,175,26,sing,new,white,1135.3543974999338,None,n,1135.3543974999338,None,"['n', 'return']","[1.7371356002986431, 2.0487798005342484]",1135.3543974999338,None,,,61YA,001,2023_Apr_28_1152,ExactRep-v3-final,2021.2.3,59.941904226918105,
,,,,,,,,,,,,26,0,26,0,,,,,,,,,,,,,,,,,,,,,,,,,,,,,,,,,,,,,,,,,,,,,,,,,1138.9708195999265,None,,,,,,,,,,,,,,,,,,,,,,,,,,,,,,,,,,,,,,,,,,,,,,,,,,,,,,,,,gift,40,27,silent,old,blue,1137.9448270006105,None,y,1137.9448270006105,None,"['y', 'return']","[0.7225836999714375, 0.9865100998431444]",1137.9448270006105,None,,,61YA,001,2023_Apr_28_1152,ExactRep-v3-final,2021.2.3,59.941904226918105,
,,,,,,,,,,,,27,0,27,0,,,,,,,,,,,,,,,,,,,,,,,,,,,,,,,,,,,,,,,,,,,,,,,,,1141.0728414002806,None,,,,,,,,,,,,,,,,,,,,,,,,,,,,,,,,,,,,,,,,,,,,,,,,,,,,,,,,,bowl,147,28,silent,new,blue,1139.480565899983,None,n,1139.480565899983,None,"['n', 'return']","[1.3069845996797085, 1.554690600372851]",1139.480565899983,None,,,61YA,001,2023_Apr_28_1152,ExactRep-v3-final,2021.2.3,59.941904226918105,
,,,,,,,,,,,,28,0,28,0,,,,,,,,,,,,,,,,,,,,,,,,,,,,,,,,,,,,,,,,,,,,,,,,,1142.641588500701,None,,,,,,,,,,,,,,,,,,,,,,,,,,,,,,,,,,,,,,,,,,,,,,,,,,,,,,,,,wife,65,29,silent,old,blue,1141.5747445998713,None,y,1141.5747445998713,None,"['y', 'return']","[0.7085677003487945, 1.028646900318563]",1141.5747445998713,None,,,61YA,001,2023_Apr_28_1152,ExactRep-v3-final,2021.2.3,59.941904226918105,
,,,,,,,,,,,,29,0,29,0,,,,,,,,,,,,,,,,,,,,,,,,,,,,,,,,,,,,,,,,,,,,,,,,,1145.7610426004976,None,,,,,,,,,,,,,,,,,,,,,,,,,,,,,,,,,,,,,,,,,,,,,,,,,,,,,,,,,science,204,30,aloud,new,red,1143.1563611999154,None,n,1143.1563611999154,None,"['y', 'backspace', 'n', 'return']","[0.6469711996614933, 1.9750877004116774, 2.2709849001839757, 2.567056399770081]",1143.1563611999154,None,,,61YA,001,2023_Apr_28_1152,ExactRep-v3-final,2021.2.3,59.941904226918105,
,,,,,,,,,,,,30,0,30,0,,,,,,,,,,,,,,,,,,,,,,,,,,,,,,,,,,,,,,,,,,,,,,,,,1147.5795140005648,None,,,,,,,,,,,,,,,,,,,,,,,,,,,,,,,,,,,,,,,,,,,,,,,,,,,,,,,,,product,31,31,sing,old,white,1146.2721971999854,None,y,1146.2721971999854,None,"['y', 'return']","[0.907209100201726, 1.2751356000080705]",1146.2721971999854,None,,,61YA,001,2023_Apr_28_1152,ExactRep-v3-final,2021.2.3,59.941904226918105,
,,,,,,,,,,,,31,0,31,0,,,,,,,,,,,,,,,,,,,,,,,,,,,,,,,,,,,,,,,,,,,,,,,,,1149.331212600693,None,,,,,,,,,,,,,,,,,,,,,,,,,,,,,,,,,,,,,,,,,,,,,,,,,,,,,,,,,crime,177,32,sing,new,white,1148.0854898001999,None,n,1148.0854898001999,None,"['n', 'return']","[0.9257952002808452, 1.2138219000771642]",1148.0854898001999,None,,,61YA,001,2023_Apr_28_1152,ExactRep-v3-final,2021.2.3,59.941904226918105,
,,,,,,,,,,,,32,0,32,0,,,,,,,,,,,,,,,,,,,,,,,,,,,,,,,,,,,,,,,,,,,,,,,,,1151.6334564005956,None,,,,,,,,,,,,,,,,,,,,,,,,,,,,,,,,,,,,,,,,,,,,,,,,,,,,,,,,,student,217,33,sing,new,white,1149.8488129004836,None,n,1149.8488129004836,None,"['n', 'return']","[0.9785297997295856, 1.7384071005508304]",1149.8488129004836,None,,,61YA,001,2023_Apr_28_1152,ExactRep-v3-final,2021.2.3,59.941904226918105,
,,,,,,,,,,,,33,0,33,0,,,,,,,,,,,,,,,,,,,,,,,,,,,,,,,,,,,,,,,,,,,,,,,,,1154.4195803003386,None,,,,,,,,,,,,,,,,,,,,,,,,,,,,,,,,,,,,,,,,,,,,,,,,,,,,,,,,,tool,235,34,sing,new,white,1152.1412793006748,None,n,1152.1412793006748,None,"['n', 'return']","[1.9662214005365968, 2.238012100569904]",1152.1412793006748,None,,,61YA,001,2023_Apr_28_1152,ExactRep-v3-final,2021.2.3,59.941904226918105,
,,,,,,,,,,,,34,0,34,0,,,,,,,,,,,,,,,,,,,,,,,,,,,,,,,,,,,,,,,,,,,,,,,,,1156.1379518005997,None,,,,,,,,,,,,,,,,,,,,,,,,,,,,,,,,,,,,,,,,,,,,,,,,,,,,,,,,,safety,6,35,sing,old,white,1154.9287069002166,None,n,1154.9287069002166,None,"['n', 'return']","[0.7866269992664456, 1.170741799287498]",1154.9287069002166,None,,,61YA,001,2023_Apr_28_1152,ExactRep-v3-final,2021.2.3,59.941904226918105,
,,,,,,,,,,,,35,0,35,0,,,,,,,,,,,,,,,,,,,,,,,,,,,,,,,,,,,,,,,,,,,,,,,,,1159.0409483006224,None,,,,,,,,,,,,,,,,,,,,,,,,,,,,,,,,,,,,,,,,,,,,,,,,,,,,,,,,,death,126,36,silent,new,blue,1156.6455151000991,None,y,1156.6455151000991,None,"['y', 'return']","[2.0297928992658854, 2.349995599128306]",1156.6455151000991,None,,,61YA,001,2023_Apr_28_1152,ExactRep-v3-final,2021.2.3,59.941904226918105,
,,,,,,,,,,,,36,0,36,0,,,,,,,,,,,,,,,,,,,,,,,,,,,,,,,,,,,,,,,,,,,,,,,,,1160.6758184004575,None,,,,,,,,,,,,,,,,,,,,,,,,,,,,,,,,,,,,,,,,,,,,,,,,,,,,,,,,,moral,128,37,silent,new,blue,1159.5427582999691,None,n,1159.5427582999691,None,"['n', 'return']","[0.7966881999745965, 1.0925626996904612]",1159.5427582999691,None,,,61YA,001,2023_Apr_28_1152,ExactRep-v3-final,2021.2.3,59.941904226918105,
,,,,,,,,,,,,37,0,37,0,,,,,,,,,,,,,,,,,,,,,,,,,,,,,,,,,,,,,,,,,,,,,,,,,1162.2440485004336,None,,,,,,,,,,,,,,,,,,,,,,,,,,,,,,,,,,,,,,,,,,,,,,,,,,,,,,,,,kiss,169,38,sing,new,white,1161.1857985006645,None,n,1161.1857985006645,None,"['n', 'return']","[0.7456120001152158, 1.0176008995622396]",1161.1857985006645,None,,,61YA,001,2023_Apr_28_1152,ExactRep-v3-final,2021.2.3,59.941904226918105,
,,,,,,,,,,,,38,0,38,0,,,,,,,,,,,,,,,,,,,,,,,,,,,,,,,,,,,,,,,,,,,,,,,,,1163.7121908003464,None,,,,,,,,,,,,,,,,,,,,,,,,,,,,,,,,,,,,,,,,,,,,,,,,,,,,,,,,,poet,106,39,aloud,old,red,1162.7560932002962,None,y,1162.7560932002962,None,"['y', 'return']","[0.6710940003395081, 0.911230799742043]",1162.7560932002962,None,,,61YA,001,2023_Apr_28_1152,ExactRep-v3-final,2021.2.3,59.941904226918105,
,,,,,,,,,,,,39,0,39,0,,,,,,,,,,,,,,,,,,,,,,,,,,,,,,,,,,,,,,,,,,,,,,,,,1165.2971061002463,None,,,,,,,,,,,,,,,,,,,,,,,,,,,,,,,,,,,,,,,,,,,,,,,,,,,,,,,,,cotton,33,40,sing,old,white,1164.222026400268,None,y,1164.222026400268,None,"['y', 'return']","[0.7572297006845474, 1.0372894005849957]",1164.222026400268,None,,,61YA,001,2023_Apr_28_1152,ExactRep-v3-final,2021.2.3,59.941904226918105,
,,,,,,,,,,,,40,0,40,0,,,,,,,,,,,,,,,,,,,,,,,,,,,,,,,,,,,,,,,,,,,,,,,,,1168.7340493006632,None,,,,,,,,,,,,,,,,,,,,,,,,,,,,,,,,,,,,,,,,,,,,,,,,,,,,,,,,,circle,104,41,aloud,old,red,1165.8012462006882,None,n,1165.8012462006882,None,"['y', 'backspace', 'n', 'return']","[0.9699610006064177, 2.2341122003272176, 2.602144700475037, 2.8980444008484483]",1165.8012462006882,None,,,61YA,001,2023_Apr_28_1152,ExactRep-v3-final,2021.2.3,59.941904226918105,
,,,,,,,,,,,,41,0,41,0,,,,,,,,,,,,,,,,,,,,,,,,,,,,,,,,,,,,,,,,,,,,,,,,,1171.0029514003545,None,,,,,,,,,,,,,,,,,,,,,,,,,,,,,,,,,,,,,,,,,,,,,,,,,,,,,,,,,author,238,42,aloud,new,red,1169.234574300237,None,n,1169.234574300237,None,"['n', 'return']","[1.3287241999059916, 1.7288259007036686]",1169.234574300237,None,,,61YA,001,2023_Apr_28_1152,ExactRep-v3-final,2021.2.3,59.941904226918105,
,,,,,,,,,,,,42,0,42,0,,,,,,,,,,,,,,,,,,,,,,,,,,,,,,,,,,,,,,,,,,,,,,,,,1173.23838720005,None,,,,,,,,,,,,,,,,,,,,,,,,,,,,,,,,,,,,,,,,,,,,,,,,,,,,,,,,,month,166,43,aloud,new,red,1171.520666600205,None,n,1171.520666600205,None,"['n', 'return']","[1.370843100361526, 1.6746661001816392]",1171.520666600205,None,,,61YA,001,2023_Apr_28_1152,ExactRep-v3-final,2021.2.3,59.941904226918105,
,,,,,,,,,,,,43,0,43,0,,,,,,,,,,,,,,,,,,,,,,,,,,,,,,,,,,,,,,,,,,,,,,,,,1174.9235844006762,None,,,,,,,,,,,,,,,,,,,,,,,,,,,,,,,,,,,,,,,,,,,,,,,,,,,,,,,,,moment,99,44,aloud,old,red,1173.746652400121,None,n,1173.746652400121,None,"['n', 'return']","[0.8485663998872042, 1.1366916997358203]",1173.746652400121,None,,,61YA,001,2023_Apr_28_1152,ExactRep-v3-final,2021.2.3,59.941904226918105,
,,,,,,,,,,,,44,0,44,0,,,,,,,,,,,,,,,,,,,,,,,,,,,,,,,,,,,,,,,,,,,,,,,,,1176.3915446000174,None,,,,,,,,,,,,,,,,,,,,,,,,,,,,,,,,,,,,,,,,,,,,,,,,,,,,,,,,,silence,114,45,aloud,old,red,1175.4402181003243,None,y,1175.4402181003243,None,"['y', 'return']","[0.6512120999395847, 0.915140500292182]",1175.4402181003243,None,,,61YA,001,2023_Apr_28_1152,ExactRep-v3-final,2021.2.3,59.941904226918105,
,,,,,,,,,,,,45,0,45,0,,,,,,,,,,,,,,,,,,,,,,,,,,,,,,,,,,,,,,,,,,,,,,,,,1177.9933847002685,None,,,,,,,,,,,,,,,,,,,,,,,,,,,,,,,,,,,,,,,,,,,,,,,,,,,,,,,,,chair,233,46,sing,new,white,1176.9057964002714,None,n,1176.9057964002714,None,"['n', 'return']","[0.8175638001412153, 1.0495490999892354]",1176.9057964002714,None,,,61YA,001,2023_Apr_28_1152,ExactRep-v3-final,2021.2.3,59.941904226918105,
,,,,,,,,,,,,46,0,46,0,,,,,,,,,,,,,,,,,,,,,,,,,,,,,,,,,,,,,,,,,,,,,,,,,1179.8285408997908,None,,,,,,,,,,,,,,,,,,,,,,,,,,,,,,,,,,,,,,,,,,,,,,,,,,,,,,,,,rock,86,47,aloud,old,red,1178.5031433003023,None,y,1178.5031433003023,None,"['y', 'return']","[0.972265999764204, 1.292331399396062]",1178.5031433003023,None,,,61YA,001,2023_Apr_28_1152,ExactRep-v3-final,2021.2.3,59.941904226918105,
,,,,,,,,,,,,47,0,47,0,,,,,,,,,,,,,,,,,,,,,,,,,,,,,,,,,,,,,,,,,,,,,,,,,1182.41446190048,None,,,,,,,,,,,,,,,,,,,,,,,,,,,,,,,,,,,,,,,,,,,,,,,,,,,,,,,,,dollar,77,48,silent,old,blue,1180.3360910005867,None,y,1180.3360910005867,None,"['y', 'return']","[1.8433455992490053, 2.0352314999327064]",1180.3360910005867,None,,,61YA,001,2023_Apr_28_1152,ExactRep-v3-final,2021.2.3,59.941904226918105,
,,,,,,,,,,,,48,0,48,0,,,,,,,,,,,,,,,,,,,,,,,,,,,,,,,,,,,,,,,,,,,,,,,,,1183.8323654001579,None,,,,,,,,,,,,,,,,,,,,,,,,,,,,,,,,,,,,,,,,,,,,,,,,,,,,,,,,,machine,108,49,aloud,old,red,1182.9265895998105,None,y,1182.9265895998105,None,"['y', 'return']","[0.6368575999513268, 0.8605689005926251]",1182.9265895998105,None,,,61YA,001,2023_Apr_28_1152,ExactRep-v3-final,2021.2.3,59.941904226918105,
,,,,,,,,,,,,49,0,49,0,,,,,,,,,,,,,,,,,,,,,,,,,,,,,,,,,,,,,,,,,,,,,,,,,1185.2670610006899,None,,,,,,,,,,,,,,,,,,,,,,,,,,,,,,,,,,,,,,,,,,,,,,,,,,,,,,,,,water,119,50,aloud,old,red,1184.3417223999277,None,y,1184.3417223999277,None,"['y', 'return']","[0.6215868005529046, 0.8936068005859852]",1184.3417223999277,None,,,61YA,001,2023_Apr_28_1152,ExactRep-v3-final,2021.2.3,59.941904226918105,
,,,,,,,,,,,,50,0,50,0,,,,,,,,,,,,,,,,,,,,,,,,,,,,,,,,,,,,,,,,,,,,,,,,,1186.718597800471,None,,,,,,,,,,,,,,,,,,,,,,,,,,,,,,,,,,,,,,,,,,,,,,,,,,,,,,,,,humour,11,51,sing,old,white,1185.7736020004377,None,y,1185.7736020004377,None,"['y', 'return']","[0.6776514993980527, 0.9098079996183515]",1185.7736020004377,None,,,61YA,001,2023_Apr_28_1152,ExactRep-v3-final,2021.2.3,59.941904226918105,
,,,,,,,,,,,,51,0,51,0,,,,,,,,,,,,,,,,,,,,,,,,,,,,,,,,,,,,,,,,,,,,,,,,,1188.3204105002806,None,,,,,,,,,,,,,,,,,,,,,,,,,,,,,,,,,,,,,,,,,,,,,,,,,,,,,,,,,lad,28,52,sing,old,white,1187.2301316000521,None,y,1187.2301316000521,None,"['y', 'return']","[0.8131959997117519, 1.0452193999662995]",1187.2301316000521,None,,,61YA,001,2023_Apr_28_1152,ExactRep-v3-final,2021.2.3,59.941904226918105,
,,,,,,,,,,,,52,0,52,0,,,,,,,,,,,,,,,,,,,,,,,,,,,,,,,,,,,,,,,,,,,,,,,,,1189.9885525004938,None,,,,,,,,,,,,,,,,,,,,,,,,,,,,,,,,,,,,,,,,,,,,,,,,,,,,,,,,,opinion,60,53,silent,old,blue,1188.8302055001259,None,y,1188.8302055001259,None,"['y', 'return']","[0.8851346997544169, 1.1172358999028802]",1188.8302055001259,None,,,61YA,001,2023_Apr_28_1152,ExactRep-v3-final,2021.2.3,59.941904226918105,
,,,,,,,,,,,,53,0,53,0,,,,,,,,,,,,,,,,,,,,,,,,,,,,,,,,,,,,,,,,,,,,,,,,,1191.5900615006685,None,,,,,,,,,,,,,,,,,,,,,,,,,,,,,,,,,,,,,,,,,,,,,,,,,,,,,,,,,wheat,178,54,aloud,new,red,1190.4992751004174,None,n,1190.4992751004174,None,"['n', 'return']","[0.8241631994023919, 1.0480111995711923]",1190.4992751004174,None,,,61YA,001,2023_Apr_28_1152,ExactRep-v3-final,2021.2.3,59.941904226918105,
,,,,,,,,,,,,54,0,54,0,,,,,,,,,,,,,,,,,,,,,,,,,,,,,,,,,,,,,,,,,,,,,,,,,1195.4105655001476,None,,,,,,,,,,,,,,,,,,,,,,,,,,,,,,,,,,,,,,,,,,,,,,,,,,,,,,,,,woman,94,55,aloud,old,red,1192.09632910043,None,n,1192.09632910043,None,"['n', 'return']","[3.0833589006215334, 3.275434600189328]",1192.09632910043,None,,,61YA,001,2023_Apr_28_1152,ExactRep-v3-final,2021.2.3,59.941904226918105,
,,,,,,,,,,,,55,0,55,0,,,,,,,,,,,,,,,,,,,,,,,,,,,,,,,,,,,,,,,,,,,,,,,,,1197.0956653999165,None,,,,,,,,,,,,,,,,,,,,,,,,,,,,,,,,,,,,,,,,,,,,,,,,,,,,,,,,,duty,69,56,silent,old,blue,1195.923597600311,None,y,1195.923597600311,None,"['y', 'return']","[0.903655699454248, 1.13572490029037]",1195.923597600311,None,,,61YA,001,2023_Apr_28_1152,ExactRep-v3-final,2021.2.3,59.941904226918105,
,,,,,,,,,,,,56,0,56,0,,,,,,,,,,,,,,,,,,,,,,,,,,,,,,,,,,,,,,,,,,,,,,,,,1200.1153282001615,None,,,,,,,,,,,,,,,,,,,,,,,,,,,,,,,,,,,,,,,,,,,,,,,,,,,,,,,,,ability,30,57,sing,old,white,1197.6054704003036,None,n,1197.6054704003036,None,"['n', 'return']","[2.2219792995601892, 2.4619659995660186]",1197.6054704003036,None,,,61YA,001,2023_Apr_28_1152,ExactRep-v3-final,2021.2.3,59.941904226918105,
,,,,,,,,,,,,57,0,57,0,,,,,,,,,,,,,,,,,,,,,,,,,,,,,,,,,,,,,,,,,,,,,,,,,1201.5834683002904,None,,,,,,,,,,,,,,,,,,,,,,,,,,,,,,,,,,,,,,,,,,,,,,,,,,,,,,,,,style,56,58,silent,old,blue,1200.6247919006273,None,y,1200.6247919006273,None,"['y', 'return']","[0.7304961998015642, 0.9225485995411873]",1200.6247919006273,None,,,61YA,001,2023_Apr_28_1152,ExactRep-v3-final,2021.2.3,59.941904226918105,
,,,,,,,,,,,,58,0,58,0,,,,,,,,,,,,,,,,,,,,,,,,,,,,,,,,,,,,,,,,,,,,,,,,,1203.6021434003487,None,,,,,,,,,,,,,,,,,,,,,,,,,,,,,,,,,,,,,,,,,,,,,,,,,,,,,,,,,trouble,159,59,silent,new,blue,1202.0874981004745,None,y,1202.0874981004745,None,"['y', 'return']","[1.259888299740851, 1.475844600237906]",1202.0874981004745,None,,,61YA,001,2023_Apr_28_1152,ExactRep-v3-final,2021.2.3,59.941904226918105,
,,,,,,,,,,,,59,0,59,0,,,,,,,,,,,,,,,,,,,,,,,,,,,,,,,,,,,,,,,,,,,,,,,,,1205.2039042999968,None,,,,,,,,,,,,,,,,,,,,,,,,,,,,,,,,,,,,,,,,,,,,,,,,,,,,,,,,,engine,146,60,silent,new,blue,1204.1066800998524,None,n,1204.1066800998524,None,"['n', 'return']","[0.8089069994166493, 1.0487250993028283]",1204.1066800998524,None,,,61YA,001,2023_Apr_28_1152,ExactRep-v3-final,2021.2.3,59.941904226918105,
,,,,,,,,,,,,60,0,60,0,,,,,,,,,,,,,,,,,,,,,,,,,,,,,,,,,,,,,,,,,,,,,,,,,1206.9054417004809,None,,,,,,,,,,,,,,,,,,,,,,,,,,,,,,,,,,,,,,,,,,,,,,,,,,,,,,,,,cabin,221,61,sing,new,white,1205.7131465002894,None,n,1205.7131465002894,None,"['n', 'return']","[0.8901630993932486, 1.1541924998164177]",1205.7131465002894,None,,,61YA,001,2023_Apr_28_1152,ExactRep-v3-final,2021.2.3,59.941904226918105,
,,,,,,,,,,,,61,0,61,0,,,,,,,,,,,,,,,,,,,,,,,,,,,,,,,,,,,,,,,,,,,,,,,,,1208.5405818000436,None,,,,,,,,,,,,,,,,,,,,,,,,,,,,,,,,,,,,,,,,,,,,,,,,,,,,,,,,,garden,91,62,aloud,old,red,1207.4224199000746,None,y,1207.4224199000746,None,"['y', 'return']","[0.8288312004879117, 1.0768023002892733]",1207.4224199000746,None,,,61YA,001,2023_Apr_28_1152,ExactRep-v3-final,2021.2.3,59.941904226918105,
,,,,,,,,,,,,62,0,62,0,,,,,,,,,,,,,,,,,,,,,,,,,,,,,,,,,,,,,,,,,,,,,,,,,1210.2422783002257,None,,,,,,,,,,,,,,,,,,,,,,,,,,,,,,,,,,,,,,,,,,,,,,,,,,,,,,,,,friend,186,63,aloud,new,red,1209.050861400552,None,n,1209.050861400552,None,"['n', 'return']","[0.8724494995549321, 1.1525729997083545]",1209.050861400552,None,,,61YA,001,2023_Apr_28_1152,ExactRep-v3-final,2021.2.3,59.941904226918105,
,,,,,,,,,,,,63,0,63,0,,,,,,,,,,,,,,,,,,,,,,,,,,,,,,,,,,,,,,,,,,,,,,,,,1211.76030059997,None,,,,,,,,,,,,,,,,,,,,,,,,,,,,,,,,,,,,,,,,,,,,,,,,,,,,,,,,,wine,72,64,silent,old,blue,1210.7522760005668,None,y,1210.7522760005668,None,"['y', 'return']","[0.7712131999433041, 0.9711462007835507]",1210.7522760005668,None,,,61YA,001,2023_Apr_28_1152,ExactRep-v3-final,2021.2.3,59.941904226918105,
,,,,,,,,,,,,64,0,64,0,,,,,,,,,,,,,,,,,,,,,,,,,,,,,,,,,,,,,,,,,,,,,,,,,1213.9389781001955,None,,,,,,,,,,,,,,,,,,,,,,,,,,,,,,,,,,,,,,,,,,,,,,,,,,,,,,,,,doctor,22,65,sing,old,white,1212.2702673003078,None,y,1212.2702673003078,None,"['y', 'return']","[1.2210534000769258, 1.6129383007064462]",1212.2702673003078,None,,,61YA,001,2023_Apr_28_1152,ExactRep-v3-final,2021.2.3,59.941904226918105,
,,,,,,,,,,,,65,0,65,0,,,,,,,,,,,,,,,,,,,,,,,,,,,,,,,,,,,,,,,,,,,,,,,,,1215.5140620004386,None,,,,,,,,,,,,,,,,,,,,,,,,,,,,,,,,,,,,,,,,,,,,,,,,,,,,,,,,,charm,211,66,sing,new,white,1214.4600154999644,None,y,1214.4600154999644,None,"['y', 'return']","[0.7033011997118592, 1.0073420004919171]",1214.4600154999644,None,,,61YA,001,2023_Apr_28_1152,ExactRep-v3-final,2021.2.3,59.941904226918105,
,,,,,,,,,,,,66,0,66,0,,,,,,,,,,,,,,,,,,,,,,,,,,,,,,,,,,,,,,,,,,,,,,,,,1217.0489215003327,None,,,,,,,,,,,,,,,,,,,,,,,,,,,,,,,,,,,,,,,,,,,,,,,,,,,,,,,,,health,16,67,sing,old,white,1216.0168078998104,None,y,1216.0168078998104,None,"['y', 'return']","[0.6906261993572116, 0.9865627000108361]",1216.0168078998104,None,,,61YA,001,2023_Apr_28_1152,ExactRep-v3-final,2021.2.3,59.941904226918105,
,,,,,,,,,,,,67,0,67,0,,,,,,,,,,,,,,,,,,,,,,,,,,,,,,,,,,,,,,,,,,,,,,,,,1218.617078400217,None,,,,,,,,,,,,,,,,,,,,,,,,,,,,,,,,,,,,,,,,,,,,,,,,,,,,,,,,,shoes,50,68,silent,old,blue,1217.5591326998547,None,y,1217.5591326998547,None,"['y', 'return']","[0.820219099521637, 1.0123017998412251]",1217.5591326998547,None,,,61YA,001,2023_Apr_28_1152,ExactRep-v3-final,2021.2.3,59.941904226918105,
,,,,,,,,,,,,68,0,68,0,,,,,,,,,,,,,,,,,,,,,,,,,,,,,,,,,,,,,,,,,,,,,,,,,1220.1686431001872,None,,,,,,,,,,,,,,,,,,,,,,,,,,,,,,,,,,,,,,,,,,,,,,,,,,,,,,,,,world,158,69,silent,new,blue,1219.1253893002868,None,y,1219.1253893002868,None,"['y', 'return']","[0.6539430003613234, 1.0059924004599452]",1219.1253893002868,None,,,61YA,001,2023_Apr_28_1152,ExactRep-v3-final,2021.2.3,59.941904226918105,
,,,,,,,,,,,,69,0,69,0,,,,,,,,,,,,,,,,,,,,,,,,,,,,,,,,,,,,,,,,,,,,,,,,,1221.686979200691,None,,,,,,,,,,,,,,,,,,,,,,,,,,,,,,,,,,,,,,,,,,,,,,,,,,,,,,,,,murder,110,70,aloud,old,red,1220.6824973998591,None,y,1220.6824973998591,None,"['y', 'return']","[0.6488631004467607, 0.9689012998715043]",1220.6824973998591,None,,,61YA,001,2023_Apr_28_1152,ExactRep-v3-final,2021.2.3,59.941904226918105,
,,,,,,,,,,,,70,0,70,0,,,,,,,,,,,,,,,,,,,,,,,,,,,,,,,,,,,,,,,,,,,,,,,,,1223.2050115000457,None,,,,,,,,,,,,,,,,,,,,,,,,,,,,,,,,,,,,,,,,,,,,,,,,,,,,,,,,,slave,71,71,silent,old,blue,1222.18875449989,None,y,1222.18875449989,None,"['y', 'return']","[0.670677300542593, 0.9747271006926894]",1222.18875449989,None,,,61YA,001,2023_Apr_28_1152,ExactRep-v3-final,2021.2.3,59.941904226918105,
,,,,,,,,,,,,71,0,71,0,,,,,,,,,,,,,,,,,,,,,,,,,,,,,,,,,,,,,,,,,,,,,,,,,1224.9734445000067,None,,,,,,,,,,,,,,,,,,,,,,,,,,,,,,,,,,,,,,,,,,,,,,,,,,,,,,,,,master,131,72,silent,new,blue,1223.7143400004134,None,n,1223.7143400004134,None,"['n', 'return']","[0.9213326005265117, 1.2249712999910116]",1223.7143400004134,None,,,61YA,001,2023_Apr_28_1152,ExactRep-v3-final,2021.2.3,59.941904226918105,
,,,,,,,,,,,,72,0,72,0,,,,,,,,,,,,,,,,,,,,,,,,,,,,,,,,,,,,,,,,,,,,,,,,,1226.7919744998217,None,,,,,,,,,,,,,,,,,,,,,,,,,,,,,,,,,,,,,,,,,,,,,,,,,,,,,,,,,maiden,193,73,sing,new,white,1225.4828530000523,None,n,1225.4828530000523,None,"['n', 'return']","[0.944463100284338, 1.2725951997563243]",1225.4828530000523,None,,,61YA,001,2023_Apr_28_1152,ExactRep-v3-final,2021.2.3,59.941904226918105,
,,,,,,,,,,,,73,0,73,0,,,,,,,,,,,,,,,,,,,,,,,,,,,,,,,,,,,,,,,,,,,,,,,,,1228.4104412999004,None,,,,,,,,,,,,,,,,,,,,,,,,,,,,,,,,,,,,,,,,,,,,,,,,,,,,,,,,,disease,58,74,silent,old,blue,1227.3016678998247,None,y,1227.3016678998247,None,"['y', 'return']","[0.7099169995635748, 1.0696305995807052]",1227.3016678998247,None,,,61YA,001,2023_Apr_28_1152,ExactRep-v3-final,2021.2.3,59.941904226918105,
,,,,,,,,,,,,74,0,74,0,,,,,,,,,,,,,,,,,,,,,,,,,,,,,,,,,,,,,,,,,,,,,,,,,1229.8783506006002,None,,,,,,,,,,,,,,,,,,,,,,,,,,,,,,,,,,,,,,,,,,,,,,,,,,,,,,,,,college,116,75,aloud,old,red,1228.9182686004788,None,y,1228.9182686004788,None,"['y', 'return']","[0.5890800999477506, 0.9250289993360639]",1228.9182686004788,None,,,61YA,001,2023_Apr_28_1152,ExactRep-v3-final,2021.2.3,59.941904226918105,
,,,,,,,,,,,,75,0,75,0,,,,,,,,,,,,,,,,,,,,,,,,,,,,,,,,,,,,,,,,,,,,,,,,,1231.9470786005259,None,,,,,,,,,,,,,,,,,,,,,,,,,,,,,,,,,,,,,,,,,,,,,,,,,,,,,,,,,chance,48,76,silent,old,blue,1230.3884009998292,None,y,1230.3884009998292,None,"['y', 'return']","[1.1749692000448704, 1.526982099749148]",1230.3884009998292,None,,,61YA,001,2023_Apr_28_1152,ExactRep-v3-final,2021.2.3,59.941904226918105,
,,,,,,,,,,,,76,0,76,0,,,,,,,,,,,,,,,,,,,,,,,,,,,,,,,,,,,,,,,,,,,,,,,,,1233.5988286007196,None,,,,,,,,,,,,,,,,,,,,,,,,,,,,,,,,,,,,,,,,,,,,,,,,,,,,,,,,,animal,78,77,silent,old,blue,1232.4554189005867,None,n,1232.4554189005867,None,"['n', 'return']","[0.7799021005630493, 1.100063600577414]",1232.4554189005867,None,,,61YA,001,2023_Apr_28_1152,ExactRep-v3-final,2021.2.3,59.941904226918105,
,,,,,,,,,,,,77,0,77,0,,,,,,,,,,,,,,,,,,,,,,,,,,,,,,,,,,,,,,,,,,,,,,,,,1235.4840934006497,None,,,,,,,,,,,,,,,,,,,,,,,,,,,,,,,,,,,,,,,,,,,,,,,,,,,,,,,,,excuse,176,78,aloud,new,red,1234.1160983005539,None,n,1234.1160983005539,None,"['n', 'return']","[1.0152662005275488, 1.3272699005901814]",1234.1160983005539,None,,,61YA,001,2023_Apr_28_1152,ExactRep-v3-final,2021.2.3,59.941904226918105,
,,,,,,,,,,,,78,0,78,0,,,,,,,,,,,,,,,,,,,,,,,,,,,,,,,,,,,,,,,,,,,,,,,,,1238.7539729001,None,,,,,,,,,,,,,,,,,,,,,,,,,,,,,,,,,,,,,,,,,,,,,,,,,,,,,,,,,series,0,79,sing,old,white,1235.9932642001659,None,n,1235.9932642001659,None,"['y', 'backspace', 'n', 'return']","[0.8581531997770071, 2.2341040996834636, 2.474111099727452, 2.722107700072229]",1235.9932642001659,None,,,61YA,001,2023_Apr_28_1152,ExactRep-v3-final,2021.2.3,59.941904226918105,
,,,,,,,,,,,,79,0,79,0,,,,,,,,,,,,,,,,,,,,,,,,,,,,,,,,,,,,,,,,,,,,,,,,,1240.8559918003157,None,,,,,,,,,,,,,,,,,,,,,,,,,,,,,,,,,,,,,,,,,,,,,,,,,,,,,,,,,earth,137,80,silent,new,blue,1239.2634895006195,None,n,1239.2634895006195,None,"['n', 'return']","[1.1159167997539043, 1.5559975998476148]",1239.2634895006195,None,,,61YA,001,2023_Apr_28_1152,ExactRep-v3-final,2021.2.3,59.941904226918105,
,,,,,,,,,,,,80,0,80,0,,,,,,,,,,,,,,,,,,,,,,,,,,,,,,,,,,,,,,,,,,,,,,,,,1242.6411906005815,None,,,,,,,,,,,,,,,,,,,,,,,,,,,,,,,,,,,,,,,,,,,,,,,,,,,,,,,,,cost,225,81,sing,new,white,1241.3645646004006,None,n,1241.3645646004006,None,"['n', 'return']","[0.967021900229156, 1.230888600461185]",1241.3645646004006,None,,,61YA,001,2023_Apr_28_1152,ExactRep-v3-final,2021.2.3,59.941904226918105,
,,,,,,,,,,,,81,0,81,0,,,,,,,,,,,,,,,,,,,,,,,,,,,,,,,,,,,,,,,,,,,,,,,,,1244.1819312004372,None,,,,,,,,,,,,,,,,,,,,,,,,,,,,,,,,,,,,,,,,,,,,,,,,,,,,,,,,,salary,102,82,aloud,old,red,1243.1552159003913,None,y,1243.1552159003913,None,"['y', 'return']","[0.6481773005798459, 0.9840736007317901]",1243.1552159003913,None,,,61YA,001,2023_Apr_28_1152,ExactRep-v3-final,2021.2.3,59.941904226918105,
,,,,,,,,,,,,82,0,82,0,,,,,,,,,,,,,,,,,,,,,,,,,,,,,,,,,,,,,,,,,,,,,,,,,1246.011294300668,None,,,,,,,,,,,,,,,,,,,,,,,,,,,,,,,,,,,,,,,,,,,,,,,,,,,,,,,,,butter,44,83,silent,old,blue,1244.6973385000601,None,y,1244.6973385000601,None,"['y', 'return']","[0.9220398999750614, 1.2741352999582887]",1244.6973385000601,None,,,61YA,001,2023_Apr_28_1152,ExactRep-v3-final,2021.2.3,59.941904226918105,
,,,,,,,,,,,,83,0,83,0,,,,,,,,,,,,,,,,,,,,,,,,,,,,,,,,,,,,,,,,,,,,,,,,,1247.5626977998763,None,,,,,,,,,,,,,,,,,,,,,,,,,,,,,,,,,,,,,,,,,,,,,,,,,,,,,,,,,event,76,84,silent,old,blue,1246.527155900374,None,y,1246.527155900374,None,"['y', 'return']","[0.6762620005756617, 0.9962561000138521]",1246.527155900374,None,,,61YA,001,2023_Apr_28_1152,ExactRep-v3-final,2021.2.3,59.941904226918105,
,,,,,,,,,,,,84,0,84,0,,,,,,,,,,,,,,,,,,,,,,,,,,,,,,,,,,,,,,,,,,,,,,,,,1249.131002000533,None,,,,,,,,,,,,,,,,,,,,,,,,,,,,,,,,,,,,,,,,,,,,,,,,,,,,,,,,,cat,219,85,sing,new,white,1248.0725292004645,None,n,1248.0725292004645,None,"['n', 'return']","[0.7388324001803994, 1.0108142998069525]",1248.0725292004645,None,,,61YA,001,2023_Apr_28_1152,ExactRep-v3-final,2021.2.3,59.941904226918105,
,,,,,,,,,,,,85,0,85,0,,,,,,,,,,,,,,,,,,,,,,,,,,,,,,,,,,,,,,,,,,,,,,,,,1257.2390499003232,None,,,,,,,,,,,,,,,,,,,,,,,,,,,,,,,,,,,,,,,,,,,,,,,,,,,,,,,,,lord,162,86,aloud,new,red,1249.6383105004206,None,n,1249.6383105004206,None,"['y', 'backspace', 'n', 'return']","[0.8051716005429626, 2.9811533000320196, 7.261100499890745, 7.557032500393689]",1249.6383105004206,None,,,61YA,001,2023_Apr_28_1152,ExactRep-v3-final,2021.2.3,59.941904226918105,
,,,,,,,,,,,,86,0,86,0,,,,,,,,,,,,,,,,,,,,,,,,,,,,,,,,,,,,,,,,,,,,,,,,,1258.6739969998598,None,,,,,,,,,,,,,,,,,,,,,,,,,,,,,,,,,,,,,,,,,,,,,,,,,,,,,,,,,girl,55,87,silent,old,blue,1257.7464476004243,None,y,1257.7464476004243,None,"['y', 'return']","[0.5929124001413584, 0.8892586007714272]",1257.7464476004243,None,,,61YA,001,2023_Apr_28_1152,ExactRep-v3-final,2021.2.3,59.941904226918105,
,,,,,,,,,,,,87,0,87,0,,,,,,,,,,,,,,,,,,,,,,,,,,,,,,,,,,,,,,,,,,,,,,,,,1261.2933101998642,None,,,,,,,,,,,,,,,,,,,,,,,,,,,,,,,,,,,,,,,,,,,,,,,,,,,,,,,,,leader,109,88,aloud,old,red,1259.186421699822,None,y,1259.186421699822,None,"['y', 'return']","[1.776952899992466, 2.0649774996563792]",1259.186421699822,None,,,61YA,001,2023_Apr_28_1152,ExactRep-v3-final,2021.2.3,59.941904226918105,
,,,,,,,,,,,,88,0,88,0,,,,,,,,,,,,,,,,,,,,,,,,,,,,,,,,,,,,,,,,,,,,,,,,,1263.0783050004393,None,,,,,,,,,,,,,,,,,,,,,,,,,,,,,,,,,,,,,,,,,,,,,,,,,,,,,,,,,method,201,89,sing,new,white,1261.8012532005087,None,n,1261.8012532005087,None,"['n', 'return']","[0.8820428997278214, 1.2421994004398584]",1261.8012532005087,None,,,61YA,001,2023_Apr_28_1152,ExactRep-v3-final,2021.2.3,59.941904226918105,
,,,,,,,,,,,,89,0,89,0,,,,,,,,,,,,,,,,,,,,,,,,,,,,,,,,,,,,,,,,,,,,,,,,,1264.5964727001265,None,,,,,,,,,,,,,,,,,,,,,,,,,,,,,,,,,,,,,,,,,,,,,,,,,,,,,,,,,troops,112,90,aloud,old,red,1263.5893946001306,None,y,1263.5893946001306,None,"['y', 'return']","[0.7102156998589635, 0.9660799996927381]",1263.5893946001306,None,,,61YA,001,2023_Apr_28_1152,ExactRep-v3-final,2021.2.3,59.941904226918105,
,,,,,,,,,,,,90,0,90,0,,,,,,,,,,,,,,,,,,,,,,,,,,,,,,,,,,,,,,,,,,,,,,,,,1266.0647326000035,None,,,,,,,,,,,,,,,,,,,,,,,,,,,,,,,,,,,,,,,,,,,,,,,,,,,,,,,,,grass,88,91,aloud,old,red,1265.1082894001156,None,y,1265.1082894001156,None,"['y', 'return']","[0.6471345005556941, 0.9191032005473971]",1265.1082894001156,None,,,61YA,001,2023_Apr_28_1152,ExactRep-v3-final,2021.2.3,59.941904226918105,
,,,,,,,,,,,,91,0,91,0,,,,,,,,,,,,,,,,,,,,,,,,,,,,,,,,,,,,,,,,,,,,,,,,,1267.9499280005693,None,,,,,,,,,,,,,,,,,,,,,,,,,,,,,,,,,,,,,,,,,,,,,,,,,,,,,,,,,market,205,92,sing,new,white,1266.5743898004293,None,n,1266.5743898004293,None,"['n', 'return']","[0.9971587006002665, 1.3411143003031611]",1266.5743898004293,None,,,61YA,001,2023_Apr_28_1152,ExactRep-v3-final,2021.2.3,59.941904226918105,
,,,,,,,,,,,,92,0,92,0,,,,,,,,,,,,,,,,,,,,,,,,,,,,,,,,,,,,,,,,,,,,,,,,,1269.5014917999506,None,,,,,,,,,,,,,,,,,,,,,,,,,,,,,,,,,,,,,,,,,,,,,,,,,,,,,,,,,officer,14,93,sing,old,white,1268.4543264005333,None,y,1268.4543264005333,None,"['y', 'return']","[0.7410697005689144, 1.013082300312817]",1268.4543264005333,None,,,61YA,001,2023_Apr_28_1152,ExactRep-v3-final,2021.2.3,59.941904226918105,
,,,,,,,,,,,,93,0,93,0,,,,,,,,,,,,,,,,,,,,,,,,,,,,,,,,,,,,,,,,,,,,,,,,,1271.786938900128,None,,,,,,,,,,,,,,,,,,,,,,,,,,,,,,,,,,,,,,,,,,,,,,,,,,,,,,,,,insect,134,94,silent,new,blue,1270.0125358998775,None,y,1270.0125358998775,None,"['y', 'return']","[1.4548646993935108, 1.7269331002607942]",1270.0125358998775,None,,,61YA,001,2023_Apr_28_1152,ExactRep-v3-final,2021.2.3,59.941904226918105,
,,,,,,,,,,,,94,0,94,0,,,,,,,,,,,,,,,,,,,,,,,,,,,,,,,,,,,,,,,,,,,,,,,,,1273.4719739006832,None,,,,,,,,,,,,,,,,,,,,,,,,,,,,,,,,,,,,,,,,,,,,,,,,,,,,,,,,,meeting,234,95,aloud,new,red,1272.291214500554,None,n,1272.291214500554,None,"['n', 'return']","[0.8722630999982357, 1.144314399920404]",1272.291214500554,None,,,61YA,001,2023_Apr_28_1152,ExactRep-v3-final,2021.2.3,59.941904226918105,
,,,,,,,,,,,,95,0,95,0,,,,,,,,,,,,,,,,,,,,,,,,,,,,,,,,,,,,,,,,,,,,,,,,,1275.090224900283,None,,,,,,,,,,,,,,,,,,,,,,,,,,,,,,,,,,,,,,,,,,,,,,,,,,,,,,,,,devil,184,96,aloud,new,red,1273.981987000443,None,n,1273.981987000443,None,"['n', 'return']","[0.7414415990933776, 1.0613310998305678]",1273.981987000443,None,,,61YA,001,2023_Apr_28_1152,ExactRep-v3-final,2021.2.3,59.941904226918105,
,,,,,,,,,,,,96,0,96,0,,,,,,,,,,,,,,,,,,,,,,,,,,,,,,,,,,,,,,,,,,,,,,,,,1277.3257908001542,None,,,,,,,,,,,,,,,,,,,,,,,,,,,,,,,,,,,,,,,,,,,,,,,,,,,,,,,,,picture,43,97,silent,old,blue,1275.6018107999116,None,y,1275.6018107999116,None,"['y', 'return']","[1.3936887998133898, 1.6818030001595616]",1275.6018107999116,None,,,61YA,001,2023_Apr_28_1152,ExactRep-v3-final,2021.2.3,59.941904226918105,
,,,,,,,,,,,,97,0,97,0,,,,,,,,,,,,,,,,,,,,,,,,,,,,,,,,,,,,,,,,,,,,,,,,,1279.0442433003336,None,,,,,,,,,,,,,,,,,,,,,,,,,,,,,,,,,,,,,,,,,,,,,,,,,,,,,,,,,teacher,9,98,sing,old,white,1277.836928700097,None,y,1277.836928700097,None,"['y', 'return']","[0.8785137003287673, 1.1665297001600266]",1277.836928700097,None,,,61YA,001,2023_Apr_28_1152,ExactRep-v3-final,2021.2.3,59.941904226918105,
,,,,,,,,,,,,98,0,98,0,,,,,,,,,,,,,,,,,,,,,,,,,,,,,,,,,,,,,,,,,,,,,,,,,1280.5958300000057,None,,,,,,,,,,,,,,,,,,,,,,,,,,,,,,,,,,,,,,,,,,,,,,,,,,,,,,,,,green,2,99,sing,old,white,1279.5535364998505,None,y,1279.5535364998505,None,"['y', 'return']","[0.7218456994742155, 1.0019838996231556]",1279.5535364998505,None,,,61YA,001,2023_Apr_28_1152,ExactRep-v3-final,2021.2.3,59.941904226918105,
,,,,,,,,,,,,99,0,99,0,,,,,,,,,,,,,,,,,,,,,,,,,,,,,,,,,,,,,,,,,,,,,,,,,1282.6144901001826,None,,,,,,,,,,,,,,,,,,,,,,,,,,,,,,,,,,,,,,,,,,,,,,,,,,,,,,,,,quality,130,100,silent,new,blue,1281.1063994001597,None,y,1281.1063994001597,None,"['y', 'return']","[1.2809520000591874, 1.4730336992070079]",1281.1063994001597,None,,,61YA,001,2023_Apr_28_1152,ExactRep-v3-final,2021.2.3,59.941904226918105,
,,,,,,,,,,,,100,0,100,0,,,,,,,,,,,,,,,,,,,,,,,,,,,,,,,,,,,,,,,,,,,,,,,,,1284.5332232005894,None,,,,,,,,,,,,,,,,,,,,,,,,,,,,,,,,,,,,,,,,,,,,,,,,,,,,,,,,,meat,168,101,aloud,new,red,1283.1229150006548,None,n,1283.1229150006548,None,"['n', 'return']","[1.112440699711442, 1.3764340002089739]",1283.1229150006548,None,,,61YA,001,2023_Apr_28_1152,ExactRep-v3-final,2021.2.3,59.941904226918105,
,,,,,,,,,,,,101,0,101,0,,,,,,,,,,,,,,,,,,,,,,,,,,,,,,,,,,,,,,,,,,,,,,,,,1286.5184169001877,None,,,,,,,,,,,,,,,,,,,,,,,,,,,,,,,,,,,,,,,,,,,,,,,,,,,,,,,,,chief,161,102,sing,new,white,1285.0429592002183,None,n,1285.0429592002183,None,"['n', 'return']","[1.1764380000531673, 1.432416600175202]",1285.0429592002183,None,,,61YA,001,2023_Apr_28_1152,ExactRep-v3-final,2021.2.3,59.941904226918105,
,,,,,,,,,,,,102,0,102,0,,,,,,,,,,,,,,,,,,,,,,,,,,,,,,,,,,,,,,,,,,,,,,,,,1288.2536404002458,None,,,,,,,,,,,,,,,,,,,,,,,,,,,,,,,,,,,,,,,,,,,,,,,,,,,,,,,,,valley,138,103,silent,new,blue,1287.0286888005212,None,y,1287.0286888005212,None,"['y', 'return']","[0.9347337996587157, 1.1826611999422312]",1287.0286888005212,None,,,61YA,001,2023_Apr_28_1152,ExactRep-v3-final,2021.2.3,59.941904226918105,
,,,,,,,,,,,,103,0,103,0,,,,,,,,,,,,,,,,,,,,,,,,,,,,,,,,,,,,,,,,,,,,,,,,,1290.9395837001503,None,,,,,,,,,,,,,,,,,,,,,,,,,,,,,,,,,,,,,,,,,,,,,,,,,,,,,,,,,window,222,104,aloud,new,red,1288.7600059006363,None,n,1288.7600059006363,None,"['n', 'return']","[1.8915797993540764, 2.147517499513924]",1288.7600059006363,None,,,61YA,001,2023_Apr_28_1152,ExactRep-v3-final,2021.2.3,59.941904226918105,
,,,,,,,,,,,,104,0,104,0,,,,,,,,,,,,,,,,,,,,,,,,,,,,,,,,,,,,,,,,,,,,,,,,,1292.7412392003462,None,,,,,,,,,,,,,,,,,,,,,,,,,,,,,,,,,,,,,,,,,,,,,,,,,,,,,,,,,colony,239,105,sing,new,white,1291.4492879007012,None,n,1291.4492879007012,None,"['n', 'return']","[0.8822036003693938, 1.2581331003457308]",1291.4492879007012,None,,,61YA,001,2023_Apr_28_1152,ExactRep-v3-final,2021.2.3,59.941904226918105,
,,,,,,,,,,,,105,0,105,0,,,,,,,,,,,,,,,,,,,,,,,,,,,,,,,,,,,,,,,,,,,,,,,,,1294.2762371003628,None,,,,,,,,,,,,,,,,,,,,,,,,,,,,,,,,,,,,,,,,,,,,,,,,,,,,,,,,,string,100,106,aloud,old,red,1293.2510965000838,None,y,1293.2510965000838,None,"['y', 'return']","[0.7203115997835994, 0.98447319958359]",1293.2510965000838,None,,,61YA,001,2023_Apr_28_1152,ExactRep-v3-final,2021.2.3,59.941904226918105,
,,,,,,,,,,,,106,0,106,0,,,,,,,,,,,,,,,,,,,,,,,,,,,,,,,,,,,,,,,,,,,,,,,,,1295.6943195005879,None,,,,,,,,,,,,,,,,,,,,,,,,,,,,,,,,,,,,,,,,,,,,,,,,,,,,,,,,,glory,81,107,aloud,old,red,1294.7855355003849,None,y,1294.7855355003849,None,"['y', 'return']","[0.6258041001856327, 0.8658867003396153]",1294.7855355003849,None,,,61YA,001,2023_Apr_28_1152,ExactRep-v3-final,2021.2.3,59.941904226918105,
,,,,,,,,,,,,107,0,107,0,,,,,,,,,,,,,,,,,,,,,,,,,,,,,,,,,,,,,,,,,,,,,,,,,1297.4128076005727,None,,,,,,,,,,,,,,,,,,,,,,,,,,,,,,,,,,,,,,,,,,,,,,,,,,,,,,,,,lip,132,108,silent,new,blue,1296.2036851001903,None,y,1296.2036851001903,None,"['y', 'return']","[0.9518614998087287, 1.1677799001336098]",1296.2036851001903,None,,,61YA,001,2023_Apr_28_1152,ExactRep-v3-final,2021.2.3,59.941904226918105,
,,,,,,,,,,,,108,0,108,0,,,,,,,,,,,,,,,,,,,,,,,,,,,,,,,,,,,,,,,,,,,,,,,,,1299.147702500224,None,,,,,,,,,,,,,,,,,,,,,,,,,,,,,,,,,,,,,,,,,,,,,,,,,,,,,,,,,metal,143,109,silent,new,blue,1297.9151670001447,None,y,1297.9151670001447,None,"['y', 'return']","[0.944373500533402, 1.2002779003232718]",1297.9151670001447,None,,,61YA,001,2023_Apr_28_1152,ExactRep-v3-final,2021.2.3,59.941904226918105,
,,,,,,,,,,,,109,0,109,0,,,,,,,,,,,,,,,,,,,,,,,,,,,,,,,,,,,,,,,,,,,,,,,,,1301.2833194006234,None,,,,,,,,,,,,,,,,,,,,,,,,,,,,,,,,,,,,,,,,,,,,,,,,,,,,,,,,,square,208,110,aloud,new,red,1299.6650087004527,None,n,1299.6650087004527,None,"['n', 'return']","[1.2826105002313852, 1.578523600474]",1299.6650087004527,None,,,61YA,001,2023_Apr_28_1152,ExactRep-v3-final,2021.2.3,59.941904226918105,
,,,,,,,,,,,,110,0,110,0,,,,,,,,,,,,,,,,,,,,,,,,,,,,,,,,,,,,,,,,,,,,,,,,,1302.884751200676,None,,,,,,,,,,,,,,,,,,,,,,,,,,,,,,,,,,,,,,,,,,,,,,,,,,,,,,,,,present,140,111,silent,new,blue,1301.791066300124,None,y,1301.791066300124,None,"['y', 'return']","[0.8444453002884984, 1.0523452004417777]",1301.791066300124,None,,,61YA,001,2023_Apr_28_1152,ExactRep-v3-final,2021.2.3,59.941904226918105,
,,,,,,,,,,,,111,0,111,0,,,,,,,,,,,,,,,,,,,,,,,,,,,,,,,,,,,,,,,,,,,,,,,,,1304.436243600212,None,,,,,,,,,,,,,,,,,,,,,,,,,,,,,,,,,,,,,,,,,,,,,,,,,,,,,,,,,table,24,112,sing,old,white,1303.3919994998723,None,y,1303.3919994998723,None,"['y', 'return']","[0.6993634002283216, 1.0035298001021147]",1303.3919994998723,None,,,61YA,001,2023_Apr_28_1152,ExactRep-v3-final,2021.2.3,59.941904226918105,
,,,,,,,,,,,,112,0,112,0,,,,,,,,,,,,,,,,,,,,,,,,,,,,,,,,,,,,,,,,,,,,,,,,,1306.1046739006415,None,,,,,,,,,,,,,,,,,,,,,,,,,,,,,,,,,,,,,,,,,,,,,,,,,,,,,,,,,boulder,220,113,aloud,new,red,1304.9506524000317,None,n,1304.9506524000317,None,"['n', 'return']","[0.8127704998478293, 1.116775299422443]",1304.9506524000317,None,,,61YA,001,2023_Apr_28_1152,ExactRep-v3-final,2021.2.3,59.941904226918105,
,,,,,,,,,,,,113,0,113,0,,,,,,,,,,,,,,,,,,,,,,,,,,,,,,,,,,,,,,,,,,,,,,,,,1307.772987499833,None,,,,,,,,,,,,,,,,,,,,,,,,,,,,,,,,,,,,,,,,,,,,,,,,,,,,,,,,,priest,230,114,aloud,new,red,1306.6145083000883,None,n,1306.6145083000883,None,"['n', 'return']","[0.8129845997318625, 1.1248993994668126]",1306.6145083000883,None,,,61YA,001,2023_Apr_28_1152,ExactRep-v3-final,2021.2.3,59.941904226918105,
,,,,,,,,,,,,114,0,114,0,,,,,,,,,,,,,,,,,,,,,,,,,,,,,,,,,,,,,,,,,,,,,,,,,1310.2089251000434,None,,,,,,,,,,,,,,,,,,,,,,,,,,,,,,,,,,,,,,,,,,,,,,,,,,,,,,,,,life,10,115,sing,old,white,1308.2759779002517,None,n,1308.2759779002517,None,"['n', 'return']","[1.5834625996649265, 1.8874898999929428]",1308.2759779002517,None,,,61YA,001,2023_Apr_28_1152,ExactRep-v3-final,2021.2.3,59.941904226918105,
,,,,,,,,,,,,115,0,115,0,,,,,,,,,,,,,,,,,,,,,,,,,,,,,,,,,,,,,,,,,,,,,,,,,1311.8937606001273,None,,,,,,,,,,,,,,,,,,,,,,,,,,,,,,,,,,,,,,,,,,,,,,,,,,,,,,,,,law,20,116,sing,old,white,1310.717350100167,None,y,1310.717350100167,None,"['y', 'return']","[0.782133299857378, 1.1341078002005816]",1310.717350100167,None,,,61YA,001,2023_Apr_28_1152,ExactRep-v3-final,2021.2.3,59.941904226918105,
,,,,,,,,,,,,116,0,116,0,,,,,,,,,,,,,,,,,,,,,,,,,,,,,,,,,,,,,,,,,,,,,,,,,1313.7291948003694,None,,,,,,,,,,,,,,,,,,,,,,,,,,,,,,,,,,,,,,,,,,,,,,,,,,,,,,,,,form,111,117,aloud,old,red,1312.401825999841,None,y,1312.401825999841,None,"['y', 'return']","[0.953889099881053, 1.2816797997802496]",1312.401825999841,None,,,61YA,001,2023_Apr_28_1152,ExactRep-v3-final,2021.2.3,59.941904226918105,
,,,,,,,,,,,,117,0,117,0,,,,,,,,,,,,,,,,,,,,,,,,,,,,,,,,,,,,,,,,,,,,,,,,,1315.2971818000078,None,,,,,,,,,,,,,,,,,,,,,,,,,,,,,,,,,,,,,,,,,,,,,,,,,,,,,,,,,clock,129,118,silent,new,blue,1314.24309130013,None,y,1314.24309130013,None,"['y', 'return']","[0.752365299500525, 1.0083928992971778]",1314.24309130013,None,,,61YA,001,2023_Apr_28_1152,ExactRep-v3-final,2021.2.3,59.941904226918105,
,,,,,,,,,,,,118,0,118,0,,,,,,,,,,,,,,,,,,,,,,,,,,,,,,,,,,,,,,,,,,,,,,,,,1316.865418200381,None,,,,,,,,,,,,,,,,,,,,,,,,,,,,,,,,,,,,,,,,,,,,,,,,,,,,,,,,,breast,61,119,silent,old,blue,1315.808770400472,None,y,1315.808770400472,None,"['y', 'return']","[0.666652699932456, 1.0107285007834435]",1315.808770400472,None,,,61YA,001,2023_Apr_28_1152,ExactRep-v3-final,2021.2.3,59.941904226918105,
,,,,,,,,,,,,119,0,119,0,,,,,,,,,,,,,,,,,,,,,,,,,,,,,,,,,,,,,,,,,,,,,,,,,1318.400221399963,None,,,,,,,,,,,,,,,,,,,,,,,,,,,,,,,,,,,,,,,,,,,,,,,,,,,,,,,,,letter,216,120,aloud,new,red,1317.3745911000296,None,y,1317.3745911000296,None,"['y', 'return']","[0.6689328998327255, 0.9889521999284625]",1317.3745911000296,None,,,61YA,001,2023_Apr_28_1152,ExactRep-v3-final,2021.2.3,59.941904226918105,
,,,,,,,,,,,,120,0,120,0,,,,,,,,,,,,,,,,,,,,,,,,,,,,,,,,,,,,,,,,,,,,,,,,,1320.268722699955,None,,,,,,,,,,,,,,,,,,,,,,,,,,,,,,,,,,,,,,,,,,,,,,,,,,,,,,,,,street,156,121,silent,new,blue,1318.9077422004193,None,y,1318.9077422004193,None,"['y', 'return']","[1.0077256998047233, 1.327852699905634]",1318.9077422004193,None,,,61YA,001,2023_Apr_28_1152,ExactRep-v3-final,2021.2.3,59.941904226918105,
,,,,,,,,,,,,121,0,121,0,,,,,,,,,,,,,,,,,,,,,,,,,,,,,,,,,,,,,,,,,,,,,,,,,1322.020698800683,None,,,,,,,,,,,,,,,,,,,,,,,,,,,,,,,,,,,,,,,,,,,,,,,,,,,,,,,,,fire,142,122,silent,new,blue,1320.7797113005072,None,n,1320.7797113005072,None,"['n', 'return']","[0.8798885000869632, 1.2079503005370498]",1320.7797113005072,None,,,61YA,001,2023_Apr_28_1152,ExactRep-v3-final,2021.2.3,59.941904226918105,
,,,,,,,,,,,,122,0,122,0,,,,,,,,,,,,,,,,,,,,,,,,,,,,,,,,,,,,,,,,,,,,,,,,,1324.089304400608,None,,,,,,,,,,,,,,,,,,,,,,,,,,,,,,,,,,,,,,,,,,,,,,,,,,,,,,,,,river,171,123,sing,new,white,1322.5292349001393,None,n,1322.5292349001393,None,"['n', 'return']","[1.2102016992866993, 1.514326799660921]",1322.5292349001393,None,,,61YA,001,2023_Apr_28_1152,ExactRep-v3-final,2021.2.3,59.941904226918105,
,,,,,,,,,,,,123,0,123,0,,,,,,,,,,,,,,,,,,,,,,,,,,,,,,,,,,,,,,,,,,,,,,,,,1326.3415601998568,None,,,,,,,,,,,,,,,,,,,,,,,,,,,,,,,,,,,,,,,,,,,,,,,,,,,,,,,,,mind,198,124,aloud,new,red,1324.5979292001575,None,n,1324.5979292001575,None,"['n', 'return']","[1.4055186994373798, 1.7015479998663068]",1324.5979292001575,None,,,61YA,001,2023_Apr_28_1152,ExactRep-v3-final,2021.2.3,59.941904226918105,
,,,,,,,,,,,,124,0,124,0,,,,,,,,,,,,,,,,,,,,,,,,,,,,,,,,,,,,,,,,,,,,,,,,,1327.9430819004774,None,,,,,,,,,,,,,,,,,,,,,,,,,,,,,,,,,,,,,,,,,,,,,,,,,,,,,,,,,grief,80,125,aloud,old,red,1326.8497374998406,None,y,1326.8497374998406,None,"['y', 'return']","[0.7056992007419467, 1.0577180003747344]",1326.8497374998406,None,,,61YA,001,2023_Apr_28_1152,ExactRep-v3-final,2021.2.3,59.941904226918105,
,,,,,,,,,,,,125,0,125,0,,,,,,,,,,,,,,,,,,,,,,,,,,,,,,,,,,,,,,,,,,,,,,,,,1329.9284770004451,None,,,,,,,,,,,,,,,,,,,,,,,,,,,,,,,,,,,,,,,,,,,,,,,,,,,,,,,,,heaven,21,126,sing,old,white,1328.451118300669,None,y,1328.451118300669,None,"['y', 'return']","[1.1442748000845313, 1.440446700900793]",1328.451118300669,None,,,61YA,001,2023_Apr_28_1152,ExactRep-v3-final,2021.2.3,59.941904226918105,
,,,,,,,,,,,,126,0,126,0,,,,,,,,,,,,,,,,,,,,,,,,,,,,,,,,,,,,,,,,,,,,,,,,,1331.463341199793,None,,,,,,,,,,,,,,,,,,,,,,,,,,,,,,,,,,,,,,,,,,,,,,,,,,,,,,,,,blossom,4,127,sing,old,white,1330.4393286006525,None,y,1330.4393286006525,None,"['y', 'return']","[0.7402547998353839, 0.9882837999612093]",1330.4393286006525,None,,,61YA,001,2023_Apr_28_1152,ExactRep-v3-final,2021.2.3,59.941904226918105,
,,,,,,,,,,,,127,0,127,0,,,,,,,,,,,,,,,,,,,,,,,,,,,,,,,,,,,,,,,,,,,,,,,,,1335.5340467002243,None,,,,,,,,,,,,,,,,,,,,,,,,,,,,,,,,,,,,,,,,,,,,,,,,,,,,,,,,,bird,183,128,sing,new,white,1331.9662079000846,None,y,1331.9662079000846,None,"['y', 'return']","[3.2372698998078704, 3.533199899829924]",1331.9662079000846,None,,,61YA,001,2023_Apr_28_1152,ExactRep-v3-final,2021.2.3,59.941904226918105,
,,,,,,,,,,,,128,0,128,0,,,,,,,,,,,,,,,,,,,,,,,,,,,,,,,,,,,,,,,,,,,,,,,,,1337.1858486998826,None,,,,,,,,,,,,,,,,,,,,,,,,,,,,,,,,,,,,,,,,,,,,,,,,,,,,,,,,,soil,174,129,aloud,new,red,1336.0427101003006,None,n,1336.0427101003006,None,"['n', 'return']","[0.7927965000271797, 1.1048601996153593]",1336.0427101003006,None,,,61YA,001,2023_Apr_28_1152,ExactRep-v3-final,2021.2.3,59.941904226918105,
