trials_fam.thisRepN,trials_fam.thisTrialN,trials_fam.thisN,trials_fam.thisIndex,trials_prc.thisRepN,trials_prc.thisTrialN,trials_prc.thisN,trials_prc.thisIndex,StudyLoop.thisRepN,StudyLoop.thisTrialN,StudyLoop.thisN,StudyLoop.thisIndex,TestLoop.thisRepN,TestLoop.thisTrialN,TestLoop.thisN,TestLoop.thisIndex,text_colortest.started,text_colortest.stopped,key_colortest.keys,key_colortest.rt,key_colortest.started,key_colortest.stopped,textCondition.started,textCondition.stopped,keyCondition.keys,keyCondition.rt,keyCondition.started,keyCondition.stopped,Condition_between,Condition_counterbal,keyWelcome.keys,keyWelcome.rt,keyWelcome.started,keyWelcome.stopped,welcome_a.started,welcome_a.stopped,welcome_b.started,welcome_b.stopped,welcome_c.started,welcome_c.stopped,welcome_d.started,welcome_d.stopped,welcome_e.started,welcome_e.stopped,welcome_f.started,welcome_f.stopped,key_resp_fam_inst.keys,key_resp_fam_inst.rt,key_resp_fam_inst.started,key_resp_fam_inst.stopped,fam_a.started,fam_a.stopped,fam_b.started,fam_b.stopped,fam_c.started,fam_c.stopped,fam_d.started,fam_d.stopped,fam_e.started,fam_e.stopped,fam_f.started,fam_f.stopped,text_famil.started,text_famil.stopped,textBlank500.started,textBlank500.stopped,key_resp_prc_inst.keys,key_resp_prc_inst.rt,key_resp_prc_inst.started,key_resp_prc_inst.stopped,prac_a.started,prac_a.stopped,prac_b.started,prac_b.stopped,prac_c.started,prac_c.stopped,prac_d.started,prac_d.stopped,prac_e.started,prac_e.stopped,prac_f.started,prac_f.stopped,text_prc_trial.started,text_prc_trial.stopped,key_resp_study_inst.keys,key_resp_study_inst.rt,key_resp_study_inst.started,key_resp_study_inst.stopped,crit_a.started,crit_a.stopped,crit_b.started,crit_b.stopped,crit_c.started,crit_c.stopped,crit_d.started,crit_d.stopped,crit_e.started,crit_e.stopped,crit_f.started,crit_f.stopped,study_word,study_num,study_order,study_type,word_color,textStudy.started,textStudy.stopped,keyStudy.keys,keyStudy.started,keyStudy.stopped,post_study.started,post_study.stopped,key_resp_post_study.keys,key_resp_post_study.rt,key_resp_post_study.started,key_resp_post_study.stopped,test_inst.started,test_inst.stopped,key_resp_test_inst.keys,key_resp_test_inst.rt,key_resp_test_inst.started,key_resp_test_inst.stopped,test_word,test_num,test_order,test_condition,old_new_test,word_color_test,textConf.started,textConf.stopped,Participant Response,textInput.started,textInput.stopped,keyResp.keys,keyResp.rt,keyResp.started,keyResp.stopped,textEnd.started,textEnd.stopped,participant,session,date,expName,psychopyVersion,frameRate,
,,,,,,,,,,,,,,,,25.34156190045178,None,y,0.399953399784863,25.34156190045178,None,,,,,,,,,,,,,,,,,,,,,,,,,,,,,,,,,,,,,,,,,,,,,,,,,,,,,,,,,,,,,,,,,,,,,,,,,,,,,,,,,,,,,,,,,,,,,,,,,,,,,,,,,,,,,,,,,,,,,,62YB,001,2023_Apr_28_1257,ExactRep-v3-final,2021.2.3,59.985375691478126,
,,,,,,,,,,,,,,,,,,,,,,25.771303299814463,None,b,1.162126099690795,25.771303299814463,None,,,,,,,,,,,,,,,,,,,,,,,,,,,,,,,,,,,,,,,,,,,,,,,,,,,,,,,,,,,,,,,,,,,,,,,,,,,,,,,,,,,,,,,,,,,,,,,,,,,,,,,,,,,,,,,,62YB,001,2023_Apr_28_1257,ExactRep-v3-final,2021.2.3,59.985375691478126,
,,,,,,,,,,,,,,,,,,,,,,,,,,,,colorfoils,b,space,220.68112230021507,37.06027530040592,None,,,,,,,,,,,,,,,,,,,,,,,,,,,,,,,,,,,,,,,,,,,,,,,,,,,,,,,,,,,,,,,,,,,,,,,,,,,,,,,,,,,,,,,,,,,,,,,,,,,,,,,,,,62YB,001,2023_Apr_28_1257,ExactRep-v3-final,2021.2.3,59.985375691478126,
,,,,,,,,,,,,,,,,,,,,,,,,,,,,,,,,,,27.115207300521433,None,27.115207300521433,None,27.115207300521433,None,27.115207300521433,None,27.115207300521433,None,27.115207300521433,None,space,14.712852500379086,267.9005770999938,None,,,,,,,,,,,,,,,,,,,,,,,,,,,,,,,,,,,,,,,,,,,,,,,,,,,,,,,,,,,,,,,,,,,,,,,,,,,,,,,,,,,,,,,,,,62YB,001,2023_Apr_28_1257,ExactRep-v3-final,2021.2.3,59.985375691478126,
0,0,0,0,,,,,,,,,,,,,,,,,,,,,,,,,,,,,,,,,,,,,,,,,,,,,,,257.92012639995664,None,257.92012639995664,None,257.92012639995664,None,257.92012639995664,None,257.92012639995664,None,257.92012639995664,None,282.7044788999483,None,284.6967925997451,None,,,,,,,,,,,,,,,,,,,,,,,,,,,,,,,,,,,,,,,,,,,,,,,,,,,,,,,,,,,,,,,,,,,,,,,,,,62YB,001,2023_Apr_28_1257,ExactRep-v3-final,2021.2.3,59.985375691478126,
1,0,1,0,,,,,,,,,,,,,,,,,,,,,,,,,,,,,,,,,,,,,,,,,,,,,,,,,,,,,,,,,,,285.20199859980494,None,287.21596710011363,None,,,,,,,,,,,,,,,,,,,,,,,,,,,,,,,,,,,,,,,,,,,,,,,,,,,,,,,,,,,,,,,,,,,,,,,,,,62YB,001,2023_Apr_28_1257,ExactRep-v3-final,2021.2.3,59.985375691478126,
2,0,2,0,,,,,,,,,,,,,,,,,,,,,,,,,,,,,,,,,,,,,,,,,,,,,,,,,,,,,,,,,,,287.7199041005224,None,289.7350022997707,None,,,,,,,,,,,,,,,,,,,,,,,,,,,,,,,,,,,,,,,,,,,,,,,,,,,,,,,,,,,,,,,,,,,,,,,,,,62YB,001,2023_Apr_28_1257,ExactRep-v3-final,2021.2.3,59.985375691478126,
3,0,3,0,,,,,,,,,,,,,,,,,,,,,,,,,,,,,,,,,,,,,,,,,,,,,,,,,,,,,,,,,,,290.235494799912,None,292.2374823000282,None,,,,,,,,,,,,,,,,,,,,,,,,,,,,,,,,,,,,,,,,,,,,,,,,,,,,,,,,,,,,,,,,,,,,,,,,,,62YB,001,2023_Apr_28_1257,ExactRep-v3-final,2021.2.3,59.985375691478126,
4,0,4,0,,,,,,,,,,,,,,,,,,,,,,,,,,,,,,,,,,,,,,,,,,,,,,,,,,,,,,,,,,,292.739573800005,None,294.73993870057166,None,,,,,,,,,,,,,,,,,,,,,,,,,,,,,,,,,,,,,,,,,,,,,,,,,,,,,,,,,,,,,,,,,,,,,,,,,,62YB,001,2023_Apr_28_1257,ExactRep-v3-final,2021.2.3,59.985375691478126,
5,0,5,0,,,,,,,,,,,,,,,,,,,,,,,,,,,,,,,,,,,,,,,,,,,,,,,,,,,,,,,,,,,295.24049030058086,None,297.2427567001432,None,,,,,,,,,,,,,,,,,,,,,,,,,,,,,,,,,,,,,,,,,,,,,,,,,,,,,,,,,,,,,,,,,,,,,,,,,,62YB,001,2023_Apr_28_1257,ExactRep-v3-final,2021.2.3,59.985375691478126,
6,0,6,0,,,,,,,,,,,,,,,,,,,,,,,,,,,,,,,,,,,,,,,,,,,,,,,,,,,,,,,,,,,297.7428994998336,None,299.7449884004891,None,,,,,,,,,,,,,,,,,,,,,,,,,,,,,,,,,,,,,,,,,,,,,,,,,,,,,,,,,,,,,,,,,,,,,,,,,,62YB,001,2023_Apr_28_1257,ExactRep-v3-final,2021.2.3,59.985375691478126,
7,0,7,0,,,,,,,,,,,,,,,,,,,,,,,,,,,,,,,,,,,,,,,,,,,,,,,,,,,,,,,,,,,300.24576300010085,None,302.2477609999478,None,,,,,,,,,,,,,,,,,,,,,,,,,,,,,,,,,,,,,,,,,,,,,,,,,,,,,,,,,,,,,,,,,,,,,,,,,,62YB,001,2023_Apr_28_1257,ExactRep-v3-final,2021.2.3,59.985375691478126,
8,0,8,0,,,,,,,,,,,,,,,,,,,,,,,,,,,,,,,,,,,,,,,,,,,,,,,,,,,,,,,,,,,302.7503511002287,None,304.749978300184,None,,,,,,,,,,,,,,,,,,,,,,,,,,,,,,,,,,,,,,,,,,,,,,,,,,,,,,,,,,,,,,,,,,,,,,,,,,62YB,001,2023_Apr_28_1257,ExactRep-v3-final,2021.2.3,59.985375691478126,
9,0,9,0,,,,,,,,,,,,,,,,,,,,,,,,,,,,,,,,,,,,,,,,,,,,,,,,,,,,,,,,,,,305.2510326001793,None,307.2526997998357,None,,,,,,,,,,,,,,,,,,,,,,,,,,,,,,,,,,,,,,,,,,,,,,,,,,,,,,,,,,,,,,,,,,,,,,,,,,62YB,001,2023_Apr_28_1257,ExactRep-v3-final,2021.2.3,59.985375691478126,
10,0,10,0,,,,,,,,,,,,,,,,,,,,,,,,,,,,,,,,,,,,,,,,,,,,,,,,,,,,,,,,,,,307.75372140016407,None,309.7551343003288,None,,,,,,,,,,,,,,,,,,,,,,,,,,,,,,,,,,,,,,,,,,,,,,,,,,,,,,,,,,,,,,,,,,,,,,,,,,62YB,001,2023_Apr_28_1257,ExactRep-v3-final,2021.2.3,59.985375691478126,
11,0,11,0,,,,,,,,,,,,,,,,,,,,,,,,,,,,,,,,,,,,,,,,,,,,,,,,,,,,,,,,,,,310.25551689974964,None,312.2577982004732,None,,,,,,,,,,,,,,,,,,,,,,,,,,,,,,,,,,,,,,,,,,,,,,,,,,,,,,,,,,,,,,,,,,,,,,,,,,62YB,001,2023_Apr_28_1257,ExactRep-v3-final,2021.2.3,59.985375691478126,
12,0,12,0,,,,,,,,,,,,,,,,,,,,,,,,,,,,,,,,,,,,,,,,,,,,,,,,,,,,,,,,,,,312.7673056004569,None,314.7768050003797,None,,,,,,,,,,,,,,,,,,,,,,,,,,,,,,,,,,,,,,,,,,,,,,,,,,,,,,,,,,,,,,,,,,,,,,,,,,62YB,001,2023_Apr_28_1257,ExactRep-v3-final,2021.2.3,59.985375691478126,
13,0,13,0,,,,,,,,,,,,,,,,,,,,,,,,,,,,,,,,,,,,,,,,,,,,,,,,,,,,,,,,,,,315.2788216006011,None,317.2791138999164,None,,,,,,,,,,,,,,,,,,,,,,,,,,,,,,,,,,,,,,,,,,,,,,,,,,,,,,,,,,,,,,,,,,,,,,,,,,62YB,001,2023_Apr_28_1257,ExactRep-v3-final,2021.2.3,59.985375691478126,
14,0,14,0,,,,,,,,,,,,,,,,,,,,,,,,,,,,,,,,,,,,,,,,,,,,,,,,,,,,,,,,,,,317.79344020038843,None,319.79848100058734,None,,,,,,,,,,,,,,,,,,,,,,,,,,,,,,,,,,,,,,,,,,,,,,,,,,,,,,,,,,,,,,,,,,,,,,,,,,62YB,001,2023_Apr_28_1257,ExactRep-v3-final,2021.2.3,59.985375691478126,
,,,,,,,,,,,,,,,,,,,,,,,,,,,,,,,,,,,,,,,,,,,,,,,,,,,,,,,,,,,,,,,,,,space,15.041907300241292,330.4435390997678,None,,,,,,,,,,,,,,,,,,,,,,,,,,,,,,,,,,,,,,,,,,,,,,,,,,,,,,,,,,,,,,,,,,,,,,62YB,001,2023_Apr_28_1257,ExactRep-v3-final,2021.2.3,59.985375691478126,
,,,,0,0,0,0,,,,,,,,,,,,,,,,,,,,,,,,,,,,,,,,,,,,,,,,,,,,,,,,,,,,,,,,,347.5761970002204,None,,,,,320.4628856005147,None,320.4628856005147,None,320.4628856005147,None,320.4628856005147,None,320.4628856005147,None,320.4628856005147,None,345.56177050061524,None,,,,,,,,,,,,,,,,,,,,,,,,,,,,,,,,,,,,,,,,,,,,,,,,,,,,,,,,62YB,001,2023_Apr_28_1257,ExactRep-v3-final,2021.2.3,59.985375691478126,
,,,,1,0,1,0,,,,,,,,,,,,,,,,,,,,,,,,,,,,,,,,,,,,,,,,,,,,,,,,,,,,,,,,,350.07883800007403,None,,,,,,,,,,,,,,,,,348.07652940042317,None,,,,,,,,,,,,,,,,,,,,,,,,,,,,,,,,,,,,,,,,,,,,,,,,,,,,,,,,62YB,001,2023_Apr_28_1257,ExactRep-v3-final,2021.2.3,59.985375691478126,
,,,,2,0,2,0,,,,,,,,,,,,,,,,,,,,,,,,,,,,,,,,,,,,,,,,,,,,,,,,,,,,,,,,,352.5814316002652,None,,,,,,,,,,,,,,,,,350.5789850000292,None,,,,,,,,,,,,,,,,,,,,,,,,,,,,,,,,,,,,,,,,,,,,,,,,,,,,,,,,62YB,001,2023_Apr_28_1257,ExactRep-v3-final,2021.2.3,59.985375691478126,
,,,,3,0,3,0,,,,,,,,,,,,,,,,,,,,,,,,,,,,,,,,,,,,,,,,,,,,,,,,,,,,,,,,,355.0838039005175,None,,,,,,,,,,,,,,,,,353.0818143002689,None,,,,,,,,,,,,,,,,,,,,,,,,,,,,,,,,,,,,,,,,,,,,,,,,,,,,,,,,62YB,001,2023_Apr_28_1257,ExactRep-v3-final,2021.2.3,59.985375691478126,
,,,,4,0,4,0,,,,,,,,,,,,,,,,,,,,,,,,,,,,,,,,,,,,,,,,,,,,,,,,,,,,,,,,,357.58618769980967,None,,,,,,,,,,,,,,,,,355.58431220054626,None,,,,,,,,,,,,,,,,,,,,,,,,,,,,,,,,,,,,,,,,,,,,,,,,,,,,,,,,62YB,001,2023_Apr_28_1257,ExactRep-v3-final,2021.2.3,59.985375691478126,
,,,,5,0,5,0,,,,,,,,,,,,,,,,,,,,,,,,,,,,,,,,,,,,,,,,,,,,,,,,,,,,,,,,,360.0888371001929,None,,,,,,,,,,,,,,,,,358.08692460041493,None,,,,,,,,,,,,,,,,,,,,,,,,,,,,,,,,,,,,,,,,,,,,,,,,,,,,,,,,62YB,001,2023_Apr_28_1257,ExactRep-v3-final,2021.2.3,59.985375691478126,
,,,,6,0,6,0,,,,,,,,,,,,,,,,,,,,,,,,,,,,,,,,,,,,,,,,,,,,,,,,,,,,,,,,,362.5911194998771,None,,,,,,,,,,,,,,,,,360.5892738997936,None,,,,,,,,,,,,,,,,,,,,,,,,,,,,,,,,,,,,,,,,,,,,,,,,,,,,,,,,62YB,001,2023_Apr_28_1257,ExactRep-v3-final,2021.2.3,59.985375691478126,
,,,,7,0,7,0,,,,,,,,,,,,,,,,,,,,,,,,,,,,,,,,,,,,,,,,,,,,,,,,,,,,,,,,,365.09388430044055,None,,,,,,,,,,,,,,,,,363.0918324002996,None,,,,,,,,,,,,,,,,,,,,,,,,,,,,,,,,,,,,,,,,,,,,,,,,,,,,,,,,62YB,001,2023_Apr_28_1257,ExactRep-v3-final,2021.2.3,59.985375691478126,
,,,,8,0,8,0,,,,,,,,,,,,,,,,,,,,,,,,,,,,,,,,,,,,,,,,,,,,,,,,,,,,,,,,,367.59631250053644,None,,,,,,,,,,,,,,,,,365.5943768005818,None,,,,,,,,,,,,,,,,,,,,,,,,,,,,,,,,,,,,,,,,,,,,,,,,,,,,,,,,62YB,001,2023_Apr_28_1257,ExactRep-v3-final,2021.2.3,59.985375691478126,
,,,,9,0,9,0,,,,,,,,,,,,,,,,,,,,,,,,,,,,,,,,,,,,,,,,,,,,,,,,,,,,,,,,,370.0987076004967,None,,,,,,,,,,,,,,,,,368.09693760052323,None,,,,,,,,,,,,,,,,,,,,,,,,,,,,,,,,,,,,,,,,,,,,,,,,,,,,,,,,62YB,001,2023_Apr_28_1257,ExactRep-v3-final,2021.2.3,59.985375691478126,
,,,,10,0,10,0,,,,,,,,,,,,,,,,,,,,,,,,,,,,,,,,,,,,,,,,,,,,,,,,,,,,,,,,,372.6012938003987,None,,,,,,,,,,,,,,,,,370.5995359001681,None,,,,,,,,,,,,,,,,,,,,,,,,,,,,,,,,,,,,,,,,,,,,,,,,,,,,,,,,62YB,001,2023_Apr_28_1257,ExactRep-v3-final,2021.2.3,59.985375691478126,
,,,,11,0,11,0,,,,,,,,,,,,,,,,,,,,,,,,,,,,,,,,,,,,,,,,,,,,,,,,,,,,,,,,,375.10386009979993,None,,,,,,,,,,,,,,,,,373.1017949003726,None,,,,,,,,,,,,,,,,,,,,,,,,,,,,,,,,,,,,,,,,,,,,,,,,,,,,,,,,62YB,001,2023_Apr_28_1257,ExactRep-v3-final,2021.2.3,59.985375691478126,
,,,,12,0,12,0,,,,,,,,,,,,,,,,,,,,,,,,,,,,,,,,,,,,,,,,,,,,,,,,,,,,,,,,,377.6061712000519,None,,,,,,,,,,,,,,,,,375.60438380017877,None,,,,,,,,,,,,,,,,,,,,,,,,,,,,,,,,,,,,,,,,,,,,,,,,,,,,,,,,62YB,001,2023_Apr_28_1257,ExactRep-v3-final,2021.2.3,59.985375691478126,
,,,,13,0,13,0,,,,,,,,,,,,,,,,,,,,,,,,,,,,,,,,,,,,,,,,,,,,,,,,,,,,,,,,,380.1088217003271,None,,,,,,,,,,,,,,,,,378.10666859988123,None,,,,,,,,,,,,,,,,,,,,,,,,,,,,,,,,,,,,,,,,,,,,,,,,,,,,,,,,62YB,001,2023_Apr_28_1257,ExactRep-v3-final,2021.2.3,59.985375691478126,
,,,,14,0,14,0,,,,,,,,,,,,,,,,,,,,,,,,,,,,,,,,,,,,,,,,,,,,,,,,,,,,,,,,,382.61117960046977,None,,,,,,,,,,,,,,,,,380.60936340037733,None,,,,,,,,,,,,,,,,,,,,,,,,,,,,,,,,,,,,,,,,,,,,,,,,,,,,,,,,62YB,001,2023_Apr_28_1257,ExactRep-v3-final,2021.2.3,59.985375691478126,
,,,,,,,,,,,,,,,,,,,,,,,,,,,,,,,,,,,,,,,,,,,,,,,,,,,,,,,,,,,,,,,,,,,,,,,,,,,,,,,,,,,,space,18.465319700539112,393.2282707998529,None,,,,,,,,,,,,,,,,,,,,,,,,,,,,,,,,,,,,,,,,,,,,,,,,,,,,62YB,001,2023_Apr_28_1257,ExactRep-v3-final,2021.2.3,59.985375691478126,
,,,,,,,,0,0,0,0,,,,,,,,,,,,,,,,,,,,,,,,,,,,,,,,,,,,,,,,,,,,,,,,,,,,,413.79257440008223,None,,,,,,,,,,,,,,,,,,,,,,,383.25476559996605,None,383.25476559996605,None,383.25476559996605,None,383.25476559996605,None,383.25476559996605,None,383.25476559996605,None,heaven,60,1,silent,white,411.7878683004528,None,None,411.7878683004528,None,,,,,,,,,,,,,,,,,,,,,,,,,,,,,,62YB,001,2023_Apr_28_1257,ExactRep-v3-final,2021.2.3,59.985375691478126,
,,,,,,,,1,0,1,0,,,,,,,,,,,,,,,,,,,,,,,,,,,,,,,,,,,,,,,,,,,,,,,,,,,,,416.311368400231,None,,,,,,,,,,,,,,,,,,,,,,,,,,,,,,,,,,,brain,45,2,silent,white,414.29819770064205,None,None,414.29819770064205,None,,,,,,,,,,,,,,,,,,,,,,,,,,,,,,62YB,001,2023_Apr_28_1257,ExactRep-v3-final,2021.2.3,59.985375691478126,
,,,,,,,,2,0,2,0,,,,,,,,,,,,,,,,,,,,,,,,,,,,,,,,,,,,,,,,,,,,,,,,,,,,,418.8310438999906,None,,,,,,,,,,,,,,,,,,,,,,,,,,,,,,,,,,,present,43,3,silent,white,416.82863880041987,None,None,416.82863880041987,None,,,,,,,,,,,,,,,,,,,,,,,,,,,,,,62YB,001,2023_Apr_28_1257,ExactRep-v3-final,2021.2.3,59.985375691478126,
,,,,,,,,3,0,3,0,,,,,,,,,,,,,,,,,,,,,,,,,,,,,,,,,,,,,,,,,,,,,,,,,,,,,421.333269700408,None,,,,,,,,,,,,,,,,,,,,,,,,,,,,,,,,,,,bottle,19,4,sing,blue,419.33274760004133,None,None,419.33274760004133,None,,,,,,,,,,,,,,,,,,,,,,,,,,,,,,62YB,001,2023_Apr_28_1257,ExactRep-v3-final,2021.2.3,59.985375691478126,
,,,,,,,,4,0,4,0,,,,,,,,,,,,,,,,,,,,,,,,,,,,,,,,,,,,,,,,,,,,,,,,,,,,,423.83591810055077,None,,,,,,,,,,,,,,,,,,,,,,,,,,,,,,,,,,,college,51,5,silent,white,421.8361096000299,None,None,421.8361096000299,None,,,,,,,,,,,,,,,,,,,,,,,,,,,,,,62YB,001,2023_Apr_28_1257,ExactRep-v3-final,2021.2.3,59.985375691478126,
,,,,,,,,5,0,5,0,,,,,,,,,,,,,,,,,,,,,,,,,,,,,,,,,,,,,,,,,,,,,,,,,,,,,426.35502090025693,None,,,,,,,,,,,,,,,,,,,,,,,,,,,,,,,,,,,anger,99,6,aloud,red,424.3395679006353,None,None,424.3395679006353,None,,,,,,,,,,,,,,,,,,,,,,,,,,,,,,62YB,001,2023_Apr_28_1257,ExactRep-v3-final,2021.2.3,59.985375691478126,
,,,,,,,,6,0,6,0,,,,,,,,,,,,,,,,,,,,,,,,,,,,,,,,,,,,,,,,,,,,,,,,,,,,,428.8743243003264,None,,,,,,,,,,,,,,,,,,,,,,,,,,,,,,,,,,,silence,114,7,aloud,red,426.85936840064824,None,None,426.85936840064824,None,,,,,,,,,,,,,,,,,,,,,,,,,,,,,,62YB,001,2023_Apr_28_1257,ExactRep-v3-final,2021.2.3,59.985375691478126,
,,,,,,,,7,0,7,0,,,,,,,,,,,,,,,,,,,,,,,,,,,,,,,,,,,,,,,,,,,,,,,,,,,,,431.3767488999292,None,,,,,,,,,,,,,,,,,,,,,,,,,,,,,,,,,,,door,65,8,silent,white,429.3747576000169,None,None,429.3747576000169,None,,,,,,,,,,,,,,,,,,,,,,,,,,,,,,62YB,001,2023_Apr_28_1257,ExactRep-v3-final,2021.2.3,59.985375691478126,
,,,,,,,,8,0,8,0,,,,,,,,,,,,,,,,,,,,,,,,,,,,,,,,,,,,,,,,,,,,,,,,,,,,,433.89576700050384,None,,,,,,,,,,,,,,,,,,,,,,,,,,,,,,,,,,,storm,90,9,aloud,red,431.88619650062174,None,None,431.88619650062174,None,,,,,,,,,,,,,,,,,,,,,,,,,,,,,,62YB,001,2023_Apr_28_1257,ExactRep-v3-final,2021.2.3,59.985375691478126,
,,,,,,,,9,0,9,0,,,,,,,,,,,,,,,,,,,,,,,,,,,,,,,,,,,,,,,,,,,,,,,,,,,,,436.3982741003856,None,,,,,,,,,,,,,,,,,,,,,,,,,,,,,,,,,,,grass,21,10,sing,blue,434.39632709976286,None,None,434.39632709976286,None,,,,,,,,,,,,,,,,,,,,,,,,,,,,,,62YB,001,2023_Apr_28_1257,ExactRep-v3-final,2021.2.3,59.985375691478126,
,,,,,,,,10,0,10,0,,,,,,,,,,,,,,,,,,,,,,,,,,,,,,,,,,,,,,,,,,,,,,,,,,,,,438.90089439973235,None,,,,,,,,,,,,,,,,,,,,,,,,,,,,,,,,,,,corner,40,11,silent,white,436.89919279981405,None,None,436.89919279981405,None,,,,,,,,,,,,,,,,,,,,,,,,,,,,,,62YB,001,2023_Apr_28_1257,ExactRep-v3-final,2021.2.3,59.985375691478126,
,,,,,,,,11,0,11,0,,,,,,,,,,,,,,,,,,,,,,,,,,,,,,,,,,,,,,,,,,,,,,,,,,,,,441.40344380028546,None,,,,,,,,,,,,,,,,,,,,,,,,,,,,,,,,,,,fire,69,12,silent,white,439.40283360052854,None,None,439.40283360052854,None,,,,,,,,,,,,,,,,,,,,,,,,,,,,,,62YB,001,2023_Apr_28_1257,ExactRep-v3-final,2021.2.3,59.985375691478126,
,,,,,,,,12,0,12,0,,,,,,,,,,,,,,,,,,,,,,,,,,,,,,,,,,,,,,,,,,,,,,,,,,,,,443.9060740005225,None,,,,,,,,,,,,,,,,,,,,,,,,,,,,,,,,,,,life,64,13,silent,white,441.9057707004249,None,None,441.9057707004249,None,,,,,,,,,,,,,,,,,,,,,,,,,,,,,,62YB,001,2023_Apr_28_1257,ExactRep-v3-final,2021.2.3,59.985375691478126,
,,,,,,,,13,0,13,0,,,,,,,,,,,,,,,,,,,,,,,,,,,,,,,,,,,,,,,,,,,,,,,,,,,,,446.4085272997618,None,,,,,,,,,,,,,,,,,,,,,,,,,,,,,,,,,,,spirit,23,14,sing,blue,444.407669399865,None,None,444.407669399865,None,,,,,,,,,,,,,,,,,,,,,,,,,,,,,,62YB,001,2023_Apr_28_1257,ExactRep-v3-final,2021.2.3,59.985375691478126,
,,,,,,,,14,0,14,0,,,,,,,,,,,,,,,,,,,,,,,,,,,,,,,,,,,,,,,,,,,,,,,,,,,,,448.91093960031867,None,,,,,,,,,,,,,,,,,,,,,,,,,,,,,,,,,,,fate,42,15,silent,white,446.9115938004106,None,None,446.9115938004106,None,,,,,,,,,,,,,,,,,,,,,,,,,,,,,,62YB,001,2023_Apr_28_1257,ExactRep-v3-final,2021.2.3,59.985375691478126,
,,,,,,,,15,0,15,0,,,,,,,,,,,,,,,,,,,,,,,,,,,,,,,,,,,,,,,,,,,,,,,,,,,,,451.41340580023825,None,,,,,,,,,,,,,,,,,,,,,,,,,,,,,,,,,,,glory,52,16,silent,white,449.4130303002894,None,None,449.4130303002894,None,,,,,,,,,,,,,,,,,,,,,,,,,,,,,,62YB,001,2023_Apr_28_1257,ExactRep-v3-final,2021.2.3,59.985375691478126,
,,,,,,,,16,0,16,0,,,,,,,,,,,,,,,,,,,,,,,,,,,,,,,,,,,,,,,,,,,,,,,,,,,,,453.91592929977924,None,,,,,,,,,,,,,,,,,,,,,,,,,,,,,,,,,,,vision,93,17,aloud,red,451.91532179992646,None,None,451.91532179992646,None,,,,,,,,,,,,,,,,,,,,,,,,,,,,,,62YB,001,2023_Apr_28_1257,ExactRep-v3-final,2021.2.3,59.985375691478126,
,,,,,,,,17,0,17,0,,,,,,,,,,,,,,,,,,,,,,,,,,,,,,,,,,,,,,,,,,,,,,,,,,,,,456.4184878002852,None,,,,,,,,,,,,,,,,,,,,,,,,,,,,,,,,,,,machine,70,18,silent,white,454.41664549987763,None,None,454.41664549987763,None,,,,,,,,,,,,,,,,,,,,,,,,,,,,,,62YB,001,2023_Apr_28_1257,ExactRep-v3-final,2021.2.3,59.985375691478126,
,,,,,,,,18,0,18,0,,,,,,,,,,,,,,,,,,,,,,,,,,,,,,,,,,,,,,,,,,,,,,,,,,,,,458.9209293005988,None,,,,,,,,,,,,,,,,,,,,,,,,,,,,,,,,,,,horse,119,19,aloud,red,456.9213284999132,None,None,456.9213284999132,None,,,,,,,,,,,,,,,,,,,,,,,,,,,,,,62YB,001,2023_Apr_28_1257,ExactRep-v3-final,2021.2.3,59.985375691478126,
,,,,,,,,19,0,19,0,,,,,,,,,,,,,,,,,,,,,,,,,,,,,,,,,,,,,,,,,,,,,,,,,,,,,461.4235038002953,None,,,,,,,,,,,,,,,,,,,,,,,,,,,,,,,,,,,green,41,20,silent,white,459.4241639999673,None,None,459.4241639999673,None,,,,,,,,,,,,,,,,,,,,,,,,,,,,,,62YB,001,2023_Apr_28_1257,ExactRep-v3-final,2021.2.3,59.985375691478126,
,,,,,,,,20,0,20,0,,,,,,,,,,,,,,,,,,,,,,,,,,,,,,,,,,,,,,,,,,,,,,,,,,,,,463.9424764001742,None,,,,,,,,,,,,,,,,,,,,,,,,,,,,,,,,,,,book,62,21,silent,white,461.93074449989945,None,None,461.93074449989945,None,,,,,,,,,,,,,,,,,,,,,,,,,,,,,,62YB,001,2023_Apr_28_1257,ExactRep-v3-final,2021.2.3,59.985375691478126,
,,,,,,,,21,0,21,0,,,,,,,,,,,,,,,,,,,,,,,,,,,,,,,,,,,,,,,,,,,,,,,,,,,,,466.4451734004542,None,,,,,,,,,,,,,,,,,,,,,,,,,,,,,,,,,,,master,117,22,aloud,red,464.4430617997423,None,None,464.4430617997423,None,,,,,,,,,,,,,,,,,,,,,,,,,,,,,,62YB,001,2023_Apr_28_1257,ExactRep-v3-final,2021.2.3,59.985375691478126,
,,,,,,,,22,0,22,0,,,,,,,,,,,,,,,,,,,,,,,,,,,,,,,,,,,,,,,,,,,,,,,,,,,,,468.96434469986707,None,,,,,,,,,,,,,,,,,,,,,,,,,,,,,,,,,,,meeting,13,23,sing,blue,466.9536982001737,None,None,466.9536982001737,None,,,,,,,,,,,,,,,,,,,,,,,,,,,,,,62YB,001,2023_Apr_28_1257,ExactRep-v3-final,2021.2.3,59.985375691478126,
,,,,,,,,23,0,23,0,,,,,,,,,,,,,,,,,,,,,,,,,,,,,,,,,,,,,,,,,,,,,,,,,,,,,471.4733210997656,None,,,,,,,,,,,,,,,,,,,,,,,,,,,,,,,,,,,origin,36,24,sing,blue,469.4668126003817,None,None,469.4668126003817,None,,,,,,,,,,,,,,,,,,,,,,,,,,,,,,62YB,001,2023_Apr_28_1257,ExactRep-v3-final,2021.2.3,59.985375691478126,
,,,,,,,,24,0,24,0,,,,,,,,,,,,,,,,,,,,,,,,,,,,,,,,,,,,,,,,,,,,,,,,,,,,,473.9859212003648,None,,,,,,,,,,,,,,,,,,,,,,,,,,,,,,,,,,,answer,0,25,sing,blue,471.9868077998981,None,None,471.9868077998981,None,,,,,,,,,,,,,,,,,,,,,,,,,,,,,,62YB,001,2023_Apr_28_1257,ExactRep-v3-final,2021.2.3,59.985375691478126,
,,,,,,,,25,0,25,0,,,,,,,,,,,,,,,,,,,,,,,,,,,,,,,,,,,,,,,,,,,,,,,,,,,,,476.50526379980147,None,,,,,,,,,,,,,,,,,,,,,,,,,,,,,,,,,,,plant,115,26,aloud,red,474.49569039978087,None,None,474.49569039978087,None,,,,,,,,,,,,,,,,,,,,,,,,,,,,,,62YB,001,2023_Apr_28_1257,ExactRep-v3-final,2021.2.3,59.985375691478126,
,,,,,,,,26,0,26,0,,,,,,,,,,,,,,,,,,,,,,,,,,,,,,,,,,,,,,,,,,,,,,,,,,,,,479.00754860043526,None,,,,,,,,,,,,,,,,,,,,,,,,,,,,,,,,,,,friend,101,27,aloud,red,477.0066307997331,None,None,477.0066307997331,None,,,,,,,,,,,,,,,,,,,,,,,,,,,,,,62YB,001,2023_Apr_28_1257,ExactRep-v3-final,2021.2.3,59.985375691478126,
,,,,,,,,27,0,27,0,,,,,,,,,,,,,,,,,,,,,,,,,,,,,,,,,,,,,,,,,,,,,,,,,,,,,481.5102049000561,None,,,,,,,,,,,,,,,,,,,,,,,,,,,,,,,,,,,hour,75,28,silent,white,479.5101308003068,None,None,479.5101308003068,None,,,,,,,,,,,,,,,,,,,,,,,,,,,,,,62YB,001,2023_Apr_28_1257,ExactRep-v3-final,2021.2.3,59.985375691478126,
,,,,,,,,28,0,28,0,,,,,,,,,,,,,,,,,,,,,,,,,,,,,,,,,,,,,,,,,,,,,,,,,,,,,484.02945460006595,None,,,,,,,,,,,,,,,,,,,,,,,,,,,,,,,,,,,artist,81,29,aloud,red,482.0183628005907,None,None,482.0183628005907,None,,,,,,,,,,,,,,,,,,,,,,,,,,,,,,62YB,001,2023_Apr_28_1257,ExactRep-v3-final,2021.2.3,59.985375691478126,
,,,,,,,,29,0,29,0,,,,,,,,,,,,,,,,,,,,,,,,,,,,,,,,,,,,,,,,,,,,,,,,,,,,,486.54842930007726,None,,,,,,,,,,,,,,,,,,,,,,,,,,,,,,,,,,,woods,86,30,aloud,red,484.53369890060276,None,None,484.53369890060276,None,,,,,,,,,,,,,,,,,,,,,,,,,,,,,,62YB,001,2023_Apr_28_1257,ExactRep-v3-final,2021.2.3,59.985375691478126,
,,,,,,,,30,0,30,0,,,,,,,,,,,,,,,,,,,,,,,,,,,,,,,,,,,,,,,,,,,,,,,,,,,,,489.06764280050993,None,,,,,,,,,,,,,,,,,,,,,,,,,,,,,,,,,,,power,56,31,silent,white,487.05560950003564,None,None,487.05560950003564,None,,,,,,,,,,,,,,,,,,,,,,,,,,,,,,62YB,001,2023_Apr_28_1257,ExactRep-v3-final,2021.2.3,59.985375691478126,
,,,,,,,,31,0,31,0,,,,,,,,,,,,,,,,,,,,,,,,,,,,,,,,,,,,,,,,,,,,,,,,,,,,,491.5868171006441,None,,,,,,,,,,,,,,,,,,,,,,,,,,,,,,,,,,,volume,25,32,sing,blue,489.5745794000104,None,None,489.5745794000104,None,,,,,,,,,,,,,,,,,,,,,,,,,,,,,,62YB,001,2023_Apr_28_1257,ExactRep-v3-final,2021.2.3,59.985375691478126,
,,,,,,,,32,0,32,0,,,,,,,,,,,,,,,,,,,,,,,,,,,,,,,,,,,,,,,,,,,,,,,,,,,,,494.10612170025706,None,,,,,,,,,,,,,,,,,,,,,,,,,,,,,,,,,,,flag,84,33,aloud,red,492.0974570000544,None,None,492.0974570000544,None,,,,,,,,,,,,,,,,,,,,,,,,,,,,,,62YB,001,2023_Apr_28_1257,ExactRep-v3-final,2021.2.3,59.985375691478126,
,,,,,,,,33,0,33,0,,,,,,,,,,,,,,,,,,,,,,,,,,,,,,,,,,,,,,,,,,,,,,,,,,,,,496.6086216997355,None,,,,,,,,,,,,,,,,,,,,,,,,,,,,,,,,,,,devil,49,34,silent,white,494.6076006004587,None,None,494.6076006004587,None,,,,,,,,,,,,,,,,,,,,,,,,,,,,,,62YB,001,2023_Apr_28_1257,ExactRep-v3-final,2021.2.3,59.985375691478126,
,,,,,,,,34,0,34,0,,,,,,,,,,,,,,,,,,,,,,,,,,,,,,,,,,,,,,,,,,,,,,,,,,,,,499.11102289985865,None,,,,,,,,,,,,,,,,,,,,,,,,,,,,,,,,,,,earth,22,35,sing,blue,497.11113859992474,None,None,497.11113859992474,None,,,,,,,,,,,,,,,,,,,,,,,,,,,,,,62YB,001,2023_Apr_28_1257,ExactRep-v3-final,2021.2.3,59.985375691478126,
,,,,,,,,35,0,35,0,,,,,,,,,,,,,,,,,,,,,,,,,,,,,,,,,,,,,,,,,,,,,,,,,,,,,501.630181000568,None,,,,,,,,,,,,,,,,,,,,,,,,,,,,,,,,,,,victory,61,36,silent,white,499.6212367005646,None,None,499.6212367005646,None,,,,,,,,,,,,,,,,,,,,,,,,,,,,,,62YB,001,2023_Apr_28_1257,ExactRep-v3-final,2021.2.3,59.985375691478126,
,,,,,,,,36,0,36,0,,,,,,,,,,,,,,,,,,,,,,,,,,,,,,,,,,,,,,,,,,,,,,,,,,,,,504.13267900049686,None,,,,,,,,,,,,,,,,,,,,,,,,,,,,,,,,,,,home,106,37,aloud,red,502.130721100606,None,None,502.130721100606,None,,,,,,,,,,,,,,,,,,,,,,,,,,,,,,62YB,001,2023_Apr_28_1257,ExactRep-v3-final,2021.2.3,59.985375691478126,
,,,,,,,,37,0,37,0,,,,,,,,,,,,,,,,,,,,,,,,,,,,,,,,,,,,,,,,,,,,,,,,,,,,,506.6352483006194,None,,,,,,,,,,,,,,,,,,,,,,,,,,,,,,,,,,,apple,44,38,silent,white,504.6331994002685,None,None,504.6331994002685,None,,,,,,,,,,,,,,,,,,,,,,,,,,,,,,62YB,001,2023_Apr_28_1257,ExactRep-v3-final,2021.2.3,59.985375691478126,
,,,,,,,,38,0,38,0,,,,,,,,,,,,,,,,,,,,,,,,,,,,,,,,,,,,,,,,,,,,,,,,,,,,,509.13781710062176,None,,,,,,,,,,,,,,,,,,,,,,,,,,,,,,,,,,,body,96,39,aloud,red,507.13765370007604,None,None,507.13765370007604,None,,,,,,,,,,,,,,,,,,,,,,,,,,,,,,62YB,001,2023_Apr_28_1257,ExactRep-v3-final,2021.2.3,59.985375691478126,
,,,,,,,,39,0,39,0,,,,,,,,,,,,,,,,,,,,,,,,,,,,,,,,,,,,,,,,,,,,,,,,,,,,,511.6403935002163,None,,,,,,,,,,,,,,,,,,,,,,,,,,,,,,,,,,,money,100,40,aloud,red,509.6383314002305,None,None,509.6383314002305,None,,,,,,,,,,,,,,,,,,,,,,,,,,,,,,62YB,001,2023_Apr_28_1257,ExactRep-v3-final,2021.2.3,59.985375691478126,
,,,,,,,,40,0,40,0,,,,,,,,,,,,,,,,,,,,,,,,,,,,,,,,,,,,,,,,,,,,,,,,,,,,,514.1593907000497,None,,,,,,,,,,,,,,,,,,,,,,,,,,,,,,,,,,,engine,7,41,sing,blue,512.1454314002767,None,None,512.1454314002767,None,,,,,,,,,,,,,,,,,,,,,,,,,,,,,,62YB,001,2023_Apr_28_1257,ExactRep-v3-final,2021.2.3,59.985375691478126,
,,,,,,,,41,0,41,0,,,,,,,,,,,,,,,,,,,,,,,,,,,,,,,,,,,,,,,,,,,,,,,,,,,,,516.678846700117,None,,,,,,,,,,,,,,,,,,,,,,,,,,,,,,,,,,,death,18,42,sing,blue,514.664369800128,None,None,514.664369800128,None,,,,,,,,,,,,,,,,,,,,,,,,,,,,,,62YB,001,2023_Apr_28_1257,ExactRep-v3-final,2021.2.3,59.985375691478126,
,,,,,,,,42,0,42,0,,,,,,,,,,,,,,,,,,,,,,,,,,,,,,,,,,,,,,,,,,,,,,,,,,,,,519.1812319001183,None,,,,,,,,,,,,,,,,,,,,,,,,,,,,,,,,,,,truth,109,43,aloud,red,517.1790957003832,None,None,517.1790957003832,None,,,,,,,,,,,,,,,,,,,,,,,,,,,,,,62YB,001,2023_Apr_28_1257,ExactRep-v3-final,2021.2.3,59.985375691478126,
,,,,,,,,43,0,43,0,,,,,,,,,,,,,,,,,,,,,,,,,,,,,,,,,,,,,,,,,,,,,,,,,,,,,521.6838177004829,None,,,,,,,,,,,,,,,,,,,,,,,,,,,,,,,,,,,fault,89,44,aloud,red,519.6833012998104,None,None,519.6833012998104,None,,,,,,,,,,,,,,,,,,,,,,,,,,,,,,62YB,001,2023_Apr_28_1257,ExactRep-v3-final,2021.2.3,59.985375691478126,
,,,,,,,,44,0,44,0,,,,,,,,,,,,,,,,,,,,,,,,,,,,,,,,,,,,,,,,,,,,,,,,,,,,,524.2029261002317,None,,,,,,,,,,,,,,,,,,,,,,,,,,,,,,,,,,,lad,68,45,silent,white,522.1885670004413,None,None,522.1885670004413,None,,,,,,,,,,,,,,,,,,,,,,,,,,,,,,62YB,001,2023_Apr_28_1257,ExactRep-v3-final,2021.2.3,59.985375691478126,
,,,,,,,,45,0,45,0,,,,,,,,,,,,,,,,,,,,,,,,,,,,,,,,,,,,,,,,,,,,,,,,,,,,,526.7055085003376,None,,,,,,,,,,,,,,,,,,,,,,,,,,,,,,,,,,,avenue,47,46,silent,white,524.7043569004163,None,None,524.7043569004163,None,,,,,,,,,,,,,,,,,,,,,,,,,,,,,,62YB,001,2023_Apr_28_1257,ExactRep-v3-final,2021.2.3,59.985375691478126,
,,,,,,,,46,0,46,0,,,,,,,,,,,,,,,,,,,,,,,,,,,,,,,,,,,,,,,,,,,,,,,,,,,,,529.2244215002283,None,,,,,,,,,,,,,,,,,,,,,,,,,,,,,,,,,,,tree,33,47,sing,blue,527.2131420997903,None,None,527.2131420997903,None,,,,,,,,,,,,,,,,,,,,,,,,,,,,,,62YB,001,2023_Apr_28_1257,ExactRep-v3-final,2021.2.3,59.985375691478126,
,,,,,,,,47,0,47,0,,,,,,,,,,,,,,,,,,,,,,,,,,,,,,,,,,,,,,,,,,,,,,,,,,,,,531.7311762003228,None,,,,,,,,,,,,,,,,,,,,,,,,,,,,,,,,,,,chair,10,48,sing,blue,529.7249921001494,None,None,529.7249921001494,None,,,,,,,,,,,,,,,,,,,,,,,,,,,,,,62YB,001,2023_Apr_28_1257,ExactRep-v3-final,2021.2.3,59.985375691478126,
,,,,,,,,48,0,48,0,,,,,,,,,,,,,,,,,,,,,,,,,,,,,,,,,,,,,,,,,,,,,,,,,,,,,534.2463014004752,None,,,,,,,,,,,,,,,,,,,,,,,,,,,,,,,,,,,sugar,92,49,aloud,red,532.2442586002871,None,None,532.2442586002871,None,,,,,,,,,,,,,,,,,,,,,,,,,,,,,,62YB,001,2023_Apr_28_1257,ExactRep-v3-final,2021.2.3,59.985375691478126,
,,,,,,,,49,0,49,0,,,,,,,,,,,,,,,,,,,,,,,,,,,,,,,,,,,,,,,,,,,,,,,,,,,,,536.7487971000373,None,,,,,,,,,,,,,,,,,,,,,,,,,,,,,,,,,,,animal,16,50,sing,blue,534.7483075000346,None,None,534.7483075000346,None,,,,,,,,,,,,,,,,,,,,,,,,,,,,,,62YB,001,2023_Apr_28_1257,ExactRep-v3-final,2021.2.3,59.985375691478126,
,,,,,,,,50,0,50,0,,,,,,,,,,,,,,,,,,,,,,,,,,,,,,,,,,,,,,,,,,,,,,,,,,,,,539.2513220002875,None,,,,,,,,,,,,,,,,,,,,,,,,,,,,,,,,,,,dream,5,51,sing,blue,537.2509785005823,None,None,537.2509785005823,None,,,,,,,,,,,,,,,,,,,,,,,,,,,,,,62YB,001,2023_Apr_28_1257,ExactRep-v3-final,2021.2.3,59.985375691478126,
,,,,,,,,51,0,51,0,,,,,,,,,,,,,,,,,,,,,,,,,,,,,,,,,,,,,,,,,,,,,,,,,,,,,541.7535851998255,None,,,,,,,,,,,,,,,,,,,,,,,,,,,,,,,,,,,bird,12,52,sing,blue,539.7541102003306,None,None,539.7541102003306,None,,,,,,,,,,,,,,,,,,,,,,,,,,,,,,62YB,001,2023_Apr_28_1257,ExactRep-v3-final,2021.2.3,59.985375691478126,
,,,,,,,,52,0,52,0,,,,,,,,,,,,,,,,,,,,,,,,,,,,,,,,,,,,,,,,,,,,,,,,,,,,,544.256165499799,None,,,,,,,,,,,,,,,,,,,,,,,,,,,,,,,,,,,idea,53,53,silent,white,542.2541072005406,None,None,542.2541072005406,None,,,,,,,,,,,,,,,,,,,,,,,,,,,,,,62YB,001,2023_Apr_28_1257,ExactRep-v3-final,2021.2.3,59.985375691478126,
,,,,,,,,53,0,53,0,,,,,,,,,,,,,,,,,,,,,,,,,,,,,,,,,,,,,,,,,,,,,,,,,,,,,546.7586094997823,None,,,,,,,,,,,,,,,,,,,,,,,,,,,,,,,,,,,tool,85,54,aloud,red,544.7566657001153,None,None,544.7566657001153,None,,,,,,,,,,,,,,,,,,,,,,,,,,,,,,62YB,001,2023_Apr_28_1257,ExactRep-v3-final,2021.2.3,59.985375691478126,
,,,,,,,,54,0,54,0,,,,,,,,,,,,,,,,,,,,,,,,,,,,,,,,,,,,,,,,,,,,,,,,,,,,,549.2780120000243,None,,,,,,,,,,,,,,,,,,,,,,,,,,,,,,,,,,,judge,83,55,aloud,red,547.2623652005568,None,None,547.2623652005568,None,,,,,,,,,,,,,,,,,,,,,,,,,,,,,,62YB,001,2023_Apr_28_1257,ExactRep-v3-final,2021.2.3,59.985375691478126,
,,,,,,,,55,0,55,0,,,,,,,,,,,,,,,,,,,,,,,,,,,,,,,,,,,,,,,,,,,,,,,,,,,,,551.7805484998971,None,,,,,,,,,,,,,,,,,,,,,,,,,,,,,,,,,,,freedom,14,56,sing,blue,549.7805832000449,None,None,549.7805832000449,None,,,,,,,,,,,,,,,,,,,,,,,,,,,,,,62YB,001,2023_Apr_28_1257,ExactRep-v3-final,2021.2.3,59.985375691478126,
,,,,,,,,56,0,56,0,,,,,,,,,,,,,,,,,,,,,,,,,,,,,,,,,,,,,,,,,,,,,,,,,,,,,554.2997126001865,None,,,,,,,,,,,,,,,,,,,,,,,,,,,,,,,,,,,hotel,110,57,aloud,red,552.2846116004512,None,None,552.2846116004512,None,,,,,,,,,,,,,,,,,,,,,,,,,,,,,,62YB,001,2023_Apr_28_1257,ExactRep-v3-final,2021.2.3,59.985375691478126,
,,,,,,,,57,0,57,0,,,,,,,,,,,,,,,,,,,,,,,,,,,,,,,,,,,,,,,,,,,,,,,,,,,,,556.8020600005984,None,,,,,,,,,,,,,,,,,,,,,,,,,,,,,,,,,,,sky,8,58,sing,blue,554.8013495998457,None,None,554.8013495998457,None,,,,,,,,,,,,,,,,,,,,,,,,,,,,,,62YB,001,2023_Apr_28_1257,ExactRep-v3-final,2021.2.3,59.985375691478126,
,,,,,,,,58,0,58,0,,,,,,,,,,,,,,,,,,,,,,,,,,,,,,,,,,,,,,,,,,,,,,,,,,,,,559.3045338997617,None,,,,,,,,,,,,,,,,,,,,,,,,,,,,,,,,,,,prayer,108,59,aloud,red,557.3025652002543,None,None,557.3025652002543,None,,,,,,,,,,,,,,,,,,,,,,,,,,,,,,62YB,001,2023_Apr_28_1257,ExactRep-v3-final,2021.2.3,59.985375691478126,
,,,,,,,,59,0,59,0,,,,,,,,,,,,,,,,,,,,,,,,,,,,,,,,,,,,,,,,,,,,,,,,,,,,,561.8072025002912,None,,,,,,,,,,,,,,,,,,,,,,,,,,,,,,,,,,,air,28,60,sing,blue,559.8050955999643,None,None,559.8050955999643,None,,,,,,,,,,,,,,,,,,,,,,,,,,,,,,62YB,001,2023_Apr_28_1257,ExactRep-v3-final,2021.2.3,59.985375691478126,
,,,,,,,,60,0,60,0,,,,,,,,,,,,,,,,,,,,,,,,,,,,,,,,,,,,,,,,,,,,,,,,,,,,,564.3263638000935,None,,,,,,,,,,,,,,,,,,,,,,,,,,,,,,,,,,,plain,102,61,aloud,red,562.3190142000094,None,None,562.3190142000094,None,,,,,,,,,,,,,,,,,,,,,,,,,,,,,,62YB,001,2023_Apr_28_1257,ExactRep-v3-final,2021.2.3,59.985375691478126,
,,,,,,,,61,0,61,0,,,,,,,,,,,,,,,,,,,,,,,,,,,,,,,,,,,,,,,,,,,,,,,,,,,,,566.828899900429,None,,,,,,,,,,,,,,,,,,,,,,,,,,,,,,,,,,,woman,59,62,silent,white,564.826863899827,None,None,564.826863899827,None,,,,,,,,,,,,,,,,,,,,,,,,,,,,,,62YB,001,2023_Apr_28_1257,ExactRep-v3-final,2021.2.3,59.985375691478126,
,,,,,,,,62,0,62,0,,,,,,,,,,,,,,,,,,,,,,,,,,,,,,,,,,,,,,,,,,,,,,,,,,,,,569.3481001006439,None,,,,,,,,,,,,,,,,,,,,,,,,,,,,,,,,,,,leader,63,63,silent,white,567.3325236001983,None,None,567.3325236001983,None,,,,,,,,,,,,,,,,,,,,,,,,,,,,,,62YB,001,2023_Apr_28_1257,ExactRep-v3-final,2021.2.3,59.985375691478126,
,,,,,,,,63,0,63,0,,,,,,,,,,,,,,,,,,,,,,,,,,,,,,,,,,,,,,,,,,,,,,,,,,,,,571.8506404999644,None,,,,,,,,,,,,,,,,,,,,,,,,,,,,,,,,,,,speech,17,64,sing,blue,569.8485671002418,None,None,569.8485671002418,None,,,,,,,,,,,,,,,,,,,,,,,,,,,,,,62YB,001,2023_Apr_28_1257,ExactRep-v3-final,2021.2.3,59.985375691478126,
,,,,,,,,64,0,64,0,,,,,,,,,,,,,,,,,,,,,,,,,,,,,,,,,,,,,,,,,,,,,,,,,,,,,574.3698824997991,None,,,,,,,,,,,,,,,,,,,,,,,,,,,,,,,,,,,girl,91,65,aloud,red,572.3548543006182,None,None,572.3548543006182,None,,,,,,,,,,,,,,,,,,,,,,,,,,,,,,62YB,001,2023_Apr_28_1257,ExactRep-v3-final,2021.2.3,59.985375691478126,
,,,,,,,,65,0,65,0,,,,,,,,,,,,,,,,,,,,,,,,,,,,,,,,,,,,,,,,,,,,,,,,,,,,,576.8729102006182,None,,,,,,,,,,,,,,,,,,,,,,,,,,,,,,,,,,,wife,103,66,aloud,red,574.8703151000664,None,None,574.8703151000664,None,,,,,,,,,,,,,,,,,,,,,,,,,,,,,,62YB,001,2023_Apr_28_1257,ExactRep-v3-final,2021.2.3,59.985375691478126,
,,,,,,,,66,0,66,0,,,,,,,,,,,,,,,,,,,,,,,,,,,,,,,,,,,,,,,,,,,,,,,,,,,,,579.391391100362,None,,,,,,,,,,,,,,,,,,,,,,,,,,,,,,,,,,,army,50,67,silent,white,577.3813152005896,None,None,577.3813152005896,None,,,,,,,,,,,,,,,,,,,,,,,,,,,,,,62YB,001,2023_Apr_28_1257,ExactRep-v3-final,2021.2.3,59.985375691478126,
,,,,,,,,67,0,67,0,,,,,,,,,,,,,,,,,,,,,,,,,,,,,,,,,,,,,,,,,,,,,,,,,,,,,581.894031399861,None,,,,,,,,,,,,,,,,,,,,,,,,,,,,,,,,,,,priest,2,68,sing,blue,579.8918267004192,None,None,579.8918267004192,None,,,,,,,,,,,,,,,,,,,,,,,,,,,,,,62YB,001,2023_Apr_28_1257,ExactRep-v3-final,2021.2.3,59.985375691478126,
,,,,,,,,68,0,68,0,,,,,,,,,,,,,,,,,,,,,,,,,,,,,,,,,,,,,,,,,,,,,,,,,,,,,584.4129483997822,None,,,,,,,,,,,,,,,,,,,,,,,,,,,,,,,,,,,sea,39,69,silent,white,582.3982830997556,None,None,582.3982830997556,None,,,,,,,,,,,,,,,,,,,,,,,,,,,,,,62YB,001,2023_Apr_28_1257,ExactRep-v3-final,2021.2.3,59.985375691478126,
,,,,,,,,69,0,69,0,,,,,,,,,,,,,,,,,,,,,,,,,,,,,,,,,,,,,,,,,,,,,,,,,,,,,586.9155876003206,None,,,,,,,,,,,,,,,,,,,,,,,,,,,,,,,,,,,advice,67,70,silent,white,584.9135988997295,None,None,584.9135988997295,None,,,,,,,,,,,,,,,,,,,,,,,,,,,,,,62YB,001,2023_Apr_28_1257,ExactRep-v3-final,2021.2.3,59.985375691478126,
,,,,,,,,70,0,70,0,,,,,,,,,,,,,,,,,,,,,,,,,,,,,,,,,,,,,,,,,,,,,,,,,,,,,589.4181070998311,None,,,,,,,,,,,,,,,,,,,,,,,,,,,,,,,,,,,metal,15,71,sing,blue,587.4162266002968,None,None,587.4162266002968,None,,,,,,,,,,,,,,,,,,,,,,,,,,,,,,62YB,001,2023_Apr_28_1257,ExactRep-v3-final,2021.2.3,59.985375691478126,
,,,,,,,,71,0,71,0,,,,,,,,,,,,,,,,,,,,,,,,,,,,,,,,,,,,,,,,,,,,,,,,,,,,,591.920734600164,None,,,,,,,,,,,,,,,,,,,,,,,,,,,,,,,,,,,love,32,72,sing,blue,589.9186108000576,None,None,589.9186108000576,None,,,,,,,,,,,,,,,,,,,,,,,,,,,,,,62YB,001,2023_Apr_28_1257,ExactRep-v3-final,2021.2.3,59.985375691478126,
,,,,,,,,72,0,72,0,,,,,,,,,,,,,,,,,,,,,,,,,,,,,,,,,,,,,,,,,,,,,,,,,,,,,594.4397275997326,None,,,,,,,,,,,,,,,,,,,,,,,,,,,,,,,,,,,village,46,73,silent,white,592.4282124005258,None,None,592.4282124005258,None,,,,,,,,,,,,,,,,,,,,,,,,,,,,,,62YB,001,2023_Apr_28_1257,ExactRep-v3-final,2021.2.3,59.985375691478126,
,,,,,,,,73,0,73,0,,,,,,,,,,,,,,,,,,,,,,,,,,,,,,,,,,,,,,,,,,,,,,,,,,,,,596.9423478003591,None,,,,,,,,,,,,,,,,,,,,,,,,,,,,,,,,,,,murder,1,74,sing,blue,594.9424446001649,None,None,594.9424446001649,None,,,,,,,,,,,,,,,,,,,,,,,,,,,,,,62YB,001,2023_Apr_28_1257,ExactRep-v3-final,2021.2.3,59.985375691478126,
,,,,,,,,74,0,74,0,,,,,,,,,,,,,,,,,,,,,,,,,,,,,,,,,,,,,,,,,,,,,,,,,,,,,599.4448060998693,None,,,,,,,,,,,,,,,,,,,,,,,,,,,,,,,,,,,soil,71,75,silent,white,597.4430638998747,None,None,597.4430638998747,None,,,,,,,,,,,,,,,,,,,,,,,,,,,,,,62YB,001,2023_Apr_28_1257,ExactRep-v3-final,2021.2.3,59.985375691478126,
,,,,,,,,75,0,75,0,,,,,,,,,,,,,,,,,,,,,,,,,,,,,,,,,,,,,,,,,,,,,,,,,,,,,601.9473392004147,None,,,,,,,,,,,,,,,,,,,,,,,,,,,,,,,,,,,fortune,74,76,silent,white,599.9472948005423,None,None,599.9472948005423,None,,,,,,,,,,,,,,,,,,,,,,,,,,,,,,62YB,001,2023_Apr_28_1257,ExactRep-v3-final,2021.2.3,59.985375691478126,
,,,,,,,,76,0,76,0,,,,,,,,,,,,,,,,,,,,,,,,,,,,,,,,,,,,,,,,,,,,,,,,,,,,,604.4498418001458,None,,,,,,,,,,,,,,,,,,,,,,,,,,,,,,,,,,,rod,58,77,silent,white,602.4496996002272,None,None,602.4496996002272,None,,,,,,,,,,,,,,,,,,,,,,,,,,,,,,62YB,001,2023_Apr_28_1257,ExactRep-v3-final,2021.2.3,59.985375691478126,
,,,,,,,,77,0,77,0,,,,,,,,,,,,,,,,,,,,,,,,,,,,,,,,,,,,,,,,,,,,,,,,,,,,,606.9692989001051,None,,,,,,,,,,,,,,,,,,,,,,,,,,,,,,,,,,,charm,6,78,sing,blue,604.9544321000576,None,None,604.9544321000576,None,,,,,,,,,,,,,,,,,,,,,,,,,,,,,,62YB,001,2023_Apr_28_1257,ExactRep-v3-final,2021.2.3,59.985375691478126,
,,,,,,,,78,0,78,0,,,,,,,,,,,,,,,,,,,,,,,,,,,,,,,,,,,,,,,,,,,,,,,,,,,,,609.4715966004878,None,,,,,,,,,,,,,,,,,,,,,,,,,,,,,,,,,,,board,113,79,aloud,red,607.4693684000522,None,None,607.4693684000522,None,,,,,,,,,,,,,,,,,,,,,,,,,,,,,,62YB,001,2023_Apr_28_1257,ExactRep-v3-final,2021.2.3,59.985375691478126,
,,,,,,,,79,0,79,0,,,,,,,,,,,,,,,,,,,,,,,,,,,,,,,,,,,,,,,,,,,,,,,,,,,,,611.9907352002338,None,,,,,,,,,,,,,,,,,,,,,,,,,,,,,,,,,,,square,107,80,aloud,red,609.9796865005046,None,None,609.9796865005046,None,,,,,,,,,,,,,,,,,,,,,,,,,,,,,,62YB,001,2023_Apr_28_1257,ExactRep-v3-final,2021.2.3,59.985375691478126,
,,,,,,,,80,0,80,0,,,,,,,,,,,,,,,,,,,,,,,,,,,,,,,,,,,,,,,,,,,,,,,,,,,,,614.493310900405,None,,,,,,,,,,,,,,,,,,,,,,,,,,,,,,,,,,,ship,30,81,sing,blue,612.4923943001777,None,None,612.4923943001777,None,,,,,,,,,,,,,,,,,,,,,,,,,,,,,,62YB,001,2023_Apr_28_1257,ExactRep-v3-final,2021.2.3,59.985375691478126,
,,,,,,,,81,0,81,0,,,,,,,,,,,,,,,,,,,,,,,,,,,,,,,,,,,,,,,,,,,,,,,,,,,,,617.0124024003744,None,,,,,,,,,,,,,,,,,,,,,,,,,,,,,,,,,,,moment,88,82,aloud,red,615.0023356005549,None,None,615.0023356005549,None,,,,,,,,,,,,,,,,,,,,,,,,,,,,,,62YB,001,2023_Apr_28_1257,ExactRep-v3-final,2021.2.3,59.985375691478126,
,,,,,,,,82,0,82,0,,,,,,,,,,,,,,,,,,,,,,,,,,,,,,,,,,,,,,,,,,,,,,,,,,,,,619.5149472998455,None,,,,,,,,,,,,,,,,,,,,,,,,,,,,,,,,,,,ocean,118,83,aloud,red,617.5127421002835,None,None,617.5127421002835,None,,,,,,,,,,,,,,,,,,,,,,,,,,,,,,62YB,001,2023_Apr_28_1257,ExactRep-v3-final,2021.2.3,59.985375691478126,
,,,,,,,,83,0,83,0,,,,,,,,,,,,,,,,,,,,,,,,,,,,,,,,,,,,,,,,,,,,,,,,,,,,,622.0175128998235,None,,,,,,,,,,,,,,,,,,,,,,,,,,,,,,,,,,,prison,4,84,sing,blue,620.0168730998412,None,None,620.0168730998412,None,,,,,,,,,,,,,,,,,,,,,,,,,,,,,,62YB,001,2023_Apr_28_1257,ExactRep-v3-final,2021.2.3,59.985375691478126,
,,,,,,,,84,0,84,0,,,,,,,,,,,,,,,,,,,,,,,,,,,,,,,,,,,,,,,,,,,,,,,,,,,,,624.5364661999047,None,,,,,,,,,,,,,,,,,,,,,,,,,,,,,,,,,,,author,112,85,aloud,red,622.5221333997324,None,None,622.5221333997324,None,,,,,,,,,,,,,,,,,,,,,,,,,,,,,,62YB,001,2023_Apr_28_1257,ExactRep-v3-final,2021.2.3,59.985375691478126,
,,,,,,,,85,0,85,0,,,,,,,,,,,,,,,,,,,,,,,,,,,,,,,,,,,,,,,,,,,,,,,,,,,,,627.0389191005379,None,,,,,,,,,,,,,,,,,,,,,,,,,,,,,,,,,,,camp,87,86,aloud,red,625.036942800507,None,None,625.036942800507,None,,,,,,,,,,,,,,,,,,,,,,,,,,,,,,62YB,001,2023_Apr_28_1257,ExactRep-v3-final,2021.2.3,59.985375691478126,
,,,,,,,,86,0,86,0,,,,,,,,,,,,,,,,,,,,,,,,,,,,,,,,,,,,,,,,,,,,,,,,,,,,,629.5580977005884,None,,,,,,,,,,,,,,,,,,,,,,,,,,,,,,,,,,,shadow,111,87,aloud,red,627.555418100208,None,None,627.555418100208,None,,,,,,,,,,,,,,,,,,,,,,,,,,,,,,62YB,001,2023_Apr_28_1257,ExactRep-v3-final,2021.2.3,59.985375691478126,
,,,,,,,,87,0,87,0,,,,,,,,,,,,,,,,,,,,,,,,,,,,,,,,,,,,,,,,,,,,,,,,,,,,,632.060766200535,None,,,,,,,,,,,,,,,,,,,,,,,,,,,,,,,,,,,car,20,88,sing,blue,630.0600318005309,None,None,630.0600318005309,None,,,,,,,,,,,,,,,,,,,,,,,,,,,,,,62YB,001,2023_Apr_28_1257,ExactRep-v3-final,2021.2.3,59.985375691478126,
,,,,,,,,88,0,88,0,,,,,,,,,,,,,,,,,,,,,,,,,,,,,,,,,,,,,,,,,,,,,,,,,,,,,634.5797917004675,None,,,,,,,,,,,,,,,,,,,,,,,,,,,,,,,,,,,justice,9,89,sing,blue,632.56578049995,None,None,632.56578049995,None,,,,,,,,,,,,,,,,,,,,,,,,,,,,,,62YB,001,2023_Apr_28_1257,ExactRep-v3-final,2021.2.3,59.985375691478126,
,,,,,,,,89,0,89,0,,,,,,,,,,,,,,,,,,,,,,,,,,,,,,,,,,,,,,,,,,,,,,,,,,,,,637.0822768006474,None,,,,,,,,,,,,,,,,,,,,,,,,,,,,,,,,,,,duty,3,90,sing,blue,635.0803108001128,None,None,635.0803108001128,None,,,,,,,,,,,,,,,,,,,,,,,,,,,,,,62YB,001,2023_Apr_28_1257,ExactRep-v3-final,2021.2.3,59.985375691478126,
,,,,,,,,90,0,90,0,,,,,,,,,,,,,,,,,,,,,,,,,,,,,,,,,,,,,,,,,,,,,,,,,,,,,639.5849756998941,None,,,,,,,,,,,,,,,,,,,,,,,,,,,,,,,,,,,hall,82,91,aloud,red,637.5827445005998,None,None,637.5827445005998,None,,,,,,,,,,,,,,,,,,,,,,,,,,,,,,62YB,001,2023_Apr_28_1257,ExactRep-v3-final,2021.2.3,59.985375691478126,
,,,,,,,,91,0,91,0,,,,,,,,,,,,,,,,,,,,,,,,,,,,,,,,,,,,,,,,,,,,,,,,,,,,,642.1042259000242,None,,,,,,,,,,,,,,,,,,,,,,,,,,,,,,,,,,,breast,79,92,sing,blue,640.0885842004791,None,None,640.0885842004791,None,,,,,,,,,,,,,,,,,,,,,,,,,,,,,,62YB,001,2023_Apr_28_1257,ExactRep-v3-final,2021.2.3,59.985375691478126,
,,,,,,,,92,0,92,0,,,,,,,,,,,,,,,,,,,,,,,,,,,,,,,,,,,,,,,,,,,,,,,,,,,,,644.6233227001503,None,,,,,,,,,,,,,,,,,,,,,,,,,,,,,,,,,,,picture,72,93,silent,white,642.6084529003128,None,None,642.6084529003128,None,,,,,,,,,,,,,,,,,,,,,,,,,,,,,,62YB,001,2023_Apr_28_1257,ExactRep-v3-final,2021.2.3,59.985375691478126,
,,,,,,,,93,0,93,0,,,,,,,,,,,,,,,,,,,,,,,,,,,,,,,,,,,,,,,,,,,,,,,,,,,,,647.1256975000724,None,,,,,,,,,,,,,,,,,,,,,,,,,,,,,,,,,,,clock,31,94,sing,blue,645.1238179001957,None,None,645.1238179001957,None,,,,,,,,,,,,,,,,,,,,,,,,,,,,,,62YB,001,2023_Apr_28_1257,ExactRep-v3-final,2021.2.3,59.985375691478126,
,,,,,,,,94,0,94,0,,,,,,,,,,,,,,,,,,,,,,,,,,,,,,,,,,,,,,,,,,,,,,,,,,,,,649.6284483000636,None,,,,,,,,,,,,,,,,,,,,,,,,,,,,,,,,,,,hide,26,95,sing,blue,647.6281869001687,None,None,647.6281869001687,None,,,,,,,,,,,,,,,,,,,,,,,,,,,,,,62YB,001,2023_Apr_28_1257,ExactRep-v3-final,2021.2.3,59.985375691478126,
,,,,,,,,95,0,95,0,,,,,,,,,,,,,,,,,,,,,,,,,,,,,,,,,,,,,,,,,,,,,,,,,,,,,652.1473770998418,None,,,,,,,,,,,,,,,,,,,,,,,,,,,,,,,,,,,coast,98,96,aloud,red,650.1327124005184,None,None,650.1327124005184,None,,,,,,,,,,,,,,,,,,,,,,,,,,,,,,62YB,001,2023_Apr_28_1257,ExactRep-v3-final,2021.2.3,59.985375691478126,
,,,,,,,,96,0,96,0,,,,,,,,,,,,,,,,,,,,,,,,,,,,,,,,,,,,,,,,,,,,,,,,,,,,,654.6665260000154,None,,,,,,,,,,,,,,,,,,,,,,,,,,,,,,,,,,,mercy,48,97,silent,white,652.6542231002823,None,None,652.6542231002823,None,,,,,,,,,,,,,,,,,,,,,,,,,,,,,,62YB,001,2023_Apr_28_1257,ExactRep-v3-final,2021.2.3,59.985375691478126,
,,,,,,,,97,0,97,0,,,,,,,,,,,,,,,,,,,,,,,,,,,,,,,,,,,,,,,,,,,,,,,,,,,,,657.1692174999043,None,,,,,,,,,,,,,,,,,,,,,,,,,,,,,,,,,,,excuse,80,98,aloud,red,655.1680311998352,None,None,655.1680311998352,None,,,,,,,,,,,,,,,,,,,,,,,,,,,,,,62YB,001,2023_Apr_28_1257,ExactRep-v3-final,2021.2.3,59.985375691478126,
,,,,,,,,98,0,98,0,,,,,,,,,,,,,,,,,,,,,,,,,,,,,,,,,,,,,,,,,,,,,,,,,,,,,659.6717280000448,None,,,,,,,,,,,,,,,,,,,,,,,,,,,,,,,,,,,child,78,99,silent,white,657.6715949000791,None,None,657.6715949000791,None,,,,,,,,,,,,,,,,,,,,,,,,,,,,,,62YB,001,2023_Apr_28_1257,ExactRep-v3-final,2021.2.3,59.985375691478126,
,,,,,,,,99,0,99,0,,,,,,,,,,,,,,,,,,,,,,,,,,,,,,,,,,,,,,,,,,,,,,,,,,,,,662.1742563005537,None,,,,,,,,,,,,,,,,,,,,,,,,,,,,,,,,,,,safety,27,100,sing,blue,660.1751318005845,None,None,660.1751318005845,None,,,,,,,,,,,,,,,,,,,,,,,,,,,,,,62YB,001,2023_Apr_28_1257,ExactRep-v3-final,2021.2.3,59.985375691478126,
,,,,,,,,100,0,100,0,,,,,,,,,,,,,,,,,,,,,,,,,,,,,,,,,,,,,,,,,,,,,,,,,,,,,664.6934190997854,None,,,,,,,,,,,,,,,,,,,,,,,,,,,,,,,,,,,iron,57,101,silent,white,662.6786631997675,None,None,662.6786631997675,None,,,,,,,,,,,,,,,,,,,,,,,,,,,,,,62YB,001,2023_Apr_28_1257,ExactRep-v3-final,2021.2.3,59.985375691478126,
,,,,,,,,101,0,101,0,,,,,,,,,,,,,,,,,,,,,,,,,,,,,,,,,,,,,,,,,,,,,,,,,,,,,667.1957718003541,None,,,,,,,,,,,,,,,,,,,,,,,,,,,,,,,,,,,doctor,77,102,silent,white,665.1948391003534,None,None,665.1948391003534,None,,,,,,,,,,,,,,,,,,,,,,,,,,,,,,62YB,001,2023_Apr_28_1257,ExactRep-v3-final,2021.2.3,59.985375691478126,
,,,,,,,,102,0,102,0,,,,,,,,,,,,,,,,,,,,,,,,,,,,,,,,,,,,,,,,,,,,,,,,,,,,,669.7151040006429,None,,,,,,,,,,,,,,,,,,,,,,,,,,,,,,,,,,,seat,116,103,aloud,red,667.7013170002028,None,None,667.7013170002028,None,,,,,,,,,,,,,,,,,,,,,,,,,,,,,,62YB,001,2023_Apr_28_1257,ExactRep-v3-final,2021.2.3,59.985375691478126,
,,,,,,,,103,0,103,0,,,,,,,,,,,,,,,,,,,,,,,,,,,,,,,,,,,,,,,,,,,,,,,,,,,,,672.2176438001916,None,,,,,,,,,,,,,,,,,,,,,,,,,,,,,,,,,,,cabin,94,104,aloud,red,670.2168161999434,None,None,670.2168161999434,None,,,,,,,,,,,,,,,,,,,,,,,,,,,,,,62YB,001,2023_Apr_28_1257,ExactRep-v3-final,2021.2.3,59.985375691478126,
,,,,,,,,104,0,104,0,,,,,,,,,,,,,,,,,,,,,,,,,,,,,,,,,,,,,,,,,,,,,,,,,,,,,674.7366538001224,None,,,,,,,,,,,,,,,,,,,,,,,,,,,,,,,,,,,flesh,105,105,aloud,red,672.7216694001108,None,None,672.7216694001108,None,,,,,,,,,,,,,,,,,,,,,,,,,,,,,,62YB,001,2023_Apr_28_1257,ExactRep-v3-final,2021.2.3,59.985375691478126,
,,,,,,,,105,0,105,0,,,,,,,,,,,,,,,,,,,,,,,,,,,,,,,,,,,,,,,,,,,,,,,,,,,,,677.2392629003152,None,,,,,,,,,,,,,,,,,,,,,,,,,,,,,,,,,,,memory,11,106,sing,blue,675.237270699814,None,None,675.237270699814,None,,,,,,,,,,,,,,,,,,,,,,,,,,,,,,62YB,001,2023_Apr_28_1257,ExactRep-v3-final,2021.2.3,59.985375691478126,
,,,,,,,,106,0,106,0,,,,,,,,,,,,,,,,,,,,,,,,,,,,,,,,,,,,,,,,,,,,,,,,,,,,,679.7418892001733,None,,,,,,,,,,,,,,,,,,,,,,,,,,,,,,,,,,,beast,29,107,sing,blue,677.7420089002699,None,None,677.7420089002699,None,,,,,,,,,,,,,,,,,,,,,,,,,,,,,,62YB,001,2023_Apr_28_1257,ExactRep-v3-final,2021.2.3,59.985375691478126,
,,,,,,,,107,0,107,0,,,,,,,,,,,,,,,,,,,,,,,,,,,,,,,,,,,,,,,,,,,,,,,,,,,,,682.2609652001411,None,,,,,,,,,,,,,,,,,,,,,,,,,,,,,,,,,,,flower,95,108,aloud,red,680.2491612005979,None,None,680.2491612005979,None,,,,,,,,,,,,,,,,,,,,,,,,,,,,,,62YB,001,2023_Apr_28_1257,ExactRep-v3-final,2021.2.3,59.985375691478126,
,,,,,,,,108,0,108,0,,,,,,,,,,,,,,,,,,,,,,,,,,,,,,,,,,,,,,,,,,,,,,,,,,,,,684.7635121000931,None,,,,,,,,,,,,,,,,,,,,,,,,,,,,,,,,,,,market,24,109,sing,blue,682.7625841004774,None,None,682.7625841004774,None,,,,,,,,,,,,,,,,,,,,,,,,,,,,,,62YB,001,2023_Apr_28_1257,ExactRep-v3-final,2021.2.3,59.985375691478126,
,,,,,,,,109,0,109,0,,,,,,,,,,,,,,,,,,,,,,,,,,,,,,,,,,,,,,,,,,,,,,,,,,,,,687.2660368997604,None,,,,,,,,,,,,,,,,,,,,,,,,,,,,,,,,,,,event,73,110,silent,white,685.2639107005671,None,None,685.2639107005671,None,,,,,,,,,,,,,,,,,,,,,,,,,,,,,,62YB,001,2023_Apr_28_1257,ExactRep-v3-final,2021.2.3,59.985375691478126,
,,,,,,,,110,0,110,0,,,,,,,,,,,,,,,,,,,,,,,,,,,,,,,,,,,,,,,,,,,,,,,,,,,,,689.7683482002467,None,,,,,,,,,,,,,,,,,,,,,,,,,,,,,,,,,,,cottage,76,111,silent,white,687.7693737000227,None,None,687.7693737000227,None,,,,,,,,,,,,,,,,,,,,,,,,,,,,,,62YB,001,2023_Apr_28_1257,ExactRep-v3-final,2021.2.3,59.985375691478126,
,,,,,,,,111,0,111,0,,,,,,,,,,,,,,,,,,,,,,,,,,,,,,,,,,,,,,,,,,,,,,,,,,,,,692.2877528006211,None,,,,,,,,,,,,,,,,,,,,,,,,,,,,,,,,,,,officer,54,112,silent,white,690.2774286000058,None,None,690.2774286000058,None,,,,,,,,,,,,,,,,,,,,,,,,,,,,,,62YB,001,2023_Apr_28_1257,ExactRep-v3-final,2021.2.3,59.985375691478126,
,,,,,,,,112,0,112,0,,,,,,,,,,,,,,,,,,,,,,,,,,,,,,,,,,,,,,,,,,,,,,,,,,,,,694.7900689002126,None,,,,,,,,,,,,,,,,,,,,,,,,,,,,,,,,,,,season,97,113,aloud,red,692.7880375003442,None,None,692.7880375003442,None,,,,,,,,,,,,,,,,,,,,,,,,,,,,,,62YB,001,2023_Apr_28_1257,ExactRep-v3-final,2021.2.3,59.985375691478126,
,,,,,,,,113,0,113,0,,,,,,,,,,,,,,,,,,,,,,,,,,,,,,,,,,,,,,,,,,,,,,,,,,,,,697.3092600004748,None,,,,,,,,,,,,,,,,,,,,,,,,,,,,,,,,,,,insect,38,114,sing,blue,695.2993689002469,None,None,695.2993689002469,None,,,,,,,,,,,,,,,,,,,,,,,,,,,,,,62YB,001,2023_Apr_28_1257,ExactRep-v3-final,2021.2.3,59.985375691478126,
,,,,,,,,114,0,114,0,,,,,,,,,,,,,,,,,,,,,,,,,,,,,,,,,,,,,,,,,,,,,,,,,,,,,699.8120014006272,None,,,,,,,,,,,,,,,,,,,,,,,,,,,,,,,,,,,ability,35,115,sing,blue,697.8097357004881,None,None,697.8097357004881,None,,,,,,,,,,,,,,,,,,,,,,,,,,,,,,62YB,001,2023_Apr_28_1257,ExactRep-v3-final,2021.2.3,59.985375691478126,
,,,,,,,,115,0,115,0,,,,,,,,,,,,,,,,,,,,,,,,,,,,,,,,,,,,,,,,,,,,,,,,,,,,,702.3143605999649,None,,,,,,,,,,,,,,,,,,,,,,,,,,,,,,,,,,,gold,66,116,silent,white,700.3146718004718,None,None,700.3146718004718,None,,,,,,,,,,,,,,,,,,,,,,,,,,,,,,62YB,001,2023_Apr_28_1257,ExactRep-v3-final,2021.2.3,59.985375691478126,
,,,,,,,,116,0,116,0,,,,,,,,,,,,,,,,,,,,,,,,,,,,,,,,,,,,,,,,,,,,,,,,,,,,,704.8168168999255,None,,,,,,,,,,,,,,,,,,,,,,,,,,,,,,,,,,,circle,37,117,sing,blue,702.8154587000608,None,None,702.8154587000608,None,,,,,,,,,,,,,,,,,,,,,,,,,,,,,,62YB,001,2023_Apr_28_1257,ExactRep-v3-final,2021.2.3,59.985375691478126,
,,,,,,,,117,0,117,0,,,,,,,,,,,,,,,,,,,,,,,,,,,,,,,,,,,,,,,,,,,,,,,,,,,,,707.3194474000484,None,,,,,,,,,,,,,,,,,,,,,,,,,,,,,,,,,,,fun,55,118,silent,white,705.3172078998759,None,None,705.3172078998759,None,,,,,,,,,,,,,,,,,,,,,,,,,,,,,,62YB,001,2023_Apr_28_1257,ExactRep-v3-final,2021.2.3,59.985375691478126,
,,,,,,,,118,0,118,0,,,,,,,,,,,,,,,,,,,,,,,,,,,,,,,,,,,,,,,,,,,,,,,,,,,,,709.8218758003786,None,,,,,,,,,,,,,,,,,,,,,,,,,,,,,,,,,,,garden,104,119,aloud,red,707.8225484006107,None,None,707.8225484006107,None,,,,,,,,,,,,,,,,,,,,,,,,,,,,,,62YB,001,2023_Apr_28_1257,ExactRep-v3-final,2021.2.3,59.985375691478126,
,,,,,,,,119,0,119,0,,,,,,,,,,,,,,,,,,,,,,,,,,,,,,,,,,,,,,,,,,,,,,,,,,,,,712.3411600003019,None,,,,,,,,,,,,,,,,,,,,,,,,,,,,,,,,,,,winter,34,120,sing,blue,710.3278726004064,None,None,710.3278726004064,None,,,,,,,,,,,,,,,,,,,,,,,,,,,,,,62YB,001,2023_Apr_28_1257,ExactRep-v3-final,2021.2.3,59.985375691478126,
,,,,,,,,,,,,,,,,,,,,,,,,,,,,,,,,,,,,,,,,,,,,,,,,,,,,,,,,,,,,,,,,,,,,,,,,,,,,,,,,,,,,,,,,,,,,,,,,,,,,,,,,,,,,,,712.843219500035,None,space,1.930914600379765,722.8191959001124,None,,,,,,,,,,,,,,,,,,,,,,,,62YB,001,2023_Apr_28_1257,ExactRep-v3-final,2021.2.3,59.985375691478126,
,,,,,,,,,,,,,,,,,,,,,,,,,,,,,,,,,,,,,,,,,,,,,,,,,,,,,,,,,,,,,,,,,,,,,,,,,,,,,,,,,,,,,,,,,,,,,,,,,,,,,,,,,,,,,,,,,,,,724.7719424003735,None,space,27.906195399351418,734.7481813002378,None,,,,,,,,,,,,,,,,,,62YB,001,2023_Apr_28_1257,ExactRep-v3-final,2021.2.3,59.985375691478126,
,,,,,,,,,,,,0,0,0,0,,,,,,,,,,,,,,,,,,,,,,,,,,,,,,,,,,,,,,,,,,,,,,,,,768.5472177006304,None,,,,,,,,,,,,,,,,,,,,,,,,,,,,,,,,,,,,,,,,,,,,,,,,,,,,,,,,,metal,15,1,sing,old,blue,763.1834372002631,None,n,763.1834372002631,None,"['n', 'return']","[3.7425135001540184, 5.326543700881302]",763.1834372002631,None,,,62YB,001,2023_Apr_28_1257,ExactRep-v3-final,2021.2.3,59.985375691478126,
,,,,,,,,,,,,1,0,1,0,,,,,,,,,,,,,,,,,,,,,,,,,,,,,,,,,,,,,,,,,,,,,,,,,779.4246931001544,None,,,,,,,,,,,,,,,,,,,,,,,,,,,,,,,,,,,,,,,,,,,,,,,,,,,,,,,,,fire,69,2,silent,old,white,769.0556621998549,None,n,769.0556621998549,None,"['n', 'return']","[9.894539800472558, 10.334256599657238]",769.0556621998549,None,,,62YB,001,2023_Apr_28_1257,ExactRep-v3-final,2021.2.3,59.985375691478126,
,,,,,,,,,,,,2,0,2,0,,,,,,,,,,,,,,,,,,,,,,,,,,,,,,,,,,,,,,,,,,,,,,,,,782.1607340006158,None,,,,,,,,,,,,,,,,,,,,,,,,,,,,,,,,,,,,,,,,,,,,,,,,,,,,,,,,,quality,205,3,sing,new,blue,779.9334692005068,None,y,779.9334692005068,None,"['y', 'return']","[1.8645799001678824, 2.192491600289941]",779.9334692005068,None,,,62YB,001,2023_Apr_28_1257,ExactRep-v3-final,2021.2.3,59.985375691478126,
,,,,,,,,,,,,3,0,3,0,,,,,,,,,,,,,,,,,,,,,,,,,,,,,,,,,,,,,,,,,,,,,,,,,785.1638746000826,None,,,,,,,,,,,,,,,,,,,,,,,,,,,,,,,,,,,,,,,,,,,,,,,,,,,,,,,,,grief,182,4,aloud,new,red,782.6688157003373,None,n,782.6688157003373,None,"['n', 'return']","[2.1214201003313065, 2.4492420004680753]",782.6688157003373,None,,,62YB,001,2023_Apr_28_1257,ExactRep-v3-final,2021.2.3,59.985375691478126,
,,,,,,,,,,,,4,0,4,0,,,,,,,,,,,,,,,,,,,,,,,,,,,,,,,,,,,,,,,,,,,,,,,,,787.7497113002464,None,,,,,,,,,,,,,,,,,,,,,,,,,,,,,,,,,,,,,,,,,,,,,,,,,,,,,,,,,master,117,5,aloud,old,red,785.6734754005447,None,y,785.6734754005447,None,"['y', 'return']","[1.4364702999591827, 2.044510799460113]",785.6734754005447,None,,,62YB,001,2023_Apr_28_1257,ExactRep-v3-final,2021.2.3,59.985375691478126,
,,,,,,,,,,,,5,0,5,0,,,,,,,,,,,,,,,,,,,,,,,,,,,,,,,,,,,,,,,,,,,,,,,,,789.951839200221,None,,,,,,,,,,,,,,,,,,,,,,,,,,,,,,,,,,,,,,,,,,,,,,,,,,,,,,,,,string,235,6,sing,new,blue,788.2588750002906,None,n,788.2588750002906,None,"['n', 'return']","[1.1471098000183702, 1.6511183995753527]",788.2588750002906,None,,,62YB,001,2023_Apr_28_1257,ExactRep-v3-final,2021.2.3,59.985375691478126,
,,,,,,,,,,,,6,0,6,0,,,,,,,,,,,,,,,,,,,,,,,,,,,,,,,,,,,,,,,,,,,,,,,,,792.7378588002175,None,,,,,,,,,,,,,,,,,,,,,,,,,,,,,,,,,,,,,,,,,,,,,,,,,,,,,,,,,apple,44,7,silent,old,white,790.4586585005745,None,n,790.4586585005745,None,"['n', 'return']","[1.947218700312078, 2.235231099650264]",790.4586585005745,None,,,62YB,001,2023_Apr_28_1257,ExactRep-v3-final,2021.2.3,59.985375691478126,
,,,,,,,,,,,,7,0,7,0,,,,,,,,,,,,,,,,,,,,,,,,,,,,,,,,,,,,,,,,,,,,,,,,,794.9569279998541,None,,,,,,,,,,,,,,,,,,,,,,,,,,,,,,,,,,,,,,,,,,,,,,,,,,,,,,,,,advice,67,8,silent,old,white,793.2420474998653,None,y,793.2420474998653,None,"['y', 'return']","[1.3718892000615597, 1.6680809007957578]",793.2420474998653,None,,,62YB,001,2023_Apr_28_1257,ExactRep-v3-final,2021.2.3,59.985375691478126,
,,,,,,,,,,,,8,0,8,0,,,,,,,,,,,,,,,,,,,,,,,,,,,,,,,,,,,,,,,,,,,,,,,,,797.0422972999513,None,,,,,,,,,,,,,,,,,,,,,,,,,,,,,,,,,,,,,,,,,,,,,,,,,,,,,,,,,cattle,189,9,sing,new,blue,795.4665608005598,None,n,795.4665608005598,None,"['n', 'return']","[0.931496100500226, 1.5394354006275535]",795.4665608005598,None,,,62YB,001,2023_Apr_28_1257,ExactRep-v3-final,2021.2.3,59.985375691478126,
,,,,,,,,,,,,9,0,9,0,,,,,,,,,,,,,,,,,,,,,,,,,,,,,,,,,,,,,,,,,,,,,,,,,799.06098830048,None,,,,,,,,,,,,,,,,,,,,,,,,,,,,,,,,,,,,,,,,,,,,,,,,,,,,,,,,,gold,66,10,silent,old,white,797.5496380999684,None,y,797.5496380999684,None,"['y', 'return']","[1.1444533001631498, 1.4723360994830728]",797.5496380999684,None,,,62YB,001,2023_Apr_28_1257,ExactRep-v3-final,2021.2.3,59.985375691478126,
,,,,,,,,,,,,10,0,10,0,,,,,,,,,,,,,,,,,,,,,,,,,,,,,,,,,,,,,,,,,,,,,,,,,801.0296024000272,None,,,,,,,,,,,,,,,,,,,,,,,,,,,,,,,,,,,,,,,,,,,,,,,,,,,,,,,,,teacher,128,11,silent,new,white,799.572213800624,None,n,799.572213800624,None,"['n', 'return']","[1.049999700859189, 1.4097377005964518]",799.572213800624,None,,,62YB,001,2023_Apr_28_1257,ExactRep-v3-final,2021.2.3,59.985375691478126,
,,,,,,,,,,,,11,0,11,0,,,,,,,,,,,,,,,,,,,,,,,,,,,,,,,,,,,,,,,,,,,,,,,,,802.9814539002255,None,,,,,,,,,,,,,,,,,,,,,,,,,,,,,,,,,,,,,,,,,,,,,,,,,,,,,,,,,corner,40,12,silent,old,white,801.5419797003269,None,y,801.5419797003269,None,"['y', 'return']","[1.0960397999733686, 1.4079879000782967]",801.5419797003269,None,,,62YB,001,2023_Apr_28_1257,ExactRep-v3-final,2021.2.3,59.985375691478126,
,,,,,,,,,,,,12,0,12,0,,,,,,,,,,,,,,,,,,,,,,,,,,,,,,,,,,,,,,,,,,,,,,,,,804.9669214002788,None,,,,,,,,,,,,,,,,,,,,,,,,,,,,,,,,,,,,,,,,,,,,,,,,,,,,,,,,,month,139,13,silent,new,white,803.4888165006414,None,n,803.4888165006414,None,"['n', 'return']","[1.109346100129187, 1.4373167995363474]",803.4888165006414,None,,,62YB,001,2023_Apr_28_1257,ExactRep-v3-final,2021.2.3,59.985375691478126,
,,,,,,,,,,,,13,0,13,0,,,,,,,,,,,,,,,,,,,,,,,,,,,,,,,,,,,,,,,,,,,,,,,,,807.1022668005899,None,,,,,,,,,,,,,,,,,,,,,,,,,,,,,,,,,,,,,,,,,,,,,,,,,,,,,,,,,rock,211,14,sing,new,blue,805.4755167998374,None,n,805.4755167998374,None,"['n', 'return']","[1.0504508996382356, 1.5865500997751951]",805.4755167998374,None,,,62YB,001,2023_Apr_28_1257,ExactRep-v3-final,2021.2.3,59.985375691478126,
,,,,,,,,,,,,14,0,14,0,,,,,,,,,,,,,,,,,,,,,,,,,,,,,,,,,,,,,,,,,,,,,,,,,809.4880707003176,None,,,,,,,,,,,,,,,,,,,,,,,,,,,,,,,,,,,,,,,,,,,,,,,,,,,,,,,,,square,107,15,aloud,old,red,807.6149062002078,None,y,807.6149062002078,None,"['y', 'return']","[1.5271469997242093, 1.8311245003715158]",807.6149062002078,None,,,62YB,001,2023_Apr_28_1257,ExactRep-v3-final,2021.2.3,59.985375691478126,
,,,,,,,,,,,,15,0,15,0,,,,,,,,,,,,,,,,,,,,,,,,,,,,,,,,,,,,,,,,,,,,,,,,,812.1573972003534,None,,,,,,,,,,,,,,,,,,,,,,,,,,,,,,,,,,,,,,,,,,,,,,,,,,,,,,,,,dress,144,16,silent,new,white,809.995321800001,None,y,809.995321800001,None,"['y', 'return']","[1.8746827002614737, 2.122782699763775]",809.995321800001,None,,,62YB,001,2023_Apr_28_1257,ExactRep-v3-final,2021.2.3,59.985375691478126,
,,,,,,,,,,,,16,0,16,0,,,,,,,,,,,,,,,,,,,,,,,,,,,,,,,,,,,,,,,,,,,,,,,,,814.4095804998651,None,,,,,,,,,,,,,,,,,,,,,,,,,,,,,,,,,,,,,,,,,,,,,,,,,,,,,,,,,book,62,17,silent,old,white,812.6663156999275,None,n,812.6663156999275,None,"['n', 'return']","[1.371764799579978, 1.7077091000974178]",812.6663156999275,None,,,62YB,001,2023_Apr_28_1257,ExactRep-v3-final,2021.2.3,59.985375691478126,
,,,,,,,,,,,,17,0,17,0,,,,,,,,,,,,,,,,,,,,,,,,,,,,,,,,,,,,,,,,,,,,,,,,,816.6784259006381,None,,,,,,,,,,,,,,,,,,,,,,,,,,,,,,,,,,,,,,,,,,,,,,,,,,,,,,,,,college,51,18,silent,old,white,814.917131700553,None,y,814.917131700553,None,"['y', 'return']","[1.3768074000254273, 1.7209385000169277]",814.917131700553,None,,,62YB,001,2023_Apr_28_1257,ExactRep-v3-final,2021.2.3,59.985375691478126,
,,,,,,,,,,,,18,0,18,0,,,,,,,,,,,,,,,,,,,,,,,,,,,,,,,,,,,,,,,,,,,,,,,,,818.9976784000173,None,,,,,,,,,,,,,,,,,,,,,,,,,,,,,,,,,,,,,,,,,,,,,,,,,,,,,,,,,woman,59,19,silent,old,white,817.1858895998448,None,y,817.1858895998448,None,"['y', 'return']","[1.1960802003741264, 1.764070600271225]",817.1858895998448,None,,,62YB,001,2023_Apr_28_1257,ExactRep-v3-final,2021.2.3,59.985375691478126,
,,,,,,,,,,,,19,0,19,0,,,,,,,,,,,,,,,,,,,,,,,,,,,,,,,,,,,,,,,,,,,,,,,,,821.7004315005615,None,,,,,,,,,,,,,,,,,,,,,,,,,,,,,,,,,,,,,,,,,,,,,,,,,,,,,,,,,trouble,197,20,sing,new,blue,819.5057297004387,None,n,819.5057297004387,None,"['n', 'return']","[1.7163893999531865, 2.148402400314808]",819.5057297004387,None,,,62YB,001,2023_Apr_28_1257,ExactRep-v3-final,2021.2.3,59.985375691478126,
,,,,,,,,,,,,20,0,20,0,,,,,,,,,,,,,,,,,,,,,,,,,,,,,,,,,,,,,,,,,,,,,,,,,823.819227900356,None,,,,,,,,,,,,,,,,,,,,,,,,,,,,,,,,,,,,,,,,,,,,,,,,,,,,,,,,,animal,16,21,sing,old,blue,822.2097665006295,None,y,822.2097665006295,None,"['y', 'return']","[1.1564416997134686, 1.5642510000616312]",822.2097665006295,None,,,62YB,001,2023_Apr_28_1257,ExactRep-v3-final,2021.2.3,59.985375691478126,
,,,,,,,,,,,,21,0,21,0,,,,,,,,,,,,,,,,,,,,,,,,,,,,,,,,,,,,,,,,,,,,,,,,,826.0045638000593,None,,,,,,,,,,,,,,,,,,,,,,,,,,,,,,,,,,,,,,,,,,,,,,,,,,,,,,,,,home,106,22,aloud,old,red,824.3278678003699,None,y,824.3278678003699,None,"['y', 'return']","[1.2461492996662855, 1.6381600992754102]",824.3278678003699,None,,,62YB,001,2023_Apr_28_1257,ExactRep-v3-final,2021.2.3,59.985375691478126,
,,,,,,,,,,,,22,0,22,0,,,,,,,,,,,,,,,,,,,,,,,,,,,,,,,,,,,,,,,,,,,,,,,,,827.8898335006088,None,,,,,,,,,,,,,,,,,,,,,,,,,,,,,,,,,,,,,,,,,,,,,,,,,,,,,,,,,method,219,23,sing,new,blue,826.5144766001031,None,n,826.5144766001031,None,"['n', 'return']","[0.9634878002107143, 1.3394235000014305]",826.5144766001031,None,,,62YB,001,2023_Apr_28_1257,ExactRep-v3-final,2021.2.3,59.985375691478126,
,,,,,,,,,,,,23,0,23,0,,,,,,,,,,,,,,,,,,,,,,,,,,,,,,,,,,,,,,,,,,,,,,,,,829.7416732003912,None,,,,,,,,,,,,,,,,,,,,,,,,,,,,,,,,,,,,,,,,,,,,,,,,,,,,,,,,,humour,216,24,aloud,new,red,828.4024152997881,None,n,828.4024152997881,None,"['n', 'return']","[0.8996708998456597, 1.2996472995728254]",828.4024152997881,None,,,62YB,001,2023_Apr_28_1257,ExactRep-v3-final,2021.2.3,59.985375691478126,
,,,,,,,,,,,,24,0,24,0,,,,,,,,,,,,,,,,,,,,,,,,,,,,,,,,,,,,,,,,,,,,,,,,,831.510017500259,None,,,,,,,,,,,,,,,,,,,,,,,,,,,,,,,,,,,,,,,,,,,,,,,,,,,,,,,,,shadow,111,25,aloud,old,red,830.2510446002707,None,y,830.2510446002707,None,"['y', 'return']","[0.8669568998739123, 1.2189060999080539]",830.2510446002707,None,,,62YB,001,2023_Apr_28_1257,ExactRep-v3-final,2021.2.3,59.985375691478126,
,,,,,,,,,,,,25,0,25,0,,,,,,,,,,,,,,,,,,,,,,,,,,,,,,,,,,,,,,,,,,,,,,,,,833.6123240999877,None,,,,,,,,,,,,,,,,,,,,,,,,,,,,,,,,,,,,,,,,,,,,,,,,,,,,,,,,,plain,102,26,aloud,old,red,832.018435199745,None,y,832.018435199745,None,"['y', 'return']","[1.1877340003848076, 1.547686000354588]",832.018435199745,None,,,62YB,001,2023_Apr_28_1257,ExactRep-v3-final,2021.2.3,59.985375691478126,
,,,,,,,,,,,,26,0,26,0,,,,,,,,,,,,,,,,,,,,,,,,,,,,,,,,,,,,,,,,,,,,,,,,,835.2305223001167,None,,,,,,,,,,,,,,,,,,,,,,,,,,,,,,,,,,,,,,,,,,,,,,,,,,,,,,,,,water,152,27,silent,new,white,834.1255606999621,None,n,834.1255606999621,None,"['n', 'return']","[0.7525760000571609, 1.0644552996382117]",834.1255606999621,None,,,62YB,001,2023_Apr_28_1257,ExactRep-v3-final,2021.2.3,59.985375691478126,
,,,,,,,,,,,,27,0,27,0,,,,,,,,,,,,,,,,,,,,,,,,,,,,,,,,,,,,,,,,,,,,,,,,,837.9499094998464,None,,,,,,,,,,,,,,,,,,,,,,,,,,,,,,,,,,,,,,,,,,,,,,,,,,,,,,,,,earth,22,28,sing,old,blue,835.7341451002285,None,y,835.7341451002285,None,"['y', 'return']","[1.8479531006887555, 2.1678555998951197]",835.7341451002285,None,,,62YB,001,2023_Apr_28_1257,ExactRep-v3-final,2021.2.3,59.985375691478126,
,,,,,,,,,,,,28,0,28,0,,,,,,,,,,,,,,,,,,,,,,,,,,,,,,,,,,,,,,,,,,,,,,,,,840.0852618999779,None,,,,,,,,,,,,,,,,,,,,,,,,,,,,,,,,,,,,,,,,,,,,,,,,,,,,,,,,,soil,71,29,silent,old,white,838.4570021005347,None,y,838.4570021005347,None,"['y', 'return']","[1.2770939003676176, 1.5810837000608444]",838.4570021005347,None,,,62YB,001,2023_Apr_28_1257,ExactRep-v3-final,2021.2.3,59.985375691478126,
,,,,,,,,,,,,29,0,29,0,,,,,,,,,,,,,,,,,,,,,,,,,,,,,,,,,,,,,,,,,,,,,,,,,842.0039913998917,None,,,,,,,,,,,,,,,,,,,,,,,,,,,,,,,,,,,,,,,,,,,,,,,,,,,,,,,,,crime,190,30,aloud,new,red,840.5966563001275,None,y,840.5966563001275,None,"['y', 'return']","[0.9936037007719278, 1.3614739999175072]",840.5966563001275,None,,,62YB,001,2023_Apr_28_1257,ExactRep-v3-final,2021.2.3,59.985375691478126,
,,,,,,,,,,,,30,0,30,0,,,,,,,,,,,,,,,,,,,,,,,,,,,,,,,,,,,,,,,,,,,,,,,,,844.0892551997676,None,,,,,,,,,,,,,,,,,,,,,,,,,,,,,,,,,,,,,,,,,,,,,,,,,,,,,,,,,idea,53,31,silent,old,white,842.5127006005496,None,y,842.5127006005496,None,"['y', 'return']","[1.133352200500667, 1.533301499672234]",842.5127006005496,None,,,62YB,001,2023_Apr_28_1257,ExactRep-v3-final,2021.2.3,59.985375691478126,
,,,,,,,,,,,,31,0,31,0,,,,,,,,,,,,,,,,,,,,,,,,,,,,,,,,,,,,,,,,,,,,,,,,,847.4760683998466,None,,,,,,,,,,,,,,,,,,,,,,,,,,,,,,,,,,,,,,,,,,,,,,,,,,,,,,,,,blossom,142,32,silent,new,white,844.6017398005351,None,n,844.6017398005351,None,"['n', 'return']","[2.4444182999432087, 2.836447199806571]",844.6017398005351,None,,,62YB,001,2023_Apr_28_1257,ExactRep-v3-final,2021.2.3,59.985375691478126,
,,,,,,,,,,,,32,0,32,0,,,,,,,,,,,,,,,,,,,,,,,,,,,,,,,,,,,,,,,,,,,,,,,,,850.2621709005907,None,,,,,,,,,,,,,,,,,,,,,,,,,,,,,,,,,,,,,,,,,,,,,,,,,,,,,,,,,table,160,33,aloud,new,red,847.9857915006578,None,n,847.9857915006578,None,"['n', 'return']","[1.956261900253594, 2.2362342001870275]",847.9857915006578,None,,,62YB,001,2023_Apr_28_1257,ExactRep-v3-final,2021.2.3,59.985375691478126,
,,,,,,,,,,,,33,0,33,0,,,,,,,,,,,,,,,,,,,,,,,,,,,,,,,,,,,,,,,,,,,,,,,,,852.0306993005797,None,,,,,,,,,,,,,,,,,,,,,,,,,,,,,,,,,,,,,,,,,,,,,,,,,,,,,,,,,shoes,217,34,sing,new,blue,850.7718384005129,None,n,850.7718384005129,None,"['n', 'return']","[0.8901583002880216, 1.2263054000213742]",850.7718384005129,None,,,62YB,001,2023_Apr_28_1257,ExactRep-v3-final,2021.2.3,59.985375691478126,
,,,,,,,,,,,,34,0,34,0,,,,,,,,,,,,,,,,,,,,,,,,,,,,,,,,,,,,,,,,,,,,,,,,,854.0993400001898,None,,,,,,,,,,,,,,,,,,,,,,,,,,,,,,,,,,,,,,,,,,,,,,,,,,,,,,,,,iron,57,35,silent,old,white,852.5393812004477,None,y,852.5393812004477,None,"['y', 'return']","[1.146946699358523, 1.5226663993671536]",852.5393812004477,None,,,62YB,001,2023_Apr_28_1257,ExactRep-v3-final,2021.2.3,59.985375691478126,
,,,,,,,,,,,,35,0,35,0,,,,,,,,,,,,,,,,,,,,,,,,,,,,,,,,,,,,,,,,,,,,,,,,,855.9845583001152,None,,,,,,,,,,,,,,,,,,,,,,,,,,,,,,,,,,,,,,,,,,,,,,,,,,,,,,,,,factory,173,36,sing,new,blue,854.6101176999509,None,n,854.6101176999509,None,"['n', 'return']","[0.9078973000869155, 1.3318349998444319]",854.6101176999509,None,,,62YB,001,2023_Apr_28_1257,ExactRep-v3-final,2021.2.3,59.985375691478126,
,,,,,,,,,,,,36,0,36,0,,,,,,,,,,,,,,,,,,,,,,,,,,,,,,,,,,,,,,,,,,,,,,,,,858.3868915997446,None,,,,,,,,,,,,,,,,,,,,,,,,,,,,,,,,,,,,,,,,,,,,,,,,,,,,,,,,,fault,89,37,aloud,old,red,856.4923740001395,None,y,856.4923740001395,None,"['y', 'return']","[1.537695899605751, 1.8496974995359778]",856.4923740001395,None,,,62YB,001,2023_Apr_28_1257,ExactRep-v3-final,2021.2.3,59.985375691478126,
,,,,,,,,,,,,37,0,37,0,,,,,,,,,,,,,,,,,,,,,,,,,,,,,,,,,,,,,,,,,,,,,,,,,860.0885965004563,None,,,,,,,,,,,,,,,,,,,,,,,,,,,,,,,,,,,,,,,,,,,,,,,,,,,,,,,,,style,138,38,silent,new,white,858.895505500026,None,n,858.895505500026,None,"['n', 'return']","[0.774592699483037, 1.1584566999226809]",858.895505500026,None,,,62YB,001,2023_Apr_28_1257,ExactRep-v3-final,2021.2.3,59.985375691478126,
,,,,,,,,,,,,38,0,38,0,,,,,,,,,,,,,,,,,,,,,,,,,,,,,,,,,,,,,,,,,,,,,,,,,862.457621300593,None,,,,,,,,,,,,,,,,,,,,,,,,,,,,,,,,,,,,,,,,,,,,,,,,,,,,,,,,,world,206,39,aloud,new,red,860.6005271999165,None,n,860.6005271999165,None,"['n', 'return']","[1.5175927001982927, 1.8134778998792171]",860.6005271999165,None,,,62YB,001,2023_Apr_28_1257,ExactRep-v3-final,2021.2.3,59.985375691478126,
,,,,,,,,,,,,39,0,39,0,,,,,,,,,,,,,,,,,,,,,,,,,,,,,,,,,,,,,,,,,,,,,,,,,864.4430266004056,None,,,,,,,,,,,,,,,,,,,,,,,,,,,,,,,,,,,,,,,,,,,,,,,,,,,,,,,,,memory,11,40,sing,old,blue,862.9666923005134,None,y,862.9666923005134,None,"['y', 'return']","[1.0794484997168183, 1.4394731000065804]",862.9666923005134,None,,,62YB,001,2023_Apr_28_1257,ExactRep-v3-final,2021.2.3,59.985375691478126,
,,,,,,,,,,,,40,0,40,0,,,,,,,,,,,,,,,,,,,,,,,,,,,,,,,,,,,,,,,,,,,,,,,,,866.3949650004506,None,,,,,,,,,,,,,,,,,,,,,,,,,,,,,,,,,,,,,,,,,,,,,,,,,,,,,,,,,machine,70,41,silent,old,white,864.9539366997778,None,y,864.9539366997778,None,"['y', 'return']","[1.0922328000888228, 1.4042399004101753]",864.9539366997778,None,,,62YB,001,2023_Apr_28_1257,ExactRep-v3-final,2021.2.3,59.985375691478126,
,,,,,,,,,,,,41,0,41,0,,,,,,,,,,,,,,,,,,,,,,,,,,,,,,,,,,,,,,,,,,,,,,,,,868.8974759001285,None,,,,,,,,,,,,,,,,,,,,,,,,,,,,,,,,,,,,,,,,,,,,,,,,,,,,,,,,,sea,39,42,silent,old,white,866.9033211003989,None,n,866.9033211003989,None,"['n', 'return']","[1.1826719995588064, 1.9589154999703169]",866.9033211003989,None,,,62YB,001,2023_Apr_28_1257,ExactRep-v3-final,2021.2.3,59.985375691478126,
,,,,,,,,,,,,42,0,42,0,,,,,,,,,,,,,,,,,,,,,,,,,,,,,,,,,,,,,,,,,,,,,,,,,870.9160834997892,None,,,,,,,,,,,,,,,,,,,,,,,,,,,,,,,,,,,,,,,,,,,,,,,,,,,,,,,,,hour,75,43,silent,old,white,869.4140071002766,None,n,869.4140071002766,None,"['n', 'return']","[1.1679779002442956, 1.4560535997152328]",869.4140071002766,None,,,62YB,001,2023_Apr_28_1257,ExactRep-v3-final,2021.2.3,59.985375691478126,
,,,,,,,,,,,,43,0,43,0,,,,,,,,,,,,,,,,,,,,,,,,,,,,,,,,,,,,,,,,,,,,,,,,,872.918164900504,None,,,,,,,,,,,,,,,,,,,,,,,,,,,,,,,,,,,,,,,,,,,,,,,,,,,,,,,,,shame,129,44,silent,new,white,871.4260184997693,None,n,871.4260184997693,None,"['n', 'return']","[1.0923082996159792, 1.460177299566567]",871.4260184997693,None,,,62YB,001,2023_Apr_28_1257,ExactRep-v3-final,2021.2.3,59.985375691478126,
,,,,,,,,,,,,44,0,44,0,,,,,,,,,,,,,,,,,,,,,,,,,,,,,,,,,,,,,,,,,,,,,,,,,874.5531681003049,None,,,,,,,,,,,,,,,,,,,,,,,,,,,,,,,,,,,,,,,,,,,,,,,,,,,,,,,,,avenue,47,45,silent,old,white,873.4209972005337,None,y,873.4209972005337,None,"['y', 'return']","[0.6652639005333185, 1.0890385005623102]",873.4209972005337,None,,,62YB,001,2023_Apr_28_1257,ExactRep-v3-final,2021.2.3,59.985375691478126,
,,,,,,,,,,,,45,0,45,0,,,,,,,,,,,,,,,,,,,,,,,,,,,,,,,,,,,,,,,,,,,,,,,,,877.0723235998303,None,,,,,,,,,,,,,,,,,,,,,,,,,,,,,,,,,,,,,,,,,,,,,,,,,,,,,,,,,valley,220,46,aloud,new,red,875.0629593003541,None,n,875.0629593003541,None,"['n', 'return']","[1.639291999861598, 1.9751190999522805]",875.0629593003541,None,,,62YB,001,2023_Apr_28_1257,ExactRep-v3-final,2021.2.3,59.985375691478126,
,,,,,,,,,,,,46,0,46,0,,,,,,,,,,,,,,,,,,,,,,,,,,,,,,,,,,,,,,,,,,,,,,,,,878.640567000024,None,,,,,,,,,,,,,,,,,,,,,,,,,,,,,,,,,,,,,,,,,,,,,,,,,,,,,,,,,deed,212,47,aloud,new,red,877.5807672003284,None,n,877.5807672003284,None,"['n', 'return']","[0.7213982995599508, 1.0172733999788761]",877.5807672003284,None,,,62YB,001,2023_Apr_28_1257,ExactRep-v3-final,2021.2.3,59.985375691478126,
,,,,,,,,,,,,47,0,47,0,,,,,,,,,,,,,,,,,,,,,,,,,,,,,,,,,,,,,,,,,,,,,,,,,880.2922844998538,None,,,,,,,,,,,,,,,,,,,,,,,,,,,,,,,,,,,,,,,,,,,,,,,,,,,,,,,,,ocean,118,48,aloud,old,red,879.1486740000546,None,n,879.1486740000546,None,"['n', 'return']","[0.7375814998522401, 1.1054337993264198]",879.1486740000546,None,,,62YB,001,2023_Apr_28_1257,ExactRep-v3-final,2021.2.3,59.985375691478126,
,,,,,,,,,,,,48,0,48,0,,,,,,,,,,,,,,,,,,,,,,,,,,,,,,,,,,,,,,,,,,,,,,,,,883.8957625003532,None,,,,,,,,,,,,,,,,,,,,,,,,,,,,,,,,,,,,,,,,,,,,,,,,,,,,,,,,,river,225,49,sing,new,blue,880.8088741004467,None,n,880.8088741004467,None,"['n', 'return']","[2.6933615999296308, 3.0451644994318485]",880.8088741004467,None,,,62YB,001,2023_Apr_28_1257,ExactRep-v3-final,2021.2.3,59.985375691478126,
,,,,,,,,,,,,49,0,49,0,,,,,,,,,,,,,,,,,,,,,,,,,,,,,,,,,,,,,,,,,,,,,,,,,886.5985213005915,None,,,,,,,,,,,,,,,,,,,,,,,,,,,,,,,,,,,,,,,,,,,,,,,,,,,,,,,,,forest,154,50,silent,new,white,884.4070834005252,None,n,884.4070834005252,None,"['n', 'return']","[1.7749470993876457, 2.151002399623394]",884.4070834005252,None,,,62YB,001,2023_Apr_28_1257,ExactRep-v3-final,2021.2.3,59.985375691478126,
,,,,,,,,,,,,50,0,50,0,,,,,,,,,,,,,,,,,,,,,,,,,,,,,,,,,,,,,,,,,,,,,,,,,888.4003038005903,None,,,,,,,,,,,,,,,,,,,,,,,,,,,,,,,,,,,,,,,,,,,,,,,,,,,,,,,,,duty,3,51,sing,old,blue,887.1058502001688,None,y,887.1058502001688,None,"['y', 'return']","[0.8282765001058578, 1.2601939998567104]",887.1058502001688,None,,,62YB,001,2023_Apr_28_1257,ExactRep-v3-final,2021.2.3,59.985375691478126,
,,,,,,,,,,,,51,0,51,0,,,,,,,,,,,,,,,,,,,,,,,,,,,,,,,,,,,,,,,,,,,,,,,,,890.1354459002614,None,,,,,,,,,,,,,,,,,,,,,,,,,,,,,,,,,,,,,,,,,,,,,,,,,,,,,,,,,vessel,198,52,aloud,new,red,888.9175917999819,None,n,888.9175917999819,None,"['n', 'return']","[0.8005592003464699, 1.176562700420618]",888.9175917999819,None,,,62YB,001,2023_Apr_28_1257,ExactRep-v3-final,2021.2.3,59.985375691478126,
,,,,,,,,,,,,52,0,52,0,,,,,,,,,,,,,,,,,,,,,,,,,,,,,,,,,,,,,,,,,,,,,,,,,891.7872256999835,None,,,,,,,,,,,,,,,,,,,,,,,,,,,,,,,,,,,,,,,,,,,,,,,,,,,,,,,,,party,177,53,sing,new,blue,890.6394671006128,None,n,890.6394671006128,None,"['n', 'return']","[0.702666999772191, 1.1107372995465994]",890.6394671006128,None,,,62YB,001,2023_Apr_28_1257,ExactRep-v3-final,2021.2.3,59.985375691478126,
,,,,,,,,,,,,53,0,53,0,,,,,,,,,,,,,,,,,,,,,,,,,,,,,,,,,,,,,,,,,,,,,,,,,893.8723712004721,None,,,,,,,,,,,,,,,,,,,,,,,,,,,,,,,,,,,,,,,,,,,,,,,,,,,,,,,,,maiden,157,54,silent,new,white,892.2984694000334,None,n,892.2984694000334,None,"['n', 'return']","[0.9476279001682997, 1.5315785007551312]",892.2984694000334,None,,,62YB,001,2023_Apr_28_1257,ExactRep-v3-final,2021.2.3,59.985375691478126,
,,,,,,,,,,,,54,0,54,0,,,,,,,,,,,,,,,,,,,,,,,,,,,,,,,,,,,,,,,,,,,,,,,,,896.3418068001047,None,,,,,,,,,,,,,,,,,,,,,,,,,,,,,,,,,,,,,,,,,,,,,,,,,,,,,,,,,fate,42,55,silent,old,white,894.3800074998289,None,n,894.3800074998289,None,"['n', 'return']","[1.570104899816215, 1.9300939003005624]",894.3800074998289,None,,,62YB,001,2023_Apr_28_1257,ExactRep-v3-final,2021.2.3,59.985375691478126,
,,,,,,,,,,,,55,0,55,0,,,,,,,,,,,,,,,,,,,,,,,,,,,,,,,,,,,,,,,,,,,,,,,,,898.076660300605,None,,,,,,,,,,,,,,,,,,,,,,,,,,,,,,,,,,,,,,,,,,,,,,,,,,,,,,,,,camp,87,56,aloud,old,red,896.8489070003852,None,y,896.8489070003852,None,"['y', 'return']","[0.8372651999816298, 1.18120380025357]",896.8489070003852,None,,,62YB,001,2023_Apr_28_1257,ExactRep-v3-final,2021.2.3,59.985375691478126,
,,,,,,,,,,,,56,0,56,0,,,,,,,,,,,,,,,,,,,,,,,,,,,,,,,,,,,,,,,,,,,,,,,,,899.8453302001581,None,,,,,,,,,,,,,,,,,,,,,,,,,,,,,,,,,,,,,,,,,,,,,,,,,,,,,,,,,cost,171,57,sing,new,blue,898.5799299003556,None,n,898.5799299003556,None,"['n', 'return']","[0.8983033997938037, 1.226091300137341]",898.5799299003556,None,,,62YB,001,2023_Apr_28_1257,ExactRep-v3-final,2021.2.3,59.985375691478126,
,,,,,,,,,,,,57,0,57,0,,,,,,,,,,,,,,,,,,,,,,,,,,,,,,,,,,,,,,,,,,,,,,,,,902.9982186006382,None,,,,,,,,,,,,,,,,,,,,,,,,,,,,,,,,,,,,,,,,,,,,,,,,,,,,,,,,,arm,168,58,aloud,new,red,900.3528820006177,None,n,900.3528820006177,None,"['n', 'return']","[1.5172180999070406, 2.6132025001570582]",900.3528820006177,None,,,62YB,001,2023_Apr_28_1257,ExactRep-v3-final,2021.2.3,59.985375691478126,
,,,,,,,,,,,,58,0,58,0,,,,,,,,,,,,,,,,,,,,,,,,,,,,,,,,,,,,,,,,,,,,,,,,,904.9001372000203,None,,,,,,,,,,,,,,,,,,,,,,,,,,,,,,,,,,,,,,,,,,,,,,,,,,,,,,,,,army,50,59,silent,old,white,903.5052859000862,None,n,903.5052859000862,None,"['n', 'return']","[0.8288494003936648, 1.3489060001447797]",903.5052859000862,None,,,62YB,001,2023_Apr_28_1257,ExactRep-v3-final,2021.2.3,59.985375691478126,
,,,,,,,,,,,,59,0,59,0,,,,,,,,,,,,,,,,,,,,,,,,,,,,,,,,,,,,,,,,,,,,,,,,,907.2525470005348,None,,,,,,,,,,,,,,,,,,,,,,,,,,,,,,,,,,,,,,,,,,,,,,,,,,,,,,,,,doctor,77,60,silent,old,white,905.4125738004223,None,y,905.4125738004223,None,"['y', 'return']","[1.4496355997398496, 1.8016831995919347]",905.4125738004223,None,,,62YB,001,2023_Apr_28_1257,ExactRep-v3-final,2021.2.3,59.985375691478126,
,,,,,,,,,,,,60,0,60,0,,,,,,,,,,,,,,,,,,,,,,,,,,,,,,,,,,,,,,,,,,,,,,,,,909.0876762000844,None,,,,,,,,,,,,,,,,,,,,,,,,,,,,,,,,,,,,,,,,,,,,,,,,,,,,,,,,,temple,180,61,aloud,new,red,907.7564634997398,None,n,907.7564634997398,None,"['n', 'return']","[0.9056351995095611, 1.2975867995992303]",907.7564634997398,None,,,62YB,001,2023_Apr_28_1257,ExactRep-v3-final,2021.2.3,59.985375691478126,
,,,,,,,,,,,,61,0,61,0,,,,,,,,,,,,,,,,,,,,,,,,,,,,,,,,,,,,,,,,,,,,,,,,,910.8560170000419,None,,,,,,,,,,,,,,,,,,,,,,,,,,,,,,,,,,,,,,,,,,,,,,,,,,,,,,,,,lad,68,62,silent,old,white,909.5968283005059,None,y,909.5968283005059,None,"['y', 'return']","[0.8894028002396226, 1.2252923008054495]",909.5968283005059,None,,,62YB,001,2023_Apr_28_1257,ExactRep-v3-final,2021.2.3,59.985375691478126,
,,,,,,,,,,,,62,0,62,0,,,,,,,,,,,,,,,,,,,,,,,,,,,,,,,,,,,,,,,,,,,,,,,,,912.5410262998194,None,,,,,,,,,,,,,,,,,,,,,,,,,,,,,,,,,,,,,,,,,,,,,,,,,,,,,,,,,corn,169,63,sing,new,blue,911.3682997999713,None,n,911.3682997999713,None,"['n', 'return']","[0.7658636998385191, 1.1338363997638226]",911.3682997999713,None,,,62YB,001,2023_Apr_28_1257,ExactRep-v3-final,2021.2.3,59.985375691478126,
,,,,,,,,,,,,63,0,63,0,,,,,,,,,,,,,,,,,,,,,,,,,,,,,,,,,,,,,,,,,,,,,,,,,914.9103413000703,None,,,,,,,,,,,,,,,,,,,,,,,,,,,,,,,,,,,,,,,,,,,,,,,,,,,,,,,,,coast,98,64,aloud,old,red,913.0503464005888,None,y,913.0503464005888,None,"['y', 'return']","[1.4439170006662607, 1.8278459999710321]",913.0503464005888,None,,,62YB,001,2023_Apr_28_1257,ExactRep-v3-final,2021.2.3,59.985375691478126,
,,,,,,,,,,,,64,0,64,0,,,,,,,,,,,,,,,,,,,,,,,,,,,,,,,,,,,,,,,,,,,,,,,,,916.5786525998265,None,,,,,,,,,,,,,,,,,,,,,,,,,,,,,,,,,,,,,,,,,,,,,,,,,,,,,,,,,lip,179,65,sing,new,blue,915.4201548006386,None,n,915.4201548006386,None,"['n', 'return']","[0.7460099002346396, 1.113892899826169]",915.4201548006386,None,,,62YB,001,2023_Apr_28_1257,ExactRep-v3-final,2021.2.3,59.985375691478126,
,,,,,,,,,,,,65,0,65,0,,,,,,,,,,,,,,,,,,,,,,,,,,,,,,,,,,,,,,,,,,,,,,,,,920.3655516998842,None,,,,,,,,,,,,,,,,,,,,,,,,,,,,,,,,,,,,,,,,,,,,,,,,,,,,,,,,,weapon,196,66,aloud,new,red,917.0816775998101,None,y,917.0816775998101,None,"['n', 'backspace', 'y', 'return']","[0.7724131001159549, 2.5244273003190756, 2.932397000491619, 3.244577500037849]",917.0816775998101,None,,,62YB,001,2023_Apr_28_1257,ExactRep-v3-final,2021.2.3,59.985375691478126,
,,,,,,,,,,,,66,0,66,0,,,,,,,,,,,,,,,,,,,,,,,,,,,,,,,,,,,,,,,,,,,,,,,,,922.7012833002955,None,,,,,,,,,,,,,,,,,,,,,,,,,,,,,,,,,,,,,,,,,,,,,,,,,,,,,,,,,boulder,218,67,aloud,new,red,920.8721657004207,None,n,920.8721657004207,None,"['n', 'return']","[1.4299924997612834, 1.7819789992645383]",920.8721657004207,None,,,62YB,001,2023_Apr_28_1257,ExactRep-v3-final,2021.2.3,59.985375691478126,
,,,,,,,,,,,,67,0,67,0,,,,,,,,,,,,,,,,,,,,,,,,,,,,,,,,,,,,,,,,,,,,,,,,,924.8368490003049,None,,,,,,,,,,,,,,,,,,,,,,,,,,,,,,,,,,,,,,,,,,,,,,,,,,,,,,,,,chair,10,68,sing,old,blue,923.2029478000477,None,y,923.2029478000477,None,"['y', 'return']","[1.2111534997820854, 1.5951855992898345]",923.2029478000477,None,,,62YB,001,2023_Apr_28_1257,ExactRep-v3-final,2021.2.3,59.985375691478126,
,,,,,,,,,,,,68,0,68,0,,,,,,,,,,,,,,,,,,,,,,,,,,,,,,,,,,,,,,,,,,,,,,,,,926.6220252998173,None,,,,,,,,,,,,,,,,,,,,,,,,,,,,,,,,,,,,,,,,,,,,,,,,,,,,,,,,,tool,85,69,aloud,old,red,925.3437247006223,None,y,925.3437247006223,None,"['y', 'return']","[0.8944402001798153, 1.2303993999958038]",925.3437247006223,None,,,62YB,001,2023_Apr_28_1257,ExactRep-v3-final,2021.2.3,59.985375691478126,
,,,,,,,,,,,,69,0,69,0,,,,,,,,,,,,,,,,,,,,,,,,,,,,,,,,,,,,,,,,,,,,,,,,,928.1402170006186,None,,,,,,,,,,,,,,,,,,,,,,,,,,,,,,,,,,,,,,,,,,,,,,,,,,,,,,,,,window,135,70,silent,new,white,927.130885200575,None,n,927.130885200575,None,"['n', 'return']","[0.6196077996864915, 0.9713610000908375]",927.130885200575,None,,,62YB,001,2023_Apr_28_1257,ExactRep-v3-final,2021.2.3,59.985375691478126,
,,,,,,,,,,,,70,0,70,0,,,,,,,,,,,,,,,,,,,,,,,,,,,,,,,,,,,,,,,,,,,,,,,,,929.9251829003915,None,,,,,,,,,,,,,,,,,,,,,,,,,,,,,,,,,,,,,,,,,,,,,,,,,,,,,,,,,steam,145,71,silent,new,white,928.6506941001862,None,n,928.6506941001862,None,"['n', 'return']","[0.8515069000422955, 1.2354118004441261]",928.6506941001862,None,,,62YB,001,2023_Apr_28_1257,ExactRep-v3-final,2021.2.3,59.985375691478126,
,,,,,,,,,,,,71,0,71,0,,,,,,,,,,,,,,,,,,,,,,,,,,,,,,,,,,,,,,,,,,,,,,,,,931.7102311998606,None,,,,,,,,,,,,,,,,,,,,,,,,,,,,,,,,,,,,,,,,,,,,,,,,,,,,,,,,,winter,34,72,sing,old,blue,930.4383808001876,None,n,930.4383808001876,None,"['n', 'return']","[0.9036860996857285, 1.2318302001804113]",930.4383808001876,None,,,62YB,001,2023_Apr_28_1257,ExactRep-v3-final,2021.2.3,59.985375691478126,
,,,,,,,,,,,,72,0,72,0,,,,,,,,,,,,,,,,,,,,,,,,,,,,,,,,,,,,,,,,,,,,,,,,,933.578751699999,None,,,,,,,,,,,,,,,,,,,,,,,,,,,,,,,,,,,,,,,,,,,,,,,,,,,,,,,,,cash,162,73,aloud,new,red,932.2192628998309,None,n,932.2192628998309,None,"['n', 'return']","[0.9630030998960137, 1.3230570005252957]",932.2192628998309,None,,,62YB,001,2023_Apr_28_1257,ExactRep-v3-final,2021.2.3,59.985375691478126,
,,,,,,,,,,,,73,0,73,0,,,,,,,,,,,,,,,,,,,,,,,,,,,,,,,,,,,,,,,,,,,,,,,,,935.2137422999367,None,,,,,,,,,,,,,,,,,,,,,,,,,,,,,,,,,,,,,,,,,,,,,,,,,,,,,,,,,prayer,108,74,aloud,old,red,934.0903277006,None,y,934.0903277006,None,"['y', 'return']","[0.7318227998912334, 1.083874899893999]",934.0903277006,None,,,62YB,001,2023_Apr_28_1257,ExactRep-v3-final,2021.2.3,59.985375691478126,
,,,,,,,,,,,,74,0,74,0,,,,,,,,,,,,,,,,,,,,,,,,,,,,,,,,,,,,,,,,,,,,,,,,,936.6986198006198,None,,,,,,,,,,,,,,,,,,,,,,,,,,,,,,,,,,,,,,,,,,,,,,,,,,,,,,,,,king,202,75,aloud,new,red,935.7251268997788,None,n,935.7251268997788,None,"['n', 'return']","[0.5769944991916418, 0.928918699733913]",935.7251268997788,None,,,62YB,001,2023_Apr_28_1257,ExactRep-v3-final,2021.2.3,59.985375691478126,
,,,,,,,,,,,,75,0,75,0,,,,,,,,,,,,,,,,,,,,,,,,,,,,,,,,,,,,,,,,,,,,,,,,,939.1676679002121,None,,,,,,,,,,,,,,,,,,,,,,,,,,,,,,,,,,,,,,,,,,,,,,,,,,,,,,,,,rod,58,76,silent,old,white,937.2078037997708,None,n,937.2078037997708,None,"['n', 'return']","[0.9343224996700883, 1.9183269999921322]",937.2078037997708,None,,,62YB,001,2023_Apr_28_1257,ExactRep-v3-final,2021.2.3,59.985375691478126,
,,,,,,,,,,,,76,0,76,0,,,,,,,,,,,,,,,,,,,,,,,,,,,,,,,,,,,,,,,,,,,,,,,,,941.1198008004576,None,,,,,,,,,,,,,,,,,,,,,,,,,,,,,,,,,,,,,,,,,,,,,,,,,,,,,,,,,queen,155,77,silent,new,white,939.679552000016,None,y,939.679552000016,None,"['y', 'return']","[0.9346201997250319, 1.3986178003251553]",939.679552000016,None,,,62YB,001,2023_Apr_28_1257,ExactRep-v3-final,2021.2.3,59.985375691478126,
,,,,,,,,,,,,77,0,77,0,,,,,,,,,,,,,,,,,,,,,,,,,,,,,,,,,,,,,,,,,,,,,,,,,943.0716658998281,None,,,,,,,,,,,,,,,,,,,,,,,,,,,,,,,,,,,,,,,,,,,,,,,,,,,,,,,,,speech,17,78,sing,old,blue,941.6286200005561,None,n,941.6286200005561,None,"['n', 'return']","[1.1055124998092651, 1.4095399994403124]",941.6286200005561,None,,,62YB,001,2023_Apr_28_1257,ExactRep-v3-final,2021.2.3,59.985375691478126,
,,,,,,,,,,,,78,0,78,0,,,,,,,,,,,,,,,,,,,,,,,,,,,,,,,,,,,,,,,,,,,,,,,,,945.1070042001083,None,,,,,,,,,,,,,,,,,,,,,,,,,,,,,,,,,,,,,,,,,,,,,,,,,,,,,,,,,bowl,228,79,aloud,new,red,943.5772729003802,None,n,943.5772729003802,None,"['n', 'return']","[1.0688710007816553, 1.4849041001871228]",943.5772729003802,None,,,62YB,001,2023_Apr_28_1257,ExactRep-v3-final,2021.2.3,59.985375691478126,
,,,,,,,,,,,,79,0,79,0,,,,,,,,,,,,,,,,,,,,,,,,,,,,,,,,,,,,,,,,,,,,,,,,,946.9588151006028,None,,,,,,,,,,,,,,,,,,,,,,,,,,,,,,,,,,,,,,,,,,,,,,,,,,,,,,,,,thought,227,80,sing,new,blue,945.6191488001496,None,n,945.6191488001496,None,"['n', 'return']","[0.8669316004961729, 1.3070494998246431]",945.6191488001496,None,,,62YB,001,2023_Apr_28_1257,ExactRep-v3-final,2021.2.3,59.985375691478126,
,,,,,,,,,,,,80,0,80,0,,,,,,,,,,,,,,,,,,,,,,,,,,,,,,,,,,,,,,,,,,,,,,,,,949.0109167005867,None,,,,,,,,,,,,,,,,,,,,,,,,,,,,,,,,,,,,,,,,,,,,,,,,,,,,,,,,,heaven,60,81,silent,old,white,947.469751900062,None,y,947.469751900062,None,"['y', 'return']","[1.0723032001405954, 1.4963704999536276]",947.469751900062,None,,,62YB,001,2023_Apr_28_1257,ExactRep-v3-final,2021.2.3,59.985375691478126,
,,,,,,,,,,,,81,0,81,0,,,,,,,,,,,,,,,,,,,,,,,,,,,,,,,,,,,,,,,,,,,,,,,,,950.6125388005748,None,,,,,,,,,,,,,,,,,,,,,,,,,,,,,,,,,,,,,,,,,,,,,,,,,,,,,,,,,kiss,221,82,sing,new,blue,949.5206160005182,None,n,949.5206160005182,None,"['n', 'return']","[0.6696822997182608, 1.053648299537599]",949.5206160005182,None,,,62YB,001,2023_Apr_28_1257,ExactRep-v3-final,2021.2.3,59.985375691478126,
,,,,,,,,,,,,82,0,82,0,,,,,,,,,,,,,,,,,,,,,,,,,,,,,,,,,,,,,,,,,,,,,,,,,952.5146313998848,None,,,,,,,,,,,,,,,,,,,,,,,,,,,,,,,,,,,,,,,,,,,,,,,,,,,,,,,,,letter,170,83,aloud,new,red,951.1207097005099,None,n,951.1207097005099,None,"['n', 'return']","[0.8375153001397848, 1.349346000701189]",951.1207097005099,None,,,62YB,001,2023_Apr_28_1257,ExactRep-v3-final,2021.2.3,59.985375691478126,
,,,,,,,,,,,,83,0,83,0,,,,,,,,,,,,,,,,,,,,,,,,,,,,,,,,,,,,,,,,,,,,,,,,,954.7332953000441,None,,,,,,,,,,,,,,,,,,,,,,,,,,,,,,,,,,,,,,,,,,,,,,,,,,,,,,,,,library,175,84,sing,new,blue,953.0221787001938,None,n,953.0221787001938,None,"['n', 'return']","[1.2880126992240548, 1.6720820991322398]",953.0221787001938,None,,,62YB,001,2023_Apr_28_1257,ExactRep-v3-final,2021.2.3,59.985375691478126,
,,,,,,,,,,,,84,0,84,0,,,,,,,,,,,,,,,,,,,,,,,,,,,,,,,,,,,,,,,,,,,,,,,,,957.3858746998012,None,,,,,,,,,,,,,,,,,,,,,,,,,,,,,,,,,,,,,,,,,,,,,,,,,,,,,,,,,passion,131,85,silent,new,white,955.2459463998675,None,y,955.2459463998675,None,"['y', 'return']","[1.8641848992556334, 2.1040999991819263]",955.2459463998675,None,,,62YB,001,2023_Apr_28_1257,ExactRep-v3-final,2021.2.3,59.985375691478126,
,,,,,,,,,,,,85,0,85,0,,,,,,,,,,,,,,,,,,,,,,,,,,,,,,,,,,,,,,,,,,,,,,,,,959.5214245999232,None,,,,,,,,,,,,,,,,,,,,,,,,,,,,,,,,,,,,,,,,,,,,,,,,,,,,,,,,,hope,172,86,aloud,new,red,957.8940825005993,None,n,957.8940825005993,None,"['n', 'return']","[1.2401096001267433, 1.5922709004953504]",957.8940825005993,None,,,62YB,001,2023_Apr_28_1257,ExactRep-v3-final,2021.2.3,59.985375691478126,
,,,,,,,,,,,,86,0,86,0,,,,,,,,,,,,,,,,,,,,,,,,,,,,,,,,,,,,,,,,,,,,,,,,,961.1564079001546,None,,,,,,,,,,,,,,,,,,,,,,,,,,,,,,,,,,,,,,,,,,,,,,,,,,,,,,,,,city,229,87,sing,new,blue,960.0314583005384,None,n,960.0314583005384,None,"['n', 'return']","[0.7348268004134297, 1.0867486000061035]",960.0314583005384,None,,,62YB,001,2023_Apr_28_1257,ExactRep-v3-final,2021.2.3,59.985375691478126,
,,,,,,,,,,,,87,0,87,0,,,,,,,,,,,,,,,,,,,,,,,,,,,,,,,,,,,,,,,,,,,,,,,,,963.2252897005528,None,,,,,,,,,,,,,,,,,,,,,,,,,,,,,,,,,,,,,,,,,,,,,,,,,,,,,,,,,moral,125,88,silent,new,white,961.6634887000546,None,n,961.6634887000546,None,"['n', 'return']","[0.9505786998197436, 1.5266109993681312]",961.6634887000546,None,,,62YB,001,2023_Apr_28_1257,ExactRep-v3-final,2021.2.3,59.985375691478126,
,,,,,,,,,,,,88,0,88,0,,,,,,,,,,,,,,,,,,,,,,,,,,,,,,,,,,,,,,,,,,,,,,,,,965.544118700549,None,,,,,,,,,,,,,,,,,,,,,,,,,,,,,,,,,,,,,,,,,,,,,,,,,,,,,,,,,dust,127,89,silent,new,white,963.7364869005978,None,n,963.7364869005978,None,"['n', 'return']","[1.3976123994216323, 1.7656914992257953]",963.7364869005978,None,,,62YB,001,2023_Apr_28_1257,ExactRep-v3-final,2021.2.3,59.985375691478126,
,,,,,,,,,,,,89,0,89,0,,,,,,,,,,,,,,,,,,,,,,,,,,,,,,,,,,,,,,,,,,,,,,,,,967.3626266997308,None,,,,,,,,,,,,,,,,,,,,,,,,,,,,,,,,,,,,,,,,,,,,,,,,,,,,,,,,,time,187,90,sing,new,blue,966.055830700323,None,n,966.055830700323,None,"['n', 'return']","[0.774439500644803, 1.2703839000314474]",966.055830700323,None,,,62YB,001,2023_Apr_28_1257,ExactRep-v3-final,2021.2.3,59.985375691478126,
,,,,,,,,,,,,90,0,90,0,,,,,,,,,,,,,,,,,,,,,,,,,,,,,,,,,,,,,,,,,,,,,,,,,969.1477575004101,None,,,,,,,,,,,,,,,,,,,,,,,,,,,,,,,,,,,,,,,,,,,,,,,,,,,,,,,,,person,147,91,silent,new,white,967.874588499777,None,y,967.874588499777,None,"['y', 'return']","[0.9715942004695535, 1.2276605004444718]",967.874588499777,None,,,62YB,001,2023_Apr_28_1257,ExactRep-v3-final,2021.2.3,59.985375691478126,
,,,,,,,,,,,,91,0,91,0,,,,,,,,,,,,,,,,,,,,,,,,,,,,,,,,,,,,,,,,,,,,,,,,,972.1840980006382,None,,,,,,,,,,,,,,,,,,,,,,,,,,,,,,,,,,,,,,,,,,,,,,,,,,,,,,,,,cotton,158,92,silent,new,white,969.6551053998992,None,n,969.6551053998992,None,"['n', 'return']","[1.711013000458479, 2.4870901005342603]",969.6551053998992,None,,,62YB,001,2023_Apr_28_1257,ExactRep-v3-final,2021.2.3,59.985375691478126,
,,,,,,,,,,,,92,0,92,0,,,,,,,,,,,,,,,,,,,,,,,,,,,,,,,,,,,,,,,,,,,,,,,,,974.8367498004809,None,,,,,,,,,,,,,,,,,,,,,,,,,,,,,,,,,,,,,,,,,,,,,,,,,,,,,,,,,street,195,93,sing,new,blue,972.6937877004966,None,y,972.6937877004966,None,"['y', 'return']","[1.6083741998299956, 2.0963471001014113]",972.6937877004966,None,,,62YB,001,2023_Apr_28_1257,ExactRep-v3-final,2021.2.3,59.985375691478126,
,,,,,,,,,,,,93,0,93,0,,,,,,,,,,,,,,,,,,,,,,,,,,,,,,,,,,,,,,,,,,,,,,,,,976.6738670002669,None,,,,,,,,,,,,,,,,,,,,,,,,,,,,,,,,,,,,,,,,,,,,,,,,,,,,,,,,,cabin,94,94,aloud,old,red,975.3463473003358,None,y,975.3463473003358,None,"['y', 'return']","[0.9477348998188972, 1.2839048998430371]",975.3463473003358,None,,,62YB,001,2023_Apr_28_1257,ExactRep-v3-final,2021.2.3,59.985375691478126,
,,,,,,,,,,,,94,0,94,0,,,,,,,,,,,,,,,,,,,,,,,,,,,,,,,,,,,,,,,,,,,,,,,,,978.3762977998704,None,,,,,,,,,,,,,,,,,,,,,,,,,,,,,,,,,,,,,,,,,,,,,,,,,,,,,,,,,judge,83,95,aloud,old,red,977.1968531003222,None,y,977.1968531003222,None,"['y', 'return']","[0.7452836995944381, 1.1373065998777747]",977.1968531003222,None,,,62YB,001,2023_Apr_28_1257,ExactRep-v3-final,2021.2.3,59.985375691478126,
,,,,,,,,,,,,95,0,95,0,,,,,,,,,,,,,,,,,,,,,,,,,,,,,,,,,,,,,,,,,,,,,,,,,980.7259646002203,None,,,,,,,,,,,,,,,,,,,,,,,,,,,,,,,,,,,,,,,,,,,,,,,,,,,,,,,,,prison,4,96,sing,old,blue,978.9002539999783,None,y,978.9002539999783,None,"['y', 'return']","[1.433984899893403, 1.777980700135231]",978.9002539999783,None,,,62YB,001,2023_Apr_28_1257,ExactRep-v3-final,2021.2.3,59.985375691478126,
,,,,,,,,,,,,96,0,96,0,,,,,,,,,,,,,,,,,,,,,,,,,,,,,,,,,,,,,,,,,,,,,,,,,982.7112491000444,None,,,,,,,,,,,,,,,,,,,,,,,,,,,,,,,,,,,,,,,,,,,,,,,,,,,,,,,,,event,73,97,silent,old,white,981.2349103000015,None,y,981.2349103000015,None,"['y', 'return']","[1.2431942000985146, 1.443347000516951]",981.2349103000015,None,,,62YB,001,2023_Apr_28_1257,ExactRep-v3-final,2021.2.3,59.985375691478126,
,,,,,,,,,,,,97,0,97,0,,,,,,,,,,,,,,,,,,,,,,,,,,,,,,,,,,,,,,,,,,,,,,,,,984.6298748999834,None,,,,,,,,,,,,,,,,,,,,,,,,,,,,,,,,,,,,,,,,,,,,,,,,,,,,,,,,,health,238,98,aloud,new,red,983.2220713002607,None,n,983.2220713002607,None,"['n', 'return']","[0.9203024003654718, 1.3761191004887223]",983.2220713002607,None,,,62YB,001,2023_Apr_28_1257,ExactRep-v3-final,2021.2.3,59.985375691478126,
,,,,,,,,,,,,98,0,98,0,,,,,,,,,,,,,,,,,,,,,,,,,,,,,,,,,,,,,,,,,,,,,,,,,986.7653560005128,None,,,,,,,,,,,,,,,,,,,,,,,,,,,,,,,,,,,,,,,,,,,,,,,,,,,,,,,,,chance,183,99,sing,new,blue,985.139740800485,None,n,985.139740800485,None,"['n', 'return']","[1.2264327993616462, 1.5784468995407224]",985.139740800485,None,,,62YB,001,2023_Apr_28_1257,ExactRep-v3-final,2021.2.3,59.985375691478126,
,,,,,,,,,,,,99,0,99,0,,,,,,,,,,,,,,,,,,,,,,,,,,,,,,,,,,,,,,,,,,,,,,,,,988.667175100185,None,,,,,,,,,,,,,,,,,,,,,,,,,,,,,,,,,,,,,,,,,,,,,,,,,,,,,,,,,troops,226,100,aloud,new,red,987.2762886006385,None,n,987.2762886006385,None,"['n', 'return']","[0.9779116995632648, 1.345894099213183]",987.2762886006385,None,,,62YB,001,2023_Apr_28_1257,ExactRep-v3-final,2021.2.3,59.985375691478126,
,,,,,,,,,,,,100,0,100,0,,,,,,,,,,,,,,,,,,,,,,,,,,,,,,,,,,,,,,,,,,,,,,,,,990.9195010997355,None,,,,,,,,,,,,,,,,,,,,,,,,,,,,,,,,,,,,,,,,,,,,,,,,,,,,,,,,,silence,114,101,aloud,old,red,989.1800362002105,None,n,989.1800362002105,None,"['n', 'return']","[0.8902162006124854, 1.6982003999873996]",989.1800362002105,None,,,62YB,001,2023_Apr_28_1257,ExactRep-v3-final,2021.2.3,59.985375691478126,
,,,,,,,,,,,,101,0,101,0,,,,,,,,,,,,,,,,,,,,,,,,,,,,,,,,,,,,,,,,,,,,,,,,,993.1385425003245,None,,,,,,,,,,,,,,,,,,,,,,,,,,,,,,,,,,,,,,,,,,,,,,,,,,,,,,,,,student,233,102,sing,new,blue,991.4292099000886,None,n,991.4292099000886,None,"['n', 'return']","[1.0969871003180742, 1.6730944998562336]",991.4292099000886,None,,,62YB,001,2023_Apr_28_1257,ExactRep-v3-final,2021.2.3,59.985375691478126,
,,,,,,,,,,,,102,0,102,0,,,,,,,,,,,,,,,,,,,,,,,,,,,,,,,,,,,,,,,,,,,,,,,,,994.7399682002142,None,,,,,,,,,,,,,,,,,,,,,,,,,,,,,,,,,,,,,,,,,,,,,,,,,,,,,,,,,salary,148,103,silent,new,white,993.649429500103,None,n,993.649429500103,None,"['n', 'return']","[0.6690520998090506, 1.0527999997138977]",993.649429500103,None,,,62YB,001,2023_Apr_28_1257,ExactRep-v3-final,2021.2.3,59.985375691478126,
,,,,,,,,,,,,103,0,103,0,,,,,,,,,,,,,,,,,,,,,,,,,,,,,,,,,,,,,,,,,,,,,,,,,996.641803400591,None,,,,,,,,,,,,,,,,,,,,,,,,,,,,,,,,,,,,,,,,,,,,,,,,,,,,,,,,,grass,21,104,sing,old,blue,995.2497709998861,None,y,995.2497709998861,None,"['y', 'return']","[0.7163979997858405, 1.3563962997868657]",995.2497709998861,None,,,62YB,001,2023_Apr_28_1257,ExactRep-v3-final,2021.2.3,59.985375691478126,
,,,,,,,,,,,,104,0,104,0,,,,,,,,,,,,,,,,,,,,,,,,,,,,,,,,,,,,,,,,,,,,,,,,,998.6938733002171,None,,,,,,,,,,,,,,,,,,,,,,,,,,,,,,,,,,,,,,,,,,,,,,,,,,,,,,,,,season,97,105,aloud,old,red,997.1532385004684,None,y,997.1532385004684,None,"['y', 'return']","[1.16496179997921, 1.492909800261259]",997.1532385004684,None,,,62YB,001,2023_Apr_28_1257,ExactRep-v3-final,2021.2.3,59.985375691478126,
,,,,,,,,,,,,105,0,105,0,,,,,,,,,,,,,,,,,,,,,,,,,,,,,,,,,,,,,,,,,,,,,,,,,1000.24565550033,None,,,,,,,,,,,,,,,,,,,,,,,,,,,,,,,,,,,,,,,,,,,,,,,,,,,,,,,,,pupil,159,106,silent,new,white,999.2115368004888,None,n,999.2115368004888,None,"['n', 'return']","[0.6346899000927806, 0.9866581000387669]",999.2115368004888,None,,,62YB,001,2023_Apr_28_1257,ExactRep-v3-final,2021.2.3,59.985375691478126,
,,,,,,,,,,,,106,0,106,0,,,,,,,,,,,,,,,,,,,,,,,,,,,,,,,,,,,,,,,,,,,,,,,,,1002.2475882004946,None,,,,,,,,,,,,,,,,,,,,,,,,,,,,,,,,,,,,,,,,,,,,,,,,,,,,,,,,,sugar,92,107,aloud,old,red,1000.7556023998186,None,y,1000.7556023998186,None,"['y', 'return']","[0.8747573001310229, 1.45860640052706]",1000.7556023998186,None,,,62YB,001,2023_Apr_28_1257,ExactRep-v3-final,2021.2.3,59.985375691478126,
,,,,,,,,,,,,107,0,107,0,,,,,,,,,,,,,,,,,,,,,,,,,,,,,,,,,,,,,,,,,,,,,,,,,1003.9448752999306,None,,,,,,,,,,,,,,,,,,,,,,,,,,,,,,,,,,,,,,,,,,,,,,,,,,,,,,,,,garden,104,108,aloud,old,red,1002.7566462997347,None,n,1002.7566462997347,None,"['n', 'return']","[0.7536879004910588, 1.129449600353837]",1002.7566462997347,None,,,62YB,001,2023_Apr_28_1257,ExactRep-v3-final,2021.2.3,59.985375691478126,
,,,,,,,,,,,,108,0,108,0,,,,,,,,,,,,,,,,,,,,,,,,,,,,,,,,,,,,,,,,,,,,,,,,,1005.88447239995,None,,,,,,,,,,,,,,,,,,,,,,,,,,,,,,,,,,,,,,,,,,,,,,,,,,,,,,,,,meeting,13,109,sing,old,blue,1004.4589963005856,None,n,1004.4589963005856,None,"['n', 'return']","[1.0753209004178643, 1.379250899888575]",1004.4589963005856,None,,,62YB,001,2023_Apr_28_1257,ExactRep-v3-final,2021.2.3,59.985375691478126,
,,,,,,,,,,,,109,0,109,0,,,,,,,,,,,,,,,,,,,,,,,,,,,,,,,,,,,,,,,,,,,,,,,,,1007.836451000534,None,,,,,,,,,,,,,,,,,,,,,,,,,,,,,,,,,,,,,,,,,,,,,,,,,,,,,,,,,wine,239,110,sing,new,blue,1006.394766099751,None,n,1006.394766099751,None,"['n', 'return']","[0.7394535997882485, 1.395538100041449]",1006.394766099751,None,,,62YB,001,2023_Apr_28_1257,ExactRep-v3-final,2021.2.3,59.985375691478126,
,,,,,,,,,,,,110,0,110,0,,,,,,,,,,,,,,,,,,,,,,,,,,,,,,,,,,,,,,,,,,,,,,,,,1010.1554406005889,None,,,,,,,,,,,,,,,,,,,,,,,,,,,,,,,,,,,,,,,,,,,,,,,,,,,,,,,,,paper,234,111,aloud,new,red,1008.3411557003856,None,n,1008.3411557003856,None,"['n', 'return']","[1.113010199740529, 1.769127699546516]",1008.3411557003856,None,,,62YB,001,2023_Apr_28_1257,ExactRep-v3-final,2021.2.3,59.985375691478126,
,,,,,,,,,,,,111,0,111,0,,,,,,,,,,,,,,,,,,,,,,,,,,,,,,,,,,,,,,,,,,,,,,,,,1011.9406685000286,None,,,,,,,,,,,,,,,,,,,,,,,,,,,,,,,,,,,,,,,,,,,,,,,,,,,,,,,,,length,194,112,aloud,new,red,1010.6625741999596,None,n,1010.6625741999596,None,"['n', 'return']","[0.8397473003715277, 1.2397349001839757]",1010.6625741999596,None,,,62YB,001,2023_Apr_28_1257,ExactRep-v3-final,2021.2.3,59.985375691478126,
,,,,,,,,,,,,112,0,112,0,,,,,,,,,,,,,,,,,,,,,,,,,,,,,,,,,,,,,,,,,,,,,,,,,1014.0759928999469,None,,,,,,,,,,,,,,,,,,,,,,,,,,,,,,,,,,,,,,,,,,,,,,,,,,,,,,,,,amount,133,113,silent,new,white,1012.4540162002668,None,y,1012.4540162002668,None,"['y', 'return']","[1.1681673005223274, 1.5842505004256964]",1012.4540162002668,None,,,62YB,001,2023_Apr_28_1257,ExactRep-v3-final,2021.2.3,59.985375691478126,
,,,,,,,,,,,,113,0,113,0,,,,,,,,,,,,,,,,,,,,,,,,,,,,,,,,,,,,,,,,,,,,,,,,,1016.2114331005141,None,,,,,,,,,,,,,,,,,,,,,,,,,,,,,,,,,,,,,,,,,,,,,,,,,,,,,,,,,shock,213,114,sing,new,blue,1014.5867068003863,None,n,1014.5867068003863,None,"['n', 'return']","[1.2116061002016068, 1.5794673999771476]",1014.5867068003863,None,,,62YB,001,2023_Apr_28_1257,ExactRep-v3-final,2021.2.3,59.985375691478126,
,,,,,,,,,,,,114,0,114,0,,,,,,,,,,,,,,,,,,,,,,,,,,,,,,,,,,,,,,,,,,,,,,,,,1018.480385299772,None,,,,,,,,,,,,,,,,,,,,,,,,,,,,,,,,,,,,,,,,,,,,,,,,,,,,,,,,,blood,134,115,silent,new,white,1016.718031000346,None,n,1016.718031000346,None,"['n', 'return']","[1.2881776997819543, 1.7281063999980688]",1016.718031000346,None,,,62YB,001,2023_Apr_28_1257,ExactRep-v3-final,2021.2.3,59.985375691478126,
,,,,,,,,,,,,115,0,115,0,,,,,,,,,,,,,,,,,,,,,,,,,,,,,,,,,,,,,,,,,,,,,,,,,1020.565793200396,None,,,,,,,,,,,,,,,,,,,,,,,,,,,,,,,,,,,,,,,,,,,,,,,,,,,,,,,,,custom,181,116,sing,new,blue,1018.9875009004027,None,n,1018.9875009004027,None,"['n', 'return']","[1.106704500503838, 1.530773799866438]",1018.9875009004027,None,,,62YB,001,2023_Apr_28_1257,ExactRep-v3-final,2021.2.3,59.985375691478126,
,,,,,,,,,,,,116,0,116,0,,,,,,,,,,,,,,,,,,,,,,,,,,,,,,,,,,,,,,,,,,,,,,,,,1022.4011516999453,None,,,,,,,,,,,,,,,,,,,,,,,,,,,,,,,,,,,,,,,,,,,,,,,,,,,,,,,,,pole,164,117,aloud,new,red,1021.0811147000641,None,n,1021.0811147000641,None,"['n', 'return']","[0.8771497998386621, 1.2850948004052043]",1021.0811147000641,None,,,62YB,001,2023_Apr_28_1257,ExactRep-v3-final,2021.2.3,59.985375691478126,
,,,,,,,,,,,,117,0,117,0,,,,,,,,,,,,,,,,,,,,,,,,,,,,,,,,,,,,,,,,,,,,,,,,,1025.1538482997566,None,,,,,,,,,,,,,,,,,,,,,,,,,,,,,,,,,,,,,,,,,,,,,,,,,,,,,,,,,series,231,118,sing,new,blue,1022.9116441998631,None,n,1022.9116441998631,None,"['n', 'return']","[1.8144983993843198, 2.1984863001853228]",1022.9116441998631,None,,,62YB,001,2023_Apr_28_1257,ExactRep-v3-final,2021.2.3,59.985375691478126,
,,,,,,,,,,,,118,0,118,0,,,,,,,,,,,,,,,,,,,,,,,,,,,,,,,,,,,,,,,,,,,,,,,,,1026.9722107006237,None,,,,,,,,,,,,,,,,,,,,,,,,,,,,,,,,,,,,,,,,,,,,,,,,,,,,,,,,,flesh,105,119,aloud,old,red,1025.6613453999162,None,y,1025.6613453999162,None,"['y', 'return']","[0.9209269005805254, 1.264941700734198]",1025.6613453999162,None,,,62YB,001,2023_Apr_28_1257,ExactRep-v3-final,2021.2.3,59.985375691478126,
,,,,,,,,,,,,119,0,119,0,,,,,,,,,,,,,,,,,,,,,,,,,,,,,,,,,,,,,,,,,,,,,,,,,1028.9408510997891,None,,,,,,,,,,,,,,,,,,,,,,,,,,,,,,,,,,,,,,,,,,,,,,,,,,,,,,,,,wheat,224,120,aloud,new,red,1027.4820948000997,None,n,1027.4820948000997,None,"['n', 'return']","[1.0681191999465227, 1.412159899249673]",1027.4820948000997,None,,,62YB,001,2023_Apr_28_1257,ExactRep-v3-final,2021.2.3,59.985375691478126,
,,,,,,,,,,,,120,0,120,0,,,,,,,,,,,,,,,,,,,,,,,,,,,,,,,,,,,,,,,,,,,,,,,,,1031.5601294999942,None,,,,,,,,,,,,,,,,,,,,,,,,,,,,,,,,,,,,,,,,,,,,,,,,,,,,,,,,,form,236,121,aloud,new,red,1029.4480456998572,None,n,1029.4480456998572,None,"['n', 'return']","[1.3343195002526045, 2.0702477004379034]",1029.4480456998572,None,,,62YB,001,2023_Apr_28_1257,ExactRep-v3-final,2021.2.3,59.985375691478126,
,,,,,,,,,,,,121,0,121,0,,,,,,,,,,,,,,,,,,,,,,,,,,,,,,,,,,,,,,,,,,,,,,,,,1033.4787405002862,None,,,,,,,,,,,,,,,,,,,,,,,,,,,,,,,,,,,,,,,,,,,,,,,,,,,,,,,,,door,65,122,silent,old,white,1032.0717046000063,None,y,1032.0717046000063,None,"['y', 'return']","[1.0464051999151707, 1.374567599967122]",1032.0717046000063,None,,,62YB,001,2023_Apr_28_1257,ExactRep-v3-final,2021.2.3,59.985375691478126,
,,,,,,,,,,,,122,0,122,0,,,,,,,,,,,,,,,,,,,,,,,,,,,,,,,,,,,,,,,,,,,,,,,,,1036.1313987998292,None,,,,,,,,,,,,,,,,,,,,,,,,,,,,,,,,,,,,,,,,,,,,,,,,,,,,,,,,,board,113,123,aloud,old,red,1033.9894925998524,None,y,1033.9894925998524,None,"['y', 'return']","[1.720869599841535, 2.1046263994649053]",1033.9894925998524,None,,,62YB,001,2023_Apr_28_1257,ExactRep-v3-final,2021.2.3,59.985375691478126,
,,,,,,,,,,,,123,0,123,0,,,,,,,,,,,,,,,,,,,,,,,,,,,,,,,,,,,,,,,,,,,,,,,,,1038.0332773001865,None,,,,,,,,,,,,,,,,,,,,,,,,,,,,,,,,,,,,,,,,,,,,,,,,,,,,,,,,,ship,30,124,sing,old,blue,1036.6386769004166,None,y,1036.6386769004166,None,"['y', 'return']","[0.9436690006405115, 1.3595601003617048]",1036.6386769004166,None,,,62YB,001,2023_Apr_28_1257,ExactRep-v3-final,2021.2.3,59.985375691478126,
,,,,,,,,,,,,124,0,124,0,,,,,,,,,,,,,,,,,,,,,,,,,,,,,,,,,,,,,,,,,,,,,,,,,1040.3022253001109,None,,,,,,,,,,,,,,,,,,,,,,,,,,,,,,,,,,,,,,,,,,,,,,,,,,,,,,,,,answer,0,125,sing,old,blue,1038.541686099954,None,y,1038.541686099954,None,"['y', 'return']","[1.3845208007842302, 1.720563500188291]",1038.541686099954,None,,,62YB,001,2023_Apr_28_1257,ExactRep-v3-final,2021.2.3,59.985375691478126,
,,,,,,,,,,,,125,0,125,0,,,,,,,,,,,,,,,,,,,,,,,,,,,,,,,,,,,,,,,,,,,,,,,,,1042.137385699898,None,,,,,,,,,,,,,,,,,,,,,,,,,,,,,,,,,,,,,,,,,,,,,,,,,,,,,,,,,woods,86,126,aloud,old,red,1040.8102694004774,None,y,1040.8102694004774,None,"['y', 'return']","[0.9239691998809576, 1.2839652998372912]",1040.8102694004774,None,,,62YB,001,2023_Apr_28_1257,ExactRep-v3-final,2021.2.3,59.985375691478126,
,,,,,,,,,,,,126,0,126,0,,,,,,,,,,,,,,,,,,,,,,,,,,,,,,,,,,,,,,,,,,,,,,,,,1043.7389865005389,None,,,,,,,,,,,,,,,,,,,,,,,,,,,,,,,,,,,,,,,,,,,,,,,,,,,,,,,,,science,166,127,aloud,new,red,1042.6472998000681,None,n,1042.6472998000681,None,"['n', 'return']","[0.6790105002000928, 1.0550407003611326]",1042.6472998000681,None,,,62YB,001,2023_Apr_28_1257,ExactRep-v3-final,2021.2.3,59.985375691478126,
,,,,,,,,,,,,127,0,127,0,,,,,,,,,,,,,,,,,,,,,,,,,,,,,,,,,,,,,,,,,,,,,,,,,1045.4406895004213,None,,,,,,,,,,,,,,,,,,,,,,,,,,,,,,,,,,,,,,,,,,,,,,,,,,,,,,,,,justice,9,128,sing,old,blue,1044.2418088000268,None,y,1044.2418088000268,None,"['y', 'return']","[0.8444451000541449, 1.1644930997863412]",1044.2418088000268,None,,,62YB,001,2023_Apr_28_1257,ExactRep-v3-final,2021.2.3,59.985375691478126,
,,,,,,,,,,,,128,0,128,0,,,,,,,,,,,,,,,,,,,,,,,,,,,,,,,,,,,,,,,,,,,,,,,,,1047.0089319003746,None,,,,,,,,,,,,,,,,,,,,,,,,,,,,,,,,,,,,,,,,,,,,,,,,,,,,,,,,,girl,91,129,aloud,old,red,1045.9516265997663,None,n,1045.9516265997663,None,"['n', 'return']","[0.6466758996248245, 1.0145736997947097]",1045.9516265997663,None,,,62YB,001,2023_Apr_28_1257,ExactRep-v3-final,2021.2.3,59.985375691478126,
,,,,,,,,,,,,129,0,129,0,,,,,,,,,,,,,,,,,,,,,,,,,,,,,,,,,,,,,,,,,,,,,,,,,1048.7273030998185,None,,,,,,,,,,,,,,,,,,,,,,,,,,,,,,,,,,,,,,,,,,,,,,,,,,,,,,,,,mind,214,130,aloud,new,red,1047.5203290004283,None,n,1047.5203290004283,None,"['n', 'return']","[0.7900593997910619, 1.174138699658215]",1047.5203290004283,None,,,62YB,001,2023_Apr_28_1257,ExactRep-v3-final,2021.2.3,59.985375691478126,
,,,,,,,,,,,,130,0,130,0,,,,,,,,,,,,,,,,,,,,,,,,,,,,,,,,,,,,,,,,,,,,,,,,,1050.746130200103,None,,,,,,,,,,,,,,,,,,,,,,,,,,,,,,,,,,,,,,,,,,,,,,,,,,,,,,,,,safety,27,131,sing,old,blue,1049.2400770997629,None,y,1049.2400770997629,None,"['y', 'return']","[1.1262181997299194, 1.462393299676478]",1049.2400770997629,None,,,62YB,001,2023_Apr_28_1257,ExactRep-v3-final,2021.2.3,59.985375691478126,
