trials_fam.thisRepN,trials_fam.thisTrialN,trials_fam.thisN,trials_fam.thisIndex,trials_prc.thisRepN,trials_prc.thisTrialN,trials_prc.thisN,trials_prc.thisIndex,StudyLoop.thisRepN,StudyLoop.thisTrialN,StudyLoop.thisN,StudyLoop.thisIndex,TestLoop.thisRepN,TestLoop.thisTrialN,TestLoop.thisN,TestLoop.thisIndex,text_colortest.started,text_colortest.stopped,key_colortest.keys,key_colortest.rt,key_colortest.started,key_colortest.stopped,textCondition.started,textCondition.stopped,keyCondition.keys,keyCondition.rt,keyCondition.started,keyCondition.stopped,Condition_between,Condition_counterbal,keyWelcome.keys,keyWelcome.rt,keyWelcome.started,keyWelcome.stopped,welcome_a.started,welcome_a.stopped,welcome_b.started,welcome_b.stopped,welcome_c.started,welcome_c.stopped,welcome_d.started,welcome_d.stopped,welcome_e.started,welcome_e.stopped,welcome_f.started,welcome_f.stopped,key_resp_fam_inst.keys,key_resp_fam_inst.rt,key_resp_fam_inst.started,key_resp_fam_inst.stopped,fam_a.started,fam_a.stopped,fam_b.started,fam_b.stopped,fam_c.started,fam_c.stopped,fam_d.started,fam_d.stopped,fam_e.started,fam_e.stopped,fam_f.started,fam_f.stopped,text_famil.started,text_famil.stopped,textBlank500.started,textBlank500.stopped,key_resp_prc_inst.keys,key_resp_prc_inst.rt,key_resp_prc_inst.started,key_resp_prc_inst.stopped,prac_a.started,prac_a.stopped,prac_b.started,prac_b.stopped,prac_c.started,prac_c.stopped,prac_d.started,prac_d.stopped,prac_e.started,prac_e.stopped,prac_f.started,prac_f.stopped,text_prc_trial.started,text_prc_trial.stopped,key_resp_study_inst.keys,key_resp_study_inst.rt,key_resp_study_inst.started,key_resp_study_inst.stopped,crit_a.started,crit_a.stopped,crit_b.started,crit_b.stopped,crit_c.started,crit_c.stopped,crit_d.started,crit_d.stopped,crit_e.started,crit_e.stopped,crit_f.started,crit_f.stopped,study_word,study_num,study_order,study_type,word_color,textStudy.started,textStudy.stopped,keyStudy.keys,keyStudy.started,keyStudy.stopped,post_study.started,post_study.stopped,key_resp_post_study.keys,key_resp_post_study.rt,key_resp_post_study.started,key_resp_post_study.stopped,test_inst.started,test_inst.stopped,key_resp_test_inst.keys,key_resp_test_inst.rt,key_resp_test_inst.started,key_resp_test_inst.stopped,test_word,test_num,test_order,test_condition,old_new_test,word_color_test,textConf.started,textConf.stopped,Participant Response,textInput.started,textInput.stopped,keyResp.keys,keyResp.rt,keyResp.started,keyResp.stopped,textEnd.started,textEnd.stopped,participant,session,date,expName,psychopyVersion,frameRate,
,,,,,,,,,,,,,,,,36.67986000049859,None,y,4.413921399973333,36.67986000049859,None,,,,,,,,,,,,,,,,,,,,,,,,,,,,,,,,,,,,,,,,,,,,,,,,,,,,,,,,,,,,,,,,,,,,,,,,,,,,,,,,,,,,,,,,,,,,,,,,,,,,,,,,,,,,,,,,,,,,,,63,001,2023_May_01_0949,ExactRep-v3-final,2021.2.3,59.956819258561765,
,,,,,,,,,,,,,,,,,,,,,,41.12830249965191,None,c,0.31769790034741163,41.12830249965191,None,,,,,,,,,,,,,,,,,,,,,,,,,,,,,,,,,,,,,,,,,,,,,,,,,,,,,,,,,,,,,,,,,,,,,,,,,,,,,,,,,,,,,,,,,,,,,,,,,,,,,,,,,,,,,,,,63,001,2023_May_01_0949,ExactRep-v3-final,2021.2.3,59.956819258561765,
,,,,,,,,,,,,,,,,,,,,,,,,,,,,colorfoils,c,space,6259.768760100007,51.6591625995934,None,,,,,,,,,,,,,,,,,,,,,,,,,,,,,,,,,,,,,,,,,,,,,,,,,,,,,,,,,,,,,,,,,,,,,,,,,,,,,,,,,,,,,,,,,,,,,,,,,,,,,,,,,,63,001,2023_May_01_0949,ExactRep-v3-final,2021.2.3,59.956819258561765,
,,,,,,,,,,,,,,,,,,,,,,,,,,,,,,,,,,41.64802320022136,None,41.64802320022136,None,41.64802320022136,None,41.64802320022136,None,41.64802320022136,None,41.64802320022136,None,space,18.029531399719417,6321.638803400099,None,,,,,,,,,,,,,,,,,,,,,,,,,,,,,,,,,,,,,,,,,,,,,,,,,,,,,,,,,,,,,,,,,,,,,,,,,,,,,,,,,,,,,,,,,,63,001,2023_May_01_0949,ExactRep-v3-final,2021.2.3,59.956819258561765,
0,0,0,0,,,,,,,,,,,,,,,,,,,,,,,,,,,,,,,,,,,,,,,,,,,,,,,6311.673606700264,None,6311.673606700264,None,6311.673606700264,None,6311.673606700264,None,6311.673606700264,None,6311.673606700264,None,6339.7530065998435,None,6341.74673689995,None,,,,,,,,,,,,,,,,,,,,,,,,,,,,,,,,,,,,,,,,,,,,,,,,,,,,,,,,,,,,,,,,,,,,,,,,,,63,001,2023_May_01_0949,ExactRep-v3-final,2021.2.3,59.956819258561765,
1,0,1,0,,,,,,,,,,,,,,,,,,,,,,,,,,,,,,,,,,,,,,,,,,,,,,,,,,,,,,,,,,,6342.259005500004,None,6344.265756599605,None,,,,,,,,,,,,,,,,,,,,,,,,,,,,,,,,,,,,,,,,,,,,,,,,,,,,,,,,,,,,,,,,,,,,,,,,,,63,001,2023_May_01_0949,ExactRep-v3-final,2021.2.3,59.956819258561765,
2,0,2,0,,,,,,,,,,,,,,,,,,,,,,,,,,,,,,,,,,,,,,,,,,,,,,,,,,,,,,,,,,,6344.7738736001775,None,6346.785122700036,None,,,,,,,,,,,,,,,,,,,,,,,,,,,,,,,,,,,,,,,,,,,,,,,,,,,,,,,,,,,,,,,,,,,,,,,,,,63,001,2023_May_01_0949,ExactRep-v3-final,2021.2.3,59.956819258561765,
3,0,3,0,,,,,,,,,,,,,,,,,,,,,,,,,,,,,,,,,,,,,,,,,,,,,,,,,,,,,,,,,,,6347.285495299846,None,6349.287654600106,None,,,,,,,,,,,,,,,,,,,,,,,,,,,,,,,,,,,,,,,,,,,,,,,,,,,,,,,,,,,,,,,,,,,,,,,,,,63,001,2023_May_01_0949,ExactRep-v3-final,2021.2.3,59.956819258561765,
4,0,4,0,,,,,,,,,,,,,,,,,,,,,,,,,,,,,,,,,,,,,,,,,,,,,,,,,,,,,,,,,,,6349.787990000099,None,6351.790247599594,None,,,,,,,,,,,,,,,,,,,,,,,,,,,,,,,,,,,,,,,,,,,,,,,,,,,,,,,,,,,,,,,,,,,,,,,,,,63,001,2023_May_01_0949,ExactRep-v3-final,2021.2.3,59.956819258561765,
5,0,5,0,,,,,,,,,,,,,,,,,,,,,,,,,,,,,,,,,,,,,,,,,,,,,,,,,,,,,,,,,,,6352.292644100264,None,6354.292494099587,None,,,,,,,,,,,,,,,,,,,,,,,,,,,,,,,,,,,,,,,,,,,,,,,,,,,,,,,,,,,,,,,,,,,,,,,,,,63,001,2023_May_01_0949,ExactRep-v3-final,2021.2.3,59.956819258561765,
6,0,6,0,,,,,,,,,,,,,,,,,,,,,,,,,,,,,,,,,,,,,,,,,,,,,,,,,,,,,,,,,,,6354.795064199716,None,6356.794735000469,None,,,,,,,,,,,,,,,,,,,,,,,,,,,,,,,,,,,,,,,,,,,,,,,,,,,,,,,,,,,,,,,,,,,,,,,,,,63,001,2023_May_01_0949,ExactRep-v3-final,2021.2.3,59.956819258561765,
7,0,7,0,,,,,,,,,,,,,,,,,,,,,,,,,,,,,,,,,,,,,,,,,,,,,,,,,,,,,,,,,,,6357.295288399793,None,6359.297470300458,None,,,,,,,,,,,,,,,,,,,,,,,,,,,,,,,,,,,,,,,,,,,,,,,,,,,,,,,,,,,,,,,,,,,,,,,,,,63,001,2023_May_01_0949,ExactRep-v3-final,2021.2.3,59.956819258561765,
8,0,8,0,,,,,,,,,,,,,,,,,,,,,,,,,,,,,,,,,,,,,,,,,,,,,,,,,,,,,,,,,,,6359.808927199803,None,6361.81683900021,None,,,,,,,,,,,,,,,,,,,,,,,,,,,,,,,,,,,,,,,,,,,,,,,,,,,,,,,,,,,,,,,,,,,,,,,,,,63,001,2023_May_01_0949,ExactRep-v3-final,2021.2.3,59.956819258561765,
9,0,9,0,,,,,,,,,,,,,,,,,,,,,,,,,,,,,,,,,,,,,,,,,,,,,,,,,,,,,,,,,,,6362.3169564995915,None,6364.319171500392,None,,,,,,,,,,,,,,,,,,,,,,,,,,,,,,,,,,,,,,,,,,,,,,,,,,,,,,,,,,,,,,,,,,,,,,,,,,63,001,2023_May_01_0949,ExactRep-v3-final,2021.2.3,59.956819258561765,
10,0,10,0,,,,,,,,,,,,,,,,,,,,,,,,,,,,,,,,,,,,,,,,,,,,,,,,,,,,,,,,,,,6364.8260810002685,None,6366.838529899716,None,,,,,,,,,,,,,,,,,,,,,,,,,,,,,,,,,,,,,,,,,,,,,,,,,,,,,,,,,,,,,,,,,,,,,,,,,,63,001,2023_May_01_0949,ExactRep-v3-final,2021.2.3,59.956819258561765,
11,0,11,0,,,,,,,,,,,,,,,,,,,,,,,,,,,,,,,,,,,,,,,,,,,,,,,,,,,,,,,,,,,6367.338965999894,None,6369.3408279996365,None,,,,,,,,,,,,,,,,,,,,,,,,,,,,,,,,,,,,,,,,,,,,,,,,,,,,,,,,,,,,,,,,,,,,,,,,,,63,001,2023_May_01_0949,ExactRep-v3-final,2021.2.3,59.956819258561765,
12,0,12,0,,,,,,,,,,,,,,,,,,,,,,,,,,,,,,,,,,,,,,,,,,,,,,,,,,,,,,,,,,,6369.845432500355,None,6371.860183999874,None,,,,,,,,,,,,,,,,,,,,,,,,,,,,,,,,,,,,,,,,,,,,,,,,,,,,,,,,,,,,,,,,,,,,,,,,,,63,001,2023_May_01_0949,ExactRep-v3-final,2021.2.3,59.956819258561765,
13,0,13,0,,,,,,,,,,,,,,,,,,,,,,,,,,,,,,,,,,,,,,,,,,,,,,,,,,,,,,,,,,,6372.360553200357,None,6374.3624571999535,None,,,,,,,,,,,,,,,,,,,,,,,,,,,,,,,,,,,,,,,,,,,,,,,,,,,,,,,,,,,,,,,,,,,,,,,,,,63,001,2023_May_01_0949,ExactRep-v3-final,2021.2.3,59.956819258561765,
14,0,14,0,,,,,,,,,,,,,,,,,,,,,,,,,,,,,,,,,,,,,,,,,,,,,,,,,,,,,,,,,,,6374.868969200179,None,6376.881930800155,None,,,,,,,,,,,,,,,,,,,,,,,,,,,,,,,,,,,,,,,,,,,,,,,,,,,,,,,,,,,,,,,,,,,,,,,,,,63,001,2023_May_01_0949,ExactRep-v3-final,2021.2.3,59.956819258561765,
,,,,,,,,,,,,,,,,,,,,,,,,,,,,,,,,,,,,,,,,,,,,,,,,,,,,,,,,,,,,,,,,,,space,20.652065800502896,6387.471969700418,None,,,,,,,,,,,,,,,,,,,,,,,,,,,,,,,,,,,,,,,,,,,,,,,,,,,,,,,,,,,,,,,,,,,,,,63,001,2023_May_01_0949,ExactRep-v3-final,2021.2.3,59.956819258561765,
,,,,0,0,0,0,,,,,,,,,,,,,,,,,,,,,,,,,,,,,,,,,,,,,,,,,,,,,,,,,,,,,,,,,6410.215226000175,None,,,,,6377.532581999898,None,6377.532581999898,None,6377.532581999898,None,6377.532581999898,None,6377.532581999898,None,6377.532581999898,None,6408.214988100342,None,,,,,,,,,,,,,,,,,,,,,,,,,,,,,,,,,,,,,,,,,,,,,,,,,,,,,,,,63,001,2023_May_01_0949,ExactRep-v3-final,2021.2.3,59.956819258561765,
,,,,1,0,1,0,,,,,,,,,,,,,,,,,,,,,,,,,,,,,,,,,,,,,,,,,,,,,,,,,,,,,,,,,6412.717679999769,None,,,,,,,,,,,,,,,,,6410.715745899826,None,,,,,,,,,,,,,,,,,,,,,,,,,,,,,,,,,,,,,,,,,,,,,,,,,,,,,,,,63,001,2023_May_01_0949,ExactRep-v3-final,2021.2.3,59.956819258561765,
,,,,2,0,2,0,,,,,,,,,,,,,,,,,,,,,,,,,,,,,,,,,,,,,,,,,,,,,,,,,,,,,,,,,6415.220051400363,None,,,,,,,,,,,,,,,,,6413.218010700308,None,,,,,,,,,,,,,,,,,,,,,,,,,,,,,,,,,,,,,,,,,,,,,,,,,,,,,,,,63,001,2023_May_01_0949,ExactRep-v3-final,2021.2.3,59.956819258561765,
,,,,3,0,3,0,,,,,,,,,,,,,,,,,,,,,,,,,,,,,,,,,,,,,,,,,,,,,,,,,,,,,,,,,6417.722498999909,None,,,,,,,,,,,,,,,,,6415.720715099946,None,,,,,,,,,,,,,,,,,,,,,,,,,,,,,,,,,,,,,,,,,,,,,,,,,,,,,,,,63,001,2023_May_01_0949,ExactRep-v3-final,2021.2.3,59.956819258561765,
,,,,4,0,4,0,,,,,,,,,,,,,,,,,,,,,,,,,,,,,,,,,,,,,,,,,,,,,,,,,,,,,,,,,6420.225363699719,None,,,,,,,,,,,,,,,,,6418.223311100155,None,,,,,,,,,,,,,,,,,,,,,,,,,,,,,,,,,,,,,,,,,,,,,,,,,,,,,,,,63,001,2023_May_01_0949,ExactRep-v3-final,2021.2.3,59.956819258561765,
,,,,5,0,5,0,,,,,,,,,,,,,,,,,,,,,,,,,,,,,,,,,,,,,,,,,,,,,,,,,,,,,,,,,6422.727667500265,None,,,,,,,,,,,,,,,,,6420.725875000469,None,,,,,,,,,,,,,,,,,,,,,,,,,,,,,,,,,,,,,,,,,,,,,,,,,,,,,,,,63,001,2023_May_01_0949,ExactRep-v3-final,2021.2.3,59.956819258561765,
,,,,6,0,6,0,,,,,,,,,,,,,,,,,,,,,,,,,,,,,,,,,,,,,,,,,,,,,,,,,,,,,,,,,6425.230016799644,None,,,,,,,,,,,,,,,,,6423.228215100244,None,,,,,,,,,,,,,,,,,,,,,,,,,,,,,,,,,,,,,,,,,,,,,,,,,,,,,,,,63,001,2023_May_01_0949,ExactRep-v3-final,2021.2.3,59.956819258561765,
,,,,7,0,7,0,,,,,,,,,,,,,,,,,,,,,,,,,,,,,,,,,,,,,,,,,,,,,,,,,,,,,,,,,6427.7325715003535,None,,,,,,,,,,,,,,,,,6425.730472899973,None,,,,,,,,,,,,,,,,,,,,,,,,,,,,,,,,,,,,,,,,,,,,,,,,,,,,,,,,63,001,2023_May_01_0949,ExactRep-v3-final,2021.2.3,59.956819258561765,
,,,,8,0,8,0,,,,,,,,,,,,,,,,,,,,,,,,,,,,,,,,,,,,,,,,,,,,,,,,,,,,,,,,,6430.235256399959,None,,,,,,,,,,,,,,,,,6428.23309610039,None,,,,,,,,,,,,,,,,,,,,,,,,,,,,,,,,,,,,,,,,,,,,,,,,,,,,,,,,63,001,2023_May_01_0949,ExactRep-v3-final,2021.2.3,59.956819258561765,
,,,,9,0,9,0,,,,,,,,,,,,,,,,,,,,,,,,,,,,,,,,,,,,,,,,,,,,,,,,,,,,,,,,,6432.737568399869,None,,,,,,,,,,,,,,,,,6430.735573200509,None,,,,,,,,,,,,,,,,,,,,,,,,,,,,,,,,,,,,,,,,,,,,,,,,,,,,,,,,63,001,2023_May_01_0949,ExactRep-v3-final,2021.2.3,59.956819258561765,
,,,,10,0,10,0,,,,,,,,,,,,,,,,,,,,,,,,,,,,,,,,,,,,,,,,,,,,,,,,,,,,,,,,,6435.240271699615,None,,,,,,,,,,,,,,,,,6433.238281300291,None,,,,,,,,,,,,,,,,,,,,,,,,,,,,,,,,,,,,,,,,,,,,,,,,,,,,,,,,63,001,2023_May_01_0949,ExactRep-v3-final,2021.2.3,59.956819258561765,
,,,,11,0,11,0,,,,,,,,,,,,,,,,,,,,,,,,,,,,,,,,,,,,,,,,,,,,,,,,,,,,,,,,,6437.742675900459,None,,,,,,,,,,,,,,,,,6435.740936799906,None,,,,,,,,,,,,,,,,,,,,,,,,,,,,,,,,,,,,,,,,,,,,,,,,,,,,,,,,63,001,2023_May_01_0949,ExactRep-v3-final,2021.2.3,59.956819258561765,
,,,,12,0,12,0,,,,,,,,,,,,,,,,,,,,,,,,,,,,,,,,,,,,,,,,,,,,,,,,,,,,,,,,,6440.2452232996,None,,,,,,,,,,,,,,,,,6438.243206099607,None,,,,,,,,,,,,,,,,,,,,,,,,,,,,,,,,,,,,,,,,,,,,,,,,,,,,,,,,63,001,2023_May_01_0949,ExactRep-v3-final,2021.2.3,59.956819258561765,
,,,,13,0,13,0,,,,,,,,,,,,,,,,,,,,,,,,,,,,,,,,,,,,,,,,,,,,,,,,,,,,,,,,,6442.747436700389,None,,,,,,,,,,,,,,,,,6440.745747799985,None,,,,,,,,,,,,,,,,,,,,,,,,,,,,,,,,,,,,,,,,,,,,,,,,,,,,,,,,63,001,2023_May_01_0949,ExactRep-v3-final,2021.2.3,59.956819258561765,
,,,,14,0,14,0,,,,,,,,,,,,,,,,,,,,,,,,,,,,,,,,,,,,,,,,,,,,,,,,,,,,,,,,,6445.2503535998985,None,,,,,,,,,,,,,,,,,6443.248491999693,None,,,,,,,,,,,,,,,,,,,,,,,,,,,,,,,,,,,,,,,,,,,,,,,,,,,,,,,,63,001,2023_May_01_0949,ExactRep-v3-final,2021.2.3,59.956819258561765,
,,,,,,,,,,,,,,,,,,,,,,,,,,,,,,,,,,,,,,,,,,,,,,,,,,,,,,,,,,,,,,,,,,,,,,,,,,,,,,,,,,,,space,23.369100200012326,6455.866989400238,None,,,,,,,,,,,,,,,,,,,,,,,,,,,,,,,,,,,,,,,,,,,,,,,,,,,,63,001,2023_May_01_0949,ExactRep-v3-final,2021.2.3,59.956819258561765,
,,,,,,,,0,0,0,0,,,,,,,,,,,,,,,,,,,,,,,,,,,,,,,,,,,,,,,,,,,,,,,,,,,,,6481.35438689962,None,,,,,,,,,,,,,,,,,,,,,,,6445.935015300289,None,6445.935015300289,None,6445.935015300289,None,6445.935015300289,None,6445.935015300289,None,6445.935015300289,None,student,95,1,aloud,blue,6479.34762939997,None,None,6479.34762939997,None,,,,,,,,,,,,,,,,,,,,,,,,,,,,,,63,001,2023_May_01_0949,ExactRep-v3-final,2021.2.3,59.956819258561765,
,,,,,,,,1,0,1,0,,,,,,,,,,,,,,,,,,,,,,,,,,,,,,,,,,,,,,,,,,,,,,,,,,,,,6483.8720327001065,None,,,,,,,,,,,,,,,,,,,,,,,,,,,,,,,,,,,breast,103,2,aloud,blue,6481.863984299824,None,None,6481.863984299824,None,,,,,,,,,,,,,,,,,,,,,,,,,,,,,,63,001,2023_May_01_0949,ExactRep-v3-final,2021.2.3,59.956819258561765,
,,,,,,,,2,0,2,0,,,,,,,,,,,,,,,,,,,,,,,,,,,,,,,,,,,,,,,,,,,,,,,,,,,,,6486.374648599885,None,,,,,,,,,,,,,,,,,,,,,,,,,,,,,,,,,,,style,24,3,sing,white,6484.372562400065,None,None,6484.372562400065,None,,,,,,,,,,,,,,,,,,,,,,,,,,,,,,63,001,2023_May_01_0949,ExactRep-v3-final,2021.2.3,59.956819258561765,
,,,,,,,,3,0,3,0,,,,,,,,,,,,,,,,,,,,,,,,,,,,,,,,,,,,,,,,,,,,,,,,,,,,,6488.893739500083,None,,,,,,,,,,,,,,,,,,,,,,,,,,,,,,,,,,,grief,110,4,aloud,blue,6486.885514300317,None,None,6486.885514300317,None,,,,,,,,,,,,,,,,,,,,,,,,,,,,,,63,001,2023_May_01_0949,ExactRep-v3-final,2021.2.3,59.956819258561765,
,,,,,,,,4,0,4,0,,,,,,,,,,,,,,,,,,,,,,,,,,,,,,,,,,,,,,,,,,,,,,,,,,,,,6491.413040700369,None,,,,,,,,,,,,,,,,,,,,,,,,,,,,,,,,,,,heaven,68,5,silent,red,6489.405015500262,None,None,6489.405015500262,None,,,,,,,,,,,,,,,,,,,,,,,,,,,,,,63,001,2023_May_01_0949,ExactRep-v3-final,2021.2.3,59.956819258561765,
,,,,,,,,5,0,5,0,,,,,,,,,,,,,,,,,,,,,,,,,,,,,,,,,,,,,,,,,,,,,,,,,,,,,6493.915572299622,None,,,,,,,,,,,,,,,,,,,,,,,,,,,,,,,,,,,shock,64,6,silent,red,6491.916073800065,None,None,6491.916073800065,None,,,,,,,,,,,,,,,,,,,,,,,,,,,,,,63,001,2023_May_01_0949,ExactRep-v3-final,2021.2.3,59.956819258561765,
,,,,,,,,6,0,6,0,,,,,,,,,,,,,,,,,,,,,,,,,,,,,,,,,,,,,,,,,,,,,,,,,,,,,6496.4347782004625,None,,,,,,,,,,,,,,,,,,,,,,,,,,,,,,,,,,,machine,6,7,sing,white,6494.421548499726,None,None,6494.421548499726,None,,,,,,,,,,,,,,,,,,,,,,,,,,,,,,63,001,2023_May_01_0949,ExactRep-v3-final,2021.2.3,59.956819258561765,
,,,,,,,,7,0,7,0,,,,,,,,,,,,,,,,,,,,,,,,,,,,,,,,,,,,,,,,,,,,,,,,,,,,,6498.937295399606,None,,,,,,,,,,,,,,,,,,,,,,,,,,,,,,,,,,,disease,85,8,aloud,blue,6496.936492900364,None,None,6496.936492900364,None,,,,,,,,,,,,,,,,,,,,,,,,,,,,,,63,001,2023_May_01_0949,ExactRep-v3-final,2021.2.3,59.956819258561765,
,,,,,,,,8,0,8,0,,,,,,,,,,,,,,,,,,,,,,,,,,,,,,,,,,,,,,,,,,,,,,,,,,,,,6501.456414099783,None,,,,,,,,,,,,,,,,,,,,,,,,,,,,,,,,,,,air,109,9,aloud,blue,6499.442354099825,None,None,6499.442354099825,None,,,,,,,,,,,,,,,,,,,,,,,,,,,,,,63,001,2023_May_01_0949,ExactRep-v3-final,2021.2.3,59.956819258561765,
,,,,,,,,9,0,9,0,,,,,,,,,,,,,,,,,,,,,,,,,,,,,,,,,,,,,,,,,,,,,,,,,,,,,6503.958972900175,None,,,,,,,,,,,,,,,,,,,,,,,,,,,,,,,,,,,amount,102,10,aloud,blue,6501.957003500313,None,None,6501.957003500313,None,,,,,,,,,,,,,,,,,,,,,,,,,,,,,,63,001,2023_May_01_0949,ExactRep-v3-final,2021.2.3,59.956819258561765,
,,,,,,,,10,0,10,0,,,,,,,,,,,,,,,,,,,,,,,,,,,,,,,,,,,,,,,,,,,,,,,,,,,,,6506.461332400329,None,,,,,,,,,,,,,,,,,,,,,,,,,,,,,,,,,,,salary,87,11,aloud,blue,6504.459380900487,None,None,6504.459380900487,None,,,,,,,,,,,,,,,,,,,,,,,,,,,,,,63,001,2023_May_01_0949,ExactRep-v3-final,2021.2.3,59.956819258561765,
,,,,,,,,11,0,11,0,,,,,,,,,,,,,,,,,,,,,,,,,,,,,,,,,,,,,,,,,,,,,,,,,,,,,6508.963799900375,None,,,,,,,,,,,,,,,,,,,,,,,,,,,,,,,,,,,tool,116,12,aloud,blue,6506.9619581997395,None,None,6506.9619581997395,None,,,,,,,,,,,,,,,,,,,,,,,,,,,,,,63,001,2023_May_01_0949,ExactRep-v3-final,2021.2.3,59.956819258561765,
,,,,,,,,12,0,12,0,,,,,,,,,,,,,,,,,,,,,,,,,,,,,,,,,,,,,,,,,,,,,,,,,,,,,6511.466540399939,None,,,,,,,,,,,,,,,,,,,,,,,,,,,,,,,,,,,theory,79,13,sing,white,6509.466975400224,None,None,6509.466975400224,None,,,,,,,,,,,,,,,,,,,,,,,,,,,,,,63,001,2023_May_01_0949,ExactRep-v3-final,2021.2.3,59.956819258561765,
,,,,,,,,13,0,13,0,,,,,,,,,,,,,,,,,,,,,,,,,,,,,,,,,,,,,,,,,,,,,,,,,,,,,6513.985454199836,None,,,,,,,,,,,,,,,,,,,,,,,,,,,,,,,,,,,blood,46,14,silent,red,6511.97704700008,None,None,6511.97704700008,None,,,,,,,,,,,,,,,,,,,,,,,,,,,,,,63,001,2023_May_01_0949,ExactRep-v3-final,2021.2.3,59.956819258561765,
,,,,,,,,14,0,14,0,,,,,,,,,,,,,,,,,,,,,,,,,,,,,,,,,,,,,,,,,,,,,,,,,,,,,6516.507930199616,None,,,,,,,,,,,,,,,,,,,,,,,,,,,,,,,,,,,vision,114,15,aloud,blue,6514.5017659002915,None,None,6514.5017659002915,None,,,,,,,,,,,,,,,,,,,,,,,,,,,,,,63,001,2023_May_01_0949,ExactRep-v3-final,2021.2.3,59.956819258561765,
,,,,,,,,15,0,15,0,,,,,,,,,,,,,,,,,,,,,,,,,,,,,,,,,,,,,,,,,,,,,,,,,,,,,6519.023841099814,None,,,,,,,,,,,,,,,,,,,,,,,,,,,,,,,,,,,master,100,16,aloud,blue,6517.008436899632,None,None,6517.008436899632,None,,,,,,,,,,,,,,,,,,,,,,,,,,,,,,63,001,2023_May_01_0949,ExactRep-v3-final,2021.2.3,59.956819258561765,
,,,,,,,,16,0,16,0,,,,,,,,,,,,,,,,,,,,,,,,,,,,,,,,,,,,,,,,,,,,,,,,,,,,,6521.542922399938,None,,,,,,,,,,,,,,,,,,,,,,,,,,,,,,,,,,,gold,33,17,sing,white,6519.528591300361,None,None,6519.528591300361,None,,,,,,,,,,,,,,,,,,,,,,,,,,,,,,63,001,2023_May_01_0949,ExactRep-v3-final,2021.2.3,59.956819258561765,
,,,,,,,,17,0,17,0,,,,,,,,,,,,,,,,,,,,,,,,,,,,,,,,,,,,,,,,,,,,,,,,,,,,,6524.062359600328,None,,,,,,,,,,,,,,,,,,,,,,,,,,,,,,,,,,,maiden,10,18,sing,white,6522.048476999626,None,None,6522.048476999626,None,,,,,,,,,,,,,,,,,,,,,,,,,,,,,,63,001,2023_May_01_0949,ExactRep-v3-final,2021.2.3,59.956819258561765,
,,,,,,,,18,0,18,0,,,,,,,,,,,,,,,,,,,,,,,,,,,,,,,,,,,,,,,,,,,,,,,,,,,,,6526.564763600007,None,,,,,,,,,,,,,,,,,,,,,,,,,,,,,,,,,,,toy,96,19,aloud,blue,6524.562600599602,None,None,6524.562600599602,None,,,,,,,,,,,,,,,,,,,,,,,,,,,,,,63,001,2023_May_01_0949,ExactRep-v3-final,2021.2.3,59.956819258561765,
,,,,,,,,19,0,19,0,,,,,,,,,,,,,,,,,,,,,,,,,,,,,,,,,,,,,,,,,,,,,,,,,,,,,6529.067445799708,None,,,,,,,,,,,,,,,,,,,,,,,,,,,,,,,,,,,stone,17,20,sing,white,6527.066813999787,None,None,6527.066813999787,None,,,,,,,,,,,,,,,,,,,,,,,,,,,,,,63,001,2023_May_01_0949,ExactRep-v3-final,2021.2.3,59.956819258561765,
,,,,,,,,20,0,20,0,,,,,,,,,,,,,,,,,,,,,,,,,,,,,,,,,,,,,,,,,,,,,,,,,,,,,6531.56990659982,None,,,,,,,,,,,,,,,,,,,,,,,,,,,,,,,,,,,table,9,21,sing,white,6529.567628599703,None,None,6529.567628599703,None,,,,,,,,,,,,,,,,,,,,,,,,,,,,,,63,001,2023_May_01_0949,ExactRep-v3-final,2021.2.3,59.956819258561765,
,,,,,,,,21,0,21,0,,,,,,,,,,,,,,,,,,,,,,,,,,,,,,,,,,,,,,,,,,,,,,,,,,,,,6534.072426999919,None,,,,,,,,,,,,,,,,,,,,,,,,,,,,,,,,,,,chance,32,22,sing,white,6532.0730547001585,None,None,6532.0730547001585,None,,,,,,,,,,,,,,,,,,,,,,,,,,,,,,63,001,2023_May_01_0949,ExactRep-v3-final,2021.2.3,59.956819258561765,
,,,,,,,,22,0,22,0,,,,,,,,,,,,,,,,,,,,,,,,,,,,,,,,,,,,,,,,,,,,,,,,,,,,,6536.5748787000775,None,,,,,,,,,,,,,,,,,,,,,,,,,,,,,,,,,,,house,40,23,silent,red,6534.574809799902,None,None,6534.574809799902,None,,,,,,,,,,,,,,,,,,,,,,,,,,,,,,63,001,2023_May_01_0949,ExactRep-v3-final,2021.2.3,59.956819258561765,
,,,,,,,,23,0,23,0,,,,,,,,,,,,,,,,,,,,,,,,,,,,,,,,,,,,,,,,,,,,,,,,,,,,,6539.0774197997525,None,,,,,,,,,,,,,,,,,,,,,,,,,,,,,,,,,,,mother,11,24,sing,white,6537.077123999596,None,None,6537.077123999596,None,,,,,,,,,,,,,,,,,,,,,,,,,,,,,,63,001,2023_May_01_0949,ExactRep-v3-final,2021.2.3,59.956819258561765,
,,,,,,,,24,0,24,0,,,,,,,,,,,,,,,,,,,,,,,,,,,,,,,,,,,,,,,,,,,,,,,,,,,,,6541.596458399668,None,,,,,,,,,,,,,,,,,,,,,,,,,,,,,,,,,,,thought,90,25,aloud,blue,6539.581571999937,None,None,6539.581571999937,None,,,,,,,,,,,,,,,,,,,,,,,,,,,,,,63,001,2023_May_01_0949,ExactRep-v3-final,2021.2.3,59.956819258561765,
,,,,,,,,25,0,25,0,,,,,,,,,,,,,,,,,,,,,,,,,,,,,,,,,,,,,,,,,,,,,,,,,,,,,6544.098893499933,None,,,,,,,,,,,,,,,,,,,,,,,,,,,,,,,,,,,bird,39,26,silent,red,6542.096927399747,None,None,6542.096927399747,None,,,,,,,,,,,,,,,,,,,,,,,,,,,,,,63,001,2023_May_01_0949,ExactRep-v3-final,2021.2.3,59.956819258561765,
,,,,,,,,26,0,26,0,,,,,,,,,,,,,,,,,,,,,,,,,,,,,,,,,,,,,,,,,,,,,,,,,,,,,6546.618311200291,None,,,,,,,,,,,,,,,,,,,,,,,,,,,,,,,,,,,volume,115,27,aloud,blue,6544.608507900499,None,None,6544.608507900499,None,,,,,,,,,,,,,,,,,,,,,,,,,,,,,,63,001,2023_May_01_0949,ExactRep-v3-final,2021.2.3,59.956819258561765,
,,,,,,,,27,0,27,0,,,,,,,,,,,,,,,,,,,,,,,,,,,,,,,,,,,,,,,,,,,,,,,,,,,,,6549.137137999758,None,,,,,,,,,,,,,,,,,,,,,,,,,,,,,,,,,,,lip,2,28,sing,white,6547.1251207999885,None,None,6547.1251207999885,None,,,,,,,,,,,,,,,,,,,,,,,,,,,,,,63,001,2023_May_01_0949,ExactRep-v3-final,2021.2.3,59.956819258561765,
,,,,,,,,28,0,28,0,,,,,,,,,,,,,,,,,,,,,,,,,,,,,,,,,,,,,,,,,,,,,,,,,,,,,6551.639966799878,None,,,,,,,,,,,,,,,,,,,,,,,,,,,,,,,,,,,moral,53,29,silent,red,6549.639431499876,None,None,6549.639431499876,None,,,,,,,,,,,,,,,,,,,,,,,,,,,,,,63,001,2023_May_01_0949,ExactRep-v3-final,2021.2.3,59.956819258561765,
,,,,,,,,29,0,29,0,,,,,,,,,,,,,,,,,,,,,,,,,,,,,,,,,,,,,,,,,,,,,,,,,,,,,6554.1423340002075,None,,,,,,,,,,,,,,,,,,,,,,,,,,,,,,,,,,,ocean,63,30,silent,red,6552.140537399799,None,None,6552.140537399799,None,,,,,,,,,,,,,,,,,,,,,,,,,,,,,,63,001,2023_May_01_0949,ExactRep-v3-final,2021.2.3,59.956819258561765,
,,,,,,,,30,0,30,0,,,,,,,,,,,,,,,,,,,,,,,,,,,,,,,,,,,,,,,,,,,,,,,,,,,,,6556.6449829004705,None,,,,,,,,,,,,,,,,,,,,,,,,,,,,,,,,,,,mind,98,31,aloud,blue,6554.644750200212,None,None,6554.644750200212,None,,,,,,,,,,,,,,,,,,,,,,,,,,,,,,63,001,2023_May_01_0949,ExactRep-v3-final,2021.2.3,59.956819258561765,
,,,,,,,,31,0,31,0,,,,,,,,,,,,,,,,,,,,,,,,,,,,,,,,,,,,,,,,,,,,,,,,,,,,,6559.147570200264,None,,,,,,,,,,,,,,,,,,,,,,,,,,,,,,,,,,,picture,13,32,sing,white,6557.145945199765,None,None,6557.145945199765,None,,,,,,,,,,,,,,,,,,,,,,,,,,,,,,63,001,2023_May_01_0949,ExactRep-v3-final,2021.2.3,59.956819258561765,
,,,,,,,,32,0,32,0,,,,,,,,,,,,,,,,,,,,,,,,,,,,,,,,,,,,,,,,,,,,,,,,,,,,,6561.666585000232,None,,,,,,,,,,,,,,,,,,,,,,,,,,,,,,,,,,,party,7,33,sing,white,6559.654016699642,None,None,6559.654016699642,None,,,,,,,,,,,,,,,,,,,,,,,,,,,,,,63,001,2023_May_01_0949,ExactRep-v3-final,2021.2.3,59.956819258561765,
,,,,,,,,33,0,33,0,,,,,,,,,,,,,,,,,,,,,,,,,,,,,,,,,,,,,,,,,,,,,,,,,,,,,6564.169129299931,None,,,,,,,,,,,,,,,,,,,,,,,,,,,,,,,,,,,vessel,65,34,silent,red,6562.1671594996005,None,None,6562.1671594996005,None,,,,,,,,,,,,,,,,,,,,,,,,,,,,,,63,001,2023_May_01_0949,ExactRep-v3-final,2021.2.3,59.956819258561765,
,,,,,,,,34,0,34,0,,,,,,,,,,,,,,,,,,,,,,,,,,,,,,,,,,,,,,,,,,,,,,,,,,,,,6566.67166360002,None,,,,,,,,,,,,,,,,,,,,,,,,,,,,,,,,,,,cotton,61,35,silent,red,6564.670144800097,None,None,6564.670144800097,None,,,,,,,,,,,,,,,,,,,,,,,,,,,,,,63,001,2023_May_01_0949,ExactRep-v3-final,2021.2.3,59.956819258561765,
,,,,,,,,35,0,35,0,,,,,,,,,,,,,,,,,,,,,,,,,,,,,,,,,,,,,,,,,,,,,,,,,,,,,6569.191287999973,None,,,,,,,,,,,,,,,,,,,,,,,,,,,,,,,,,,,anger,93,36,aloud,blue,6567.179750700481,None,None,6567.179750700481,None,,,,,,,,,,,,,,,,,,,,,,,,,,,,,,63,001,2023_May_01_0949,ExactRep-v3-final,2021.2.3,59.956819258561765,
,,,,,,,,36,0,36,0,,,,,,,,,,,,,,,,,,,,,,,,,,,,,,,,,,,,,,,,,,,,,,,,,,,,,6571.69337209966,None,,,,,,,,,,,,,,,,,,,,,,,,,,,,,,,,,,,shadow,44,37,silent,red,6569.6939450996,None,None,6569.6939450996,None,,,,,,,,,,,,,,,,,,,,,,,,,,,,,,63,001,2023_May_01_0949,ExactRep-v3-final,2021.2.3,59.956819258561765,
,,,,,,,,37,0,37,0,,,,,,,,,,,,,,,,,,,,,,,,,,,,,,,,,,,,,,,,,,,,,,,,,,,,,6574.212430999614,None,,,,,,,,,,,,,,,,,,,,,,,,,,,,,,,,,,,coin,5,38,sing,white,6572.20131490007,None,None,6572.20131490007,None,,,,,,,,,,,,,,,,,,,,,,,,,,,,,,63,001,2023_May_01_0949,ExactRep-v3-final,2021.2.3,59.956819258561765,
,,,,,,,,38,0,38,0,,,,,,,,,,,,,,,,,,,,,,,,,,,,,,,,,,,,,,,,,,,,,,,,,,,,,6576.715031499974,None,,,,,,,,,,,,,,,,,,,,,,,,,,,,,,,,,,,home,0,39,sing,white,6574.71292470023,None,None,6574.71292470023,None,,,,,,,,,,,,,,,,,,,,,,,,,,,,,,63,001,2023_May_01_0949,ExactRep-v3-final,2021.2.3,59.956819258561765,
,,,,,,,,39,0,39,0,,,,,,,,,,,,,,,,,,,,,,,,,,,,,,,,,,,,,,,,,,,,,,,,,,,,,6579.234137300402,None,,,,,,,,,,,,,,,,,,,,,,,,,,,,,,,,,,,length,43,40,silent,red,6577.225119000301,None,None,6577.225119000301,None,,,,,,,,,,,,,,,,,,,,,,,,,,,,,,63,001,2023_May_01_0949,ExactRep-v3-final,2021.2.3,59.956819258561765,
,,,,,,,,40,0,40,0,,,,,,,,,,,,,,,,,,,,,,,,,,,,,,,,,,,,,,,,,,,,,,,,,,,,,6581.753238500096,None,,,,,,,,,,,,,,,,,,,,,,,,,,,,,,,,,,,hide,86,41,aloud,blue,6579.742424500175,None,None,6579.742424500175,None,,,,,,,,,,,,,,,,,,,,,,,,,,,,,,63,001,2023_May_01_0949,ExactRep-v3-final,2021.2.3,59.956819258561765,
,,,,,,,,41,0,41,0,,,,,,,,,,,,,,,,,,,,,,,,,,,,,,,,,,,,,,,,,,,,,,,,,,,,,6584.255761899985,None,,,,,,,,,,,,,,,,,,,,,,,,,,,,,,,,,,,boulder,118,42,aloud,blue,6582.25389480032,None,None,6582.25389480032,None,,,,,,,,,,,,,,,,,,,,,,,,,,,,,,63,001,2023_May_01_0949,ExactRep-v3-final,2021.2.3,59.956819258561765,
,,,,,,,,42,0,42,0,,,,,,,,,,,,,,,,,,,,,,,,,,,,,,,,,,,,,,,,,,,,,,,,,,,,,6586.775169599801,None,,,,,,,,,,,,,,,,,,,,,,,,,,,,,,,,,,,pride,97,43,aloud,blue,6584.763863399625,None,None,6584.763863399625,None,,,,,,,,,,,,,,,,,,,,,,,,,,,,,,63,001,2023_May_01_0949,ExactRep-v3-final,2021.2.3,59.956819258561765,
,,,,,,,,43,0,43,0,,,,,,,,,,,,,,,,,,,,,,,,,,,,,,,,,,,,,,,,,,,,,,,,,,,,,6589.277616400272,None,,,,,,,,,,,,,,,,,,,,,,,,,,,,,,,,,,,metal,19,44,sing,white,6587.276599899866,None,None,6587.276599899866,None,,,,,,,,,,,,,,,,,,,,,,,,,,,,,,63,001,2023_May_01_0949,ExactRep-v3-final,2021.2.3,59.956819258561765,
,,,,,,,,44,0,44,0,,,,,,,,,,,,,,,,,,,,,,,,,,,,,,,,,,,,,,,,,,,,,,,,,,,,,6591.780148900114,None,,,,,,,,,,,,,,,,,,,,,,,,,,,,,,,,,,,law,38,45,sing,white,6589.7806580998,None,None,6589.7806580998,None,,,,,,,,,,,,,,,,,,,,,,,,,,,,,,63,001,2023_May_01_0949,ExactRep-v3-final,2021.2.3,59.956819258561765,
,,,,,,,,45,0,45,0,,,,,,,,,,,,,,,,,,,,,,,,,,,,,,,,,,,,,,,,,,,,,,,,,,,,,6594.28267010022,None,,,,,,,,,,,,,,,,,,,,,,,,,,,,,,,,,,,iron,50,46,silent,red,6592.282669000328,None,None,6592.282669000328,None,,,,,,,,,,,,,,,,,,,,,,,,,,,,,,63,001,2023_May_01_0949,ExactRep-v3-final,2021.2.3,59.956819258561765,
,,,,,,,,46,0,46,0,,,,,,,,,,,,,,,,,,,,,,,,,,,,,,,,,,,,,,,,,,,,,,,,,,,,,6596.785093800165,None,,,,,,,,,,,,,,,,,,,,,,,,,,,,,,,,,,,opinion,101,47,aloud,blue,6594.783875199966,None,None,6594.783875199966,None,,,,,,,,,,,,,,,,,,,,,,,,,,,,,,63,001,2023_May_01_0949,ExactRep-v3-final,2021.2.3,59.956819258561765,
,,,,,,,,47,0,47,0,,,,,,,,,,,,,,,,,,,,,,,,,,,,,,,,,,,,,,,,,,,,,,,,,,,,,6599.287710700184,None,,,,,,,,,,,,,,,,,,,,,,,,,,,,,,,,,,,fire,119,48,aloud,blue,6597.286450300366,None,None,6597.286450300366,None,,,,,,,,,,,,,,,,,,,,,,,,,,,,,,63,001,2023_May_01_0949,ExactRep-v3-final,2021.2.3,59.956819258561765,
,,,,,,,,48,0,48,0,,,,,,,,,,,,,,,,,,,,,,,,,,,,,,,,,,,,,,,,,,,,,,,,,,,,,6601.806623400189,None,,,,,,,,,,,,,,,,,,,,,,,,,,,,,,,,,,,love,49,49,silent,red,6599.793235300109,None,None,6599.793235300109,None,,,,,,,,,,,,,,,,,,,,,,,,,,,,,,63,001,2023_May_01_0949,ExactRep-v3-final,2021.2.3,59.956819258561765,
,,,,,,,,49,0,49,0,,,,,,,,,,,,,,,,,,,,,,,,,,,,,,,,,,,,,,,,,,,,,,,,,,,,,6604.325854100287,None,,,,,,,,,,,,,,,,,,,,,,,,,,,,,,,,,,,valley,31,50,sing,white,6602.315609900281,None,None,6602.315609900281,None,,,,,,,,,,,,,,,,,,,,,,,,,,,,,,63,001,2023_May_01_0949,ExactRep-v3-final,2021.2.3,59.956819258561765,
,,,,,,,,50,0,50,0,,,,,,,,,,,,,,,,,,,,,,,,,,,,,,,,,,,,,,,,,,,,,,,,,,,,,6606.828635999933,None,,,,,,,,,,,,,,,,,,,,,,,,,,,,,,,,,,,factory,94,51,aloud,blue,6604.826912200078,None,None,6604.826912200078,None,,,,,,,,,,,,,,,,,,,,,,,,,,,,,,63,001,2023_May_01_0949,ExactRep-v3-final,2021.2.3,59.956819258561765,
,,,,,,,,51,0,51,0,,,,,,,,,,,,,,,,,,,,,,,,,,,,,,,,,,,,,,,,,,,,,,,,,,,,,6609.347851900384,None,,,,,,,,,,,,,,,,,,,,,,,,,,,,,,,,,,,slave,23,52,sing,white,6607.332601199858,None,None,6607.332601199858,None,,,,,,,,,,,,,,,,,,,,,,,,,,,,,,63,001,2023_May_01_0949,ExactRep-v3-final,2021.2.3,59.956819258561765,
,,,,,,,,52,0,52,0,,,,,,,,,,,,,,,,,,,,,,,,,,,,,,,,,,,,,,,,,,,,,,,,,,,,,6611.850197199732,None,,,,,,,,,,,,,,,,,,,,,,,,,,,,,,,,,,,weapon,47,53,silent,red,6609.849118100479,None,None,6609.849118100479,None,,,,,,,,,,,,,,,,,,,,,,,,,,,,,,63,001,2023_May_01_0949,ExactRep-v3-final,2021.2.3,59.956819258561765,
,,,,,,,,53,0,53,0,,,,,,,,,,,,,,,,,,,,,,,,,,,,,,,,,,,,,,,,,,,,,,,,,,,,,6614.352717899717,None,,,,,,,,,,,,,,,,,,,,,,,,,,,,,,,,,,,present,99,54,aloud,blue,6612.352455499582,None,None,6612.352455499582,None,,,,,,,,,,,,,,,,,,,,,,,,,,,,,,63,001,2023_May_01_0949,ExactRep-v3-final,2021.2.3,59.956819258561765,
,,,,,,,,54,0,54,0,,,,,,,,,,,,,,,,,,,,,,,,,,,,,,,,,,,,,,,,,,,,,,,,,,,,,6616.871735299937,None,,,,,,,,,,,,,,,,,,,,,,,,,,,,,,,,,,,priest,91,55,aloud,blue,6614.8594182999805,None,None,6614.8594182999805,None,,,,,,,,,,,,,,,,,,,,,,,,,,,,,,63,001,2023_May_01_0949,ExactRep-v3-final,2021.2.3,59.956819258561765,
,,,,,,,,55,0,55,0,,,,,,,,,,,,,,,,,,,,,,,,,,,,,,,,,,,,,,,,,,,,,,,,,,,,,6619.374470599927,None,,,,,,,,,,,,,,,,,,,,,,,,,,,,,,,,,,,honour,62,56,silent,red,6617.373179700226,None,None,6617.373179700226,None,,,,,,,,,,,,,,,,,,,,,,,,,,,,,,63,001,2023_May_01_0949,ExactRep-v3-final,2021.2.3,59.956819258561765,
,,,,,,,,56,0,56,0,,,,,,,,,,,,,,,,,,,,,,,,,,,,,,,,,,,,,,,,,,,,,,,,,,,,,6621.893439100124,None,,,,,,,,,,,,,,,,,,,,,,,,,,,,,,,,,,,garden,20,57,sing,white,6619.87815069966,None,None,6619.87815069966,None,,,,,,,,,,,,,,,,,,,,,,,,,,,,,,63,001,2023_May_01_0949,ExactRep-v3-final,2021.2.3,59.956819258561765,
,,,,,,,,57,0,57,0,,,,,,,,,,,,,,,,,,,,,,,,,,,,,,,,,,,,,,,,,,,,,,,,,,,,,6624.412667900324,None,,,,,,,,,,,,,,,,,,,,,,,,,,,,,,,,,,,river,89,58,aloud,blue,6622.402863799594,None,None,6622.402863799594,None,,,,,,,,,,,,,,,,,,,,,,,,,,,,,,63,001,2023_May_01_0949,ExactRep-v3-final,2021.2.3,59.956819258561765,
,,,,,,,,58,0,58,0,,,,,,,,,,,,,,,,,,,,,,,,,,,,,,,,,,,,,,,,,,,,,,,,,,,,,6626.915230199695,None,,,,,,,,,,,,,,,,,,,,,,,,,,,,,,,,,,,passion,25,59,sing,white,6624.914602300152,None,None,6624.914602300152,None,,,,,,,,,,,,,,,,,,,,,,,,,,,,,,63,001,2023_May_01_0949,ExactRep-v3-final,2021.2.3,59.956819258561765,
,,,,,,,,59,0,59,0,,,,,,,,,,,,,,,,,,,,,,,,,,,,,,,,,,,,,,,,,,,,,,,,,,,,,6629.434268400073,None,,,,,,,,,,,,,,,,,,,,,,,,,,,,,,,,,,,poet,8,60,sing,white,6627.419939099811,None,None,6627.419939099811,None,,,,,,,,,,,,,,,,,,,,,,,,,,,,,,63,001,2023_May_01_0949,ExactRep-v3-final,2021.2.3,59.956819258561765,
,,,,,,,,60,0,60,0,,,,,,,,,,,,,,,,,,,,,,,,,,,,,,,,,,,,,,,,,,,,,,,,,,,,,6631.936936600134,None,,,,,,,,,,,,,,,,,,,,,,,,,,,,,,,,,,,power,58,61,silent,red,6629.934899900109,None,None,6629.934899900109,None,,,,,,,,,,,,,,,,,,,,,,,,,,,,,,63,001,2023_May_01_0949,ExactRep-v3-final,2021.2.3,59.956819258561765,
,,,,,,,,61,0,61,0,,,,,,,,,,,,,,,,,,,,,,,,,,,,,,,,,,,,,,,,,,,,,,,,,,,,,6634.456129600294,None,,,,,,,,,,,,,,,,,,,,,,,,,,,,,,,,,,,skin,42,62,silent,red,6632.445309099741,None,None,6632.445309099741,None,,,,,,,,,,,,,,,,,,,,,,,,,,,,,,63,001,2023_May_01_0949,ExactRep-v3-final,2021.2.3,59.956819258561765,
,,,,,,,,62,0,62,0,,,,,,,,,,,,,,,,,,,,,,,,,,,,,,,,,,,,,,,,,,,,,,,,,,,,,6636.958596999757,None,,,,,,,,,,,,,,,,,,,,,,,,,,,,,,,,,,,potato,45,63,silent,red,6634.958810499869,None,None,6634.958810499869,None,,,,,,,,,,,,,,,,,,,,,,,,,,,,,,63,001,2023_May_01_0949,ExactRep-v3-final,2021.2.3,59.956819258561765,
,,,,,,,,63,0,63,0,,,,,,,,,,,,,,,,,,,,,,,,,,,,,,,,,,,,,,,,,,,,,,,,,,,,,6639.477611799724,None,,,,,,,,,,,,,,,,,,,,,,,,,,,,,,,,,,,virtue,12,64,sing,white,6637.4690202996135,None,None,6637.4690202996135,None,,,,,,,,,,,,,,,,,,,,,,,,,,,,,,63,001,2023_May_01_0949,ExactRep-v3-final,2021.2.3,59.956819258561765,
,,,,,,,,64,0,64,0,,,,,,,,,,,,,,,,,,,,,,,,,,,,,,,,,,,,,,,,,,,,,,,,,,,,,6641.980159400031,None,,,,,,,,,,,,,,,,,,,,,,,,,,,,,,,,,,,child,48,65,silent,red,6639.978154700249,None,None,6639.978154700249,None,,,,,,,,,,,,,,,,,,,,,,,,,,,,,,63,001,2023_May_01_0949,ExactRep-v3-final,2021.2.3,59.956819258561765,
,,,,,,,,65,0,65,0,,,,,,,,,,,,,,,,,,,,,,,,,,,,,,,,,,,,,,,,,,,,,,,,,,,,,6644.4993457002565,None,,,,,,,,,,,,,,,,,,,,,,,,,,,,,,,,,,,board,105,66,aloud,blue,6642.485349600203,None,None,6642.485349600203,None,,,,,,,,,,,,,,,,,,,,,,,,,,,,,,63,001,2023_May_01_0949,ExactRep-v3-final,2021.2.3,59.956819258561765,
,,,,,,,,66,0,66,0,,,,,,,,,,,,,,,,,,,,,,,,,,,,,,,,,,,,,,,,,,,,,,,,,,,,,6647.001953500323,None,,,,,,,,,,,,,,,,,,,,,,,,,,,,,,,,,,,camp,15,67,sing,white,6644.9999038996175,None,None,6644.9999038996175,None,,,,,,,,,,,,,,,,,,,,,,,,,,,,,,63,001,2023_May_01_0949,ExactRep-v3-final,2021.2.3,59.956819258561765,
,,,,,,,,67,0,67,0,,,,,,,,,,,,,,,,,,,,,,,,,,,,,,,,,,,,,,,,,,,,,,,,,,,,,6649.521220399998,None,,,,,,,,,,,,,,,,,,,,,,,,,,,,,,,,,,,artist,72,68,silent,red,6647.505969200283,None,None,6647.505969200283,None,,,,,,,,,,,,,,,,,,,,,,,,,,,,,,63,001,2023_May_01_0949,ExactRep-v3-final,2021.2.3,59.956819258561765,
,,,,,,,,68,0,68,0,,,,,,,,,,,,,,,,,,,,,,,,,,,,,,,,,,,,,,,,,,,,,,,,,,,,,6652.040187899955,None,,,,,,,,,,,,,,,,,,,,,,,,,,,,,,,,,,,death,75,69,silent,red,6650.027546400204,None,None,6650.027546400204,None,,,,,,,,,,,,,,,,,,,,,,,,,,,,,,63,001,2023_May_01_0949,ExactRep-v3-final,2021.2.3,59.956819258561765,
,,,,,,,,69,0,69,0,,,,,,,,,,,,,,,,,,,,,,,,,,,,,,,,,,,,,,,,,,,,,,,,,,,,,6654.542886599898,None,,,,,,,,,,,,,,,,,,,,,,,,,,,,,,,,,,,circle,92,70,aloud,blue,6652.5407017003745,None,None,6652.5407017003745,None,,,,,,,,,,,,,,,,,,,,,,,,,,,,,,63,001,2023_May_01_0949,ExactRep-v3-final,2021.2.3,59.956819258561765,
,,,,,,,,70,0,70,0,,,,,,,,,,,,,,,,,,,,,,,,,,,,,,,,,,,,,,,,,,,,,,,,,,,,,6657.061915599741,None,,,,,,,,,,,,,,,,,,,,,,,,,,,,,,,,,,,grass,36,71,sing,white,6655.047085300088,None,None,6655.047085300088,None,,,,,,,,,,,,,,,,,,,,,,,,,,,,,,63,001,2023_May_01_0949,ExactRep-v3-final,2021.2.3,59.956819258561765,
,,,,,,,,71,0,71,0,,,,,,,,,,,,,,,,,,,,,,,,,,,,,,,,,,,,,,,,,,,,,,,,,,,,,6659.564627700485,None,,,,,,,,,,,,,,,,,,,,,,,,,,,,,,,,,,,prayer,67,72,silent,red,6657.563572799787,None,None,6657.563572799787,None,,,,,,,,,,,,,,,,,,,,,,,,,,,,,,63,001,2023_May_01_0949,ExactRep-v3-final,2021.2.3,59.956819258561765,
,,,,,,,,72,0,72,0,,,,,,,,,,,,,,,,,,,,,,,,,,,,,,,,,,,,,,,,,,,,,,,,,,,,,6662.083867199719,None,,,,,,,,,,,,,,,,,,,,,,,,,,,,,,,,,,,storm,22,73,sing,white,6660.069669499993,None,None,6660.069669499993,None,,,,,,,,,,,,,,,,,,,,,,,,,,,,,,63,001,2023_May_01_0949,ExactRep-v3-final,2021.2.3,59.956819258561765,
,,,,,,,,73,0,73,0,,,,,,,,,,,,,,,,,,,,,,,,,,,,,,,,,,,,,,,,,,,,,,,,,,,,,6664.586246300489,None,,,,,,,,,,,,,,,,,,,,,,,,,,,,,,,,,,,letter,28,74,sing,white,6662.585578200407,None,None,6662.585578200407,None,,,,,,,,,,,,,,,,,,,,,,,,,,,,,,63,001,2023_May_01_0949,ExactRep-v3-final,2021.2.3,59.956819258561765,
,,,,,,,,74,0,74,0,,,,,,,,,,,,,,,,,,,,,,,,,,,,,,,,,,,,,,,,,,,,,,,,,,,,,6667.088741900399,None,,,,,,,,,,,,,,,,,,,,,,,,,,,,,,,,,,,seat,66,75,silent,red,6665.089054400101,None,None,6665.089054400101,None,,,,,,,,,,,,,,,,,,,,,,,,,,,,,,63,001,2023_May_01_0949,ExactRep-v3-final,2021.2.3,59.956819258561765,
,,,,,,,,75,0,75,0,,,,,,,,,,,,,,,,,,,,,,,,,,,,,,,,,,,,,,,,,,,,,,,,,,,,,6669.591090099886,None,,,,,,,,,,,,,,,,,,,,,,,,,,,,,,,,,,,butter,27,76,sing,white,6667.59056599997,None,None,6667.59056599997,None,,,,,,,,,,,,,,,,,,,,,,,,,,,,,,63,001,2023_May_01_0949,ExactRep-v3-final,2021.2.3,59.956819258561765,
,,,,,,,,76,0,76,0,,,,,,,,,,,,,,,,,,,,,,,,,,,,,,,,,,,,,,,,,,,,,,,,,,,,,6672.110461600125,None,,,,,,,,,,,,,,,,,,,,,,,,,,,,,,,,,,,safety,59,77,silent,red,6670.099936899729,None,None,6670.099936899729,None,,,,,,,,,,,,,,,,,,,,,,,,,,,,,,63,001,2023_May_01_0949,ExactRep-v3-final,2021.2.3,59.956819258561765,
,,,,,,,,77,0,77,0,,,,,,,,,,,,,,,,,,,,,,,,,,,,,,,,,,,,,,,,,,,,,,,,,,,,,6674.612824399956,None,,,,,,,,,,,,,,,,,,,,,,,,,,,,,,,,,,,bottle,71,78,silent,red,6672.610967099667,None,None,6672.610967099667,None,,,,,,,,,,,,,,,,,,,,,,,,,,,,,,63,001,2023_May_01_0949,ExactRep-v3-final,2021.2.3,59.956819258561765,
,,,,,,,,78,0,78,0,,,,,,,,,,,,,,,,,,,,,,,,,,,,,,,,,,,,,,,,,,,,,,,,,,,,,6677.115235599689,None,,,,,,,,,,,,,,,,,,,,,,,,,,,,,,,,,,,blossom,34,79,sing,white,6675.115913799964,None,None,6675.115913799964,None,,,,,,,,,,,,,,,,,,,,,,,,,,,,,,63,001,2023_May_01_0949,ExactRep-v3-final,2021.2.3,59.956819258561765,
,,,,,,,,79,0,79,0,,,,,,,,,,,,,,,,,,,,,,,,,,,,,,,,,,,,,,,,,,,,,,,,,,,,,6679.63427789975,None,,,,,,,,,,,,,,,,,,,,,,,,,,,,,,,,,,,wife,1,80,sing,white,6677.619163200259,None,None,6677.619163200259,None,,,,,,,,,,,,,,,,,,,,,,,,,,,,,,63,001,2023_May_01_0949,ExactRep-v3-final,2021.2.3,59.956819258561765,
,,,,,,,,80,0,80,0,,,,,,,,,,,,,,,,,,,,,,,,,,,,,,,,,,,,,,,,,,,,,,,,,,,,,6682.153692300431,None,,,,,,,,,,,,,,,,,,,,,,,,,,,,,,,,,,,advice,104,81,aloud,blue,6680.138675699942,None,None,6680.138675699942,None,,,,,,,,,,,,,,,,,,,,,,,,,,,,,,63,001,2023_May_01_0949,ExactRep-v3-final,2021.2.3,59.956819258561765,
,,,,,,,,81,0,81,0,,,,,,,,,,,,,,,,,,,,,,,,,,,,,,,,,,,,,,,,,,,,,,,,,,,,,6684.656470299698,None,,,,,,,,,,,,,,,,,,,,,,,,,,,,,,,,,,,boy,3,82,sing,white,6682.655170399696,None,None,6682.655170399696,None,,,,,,,,,,,,,,,,,,,,,,,,,,,,,,63,001,2023_May_01_0949,ExactRep-v3-final,2021.2.3,59.956819258561765,
,,,,,,,,82,0,82,0,,,,,,,,,,,,,,,,,,,,,,,,,,,,,,,,,,,,,,,,,,,,,,,,,,,,,6687.175542299636,None,,,,,,,,,,,,,,,,,,,,,,,,,,,,,,,,,,,shame,4,83,sing,white,6685.160981800407,None,None,6685.160981800407,None,,,,,,,,,,,,,,,,,,,,,,,,,,,,,,63,001,2023_May_01_0949,ExactRep-v3-final,2021.2.3,59.956819258561765,
,,,,,,,,83,0,83,0,,,,,,,,,,,,,,,,,,,,,,,,,,,,,,,,,,,,,,,,,,,,,,,,,,,,,6689.67788039986,None,,,,,,,,,,,,,,,,,,,,,,,,,,,,,,,,,,,street,84,84,aloud,blue,6687.678600800224,None,None,6687.678600800224,None,,,,,,,,,,,,,,,,,,,,,,,,,,,,,,63,001,2023_May_01_0949,ExactRep-v3-final,2021.2.3,59.956819258561765,
,,,,,,,,84,0,84,0,,,,,,,,,,,,,,,,,,,,,,,,,,,,,,,,,,,,,,,,,,,,,,,,,,,,,6692.197192300111,None,,,,,,,,,,,,,,,,,,,,,,,,,,,,,,,,,,,glory,52,85,silent,red,6690.190154099837,None,None,6690.190154099837,None,,,,,,,,,,,,,,,,,,,,,,,,,,,,,,63,001,2023_May_01_0949,ExactRep-v3-final,2021.2.3,59.956819258561765,
,,,,,,,,85,0,85,0,,,,,,,,,,,,,,,,,,,,,,,,,,,,,,,,,,,,,,,,,,,,,,,,,,,,,6694.699700600468,None,,,,,,,,,,,,,,,,,,,,,,,,,,,,,,,,,,,horse,108,86,aloud,blue,6692.697716499679,None,None,6692.697716499679,None,,,,,,,,,,,,,,,,,,,,,,,,,,,,,,63,001,2023_May_01_0949,ExactRep-v3-final,2021.2.3,59.956819258561765,
,,,,,,,,86,0,86,0,,,,,,,,,,,,,,,,,,,,,,,,,,,,,,,,,,,,,,,,,,,,,,,,,,,,,6697.218947100453,None,,,,,,,,,,,,,,,,,,,,,,,,,,,,,,,,,,,meat,69,87,silent,red,6695.203510100022,None,None,6695.203510100022,None,,,,,,,,,,,,,,,,,,,,,,,,,,,,,,63,001,2023_May_01_0949,ExactRep-v3-final,2021.2.3,59.956819258561765,
,,,,,,,,87,0,87,0,,,,,,,,,,,,,,,,,,,,,,,,,,,,,,,,,,,,,,,,,,,,,,,,,,,,,6699.738029000349,None,,,,,,,,,,,,,,,,,,,,,,,,,,,,,,,,,,,world,80,88,aloud,blue,6697.728495099582,None,None,6697.728495099582,None,,,,,,,,,,,,,,,,,,,,,,,,,,,,,,63,001,2023_May_01_0949,ExactRep-v3-final,2021.2.3,59.956819258561765,
,,,,,,,,88,0,88,0,,,,,,,,,,,,,,,,,,,,,,,,,,,,,,,,,,,,,,,,,,,,,,,,,,,,,6702.240567799658,None,,,,,,,,,,,,,,,,,,,,,,,,,,,,,,,,,,,plain,21,89,sing,white,6700.238562599756,None,None,6700.238562599756,None,,,,,,,,,,,,,,,,,,,,,,,,,,,,,,63,001,2023_May_01_0949,ExactRep-v3-final,2021.2.3,59.956819258561765,
,,,,,,,,89,0,89,0,,,,,,,,,,,,,,,,,,,,,,,,,,,,,,,,,,,,,,,,,,,,,,,,,,,,,6704.742933999747,None,,,,,,,,,,,,,,,,,,,,,,,,,,,,,,,,,,,charm,37,90,sing,white,6702.741427400149,None,None,6702.741427400149,None,,,,,,,,,,,,,,,,,,,,,,,,,,,,,,63,001,2023_May_01_0949,ExactRep-v3-final,2021.2.3,59.956819258561765,
,,,,,,,,90,0,90,0,,,,,,,,,,,,,,,,,,,,,,,,,,,,,,,,,,,,,,,,,,,,,,,,,,,,,6707.245451999828,None,,,,,,,,,,,,,,,,,,,,,,,,,,,,,,,,,,,soil,106,91,aloud,blue,6705.244606300257,None,None,6705.244606300257,None,,,,,,,,,,,,,,,,,,,,,,,,,,,,,,63,001,2023_May_01_0949,ExactRep-v3-final,2021.2.3,59.956819258561765,
,,,,,,,,91,0,91,0,,,,,,,,,,,,,,,,,,,,,,,,,,,,,,,,,,,,,,,,,,,,,,,,,,,,,6709.764777500182,None,,,,,,,,,,,,,,,,,,,,,,,,,,,,,,,,,,,body,112,92,aloud,blue,6707.754875499755,None,None,6707.754875499755,None,,,,,,,,,,,,,,,,,,,,,,,,,,,,,,63,001,2023_May_01_0949,ExactRep-v3-final,2021.2.3,59.956819258561765,
,,,,,,,,92,0,92,0,,,,,,,,,,,,,,,,,,,,,,,,,,,,,,,,,,,,,,,,,,,,,,,,,,,,,6712.267140200362,None,,,,,,,,,,,,,,,,,,,,,,,,,,,,,,,,,,,murder,55,93,silent,red,6710.2651418996975,None,None,6710.2651418996975,None,,,,,,,,,,,,,,,,,,,,,,,,,,,,,,63,001,2023_May_01_0949,ExactRep-v3-final,2021.2.3,59.956819258561765,
,,,,,,,,93,0,93,0,,,,,,,,,,,,,,,,,,,,,,,,,,,,,,,,,,,,,,,,,,,,,,,,,,,,,6714.769770300016,None,,,,,,,,,,,,,,,,,,,,,,,,,,,,,,,,,,,prison,117,94,aloud,blue,6712.769290099852,None,None,6712.769290099852,None,,,,,,,,,,,,,,,,,,,,,,,,,,,,,,63,001,2023_May_01_0949,ExactRep-v3-final,2021.2.3,59.956819258561765,
,,,,,,,,94,0,94,0,,,,,,,,,,,,,,,,,,,,,,,,,,,,,,,,,,,,,,,,,,,,,,,,,,,,,6717.272309799679,None,,,,,,,,,,,,,,,,,,,,,,,,,,,,,,,,,,,window,73,95,silent,red,6715.271865000017,None,None,6715.271865000017,None,,,,,,,,,,,,,,,,,,,,,,,,,,,,,,63,001,2023_May_01_0949,ExactRep-v3-final,2021.2.3,59.956819258561765,
,,,,,,,,95,0,95,0,,,,,,,,,,,,,,,,,,,,,,,,,,,,,,,,,,,,,,,,,,,,,,,,,,,,,6719.774822199717,None,,,,,,,,,,,,,,,,,,,,,,,,,,,,,,,,,,,hotel,78,96,silent,red,6717.775347299874,None,None,6717.775347299874,None,,,,,,,,,,,,,,,,,,,,,,,,,,,,,,63,001,2023_May_01_0949,ExactRep-v3-final,2021.2.3,59.956819258561765,
,,,,,,,,96,0,96,0,,,,,,,,,,,,,,,,,,,,,,,,,,,,,,,,,,,,,,,,,,,,,,,,,,,,,6722.293993299827,None,,,,,,,,,,,,,,,,,,,,,,,,,,,,,,,,,,,cabin,60,97,silent,red,6720.28437629994,None,None,6720.28437629994,None,,,,,,,,,,,,,,,,,,,,,,,,,,,,,,63,001,2023_May_01_0949,ExactRep-v3-final,2021.2.3,59.956819258561765,
,,,,,,,,97,0,97,0,,,,,,,,,,,,,,,,,,,,,,,,,,,,,,,,,,,,,,,,,,,,,,,,,,,,,6724.796392899938,None,,,,,,,,,,,,,,,,,,,,,,,,,,,,,,,,,,,green,83,98,aloud,blue,6722.794533800334,None,None,6722.794533800334,None,,,,,,,,,,,,,,,,,,,,,,,,,,,,,,63,001,2023_May_01_0949,ExactRep-v3-final,2021.2.3,59.956819258561765,
,,,,,,,,98,0,98,0,,,,,,,,,,,,,,,,,,,,,,,,,,,,,,,,,,,,,,,,,,,,,,,,,,,,,6727.315775499679,None,,,,,,,,,,,,,,,,,,,,,,,,,,,,,,,,,,,history,30,99,sing,white,6725.301474999636,None,None,6725.301474999636,None,,,,,,,,,,,,,,,,,,,,,,,,,,,,,,63,001,2023_May_01_0949,ExactRep-v3-final,2021.2.3,59.956819258561765,
,,,,,,,,99,0,99,0,,,,,,,,,,,,,,,,,,,,,,,,,,,,,,,,,,,,,,,,,,,,,,,,,,,,,6729.834840100259,None,,,,,,,,,,,,,,,,,,,,,,,,,,,,,,,,,,,journal,77,100,silent,red,6727.833007500507,None,None,6727.833007500507,None,,,,,,,,,,,,,,,,,,,,,,,,,,,,,,63,001,2023_May_01_0949,ExactRep-v3-final,2021.2.3,59.956819258561765,
,,,,,,,,100,0,100,0,,,,,,,,,,,,,,,,,,,,,,,,,,,,,,,,,,,,,,,,,,,,,,,,,,,,,6732.337404600345,None,,,,,,,,,,,,,,,,,,,,,,,,,,,,,,,,,,,apple,81,101,aloud,blue,6730.335275799967,None,None,6730.335275799967,None,,,,,,,,,,,,,,,,,,,,,,,,,,,,,,63,001,2023_May_01_0949,ExactRep-v3-final,2021.2.3,59.956819258561765,
,,,,,,,,101,0,101,0,,,,,,,,,,,,,,,,,,,,,,,,,,,,,,,,,,,,,,,,,,,,,,,,,,,,,6734.839673300274,None,,,,,,,,,,,,,,,,,,,,,,,,,,,,,,,,,,,girl,57,102,silent,red,6732.837817800231,None,None,6732.837817800231,None,,,,,,,,,,,,,,,,,,,,,,,,,,,,,,63,001,2023_May_01_0949,ExactRep-v3-final,2021.2.3,59.956819258561765,
,,,,,,,,102,0,102,0,,,,,,,,,,,,,,,,,,,,,,,,,,,,,,,,,,,,,,,,,,,,,,,,,,,,,6737.342330800369,None,,,,,,,,,,,,,,,,,,,,,,,,,,,,,,,,,,,wine,18,103,sing,white,6735.34233730007,None,None,6735.34233730007,None,,,,,,,,,,,,,,,,,,,,,,,,,,,,,,63,001,2023_May_01_0949,ExactRep-v3-final,2021.2.3,59.956819258561765,
,,,,,,,,103,0,103,0,,,,,,,,,,,,,,,,,,,,,,,,,,,,,,,,,,,,,,,,,,,,,,,,,,,,,6739.8448411002755,None,,,,,,,,,,,,,,,,,,,,,,,,,,,,,,,,,,,paper,76,104,silent,red,6737.844268799759,None,None,6737.844268799759,None,,,,,,,,,,,,,,,,,,,,,,,,,,,,,,63,001,2023_May_01_0949,ExactRep-v3-final,2021.2.3,59.956819258561765,
,,,,,,,,104,0,104,0,,,,,,,,,,,,,,,,,,,,,,,,,,,,,,,,,,,,,,,,,,,,,,,,,,,,,6742.364124800079,None,,,,,,,,,,,,,,,,,,,,,,,,,,,,,,,,,,,cottage,82,105,aloud,blue,6740.351235800423,None,None,6740.351235800423,None,,,,,,,,,,,,,,,,,,,,,,,,,,,,,,63,001,2023_May_01_0949,ExactRep-v3-final,2021.2.3,59.956819258561765,
,,,,,,,,105,0,105,0,,,,,,,,,,,,,,,,,,,,,,,,,,,,,,,,,,,,,,,,,,,,,,,,,,,,,6744.866366900504,None,,,,,,,,,,,,,,,,,,,,,,,,,,,,,,,,,,,book,35,106,sing,white,6742.864449500106,None,None,6742.864449500106,None,,,,,,,,,,,,,,,,,,,,,,,,,,,,,,63,001,2023_May_01_0949,ExactRep-v3-final,2021.2.3,59.956819258561765,
,,,,,,,,106,0,106,0,,,,,,,,,,,,,,,,,,,,,,,,,,,,,,,,,,,,,,,,,,,,,,,,,,,,,6747.385718700476,None,,,,,,,,,,,,,,,,,,,,,,,,,,,,,,,,,,,freedom,54,107,silent,red,6745.371508800425,None,None,6745.371508800425,None,,,,,,,,,,,,,,,,,,,,,,,,,,,,,,63,001,2023_May_01_0949,ExactRep-v3-final,2021.2.3,59.956819258561765,
,,,,,,,,107,0,107,0,,,,,,,,,,,,,,,,,,,,,,,,,,,,,,,,,,,,,,,,,,,,,,,,,,,,,6749.888177400455,None,,,,,,,,,,,,,,,,,,,,,,,,,,,,,,,,,,,chair,16,108,sing,white,6747.8861590996385,None,None,6747.8861590996385,None,,,,,,,,,,,,,,,,,,,,,,,,,,,,,,63,001,2023_May_01_0949,ExactRep-v3-final,2021.2.3,59.956819258561765,
,,,,,,,,108,0,108,0,,,,,,,,,,,,,,,,,,,,,,,,,,,,,,,,,,,,,,,,,,,,,,,,,,,,,6752.3907112004235,None,,,,,,,,,,,,,,,,,,,,,,,,,,,,,,,,,,,tree,14,109,sing,white,6750.388675999828,None,None,6750.388675999828,None,,,,,,,,,,,,,,,,,,,,,,,,,,,,,,63,001,2023_May_01_0949,ExactRep-v3-final,2021.2.3,59.956819258561765,
,,,,,,,,109,0,109,0,,,,,,,,,,,,,,,,,,,,,,,,,,,,,,,,,,,,,,,,,,,,,,,,,,,,,6754.893191000447,None,,,,,,,,,,,,,,,,,,,,,,,,,,,,,,,,,,,army,107,110,aloud,blue,6752.891330400482,None,None,6752.891330400482,None,,,,,,,,,,,,,,,,,,,,,,,,,,,,,,63,001,2023_May_01_0949,ExactRep-v3-final,2021.2.3,59.956819258561765,
,,,,,,,,110,0,110,0,,,,,,,,,,,,,,,,,,,,,,,,,,,,,,,,,,,,,,,,,,,,,,,,,,,,,6757.39577480033,None,,,,,,,,,,,,,,,,,,,,,,,,,,,,,,,,,,,library,111,111,aloud,blue,6755.395257100463,None,None,6755.395257100463,None,,,,,,,,,,,,,,,,,,,,,,,,,,,,,,63,001,2023_May_01_0949,ExactRep-v3-final,2021.2.3,59.956819258561765,
,,,,,,,,111,0,111,0,,,,,,,,,,,,,,,,,,,,,,,,,,,,,,,,,,,,,,,,,,,,,,,,,,,,,6759.898287800141,None,,,,,,,,,,,,,,,,,,,,,,,,,,,,,,,,,,,moment,88,112,aloud,blue,6757.897496700287,None,None,6757.897496700287,None,,,,,,,,,,,,,,,,,,,,,,,,,,,,,,63,001,2023_May_01_0949,ExactRep-v3-final,2021.2.3,59.956819258561765,
,,,,,,,,112,0,112,0,,,,,,,,,,,,,,,,,,,,,,,,,,,,,,,,,,,,,,,,,,,,,,,,,,,,,6762.417413299903,None,,,,,,,,,,,,,,,,,,,,,,,,,,,,,,,,,,,engine,113,113,aloud,blue,6760.40213430021,None,None,6760.40213430021,None,,,,,,,,,,,,,,,,,,,,,,,,,,,,,,63,001,2023_May_01_0949,ExactRep-v3-final,2021.2.3,59.956819258561765,
,,,,,,,,113,0,113,0,,,,,,,,,,,,,,,,,,,,,,,,,,,,,,,,,,,,,,,,,,,,,,,,,,,,,6764.936574500054,None,,,,,,,,,,,,,,,,,,,,,,,,,,,,,,,,,,,ticket,74,114,silent,red,6762.923916799948,None,None,6762.923916799948,None,,,,,,,,,,,,,,,,,,,,,,,,,,,,,,63,001,2023_May_01_0949,ExactRep-v3-final,2021.2.3,59.956819258561765,
,,,,,,,,114,0,114,0,,,,,,,,,,,,,,,,,,,,,,,,,,,,,,,,,,,,,,,,,,,,,,,,,,,,,6767.439991200343,None,,,,,,,,,,,,,,,,,,,,,,,,,,,,,,,,,,,sugar,51,115,silent,red,6765.4387622997165,None,None,6765.4387622997165,None,,,,,,,,,,,,,,,,,,,,,,,,,,,,,,63,001,2023_May_01_0949,ExactRep-v3-final,2021.2.3,59.956819258561765,
,,,,,,,,115,0,115,0,,,,,,,,,,,,,,,,,,,,,,,,,,,,,,,,,,,,,,,,,,,,,,,,,,,,,6769.958085999824,None,,,,,,,,,,,,,,,,,,,,,,,,,,,,,,,,,,,origin,56,116,silent,red,6767.954038400203,None,None,6767.954038400203,None,,,,,,,,,,,,,,,,,,,,,,,,,,,,,,63,001,2023_May_01_0949,ExactRep-v3-final,2021.2.3,59.956819258561765,
,,,,,,,,116,0,116,0,,,,,,,,,,,,,,,,,,,,,,,,,,,,,,,,,,,,,,,,,,,,,,,,,,,,,6772.477515500039,None,,,,,,,,,,,,,,,,,,,,,,,,,,,,,,,,,,,humour,29,117,sing,white,6770.465882300399,None,None,6770.465882300399,None,,,,,,,,,,,,,,,,,,,,,,,,,,,,,,63,001,2023_May_01_0949,ExactRep-v3-final,2021.2.3,59.956819258561765,
,,,,,,,,117,0,117,0,,,,,,,,,,,,,,,,,,,,,,,,,,,,,,,,,,,,,,,,,,,,,,,,,,,,,6774.979978599586,None,,,,,,,,,,,,,,,,,,,,,,,,,,,,,,,,,,,officer,70,118,silent,red,6772.977803200483,None,None,6772.977803200483,None,,,,,,,,,,,,,,,,,,,,,,,,,,,,,,63,001,2023_May_01_0949,ExactRep-v3-final,2021.2.3,59.956819258561765,
,,,,,,,,118,0,118,0,,,,,,,,,,,,,,,,,,,,,,,,,,,,,,,,,,,,,,,,,,,,,,,,,,,,,6777.48244250007,None,,,,,,,,,,,,,,,,,,,,,,,,,,,,,,,,,,,steam,41,119,silent,red,6775.480474599637,None,None,6775.480474599637,None,,,,,,,,,,,,,,,,,,,,,,,,,,,,,,63,001,2023_May_01_0949,ExactRep-v3-final,2021.2.3,59.956819258561765,
,,,,,,,,119,0,119,0,,,,,,,,,,,,,,,,,,,,,,,,,,,,,,,,,,,,,,,,,,,,,,,,,,,,,6779.985034300014,None,,,,,,,,,,,,,,,,,,,,,,,,,,,,,,,,,,,mercy,26,120,sing,white,6777.984152300283,None,None,6777.984152300283,None,,,,,,,,,,,,,,,,,,,,,,,,,,,,,,63,001,2023_May_01_0949,ExactRep-v3-final,2021.2.3,59.956819258561765,
,,,,,,,,,,,,,,,,,,,,,,,,,,,,,,,,,,,,,,,,,,,,,,,,,,,,,,,,,,,,,,,,,,,,,,,,,,,,,,,,,,,,,,,,,,,,,,,,,,,,,,,,,,,,,,6780.487044500187,None,space,3.949448499828577,6790.463448200375,None,,,,,,,,,,,,,,,,,,,,,,,,63,001,2023_May_01_0949,ExactRep-v3-final,2021.2.3,59.956819258561765,
,,,,,,,,,,,,,,,,,,,,,,,,,,,,,,,,,,,,,,,,,,,,,,,,,,,,,,,,,,,,,,,,,,,,,,,,,,,,,,,,,,,,,,,,,,,,,,,,,,,,,,,,,,,,,,,,,,,,6794.434575200081,None,space,31.5378494001925,6804.410805099644,None,,,,,,,,,,,,,,,,,,63,001,2023_May_01_0949,ExactRep-v3-final,2021.2.3,59.956819258561765,
,,,,,,,,,,,,0,0,0,0,,,,,,,,,,,,,,,,,,,,,,,,,,,,,,,,,,,,,,,,,,,,,,,,,6840.195049400441,None,,,,,,,,,,,,,,,,,,,,,,,,,,,,,,,,,,,,,,,,,,,,,,,,,,,,,,,,,meadow,219,1,sing,new,white,6836.48575880006,None,n,6836.48575880006,None,"['n', 'return']","[2.1827068999409676, 3.6626979000866413]",6836.48575880006,None,,,63,001,2023_May_01_0949,ExactRep-v3-final,2021.2.3,59.956819258561765,
,,,,,,,,,,,,1,0,1,0,,,,,,,,,,,,,,,,,,,,,,,,,,,,,,,,,,,,,,,,,,,,,,,,,6843.715160300024,None,,,,,,,,,,,,,,,,,,,,,,,,,,,,,,,,,,,,,,,,,,,,,,,,,,,,,,,,,artist,72,2,silent,old,red,6840.70530120004,None,y,6840.70530120004,None,"['y', 'return']","[1.9231195002794266, 2.971124299801886]",6840.70530120004,None,,,63,001,2023_May_01_0949,ExactRep-v3-final,2021.2.3,59.956819258561765,
,,,,,,,,,,,,2,0,2,0,,,,,,,,,,,,,,,,,,,,,,,,,,,,,,,,,,,,,,,,,,,,,,,,,6845.784073799849,None,,,,,,,,,,,,,,,,,,,,,,,,,,,,,,,,,,,,,,,,,,,,,,,,,,,,,,,,,shame,4,3,sing,old,white,6844.22796170041,None,y,6844.22796170041,None,"['y', 'return']","[0.9765152996405959, 1.5205776002258062]",6844.22796170041,None,,,63,001,2023_May_01_0949,ExactRep-v3-final,2021.2.3,59.956819258561765,
,,,,,,,,,,,,3,0,3,0,,,,,,,,,,,,,,,,,,,,,,,,,,,,,,,,,,,,,,,,,,,,,,,,,6847.752715500072,None,,,,,,,,,,,,,,,,,,,,,,,,,,,,,,,,,,,,,,,,,,,,,,,,,,,,,,,,,hide,86,4,aloud,old,blue,6846.292924599722,None,y,6846.292924599722,None,"['y', 'return']","[1.0155902998521924, 1.4154532998800278]",6846.292924599722,None,,,63,001,2023_May_01_0949,ExactRep-v3-final,2021.2.3,59.956819258561765,
,,,,,,,,,,,,4,0,4,0,,,,,,,,,,,,,,,,,,,,,,,,,,,,,,,,,,,,,,,,,,,,,,,,,6849.454297499731,None,,,,,,,,,,,,,,,,,,,,,,,,,,,,,,,,,,,,,,,,,,,,,,,,,,,,,,,,,diamond,239,5,sing,new,white,6848.263357999735,None,n,6848.263357999735,None,"['n', 'return']","[0.8611479997634888, 1.157095099799335]",6848.263357999735,None,,,63,001,2023_May_01_0949,ExactRep-v3-final,2021.2.3,59.956819258561765,
,,,,,,,,,,,,5,0,5,0,,,,,,,,,,,,,,,,,,,,,,,,,,,,,,,,,,,,,,,,,,,,,,,,,6850.855784400366,None,,,,,,,,,,,,,,,,,,,,,,,,,,,,,,,,,,,,,,,,,,,,,,,,,,,,,,,,,girl,57,6,silent,old,red,6849.9622103003785,None,y,6849.9622103003785,None,"['y', 'return']","[0.5702770007774234, 0.8582947002723813]",6849.9622103003785,None,,,63,001,2023_May_01_0949,ExactRep-v3-final,2021.2.3,59.956819258561765,
,,,,,,,,,,,,6,0,6,0,,,,,,,,,,,,,,,,,,,,,,,,,,,,,,,,,,,,,,,,,,,,,,,,,6852.72417039983,None,,,,,,,,,,,,,,,,,,,,,,,,,,,,,,,,,,,,,,,,,,,,,,,,,,,,,,,,,string,218,7,aloud,new,blue,6851.365219600499,None,y,6851.365219600499,None,"['y', 'return']","[1.1435270002111793, 1.31134910043329]",6851.365219600499,None,,,63,001,2023_May_01_0949,ExactRep-v3-final,2021.2.3,59.956819258561765,
,,,,,,,,,,,,7,0,7,0,,,,,,,,,,,,,,,,,,,,,,,,,,,,,,,,,,,,,,,,,,,,,,,,,6854.843048400246,None,,,,,,,,,,,,,,,,,,,,,,,,,,,,,,,,,,,,,,,,,,,,,,,,,,,,,,,,,student,95,8,aloud,old,blue,6853.2279719002545,None,y,6853.2279719002545,None,"['y', 'return']","[1.3205787995830178, 1.5685998992994428]",6853.2279719002545,None,,,63,001,2023_May_01_0949,ExactRep-v3-final,2021.2.3,59.956819258561765,
,,,,,,,,,,,,8,0,8,0,,,,,,,,,,,,,,,,,,,,,,,,,,,,,,,,,,,,,,,,,,,,,,,,,6856.411199700087,None,,,,,,,,,,,,,,,,,,,,,,,,,,,,,,,,,,,,,,,,,,,,,,,,,,,,,,,,,pipe,160,9,aloud,new,blue,6855.351630699821,None,n,6855.351630699821,None,"['n', 'return']","[0.7808964001014829, 1.0209139995276928]",6855.351630699821,None,,,63,001,2023_May_01_0949,ExactRep-v3-final,2021.2.3,59.956819258561765,
,,,,,,,,,,,,9,0,9,0,,,,,,,,,,,,,,,,,,,,,,,,,,,,,,,,,,,,,,,,,,,,,,,,,6857.745828799903,None,,,,,,,,,,,,,,,,,,,,,,,,,,,,,,,,,,,,,,,,,,,,,,,,,,,,,,,,,fate,234,10,aloud,new,blue,6856.920365200378,None,n,6856.920365200378,None,"['n', 'return']","[0.5960051994770765, 0.7881060000509024]",6856.920365200378,None,,,63,001,2023_May_01_0949,ExactRep-v3-final,2021.2.3,59.956819258561765,
,,,,,,,,,,,,10,0,10,0,,,,,,,,,,,,,,,,,,,,,,,,,,,,,,,,,,,,,,,,,,,,,,,,,6859.297379599884,None,,,,,,,,,,,,,,,,,,,,,,,,,,,,,,,,,,,,,,,,,,,,,,,,,,,,,,,,,rock,123,11,silent,new,red,6858.256627400406,None,y,6858.256627400406,None,"['y', 'return']","[0.8438550997525454, 0.9958669999614358]",6858.256627400406,None,,,63,001,2023_May_01_0949,ExactRep-v3-final,2021.2.3,59.956819258561765,
,,,,,,,,,,,,11,0,11,0,,,,,,,,,,,,,,,,,,,,,,,,,,,,,,,,,,,,,,,,,,,,,,,,,6861.015800200403,None,,,,,,,,,,,,,,,,,,,,,,,,,,,,,,,,,,,,,,,,,,,,,,,,,,,,,,,,,car,212,12,aloud,new,blue,6859.801453099586,None,n,6859.801453099586,None,"['n', 'return']","[1.0110120996832848, 1.1792003000155091]",6859.801453099586,None,,,63,001,2023_May_01_0949,ExactRep-v3-final,2021.2.3,59.956819258561765,
,,,,,,,,,,,,12,0,12,0,,,,,,,,,,,,,,,,,,,,,,,,,,,,,,,,,,,,,,,,,,,,,,,,,6863.585141500458,None,,,,,,,,,,,,,,,,,,,,,,,,,,,,,,,,,,,,,,,,,,,,,,,,,,,,,,,,,trouble,214,13,aloud,new,blue,6861.516399799846,None,y,6861.516399799846,None,"['y', 'return']","[1.904075499624014, 2.0240784995257854]",6861.516399799846,None,,,63,001,2023_May_01_0949,ExactRep-v3-final,2021.2.3,59.956819258561765,
,,,,,,,,,,,,13,0,13,0,,,,,,,,,,,,,,,,,,,,,,,,,,,,,,,,,,,,,,,,,,,,,,,,,6865.03648039978,None,,,,,,,,,,,,,,,,,,,,,,,,,,,,,,,,,,,,,,,,,,,,,,,,,,,,,,,,,silence,236,14,aloud,new,blue,6864.092457000166,None,y,6864.092457000166,None,"['y', 'return']","[0.6880243998020887, 0.8960524005815387]",6864.092457000166,None,,,63,001,2023_May_01_0949,ExactRep-v3-final,2021.2.3,59.956819258561765,
,,,,,,,,,,,,14,0,14,0,,,,,,,,,,,,,,,,,,,,,,,,,,,,,,,,,,,,,,,,,,,,,,,,,6866.5882122004405,None,,,,,,,,,,,,,,,,,,,,,,,,,,,,,,,,,,,,,,,,,,,,,,,,,,,,,,,,,truth,223,15,sing,new,white,6865.549011000432,None,y,6865.549011000432,None,"['y', 'return']","[0.8713823007419705, 1.0074537005275488]",6865.549011000432,None,,,63,001,2023_May_01_0949,ExactRep-v3-final,2021.2.3,59.956819258561765,
,,,,,,,,,,,,15,0,15,0,,,,,,,,,,,,,,,,,,,,,,,,,,,,,,,,,,,,,,,,,,,,,,,,,6868.189805000089,None,,,,,,,,,,,,,,,,,,,,,,,,,,,,,,,,,,,,,,,,,,,,,,,,,,,,,,,,,history,30,16,sing,old,white,6867.097321299836,None,y,6867.097321299836,None,"['y', 'return']","[0.7233738992363214, 1.0593459997326136]",6867.097321299836,None,,,63,001,2023_May_01_0949,ExactRep-v3-final,2021.2.3,59.956819258561765,
,,,,,,,,,,,,16,0,16,0,,,,,,,,,,,,,,,,,,,,,,,,,,,,,,,,,,,,,,,,,,,,,,,,,6869.641178400256,None,,,,,,,,,,,,,,,,,,,,,,,,,,,,,,,,,,,,,,,,,,,,,,,,,,,,,,,,,circle,92,17,aloud,old,blue,6868.700880000368,None,y,6868.700880000368,None,"['y', 'return']","[0.6637464007362723, 0.9036536999046803]",6868.700880000368,None,,,63,001,2023_May_01_0949,ExactRep-v3-final,2021.2.3,59.956819258561765,
,,,,,,,,,,,,17,0,17,0,,,,,,,,,,,,,,,,,,,,,,,,,,,,,,,,,,,,,,,,,,,,,,,,,6871.0592095004395,None,,,,,,,,,,,,,,,,,,,,,,,,,,,,,,,,,,,,,,,,,,,,,,,,,,,,,,,,,beast,156,18,silent,new,red,6870.148030200042,None,y,6870.148030200042,None,"['y', 'return']","[0.6404410004615784, 0.8644759003072977]",6870.148030200042,None,,,63,001,2023_May_01_0949,ExactRep-v3-final,2021.2.3,59.956819258561765,
,,,,,,,,,,,,18,0,18,0,,,,,,,,,,,,,,,,,,,,,,,,,,,,,,,,,,,,,,,,,,,,,,,,,6872.760957900435,None,,,,,,,,,,,,,,,,,,,,,,,,,,,,,,,,,,,,,,,,,,,,,,,,,,,,,,,,,memory,217,19,sing,new,white,6871.568341599777,None,n,6871.568341599777,None,"['n', 'return']","[0.9641327997669578, 1.1481421003118157]",6871.568341599777,None,,,63,001,2023_May_01_0949,ExactRep-v3-final,2021.2.3,59.956819258561765,
,,,,,,,,,,,,19,0,19,0,,,,,,,,,,,,,,,,,,,,,,,,,,,,,,,,,,,,,,,,,,,,,,,,,6874.312519299798,None,,,,,,,,,,,,,,,,,,,,,,,,,,,,,,,,,,,,,,,,,,,,,,,,,,,,,,,,,water,208,20,aloud,new,blue,6873.267693900503,None,y,6873.267693900503,None,"['y', 'return']","[0.8249633004888892, 1.0009088004007936]",6873.267693900503,None,,,63,001,2023_May_01_0949,ExactRep-v3-final,2021.2.3,59.956819258561765,
,,,,,,,,,,,,20,0,20,0,,,,,,,,,,,,,,,,,,,,,,,,,,,,,,,,,,,,,,,,,,,,,,,,,6875.763885900378,None,,,,,,,,,,,,,,,,,,,,,,,,,,,,,,,,,,,,,,,,,,,,,,,,,,,,,,,,,vision,114,21,aloud,old,blue,6874.8225304996595,None,n,6874.8225304996595,None,"['n', 'return']","[0.7180928001180291, 0.909999399445951]",6874.8225304996595,None,,,63,001,2023_May_01_0949,ExactRep-v3-final,2021.2.3,59.956819258561765,
,,,,,,,,,,,,21,0,21,0,,,,,,,,,,,,,,,,,,,,,,,,,,,,,,,,,,,,,,,,,,,,,,,,,6877.24873409979,None,,,,,,,,,,,,,,,,,,,,,,,,,,,,,,,,,,,,,,,,,,,,,,,,,,,,,,,,,world,80,22,aloud,old,blue,6876.27467409987,None,y,6876.27467409987,None,"['y', 'return']","[0.6178510002791882, 0.9297770000994205]",6876.27467409987,None,,,63,001,2023_May_01_0949,ExactRep-v3-final,2021.2.3,59.956819258561765,
,,,,,,,,,,,,22,0,22,0,,,,,,,,,,,,,,,,,,,,,,,,,,,,,,,,,,,,,,,,,,,,,,,,,6878.883650899865,None,,,,,,,,,,,,,,,,,,,,,,,,,,,,,,,,,,,,,,,,,,,,,,,,,,,,,,,,,earth,189,23,sing,new,white,6877.757534800097,None,n,6877.757534800097,None,"['n', 'return']","[0.8310310998931527, 1.0869300998747349]",6877.757534800097,None,,,63,001,2023_May_01_0949,ExactRep-v3-final,2021.2.3,59.956819258561765,
,,,,,,,,,,,,23,0,23,0,,,,,,,,,,,,,,,,,,,,,,,,,,,,,,,,,,,,,,,,,,,,,,,,,6880.468662200496,None,,,,,,,,,,,,,,,,,,,,,,,,,,,,,,,,,,,,,,,,,,,,,,,,,,,,,,,,,grief,110,24,aloud,old,blue,6879.391777900048,None,y,6879.391777900048,None,"['y', 'return']","[0.6046986998990178, 1.036616999655962]",6879.391777900048,None,,,63,001,2023_May_01_0949,ExactRep-v3-final,2021.2.3,59.956819258561765,
,,,,,,,,,,,,24,0,24,0,,,,,,,,,,,,,,,,,,,,,,,,,,,,,,,,,,,,,,,,,,,,,,,,,6882.170554700308,None,,,,,,,,,,,,,,,,,,,,,,,,,,,,,,,,,,,,,,,,,,,,,,,,,,,,,,,,,tool,116,25,aloud,old,blue,6880.979129300453,None,n,6880.979129300453,None,"['n', 'return']","[0.69746970012784, 1.1454103998839855]",6880.979129300453,None,,,63,001,2023_May_01_0949,ExactRep-v3-final,2021.2.3,59.956819258561765,
,,,,,,,,,,,,25,0,25,0,,,,,,,,,,,,,,,,,,,,,,,,,,,,,,,,,,,,,,,,,,,,,,,,,6883.988844700158,None,,,,,,,,,,,,,,,,,,,,,,,,,,,,,,,,,,,,,,,,,,,,,,,,,,,,,,,,,meeting,176,26,aloud,new,blue,6882.680350200273,None,y,6882.680350200273,None,"['y', 'return']","[0.5800641002133489, 1.2762554995715618]",6882.680350200273,None,,,63,001,2023_May_01_0949,ExactRep-v3-final,2021.2.3,59.956819258561765,
,,,,,,,,,,,,26,0,26,0,,,,,,,,,,,,,,,,,,,,,,,,,,,,,,,,,,,,,,,,,,,,,,,,,6885.740462900139,None,,,,,,,,,,,,,,,,,,,,,,,,,,,,,,,,,,,,,,,,,,,,,,,,,,,,,,,,,law,38,27,sing,old,white,6884.498635199852,None,y,6884.498635199852,None,"['y', 'return']","[0.7219698997214437, 1.201860399916768]",6884.498635199852,None,,,63,001,2023_May_01_0949,ExactRep-v3-final,2021.2.3,59.956819258561765,
,,,,,,,,,,,,27,0,27,0,,,,,,,,,,,,,,,,,,,,,,,,,,,,,,,,,,,,,,,,,,,,,,,,,6887.358850399964,None,,,,,,,,,,,,,,,,,,,,,,,,,,,,,,,,,,,,,,,,,,,,,,,,,,,,,,,,,fortune,161,28,sing,new,white,6886.248773699626,None,y,6886.248773699626,None,"['y', 'return']","[0.9319493994116783, 1.075747000053525]",6886.248773699626,None,,,63,001,2023_May_01_0949,ExactRep-v3-final,2021.2.3,59.956819258561765,
,,,,,,,,,,,,28,0,28,0,,,,,,,,,,,,,,,,,,,,,,,,,,,,,,,,,,,,,,,,,,,,,,,,,6888.727021500468,None,,,,,,,,,,,,,,,,,,,,,,,,,,,,,,,,,,,,,,,,,,,,,,,,,,,,,,,,,cat,139,29,silent,new,red,6887.872755300254,None,y,6887.872755300254,None,"['y', 'return']","[0.6037491001188755, 0.8200896000489593]",6887.872755300254,None,,,63,001,2023_May_01_0949,ExactRep-v3-final,2021.2.3,59.956819258561765,
,,,,,,,,,,,,29,0,29,0,,,,,,,,,,,,,,,,,,,,,,,,,,,,,,,,,,,,,,,,,,,,,,,,,6890.428615599871,None,,,,,,,,,,,,,,,,,,,,,,,,,,,,,,,,,,,,,,,,,,,,,,,,,,,,,,,,,avenue,153,30,silent,new,red,6889.238369099796,None,y,6889.238369099796,None,"['y', 'return']","[0.8381733000278473, 1.1501290993764997]",6889.238369099796,None,,,63,001,2023_May_01_0949,ExactRep-v3-final,2021.2.3,59.956819258561765,
,,,,,,,,,,,,30,0,30,0,,,,,,,,,,,,,,,,,,,,,,,,,,,,,,,,,,,,,,,,,,,,,,,,,6891.796474999748,None,,,,,,,,,,,,,,,,,,,,,,,,,,,,,,,,,,,,,,,,,,,,,,,,,,,,,,,,,paper,76,31,silent,old,red,6890.931687200442,None,y,6890.931687200442,None,"['y', 'return']","[0.6647159997373819, 0.8330091005191207]",6890.931687200442,None,,,63,001,2023_May_01_0949,ExactRep-v3-final,2021.2.3,59.956819258561765,
,,,,,,,,,,,,31,0,31,0,,,,,,,,,,,,,,,,,,,,,,,,,,,,,,,,,,,,,,,,,,,,,,,,,6893.581693699583,None,,,,,,,,,,,,,,,,,,,,,,,,,,,,,,,,,,,,,,,,,,,,,,,,,,,,,,,,,brain,166,32,aloud,new,blue,6892.303504000418,None,y,6892.303504000418,None,"['y', 'return']","[1.1009345008060336, 1.2450983002781868]",6892.303504000418,None,,,63,001,2023_May_01_0949,ExactRep-v3-final,2021.2.3,59.956819258561765,
,,,,,,,,,,,,32,0,32,0,,,,,,,,,,,,,,,,,,,,,,,,,,,,,,,,,,,,,,,,,,,,,,,,,6895.049918400124,None,,,,,,,,,,,,,,,,,,,,,,,,,,,,,,,,,,,,,,,,,,,,,,,,,,,,,,,,,method,125,33,silent,new,red,6894.086900699884,None,y,6894.086900699884,None,"['y', 'return']","[0.7178090000525117, 0.9256744002923369]",6894.086900699884,None,,,63,001,2023_May_01_0949,ExactRep-v3-final,2021.2.3,59.956819258561765,
,,,,,,,,,,,,33,0,33,0,,,,,,,,,,,,,,,,,,,,,,,,,,,,,,,,,,,,,,,,,,,,,,,,,6896.534738699906,None,,,,,,,,,,,,,,,,,,,,,,,,,,,,,,,,,,,,,,,,,,,,,,,,,,,,,,,,,hall,221,34,sing,new,white,6895.559290500358,None,n,6895.559290500358,None,"['n', 'return']","[0.6052182000130415, 0.9334247000515461]",6895.559290500358,None,,,63,001,2023_May_01_0949,ExactRep-v3-final,2021.2.3,59.956819258561765,
,,,,,,,,,,,,34,0,34,0,,,,,,,,,,,,,,,,,,,,,,,,,,,,,,,,,,,,,,,,,,,,,,,,,6897.819199900143,None,,,,,,,,,,,,,,,,,,,,,,,,,,,,,,,,,,,,,,,,,,,,,,,,,,,,,,,,,troops,195,35,sing,new,white,6897.0458150003105,None,n,6897.0458150003105,None,"['n', 'return']","[0.5827589007094502, 0.7348265005275607]",6897.0458150003105,None,,,63,001,2023_May_01_0949,ExactRep-v3-final,2021.2.3,59.956819258561765,
,,,,,,,,,,,,35,0,35,0,,,,,,,,,,,,,,,,,,,,,,,,,,,,,,,,,,,,,,,,,,,,,,,,,6899.320771199651,None,,,,,,,,,,,,,,,,,,,,,,,,,,,,,,,,,,,,,,,,,,,,,,,,,,,,,,,,,power,58,36,silent,old,red,6898.327010599896,None,y,6898.327010599896,None,"['y', 'return']","[0.7895450992509723, 0.9496296998113394]",6898.327010599896,None,,,63,001,2023_May_01_0949,ExactRep-v3-final,2021.2.3,59.956819258561765,
,,,,,,,,,,,,36,0,36,0,,,,,,,,,,,,,,,,,,,,,,,,,,,,,,,,,,,,,,,,,,,,,,,,,6900.974205300212,None,,,,,,,,,,,,,,,,,,,,,,,,,,,,,,,,,,,,,,,,,,,,,,,,,,,,,,,,,author,200,37,aloud,new,blue,6899.831380800344,None,n,6899.831380800344,None,"['n', 'return']","[0.933122799731791, 1.101210399530828]",6899.831380800344,None,,,63,001,2023_May_01_0949,ExactRep-v3-final,2021.2.3,59.956819258561765,
,,,,,,,,,,,,37,0,37,0,,,,,,,,,,,,,,,,,,,,,,,,,,,,,,,,,,,,,,,,,,,,,,,,,6902.5741087999195,None,,,,,,,,,,,,,,,,,,,,,,,,,,,,,,,,,,,,,,,,,,,,,,,,,,,,,,,,,event,148,38,silent,new,red,6901.500641600229,None,y,6901.500641600229,None,"['y', 'return']","[0.8717711996287107, 1.03186499979347]",6901.500641600229,None,,,63,001,2023_May_01_0949,ExactRep-v3-final,2021.2.3,59.956819258561765,
,,,,,,,,,,,,38,0,38,0,,,,,,,,,,,,,,,,,,,,,,,,,,,,,,,,,,,,,,,,,,,,,,,,,6905.093044299632,None,,,,,,,,,,,,,,,,,,,,,,,,,,,,,,,,,,,,,,,,,,,,,,,,,,,,,,,,,money,193,39,sing,new,white,6903.077974099666,None,y,6903.077974099666,None,"['y', 'return']","[1.7986155999824405, 1.9747770996764302]",6903.077974099666,None,,,63,001,2023_May_01_0949,ExactRep-v3-final,2021.2.3,59.956819258561765,
,,,,,,,,,,,,39,0,39,0,,,,,,,,,,,,,,,,,,,,,,,,,,,,,,,,,,,,,,,,,,,,,,,,,6906.361168500036,None,,,,,,,,,,,,,,,,,,,,,,,,,,,,,,,,,,,,,,,,,,,,,,,,,,,,,,,,,storm,22,40,sing,old,white,6905.610432100482,None,y,6905.610432100482,None,"['y', 'return']","[0.5221616998314857, 0.7060701996088028]",6905.610432100482,None,,,63,001,2023_May_01_0949,ExactRep-v3-final,2021.2.3,59.956819258561765,
,,,,,,,,,,,,40,0,40,0,,,,,,,,,,,,,,,,,,,,,,,,,,,,,,,,,,,,,,,,,,,,,,,,,6907.979536499828,None,,,,,,,,,,,,,,,,,,,,,,,,,,,,,,,,,,,,,,,,,,,,,,,,,,,,,,,,,kiss,185,41,sing,new,white,6906.870422000065,None,y,6906.870422000065,None,"['y', 'return']","[0.4380970001220703, 1.0622600000351667]",6906.870422000065,None,,,63,001,2023_May_01_0949,ExactRep-v3-final,2021.2.3,59.956819258561765,
,,,,,,,,,,,,41,0,41,0,,,,,,,,,,,,,,,,,,,,,,,,,,,,,,,,,,,,,,,,,,,,,,,,,6909.8146048001945,None,,,,,,,,,,,,,,,,,,,,,,,,,,,,,,,,,,,,,,,,,,,,,,,,,,,,,,,,,hour,162,42,aloud,new,blue,6908.489114600234,None,y,6908.489114600234,None,"['y', 'return']","[1.1073436001315713, 1.2833330994471908]",6908.489114600234,None,,,63,001,2023_May_01_0949,ExactRep-v3-final,2021.2.3,59.956819258561765,
,,,,,,,,,,,,42,0,42,0,,,,,,,,,,,,,,,,,,,,,,,,,,,,,,,,,,,,,,,,,,,,,,,,,6911.299219800159,None,,,,,,,,,,,,,,,,,,,,,,,,,,,,,,,,,,,,,,,,,,,,,,,,,,,,,,,,,thought,90,43,aloud,old,blue,6910.323284899816,None,y,6910.323284899816,None,"['y', 'return']","[0.7934412006288767, 0.9376452006399632]",6910.323284899816,None,,,63,001,2023_May_01_0949,ExactRep-v3-final,2021.2.3,59.956819258561765,
,,,,,,,,,,,,43,0,43,0,,,,,,,,,,,,,,,,,,,,,,,,,,,,,,,,,,,,,,,,,,,,,,,,,6912.834447500296,None,,,,,,,,,,,,,,,,,,,,,,,,,,,,,,,,,,,,,,,,,,,,,,,,,,,,,,,,,lad,184,44,aloud,new,blue,6911.807115799747,None,n,6911.807115799747,None,"['n', 'return']","[0.7814312996342778, 0.9815108999609947]",6911.807115799747,None,,,63,001,2023_May_01_0949,ExactRep-v3-final,2021.2.3,59.956819258561765,
,,,,,,,,,,,,44,0,44,0,,,,,,,,,,,,,,,,,,,,,,,,,,,,,,,,,,,,,,,,,,,,,,,,,6914.269019000232,None,,,,,,,,,,,,,,,,,,,,,,,,,,,,,,,,,,,,,,,,,,,,,,,,,,,,,,,,,clock,132,45,silent,new,red,6913.3444541003555,None,y,6913.3444541003555,None,"['y', 'return']","[0.684052299708128, 0.8841324001550674]",6913.3444541003555,None,,,63,001,2023_May_01_0949,ExactRep-v3-final,2021.2.3,59.956819258561765,
,,,,,,,,,,,,45,0,45,0,,,,,,,,,,,,,,,,,,,,,,,,,,,,,,,,,,,,,,,,,,,,,,,,,6915.603738799691,None,,,,,,,,,,,,,,,,,,,,,,,,,,,,,,,,,,,,,,,,,,,,,,,,,,,,,,,,,lake,173,46,sing,new,white,6914.772384200245,None,n,6914.772384200245,None,"['n', 'return']","[0.5681927995756269, 0.7923945998772979]",6914.772384200245,None,,,63,001,2023_May_01_0949,ExactRep-v3-final,2021.2.3,59.956819258561765,
,,,,,,,,,,,,46,0,46,0,,,,,,,,,,,,,,,,,,,,,,,,,,,,,,,,,,,,,,,,,,,,,,,,,6917.172104399651,None,,,,,,,,,,,,,,,,,,,,,,,,,,,,,,,,,,,,,,,,,,,,,,,,,,,,,,,,,disease,85,47,aloud,old,blue,6916.115208899602,None,y,6916.115208899602,None,"['y', 'return']","[0.8253554999828339, 1.0094249993562698]",6916.115208899602,None,,,63,001,2023_May_01_0949,ExactRep-v3-final,2021.2.3,59.956819258561765,
,,,,,,,,,,,,47,0,47,0,,,,,,,,,,,,,,,,,,,,,,,,,,,,,,,,,,,,,,,,,,,,,,,,,6918.990399300121,None,,,,,,,,,,,,,,,,,,,,,,,,,,,,,,,,,,,,,,,,,,,,,,,,,,,,,,,,,journal,77,48,silent,old,red,6917.684017700143,None,n,6917.684017700143,None,"['n', 'return']","[0.9285014001652598, 1.264525200240314]",6917.684017700143,None,,,63,001,2023_May_01_0949,ExactRep-v3-final,2021.2.3,59.956819258561765,
,,,,,,,,,,,,48,0,48,0,,,,,,,,,,,,,,,,,,,,,,,,,,,,,,,,,,,,,,,,,,,,,,,,,6920.508605199866,None,,,,,,,,,,,,,,,,,,,,,,,,,,,,,,,,,,,,,,,,,,,,,,,,,,,,,,,,,corn,168,49,aloud,new,blue,6919.501241600141,None,n,6919.501241600141,None,"['n', 'return']","[0.7594628008082509, 0.9675352005288005]",6919.501241600141,None,,,63,001,2023_May_01_0949,ExactRep-v3-final,2021.2.3,59.956819258561765,
,,,,,,,,,,,,49,0,49,0,,,,,,,,,,,,,,,,,,,,,,,,,,,,,,,,,,,,,,,,,,,,,,,,,6922.060171400197,None,,,,,,,,,,,,,,,,,,,,,,,,,,,,,,,,,,,,,,,,,,,,,,,,,,,,,,,,,prayer,67,50,silent,old,red,6921.019702999853,None,y,6921.019702999853,None,"['y', 'return']","[0.8406859999522567, 1.0009630005806684]",6921.019702999853,None,,,63,001,2023_May_01_0949,ExactRep-v3-final,2021.2.3,59.956819258561765,
,,,,,,,,,,,,50,0,50,0,,,,,,,,,,,,,,,,,,,,,,,,,,,,,,,,,,,,,,,,,,,,,,,,,6923.2113343002275,None,,,,,,,,,,,,,,,,,,,,,,,,,,,,,,,,,,,,,,,,,,,,,,,,,,,,,,,,,volume,115,51,aloud,old,blue,6922.5693369004875,None,y,6922.5693369004875,None,"['y', 'return']","[0.5392912002280354, 0.6033367002382874]",6922.5693369004875,None,,,63,001,2023_May_01_0949,ExactRep-v3-final,2021.2.3,59.956819258561765,
,,,,,,,,,,,,51,0,51,0,,,,,,,,,,,,,,,,,,,,,,,,,,,,,,,,,,,,,,,,,,,,,,,,,6924.462495599873,None,,,,,,,,,,,,,,,,,,,,,,,,,,,,,,,,,,,,,,,,,,,,,,,,,,,,,,,,,chance,32,52,sing,old,white,6923.724200599827,None,y,6923.724200599827,None,"['y', 'return']","[0.28829520009458065, 0.7042992999777198]",6923.724200599827,None,,,63,001,2023_May_01_0949,ExactRep-v3-final,2021.2.3,59.956819258561765,
,,,,,,,,,,,,52,0,52,0,,,,,,,,,,,,,,,,,,,,,,,,,,,,,,,,,,,,,,,,,,,,,,,,,6925.680362599902,None,,,,,,,,,,,,,,,,,,,,,,,,,,,,,,,,,,,,,,,,,,,,,,,,,,,,,,,,,prison,117,53,aloud,old,blue,6924.963007300161,None,y,6924.963007300161,None,"['y', 'return']","[0.3054272001609206, 0.6734648002311587]",6924.963007300161,None,,,63,001,2023_May_01_0949,ExactRep-v3-final,2021.2.3,59.956819258561765,
,,,,,,,,,,,,53,0,53,0,,,,,,,,,,,,,,,,,,,,,,,,,,,,,,,,,,,,,,,,,,,,,,,,,6927.015160899609,None,,,,,,,,,,,,,,,,,,,,,,,,,,,,,,,,,,,,,,,,,,,,,,,,,,,,,,,,,fur,237,54,sing,new,white,6926.188188999891,None,n,6926.188188999891,None,"['n', 'return']","[0.5445958999916911, 0.7843909999355674]",6926.188188999891,None,,,63,001,2023_May_01_0949,ExactRep-v3-final,2021.2.3,59.956819258561765,
,,,,,,,,,,,,54,0,54,0,,,,,,,,,,,,,,,,,,,,,,,,,,,,,,,,,,,,,,,,,,,,,,,,,6928.5167132997885,None,,,,,,,,,,,,,,,,,,,,,,,,,,,,,,,,,,,,,,,,,,,,,,,,,,,,,,,,,river,89,55,aloud,old,blue,6927.5264065004885,None,n,6927.5264065004885,None,"['n', 'return']","[0.7982470998540521, 0.9502663994207978]",6927.5264065004885,None,,,63,001,2023_May_01_0949,ExactRep-v3-final,2021.2.3,59.956819258561765,
,,,,,,,,,,,,55,0,55,0,,,,,,,,,,,,,,,,,,,,,,,,,,,,,,,,,,,,,,,,,,,,,,,,,6929.817939000204,None,,,,,,,,,,,,,,,,,,,,,,,,,,,,,,,,,,,,,,,,,,,,,,,,,,,,,,,,,coffee,164,56,aloud,new,blue,6929.022047400475,None,n,6929.022047400475,None,"['n', 'return']","[0.5184042006731033, 0.7506508007645607]",6929.022047400475,None,,,63,001,2023_May_01_0949,ExactRep-v3-final,2021.2.3,59.956819258561765,
,,,,,,,,,,,,56,0,56,0,,,,,,,,,,,,,,,,,,,,,,,,,,,,,,,,,,,,,,,,,,,,,,,,,6931.619721099734,None,,,,,,,,,,,,,,,,,,,,,,,,,,,,,,,,,,,,,,,,,,,,,,,,,,,,,,,,,bottle,71,57,silent,old,red,6930.327491600066,None,y,6930.327491600066,None,"['y', 'return']","[1.0931877000257373, 1.2450981000438333]",6930.327491600066,None,,,63,001,2023_May_01_0949,ExactRep-v3-final,2021.2.3,59.956819258561765,
,,,,,,,,,,,,57,0,57,0,,,,,,,,,,,,,,,,,,,,,,,,,,,,,,,,,,,,,,,,,,,,,,,,,6933.105616699904,None,,,,,,,,,,,,,,,,,,,,,,,,,,,,,,,,,,,,,,,,,,,,,,,,,,,,,,,,,wife,1,58,sing,old,white,6932.130218300037,None,n,6932.130218300037,None,"['n', 'return']","[0.7302334001287818, 0.9302802998572588]",6932.130218300037,None,,,63,001,2023_May_01_0949,ExactRep-v3-final,2021.2.3,59.956819258561765,
,,,,,,,,,,,,58,0,58,0,,,,,,,,,,,,,,,,,,,,,,,,,,,,,,,,,,,,,,,,,,,,,,,,,6934.439458100125,None,,,,,,,,,,,,,,,,,,,,,,,,,,,,,,,,,,,,,,,,,,,,,,,,,,,,,,,,,horse,108,59,aloud,old,blue,6933.615870200098,None,n,6933.615870200098,None,"['n', 'return']","[0.6206500995904207, 0.788570299744606]",6933.615870200098,None,,,63,001,2023_May_01_0949,ExactRep-v3-final,2021.2.3,59.956819258561765,
,,,,,,,,,,,,59,0,59,0,,,,,,,,,,,,,,,,,,,,,,,,,,,,,,,,,,,,,,,,,,,,,,,,,6935.657111600041,None,,,,,,,,,,,,,,,,,,,,,,,,,,,,,,,,,,,,,,,,,,,,,,,,,,,,,,,,,nail,122,60,silent,new,red,6934.948399200104,None,n,6934.948399200104,None,"['n', 'return']","[0.544416599906981, 0.6721319993957877]",6934.948399200104,None,,,63,001,2023_May_01_0949,ExactRep-v3-final,2021.2.3,59.956819258561765,
,,,,,,,,,,,,60,0,60,0,,,,,,,,,,,,,,,,,,,,,,,,,,,,,,,,,,,,,,,,,,,,,,,,,6936.775059400126,None,,,,,,,,,,,,,,,,,,,,,,,,,,,,,,,,,,,,,,,,,,,,,,,,,,,,,,,,,flower,129,61,silent,new,red,6936.176392699592,None,n,6936.176392699592,None,"['n', 'return']","[0.37212010007351637, 0.5641716001555324]",6936.176392699592,None,,,63,001,2023_May_01_0949,ExactRep-v3-final,2021.2.3,59.956819258561765,
,,,,,,,,,,,,61,0,61,0,,,,,,,,,,,,,,,,,,,,,,,,,,,,,,,,,,,,,,,,,,,,,,,,,6938.49347830005,None,,,,,,,,,,,,,,,,,,,,,,,,,,,,,,,,,,,,,,,,,,,,,,,,,,,,,,,,,animal,225,62,sing,new,white,6937.285331999883,None,n,6937.285331999883,None,"['n', 'return']","[0.975352599285543, 1.1673594992607832]",6937.285331999883,None,,,63,001,2023_May_01_0949,ExactRep-v3-final,2021.2.3,59.956819258561765,
,,,,,,,,,,,,62,0,62,0,,,,,,,,,,,,,,,,,,,,,,,,,,,,,,,,,,,,,,,,,,,,,,,,,6939.894763699733,None,,,,,,,,,,,,,,,,,,,,,,,,,,,,,,,,,,,,,,,,,,,,,,,,,,,,,,,,,anger,93,63,aloud,old,blue,6938.996871899813,None,y,6938.996871899813,None,"['y', 'return']","[0.6876939004287124, 0.8638319997116923]",6938.996871899813,None,,,63,001,2023_May_01_0949,ExactRep-v3-final,2021.2.3,59.956819258561765,
,,,,,,,,,,,,63,0,63,0,,,,,,,,,,,,,,,,,,,,,,,,,,,,,,,,,,,,,,,,,,,,,,,,,6941.179310600273,None,,,,,,,,,,,,,,,,,,,,,,,,,,,,,,,,,,,,,,,,,,,,,,,,,,,,,,,,,party,7,64,sing,old,white,6940.406078900211,None,n,6940.406078900211,None,"['n', 'return']","[0.49452599976211786, 0.7265701005235314]",6940.406078900211,None,,,63,001,2023_May_01_0949,ExactRep-v3-final,2021.2.3,59.956819258561765,
,,,,,,,,,,,,64,0,64,0,,,,,,,,,,,,,,,,,,,,,,,,,,,,,,,,,,,,,,,,,,,,,,,,,6942.997747000307,None,,,,,,,,,,,,,,,,,,,,,,,,,,,,,,,,,,,,,,,,,,,,,,,,,,,,,,,,,wheat,210,65,aloud,new,blue,6941.690451500006,None,y,6941.690451500006,None,"['y', 'return']","[0.7140292003750801, 1.2742111003026366]",6941.690451500006,None,,,63,001,2023_May_01_0949,ExactRep-v3-final,2021.2.3,59.956819258561765,
,,,,,,,,,,,,65,0,65,0,,,,,,,,,,,,,,,,,,,,,,,,,,,,,,,,,,,,,,,,,,,,,,,,,6944.132333599962,None,,,,,,,,,,,,,,,,,,,,,,,,,,,,,,,,,,,,,,,,,,,,,,,,,,,,,,,,,rod,146,66,silent,new,red,6943.5069629997015,None,n,6943.5069629997015,None,"['n', 'return']","[0.3056440996006131, 0.5936745004728436]",6943.5069629997015,None,,,63,001,2023_May_01_0949,ExactRep-v3-final,2021.2.3,59.956819258561765,
,,,,,,,,,,,,66,0,66,0,,,,,,,,,,,,,,,,,,,,,,,,,,,,,,,,,,,,,,,,,,,,,,,,,6945.5003477996215,None,,,,,,,,,,,,,,,,,,,,,,,,,,,,,,,,,,,,,,,,,,,,,,,,,,,,,,,,,plant,170,67,aloud,new,blue,6944.64205509983,None,y,6944.64205509983,None,"['y', 'return']","[0.6026546005159616, 0.8108839001506567]",6944.64205509983,None,,,63,001,2023_May_01_0949,ExactRep-v3-final,2021.2.3,59.956819258561765,
,,,,,,,,,,,,67,0,67,0,,,,,,,,,,,,,,,,,,,,,,,,,,,,,,,,,,,,,,,,,,,,,,,,,6947.068676000461,None,,,,,,,,,,,,,,,,,,,,,,,,,,,,,,,,,,,,,,,,,,,,,,,,,,,,,,,,,humour,29,68,sing,old,white,6946.010713599622,None,y,6946.010713599622,None,"['y', 'return']","[0.8579670004546642, 1.0098371002823114]",6946.010713599622,None,,,63,001,2023_May_01_0949,ExactRep-v3-final,2021.2.3,59.956819258561765,
,,,,,,,,,,,,68,0,68,0,,,,,,,,,,,,,,,,,,,,,,,,,,,,,,,,,,,,,,,,,,,,,,,,,6948.553335400298,None,,,,,,,,,,,,,,,,,,,,,,,,,,,,,,,,,,,,,,,,,,,,,,,,,,,,,,,,,market,145,69,silent,new,red,6947.582154500298,None,n,6947.582154500298,None,"['n', 'return']","[0.7584434999153018, 0.93468530010432]",6947.582154500298,None,,,63,001,2023_May_01_0949,ExactRep-v3-final,2021.2.3,59.956819258561765,
,,,,,,,,,,,,69,0,69,0,,,,,,,,,,,,,,,,,,,,,,,,,,,,,,,,,,,,,,,,,,,,,,,,,6949.787930199876,None,,,,,,,,,,,,,,,,,,,,,,,,,,,,,,,,,,,,,,,,,,,,,,,,,,,,,,,,,dawn,207,70,sing,new,white,6949.062006100081,None,n,6949.062006100081,None,"['n', 'return']","[0.5025784000754356, 0.6786379003897309]",6949.062006100081,None,,,63,001,2023_May_01_0949,ExactRep-v3-final,2021.2.3,59.956819258561765,
,,,,,,,,,,,,70,0,70,0,,,,,,,,,,,,,,,,,,,,,,,,,,,,,,,,,,,,,,,,,,,,,,,,,6950.805677399971,None,,,,,,,,,,,,,,,,,,,,,,,,,,,,,,,,,,,,,,,,,,,,,,,,,,,,,,,,,queen,175,71,sing,new,white,6950.309579700232,None,n,6950.309579700232,None,"['n', 'return']","[0.3349761003628373, 0.45500870048999786]",6950.309579700232,None,,,63,001,2023_May_01_0949,ExactRep-v3-final,2021.2.3,59.956819258561765,
,,,,,,,,,,,,71,0,71,0,,,,,,,,,,,,,,,,,,,,,,,,,,,,,,,,,,,,,,,,,,,,,,,,,6952.90760200005,None,,,,,,,,,,,,,,,,,,,,,,,,,,,,,,,,,,,,,,,,,,,,,,,,,,,,,,,,,crime,134,72,silent,new,red,6951.318939500488,None,y,6951.318939500488,None,"['y', 'return']","[1.3975956998765469, 1.5416083000600338]",6951.318939500488,None,,,63,001,2023_May_01_0949,ExactRep-v3-final,2021.2.3,59.956819258561765,
,,,,,,,,,,,,72,0,72,0,,,,,,,,,,,,,,,,,,,,,,,,,,,,,,,,,,,,,,,,,,,,,,,,,6953.975327500142,None,,,,,,,,,,,,,,,,,,,,,,,,,,,,,,,,,,,,,,,,,,,,,,,,,,,,,,,,,judge,206,73,aloud,new,blue,6953.417568899691,None,n,6953.417568899691,None,"['n', 'return']","[0.3231105003505945, 0.5229847999289632]",6953.417568899691,None,,,63,001,2023_May_01_0949,ExactRep-v3-final,2021.2.3,59.956819258561765,
,,,,,,,,,,,,73,0,73,0,,,,,,,,,,,,,,,,,,,,,,,,,,,,,,,,,,,,,,,,,,,,,,,,,6955.06005469989,None,,,,,,,,,,,,,,,,,,,,,,,,,,,,,,,,,,,,,,,,,,,,,,,,,,,,,,,,,theory,79,74,sing,old,white,6954.483215400018,None,n,6954.483215400018,None,"['n', 'return']","[0.257341300137341, 0.5295501006767154]",6954.483215400018,None,,,63,001,2023_May_01_0949,ExactRep-v3-final,2021.2.3,59.956819258561765,
,,,,,,,,,,,,74,0,74,0,,,,,,,,,,,,,,,,,,,,,,,,,,,,,,,,,,,,,,,,,,,,,,,,,6956.027471500449,None,,,,,,,,,,,,,,,,,,,,,,,,,,,,,,,,,,,,,,,,,,,,,,,,,,,,,,,,,leader,167,75,sing,new,white,6955.569500000216,None,n,6955.569500000216,None,"['n', 'return']","[0.24308389984071255, 0.4190675001591444]",6955.569500000216,None,,,63,001,2023_May_01_0949,ExactRep-v3-final,2021.2.3,59.956819258561765,
,,,,,,,,,,,,75,0,75,0,,,,,,,,,,,,,,,,,,,,,,,,,,,,,,,,,,,,,,,,,,,,,,,,,6957.379195599817,None,,,,,,,,,,,,,,,,,,,,,,,,,,,,,,,,,,,,,,,,,,,,,,,,,,,,,,,,,quality,155,76,silent,new,red,6956.5396047001705,None,n,6956.5396047001705,None,"['n', 'return']","[0.6650999998673797, 0.7930803997442126]",6956.5396047001705,None,,,63,001,2023_May_01_0949,ExactRep-v3-final,2021.2.3,59.956819258561765,
,,,,,,,,,,,,76,0,76,0,,,,,,,,,,,,,,,,,,,,,,,,,,,,,,,,,,,,,,,,,,,,,,,,,6958.480015699752,None,,,,,,,,,,,,,,,,,,,,,,,,,,,,,,,,,,,,,,,,,,,,,,,,,,,,,,,,,woods,140,77,silent,new,red,6957.887133300304,None,n,6957.887133300304,None,"['n', 'return']","[0.317760500125587, 0.5578764993697405]",6957.887133300304,None,,,63,001,2023_May_01_0949,ExactRep-v3-final,2021.2.3,59.956819258561765,
,,,,,,,,,,,,77,0,77,0,,,,,,,,,,,,,,,,,,,,,,,,,,,,,,,,,,,,,,,,,,,,,,,,,6959.755190899596,None,,,,,,,,,,,,,,,,,,,,,,,,,,,,,,,,,,,,,,,,,,,,,,,,,,,,,,,,,time,142,78,silent,new,red,6958.989459499717,None,y,6958.989459499717,None,"['y', 'return']","[0.4631015993654728, 0.7112504998221993]",6958.989459499717,None,,,63,001,2023_May_01_0949,ExactRep-v3-final,2021.2.3,59.956819258561765,
,,,,,,,,,,,,78,0,78,0,,,,,,,,,,,,,,,,,,,,,,,,,,,,,,,,,,,,,,,,,,,,,,,,,6960.8488889997825,None,,,,,,,,,,,,,,,,,,,,,,,,,,,,,,,,,,,,,,,,,,,,,,,,,,,,,,,,,custom,131,79,silent,new,red,6960.277793600224,None,y,6960.277793600224,None,"['y', 'return']","[0.286863099783659, 0.5267517995089293]",6960.277793600224,None,,,63,001,2023_May_01_0949,ExactRep-v3-final,2021.2.3,59.956819258561765,
,,,,,,,,,,,,79,0,79,0,,,,,,,,,,,,,,,,,,,,,,,,,,,,,,,,,,,,,,,,,,,,,,,,,6962.100289000198,None,,,,,,,,,,,,,,,,,,,,,,,,,,,,,,,,,,,,,,,,,,,,,,,,,,,,,,,,,death,75,80,silent,old,red,6961.355747699738,None,y,6961.355747699738,None,"['y', 'return']","[0.3688554996624589, 0.6969026001170278]",6961.355747699738,None,,,63,001,2023_May_01_0949,ExactRep-v3-final,2021.2.3,59.956819258561765,
,,,,,,,,,,,,80,0,80,0,,,,,,,,,,,,,,,,,,,,,,,,,,,,,,,,,,,,,,,,,,,,,,,,,6963.535044499673,None,,,,,,,,,,,,,,,,,,,,,,,,,,,,,,,,,,,,,,,,,,,,,,,,,,,,,,,,,temple,220,81,aloud,new,blue,6962.609704400413,None,y,6962.609704400413,None,"['y', 'return']","[0.7148003997281194, 0.882906399667263]",6962.609704400413,None,,,63,001,2023_May_01_0949,ExactRep-v3-final,2021.2.3,59.956819258561765,
,,,,,,,,,,,,81,0,81,0,,,,,,,,,,,,,,,,,,,,,,,,,,,,,,,,,,,,,,,,,,,,,,,,,6965.153182899579,None,,,,,,,,,,,,,,,,,,,,,,,,,,,,,,,,,,,,,,,,,,,,,,,,,,,,,,,,,bar,165,82,sing,new,white,6964.041507899761,None,n,6964.041507899761,None,"['n', 'return']","[0.8750494001433253, 1.067013000138104]",6964.041507899761,None,,,63,001,2023_May_01_0949,ExactRep-v3-final,2021.2.3,59.956819258561765,
,,,,,,,,,,,,82,0,82,0,,,,,,,,,,,,,,,,,,,,,,,,,,,,,,,,,,,,,,,,,,,,,,,,,6966.454570200294,None,,,,,,,,,,,,,,,,,,,,,,,,,,,,,,,,,,,,,,,,,,,,,,,,,,,,,,,,,form,186,83,aloud,new,blue,6965.66458929982,None,y,6965.66458929982,None,"['y', 'return']","[0.5798859000205994, 0.7558533996343613]",6965.66458929982,None,,,63,001,2023_May_01_0949,ExactRep-v3-final,2021.2.3,59.956819258561765,
,,,,,,,,,,,,83,0,83,0,,,,,,,,,,,,,,,,,,,,,,,,,,,,,,,,,,,,,,,,,,,,,,,,,6968.189718100242,None,,,,,,,,,,,,,,,,,,,,,,,,,,,,,,,,,,,,,,,,,,,,,,,,,,,,,,,,,window,73,84,silent,old,red,6966.963430600241,None,y,6966.963430600241,None,"['y', 'return']","[0.9291787995025516, 1.1933244997635484]",6966.963430600241,None,,,63,001,2023_May_01_0949,ExactRep-v3-final,2021.2.3,59.956819258561765,
,,,,,,,,,,,,84,0,84,0,,,,,,,,,,,,,,,,,,,,,,,,,,,,,,,,,,,,,,,,,,,,,,,,,6969.974840899929,None,,,,,,,,,,,,,,,,,,,,,,,,,,,,,,,,,,,,,,,,,,,,,,,,,,,,,,,,,dust,216,85,aloud,new,blue,6968.698913799599,None,y,6968.698913799599,None,"['y', 'return']","[1.1216479996219277, 1.241631300188601]",6968.698913799599,None,,,63,001,2023_May_01_0949,ExactRep-v3-final,2021.2.3,59.956819258561765,
,,,,,,,,,,,,85,0,85,0,,,,,,,,,,,,,,,,,,,,,,,,,,,,,,,,,,,,,,,,,,,,,,,,,6972.026884400286,None,,,,,,,,,,,,,,,,,,,,,,,,,,,,,,,,,,,,,,,,,,,,,,,,,,,,,,,,,effort,233,86,sing,new,white,6970.487488999963,None,n,6970.487488999963,None,"['n', 'return']","[1.3091124007478356, 1.5012026000767946]",6970.487488999963,None,,,63,001,2023_May_01_0949,ExactRep-v3-final,2021.2.3,59.956819258561765,
,,,,,,,,,,,,86,0,86,0,,,,,,,,,,,,,,,,,,,,,,,,,,,,,,,,,,,,,,,,,,,,,,,,,6973.47823380027,None,,,,,,,,,,,,,,,,,,,,,,,,,,,,,,,,,,,,,,,,,,,,,,,,,,,,,,,,,bowl,211,87,sing,new,white,6972.533592400141,None,n,6972.533592400141,None,"['n', 'return']","[0.8550658002495766, 0.9109679004177451]",6972.533592400141,None,,,63,001,2023_May_01_0949,ExactRep-v3-final,2021.2.3,59.956819258561765,
,,,,,,,,,,,,87,0,87,0,,,,,,,,,,,,,,,,,,,,,,,,,,,,,,,,,,,,,,,,,,,,,,,,,6975.080052900128,None,,,,,,,,,,,,,,,,,,,,,,,,,,,,,,,,,,,,,,,,,,,,,,,,,,,,,,,,,bird,39,88,silent,old,red,6973.987762699835,None,y,6973.987762699835,None,"['y', 'return']","[0.8809406999498606, 1.0570519994944334]",6973.987762699835,None,,,63,001,2023_May_01_0949,ExactRep-v3-final,2021.2.3,59.956819258561765,
,,,,,,,,,,,,88,0,88,0,,,,,,,,,,,,,,,,,,,,,,,,,,,,,,,,,,,,,,,,,,,,,,,,,6977.182044800371,None,,,,,,,,,,,,,,,,,,,,,,,,,,,,,,,,,,,,,,,,,,,,,,,,,,,,,,,,,fact,133,89,silent,new,red,6975.583800200373,None,y,6975.583800200373,None,"['y', 'return']","[1.3649394996464252, 1.557064799591899]",6975.583800200373,None,,,63,001,2023_May_01_0949,ExactRep-v3-final,2021.2.3,59.956819258561765,
,,,,,,,,,,,,89,0,89,0,,,,,,,,,,,,,,,,,,,,,,,,,,,,,,,,,,,,,,,,,,,,,,,,,6978.7168749999255,None,,,,,,,,,,,,,,,,,,,,,,,,,,,,,,,,,,,,,,,,,,,,,,,,,,,,,,,,,vessel,65,90,silent,old,red,6977.691748799756,None,y,6977.691748799756,None,"['y', 'return']","[0.8247734000906348, 0.9928425000980496]",6977.691748799756,None,,,63,001,2023_May_01_0949,ExactRep-v3-final,2021.2.3,59.956819258561765,
,,,,,,,,,,,,90,0,90,0,,,,,,,,,,,,,,,,,,,,,,,,,,,,,,,,,,,,,,,,,,,,,,,,,6980.285112399608,None,,,,,,,,,,,,,,,,,,,,,,,,,,,,,,,,,,,,,,,,,,,,,,,,,,,,,,,,,flesh,120,91,silent,new,red,6979.232636099681,None,n,6979.232636099681,None,"['n', 'return']","[0.8041150001809001, 1.0122258001938462]",6979.232636099681,None,,,63,001,2023_May_01_0949,ExactRep-v3-final,2021.2.3,59.956819258561765,
,,,,,,,,,,,,91,0,91,0,,,,,,,,,,,,,,,,,,,,,,,,,,,,,,,,,,,,,,,,,,,,,,,,,6981.703203700483,None,,,,,,,,,,,,,,,,,,,,,,,,,,,,,,,,,,,,,,,,,,,,,,,,,,,,,,,,,library,111,92,aloud,old,blue,6980.79381589964,None,y,6980.79381589964,None,"['y', 'return']","[0.7228068998083472, 0.8747223997488618]",6980.79381589964,None,,,63,001,2023_May_01_0949,ExactRep-v3-final,2021.2.3,59.956819258561765,
,,,,,,,,,,,,92,0,92,0,,,,,,,,,,,,,,,,,,,,,,,,,,,,,,,,,,,,,,,,,,,,,,,,,6983.037748499773,None,,,,,,,,,,,,,,,,,,,,,,,,,,,,,,,,,,,,,,,,,,,,,,,,,,,,,,,,,charm,37,93,sing,old,white,6982.212354900315,None,n,6982.212354900315,None,"['n', 'return']","[0.632328599691391, 0.7923640999943018]",6982.212354900315,None,,,63,001,2023_May_01_0949,ExactRep-v3-final,2021.2.3,59.956819258561765,
,,,,,,,,,,,,93,0,93,0,,,,,,,,,,,,,,,,,,,,,,,,,,,,,,,,,,,,,,,,,,,,,,,,,6984.472673700191,None,,,,,,,,,,,,,,,,,,,,,,,,,,,,,,,,,,,,,,,,,,,,,,,,,,,,,,,,,child,48,94,silent,old,red,6983.54768879991,None,n,6983.54768879991,None,"['n', 'return']","[0.7050297008827329, 0.8889652006328106]",6983.54768879991,None,,,63,001,2023_May_01_0949,ExactRep-v3-final,2021.2.3,59.956819258561765,
,,,,,,,,,,,,94,0,94,0,,,,,,,,,,,,,,,,,,,,,,,,,,,,,,,,,,,,,,,,,,,,,,,,,6985.7739551998675,None,,,,,,,,,,,,,,,,,,,,,,,,,,,,,,,,,,,,,,,,,,,,,,,,,,,,,,,,,college,197,95,sing,new,white,6984.973323499784,None,n,6984.973323499784,None,"['n', 'return']","[0.6713489005342126, 0.7674005003646016]",6984.973323499784,None,,,63,001,2023_May_01_0949,ExactRep-v3-final,2021.2.3,59.956819258561765,
,,,,,,,,,,,,95,0,95,0,,,,,,,,,,,,,,,,,,,,,,,,,,,,,,,,,,,,,,,,,,,,,,,,,6986.9586549000815,None,,,,,,,,,,,,,,,,,,,,,,,,,,,,,,,,,,,,,,,,,,,,,,,,,,,,,,,,,excuse,135,96,silent,new,red,6986.27722339984,None,n,6986.27722339984,None,"['n', 'return']","[0.33539049979299307, 0.6395265003666282]",6986.27722339984,None,,,63,001,2023_May_01_0949,ExactRep-v3-final,2021.2.3,59.956819258561765,
,,,,,,,,,,,,96,0,96,0,,,,,,,,,,,,,,,,,,,,,,,,,,,,,,,,,,,,,,,,,,,,,,,,,6988.326550300233,None,,,,,,,,,,,,,,,,,,,,,,,,,,,,,,,,,,,,,,,,,,,,,,,,,,,,,,,,,moral,53,97,silent,old,red,6987.470492700115,None,y,6987.470492700115,None,"['y', 'return']","[0.6780032003298402, 0.8141788998618722]",6987.470492700115,None,,,63,001,2023_May_01_0949,ExactRep-v3-final,2021.2.3,59.956819258561765,
,,,,,,,,,,,,97,0,97,0,,,,,,,,,,,,,,,,,,,,,,,,,,,,,,,,,,,,,,,,,,,,,,,,,6989.627809099853,None,,,,,,,,,,,,,,,,,,,,,,,,,,,,,,,,,,,,,,,,,,,,,,,,,,,,,,,,,colony,179,98,sing,new,white,6988.83655130025,None,n,6988.83655130025,None,"['n', 'return']","[0.6081868000328541, 0.7520705005154014]",6988.83655130025,None,,,63,001,2023_May_01_0949,ExactRep-v3-final,2021.2.3,59.956819258561765,
,,,,,,,,,,,,98,0,98,0,,,,,,,,,,,,,,,,,,,,,,,,,,,,,,,,,,,,,,,,,,,,,,,,,6990.995788199827,None,,,,,,,,,,,,,,,,,,,,,,,,,,,,,,,,,,,,,,,,,,,,,,,,,,,,,,,,,dollar,191,99,sing,new,white,6990.137895300053,None,n,6990.137895300053,None,"['n', 'return']","[0.6428607003763318, 0.8107161996886134]",6990.137895300053,None,,,63,001,2023_May_01_0949,ExactRep-v3-final,2021.2.3,59.956819258561765,
,,,,,,,,,,,,99,0,99,0,,,,,,,,,,,,,,,,,,,,,,,,,,,,,,,,,,,,,,,,,,,,,,,,,6992.380714599974,None,,,,,,,,,,,,,,,,,,,,,,,,,,,,,,,,,,,,,,,,,,,,,,,,,,,,,,,,,meat,69,100,silent,old,red,6991.505830800161,None,y,6991.505830800161,None,"['y', 'return']","[0.6590391006320715, 0.8351672003045678]",6991.505830800161,None,,,63,001,2023_May_01_0949,ExactRep-v3-final,2021.2.3,59.956819258561765,
,,,,,,,,,,,,100,0,100,0,,,,,,,,,,,,,,,,,,,,,,,,,,,,,,,,,,,,,,,,,,,,,,,,,6994.015472199768,None,,,,,,,,,,,,,,,,,,,,,,,,,,,,,,,,,,,,,,,,,,,,,,,,,,,,,,,,,pupil,121,101,silent,new,red,6992.889831000008,None,n,6992.889831000008,None,"['n', 'return']","[0.9069066001102328, 1.0910358000546694]",6992.889831000008,None,,,63,001,2023_May_01_0949,ExactRep-v3-final,2021.2.3,59.956819258561765,
,,,,,,,,,,,,101,0,101,0,,,,,,,,,,,,,,,,,,,,,,,,,,,,,,,,,,,,,,,,,,,,,,,,,6995.650610799901,None,,,,,,,,,,,,,,,,,,,,,,,,,,,,,,,,,,,,,,,,,,,,,,,,,,,,,,,,,master,100,102,aloud,old,blue,6994.523930200376,None,n,6994.523930200376,None,"['n', 'return']","[0.9527837997302413, 1.0887835994362831]",6994.523930200376,None,,,63,001,2023_May_01_0949,ExactRep-v3-final,2021.2.3,59.956819258561765,
,,,,,,,,,,,,102,0,102,0,,,,,,,,,,,,,,,,,,,,,,,,,,,,,,,,,,,,,,,,,,,,,,,,,6997.10206739977,None,,,,,,,,,,,,,,,,,,,,,,,,,,,,,,,,,,,,,,,,,,,,,,,,,,,,,,,,,square,174,103,aloud,new,blue,6996.151954700239,None,n,6996.151954700239,None,"['n', 'return']","[0.7565933000296354, 0.9087535003200173]",6996.151954700239,None,,,63,001,2023_May_01_0949,ExactRep-v3-final,2021.2.3,59.956819258561765,
,,,,,,,,,,,,103,0,103,0,,,,,,,,,,,,,,,,,,,,,,,,,,,,,,,,,,,,,,,,,,,,,,,,,6998.369903399609,None,,,,,,,,,,,,,,,,,,,,,,,,,,,,,,,,,,,,,,,,,,,,,,,,,,,,,,,,,metal,19,104,sing,old,white,6997.612871100195,None,n,6997.612871100195,None,"['n', 'return']","[0.591711699962616, 0.7117453003302217]",6997.612871100195,None,,,63,001,2023_May_01_0949,ExactRep-v3-final,2021.2.3,59.956819258561765,
,,,,,,,,,,,,104,0,104,0,,,,,,,,,,,,,,,,,,,,,,,,,,,,,,,,,,,,,,,,,,,,,,,,,6999.687819699757,None,,,,,,,,,,,,,,,,,,,,,,,,,,,,,,,,,,,,,,,,,,,,,,,,,,,,,,,,,teacher,198,105,aloud,new,blue,6998.885552200489,None,n,6998.885552200489,None,"['n', 'return']","[0.5510597992688417, 0.7671389998868108]",6998.885552200489,None,,,63,001,2023_May_01_0949,ExactRep-v3-final,2021.2.3,59.956819258561765,
,,,,,,,,,,,,105,0,105,0,,,,,,,,,,,,,,,,,,,,,,,,,,,,,,,,,,,,,,,,,,,,,,,,,7001.072824800387,None,,,,,,,,,,,,,,,,,,,,,,,,,,,,,,,,,,,,,,,,,,,,,,,,,,,,,,,,,camp,15,106,sing,old,white,7000.195895199664,None,n,7000.195895199664,None,"['n', 'return']","[0.6968831000849605, 0.8408082006499171]",7000.195895199664,None,,,63,001,2023_May_01_0949,ExactRep-v3-final,2021.2.3,59.956819258561765,
,,,,,,,,,,,,106,0,106,0,,,,,,,,,,,,,,,,,,,,,,,,,,,,,,,,,,,,,,,,,,,,,,,,,7002.3569881999865,None,,,,,,,,,,,,,,,,,,,,,,,,,,,,,,,,,,,,,,,,,,,,,,,,,,,,,,,,,sea,151,107,silent,new,red,7001.582682900131,None,n,7001.582682900131,None,"['n', 'return']","[0.6059681996703148, 0.7419466003775597]",7001.582682900131,None,,,63,001,2023_May_01_0949,ExactRep-v3-final,2021.2.3,59.956819258561765,
,,,,,,,,,,,,107,0,107,0,,,,,,,,,,,,,,,,,,,,,,,,,,,,,,,,,,,,,,,,,,,,,,,,,7003.708561000414,None,,,,,,,,,,,,,,,,,,,,,,,,,,,,,,,,,,,,,,,,,,,,,,,,,,,,,,,,,advice,104,108,aloud,old,blue,7002.860759000294,None,n,7002.860759000294,None,"['n', 'return']","[0.5679311007261276, 0.8081430001184344]",7002.860759000294,None,,,63,001,2023_May_01_0949,ExactRep-v3-final,2021.2.3,59.956819258561765,
,,,,,,,,,,,,108,0,108,0,,,,,,,,,,,,,,,,,,,,,,,,,,,,,,,,,,,,,,,,,,,,,,,,,7005.460233500227,None,,,,,,,,,,,,,,,,,,,,,,,,,,,,,,,,,,,,,,,,,,,,,,,,,,,,,,,,,apple,81,109,aloud,old,blue,7004.22654359974,None,y,7004.22654359974,None,"['y', 'n', 'return']","[0.6581279998645186, 1.0900654001161456, 1.2021775003522635]",7004.22654359974,None,,,63,001,2023_May_01_0949,ExactRep-v3-final,2021.2.3,59.956819258561765,
,,,,,,,,,,,,109,0,109,0,,,,,,,,,,,,,,,,,,,,,,,,,,,,,,,,,,,,,,,,,,,,,,,,,7006.594949400052,None,,,,,,,,,,,,,,,,,,,,,,,,,,,,,,,,,,,,,,,,,,,,,,,,,,,,,,,,,honour,62,110,silent,old,red,7005.969000100158,None,n,7005.969000100158,None,"['n', 'return']","[0.41169080045074224, 0.5877297008410096]",7005.969000100158,None,,,63,001,2023_May_01_0949,ExactRep-v3-final,2021.2.3,59.956819258561765,
,,,,,,,,,,,,110,0,110,0,,,,,,,,,,,,,,,,,,,,,,,,,,,,,,,,,,,,,,,,,,,,,,,,,7008.146425499581,None,,,,,,,,,,,,,,,,,,,,,,,,,,,,,,,,,,,,,,,,,,,,,,,,,,,,,,,,,pole,158,111,silent,new,red,7007.104217699729,None,n,7007.104217699729,None,"['n', 'return']","[0.8684160001575947, 0.9965042006224394]",7007.104217699729,None,,,63,001,2023_May_01_0949,ExactRep-v3-final,2021.2.3,59.956819258561765,
,,,,,,,,,,,,111,0,111,0,,,,,,,,,,,,,,,,,,,,,,,,,,,,,,,,,,,,,,,,,,,,,,,,,7009.397674299777,None,,,,,,,,,,,,,,,,,,,,,,,,,,,,,,,,,,,,,,,,,,,,,,,,,,,,,,,,,door,177,112,sing,new,white,7008.657102700323,None,n,7008.657102700323,None,"['n', 'return']","[0.5635627992451191, 0.7075211992487311]",7008.657102700323,None,,,63,001,2023_May_01_0949,ExactRep-v3-final,2021.2.3,59.956819258561765,
,,,,,,,,,,,,112,0,112,0,,,,,,,,,,,,,,,,,,,,,,,,,,,,,,,,,,,,,,,,,,,,,,,,,7010.899025600404,None,,,,,,,,,,,,,,,,,,,,,,,,,,,,,,,,,,,,,,,,,,,,,,,,,,,,,,,,,board,105,113,aloud,old,blue,7009.910344700329,None,n,7009.910344700329,None,"['n', 'return']","[0.7022910006344318, 0.9422971997410059]",7009.910344700329,None,,,63,001,2023_May_01_0949,ExactRep-v3-final,2021.2.3,59.956819258561765,
,,,,,,,,,,,,113,0,113,0,,,,,,,,,,,,,,,,,,,,,,,,,,,,,,,,,,,,,,,,,,,,,,,,,7012.417426900007,None,,,,,,,,,,,,,,,,,,,,,,,,,,,,,,,,,,,,,,,,,,,,,,,,,,,,,,,,,palace,222,114,aloud,new,blue,7011.413526600227,None,n,7011.413526600227,None,"['n', 'return']","[0.7990971999242902, 0.9590978994965553]",7011.413526600227,None,,,63,001,2023_May_01_0949,ExactRep-v3-final,2021.2.3,59.956819258561765,
,,,,,,,,,,,,114,0,114,0,,,,,,,,,,,,,,,,,,,,,,,,,,,,,,,,,,,,,,,,,,,,,,,,,7014.118967300281,None,,,,,,,,,,,,,,,,,,,,,,,,,,,,,,,,,,,,,,,,,,,,,,,,,,,,,,,,,hotel,78,115,silent,old,red,7012.925902900286,None,y,7012.925902900286,None,"['y', 'return']","[0.9909478994086385, 1.1509237997233868]",7012.925902900286,None,,,63,001,2023_May_01_0949,ExactRep-v3-final,2021.2.3,59.956819258561765,
,,,,,,,,,,,,115,0,115,0,,,,,,,,,,,,,,,,,,,,,,,,,,,,,,,,,,,,,,,,,,,,,,,,,7015.2533700000495,None,,,,,,,,,,,,,,,,,,,,,,,,,,,,,,,,,,,,,,,,,,,,,,,,,,,,,,,,,opinion,101,116,aloud,old,blue,7014.629112799652,None,n,7014.629112799652,None,"['n', 'return']","[0.4316285001114011, 0.5836211005225778]",7014.629112799652,None,,,63,001,2023_May_01_0949,ExactRep-v3-final,2021.2.3,59.956819258561765,
,,,,,,,,,,,,116,0,116,0,,,,,,,,,,,,,,,,,,,,,,,,,,,,,,,,,,,,,,,,,,,,,,,,,7016.721512800083,None,,,,,,,,,,,,,,,,,,,,,,,,,,,,,,,,,,,,,,,,,,,,,,,,,,,,,,,,,poet,8,117,sing,old,white,7015.761026400141,None,n,7015.761026400141,None,"['n', 'return']","[0.7316129999235272, 0.9236833993345499]",7015.761026400141,None,,,63,001,2023_May_01_0949,ExactRep-v3-final,2021.2.3,59.956819258561765,
,,,,,,,,,,,,117,0,117,0,,,,,,,,,,,,,,,,,,,,,,,,,,,,,,,,,,,,,,,,,,,,,,,,,7017.889375200495,None,,,,,,,,,,,,,,,,,,,,,,,,,,,,,,,,,,,,,,,,,,,,,,,,,,,,,,,,,shock,64,118,silent,old,red,7017.231626899913,None,n,7017.231626899913,None,"['n', 'return']","[0.4452641997486353, 0.6130220992490649]",7017.231626899913,None,,,63,001,2023_May_01_0949,ExactRep-v3-final,2021.2.3,59.956819258561765,
,,,,,,,,,,,,118,0,118,0,,,,,,,,,,,,,,,,,,,,,,,,,,,,,,,,,,,,,,,,,,,,,,,,,7018.973938699812,None,,,,,,,,,,,,,,,,,,,,,,,,,,,,,,,,,,,,,,,,,,,,,,,,,,,,,,,,,spirit,180,119,aloud,new,blue,7018.402763999999,None,y,7018.402763999999,None,"['y', 'return']","[0.33777649980038404, 0.5299497004598379]",7018.402763999999,None,,,63,001,2023_May_01_0949,ExactRep-v3-final,2021.2.3,59.956819258561765,
,,,,,,,,,,,,119,0,119,0,,,,,,,,,,,,,,,,,,,,,,,,,,,,,,,,,,,,,,,,,,,,,,,,,7020.275300100446,None,,,,,,,,,,,,,,,,,,,,,,,,,,,,,,,,,,,,,,,,,,,,,,,,,,,,,,,,,mother,11,120,sing,old,white,7019.477501600049,None,n,7019.477501600049,None,"['n', 'return']","[0.6390127995982766, 0.7510416004806757]",7019.477501600049,None,,,63,001,2023_May_01_0949,ExactRep-v3-final,2021.2.3,59.956819258561765,
,,,,,,,,,,,,120,0,120,0,,,,,,,,,,,,,,,,,,,,,,,,,,,,,,,,,,,,,,,,,,,,,,,,,7021.72657790035,None,,,,,,,,,,,,,,,,,,,,,,,,,,,,,,,,,,,,,,,,,,,,,,,,,,,,,,,,,person,228,121,aloud,new,blue,7020.781743200496,None,y,7020.781743200496,None,"['y', 'return']","[0.6951455995440483, 0.9031438995152712]",7020.781743200496,None,,,63,001,2023_May_01_0949,ExactRep-v3-final,2021.2.3,59.956819258561765,
,,,,,,,,,,,,121,0,121,0,,,,,,,,,,,,,,,,,,,,,,,,,,,,,,,,,,,,,,,,,,,,,,,,,7022.844304099679,None,,,,,,,,,,,,,,,,,,,,,,,,,,,,,,,,,,,,,,,,,,,,,,,,,,,,,,,,,health,130,122,silent,new,red,7022.2368246996775,None,n,7022.2368246996775,None,"['n', 'return']","[0.3278134996071458, 0.5678412998095155]",7022.2368246996775,None,,,63,001,2023_May_01_0949,ExactRep-v3-final,2021.2.3,59.956819258561765,
,,,,,,,,,,,,122,0,122,0,,,,,,,,,,,,,,,,,,,,,,,,,,,,,,,,,,,,,,,,,,,,,,,,,7024.012223999947,None,,,,,,,,,,,,,,,,,,,,,,,,,,,,,,,,,,,,,,,,,,,,,,,,,,,,,,,,,fault,124,123,silent,new,red,7023.358667000197,None,n,7023.358667000197,None,"['n', 'return']","[0.4459735993295908, 0.6138950996100903]",7023.358667000197,None,,,63,001,2023_May_01_0949,ExactRep-v3-final,2021.2.3,59.956819258561765,
,,,,,,,,,,,,123,0,123,0,,,,,,,,,,,,,,,,,,,,,,,,,,,,,,,,,,,,,,,,,,,,,,,,,7025.380176600069,None,,,,,,,,,,,,,,,,,,,,,,,,,,,,,,,,,,,,,,,,,,,,,,,,,,,,,,,,,body,112,124,aloud,old,blue,7024.524289400317,None,y,7024.524289400317,None,"['y', 'return']","[0.6484812004491687, 0.8165565002709627]",7024.524289400317,None,,,63,001,2023_May_01_0949,ExactRep-v3-final,2021.2.3,59.956819258561765,
,,,,,,,,,,,,124,0,124,0,,,,,,,,,,,,,,,,,,,,,,,,,,,,,,,,,,,,,,,,,,,,,,,,,7026.397931300104,None,,,,,,,,,,,,,,,,,,,,,,,,,,,,,,,,,,,,,,,,,,,,,,,,,,,,,,,,,church,183,125,sing,new,white,7025.894617100246,None,n,7025.894617100246,None,"['n', 'return']","[0.27800479996949434, 0.46222699992358685]",7025.894617100246,None,,,63,001,2023_May_01_0949,ExactRep-v3-final,2021.2.3,59.956819258561765,
,,,,,,,,,,,,125,0,125,0,,,,,,,,,,,,,,,,,,,,,,,,,,,,,,,,,,,,,,,,,,,,,,,,,7027.29875870049,None,,,,,,,,,,,,,,,,,,,,,,,,,,,,,,,,,,,,,,,,,,,,,,,,,,,,,,,,,duty,150,126,silent,new,red,7026.909645999782,None,n,7026.909645999782,None,"['n', 'return']","[0.23105499986559153, 0.3509513000026345]",7026.909645999782,None,,,63,001,2023_May_01_0949,ExactRep-v3-final,2021.2.3,59.956819258561765,
,,,,,,,,,,,,126,0,126,0,,,,,,,,,,,,,,,,,,,,,,,,,,,,,,,,,,,,,,,,,,,,,,,,,7028.349879199639,None,,,,,,,,,,,,,,,,,,,,,,,,,,,,,,,,,,,,,,,,,,,,,,,,,,,,,,,,,iron,50,127,silent,old,red,7027.80572959967,None,n,7027.80572959967,None,"['n', 'return']","[0.32691659964621067, 0.5030354997143149]",7027.80572959967,None,,,63,001,2023_May_01_0949,ExactRep-v3-final,2021.2.3,59.956819258561765,
,,,,,,,,,,,,127,0,127,0,,,,,,,,,,,,,,,,,,,,,,,,,,,,,,,,,,,,,,,,,,,,,,,,,7029.284036600031,None,,,,,,,,,,,,,,,,,,,,,,,,,,,,,,,,,,,,,,,,,,,,,,,,,,,,,,,,,army,107,128,aloud,old,blue,7028.85042489972,None,y,7028.85042489972,None,"['y', 'return']","[0.21030279994010925, 0.3862716993317008]",7028.85042489972,None,,,63,001,2023_May_01_0949,ExactRep-v3-final,2021.2.3,59.956819258561765,
,,,,,,,,,,,,128,0,128,0,,,,,,,,,,,,,,,,,,,,,,,,,,,,,,,,,,,,,,,,,,,,,,,,,7030.251876500435,None,,,,,,,,,,,,,,,,,,,,,,,,,,,,,,,,,,,,,,,,,,,,,,,,,,,,,,,,,sugar,51,129,silent,old,red,7029.787773500197,None,n,7029.787773500197,None,"['n', 'return']","[0.24091699998825788, 0.42496549990028143]",7029.787773500197,None,,,63,001,2023_May_01_0949,ExactRep-v3-final,2021.2.3,59.956819258561765,
,,,,,,,,,,,,129,0,129,0,,,,,,,,,,,,,,,,,,,,,,,,,,,,,,,,,,,,,,,,,,,,,,,,,7031.803260800429,None,,,,,,,,,,,,,,,,,,,,,,,,,,,,,,,,,,,,,,,,,,,,,,,,,,,,,,,,,maiden,10,130,sing,old,white,7030.76195500046,None,n,7030.76195500046,None,"['n', 'return']","[0.7789631998166442, 1.0028003994375467]",7030.76195500046,None,,,63,001,2023_May_01_0949,ExactRep-v3-final,2021.2.3,59.956819258561765,
,,,,,,,,,,,,130,0,130,0,,,,,,,,,,,,,,,,,,,,,,,,,,,,,,,,,,,,,,,,,,,,,,,,,7032.871251200326,None,,,,,,,,,,,,,,,,,,,,,,,,,,,,,,,,,,,,,,,,,,,,,,,,,,,,,,,,,weapon,47,131,silent,old,red,7032.322108400054,None,y,7032.322108400054,None,"['y', 'return']","[0.3468546001240611, 0.5064725000411272]",7032.322108400054,None,,,63,001,2023_May_01_0949,ExactRep-v3-final,2021.2.3,59.956819258561765,
,,,,,,,,,,,,131,0,131,0,,,,,,,,,,,,,,,,,,,,,,,,,,,,,,,,,,,,,,,,,,,,,,,,,7034.522825100459,None,,,,,,,,,,,,,,,,,,,,,,,,,,,,,,,,,,,,,,,,,,,,,,,,,,,,,,,,,village,196,132,aloud,new,blue,7033.381049799733,None,y,7033.381049799733,None,"['y', 'return']","[0.8796188998967409, 1.0956966998055577]",7033.381049799733,None,,,63,001,2023_May_01_0949,ExactRep-v3-final,2021.2.3,59.956819258561765,
,,,,,,,,,,,,132,0,132,0,,,,,,,,,,,,,,,,,,,,,,,,,,,,,,,,,,,,,,,,,,,,,,,,,7035.7405907996,None,,,,,,,,,,,,,,,,,,,,,,,,,,,,,,,,,,,,,,,,,,,,,,,,,,,,,,,,,life,137,133,silent,new,red,7035.033342200331,None,y,7035.033342200331,None,"['y', 'return']","[0.5073741003870964, 0.6594444001093507]",7035.033342200331,None,,,63,001,2023_May_01_0949,ExactRep-v3-final,2021.2.3,59.956819258561765,
