trials_fam.thisRepN,trials_fam.thisTrialN,trials_fam.thisN,trials_fam.thisIndex,trials_prc.thisRepN,trials_prc.thisTrialN,trials_prc.thisN,trials_prc.thisIndex,StudyLoop.thisRepN,StudyLoop.thisTrialN,StudyLoop.thisN,StudyLoop.thisIndex,TestLoop.thisRepN,TestLoop.thisTrialN,TestLoop.thisN,TestLoop.thisIndex,text_colortest.started,text_colortest.stopped,key_colortest.keys,key_colortest.rt,key_colortest.started,key_colortest.stopped,textCondition.started,textCondition.stopped,keyCondition.keys,keyCondition.rt,keyCondition.started,keyCondition.stopped,Condition_between,Condition_counterbal,keyWelcome.keys,keyWelcome.rt,keyWelcome.started,keyWelcome.stopped,welcome_a.started,welcome_a.stopped,welcome_b.started,welcome_b.stopped,welcome_c.started,welcome_c.stopped,welcome_d.started,welcome_d.stopped,welcome_e.started,welcome_e.stopped,welcome_f.started,welcome_f.stopped,key_resp_fam_inst.keys,key_resp_fam_inst.rt,key_resp_fam_inst.started,key_resp_fam_inst.stopped,fam_a.started,fam_a.stopped,fam_b.started,fam_b.stopped,fam_c.started,fam_c.stopped,fam_d.started,fam_d.stopped,fam_e.started,fam_e.stopped,fam_f.started,fam_f.stopped,text_famil.started,text_famil.stopped,textBlank500.started,textBlank500.stopped,key_resp_prc_inst.keys,key_resp_prc_inst.rt,key_resp_prc_inst.started,key_resp_prc_inst.stopped,prac_a.started,prac_a.stopped,prac_b.started,prac_b.stopped,prac_c.started,prac_c.stopped,prac_d.started,prac_d.stopped,prac_e.started,prac_e.stopped,prac_f.started,prac_f.stopped,text_prc_trial.started,text_prc_trial.stopped,key_resp_study_inst.keys,key_resp_study_inst.rt,key_resp_study_inst.started,key_resp_study_inst.stopped,crit_a.started,crit_a.stopped,crit_b.started,crit_b.stopped,crit_c.started,crit_c.stopped,crit_d.started,crit_d.stopped,crit_e.started,crit_e.stopped,crit_f.started,crit_f.stopped,study_word,study_num,study_order,study_type,word_color,textStudy.started,textStudy.stopped,keyStudy.keys,keyStudy.started,keyStudy.stopped,post_study.started,post_study.stopped,key_resp_post_study.keys,key_resp_post_study.rt,key_resp_post_study.started,key_resp_post_study.stopped,test_inst.started,test_inst.stopped,key_resp_test_inst.keys,key_resp_test_inst.rt,key_resp_test_inst.started,key_resp_test_inst.stopped,test_word,test_num,test_order,test_condition,old_new_test,word_color_test,textConf.started,textConf.stopped,Participant Response,textInput.started,textInput.stopped,keyResp.keys,keyResp.rt,keyResp.started,keyResp.stopped,textEnd.started,textEnd.stopped,participant,session,date,expName,psychopyVersion,frameRate,
,,,,,,,,,,,,,,,,32.02572729997337,None,y,1.0097976000979543,32.02572729997337,None,,,,,,,,,,,,,,,,,,,,,,,,,,,,,,,,,,,,,,,,,,,,,,,,,,,,,,,,,,,,,,,,,,,,,,,,,,,,,,,,,,,,,,,,,,,,,,,,,,,,,,,,,,,,,,,,,,,,,,64,001,2023_May_01_1149,ExactRep-v3-final,2021.2.3,59.96616715199747,
,,,,,,,,,,,,,,,,,,,,,,33.05255930032581,None,d,0.566996100358665,33.05255930032581,None,,,,,,,,,,,,,,,,,,,,,,,,,,,,,,,,,,,,,,,,,,,,,,,,,,,,,,,,,,,,,,,,,,,,,,,,,,,,,,,,,,,,,,,,,,,,,,,,,,,,,,,,,,,,,,,,64,001,2023_May_01_1149,ExactRep-v3-final,2021.2.3,59.96616715199747,
,,,,,,,,,,,,,,,,,,,,,,,,,,,,colorfoils,d,space,386.1138570997864,43.793972100131214,None,,,,,,,,,,,,,,,,,,,,,,,,,,,,,,,,,,,,,,,,,,,,,,,,,,,,,,,,,,,,,,,,,,,,,,,,,,,,,,,,,,,,,,,,,,,,,,,,,,,,,,,,,,64,001,2023_May_01_1149,ExactRep-v3-final,2021.2.3,59.96616715199747,
,,,,,,,,,,,,,,,,,,,,,,,,,,,,,,,,,,33.83458430040628,None,33.83458430040628,None,33.83458430040628,None,33.83458430040628,None,33.83458430040628,None,33.83458430040628,None,space,16.770886600017548,440.1290058000013,None,,,,,,,,,,,,,,,,,,,,,,,,,,,,,,,,,,,,,,,,,,,,,,,,,,,,,,,,,,,,,,,,,,,,,,,,,,,,,,,,,,,,,,,,,,64,001,2023_May_01_1149,ExactRep-v3-final,2021.2.3,59.96616715199747,
0,0,0,0,,,,,,,,,,,,,,,,,,,,,,,,,,,,,,,,,,,,,,,,,,,,,,,430.10266870073974,None,430.10266870073974,None,430.10266870073974,None,430.10266870073974,None,430.10266870073974,None,430.10266870073974,None,456.9821268003434,None,458.97835869994015,None,,,,,,,,,,,,,,,,,,,,,,,,,,,,,,,,,,,,,,,,,,,,,,,,,,,,,,,,,,,,,,,,,,,,,,,,,,64,001,2023_May_01_1149,ExactRep-v3-final,2021.2.3,59.96616715199747,
1,0,1,0,,,,,,,,,,,,,,,,,,,,,,,,,,,,,,,,,,,,,,,,,,,,,,,,,,,,,,,,,,,459.4920300003141,None,461.4975516004488,None,,,,,,,,,,,,,,,,,,,,,,,,,,,,,,,,,,,,,,,,,,,,,,,,,,,,,,,,,,,,,,,,,,,,,,,,,,64,001,2023_May_01_1149,ExactRep-v3-final,2021.2.3,59.96616715199747,
2,0,2,0,,,,,,,,,,,,,,,,,,,,,,,,,,,,,,,,,,,,,,,,,,,,,,,,,,,,,,,,,,,461.9981196001172,None,464.00004530046135,None,,,,,,,,,,,,,,,,,,,,,,,,,,,,,,,,,,,,,,,,,,,,,,,,,,,,,,,,,,,,,,,,,,,,,,,,,,64,001,2023_May_01_1149,ExactRep-v3-final,2021.2.3,59.96616715199747,
3,0,3,0,,,,,,,,,,,,,,,,,,,,,,,,,,,,,,,,,,,,,,,,,,,,,,,,,,,,,,,,,,,464.50039220042527,None,466.5024086004123,None,,,,,,,,,,,,,,,,,,,,,,,,,,,,,,,,,,,,,,,,,,,,,,,,,,,,,,,,,,,,,,,,,,,,,,,,,,64,001,2023_May_01_1149,ExactRep-v3-final,2021.2.3,59.96616715199747,
4,0,4,0,,,,,,,,,,,,,,,,,,,,,,,,,,,,,,,,,,,,,,,,,,,,,,,,,,,,,,,,,,,467.0139682004228,None,469.021615200676,None,,,,,,,,,,,,,,,,,,,,,,,,,,,,,,,,,,,,,,,,,,,,,,,,,,,,,,,,,,,,,,,,,,,,,,,,,,64,001,2023_May_01_1149,ExactRep-v3-final,2021.2.3,59.96616715199747,
5,0,5,0,,,,,,,,,,,,,,,,,,,,,,,,,,,,,,,,,,,,,,,,,,,,,,,,,,,,,,,,,,,469.52248110063374,None,471.5242702001706,None,,,,,,,,,,,,,,,,,,,,,,,,,,,,,,,,,,,,,,,,,,,,,,,,,,,,,,,,,,,,,,,,,,,,,,,,,,64,001,2023_May_01_1149,ExactRep-v3-final,2021.2.3,59.96616715199747,
6,0,6,0,,,,,,,,,,,,,,,,,,,,,,,,,,,,,,,,,,,,,,,,,,,,,,,,,,,,,,,,,,,472.02461480069906,None,474.026743600145,None,,,,,,,,,,,,,,,,,,,,,,,,,,,,,,,,,,,,,,,,,,,,,,,,,,,,,,,,,,,,,,,,,,,,,,,,,,64,001,2023_May_01_1149,ExactRep-v3-final,2021.2.3,59.96616715199747,
7,0,7,0,,,,,,,,,,,,,,,,,,,,,,,,,,,,,,,,,,,,,,,,,,,,,,,,,,,,,,,,,,,474.5275085000321,None,476.5292509002611,None,,,,,,,,,,,,,,,,,,,,,,,,,,,,,,,,,,,,,,,,,,,,,,,,,,,,,,,,,,,,,,,,,,,,,,,,,,64,001,2023_May_01_1149,ExactRep-v3-final,2021.2.3,59.96616715199747,
8,0,8,0,,,,,,,,,,,,,,,,,,,,,,,,,,,,,,,,,,,,,,,,,,,,,,,,,,,,,,,,,,,477.0318266004324,None,479.0318384002894,None,,,,,,,,,,,,,,,,,,,,,,,,,,,,,,,,,,,,,,,,,,,,,,,,,,,,,,,,,,,,,,,,,,,,,,,,,,64,001,2023_May_01_1149,ExactRep-v3-final,2021.2.3,59.96616715199747,
9,0,9,0,,,,,,,,,,,,,,,,,,,,,,,,,,,,,,,,,,,,,,,,,,,,,,,,,,,,,,,,,,,479.54283190052956,None,481.5510917007923,None,,,,,,,,,,,,,,,,,,,,,,,,,,,,,,,,,,,,,,,,,,,,,,,,,,,,,,,,,,,,,,,,,,,,,,,,,,64,001,2023_May_01_1149,ExactRep-v3-final,2021.2.3,59.96616715199747,
10,0,10,0,,,,,,,,,,,,,,,,,,,,,,,,,,,,,,,,,,,,,,,,,,,,,,,,,,,,,,,,,,,482.05886270012707,None,484.0702289007604,None,,,,,,,,,,,,,,,,,,,,,,,,,,,,,,,,,,,,,,,,,,,,,,,,,,,,,,,,,,,,,,,,,,,,,,,,,,64,001,2023_May_01_1149,ExactRep-v3-final,2021.2.3,59.96616715199747,
11,0,11,0,,,,,,,,,,,,,,,,,,,,,,,,,,,,,,,,,,,,,,,,,,,,,,,,,,,,,,,,,,,484.5716776000336,None,486.57263930048794,None,,,,,,,,,,,,,,,,,,,,,,,,,,,,,,,,,,,,,,,,,,,,,,,,,,,,,,,,,,,,,,,,,,,,,,,,,,64,001,2023_May_01_1149,ExactRep-v3-final,2021.2.3,59.96616715199747,
12,0,12,0,,,,,,,,,,,,,,,,,,,,,,,,,,,,,,,,,,,,,,,,,,,,,,,,,,,,,,,,,,,487.0754192005843,None,489.075181200169,None,,,,,,,,,,,,,,,,,,,,,,,,,,,,,,,,,,,,,,,,,,,,,,,,,,,,,,,,,,,,,,,,,,,,,,,,,,64,001,2023_May_01_1149,ExactRep-v3-final,2021.2.3,59.96616715199747,
13,0,13,0,,,,,,,,,,,,,,,,,,,,,,,,,,,,,,,,,,,,,,,,,,,,,,,,,,,,,,,,,,,489.5757150007412,None,491.57754600048065,None,,,,,,,,,,,,,,,,,,,,,,,,,,,,,,,,,,,,,,,,,,,,,,,,,,,,,,,,,,,,,,,,,,,,,,,,,,64,001,2023_May_01_1149,ExactRep-v3-final,2021.2.3,59.96616715199747,
14,0,14,0,,,,,,,,,,,,,,,,,,,,,,,,,,,,,,,,,,,,,,,,,,,,,,,,,,,,,,,,,,,492.0814692005515,None,494.0968400007114,None,,,,,,,,,,,,,,,,,,,,,,,,,,,,,,,,,,,,,,,,,,,,,,,,,,,,,,,,,,,,,,,,,,,,,,,,,,64,001,2023_May_01_1149,ExactRep-v3-final,2021.2.3,59.96616715199747,
,,,,,,,,,,,,,,,,,,,,,,,,,,,,,,,,,,,,,,,,,,,,,,,,,,,,,,,,,,,,,,,,,,space,18.793723599985242,504.6981614008546,None,,,,,,,,,,,,,,,,,,,,,,,,,,,,,,,,,,,,,,,,,,,,,,,,,,,,,,,,,,,,,,,,,,,,,,64,001,2023_May_01_1149,ExactRep-v3-final,2021.2.3,59.96616715199747,
,,,,0,0,0,0,,,,,,,,,,,,,,,,,,,,,,,,,,,,,,,,,,,,,,,,,,,,,,,,,,,,,,,,,525.5947964005172,None,,,,,494.730376300402,None,494.730376300402,None,494.730376300402,None,494.730376300402,None,494.730376300402,None,494.730376300402,None,523.5922491000965,None,,,,,,,,,,,,,,,,,,,,,,,,,,,,,,,,,,,,,,,,,,,,,,,,,,,,,,,,64,001,2023_May_01_1149,ExactRep-v3-final,2021.2.3,59.96616715199747,
,,,,1,0,1,0,,,,,,,,,,,,,,,,,,,,,,,,,,,,,,,,,,,,,,,,,,,,,,,,,,,,,,,,,528.0974873006344,None,,,,,,,,,,,,,,,,,526.0953058004379,None,,,,,,,,,,,,,,,,,,,,,,,,,,,,,,,,,,,,,,,,,,,,,,,,,,,,,,,,64,001,2023_May_01_1149,ExactRep-v3-final,2021.2.3,59.96616715199747,
,,,,2,0,2,0,,,,,,,,,,,,,,,,,,,,,,,,,,,,,,,,,,,,,,,,,,,,,,,,,,,,,,,,,530.5997852999717,None,,,,,,,,,,,,,,,,,528.597800699994,None,,,,,,,,,,,,,,,,,,,,,,,,,,,,,,,,,,,,,,,,,,,,,,,,,,,,,,,,64,001,2023_May_01_1149,ExactRep-v3-final,2021.2.3,59.96616715199747,
,,,,3,0,3,0,,,,,,,,,,,,,,,,,,,,,,,,,,,,,,,,,,,,,,,,,,,,,,,,,,,,,,,,,533.1023276001215,None,,,,,,,,,,,,,,,,,531.100484800525,None,,,,,,,,,,,,,,,,,,,,,,,,,,,,,,,,,,,,,,,,,,,,,,,,,,,,,,,,64,001,2023_May_01_1149,ExactRep-v3-final,2021.2.3,59.96616715199747,
,,,,4,0,4,0,,,,,,,,,,,,,,,,,,,,,,,,,,,,,,,,,,,,,,,,,,,,,,,,,,,,,,,,,535.6046400004998,None,,,,,,,,,,,,,,,,,533.6030326001346,None,,,,,,,,,,,,,,,,,,,,,,,,,,,,,,,,,,,,,,,,,,,,,,,,,,,,,,,,64,001,2023_May_01_1149,ExactRep-v3-final,2021.2.3,59.96616715199747,
,,,,5,0,5,0,,,,,,,,,,,,,,,,,,,,,,,,,,,,,,,,,,,,,,,,,,,,,,,,,,,,,,,,,538.1076022004709,None,,,,,,,,,,,,,,,,,536.1055742008612,None,,,,,,,,,,,,,,,,,,,,,,,,,,,,,,,,,,,,,,,,,,,,,,,,,,,,,,,,64,001,2023_May_01_1149,ExactRep-v3-final,2021.2.3,59.96616715199747,
,,,,6,0,6,0,,,,,,,,,,,,,,,,,,,,,,,,,,,,,,,,,,,,,,,,,,,,,,,,,,,,,,,,,540.609929700382,None,,,,,,,,,,,,,,,,,538.6081069000065,None,,,,,,,,,,,,,,,,,,,,,,,,,,,,,,,,,,,,,,,,,,,,,,,,,,,,,,,,64,001,2023_May_01_1149,ExactRep-v3-final,2021.2.3,59.96616715199747,
,,,,7,0,7,0,,,,,,,,,,,,,,,,,,,,,,,,,,,,,,,,,,,,,,,,,,,,,,,,,,,,,,,,,543.1123405005783,None,,,,,,,,,,,,,,,,,541.1104945000261,None,,,,,,,,,,,,,,,,,,,,,,,,,,,,,,,,,,,,,,,,,,,,,,,,,,,,,,,,64,001,2023_May_01_1149,ExactRep-v3-final,2021.2.3,59.96616715199747,
,,,,8,0,8,0,,,,,,,,,,,,,,,,,,,,,,,,,,,,,,,,,,,,,,,,,,,,,,,,,,,,,,,,,545.6149456007406,None,,,,,,,,,,,,,,,,,543.6130399005488,None,,,,,,,,,,,,,,,,,,,,,,,,,,,,,,,,,,,,,,,,,,,,,,,,,,,,,,,,64,001,2023_May_01_1149,ExactRep-v3-final,2021.2.3,59.96616715199747,
,,,,9,0,9,0,,,,,,,,,,,,,,,,,,,,,,,,,,,,,,,,,,,,,,,,,,,,,,,,,,,,,,,,,548.1175033003092,None,,,,,,,,,,,,,,,,,546.1156379003078,None,,,,,,,,,,,,,,,,,,,,,,,,,,,,,,,,,,,,,,,,,,,,,,,,,,,,,,,,64,001,2023_May_01_1149,ExactRep-v3-final,2021.2.3,59.96616715199747,
,,,,10,0,10,0,,,,,,,,,,,,,,,,,,,,,,,,,,,,,,,,,,,,,,,,,,,,,,,,,,,,,,,,,550.6201141001657,None,,,,,,,,,,,,,,,,,548.618063500151,None,,,,,,,,,,,,,,,,,,,,,,,,,,,,,,,,,,,,,,,,,,,,,,,,,,,,,,,,64,001,2023_May_01_1149,ExactRep-v3-final,2021.2.3,59.96616715199747,
,,,,11,0,11,0,,,,,,,,,,,,,,,,,,,,,,,,,,,,,,,,,,,,,,,,,,,,,,,,,,,,,,,,,553.1225193003193,None,,,,,,,,,,,,,,,,,551.1206056000665,None,,,,,,,,,,,,,,,,,,,,,,,,,,,,,,,,,,,,,,,,,,,,,,,,,,,,,,,,64,001,2023_May_01_1149,ExactRep-v3-final,2021.2.3,59.96616715199747,
,,,,12,0,12,0,,,,,,,,,,,,,,,,,,,,,,,,,,,,,,,,,,,,,,,,,,,,,,,,,,,,,,,,,555.625087200664,None,,,,,,,,,,,,,,,,,553.6230755001307,None,,,,,,,,,,,,,,,,,,,,,,,,,,,,,,,,,,,,,,,,,,,,,,,,,,,,,,,,64,001,2023_May_01_1149,ExactRep-v3-final,2021.2.3,59.96616715199747,
,,,,13,0,13,0,,,,,,,,,,,,,,,,,,,,,,,,,,,,,,,,,,,,,,,,,,,,,,,,,,,,,,,,,558.1276543000713,None,,,,,,,,,,,,,,,,,556.1254434008151,None,,,,,,,,,,,,,,,,,,,,,,,,,,,,,,,,,,,,,,,,,,,,,,,,,,,,,,,,64,001,2023_May_01_1149,ExactRep-v3-final,2021.2.3,59.96616715199747,
,,,,14,0,14,0,,,,,,,,,,,,,,,,,,,,,,,,,,,,,,,,,,,,,,,,,,,,,,,,,,,,,,,,,560.6301970006898,None,,,,,,,,,,,,,,,,,558.6281293006614,None,,,,,,,,,,,,,,,,,,,,,,,,,,,,,,,,,,,,,,,,,,,,,,,,,,,,,,,,64,001,2023_May_01_1149,ExactRep-v3-final,2021.2.3,59.96616715199747,
,,,,,,,,,,,,,,,,,,,,,,,,,,,,,,,,,,,,,,,,,,,,,,,,,,,,,,,,,,,,,,,,,,,,,,,,,,,,,,,,,,,,space,25.14424209948629,571.2442279001698,None,,,,,,,,,,,,,,,,,,,,,,,,,,,,,,,,,,,,,,,,,,,,,,,,,,,,64,001,2023_May_01_1149,ExactRep-v3-final,2021.2.3,59.96616715199747,
,,,,,,,,0,0,0,0,,,,,,,,,,,,,,,,,,,,,,,,,,,,,,,,,,,,,,,,,,,,,,,,,,,,,598.4511263007298,None,,,,,,,,,,,,,,,,,,,,,,,561.3063544007018,None,561.3063544007018,None,561.3063544007018,None,561.3063544007018,None,561.3063544007018,None,561.3063544007018,None,officer,42,1,silent,white,596.4515463002026,None,None,596.4515463002026,None,,,,,,,,,,,,,,,,,,,,,,,,,,,,,,64,001,2023_May_01_1149,ExactRep-v3-final,2021.2.3,59.96616715199747,
,,,,,,,,1,0,1,0,,,,,,,,,,,,,,,,,,,,,,,,,,,,,,,,,,,,,,,,,,,,,,,,,,,,,600.9701837003231,None,,,,,,,,,,,,,,,,,,,,,,,,,,,,,,,,,,,village,50,2,silent,white,598.9555802000687,None,None,598.9555802000687,None,,,,,,,,,,,,,,,,,,,,,,,,,,,,,,64,001,2023_May_01_1149,ExactRep-v3-final,2021.2.3,59.96616715199747,
,,,,,,,,2,0,2,0,,,,,,,,,,,,,,,,,,,,,,,,,,,,,,,,,,,,,,,,,,,,,,,,,,,,,603.4726920006797,None,,,,,,,,,,,,,,,,,,,,,,,,,,,,,,,,,,,vessel,77,3,silent,white,601.4707010006532,None,None,601.4707010006532,None,,,,,,,,,,,,,,,,,,,,,,,,,,,,,,64,001,2023_May_01_1149,ExactRep-v3-final,2021.2.3,59.96616715199747,
,,,,,,,,3,0,3,0,,,,,,,,,,,,,,,,,,,,,,,,,,,,,,,,,,,,,,,,,,,,,,,,,,,,,605.9751586001366,None,,,,,,,,,,,,,,,,,,,,,,,,,,,,,,,,,,,nail,30,4,sing,red,603.9755714004859,None,None,603.9755714004859,None,,,,,,,,,,,,,,,,,,,,,,,,,,,,,,64,001,2023_May_01_1149,ExactRep-v3-final,2021.2.3,59.96616715199747,
,,,,,,,,4,0,4,0,,,,,,,,,,,,,,,,,,,,,,,,,,,,,,,,,,,,,,,,,,,,,,,,,,,,,608.4943222999573,None,,,,,,,,,,,,,,,,,,,,,,,,,,,,,,,,,,,present,106,5,aloud,blue,606.4809408001602,None,None,606.4809408001602,None,,,,,,,,,,,,,,,,,,,,,,,,,,,,,,64,001,2023_May_01_1149,ExactRep-v3-final,2021.2.3,59.96616715199747,
,,,,,,,,5,0,5,0,,,,,,,,,,,,,,,,,,,,,,,,,,,,,,,,,,,,,,,,,,,,,,,,,,,,,610.9971190001816,None,,,,,,,,,,,,,,,,,,,,,,,,,,,,,,,,,,,memory,56,6,silent,white,608.997327000834,None,None,608.997327000834,None,,,,,,,,,,,,,,,,,,,,,,,,,,,,,,64,001,2023_May_01_1149,ExactRep-v3-final,2021.2.3,59.96616715199747,
,,,,,,,,6,0,6,0,,,,,,,,,,,,,,,,,,,,,,,,,,,,,,,,,,,,,,,,,,,,,,,,,,,,,613.5162081001326,None,,,,,,,,,,,,,,,,,,,,,,,,,,,,,,,,,,,window,88,7,aloud,blue,611.502495800145,None,None,611.502495800145,None,,,,,,,,,,,,,,,,,,,,,,,,,,,,,,64,001,2023_May_01_1149,ExactRep-v3-final,2021.2.3,59.96616715199747,
,,,,,,,,7,0,7,0,,,,,,,,,,,,,,,,,,,,,,,,,,,,,,,,,,,,,,,,,,,,,,,,,,,,,616.0353712001815,None,,,,,,,,,,,,,,,,,,,,,,,,,,,,,,,,,,,theory,38,8,sing,red,614.0291423005983,None,None,614.0291423005983,None,,,,,,,,,,,,,,,,,,,,,,,,,,,,,,64,001,2023_May_01_1149,ExactRep-v3-final,2021.2.3,59.96616715199747,
,,,,,,,,8,0,8,0,,,,,,,,,,,,,,,,,,,,,,,,,,,,,,,,,,,,,,,,,,,,,,,,,,,,,618.5379378004,None,,,,,,,,,,,,,,,,,,,,,,,,,,,,,,,,,,,picture,112,9,aloud,blue,616.5357098001987,None,None,616.5357098001987,None,,,,,,,,,,,,,,,,,,,,,,,,,,,,,,64,001,2023_May_01_1149,ExactRep-v3-final,2021.2.3,59.96616715199747,
,,,,,,,,9,0,9,0,,,,,,,,,,,,,,,,,,,,,,,,,,,,,,,,,,,,,,,,,,,,,,,,,,,,,621.0568984001875,None,,,,,,,,,,,,,,,,,,,,,,,,,,,,,,,,,,,air,54,10,silent,white,619.0416816007346,None,None,619.0416816007346,None,,,,,,,,,,,,,,,,,,,,,,,,,,,,,,64,001,2023_May_01_1149,ExactRep-v3-final,2021.2.3,59.96616715199747,
,,,,,,,,10,0,10,0,,,,,,,,,,,,,,,,,,,,,,,,,,,,,,,,,,,,,,,,,,,,,,,,,,,,,623.5595752000809,None,,,,,,,,,,,,,,,,,,,,,,,,,,,,,,,,,,,avenue,61,11,silent,white,621.5584354000166,None,None,621.5584354000166,None,,,,,,,,,,,,,,,,,,,,,,,,,,,,,,64,001,2023_May_01_1149,ExactRep-v3-final,2021.2.3,59.96616715199747,
,,,,,,,,11,0,11,0,,,,,,,,,,,,,,,,,,,,,,,,,,,,,,,,,,,,,,,,,,,,,,,,,,,,,626.0620806999505,None,,,,,,,,,,,,,,,,,,,,,,,,,,,,,,,,,,,toy,12,12,sing,red,624.0616406006739,None,None,624.0616406006739,None,,,,,,,,,,,,,,,,,,,,,,,,,,,,,,64,001,2023_May_01_1149,ExactRep-v3-final,2021.2.3,59.96616715199747,
,,,,,,,,12,0,12,0,,,,,,,,,,,,,,,,,,,,,,,,,,,,,,,,,,,,,,,,,,,,,,,,,,,,,628.5813211007044,None,,,,,,,,,,,,,,,,,,,,,,,,,,,,,,,,,,,journal,8,13,sing,red,626.5682630008087,None,None,626.5682630008087,None,,,,,,,,,,,,,,,,,,,,,,,,,,,,,,64,001,2023_May_01_1149,ExactRep-v3-final,2021.2.3,59.96616715199747,
,,,,,,,,13,0,13,0,,,,,,,,,,,,,,,,,,,,,,,,,,,,,,,,,,,,,,,,,,,,,,,,,,,,,631.08355830051,None,,,,,,,,,,,,,,,,,,,,,,,,,,,,,,,,,,,wheat,95,14,aloud,blue,629.0815930999815,None,None,629.0815930999815,None,,,,,,,,,,,,,,,,,,,,,,,,,,,,,,64,001,2023_May_01_1149,ExactRep-v3-final,2021.2.3,59.96616715199747,
,,,,,,,,14,0,14,0,,,,,,,,,,,,,,,,,,,,,,,,,,,,,,,,,,,,,,,,,,,,,,,,,,,,,633.5862485002726,None,,,,,,,,,,,,,,,,,,,,,,,,,,,,,,,,,,,chance,85,15,aloud,blue,631.5840374007821,None,None,631.5840374007821,None,,,,,,,,,,,,,,,,,,,,,,,,,,,,,,64,001,2023_May_01_1149,ExactRep-v3-final,2021.2.3,59.96616715199747,
,,,,,,,,15,0,15,0,,,,,,,,,,,,,,,,,,,,,,,,,,,,,,,,,,,,,,,,,,,,,,,,,,,,,636.0888204006478,None,,,,,,,,,,,,,,,,,,,,,,,,,,,,,,,,,,,mother,37,16,sing,red,634.0863924007863,None,None,634.0863924007863,None,,,,,,,,,,,,,,,,,,,,,,,,,,,,,,64,001,2023_May_01_1149,ExactRep-v3-final,2021.2.3,59.96616715199747,
,,,,,,,,16,0,16,0,,,,,,,,,,,,,,,,,,,,,,,,,,,,,,,,,,,,,,,,,,,,,,,,,,,,,638.6080036005005,None,,,,,,,,,,,,,,,,,,,,,,,,,,,,,,,,,,,church,78,17,silent,white,636.5925953006372,None,None,636.5925953006372,None,,,,,,,,,,,,,,,,,,,,,,,,,,,,,,64,001,2023_May_01_1149,ExactRep-v3-final,2021.2.3,59.96616715199747,
,,,,,,,,17,0,17,0,,,,,,,,,,,,,,,,,,,,,,,,,,,,,,,,,,,,,,,,,,,,,,,,,,,,,641.126970000565,None,,,,,,,,,,,,,,,,,,,,,,,,,,,,,,,,,,,factory,90,18,aloud,blue,639.1125693004578,None,None,639.1125693004578,None,,,,,,,,,,,,,,,,,,,,,,,,,,,,,,64,001,2023_May_01_1149,ExactRep-v3-final,2021.2.3,59.96616715199747,
,,,,,,,,18,0,18,0,,,,,,,,,,,,,,,,,,,,,,,,,,,,,,,,,,,,,,,,,,,,,,,,,,,,,643.6295016007498,None,,,,,,,,,,,,,,,,,,,,,,,,,,,,,,,,,,,amount,101,19,aloud,blue,641.6284992005676,None,None,641.6284992005676,None,,,,,,,,,,,,,,,,,,,,,,,,,,,,,,64,001,2023_May_01_1149,ExactRep-v3-final,2021.2.3,59.96616715199747,
,,,,,,,,19,0,19,0,,,,,,,,,,,,,,,,,,,,,,,,,,,,,,,,,,,,,,,,,,,,,,,,,,,,,646.1486734002829,None,,,,,,,,,,,,,,,,,,,,,,,,,,,,,,,,,,,life,3,20,sing,red,644.1358649004251,None,None,644.1358649004251,None,,,,,,,,,,,,,,,,,,,,,,,,,,,,,,64,001,2023_May_01_1149,ExactRep-v3-final,2021.2.3,59.96616715199747,
,,,,,,,,20,0,20,0,,,,,,,,,,,,,,,,,,,,,,,,,,,,,,,,,,,,,,,,,,,,,,,,,,,,,648.6678274003789,None,,,,,,,,,,,,,,,,,,,,,,,,,,,,,,,,,,,troops,35,21,sing,red,646.6523755006492,None,None,646.6523755006492,None,,,,,,,,,,,,,,,,,,,,,,,,,,,,,,64,001,2023_May_01_1149,ExactRep-v3-final,2021.2.3,59.96616715199747,
,,,,,,,,21,0,21,0,,,,,,,,,,,,,,,,,,,,,,,,,,,,,,,,,,,,,,,,,,,,,,,,,,,,,651.1872116001323,None,,,,,,,,,,,,,,,,,,,,,,,,,,,,,,,,,,,army,7,22,sing,red,649.1738023003563,None,None,649.1738023003563,None,,,,,,,,,,,,,,,,,,,,,,,,,,,,,,64,001,2023_May_01_1149,ExactRep-v3-final,2021.2.3,59.96616715199747,
,,,,,,,,22,0,22,0,,,,,,,,,,,,,,,,,,,,,,,,,,,,,,,,,,,,,,,,,,,,,,,,,,,,,653.7064588004723,None,,,,,,,,,,,,,,,,,,,,,,,,,,,,,,,,,,,clock,82,23,aloud,blue,651.6919333003461,None,None,651.6919333003461,None,,,,,,,,,,,,,,,,,,,,,,,,,,,,,,64,001,2023_May_01_1149,ExactRep-v3-final,2021.2.3,59.96616715199747,
,,,,,,,,23,0,23,0,,,,,,,,,,,,,,,,,,,,,,,,,,,,,,,,,,,,,,,,,,,,,,,,,,,,,656.2255470007658,None,,,,,,,,,,,,,,,,,,,,,,,,,,,,,,,,,,,colony,109,24,aloud,blue,654.2098959004506,None,None,654.2098959004506,None,,,,,,,,,,,,,,,,,,,,,,,,,,,,,,64,001,2023_May_01_1149,ExactRep-v3-final,2021.2.3,59.96616715199747,
,,,,,,,,24,0,24,0,,,,,,,,,,,,,,,,,,,,,,,,,,,,,,,,,,,,,,,,,,,,,,,,,,,,,658.7282196003944,None,,,,,,,,,,,,,,,,,,,,,,,,,,,,,,,,,,,artist,111,25,aloud,blue,656.7260918002576,None,None,656.7260918002576,None,,,,,,,,,,,,,,,,,,,,,,,,,,,,,,64,001,2023_May_01_1149,ExactRep-v3-final,2021.2.3,59.96616715199747,
,,,,,,,,25,0,25,0,,,,,,,,,,,,,,,,,,,,,,,,,,,,,,,,,,,,,,,,,,,,,,,,,,,,,661.2304100999609,None,,,,,,,,,,,,,,,,,,,,,,,,,,,,,,,,,,,ship,53,26,silent,white,659.2304887007922,None,None,659.2304887007922,None,,,,,,,,,,,,,,,,,,,,,,,,,,,,,,64,001,2023_May_01_1149,ExactRep-v3-final,2021.2.3,59.96616715199747,
,,,,,,,,26,0,26,0,,,,,,,,,,,,,,,,,,,,,,,,,,,,,,,,,,,,,,,,,,,,,,,,,,,,,663.7329195002094,None,,,,,,,,,,,,,,,,,,,,,,,,,,,,,,,,,,,fur,24,27,sing,red,661.7307657999918,None,None,661.7307657999918,None,,,,,,,,,,,,,,,,,,,,,,,,,,,,,,64,001,2023_May_01_1149,ExactRep-v3-final,2021.2.3,59.96616715199747,
,,,,,,,,27,0,27,0,,,,,,,,,,,,,,,,,,,,,,,,,,,,,,,,,,,,,,,,,,,,,,,,,,,,,666.2356690000743,None,,,,,,,,,,,,,,,,,,,,,,,,,,,,,,,,,,,humour,33,28,sing,red,664.2334692999721,None,None,664.2334692999721,None,,,,,,,,,,,,,,,,,,,,,,,,,,,,,,64,001,2023_May_01_1149,ExactRep-v3-final,2021.2.3,59.96616715199747,
,,,,,,,,28,0,28,0,,,,,,,,,,,,,,,,,,,,,,,,,,,,,,,,,,,,,,,,,,,,,,,,,,,,,668.738743500784,None,,,,,,,,,,,,,,,,,,,,,,,,,,,,,,,,,,,effort,20,29,sing,red,666.7358878999949,None,None,666.7358878999949,None,,,,,,,,,,,,,,,,,,,,,,,,,,,,,,64,001,2023_May_01_1149,ExactRep-v3-final,2021.2.3,59.96616715199747,
,,,,,,,,29,0,29,0,,,,,,,,,,,,,,,,,,,,,,,,,,,,,,,,,,,,,,,,,,,,,,,,,,,,,671.257130600512,None,,,,,,,,,,,,,,,,,,,,,,,,,,,,,,,,,,,victory,102,30,aloud,blue,669.2440842008218,None,None,669.2440842008218,None,,,,,,,,,,,,,,,,,,,,,,,,,,,,,,64,001,2023_May_01_1149,ExactRep-v3-final,2021.2.3,59.96616715199747,
,,,,,,,,30,0,30,0,,,,,,,,,,,,,,,,,,,,,,,,,,,,,,,,,,,,,,,,,,,,,,,,,,,,,673.7765255002305,None,,,,,,,,,,,,,,,,,,,,,,,,,,,,,,,,,,,steam,0,31,sing,red,671.7667155005038,None,None,671.7667155005038,None,,,,,,,,,,,,,,,,,,,,,,,,,,,,,,64,001,2023_May_01_1149,ExactRep-v3-final,2021.2.3,59.96616715199747,
,,,,,,,,31,0,31,0,,,,,,,,,,,,,,,,,,,,,,,,,,,,,,,,,,,,,,,,,,,,,,,,,,,,,676.2789120003581,None,,,,,,,,,,,,,,,,,,,,,,,,,,,,,,,,,,,coin,46,32,silent,white,674.2792792003602,None,None,674.2792792003602,None,,,,,,,,,,,,,,,,,,,,,,,,,,,,,,64,001,2023_May_01_1149,ExactRep-v3-final,2021.2.3,59.96616715199747,
,,,,,,,,32,0,32,0,,,,,,,,,,,,,,,,,,,,,,,,,,,,,,,,,,,,,,,,,,,,,,,,,,,,,678.7980058006942,None,,,,,,,,,,,,,,,,,,,,,,,,,,,,,,,,,,,time,47,33,silent,white,676.7868846999481,None,None,676.7868846999481,None,,,,,,,,,,,,,,,,,,,,,,,,,,,,,,64,001,2023_May_01_1149,ExactRep-v3-final,2021.2.3,59.96616715199747,
,,,,,,,,33,0,33,0,,,,,,,,,,,,,,,,,,,,,,,,,,,,,,,,,,,,,,,,,,,,,,,,,,,,,681.3173813000321,None,,,,,,,,,,,,,,,,,,,,,,,,,,,,,,,,,,,dream,49,34,silent,white,679.3051305003464,None,None,679.3051305003464,None,,,,,,,,,,,,,,,,,,,,,,,,,,,,,,64,001,2023_May_01_1149,ExactRep-v3-final,2021.2.3,59.96616715199747,
,,,,,,,,34,0,34,0,,,,,,,,,,,,,,,,,,,,,,,,,,,,,,,,,,,,,,,,,,,,,,,,,,,,,683.8365882001817,None,,,,,,,,,,,,,,,,,,,,,,,,,,,,,,,,,,,owner,63,35,silent,white,681.8211106006056,None,None,681.8211106006056,None,,,,,,,,,,,,,,,,,,,,,,,,,,,,,,64,001,2023_May_01_1149,ExactRep-v3-final,2021.2.3,59.96616715199747,
,,,,,,,,35,0,35,0,,,,,,,,,,,,,,,,,,,,,,,,,,,,,,,,,,,,,,,,,,,,,,,,,,,,,686.3389953002334,None,,,,,,,,,,,,,,,,,,,,,,,,,,,,,,,,,,,hotel,71,36,silent,white,684.337051300332,None,None,684.337051300332,None,,,,,,,,,,,,,,,,,,,,,,,,,,,,,,64,001,2023_May_01_1149,ExactRep-v3-final,2021.2.3,59.96616715199747,
,,,,,,,,36,0,36,0,,,,,,,,,,,,,,,,,,,,,,,,,,,,,,,,,,,,,,,,,,,,,,,,,,,,,688.8417334007099,None,,,,,,,,,,,,,,,,,,,,,,,,,,,,,,,,,,,woods,10,37,sing,red,686.8409402007237,None,None,686.8409402007237,None,,,,,,,,,,,,,,,,,,,,,,,,,,,,,,64,001,2023_May_01_1149,ExactRep-v3-final,2021.2.3,59.96616715199747,
,,,,,,,,37,0,37,0,,,,,,,,,,,,,,,,,,,,,,,,,,,,,,,,,,,,,,,,,,,,,,,,,,,,,691.3441856000572,None,,,,,,,,,,,,,,,,,,,,,,,,,,,,,,,,,,,law,32,38,sing,red,689.3427984006703,None,None,689.3427984006703,None,,,,,,,,,,,,,,,,,,,,,,,,,,,,,,64,001,2023_May_01_1149,ExactRep-v3-final,2021.2.3,59.96616715199747,
,,,,,,,,38,0,38,0,,,,,,,,,,,,,,,,,,,,,,,,,,,,,,,,,,,,,,,,,,,,,,,,,,,,,693.863964500837,None,,,,,,,,,,,,,,,,,,,,,,,,,,,,,,,,,,,valley,29,39,sing,red,691.84787710011,None,None,691.84787710011,None,,,,,,,,,,,,,,,,,,,,,,,,,,,,,,64,001,2023_May_01_1149,ExactRep-v3-final,2021.2.3,59.96616715199747,
,,,,,,,,39,0,39,0,,,,,,,,,,,,,,,,,,,,,,,,,,,,,,,,,,,,,,,,,,,,,,,,,,,,,696.3823462007567,None,,,,,,,,,,,,,,,,,,,,,,,,,,,,,,,,,,,prayer,118,40,aloud,blue,694.3700608005747,None,None,694.3700608005747,None,,,,,,,,,,,,,,,,,,,,,,,,,,,,,,64,001,2023_May_01_1149,ExactRep-v3-final,2021.2.3,59.96616715199747,
,,,,,,,,40,0,40,0,,,,,,,,,,,,,,,,,,,,,,,,,,,,,,,,,,,,,,,,,,,,,,,,,,,,,698.9014395000413,None,,,,,,,,,,,,,,,,,,,,,,,,,,,,,,,,,,,college,57,41,silent,white,696.8924910007045,None,None,696.8924910007045,None,,,,,,,,,,,,,,,,,,,,,,,,,,,,,,64,001,2023_May_01_1149,ExactRep-v3-final,2021.2.3,59.96616715199747,
,,,,,,,,41,0,41,0,,,,,,,,,,,,,,,,,,,,,,,,,,,,,,,,,,,,,,,,,,,,,,,,,,,,,701.4040424004197,None,,,,,,,,,,,,,,,,,,,,,,,,,,,,,,,,,,,justice,55,42,silent,white,699.401991000399,None,None,699.401991000399,None,,,,,,,,,,,,,,,,,,,,,,,,,,,,,,64,001,2023_May_01_1149,ExactRep-v3-final,2021.2.3,59.96616715199747,
,,,,,,,,42,0,42,0,,,,,,,,,,,,,,,,,,,,,,,,,,,,,,,,,,,,,,,,,,,,,,,,,,,,,703.9233671007678,None,,,,,,,,,,,,,,,,,,,,,,,,,,,,,,,,,,,vision,81,43,aloud,blue,701.9079176001251,None,None,701.9079176001251,None,,,,,,,,,,,,,,,,,,,,,,,,,,,,,,64,001,2023_May_01_1149,ExactRep-v3-final,2021.2.3,59.96616715199747,
,,,,,,,,43,0,43,0,,,,,,,,,,,,,,,,,,,,,,,,,,,,,,,,,,,,,,,,,,,,,,,,,,,,,706.4258646005765,None,,,,,,,,,,,,,,,,,,,,,,,,,,,,,,,,,,,deed,62,44,silent,white,704.4236703002825,None,None,704.4236703002825,None,,,,,,,,,,,,,,,,,,,,,,,,,,,,,,64,001,2023_May_01_1149,ExactRep-v3-final,2021.2.3,59.96616715199747,
,,,,,,,,44,0,44,0,,,,,,,,,,,,,,,,,,,,,,,,,,,,,,,,,,,,,,,,,,,,,,,,,,,,,708.9450071007013,None,,,,,,,,,,,,,,,,,,,,,,,,,,,,,,,,,,,blood,44,45,silent,white,706.9346061004326,None,None,706.9346061004326,None,,,,,,,,,,,,,,,,,,,,,,,,,,,,,,64,001,2023_May_01_1149,ExactRep-v3-final,2021.2.3,59.96616715199747,
,,,,,,,,45,0,45,0,,,,,,,,,,,,,,,,,,,,,,,,,,,,,,,,,,,,,,,,,,,,,,,,,,,,,711.4474878003821,None,,,,,,,,,,,,,,,,,,,,,,,,,,,,,,,,,,,shoes,64,46,silent,white,709.44638590049,None,None,709.44638590049,None,,,,,,,,,,,,,,,,,,,,,,,,,,,,,,64,001,2023_May_01_1149,ExactRep-v3-final,2021.2.3,59.96616715199747,
,,,,,,,,46,0,46,0,,,,,,,,,,,,,,,,,,,,,,,,,,,,,,,,,,,,,,,,,,,,,,,,,,,,,713.9499923000112,None,,,,,,,,,,,,,,,,,,,,,,,,,,,,,,,,,,,cattle,41,47,silent,white,711.950480600819,None,None,711.950480600819,None,,,,,,,,,,,,,,,,,,,,,,,,,,,,,,64,001,2023_May_01_1149,ExactRep-v3-final,2021.2.3,59.96616715199747,
,,,,,,,,47,0,47,0,,,,,,,,,,,,,,,,,,,,,,,,,,,,,,,,,,,,,,,,,,,,,,,,,,,,,716.4524672999978,None,,,,,,,,,,,,,,,,,,,,,,,,,,,,,,,,,,,person,104,48,aloud,blue,714.4518052004278,None,None,714.4518052004278,None,,,,,,,,,,,,,,,,,,,,,,,,,,,,,,64,001,2023_May_01_1149,ExactRep-v3-final,2021.2.3,59.96616715199747,
,,,,,,,,48,0,48,0,,,,,,,,,,,,,,,,,,,,,,,,,,,,,,,,,,,,,,,,,,,,,,,,,,,,,718.9715351006016,None,,,,,,,,,,,,,,,,,,,,,,,,,,,,,,,,,,,king,117,49,aloud,blue,716.9630578001961,None,None,716.9630578001961,None,,,,,,,,,,,,,,,,,,,,,,,,,,,,,,64,001,2023_May_01_1149,ExactRep-v3-final,2021.2.3,59.96616715199747,
,,,,,,,,49,0,49,0,,,,,,,,,,,,,,,,,,,,,,,,,,,,,,,,,,,,,,,,,,,,,,,,,,,,,721.4910026006401,None,,,,,,,,,,,,,,,,,,,,,,,,,,,,,,,,,,,grief,86,50,aloud,blue,719.4806751003489,None,None,719.4806751003489,None,,,,,,,,,,,,,,,,,,,,,,,,,,,,,,64,001,2023_May_01_1149,ExactRep-v3-final,2021.2.3,59.96616715199747,
,,,,,,,,50,0,50,0,,,,,,,,,,,,,,,,,,,,,,,,,,,,,,,,,,,,,,,,,,,,,,,,,,,,,723.9931765999645,None,,,,,,,,,,,,,,,,,,,,,,,,,,,,,,,,,,,chief,27,51,sing,red,721.9913814002648,None,None,721.9913814002648,None,,,,,,,,,,,,,,,,,,,,,,,,,,,,,,64,001,2023_May_01_1149,ExactRep-v3-final,2021.2.3,59.96616715199747,
,,,,,,,,51,0,51,0,,,,,,,,,,,,,,,,,,,,,,,,,,,,,,,,,,,,,,,,,,,,,,,,,,,,,726.5123597001657,None,,,,,,,,,,,,,,,,,,,,,,,,,,,,,,,,,,,door,36,52,sing,red,724.4981643008068,None,None,724.4981643008068,None,,,,,,,,,,,,,,,,,,,,,,,,,,,,,,64,001,2023_May_01_1149,ExactRep-v3-final,2021.2.3,59.96616715199747,
,,,,,,,,52,0,52,0,,,,,,,,,,,,,,,,,,,,,,,,,,,,,,,,,,,,,,,,,,,,,,,,,,,,,729.0150880999863,None,,,,,,,,,,,,,,,,,,,,,,,,,,,,,,,,,,,insect,9,53,sing,red,727.0139276003465,None,None,727.0139276003465,None,,,,,,,,,,,,,,,,,,,,,,,,,,,,,,64,001,2023_May_01_1149,ExactRep-v3-final,2021.2.3,59.96616715199747,
,,,,,,,,53,0,53,0,,,,,,,,,,,,,,,,,,,,,,,,,,,,,,,,,,,,,,,,,,,,,,,,,,,,,731.5342743005604,None,,,,,,,,,,,,,,,,,,,,,,,,,,,,,,,,,,,crime,93,54,aloud,blue,729.5189621001482,None,None,729.5189621001482,None,,,,,,,,,,,,,,,,,,,,,,,,,,,,,,64,001,2023_May_01_1149,ExactRep-v3-final,2021.2.3,59.96616715199747,
,,,,,,,,54,0,54,0,,,,,,,,,,,,,,,,,,,,,,,,,,,,,,,,,,,,,,,,,,,,,,,,,,,,,734.0542556000873,None,,,,,,,,,,,,,,,,,,,,,,,,,,,,,,,,,,,arm,23,55,sing,red,732.0462383003905,None,None,732.0462383003905,None,,,,,,,,,,,,,,,,,,,,,,,,,,,,,,64,001,2023_May_01_1149,ExactRep-v3-final,2021.2.3,59.96616715199747,
,,,,,,,,55,0,55,0,,,,,,,,,,,,,,,,,,,,,,,,,,,,,,,,,,,,,,,,,,,,,,,,,,,,,736.5557600008324,None,,,,,,,,,,,,,,,,,,,,,,,,,,,,,,,,,,,doctor,51,56,silent,white,734.5556252002716,None,None,734.5556252002716,None,,,,,,,,,,,,,,,,,,,,,,,,,,,,,,64,001,2023_May_01_1149,ExactRep-v3-final,2021.2.3,59.96616715199747,
,,,,,,,,56,0,56,0,,,,,,,,,,,,,,,,,,,,,,,,,,,,,,,,,,,,,,,,,,,,,,,,,,,,,739.0583038004115,None,,,,,,,,,,,,,,,,,,,,,,,,,,,,,,,,,,,letter,14,57,sing,red,737.0578872002661,None,None,737.0578872002661,None,,,,,,,,,,,,,,,,,,,,,,,,,,,,,,64,001,2023_May_01_1149,ExactRep-v3-final,2021.2.3,59.96616715199747,
,,,,,,,,57,0,57,0,,,,,,,,,,,,,,,,,,,,,,,,,,,,,,,,,,,,,,,,,,,,,,,,,,,,,741.5776190999895,None,,,,,,,,,,,,,,,,,,,,,,,,,,,,,,,,,,,friend,60,58,silent,white,739.5658301003277,None,None,739.5658301003277,None,,,,,,,,,,,,,,,,,,,,,,,,,,,,,,64,001,2023_May_01_1149,ExactRep-v3-final,2021.2.3,59.96616715199747,
,,,,,,,,58,0,58,0,,,,,,,,,,,,,,,,,,,,,,,,,,,,,,,,,,,,,,,,,,,,,,,,,,,,,744.0802587000653,None,,,,,,,,,,,,,,,,,,,,,,,,,,,,,,,,,,,bird,15,59,sing,red,742.0791460005566,None,None,742.0791460005566,None,,,,,,,,,,,,,,,,,,,,,,,,,,,,,,64,001,2023_May_01_1149,ExactRep-v3-final,2021.2.3,59.96616715199747,
,,,,,,,,59,0,59,0,,,,,,,,,,,,,,,,,,,,,,,,,,,,,,,,,,,,,,,,,,,,,,,,,,,,,746.5993307000026,None,,,,,,,,,,,,,,,,,,,,,,,,,,,,,,,,,,,wine,21,60,sing,red,744.583978000097,None,None,744.583978000097,None,,,,,,,,,,,,,,,,,,,,,,,,,,,,,,64,001,2023_May_01_1149,ExactRep-v3-final,2021.2.3,59.96616715199747,
,,,,,,,,60,0,60,0,,,,,,,,,,,,,,,,,,,,,,,,,,,,,,,,,,,,,,,,,,,,,,,,,,,,,749.101687900722,None,,,,,,,,,,,,,,,,,,,,,,,,,,,,,,,,,,,green,110,61,aloud,blue,747.1012260001153,None,None,747.1012260001153,None,,,,,,,,,,,,,,,,,,,,,,,,,,,,,,64,001,2023_May_01_1149,ExactRep-v3-final,2021.2.3,59.96616715199747,
,,,,,,,,61,0,61,0,,,,,,,,,,,,,,,,,,,,,,,,,,,,,,,,,,,,,,,,,,,,,,,,,,,,,751.6043891003355,None,,,,,,,,,,,,,,,,,,,,,,,,,,,,,,,,,,,child,75,62,silent,white,749.6037408001721,None,None,749.6037408001721,None,,,,,,,,,,,,,,,,,,,,,,,,,,,,,,64,001,2023_May_01_1149,ExactRep-v3-final,2021.2.3,59.96616715199747,
,,,,,,,,62,0,62,0,,,,,,,,,,,,,,,,,,,,,,,,,,,,,,,,,,,,,,,,,,,,,,,,,,,,,754.1068849004805,None,,,,,,,,,,,,,,,,,,,,,,,,,,,,,,,,,,,flower,28,63,sing,red,752.1065649008378,None,None,752.1065649008378,None,,,,,,,,,,,,,,,,,,,,,,,,,,,,,,64,001,2023_May_01_1149,ExactRep-v3-final,2021.2.3,59.96616715199747,
,,,,,,,,63,0,63,0,,,,,,,,,,,,,,,,,,,,,,,,,,,,,,,,,,,,,,,,,,,,,,,,,,,,,756.6260061003268,None,,,,,,,,,,,,,,,,,,,,,,,,,,,,,,,,,,,boulder,98,64,aloud,blue,754.6139505002648,None,None,754.6139505002648,None,,,,,,,,,,,,,,,,,,,,,,,,,,,,,,64,001,2023_May_01_1149,ExactRep-v3-final,2021.2.3,59.96616715199747,
,,,,,,,,64,0,64,0,,,,,,,,,,,,,,,,,,,,,,,,,,,,,,,,,,,,,,,,,,,,,,,,,,,,,759.1285331007093,None,,,,,,,,,,,,,,,,,,,,,,,,,,,,,,,,,,,sky,2,65,sing,red,757.127526300028,None,None,757.127526300028,None,,,,,,,,,,,,,,,,,,,,,,,,,,,,,,64,001,2023_May_01_1149,ExactRep-v3-final,2021.2.3,59.96616715199747,
,,,,,,,,65,0,65,0,,,,,,,,,,,,,,,,,,,,,,,,,,,,,,,,,,,,,,,,,,,,,,,,,,,,,761.6477276999503,None,,,,,,,,,,,,,,,,,,,,,,,,,,,,,,,,,,,pride,59,66,silent,white,759.6323317000642,None,None,759.6323317000642,None,,,,,,,,,,,,,,,,,,,,,,,,,,,,,,64,001,2023_May_01_1149,ExactRep-v3-final,2021.2.3,59.96616715199747,
,,,,,,,,66,0,66,0,,,,,,,,,,,,,,,,,,,,,,,,,,,,,,,,,,,,,,,,,,,,,,,,,,,,,764.1501755006611,None,,,,,,,,,,,,,,,,,,,,,,,,,,,,,,,,,,,machine,68,67,silent,white,762.150067999959,None,None,762.150067999959,None,,,,,,,,,,,,,,,,,,,,,,,,,,,,,,64,001,2023_May_01_1149,ExactRep-v3-final,2021.2.3,59.96616715199747,
,,,,,,,,67,0,67,0,,,,,,,,,,,,,,,,,,,,,,,,,,,,,,,,,,,,,,,,,,,,,,,,,,,,,766.6527531007305,None,,,,,,,,,,,,,,,,,,,,,,,,,,,,,,,,,,,corner,80,68,aloud,blue,764.6523607000709,None,None,764.6523607000709,None,,,,,,,,,,,,,,,,,,,,,,,,,,,,,,64,001,2023_May_01_1149,ExactRep-v3-final,2021.2.3,59.96616715199747,
,,,,,,,,68,0,68,0,,,,,,,,,,,,,,,,,,,,,,,,,,,,,,,,,,,,,,,,,,,,,,,,,,,,,769.1716668000445,None,,,,,,,,,,,,,,,,,,,,,,,,,,,,,,,,,,,soil,115,69,aloud,blue,767.1579736005515,None,None,767.1579736005515,None,,,,,,,,,,,,,,,,,,,,,,,,,,,,,,64,001,2023_May_01_1149,ExactRep-v3-final,2021.2.3,59.96616715199747,
,,,,,,,,69,0,69,0,,,,,,,,,,,,,,,,,,,,,,,,,,,,,,,,,,,,,,,,,,,,,,,,,,,,,771.6741248006001,None,,,,,,,,,,,,,,,,,,,,,,,,,,,,,,,,,,,shame,25,70,sing,red,769.6721999002621,None,None,769.6721999002621,None,,,,,,,,,,,,,,,,,,,,,,,,,,,,,,64,001,2023_May_01_1149,ExactRep-v3-final,2021.2.3,59.96616715199747,
,,,,,,,,70,0,70,0,,,,,,,,,,,,,,,,,,,,,,,,,,,,,,,,,,,,,,,,,,,,,,,,,,,,,774.1935426006094,None,,,,,,,,,,,,,,,,,,,,,,,,,,,,,,,,,,,earth,67,71,silent,white,772.1844300003722,None,None,772.1844300003722,None,,,,,,,,,,,,,,,,,,,,,,,,,,,,,,64,001,2023_May_01_1149,ExactRep-v3-final,2021.2.3,59.96616715199747,
,,,,,,,,71,0,71,0,,,,,,,,,,,,,,,,,,,,,,,,,,,,,,,,,,,,,,,,,,,,,,,,,,,,,776.6961332000792,None,,,,,,,,,,,,,,,,,,,,,,,,,,,,,,,,,,,truth,83,72,aloud,blue,774.694003100507,None,None,774.694003100507,None,,,,,,,,,,,,,,,,,,,,,,,,,,,,,,64,001,2023_May_01_1149,ExactRep-v3-final,2021.2.3,59.96616715199747,
,,,,,,,,72,0,72,0,,,,,,,,,,,,,,,,,,,,,,,,,,,,,,,,,,,,,,,,,,,,,,,,,,,,,779.2152911005542,None,,,,,,,,,,,,,,,,,,,,,,,,,,,,,,,,,,,circle,72,73,silent,white,777.1999813001603,None,None,777.1999813001603,None,,,,,,,,,,,,,,,,,,,,,,,,,,,,,,64,001,2023_May_01_1149,ExactRep-v3-final,2021.2.3,59.96616715199747,
,,,,,,,,73,0,73,0,,,,,,,,,,,,,,,,,,,,,,,,,,,,,,,,,,,,,,,,,,,,,,,,,,,,,781.7177463006228,None,,,,,,,,,,,,,,,,,,,,,,,,,,,,,,,,,,,meadow,97,74,aloud,blue,779.7166758002713,None,None,779.7166758002713,None,,,,,,,,,,,,,,,,,,,,,,,,,,,,,,64,001,2023_May_01_1149,ExactRep-v3-final,2021.2.3,59.96616715199747,
,,,,,,,,74,0,74,0,,,,,,,,,,,,,,,,,,,,,,,,,,,,,,,,,,,,,,,,,,,,,,,,,,,,,784.2368975002319,None,,,,,,,,,,,,,,,,,,,,,,,,,,,,,,,,,,,water,40,75,silent,white,782.222645200789,None,None,782.222645200789,None,,,,,,,,,,,,,,,,,,,,,,,,,,,,,,64,001,2023_May_01_1149,ExactRep-v3-final,2021.2.3,59.96616715199747,
,,,,,,,,75,0,75,0,,,,,,,,,,,,,,,,,,,,,,,,,,,,,,,,,,,,,,,,,,,,,,,,,,,,,786.7395074004307,None,,,,,,,,,,,,,,,,,,,,,,,,,,,,,,,,,,,fortune,94,76,aloud,blue,784.7376906005666,None,None,784.7376906005666,None,,,,,,,,,,,,,,,,,,,,,,,,,,,,,,64,001,2023_May_01_1149,ExactRep-v3-final,2021.2.3,59.96616715199747,
,,,,,,,,76,0,76,0,,,,,,,,,,,,,,,,,,,,,,,,,,,,,,,,,,,,,,,,,,,,,,,,,,,,,789.2586659006774,None,,,,,,,,,,,,,,,,,,,,,,,,,,,,,,,,,,,bar,58,77,silent,white,787.2460991004482,None,None,787.2460991004482,None,,,,,,,,,,,,,,,,,,,,,,,,,,,,,,64,001,2023_May_01_1149,ExactRep-v3-final,2021.2.3,59.96616715199747,
,,,,,,,,77,0,77,0,,,,,,,,,,,,,,,,,,,,,,,,,,,,,,,,,,,,,,,,,,,,,,,,,,,,,791.7609250005335,None,,,,,,,,,,,,,,,,,,,,,,,,,,,,,,,,,,,method,65,78,silent,white,789.7602240005508,None,None,789.7602240005508,None,,,,,,,,,,,,,,,,,,,,,,,,,,,,,,64,001,2023_May_01_1149,ExactRep-v3-final,2021.2.3,59.96616715199747,
,,,,,,,,78,0,78,0,,,,,,,,,,,,,,,,,,,,,,,,,,,,,,,,,,,,,,,,,,,,,,,,,,,,,794.2637552004308,None,,,,,,,,,,,,,,,,,,,,,,,,,,,,,,,,,,,breast,69,79,silent,white,792.2645971002057,None,None,792.2645971002057,None,,,,,,,,,,,,,,,,,,,,,,,,,,,,,,64,001,2023_May_01_1149,ExactRep-v3-final,2021.2.3,59.96616715199747,
,,,,,,,,79,0,79,0,,,,,,,,,,,,,,,,,,,,,,,,,,,,,,,,,,,,,,,,,,,,,,,,,,,,,796.7661760002375,None,,,,,,,,,,,,,,,,,,,,,,,,,,,,,,,,,,,sea,16,80,sing,red,794.7658013002947,None,None,794.7658013002947,None,,,,,,,,,,,,,,,,,,,,,,,,,,,,,,64,001,2023_May_01_1149,ExactRep-v3-final,2021.2.3,59.96616715199747,
,,,,,,,,80,0,80,0,,,,,,,,,,,,,,,,,,,,,,,,,,,,,,,,,,,,,,,,,,,,,,,,,,,,,799.2851926004514,None,,,,,,,,,,,,,,,,,,,,,,,,,,,,,,,,,,,lad,17,81,sing,red,797.2749708006158,None,None,797.2749708006158,None,,,,,,,,,,,,,,,,,,,,,,,,,,,,,,64,001,2023_May_01_1149,ExactRep-v3-final,2021.2.3,59.96616715199747,
,,,,,,,,81,0,81,0,,,,,,,,,,,,,,,,,,,,,,,,,,,,,,,,,,,,,,,,,,,,,,,,,,,,,801.787910300307,None,,,,,,,,,,,,,,,,,,,,,,,,,,,,,,,,,,,shore,66,82,silent,white,799.7873029001057,None,None,799.7873029001057,None,,,,,,,,,,,,,,,,,,,,,,,,,,,,,,64,001,2023_May_01_1149,ExactRep-v3-final,2021.2.3,59.96616715199747,
,,,,,,,,82,0,82,0,,,,,,,,,,,,,,,,,,,,,,,,,,,,,,,,,,,,,,,,,,,,,,,,,,,,,804.2903729006648,None,,,,,,,,,,,,,,,,,,,,,,,,,,,,,,,,,,,thought,13,83,sing,red,802.2882065000013,None,None,802.2882065000013,None,,,,,,,,,,,,,,,,,,,,,,,,,,,,,,64,001,2023_May_01_1149,ExactRep-v3-final,2021.2.3,59.96616715199747,
,,,,,,,,83,0,83,0,,,,,,,,,,,,,,,,,,,,,,,,,,,,,,,,,,,,,,,,,,,,,,,,,,,,,806.8097427999601,None,,,,,,,,,,,,,,,,,,,,,,,,,,,,,,,,,,,ticket,105,84,aloud,blue,804.795311100781,None,None,804.795311100781,None,,,,,,,,,,,,,,,,,,,,,,,,,,,,,,64,001,2023_May_01_1149,ExactRep-v3-final,2021.2.3,59.96616715199747,
,,,,,,,,84,0,84,0,,,,,,,,,,,,,,,,,,,,,,,,,,,,,,,,,,,,,,,,,,,,,,,,,,,,,809.3286244999617,None,,,,,,,,,,,,,,,,,,,,,,,,,,,,,,,,,,,priest,43,85,silent,white,807.3184988005087,None,None,807.3184988005087,None,,,,,,,,,,,,,,,,,,,,,,,,,,,,,,64,001,2023_May_01_1149,ExactRep-v3-final,2021.2.3,59.96616715199747,
,,,,,,,,85,0,85,0,,,,,,,,,,,,,,,,,,,,,,,,,,,,,,,,,,,,,,,,,,,,,,,,,,,,,811.8312363000587,None,,,,,,,,,,,,,,,,,,,,,,,,,,,,,,,,,,,house,18,86,sing,red,809.829068900086,None,None,809.829068900086,None,,,,,,,,,,,,,,,,,,,,,,,,,,,,,,64,001,2023_May_01_1149,ExactRep-v3-final,2021.2.3,59.96616715199747,
,,,,,,,,86,0,86,0,,,,,,,,,,,,,,,,,,,,,,,,,,,,,,,,,,,,,,,,,,,,,,,,,,,,,814.3504638001323,None,,,,,,,,,,,,,,,,,,,,,,,,,,,,,,,,,,,fault,70,87,silent,white,812.3412178000435,None,None,812.3412178000435,None,,,,,,,,,,,,,,,,,,,,,,,,,,,,,,64,001,2023_May_01_1149,ExactRep-v3-final,2021.2.3,59.96616715199747,
,,,,,,,,87,0,87,0,,,,,,,,,,,,,,,,,,,,,,,,,,,,,,,,,,,,,,,,,,,,,,,,,,,,,816.8529122006148,None,,,,,,,,,,,,,,,,,,,,,,,,,,,,,,,,,,,custom,34,88,sing,red,814.8508096002042,None,None,814.8508096002042,None,,,,,,,,,,,,,,,,,,,,,,,,,,,,,,64,001,2023_May_01_1149,ExactRep-v3-final,2021.2.3,59.96616715199747,
,,,,,,,,88,0,88,0,,,,,,,,,,,,,,,,,,,,,,,,,,,,,,,,,,,,,,,,,,,,,,,,,,,,,819.3554013008252,None,,,,,,,,,,,,,,,,,,,,,,,,,,,,,,,,,,,tool,4,89,sing,red,817.355321300216,None,None,817.355321300216,None,,,,,,,,,,,,,,,,,,,,,,,,,,,,,,64,001,2023_May_01_1149,ExactRep-v3-final,2021.2.3,59.96616715199747,
,,,,,,,,89,0,89,0,,,,,,,,,,,,,,,,,,,,,,,,,,,,,,,,,,,,,,,,,,,,,,,,,,,,,821.8578677000478,None,,,,,,,,,,,,,,,,,,,,,,,,,,,,,,,,,,,safety,74,90,silent,white,819.858611700125,None,None,819.858611700125,None,,,,,,,,,,,,,,,,,,,,,,,,,,,,,,64,001,2023_May_01_1149,ExactRep-v3-final,2021.2.3,59.96616715199747,
,,,,,,,,90,0,90,0,,,,,,,,,,,,,,,,,,,,,,,,,,,,,,,,,,,,,,,,,,,,,,,,,,,,,824.37711950019,None,,,,,,,,,,,,,,,,,,,,,,,,,,,,,,,,,,,square,89,91,aloud,blue,822.3668943000957,None,None,822.3668943000957,None,,,,,,,,,,,,,,,,,,,,,,,,,,,,,,64,001,2023_May_01_1149,ExactRep-v3-final,2021.2.3,59.96616715199747,
,,,,,,,,91,0,91,0,,,,,,,,,,,,,,,,,,,,,,,,,,,,,,,,,,,,,,,,,,,,,,,,,,,,,826.8961428003386,None,,,,,,,,,,,,,,,,,,,,,,,,,,,,,,,,,,,rock,87,92,aloud,blue,824.8806241005659,None,None,824.8806241005659,None,,,,,,,,,,,,,,,,,,,,,,,,,,,,,,64,001,2023_May_01_1149,ExactRep-v3-final,2021.2.3,59.96616715199747,
,,,,,,,,92,0,92,0,,,,,,,,,,,,,,,,,,,,,,,,,,,,,,,,,,,,,,,,,,,,,,,,,,,,,829.3987969001755,None,,,,,,,,,,,,,,,,,,,,,,,,,,,,,,,,,,,length,31,93,sing,red,827.3967805001885,None,None,827.3967805001885,None,,,,,,,,,,,,,,,,,,,,,,,,,,,,,,64,001,2023_May_01_1149,ExactRep-v3-final,2021.2.3,59.96616715199747,
,,,,,,,,93,0,93,0,,,,,,,,,,,,,,,,,,,,,,,,,,,,,,,,,,,,,,,,,,,,,,,,,,,,,831.9013018002734,None,,,,,,,,,,,,,,,,,,,,,,,,,,,,,,,,,,,charm,73,94,silent,white,829.9009544001892,None,None,829.9009544001892,None,,,,,,,,,,,,,,,,,,,,,,,,,,,,,,64,001,2023_May_01_1149,ExactRep-v3-final,2021.2.3,59.96616715199747,
,,,,,,,,94,0,94,0,,,,,,,,,,,,,,,,,,,,,,,,,,,,,,,,,,,,,,,,,,,,,,,,,,,,,834.4037864999846,None,,,,,,,,,,,,,,,,,,,,,,,,,,,,,,,,,,,dawn,96,95,aloud,blue,832.4034841004759,None,None,832.4034841004759,None,,,,,,,,,,,,,,,,,,,,,,,,,,,,,,64,001,2023_May_01_1149,ExactRep-v3-final,2021.2.3,59.96616715199747,
,,,,,,,,95,0,95,0,,,,,,,,,,,,,,,,,,,,,,,,,,,,,,,,,,,,,,,,,,,,,,,,,,,,,836.9062795005739,None,,,,,,,,,,,,,,,,,,,,,,,,,,,,,,,,,,,master,114,96,aloud,blue,834.9056817004457,None,None,834.9056817004457,None,,,,,,,,,,,,,,,,,,,,,,,,,,,,,,64,001,2023_May_01_1149,ExactRep-v3-final,2021.2.3,59.96616715199747,
,,,,,,,,96,0,96,0,,,,,,,,,,,,,,,,,,,,,,,,,,,,,,,,,,,,,,,,,,,,,,,,,,,,,839.4252425003797,None,,,,,,,,,,,,,,,,,,,,,,,,,,,,,,,,,,,lord,103,97,aloud,blue,837.4151626005769,None,None,837.4151626005769,None,,,,,,,,,,,,,,,,,,,,,,,,,,,,,,64,001,2023_May_01_1149,ExactRep-v3-final,2021.2.3,59.96616715199747,
,,,,,,,,97,0,97,0,,,,,,,,,,,,,,,,,,,,,,,,,,,,,,,,,,,,,,,,,,,,,,,,,,,,,841.9446436008438,None,,,,,,,,,,,,,,,,,,,,,,,,,,,,,,,,,,,mind,19,98,sing,red,839.93242680002,None,None,839.93242680002,None,,,,,,,,,,,,,,,,,,,,,,,,,,,,,,64,001,2023_May_01_1149,ExactRep-v3-final,2021.2.3,59.96616715199747,
,,,,,,,,98,0,98,0,,,,,,,,,,,,,,,,,,,,,,,,,,,,,,,,,,,,,,,,,,,,,,,,,,,,,844.4472747007385,None,,,,,,,,,,,,,,,,,,,,,,,,,,,,,,,,,,,maiden,6,99,sing,red,842.4450111007318,None,None,842.4450111007318,None,,,,,,,,,,,,,,,,,,,,,,,,,,,,,,64,001,2023_May_01_1149,ExactRep-v3-final,2021.2.3,59.96616715199747,
,,,,,,,,99,0,99,0,,,,,,,,,,,,,,,,,,,,,,,,,,,,,,,,,,,,,,,,,,,,,,,,,,,,,846.9498153002933,None,,,,,,,,,,,,,,,,,,,,,,,,,,,,,,,,,,,cat,48,100,silent,white,844.9496493004262,None,None,844.9496493004262,None,,,,,,,,,,,,,,,,,,,,,,,,,,,,,,64,001,2023_May_01_1149,ExactRep-v3-final,2021.2.3,59.96616715199747,
,,,,,,,,100,0,100,0,,,,,,,,,,,,,,,,,,,,,,,,,,,,,,,,,,,,,,,,,,,,,,,,,,,,,849.4520274000242,None,,,,,,,,,,,,,,,,,,,,,,,,,,,,,,,,,,,lake,84,101,aloud,blue,847.4500333005562,None,None,847.4500333005562,None,,,,,,,,,,,,,,,,,,,,,,,,,,,,,,64,001,2023_May_01_1149,ExactRep-v3-final,2021.2.3,59.96616715199747,
,,,,,,,,101,0,101,0,,,,,,,,,,,,,,,,,,,,,,,,,,,,,,,,,,,,,,,,,,,,,,,,,,,,,851.971119100228,None,,,,,,,,,,,,,,,,,,,,,,,,,,,,,,,,,,,heaven,100,102,aloud,blue,849.962956700474,None,None,849.962956700474,None,,,,,,,,,,,,,,,,,,,,,,,,,,,,,,64,001,2023_May_01_1149,ExactRep-v3-final,2021.2.3,59.96616715199747,
,,,,,,,,102,0,102,0,,,,,,,,,,,,,,,,,,,,,,,,,,,,,,,,,,,,,,,,,,,,,,,,,,,,,854.4738591006026,None,,,,,,,,,,,,,,,,,,,,,,,,,,,,,,,,,,,apple,52,103,silent,white,852.4717155005783,None,None,852.4717155005783,None,,,,,,,,,,,,,,,,,,,,,,,,,,,,,,64,001,2023_May_01_1149,ExactRep-v3-final,2021.2.3,59.96616715199747,
,,,,,,,,103,0,103,0,,,,,,,,,,,,,,,,,,,,,,,,,,,,,,,,,,,,,,,,,,,,,,,,,,,,,856.9930213000625,None,,,,,,,,,,,,,,,,,,,,,,,,,,,,,,,,,,,market,119,104,aloud,blue,854.9798894999549,None,None,854.9798894999549,None,,,,,,,,,,,,,,,,,,,,,,,,,,,,,,64,001,2023_May_01_1149,ExactRep-v3-final,2021.2.3,59.96616715199747,
,,,,,,,,104,0,104,0,,,,,,,,,,,,,,,,,,,,,,,,,,,,,,,,,,,,,,,,,,,,,,,,,,,,,859.5121149001643,None,,,,,,,,,,,,,,,,,,,,,,,,,,,,,,,,,,,idea,26,105,sing,red,857.4985066000372,None,None,857.4985066000372,None,,,,,,,,,,,,,,,,,,,,,,,,,,,,,,64,001,2023_May_01_1149,ExactRep-v3-final,2021.2.3,59.96616715199747,
,,,,,,,,105,0,105,0,,,,,,,,,,,,,,,,,,,,,,,,,,,,,,,,,,,,,,,,,,,,,,,,,,,,,862.0147427003831,None,,,,,,,,,,,,,,,,,,,,,,,,,,,,,,,,,,,honour,91,106,aloud,blue,860.0154238007963,None,None,860.0154238007963,None,,,,,,,,,,,,,,,,,,,,,,,,,,,,,,64,001,2023_May_01_1149,ExactRep-v3-final,2021.2.3,59.96616715199747,
,,,,,,,,106,0,106,0,,,,,,,,,,,,,,,,,,,,,,,,,,,,,,,,,,,,,,,,,,,,,,,,,,,,,864.5172607004642,None,,,,,,,,,,,,,,,,,,,,,,,,,,,,,,,,,,,moment,45,107,silent,white,862.5182740008458,None,None,862.5182740008458,None,,,,,,,,,,,,,,,,,,,,,,,,,,,,,,64,001,2023_May_01_1149,ExactRep-v3-final,2021.2.3,59.96616715199747,
,,,,,,,,107,0,107,0,,,,,,,,,,,,,,,,,,,,,,,,,,,,,,,,,,,,,,,,,,,,,,,,,,,,,867.036387800239,None,,,,,,,,,,,,,,,,,,,,,,,,,,,,,,,,,,,butter,92,108,aloud,blue,865.0218924004585,None,None,865.0218924004585,None,,,,,,,,,,,,,,,,,,,,,,,,,,,,,,64,001,2023_May_01_1149,ExactRep-v3-final,2021.2.3,59.96616715199747,
,,,,,,,,108,0,108,0,,,,,,,,,,,,,,,,,,,,,,,,,,,,,,,,,,,,,,,,,,,,,,,,,,,,,869.53882070072,None,,,,,,,,,,,,,,,,,,,,,,,,,,,,,,,,,,,hide,113,109,aloud,blue,867.5378234004602,None,None,867.5378234004602,None,,,,,,,,,,,,,,,,,,,,,,,,,,,,,,64,001,2023_May_01_1149,ExactRep-v3-final,2021.2.3,59.96616715199747,
,,,,,,,,109,0,109,0,,,,,,,,,,,,,,,,,,,,,,,,,,,,,,,,,,,,,,,,,,,,,,,,,,,,,872.0412138001993,None,,,,,,,,,,,,,,,,,,,,,,,,,,,,,,,,,,,style,108,110,aloud,blue,870.04075870011,None,None,870.04075870011,None,,,,,,,,,,,,,,,,,,,,,,,,,,,,,,64,001,2023_May_01_1149,ExactRep-v3-final,2021.2.3,59.96616715199747,
,,,,,,,,110,0,110,0,,,,,,,,,,,,,,,,,,,,,,,,,,,,,,,,,,,,,,,,,,,,,,,,,,,,,874.5606363005936,None,,,,,,,,,,,,,,,,,,,,,,,,,,,,,,,,,,,forest,39,111,silent,white,872.5453901002184,None,None,872.5453901002184,None,,,,,,,,,,,,,,,,,,,,,,,,,,,,,,64,001,2023_May_01_1149,ExactRep-v3-final,2021.2.3,59.96616715199747,
,,,,,,,,111,0,111,0,,,,,,,,,,,,,,,,,,,,,,,,,,,,,,,,,,,,,,,,,,,,,,,,,,,,,877.0628981003538,None,,,,,,,,,,,,,,,,,,,,,,,,,,,,,,,,,,,string,11,112,sing,red,875.0632472001016,None,None,875.0632472001016,None,,,,,,,,,,,,,,,,,,,,,,,,,,,,,,64,001,2023_May_01_1149,ExactRep-v3-final,2021.2.3,59.96616715199747,
,,,,,,,,112,0,112,0,,,,,,,,,,,,,,,,,,,,,,,,,,,,,,,,,,,,,,,,,,,,,,,,,,,,,879.5657063005492,None,,,,,,,,,,,,,,,,,,,,,,,,,,,,,,,,,,,answer,1,113,sing,red,877.5652291001752,None,None,877.5652291001752,None,,,,,,,,,,,,,,,,,,,,,,,,,,,,,,64,001,2023_May_01_1149,ExactRep-v3-final,2021.2.3,59.96616715199747,
,,,,,,,,113,0,113,0,,,,,,,,,,,,,,,,,,,,,,,,,,,,,,,,,,,,,,,,,,,,,,,,,,,,,882.0680819004774,None,,,,,,,,,,,,,,,,,,,,,,,,,,,,,,,,,,,girl,107,114,aloud,blue,880.0680594006553,None,None,880.0680594006553,None,,,,,,,,,,,,,,,,,,,,,,,,,,,,,,64,001,2023_May_01_1149,ExactRep-v3-final,2021.2.3,59.96616715199747,
,,,,,,,,114,0,114,0,,,,,,,,,,,,,,,,,,,,,,,,,,,,,,,,,,,,,,,,,,,,,,,,,,,,,884.5705733001232,None,,,,,,,,,,,,,,,,,,,,,,,,,,,,,,,,,,,gold,116,115,aloud,blue,882.5707520004362,None,None,882.5707520004362,None,,,,,,,,,,,,,,,,,,,,,,,,,,,,,,64,001,2023_May_01_1149,ExactRep-v3-final,2021.2.3,59.96616715199747,
,,,,,,,,115,0,115,0,,,,,,,,,,,,,,,,,,,,,,,,,,,,,,,,,,,,,,,,,,,,,,,,,,,,,887.0921636000276,None,,,,,,,,,,,,,,,,,,,,,,,,,,,,,,,,,,,cottage,76,116,silent,white,885.0744986003265,None,None,885.0744986003265,None,,,,,,,,,,,,,,,,,,,,,,,,,,,,,,64,001,2023_May_01_1149,ExactRep-v3-final,2021.2.3,59.96616715199747,
,,,,,,,,116,0,116,0,,,,,,,,,,,,,,,,,,,,,,,,,,,,,,,,,,,,,,,,,,,,,,,,,,,,,889.5923356004059,None,,,,,,,,,,,,,,,,,,,,,,,,,,,,,,,,,,,dollar,5,117,sing,red,887.5901748007163,None,None,887.5901748007163,None,,,,,,,,,,,,,,,,,,,,,,,,,,,,,,64,001,2023_May_01_1149,ExactRep-v3-final,2021.2.3,59.96616715199747,
,,,,,,,,117,0,117,0,,,,,,,,,,,,,,,,,,,,,,,,,,,,,,,,,,,,,,,,,,,,,,,,,,,,,892.0948320999742,None,,,,,,,,,,,,,,,,,,,,,,,,,,,,,,,,,,,car,99,118,aloud,blue,890.0949810007587,None,None,890.0949810007587,None,,,,,,,,,,,,,,,,,,,,,,,,,,,,,,64,001,2023_May_01_1149,ExactRep-v3-final,2021.2.3,59.96616715199747,
,,,,,,,,118,0,118,0,,,,,,,,,,,,,,,,,,,,,,,,,,,,,,,,,,,,,,,,,,,,,,,,,,,,,894.6139648007229,None,,,,,,,,,,,,,,,,,,,,,,,,,,,,,,,,,,,season,79,119,sing,red,892.598385900259,None,None,892.598385900259,None,,,,,,,,,,,,,,,,,,,,,,,,,,,,,,64,001,2023_May_01_1149,ExactRep-v3-final,2021.2.3,59.96616715199747,
,,,,,,,,119,0,119,0,,,,,,,,,,,,,,,,,,,,,,,,,,,,,,,,,,,,,,,,,,,,,,,,,,,,,897.1331859007478,None,,,,,,,,,,,,,,,,,,,,,,,,,,,,,,,,,,,bowl,22,120,sing,red,895.1187554001808,None,None,895.1187554001808,None,,,,,,,,,,,,,,,,,,,,,,,,,,,,,,64,001,2023_May_01_1149,ExactRep-v3-final,2021.2.3,59.96616715199747,
,,,,,,,,,,,,,,,,,,,,,,,,,,,,,,,,,,,,,,,,,,,,,,,,,,,,,,,,,,,,,,,,,,,,,,,,,,,,,,,,,,,,,,,,,,,,,,,,,,,,,,,,,,,,,,897.6353126000613,None,space,2.417228300124407,907.6113713001832,None,,,,,,,,,,,,,,,,,,,,,,,,64,001,2023_May_01_1149,ExactRep-v3-final,2021.2.3,59.96616715199747,
,,,,,,,,,,,,,,,,,,,,,,,,,,,,,,,,,,,,,,,,,,,,,,,,,,,,,,,,,,,,,,,,,,,,,,,,,,,,,,,,,,,,,,,,,,,,,,,,,,,,,,,,,,,,,,,,,,,,910.0477690007538,None,space,28.97244380041957,920.0242159003392,None,,,,,,,,,,,,,,,,,,64,001,2023_May_01_1149,ExactRep-v3-final,2021.2.3,59.96616715199747,
,,,,,,,,,,,,0,0,0,0,,,,,,,,,,,,,,,,,,,,,,,,,,,,,,,,,,,,,,,,,,,,,,,,,955.1578269004822,None,,,,,,,,,,,,,,,,,,,,,,,,,,,,,,,,,,,,,,,,,,,,,,,,,,,,,,,,,corner,80,1,aloud,old,blue,949.5325243007392,None,y,949.5325243007392,None,"['y', 'return']","[4.49605350010097, 5.591978299431503]",949.5325243007392,None,,,64,001,2023_May_01_1149,ExactRep-v3-final,2021.2.3,59.96616715199747,
,,,,,,,,,,,,1,0,1,0,,,,,,,,,,,,,,,,,,,,,,,,,,,,,,,,,,,,,,,,,,,,,,,,,959.2450894005597,None,,,,,,,,,,,,,,,,,,,,,,,,,,,,,,,,,,,,,,,,,,,,,,,,,,,,,,,,,coin,46,2,silent,old,white,955.6691109007224,None,n,955.6691109007224,None,"['n', 'return']","[2.3114719996228814, 3.5432068994268775]",955.6691109007224,None,,,64,001,2023_May_01_1149,ExactRep-v3-final,2021.2.3,59.96616715199747,
,,,,,,,,,,,,2,0,2,0,,,,,,,,,,,,,,,,,,,,,,,,,,,,,,,,,,,,,,,,,,,,,,,,,961.8643747000024,None,,,,,,,,,,,,,,,,,,,,,,,,,,,,,,,,,,,,,,,,,,,,,,,,,,,,,,,,,cottage,76,3,silent,old,white,959.7505060005933,None,y,959.7505060005933,None,"['y', 'return']","[1.3018429996445775, 2.06982500012964]",959.7505060005933,None,,,64,001,2023_May_01_1149,ExactRep-v3-final,2021.2.3,59.96616715199747,
,,,,,,,,,,,,3,0,3,0,,,,,,,,,,,,,,,,,,,,,,,,,,,,,,,,,,,,,,,,,,,,,,,,,965.6514452006668,None,,,,,,,,,,,,,,,,,,,,,,,,,,,,,,,,,,,,,,,,,,,,,,,,,,,,,,,,,answer,1,4,sing,old,red,962.3739731004462,None,y,962.3739731004462,None,"['y', 'return']","[2.046650200150907, 3.230465999804437]",962.3739731004462,None,,,64,001,2023_May_01_1149,ExactRep-v3-final,2021.2.3,59.96616715199747,
,,,,,,,,,,,,4,0,4,0,,,,,,,,,,,,,,,,,,,,,,,,,,,,,,,,,,,,,,,,,,,,,,,,,968.3209984004498,None,,,,,,,,,,,,,,,,,,,,,,,,,,,,,,,,,,,,,,,,,,,,,,,,,,,,,,,,,judge,211,5,sing,new,red,966.1612785002217,None,n,966.1612785002217,None,"['n', 'return']","[1.4110441002994776, 2.1150586996227503]",966.1612785002217,None,,,64,001,2023_May_01_1149,ExactRep-v3-final,2021.2.3,59.96616715199747,
,,,,,,,,,,,,5,0,5,0,,,,,,,,,,,,,,,,,,,,,,,,,,,,,,,,,,,,,,,,,,,,,,,,,970.9401064002886,None,,,,,,,,,,,,,,,,,,,,,,,,,,,,,,,,,,,,,,,,,,,,,,,,,,,,,,,,,plain,227,6,sing,new,red,968.8246769001707,None,n,968.8246769001707,None,"['n', 'return']","[1.4600499998778105, 2.067715600132942]",968.8246769001707,None,,,64,001,2023_May_01_1149,ExactRep-v3-final,2021.2.3,59.96616715199747,
,,,,,,,,,,,,6,0,6,0,,,,,,,,,,,,,,,,,,,,,,,,,,,,,,,,,,,,,,,,,,,,,,,,,974.4436165001243,None,,,,,,,,,,,,,,,,,,,,,,,,,,,,,,,,,,,,,,,,,,,,,,,,,,,,,,,,,woman,226,7,aloud,new,blue,971.4497807007283,None,n,971.4497807007283,None,"['n', 'return']","[2.5225729001685977, 2.9545984007418156]",971.4497807007283,None,,,64,001,2023_May_01_1149,ExactRep-v3-final,2021.2.3,59.96616715199747,
,,,,,,,,,,,,7,0,7,0,,,,,,,,,,,,,,,,,,,,,,,,,,,,,,,,,,,,,,,,,,,,,,,,,976.8628429006785,None,,,,,,,,,,,,,,,,,,,,,,,,,,,,,,,,,,,,,,,,,,,,,,,,,,,,,,,,,avenue,61,8,silent,old,white,974.9536105003208,None,n,974.9536105003208,None,"['n', 'return']","[1.4747719001024961, 1.866704000160098]",974.9536105003208,None,,,64,001,2023_May_01_1149,ExactRep-v3-final,2021.2.3,59.96616715199747,
,,,,,,,,,,,,8,0,8,0,,,,,,,,,,,,,,,,,,,,,,,,,,,,,,,,,,,,,,,,,,,,,,,,,979.9388243006542,None,,,,,,,,,,,,,,,,,,,,,,,,,,,,,,,,,,,,,,,,,,,,,,,,,,,,,,,,,wheat,95,9,aloud,old,blue,977.3769655004144,None,y,977.3769655004144,None,"['y', 'return']","[1.8915110994130373, 2.507462799549103]",977.3769655004144,None,,,64,001,2023_May_01_1149,ExactRep-v3-final,2021.2.3,59.96616715199747,
,,,,,,,,,,,,9,0,9,0,,,,,,,,,,,,,,,,,,,,,,,,,,,,,,,,,,,,,,,,,,,,,,,,,981.9678247002885,None,,,,,,,,,,,,,,,,,,,,,,,,,,,,,,,,,,,,,,,,,,,,,,,,,,,,,,,,,quality,120,10,silent,new,white,980.4521872000769,None,n,980.4521872000769,None,"['n', 'return']","[1.040370300412178, 1.4721735008060932]",980.4521872000769,None,,,64,001,2023_May_01_1149,ExactRep-v3-final,2021.2.3,59.96616715199747,
,,,,,,,,,,,,10,0,10,0,,,,,,,,,,,,,,,,,,,,,,,,,,,,,,,,,,,,,,,,,,,,,,,,,984.6371536003426,None,,,,,,,,,,,,,,,,,,,,,,,,,,,,,,,,,,,,,,,,,,,,,,,,,,,,,,,,,deed,62,11,silent,old,white,982.4765246007591,None,n,982.4765246007591,None,"['n', 'return']","[1.183826300315559, 2.120040999725461]",982.4765246007591,None,,,64,001,2023_May_01_1149,ExactRep-v3-final,2021.2.3,59.96616715199747,
,,,,,,,,,,,,11,0,11,0,,,,,,,,,,,,,,,,,,,,,,,,,,,,,,,,,,,,,,,,,,,,,,,,,986.8060829006135,None,,,,,,,,,,,,,,,,,,,,,,,,,,,,,,,,,,,,,,,,,,,,,,,,,,,,,,,,,spirit,229,12,sing,new,red,985.1438989005983,None,n,985.1438989005983,None,"['n', 'return']","[1.2045967001467943, 1.6285308999940753]",985.1438989005983,None,,,64,001,2023_May_01_1149,ExactRep-v3-final,2021.2.3,59.96616715199747,
,,,,,,,,,,,,12,0,12,0,,,,,,,,,,,,,,,,,,,,,,,,,,,,,,,,,,,,,,,,,,,,,,,,,989.2584977000952,None,,,,,,,,,,,,,,,,,,,,,,,,,,,,,,,,,,,,,,,,,,,,,,,,,,,,,,,,,season,79,13,sing,old,red,987.315716500394,None,y,987.315716500394,None,"['y', 'return']","[1.2487416993826628, 1.904674899764359]",987.315716500394,None,,,64,001,2023_May_01_1149,ExactRep-v3-final,2021.2.3,59.96616715199747,
,,,,,,,,,,,,13,0,13,0,,,,,,,,,,,,,,,,,,,,,,,,,,,,,,,,,,,,,,,,,,,,,,,,,991.8278303006664,None,,,,,,,,,,,,,,,,,,,,,,,,,,,,,,,,,,,,,,,,,,,,,,,,,,,,,,,,,chance,85,14,aloud,old,blue,989.7774355001748,None,n,989.7774355001748,None,"['n', 'return']","[1.6829690001904964, 2.002954799681902]",989.7774355001748,None,,,64,001,2023_May_01_1149,ExactRep-v3-final,2021.2.3,59.96616715199747,
,,,,,,,,,,,,14,0,14,0,,,,,,,,,,,,,,,,,,,,,,,,,,,,,,,,,,,,,,,,,,,,,,,,,994.14661740046,None,,,,,,,,,,,,,,,,,,,,,,,,,,,,,,,,,,,,,,,,,,,,,,,,,,,,,,,,,corn,193,15,sing,new,red,992.3377430001274,None,n,992.3377430001274,None,"['n', 'return']","[1.3387019000947475, 1.7708800006657839]",992.3377430001274,None,,,64,001,2023_May_01_1149,ExactRep-v3-final,2021.2.3,59.96616715199747,
,,,,,,,,,,,,15,0,15,0,,,,,,,,,,,,,,,,,,,,,,,,,,,,,,,,,,,,,,,,,,,,,,,,,996.715893600136,None,,,,,,,,,,,,,,,,,,,,,,,,,,,,,,,,,,,,,,,,,,,,,,,,,,,,,,,,,artist,111,16,aloud,old,blue,994.6569298002869,None,n,994.6569298002869,None,"['n', 'return']","[1.6435286002233624, 2.019504800438881]",994.6569298002869,None,,,64,001,2023_May_01_1149,ExactRep-v3-final,2021.2.3,59.96616715199747,
,,,,,,,,,,,,16,0,16,0,,,,,,,,,,,,,,,,,,,,,,,,,,,,,,,,,,,,,,,,,,,,,,,,,999.3186125000939,None,,,,,,,,,,,,,,,,,,,,,,,,,,,,,,,,,,,,,,,,,,,,,,,,,,,,,,,,,factory,90,17,aloud,old,blue,997.2281267000362,None,y,997.2281267000362,None,"['y', 'return']","[1.720304200425744, 2.0482553001493216]",997.2281267000362,None,,,64,001,2023_May_01_1149,ExactRep-v3-final,2021.2.3,59.96616715199747,
,,,,,,,,,,,,17,0,17,0,,,,,,,,,,,,,,,,,,,,,,,,,,,,,,,,,,,,,,,,,,,,,,,,,1001.9212192008272,None,,,,,,,,,,,,,,,,,,,,,,,,,,,,,,,,,,,,,,,,,,,,,,,,,,,,,,,,,anger,146,18,silent,new,white,999.829477400519,None,n,999.829477400519,None,"['n', 'return']","[1.4470720002427697, 2.0470217000693083]",999.829477400519,None,,,64,001,2023_May_01_1149,ExactRep-v3-final,2021.2.3,59.96616715199747,
,,,,,,,,,,,,18,0,18,0,,,,,,,,,,,,,,,,,,,,,,,,,,,,,,,,,,,,,,,,,,,,,,,,,1004.0566472001374,None,,,,,,,,,,,,,,,,,,,,,,,,,,,,,,,,,,,,,,,,,,,,,,,,,,,,,,,,,palace,181,19,sing,new,red,1002.4290764005855,None,n,1002.4290764005855,None,"['n', 'return']","[1.1115098996087909, 1.5832858998328447]",1002.4290764005855,None,,,64,001,2023_May_01_1149,ExactRep-v3-final,2021.2.3,59.96616715199747,
,,,,,,,,,,,,19,0,19,0,,,,,,,,,,,,,,,,,,,,,,,,,,,,,,,,,,,,,,,,,,,,,,,,,1006.5924806008115,None,,,,,,,,,,,,,,,,,,,,,,,,,,,,,,,,,,,,,,,,,,,,,,,,,,,,,,,,,owner,63,20,silent,old,white,1004.5702394004911,None,y,1004.5702394004911,None,"['y', 'return']","[1.62631700001657, 1.9862023005262017]",1004.5702394004911,None,,,64,001,2023_May_01_1149,ExactRep-v3-final,2021.2.3,59.96616715199747,
,,,,,,,,,,,,20,0,20,0,,,,,,,,,,,,,,,,,,,,,,,,,,,,,,,,,,,,,,,,,,,,,,,,,1008.6445347005501,None,,,,,,,,,,,,,,,,,,,,,,,,,,,,,,,,,,,,,,,,,,,,,,,,,,,,,,,,,beast,159,21,silent,new,white,1007.1023008003831,None,n,1007.1023008003831,None,"['n', 'return']","[1.0782038997858763, 1.5023032994940877]",1007.1023008003831,None,,,64,001,2023_May_01_1149,ExactRep-v3-final,2021.2.3,59.96616715199747,
,,,,,,,,,,,,21,0,21,0,,,,,,,,,,,,,,,,,,,,,,,,,,,,,,,,,,,,,,,,,,,,,,,,,1010.9969754004851,None,,,,,,,,,,,,,,,,,,,,,,,,,,,,,,,,,,,,,,,,,,,,,,,,,,,,,,,,,window,88,22,aloud,old,blue,1009.1543294005096,None,y,1009.1543294005096,None,"['y', 'return']","[1.4343961998820305, 1.8100856002420187]",1009.1543294005096,None,,,64,001,2023_May_01_1149,ExactRep-v3-final,2021.2.3,59.96616715199747,
,,,,,,,,,,,,22,0,22,0,,,,,,,,,,,,,,,,,,,,,,,,,,,,,,,,,,,,,,,,,,,,,,,,,1013.2658329000697,None,,,,,,,,,,,,,,,,,,,,,,,,,,,,,,,,,,,,,,,,,,,,,,,,,,,,,,,,,toy,12,23,sing,old,red,1011.5093954000622,None,n,1011.5093954000622,None,"['n', 'return']","[1.015047799795866, 1.7109225997701287]",1011.5093954000622,None,,,64,001,2023_May_01_1149,ExactRep-v3-final,2021.2.3,59.96616715199747,
,,,,,,,,,,,,23,0,23,0,,,,,,,,,,,,,,,,,,,,,,,,,,,,,,,,,,,,,,,,,,,,,,,,,1015.5180151006207,None,,,,,,,,,,,,,,,,,,,,,,,,,,,,,,,,,,,,,,,,,,,,,,,,,,,,,,,,,grief,86,24,aloud,old,blue,1013.7755484003574,None,n,1013.7755484003574,None,"['n', 'return']","[1.108923800289631, 1.7088296003639698]",1013.7755484003574,None,,,64,001,2023_May_01_1149,ExactRep-v3-final,2021.2.3,59.96616715199747,
,,,,,,,,,,,,24,0,24,0,,,,,,,,,,,,,,,,,,,,,,,,,,,,,,,,,,,,,,,,,,,,,,,,,1017.7036142004654,None,,,,,,,,,,,,,,,,,,,,,,,,,,,,,,,,,,,,,,,,,,,,,,,,,,,,,,,,,library,234,25,aloud,new,blue,1016.0295395003632,None,n,1016.0295395003632,None,"['n', 'return']","[1.0072256997227669, 1.6308826999738812]",1016.0295395003632,None,,,64,001,2023_May_01_1149,ExactRep-v3-final,2021.2.3,59.96616715199747,
,,,,,,,,,,,,25,0,25,0,,,,,,,,,,,,,,,,,,,,,,,,,,,,,,,,,,,,,,,,,,,,,,,,,1019.7555805006996,None,,,,,,,,,,,,,,,,,,,,,,,,,,,,,,,,,,,,,,,,,,,,,,,,,,,,,,,,,person,104,26,aloud,old,blue,1018.2146890005097,None,n,1018.2146890005097,None,"['n', 'return']","[1.0457578003406525, 1.4937855005264282]",1018.2146890005097,None,,,64,001,2023_May_01_1149,ExactRep-v3-final,2021.2.3,59.96616715199747,
,,,,,,,,,,,,26,0,26,0,,,,,,,,,,,,,,,,,,,,,,,,,,,,,,,,,,,,,,,,,,,,,,,,,1022.291494300589,None,,,,,,,,,,,,,,,,,,,,,,,,,,,,,,,,,,,,,,,,,,,,,,,,,,,,,,,,,kiss,152,27,silent,new,white,1020.2672955002636,None,n,1020.2672955002636,None,"['n', 'return']","[1.4010640997439623, 1.97713110037148]",1020.2672955002636,None,,,64,001,2023_May_01_1149,ExactRep-v3-final,2021.2.3,59.96616715199747,
,,,,,,,,,,,,27,0,27,0,,,,,,,,,,,,,,,,,,,,,,,,,,,,,,,,,,,,,,,,,,,,,,,,,1024.2935295002535,None,,,,,,,,,,,,,,,,,,,,,,,,,,,,,,,,,,,,,,,,,,,,,,,,,,,,,,,,,wine,21,28,sing,old,red,1022.8006746005267,None,y,1022.8006746005267,None,"['y', 'return']","[1.1000226996839046, 1.4517930001020432]",1022.8006746005267,None,,,64,001,2023_May_01_1149,ExactRep-v3-final,2021.2.3,59.96616715199747,
,,,,,,,,,,,,28,0,28,0,,,,,,,,,,,,,,,,,,,,,,,,,,,,,,,,,,,,,,,,,,,,,,,,,1026.1287370007485,None,,,,,,,,,,,,,,,,,,,,,,,,,,,,,,,,,,,,,,,,,,,,,,,,,,,,,,,,,power,225,29,sing,new,red,1024.8030127007514,None,n,1024.8030127007514,None,"['n', 'return']","[0.8894156003370881, 1.2894556000828743]",1024.8030127007514,None,,,64,001,2023_May_01_1149,ExactRep-v3-final,2021.2.3,59.96616715199747,
,,,,,,,,,,,,29,0,29,0,,,,,,,,,,,,,,,,,,,,,,,,,,,,,,,,,,,,,,,,,,,,,,,,,1029.2985529005527,None,,,,,,,,,,,,,,,,,,,,,,,,,,,,,,,,,,,,,,,,,,,,,,,,,,,,,,,,,chair,128,30,silent,new,white,1026.6365816006437,None,y,1026.6365816006437,None,"['y', 'return']","[2.3279534997418523, 2.624030599370599]",1026.6365816006437,None,,,64,001,2023_May_01_1149,ExactRep-v3-final,2021.2.3,59.96616715199747,
,,,,,,,,,,,,30,0,30,0,,,,,,,,,,,,,,,,,,,,,,,,,,,,,,,,,,,,,,,,,,,,,,,,,1031.467367200181,None,,,,,,,,,,,,,,,,,,,,,,,,,,,,,,,,,,,,,,,,,,,,,,,,,,,,,,,,,form,157,31,silent,new,white,1029.8104183999822,None,n,1029.8104183999822,None,"['n', 'return']","[1.0980249997228384, 1.6181237995624542]",1029.8104183999822,None,,,64,001,2023_May_01_1149,ExactRep-v3-final,2021.2.3,59.96616715199747,
,,,,,,,,,,,,31,0,31,0,,,,,,,,,,,,,,,,,,,,,,,,,,,,,,,,,,,,,,,,,,,,,,,,,1033.4193048002198,None,,,,,,,,,,,,,,,,,,,,,,,,,,,,,,,,,,,,,,,,,,,,,,,,,,,,,,,,,series,164,32,aloud,new,blue,1031.9686099002138,None,n,1031.9686099002138,None,"['n', 'return']","[1.0438408004119992, 1.4121273001655936]",1031.9686099002138,None,,,64,001,2023_May_01_1149,ExactRep-v3-final,2021.2.3,59.96616715199747,
,,,,,,,,,,,,32,0,32,0,,,,,,,,,,,,,,,,,,,,,,,,,,,,,,,,,,,,,,,,,,,,,,,,,1036.7892782008275,None,,,,,,,,,,,,,,,,,,,,,,,,,,,,,,,,,,,,,,,,,,,,,,,,,,,,,,,,,house,18,33,sing,old,red,1033.9308385001495,None,n,1033.9308385001495,None,"['n', 'return']","[2.4657446006312966, 2.817808700725436]",1033.9308385001495,None,,,64,001,2023_May_01_1149,ExactRep-v3-final,2021.2.3,59.96616715199747,
,,,,,,,,,,,,33,0,33,0,,,,,,,,,,,,,,,,,,,,,,,,,,,,,,,,,,,,,,,,,,,,,,,,,1039.4920011004433,None,,,,,,,,,,,,,,,,,,,,,,,,,,,,,,,,,,,,,,,,,,,,,,,,,,,,,,,,,law,32,34,sing,old,red,1037.2981962002814,None,y,1037.2981962002814,None,"['y', 'return']","[1.7782661998644471, 2.1462123999372125]",1037.2981962002814,None,,,64,001,2023_May_01_1149,ExactRep-v3-final,2021.2.3,59.96616715199747,
,,,,,,,,,,,,34,0,34,0,,,,,,,,,,,,,,,,,,,,,,,,,,,,,,,,,,,,,,,,,,,,,,,,,1041.710966700688,None,,,,,,,,,,,,,,,,,,,,,,,,,,,,,,,,,,,,,,,,,,,,,,,,,,,,,,,,,home,201,35,sing,new,red,1040.001069300808,None,n,1040.001069300808,None,"['n', 'return']","[1.3152545997872949, 1.6754222996532917]",1040.001069300808,None,,,64,001,2023_May_01_1149,ExactRep-v3-final,2021.2.3,59.96616715199747,
,,,,,,,,,,,,35,0,35,0,,,,,,,,,,,,,,,,,,,,,,,,,,,,,,,,,,,,,,,,,,,,,,,,,1044.046586200595,None,,,,,,,,,,,,,,,,,,,,,,,,,,,,,,,,,,,,,,,,,,,,,,,,,,,,,,,,,maiden,6,36,sing,old,red,1042.2210041005164,None,y,1042.2210041005164,None,"['y', 'return']","[1.143434800207615, 1.7836079001426697]",1042.2210041005164,None,,,64,001,2023_May_01_1149,ExactRep-v3-final,2021.2.3,59.96616715199747,
,,,,,,,,,,,,36,0,36,0,,,,,,,,,,,,,,,,,,,,,,,,,,,,,,,,,,,,,,,,,,,,,,,,,1045.9818245004863,None,,,,,,,,,,,,,,,,,,,,,,,,,,,,,,,,,,,,,,,,,,,,,,,,,,,,,,,,,salary,239,37,sing,new,red,1044.5604651002213,None,n,1044.5604651002213,None,"['n', 'return']","[1.0359819997102022, 1.3800154002383351]",1044.5604651002213,None,,,64,001,2023_May_01_1149,ExactRep-v3-final,2021.2.3,59.96616715199747,
,,,,,,,,,,,,37,0,37,0,,,,,,,,,,,,,,,,,,,,,,,,,,,,,,,,,,,,,,,,,,,,,,,,,1048.0506302006543,None,,,,,,,,,,,,,,,,,,,,,,,,,,,,,,,,,,,,,,,,,,,,,,,,,,,,,,,,,string,11,38,sing,old,red,1046.4958490999416,None,n,1046.4958490999416,None,"['n', 'return']","[1.0446185003966093, 1.5086385002359748]",1046.4958490999416,None,,,64,001,2023_May_01_1149,ExactRep-v3-final,2021.2.3,59.96616715199747,
,,,,,,,,,,,,38,0,38,0,,,,,,,,,,,,,,,,,,,,,,,,,,,,,,,,,,,,,,,,,,,,,,,,,1050.202753700316,None,,,,,,,,,,,,,,,,,,,,,,,,,,,,,,,,,,,,,,,,,,,,,,,,,,,,,,,,,market,119,39,aloud,old,blue,1048.5628610001877,None,y,1048.5628610001877,None,"['y', 'return']","[1.18559439945966, 1.6016807993873954]",1048.5628610001877,None,,,64,001,2023_May_01_1149,ExactRep-v3-final,2021.2.3,59.96616715199747,
,,,,,,,,,,,,39,0,39,0,,,,,,,,,,,,,,,,,,,,,,,,,,,,,,,,,,,,,,,,,,,,,,,,,1052.4383167000487,None,,,,,,,,,,,,,,,,,,,,,,,,,,,,,,,,,,,,,,,,,,,,,,,,,,,,,,,,,death,143,40,silent,new,white,1050.7140162000433,None,n,1050.7140162000433,None,"['n', 'return']","[1.1785078002139926, 1.6824767999351025]",1050.7140162000433,None,,,64,001,2023_May_01_1149,ExactRep-v3-final,2021.2.3,59.96616715199747,
,,,,,,,,,,,,40,0,40,0,,,,,,,,,,,,,,,,,,,,,,,,,,,,,,,,,,,,,,,,,,,,,,,,,1055.2912041004747,None,,,,,,,,,,,,,,,,,,,,,,,,,,,,,,,,,,,,,,,,,,,,,,,,,,,,,,,,,leader,224,41,aloud,new,blue,1052.947179400362,None,n,1052.947179400362,None,"['n', 'return']","[1.9214147003367543, 2.3053357005119324]",1052.947179400362,None,,,64,001,2023_May_01_1149,ExactRep-v3-final,2021.2.3,59.96616715199747,
,,,,,,,,,,,,41,0,41,0,,,,,,,,,,,,,,,,,,,,,,,,,,,,,,,,,,,,,,,,,,,,,,,,,1057.9938320005313,None,,,,,,,,,,,,,,,,,,,,,,,,,,,,,,,,,,,,,,,,,,,,,,,,,,,,,,,,,machine,68,42,silent,old,white,1055.801142600365,None,n,1055.801142600365,None,"['n', 'return']","[1.7474269000813365, 2.1554341996088624]",1055.801142600365,None,,,64,001,2023_May_01_1149,ExactRep-v3-final,2021.2.3,59.96616715199747,
,,,,,,,,,,,,42,0,42,0,,,,,,,,,,,,,,,,,,,,,,,,,,,,,,,,,,,,,,,,,,,,,,,,,1060.0292653003708,None,,,,,,,,,,,,,,,,,,,,,,,,,,,,,,,,,,,,,,,,,,,,,,,,,,,,,,,,,prayer,118,43,aloud,old,blue,1058.5145217999816,None,y,1058.5145217999816,None,"['y', 'return']","[1.1300755003467202, 1.4741281997412443]",1058.5145217999816,None,,,64,001,2023_May_01_1149,ExactRep-v3-final,2021.2.3,59.96616715199747,
,,,,,,,,,,,,43,0,43,0,,,,,,,,,,,,,,,,,,,,,,,,,,,,,,,,,,,,,,,,,,,,,,,,,1062.047859100625,None,,,,,,,,,,,,,,,,,,,,,,,,,,,,,,,,,,,,,,,,,,,,,,,,,,,,,,,,,dust,133,44,silent,new,white,1060.53867550008,None,n,1060.53867550008,None,"['n', 'return']","[0.8578581996262074, 1.465811099857092]",1060.53867550008,None,,,64,001,2023_May_01_1149,ExactRep-v3-final,2021.2.3,59.96616715199747,
,,,,,,,,,,,,44,0,44,0,,,,,,,,,,,,,,,,,,,,,,,,,,,,,,,,,,,,,,,,,,,,,,,,,1064.9841231005266,None,,,,,,,,,,,,,,,,,,,,,,,,,,,,,,,,,,,,,,,,,,,,,,,,,,,,,,,,,honour,91,45,aloud,old,blue,1062.5494906008244,None,n,1062.5494906008244,None,"['n', 'return']","[1.9029075996950269, 2.3909443002194166]",1062.5494906008244,None,,,64,001,2023_May_01_1149,ExactRep-v3-final,2021.2.3,59.96616715199747,
,,,,,,,,,,,,45,0,45,0,,,,,,,,,,,,,,,,,,,,,,,,,,,,,,,,,,,,,,,,,,,,,,,,,1067.2198295006528,None,,,,,,,,,,,,,,,,,,,,,,,,,,,,,,,,,,,,,,,,,,,,,,,,,,,,,,,,,custom,34,46,sing,old,red,1065.4921758007258,None,y,1065.4921758007258,None,"['y', 'return']","[1.1763270003721118, 1.680336500518024]",1065.4921758007258,None,,,64,001,2023_May_01_1149,ExactRep-v3-final,2021.2.3,59.96616715199747,
,,,,,,,,,,,,46,0,46,0,,,,,,,,,,,,,,,,,,,,,,,,,,,,,,,,,,,,,,,,,,,,,,,,,1069.4219277007505,None,,,,,,,,,,,,,,,,,,,,,,,,,,,,,,,,,,,,,,,,,,,,,,,,,,,,,,,,,garden,228,47,aloud,new,blue,1067.7297988999635,None,n,1067.7297988999635,None,"['n', 'return']","[1.19465500023216, 1.6587918000295758]",1067.7297988999635,None,,,64,001,2023_May_01_1149,ExactRep-v3-final,2021.2.3,59.96616715199747,
,,,,,,,,,,,,47,0,47,0,,,,,,,,,,,,,,,,,,,,,,,,,,,,,,,,,,,,,,,,,,,,,,,,,1071.3071744004264,None,,,,,,,,,,,,,,,,,,,,,,,,,,,,,,,,,,,,,,,,,,,,,,,,,,,,,,,,,lip,180,48,aloud,new,blue,1069.9310164004564,None,n,1069.9310164004564,None,"['n', 'return']","[0.945605999790132, 1.3295756997540593]",1069.9310164004564,None,,,64,001,2023_May_01_1149,ExactRep-v3-final,2021.2.3,59.96616715199747,
,,,,,,,,,,,,48,0,48,0,,,,,,,,,,,,,,,,,,,,,,,,,,,,,,,,,,,,,,,,,,,,,,,,,1075.311149599962,None,,,,,,,,,,,,,,,,,,,,,,,,,,,,,,,,,,,,,,,,,,,,,,,,,,,,,,,,,coffee,137,49,silent,new,white,1071.8171463999897,None,n,1071.8171463999897,None,"['n', 'return']","[0.9473393997177482, 3.459264099597931]",1071.8171463999897,None,,,64,001,2023_May_01_1149,ExactRep-v3-final,2021.2.3,59.96616715199747,
,,,,,,,,,,,,49,0,49,0,,,,,,,,,,,,,,,,,,,,,,,,,,,,,,,,,,,,,,,,,,,,,,,,,1077.6801564004272,None,,,,,,,,,,,,,,,,,,,,,,,,,,,,,,,,,,,,,,,,,,,,,,,,,,,,,,,,,animal,183,50,sing,new,red,1075.8226903006434,None,n,1075.8226903006434,None,"['n', 'return']","[1.0778834000229836, 1.8137429999187589]",1075.8226903006434,None,,,64,001,2023_May_01_1149,ExactRep-v3-final,2021.2.3,59.96616715199747,
,,,,,,,,,,,,50,0,50,0,,,,,,,,,,,,,,,,,,,,,,,,,,,,,,,,,,,,,,,,,,,,,,,,,1079.782289000228,None,,,,,,,,,,,,,,,,,,,,,,,,,,,,,,,,,,,,,,,,,,,,,,,,,,,,,,,,,seat,208,51,aloud,new,blue,1078.1902217008173,None,n,1078.1902217008173,None,"['n', 'return']","[0.8624499002471566, 1.5582777997478843]",1078.1902217008173,None,,,64,001,2023_May_01_1149,ExactRep-v3-final,2021.2.3,59.96616715199747,
,,,,,,,,,,,,51,0,51,0,,,,,,,,,,,,,,,,,,,,,,,,,,,,,,,,,,,,,,,,,,,,,,,,,1082.4349088007584,None,,,,,,,,,,,,,,,,,,,,,,,,,,,,,,,,,,,,,,,,,,,,,,,,,,,,,,,,,boulder,98,52,aloud,old,blue,1080.2919012000784,None,y,1080.2919012000784,None,"['y', 'return']","[1.6086047999560833, 2.1045941999182105]",1080.2919012000784,None,,,64,001,2023_May_01_1149,ExactRep-v3-final,2021.2.3,59.96616715199747,
,,,,,,,,,,,,52,0,52,0,,,,,,,,,,,,,,,,,,,,,,,,,,,,,,,,,,,,,,,,,,,,,,,,,1084.4035765007138,None,,,,,,,,,,,,,,,,,,,,,,,,,,,,,,,,,,,,,,,,,,,,,,,,,,,,,,,,,ocean,149,53,silent,new,white,1082.9434613008052,None,n,1082.9434613008052,None,"['n', 'return']","[0.9650173000991344, 1.413059700280428]",1082.9434613008052,None,,,64,001,2023_May_01_1149,ExactRep-v3-final,2021.2.3,59.96616715199747,
,,,,,,,,,,,,53,0,53,0,,,,,,,,,,,,,,,,,,,,,,,,,,,,,,,,,,,,,,,,,,,,,,,,,1087.2730373004451,None,,,,,,,,,,,,,,,,,,,,,,,,,,,,,,,,,,,,,,,,,,,,,,,,,,,,,,,,,doctor,51,54,silent,old,white,1084.9160608006641,None,y,1084.9160608006641,None,"['y', 'return']","[1.9364513996988535, 2.3123987996950746]",1084.9160608006641,None,,,64,001,2023_May_01_1149,ExactRep-v3-final,2021.2.3,59.96616715199747,
,,,,,,,,,,,,54,0,54,0,,,,,,,,,,,,,,,,,,,,,,,,,,,,,,,,,,,,,,,,,,,,,,,,,1089.1585051007569,None,,,,,,,,,,,,,,,,,,,,,,,,,,,,,,,,,,,,,,,,,,,,,,,,,,,,,,,,,officer,42,55,silent,old,white,1087.7831473005936,None,n,1087.7831473005936,None,"['n', 'return']","[0.8854542998597026, 1.3413428999483585]",1087.7831473005936,None,,,64,001,2023_May_01_1149,ExactRep-v3-final,2021.2.3,59.96616715199747,
,,,,,,,,,,,,55,0,55,0,,,,,,,,,,,,,,,,,,,,,,,,,,,,,,,,,,,,,,,,,,,,,,,,,1091.2270353008062,None,,,,,,,,,,,,,,,,,,,,,,,,,,,,,,,,,,,,,,,,,,,,,,,,,,,,,,,,,butter,92,56,aloud,old,blue,1089.6916770003736,None,y,1089.6916770003736,None,"['y', 'return']","[1.0649442998692393, 1.496857300400734]",1089.6916770003736,None,,,64,001,2023_May_01_1149,ExactRep-v3-final,2021.2.3,59.96616715199747,
,,,,,,,,,,,,56,0,56,0,,,,,,,,,,,,,,,,,,,,,,,,,,,,,,,,,,,,,,,,,,,,,,,,,1093.9465551003814,None,,,,,,,,,,,,,,,,,,,,,,,,,,,,,,,,,,,,,,,,,,,,,,,,,,,,,,,,,time,47,57,silent,old,white,1091.7343588005751,None,y,1091.7343588005751,None,"['y', 'return']","[1.8300270000472665, 2.174141699448228]",1091.7343588005751,None,,,64,001,2023_May_01_1149,ExactRep-v3-final,2021.2.3,59.96616715199747,
,,,,,,,,,,,,57,0,57,0,,,,,,,,,,,,,,,,,,,,,,,,,,,,,,,,,,,,,,,,,,,,,,,,,1095.9986780006438,None,,,,,,,,,,,,,,,,,,,,,,,,,,,,,,,,,,,,,,,,,,,,,,,,,,,,,,,,,flower,28,58,sing,old,red,1094.4558133007959,None,n,1094.4558133007959,None,"['n', 'return']","[0.9967747004702687, 1.5087897004559636]",1094.4558133007959,None,,,64,001,2023_May_01_1149,ExactRep-v3-final,2021.2.3,59.96616715199747,
,,,,,,,,,,,,58,0,58,0,,,,,,,,,,,,,,,,,,,,,,,,,,,,,,,,,,,,,,,,,,,,,,,,,1097.9337643003091,None,,,,,,,,,,,,,,,,,,,,,,,,,,,,,,,,,,,,,,,,,,,,,,,,,,,,,,,,,cattle,41,59,silent,old,white,1096.5003114007413,None,n,1096.5003114007413,None,"['n', 'return']","[0.8962145997211337, 1.4001875994727015]",1096.5003114007413,None,,,64,001,2023_May_01_1149,ExactRep-v3-final,2021.2.3,59.96616715199747,
,,,,,,,,,,,,59,0,59,0,,,,,,,,,,,,,,,,,,,,,,,,,,,,,,,,,,,,,,,,,,,,,,,,,1099.802332800813,None,,,,,,,,,,,,,,,,,,,,,,,,,,,,,,,,,,,,,,,,,,,,,,,,,,,,,,,,,apple,52,60,silent,old,white,1098.4460562001914,None,n,1098.4460562001914,None,"['n', 'return']","[0.8226006999611855, 1.3185310000553727]",1098.4460562001914,None,,,64,001,2023_May_01_1149,ExactRep-v3-final,2021.2.3,59.96616715199747,
,,,,,,,,,,,,60,0,60,0,,,,,,,,,,,,,,,,,,,,,,,,,,,,,,,,,,,,,,,,,,,,,,,,,1101.8545213006437,None,,,,,,,,,,,,,,,,,,,,,,,,,,,,,,,,,,,,,,,,,,,,,,,,,,,,,,,,,shame,25,61,sing,old,red,1100.3104632999748,None,n,1100.3104632999748,None,"['n', 'return']","[1.0700631001964211, 1.5020731994882226]",1100.3104632999748,None,,,64,001,2023_May_01_1149,ExactRep-v3-final,2021.2.3,59.96616715199747,
,,,,,,,,,,,,61,0,61,0,,,,,,,,,,,,,,,,,,,,,,,,,,,,,,,,,,,,,,,,,,,,,,,,,1103.7898460002616,None,,,,,,,,,,,,,,,,,,,,,,,,,,,,,,,,,,,,,,,,,,,,,,,,,,,,,,,,,style,108,62,aloud,old,blue,1102.3670662008226,None,y,1102.3670662008226,None,"['y', 'return']","[1.0137232998386025, 1.3896300001069903]",1102.3670662008226,None,,,64,001,2023_May_01_1149,ExactRep-v3-final,2021.2.3,59.96616715199747,
,,,,,,,,,,,,62,0,62,0,,,,,,,,,,,,,,,,,,,,,,,,,,,,,,,,,,,,,,,,,,,,,,,,,1105.7249033004045,None,,,,,,,,,,,,,,,,,,,,,,,,,,,,,,,,,,,,,,,,,,,,,,,,,,,,,,,,,duty,125,63,silent,new,white,1104.298630900681,None,n,1104.298630900681,None,"['n', 'return']","[0.946026099845767, 1.394009799696505]",1104.298630900681,None,,,64,001,2023_May_01_1149,ExactRep-v3-final,2021.2.3,59.96616715199747,
,,,,,,,,,,,,63,0,63,0,,,,,,,,,,,,,,,,,,,,,,,,,,,,,,,,,,,,,,,,,,,,,,,,,1107.476657700725,None,,,,,,,,,,,,,,,,,,,,,,,,,,,,,,,,,,,,,,,,,,,,,,,,,,,,,,,,,charm,73,64,silent,old,white,1106.2359004002064,None,n,1106.2359004002064,None,"['n', 'return']","[0.7847420005127788, 1.2086626002565026]",1106.2359004002064,None,,,64,001,2023_May_01_1149,ExactRep-v3-final,2021.2.3,59.96616715199747,
,,,,,,,,,,,,64,0,64,0,,,,,,,,,,,,,,,,,,,,,,,,,,,,,,,,,,,,,,,,,,,,,,,,,1111.5473708007485,None,,,,,,,,,,,,,,,,,,,,,,,,,,,,,,,,,,,,,,,,,,,,,,,,,,,,,,,,,insect,9,65,sing,old,red,1107.9880526000634,None,n,1107.9880526000634,None,"['n', 'return']","[1.672360299155116, 3.5127699999138713]",1107.9880526000634,None,,,64,001,2023_May_01_1149,ExactRep-v3-final,2021.2.3,59.96616715199747,
,,,,,,,,,,,,65,0,65,0,,,,,,,,,,,,,,,,,,,,,,,,,,,,,,,,,,,,,,,,,,,,,,,,,1113.8496950007975,None,,,,,,,,,,,,,,,,,,,,,,,,,,,,,,,,,,,,,,,,,,,,,,,,,,,,,,,,,fur,24,66,sing,old,red,1112.0573104005307,None,n,1112.0573104005307,None,"['n', 'return']","[1.3551927004009485, 1.755213400349021]",1112.0573104005307,None,,,64,001,2023_May_01_1149,ExactRep-v3-final,2021.2.3,59.96616715199747,
,,,,,,,,,,,,66,0,66,0,,,,,,,,,,,,,,,,,,,,,,,,,,,,,,,,,,,,,,,,,,,,,,,,,1115.6682087006047,None,,,,,,,,,,,,,,,,,,,,,,,,,,,,,,,,,,,,,,,,,,,,,,,,,,,,,,,,,fate,195,67,sing,new,red,1114.358686500229,None,n,1114.358686500229,None,"['n', 'return']","[0.8058644002303481, 1.2617728002369404]",1114.358686500229,None,,,64,001,2023_May_01_1149,ExactRep-v3-final,2021.2.3,59.96616715199747,
,,,,,,,,,,,,67,0,67,0,,,,,,,,,,,,,,,,,,,,,,,,,,,,,,,,,,,,,,,,,,,,,,,,,1119.6888465005904,None,,,,,,,,,,,,,,,,,,,,,,,,,,,,,,,,,,,,,,,,,,,,,,,,,,,,,,,,,priest,43,68,silent,old,white,1116.1780308000743,None,y,1116.1780308000743,None,"['y', 'return']","[3.074487700127065, 3.4664271995425224]",1116.1780308000743,None,,,64,001,2023_May_01_1149,ExactRep-v3-final,2021.2.3,59.96616715199747,
,,,,,,,,,,,,68,0,68,0,,,,,,,,,,,,,,,,,,,,,,,,,,,,,,,,,,,,,,,,,,,,,,,,,1121.5741567006335,None,,,,,,,,,,,,,,,,,,,,,,,,,,,,,,,,,,,,,,,,,,,,,,,,,,,,,,,,,shock,138,69,silent,new,white,1120.2000131001696,None,n,1120.2000131001696,None,"['n', 'return']","[0.940544799901545, 1.332646400667727]",1120.2000131001696,None,,,64,001,2023_May_01_1149,ExactRep-v3-final,2021.2.3,59.96616715199747,
,,,,,,,,,,,,69,0,69,0,,,,,,,,,,,,,,,,,,,,,,,,,,,,,,,,,,,,,,,,,,,,,,,,,1123.5261284001172,None,,,,,,,,,,,,,,,,,,,,,,,,,,,,,,,,,,,,,,,,,,,,,,,,,,,,,,,,,army,7,70,sing,old,red,1122.0830233003944,None,n,1122.0830233003944,None,"['n', 'return']","[0.9535127002745867, 1.4095571003854275]",1122.0830233003944,None,,,64,001,2023_May_01_1149,ExactRep-v3-final,2021.2.3,59.96616715199747,
,,,,,,,,,,,,70,0,70,0,,,,,,,,,,,,,,,,,,,,,,,,,,,,,,,,,,,,,,,,,,,,,,,,,1125.461477700621,None,,,,,,,,,,,,,,,,,,,,,,,,,,,,,,,,,,,,,,,,,,,,,,,,,,,,,,,,,steam,0,71,sing,old,red,1124.0369687005877,None,n,1124.0369687005877,None,"['n', 'return']","[0.9835903001949191, 1.3836260000243783]",1124.0369687005877,None,,,64,001,2023_May_01_1149,ExactRep-v3-final,2021.2.3,59.96616715199747,
,,,,,,,,,,,,71,0,71,0,,,,,,,,,,,,,,,,,,,,,,,,,,,,,,,,,,,,,,,,,,,,,,,,,1128.5145614007488,None,,,,,,,,,,,,,,,,,,,,,,,,,,,,,,,,,,,,,,,,,,,,,,,,,,,,,,,,,journal,8,72,sing,old,red,1125.9825444007292,None,n,1125.9825444007292,None,"['n', 'return']","[2.134073100052774, 2.486064400523901]",1125.9825444007292,None,,,64,001,2023_May_01_1149,ExactRep-v3-final,2021.2.3,59.96616715199747,
,,,,,,,,,,,,72,0,72,0,,,,,,,,,,,,,,,,,,,,,,,,,,,,,,,,,,,,,,,,,,,,,,,,,1130.432951000519,None,,,,,,,,,,,,,,,,,,,,,,,,,,,,,,,,,,,,,,,,,,,,,,,,,,,,,,,,,meat,217,73,sing,new,red,1129.0194606008008,None,n,1129.0194606008008,None,"['n', 'return']","[0.9213327998295426, 1.3690672991797328]",1129.0194606008008,None,,,64,001,2023_May_01_1149,ExactRep-v3-final,2021.2.3,59.96616715199747,
,,,,,,,,,,,,73,0,73,0,,,,,,,,,,,,,,,,,,,,,,,,,,,,,,,,,,,,,,,,,,,,,,,,,1132.2180550005287,None,,,,,,,,,,,,,,,,,,,,,,,,,,,,,,,,,,,,,,,,,,,,,,,,,,,,,,,,,circle,72,74,silent,old,white,1130.9404458999634,None,n,1130.9404458999634,None,"['n', 'return']","[0.8401913000270724, 1.232179599814117]",1130.9404458999634,None,,,64,001,2023_May_01_1149,ExactRep-v3-final,2021.2.3,59.96616715199747,
,,,,,,,,,,,,74,0,74,0,,,,,,,,,,,,,,,,,,,,,,,,,,,,,,,,,,,,,,,,,,,,,,,,,1134.5870866002515,None,,,,,,,,,,,,,,,,,,,,,,,,,,,,,,,,,,,,,,,,,,,,,,,,,,,,,,,,,crime,93,75,aloud,old,blue,1132.7300412999466,None,y,1132.7300412999466,None,"['y', 'return']","[1.4585376996546984, 1.810529999434948]",1132.7300412999466,None,,,64,001,2023_May_01_1149,ExactRep-v3-final,2021.2.3,59.96616715199747,
,,,,,,,,,,,,75,0,75,0,,,,,,,,,,,,,,,,,,,,,,,,,,,,,,,,,,,,,,,,,,,,,,,,,1136.6726809004322,None,,,,,,,,,,,,,,,,,,,,,,,,,,,,,,,,,,,,,,,,,,,,,,,,,,,,,,,,,idea,26,76,sing,old,red,1135.091111600399,None,n,1135.091111600399,None,"['n', 'return']","[1.1615399001166224, 1.545494499616325]",1135.091111600399,None,,,64,001,2023_May_01_1149,ExactRep-v3-final,2021.2.3,59.96616715199747,
,,,,,,,,,,,,76,0,76,0,,,,,,,,,,,,,,,,,,,,,,,,,,,,,,,,,,,,,,,,,,,,,,,,,1138.6745030004531,None,,,,,,,,,,,,,,,,,,,,,,,,,,,,,,,,,,,,,,,,,,,,,,,,,,,,,,,,,soul,135,77,silent,new,white,1137.1826806999743,None,n,1137.1826806999743,None,"['n', 'return']","[1.0780238006263971, 1.4460156001150608]",1137.1826806999743,None,,,64,001,2023_May_01_1149,ExactRep-v3-final,2021.2.3,59.96616715199747,
,,,,,,,,,,,,77,0,77,0,,,,,,,,,,,,,,,,,,,,,,,,,,,,,,,,,,,,,,,,,,,,,,,,,1140.426232800819,None,,,,,,,,,,,,,,,,,,,,,,,,,,,,,,,,,,,,,,,,,,,,,,,,,,,,,,,,,ship,53,78,silent,old,white,1139.1914277002215,None,n,1139.1914277002215,None,"['n', 'return']","[0.813336200080812, 1.189224699512124]",1139.1914277002215,None,,,64,001,2023_May_01_1149,ExactRep-v3-final,2021.2.3,59.96616715199747,
,,,,,,,,,,,,78,0,78,0,,,,,,,,,,,,,,,,,,,,,,,,,,,,,,,,,,,,,,,,,,,,,,,,,1142.645144900307,None,,,,,,,,,,,,,,,,,,,,,,,,,,,,,,,,,,,,,,,,,,,,,,,,,,,,,,,,,present,106,79,aloud,old,blue,1140.937785900198,None,y,1140.937785900198,None,"['y', 'return']","[1.2587740998715162, 1.67475809995085]",1140.937785900198,None,,,64,001,2023_May_01_1149,ExactRep-v3-final,2021.2.3,59.96616715199747,
,,,,,,,,,,,,79,0,79,0,,,,,,,,,,,,,,,,,,,,,,,,,,,,,,,,,,,,,,,,,,,,,,,,,1144.6473309006542,None,,,,,,,,,,,,,,,,,,,,,,,,,,,,,,,,,,,,,,,,,,,,,,,,,,,,,,,,,prison,220,80,aloud,new,blue,1143.1594046000391,None,n,1143.1594046000391,None,"['n', 'return']","[1.1091989995911717, 1.4531951993703842]",1143.1594046000391,None,,,64,001,2023_May_01_1149,ExactRep-v3-final,2021.2.3,59.96616715199747,
,,,,,,,,,,,,80,0,80,0,,,,,,,,,,,,,,,,,,,,,,,,,,,,,,,,,,,,,,,,,,,,,,,,,1146.699162600562,None,,,,,,,,,,,,,,,,,,,,,,,,,,,,,,,,,,,,,,,,,,,,,,,,,,,,,,,,,dream,49,81,silent,old,white,1145.1611194005236,None,n,1145.1611194005236,None,"['n', 'return']","[1.1716320998966694, 1.491562900133431]",1145.1611194005236,None,,,64,001,2023_May_01_1149,ExactRep-v3-final,2021.2.3,59.96616715199747,
,,,,,,,,,,,,81,0,81,0,,,,,,,,,,,,,,,,,,,,,,,,,,,,,,,,,,,,,,,,,,,,,,,,,1148.484385699965,None,,,,,,,,,,,,,,,,,,,,,,,,,,,,,,,,,,,,,,,,,,,,,,,,,,,,,,,,,hour,173,82,sing,new,red,1147.2093825004995,None,n,1147.2093825004995,None,"['n', 'return']","[0.9313187999650836, 1.2432810999453068]",1147.2093825004995,None,,,64,001,2023_May_01_1149,ExactRep-v3-final,2021.2.3,59.96616715199747,
,,,,,,,,,,,,82,0,82,0,,,,,,,,,,,,,,,,,,,,,,,,,,,,,,,,,,,,,,,,,,,,,,,,,1150.4529634006321,None,,,,,,,,,,,,,,,,,,,,,,,,,,,,,,,,,,,,,,,,,,,,,,,,,,,,,,,,,wife,145,83,silent,new,white,1148.994501100853,None,n,1148.994501100853,None,"['n', 'return']","[1.1139440005645156, 1.4180714003741741]",1148.994501100853,None,,,64,001,2023_May_01_1149,ExactRep-v3-final,2021.2.3,59.96616715199747,
,,,,,,,,,,,,83,0,83,0,,,,,,,,,,,,,,,,,,,,,,,,,,,,,,,,,,,,,,,,,,,,,,,,,1152.25474689994,None,,,,,,,,,,,,,,,,,,,,,,,,,,,,,,,,,,,,,,,,,,,,,,,,,,,,,,,,,love,222,84,aloud,new,blue,1150.9621092006564,None,n,1150.9621092006564,None,"['n', 'return']","[0.9704582002013922, 1.250416299328208]",1150.9621092006564,None,,,64,001,2023_May_01_1149,ExactRep-v3-final,2021.2.3,59.96616715199747,
,,,,,,,,,,,,84,0,84,0,,,,,,,,,,,,,,,,,,,,,,,,,,,,,,,,,,,,,,,,,,,,,,,,,1153.923176000826,None,,,,,,,,,,,,,,,,,,,,,,,,,,,,,,,,,,,,,,,,,,,,,,,,,,,,,,,,,event,177,85,sing,new,red,1152.7629229007289,None,n,1152.7629229007289,None,"['n', 'return']","[0.7776633994653821, 1.1137097999453545]",1152.7629229007289,None,,,64,001,2023_May_01_1149,ExactRep-v3-final,2021.2.3,59.96616715199747,
,,,,,,,,,,,,85,0,85,0,,,,,,,,,,,,,,,,,,,,,,,,,,,,,,,,,,,,,,,,,,,,,,,,,1155.6415730006993,None,,,,,,,,,,,,,,,,,,,,,,,,,,,,,,,,,,,,,,,,,,,,,,,,,,,,,,,,,coast,134,86,silent,new,white,1154.4305422008038,None,n,1154.4305422008038,None,"['n', 'return']","[0.8780680997297168, 1.1661080997437239]",1154.4305422008038,None,,,64,001,2023_May_01_1149,ExactRep-v3-final,2021.2.3,59.96616715199747,
,,,,,,,,,,,,86,0,86,0,,,,,,,,,,,,,,,,,,,,,,,,,,,,,,,,,,,,,,,,,,,,,,,,,1157.4767252001911,None,,,,,,,,,,,,,,,,,,,,,,,,,,,,,,,,,,,,,,,,,,,,,,,,,,,,,,,,,money,204,87,aloud,new,blue,1156.1529765008017,None,n,1156.1529765008017,None,"['n', 'return']","[1.0516196005046368, 1.2916758004575968]",1156.1529765008017,None,,,64,001,2023_May_01_1149,ExactRep-v3-final,2021.2.3,59.96616715199747,
,,,,,,,,,,,,87,0,87,0,,,,,,,,,,,,,,,,,,,,,,,,,,,,,,,,,,,,,,,,,,,,,,,,,1159.2785419002175,None,,,,,,,,,,,,,,,,,,,,,,,,,,,,,,,,,,,,,,,,,,,,,,,,,,,,,,,,,cost,235,88,sing,new,red,1157.9857352003455,None,n,1157.9857352003455,None,"['n', 'return']","[0.9631154993548989, 1.2589052999392152]",1157.9857352003455,None,,,64,001,2023_May_01_1149,ExactRep-v3-final,2021.2.3,59.96616715199747,
,,,,,,,,,,,,88,0,88,0,,,,,,,,,,,,,,,,,,,,,,,,,,,,,,,,,,,,,,,,,,,,,,,,,1161.3138252999634,None,,,,,,,,,,,,,,,,,,,,,,,,,,,,,,,,,,,,,,,,,,,,,,,,,,,,,,,,,meeting,237,89,sing,new,red,1159.7867833999917,None,n,1159.7867833999917,None,"['n', 'return']","[1.14572780020535, 1.4817762998864055]",1159.7867833999917,None,,,64,001,2023_May_01_1149,ExactRep-v3-final,2021.2.3,59.96616715199747,
,,,,,,,,,,,,89,0,89,0,,,,,,,,,,,,,,,,,,,,,,,,,,,,,,,,,,,,,,,,,,,,,,,,,1163.1656706007197,None,,,,,,,,,,,,,,,,,,,,,,,,,,,,,,,,,,,,,,,,,,,,,,,,,,,,,,,,,cat,48,90,silent,old,white,1161.82289460022,None,n,1161.82289460022,None,"['n', 'return']","[1.0376385999843478, 1.3097785003483295]",1161.82289460022,None,,,64,001,2023_May_01_1149,ExactRep-v3-final,2021.2.3,59.96616715199747,
,,,,,,,,,,,,90,0,90,0,,,,,,,,,,,,,,,,,,,,,,,,,,,,,,,,,,,,,,,,,,,,,,,,,1164.884033500217,None,,,,,,,,,,,,,,,,,,,,,,,,,,,,,,,,,,,,,,,,,,,,,,,,,,,,,,,,,iron,216,91,aloud,new,blue,1163.6746926000342,None,n,1163.6746926000342,None,"['n', 'return']","[0.7858686000108719, 1.1618577996268868]",1163.6746926000342,None,,,64,001,2023_May_01_1149,ExactRep-v3-final,2021.2.3,59.96616715199747,
,,,,,,,,,,,,91,0,91,0,,,,,,,,,,,,,,,,,,,,,,,,,,,,,,,,,,,,,,,,,,,,,,,,,1166.6524896007031,None,,,,,,,,,,,,,,,,,,,,,,,,,,,,,,,,,,,,,,,,,,,,,,,,,,,,,,,,,bar,58,92,silent,old,white,1165.3867381000891,None,n,1165.3867381000891,None,"['n', 'return']","[0.8099579000845551, 1.2338609006255865]",1165.3867381000891,None,,,64,001,2023_May_01_1149,ExactRep-v3-final,2021.2.3,59.96616715199747,
,,,,,,,,,,,,92,0,92,0,,,,,,,,,,,,,,,,,,,,,,,,,,,,,,,,,,,,,,,,,,,,,,,,,1168.4376846002415,None,,,,,,,,,,,,,,,,,,,,,,,,,,,,,,,,,,,,,,,,,,,,,,,,,,,,,,,,,storm,141,93,silent,new,white,1167.1634961999953,None,n,1167.1634961999953,None,"['n', 'return']","[0.8491396000608802, 1.2330192001536489]",1167.1634961999953,None,,,64,001,2023_May_01_1149,ExactRep-v3-final,2021.2.3,59.96616715199747,
,,,,,,,,,,,,93,0,93,0,,,,,,,,,,,,,,,,,,,,,,,,,,,,,,,,,,,,,,,,,,,,,,,,,1170.1226764004678,None,,,,,,,,,,,,,,,,,,,,,,,,,,,,,,,,,,,,,,,,,,,,,,,,,,,,,,,,,fault,70,94,silent,old,white,1168.947370200418,None,n,1168.947370200418,None,"['n', 'return']","[0.8012428004294634, 1.1292989002540708]",1168.947370200418,None,,,64,001,2023_May_01_1149,ExactRep-v3-final,2021.2.3,59.96616715199747,
,,,,,,,,,,,,94,0,94,0,,,,,,,,,,,,,,,,,,,,,,,,,,,,,,,,,,,,,,,,,,,,,,,,,1172.1746488008648,None,,,,,,,,,,,,,,,,,,,,,,,,,,,,,,,,,,,,,,,,,,,,,,,,,,,,,,,,,safety,74,95,silent,old,white,1170.6309033008292,None,y,1170.6309033008292,None,"['y', 'return']","[1.221807099878788, 1.5096354996785522]",1170.6309033008292,None,,,64,001,2023_May_01_1149,ExactRep-v3-final,2021.2.3,59.96616715199747,
,,,,,,,,,,,,95,0,95,0,,,,,,,,,,,,,,,,,,,,,,,,,,,,,,,,,,,,,,,,,,,,,,,,,1174.1100194007158,None,,,,,,,,,,,,,,,,,,,,,,,,,,,,,,,,,,,,,,,,,,,,,,,,,,,,,,,,,glory,144,96,silent,new,white,1172.6917702006176,None,n,1172.6917702006176,None,"['n', 'return']","[1.0969565995037556, 1.3767873998731375]",1172.6917702006176,None,,,64,001,2023_May_01_1149,ExactRep-v3-final,2021.2.3,59.96616715199747,
,,,,,,,,,,,,96,0,96,0,,,,,,,,,,,,,,,,,,,,,,,,,,,,,,,,,,,,,,,,,,,,,,,,,1175.8617017008364,None,,,,,,,,,,,,,,,,,,,,,,,,,,,,,,,,,,,,,,,,,,,,,,,,,,,,,,,,,dress,126,97,silent,new,white,1174.6115125007927,None,n,1174.6115125007927,None,"['n', 'return']","[0.7850697999820113, 1.2170970998704433]",1174.6115125007927,None,,,64,001,2023_May_01_1149,ExactRep-v3-final,2021.2.3,59.96616715199747,
,,,,,,,,,,,,97,0,97,0,,,,,,,,,,,,,,,,,,,,,,,,,,,,,,,,,,,,,,,,,,,,,,,,,1177.5802577007562,None,,,,,,,,,,,,,,,,,,,,,,,,,,,,,,,,,,,,,,,,,,,,,,,,,,,,,,,,,paper,215,98,sing,new,red,1176.368989000097,None,n,1176.368989000097,None,"['n', 'return']","[0.8675640998408198, 1.1797013003379107]",1176.368989000097,None,,,64,001,2023_May_01_1149,ExactRep-v3-final,2021.2.3,59.96616715199747,
,,,,,,,,,,,,98,0,98,0,,,,,,,,,,,,,,,,,,,,,,,,,,,,,,,,,,,,,,,,,,,,,,,,,1179.3318441007286,None,,,,,,,,,,,,,,,,,,,,,,,,,,,,,,,,,,,,,,,,,,,,,,,,,,,,,,,,,cash,219,99,sing,new,red,1178.0901910001412,None,n,1178.0901910001412,None,"['n', 'return']","[0.8905237000435591, 1.2025099992752075]",1178.0901910001412,None,,,64,001,2023_May_01_1149,ExactRep-v3-final,2021.2.3,59.96616715199747,
,,,,,,,,,,,,99,0,99,0,,,,,,,,,,,,,,,,,,,,,,,,,,,,,,,,,,,,,,,,,,,,,,,,,1181.116959400475,None,,,,,,,,,,,,,,,,,,,,,,,,,,,,,,,,,,,,,,,,,,,,,,,,,,,,,,,,,soil,115,100,aloud,old,blue,1179.8446539007127,None,y,1179.8446539007127,None,"['y', 'return']","[0.9439453994855285, 1.2399787995964289]",1179.8446539007127,None,,,64,001,2023_May_01_1149,ExactRep-v3-final,2021.2.3,59.96616715199747,
,,,,,,,,,,,,100,0,100,0,,,,,,,,,,,,,,,,,,,,,,,,,,,,,,,,,,,,,,,,,,,,,,,,,1183.0522117000073,None,,,,,,,,,,,,,,,,,,,,,,,,,,,,,,,,,,,,,,,,,,,,,,,,,,,,,,,,,street,186,101,aloud,new,blue,1181.6266091000289,None,n,1181.6266091000289,None,"['n', 'return']","[1.073913600295782, 1.3782681003212929]",1181.6266091000289,None,,,64,001,2023_May_01_1149,ExactRep-v3-final,2021.2.3,59.96616715199747,
,,,,,,,,,,,,101,0,101,0,,,,,,,,,,,,,,,,,,,,,,,,,,,,,,,,,,,,,,,,,,,,,,,,,1184.9209763007239,None,,,,,,,,,,,,,,,,,,,,,,,,,,,,,,,,,,,,,,,,,,,,,,,,,,,,,,,,,truth,83,102,aloud,old,blue,1183.5619971007109,None,n,1183.5619971007109,None,"['n', 'return']","[1.034744099713862, 1.3226150004193187]",1183.5619971007109,None,,,64,001,2023_May_01_1149,ExactRep-v3-final,2021.2.3,59.96616715199747,
,,,,,,,,,,,,102,0,102,0,,,,,,,,,,,,,,,,,,,,,,,,,,,,,,,,,,,,,,,,,,,,,,,,,1186.5893332008272,None,,,,,,,,,,,,,,,,,,,,,,,,,,,,,,,,,,,,,,,,,,,,,,,,,,,,,,,,,hope,210,103,aloud,new,blue,1185.4290989004076,None,n,1185.4290989004076,None,"['n', 'return']","[0.8476673001423478, 1.1275108000263572]",1185.4290989004076,None,,,64,001,2023_May_01_1149,ExactRep-v3-final,2021.2.3,59.96616715199747,
,,,,,,,,,,,,103,0,103,0,,,,,,,,,,,,,,,,,,,,,,,,,,,,,,,,,,,,,,,,,,,,,,,,,1188.2908101007342,None,,,,,,,,,,,,,,,,,,,,,,,,,,,,,,,,,,,,,,,,,,,,,,,,,,,,,,,,,science,176,104,aloud,new,blue,1187.0990889007226,None,n,1187.0990889007226,None,"['n', 'return']","[0.8496503001078963, 1.145485700108111]",1187.0990889007226,None,,,64,001,2023_May_01_1149,ExactRep-v3-final,2021.2.3,59.96616715199747,
,,,,,,,,,,,,104,0,104,0,,,,,,,,,,,,,,,,,,,,,,,,,,,,,,,,,,,,,,,,,,,,,,,,,1189.875799300149,None,,,,,,,,,,,,,,,,,,,,,,,,,,,,,,,,,,,,,,,,,,,,,,,,,,,,,,,,,lake,84,105,aloud,old,blue,1188.8069272004068,None,n,1188.8069272004068,None,"['n', 'return']","[0.7416642997413874, 1.0215841997414827]",1188.8069272004068,None,,,64,001,2023_May_01_1149,ExactRep-v3-final,2021.2.3,59.96616715199747,
,,,,,,,,,,,,105,0,105,0,,,,,,,,,,,,,,,,,,,,,,,,,,,,,,,,,,,,,,,,,,,,,,,,,1192.0946957003325,None,,,,,,,,,,,,,,,,,,,,,,,,,,,,,,,,,,,,,,,,,,,,,,,,,,,,,,,,,effort,20,106,sing,old,red,1190.3853175006807,None,y,1190.3853175006807,None,"['y', 'return']","[1.403298799879849, 1.675309100188315]",1190.3853175006807,None,,,64,001,2023_May_01_1149,ExactRep-v3-final,2021.2.3,59.96616715199747,
,,,,,,,,,,,,106,0,106,0,,,,,,,,,,,,,,,,,,,,,,,,,,,,,,,,,,,,,,,,,,,,,,,,,1193.6961869001389,None,,,,,,,,,,,,,,,,,,,,,,,,,,,,,,,,,,,,,,,,,,,,,,,,,,,,,,,,,sugar,132,107,silent,new,white,1192.6046245004982,None,n,1192.6046245004982,None,"['n', 'return']","[0.7439822005107999, 1.047871700488031]",1192.6046245004982,None,,,64,001,2023_May_01_1149,ExactRep-v3-final,2021.2.3,59.96616715199747,
,,,,,,,,,,,,107,0,107,0,,,,,,,,,,,,,,,,,,,,,,,,,,,,,,,,,,,,,,,,,,,,,,,,,1195.6648447001353,None,,,,,,,,,,,,,,,,,,,,,,,,,,,,,,,,,,,,,,,,,,,,,,,,,,,,,,,,,friend,60,108,silent,old,white,1194.2086030002683,None,n,1194.2086030002683,None,"['n', 'return']","[1.0761908004060388, 1.4200718998908997]",1194.2086030002683,None,,,64,001,2023_May_01_1149,ExactRep-v3-final,2021.2.3,59.96616715199747,
,,,,,,,,,,,,108,0,108,0,,,,,,,,,,,,,,,,,,,,,,,,,,,,,,,,,,,,,,,,,,,,,,,,,1197.383313900791,None,,,,,,,,,,,,,,,,,,,,,,,,,,,,,,,,,,,,,,,,,,,,,,,,,,,,,,,,,fact,178,109,aloud,new,blue,1196.1737921005115,None,n,1196.1737921005115,None,"['n', 'return']","[0.8788687996566296, 1.1747653000056744]",1196.1737921005115,None,,,64,001,2023_May_01_1149,ExactRep-v3-final,2021.2.3,59.96616715199747,
,,,,,,,,,,,,109,0,109,0,,,,,,,,,,,,,,,,,,,,,,,,,,,,,,,,,,,,,,,,,,,,,,,,,1199.1016099005938,None,,,,,,,,,,,,,,,,,,,,,,,,,,,,,,,,,,,,,,,,,,,,,,,,,,,,,,,,,potato,140,110,silent,new,white,1197.8956313002855,None,n,1197.8956313002855,None,"['n', 'return']","[0.8290286995470524, 1.1731623001396656]",1197.8956313002855,None,,,64,001,2023_May_01_1149,ExactRep-v3-final,2021.2.3,59.96616715199747,
,,,,,,,,,,,,110,0,110,0,,,,,,,,,,,,,,,,,,,,,,,,,,,,,,,,,,,,,,,,,,,,,,,,,1200.686694700271,None,,,,,,,,,,,,,,,,,,,,,,,,,,,,,,,,,,,,,,,,,,,,,,,,,,,,,,,,,flag,136,111,silent,new,white,1199.6128860004246,None,n,1199.6128860004246,None,"['n', 'return']","[0.7679278999567032, 1.0397771000862122]",1199.6128860004246,None,,,64,001,2023_May_01_1149,ExactRep-v3-final,2021.2.3,59.96616715199747,
,,,,,,,,,,,,111,0,111,0,,,,,,,,,,,,,,,,,,,,,,,,,,,,,,,,,,,,,,,,,,,,,,,,,1202.304879700765,None,,,,,,,,,,,,,,,,,,,,,,,,,,,,,,,,,,,,,,,,,,,,,,,,,,,,,,,,,rock,87,112,aloud,old,blue,1201.1966123003513,None,n,1201.1966123003513,None,"['n', 'return']","[0.7840155996382236, 1.0639458997175097]",1201.1966123003513,None,,,64,001,2023_May_01_1149,ExactRep-v3-final,2021.2.3,59.96616715199747,
,,,,,,,,,,,,112,0,112,0,,,,,,,,,,,,,,,,,,,,,,,,,,,,,,,,,,,,,,,,,,,,,,,,,1204.0732337003574,None,,,,,,,,,,,,,,,,,,,,,,,,,,,,,,,,,,,,,,,,,,,,,,,,,,,,,,,,,poet,162,113,aloud,new,blue,1202.8153301002458,None,n,1202.8153301002458,None,"['n', 'return']","[0.885385500267148, 1.2133090998977423]",1202.8153301002458,None,,,64,001,2023_May_01_1149,ExactRep-v3-final,2021.2.3,59.96616715199747,
,,,,,,,,,,,,113,0,113,0,,,,,,,,,,,,,,,,,,,,,,,,,,,,,,,,,,,,,,,,,,,,,,,,,1205.9084801999852,None,,,,,,,,,,,,,,,,,,,,,,,,,,,,,,,,,,,,,,,,,,,,,,,,,,,,,,,,,door,36,114,sing,old,red,1204.5871713003144,None,n,1204.5871713003144,None,"['n', 'return']","[0.8814179999753833, 1.2734546000137925]",1204.5871713003144,None,,,64,001,2023_May_01_1149,ExactRep-v3-final,2021.2.3,59.96616715199747,
,,,,,,,,,,,,114,0,114,0,,,,,,,,,,,,,,,,,,,,,,,,,,,,,,,,,,,,,,,,,,,,,,,,,1210.3823715001345,None,,,,,,,,,,,,,,,,,,,,,,,,,,,,,,,,,,,,,,,,,,,,,,,,,,,,,,,,,college,57,115,silent,old,white,1206.4182994002476,None,y,1206.4182994002476,None,"['n', 'backspace', 'y', 'return']","[0.8423517998307943, 2.7063537994399667, 3.594269599765539, 3.9141763001680374]",1206.4182994002476,None,,,64,001,2023_May_01_1149,ExactRep-v3-final,2021.2.3,59.96616715199747,
,,,,,,,,,,,,115,0,115,0,,,,,,,,,,,,,,,,,,,,,,,,,,,,,,,,,,,,,,,,,,,,,,,,,1213.6661236006767,None,,,,,,,,,,,,,,,,,,,,,,,,,,,,,,,,,,,,,,,,,,,,,,,,,,,,,,,,,letter,14,116,sing,old,red,1210.9053848003969,None,y,1210.9053848003969,None,"['y', 'return']","[2.331143899820745, 2.7232104996219277]",1210.9053848003969,None,,,64,001,2023_May_01_1149,ExactRep-v3-final,2021.2.3,59.96616715199747,
,,,,,,,,,,,,116,0,116,0,,,,,,,,,,,,,,,,,,,,,,,,,,,,,,,,,,,,,,,,,,,,,,,,,1215.5850120000541,None,,,,,,,,,,,,,,,,,,,,,,,,,,,,,,,,,,,,,,,,,,,,,,,,,,,,,,,,,devil,156,117,silent,new,white,1214.1665541008115,None,n,1214.1665541008115,None,"['n', 'return']","[0.7823522007092834, 1.3740042001008987]",1214.1665541008115,None,,,64,001,2023_May_01_1149,ExactRep-v3-final,2021.2.3,59.96616715199747,
,,,,,,,,,,,,117,0,117,0,,,,,,,,,,,,,,,,,,,,,,,,,,,,,,,,,,,,,,,,,,,,,,,,,1218.1874614004046,None,,,,,,,,,,,,,,,,,,,,,,,,,,,,,,,,,,,,,,,,,,,,,,,,,,,,,,,,,victory,102,118,aloud,old,blue,1216.0944694001228,None,y,1216.0944694001228,None,"['y', 'return']","[1.774188899435103, 2.054270699620247]",1216.0944694001228,None,,,64,001,2023_May_01_1149,ExactRep-v3-final,2021.2.3,59.96616715199747,
,,,,,,,,,,,,118,0,118,0,,,,,,,,,,,,,,,,,,,,,,,,,,,,,,,,,,,,,,,,,,,,,,,,,1220.1392809003592,None,,,,,,,,,,,,,,,,,,,,,,,,,,,,,,,,,,,,,,,,,,,,,,,,,,,,,,,,,master,114,119,aloud,old,blue,1218.6982899000868,None,y,1218.6982899000868,None,"['y', 'return']","[1.0744509994983673, 1.394463699311018]",1218.6982899000868,None,,,64,001,2023_May_01_1149,ExactRep-v3-final,2021.2.3,59.96616715199747,
,,,,,,,,,,,,119,0,119,0,,,,,,,,,,,,,,,,,,,,,,,,,,,,,,,,,,,,,,,,,,,,,,,,,1221.8910757005215,None,,,,,,,,,,,,,,,,,,,,,,,,,,,,,,,,,,,,,,,,,,,,,,,,,,,,,,,,,mother,37,120,sing,old,red,1220.6473207008094,None,n,1220.6473207008094,None,"['n', 'return']","[0.9493476999923587, 1.1973898997530341]",1220.6473207008094,None,,,64,001,2023_May_01_1149,ExactRep-v3-final,2021.2.3,59.96616715199747,
,,,,,,,,,,,,120,0,120,0,,,,,,,,,,,,,,,,,,,,,,,,,,,,,,,,,,,,,,,,,,,,,,,,,1223.4928250005469,None,,,,,,,,,,,,,,,,,,,,,,,,,,,,,,,,,,,,,,,,,,,,,,,,,,,,,,,,,disease,155,121,silent,new,white,1222.4006114006042,None,n,1222.4006114006042,None,"['n', 'return']","[0.8121277000755072, 1.0521018002182245]",1222.4006114006042,None,,,64,001,2023_May_01_1149,ExactRep-v3-final,2021.2.3,59.96616715199747,
,,,,,,,,,,,,121,0,121,0,,,,,,,,,,,,,,,,,,,,,,,,,,,,,,,,,,,,,,,,,,,,,,,,,1225.4279901003465,None,,,,,,,,,,,,,,,,,,,,,,,,,,,,,,,,,,,,,,,,,,,,,,,,,,,,,,,,,teacher,161,122,sing,new,red,1224.0021894006059,None,n,1224.0021894006059,None,"['n', 'return']","[1.1544439001008868, 1.3865419998764992]",1224.0021894006059,None,,,64,001,2023_May_01_1149,ExactRep-v3-final,2021.2.3,59.96616715199747,
,,,,,,,,,,,,122,0,122,0,,,,,,,,,,,,,,,,,,,,,,,,,,,,,,,,,,,,,,,,,,,,,,,,,1227.1797130005434,None,,,,,,,,,,,,,,,,,,,,,,,,,,,,,,,,,,,,,,,,,,,,,,,,,,,,,,,,,rod,238,123,aloud,new,blue,1225.931028100662,None,n,1225.931028100662,None,"['n', 'return']","[0.8497588001191616, 1.2016431000083685]",1225.931028100662,None,,,64,001,2023_May_01_1149,ExactRep-v3-final,2021.2.3,59.96616715199747,
,,,,,,,,,,,,123,0,123,0,,,,,,,,,,,,,,,,,,,,,,,,,,,,,,,,,,,,,,,,,,,,,,,,,1229.4820739002898,None,,,,,,,,,,,,,,,,,,,,,,,,,,,,,,,,,,,,,,,,,,,,,,,,,,,,,,,,,dawn,96,124,aloud,old,blue,1227.6901354007423,None,y,1227.6901354007423,None,"['y', 'return']","[1.450424499809742, 1.7465110998600721]",1227.6901354007423,None,,,64,001,2023_May_01_1149,ExactRep-v3-final,2021.2.3,59.96616715199747,
,,,,,,,,,,,,124,0,124,0,,,,,,,,,,,,,,,,,,,,,,,,,,,,,,,,,,,,,,,,,,,,,,,,,1231.0001808004454,None,,,,,,,,,,,,,,,,,,,,,,,,,,,,,,,,,,,,,,,,,,,,,,,,,,,,,,,,,fire,198,125,aloud,new,blue,1229.9989448999986,None,n,1229.9989448999986,None,"['n', 'return']","[0.7497021006420255, 0.9576580002903938]",1229.9989448999986,None,,,64,001,2023_May_01_1149,ExactRep-v3-final,2021.2.3,59.96616715199747,
,,,,,,,,,,,,125,0,125,0,,,,,,,,,,,,,,,,,,,,,,,,,,,,,,,,,,,,,,,,,,,,,,,,,1233.2691140007228,None,,,,,,,,,,,,,,,,,,,,,,,,,,,,,,,,,,,,,,,,,,,,,,,,,,,,,,,,,thought,13,126,sing,old,red,1231.5081136999652,None,y,1231.5081136999652,None,"['y', 'return']","[1.2486308999359608, 1.7205524994060397]",1231.5081136999652,None,,,64,001,2023_May_01_1149,ExactRep-v3-final,2021.2.3,59.96616715199747,
,,,,,,,,,,,,126,0,126,0,,,,,,,,,,,,,,,,,,,,,,,,,,,,,,,,,,,,,,,,,,,,,,,,,1234.7539322003722,None,,,,,,,,,,,,,,,,,,,,,,,,,,,,,,,,,,,,,,,,,,,,,,,,,,,,,,,,,hall,191,127,sing,new,red,1233.7782621001825,None,n,1233.7782621001825,None,"['n', 'return']","[0.6743444995954633, 0.9304117998108268]",1233.7782621001825,None,,,64,001,2023_May_01_1149,ExactRep-v3-final,2021.2.3,59.96616715199747,
,,,,,,,,,,,,127,0,127,0,,,,,,,,,,,,,,,,,,,,,,,,,,,,,,,,,,,,,,,,,,,,,,,,,1236.3219448002055,None,,,,,,,,,,,,,,,,,,,,,,,,,,,,,,,,,,,,,,,,,,,,,,,,,,,,,,,,,city,214,128,aloud,new,blue,1235.2643944006413,None,n,1235.2643944006413,None,"['n', 'return']","[0.7083699004724622, 1.0123531008139253]",1235.2643944006413,None,,,64,001,2023_May_01_1149,ExactRep-v3-final,2021.2.3,59.96616715199747,
,,,,,,,,,,,,128,0,128,0,,,,,,,,,,,,,,,,,,,,,,,,,,,,,,,,,,,,,,,,,,,,,,,,,1237.8919990006834,None,,,,,,,,,,,,,,,,,,,,,,,,,,,,,,,,,,,,,,,,,,,,,,,,,,,,,,,,,church,78,129,silent,old,white,1236.8314593005925,None,n,1236.8314593005925,None,"['n', 'return']","[0.7332478994503617, 1.0132614001631737]",1236.8314593005925,None,,,64,001,2023_May_01_1149,ExactRep-v3-final,2021.2.3,59.96616715199747,
,,,,,,,,,,,,129,0,129,0,,,,,,,,,,,,,,,,,,,,,,,,,,,,,,,,,,,,,,,,,,,,,,,,,1239.5253838002682,None,,,,,,,,,,,,,,,,,,,,,,,,,,,,,,,,,,,,,,,,,,,,,,,,,,,,,,,,,stone,163,130,sing,new,red,1238.41264480073,None,n,1238.41264480073,None,"['n', 'return']","[0.7921521002426744, 1.0722297998145223]",1238.41264480073,None,,,64,001,2023_May_01_1149,ExactRep-v3-final,2021.2.3,59.96616715199747,
,,,,,,,,,,,,130,0,130,0,,,,,,,,,,,,,,,,,,,,,,,,,,,,,,,,,,,,,,,,,,,,,,,,,1241.110209800303,None,,,,,,,,,,,,,,,,,,,,,,,,,,,,,,,,,,,,,,,,,,,,,,,,,,,,,,,,,silence,158,131,silent,new,white,1240.0300118001178,None,n,1240.0300118001178,None,"['n', 'return']","[0.7666734997183084, 1.0386534994468093]",1240.0300118001178,None,,,64,001,2023_May_01_1149,ExactRep-v3-final,2021.2.3,59.96616715199747,
,,,,,,,,,,,,131,0,131,0,,,,,,,,,,,,,,,,,,,,,,,,,,,,,,,,,,,,,,,,,,,,,,,,,1242.7119912002236,None,,,,,,,,,,,,,,,,,,,,,,,,,,,,,,,,,,,,,,,,,,,,,,,,,,,,,,,,,excuse,196,132,aloud,new,blue,1241.624093300663,None,n,1241.624093300663,None,"['n', 'return']","[0.7565264999866486, 1.0526824006810784]",1241.624093300663,None,,,64,001,2023_May_01_1149,ExactRep-v3-final,2021.2.3,59.96616715199747,
,,,,,,,,,,,,132,0,132,0,,,,,,,,,,,,,,,,,,,,,,,,,,,,,,,,,,,,,,,,,,,,,,,,,1244.9474446000531,None,,,,,,,,,,,,,,,,,,,,,,,,,,,,,,,,,,,,,,,,,,,,,,,,,,,,,,,,,mind,19,133,sing,old,red,1243.2236310001463,None,y,1243.2236310001463,None,"['y', 'return']","[1.220962199382484, 1.6850463999435306]",1243.2236310001463,None,,,64,001,2023_May_01_1149,ExactRep-v3-final,2021.2.3,59.96616715199747,
