trials_fam.thisRepN,trials_fam.thisTrialN,trials_fam.thisN,trials_fam.thisIndex,trials_prc.thisRepN,trials_prc.thisTrialN,trials_prc.thisN,trials_prc.thisIndex,StudyLoop.thisRepN,StudyLoop.thisTrialN,StudyLoop.thisN,StudyLoop.thisIndex,TestLoop.thisRepN,TestLoop.thisTrialN,TestLoop.thisN,TestLoop.thisIndex,text_colortest.started,text_colortest.stopped,key_colortest.keys,key_colortest.rt,key_colortest.started,key_colortest.stopped,textCondition.started,textCondition.stopped,keyCondition.keys,keyCondition.rt,keyCondition.started,keyCondition.stopped,Condition_between,Condition_counterbal,keyWelcome.keys,keyWelcome.rt,keyWelcome.started,keyWelcome.stopped,welcome_a.started,welcome_a.stopped,welcome_b.started,welcome_b.stopped,welcome_c.started,welcome_c.stopped,welcome_d.started,welcome_d.stopped,welcome_e.started,welcome_e.stopped,welcome_f.started,welcome_f.stopped,key_resp_fam_inst.keys,key_resp_fam_inst.rt,key_resp_fam_inst.started,key_resp_fam_inst.stopped,fam_a.started,fam_a.stopped,fam_b.started,fam_b.stopped,fam_c.started,fam_c.stopped,fam_d.started,fam_d.stopped,fam_e.started,fam_e.stopped,fam_f.started,fam_f.stopped,text_famil.started,text_famil.stopped,textBlank500.started,textBlank500.stopped,key_resp_prc_inst.keys,key_resp_prc_inst.rt,key_resp_prc_inst.started,key_resp_prc_inst.stopped,prac_a.started,prac_a.stopped,prac_b.started,prac_b.stopped,prac_c.started,prac_c.stopped,prac_d.started,prac_d.stopped,prac_e.started,prac_e.stopped,prac_f.started,prac_f.stopped,text_prc_trial.started,text_prc_trial.stopped,key_resp_study_inst.keys,key_resp_study_inst.rt,key_resp_study_inst.started,key_resp_study_inst.stopped,crit_a.started,crit_a.stopped,crit_b.started,crit_b.stopped,crit_c.started,crit_c.stopped,crit_d.started,crit_d.stopped,crit_e.started,crit_e.stopped,crit_f.started,crit_f.stopped,study_word,study_num,study_order,study_type,word_color,textStudy.started,textStudy.stopped,keyStudy.keys,keyStudy.started,keyStudy.stopped,post_study.started,post_study.stopped,key_resp_post_study.keys,key_resp_post_study.rt,key_resp_post_study.started,key_resp_post_study.stopped,test_inst.started,test_inst.stopped,key_resp_test_inst.keys,key_resp_test_inst.rt,key_resp_test_inst.started,key_resp_test_inst.stopped,test_word,test_num,test_order,test_condition,old_new_test,word_color_test,textConf.started,textConf.stopped,Participant Response,textInput.started,textInput.stopped,keyResp.keys,keyResp.rt,keyResp.started,keyResp.stopped,textEnd.started,textEnd.stopped,participant,session,date,expName,psychopyVersion,frameRate,
,,,,,,,,,,,,,,,,18.040117499418557,None,y,0.5835707001388073,18.040117499418557,None,,,,,,,,,,,,,,,,,,,,,,,,,,,,,,,,,,,,,,,,,,,,,,,,,,,,,,,,,,,,,,,,,,,,,,,,,,,,,,,,,,,,,,,,,,,,,,,,,,,,,,,,,,,,,,,,,,,,,,65,001,2023_May_01_1214,ExactRep-v3-final,2021.2.3,59.930193225902634,
,,,,,,,,,,,,,,,,,,,,,,18.65404969919473,None,e,0.7134436992928386,18.65404969919473,None,,,,,,,,,,,,,,,,,,,,,,,,,,,,,,,,,,,,,,,,,,,,,,,,,,,,,,,,,,,,,,,,,,,,,,,,,,,,,,,,,,,,,,,,,,,,,,,,,,,,,,,,,,,,,,,,65,001,2023_May_01_1214,ExactRep-v3-final,2021.2.3,59.930193225902634,
,,,,,,,,,,,,,,,,,,,,,,,,,,,,colorfoils,e,space,648.2942014997825,29.50573300011456,None,,,,,,,,,,,,,,,,,,,,,,,,,,,,,,,,,,,,,,,,,,,,,,,,,,,,,,,,,,,,,,,,,,,,,,,,,,,,,,,,,,,,,,,,,,,,,,,,,,,,,,,,,,65,001,2023_May_01_1214,ExactRep-v3-final,2021.2.3,59.930193225902634,
,,,,,,,,,,,,,,,,,,,,,,,,,,,,,,,,,,19.546461599878967,None,19.546461599878967,None,19.546461599878967,None,19.546461599878967,None,19.546461599878967,None,19.546461599878967,None,space,20.066883899271488,688.0131622999907,None,,,,,,,,,,,,,,,,,,,,,,,,,,,,,,,,,,,,,,,,,,,,,,,,,,,,,,,,,,,,,,,,,,,,,,,,,,,,,,,,,,,,,,,,,,65,001,2023_May_01_1214,ExactRep-v3-final,2021.2.3,59.930193225902634,
0,0,0,0,,,,,,,,,,,,,,,,,,,,,,,,,,,,,,,,,,,,,,,,,,,,,,,677.9978874996305,None,677.9978874996305,None,677.9978874996305,None,677.9978874996305,None,677.9978874996305,None,677.9978874996305,None,708.2089728992432,None,710.2120705991983,None,,,,,,,,,,,,,,,,,,,,,,,,,,,,,,,,,,,,,,,,,,,,,,,,,,,,,,,,,,,,,,,,,,,,,,,,,,65,001,2023_May_01_1214,ExactRep-v3-final,2021.2.3,59.930193225902634,
1,0,1,0,,,,,,,,,,,,,,,,,,,,,,,,,,,,,,,,,,,,,,,,,,,,,,,,,,,,,,,,,,,710.7205950999632,None,712.7312809992582,None,,,,,,,,,,,,,,,,,,,,,,,,,,,,,,,,,,,,,,,,,,,,,,,,,,,,,,,,,,,,,,,,,,,,,,,,,,65,001,2023_May_01_1214,ExactRep-v3-final,2021.2.3,59.930193225902634,
2,0,2,0,,,,,,,,,,,,,,,,,,,,,,,,,,,,,,,,,,,,,,,,,,,,,,,,,,,,,,,,,,,713.2383466996253,None,715.2504709996283,None,,,,,,,,,,,,,,,,,,,,,,,,,,,,,,,,,,,,,,,,,,,,,,,,,,,,,,,,,,,,,,,,,,,,,,,,,,65,001,2023_May_01_1214,ExactRep-v3-final,2021.2.3,59.930193225902634,
3,0,3,0,,,,,,,,,,,,,,,,,,,,,,,,,,,,,,,,,,,,,,,,,,,,,,,,,,,,,,,,,,,715.7508414993063,None,717.7528543993831,None,,,,,,,,,,,,,,,,,,,,,,,,,,,,,,,,,,,,,,,,,,,,,,,,,,,,,,,,,,,,,,,,,,,,,,,,,,65,001,2023_May_01_1214,ExactRep-v3-final,2021.2.3,59.930193225902634,
4,0,4,0,,,,,,,,,,,,,,,,,,,,,,,,,,,,,,,,,,,,,,,,,,,,,,,,,,,,,,,,,,,718.2541996994987,None,720.2550991000608,None,,,,,,,,,,,,,,,,,,,,,,,,,,,,,,,,,,,,,,,,,,,,,,,,,,,,,,,,,,,,,,,,,,,,,,,,,,65,001,2023_May_01_1214,ExactRep-v3-final,2021.2.3,59.930193225902634,
5,0,5,0,,,,,,,,,,,,,,,,,,,,,,,,,,,,,,,,,,,,,,,,,,,,,,,,,,,,,,,,,,,720.7566002998501,None,722.7579208994284,None,,,,,,,,,,,,,,,,,,,,,,,,,,,,,,,,,,,,,,,,,,,,,,,,,,,,,,,,,,,,,,,,,,,,,,,,,,65,001,2023_May_01_1214,ExactRep-v3-final,2021.2.3,59.930193225902634,
6,0,6,0,,,,,,,,,,,,,,,,,,,,,,,,,,,,,,,,,,,,,,,,,,,,,,,,,,,,,,,,,,,723.2586550991982,None,725.2604395998642,None,,,,,,,,,,,,,,,,,,,,,,,,,,,,,,,,,,,,,,,,,,,,,,,,,,,,,,,,,,,,,,,,,,,,,,,,,,65,001,2023_May_01_1214,ExactRep-v3-final,2021.2.3,59.930193225902634,
7,0,7,0,,,,,,,,,,,,,,,,,,,,,,,,,,,,,,,,,,,,,,,,,,,,,,,,,,,,,,,,,,,725.7620847998187,None,727.7629394000396,None,,,,,,,,,,,,,,,,,,,,,,,,,,,,,,,,,,,,,,,,,,,,,,,,,,,,,,,,,,,,,,,,,,,,,,,,,,65,001,2023_May_01_1214,ExactRep-v3-final,2021.2.3,59.930193225902634,
8,0,8,0,,,,,,,,,,,,,,,,,,,,,,,,,,,,,,,,,,,,,,,,,,,,,,,,,,,,,,,,,,,728.2654117997736,None,730.2653409000486,None,,,,,,,,,,,,,,,,,,,,,,,,,,,,,,,,,,,,,,,,,,,,,,,,,,,,,,,,,,,,,,,,,,,,,,,,,,65,001,2023_May_01_1214,ExactRep-v3-final,2021.2.3,59.930193225902634,
9,0,9,0,,,,,,,,,,,,,,,,,,,,,,,,,,,,,,,,,,,,,,,,,,,,,,,,,,,,,,,,,,,730.7665673997253,None,732.7678293995559,None,,,,,,,,,,,,,,,,,,,,,,,,,,,,,,,,,,,,,,,,,,,,,,,,,,,,,,,,,,,,,,,,,,,,,,,,,,65,001,2023_May_01_1214,ExactRep-v3-final,2021.2.3,59.930193225902634,
10,0,10,0,,,,,,,,,,,,,,,,,,,,,,,,,,,,,,,,,,,,,,,,,,,,,,,,,,,,,,,,,,,733.2681460995227,None,735.2706226995215,None,,,,,,,,,,,,,,,,,,,,,,,,,,,,,,,,,,,,,,,,,,,,,,,,,,,,,,,,,,,,,,,,,,,,,,,,,,65,001,2023_May_01_1214,ExactRep-v3-final,2021.2.3,59.930193225902634,
11,0,11,0,,,,,,,,,,,,,,,,,,,,,,,,,,,,,,,,,,,,,,,,,,,,,,,,,,,,,,,,,,,735.7707040999085,None,737.7730070995167,None,,,,,,,,,,,,,,,,,,,,,,,,,,,,,,,,,,,,,,,,,,,,,,,,,,,,,,,,,,,,,,,,,,,,,,,,,,65,001,2023_May_01_1214,ExactRep-v3-final,2021.2.3,59.930193225902634,
12,0,12,0,,,,,,,,,,,,,,,,,,,,,,,,,,,,,,,,,,,,,,,,,,,,,,,,,,,,,,,,,,,738.2732067992911,None,740.2752994000912,None,,,,,,,,,,,,,,,,,,,,,,,,,,,,,,,,,,,,,,,,,,,,,,,,,,,,,,,,,,,,,,,,,,,,,,,,,,65,001,2023_May_01_1214,ExactRep-v3-final,2021.2.3,59.930193225902634,
13,0,13,0,,,,,,,,,,,,,,,,,,,,,,,,,,,,,,,,,,,,,,,,,,,,,,,,,,,,,,,,,,,740.7776921000332,None,742.7779516000301,None,,,,,,,,,,,,,,,,,,,,,,,,,,,,,,,,,,,,,,,,,,,,,,,,,,,,,,,,,,,,,,,,,,,,,,,,,,65,001,2023_May_01_1214,ExactRep-v3-final,2021.2.3,59.930193225902634,
14,0,14,0,,,,,,,,,,,,,,,,,,,,,,,,,,,,,,,,,,,,,,,,,,,,,,,,,,,,,,,,,,,743.2801220994443,None,745.2804129999131,None,,,,,,,,,,,,,,,,,,,,,,,,,,,,,,,,,,,,,,,,,,,,,,,,,,,,,,,,,,,,,,,,,,,,,,,,,,65,001,2023_May_01_1214,ExactRep-v3-final,2021.2.3,59.930193225902634,
,,,,,,,,,,,,,,,,,,,,,,,,,,,,,,,,,,,,,,,,,,,,,,,,,,,,,,,,,,,,,,,,,,space,22.30761529970914,755.9328256994486,None,,,,,,,,,,,,,,,,,,,,,,,,,,,,,,,,,,,,,,,,,,,,,,,,,,,,,,,,,,,,,,,,,,,,,,65,001,2023_May_01_1214,ExactRep-v3-final,2021.2.3,59.930193225902634,
,,,,0,0,0,0,,,,,,,,,,,,,,,,,,,,,,,,,,,,,,,,,,,,,,,,,,,,,,,,,,,,,,,,,780.3152316994965,None,,,,,745.9436225993559,None,745.9436225993559,None,745.9436225993559,None,745.9436225993559,None,745.9436225993559,None,745.9436225993559,None,778.3066710997373,None,,,,,,,,,,,,,,,,,,,,,,,,,,,,,,,,,,,,,,,,,,,,,,,,,,,,,,,,65,001,2023_May_01_1214,ExactRep-v3-final,2021.2.3,59.930193225902634,
,,,,1,0,1,0,,,,,,,,,,,,,,,,,,,,,,,,,,,,,,,,,,,,,,,,,,,,,,,,,,,,,,,,,782.8178022997454,None,,,,,,,,,,,,,,,,,780.8158481996506,None,,,,,,,,,,,,,,,,,,,,,,,,,,,,,,,,,,,,,,,,,,,,,,,,,,,,,,,,65,001,2023_May_01_1214,ExactRep-v3-final,2021.2.3,59.930193225902634,
,,,,2,0,2,0,,,,,,,,,,,,,,,,,,,,,,,,,,,,,,,,,,,,,,,,,,,,,,,,,,,,,,,,,785.320306699723,None,,,,,,,,,,,,,,,,,783.3185060992837,None,,,,,,,,,,,,,,,,,,,,,,,,,,,,,,,,,,,,,,,,,,,,,,,,,,,,,,,,65,001,2023_May_01_1214,ExactRep-v3-final,2021.2.3,59.930193225902634,
,,,,3,0,3,0,,,,,,,,,,,,,,,,,,,,,,,,,,,,,,,,,,,,,,,,,,,,,,,,,,,,,,,,,787.822831899859,None,,,,,,,,,,,,,,,,,785.8210153998807,None,,,,,,,,,,,,,,,,,,,,,,,,,,,,,,,,,,,,,,,,,,,,,,,,,,,,,,,,65,001,2023_May_01_1214,ExactRep-v3-final,2021.2.3,59.930193225902634,
,,,,4,0,4,0,,,,,,,,,,,,,,,,,,,,,,,,,,,,,,,,,,,,,,,,,,,,,,,,,,,,,,,,,790.3253456000239,None,,,,,,,,,,,,,,,,,788.3236092999578,None,,,,,,,,,,,,,,,,,,,,,,,,,,,,,,,,,,,,,,,,,,,,,,,,,,,,,,,,65,001,2023_May_01_1214,ExactRep-v3-final,2021.2.3,59.930193225902634,
,,,,5,0,5,0,,,,,,,,,,,,,,,,,,,,,,,,,,,,,,,,,,,,,,,,,,,,,,,,,,,,,,,,,792.8279719995335,None,,,,,,,,,,,,,,,,,790.8258889000863,None,,,,,,,,,,,,,,,,,,,,,,,,,,,,,,,,,,,,,,,,,,,,,,,,,,,,,,,,65,001,2023_May_01_1214,ExactRep-v3-final,2021.2.3,59.930193225902634,
,,,,6,0,6,0,,,,,,,,,,,,,,,,,,,,,,,,,,,,,,,,,,,,,,,,,,,,,,,,,,,,,,,,,795.3304284000769,None,,,,,,,,,,,,,,,,,793.3283377997577,None,,,,,,,,,,,,,,,,,,,,,,,,,,,,,,,,,,,,,,,,,,,,,,,,,,,,,,,,65,001,2023_May_01_1214,ExactRep-v3-final,2021.2.3,59.930193225902634,
,,,,7,0,7,0,,,,,,,,,,,,,,,,,,,,,,,,,,,,,,,,,,,,,,,,,,,,,,,,,,,,,,,,,797.8331355992705,None,,,,,,,,,,,,,,,,,795.8310948992148,None,,,,,,,,,,,,,,,,,,,,,,,,,,,,,,,,,,,,,,,,,,,,,,,,,,,,,,,,65,001,2023_May_01_1214,ExactRep-v3-final,2021.2.3,59.930193225902634,
,,,,8,0,8,0,,,,,,,,,,,,,,,,,,,,,,,,,,,,,,,,,,,,,,,,,,,,,,,,,,,,,,,,,800.3354798993096,None,,,,,,,,,,,,,,,,,798.3337085992098,None,,,,,,,,,,,,,,,,,,,,,,,,,,,,,,,,,,,,,,,,,,,,,,,,,,,,,,,,65,001,2023_May_01_1214,ExactRep-v3-final,2021.2.3,59.930193225902634,
,,,,9,0,9,0,,,,,,,,,,,,,,,,,,,,,,,,,,,,,,,,,,,,,,,,,,,,,,,,,,,,,,,,,802.8380362996832,None,,,,,,,,,,,,,,,,,800.8360681999475,None,,,,,,,,,,,,,,,,,,,,,,,,,,,,,,,,,,,,,,,,,,,,,,,,,,,,,,,,65,001,2023_May_01_1214,ExactRep-v3-final,2021.2.3,59.930193225902634,
,,,,10,0,10,0,,,,,,,,,,,,,,,,,,,,,,,,,,,,,,,,,,,,,,,,,,,,,,,,,,,,,,,,,805.3404675992206,None,,,,,,,,,,,,,,,,,803.3387062996626,None,,,,,,,,,,,,,,,,,,,,,,,,,,,,,,,,,,,,,,,,,,,,,,,,,,,,,,,,65,001,2023_May_01_1214,ExactRep-v3-final,2021.2.3,59.930193225902634,
,,,,11,0,11,0,,,,,,,,,,,,,,,,,,,,,,,,,,,,,,,,,,,,,,,,,,,,,,,,,,,,,,,,,807.8428782001138,None,,,,,,,,,,,,,,,,,805.8410131996498,None,,,,,,,,,,,,,,,,,,,,,,,,,,,,,,,,,,,,,,,,,,,,,,,,,,,,,,,,65,001,2023_May_01_1214,ExactRep-v3-final,2021.2.3,59.930193225902634,
,,,,12,0,12,0,,,,,,,,,,,,,,,,,,,,,,,,,,,,,,,,,,,,,,,,,,,,,,,,,,,,,,,,,810.3455244991928,None,,,,,,,,,,,,,,,,,808.3435704996809,None,,,,,,,,,,,,,,,,,,,,,,,,,,,,,,,,,,,,,,,,,,,,,,,,,,,,,,,,65,001,2023_May_01_1214,ExactRep-v3-final,2021.2.3,59.930193225902634,
,,,,13,0,13,0,,,,,,,,,,,,,,,,,,,,,,,,,,,,,,,,,,,,,,,,,,,,,,,,,,,,,,,,,812.8479440994561,None,,,,,,,,,,,,,,,,,810.8460965994745,None,,,,,,,,,,,,,,,,,,,,,,,,,,,,,,,,,,,,,,,,,,,,,,,,,,,,,,,,65,001,2023_May_01_1214,ExactRep-v3-final,2021.2.3,59.930193225902634,
,,,,14,0,14,0,,,,,,,,,,,,,,,,,,,,,,,,,,,,,,,,,,,,,,,,,,,,,,,,,,,,,,,,,815.350664999336,None,,,,,,,,,,,,,,,,,813.3485432993621,None,,,,,,,,,,,,,,,,,,,,,,,,,,,,,,,,,,,,,,,,,,,,,,,,,,,,,,,,65,001,2023_May_01_1214,ExactRep-v3-final,2021.2.3,59.930193225902634,
,,,,,,,,,,,,,,,,,,,,,,,,,,,,,,,,,,,,,,,,,,,,,,,,,,,,,,,,,,,,,,,,,,,,,,,,,,,,,,,,,,,,space,25.753414699807763,825.9986799992621,None,,,,,,,,,,,,,,,,,,,,,,,,,,,,,,,,,,,,,,,,,,,,,,,,,,,,65,001,2023_May_01_1214,ExactRep-v3-final,2021.2.3,59.930193225902634,
,,,,,,,,0,0,0,0,,,,,,,,,,,,,,,,,,,,,,,,,,,,,,,,,,,,,,,,,,,,,,,,,,,,,853.8724742000923,None,,,,,,,,,,,,,,,,,,,,,,,816.0352348992601,None,816.0352348992601,None,816.0352348992601,None,816.0352348992601,None,816.0352348992601,None,816.0352348992601,None,power,61,1,silent,red,851.8704214999452,None,None,851.8704214999452,None,,,,,,,,,,,,,,,,,,,,,,,,,,,,,,65,001,2023_May_01_1214,ExactRep-v3-final,2021.2.3,59.930193225902634,
,,,,,,,,1,0,1,0,,,,,,,,,,,,,,,,,,,,,,,,,,,,,,,,,,,,,,,,,,,,,,,,,,,,,856.3914188994095,None,,,,,,,,,,,,,,,,,,,,,,,,,,,,,,,,,,,health,17,2,sing,blue,854.3829455999658,None,None,854.3829455999658,None,,,,,,,,,,,,,,,,,,,,,,,,,,,,,,65,001,2023_May_01_1214,ExactRep-v3-final,2021.2.3,59.930193225902634,
,,,,,,,,2,0,2,0,,,,,,,,,,,,,,,,,,,,,,,,,,,,,,,,,,,,,,,,,,,,,,,,,,,,,858.9109153999016,None,,,,,,,,,,,,,,,,,,,,,,,,,,,,,,,,,,,soul,6,3,sing,blue,856.9092694995925,None,None,856.9092694995925,None,,,,,,,,,,,,,,,,,,,,,,,,,,,,,,65,001,2023_May_01_1214,ExactRep-v3-final,2021.2.3,59.930193225902634,
,,,,,,,,3,0,3,0,,,,,,,,,,,,,,,,,,,,,,,,,,,,,,,,,,,,,,,,,,,,,,,,,,,,,861.4131205994636,None,,,,,,,,,,,,,,,,,,,,,,,,,,,,,,,,,,,door,93,4,aloud,white,859.4110522996634,None,None,859.4110522996634,None,,,,,,,,,,,,,,,,,,,,,,,,,,,,,,65,001,2023_May_01_1214,ExactRep-v3-final,2021.2.3,59.930193225902634,
,,,,,,,,4,0,4,0,,,,,,,,,,,,,,,,,,,,,,,,,,,,,,,,,,,,,,,,,,,,,,,,,,,,,863.9324071994051,None,,,,,,,,,,,,,,,,,,,,,,,,,,,,,,,,,,,meat,48,5,silent,red,861.9181194994599,None,None,861.9181194994599,None,,,,,,,,,,,,,,,,,,,,,,,,,,,,,,65,001,2023_May_01_1214,ExactRep-v3-final,2021.2.3,59.930193225902634,
,,,,,,,,5,0,5,0,,,,,,,,,,,,,,,,,,,,,,,,,,,,,,,,,,,,,,,,,,,,,,,,,,,,,866.4513030992821,None,,,,,,,,,,,,,,,,,,,,,,,,,,,,,,,,,,,fire,11,6,sing,blue,864.4405090995133,None,None,864.4405090995133,None,,,,,,,,,,,,,,,,,,,,,,,,,,,,,,65,001,2023_May_01_1214,ExactRep-v3-final,2021.2.3,59.930193225902634,
,,,,,,,,6,0,6,0,,,,,,,,,,,,,,,,,,,,,,,,,,,,,,,,,,,,,,,,,,,,,,,,,,,,,868.9541623992845,None,,,,,,,,,,,,,,,,,,,,,,,,,,,,,,,,,,,boulder,99,7,aloud,white,866.9518438000232,None,None,866.9518438000232,None,,,,,,,,,,,,,,,,,,,,,,,,,,,,,,65,001,2023_May_01_1214,ExactRep-v3-final,2021.2.3,59.930193225902634,
,,,,,,,,7,0,7,0,,,,,,,,,,,,,,,,,,,,,,,,,,,,,,,,,,,,,,,,,,,,,,,,,,,,,871.4731478998438,None,,,,,,,,,,,,,,,,,,,,,,,,,,,,,,,,,,,village,80,8,aloud,white,869.4699153993279,None,None,869.4699153993279,None,,,,,,,,,,,,,,,,,,,,,,,,,,,,,,65,001,2023_May_01_1214,ExactRep-v3-final,2021.2.3,59.930193225902634,
,,,,,,,,8,0,8,0,,,,,,,,,,,,,,,,,,,,,,,,,,,,,,,,,,,,,,,,,,,,,,,,,,,,,873.9759364994243,None,,,,,,,,,,,,,,,,,,,,,,,,,,,,,,,,,,,law,112,9,aloud,white,871.9738061996177,None,None,871.9738061996177,None,,,,,,,,,,,,,,,,,,,,,,,,,,,,,,65,001,2023_May_01_1214,ExactRep-v3-final,2021.2.3,59.930193225902634,
,,,,,,,,9,0,9,0,,,,,,,,,,,,,,,,,,,,,,,,,,,,,,,,,,,,,,,,,,,,,,,,,,,,,876.494974100031,None,,,,,,,,,,,,,,,,,,,,,,,,,,,,,,,,,,,method,45,10,silent,red,874.4818655997515,None,None,874.4818655997515,None,,,,,,,,,,,,,,,,,,,,,,,,,,,,,,65,001,2023_May_01_1214,ExactRep-v3-final,2021.2.3,59.930193225902634,
,,,,,,,,10,0,10,0,,,,,,,,,,,,,,,,,,,,,,,,,,,,,,,,,,,,,,,,,,,,,,,,,,,,,878.9973051995039,None,,,,,,,,,,,,,,,,,,,,,,,,,,,,,,,,,,,answer,109,11,aloud,white,876.9957149000838,None,None,876.9957149000838,None,,,,,,,,,,,,,,,,,,,,,,,,,,,,,,65,001,2023_May_01_1214,ExactRep-v3-final,2021.2.3,59.930193225902634,
,,,,,,,,11,0,11,0,,,,,,,,,,,,,,,,,,,,,,,,,,,,,,,,,,,,,,,,,,,,,,,,,,,,,881.4998560994864,None,,,,,,,,,,,,,,,,,,,,,,,,,,,,,,,,,,,coffee,24,12,sing,blue,879.4977531991899,None,None,879.4977531991899,None,,,,,,,,,,,,,,,,,,,,,,,,,,,,,,65,001,2023_May_01_1214,ExactRep-v3-final,2021.2.3,59.930193225902634,
,,,,,,,,12,0,12,0,,,,,,,,,,,,,,,,,,,,,,,,,,,,,,,,,,,,,,,,,,,,,,,,,,,,,884.0025806995109,None,,,,,,,,,,,,,,,,,,,,,,,,,,,,,,,,,,,fate,119,13,aloud,white,882.0024818992242,None,None,882.0024818992242,None,,,,,,,,,,,,,,,,,,,,,,,,,,,,,,65,001,2023_May_01_1214,ExactRep-v3-final,2021.2.3,59.930193225902634,
,,,,,,,,13,0,13,0,,,,,,,,,,,,,,,,,,,,,,,,,,,,,,,,,,,,,,,,,,,,,,,,,,,,,886.5214529000223,None,,,,,,,,,,,,,,,,,,,,,,,,,,,,,,,,,,,vessel,20,14,sing,blue,884.512249100022,None,None,884.512249100022,None,,,,,,,,,,,,,,,,,,,,,,,,,,,,,,65,001,2023_May_01_1214,ExactRep-v3-final,2021.2.3,59.930193225902634,
,,,,,,,,14,0,14,0,,,,,,,,,,,,,,,,,,,,,,,,,,,,,,,,,,,,,,,,,,,,,,,,,,,,,889.041078299284,None,,,,,,,,,,,,,,,,,,,,,,,,,,,,,,,,,,,officer,71,15,silent,red,887.0255875997245,None,None,887.0255875997245,None,,,,,,,,,,,,,,,,,,,,,,,,,,,,,,65,001,2023_May_01_1214,ExactRep-v3-final,2021.2.3,59.930193225902634,
,,,,,,,,15,0,15,0,,,,,,,,,,,,,,,,,,,,,,,,,,,,,,,,,,,,,,,,,,,,,,,,,,,,,891.5601630993187,None,,,,,,,,,,,,,,,,,,,,,,,,,,,,,,,,,,,tree,70,16,silent,red,889.5459632994607,None,None,889.5459632994607,None,,,,,,,,,,,,,,,,,,,,,,,,,,,,,,65,001,2023_May_01_1214,ExactRep-v3-final,2021.2.3,59.930193225902634,
,,,,,,,,16,0,16,0,,,,,,,,,,,,,,,,,,,,,,,,,,,,,,,,,,,,,,,,,,,,,,,,,,,,,894.0626241993159,None,,,,,,,,,,,,,,,,,,,,,,,,,,,,,,,,,,,hall,36,17,sing,blue,892.0634910995141,None,None,892.0634910995141,None,,,,,,,,,,,,,,,,,,,,,,,,,,,,,,65,001,2023_May_01_1214,ExactRep-v3-final,2021.2.3,59.930193225902634,
,,,,,,,,17,0,17,0,,,,,,,,,,,,,,,,,,,,,,,,,,,,,,,,,,,,,,,,,,,,,,,,,,,,,896.5649377992377,None,,,,,,,,,,,,,,,,,,,,,,,,,,,,,,,,,,,soil,114,18,aloud,white,894.5629595993087,None,None,894.5629595993087,None,,,,,,,,,,,,,,,,,,,,,,,,,,,,,,65,001,2023_May_01_1214,ExactRep-v3-final,2021.2.3,59.930193225902634,
,,,,,,,,18,0,18,0,,,,,,,,,,,,,,,,,,,,,,,,,,,,,,,,,,,,,,,,,,,,,,,,,,,,,899.0675484994426,None,,,,,,,,,,,,,,,,,,,,,,,,,,,,,,,,,,,moral,4,19,sing,blue,897.0654889997095,None,None,897.0654889997095,None,,,,,,,,,,,,,,,,,,,,,,,,,,,,,,65,001,2023_May_01_1214,ExactRep-v3-final,2021.2.3,59.930193225902634,
,,,,,,,,19,0,19,0,,,,,,,,,,,,,,,,,,,,,,,,,,,,,,,,,,,,,,,,,,,,,,,,,,,,,901.570199499838,None,,,,,,,,,,,,,,,,,,,,,,,,,,,,,,,,,,,theory,37,20,sing,blue,899.5682190991938,None,None,899.5682190991938,None,,,,,,,,,,,,,,,,,,,,,,,,,,,,,,65,001,2023_May_01_1214,ExactRep-v3-final,2021.2.3,59.930193225902634,
,,,,,,,,20,0,20,0,,,,,,,,,,,,,,,,,,,,,,,,,,,,,,,,,,,,,,,,,,,,,,,,,,,,,904.072535299696,None,,,,,,,,,,,,,,,,,,,,,,,,,,,,,,,,,,,freedom,5,21,sing,blue,902.0721400994807,None,None,902.0721400994807,None,,,,,,,,,,,,,,,,,,,,,,,,,,,,,,65,001,2023_May_01_1214,ExactRep-v3-final,2021.2.3,59.930193225902634,
,,,,,,,,21,0,21,0,,,,,,,,,,,,,,,,,,,,,,,,,,,,,,,,,,,,,,,,,,,,,,,,,,,,,906.575032199733,None,,,,,,,,,,,,,,,,,,,,,,,,,,,,,,,,,,,earth,72,22,silent,red,904.5747207999229,None,None,904.5747207999229,None,,,,,,,,,,,,,,,,,,,,,,,,,,,,,,65,001,2023_May_01_1214,ExactRep-v3-final,2021.2.3,59.930193225902634,
,,,,,,,,22,0,22,0,,,,,,,,,,,,,,,,,,,,,,,,,,,,,,,,,,,,,,,,,,,,,,,,,,,,,909.0943395998329,None,,,,,,,,,,,,,,,,,,,,,,,,,,,,,,,,,,,colony,103,23,aloud,white,907.0787943992764,None,None,907.0787943992764,None,,,,,,,,,,,,,,,,,,,,,,,,,,,,,,65,001,2023_May_01_1214,ExactRep-v3-final,2021.2.3,59.930193225902634,
,,,,,,,,23,0,23,0,,,,,,,,,,,,,,,,,,,,,,,,,,,,,,,,,,,,,,,,,,,,,,,,,,,,,911.5967443995178,None,,,,,,,,,,,,,,,,,,,,,,,,,,,,,,,,,,,lake,59,24,silent,red,909.5946617992595,None,None,909.5946617992595,None,,,,,,,,,,,,,,,,,,,,,,,,,,,,,,65,001,2023_May_01_1214,ExactRep-v3-final,2021.2.3,59.930193225902634,
,,,,,,,,24,0,24,0,,,,,,,,,,,,,,,,,,,,,,,,,,,,,,,,,,,,,,,,,,,,,,,,,,,,,914.1157849999145,None,,,,,,,,,,,,,,,,,,,,,,,,,,,,,,,,,,,machine,68,25,silent,red,912.1139345997944,None,None,912.1139345997944,None,,,,,,,,,,,,,,,,,,,,,,,,,,,,,,65,001,2023_May_01_1214,ExactRep-v3-final,2021.2.3,59.930193225902634,
,,,,,,,,25,0,25,0,,,,,,,,,,,,,,,,,,,,,,,,,,,,,,,,,,,,,,,,,,,,,,,,,,,,,916.618950699456,None,,,,,,,,,,,,,,,,,,,,,,,,,,,,,,,,,,,safety,18,26,sing,blue,914.6164775993675,None,None,914.6164775993675,None,,,,,,,,,,,,,,,,,,,,,,,,,,,,,,65,001,2023_May_01_1214,ExactRep-v3-final,2021.2.3,59.930193225902634,
,,,,,,,,26,0,26,0,,,,,,,,,,,,,,,,,,,,,,,,,,,,,,,,,,,,,,,,,,,,,,,,,,,,,919.1210332997143,None,,,,,,,,,,,,,,,,,,,,,,,,,,,,,,,,,,,speech,51,27,silent,red,917.119573299773,None,None,917.119573299773,None,,,,,,,,,,,,,,,,,,,,,,,,,,,,,,65,001,2023_May_01_1214,ExactRep-v3-final,2021.2.3,59.930193225902634,
,,,,,,,,27,0,27,0,,,,,,,,,,,,,,,,,,,,,,,,,,,,,,,,,,,,,,,,,,,,,,,,,,,,,921.6403353996575,None,,,,,,,,,,,,,,,,,,,,,,,,,,,,,,,,,,,blossom,47,28,silent,red,919.6254939995706,None,None,919.6254939995706,None,,,,,,,,,,,,,,,,,,,,,,,,,,,,,,65,001,2023_May_01_1214,ExactRep-v3-final,2021.2.3,59.930193225902634,
,,,,,,,,28,0,28,0,,,,,,,,,,,,,,,,,,,,,,,,,,,,,,,,,,,,,,,,,,,,,,,,,,,,,924.1427611997351,None,,,,,,,,,,,,,,,,,,,,,,,,,,,,,,,,,,,air,3,29,sing,blue,922.1406029993668,None,None,922.1406029993668,None,,,,,,,,,,,,,,,,,,,,,,,,,,,,,,65,001,2023_May_01_1214,ExactRep-v3-final,2021.2.3,59.930193225902634,
,,,,,,,,29,0,29,0,,,,,,,,,,,,,,,,,,,,,,,,,,,,,,,,,,,,,,,,,,,,,,,,,,,,,926.6618846999481,None,,,,,,,,,,,,,,,,,,,,,,,,,,,,,,,,,,,origin,115,30,aloud,white,924.6465574000031,None,None,924.6465574000031,None,,,,,,,,,,,,,,,,,,,,,,,,,,,,,,65,001,2023_May_01_1214,ExactRep-v3-final,2021.2.3,59.930193225902634,
,,,,,,,,30,0,30,0,,,,,,,,,,,,,,,,,,,,,,,,,,,,,,,,,,,,,,,,,,,,,,,,,,,,,929.1680588992313,None,,,,,,,,,,,,,,,,,,,,,,,,,,,,,,,,,,,fortune,111,31,aloud,white,927.1631295001134,None,None,927.1631295001134,None,,,,,,,,,,,,,,,,,,,,,,,,,,,,,,65,001,2023_May_01_1214,ExactRep-v3-final,2021.2.3,59.930193225902634,
,,,,,,,,31,0,31,0,,,,,,,,,,,,,,,,,,,,,,,,,,,,,,,,,,,,,,,,,,,,,,,,,,,,,931.700186399743,None,,,,,,,,,,,,,,,,,,,,,,,,,,,,,,,,,,,journal,102,32,aloud,white,929.6863021999598,None,None,929.6863021999598,None,,,,,,,,,,,,,,,,,,,,,,,,,,,,,,65,001,2023_May_01_1214,ExactRep-v3-final,2021.2.3,59.930193225902634,
,,,,,,,,32,0,32,0,,,,,,,,,,,,,,,,,,,,,,,,,,,,,,,,,,,,,,,,,,,,,,,,,,,,,934.2027627993375,None,,,,,,,,,,,,,,,,,,,,,,,,,,,,,,,,,,,wine,116,33,aloud,white,932.2007126994431,None,None,932.2007126994431,None,,,,,,,,,,,,,,,,,,,,,,,,,,,,,,65,001,2023_May_01_1214,ExactRep-v3-final,2021.2.3,59.930193225902634,
,,,,,,,,33,0,33,0,,,,,,,,,,,,,,,,,,,,,,,,,,,,,,,,,,,,,,,,,,,,,,,,,,,,,936.7052231999114,None,,,,,,,,,,,,,,,,,,,,,,,,,,,,,,,,,,,opinion,33,34,sing,blue,934.7053654994816,None,None,934.7053654994816,None,,,,,,,,,,,,,,,,,,,,,,,,,,,,,,65,001,2023_May_01_1214,ExactRep-v3-final,2021.2.3,59.930193225902634,
,,,,,,,,34,0,34,0,,,,,,,,,,,,,,,,,,,,,,,,,,,,,,,,,,,,,,,,,,,,,,,,,,,,,939.2077886993065,None,,,,,,,,,,,,,,,,,,,,,,,,,,,,,,,,,,,time,27,35,sing,blue,937.2079700995237,None,None,937.2079700995237,None,,,,,,,,,,,,,,,,,,,,,,,,,,,,,,65,001,2023_May_01_1214,ExactRep-v3-final,2021.2.3,59.930193225902634,
,,,,,,,,35,0,35,0,,,,,,,,,,,,,,,,,,,,,,,,,,,,,,,,,,,,,,,,,,,,,,,,,,,,,941.7269759997725,None,,,,,,,,,,,,,,,,,,,,,,,,,,,,,,,,,,,excuse,95,36,aloud,white,939.7152088992298,None,None,939.7152088992298,None,,,,,,,,,,,,,,,,,,,,,,,,,,,,,,65,001,2023_May_01_1214,ExactRep-v3-final,2021.2.3,59.930193225902634,
,,,,,,,,36,0,36,0,,,,,,,,,,,,,,,,,,,,,,,,,,,,,,,,,,,,,,,,,,,,,,,,,,,,,944.2294488996267,None,,,,,,,,,,,,,,,,,,,,,,,,,,,,,,,,,,,prison,31,37,sing,blue,942.2272790996358,None,None,942.2272790996358,None,,,,,,,,,,,,,,,,,,,,,,,,,,,,,,65,001,2023_May_01_1214,ExactRep-v3-final,2021.2.3,59.930193225902634,
,,,,,,,,37,0,37,0,,,,,,,,,,,,,,,,,,,,,,,,,,,,,,,,,,,,,,,,,,,,,,,,,,,,,946.7320749992505,None,,,,,,,,,,,,,,,,,,,,,,,,,,,,,,,,,,,effort,53,38,silent,red,944.7330677993596,None,None,944.7330677993596,None,,,,,,,,,,,,,,,,,,,,,,,,,,,,,,65,001,2023_May_01_1214,ExactRep-v3-final,2021.2.3,59.930193225902634,
,,,,,,,,38,0,38,0,,,,,,,,,,,,,,,,,,,,,,,,,,,,,,,,,,,,,,,,,,,,,,,,,,,,,949.2350403992459,None,,,,,,,,,,,,,,,,,,,,,,,,,,,,,,,,,,,cotton,38,39,sing,blue,947.2351661995053,None,None,947.2351661995053,None,,,,,,,,,,,,,,,,,,,,,,,,,,,,,,65,001,2023_May_01_1214,ExactRep-v3-final,2021.2.3,59.930193225902634,
,,,,,,,,39,0,39,0,,,,,,,,,,,,,,,,,,,,,,,,,,,,,,,,,,,,,,,,,,,,,,,,,,,,,951.7537471000105,None,,,,,,,,,,,,,,,,,,,,,,,,,,,,,,,,,,,meeting,101,40,aloud,white,949.7431705994532,None,None,949.7431705994532,None,,,,,,,,,,,,,,,,,,,,,,,,,,,,,,65,001,2023_May_01_1214,ExactRep-v3-final,2021.2.3,59.930193225902634,
,,,,,,,,40,0,40,0,,,,,,,,,,,,,,,,,,,,,,,,,,,,,,,,,,,,,,,,,,,,,,,,,,,,,954.2561184996739,None,,,,,,,,,,,,,,,,,,,,,,,,,,,,,,,,,,,home,69,41,silent,red,952.2540788995102,None,None,952.2540788995102,None,,,,,,,,,,,,,,,,,,,,,,,,,,,,,,65,001,2023_May_01_1214,ExactRep-v3-final,2021.2.3,59.930193225902634,
,,,,,,,,41,0,41,0,,,,,,,,,,,,,,,,,,,,,,,,,,,,,,,,,,,,,,,,,,,,,,,,,,,,,956.7749524991959,None,,,,,,,,,,,,,,,,,,,,,,,,,,,,,,,,,,,steam,76,42,silent,red,954.7637762995437,None,None,954.7637762995437,None,,,,,,,,,,,,,,,,,,,,,,,,,,,,,,65,001,2023_May_01_1214,ExactRep-v3-final,2021.2.3,59.930193225902634,
,,,,,,,,42,0,42,0,,,,,,,,,,,,,,,,,,,,,,,,,,,,,,,,,,,,,,,,,,,,,,,,,,,,,959.2944574998692,None,,,,,,,,,,,,,,,,,,,,,,,,,,,,,,,,,,,honour,81,43,aloud,white,957.2829491999,None,None,957.2829491999,None,,,,,,,,,,,,,,,,,,,,,,,,,,,,,,65,001,2023_May_01_1214,ExactRep-v3-final,2021.2.3,59.930193225902634,
,,,,,,,,43,0,43,0,,,,,,,,,,,,,,,,,,,,,,,,,,,,,,,,,,,,,,,,,,,,,,,,,,,,,961.7969700992107,None,,,,,,,,,,,,,,,,,,,,,,,,,,,,,,,,,,,victory,2,44,sing,blue,959.7957824999467,None,None,959.7957824999467,None,,,,,,,,,,,,,,,,,,,,,,,,,,,,,,65,001,2023_May_01_1214,ExactRep-v3-final,2021.2.3,59.930193225902634,
,,,,,,,,44,0,44,0,,,,,,,,,,,,,,,,,,,,,,,,,,,,,,,,,,,,,,,,,,,,,,,,,,,,,964.3160152994096,None,,,,,,,,,,,,,,,,,,,,,,,,,,,,,,,,,,,doctor,64,45,silent,red,962.3016236992553,None,None,962.3016236992553,None,,,,,,,,,,,,,,,,,,,,,,,,,,,,,,65,001,2023_May_01_1214,ExactRep-v3-final,2021.2.3,59.930193225902634,
,,,,,,,,45,0,45,0,,,,,,,,,,,,,,,,,,,,,,,,,,,,,,,,,,,,,,,,,,,,,,,,,,,,,966.8358223000541,None,,,,,,,,,,,,,,,,,,,,,,,,,,,,,,,,,,,present,58,46,silent,red,964.8207463994622,None,None,964.8207463994622,None,,,,,,,,,,,,,,,,,,,,,,,,,,,,,,65,001,2023_May_01_1214,ExactRep-v3-final,2021.2.3,59.930193225902634,
,,,,,,,,46,0,46,0,,,,,,,,,,,,,,,,,,,,,,,,,,,,,,,,,,,,,,,,,,,,,,,,,,,,,969.3546862993389,None,,,,,,,,,,,,,,,,,,,,,,,,,,,,,,,,,,,teacher,1,47,sing,blue,967.3422976993024,None,None,967.3422976993024,None,,,,,,,,,,,,,,,,,,,,,,,,,,,,,,65,001,2023_May_01_1214,ExactRep-v3-final,2021.2.3,59.930193225902634,
,,,,,,,,47,0,47,0,,,,,,,,,,,,,,,,,,,,,,,,,,,,,,,,,,,,,,,,,,,,,,,,,,,,,971.8570098998025,None,,,,,,,,,,,,,,,,,,,,,,,,,,,,,,,,,,,master,9,48,sing,blue,969.8571832999587,None,None,969.8571832999587,None,,,,,,,,,,,,,,,,,,,,,,,,,,,,,,65,001,2023_May_01_1214,ExactRep-v3-final,2021.2.3,59.930193225902634,
,,,,,,,,48,0,48,0,,,,,,,,,,,,,,,,,,,,,,,,,,,,,,,,,,,,,,,,,,,,,,,,,,,,,974.376395999454,None,,,,,,,,,,,,,,,,,,,,,,,,,,,,,,,,,,,lord,7,49,sing,blue,972.3753554997966,None,None,972.3753554997966,None,,,,,,,,,,,,,,,,,,,,,,,,,,,,,,65,001,2023_May_01_1214,ExactRep-v3-final,2021.2.3,59.930193225902634,
,,,,,,,,49,0,49,0,,,,,,,,,,,,,,,,,,,,,,,,,,,,,,,,,,,,,,,,,,,,,,,,,,,,,976.87880929932,None,,,,,,,,,,,,,,,,,,,,,,,,,,,,,,,,,,,science,79,50,sing,blue,974.8775560995564,None,None,974.8775560995564,None,,,,,,,,,,,,,,,,,,,,,,,,,,,,,,65,001,2023_May_01_1214,ExactRep-v3-final,2021.2.3,59.930193225902634,
,,,,,,,,50,0,50,0,,,,,,,,,,,,,,,,,,,,,,,,,,,,,,,,,,,,,,,,,,,,,,,,,,,,,979.3977777995169,None,,,,,,,,,,,,,,,,,,,,,,,,,,,,,,,,,,,arm,43,51,silent,red,977.382810799405,None,None,977.382810799405,None,,,,,,,,,,,,,,,,,,,,,,,,,,,,,,65,001,2023_May_01_1214,ExactRep-v3-final,2021.2.3,59.930193225902634,
,,,,,,,,51,0,51,0,,,,,,,,,,,,,,,,,,,,,,,,,,,,,,,,,,,,,,,,,,,,,,,,,,,,,981.9002548996359,None,,,,,,,,,,,,,,,,,,,,,,,,,,,,,,,,,,,beast,42,52,silent,red,979.8982307994738,None,None,979.8982307994738,None,,,,,,,,,,,,,,,,,,,,,,,,,,,,,,65,001,2023_May_01_1214,ExactRep-v3-final,2021.2.3,59.930193225902634,
,,,,,,,,52,0,52,0,,,,,,,,,,,,,,,,,,,,,,,,,,,,,,,,,,,,,,,,,,,,,,,,,,,,,984.4027975993231,None,,,,,,,,,,,,,,,,,,,,,,,,,,,,,,,,,,,lad,92,53,aloud,white,982.4008454000577,None,None,982.4008454000577,None,,,,,,,,,,,,,,,,,,,,,,,,,,,,,,65,001,2023_May_01_1214,ExactRep-v3-final,2021.2.3,59.930193225902634,
,,,,,,,,53,0,53,0,,,,,,,,,,,,,,,,,,,,,,,,,,,,,,,,,,,,,,,,,,,,,,,,,,,,,986.9221097994596,None,,,,,,,,,,,,,,,,,,,,,,,,,,,,,,,,,,,avenue,60,54,silent,red,984.912451999262,None,None,984.912451999262,None,,,,,,,,,,,,,,,,,,,,,,,,,,,,,,65,001,2023_May_01_1214,ExactRep-v3-final,2021.2.3,59.930193225902634,
,,,,,,,,54,0,54,0,,,,,,,,,,,,,,,,,,,,,,,,,,,,,,,,,,,,,,,,,,,,,,,,,,,,,989.4244173998013,None,,,,,,,,,,,,,,,,,,,,,,,,,,,,,,,,,,,gift,82,55,aloud,white,987.4226003000513,None,None,987.4226003000513,None,,,,,,,,,,,,,,,,,,,,,,,,,,,,,,65,001,2023_May_01_1214,ExactRep-v3-final,2021.2.3,59.930193225902634,
,,,,,,,,55,0,55,0,,,,,,,,,,,,,,,,,,,,,,,,,,,,,,,,,,,,,,,,,,,,,,,,,,,,,991.9271617997438,None,,,,,,,,,,,,,,,,,,,,,,,,,,,,,,,,,,,brain,108,56,aloud,white,989.9249442992732,None,None,989.9249442992732,None,,,,,,,,,,,,,,,,,,,,,,,,,,,,,,65,001,2023_May_01_1214,ExactRep-v3-final,2021.2.3,59.930193225902634,
,,,,,,,,56,0,56,0,,,,,,,,,,,,,,,,,,,,,,,,,,,,,,,,,,,,,,,,,,,,,,,,,,,,,994.4295848999172,None,,,,,,,,,,,,,,,,,,,,,,,,,,,,,,,,,,,devil,19,57,sing,blue,992.4274421995506,None,None,992.4274421995506,None,,,,,,,,,,,,,,,,,,,,,,,,,,,,,,65,001,2023_May_01_1214,ExactRep-v3-final,2021.2.3,59.930193225902634,
,,,,,,,,57,0,57,0,,,,,,,,,,,,,,,,,,,,,,,,,,,,,,,,,,,,,,,,,,,,,,,,,,,,,996.9320880994201,None,,,,,,,,,,,,,,,,,,,,,,,,,,,,,,,,,,,doll,46,58,silent,red,994.9316547000781,None,None,994.9316547000781,None,,,,,,,,,,,,,,,,,,,,,,,,,,,,,,65,001,2023_May_01_1214,ExactRep-v3-final,2021.2.3,59.930193225902634,
,,,,,,,,58,0,58,0,,,,,,,,,,,,,,,,,,,,,,,,,,,,,,,,,,,,,,,,,,,,,,,,,,,,,999.4511494999751,None,,,,,,,,,,,,,,,,,,,,,,,,,,,,,,,,,,,priest,66,59,silent,red,997.4391259998083,None,None,997.4391259998083,None,,,,,,,,,,,,,,,,,,,,,,,,,,,,,,65,001,2023_May_01_1214,ExactRep-v3-final,2021.2.3,59.930193225902634,
,,,,,,,,59,0,59,0,,,,,,,,,,,,,,,,,,,,,,,,,,,,,,,,,,,,,,,,,,,,,,,,,,,,,1001.9538447996601,None,,,,,,,,,,,,,,,,,,,,,,,,,,,,,,,,,,,money,78,60,silent,red,999.9516787994653,None,None,999.9516787994653,None,,,,,,,,,,,,,,,,,,,,,,,,,,,,,,65,001,2023_May_01_1214,ExactRep-v3-final,2021.2.3,59.930193225902634,
,,,,,,,,60,0,60,0,,,,,,,,,,,,,,,,,,,,,,,,,,,,,,,,,,,,,,,,,,,,,,,,,,,,,1004.4582897992805,None,,,,,,,,,,,,,,,,,,,,,,,,,,,,,,,,,,,charm,57,61,silent,red,1002.4555811993778,None,None,1002.4555811993778,None,,,,,,,,,,,,,,,,,,,,,,,,,,,,,,65,001,2023_May_01_1214,ExactRep-v3-final,2021.2.3,59.930193225902634,
,,,,,,,,61,0,61,0,,,,,,,,,,,,,,,,,,,,,,,,,,,,,,,,,,,,,,,,,,,,,,,,,,,,,1006.9921860992908,None,,,,,,,,,,,,,,,,,,,,,,,,,,,,,,,,,,,salary,87,62,aloud,white,1004.9800853999332,None,None,1004.9800853999332,None,,,,,,,,,,,,,,,,,,,,,,,,,,,,,,65,001,2023_May_01_1214,ExactRep-v3-final,2021.2.3,59.930193225902634,
,,,,,,,,62,0,62,0,,,,,,,,,,,,,,,,,,,,,,,,,,,,,,,,,,,,,,,,,,,,,,,,,,,,,1009.4945084992796,None,,,,,,,,,,,,,,,,,,,,,,,,,,,,,,,,,,,style,63,63,silent,red,1007.493356499821,None,None,1007.493356499821,None,,,,,,,,,,,,,,,,,,,,,,,,,,,,,,65,001,2023_May_01_1214,ExactRep-v3-final,2021.2.3,59.930193225902634,
,,,,,,,,63,0,63,0,,,,,,,,,,,,,,,,,,,,,,,,,,,,,,,,,,,,,,,,,,,,,,,,,,,,,1012.0138964001089,None,,,,,,,,,,,,,,,,,,,,,,,,,,,,,,,,,,,market,0,64,sing,blue,1009.9996670000255,None,None,1009.9996670000255,None,,,,,,,,,,,,,,,,,,,,,,,,,,,,,,65,001,2023_May_01_1214,ExactRep-v3-final,2021.2.3,59.930193225902634,
,,,,,,,,64,0,64,0,,,,,,,,,,,,,,,,,,,,,,,,,,,,,,,,,,,,,,,,,,,,,,,,,,,,,1014.5330626992509,None,,,,,,,,,,,,,,,,,,,,,,,,,,,,,,,,,,,clock,91,65,aloud,white,1012.5194188999012,None,None,1012.5194188999012,None,,,,,,,,,,,,,,,,,,,,,,,,,,,,,,65,001,2023_May_01_1214,ExactRep-v3-final,2021.2.3,59.930193225902634,
,,,,,,,,65,0,65,0,,,,,,,,,,,,,,,,,,,,,,,,,,,,,,,,,,,,,,,,,,,,,,,,,,,,,1017.0355348996818,None,,,,,,,,,,,,,,,,,,,,,,,,,,,,,,,,,,,mother,54,66,silent,red,1015.0364800998941,None,None,1015.0364800998941,None,,,,,,,,,,,,,,,,,,,,,,,,,,,,,,65,001,2023_May_01_1214,ExactRep-v3-final,2021.2.3,59.930193225902634,
,,,,,,,,66,0,66,0,,,,,,,,,,,,,,,,,,,,,,,,,,,,,,,,,,,,,,,,,,,,,,,,,,,,,1019.554620099254,None,,,,,,,,,,,,,,,,,,,,,,,,,,,,,,,,,,,square,39,67,silent,red,1017.552598499693,None,None,1017.552598499693,None,,,,,,,,,,,,,,,,,,,,,,,,,,,,,,65,001,2023_May_01_1214,ExactRep-v3-final,2021.2.3,59.930193225902634,
,,,,,,,,67,0,67,0,,,,,,,,,,,,,,,,,,,,,,,,,,,,,,,,,,,,,,,,,,,,,,,,,,,,,1022.0739683993161,None,,,,,,,,,,,,,,,,,,,,,,,,,,,,,,,,,,,bowl,32,68,sing,blue,1020.064476499334,None,None,1020.064476499334,None,,,,,,,,,,,,,,,,,,,,,,,,,,,,,,65,001,2023_May_01_1214,ExactRep-v3-final,2021.2.3,59.930193225902634,
,,,,,,,,68,0,68,0,,,,,,,,,,,,,,,,,,,,,,,,,,,,,,,,,,,,,,,,,,,,,,,,,,,,,1024.592988899909,None,,,,,,,,,,,,,,,,,,,,,,,,,,,,,,,,,,,circle,50,69,silent,red,1022.5803510993719,None,None,1022.5803510993719,None,,,,,,,,,,,,,,,,,,,,,,,,,,,,,,65,001,2023_May_01_1214,ExactRep-v3-final,2021.2.3,59.930193225902634,
,,,,,,,,69,0,69,0,,,,,,,,,,,,,,,,,,,,,,,,,,,,,,,,,,,,,,,,,,,,,,,,,,,,,1027.1121816998348,None,,,,,,,,,,,,,,,,,,,,,,,,,,,,,,,,,,,custom,40,70,silent,red,1025.1002234993502,None,None,1025.1002234993502,None,,,,,,,,,,,,,,,,,,,,,,,,,,,,,,65,001,2023_May_01_1214,ExactRep-v3-final,2021.2.3,59.930193225902634,
,,,,,,,,70,0,70,0,,,,,,,,,,,,,,,,,,,,,,,,,,,,,,,,,,,,,,,,,,,,,,,,,,,,,1029.6315186992288,None,,,,,,,,,,,,,,,,,,,,,,,,,,,,,,,,,,,city,52,71,silent,red,1027.6210203999653,None,None,1027.6210203999653,None,,,,,,,,,,,,,,,,,,,,,,,,,,,,,,65,001,2023_May_01_1214,ExactRep-v3-final,2021.2.3,59.930193225902634,
,,,,,,,,71,0,71,0,,,,,,,,,,,,,,,,,,,,,,,,,,,,,,,,,,,,,,,,,,,,,,,,,,,,,1032.134022699669,None,,,,,,,,,,,,,,,,,,,,,,,,,,,,,,,,,,,artist,49,72,silent,red,1030.1333971992135,None,None,1030.1333971992135,None,,,,,,,,,,,,,,,,,,,,,,,,,,,,,,65,001,2023_May_01_1214,ExactRep-v3-final,2021.2.3,59.930193225902634,
,,,,,,,,72,0,72,0,,,,,,,,,,,,,,,,,,,,,,,,,,,,,,,,,,,,,,,,,,,,,,,,,,,,,1034.6365468995646,None,,,,,,,,,,,,,,,,,,,,,,,,,,,,,,,,,,,memory,16,73,sing,blue,1032.636849699542,None,None,1032.636849699542,None,,,,,,,,,,,,,,,,,,,,,,,,,,,,,,65,001,2023_May_01_1214,ExactRep-v3-final,2021.2.3,59.930193225902634,
,,,,,,,,73,0,73,0,,,,,,,,,,,,,,,,,,,,,,,,,,,,,,,,,,,,,,,,,,,,,,,,,,,,,1037.1555626997724,None,,,,,,,,,,,,,,,,,,,,,,,,,,,,,,,,,,,plant,118,74,aloud,white,1035.1429421994835,None,None,1035.1429421994835,None,,,,,,,,,,,,,,,,,,,,,,,,,,,,,,65,001,2023_May_01_1214,ExactRep-v3-final,2021.2.3,59.930193225902634,
,,,,,,,,74,0,74,0,,,,,,,,,,,,,,,,,,,,,,,,,,,,,,,,,,,,,,,,,,,,,,,,,,,,,1039.658153399825,None,,,,,,,,,,,,,,,,,,,,,,,,,,,,,,,,,,,car,65,75,silent,red,1037.656070199795,None,None,1037.656070199795,None,,,,,,,,,,,,,,,,,,,,,,,,,,,,,,65,001,2023_May_01_1214,ExactRep-v3-final,2021.2.3,59.930193225902634,
,,,,,,,,75,0,75,0,,,,,,,,,,,,,,,,,,,,,,,,,,,,,,,,,,,,,,,,,,,,,,,,,,,,,1042.160716000013,None,,,,,,,,,,,,,,,,,,,,,,,,,,,,,,,,,,,apple,86,76,aloud,white,1040.1605238998309,None,None,1040.1605238998309,None,,,,,,,,,,,,,,,,,,,,,,,,,,,,,,65,001,2023_May_01_1214,ExactRep-v3-final,2021.2.3,59.930193225902634,
,,,,,,,,76,0,76,0,,,,,,,,,,,,,,,,,,,,,,,,,,,,,,,,,,,,,,,,,,,,,,,,,,,,,1044.679910699837,None,,,,,,,,,,,,,,,,,,,,,,,,,,,,,,,,,,,world,26,77,sing,blue,1042.666608499363,None,None,1042.666608499363,None,,,,,,,,,,,,,,,,,,,,,,,,,,,,,,65,001,2023_May_01_1214,ExactRep-v3-final,2021.2.3,59.930193225902634,
,,,,,,,,77,0,77,0,,,,,,,,,,,,,,,,,,,,,,,,,,,,,,,,,,,,,,,,,,,,,,,,,,,,,1047.1823549997061,None,,,,,,,,,,,,,,,,,,,,,,,,,,,,,,,,,,,fun,14,78,sing,blue,1045.1803191993386,None,None,1045.1803191993386,None,,,,,,,,,,,,,,,,,,,,,,,,,,,,,,65,001,2023_May_01_1214,ExactRep-v3-final,2021.2.3,59.930193225902634,
,,,,,,,,78,0,78,0,,,,,,,,,,,,,,,,,,,,,,,,,,,,,,,,,,,,,,,,,,,,,,,,,,,,,1049.684894499369,None,,,,,,,,,,,,,,,,,,,,,,,,,,,,,,,,,,,history,44,79,silent,red,1047.6856831992045,None,None,1047.6856831992045,None,,,,,,,,,,,,,,,,,,,,,,,,,,,,,,65,001,2023_May_01_1214,ExactRep-v3-final,2021.2.3,59.930193225902634,
,,,,,,,,79,0,79,0,,,,,,,,,,,,,,,,,,,,,,,,,,,,,,,,,,,,,,,,,,,,,,,,,,,,,1052.1873613996431,None,,,,,,,,,,,,,,,,,,,,,,,,,,,,,,,,,,,star,107,80,aloud,white,1050.1876333998516,None,None,1050.1876333998516,None,,,,,,,,,,,,,,,,,,,,,,,,,,,,,,65,001,2023_May_01_1214,ExactRep-v3-final,2021.2.3,59.930193225902634,
,,,,,,,,80,0,80,0,,,,,,,,,,,,,,,,,,,,,,,,,,,,,,,,,,,,,,,,,,,,,,,,,,,,,1054.7067261999473,None,,,,,,,,,,,,,,,,,,,,,,,,,,,,,,,,,,,death,8,81,sing,blue,1052.698390699923,None,None,1052.698390699923,None,,,,,,,,,,,,,,,,,,,,,,,,,,,,,,65,001,2023_May_01_1214,ExactRep-v3-final,2021.2.3,59.930193225902634,
,,,,,,,,81,0,81,0,,,,,,,,,,,,,,,,,,,,,,,,,,,,,,,,,,,,,,,,,,,,,,,,,,,,,1057.2090424997732,None,,,,,,,,,,,,,,,,,,,,,,,,,,,,,,,,,,,insect,94,82,aloud,white,1055.2074945000932,None,None,1055.2074945000932,None,,,,,,,,,,,,,,,,,,,,,,,,,,,,,,65,001,2023_May_01_1214,ExactRep-v3-final,2021.2.3,59.930193225902634,
,,,,,,,,82,0,82,0,,,,,,,,,,,,,,,,,,,,,,,,,,,,,,,,,,,,,,,,,,,,,,,,,,,,,1059.7115941997617,None,,,,,,,,,,,,,,,,,,,,,,,,,,,,,,,,,,,sugar,15,83,sing,blue,1057.712321699597,None,None,1057.712321699597,None,,,,,,,,,,,,,,,,,,,,,,,,,,,,,,65,001,2023_May_01_1214,ExactRep-v3-final,2021.2.3,59.930193225902634,
,,,,,,,,83,0,83,0,,,,,,,,,,,,,,,,,,,,,,,,,,,,,,,,,,,,,,,,,,,,,,,,,,,,,1062.2309292992577,None,,,,,,,,,,,,,,,,,,,,,,,,,,,,,,,,,,,chief,90,84,aloud,white,1060.2189572993666,None,None,1060.2189572993666,None,,,,,,,,,,,,,,,,,,,,,,,,,,,,,,65,001,2023_May_01_1214,ExactRep-v3-final,2021.2.3,59.930193225902634,
,,,,,,,,84,0,84,0,,,,,,,,,,,,,,,,,,,,,,,,,,,,,,,,,,,,,,,,,,,,,,,,,,,,,1064.7499502999708,None,,,,,,,,,,,,,,,,,,,,,,,,,,,,,,,,,,,fault,56,85,silent,red,1062.735782499425,None,None,1062.735782499425,None,,,,,,,,,,,,,,,,,,,,,,,,,,,,,,65,001,2023_May_01_1214,ExactRep-v3-final,2021.2.3,59.930193225902634,
,,,,,,,,85,0,85,0,,,,,,,,,,,,,,,,,,,,,,,,,,,,,,,,,,,,,,,,,,,,,,,,,,,,,1067.2525321999565,None,,,,,,,,,,,,,,,,,,,,,,,,,,,,,,,,,,,palace,105,86,aloud,white,1065.2533940998837,None,None,1065.2533940998837,None,,,,,,,,,,,,,,,,,,,,,,,,,,,,,,65,001,2023_May_01_1214,ExactRep-v3-final,2021.2.3,59.930193225902634,
,,,,,,,,86,0,86,0,,,,,,,,,,,,,,,,,,,,,,,,,,,,,,,,,,,,,,,,,,,,,,,,,,,,,1069.7715149000287,None,,,,,,,,,,,,,,,,,,,,,,,,,,,,,,,,,,,series,104,87,aloud,white,1067.757030699402,None,None,1067.757030699402,None,,,,,,,,,,,,,,,,,,,,,,,,,,,,,,65,001,2023_May_01_1214,ExactRep-v3-final,2021.2.3,59.930193225902634,
,,,,,,,,87,0,87,0,,,,,,,,,,,,,,,,,,,,,,,,,,,,,,,,,,,,,,,,,,,,,,,,,,,,,1072.2741767996922,None,,,,,,,,,,,,,,,,,,,,,,,,,,,,,,,,,,,cat,85,88,aloud,white,1070.2721333997324,None,None,1070.2721333997324,None,,,,,,,,,,,,,,,,,,,,,,,,,,,,,,65,001,2023_May_01_1214,ExactRep-v3-final,2021.2.3,59.930193225902634,
,,,,,,,,88,0,88,0,,,,,,,,,,,,,,,,,,,,,,,,,,,,,,,,,,,,,,,,,,,,,,,,,,,,,1074.7933554993942,None,,,,,,,,,,,,,,,,,,,,,,,,,,,,,,,,,,,boy,96,89,aloud,white,1072.7790024001151,None,None,1072.7790024001151,None,,,,,,,,,,,,,,,,,,,,,,,,,,,,,,65,001,2023_May_01_1214,ExactRep-v3-final,2021.2.3,59.930193225902634,
,,,,,,,,89,0,89,0,,,,,,,,,,,,,,,,,,,,,,,,,,,,,,,,,,,,,,,,,,,,,,,,,,,,,1077.312389999628,None,,,,,,,,,,,,,,,,,,,,,,,,,,,,,,,,,,,garden,77,90,silent,red,1075.2973646996543,None,None,1075.2973646996543,None,,,,,,,,,,,,,,,,,,,,,,,,,,,,,,65,001,2023_May_01_1214,ExactRep-v3-final,2021.2.3,59.930193225902634,
,,,,,,,,90,0,90,0,,,,,,,,,,,,,,,,,,,,,,,,,,,,,,,,,,,,,,,,,,,,,,,,,,,,,1079.8315424993634,None,,,,,,,,,,,,,,,,,,,,,,,,,,,,,,,,,,,troops,10,91,sing,blue,1077.820458999835,None,None,1077.820458999835,None,,,,,,,,,,,,,,,,,,,,,,,,,,,,,,65,001,2023_May_01_1214,ExactRep-v3-final,2021.2.3,59.930193225902634,
,,,,,,,,91,0,91,0,,,,,,,,,,,,,,,,,,,,,,,,,,,,,,,,,,,,,,,,,,,,,,,,,,,,,1082.3509398000315,None,,,,,,,,,,,,,,,,,,,,,,,,,,,,,,,,,,,dollar,62,92,silent,red,1080.339699499309,None,None,1080.339699499309,None,,,,,,,,,,,,,,,,,,,,,,,,,,,,,,65,001,2023_May_01_1214,ExactRep-v3-final,2021.2.3,59.930193225902634,
,,,,,,,,92,0,92,0,,,,,,,,,,,,,,,,,,,,,,,,,,,,,,,,,,,,,,,,,,,,,,,,,,,,,1084.8532479992136,None,,,,,,,,,,,,,,,,,,,,,,,,,,,,,,,,,,,amount,75,93,silent,red,1082.851255999878,None,None,1082.851255999878,None,,,,,,,,,,,,,,,,,,,,,,,,,,,,,,65,001,2023_May_01_1214,ExactRep-v3-final,2021.2.3,59.930193225902634,
,,,,,,,,93,0,93,0,,,,,,,,,,,,,,,,,,,,,,,,,,,,,,,,,,,,,,,,,,,,,,,,,,,,,1087.3559340992942,None,,,,,,,,,,,,,,,,,,,,,,,,,,,,,,,,,,,army,12,94,sing,blue,1085.3538652993739,None,None,1085.3538652993739,None,,,,,,,,,,,,,,,,,,,,,,,,,,,,,,65,001,2023_May_01_1214,ExactRep-v3-final,2021.2.3,59.930193225902634,
,,,,,,,,94,0,94,0,,,,,,,,,,,,,,,,,,,,,,,,,,,,,,,,,,,,,,,,,,,,,,,,,,,,,1089.8749302998185,None,,,,,,,,,,,,,,,,,,,,,,,,,,,,,,,,,,,spirit,29,95,sing,blue,1087.8661182997748,None,None,1087.8661182997748,None,,,,,,,,,,,,,,,,,,,,,,,,,,,,,,65,001,2023_May_01_1214,ExactRep-v3-final,2021.2.3,59.930193225902634,
,,,,,,,,95,0,95,0,,,,,,,,,,,,,,,,,,,,,,,,,,,,,,,,,,,,,,,,,,,,,,,,,,,,,1092.3944154996425,None,,,,,,,,,,,,,,,,,,,,,,,,,,,,,,,,,,,month,117,96,aloud,white,1090.3822888992727,None,None,1090.3822888992727,None,,,,,,,,,,,,,,,,,,,,,,,,,,,,,,65,001,2023_May_01_1214,ExactRep-v3-final,2021.2.3,59.930193225902634,
,,,,,,,,96,0,96,0,,,,,,,,,,,,,,,,,,,,,,,,,,,,,,,,,,,,,,,,,,,,,,,,,,,,,1094.8968201000243,None,,,,,,,,,,,,,,,,,,,,,,,,,,,,,,,,,,,grass,98,97,aloud,white,1092.894647299312,None,None,1092.894647299312,None,,,,,,,,,,,,,,,,,,,,,,,,,,,,,,65,001,2023_May_01_1214,ExactRep-v3-final,2021.2.3,59.930193225902634,
,,,,,,,,97,0,97,0,,,,,,,,,,,,,,,,,,,,,,,,,,,,,,,,,,,,,,,,,,,,,,,,,,,,,1097.3990773996338,None,,,,,,,,,,,,,,,,,,,,,,,,,,,,,,,,,,,church,83,98,aloud,white,1095.3988317996264,None,None,1095.3988317996264,None,,,,,,,,,,,,,,,,,,,,,,,,,,,,,,65,001,2023_May_01_1214,ExactRep-v3-final,2021.2.3,59.930193225902634,
,,,,,,,,98,0,98,0,,,,,,,,,,,,,,,,,,,,,,,,,,,,,,,,,,,,,,,,,,,,,,,,,,,,,1099.9185274997726,None,,,,,,,,,,,,,,,,,,,,,,,,,,,,,,,,,,,water,55,99,silent,red,1097.9082694994286,None,None,1097.9082694994286,None,,,,,,,,,,,,,,,,,,,,,,,,,,,,,,65,001,2023_May_01_1214,ExactRep-v3-final,2021.2.3,59.930193225902634,
,,,,,,,,99,0,99,0,,,,,,,,,,,,,,,,,,,,,,,,,,,,,,,,,,,,,,,,,,,,,,,,,,,,,1102.4210004992783,None,,,,,,,,,,,,,,,,,,,,,,,,,,,,,,,,,,,green,100,100,aloud,white,1100.4187741000205,None,None,1100.4187741000205,None,,,,,,,,,,,,,,,,,,,,,,,,,,,,,,65,001,2023_May_01_1214,ExactRep-v3-final,2021.2.3,59.930193225902634,
,,,,,,,,100,0,100,0,,,,,,,,,,,,,,,,,,,,,,,,,,,,,,,,,,,,,,,,,,,,,,,,,,,,,1104.92355579976,None,,,,,,,,,,,,,,,,,,,,,,,,,,,,,,,,,,,glory,13,101,sing,blue,1102.9238681998104,None,None,1102.9238681998104,None,,,,,,,,,,,,,,,,,,,,,,,,,,,,,,65,001,2023_May_01_1214,ExactRep-v3-final,2021.2.3,59.930193225902634,
,,,,,,,,101,0,101,0,,,,,,,,,,,,,,,,,,,,,,,,,,,,,,,,,,,,,,,,,,,,,,,,,,,,,1107.4259893000126,None,,,,,,,,,,,,,,,,,,,,,,,,,,,,,,,,,,,toy,106,102,aloud,white,1105.4263150999323,None,None,1105.4263150999323,None,,,,,,,,,,,,,,,,,,,,,,,,,,,,,,65,001,2023_May_01_1214,ExactRep-v3-final,2021.2.3,59.930193225902634,
,,,,,,,,102,0,102,0,,,,,,,,,,,,,,,,,,,,,,,,,,,,,,,,,,,,,,,,,,,,,,,,,,,,,1109.945014799945,None,,,,,,,,,,,,,,,,,,,,,,,,,,,,,,,,,,,author,34,103,sing,blue,1107.9297128999606,None,None,1107.9297128999606,None,,,,,,,,,,,,,,,,,,,,,,,,,,,,,,65,001,2023_May_01_1214,ExactRep-v3-final,2021.2.3,59.930193225902634,
,,,,,,,,103,0,103,0,,,,,,,,,,,,,,,,,,,,,,,,,,,,,,,,,,,,,,,,,,,,,,,,,,,,,1112.4643140994012,None,,,,,,,,,,,,,,,,,,,,,,,,,,,,,,,,,,,passion,30,104,sing,blue,1110.4514288995415,None,None,1110.4514288995415,None,,,,,,,,,,,,,,,,,,,,,,,,,,,,,,65,001,2023_May_01_1214,ExactRep-v3-final,2021.2.3,59.930193225902634,
,,,,,,,,104,0,104,0,,,,,,,,,,,,,,,,,,,,,,,,,,,,,,,,,,,,,,,,,,,,,,,,,,,,,1114.983516300097,None,,,,,,,,,,,,,,,,,,,,,,,,,,,,,,,,,,,ship,84,105,aloud,white,1112.9711885992438,None,None,1112.9711885992438,None,,,,,,,,,,,,,,,,,,,,,,,,,,,,,,65,001,2023_May_01_1214,ExactRep-v3-final,2021.2.3,59.930193225902634,
,,,,,,,,105,0,105,0,,,,,,,,,,,,,,,,,,,,,,,,,,,,,,,,,,,,,,,,,,,,,,,,,,,,,1117.4860072992742,None,,,,,,,,,,,,,,,,,,,,,,,,,,,,,,,,,,,deed,41,106,silent,red,1115.48487689998,None,None,1115.48487689998,None,,,,,,,,,,,,,,,,,,,,,,,,,,,,,,65,001,2023_May_01_1214,ExactRep-v3-final,2021.2.3,59.930193225902634,
,,,,,,,,106,0,106,0,,,,,,,,,,,,,,,,,,,,,,,,,,,,,,,,,,,,,,,,,,,,,,,,,,,,,1119.9885489996523,None,,,,,,,,,,,,,,,,,,,,,,,,,,,,,,,,,,,body,23,107,sing,blue,1117.988038099371,None,None,1117.988038099371,None,,,,,,,,,,,,,,,,,,,,,,,,,,,,,,65,001,2023_May_01_1214,ExactRep-v3-final,2021.2.3,59.930193225902634,
,,,,,,,,107,0,107,0,,,,,,,,,,,,,,,,,,,,,,,,,,,,,,,,,,,,,,,,,,,,,,,,,,,,,1122.5077133998275,None,,,,,,,,,,,,,,,,,,,,,,,,,,,,,,,,,,,queen,25,108,sing,blue,1120.4920773999766,None,None,1120.4920773999766,None,,,,,,,,,,,,,,,,,,,,,,,,,,,,,,65,001,2023_May_01_1214,ExactRep-v3-final,2021.2.3,59.930193225902634,
,,,,,,,,108,0,108,0,,,,,,,,,,,,,,,,,,,,,,,,,,,,,,,,,,,,,,,,,,,,,,,,,,,,,1125.0101247997954,None,,,,,,,,,,,,,,,,,,,,,,,,,,,,,,,,,,,prayer,110,109,aloud,white,1123.0080428998917,None,None,1123.0080428998917,None,,,,,,,,,,,,,,,,,,,,,,,,,,,,,,65,001,2023_May_01_1214,ExactRep-v3-final,2021.2.3,59.930193225902634,
,,,,,,,,109,0,109,0,,,,,,,,,,,,,,,,,,,,,,,,,,,,,,,,,,,,,,,,,,,,,,,,,,,,,1127.512564599514,None,,,,,,,,,,,,,,,,,,,,,,,,,,,,,,,,,,,poet,97,110,aloud,white,1125.5108928000554,None,None,1125.5108928000554,None,,,,,,,,,,,,,,,,,,,,,,,,,,,,,,65,001,2023_May_01_1214,ExactRep-v3-final,2021.2.3,59.930193225902634,
,,,,,,,,110,0,110,0,,,,,,,,,,,,,,,,,,,,,,,,,,,,,,,,,,,,,,,,,,,,,,,,,,,,,1130.031985799782,None,,,,,,,,,,,,,,,,,,,,,,,,,,,,,,,,,,,event,113,111,aloud,white,1128.020053599961,None,None,1128.020053599961,None,,,,,,,,,,,,,,,,,,,,,,,,,,,,,,65,001,2023_May_01_1214,ExactRep-v3-final,2021.2.3,59.930193225902634,
,,,,,,,,111,0,111,0,,,,,,,,,,,,,,,,,,,,,,,,,,,,,,,,,,,,,,,,,,,,,,,,,,,,,1132.5511413998902,None,,,,,,,,,,,,,,,,,,,,,,,,,,,,,,,,,,,student,74,112,silent,red,1130.5360635994002,None,None,1130.5360635994002,None,,,,,,,,,,,,,,,,,,,,,,,,,,,,,,65,001,2023_May_01_1214,ExactRep-v3-final,2021.2.3,59.930193225902634,
,,,,,,,,112,0,112,0,,,,,,,,,,,,,,,,,,,,,,,,,,,,,,,,,,,,,,,,,,,,,,,,,,,,,1135.0703778993338,None,,,,,,,,,,,,,,,,,,,,,,,,,,,,,,,,,,,street,35,113,sing,blue,1133.0581751996651,None,None,1133.0581751996651,None,,,,,,,,,,,,,,,,,,,,,,,,,,,,,,65,001,2023_May_01_1214,ExactRep-v3-final,2021.2.3,59.930193225902634,
,,,,,,,,113,0,113,0,,,,,,,,,,,,,,,,,,,,,,,,,,,,,,,,,,,,,,,,,,,,,,,,,,,,,1137.572775799781,None,,,,,,,,,,,,,,,,,,,,,,,,,,,,,,,,,,,skin,28,114,sing,blue,1135.5719986995682,None,None,1135.5719986995682,None,,,,,,,,,,,,,,,,,,,,,,,,,,,,,,65,001,2023_May_01_1214,ExactRep-v3-final,2021.2.3,59.930193225902634,
,,,,,,,,114,0,114,0,,,,,,,,,,,,,,,,,,,,,,,,,,,,,,,,,,,,,,,,,,,,,,,,,,,,,1140.0752798998728,None,,,,,,,,,,,,,,,,,,,,,,,,,,,,,,,,,,,blood,67,115,silent,red,1138.074767199345,None,None,1138.074767199345,None,,,,,,,,,,,,,,,,,,,,,,,,,,,,,,65,001,2023_May_01_1214,ExactRep-v3-final,2021.2.3,59.930193225902634,
,,,,,,,,115,0,115,0,,,,,,,,,,,,,,,,,,,,,,,,,,,,,,,,,,,,,,,,,,,,,,,,,,,,,1142.5944526996464,None,,,,,,,,,,,,,,,,,,,,,,,,,,,,,,,,,,,metal,21,116,sing,blue,1140.580989100039,None,None,1140.580989100039,None,,,,,,,,,,,,,,,,,,,,,,,,,,,,,,65,001,2023_May_01_1214,ExactRep-v3-final,2021.2.3,59.930193225902634,
,,,,,,,,116,0,116,0,,,,,,,,,,,,,,,,,,,,,,,,,,,,,,,,,,,,,,,,,,,,,,,,,,,,,1145.0970201995224,None,,,,,,,,,,,,,,,,,,,,,,,,,,,,,,,,,,,product,88,117,aloud,white,1143.094960199669,None,None,1143.094960199669,None,,,,,,,,,,,,,,,,,,,,,,,,,,,,,,65,001,2023_May_01_1214,ExactRep-v3-final,2021.2.3,59.930193225902634,
,,,,,,,,117,0,117,0,,,,,,,,,,,,,,,,,,,,,,,,,,,,,,,,,,,,,,,,,,,,,,,,,,,,,1147.5993845993653,None,,,,,,,,,,,,,,,,,,,,,,,,,,,,,,,,,,,tool,89,118,aloud,white,1145.5994531000033,None,None,1145.5994531000033,None,,,,,,,,,,,,,,,,,,,,,,,,,,,,,,65,001,2023_May_01_1214,ExactRep-v3-final,2021.2.3,59.930193225902634,
,,,,,,,,118,0,118,0,,,,,,,,,,,,,,,,,,,,,,,,,,,,,,,,,,,,,,,,,,,,,,,,,,,,,1150.1017878996208,None,,,,,,,,,,,,,,,,,,,,,,,,,,,,,,,,,,,advice,73,119,silent,red,1148.1013599997386,None,None,1148.1013599997386,None,,,,,,,,,,,,,,,,,,,,,,,,,,,,,,65,001,2023_May_01_1214,ExactRep-v3-final,2021.2.3,59.930193225902634,
,,,,,,,,119,0,119,0,,,,,,,,,,,,,,,,,,,,,,,,,,,,,,,,,,,,,,,,,,,,,,,,,,,,,1152.6045140996575,None,,,,,,,,,,,,,,,,,,,,,,,,,,,,,,,,,,,bottle,22,120,sing,blue,1150.6037940001115,None,None,1150.6037940001115,None,,,,,,,,,,,,,,,,,,,,,,,,,,,,,,65,001,2023_May_01_1214,ExactRep-v3-final,2021.2.3,59.930193225902634,
,,,,,,,,,,,,,,,,,,,,,,,,,,,,,,,,,,,,,,,,,,,,,,,,,,,,,,,,,,,,,,,,,,,,,,,,,,,,,,,,,,,,,,,,,,,,,,,,,,,,,,,,,,,,,,1153.1065622000024,None,space,7.445867399685085,1163.0829002996907,None,,,,,,,,,,,,,,,,,,,,,,,,65,001,2023_May_01_1214,ExactRep-v3-final,2021.2.3,59.930193225902634,
,,,,,,,,,,,,,,,,,,,,,,,,,,,,,,,,,,,,,,,,,,,,,,,,,,,,,,,,,,,,,,,,,,,,,,,,,,,,,,,,,,,,,,,,,,,,,,,,,,,,,,,,,,,,,,,,,,,,1170.5575786996633,None,space,32.266952600330114,1180.5338582992554,None,,,,,,,,,,,,,,,,,,65,001,2023_May_01_1214,ExactRep-v3-final,2021.2.3,59.930193225902634,
,,,,,,,,,,,,0,0,0,0,,,,,,,,,,,,,,,,,,,,,,,,,,,,,,,,,,,,,,,,,,,,,,,,,1239.6413834998384,None,,,,,,,,,,,,,,,,,,,,,,,,,,,,,,,,,,,,,,,,,,,,,,,,,,,,,,,,,lad,92,1,aloud,old,white,1213.3248761994764,None,y,1213.3248761994764,None,"['y', 'return']","[2.2918854001909494, 26.275669200345874]",1213.3248761994764,None,,,65,001,2023_May_01_1214,ExactRep-v3-final,2021.2.3,59.930193225902634,
,,,,,,,,,,,,1,0,1,0,,,,,,,,,,,,,,,,,,,,,,,,,,,,,,,,,,,,,,,,,,,,,,,,,1243.2283981991932,None,,,,,,,,,,,,,,,,,,,,,,,,,,,,,,,,,,,,,,,,,,,,,,,,,,,,,,,,,freedom,5,2,sing,old,blue,1240.1520957993343,None,y,1240.1520957993343,None,"['y', 'return']","[2.6244254000484943, 3.040463600307703]",1240.1520957993343,None,,,65,001,2023_May_01_1214,ExactRep-v3-final,2021.2.3,59.930193225902634,
,,,,,,,,,,,,2,0,2,0,,,,,,,,,,,,,,,,,,,,,,,,,,,,,,,,,,,,,,,,,,,,,,,,,1248.5502583999187,None,,,,,,,,,,,,,,,,,,,,,,,,,,,,,,,,,,,,,,,,,,,,,,,,,,,,,,,,,mind,195,3,sing,new,blue,1243.739133699797,None,n,1243.739133699797,None,"['n', 'return']","[2.6616631001234055, 4.773489499464631]",1243.739133699797,None,,,65,001,2023_May_01_1214,ExactRep-v3-final,2021.2.3,59.930193225902634,
,,,,,,,,,,,,3,0,3,0,,,,,,,,,,,,,,,,,,,,,,,,,,,,,,,,,,,,,,,,,,,,,,,,,1253.3885952997953,None,,,,,,,,,,,,,,,,,,,,,,,,,,,,,,,,,,,,,,,,,,,,,,,,,,,,,,,,,sea,213,4,sing,new,blue,1249.057647999376,None,y,1249.057647999376,None,"['y', 'return']","[3.2869090996682644, 4.2868339996784925]",1249.057647999376,None,,,65,001,2023_May_01_1214,ExactRep-v3-final,2021.2.3,59.930193225902634,
,,,,,,,,,,,,4,0,4,0,,,,,,,,,,,,,,,,,,,,,,,,,,,,,,,,,,,,,,,,,,,,,,,,,1255.6572952000424,None,,,,,,,,,,,,,,,,,,,,,,,,,,,,,,,,,,,,,,,,,,,,,,,,,,,,,,,,,deed,41,5,silent,old,red,1253.8968447996303,None,y,1253.8968447996303,None,"['y', 'return']","[1.351740399375558, 1.7276959996670485]",1253.8968447996303,None,,,65,001,2023_May_01_1214,ExactRep-v3-final,2021.2.3,59.930193225902634,
,,,,,,,,,,,,5,0,5,0,,,,,,,,,,,,,,,,,,,,,,,,,,,,,,,,,,,,,,,,,,,,,,,,,1259.4111419999972,None,,,,,,,,,,,,,,,,,,,,,,,,,,,,,,,,,,,,,,,,,,,,,,,,,,,,,,,,,vision,145,6,silent,new,red,1256.165374899283,None,y,1256.165374899283,None,"['y', 'return']","[2.243313199840486, 3.203171200118959]",1256.165374899283,None,,,65,001,2023_May_01_1214,ExactRep-v3-final,2021.2.3,59.930193225902634,
,,,,,,,,,,,,6,0,6,0,,,,,,,,,,,,,,,,,,,,,,,,,,,,,,,,,,,,,,,,,,,,,,,,,1262.9813866997138,None,,,,,,,,,,,,,,,,,,,,,,,,,,,,,,,,,,,,,,,,,,,,,,,,,,,,,,,,,money,78,7,silent,old,red,1259.923576099798,None,n,1259.923576099798,None,"['n', 'return']","[2.725083699449897, 3.0130687998607755]",1259.923576099798,None,,,65,001,2023_May_01_1214,ExactRep-v3-final,2021.2.3,59.930193225902634,
,,,,,,,,,,,,7,0,7,0,,,,,,,,,,,,,,,,,,,,,,,,,,,,,,,,,,,,,,,,,,,,,,,,,1266.6182625992224,None,,,,,,,,,,,,,,,,,,,,,,,,,,,,,,,,,,,,,,,,,,,,,,,,,,,,,,,,,shoes,147,8,silent,new,red,1263.4909670995548,None,n,1263.4909670995548,None,"['n', 'return']","[2.7575960997492075, 3.085683699697256]",1263.4909670995548,None,,,65,001,2023_May_01_1214,ExactRep-v3-final,2021.2.3,59.930193225902634,
,,,,,,,,,,,,8,0,8,0,,,,,,,,,,,,,,,,,,,,,,,,,,,,,,,,,,,,,,,,,,,,,,,,,1269.1375257000327,None,,,,,,,,,,,,,,,,,,,,,,,,,,,,,,,,,,,,,,,,,,,,,,,,,,,,,,,,,avenue,60,9,silent,old,red,1267.1215832000598,None,y,1267.1215832000598,None,"['y', 'return']","[1.2631800994277, 1.9828809993341565]",1267.1215832000598,None,,,65,001,2023_May_01_1214,ExactRep-v3-final,2021.2.3,59.930193225902634,
,,,,,,,,,,,,9,0,9,0,,,,,,,,,,,,,,,,,,,,,,,,,,,,,,,,,,,,,,,,,,,,,,,,,1272.4741070000455,None,,,,,,,,,,,,,,,,,,,,,,,,,,,,,,,,,,,,,,,,,,,,,,,,,,,,,,,,,weapon,158,10,silent,new,red,1269.6502759996802,None,y,1269.6502759996802,None,"['y', 'return']","[2.1025149999186397, 2.7902239998802543]",1269.6502759996802,None,,,65,001,2023_May_01_1214,ExactRep-v3-final,2021.2.3,59.930193225902634,
,,,,,,,,,,,,10,0,10,0,,,,,,,,,,,,,,,,,,,,,,,,,,,,,,,,,,,,,,,,,,,,,,,,,1276.194394399412,None,,,,,,,,,,,,,,,,,,,,,,,,,,,,,,,,,,,,,,,,,,,,,,,,,,,,,,,,,plain,227,11,sing,new,blue,1272.9840102000162,None,n,1272.9840102000162,None,"['n', 'return']","[2.8166030002757907, 3.1765296002849936]",1272.9840102000162,None,,,65,001,2023_May_01_1214,ExactRep-v3-final,2021.2.3,59.930193225902634,
,,,,,,,,,,,,11,0,11,0,,,,,,,,,,,,,,,,,,,,,,,,,,,,,,,,,,,,,,,,,,,,,,,,,1278.2300756992772,None,,,,,,,,,,,,,,,,,,,,,,,,,,,,,,,,,,,,,,,,,,,,,,,,,,,,,,,,,metal,21,12,sing,old,blue,1276.705574600026,None,y,1276.705574600026,None,"['y', 'return']","[1.2151220003142953, 1.4790454003959894]",1276.705574600026,None,,,65,001,2023_May_01_1214,ExactRep-v3-final,2021.2.3,59.930193225902634,
,,,,,,,,,,,,12,0,12,0,,,,,,,,,,,,,,,,,,,,,,,,,,,,,,,,,,,,,,,,,,,,,,,,,1281.0327824996784,None,,,,,,,,,,,,,,,,,,,,,,,,,,,,,,,,,,,,,,,,,,,,,,,,,,,,,,,,,fault,56,13,silent,old,red,1278.7425152994692,None,y,1278.7425152994692,None,"['y', 'return']","[1.8979551997035742, 2.2580567002296448]",1278.7425152994692,None,,,65,001,2023_May_01_1214,ExactRep-v3-final,2021.2.3,59.930193225902634,
,,,,,,,,,,,,13,0,13,0,,,,,,,,,,,,,,,,,,,,,,,,,,,,,,,,,,,,,,,,,,,,,,,,,1283.13478679955,None,,,,,,,,,,,,,,,,,,,,,,,,,,,,,,,,,,,,,,,,,,,,,,,,,,,,,,,,,meeting,101,14,aloud,old,white,1281.5454234993085,None,y,1281.5454234993085,None,"['y', 'return']","[1.303174700587988, 1.5512793008238077]",1281.5454234993085,None,,,65,001,2023_May_01_1214,ExactRep-v3-final,2021.2.3,59.930193225902634,
,,,,,,,,,,,,14,0,14,0,,,,,,,,,,,,,,,,,,,,,,,,,,,,,,,,,,,,,,,,,,,,,,,,,1285.4371714992449,None,,,,,,,,,,,,,,,,,,,,,,,,,,,,,,,,,,,,,,,,,,,,,,,,,,,,,,,,,bird,167,15,sing,new,blue,1283.6451083999127,None,n,1283.6451083999127,None,"['n', 'return']","[1.4594879001379013, 1.7555643003433943]",1283.6451083999127,None,,,65,001,2023_May_01_1214,ExactRep-v3-final,2021.2.3,59.930193225902634,
,,,,,,,,,,,,15,0,15,0,,,,,,,,,,,,,,,,,,,,,,,,,,,,,,,,,,,,,,,,,,,,,,,,,1288.3234957996756,None,,,,,,,,,,,,,,,,,,,,,,,,,,,,,,,,,,,,,,,,,,,,,,,,,,,,,,,,,murder,126,16,silent,new,red,1285.9474604995921,None,n,1285.9474604995921,None,"['n', 'return']","[1.6611061003059149, 2.341102000325918]",1285.9474604995921,None,,,65,001,2023_May_01_1214,ExactRep-v3-final,2021.2.3,59.930193225902634,
,,,,,,,,,,,,16,0,16,0,,,,,,,,,,,,,,,,,,,,,,,,,,,,,,,,,,,,,,,,,,,,,,,,,1290.9259674996138,None,,,,,,,,,,,,,,,,,,,,,,,,,,,,,,,,,,,,,,,,,,,,,,,,,,,,,,,,,officer,71,17,silent,old,red,1288.8352448996156,None,y,1288.8352448996156,None,"['y', 'return']","[1.7174220001325011, 2.045349099673331]",1288.8352448996156,None,,,65,001,2023_May_01_1214,ExactRep-v3-final,2021.2.3,59.930193225902634,
,,,,,,,,,,,,17,0,17,0,,,,,,,,,,,,,,,,,,,,,,,,,,,,,,,,,,,,,,,,,,,,,,,,,1294.1124986996874,None,,,,,,,,,,,,,,,,,,,,,,,,,,,,,,,,,,,,,,,,,,,,,,,,,,,,,,,,,person,130,18,silent,new,red,1291.427671299316,None,y,1291.427671299316,None,"['y', 'return']","[2.3490891996771097, 2.6370409997180104]",1291.427671299316,None,,,65,001,2023_May_01_1214,ExactRep-v3-final,2021.2.3,59.930193225902634,
,,,,,,,,,,,,18,0,18,0,,,,,,,,,,,,,,,,,,,,,,,,,,,,,,,,,,,,,,,,,,,,,,,,,1297.448873099871,None,,,,,,,,,,,,,,,,,,,,,,,,,,,,,,,,,,,,,,,,,,,,,,,,,,,,,,,,,tool,89,19,aloud,old,white,1294.6197122000158,None,y,1294.6197122000158,None,"['y', 'return']","[2.5090367002412677, 2.7891290998086333]",1294.6197122000158,None,,,65,001,2023_May_01_1214,ExactRep-v3-final,2021.2.3,59.930193225902634,
,,,,,,,,,,,,19,0,19,0,,,,,,,,,,,,,,,,,,,,,,,,,,,,,,,,,,,,,,,,,,,,,,,,,1301.7201138995588,None,,,,,,,,,,,,,,,,,,,,,,,,,,,,,,,,,,,,,,,,,,,,,,,,,,,,,,,,,shadow,230,20,aloud,new,white,1297.9573804000393,None,n,1297.9573804000393,None,"['n', 'return']","[3.1472380002960563, 3.715260900557041]",1297.9573804000393,None,,,65,001,2023_May_01_1214,ExactRep-v3-final,2021.2.3,59.930193225902634,
,,,,,,,,,,,,20,0,20,0,,,,,,,,,,,,,,,,,,,,,,,,,,,,,,,,,,,,,,,,,,,,,,,,,1305.8910617996007,None,,,,,,,,,,,,,,,,,,,,,,,,,,,,,,,,,,,,,,,,,,,,,,,,,,,,,,,,,seat,122,21,silent,new,red,1302.2292307000607,None,y,1302.2292307000607,None,"['y', 'return']","[3.275479399599135, 3.62730859965086]",1302.2292307000607,None,,,65,001,2023_May_01_1214,ExactRep-v3-final,2021.2.3,59.930193225902634,
,,,,,,,,,,,,21,0,21,0,,,,,,,,,,,,,,,,,,,,,,,,,,,,,,,,,,,,,,,,,,,,,,,,,1309.4946456998587,None,,,,,,,,,,,,,,,,,,,,,,,,,,,,,,,,,,,,,,,,,,,,,,,,,,,,,,,,,truth,238,22,aloud,new,white,1306.4034494999796,None,n,1306.4034494999796,None,"['n', 'return']","[2.6611403999850154, 3.0452620005235076]",1306.4034494999796,None,,,65,001,2023_May_01_1214,ExactRep-v3-final,2021.2.3,59.930193225902634,
,,,,,,,,,,,,22,0,22,0,,,,,,,,,,,,,,,,,,,,,,,,,,,,,,,,,,,,,,,,,,,,,,,,,1312.297374399379,None,,,,,,,,,,,,,,,,,,,,,,,,,,,,,,,,,,,,,,,,,,,,,,,,,,,,,,,,,victory,2,23,sing,old,blue,1310.0009408993647,None,y,1310.0009408993647,None,"['y', 'return']","[1.935630900785327, 2.255704900249839]",1310.0009408993647,None,,,65,001,2023_May_01_1214,ExactRep-v3-final,2021.2.3,59.930193225902634,
,,,,,,,,,,,,23,0,23,0,,,,,,,,,,,,,,,,,,,,,,,,,,,,,,,,,,,,,,,,,,,,,,,,,1317.6528177997097,None,,,,,,,,,,,,,,,,,,,,,,,,,,,,,,,,,,,,,,,,,,,,,,,,,,,,,,,,,method,45,24,silent,old,red,1312.805269899778,None,y,1312.805269899778,None,"['y', 'return']","[4.515643400140107, 4.811552899889648]",1312.805269899778,None,,,65,001,2023_May_01_1214,ExactRep-v3-final,2021.2.3,59.930193225902634,
,,,,,,,,,,,,24,0,24,0,,,,,,,,,,,,,,,,,,,,,,,,,,,,,,,,,,,,,,,,,,,,,,,,,1320.6557346992195,None,,,,,,,,,,,,,,,,,,,,,,,,,,,,,,,,,,,,,,,,,,,,,,,,,,,,,,,,,chance,127,25,silent,new,red,1318.165093999356,None,y,1318.165093999356,None,"['y', 'return']","[2.19554159976542, 2.4437985997647047]",1318.165093999356,None,,,65,001,2023_May_01_1214,ExactRep-v3-final,2021.2.3,59.930193225902634,
,,,,,,,,,,,,25,0,25,0,,,,,,,,,,,,,,,,,,,,,,,,,,,,,,,,,,,,,,,,,,,,,,,,,1323.6754925996065,None,,,,,,,,,,,,,,,,,,,,,,,,,,,,,,,,,,,,,,,,,,,,,,,,,,,,,,,,,horse,176,26,aloud,new,white,1321.1660079993308,None,n,1321.1660079993308,None,"['n', 'return']","[2.0505964998155832, 2.474703099578619]",1321.1660079993308,None,,,65,001,2023_May_01_1214,ExactRep-v3-final,2021.2.3,59.930193225902634,
,,,,,,,,,,,,26,0,26,0,,,,,,,,,,,,,,,,,,,,,,,,,,,,,,,,,,,,,,,,,,,,,,,,,1325.6607171995565,None,,,,,,,,,,,,,,,,,,,,,,,,,,,,,,,,,,,,,,,,,,,,,,,,,,,,,,,,,vessel,20,27,sing,old,blue,1324.1867372998968,None,y,1324.1867372998968,None,"['y', 'return']","[1.0939589999616146, 1.42984139919281]",1324.1867372998968,None,,,65,001,2023_May_01_1214,ExactRep-v3-final,2021.2.3,59.930193225902634,
,,,,,,,,,,,,27,0,27,0,,,,,,,,,,,,,,,,,,,,,,,,,,,,,,,,,,,,,,,,,,,,,,,,,1327.5125317992643,None,,,,,,,,,,,,,,,,,,,,,,,,,,,,,,,,,,,,,,,,,,,,,,,,,,,,,,,,,product,88,28,aloud,old,white,1326.170663899742,None,y,1326.170663899742,None,"['y', 'return']","[1.0299807004630566, 1.3100581001490355]",1326.170663899742,None,,,65,001,2023_May_01_1214,ExactRep-v3-final,2021.2.3,59.930193225902634,
,,,,,,,,,,,,28,0,28,0,,,,,,,,,,,,,,,,,,,,,,,,,,,,,,,,,,,,,,,,,,,,,,,,,1331.0327498000115,None,,,,,,,,,,,,,,,,,,,,,,,,,,,,,,,,,,,,,,,,,,,,,,,,,,,,,,,,,life,141,29,silent,new,red,1328.021875899285,None,y,1328.021875899285,None,"['y', 'return']","[2.674769800156355, 2.978662400506437]",1328.021875899285,None,,,65,001,2023_May_01_1214,ExactRep-v3-final,2021.2.3,59.930193225902634,
,,,,,,,,,,,,29,0,29,0,,,,,,,,,,,,,,,,,,,,,,,,,,,,,,,,,,,,,,,,,,,,,,,,,1332.8176750000566,None,,,,,,,,,,,,,,,,,,,,,,,,,,,,,,,,,,,,,,,,,,,,,,,,,,,,,,,,,boulder,99,30,aloud,old,white,1331.5333282994106,None,y,1331.5333282994106,None,"['y', 'return']","[1.0191635005176067, 1.2513246005401015]",1331.5333282994106,None,,,65,001,2023_May_01_1214,ExactRep-v3-final,2021.2.3,59.930193225902634,
,,,,,,,,,,,,30,0,30,0,,,,,,,,,,,,,,,,,,,,,,,,,,,,,,,,,,,,,,,,,,,,,,,,,1335.787687299773,None,,,,,,,,,,,,,,,,,,,,,,,,,,,,,,,,,,,,,,,,,,,,,,,,,,,,,,,,,custom,40,31,silent,old,red,1333.3182504000142,None,n,1333.3182504000142,None,"['n', 'return']","[2.130563199520111, 2.426421499811113]",1333.3182504000142,None,,,65,001,2023_May_01_1214,ExactRep-v3-final,2021.2.3,59.930193225902634,
,,,,,,,,,,,,31,0,31,0,,,,,,,,,,,,,,,,,,,,,,,,,,,,,,,,,,,,,,,,,,,,,,,,,1337.6727204993367,None,,,,,,,,,,,,,,,,,,,,,,,,,,,,,,,,,,,,,,,,,,,,,,,,,,,,,,,,,gift,82,32,aloud,old,white,1336.293345700018,None,y,1336.293345700018,None,"['y', 'return']","[1.0754122994840145, 1.3315098993480206]",1336.293345700018,None,,,65,001,2023_May_01_1214,ExactRep-v3-final,2021.2.3,59.930193225902634,
,,,,,,,,,,,,32,0,32,0,,,,,,,,,,,,,,,,,,,,,,,,,,,,,,,,,,,,,,,,,,,,,,,,,1339.9082700992003,None,,,,,,,,,,,,,,,,,,,,,,,,,,,,,,,,,,,,,,,,,,,,,,,,,,,,,,,,,leader,188,33,aloud,new,white,1338.1806731997058,None,n,1338.1806731997058,None,"['n', 'return']","[1.4279143000021577, 1.692084500566125]",1338.1806731997058,None,,,65,001,2023_May_01_1214,ExactRep-v3-final,2021.2.3,59.930193225902634,
,,,,,,,,,,,,33,0,33,0,,,,,,,,,,,,,,,,,,,,,,,,,,,,,,,,,,,,,,,,,,,,,,,,,1341.9938693000004,None,,,,,,,,,,,,,,,,,,,,,,,,,,,,,,,,,,,,,,,,,,,,,,,,,,,,,,,,,idea,226,34,aloud,new,white,1340.416624499485,None,y,1340.416624499485,None,"['y', 'return']","[1.272320100106299, 1.5361512992531061]",1340.416624499485,None,,,65,001,2023_May_01_1214,ExactRep-v3-final,2021.2.3,59.930193225902634,
,,,,,,,,,,,,34,0,34,0,,,,,,,,,,,,,,,,,,,,,,,,,,,,,,,,,,,,,,,,,,,,,,,,,1343.7955108992755,None,,,,,,,,,,,,,,,,,,,,,,,,,,,,,,,,,,,,,,,,,,,,,,,,,,,,,,,,,grass,98,35,aloud,old,white,1342.5036172997206,None,y,1342.5036172997206,None,"['y', 'return']","[0.9851003000512719, 1.2490017004311085]",1342.5036172997206,None,,,65,001,2023_May_01_1214,ExactRep-v3-final,2021.2.3,59.930193225902634,
,,,,,,,,,,,,35,0,35,0,,,,,,,,,,,,,,,,,,,,,,,,,,,,,,,,,,,,,,,,,,,,,,,,,1349.96827499941,None,,,,,,,,,,,,,,,,,,,,,,,,,,,,,,,,,,,,,,,,,,,,,,,,,,,,,,,,,trouble,225,36,sing,new,blue,1344.295957699418,None,n,1344.295957699418,None,"['n', 'return']","[4.7367481999099255, 5.624684200622141]",1344.295957699418,None,,,65,001,2023_May_01_1214,ExactRep-v3-final,2021.2.3,59.930193225902634,
,,,,,,,,,,,,36,0,36,0,,,,,,,,,,,,,,,,,,,,,,,,,,,,,,,,,,,,,,,,,,,,,,,,,1352.0203350996599,None,,,,,,,,,,,,,,,,,,,,,,,,,,,,,,,,,,,,,,,,,,,,,,,,,,,,,,,,,insect,94,37,aloud,old,white,1350.4794668992981,None,y,1350.4794668992981,None,"['y', 'return']","[1.1852042004466057, 1.505417600274086]",1350.4794668992981,None,,,65,001,2023_May_01_1214,ExactRep-v3-final,2021.2.3,59.930193225902634,
,,,,,,,,,,,,37,0,37,0,,,,,,,,,,,,,,,,,,,,,,,,,,,,,,,,,,,,,,,,,,,,,,,,,1353.8388326996937,None,,,,,,,,,,,,,,,,,,,,,,,,,,,,,,,,,,,,,,,,,,,,,,,,,,,,,,,,,origin,115,38,aloud,old,white,1352.5303175998852,None,y,1352.5303175998852,None,"['y', 'return']","[0.950365100055933, 1.270392599515617]",1352.5303175998852,None,,,65,001,2023_May_01_1214,ExactRep-v3-final,2021.2.3,59.930193225902634,
,,,,,,,,,,,,38,0,38,0,,,,,,,,,,,,,,,,,,,,,,,,,,,,,,,,,,,,,,,,,,,,,,,,,1358.7772511998191,None,,,,,,,,,,,,,,,,,,,,,,,,,,,,,,,,,,,,,,,,,,,,,,,,,,,,,,,,,nail,175,39,sing,new,blue,1354.3507244000211,None,n,1354.3507244000211,None,"['n', 'return']","[3.833947899751365, 4.393977100029588]",1354.3507244000211,None,,,65,001,2023_May_01_1214,ExactRep-v3-final,2021.2.3,59.930193225902634,
,,,,,,,,,,,,39,0,39,0,,,,,,,,,,,,,,,,,,,,,,,,,,,,,,,,,,,,,,,,,,,,,,,,,1361.4131079996005,None,,,,,,,,,,,,,,,,,,,,,,,,,,,,,,,,,,,,,,,,,,,,,,,,,,,,,,,,,safety,18,40,sing,old,blue,1359.2843843996525,None,y,1359.2843843996525,None,"['y', 'return']","[1.7961941007524729, 2.092309500090778]",1359.2843843996525,None,,,65,001,2023_May_01_1214,ExactRep-v3-final,2021.2.3,59.930193225902634,
,,,,,,,,,,,,40,0,40,0,,,,,,,,,,,,,,,,,,,,,,,,,,,,,,,,,,,,,,,,,,,,,,,,,1363.1982557997108,None,,,,,,,,,,,,,,,,,,,,,,,,,,,,,,,,,,,,,,,,,,,,,,,,,,,,,,,,,chief,90,41,aloud,old,white,1361.92301459983,None,y,1361.92301459983,None,"['y', 'return']","[0.9497425993904471, 1.2376758996397257]",1361.92301459983,None,,,65,001,2023_May_01_1214,ExactRep-v3-final,2021.2.3,59.930193225902634,
,,,,,,,,,,,,41,0,41,0,,,,,,,,,,,,,,,,,,,,,,,,,,,,,,,,,,,,,,,,,,,,,,,,,1365.0000676997006,None,,,,,,,,,,,,,,,,,,,,,,,,,,,,,,,,,,,,,,,,,,,,,,,,,,,,,,,,,month,117,42,aloud,old,white,1363.7106555998325,None,y,1363.7106555998325,None,"['y', 'return']","[0.9541382994502783, 1.242060899734497]",1363.7106555998325,None,,,65,001,2023_May_01_1214,ExactRep-v3-final,2021.2.3,59.930193225902634,
,,,,,,,,,,,,42,0,42,0,,,,,,,,,,,,,,,,,,,,,,,,,,,,,,,,,,,,,,,,,,,,,,,,,1366.7185867996886,None,,,,,,,,,,,,,,,,,,,,,,,,,,,,,,,,,,,,,,,,,,,,,,,,,,,,,,,,,poet,97,43,aloud,old,white,1365.5087311994284,None,y,1365.5087311994284,None,"['y', 'return']","[0.8839918999001384, 1.1720344992354512]",1365.5087311994284,None,,,65,001,2023_May_01_1214,ExactRep-v3-final,2021.2.3,59.930193225902634,
,,,,,,,,,,,,43,0,43,0,,,,,,,,,,,,,,,,,,,,,,,,,,,,,,,,,,,,,,,,,,,,,,,,,1369.8549114000052,None,,,,,,,,,,,,,,,,,,,,,,,,,,,,,,,,,,,,,,,,,,,,,,,,,,,,,,,,,quality,233,44,sing,new,blue,1367.229764599353,None,n,1367.229764599353,None,"['n', 'return']","[2.330915999598801, 2.578985399566591]",1367.229764599353,None,,,65,001,2023_May_01_1214,ExactRep-v3-final,2021.2.3,59.930193225902634,
,,,,,,,,,,,,44,0,44,0,,,,,,,,,,,,,,,,,,,,,,,,,,,,,,,,,,,,,,,,,,,,,,,,,1372.9080614997074,None,,,,,,,,,,,,,,,,,,,,,,,,,,,,,,,,,,,,,,,,,,,,,,,,,,,,,,,,,engine,212,45,aloud,new,white,1370.364971799776,None,n,1370.364971799776,None,"['n', 'return']","[1.7316184006631374, 2.499896500259638]",1370.364971799776,None,,,65,001,2023_May_01_1214,ExactRep-v3-final,2021.2.3,59.930193225902634,
,,,,,,,,,,,,45,0,45,0,,,,,,,,,,,,,,,,,,,,,,,,,,,,,,,,,,,,,,,,,,,,,,,,,1377.045629799366,None,,,,,,,,,,,,,,,,,,,,,,,,,,,,,,,,,,,,,,,,,,,,,,,,,,,,,,,,,beast,42,46,silent,old,red,1373.417569999583,None,y,1373.417569999583,None,"['y', 'return']","[2.9830592004582286, 3.59116780012846]",1373.417569999583,None,,,65,001,2023_May_01_1214,ExactRep-v3-final,2021.2.3,59.930193225902634,
,,,,,,,,,,,,46,0,46,0,,,,,,,,,,,,,,,,,,,,,,,,,,,,,,,,,,,,,,,,,,,,,,,,,1381.7503323992714,None,,,,,,,,,,,,,,,,,,,,,,,,,,,,,,,,,,,,,,,,,,,,,,,,,,,,,,,,,dream,221,47,sing,new,blue,1377.554300699383,None,y,1377.554300699383,None,"['y', 'return']","[3.806652099825442, 4.158408499322832]",1377.554300699383,None,,,65,001,2023_May_01_1214,ExactRep-v3-final,2021.2.3,59.930193225902634,
,,,,,,,,,,,,47,0,47,0,,,,,,,,,,,,,,,,,,,,,,,,,,,,,,,,,,,,,,,,,,,,,,,,,1383.7354072993621,None,,,,,,,,,,,,,,,,,,,,,,,,,,,,,,,,,,,,,,,,,,,,,,,,,,,,,,,,,troops,10,48,sing,old,blue,1382.2537755994126,None,y,1382.2537755994126,None,"['y', 'return']","[1.2109599001705647, 1.4429486002773046]",1382.2537755994126,None,,,65,001,2023_May_01_1214,ExactRep-v3-final,2021.2.3,59.930193225902634,
,,,,,,,,,,,,48,0,48,0,,,,,,,,,,,,,,,,,,,,,,,,,,,,,,,,,,,,,,,,,,,,,,,,,1389.8248943993822,None,,,,,,,,,,,,,,,,,,,,,,,,,,,,,,,,,,,,,,,,,,,,,,,,,,,,,,,,,volume,182,49,aloud,new,white,1384.2476681992412,None,y,1384.2476681992412,None,"['n', 'backspace', 'y', 'return']","[1.561136900447309, 4.472997000440955, 5.169010000303388, 5.545058400370181]",1384.2476681992412,None,,,65,001,2023_May_01_1214,ExactRep-v3-final,2021.2.3,59.930193225902634,
,,,,,,,,,,,,49,0,49,0,,,,,,,,,,,,,,,,,,,,,,,,,,,,,,,,,,,,,,,,,,,,,,,,,1391.7767888000235,None,,,,,,,,,,,,,,,,,,,,,,,,,,,,,,,,,,,,,,,,,,,,,,,,,,,,,,,,,passion,30,50,sing,old,blue,1390.3358267992735,None,y,1390.3358267992735,None,"['y', 'return']","[1.1449873996898532, 1.4088821997866035]",1390.3358267992735,None,,,65,001,2023_May_01_1214,ExactRep-v3-final,2021.2.3,59.930193225902634,
,,,,,,,,,,,,50,0,50,0,,,,,,,,,,,,,,,,,,,,,,,,,,,,,,,,,,,,,,,,,,,,,,,,,1396.531614699401,None,,,,,,,,,,,,,,,,,,,,,,,,,,,,,,,,,,,,,,,,,,,,,,,,,,,,,,,,,winter,129,51,silent,new,red,1392.291425199248,None,n,1392.291425199248,None,"['n', 'return']","[3.8932782001793385, 4.197261800058186]",1392.291425199248,None,,,65,001,2023_May_01_1214,ExactRep-v3-final,2021.2.3,59.930193225902634,
,,,,,,,,,,,,51,0,51,0,,,,,,,,,,,,,,,,,,,,,,,,,,,,,,,,,,,,,,,,,,,,,,,,,1401.3698450997472,None,,,,,,,,,,,,,,,,,,,,,,,,,,,,,,,,,,,,,,,,,,,,,,,,,,,,,,,,,cabin,164,52,aloud,new,white,1397.0435035992414,None,y,1397.0435035992414,None,"['y', 'return']","[3.997270599938929, 4.285074000246823]",1397.0435035992414,None,,,65,001,2023_May_01_1214,ExactRep-v3-final,2021.2.3,59.930193225902634,
,,,,,,,,,,,,52,0,52,0,,,,,,,,,,,,,,,,,,,,,,,,,,,,,,,,,,,,,,,,,,,,,,,,,1403.2383704995736,None,,,,,,,,,,,,,,,,,,,,,,,,,,,,,,,,,,,,,,,,,,,,,,,,,,,,,,,,,law,112,53,aloud,old,white,1401.878843699582,None,y,1401.878843699582,None,"['y', 'return']","[1.0740684000775218, 1.3218906000256538]",1401.878843699582,None,,,65,001,2023_May_01_1214,ExactRep-v3-final,2021.2.3,59.930193225902634,
,,,,,,,,,,,,53,0,53,0,,,,,,,,,,,,,,,,,,,,,,,,,,,,,,,,,,,,,,,,,,,,,,,,,1406.9086301997304,None,,,,,,,,,,,,,,,,,,,,,,,,,,,,,,,,,,,,,,,,,,,,,,,,,,,,,,,,,virtue,229,54,sing,new,blue,1403.7460034992546,None,n,1403.7460034992546,None,"['n', 'return']","[2.8067052997648716, 3.1267337994650006]",1403.7460034992546,None,,,65,001,2023_May_01_1214,ExactRep-v3-final,2021.2.3,59.930193225902634,
,,,,,,,,,,,,54,0,54,0,,,,,,,,,,,,,,,,,,,,,,,,,,,,,,,,,,,,,,,,,,,,,,,,,1409.7114273998886,None,,,,,,,,,,,,,,,,,,,,,,,,,,,,,,,,,,,,,,,,,,,,,,,,,,,,,,,,,lake,59,55,silent,old,red,1407.4184691999108,None,n,1407.4184691999108,None,"['n', 'return']","[1.950262799859047, 2.2462627002969384]",1407.4184691999108,None,,,65,001,2023_May_01_1214,ExactRep-v3-final,2021.2.3,59.930193225902634,
,,,,,,,,,,,,55,0,55,0,,,,,,,,,,,,,,,,,,,,,,,,,,,,,,,,,,,,,,,,,,,,,,,,,1413.5819294992834,None,,,,,,,,,,,,,,,,,,,,,,,,,,,,,,,,,,,,,,,,,,,,,,,,,,,,,,,,,judge,223,56,sing,new,blue,1410.2226272998378,None,n,1410.2226272998378,None,"['n', 'return']","[2.8740293998271227, 3.314139399677515]",1410.2226272998378,None,,,65,001,2023_May_01_1214,ExactRep-v3-final,2021.2.3,59.930193225902634,
,,,,,,,,,,,,56,0,56,0,,,,,,,,,,,,,,,,,,,,,,,,,,,,,,,,,,,,,,,,,,,,,,,,,1418.6703929994255,None,,,,,,,,,,,,,,,,,,,,,,,,,,,,,,,,,,,,,,,,,,,,,,,,,,,,,,,,,plant,118,57,aloud,old,white,1414.0918731000274,None,y,1414.0918731000274,None,"['return', 'return', 'y', 'return']","[1.2610468994826078, 2.772863100282848, 4.220994199626148, 4.532855300232768]",1414.0918731000274,None,,,65,001,2023_May_01_1214,ExactRep-v3-final,2021.2.3,59.930193225902634,
,,,,,,,,,,,,57,0,57,0,,,,,,,,,,,,,,,,,,,,,,,,,,,,,,,,,,,,,,,,,,,,,,,,,1425.2102898992598,None,,,,,,,,,,,,,,,,,,,,,,,,,,,,,,,,,,,,,,,,,,,,,,,,,,,,,,,,,storm,235,58,sing,new,blue,1419.1833294993266,None,y,1419.1833294993266,None,"['y', 'return']","[5.665564100258052, 5.985578199848533]",1419.1833294993266,None,,,65,001,2023_May_01_1214,ExactRep-v3-final,2021.2.3,59.930193225902634,
,,,,,,,,,,,,58,0,58,0,,,,,,,,,,,,,,,,,,,,,,,,,,,,,,,,,,,,,,,,,,,,,,,,,1430.215392000042,None,,,,,,,,,,,,,,,,,,,,,,,,,,,,,,,,,,,,,,,,,,,,,,,,,,,,,,,,,silence,121,59,silent,new,red,1425.719541599974,None,y,1425.719541599974,None,"['y', 'return']","[4.057533499784768, 4.45738329924643]",1425.719541599974,None,,,65,001,2023_May_01_1214,ExactRep-v3-final,2021.2.3,59.930193225902634,
,,,,,,,,,,,,59,0,59,0,,,,,,,,,,,,,,,,,,,,,,,,,,,,,,,,,,,,,,,,,,,,,,,,,1433.168242899701,None,,,,,,,,,,,,,,,,,,,,,,,,,,,,,,,,,,,,,,,,,,,,,,,,,,,,,,,,,shock,148,60,silent,new,red,1430.7313925996423,None,n,1430.7313925996423,None,"['n', 'return']","[2.0933288000524044, 2.3973824996501207]",1430.7313925996423,None,,,65,001,2023_May_01_1214,ExactRep-v3-final,2021.2.3,59.930193225902634,
,,,,,,,,,,,,60,0,60,0,,,,,,,,,,,,,,,,,,,,,,,,,,,,,,,,,,,,,,,,,,,,,,,,,1435.220262799412,None,,,,,,,,,,,,,,,,,,,,,,,,,,,,,,,,,,,,,,,,,,,,,,,,,,,,,,,,,queen,25,61,sing,old,blue,1433.687404899858,None,y,1433.687404899858,None,"['y', 'return']","[1.169356799684465, 1.489286799915135]",1433.687404899858,None,,,65,001,2023_May_01_1214,ExactRep-v3-final,2021.2.3,59.930193225902634,
,,,,,,,,,,,,61,0,61,0,,,,,,,,,,,,,,,,,,,,,,,,,,,,,,,,,,,,,,,,,,,,,,,,,1438.8738527996466,None,,,,,,,,,,,,,,,,,,,,,,,,,,,,,,,,,,,,,,,,,,,,,,,,,,,,,,,,,rock,231,62,sing,new,blue,1435.7282354999334,None,n,1435.7282354999334,None,"['n', 'return']","[2.8725545005872846, 3.1126529006287456]",1435.7282354999334,None,,,65,001,2023_May_01_1214,ExactRep-v3-final,2021.2.3,59.930193225902634,
,,,,,,,,,,,,62,0,62,0,,,,,,,,,,,,,,,,,,,,,,,,,,,,,,,,,,,,,,,,,,,,,,,,,1442.8112979000434,None,,,,,,,,,,,,,,,,,,,,,,,,,,,,,,,,,,,,,,,,,,,,,,,,,,,,,,,,,arm,43,63,silent,old,red,1439.3827776992694,None,y,1439.3827776992694,None,"['y', 'return']","[2.6419759998098016, 3.3940439000725746]",1439.3827776992694,None,,,65,001,2023_May_01_1214,ExactRep-v3-final,2021.2.3,59.930193225902634,
,,,,,,,,,,,,63,0,63,0,,,,,,,,,,,,,,,,,,,,,,,,,,,,,,,,,,,,,,,,,,,,,,,,,1445.3805499998853,None,,,,,,,,,,,,,,,,,,,,,,,,,,,,,,,,,,,,,,,,,,,,,,,,,,,,,,,,,string,132,64,silent,new,red,1443.3276787996292,None,n,1443.3276787996292,None,"['n', 'return']","[1.7531106993556023, 2.0173282995820045]",1443.3276787996292,None,,,65,001,2023_May_01_1214,ExactRep-v3-final,2021.2.3,59.930193225902634,
,,,,,,,,,,,,64,0,64,0,,,,,,,,,,,,,,,,,,,,,,,,,,,,,,,,,,,,,,,,,,,,,,,,,1447.8496224991977,None,,,,,,,,,,,,,,,,,,,,,,,,,,,,,,,,,,,,,,,,,,,,,,,,,,,,,,,,,church,83,65,aloud,old,white,1445.8931024000049,None,y,1445.8931024000049,None,"['y', 'return']","[1.3080525994300842, 1.9157719993963838]",1445.8931024000049,None,,,65,001,2023_May_01_1214,ExactRep-v3-final,2021.2.3,59.930193225902634,
,,,,,,,,,,,,65,0,65,0,,,,,,,,,,,,,,,,,,,,,,,,,,,,,,,,,,,,,,,,,,,,,,,,,1450.3022141000256,None,,,,,,,,,,,,,,,,,,,,,,,,,,,,,,,,,,,,,,,,,,,,,,,,,,,,,,,,,breast,131,66,silent,new,red,1448.3629983998835,None,n,1448.3629983998835,None,"['n', 'return']","[1.613740099593997, 1.90177830029279]",1448.3629983998835,None,,,65,001,2023_May_01_1214,ExactRep-v3-final,2021.2.3,59.930193225902634,
,,,,,,,,,,,,66,0,66,0,,,,,,,,,,,,,,,,,,,,,,,,,,,,,,,,,,,,,,,,,,,,,,,,,1453.4385717995465,None,,,,,,,,,,,,,,,,,,,,,,,,,,,,,,,,,,,,,,,,,,,,,,,,,,,,,,,,,earth,72,67,silent,old,red,1450.8128917999566,None,y,1450.8128917999566,None,"['y', 'return']","[1.931967600248754, 2.5800126995891333]",1450.8128917999566,None,,,65,001,2023_May_01_1214,ExactRep-v3-final,2021.2.3,59.930193225902634,
,,,,,,,,,,,,67,0,67,0,,,,,,,,,,,,,,,,,,,,,,,,,,,,,,,,,,,,,,,,,,,,,,,,,1459.0941499993205,None,,,,,,,,,,,,,,,,,,,,,,,,,,,,,,,,,,,,,,,,,,,,,,,,,,,,,,,,,anger,219,68,sing,new,blue,1453.9482201999053,None,y,1453.9482201999053,None,"['y', 'return']","[4.764648100361228, 5.1085258005186915]",1453.9482201999053,None,,,65,001,2023_May_01_1214,ExactRep-v3-final,2021.2.3,59.930193225902634,
,,,,,,,,,,,,68,0,68,0,,,,,,,,,,,,,,,,,,,,,,,,,,,,,,,,,,,,,,,,,,,,,,,,,1463.4985460992903,None,,,,,,,,,,,,,,,,,,,,,,,,,,,,,,,,,,,,,,,,,,,,,,,,,,,,,,,,,humour,153,69,silent,new,red,1459.604693999514,None,n,1459.604693999514,None,"['n', 'return']","[3.508370100520551, 3.8600850999355316]",1459.604693999514,None,,,65,001,2023_May_01_1214,ExactRep-v3-final,2021.2.3,59.930193225902634,
,,,,,,,,,,,,69,0,69,0,,,,,,,,,,,,,,,,,,,,,,,,,,,,,,,,,,,,,,,,,,,,,,,,,1467.6194441998377,None,,,,,,,,,,,,,,,,,,,,,,,,,,,,,,,,,,,,,,,,,,,,,,,,,,,,,,,,,picture,198,70,aloud,new,white,1464.0085840998217,None,n,1464.0085840998217,None,"['n', 'return']","[3.2325326995924115, 3.5761682000011206]",1464.0085840998217,None,,,65,001,2023_May_01_1214,ExactRep-v3-final,2021.2.3,59.930193225902634,
,,,,,,,,,,,,70,0,70,0,,,,,,,,,,,,,,,,,,,,,,,,,,,,,,,,,,,,,,,,,,,,,,,,,1470.355339399539,None,,,,,,,,,,,,,,,,,,,,,,,,,,,,,,,,,,,,,,,,,,,,,,,,,,,,,,,,,artist,49,71,silent,old,red,1468.1233107997105,None,y,1468.1233107997105,None,"['y', 'return']","[1.8296061009168625, 2.1895240005105734]",1468.1233107997105,None,,,65,001,2023_May_01_1214,ExactRep-v3-final,2021.2.3,59.930193225902634,
,,,,,,,,,,,,71,0,71,0,,,,,,,,,,,,,,,,,,,,,,,,,,,,,,,,,,,,,,,,,,,,,,,,,1474.3927873000503,None,,,,,,,,,,,,,,,,,,,,,,,,,,,,,,,,,,,,,,,,,,,,,,,,,,,,,,,,,history,44,72,silent,old,red,1470.8653579996899,None,y,1470.8653579996899,None,"['y', 'return']","[2.7596659995615482, 3.479509899392724]",1470.8653579996899,None,,,65,001,2023_May_01_1214,ExactRep-v3-final,2021.2.3,59.930193225902634,
,,,,,,,,,,,,72,0,72,0,,,,,,,,,,,,,,,,,,,,,,,,,,,,,,,,,,,,,,,,,,,,,,,,,1476.6616789000109,None,,,,,,,,,,,,,,,,,,,,,,,,,,,,,,,,,,,,,,,,,,,,,,,,,,,,,,,,,square,39,73,silent,old,red,1474.9046105993912,None,n,1474.9046105993912,None,"['n', 'return']","[1.3361868998035789, 1.7201955001801252]",1474.9046105993912,None,,,65,001,2023_May_01_1214,ExactRep-v3-final,2021.2.3,59.930193225902634,
,,,,,,,,,,,,73,0,73,0,,,,,,,,,,,,,,,,,,,,,,,,,,,,,,,,,,,,,,,,,,,,,,,,,1479.7314603999257,None,,,,,,,,,,,,,,,,,,,,,,,,,,,,,,,,,,,,,,,,,,,,,,,,,,,,,,,,,dress,177,74,sing,new,blue,1477.168413799256,None,n,1477.168413799256,None,"['n', 'return']","[2.168386099860072, 2.528386799618602]",1477.168413799256,None,,,65,001,2023_May_01_1214,ExactRep-v3-final,2021.2.3,59.930193225902634,
,,,,,,,,,,,,74,0,74,0,,,,,,,,,,,,,,,,,,,,,,,,,,,,,,,,,,,,,,,,,,,,,,,,,1483.368353500031,None,,,,,,,,,,,,,,,,,,,,,,,,,,,,,,,,,,,,,,,,,,,,,,,,,,,,,,,,,king,190,75,aloud,new,white,1480.243368299678,None,n,1480.243368299678,None,"['n', 'return']","[2.8214013995602727, 3.093439499847591]",1480.243368299678,None,,,65,001,2023_May_01_1214,ExactRep-v3-final,2021.2.3,59.930193225902634,
,,,,,,,,,,,,75,0,75,0,,,,,,,,,,,,,,,,,,,,,,,,,,,,,,,,,,,,,,,,,,,,,,,,,1489.8248389996588,None,,,,,,,,,,,,,,,,,,,,,,,,,,,,,,,,,,,,,,,,,,,,,,,,,,,,,,,,,author,34,76,sing,old,blue,1483.8807878997177,None,n,1483.8807878997177,None,"['n', 'return']","[5.648244000039995, 5.90408550016582]",1483.8807878997177,None,,,65,001,2023_May_01_1214,ExactRep-v3-final,2021.2.3,59.930193225902634,
,,,,,,,,,,,,76,0,76,0,,,,,,,,,,,,,,,,,,,,,,,,,,,,,,,,,,,,,,,,,,,,,,,,,1492.2941846996546,None,,,,,,,,,,,,,,,,,,,,,,,,,,,,,,,,,,,,,,,,,,,,,,,,,,,,,,,,,coast,140,77,silent,new,red,1490.3340825000778,None,n,1490.3340825000778,None,"['n', 'return']","[1.6426915004849434, 1.9147471003234386]",1490.3340825000778,None,,,65,001,2023_May_01_1214,ExactRep-v3-final,2021.2.3,59.930193225902634,
,,,,,,,,,,,,77,0,77,0,,,,,,,,,,,,,,,,,,,,,,,,,,,,,,,,,,,,,,,,,,,,,,,,,1495.2969215000048,None,,,,,,,,,,,,,,,,,,,,,,,,,,,,,,,,,,,,,,,,,,,,,,,,,,,,,,,,,flower,232,78,aloud,new,white,1492.8082281993702,None,n,1492.8082281993702,None,"['n', 'return']","[2.2328560994938016, 2.456671600230038]",1492.8082281993702,None,,,65,001,2023_May_01_1214,ExactRep-v3-final,2021.2.3,59.930193225902634,
,,,,,,,,,,,,78,0,78,0,,,,,,,,,,,,,,,,,,,,,,,,,,,,,,,,,,,,,,,,,,,,,,,,,1497.4825446996838,None,,,,,,,,,,,,,,,,,,,,,,,,,,,,,,,,,,,,,,,,,,,,,,,,,,,,,,,,,colony,103,79,aloud,old,white,1495.8058845996857,None,y,1495.8058845996857,None,"['y', 'return']","[1.3789457995444536, 1.6349838003516197]",1495.8058845996857,None,,,65,001,2023_May_01_1214,ExactRep-v3-final,2021.2.3,59.930193225902634,
,,,,,,,,,,,,79,0,79,0,,,,,,,,,,,,,,,,,,,,,,,,,,,,,,,,,,,,,,,,,,,,,,,,,1501.0695531992242,None,,,,,,,,,,,,,,,,,,,,,,,,,,,,,,,,,,,,,,,,,,,,,,,,,,,,,,,,,present,58,80,silent,old,red,1497.9922646991909,None,n,1497.9922646991909,None,"['n', 'return']","[2.83256149943918, 3.0325680999085307]",1497.9922646991909,None,,,65,001,2023_May_01_1214,ExactRep-v3-final,2021.2.3,59.930193225902634,
,,,,,,,,,,,,80,0,80,0,,,,,,,,,,,,,,,,,,,,,,,,,,,,,,,,,,,,,,,,,,,,,,,,,1504.7231085998937,None,,,,,,,,,,,,,,,,,,,,,,,,,,,,,,,,,,,,,,,,,,,,,,,,,,,,,,,,,star,107,81,aloud,old,white,1501.5792779000476,None,n,1501.5792779000476,None,"['n', 'return']","[2.845691899769008, 3.101567500270903]",1501.5792779000476,None,,,65,001,2023_May_01_1214,ExactRep-v3-final,2021.2.3,59.930193225902634,
,,,,,,,,,,,,81,0,81,0,,,,,,,,,,,,,,,,,,,,,,,,,,,,,,,,,,,,,,,,,,,,,,,,,1506.8585719000548,None,,,,,,,,,,,,,,,,,,,,,,,,,,,,,,,,,,,,,,,,,,,,,,,,,,,,,,,,,chair,199,82,sing,new,blue,1505.2357425000519,None,y,1505.2357425000519,None,"['y', 'return']","[1.2930739996954799, 1.5890765991061926]",1505.2357425000519,None,,,65,001,2023_May_01_1214,ExactRep-v3-final,2021.2.3,59.930193225902634,
,,,,,,,,,,,,82,0,82,0,,,,,,,,,,,,,,,,,,,,,,,,,,,,,,,,,,,,,,,,,,,,,,,,,1511.0960725992918,None,,,,,,,,,,,,,,,,,,,,,,,,,,,,,,,,,,,,,,,,,,,,,,,,,,,,,,,,,dawn,185,83,sing,new,blue,1507.3670219993219,None,n,1507.3670219993219,None,"['n', 'return']","[3.3617888996377587, 3.681807800196111]",1507.3670219993219,None,,,65,001,2023_May_01_1214,ExactRep-v3-final,2021.2.3,59.930193225902634,
,,,,,,,,,,,,83,0,83,0,,,,,,,,,,,,,,,,,,,,,,,,,,,,,,,,,,,,,,,,,,,,,,,,,1514.6141194999218,None,,,,,,,,,,,,,,,,,,,,,,,,,,,,,,,,,,,,,,,,,,,,,,,,,,,,,,,,,flood,179,84,sing,new,blue,1511.6054632999003,None,y,1511.6054632999003,None,"['y', 'return']","[2.6993773002177477, 2.955406700260937]",1511.6054632999003,None,,,65,001,2023_May_01_1214,ExactRep-v3-final,2021.2.3,59.930193225902634,
,,,,,,,,,,,,84,0,84,0,,,,,,,,,,,,,,,,,,,,,,,,,,,,,,,,,,,,,,,,,,,,,,,,,1520.2051895996556,None,,,,,,,,,,,,,,,,,,,,,,,,,,,,,,,,,,,,,,,,,,,,,,,,,,,,,,,,,sky,228,85,aloud,new,white,1515.1290261000395,None,y,1515.1290261000395,None,"['y', 'return']","[4.744005000218749, 5.039917699992657]",1515.1290261000395,None,,,65,001,2023_May_01_1214,ExactRep-v3-final,2021.2.3,59.930193225902634,
,,,,,,,,,,,,85,0,85,0,,,,,,,,,,,,,,,,,,,,,,,,,,,,,,,,,,,,,,,,,,,,,,,,,1526.8619067994878,None,,,,,,,,,,,,,,,,,,,,,,,,,,,,,,,,,,,,,,,,,,,,,,,,,,,,,,,,,salary,87,86,aloud,old,white,1520.7161493999884,None,n,1520.7161493999884,None,"['n', 'return']","[5.876766700297594, 6.108725199475884]",1520.7161493999884,None,,,65,001,2023_May_01_1214,ExactRep-v3-final,2021.2.3,59.930193225902634,
,,,,,,,,,,,,86,0,86,0,,,,,,,,,,,,,,,,,,,,,,,,,,,,,,,,,,,,,,,,,,,,,,,,,1529.6479634996504,None,,,,,,,,,,,,,,,,,,,,,,,,,,,,,,,,,,,,,,,,,,,,,,,,,,,,,,,,,thought,220,87,aloud,new,white,1527.3700359994546,None,n,1527.3700359994546,None,"['n', 'return']","[1.5912656001746655, 2.2388593005016446]",1527.3700359994546,None,,,65,001,2023_May_01_1214,ExactRep-v3-final,2021.2.3,59.930193225902634,
,,,,,,,,,,,,87,0,87,0,,,,,,,,,,,,,,,,,,,,,,,,,,,,,,,,,,,,,,,,,,,,,,,,,1533.0513637000695,None,,,,,,,,,,,,,,,,,,,,,,,,,,,,,,,,,,,,,,,,,,,,,,,,,,,,,,,,,city,52,88,silent,old,red,1530.1548448000103,None,n,1530.1548448000103,None,"['n', 'return']","[1.8459055004641414, 2.861950400285423]",1530.1548448000103,None,,,65,001,2023_May_01_1214,ExactRep-v3-final,2021.2.3,59.930193225902634,
,,,,,,,,,,,,88,0,88,0,,,,,,,,,,,,,,,,,,,,,,,,,,,,,,,,,,,,,,,,,,,,,,,,,1536.9885974992067,None,,,,,,,,,,,,,,,,,,,,,,,,,,,,,,,,,,,,,,,,,,,,,,,,,,,,,,,,,home,69,89,silent,old,red,1533.5628258995712,None,n,1533.5628258995712,None,"['n', 'return']","[3.1340541997924447, 3.39006180036813]",1533.5628258995712,None,,,65,001,2023_May_01_1214,ExactRep-v3-final,2021.2.3,59.930193225902634,
,,,,,,,,,,,,89,0,89,0,,,,,,,,,,,,,,,,,,,,,,,,,,,,,,,,,,,,,,,,,,,,,,,,,1540.7925974000245,None,,,,,,,,,,,,,,,,,,,,,,,,,,,,,,,,,,,,,,,,,,,,,,,,,,,,,,,,,length,192,90,aloud,new,white,1537.49848489929,None,n,1537.49848489929,None,"['n', 'return']","[2.9505369001999497, 3.2624483993276954]",1537.49848489929,None,,,65,001,2023_May_01_1214,ExactRep-v3-final,2021.2.3,59.930193225902634,
,,,,,,,,,,,,90,0,90,0,,,,,,,,,,,,,,,,,,,,,,,,,,,,,,,,,,,,,,,,,,,,,,,,,1544.6632447000593,None,,,,,,,,,,,,,,,,,,,,,,,,,,,,,,,,,,,,,,,,,,,,,,,,,,,,,,,,,pride,160,91,aloud,new,white,1541.3025223994628,None,y,1541.3025223994628,None,"['y', 'return']","[1.29037950001657, 3.314354700036347]",1541.3025223994628,None,,,65,001,2023_May_01_1214,ExactRep-v3-final,2021.2.3,59.930193225902634,
,,,,,,,,,,,,91,0,91,0,,,,,,,,,,,,,,,,,,,,,,,,,,,,,,,,,,,,,,,,,,,,,,,,,1547.5826532999054,None,,,,,,,,,,,,,,,,,,,,,,,,,,,,,,,,,,,,,,,,,,,,,,,,,,,,,,,,,car,65,92,silent,old,red,1545.1661899993196,None,n,1545.1661899993196,None,"['n', 'return']","[2.0746878003701568, 2.3707450004294515]",1545.1661899993196,None,,,65,001,2023_May_01_1214,ExactRep-v3-final,2021.2.3,59.930193225902634,
,,,,,,,,,,,,92,0,92,0,,,,,,,,,,,,,,,,,,,,,,,,,,,,,,,,,,,,,,,,,,,,,,,,,1551.4866658998653,None,,,,,,,,,,,,,,,,,,,,,,,,,,,,,,,,,,,,,,,,,,,,,,,,,,,,,,,,,theory,37,93,sing,old,blue,1548.0895750997588,None,y,1548.0895750997588,None,"['y', 'return']","[3.0473863994702697, 3.3593137999996543]",1548.0895750997588,None,,,65,001,2023_May_01_1214,ExactRep-v3-final,2021.2.3,59.930193225902634,
,,,,,,,,,,,,93,0,93,0,,,,,,,,,,,,,,,,,,,,,,,,,,,,,,,,,,,,,,,,,,,,,,,,,1553.6887032995,None,,,,,,,,,,,,,,,,,,,,,,,,,,,,,,,,,,,,,,,,,,,,,,,,,,,,,,,,,world,26,94,sing,old,blue,1551.995772499591,None,y,1551.995772499591,None,"['y', 'return']","[1.317364800721407, 1.661200400441885]",1551.995772499591,None,,,65,001,2023_May_01_1214,ExactRep-v3-final,2021.2.3,59.930193225902634,
,,,,,,,,,,,,94,0,94,0,,,,,,,,,,,,,,,,,,,,,,,,,,,,,,,,,,,,,,,,,,,,,,,,,1557.475838500075,None,,,,,,,,,,,,,,,,,,,,,,,,,,,,,,,,,,,,,,,,,,,,,,,,,,,,,,,,,friend,204,95,aloud,new,white,1554.1985612995923,None,n,1554.1985612995923,None,"['n', 'return']","[2.9222858995199203, 3.242273699492216]",1554.1985612995923,None,,,65,001,2023_May_01_1214,ExactRep-v3-final,2021.2.3,59.930193225902634,
,,,,,,,,,,,,95,0,95,0,,,,,,,,,,,,,,,,,,,,,,,,,,,,,,,,,,,,,,,,,,,,,,,,,1562.0637262994424,None,,,,,,,,,,,,,,,,,,,,,,,,,,,,,,,,,,,,,,,,,,,,,,,,,,,,,,,,,river,184,96,aloud,new,white,1557.990317599848,None,n,1557.990317599848,None,"['n', 'return']","[3.7225609002634883, 4.0266776997596025]",1557.990317599848,None,,,65,001,2023_May_01_1214,ExactRep-v3-final,2021.2.3,59.930193225902634,
,,,,,,,,,,,,96,0,96,0,,,,,,,,,,,,,,,,,,,,,,,,,,,,,,,,,,,,,,,,,,,,,,,,,1566.4514950998127,None,,,,,,,,,,,,,,,,,,,,,,,,,,,,,,,,,,,,,,,,,,,,,,,,,,,,,,,,,health,17,97,sing,old,blue,1562.5754509000108,None,y,1562.5754509000108,None,"['y', 'return']","[2.42540830001235, 3.8413955997675657]",1562.5754509000108,None,,,65,001,2023_May_01_1214,ExactRep-v3-final,2021.2.3,59.930193225902634,
,,,,,,,,,,,,97,0,97,0,,,,,,,,,,,,,,,,,,,,,,,,,,,,,,,,,,,,,,,,,,,,,,,,,1571.6900141993538,None,,,,,,,,,,,,,,,,,,,,,,,,,,,,,,,,,,,,,,,,,,,,,,,,,,,,,,,,,master,9,98,sing,old,blue,1566.959810199216,None,y,1566.959810199216,None,"['y', 'return']","[4.337169899605215, 4.697148299776018]",1566.959810199216,None,,,65,001,2023_May_01_1214,ExactRep-v3-final,2021.2.3,59.930193225902634,
,,,,,,,,,,,,98,0,98,0,,,,,,,,,,,,,,,,,,,,,,,,,,,,,,,,,,,,,,,,,,,,,,,,,1574.075728399679,None,,,,,,,,,,,,,,,,,,,,,,,,,,,,,,,,,,,,,,,,,,,,,,,,,,,,,,,,,honour,81,99,aloud,old,white,1572.199955499731,None,y,1572.199955499731,None,"['y', 'return']","[1.5288961995393038, 1.8329511992633343]",1572.199955499731,None,,,65,001,2023_May_01_1214,ExactRep-v3-final,2021.2.3,59.930193225902634,
,,,,,,,,,,,,99,0,99,0,,,,,,,,,,,,,,,,,,,,,,,,,,,,,,,,,,,,,,,,,,,,,,,,,1578.5801172992215,None,,,,,,,,,,,,,,,,,,,,,,,,,,,,,,,,,,,,,,,,,,,,,,,,,,,,,,,,,house,170,100,aloud,new,white,1574.5845818994567,None,y,1574.5845818994567,None,"['y', 'return']","[3.0723435999825597, 3.952393500134349]",1574.5845818994567,None,,,65,001,2023_May_01_1214,ExactRep-v3-final,2021.2.3,59.930193225902634,
,,,,,,,,,,,,100,0,100,0,,,,,,,,,,,,,,,,,,,,,,,,,,,,,,,,,,,,,,,,,,,,,,,,,1582.6007773000747,None,,,,,,,,,,,,,,,,,,,,,,,,,,,,,,,,,,,,,,,,,,,,,,,,,,,,,,,,,air,3,101,sing,old,blue,1579.086155699566,None,y,1579.086155699566,None,"['y', 'return']","[2.7308697002008557, 3.4826194997876883]",1579.086155699566,None,,,65,001,2023_May_01_1214,ExactRep-v3-final,2021.2.3,59.930193225902634,
,,,,,,,,,,,,101,0,101,0,,,,,,,,,,,,,,,,,,,,,,,,,,,,,,,,,,,,,,,,,,,,,,,,,1585.7207651995122,None,,,,,,,,,,,,,,,,,,,,,,,,,,,,,,,,,,,,,,,,,,,,,,,,,,,,,,,,,doll,46,102,silent,old,red,1583.1134726991877,None,y,1583.1134726991877,None,"['y', 'return']","[2.2153968000784516, 2.55941370036453]",1583.1134726991877,None,,,65,001,2023_May_01_1214,ExactRep-v3-final,2021.2.3,59.930193225902634,
,,,,,,,,,,,,102,0,102,0,,,,,,,,,,,,,,,,,,,,,,,,,,,,,,,,,,,,,,,,,,,,,,,,,1588.0563834998757,None,,,,,,,,,,,,,,,,,,,,,,,,,,,,,,,,,,,,,,,,,,,,,,,,,,,,,,,,,shame,135,103,silent,new,red,1586.233050099574,None,n,1586.233050099574,None,"['n', 'return']","[1.415833500213921, 1.7758049005642533]",1586.233050099574,None,,,65,001,2023_May_01_1214,ExactRep-v3-final,2021.2.3,59.930193225902634,
,,,,,,,,,,,,103,0,103,0,,,,,,,,,,,,,,,,,,,,,,,,,,,,,,,,,,,,,,,,,,,,,,,,,1590.7424050997943,None,,,,,,,,,,,,,,,,,,,,,,,,,,,,,,,,,,,,,,,,,,,,,,,,,,,,,,,,,steam,76,104,silent,old,red,1588.5654452992603,None,y,1588.5654452992603,None,"['y', 'return']","[1.8114938996732235, 2.1394767994061112]",1588.5654452992603,None,,,65,001,2023_May_01_1214,ExactRep-v3-final,2021.2.3,59.930193225902634,
,,,,,,,,,,,,104,0,104,0,,,,,,,,,,,,,,,,,,,,,,,,,,,,,,,,,,,,,,,,,,,,,,,,,1594.4461819995195,None,,,,,,,,,,,,,,,,,,,,,,,,,,,,,,,,,,,,,,,,,,,,,,,,,,,,,,,,,hour,178,105,aloud,new,white,1591.251436999999,None,n,1591.251436999999,None,"['n', 'return']","[2.837447300553322, 3.157523300498724]",1591.251436999999,None,,,65,001,2023_May_01_1214,ExactRep-v3-final,2021.2.3,59.930193225902634,
,,,,,,,,,,,,105,0,105,0,,,,,,,,,,,,,,,,,,,,,,,,,,,,,,,,,,,,,,,,,,,,,,,,,1597.232450099662,None,,,,,,,,,,,,,,,,,,,,,,,,,,,,,,,,,,,,,,,,,,,,,,,,,,,,,,,,,opinion,33,106,sing,old,blue,1594.954830300063,None,y,1594.954830300063,None,"['y', 'return']","[1.7981858998537064, 2.2380935000255704]",1594.954830300063,None,,,65,001,2023_May_01_1214,ExactRep-v3-final,2021.2.3,59.930193225902634,
,,,,,,,,,,,,106,0,106,0,,,,,,,,,,,,,,,,,,,,,,,,,,,,,,,,,,,,,,,,,,,,,,,,,1600.8359027998522,None,,,,,,,,,,,,,,,,,,,,,,,,,,,,,,,,,,,,,,,,,,,,,,,,,,,,,,,,,child,217,107,sing,new,blue,1597.740094599314,None,n,1597.740094599314,None,"['n', 'return']","[2.8290618006139994, 3.0528357001021504]",1597.740094599314,None,,,65,001,2023_May_01_1214,ExactRep-v3-final,2021.2.3,59.930193225902634,
,,,,,,,,,,,,107,0,107,0,,,,,,,,,,,,,,,,,,,,,,,,,,,,,,,,,,,,,,,,,,,,,,,,,1604.1391850998625,None,,,,,,,,,,,,,,,,,,,,,,,,,,,,,,,,,,,,,,,,,,,,,,,,,,,,,,,,,shore,189,108,sing,new,blue,1601.3435415998101,None,n,1601.3435415998101,None,"['n', 'return']","[2.4734219005331397, 2.7533699003979564]",1601.3435415998101,None,,,65,001,2023_May_01_1214,ExactRep-v3-final,2021.2.3,59.930193225902634,
,,,,,,,,,,,,108,0,108,0,,,,,,,,,,,,,,,,,,,,,,,,,,,,,,,,,,,,,,,,,,,,,,,,,1606.1413565995172,None,,,,,,,,,,,,,,,,,,,,,,,,,,,,,,,,,,,,,,,,,,,,,,,,,,,,,,,,,sugar,15,109,sing,old,blue,1604.6488355994225,None,y,1604.6488355994225,None,"['y', 'return']","[1.192157699726522, 1.4480237998068333]",1604.6488355994225,None,,,65,001,2023_May_01_1214,ExactRep-v3-final,2021.2.3,59.930193225902634,
,,,,,,,,,,,,109,0,109,0,,,,,,,,,,,,,,,,,,,,,,,,,,,,,,,,,,,,,,,,,,,,,,,,,1609.1276887999848,None,,,,,,,,,,,,,,,,,,,,,,,,,,,,,,,,,,,,,,,,,,,,,,,,,,,,,,,,,slave,149,110,silent,new,red,1606.6494242995977,None,n,1606.6494242995977,None,"['n', 'return']","[2.1115565998479724, 2.4395653000101447]",1606.6494242995977,None,,,65,001,2023_May_01_1214,ExactRep-v3-final,2021.2.3,59.930193225902634,
,,,,,,,,,,,,110,0,110,0,,,,,,,,,,,,,,,,,,,,,,,,,,,,,,,,,,,,,,,,,,,,,,,,,1612.2140287999064,None,,,,,,,,,,,,,,,,,,,,,,,,,,,,,,,,,,,,,,,,,,,,,,,,,,,,,,,,,wheat,202,111,aloud,new,white,1609.6473875995725,None,y,1609.6473875995725,None,"['y', 'return']","[2.153640699572861, 2.529629699885845]",1609.6473875995725,None,,,65,001,2023_May_01_1214,ExactRep-v3-final,2021.2.3,59.930193225902634,
,,,,,,,,,,,,111,0,111,0,,,,,,,,,,,,,,,,,,,,,,,,,,,,,,,,,,,,,,,,,,,,,,,,,1618.1030155997723,None,,,,,,,,,,,,,,,,,,,,,,,,,,,,,,,,,,,,,,,,,,,,,,,,,,,,,,,,,forest,155,112,silent,new,red,1612.7320747999474,None,n,1612.7320747999474,None,"['n', 'return']","[5.060912500135601, 5.324744899757206]",1612.7320747999474,None,,,65,001,2023_May_01_1214,ExactRep-v3-final,2021.2.3,59.930193225902634,
,,,,,,,,,,,,112,0,112,0,,,,,,,,,,,,,,,,,,,,,,,,,,,,,,,,,,,,,,,,,,,,,,,,,1621.38968189992,None,,,,,,,,,,,,,,,,,,,,,,,,,,,,,,,,,,,,,,,,,,,,,,,,,,,,,,,,,answer,109,113,aloud,old,white,1618.6035174001008,None,y,1618.6035174001008,None,"['y', 'return']","[2.4374893996864557, 2.749450800009072]",1618.6035174001008,None,,,65,001,2023_May_01_1214,ExactRep-v3-final,2021.2.3,59.930193225902634,
,,,,,,,,,,,,113,0,113,0,,,,,,,,,,,,,,,,,,,,,,,,,,,,,,,,,,,,,,,,,,,,,,,,,1623.4753506993875,None,,,,,,,,,,,,,,,,,,,,,,,,,,,,,,,,,,,,,,,,,,,,,,,,,,,,,,,,,prison,31,114,sing,old,blue,1621.9017891995609,None,y,1621.9017891995609,None,"['y', 'return']","[1.2671331008896232, 1.5312518002465367]",1621.9017891995609,None,,,65,001,2023_May_01_1214,ExactRep-v3-final,2021.2.3,59.930193225902634,
,,,,,,,,,,,,114,0,114,0,,,,,,,,,,,,,,,,,,,,,,,,,,,,,,,,,,,,,,,,,,,,,,,,,1627.1620618999004,None,,,,,,,,,,,,,,,,,,,,,,,,,,,,,,,,,,,,,,,,,,,,,,,,,,,,,,,,,season,165,115,sing,new,blue,1623.9849469996989,None,y,1623.9849469996989,None,"['y', 'return']","[2.880005800165236, 3.1359881004318595]",1623.9849469996989,None,,,65,001,2023_May_01_1214,ExactRep-v3-final,2021.2.3,59.930193225902634,
,,,,,,,,,,,,115,0,115,0,,,,,,,,,,,,,,,,,,,,,,,,,,,,,,,,,,,,,,,,,,,,,,,,,1629.180846599862,None,,,,,,,,,,,,,,,,,,,,,,,,,,,,,,,,,,,,,,,,,,,,,,,,,,,,,,,,,army,12,116,sing,old,blue,1627.6713382992893,None,y,1627.6713382992893,None,"['y', 'return']","[1.289648599922657, 1.4655830999836326]",1627.6713382992893,None,,,65,001,2023_May_01_1214,ExactRep-v3-final,2021.2.3,59.930193225902634,
,,,,,,,,,,,,116,0,116,0,,,,,,,,,,,,,,,,,,,,,,,,,,,,,,,,,,,,,,,,,,,,,,,,,1632.6009129993618,None,,,,,,,,,,,,,,,,,,,,,,,,,,,,,,,,,,,,,,,,,,,,,,,,,,,,,,,,,table,171,117,sing,new,blue,1629.6891671000049,None,n,1629.6891671000049,None,"['n', 'return']","[2.295824700035155, 2.879794300533831]",1629.6891671000049,None,,,65,001,2023_May_01_1214,ExactRep-v3-final,2021.2.3,59.930193225902634,
,,,,,,,,,,,,117,0,117,0,,,,,,,,,,,,,,,,,,,,,,,,,,,,,,,,,,,,,,,,,,,,,,,,,1635.320170399733,None,,,,,,,,,,,,,,,,,,,,,,,,,,,,,,,,,,,,,,,,,,,,,,,,,,,,,,,,,teacher,1,118,sing,old,blue,1633.1045965999365,None,y,1633.1045965999365,None,"['y', 'return']","[1.9365446995943785, 2.1842285003513098]",1633.1045965999365,None,,,65,001,2023_May_01_1214,ExactRep-v3-final,2021.2.3,59.930193225902634,
,,,,,,,,,,,,118,0,118,0,,,,,,,,,,,,,,,,,,,,,,,,,,,,,,,,,,,,,,,,,,,,,,,,,1640.2084463993087,None,,,,,,,,,,,,,,,,,,,,,,,,,,,,,,,,,,,,,,,,,,,,,,,,,,,,,,,,,paper,216,119,aloud,new,white,1635.830226900056,None,y,1635.830226900056,None,"['y', 'return']","[4.066809999756515, 4.33876740001142]",1635.830226900056,None,,,65,001,2023_May_01_1214,ExactRep-v3-final,2021.2.3,59.930193225902634,
,,,,,,,,,,,,119,0,119,0,,,,,,,,,,,,,,,,,,,,,,,,,,,,,,,,,,,,,,,,,,,,,,,,,1642.5609005996957,None,,,,,,,,,,,,,,,,,,,,,,,,,,,,,,,,,,,,,,,,,,,,,,,,,,,,,,,,,mercy,154,120,silent,new,red,1640.7168637998402,None,n,1640.7168637998402,None,"['n', 'return']","[1.524172899313271, 1.8041568994522095]",1640.7168637998402,None,,,65,001,2023_May_01_1214,ExactRep-v3-final,2021.2.3,59.930193225902634,
,,,,,,,,,,,,120,0,120,0,,,,,,,,,,,,,,,,,,,,,,,,,,,,,,,,,,,,,,,,,,,,,,,,,1644.9800478992984,None,,,,,,,,,,,,,,,,,,,,,,,,,,,,,,,,,,,,,,,,,,,,,,,,,,,,,,,,,cost,166,121,aloud,new,white,1643.070090400055,None,n,1643.070090400055,None,"['n', 'return']","[1.627088900655508, 1.8748438004404306]",1643.070090400055,None,,,65,001,2023_May_01_1214,ExactRep-v3-final,2021.2.3,59.930193225902634,
,,,,,,,,,,,,121,0,121,0,,,,,,,,,,,,,,,,,,,,,,,,,,,,,,,,,,,,,,,,,,,,,,,,,1648.0497405994684,None,,,,,,,,,,,,,,,,,,,,,,,,,,,,,,,,,,,,,,,,,,,,,,,,,,,,,,,,,disease,239,122,sing,new,blue,1645.4865425992757,None,n,1645.4865425992757,None,"['n', 'return']","[2.2344353003427386, 2.530347599647939]",1645.4865425992757,None,,,65,001,2023_May_01_1214,ExactRep-v3-final,2021.2.3,59.930193225902634,
,,,,,,,,,,,,122,0,122,0,,,,,,,,,,,,,,,,,,,,,,,,,,,,,,,,,,,,,,,,,,,,,,,,,1650.9526338996366,None,,,,,,,,,,,,,,,,,,,,,,,,,,,,,,,,,,,,,,,,,,,,,,,,,,,,,,,,,village,80,123,aloud,old,white,1648.5588318994269,None,y,1648.5588318994269,None,"['y', 'return']","[2.0021977005526423, 2.3541957000270486]",1648.5588318994269,None,,,65,001,2023_May_01_1214,ExactRep-v3-final,2021.2.3,59.930193225902634,
,,,,,,,,,,,,123,0,123,0,,,,,,,,,,,,,,,,,,,,,,,,,,,,,,,,,,,,,,,,,,,,,,,,,1655.557051599957,None,,,,,,,,,,,,,,,,,,,,,,,,,,,,,,,,,,,,,,,,,,,,,,,,,,,,,,,,,mother,54,124,silent,old,red,1651.462605299428,None,y,1651.462605299428,None,"['y', 'return']","[3.7705858992412686, 4.0503225000575185]",1651.462605299428,None,,,65,001,2023_May_01_1214,ExactRep-v3-final,2021.2.3,59.930193225902634,
,,,,,,,,,,,,124,0,124,0,,,,,,,,,,,,,,,,,,,,,,,,,,,,,,,,,,,,,,,,,,,,,,,,,1660.228659399785,None,,,,,,,,,,,,,,,,,,,,,,,,,,,,,,,,,,,,,,,,,,,,,,,,,,,,,,,,,cat,85,125,aloud,old,white,1656.0662561999634,None,y,1656.0662561999634,None,"['y', 'return']","[3.6628632992506027, 4.127023399807513]",1656.0662561999634,None,,,65,001,2023_May_01_1214,ExactRep-v3-final,2021.2.3,59.930193225902634,
,,,,,,,,,,,,125,0,125,0,,,,,,,,,,,,,,,,,,,,,,,,,,,,,,,,,,,,,,,,,,,,,,,,,1665.1503417994827,None,,,,,,,,,,,,,,,,,,,,,,,,,,,,,,,,,,,,,,,,,,,,,,,,,,,,,,,,,iron,193,126,sing,new,blue,1660.73383979965,None,n,1660.73383979965,None,"['n', 'return']","[4.099247399717569, 4.371148400008678]",1660.73383979965,None,,,65,001,2023_May_01_1214,ExactRep-v3-final,2021.2.3,59.930193225902634,
,,,,,,,,,,,,126,0,126,0,,,,,,,,,,,,,,,,,,,,,,,,,,,,,,,,,,,,,,,,,,,,,,,,,1667.6527137998492,None,,,,,,,,,,,,,,,,,,,,,,,,,,,,,,,,,,,,,,,,,,,,,,,,,,,,,,,,,lip,186,127,aloud,new,white,1665.6582609992474,None,n,1665.6582609992474,None,"['n', 'return']","[1.6307219006121159, 1.958759200759232]",1665.6582609992474,None,,,65,001,2023_May_01_1214,ExactRep-v3-final,2021.2.3,59.930193225902634,
,,,,,,,,,,,,127,0,127,0,,,,,,,,,,,,,,,,,,,,,,,,,,,,,,,,,,,,,,,,,,,,,,,,,1674.2927071992308,None,,,,,,,,,,,,,,,,,,,,,,,,,,,,,,,,,,,,,,,,,,,,,,,,,,,,,,,,,factory,146,128,silent,new,red,1668.1625020001084,None,n,1668.1625020001084,None,"['n', 'return']","[4.822461400181055, 6.086444300599396]",1668.1625020001084,None,,,65,001,2023_May_01_1214,ExactRep-v3-final,2021.2.3,59.930193225902634,
,,,,,,,,,,,,128,0,128,0,,,,,,,,,,,,,,,,,,,,,,,,,,,,,,,,,,,,,,,,,,,,,,,,,1678.196511999704,None,,,,,,,,,,,,,,,,,,,,,,,,,,,,,,,,,,,,,,,,,,,,,,,,,,,,,,,,,pole,210,129,aloud,new,white,1674.7955763991922,None,y,1674.7955763991922,None,"['y', 'return']","[3.1176629001274705, 3.3574596997350454]",1674.7955763991922,None,,,65,001,2023_May_01_1214,ExactRep-v3-final,2021.2.3,59.930193225902634,
,,,,,,,,,,,,129,0,129,0,,,,,,,,,,,,,,,,,,,,,,,,,,,,,,,,,,,,,,,,,,,,,,,,,1680.7155360998586,None,,,,,,,,,,,,,,,,,,,,,,,,,,,,,,,,,,,,,,,,,,,,,,,,,,,,,,,,,doctor,64,130,silent,old,red,1678.7001495994627,None,n,1678.7001495994627,None,"['n', 'return']","[1.6930989995598793, 1.9728912999853492]",1678.7001495994627,None,,,65,001,2023_May_01_1214,ExactRep-v3-final,2021.2.3,59.930193225902634,
,,,,,,,,,,,,130,0,130,0,,,,,,,,,,,,,,,,,,,,,,,,,,,,,,,,,,,,,,,,,,,,,,,,,1685.8542259000242,None,,,,,,,,,,,,,,,,,,,,,,,,,,,,,,,,,,,,,,,,,,,,,,,,,,,,,,,,,apple,86,131,aloud,old,white,1681.225754399784,None,n,1681.225754399784,None,"['n', 'return']","[4.351399100385606, 4.591331300325692]",1681.225754399784,None,,,65,001,2023_May_01_1214,ExactRep-v3-final,2021.2.3,59.930193225902634,
