trials_fam.thisRepN,trials_fam.thisTrialN,trials_fam.thisN,trials_fam.thisIndex,trials_prc.thisRepN,trials_prc.thisTrialN,trials_prc.thisN,trials_prc.thisIndex,StudyLoop.thisRepN,StudyLoop.thisTrialN,StudyLoop.thisN,StudyLoop.thisIndex,TestLoop.thisRepN,TestLoop.thisTrialN,TestLoop.thisN,TestLoop.thisIndex,text_colortest.started,text_colortest.stopped,key_colortest.keys,key_colortest.rt,key_colortest.started,key_colortest.stopped,textCondition.started,textCondition.stopped,keyCondition.keys,keyCondition.rt,keyCondition.started,keyCondition.stopped,Condition_between,Condition_counterbal,keyWelcome.keys,keyWelcome.rt,keyWelcome.started,keyWelcome.stopped,welcome_a.started,welcome_a.stopped,welcome_b.started,welcome_b.stopped,welcome_c.started,welcome_c.stopped,welcome_d.started,welcome_d.stopped,welcome_e.started,welcome_e.stopped,welcome_f.started,welcome_f.stopped,key_resp_fam_inst.keys,key_resp_fam_inst.rt,key_resp_fam_inst.started,key_resp_fam_inst.stopped,fam_a.started,fam_a.stopped,fam_b.started,fam_b.stopped,fam_c.started,fam_c.stopped,fam_d.started,fam_d.stopped,fam_e.started,fam_e.stopped,fam_f.started,fam_f.stopped,text_famil.started,text_famil.stopped,textBlank500.started,textBlank500.stopped,key_resp_prc_inst.keys,key_resp_prc_inst.rt,key_resp_prc_inst.started,key_resp_prc_inst.stopped,prac_a.started,prac_a.stopped,prac_b.started,prac_b.stopped,prac_c.started,prac_c.stopped,prac_d.started,prac_d.stopped,prac_e.started,prac_e.stopped,prac_f.started,prac_f.stopped,text_prc_trial.started,text_prc_trial.stopped,key_resp_study_inst.keys,key_resp_study_inst.rt,key_resp_study_inst.started,key_resp_study_inst.stopped,crit_a.started,crit_a.stopped,crit_b.started,crit_b.stopped,crit_c.started,crit_c.stopped,crit_d.started,crit_d.stopped,crit_e.started,crit_e.stopped,crit_f.started,crit_f.stopped,study_word,study_num,study_order,study_type,word_color,textStudy.started,textStudy.stopped,keyStudy.keys,keyStudy.started,keyStudy.stopped,post_study.started,post_study.stopped,key_resp_post_study.keys,key_resp_post_study.rt,key_resp_post_study.started,key_resp_post_study.stopped,test_inst.started,test_inst.stopped,key_resp_test_inst.keys,key_resp_test_inst.rt,key_resp_test_inst.started,key_resp_test_inst.stopped,test_word,test_num,test_order,test_condition,old_new_test,word_color_test,textConf.started,textConf.stopped,Participant Response,textInput.started,textInput.stopped,keyResp.keys,keyResp.rt,keyResp.started,keyResp.stopped,textEnd.started,textEnd.stopped,participant,session,date,expName,psychopyVersion,frameRate,
,,,,,,,,,,,,,,,,12.900372800417244,None,y,0.9040180994197726,12.900372800417244,None,,,,,,,,,,,,,,,,,,,,,,,,,,,,,,,,,,,,,,,,,,,,,,,,,,,,,,,,,,,,,,,,,,,,,,,,,,,,,,,,,,,,,,,,,,,,,,,,,,,,,,,,,,,,,,,,,,,,,,66,001,2023_May_01_1250,ExactRep-v3-final,2021.2.3,59.97825204139874,
,,,,,,,,,,,,,,,,,,,,,,13.83309209998697,None,f,0.33917099982500076,13.83309209998697,None,,,,,,,,,,,,,,,,,,,,,,,,,,,,,,,,,,,,,,,,,,,,,,,,,,,,,,,,,,,,,,,,,,,,,,,,,,,,,,,,,,,,,,,,,,,,,,,,,,,,,,,,,,,,,,,,66,001,2023_May_01_1250,ExactRep-v3-final,2021.2.3,59.97825204139874,
,,,,,,,,,,,,,,,,,,,,,,,,,,,,colorfoils,f,space,560.3195500001311,24.32531930040568,None,,,,,,,,,,,,,,,,,,,,,,,,,,,,,,,,,,,,,,,,,,,,,,,,,,,,,,,,,,,,,,,,,,,,,,,,,,,,,,,,,,,,,,,,,,,,,,,,,,,,,,,,,,66,001,2023_May_01_1250,ExactRep-v3-final,2021.2.3,59.97825204139874,
,,,,,,,,,,,,,,,,,,,,,,,,,,,,,,,,,,14.353866400197148,None,14.353866400197148,None,14.353866400197148,None,14.353866400197148,None,14.353866400197148,None,14.353866400197148,None,space,16.54951209947467,594.863276399672,None,,,,,,,,,,,,,,,,,,,,,,,,,,,,,,,,,,,,,,,,,,,,,,,,,,,,,,,,,,,,,,,,,,,,,,,,,,,,,,,,,,,,,,,,,,66,001,2023_May_01_1250,ExactRep-v3-final,2021.2.3,59.97825204139874,
0,0,0,0,,,,,,,,,,,,,,,,,,,,,,,,,,,,,,,,,,,,,,,,,,,,,,,584.8522688997909,None,584.8522688997909,None,584.8522688997909,None,584.8522688997909,None,584.8522688997909,None,584.8522688997909,None,611.5227730004117,None,613.5159523002803,None,,,,,,,,,,,,,,,,,,,,,,,,,,,,,,,,,,,,,,,,,,,,,,,,,,,,,,,,,,,,,,,,,,,,,,,,,,66,001,2023_May_01_1250,ExactRep-v3-final,2021.2.3,59.97825204139874,
1,0,1,0,,,,,,,,,,,,,,,,,,,,,,,,,,,,,,,,,,,,,,,,,,,,,,,,,,,,,,,,,,,614.0164692997932,None,616.0184623003006,None,,,,,,,,,,,,,,,,,,,,,,,,,,,,,,,,,,,,,,,,,,,,,,,,,,,,,,,,,,,,,,,,,,,,,,,,,,66,001,2023_May_01_1250,ExactRep-v3-final,2021.2.3,59.97825204139874,
2,0,2,0,,,,,,,,,,,,,,,,,,,,,,,,,,,,,,,,,,,,,,,,,,,,,,,,,,,,,,,,,,,616.5190267004073,None,618.5208312002942,None,,,,,,,,,,,,,,,,,,,,,,,,,,,,,,,,,,,,,,,,,,,,,,,,,,,,,,,,,,,,,,,,,,,,,,,,,,66,001,2023_May_01_1250,ExactRep-v3-final,2021.2.3,59.97825204139874,
3,0,3,0,,,,,,,,,,,,,,,,,,,,,,,,,,,,,,,,,,,,,,,,,,,,,,,,,,,,,,,,,,,619.0214825998992,None,621.0233095996082,None,,,,,,,,,,,,,,,,,,,,,,,,,,,,,,,,,,,,,,,,,,,,,,,,,,,,,,,,,,,,,,,,,,,,,,,,,,66,001,2023_May_01_1250,ExactRep-v3-final,2021.2.3,59.97825204139874,
4,0,4,0,,,,,,,,,,,,,,,,,,,,,,,,,,,,,,,,,,,,,,,,,,,,,,,,,,,,,,,,,,,621.5436564004049,None,623.5427713999525,None,,,,,,,,,,,,,,,,,,,,,,,,,,,,,,,,,,,,,,,,,,,,,,,,,,,,,,,,,,,,,,,,,,,,,,,,,,66,001,2023_May_01_1250,ExactRep-v3-final,2021.2.3,59.97825204139874,
5,0,5,0,,,,,,,,,,,,,,,,,,,,,,,,,,,,,,,,,,,,,,,,,,,,,,,,,,,,,,,,,,,624.0442158998922,None,626.0447728000581,None,,,,,,,,,,,,,,,,,,,,,,,,,,,,,,,,,,,,,,,,,,,,,,,,,,,,,,,,,,,,,,,,,,,,,,,,,,66,001,2023_May_01_1250,ExactRep-v3-final,2021.2.3,59.97825204139874,
6,0,6,0,,,,,,,,,,,,,,,,,,,,,,,,,,,,,,,,,,,,,,,,,,,,,,,,,,,,,,,,,,,626.5453233998269,None,628.5477771004662,None,,,,,,,,,,,,,,,,,,,,,,,,,,,,,,,,,,,,,,,,,,,,,,,,,,,,,,,,,,,,,,,,,,,,,,,,,,66,001,2023_May_01_1250,ExactRep-v3-final,2021.2.3,59.97825204139874,
7,0,7,0,,,,,,,,,,,,,,,,,,,,,,,,,,,,,,,,,,,,,,,,,,,,,,,,,,,,,,,,,,,629.0566167002544,None,631.0667011002079,None,,,,,,,,,,,,,,,,,,,,,,,,,,,,,,,,,,,,,,,,,,,,,,,,,,,,,,,,,,,,,,,,,,,,,,,,,,66,001,2023_May_01_1250,ExactRep-v3-final,2021.2.3,59.97825204139874,
8,0,8,0,,,,,,,,,,,,,,,,,,,,,,,,,,,,,,,,,,,,,,,,,,,,,,,,,,,,,,,,,,,631.5674029001966,None,633.5694682998583,None,,,,,,,,,,,,,,,,,,,,,,,,,,,,,,,,,,,,,,,,,,,,,,,,,,,,,,,,,,,,,,,,,,,,,,,,,,66,001,2023_May_01_1250,ExactRep-v3-final,2021.2.3,59.97825204139874,
9,0,9,0,,,,,,,,,,,,,,,,,,,,,,,,,,,,,,,,,,,,,,,,,,,,,,,,,,,,,,,,,,,634.0698392000049,None,636.0718558002263,None,,,,,,,,,,,,,,,,,,,,,,,,,,,,,,,,,,,,,,,,,,,,,,,,,,,,,,,,,,,,,,,,,,,,,,,,,,66,001,2023_May_01_1250,ExactRep-v3-final,2021.2.3,59.97825204139874,
10,0,10,0,,,,,,,,,,,,,,,,,,,,,,,,,,,,,,,,,,,,,,,,,,,,,,,,,,,,,,,,,,,636.5732837002724,None,638.5742624998093,None,,,,,,,,,,,,,,,,,,,,,,,,,,,,,,,,,,,,,,,,,,,,,,,,,,,,,,,,,,,,,,,,,,,,,,,,,,66,001,2023_May_01_1250,ExactRep-v3-final,2021.2.3,59.97825204139874,
11,0,11,0,,,,,,,,,,,,,,,,,,,,,,,,,,,,,,,,,,,,,,,,,,,,,,,,,,,,,,,,,,,639.0747261997312,None,641.0767946997657,None,,,,,,,,,,,,,,,,,,,,,,,,,,,,,,,,,,,,,,,,,,,,,,,,,,,,,,,,,,,,,,,,,,,,,,,,,,66,001,2023_May_01_1250,ExactRep-v3-final,2021.2.3,59.97825204139874,
12,0,12,0,,,,,,,,,,,,,,,,,,,,,,,,,,,,,,,,,,,,,,,,,,,,,,,,,,,,,,,,,,,641.577549399808,None,643.5793570997193,None,,,,,,,,,,,,,,,,,,,,,,,,,,,,,,,,,,,,,,,,,,,,,,,,,,,,,,,,,,,,,,,,,,,,,,,,,,66,001,2023_May_01_1250,ExactRep-v3-final,2021.2.3,59.97825204139874,
13,0,13,0,,,,,,,,,,,,,,,,,,,,,,,,,,,,,,,,,,,,,,,,,,,,,,,,,,,,,,,,,,,644.0826303996146,None,646.0818990999833,None,,,,,,,,,,,,,,,,,,,,,,,,,,,,,,,,,,,,,,,,,,,,,,,,,,,,,,,,,,,,,,,,,,,,,,,,,,66,001,2023_May_01_1250,ExactRep-v3-final,2021.2.3,59.97825204139874,
14,0,14,0,,,,,,,,,,,,,,,,,,,,,,,,,,,,,,,,,,,,,,,,,,,,,,,,,,,,,,,,,,,646.5854203999043,None,648.5844438998029,None,,,,,,,,,,,,,,,,,,,,,,,,,,,,,,,,,,,,,,,,,,,,,,,,,,,,,,,,,,,,,,,,,,,,,,,,,,66,001,2023_May_01_1250,ExactRep-v3-final,2021.2.3,59.97825204139874,
,,,,,,,,,,,,,,,,,,,,,,,,,,,,,,,,,,,,,,,,,,,,,,,,,,,,,,,,,,,,,,,,,,space,18.52773919980973,659.1810424001887,None,,,,,,,,,,,,,,,,,,,,,,,,,,,,,,,,,,,,,,,,,,,,,,,,,,,,,,,,,,,,,,,,,,,,,,66,001,2023_May_01_1250,ExactRep-v3-final,2021.2.3,59.97825204139874,
,,,,0,0,0,0,,,,,,,,,,,,,,,,,,,,,,,,,,,,,,,,,,,,,,,,,,,,,,,,,,,,,,,,,679.7987451003864,None,,,,,649.2462247004732,None,649.2462247004732,None,649.2462247004732,None,649.2462247004732,None,649.2462247004732,None,649.2462247004732,None,677.7985947998241,None,,,,,,,,,,,,,,,,,,,,,,,,,,,,,,,,,,,,,,,,,,,,,,,,,,,,,,,,66,001,2023_May_01_1250,ExactRep-v3-final,2021.2.3,59.97825204139874,
,,,,1,0,1,0,,,,,,,,,,,,,,,,,,,,,,,,,,,,,,,,,,,,,,,,,,,,,,,,,,,,,,,,,682.3012338001281,None,,,,,,,,,,,,,,,,,680.299270699732,None,,,,,,,,,,,,,,,,,,,,,,,,,,,,,,,,,,,,,,,,,,,,,,,,,,,,,,,,66,001,2023_May_01_1250,ExactRep-v3-final,2021.2.3,59.97825204139874,
,,,,2,0,2,0,,,,,,,,,,,,,,,,,,,,,,,,,,,,,,,,,,,,,,,,,,,,,,,,,,,,,,,,,684.8038905998692,None,,,,,,,,,,,,,,,,,682.8017747998238,None,,,,,,,,,,,,,,,,,,,,,,,,,,,,,,,,,,,,,,,,,,,,,,,,,,,,,,,,66,001,2023_May_01_1250,ExactRep-v3-final,2021.2.3,59.97825204139874,
,,,,3,0,3,0,,,,,,,,,,,,,,,,,,,,,,,,,,,,,,,,,,,,,,,,,,,,,,,,,,,,,,,,,687.3064444996417,None,,,,,,,,,,,,,,,,,685.304237600416,None,,,,,,,,,,,,,,,,,,,,,,,,,,,,,,,,,,,,,,,,,,,,,,,,,,,,,,,,66,001,2023_May_01_1250,ExactRep-v3-final,2021.2.3,59.97825204139874,
,,,,4,0,4,0,,,,,,,,,,,,,,,,,,,,,,,,,,,,,,,,,,,,,,,,,,,,,,,,,,,,,,,,,689.8089525001124,None,,,,,,,,,,,,,,,,,687.8069813996553,None,,,,,,,,,,,,,,,,,,,,,,,,,,,,,,,,,,,,,,,,,,,,,,,,,,,,,,,,66,001,2023_May_01_1250,ExactRep-v3-final,2021.2.3,59.97825204139874,
,,,,5,0,5,0,,,,,,,,,,,,,,,,,,,,,,,,,,,,,,,,,,,,,,,,,,,,,,,,,,,,,,,,,692.3115625996143,None,,,,,,,,,,,,,,,,,690.3094445997849,None,,,,,,,,,,,,,,,,,,,,,,,,,,,,,,,,,,,,,,,,,,,,,,,,,,,,,,,,66,001,2023_May_01_1250,ExactRep-v3-final,2021.2.3,59.97825204139874,
,,,,6,0,6,0,,,,,,,,,,,,,,,,,,,,,,,,,,,,,,,,,,,,,,,,,,,,,,,,,,,,,,,,,694.8138733999804,None,,,,,,,,,,,,,,,,,692.8120656004176,None,,,,,,,,,,,,,,,,,,,,,,,,,,,,,,,,,,,,,,,,,,,,,,,,,,,,,,,,66,001,2023_May_01_1250,ExactRep-v3-final,2021.2.3,59.97825204139874,
,,,,7,0,7,0,,,,,,,,,,,,,,,,,,,,,,,,,,,,,,,,,,,,,,,,,,,,,,,,,,,,,,,,,697.3165017999709,None,,,,,,,,,,,,,,,,,695.3142157001421,None,,,,,,,,,,,,,,,,,,,,,,,,,,,,,,,,,,,,,,,,,,,,,,,,,,,,,,,,66,001,2023_May_01_1250,ExactRep-v3-final,2021.2.3,59.97825204139874,
,,,,8,0,8,0,,,,,,,,,,,,,,,,,,,,,,,,,,,,,,,,,,,,,,,,,,,,,,,,,,,,,,,,,699.818893100135,None,,,,,,,,,,,,,,,,,697.8169186003506,None,,,,,,,,,,,,,,,,,,,,,,,,,,,,,,,,,,,,,,,,,,,,,,,,,,,,,,,,66,001,2023_May_01_1250,ExactRep-v3-final,2021.2.3,59.97825204139874,
,,,,9,0,9,0,,,,,,,,,,,,,,,,,,,,,,,,,,,,,,,,,,,,,,,,,,,,,,,,,,,,,,,,,702.3214220004156,None,,,,,,,,,,,,,,,,,700.3194495001808,None,,,,,,,,,,,,,,,,,,,,,,,,,,,,,,,,,,,,,,,,,,,,,,,,,,,,,,,,66,001,2023_May_01_1250,ExactRep-v3-final,2021.2.3,59.97825204139874,
,,,,10,0,10,0,,,,,,,,,,,,,,,,,,,,,,,,,,,,,,,,,,,,,,,,,,,,,,,,,,,,,,,,,704.8239166997373,None,,,,,,,,,,,,,,,,,702.8219239003956,None,,,,,,,,,,,,,,,,,,,,,,,,,,,,,,,,,,,,,,,,,,,,,,,,,,,,,,,,66,001,2023_May_01_1250,ExactRep-v3-final,2021.2.3,59.97825204139874,
,,,,11,0,11,0,,,,,,,,,,,,,,,,,,,,,,,,,,,,,,,,,,,,,,,,,,,,,,,,,,,,,,,,,707.3266572002321,None,,,,,,,,,,,,,,,,,705.324531099759,None,,,,,,,,,,,,,,,,,,,,,,,,,,,,,,,,,,,,,,,,,,,,,,,,,,,,,,,,66,001,2023_May_01_1250,ExactRep-v3-final,2021.2.3,59.97825204139874,
,,,,12,0,12,0,,,,,,,,,,,,,,,,,,,,,,,,,,,,,,,,,,,,,,,,,,,,,,,,,,,,,,,,,709.8289777003229,None,,,,,,,,,,,,,,,,,707.82704559993,None,,,,,,,,,,,,,,,,,,,,,,,,,,,,,,,,,,,,,,,,,,,,,,,,,,,,,,,,66,001,2023_May_01_1250,ExactRep-v3-final,2021.2.3,59.97825204139874,
,,,,13,0,13,0,,,,,,,,,,,,,,,,,,,,,,,,,,,,,,,,,,,,,,,,,,,,,,,,,,,,,,,,,712.3314755000174,None,,,,,,,,,,,,,,,,,710.3294155998155,None,,,,,,,,,,,,,,,,,,,,,,,,,,,,,,,,,,,,,,,,,,,,,,,,,,,,,,,,66,001,2023_May_01_1250,ExactRep-v3-final,2021.2.3,59.97825204139874,
,,,,14,0,14,0,,,,,,,,,,,,,,,,,,,,,,,,,,,,,,,,,,,,,,,,,,,,,,,,,,,,,,,,,714.8337532002479,None,,,,,,,,,,,,,,,,,712.8320084000006,None,,,,,,,,,,,,,,,,,,,,,,,,,,,,,,,,,,,,,,,,,,,,,,,,,,,,,,,,66,001,2023_May_01_1250,ExactRep-v3-final,2021.2.3,59.97825204139874,
,,,,,,,,,,,,,,,,,,,,,,,,,,,,,,,,,,,,,,,,,,,,,,,,,,,,,,,,,,,,,,,,,,,,,,,,,,,,,,,,,,,,space,26.41661179997027,725.4682414997369,None,,,,,,,,,,,,,,,,,,,,,,,,,,,,,,,,,,,,,,,,,,,,,,,,,,,,66,001,2023_May_01_1250,ExactRep-v3-final,2021.2.3,59.97825204139874,
,,,,,,,,0,0,0,0,,,,,,,,,,,,,,,,,,,,,,,,,,,,,,,,,,,,,,,,,,,,,,,,,,,,,754.0064925998449,None,,,,,,,,,,,,,,,,,,,,,,,715.4825370004401,None,715.4825370004401,None,715.4825370004401,None,715.4825370004401,None,715.4825370004401,None,715.4825370004401,None,grief,94,1,aloud,white,751.9976038001478,None,None,751.9976038001478,None,,,,,,,,,,,,,,,,,,,,,,,,,,,,,,66,001,2023_May_01_1250,ExactRep-v3-final,2021.2.3,59.97825204139874,
,,,,,,,,1,0,1,0,,,,,,,,,,,,,,,,,,,,,,,,,,,,,,,,,,,,,,,,,,,,,,,,,,,,,756.5257160002366,None,,,,,,,,,,,,,,,,,,,,,,,,,,,,,,,,,,,method,59,2,silent,blue,754.5140415998176,None,None,754.5140415998176,None,,,,,,,,,,,,,,,,,,,,,,,,,,,,,,66,001,2023_May_01_1250,ExactRep-v3-final,2021.2.3,59.97825204139874,
,,,,,,,,2,0,2,0,,,,,,,,,,,,,,,,,,,,,,,,,,,,,,,,,,,,,,,,,,,,,,,,,,,,,759.0496600000188,None,,,,,,,,,,,,,,,,,,,,,,,,,,,,,,,,,,,science,6,3,sing,red,757.0349316000938,None,None,757.0349316000938,None,,,,,,,,,,,,,,,,,,,,,,,,,,,,,,66,001,2023_May_01_1250,ExactRep-v3-final,2021.2.3,59.97825204139874,
,,,,,,,,3,0,3,0,,,,,,,,,,,,,,,,,,,,,,,,,,,,,,,,,,,,,,,,,,,,,,,,,,,,,761.5470709996298,None,,,,,,,,,,,,,,,,,,,,,,,,,,,,,,,,,,,paper,76,4,silent,blue,759.5450232001022,None,None,759.5450232001022,None,,,,,,,,,,,,,,,,,,,,,,,,,,,,,,66,001,2023_May_01_1250,ExactRep-v3-final,2021.2.3,59.97825204139874,
,,,,,,,,4,0,4,0,,,,,,,,,,,,,,,,,,,,,,,,,,,,,,,,,,,,,,,,,,,,,,,,,,,,,764.0661989999935,None,,,,,,,,,,,,,,,,,,,,,,,,,,,,,,,,,,,vessel,9,5,sing,red,762.0605619000271,None,None,762.0605619000271,None,,,,,,,,,,,,,,,,,,,,,,,,,,,,,,66,001,2023_May_01_1250,ExactRep-v3-final,2021.2.3,59.97825204139874,
,,,,,,,,5,0,5,0,,,,,,,,,,,,,,,,,,,,,,,,,,,,,,,,,,,,,,,,,,,,,,,,,,,,,766.5689914003015,None,,,,,,,,,,,,,,,,,,,,,,,,,,,,,,,,,,,sky,98,6,aloud,white,764.5669270996004,None,None,764.5669270996004,None,,,,,,,,,,,,,,,,,,,,,,,,,,,,,,66,001,2023_May_01_1250,ExactRep-v3-final,2021.2.3,59.97825204139874,
,,,,,,,,6,0,6,0,,,,,,,,,,,,,,,,,,,,,,,,,,,,,,,,,,,,,,,,,,,,,,,,,,,,,769.0714918999001,None,,,,,,,,,,,,,,,,,,,,,,,,,,,,,,,,,,,form,35,7,sing,red,767.0700976001099,None,None,767.0700976001099,None,,,,,,,,,,,,,,,,,,,,,,,,,,,,,,66,001,2023_May_01_1250,ExactRep-v3-final,2021.2.3,59.97825204139874,
,,,,,,,,7,0,7,0,,,,,,,,,,,,,,,,,,,,,,,,,,,,,,,,,,,,,,,,,,,,,,,,,,,,,771.5741368001327,None,,,,,,,,,,,,,,,,,,,,,,,,,,,,,,,,,,,dress,80,8,aloud,white,769.5735517004505,None,None,769.5735517004505,None,,,,,,,,,,,,,,,,,,,,,,,,,,,,,,66,001,2023_May_01_1250,ExactRep-v3-final,2021.2.3,59.97825204139874,
,,,,,,,,8,0,8,0,,,,,,,,,,,,,,,,,,,,,,,,,,,,,,,,,,,,,,,,,,,,,,,,,,,,,774.0931061003357,None,,,,,,,,,,,,,,,,,,,,,,,,,,,,,,,,,,,memory,74,9,silent,blue,772.0799337001517,None,None,772.0799337001517,None,,,,,,,,,,,,,,,,,,,,,,,,,,,,,,66,001,2023_May_01_1250,ExactRep-v3-final,2021.2.3,59.97825204139874,
,,,,,,,,9,0,9,0,,,,,,,,,,,,,,,,,,,,,,,,,,,,,,,,,,,,,,,,,,,,,,,,,,,,,776.6124950004742,None,,,,,,,,,,,,,,,,,,,,,,,,,,,,,,,,,,,trouble,14,10,sing,red,774.6029479997233,None,None,774.6029479997233,None,,,,,,,,,,,,,,,,,,,,,,,,,,,,,,66,001,2023_May_01_1250,ExactRep-v3-final,2021.2.3,59.97825204139874,
,,,,,,,,10,0,10,0,,,,,,,,,,,,,,,,,,,,,,,,,,,,,,,,,,,,,,,,,,,,,,,,,,,,,779.1316203996539,None,,,,,,,,,,,,,,,,,,,,,,,,,,,,,,,,,,,power,41,11,silent,blue,777.1293591996655,None,None,777.1293591996655,None,,,,,,,,,,,,,,,,,,,,,,,,,,,,,,66,001,2023_May_01_1250,ExactRep-v3-final,2021.2.3,59.97825204139874,
,,,,,,,,11,0,11,0,,,,,,,,,,,,,,,,,,,,,,,,,,,,,,,,,,,,,,,,,,,,,,,,,,,,,781.6341471998021,None,,,,,,,,,,,,,,,,,,,,,,,,,,,,,,,,,,,pupil,88,12,aloud,white,779.6345274997875,None,None,779.6345274997875,None,,,,,,,,,,,,,,,,,,,,,,,,,,,,,,66,001,2023_May_01_1250,ExactRep-v3-final,2021.2.3,59.97825204139874,
,,,,,,,,12,0,12,0,,,,,,,,,,,,,,,,,,,,,,,,,,,,,,,,,,,,,,,,,,,,,,,,,,,,,784.1531499996781,None,,,,,,,,,,,,,,,,,,,,,,,,,,,,,,,,,,,army,51,13,silent,blue,782.1377515997738,None,None,782.1377515997738,None,,,,,,,,,,,,,,,,,,,,,,,,,,,,,,66,001,2023_May_01_1250,ExactRep-v3-final,2021.2.3,59.97825204139874,
,,,,,,,,13,0,13,0,,,,,,,,,,,,,,,,,,,,,,,,,,,,,,,,,,,,,,,,,,,,,,,,,,,,,786.6555642001331,None,,,,,,,,,,,,,,,,,,,,,,,,,,,,,,,,,,,hour,48,14,silent,blue,784.6549329999834,None,None,784.6549329999834,None,,,,,,,,,,,,,,,,,,,,,,,,,,,,,,66,001,2023_May_01_1250,ExactRep-v3-final,2021.2.3,59.97825204139874,
,,,,,,,,14,0,14,0,,,,,,,,,,,,,,,,,,,,,,,,,,,,,,,,,,,,,,,,,,,,,,,,,,,,,789.1749494001269,None,,,,,,,,,,,,,,,,,,,,,,,,,,,,,,,,,,,brain,16,15,sing,red,787.1639599995688,None,None,787.1639599995688,None,,,,,,,,,,,,,,,,,,,,,,,,,,,,,,66,001,2023_May_01_1250,ExactRep-v3-final,2021.2.3,59.97825204139874,
,,,,,,,,15,0,15,0,,,,,,,,,,,,,,,,,,,,,,,,,,,,,,,,,,,,,,,,,,,,,,,,,,,,,791.6775294998661,None,,,,,,,,,,,,,,,,,,,,,,,,,,,,,,,,,,,steam,54,16,silent,blue,789.6751985996962,None,None,789.6751985996962,None,,,,,,,,,,,,,,,,,,,,,,,,,,,,,,66,001,2023_May_01_1250,ExactRep-v3-final,2021.2.3,59.97825204139874,
,,,,,,,,16,0,16,0,,,,,,,,,,,,,,,,,,,,,,,,,,,,,,,,,,,,,,,,,,,,,,,,,,,,,794.1965210000053,None,,,,,,,,,,,,,,,,,,,,,,,,,,,,,,,,,,,fate,86,17,aloud,white,792.1833023000509,None,None,792.1833023000509,None,,,,,,,,,,,,,,,,,,,,,,,,,,,,,,66,001,2023_May_01_1250,ExactRep-v3-final,2021.2.3,59.97825204139874,
,,,,,,,,17,0,17,0,,,,,,,,,,,,,,,,,,,,,,,,,,,,,,,,,,,,,,,,,,,,,,,,,,,,,796.6989983003587,None,,,,,,,,,,,,,,,,,,,,,,,,,,,,,,,,,,,sea,12,18,sing,red,794.6971163004637,None,None,794.6971163004637,None,,,,,,,,,,,,,,,,,,,,,,,,,,,,,,66,001,2023_May_01_1250,ExactRep-v3-final,2021.2.3,59.97825204139874,
,,,,,,,,18,0,18,0,,,,,,,,,,,,,,,,,,,,,,,,,,,,,,,,,,,,,,,,,,,,,,,,,,,,,799.2183539997786,None,,,,,,,,,,,,,,,,,,,,,,,,,,,,,,,,,,,colony,8,19,sing,red,797.2027566004544,None,None,797.2027566004544,None,,,,,,,,,,,,,,,,,,,,,,,,,,,,,,66,001,2023_May_01_1250,ExactRep-v3-final,2021.2.3,59.97825204139874,
,,,,,,,,19,0,19,0,,,,,,,,,,,,,,,,,,,,,,,,,,,,,,,,,,,,,,,,,,,,,,,,,,,,,801.7209264999256,None,,,,,,,,,,,,,,,,,,,,,,,,,,,,,,,,,,,opinion,50,20,silent,blue,799.7213369999081,None,None,799.7213369999081,None,,,,,,,,,,,,,,,,,,,,,,,,,,,,,,66,001,2023_May_01_1250,ExactRep-v3-final,2021.2.3,59.97825204139874,
,,,,,,,,20,0,20,0,,,,,,,,,,,,,,,,,,,,,,,,,,,,,,,,,,,,,,,,,,,,,,,,,,,,,804.223180600442,None,,,,,,,,,,,,,,,,,,,,,,,,,,,,,,,,,,,blossom,93,21,aloud,white,802.2223592000082,None,None,802.2223592000082,None,,,,,,,,,,,,,,,,,,,,,,,,,,,,,,66,001,2023_May_01_1250,ExactRep-v3-final,2021.2.3,59.97825204139874,
,,,,,,,,21,0,21,0,,,,,,,,,,,,,,,,,,,,,,,,,,,,,,,,,,,,,,,,,,,,,,,,,,,,,806.7258318001404,None,,,,,,,,,,,,,,,,,,,,,,,,,,,,,,,,,,,theory,21,22,sing,red,804.7239549001679,None,None,804.7239549001679,None,,,,,,,,,,,,,,,,,,,,,,,,,,,,,,66,001,2023_May_01_1250,ExactRep-v3-final,2021.2.3,59.97825204139874,
,,,,,,,,22,0,22,0,,,,,,,,,,,,,,,,,,,,,,,,,,,,,,,,,,,,,,,,,,,,,,,,,,,,,809.2449871003628,None,,,,,,,,,,,,,,,,,,,,,,,,,,,,,,,,,,,water,49,23,silent,blue,807.2409220999107,None,None,807.2409220999107,None,,,,,,,,,,,,,,,,,,,,,,,,,,,,,,66,001,2023_May_01_1250,ExactRep-v3-final,2021.2.3,59.97825204139874,
,,,,,,,,23,0,23,0,,,,,,,,,,,,,,,,,,,,,,,,,,,,,,,,,,,,,,,,,,,,,,,,,,,,,811.7475854996592,None,,,,,,,,,,,,,,,,,,,,,,,,,,,,,,,,,,,sugar,3,24,sing,red,809.7465364001691,None,None,809.7465364001691,None,,,,,,,,,,,,,,,,,,,,,,,,,,,,,,66,001,2023_May_01_1250,ExactRep-v3-final,2021.2.3,59.97825204139874,
,,,,,,,,24,0,24,0,,,,,,,,,,,,,,,,,,,,,,,,,,,,,,,,,,,,,,,,,,,,,,,,,,,,,814.2498289998621,None,,,,,,,,,,,,,,,,,,,,,,,,,,,,,,,,,,,volume,10,25,sing,red,812.2478074003011,None,None,812.2478074003011,None,,,,,,,,,,,,,,,,,,,,,,,,,,,,,,66,001,2023_May_01_1250,ExactRep-v3-final,2021.2.3,59.97825204139874,
,,,,,,,,25,0,25,0,,,,,,,,,,,,,,,,,,,,,,,,,,,,,,,,,,,,,,,,,,,,,,,,,,,,,816.7692053001374,None,,,,,,,,,,,,,,,,,,,,,,,,,,,,,,,,,,,season,70,26,silent,blue,814.7603987995535,None,None,814.7603987995535,None,,,,,,,,,,,,,,,,,,,,,,,,,,,,,,66,001,2023_May_01_1250,ExactRep-v3-final,2021.2.3,59.97825204139874,
,,,,,,,,26,0,26,0,,,,,,,,,,,,,,,,,,,,,,,,,,,,,,,,,,,,,,,,,,,,,,,,,,,,,819.271675599739,None,,,,,,,,,,,,,,,,,,,,,,,,,,,,,,,,,,,maiden,82,27,aloud,white,817.269549800083,None,None,817.269549800083,None,,,,,,,,,,,,,,,,,,,,,,,,,,,,,,66,001,2023_May_01_1250,ExactRep-v3-final,2021.2.3,59.97825204139874,
,,,,,,,,27,0,27,0,,,,,,,,,,,,,,,,,,,,,,,,,,,,,,,,,,,,,,,,,,,,,,,,,,,,,821.7740086000413,None,,,,,,,,,,,,,,,,,,,,,,,,,,,,,,,,,,,flag,58,28,silent,blue,819.7736098999158,None,None,819.7736098999158,None,,,,,,,,,,,,,,,,,,,,,,,,,,,,,,66,001,2023_May_01_1250,ExactRep-v3-final,2021.2.3,59.97825204139874,
,,,,,,,,28,0,28,0,,,,,,,,,,,,,,,,,,,,,,,,,,,,,,,,,,,,,,,,,,,,,,,,,,,,,824.2766648996621,None,,,,,,,,,,,,,,,,,,,,,,,,,,,,,,,,,,,soil,64,29,silent,blue,822.2745815999806,None,None,822.2745815999806,None,,,,,,,,,,,,,,,,,,,,,,,,,,,,,,66,001,2023_May_01_1250,ExactRep-v3-final,2021.2.3,59.97825204139874,
,,,,,,,,29,0,29,0,,,,,,,,,,,,,,,,,,,,,,,,,,,,,,,,,,,,,,,,,,,,,,,,,,,,,826.7959244996309,None,,,,,,,,,,,,,,,,,,,,,,,,,,,,,,,,,,,picture,30,30,sing,red,824.7865965999663,None,None,824.7865965999663,None,,,,,,,,,,,,,,,,,,,,,,,,,,,,,,66,001,2023_May_01_1250,ExactRep-v3-final,2021.2.3,59.97825204139874,
,,,,,,,,30,0,30,0,,,,,,,,,,,,,,,,,,,,,,,,,,,,,,,,,,,,,,,,,,,,,,,,,,,,,829.2984597003087,None,,,,,,,,,,,,,,,,,,,,,,,,,,,,,,,,,,,meadow,60,31,silent,blue,827.2987133003771,None,None,827.2987133003771,None,,,,,,,,,,,,,,,,,,,,,,,,,,,,,,66,001,2023_May_01_1250,ExactRep-v3-final,2021.2.3,59.97825204139874,
,,,,,,,,31,0,31,0,,,,,,,,,,,,,,,,,,,,,,,,,,,,,,,,,,,,,,,,,,,,,,,,,,,,,831.8173949001357,None,,,,,,,,,,,,,,,,,,,,,,,,,,,,,,,,,,,virtue,79,32,sing,red,829.8069489998743,None,None,829.8069489998743,None,,,,,,,,,,,,,,,,,,,,,,,,,,,,,,66,001,2023_May_01_1250,ExactRep-v3-final,2021.2.3,59.97825204139874,
,,,,,,,,32,0,32,0,,,,,,,,,,,,,,,,,,,,,,,,,,,,,,,,,,,,,,,,,,,,,,,,,,,,,834.3201232999563,None,,,,,,,,,,,,,,,,,,,,,,,,,,,,,,,,,,,village,85,33,aloud,white,832.3180723004043,None,None,832.3180723004043,None,,,,,,,,,,,,,,,,,,,,,,,,,,,,,,66,001,2023_May_01_1250,ExactRep-v3-final,2021.2.3,59.97825204139874,
,,,,,,,,33,0,33,0,,,,,,,,,,,,,,,,,,,,,,,,,,,,,,,,,,,,,,,,,,,,,,,,,,,,,836.8224246995524,None,,,,,,,,,,,,,,,,,,,,,,,,,,,,,,,,,,,duty,43,34,silent,blue,834.822699399665,None,None,834.822699399665,None,,,,,,,,,,,,,,,,,,,,,,,,,,,,,,66,001,2023_May_01_1250,ExactRep-v3-final,2021.2.3,59.97825204139874,
,,,,,,,,34,0,34,0,,,,,,,,,,,,,,,,,,,,,,,,,,,,,,,,,,,,,,,,,,,,,,,,,,,,,839.3250618996099,None,,,,,,,,,,,,,,,,,,,,,,,,,,,,,,,,,,,coast,4,35,sing,red,837.324782599695,None,None,837.324782599695,None,,,,,,,,,,,,,,,,,,,,,,,,,,,,,,66,001,2023_May_01_1250,ExactRep-v3-final,2021.2.3,59.97825204139874,
,,,,,,,,35,0,35,0,,,,,,,,,,,,,,,,,,,,,,,,,,,,,,,,,,,,,,,,,,,,,,,,,,,,,841.8440842004493,None,,,,,,,,,,,,,,,,,,,,,,,,,,,,,,,,,,,factory,63,36,silent,blue,839.8313295999542,None,None,839.8313295999542,None,,,,,,,,,,,,,,,,,,,,,,,,,,,,,,66,001,2023_May_01_1250,ExactRep-v3-final,2021.2.3,59.97825204139874,
,,,,,,,,36,0,36,0,,,,,,,,,,,,,,,,,,,,,,,,,,,,,,,,,,,,,,,,,,,,,,,,,,,,,844.3468297999352,None,,,,,,,,,,,,,,,,,,,,,,,,,,,,,,,,,,,market,99,37,aloud,white,842.3446190003306,None,None,842.3446190003306,None,,,,,,,,,,,,,,,,,,,,,,,,,,,,,,66,001,2023_May_01_1250,ExactRep-v3-final,2021.2.3,59.97825204139874,
,,,,,,,,37,0,37,0,,,,,,,,,,,,,,,,,,,,,,,,,,,,,,,,,,,,,,,,,,,,,,,,,,,,,846.8492213999853,None,,,,,,,,,,,,,,,,,,,,,,,,,,,,,,,,,,,hope,31,38,sing,red,844.8500704001635,None,None,844.8500704001635,None,,,,,,,,,,,,,,,,,,,,,,,,,,,,,,66,001,2023_May_01_1250,ExactRep-v3-final,2021.2.3,59.97825204139874,
,,,,,,,,38,0,38,0,,,,,,,,,,,,,,,,,,,,,,,,,,,,,,,,,,,,,,,,,,,,,,,,,,,,,849.3518120003864,None,,,,,,,,,,,,,,,,,,,,,,,,,,,,,,,,,,,speech,115,39,aloud,white,847.3494763998315,None,None,847.3494763998315,None,,,,,,,,,,,,,,,,,,,,,,,,,,,,,,66,001,2023_May_01_1250,ExactRep-v3-final,2021.2.3,59.97825204139874,
,,,,,,,,39,0,39,0,,,,,,,,,,,,,,,,,,,,,,,,,,,,,,,,,,,,,,,,,,,,,,,,,,,,,851.8567257998511,None,,,,,,,,,,,,,,,,,,,,,,,,,,,,,,,,,,,potato,111,40,aloud,white,849.8552922997624,None,None,849.8552922997624,None,,,,,,,,,,,,,,,,,,,,,,,,,,,,,,66,001,2023_May_01_1250,ExactRep-v3-final,2021.2.3,59.97825204139874,
,,,,,,,,40,0,40,0,,,,,,,,,,,,,,,,,,,,,,,,,,,,,,,,,,,,,,,,,,,,,,,,,,,,,854.3732620999217,None,,,,,,,,,,,,,,,,,,,,,,,,,,,,,,,,,,,chance,37,41,sing,red,852.372555100359,None,None,852.372555100359,None,,,,,,,,,,,,,,,,,,,,,,,,,,,,,,66,001,2023_May_01_1250,ExactRep-v3-final,2021.2.3,59.97825204139874,
,,,,,,,,41,0,41,0,,,,,,,,,,,,,,,,,,,,,,,,,,,,,,,,,,,,,,,,,,,,,,,,,,,,,856.8926943000406,None,,,,,,,,,,,,,,,,,,,,,,,,,,,,,,,,,,,wine,55,42,silent,blue,854.8774952003732,None,None,854.8774952003732,None,,,,,,,,,,,,,,,,,,,,,,,,,,,,,,66,001,2023_May_01_1250,ExactRep-v3-final,2021.2.3,59.97825204139874,
,,,,,,,,42,0,42,0,,,,,,,,,,,,,,,,,,,,,,,,,,,,,,,,,,,,,,,,,,,,,,,,,,,,,859.395017599687,None,,,,,,,,,,,,,,,,,,,,,,,,,,,,,,,,,,,friend,100,43,aloud,white,857.3943734997883,None,None,857.3943734997883,None,,,,,,,,,,,,,,,,,,,,,,,,,,,,,,66,001,2023_May_01_1250,ExactRep-v3-final,2021.2.3,59.97825204139874,
,,,,,,,,43,0,43,0,,,,,,,,,,,,,,,,,,,,,,,,,,,,,,,,,,,,,,,,,,,,,,,,,,,,,861.9143423996866,None,,,,,,,,,,,,,,,,,,,,,,,,,,,,,,,,,,,effort,15,44,sing,red,859.9043514002115,None,None,859.9043514002115,None,,,,,,,,,,,,,,,,,,,,,,,,,,,,,,66,001,2023_May_01_1250,ExactRep-v3-final,2021.2.3,59.97825204139874,
,,,,,,,,44,0,44,0,,,,,,,,,,,,,,,,,,,,,,,,,,,,,,,,,,,,,,,,,,,,,,,,,,,,,864.4168207002804,None,,,,,,,,,,,,,,,,,,,,,,,,,,,,,,,,,,,coffee,112,45,aloud,white,862.4156007003039,None,None,862.4156007003039,None,,,,,,,,,,,,,,,,,,,,,,,,,,,,,,66,001,2023_May_01_1250,ExactRep-v3-final,2021.2.3,59.97825204139874,
,,,,,,,,45,0,45,0,,,,,,,,,,,,,,,,,,,,,,,,,,,,,,,,,,,,,,,,,,,,,,,,,,,,,866.9359729001299,None,,,,,,,,,,,,,,,,,,,,,,,,,,,,,,,,,,,apple,113,46,aloud,white,864.9241711003706,None,None,864.9241711003706,None,,,,,,,,,,,,,,,,,,,,,,,,,,,,,,66,001,2023_May_01_1250,ExactRep-v3-final,2021.2.3,59.97825204139874,
,,,,,,,,46,0,46,0,,,,,,,,,,,,,,,,,,,,,,,,,,,,,,,,,,,,,,,,,,,,,,,,,,,,,869.455253300257,None,,,,,,,,,,,,,,,,,,,,,,,,,,,,,,,,,,,dollar,73,47,silent,blue,867.4413064997643,None,None,867.4413064997643,None,,,,,,,,,,,,,,,,,,,,,,,,,,,,,,66,001,2023_May_01_1250,ExactRep-v3-final,2021.2.3,59.97825204139874,
,,,,,,,,47,0,47,0,,,,,,,,,,,,,,,,,,,,,,,,,,,,,,,,,,,,,,,,,,,,,,,,,,,,,871.9577825004235,None,,,,,,,,,,,,,,,,,,,,,,,,,,,,,,,,,,,disease,84,48,aloud,white,869.9556072996929,None,None,869.9556072996929,None,,,,,,,,,,,,,,,,,,,,,,,,,,,,,,66,001,2023_May_01_1250,ExactRep-v3-final,2021.2.3,59.97825204139874,
,,,,,,,,48,0,48,0,,,,,,,,,,,,,,,,,,,,,,,,,,,,,,,,,,,,,,,,,,,,,,,,,,,,,874.4602289004251,None,,,,,,,,,,,,,,,,,,,,,,,,,,,,,,,,,,,coin,65,49,silent,blue,872.4602976003662,None,None,872.4602976003662,None,,,,,,,,,,,,,,,,,,,,,,,,,,,,,,66,001,2023_May_01_1250,ExactRep-v3-final,2021.2.3,59.97825204139874,
,,,,,,,,49,0,49,0,,,,,,,,,,,,,,,,,,,,,,,,,,,,,,,,,,,,,,,,,,,,,,,,,,,,,876.9794092001393,None,,,,,,,,,,,,,,,,,,,,,,,,,,,,,,,,,,,idea,22,50,sing,red,874.9683868996799,None,None,874.9683868996799,None,,,,,,,,,,,,,,,,,,,,,,,,,,,,,,66,001,2023_May_01_1250,ExactRep-v3-final,2021.2.3,59.97825204139874,
,,,,,,,,50,0,50,0,,,,,,,,,,,,,,,,,,,,,,,,,,,,,,,,,,,,,,,,,,,,,,,,,,,,,879.4819430997595,None,,,,,,,,,,,,,,,,,,,,,,,,,,,,,,,,,,,animal,57,51,silent,blue,877.4795891996473,None,None,877.4795891996473,None,,,,,,,,,,,,,,,,,,,,,,,,,,,,,,66,001,2023_May_01_1250,ExactRep-v3-final,2021.2.3,59.97825204139874,
,,,,,,,,51,0,51,0,,,,,,,,,,,,,,,,,,,,,,,,,,,,,,,,,,,,,,,,,,,,,,,,,,,,,881.9844244001433,None,,,,,,,,,,,,,,,,,,,,,,,,,,,,,,,,,,,cost,107,52,aloud,white,879.982172800228,None,None,879.982172800228,None,,,,,,,,,,,,,,,,,,,,,,,,,,,,,,66,001,2023_May_01_1250,ExactRep-v3-final,2021.2.3,59.97825204139874,
,,,,,,,,52,0,52,0,,,,,,,,,,,,,,,,,,,,,,,,,,,,,,,,,,,,,,,,,,,,,,,,,,,,,884.5036311997101,None,,,,,,,,,,,,,,,,,,,,,,,,,,,,,,,,,,,shadow,47,53,silent,blue,882.4925439003855,None,None,882.4925439003855,None,,,,,,,,,,,,,,,,,,,,,,,,,,,,,,66,001,2023_May_01_1250,ExactRep-v3-final,2021.2.3,59.97825204139874,
,,,,,,,,53,0,53,0,,,,,,,,,,,,,,,,,,,,,,,,,,,,,,,,,,,,,,,,,,,,,,,,,,,,,887.022776699625,None,,,,,,,,,,,,,,,,,,,,,,,,,,,,,,,,,,,butter,40,54,silent,blue,885.0101936003193,None,None,885.0101936003193,None,,,,,,,,,,,,,,,,,,,,,,,,,,,,,,66,001,2023_May_01_1250,ExactRep-v3-final,2021.2.3,59.97825204139874,
,,,,,,,,54,0,54,0,,,,,,,,,,,,,,,,,,,,,,,,,,,,,,,,,,,,,,,,,,,,,,,,,,,,,889.5253462996334,None,,,,,,,,,,,,,,,,,,,,,,,,,,,,,,,,,,,safety,116,55,aloud,white,887.5241619003937,None,None,887.5241619003937,None,,,,,,,,,,,,,,,,,,,,,,,,,,,,,,66,001,2023_May_01_1250,ExactRep-v3-final,2021.2.3,59.97825204139874,
,,,,,,,,55,0,55,0,,,,,,,,,,,,,,,,,,,,,,,,,,,,,,,,,,,,,,,,,,,,,,,,,,,,,892.0445732995868,None,,,,,,,,,,,,,,,,,,,,,,,,,,,,,,,,,,,dream,66,56,silent,blue,890.0354771995917,None,None,890.0354771995917,None,,,,,,,,,,,,,,,,,,,,,,,,,,,,,,66,001,2023_May_01_1250,ExactRep-v3-final,2021.2.3,59.97825204139874,
,,,,,,,,56,0,56,0,,,,,,,,,,,,,,,,,,,,,,,,,,,,,,,,,,,,,,,,,,,,,,,,,,,,,894.5635566003621,None,,,,,,,,,,,,,,,,,,,,,,,,,,,,,,,,,,,spirit,106,57,aloud,white,892.5486383996904,None,None,892.5486383996904,None,,,,,,,,,,,,,,,,,,,,,,,,,,,,,,66,001,2023_May_01_1250,ExactRep-v3-final,2021.2.3,59.97825204139874,
,,,,,,,,57,0,57,0,,,,,,,,,,,,,,,,,,,,,,,,,,,,,,,,,,,,,,,,,,,,,,,,,,,,,897.0828245002776,None,,,,,,,,,,,,,,,,,,,,,,,,,,,,,,,,,,,present,87,58,aloud,white,895.0707786995918,None,None,895.0707786995918,None,,,,,,,,,,,,,,,,,,,,,,,,,,,,,,66,001,2023_May_01_1250,ExactRep-v3-final,2021.2.3,59.97825204139874,
,,,,,,,,58,0,58,0,,,,,,,,,,,,,,,,,,,,,,,,,,,,,,,,,,,,,,,,,,,,,,,,,,,,,899.6020759996027,None,,,,,,,,,,,,,,,,,,,,,,,,,,,,,,,,,,,boy,62,59,silent,blue,897.5880132997409,None,None,897.5880132997409,None,,,,,,,,,,,,,,,,,,,,,,,,,,,,,,66,001,2023_May_01_1250,ExactRep-v3-final,2021.2.3,59.97825204139874,
,,,,,,,,59,0,59,0,,,,,,,,,,,,,,,,,,,,,,,,,,,,,,,,,,,,,,,,,,,,,,,,,,,,,902.1212114002556,None,,,,,,,,,,,,,,,,,,,,,,,,,,,,,,,,,,,humour,97,60,aloud,white,900.1090377997607,None,None,900.1090377997607,None,,,,,,,,,,,,,,,,,,,,,,,,,,,,,,66,001,2023_May_01_1250,ExactRep-v3-final,2021.2.3,59.97825204139874,
,,,,,,,,60,0,60,0,,,,,,,,,,,,,,,,,,,,,,,,,,,,,,,,,,,,,,,,,,,,,,,,,,,,,904.6237292997539,None,,,,,,,,,,,,,,,,,,,,,,,,,,,,,,,,,,,pole,110,61,aloud,white,902.6217071004212,None,None,902.6217071004212,None,,,,,,,,,,,,,,,,,,,,,,,,,,,,,,66,001,2023_May_01_1250,ExactRep-v3-final,2021.2.3,59.97825204139874,
,,,,,,,,61,0,61,0,,,,,,,,,,,,,,,,,,,,,,,,,,,,,,,,,,,,,,,,,,,,,,,,,,,,,907.126220700331,None,,,,,,,,,,,,,,,,,,,,,,,,,,,,,,,,,,,engine,2,62,sing,red,905.1243049995974,None,None,905.1243049995974,None,,,,,,,,,,,,,,,,,,,,,,,,,,,,,,66,001,2023_May_01_1250,ExactRep-v3-final,2021.2.3,59.97825204139874,
,,,,,,,,62,0,62,0,,,,,,,,,,,,,,,,,,,,,,,,,,,,,,,,,,,,,,,,,,,,,,,,,,,,,909.6287556001917,None,,,,,,,,,,,,,,,,,,,,,,,,,,,,,,,,,,,shock,68,63,silent,blue,907.626675600186,None,None,907.626675600186,None,,,,,,,,,,,,,,,,,,,,,,,,,,,,,,66,001,2023_May_01_1250,ExactRep-v3-final,2021.2.3,59.97825204139874,
,,,,,,,,63,0,63,0,,,,,,,,,,,,,,,,,,,,,,,,,,,,,,,,,,,,,,,,,,,,,,,,,,,,,912.1478073997423,None,,,,,,,,,,,,,,,,,,,,,,,,,,,,,,,,,,,board,19,64,sing,red,910.1326457997784,None,None,910.1326457997784,None,,,,,,,,,,,,,,,,,,,,,,,,,,,,,,66,001,2023_May_01_1250,ExactRep-v3-final,2021.2.3,59.97825204139874,
,,,,,,,,64,0,64,0,,,,,,,,,,,,,,,,,,,,,,,,,,,,,,,,,,,,,,,,,,,,,,,,,,,,,914.6504145003855,None,,,,,,,,,,,,,,,,,,,,,,,,,,,,,,,,,,,shoes,28,65,sing,red,912.6484126001596,None,None,912.6484126001596,None,,,,,,,,,,,,,,,,,,,,,,,,,,,,,,66,001,2023_May_01_1250,ExactRep-v3-final,2021.2.3,59.97825204139874,
,,,,,,,,65,0,65,0,,,,,,,,,,,,,,,,,,,,,,,,,,,,,,,,,,,,,,,,,,,,,,,,,,,,,917.1528725000098,None,,,,,,,,,,,,,,,,,,,,,,,,,,,,,,,,,,,plain,25,66,sing,red,915.1536587001756,None,None,915.1536587001756,None,,,,,,,,,,,,,,,,,,,,,,,,,,,,,,66,001,2023_May_01_1250,ExactRep-v3-final,2021.2.3,59.97825204139874,
,,,,,,,,66,0,66,0,,,,,,,,,,,,,,,,,,,,,,,,,,,,,,,,,,,,,,,,,,,,,,,,,,,,,919.6720845997334,None,,,,,,,,,,,,,,,,,,,,,,,,,,,,,,,,,,,woman,38,67,sing,red,917.6567919999361,None,None,917.6567919999361,None,,,,,,,,,,,,,,,,,,,,,,,,,,,,,,66,001,2023_May_01_1250,ExactRep-v3-final,2021.2.3,59.97825204139874,
,,,,,,,,67,0,67,0,,,,,,,,,,,,,,,,,,,,,,,,,,,,,,,,,,,,,,,,,,,,,,,,,,,,,922.1913034999743,None,,,,,,,,,,,,,,,,,,,,,,,,,,,,,,,,,,,cottage,53,68,silent,blue,920.1788507001474,None,None,920.1788507001474,None,,,,,,,,,,,,,,,,,,,,,,,,,,,,,,66,001,2023_May_01_1250,ExactRep-v3-final,2021.2.3,59.97825204139874,
,,,,,,,,68,0,68,0,,,,,,,,,,,,,,,,,,,,,,,,,,,,,,,,,,,,,,,,,,,,,,,,,,,,,924.693829299882,None,,,,,,,,,,,,,,,,,,,,,,,,,,,,,,,,,,,car,108,69,aloud,white,922.6916441004723,None,None,922.6916441004723,None,,,,,,,,,,,,,,,,,,,,,,,,,,,,,,66,001,2023_May_01_1250,ExactRep-v3-final,2021.2.3,59.97825204139874,
,,,,,,,,69,0,69,0,,,,,,,,,,,,,,,,,,,,,,,,,,,,,,,,,,,,,,,,,,,,,,,,,,,,,927.1963183004409,None,,,,,,,,,,,,,,,,,,,,,,,,,,,,,,,,,,,devil,101,70,aloud,white,925.1972797997296,None,None,925.1972797997296,None,,,,,,,,,,,,,,,,,,,,,,,,,,,,,,66,001,2023_May_01_1250,ExactRep-v3-final,2021.2.3,59.97825204139874,
,,,,,,,,70,0,70,0,,,,,,,,,,,,,,,,,,,,,,,,,,,,,,,,,,,,,,,,,,,,,,,,,,,,,929.6988067999482,None,,,,,,,,,,,,,,,,,,,,,,,,,,,,,,,,,,,avenue,105,71,aloud,white,927.6987075004727,None,None,927.6987075004727,None,,,,,,,,,,,,,,,,,,,,,,,,,,,,,,66,001,2023_May_01_1250,ExactRep-v3-final,2021.2.3,59.97825204139874,
,,,,,,,,71,0,71,0,,,,,,,,,,,,,,,,,,,,,,,,,,,,,,,,,,,,,,,,,,,,,,,,,,,,,932.2179656997323,None,,,,,,,,,,,,,,,,,,,,,,,,,,,,,,,,,,,judge,92,72,aloud,white,930.2136784996837,None,None,930.2136784996837,None,,,,,,,,,,,,,,,,,,,,,,,,,,,,,,66,001,2023_May_01_1250,ExactRep-v3-final,2021.2.3,59.97825204139874,
,,,,,,,,72,0,72,0,,,,,,,,,,,,,,,,,,,,,,,,,,,,,,,,,,,,,,,,,,,,,,,,,,,,,934.7202853998169,None,,,,,,,,,,,,,,,,,,,,,,,,,,,,,,,,,,,silence,89,73,aloud,white,932.7184822997078,None,None,932.7184822997078,None,,,,,,,,,,,,,,,,,,,,,,,,,,,,,,66,001,2023_May_01_1250,ExactRep-v3-final,2021.2.3,59.97825204139874,
,,,,,,,,73,0,73,0,,,,,,,,,,,,,,,,,,,,,,,,,,,,,,,,,,,,,,,,,,,,,,,,,,,,,937.2229001000524,None,,,,,,,,,,,,,,,,,,,,,,,,,,,,,,,,,,,letter,11,74,sing,red,935.221209499985,None,None,935.221209499985,None,,,,,,,,,,,,,,,,,,,,,,,,,,,,,,66,001,2023_May_01_1250,ExactRep-v3-final,2021.2.3,59.97825204139874,
,,,,,,,,74,0,74,0,,,,,,,,,,,,,,,,,,,,,,,,,,,,,,,,,,,,,,,,,,,,,,,,,,,,,939.7254659002647,None,,,,,,,,,,,,,,,,,,,,,,,,,,,,,,,,,,,river,117,75,aloud,white,937.7237181998789,None,None,937.7237181998789,None,,,,,,,,,,,,,,,,,,,,,,,,,,,,,,66,001,2023_May_01_1250,ExactRep-v3-final,2021.2.3,59.97825204139874,
,,,,,,,,75,0,75,0,,,,,,,,,,,,,,,,,,,,,,,,,,,,,,,,,,,,,,,,,,,,,,,,,,,,,942.244689299725,None,,,,,,,,,,,,,,,,,,,,,,,,,,,,,,,,,,,corner,26,76,sing,red,940.2292798003182,None,None,940.2292798003182,None,,,,,,,,,,,,,,,,,,,,,,,,,,,,,,66,001,2023_May_01_1250,ExactRep-v3-final,2021.2.3,59.97825204139874,
,,,,,,,,76,0,76,0,,,,,,,,,,,,,,,,,,,,,,,,,,,,,,,,,,,,,,,,,,,,,,,,,,,,,944.7472521997988,None,,,,,,,,,,,,,,,,,,,,,,,,,,,,,,,,,,,cash,1,77,sing,red,942.7471129000187,None,None,942.7471129000187,None,,,,,,,,,,,,,,,,,,,,,,,,,,,,,,66,001,2023_May_01_1250,ExactRep-v3-final,2021.2.3,59.97825204139874,
,,,,,,,,77,0,77,0,,,,,,,,,,,,,,,,,,,,,,,,,,,,,,,,,,,,,,,,,,,,,,,,,,,,,947.2496122997254,None,,,,,,,,,,,,,,,,,,,,,,,,,,,,,,,,,,,gift,61,78,silent,blue,945.2476447997615,None,None,945.2476447997615,None,,,,,,,,,,,,,,,,,,,,,,,,,,,,,,66,001,2023_May_01_1250,ExactRep-v3-final,2021.2.3,59.97825204139874,
,,,,,,,,78,0,78,0,,,,,,,,,,,,,,,,,,,,,,,,,,,,,,,,,,,,,,,,,,,,,,,,,,,,,949.7521523004398,None,,,,,,,,,,,,,,,,,,,,,,,,,,,,,,,,,,,cattle,71,79,silent,blue,947.7504569003358,None,None,947.7504569003358,None,,,,,,,,,,,,,,,,,,,,,,,,,,,,,,66,001,2023_May_01_1250,ExactRep-v3-final,2021.2.3,59.97825204139874,
,,,,,,,,79,0,79,0,,,,,,,,,,,,,,,,,,,,,,,,,,,,,,,,,,,,,,,,,,,,,,,,,,,,,952.2547407997772,None,,,,,,,,,,,,,,,,,,,,,,,,,,,,,,,,,,,forest,114,80,aloud,white,950.253038899973,None,None,950.253038899973,None,,,,,,,,,,,,,,,,,,,,,,,,,,,,,,66,001,2023_May_01_1250,ExactRep-v3-final,2021.2.3,59.97825204139874,
,,,,,,,,80,0,80,0,,,,,,,,,,,,,,,,,,,,,,,,,,,,,,,,,,,,,,,,,,,,,,,,,,,,,954.7738682003692,None,,,,,,,,,,,,,,,,,,,,,,,,,,,,,,,,,,,winter,27,81,sing,red,952.7645375998691,None,None,952.7645375998691,None,,,,,,,,,,,,,,,,,,,,,,,,,,,,,,66,001,2023_May_01_1250,ExactRep-v3-final,2021.2.3,59.97825204139874,
,,,,,,,,81,0,81,0,,,,,,,,,,,,,,,,,,,,,,,,,,,,,,,,,,,,,,,,,,,,,,,,,,,,,957.2930575003847,None,,,,,,,,,,,,,,,,,,,,,,,,,,,,,,,,,,,clock,69,82,silent,blue,955.280588099733,None,None,955.280588099733,None,,,,,,,,,,,,,,,,,,,,,,,,,,,,,,66,001,2023_May_01_1250,ExactRep-v3-final,2021.2.3,59.97825204139874,
,,,,,,,,82,0,82,0,,,,,,,,,,,,,,,,,,,,,,,,,,,,,,,,,,,,,,,,,,,,,,,,,,,,,959.7954083997756,None,,,,,,,,,,,,,,,,,,,,,,,,,,,,,,,,,,,corn,45,83,silent,blue,957.7964367996901,None,None,957.7964367996901,None,,,,,,,,,,,,,,,,,,,,,,,,,,,,,,66,001,2023_May_01_1250,ExactRep-v3-final,2021.2.3,59.97825204139874,
,,,,,,,,83,0,83,0,,,,,,,,,,,,,,,,,,,,,,,,,,,,,,,,,,,,,,,,,,,,,,,,,,,,,962.3147360999137,None,,,,,,,,,,,,,,,,,,,,,,,,,,,,,,,,,,,fun,0,84,sing,red,960.3037547999993,None,None,960.3037547999993,None,,,,,,,,,,,,,,,,,,,,,,,,,,,,,,66,001,2023_May_01_1250,ExactRep-v3-final,2021.2.3,59.97825204139874,
,,,,,,,,84,0,84,0,,,,,,,,,,,,,,,,,,,,,,,,,,,,,,,,,,,,,,,,,,,,,,,,,,,,,964.8172116000205,None,,,,,,,,,,,,,,,,,,,,,,,,,,,,,,,,,,,soul,119,85,aloud,white,962.8152347998694,None,None,962.8152347998694,None,,,,,,,,,,,,,,,,,,,,,,,,,,,,,,66,001,2023_May_01_1250,ExactRep-v3-final,2021.2.3,59.97825204139874,
,,,,,,,,85,0,85,0,,,,,,,,,,,,,,,,,,,,,,,,,,,,,,,,,,,,,,,,,,,,,,,,,,,,,967.3369995998219,None,,,,,,,,,,,,,,,,,,,,,,,,,,,,,,,,,,,shore,33,86,sing,red,965.3262708000839,None,None,965.3262708000839,None,,,,,,,,,,,,,,,,,,,,,,,,,,,,,,66,001,2023_May_01_1250,ExactRep-v3-final,2021.2.3,59.97825204139874,
,,,,,,,,86,0,86,0,,,,,,,,,,,,,,,,,,,,,,,,,,,,,,,,,,,,,,,,,,,,,,,,,,,,,969.8389515001327,None,,,,,,,,,,,,,,,,,,,,,,,,,,,,,,,,,,,temple,72,87,silent,blue,967.8377699004486,None,None,967.8377699004486,None,,,,,,,,,,,,,,,,,,,,,,,,,,,,,,66,001,2023_May_01_1250,ExactRep-v3-final,2021.2.3,59.97825204139874,
,,,,,,,,87,0,87,0,,,,,,,,,,,,,,,,,,,,,,,,,,,,,,,,,,,,,,,,,,,,,,,,,,,,,972.358161999844,None,,,,,,,,,,,,,,,,,,,,,,,,,,,,,,,,,,,advice,23,88,sing,red,970.342854199931,None,None,970.342854199931,None,,,,,,,,,,,,,,,,,,,,,,,,,,,,,,66,001,2023_May_01_1250,ExactRep-v3-final,2021.2.3,59.97825204139874,
,,,,,,,,88,0,88,0,,,,,,,,,,,,,,,,,,,,,,,,,,,,,,,,,,,,,,,,,,,,,,,,,,,,,974.8605043003336,None,,,,,,,,,,,,,,,,,,,,,,,,,,,,,,,,,,,author,118,89,aloud,white,972.8586299996823,None,None,972.8586299996823,None,,,,,,,,,,,,,,,,,,,,,,,,,,,,,,66,001,2023_May_01_1250,ExactRep-v3-final,2021.2.3,59.97825204139874,
,,,,,,,,89,0,89,0,,,,,,,,,,,,,,,,,,,,,,,,,,,,,,,,,,,,,,,,,,,,,,,,,,,,,977.3631130000576,None,,,,,,,,,,,,,,,,,,,,,,,,,,,,,,,,,,,party,7,90,sing,red,975.3641285998747,None,None,975.3641285998747,None,,,,,,,,,,,,,,,,,,,,,,,,,,,,,,66,001,2023_May_01_1250,ExactRep-v3-final,2021.2.3,59.97825204139874,
,,,,,,,,90,0,90,0,,,,,,,,,,,,,,,,,,,,,,,,,,,,,,,,,,,,,,,,,,,,,,,,,,,,,979.8821678003296,None,,,,,,,,,,,,,,,,,,,,,,,,,,,,,,,,,,,fault,77,91,silent,blue,977.8733010999858,None,None,977.8733010999858,None,,,,,,,,,,,,,,,,,,,,,,,,,,,,,,66,001,2023_May_01_1250,ExactRep-v3-final,2021.2.3,59.97825204139874,
,,,,,,,,91,0,91,0,,,,,,,,,,,,,,,,,,,,,,,,,,,,,,,,,,,,,,,,,,,,,,,,,,,,,982.3846533996984,None,,,,,,,,,,,,,,,,,,,,,,,,,,,,,,,,,,,earth,91,92,aloud,white,980.3827836001292,None,None,980.3827836001292,None,,,,,,,,,,,,,,,,,,,,,,,,,,,,,,66,001,2023_May_01_1250,ExactRep-v3-final,2021.2.3,59.97825204139874,
,,,,,,,,92,0,92,0,,,,,,,,,,,,,,,,,,,,,,,,,,,,,,,,,,,,,,,,,,,,,,,,,,,,,984.8871355000883,None,,,,,,,,,,,,,,,,,,,,,,,,,,,,,,,,,,,law,39,93,silent,blue,982.8857862995937,None,None,982.8857862995937,None,,,,,,,,,,,,,,,,,,,,,,,,,,,,,,66,001,2023_May_01_1250,ExactRep-v3-final,2021.2.3,59.97825204139874,
,,,,,,,,93,0,93,0,,,,,,,,,,,,,,,,,,,,,,,,,,,,,,,,,,,,,,,,,,,,,,,,,,,,,987.3897965997458,None,,,,,,,,,,,,,,,,,,,,,,,,,,,,,,,,,,,palace,32,94,sing,red,985.3876411002129,None,None,985.3876411002129,None,,,,,,,,,,,,,,,,,,,,,,,,,,,,,,66,001,2023_May_01_1250,ExactRep-v3-final,2021.2.3,59.97825204139874,
,,,,,,,,94,0,94,0,,,,,,,,,,,,,,,,,,,,,,,,,,,,,,,,,,,,,,,,,,,,,,,,,,,,,989.9088752996176,None,,,,,,,,,,,,,,,,,,,,,,,,,,,,,,,,,,,journal,17,95,sing,red,987.9022666001692,None,None,987.9022666001692,None,,,,,,,,,,,,,,,,,,,,,,,,,,,,,,66,001,2023_May_01_1250,ExactRep-v3-final,2021.2.3,59.97825204139874,
,,,,,,,,95,0,95,0,,,,,,,,,,,,,,,,,,,,,,,,,,,,,,,,,,,,,,,,,,,,,,,,,,,,,992.4281984996051,None,,,,,,,,,,,,,,,,,,,,,,,,,,,,,,,,,,,wheat,44,96,silent,blue,990.4208808997646,None,None,990.4208808997646,None,,,,,,,,,,,,,,,,,,,,,,,,,,,,,,66,001,2023_May_01_1250,ExactRep-v3-final,2021.2.3,59.97825204139874,
,,,,,,,,96,0,96,0,,,,,,,,,,,,,,,,,,,,,,,,,,,,,,,,,,,,,,,,,,,,,,,,,,,,,994.9307484999299,None,,,,,,,,,,,,,,,,,,,,,,,,,,,,,,,,,,,machine,83,97,aloud,white,992.9305299995467,None,None,992.9305299995467,None,,,,,,,,,,,,,,,,,,,,,,,,,,,,,,66,001,2023_May_01_1250,ExactRep-v3-final,2021.2.3,59.97825204139874,
,,,,,,,,97,0,97,0,,,,,,,,,,,,,,,,,,,,,,,,,,,,,,,,,,,,,,,,,,,,,,,,,,,,,997.4497801000252,None,,,,,,,,,,,,,,,,,,,,,,,,,,,,,,,,,,,bowl,13,98,sing,red,995.4371403995901,None,None,995.4371403995901,None,,,,,,,,,,,,,,,,,,,,,,,,,,,,,,66,001,2023_May_01_1250,ExactRep-v3-final,2021.2.3,59.97825204139874,
,,,,,,,,98,0,98,0,,,,,,,,,,,,,,,,,,,,,,,,,,,,,,,,,,,,,,,,,,,,,,,,,,,,,999.9521617004648,None,,,,,,,,,,,,,,,,,,,,,,,,,,,,,,,,,,,anger,104,99,aloud,white,997.9515482001007,None,None,997.9515482001007,None,,,,,,,,,,,,,,,,,,,,,,,,,,,,,,66,001,2023_May_01_1250,ExactRep-v3-final,2021.2.3,59.97825204139874,
,,,,,,,,99,0,99,0,,,,,,,,,,,,,,,,,,,,,,,,,,,,,,,,,,,,,,,,,,,,,,,,,,,,,1002.471582500264,None,,,,,,,,,,,,,,,,,,,,,,,,,,,,,,,,,,,door,34,100,sing,red,1000.4606625000015,None,None,1000.4606625000015,None,,,,,,,,,,,,,,,,,,,,,,,,,,,,,,66,001,2023_May_01_1250,ExactRep-v3-final,2021.2.3,59.97825204139874,
,,,,,,,,100,0,100,0,,,,,,,,,,,,,,,,,,,,,,,,,,,,,,,,,,,,,,,,,,,,,,,,,,,,,1004.9741797996685,None,,,,,,,,,,,,,,,,,,,,,,,,,,,,,,,,,,,deed,75,101,silent,blue,1002.9719251999632,None,None,1002.9719251999632,None,,,,,,,,,,,,,,,,,,,,,,,,,,,,,,66,001,2023_May_01_1250,ExactRep-v3-final,2021.2.3,59.97825204139874,
,,,,,,,,101,0,101,0,,,,,,,,,,,,,,,,,,,,,,,,,,,,,,,,,,,,,,,,,,,,,,,,,,,,,1007.4780069999397,None,,,,,,,,,,,,,,,,,,,,,,,,,,,,,,,,,,,teacher,103,102,aloud,white,1005.4771741004661,None,None,1005.4771741004661,None,,,,,,,,,,,,,,,,,,,,,,,,,,,,,,66,001,2023_May_01_1250,ExactRep-v3-final,2021.2.3,59.97825204139874,
,,,,,,,,102,0,102,0,,,,,,,,,,,,,,,,,,,,,,,,,,,,,,,,,,,,,,,,,,,,,,,,,,,,,1009.9956206995994,None,,,,,,,,,,,,,,,,,,,,,,,,,,,,,,,,,,,breast,29,103,sing,red,1007.9863734999672,None,None,1007.9863734999672,None,,,,,,,,,,,,,,,,,,,,,,,,,,,,,,66,001,2023_May_01_1250,ExactRep-v3-final,2021.2.3,59.97825204139874,
,,,,,,,,103,0,103,0,,,,,,,,,,,,,,,,,,,,,,,,,,,,,,,,,,,,,,,,,,,,,,,,,,,,,1012.4983270000666,None,,,,,,,,,,,,,,,,,,,,,,,,,,,,,,,,,,,health,96,104,aloud,white,1010.4962572995573,None,None,1010.4962572995573,None,,,,,,,,,,,,,,,,,,,,,,,,,,,,,,66,001,2023_May_01_1250,ExactRep-v3-final,2021.2.3,59.97825204139874,
,,,,,,,,104,0,104,0,,,,,,,,,,,,,,,,,,,,,,,,,,,,,,,,,,,,,,,,,,,,,,,,,,,,,1015.0007394999266,None,,,,,,,,,,,,,,,,,,,,,,,,,,,,,,,,,,,bird,81,105,aloud,white,1012.9987618997693,None,None,1012.9987618997693,None,,,,,,,,,,,,,,,,,,,,,,,,,,,,,,66,001,2023_May_01_1250,ExactRep-v3-final,2021.2.3,59.97825204139874,
,,,,,,,,105,0,105,0,,,,,,,,,,,,,,,,,,,,,,,,,,,,,,,,,,,,,,,,,,,,,,,,,,,,,1017.5199590995908,None,,,,,,,,,,,,,,,,,,,,,,,,,,,,,,,,,,,excuse,78,106,silent,blue,1015.5047840997577,None,None,1015.5047840997577,None,,,,,,,,,,,,,,,,,,,,,,,,,,,,,,66,001,2023_May_01_1250,ExactRep-v3-final,2021.2.3,59.97825204139874,
,,,,,,,,106,0,106,0,,,,,,,,,,,,,,,,,,,,,,,,,,,,,,,,,,,,,,,,,,,,,,,,,,,,,1020.0224596997723,None,,,,,,,,,,,,,,,,,,,,,,,,,,,,,,,,,,,vision,102,107,aloud,white,1018.0214724997059,None,None,1018.0214724997059,None,,,,,,,,,,,,,,,,,,,,,,,,,,,,,,66,001,2023_May_01_1250,ExactRep-v3-final,2021.2.3,59.97825204139874,
,,,,,,,,107,0,107,0,,,,,,,,,,,,,,,,,,,,,,,,,,,,,,,,,,,,,,,,,,,,,,,,,,,,,1022.5249568996951,None,,,,,,,,,,,,,,,,,,,,,,,,,,,,,,,,,,,cabin,67,108,silent,blue,1020.5256500998512,None,None,1020.5256500998512,None,,,,,,,,,,,,,,,,,,,,,,,,,,,,,,66,001,2023_May_01_1250,ExactRep-v3-final,2021.2.3,59.97825204139874,
,,,,,,,,108,0,108,0,,,,,,,,,,,,,,,,,,,,,,,,,,,,,,,,,,,,,,,,,,,,,,,,,,,,,1025.027454899624,None,,,,,,,,,,,,,,,,,,,,,,,,,,,,,,,,,,,girl,52,109,silent,blue,1023.0276349000633,None,None,1023.0276349000633,None,,,,,,,,,,,,,,,,,,,,,,,,,,,,,,66,001,2023_May_01_1250,ExactRep-v3-final,2021.2.3,59.97825204139874,
,,,,,,,,109,0,109,0,,,,,,,,,,,,,,,,,,,,,,,,,,,,,,,,,,,,,,,,,,,,,,,,,,,,,1027.5467430995777,None,,,,,,,,,,,,,,,,,,,,,,,,,,,,,,,,,,,arm,90,110,aloud,white,1025.5362462000921,None,None,1025.5362462000921,None,,,,,,,,,,,,,,,,,,,,,,,,,,,,,,66,001,2023_May_01_1250,ExactRep-v3-final,2021.2.3,59.97825204139874,
,,,,,,,,110,0,110,0,,,,,,,,,,,,,,,,,,,,,,,,,,,,,,,,,,,,,,,,,,,,,,,,,,,,,1030.0659590996802,None,,,,,,,,,,,,,,,,,,,,,,,,,,,,,,,,,,,truth,24,111,sing,red,1028.0539427995682,None,None,1028.0539427995682,None,,,,,,,,,,,,,,,,,,,,,,,,,,,,,,66,001,2023_May_01_1250,ExactRep-v3-final,2021.2.3,59.97825204139874,
,,,,,,,,111,0,111,0,,,,,,,,,,,,,,,,,,,,,,,,,,,,,,,,,,,,,,,,,,,,,,,,,,,,,1032.5681520998478,None,,,,,,,,,,,,,,,,,,,,,,,,,,,,,,,,,,,bar,42,112,silent,blue,1030.5663411002606,None,None,1030.5663411002606,None,,,,,,,,,,,,,,,,,,,,,,,,,,,,,,66,001,2023_May_01_1250,ExactRep-v3-final,2021.2.3,59.97825204139874,
,,,,,,,,112,0,112,0,,,,,,,,,,,,,,,,,,,,,,,,,,,,,,,,,,,,,,,,,,,,,,,,,,,,,1035.070864399895,None,,,,,,,,,,,,,,,,,,,,,,,,,,,,,,,,,,,prayer,95,113,aloud,white,1033.071589300409,None,None,1033.071589300409,None,,,,,,,,,,,,,,,,,,,,,,,,,,,,,,66,001,2023_May_01_1250,ExactRep-v3-final,2021.2.3,59.97825204139874,
,,,,,,,,113,0,113,0,,,,,,,,,,,,,,,,,,,,,,,,,,,,,,,,,,,,,,,,,,,,,,,,,,,,,1037.5733001995832,None,,,,,,,,,,,,,,,,,,,,,,,,,,,,,,,,,,,kiss,46,114,silent,blue,1035.573595000431,None,None,1035.573595000431,None,,,,,,,,,,,,,,,,,,,,,,,,,,,,,,66,001,2023_May_01_1250,ExactRep-v3-final,2021.2.3,59.97825204139874,
,,,,,,,,114,0,114,0,,,,,,,,,,,,,,,,,,,,,,,,,,,,,,,,,,,,,,,,,,,,,,,,,,,,,1040.0758531000465,None,,,,,,,,,,,,,,,,,,,,,,,,,,,,,,,,,,,cat,18,115,sing,red,1038.0736108003184,None,None,1038.0736108003184,None,,,,,,,,,,,,,,,,,,,,,,,,,,,,,,66,001,2023_May_01_1250,ExactRep-v3-final,2021.2.3,59.97825204139874,
,,,,,,,,115,0,115,0,,,,,,,,,,,,,,,,,,,,,,,,,,,,,,,,,,,,,,,,,,,,,,,,,,,,,1042.5948082003742,None,,,,,,,,,,,,,,,,,,,,,,,,,,,,,,,,,,,table,56,116,silent,blue,1040.5804647998884,None,None,1040.5804647998884,None,,,,,,,,,,,,,,,,,,,,,,,,,,,,,,66,001,2023_May_01_1250,ExactRep-v3-final,2021.2.3,59.97825204139874,
,,,,,,,,116,0,116,0,,,,,,,,,,,,,,,,,,,,,,,,,,,,,,,,,,,,,,,,,,,,,,,,,,,,,1045.0975308995694,None,,,,,,,,,,,,,,,,,,,,,,,,,,,,,,,,,,,flower,36,117,sing,red,1043.0982056995854,None,None,1043.0982056995854,None,,,,,,,,,,,,,,,,,,,,,,,,,,,,,,66,001,2023_May_01_1250,ExactRep-v3-final,2021.2.3,59.97825204139874,
,,,,,,,,117,0,117,0,,,,,,,,,,,,,,,,,,,,,,,,,,,,,,,,,,,,,,,,,,,,,,,,,,,,,1047.6165477000177,None,,,,,,,,,,,,,,,,,,,,,,,,,,,,,,,,,,,square,20,118,sing,red,1045.6050626998767,None,None,1045.6050626998767,None,,,,,,,,,,,,,,,,,,,,,,,,,,,,,,66,001,2023_May_01_1250,ExactRep-v3-final,2021.2.3,59.97825204139874,
,,,,,,,,118,0,118,0,,,,,,,,,,,,,,,,,,,,,,,,,,,,,,,,,,,,,,,,,,,,,,,,,,,,,1050.135872299783,None,,,,,,,,,,,,,,,,,,,,,,,,,,,,,,,,,,,queen,5,119,sing,red,1048.1268402002752,None,None,1048.1268402002752,None,,,,,,,,,,,,,,,,,,,,,,,,,,,,,,66,001,2023_May_01_1250,ExactRep-v3-final,2021.2.3,59.97825204139874,
,,,,,,,,119,0,119,0,,,,,,,,,,,,,,,,,,,,,,,,,,,,,,,,,,,,,,,,,,,,,,,,,,,,,1052.6384036000818,None,,,,,,,,,,,,,,,,,,,,,,,,,,,,,,,,,,,thought,109,120,aloud,white,1050.636278799735,None,None,1050.636278799735,None,,,,,,,,,,,,,,,,,,,,,,,,,,,,,,66,001,2023_May_01_1250,ExactRep-v3-final,2021.2.3,59.97825204139874,
,,,,,,,,,,,,,,,,,,,,,,,,,,,,,,,,,,,,,,,,,,,,,,,,,,,,,,,,,,,,,,,,,,,,,,,,,,,,,,,,,,,,,,,,,,,,,,,,,,,,,,,,,,,,,,1053.1404155995697,None,space,5.456756399944425,1063.1168453004211,None,,,,,,,,,,,,,,,,,,,,,,,,66,001,2023_May_01_1250,ExactRep-v3-final,2021.2.3,59.97825204139874,
,,,,,,,,,,,,,,,,,,,,,,,,,,,,,,,,,,,,,,,,,,,,,,,,,,,,,,,,,,,,,,,,,,,,,,,,,,,,,,,,,,,,,,,,,,,,,,,,,,,,,,,,,,,,,,,,,,,,1068.5894906995818,None,space,35.13605859968811,1078.5658184001222,None,,,,,,,,,,,,,,,,,,66,001,2023_May_01_1250,ExactRep-v3-final,2021.2.3,59.97825204139874,
,,,,,,,,,,,,0,0,0,0,,,,,,,,,,,,,,,,,,,,,,,,,,,,,,,,,,,,,,,,,,,,,,,,,1121.8907013004646,None,,,,,,,,,,,,,,,,,,,,,,,,,,,,,,,,,,,,,,,,,,,,,,,,,,,,,,,,,priest,187,1,sing,new,red,1114.228401299566,None,n,1114.228401299566,None,"['n', 'return']","[2.5768747003749013, 7.624964199960232]",1114.228401299566,None,,,66,001,2023_May_01_1250,ExactRep-v3-final,2021.2.3,59.97825204139874,
,,,,,,,,,,,,1,0,1,0,,,,,,,,,,,,,,,,,,,,,,,,,,,,,,,,,,,,,,,,,,,,,,,,,1126.3953128997236,None,,,,,,,,,,,,,,,,,,,,,,,,,,,,,,,,,,,,,,,,,,,,,,,,,,,,,,,,,soil,64,2,silent,old,blue,1122.401107000187,None,n,1122.401107000187,None,"['n', 'return']","[3.3884600000455976, 3.9482746003195643]",1122.401107000187,None,,,66,001,2023_May_01_1250,ExactRep-v3-final,2021.2.3,59.97825204139874,
,,,,,,,,,,,,2,0,2,0,,,,,,,,,,,,,,,,,,,,,,,,,,,,,,,,,,,,,,,,,,,,,,,,,1128.597651399672,None,,,,,,,,,,,,,,,,,,,,,,,,,,,,,,,,,,,,,,,,,,,,,,,,,,,,,,,,,custom,151,3,silent,new,blue,1126.9120254004374,None,n,1126.9120254004374,None,"['n', 'return']","[1.1572949001565576, 1.645205200649798]",1126.9120254004374,None,,,66,001,2023_May_01_1250,ExactRep-v3-final,2021.2.3,59.97825204139874,
,,,,,,,,,,,,3,0,3,0,,,,,,,,,,,,,,,,,,,,,,,,,,,,,,,,,,,,,,,,,,,,,,,,,1131.3169785002246,None,,,,,,,,,,,,,,,,,,,,,,,,,,,,,,,,,,,,,,,,,,,,,,,,,,,,,,,,,boy,62,4,silent,old,blue,1129.1121365996078,None,y,1129.1121365996078,None,"['y', 'return']","[1.573118100874126, 2.1571116000413895]",1129.1121365996078,None,,,66,001,2023_May_01_1250,ExactRep-v3-final,2021.2.3,59.97825204139874,
,,,,,,,,,,,,4,0,4,0,,,,,,,,,,,,,,,,,,,,,,,,,,,,,,,,,,,,,,,,,,,,,,,,,1134.8204514002427,None,,,,,,,,,,,,,,,,,,,,,,,,,,,,,,,,,,,,,,,,,,,,,,,,,,,,,,,,,passion,166,5,aloud,new,white,1131.827625299804,None,n,1131.827625299804,None,"['n', 'return']","[2.593921199440956, 2.9535977002233267]",1131.827625299804,None,,,66,001,2023_May_01_1250,ExactRep-v3-final,2021.2.3,59.97825204139874,
,,,,,,,,,,,,5,0,5,0,,,,,,,,,,,,,,,,,,,,,,,,,,,,,,,,,,,,,,,,,,,,,,,,,1137.2230204995722,None,,,,,,,,,,,,,,,,,,,,,,,,,,,,,,,,,,,,,,,,,,,,,,,,,,,,,,,,,tool,168,6,aloud,new,white,1135.3313341001049,None,n,1135.3313341001049,None,"['n', 'return']","[1.4179451996460557, 1.8578992001712322]",1135.3313341001049,None,,,66,001,2023_May_01_1250,ExactRep-v3-final,2021.2.3,59.97825204139874,
,,,,,,,,,,,,6,0,6,0,,,,,,,,,,,,,,,,,,,,,,,,,,,,,,,,,,,,,,,,,,,,,,,,,1139.6085120998323,None,,,,,,,,,,,,,,,,,,,,,,,,,,,,,,,,,,,,,,,,,,,,,,,,,,,,,,,,,dollar,73,7,silent,old,blue,1137.7300952002406,None,y,1137.7300952002406,None,"['y', 'return']","[1.4032127000391483, 1.8351590000092983]",1137.7300952002406,None,,,66,001,2023_May_01_1250,ExactRep-v3-final,2021.2.3,59.97825204139874,
,,,,,,,,,,,,7,0,7,0,,,,,,,,,,,,,,,,,,,,,,,,,,,,,,,,,,,,,,,,,,,,,,,,,1142.511376700364,None,,,,,,,,,,,,,,,,,,,,,,,,,,,,,,,,,,,,,,,,,,,,,,,,,,,,,,,,,person,142,8,silent,new,blue,1140.1175790000707,None,n,1140.1175790000707,None,"['n', 'return']","[1.927861999720335, 2.3597641000524163]",1140.1175790000707,None,,,66,001,2023_May_01_1250,ExactRep-v3-final,2021.2.3,59.97825204139874,
,,,,,,,,,,,,8,0,8,0,,,,,,,,,,,,,,,,,,,,,,,,,,,,,,,,,,,,,,,,,,,,,,,,,1144.8304033000022,None,,,,,,,,,,,,,,,,,,,,,,,,,,,,,,,,,,,,,,,,,,,,,,,,,,,,,,,,,pride,206,9,aloud,new,white,1143.0208029001951,None,y,1143.0208029001951,None,"['y', 'return']","[1.3044938007369637, 1.7764890007674694]",1143.0208029001951,None,,,66,001,2023_May_01_1250,ExactRep-v3-final,2021.2.3,59.97825204139874,
,,,,,,,,,,,,9,0,9,0,,,,,,,,,,,,,,,,,,,,,,,,,,,,,,,,,,,,,,,,,,,,,,,,,1146.9491720004007,None,,,,,,,,,,,,,,,,,,,,,,,,,,,,,,,,,,,,,,,,,,,,,,,,,,,,,,,,,shock,68,10,silent,old,blue,1145.3314204998314,None,n,1145.3314204998314,None,"['n', 'return']","[1.1538875997066498, 1.5698347995057702]",1145.3314204998314,None,,,66,001,2023_May_01_1250,ExactRep-v3-final,2021.2.3,59.97825204139874,
,,,,,,,,,,,,10,0,10,0,,,,,,,,,,,,,,,,,,,,,,,,,,,,,,,,,,,,,,,,,,,,,,,,,1149.051259400323,None,,,,,,,,,,,,,,,,,,,,,,,,,,,,,,,,,,,,,,,,,,,,,,,,,,,,,,,,,skin,231,11,sing,new,red,1147.4594785002992,None,n,1147.4594785002992,None,"['n', 'return']","[1.1698366003111005, 1.5459038000553846]",1147.4594785002992,None,,,66,001,2023_May_01_1250,ExactRep-v3-final,2021.2.3,59.97825204139874,
,,,,,,,,,,,,11,0,11,0,,,,,,,,,,,,,,,,,,,,,,,,,,,,,,,,,,,,,,,,,,,,,,,,,1151.3538089003414,None,,,,,,,,,,,,,,,,,,,,,,,,,,,,,,,,,,,,,,,,,,,,,,,,,,,,,,,,,street,124,12,silent,new,blue,1149.563584100455,None,n,1149.563584100455,None,"['n', 'return']","[1.3698485000059009, 1.753888700157404]",1149.563584100455,None,,,66,001,2023_May_01_1250,ExactRep-v3-final,2021.2.3,59.97825204139874,
,,,,,,,,,,,,12,0,12,0,,,,,,,,,,,,,,,,,,,,,,,,,,,,,,,,,,,,,,,,,,,,,,,,,1153.8396314997226,None,,,,,,,,,,,,,,,,,,,,,,,,,,,,,,,,,,,,,,,,,,,,,,,,,,,,,,,,,advice,23,13,sing,old,red,1151.8631916996092,None,y,1151.8631916996092,None,"['y', 'return']","[1.5503017008304596, 1.9341686004772782]",1151.8631916996092,None,,,66,001,2023_May_01_1250,ExactRep-v3-final,2021.2.3,59.97825204139874,
,,,,,,,,,,,,13,0,13,0,,,,,,,,,,,,,,,,,,,,,,,,,,,,,,,,,,,,,,,,,,,,,,,,,1155.874944999814,None,,,,,,,,,,,,,,,,,,,,,,,,,,,,,,,,,,,,,,,,,,,,,,,,,,,,,,,,,quality,144,14,silent,new,blue,1154.3496645996347,None,n,1154.3496645996347,None,"['n', 'return']","[1.1278937999159098, 1.4879179000854492]",1154.3496645996347,None,,,66,001,2023_May_01_1250,ExactRep-v3-final,2021.2.3,59.97825204139874,
,,,,,,,,,,,,14,0,14,0,,,,,,,,,,,,,,,,,,,,,,,,,,,,,,,,,,,,,,,,,,,,,,,,,1158.0769367003813,None,,,,,,,,,,,,,,,,,,,,,,,,,,,,,,,,,,,,,,,,,,,,,,,,,,,,,,,,,law,39,15,silent,old,blue,1156.3817859999835,None,y,1156.3817859999835,None,"['y', 'return']","[1.2875819001346827, 1.6556020993739367]",1156.3817859999835,None,,,66,001,2023_May_01_1250,ExactRep-v3-final,2021.2.3,59.97825204139874,
,,,,,,,,,,,,15,0,15,0,,,,,,,,,,,,,,,,,,,,,,,,,,,,,,,,,,,,,,,,,,,,,,,,,1160.3626618003473,None,,,,,,,,,,,,,,,,,,,,,,,,,,,,,,,,,,,,,,,,,,,,,,,,,,,,,,,,,disease,84,16,aloud,old,white,1158.5869223000482,None,y,1158.5869223000482,None,"['y', 'return']","[1.274570900015533, 1.7385467998683453]",1158.5869223000482,None,,,66,001,2023_May_01_1250,ExactRep-v3-final,2021.2.3,59.97825204139874,
,,,,,,,,,,,,16,0,16,0,,,,,,,,,,,,,,,,,,,,,,,,,,,,,,,,,,,,,,,,,,,,,,,,,1162.3145599998534,None,,,,,,,,,,,,,,,,,,,,,,,,,,,,,,,,,,,,,,,,,,,,,,,,,,,,,,,,,flood,175,17,sing,new,red,1160.876250299625,None,n,1160.876250299625,None,"['n', 'return']","[1.0330976005643606, 1.3931015003472567]",1160.876250299625,None,,,66,001,2023_May_01_1250,ExactRep-v3-final,2021.2.3,59.97825204139874,
,,,,,,,,,,,,17,0,17,0,,,,,,,,,,,,,,,,,,,,,,,,,,,,,,,,,,,,,,,,,,,,,,,,,1164.1831441000104,None,,,,,,,,,,,,,,,,,,,,,,,,,,,,,,,,,,,,,,,,,,,,,,,,,,,,,,,,,iron,208,18,aloud,new,white,1162.8260420002043,None,n,1162.8260420002043,None,"['n', 'return']","[0.9634122001007199, 1.32325469981879]",1162.8260420002043,None,,,66,001,2023_May_01_1250,ExactRep-v3-final,2021.2.3,59.97825204139874,
,,,,,,,,,,,,18,0,18,0,,,,,,,,,,,,,,,,,,,,,,,,,,,,,,,,,,,,,,,,,,,,,,,,,1166.1360461004078,None,,,,,,,,,,,,,,,,,,,,,,,,,,,,,,,,,,,,,,,,,,,,,,,,,,,,,,,,,factory,63,19,silent,old,blue,1164.6911132996902,None,n,1164.6911132996902,None,"['n', 'return']","[1.0503109004348516, 1.4101197998970747]",1164.6911132996902,None,,,66,001,2023_May_01_1250,ExactRep-v3-final,2021.2.3,59.97825204139874,
,,,,,,,,,,,,19,0,19,0,,,,,,,,,,,,,,,,,,,,,,,,,,,,,,,,,,,,,,,,,,,,,,,,,1169.2048661001027,None,,,,,,,,,,,,,,,,,,,,,,,,,,,,,,,,,,,,,,,,,,,,,,,,,,,,,,,,,fire,137,20,silent,new,blue,1166.6356814000756,None,n,1166.6356814000756,None,"['n', 'return']","[2.2498157005757093, 2.5377299999818206]",1166.6356814000756,None,,,66,001,2023_May_01_1250,ExactRep-v3-final,2021.2.3,59.97825204139874,
,,,,,,,,,,,,20,0,20,0,,,,,,,,,,,,,,,,,,,,,,,,,,,,,,,,,,,,,,,,,,,,,,,,,1171.8408356998116,None,,,,,,,,,,,,,,,,,,,,,,,,,,,,,,,,,,,,,,,,,,,,,,,,,,,,,,,,,house,120,21,silent,new,blue,1169.713538499549,None,n,1169.713538499549,None,"['n', 'return']","[1.835814799182117, 2.083712499588728]",1169.713538499549,None,,,66,001,2023_May_01_1250,ExactRep-v3-final,2021.2.3,59.97825204139874,
,,,,,,,,,,,,21,0,21,0,,,,,,,,,,,,,,,,,,,,,,,,,,,,,,,,,,,,,,,,,,,,,,,,,1173.8260647002608,None,,,,,,,,,,,,,,,,,,,,,,,,,,,,,,,,,,,,,,,,,,,,,,,,,,,,,,,,,speech,115,22,aloud,old,white,1172.350877000019,None,y,1172.350877000019,None,"['y', 'return']","[1.1424798993393779, 1.4385452000424266]",1172.350877000019,None,,,66,001,2023_May_01_1250,ExactRep-v3-final,2021.2.3,59.97825204139874,
,,,,,,,,,,,,22,0,22,0,,,,,,,,,,,,,,,,,,,,,,,,,,,,,,,,,,,,,,,,,,,,,,,,,1176.2452317001298,None,,,,,,,,,,,,,,,,,,,,,,,,,,,,,,,,,,,,,,,,,,,,,,,,,,,,,,,,,window,212,23,aloud,new,white,1174.335857800208,None,y,1174.335857800208,None,"['y', 'return']","[1.533463199622929, 1.877474899403751]",1174.335857800208,None,,,66,001,2023_May_01_1250,ExactRep-v3-final,2021.2.3,59.97825204139874,
,,,,,,,,,,,,23,0,23,0,,,,,,,,,,,,,,,,,,,,,,,,,,,,,,,,,,,,,,,,,,,,,,,,,1178.3141015004367,None,,,,,,,,,,,,,,,,,,,,,,,,,,,,,,,,,,,,,,,,,,,,,,,,,,,,,,,,,coast,4,24,sing,old,red,1176.753901699558,None,y,1176.753901699558,None,"['y', 'return']","[1.147451400756836, 1.515437699854374]",1176.753901699558,None,,,66,001,2023_May_01_1250,ExactRep-v3-final,2021.2.3,59.97825204139874,
,,,,,,,,,,,,24,0,24,0,,,,,,,,,,,,,,,,,,,,,,,,,,,,,,,,,,,,,,,,,,,,,,,,,1180.1324094999582,None,,,,,,,,,,,,,,,,,,,,,,,,,,,,,,,,,,,,,,,,,,,,,,,,,,,,,,,,,student,150,25,silent,new,blue,1178.8232340002432,None,y,1178.8232340002432,None,"['y', 'return']","[0.9262689994648099, 1.2619683993980289]",1178.8232340002432,None,,,66,001,2023_May_01_1250,ExactRep-v3-final,2021.2.3,59.97825204139874,
,,,,,,,,,,,,25,0,25,0,,,,,,,,,,,,,,,,,,,,,,,,,,,,,,,,,,,,,,,,,,,,,,,,,1182.2844879003242,None,,,,,,,,,,,,,,,,,,,,,,,,,,,,,,,,,,,,,,,,,,,,,,,,,,,,,,,,,bar,42,26,silent,old,blue,1180.6391363004223,None,n,1180.6391363004223,None,"['n', 'return']","[1.1981976004317403, 1.5981914000585675]",1180.6391363004223,None,,,66,001,2023_May_01_1250,ExactRep-v3-final,2021.2.3,59.97825204139874,
,,,,,,,,,,,,26,0,26,0,,,,,,,,,,,,,,,,,,,,,,,,,,,,,,,,,,,,,,,,,,,,,,,,,1184.25315960031,None,,,,,,,,,,,,,,,,,,,,,,,,,,,,,,,,,,,,,,,,,,,,,,,,,,,,,,,,,pipe,217,27,sing,new,red,1182.795856599696,None,n,1182.795856599696,None,"['n', 'return']","[1.0094922995194793, 1.4095890996977687]",1182.795856599696,None,,,66,001,2023_May_01_1250,ExactRep-v3-final,2021.2.3,59.97825204139874,
,,,,,,,,,,,,27,0,27,0,,,,,,,,,,,,,,,,,,,,,,,,,,,,,,,,,,,,,,,,,,,,,,,,,1186.138325699605,None,,,,,,,,,,,,,,,,,,,,,,,,,,,,,,,,,,,,,,,,,,,,,,,,,,,,,,,,,door,34,28,sing,old,red,1184.7667600996792,None,y,1184.7667600996792,None,"['y', 'return']","[0.95062439981848, 1.3266382003203034]",1184.7667600996792,None,,,66,001,2023_May_01_1250,ExactRep-v3-final,2021.2.3,59.97825204139874,
,,,,,,,,,,,,28,0,28,0,,,,,,,,,,,,,,,,,,,,,,,,,,,,,,,,,,,,,,,,,,,,,,,,,1187.9904527002946,None,,,,,,,,,,,,,,,,,,,,,,,,,,,,,,,,,,,,,,,,,,,,,,,,,,,,,,,,,amount,159,29,silent,new,blue,1186.653754499741,None,n,1186.653754499741,None,"['n', 'return']","[0.9836410991847515, 1.2955865999683738]",1186.653754499741,None,,,66,001,2023_May_01_1250,ExactRep-v3-final,2021.2.3,59.97825204139874,
,,,,,,,,,,,,29,0,29,0,,,,,,,,,,,,,,,,,,,,,,,,,,,,,,,,,,,,,,,,,,,,,,,,,1190.3427306003869,None,,,,,,,,,,,,,,,,,,,,,,,,,,,,,,,,,,,,,,,,,,,,,,,,,,,,,,,,,fate,86,30,aloud,old,white,1188.501446600072,None,n,1188.501446600072,None,"['n', 'return']","[1.4398783994838595, 1.8079942995682359]",1188.501446600072,None,,,66,001,2023_May_01_1250,ExactRep-v3-final,2021.2.3,59.97825204139874,
,,,,,,,,,,,,30,0,30,0,,,,,,,,,,,,,,,,,,,,,,,,,,,,,,,,,,,,,,,,,,,,,,,,,1194.4300819998607,None,,,,,,,,,,,,,,,,,,,,,,,,,,,,,,,,,,,,,,,,,,,,,,,,,,,,,,,,,animal,57,31,silent,old,blue,1190.8505116002634,None,n,1190.8505116002634,None,"['n', 'return']","[3.242924900725484, 3.546732200309634]",1190.8505116002634,None,,,66,001,2023_May_01_1250,ExactRep-v3-final,2021.2.3,59.97825204139874,
,,,,,,,,,,,,31,0,31,0,,,,,,,,,,,,,,,,,,,,,,,,,,,,,,,,,,,,,,,,,,,,,,,,,1196.53212049976,None,,,,,,,,,,,,,,,,,,,,,,,,,,,,,,,,,,,,,,,,,,,,,,,,,,,,,,,,,queen,5,32,sing,old,red,1194.9417211003602,None,y,1194.9417211003602,None,"['y', 'return']","[1.1836985005065799, 1.5436811000108719]",1194.9417211003602,None,,,66,001,2023_May_01_1250,ExactRep-v3-final,2021.2.3,59.97825204139874,
,,,,,,,,,,,,32,0,32,0,,,,,,,,,,,,,,,,,,,,,,,,,,,,,,,,,,,,,,,,,,,,,,,,,1198.6508766999468,None,,,,,,,,,,,,,,,,,,,,,,,,,,,,,,,,,,,,,,,,,,,,,,,,,,,,,,,,,memory,74,33,silent,old,blue,1197.0401002997532,None,y,1197.0401002997532,None,"['y', 'return']","[1.2292817002162337, 1.5652756001800299]",1197.0401002997532,None,,,66,001,2023_May_01_1250,ExactRep-v3-final,2021.2.3,59.97825204139874,
,,,,,,,,,,,,33,0,33,0,,,,,,,,,,,,,,,,,,,,,,,,,,,,,,,,,,,,,,,,,,,,,,,,,1201.2702027000487,None,,,,,,,,,,,,,,,,,,,,,,,,,,,,,,,,,,,,,,,,,,,,,,,,,,,,,,,,,salary,126,34,silent,new,blue,1199.1632626000792,None,y,1199.1632626000792,None,"['y', 'return']","[1.8021004004403949, 2.066041899845004]",1199.1632626000792,None,,,66,001,2023_May_01_1250,ExactRep-v3-final,2021.2.3,59.97825204139874,
,,,,,,,,,,,,34,0,34,0,,,,,,,,,,,,,,,,,,,,,,,,,,,,,,,,,,,,,,,,,,,,,,,,,1203.1064152000472,None,,,,,,,,,,,,,,,,,,,,,,,,,,,,,,,,,,,,,,,,,,,,,,,,,,,,,,,,,kiss,46,35,silent,old,blue,1201.776744400151,None,y,1201.776744400151,None,"['y', 'return']","[0.9246235005557537, 1.284573799930513]",1201.776744400151,None,,,66,001,2023_May_01_1250,ExactRep-v3-final,2021.2.3,59.97825204139874,
,,,,,,,,,,,,35,0,35,0,,,,,,,,,,,,,,,,,,,,,,,,,,,,,,,,,,,,,,,,,,,,,,,,,1205.7581868004054,None,,,,,,,,,,,,,,,,,,,,,,,,,,,,,,,,,,,,,,,,,,,,,,,,,,,,,,,,,owner,163,36,sing,new,red,1203.618292200379,None,n,1203.618292200379,None,"['n', 'return']","[1.4593557007610798, 2.107045200653374]",1203.618292200379,None,,,66,001,2023_May_01_1250,ExactRep-v3-final,2021.2.3,59.97825204139874,
,,,,,,,,,,,,36,0,36,0,,,,,,,,,,,,,,,,,,,,,,,,,,,,,,,,,,,,,,,,,,,,,,,,,1207.6434011999518,None,,,,,,,,,,,,,,,,,,,,,,,,,,,,,,,,,,,,,,,,,,,,,,,,,,,,,,,,,heaven,235,37,sing,new,red,1206.2618308998644,None,n,1206.2618308998644,None,"['n', 'return']","[0.951808700338006, 1.3356264997273684]",1206.2618308998644,None,,,66,001,2023_May_01_1250,ExactRep-v3-final,2021.2.3,59.97825204139874,
,,,,,,,,,,,,37,0,37,0,,,,,,,,,,,,,,,,,,,,,,,,,,,,,,,,,,,,,,,,,,,,,,,,,1209.7286197999492,None,,,,,,,,,,,,,,,,,,,,,,,,,,,,,,,,,,,,,,,,,,,,,,,,,,,,,,,,,dawn,153,38,silent,new,blue,1208.1544885002077,None,n,1208.1544885002077,None,"['n', 'return']","[1.1708919005468488, 1.5390365002676845]",1208.1544885002077,None,,,66,001,2023_May_01_1250,ExactRep-v3-final,2021.2.3,59.97825204139874,
,,,,,,,,,,,,38,0,38,0,,,,,,,,,,,,,,,,,,,,,,,,,,,,,,,,,,,,,,,,,,,,,,,,,1211.7973694000393,None,,,,,,,,,,,,,,,,,,,,,,,,,,,,,,,,,,,,,,,,,,,,,,,,,,,,,,,,,wife,123,39,silent,new,blue,1210.2415984002873,None,n,1210.2415984002873,None,"['n', 'return']","[1.2118720998987556, 1.5239103995263577]",1210.2415984002873,None,,,66,001,2023_May_01_1250,ExactRep-v3-final,2021.2.3,59.97825204139874,
,,,,,,,,,,,,39,0,39,0,,,,,,,,,,,,,,,,,,,,,,,,,,,,,,,,,,,,,,,,,,,,,,,,,1213.8995412997901,None,,,,,,,,,,,,,,,,,,,,,,,,,,,,,,,,,,,,,,,,,,,,,,,,,,,,,,,,,village,85,40,aloud,old,white,1212.3098932998255,None,y,1212.3098932998255,None,"['y', 'return']","[1.1195668997243047, 1.5515117002651095]",1212.3098932998255,None,,,66,001,2023_May_01_1250,ExactRep-v3-final,2021.2.3,59.97825204139874,
,,,,,,,,,,,,40,0,40,0,,,,,,,,,,,,,,,,,,,,,,,,,,,,,,,,,,,,,,,,,,,,,,,,,1217.0025918995962,None,,,,,,,,,,,,,,,,,,,,,,,,,,,,,,,,,,,,,,,,,,,,,,,,,,,,,,,,,maiden,82,41,aloud,old,white,1214.409250699915,None,n,1214.409250699915,None,"['n', 'return']","[2.2120839999988675, 2.556216700002551]",1214.409250699915,None,,,66,001,2023_May_01_1250,ExactRep-v3-final,2021.2.3,59.97825204139874,
,,,,,,,,,,,,41,0,41,0,,,,,,,,,,,,,,,,,,,,,,,,,,,,,,,,,,,,,,,,,,,,,,,,,1218.8879861999303,None,,,,,,,,,,,,,,,,,,,,,,,,,,,,,,,,,,,,,,,,,,,,,,,,,,,,,,,,,storm,229,42,sing,new,red,1217.5186208998784,None,y,1217.5186208998784,None,"['y', 'return']","[0.958984799683094, 1.326731899753213]",1217.5186208998784,None,,,66,001,2023_May_01_1250,ExactRep-v3-final,2021.2.3,59.97825204139874,
,,,,,,,,,,,,42,0,42,0,,,,,,,,,,,,,,,,,,,,,,,,,,,,,,,,,,,,,,,,,,,,,,,,,1220.8564937999472,None,,,,,,,,,,,,,,,,,,,,,,,,,,,,,,,,,,,,,,,,,,,,,,,,,,,,,,,,,book,134,43,silent,new,blue,1219.3956445995718,None,n,1219.3956445995718,None,"['n', 'return']","[1.0977295003831387, 1.4178877007216215]",1219.3956445995718,None,,,66,001,2023_May_01_1250,ExactRep-v3-final,2021.2.3,59.97825204139874,
,,,,,,,,,,,,43,0,43,0,,,,,,,,,,,,,,,,,,,,,,,,,,,,,,,,,,,,,,,,,,,,,,,,,1222.8083683997393,None,,,,,,,,,,,,,,,,,,,,,,,,,,,,,,,,,,,,,,,,,,,,,,,,,,,,,,,,,cottage,53,44,silent,old,blue,1221.360468200408,None,n,1221.360468200408,None,"['n', 'return']","[1.1008596001192927, 1.4128370005637407]",1221.360468200408,None,,,66,001,2023_May_01_1250,ExactRep-v3-final,2021.2.3,59.97825204139874,
,,,,,,,,,,,,44,0,44,0,,,,,,,,,,,,,,,,,,,,,,,,,,,,,,,,,,,,,,,,,,,,,,,,,1224.8103470997885,None,,,,,,,,,,,,,,,,,,,,,,,,,,,,,,,,,,,,,,,,,,,,,,,,,,,,,,,,,doll,185,45,sing,new,red,1223.318726499565,None,n,1223.318726499565,None,"['n', 'return']","[1.0946418000385165, 1.4546737000346184]",1223.318726499565,None,,,66,001,2023_May_01_1250,ExactRep-v3-final,2021.2.3,59.97825204139874,
,,,,,,,,,,,,45,0,45,0,,,,,,,,,,,,,,,,,,,,,,,,,,,,,,,,,,,,,,,,,,,,,,,,,1226.6122345002368,None,,,,,,,,,,,,,,,,,,,,,,,,,,,,,,,,,,,,,,,,,,,,,,,,,,,,,,,,,slave,162,46,aloud,new,white,1225.3208293998614,None,n,1225.3208293998614,None,"['n', 'return']","[0.9085841998457909, 1.2525840997695923]",1225.3208293998614,None,,,66,001,2023_May_01_1250,ExactRep-v3-final,2021.2.3,59.97825204139874,
,,,,,,,,,,,,46,0,46,0,,,,,,,,,,,,,,,,,,,,,,,,,,,,,,,,,,,,,,,,,,,,,,,,,1228.480887199752,None,,,,,,,,,,,,,,,,,,,,,,,,,,,,,,,,,,,,,,,,,,,,,,,,,,,,,,,,,present,87,47,aloud,old,white,1227.1290990998968,None,y,1227.1290990998968,None,"['y', 'return']","[1.0524907996878028, 1.3163641998544335]",1227.1290990998968,None,,,66,001,2023_May_01_1250,ExactRep-v3-final,2021.2.3,59.97825204139874,
,,,,,,,,,,,,47,0,47,0,,,,,,,,,,,,,,,,,,,,,,,,,,,,,,,,,,,,,,,,,,,,,,,,,1230.6329431999475,None,,,,,,,,,,,,,,,,,,,,,,,,,,,,,,,,,,,,,,,,,,,,,,,,,,,,,,,,,season,70,48,silent,old,blue,1228.9931830996647,None,y,1228.9931830996647,None,"['y', 'return']","[1.1162513997405767, 1.6043149000033736]",1228.9931830996647,None,,,66,001,2023_May_01_1250,ExactRep-v3-final,2021.2.3,59.97825204139874,
,,,,,,,,,,,,48,0,48,0,,,,,,,,,,,,,,,,,,,,,,,,,,,,,,,,,,,,,,,,,,,,,,,,,1232.7516946997494,None,,,,,,,,,,,,,,,,,,,,,,,,,,,,,,,,,,,,,,,,,,,,,,,,,,,,,,,,,water,49,49,silent,old,blue,1231.1441208003089,None,n,1231.1441208003089,None,"['n', 'return']","[1.2853330001235008, 1.565306800417602]",1231.1441208003089,None,,,66,001,2023_May_01_1250,ExactRep-v3-final,2021.2.3,59.97825204139874,
,,,,,,,,,,,,49,0,49,0,,,,,,,,,,,,,,,,,,,,,,,,,,,,,,,,,,,,,,,,,,,,,,,,,1234.570347899571,None,,,,,,,,,,,,,,,,,,,,,,,,,,,,,,,,,,,,,,,,,,,,,,,,,,,,,,,,,winter,27,50,sing,old,red,1233.2630484998226,None,y,1233.2630484998226,None,"['y', 'return']","[0.8945760000497103, 1.2624151995405555]",1233.2630484998226,None,,,66,001,2023_May_01_1250,ExactRep-v3-final,2021.2.3,59.97825204139874,
,,,,,,,,,,,,50,0,50,0,,,,,,,,,,,,,,,,,,,,,,,,,,,,,,,,,,,,,,,,,,,,,,,,,1246.265309699811,None,,,,,,,,,,,,,,,,,,,,,,,,,,,,,,,,,,,,,,,,,,,,,,,,,,,,,,,,,event,205,51,sing,new,red,1235.0799847003073,None,y,1235.0799847003073,None,"['y', 'return']","[10.829693499952555, 11.149448400363326]",1235.0799847003073,None,,,66,001,2023_May_01_1250,ExactRep-v3-final,2021.2.3,59.97825204139874,
,,,,,,,,,,,,51,0,51,0,,,,,,,,,,,,,,,,,,,,,,,,,,,,,,,,,,,,,,,,,,,,,,,,,1248.1003588996828,None,,,,,,,,,,,,,,,,,,,,,,,,,,,,,,,,,,,,,,,,,,,,,,,,,,,,,,,,,charm,226,52,aloud,new,white,1246.7766097001731,None,n,1246.7766097001731,None,"['n', 'return']","[0.9808663995936513, 1.2768414998427033]",1246.7766097001731,None,,,66,001,2023_May_01_1250,ExactRep-v3-final,2021.2.3,59.97825204139874,
,,,,,,,,,,,,52,0,52,0,,,,,,,,,,,,,,,,,,,,,,,,,,,,,,,,,,,,,,,,,,,,,,,,,1249.9689442003146,None,,,,,,,,,,,,,,,,,,,,,,,,,,,,,,,,,,,,,,,,,,,,,,,,,,,,,,,,,party,7,53,sing,old,red,1248.6139260996133,None,y,1248.6139260996133,None,"['y', 'return']","[0.9835111992433667, 1.311454899609089]",1248.6139260996133,None,,,66,001,2023_May_01_1250,ExactRep-v3-final,2021.2.3,59.97825204139874,
,,,,,,,,,,,,53,0,53,0,,,,,,,,,,,,,,,,,,,,,,,,,,,,,,,,,,,,,,,,,,,,,,,,,1252.1877629999071,None,,,,,,,,,,,,,,,,,,,,,,,,,,,,,,,,,,,,,,,,,,,,,,,,,,,,,,,,,officer,216,54,aloud,new,white,1250.4797365004197,None,n,1250.4797365004197,None,"['n', 'return']","[1.413851199671626, 1.6696771997958422]",1250.4797365004197,None,,,66,001,2023_May_01_1250,ExactRep-v3-final,2021.2.3,59.97825204139874,
,,,,,,,,,,,,54,0,54,0,,,,,,,,,,,,,,,,,,,,,,,,,,,,,,,,,,,,,,,,,,,,,,,,,1254.5401218002662,None,,,,,,,,,,,,,,,,,,,,,,,,,,,,,,,,,,,,,,,,,,,,,,,,,,,,,,,,,deed,75,55,silent,old,blue,1252.6955664996058,None,n,1252.6955664996058,None,"['n', 'return']","[1.3497655997052789, 1.8059425000101328]",1252.6955664996058,None,,,66,001,2023_May_01_1250,ExactRep-v3-final,2021.2.3,59.97825204139874,
,,,,,,,,,,,,55,0,55,0,,,,,,,,,,,,,,,,,,,,,,,,,,,,,,,,,,,,,,,,,,,,,,,,,1256.8092248998582,None,,,,,,,,,,,,,,,,,,,,,,,,,,,,,,,,,,,,,,,,,,,,,,,,,,,,,,,,,chair,202,56,aloud,new,white,1255.0524314995855,None,y,1255.0524314995855,None,"['y', 'return']","[1.401124500669539, 1.7212648000568151]",1255.0524314995855,None,,,66,001,2023_May_01_1250,ExactRep-v3-final,2021.2.3,59.97825204139874,
,,,,,,,,,,,,56,0,56,0,,,,,,,,,,,,,,,,,,,,,,,,,,,,,,,,,,,,,,,,,,,,,,,,,1258.760983100161,None,,,,,,,,,,,,,,,,,,,,,,,,,,,,,,,,,,,,,,,,,,,,,,,,,,,,,,,,,anger,104,57,aloud,old,white,1257.3151169996709,None,y,1257.3151169996709,None,"['y', 'return']","[1.0344428000971675, 1.402266699820757]",1257.3151169996709,None,,,66,001,2023_May_01_1250,ExactRep-v3-final,2021.2.3,59.97825204139874,
,,,,,,,,,,,,57,0,57,0,,,,,,,,,,,,,,,,,,,,,,,,,,,,,,,,,,,,,,,,,,,,,,,,,1260.9132017996162,None,,,,,,,,,,,,,,,,,,,,,,,,,,,,,,,,,,,,,,,,,,,,,,,,,,,,,,,,,money,156,58,silent,new,blue,1259.2716370001435,None,n,1259.2716370001435,None,"['n', 'return']","[1.3497560992836952, 1.5977521995082498]",1259.2716370001435,None,,,66,001,2023_May_01_1250,ExactRep-v3-final,2021.2.3,59.97825204139874,
,,,,,,,,,,,,58,0,58,0,,,,,,,,,,,,,,,,,,,,,,,,,,,,,,,,,,,,,,,,,,,,,,,,,1262.7983558000997,None,,,,,,,,,,,,,,,,,,,,,,,,,,,,,,,,,,,,,,,,,,,,,,,,,,,,,,,,,freedom,188,59,aloud,new,white,1261.4254895998165,None,n,1261.4254895998165,None,"['n', 'return']","[0.9322012001648545, 1.331976099871099]",1261.4254895998165,None,,,66,001,2023_May_01_1250,ExactRep-v3-final,2021.2.3,59.97825204139874,
,,,,,,,,,,,,59,0,59,0,,,,,,,,,,,,,,,,,,,,,,,,,,,,,,,,,,,,,,,,,,,,,,,,,1266.0850625000894,None,,,,,,,,,,,,,,,,,,,,,,,,,,,,,,,,,,,,,,,,,,,,,,,,,,,,,,,,,fact,181,60,sing,new,red,1263.3038387997076,None,n,1263.3038387997076,None,"['n', 'return']","[2.437512000091374, 2.7416781997308135]",1263.3038387997076,None,,,66,001,2023_May_01_1250,ExactRep-v3-final,2021.2.3,59.97825204139874,
,,,,,,,,,,,,60,0,60,0,,,,,,,,,,,,,,,,,,,,,,,,,,,,,,,,,,,,,,,,,,,,,,,,,1267.953634900041,None,,,,,,,,,,,,,,,,,,,,,,,,,,,,,,,,,,,,,,,,,,,,,,,,,,,,,,,,,grass,227,61,sing,new,red,1266.5949093997478,None,n,1266.5949093997478,None,"['n', 'return']","[0.8105065999552608, 1.3225269000977278]",1266.5949093997478,None,,,66,001,2023_May_01_1250,ExactRep-v3-final,2021.2.3,59.97825204139874,
,,,,,,,,,,,,61,0,61,0,,,,,,,,,,,,,,,,,,,,,,,,,,,,,,,,,,,,,,,,,,,,,,,,,1270.0389390997589,None,,,,,,,,,,,,,,,,,,,,,,,,,,,,,,,,,,,,,,,,,,,,,,,,,,,,,,,,,time,199,62,sing,new,red,1268.4623646996915,None,n,1268.4623646996915,None,"['n', 'return']","[1.287339299917221, 1.535189600661397]",1268.4623646996915,None,,,66,001,2023_May_01_1250,ExactRep-v3-final,2021.2.3,59.97825204139874,
,,,,,,,,,,,,62,0,62,0,,,,,,,,,,,,,,,,,,,,,,,,,,,,,,,,,,,,,,,,,,,,,,,,,1273.058644800447,None,,,,,,,,,,,,,,,,,,,,,,,,,,,,,,,,,,,,,,,,,,,,,,,,,,,,,,,,,product,165,63,sing,new,red,1270.5489506004378,None,y,1270.5489506004378,None,"['y', 'return']","[2.176721199415624, 2.4644863000139594]",1270.5489506004378,None,,,66,001,2023_May_01_1250,ExactRep-v3-final,2021.2.3,59.97825204139874,
,,,,,,,,,,,,63,0,63,0,,,,,,,,,,,,,,,,,,,,,,,,,,,,,,,,,,,,,,,,,,,,,,,,,1275.3776840995997,None,,,,,,,,,,,,,,,,,,,,,,,,,,,,,,,,,,,,,,,,,,,,,,,,,,,,,,,,,vision,102,64,aloud,old,white,1273.5677236998454,None,y,1273.5677236998454,None,"['y', 'return']","[1.2697882000356913, 1.7738509001210332]",1273.5677236998454,None,,,66,001,2023_May_01_1250,ExactRep-v3-final,2021.2.3,59.97825204139874,
,,,,,,,,,,,,64,0,64,0,,,,,,,,,,,,,,,,,,,,,,,,,,,,,,,,,,,,,,,,,,,,,,,,,1277.4964723000303,None,,,,,,,,,,,,,,,,,,,,,,,,,,,,,,,,,,,,,,,,,,,,,,,,,,,,,,,,,boulder,210,65,aloud,new,white,1275.88477480039,None,n,1275.88477480039,None,"['n', 'return']","[1.2087987996637821, 1.5687118992209435]",1275.88477480039,None,,,66,001,2023_May_01_1250,ExactRep-v3-final,2021.2.3,59.97825204139874,
,,,,,,,,,,,,65,0,65,0,,,,,,,,,,,,,,,,,,,,,,,,,,,,,,,,,,,,,,,,,,,,,,,,,1279.6318450998515,None,,,,,,,,,,,,,,,,,,,,,,,,,,,,,,,,,,,,,,,,,,,,,,,,,,,,,,,,,blood,179,66,sing,new,red,1278.0069356001914,None,y,1278.0069356001914,None,"['y', 'return']","[1.2227822998538613, 1.5904711000621319]",1278.0069356001914,None,,,66,001,2023_May_01_1250,ExactRep-v3-final,2021.2.3,59.97825204139874,
,,,,,,,,,,,,66,0,66,0,,,,,,,,,,,,,,,,,,,,,,,,,,,,,,,,,,,,,,,,,,,,,,,,,1281.590936800465,None,,,,,,,,,,,,,,,,,,,,,,,,,,,,,,,,,,,,,,,,,,,,,,,,,,,,,,,,,flower,36,67,sing,old,red,1280.1437082998455,None,y,1280.1437082998455,None,"['y', 'return']","[1.0216798996552825, 1.3977824999019504]",1280.1437082998455,None,,,66,001,2023_May_01_1250,ExactRep-v3-final,2021.2.3,59.97825204139874,
,,,,,,,,,,,,67,0,67,0,,,,,,,,,,,,,,,,,,,,,,,,,,,,,,,,,,,,,,,,,,,,,,,,,1283.4525800999254,None,,,,,,,,,,,,,,,,,,,,,,,,,,,,,,,,,,,,,,,,,,,,,,,,,,,,,,,,,month,192,68,aloud,new,white,1282.1075787004083,None,n,1282.1075787004083,None,"['n', 'return']","[0.961846400052309, 1.3058912996202707]",1282.1075787004083,None,,,66,001,2023_May_01_1250,ExactRep-v3-final,2021.2.3,59.97825204139874,
,,,,,,,,,,,,68,0,68,0,,,,,,,,,,,,,,,,,,,,,,,,,,,,,,,,,,,,,,,,,,,,,,,,,1286.038261000067,None,,,,,,,,,,,,,,,,,,,,,,,,,,,,,,,,,,,,,,,,,,,,,,,,,,,,,,,,,diamond,234,69,aloud,new,white,1283.9635130995885,None,n,1283.9635130995885,None,"['n', 'return']","[1.7300665993243456, 2.041996399872005]",1283.9635130995885,None,,,66,001,2023_May_01_1250,ExactRep-v3-final,2021.2.3,59.97825204139874,
,,,,,,,,,,,,69,0,69,0,,,,,,,,,,,,,,,,,,,,,,,,,,,,,,,,,,,,,,,,,,,,,,,,,1291.3770262002945,None,,,,,,,,,,,,,,,,,,,,,,,,,,,,,,,,,,,,,,,,,,,,,,,,,,,,,,,,,opinion,50,70,silent,old,blue,1286.5479447003454,None,n,1286.5479447003454,None,"['n', 'return']","[4.497611999511719, 4.785530399531126]",1286.5479447003454,None,,,66,001,2023_May_01_1250,ExactRep-v3-final,2021.2.3,59.97825204139874,
,,,,,,,,,,,,70,0,70,0,,,,,,,,,,,,,,,,,,,,,,,,,,,,,,,,,,,,,,,,,,,,,,,,,1293.2955820998177,None,,,,,,,,,,,,,,,,,,,,,,,,,,,,,,,,,,,,,,,,,,,,,,,,,,,,,,,,,clock,69,71,silent,old,blue,1291.8775102002546,None,y,1291.8775102002546,None,"['y', 'return']","[1.0398575998842716, 1.3840146996080875]",1291.8775102002546,None,,,66,001,2023_May_01_1250,ExactRep-v3-final,2021.2.3,59.97825204139874,
,,,,,,,,,,,,71,0,71,0,,,,,,,,,,,,,,,,,,,,,,,,,,,,,,,,,,,,,,,,,,,,,,,,,1295.4977646004409,None,,,,,,,,,,,,,,,,,,,,,,,,,,,,,,,,,,,,,,,,,,,,,,,,,,,,,,,,,picture,30,72,sing,old,red,1293.7984237996861,None,n,1293.7984237996861,None,"['n', 'return']","[1.3270632000640035, 1.655032199807465]",1293.7984237996861,None,,,66,001,2023_May_01_1250,ExactRep-v3-final,2021.2.3,59.97825204139874,
,,,,,,,,,,,,72,0,72,0,,,,,,,,,,,,,,,,,,,,,,,,,,,,,,,,,,,,,,,,,,,,,,,,,1297.4497619001195,None,,,,,,,,,,,,,,,,,,,,,,,,,,,,,,,,,,,,,,,,,,,,,,,,,,,,,,,,,safety,116,73,aloud,old,white,1296.0069650001824,None,y,1296.0069650001824,None,"['y', 'return']","[1.1026643002405763, 1.406525100581348]",1296.0069650001824,None,,,66,001,2023_May_01_1250,ExactRep-v3-final,2021.2.3,59.97825204139874,
,,,,,,,,,,,,73,0,73,0,,,,,,,,,,,,,,,,,,,,,,,,,,,,,,,,,,,,,,,,,,,,,,,,,1299.334910299629,None,,,,,,,,,,,,,,,,,,,,,,,,,,,,,,,,,,,,,,,,,,,,,,,,,,,,,,,,,love,138,74,silent,new,blue,1297.9607090000063,None,n,1297.9607090000063,None,"['n', 'return']","[1.0448233000934124, 1.3406648999080062]",1297.9607090000063,None,,,66,001,2023_May_01_1250,ExactRep-v3-final,2021.2.3,59.97825204139874,
,,,,,,,,,,,,74,0,74,0,,,,,,,,,,,,,,,,,,,,,,,,,,,,,,,,,,,,,,,,,,,,,,,,,1301.3036019001156,None,,,,,,,,,,,,,,,,,,,,,,,,,,,,,,,,,,,,,,,,,,,,,,,,,,,,,,,,,beast,127,75,silent,new,blue,1299.8435933003202,None,n,1299.8435933003202,None,"['n', 'return']","[1.073951500467956, 1.4178929002955556]",1299.8435933003202,None,,,66,001,2023_May_01_1250,ExactRep-v3-final,2021.2.3,59.97825204139874,
,,,,,,,,,,,,75,0,75,0,,,,,,,,,,,,,,,,,,,,,,,,,,,,,,,,,,,,,,,,,,,,,,,,,1303.2889242004603,None,,,,,,,,,,,,,,,,,,,,,,,,,,,,,,,,,,,,,,,,,,,,,,,,,,,,,,,,,seat,141,76,silent,new,blue,1301.8128767004237,None,n,1301.8128767004237,None,"['n', 'return']","[1.121046400628984, 1.4408204006031156]",1301.8128767004237,None,,,66,001,2023_May_01_1250,ExactRep-v3-final,2021.2.3,59.97825204139874,
,,,,,,,,,,,,76,0,76,0,,,,,,,,,,,,,,,,,,,,,,,,,,,,,,,,,,,,,,,,,,,,,,,,,1305.1573759000748,None,,,,,,,,,,,,,,,,,,,,,,,,,,,,,,,,,,,,,,,,,,,,,,,,,,,,,,,,,vessel,9,77,sing,old,red,1303.7926880996674,None,y,1303.7926880996674,None,"['y', 'return']","[0.925127699971199, 1.3329084999859333]",1303.7926880996674,None,,,66,001,2023_May_01_1250,ExactRep-v3-final,2021.2.3,59.97825204139874,
,,,,,,,,,,,,77,0,77,0,,,,,,,,,,,,,,,,,,,,,,,,,,,,,,,,,,,,,,,,,,,,,,,,,1307.126159899868,None,,,,,,,,,,,,,,,,,,,,,,,,,,,,,,,,,,,,,,,,,,,,,,,,,,,,,,,,,friend,100,78,aloud,old,white,1305.669651599601,None,y,1305.669651599601,None,"['y', 'return']","[1.0396629003807902, 1.4158895006403327]",1305.669651599601,None,,,66,001,2023_May_01_1250,ExactRep-v3-final,2021.2.3,59.97825204139874,
,,,,,,,,,,,,78,0,78,0,,,,,,,,,,,,,,,,,,,,,,,,,,,,,,,,,,,,,,,,,,,,,,,,,1309.0781592000276,None,,,,,,,,,,,,,,,,,,,,,,,,,,,,,,,,,,,,,,,,,,,,,,,,,,,,,,,,,cattle,71,79,silent,old,blue,1307.6389942998067,None,n,1307.6389942998067,None,"['n', 'return']","[1.022647799924016, 1.40641999989748]",1307.6389942998067,None,,,66,001,2023_May_01_1250,ExactRep-v3-final,2021.2.3,59.97825204139874,
,,,,,,,,,,,,79,0,79,0,,,,,,,,,,,,,,,,,,,,,,,,,,,,,,,,,,,,,,,,,,,,,,,,,1313.1653843000531,None,,,,,,,,,,,,,,,,,,,,,,,,,,,,,,,,,,,,,,,,,,,,,,,,,,,,,,,,,silence,89,80,aloud,old,white,1309.5920316996053,None,y,1309.5920316996053,None,"['y', 'return']","[3.2215095004066825, 3.5415588999167085]",1309.5920316996053,None,,,66,001,2023_May_01_1250,ExactRep-v3-final,2021.2.3,59.97825204139874,
,,,,,,,,,,,,80,0,80,0,,,,,,,,,,,,,,,,,,,,,,,,,,,,,,,,,,,,,,,,,,,,,,,,,1315.4178651999682,None,,,,,,,,,,,,,,,,,,,,,,,,,,,,,,,,,,,,,,,,,,,,,,,,,,,,,,,,,church,176,81,aloud,new,white,1313.665869999677,None,y,1313.665869999677,None,"['y', 'return']","[1.0676134005188942, 1.707582900300622]",1313.665869999677,None,,,66,001,2023_May_01_1250,ExactRep-v3-final,2021.2.3,59.97825204139874,
,,,,,,,,,,,,81,0,81,0,,,,,,,,,,,,,,,,,,,,,,,,,,,,,,,,,,,,,,,,,,,,,,,,,1317.3196250004694,None,,,,,,,,,,,,,,,,,,,,,,,,,,,,,,,,,,,,,,,,,,,,,,,,,,,,,,,,,bottle,174,82,aloud,new,white,1315.9260568004102,None,n,1315.9260568004102,None,"['n', 'return']","[0.9753563003614545, 1.359357699751854]",1315.9260568004102,None,,,66,001,2023_May_01_1250,ExactRep-v3-final,2021.2.3,59.97825204139874,
,,,,,,,,,,,,82,0,82,0,,,,,,,,,,,,,,,,,,,,,,,,,,,,,,,,,,,,,,,,,,,,,,,,,1323.710391400382,None,,,,,,,,,,,,,,,,,,,,,,,,,,,,,,,,,,,,,,,,,,,,,,,,,,,,,,,,,child,213,83,sing,new,red,1317.8318851999938,None,y,1317.8318851999938,None,"['y', 'return']","[5.549604000523686, 5.837697099894285]",1317.8318851999938,None,,,66,001,2023_May_01_1250,ExactRep-v3-final,2021.2.3,59.97825204139874,
,,,,,,,,,,,,83,0,83,0,,,,,,,,,,,,,,,,,,,,,,,,,,,,,,,,,,,,,,,,,,,,,,,,,1325.828139799647,None,,,,,,,,,,,,,,,,,,,,,,,,,,,,,,,,,,,,,,,,,,,,,,,,,,,,,,,,,hall,143,84,silent,new,blue,1324.2240175995976,None,n,1324.2240175995976,None,"['n', 'return']","[1.1254068007692695, 1.5654548006132245]",1324.2240175995976,None,,,66,001,2023_May_01_1250,ExactRep-v3-final,2021.2.3,59.97825204139874,
,,,,,,,,,,,,84,0,84,0,,,,,,,,,,,,,,,,,,,,,,,,,,,,,,,,,,,,,,,,,,,,,,,,,1327.7801975999027,None,,,,,,,,,,,,,,,,,,,,,,,,,,,,,,,,,,,,,,,,,,,,,,,,,,,,,,,,,ship,211,85,sing,new,red,1326.3337674997747,None,n,1326.3337674997747,None,"['n', 'return']","[1.0157496007159352, 1.3998286006972194]",1326.3337674997747,None,,,66,001,2023_May_01_1250,ExactRep-v3-final,2021.2.3,59.97825204139874,
,,,,,,,,,,,,85,0,85,0,,,,,,,,,,,,,,,,,,,,,,,,,,,,,,,,,,,,,,,,,,,,,,,,,1329.782201799564,None,,,,,,,,,,,,,,,,,,,,,,,,,,,,,,,,,,,,,,,,,,,,,,,,,,,,,,,,,nail,122,86,silent,new,blue,1328.2940116003156,None,n,1328.2940116003156,None,"['n', 'return']","[0.9036072008311749, 1.4474702002480626]",1328.2940116003156,None,,,66,001,2023_May_01_1250,ExactRep-v3-final,2021.2.3,59.97825204139874,
,,,,,,,,,,,,86,0,86,0,,,,,,,,,,,,,,,,,,,,,,,,,,,,,,,,,,,,,,,,,,,,,,,,,1331.69054170046,None,,,,,,,,,,,,,,,,,,,,,,,,,,,,,,,,,,,,,,,,,,,,,,,,,,,,,,,,,death,198,87,aloud,new,white,1330.287453699857,None,y,1330.287453699857,None,"['y', 'return']","[0.9982738997787237, 1.3501335997134447]",1330.287453699857,None,,,66,001,2023_May_01_1250,ExactRep-v3-final,2021.2.3,59.97825204139874,
,,,,,,,,,,,,87,0,87,0,,,,,,,,,,,,,,,,,,,,,,,,,,,,,,,,,,,,,,,,,,,,,,,,,1333.6691928002983,None,,,,,,,,,,,,,,,,,,,,,,,,,,,,,,,,,,,,,,,,,,,,,,,,,,,,,,,,,author,118,88,aloud,old,white,1332.2044689999893,None,y,1332.2044689999893,None,"['y', 'return']","[1.0251385997980833, 1.4331197999417782]",1332.2044689999893,None,,,66,001,2023_May_01_1250,ExactRep-v3-final,2021.2.3,59.97825204139874,
,,,,,,,,,,,,88,0,88,0,,,,,,,,,,,,,,,,,,,,,,,,,,,,,,,,,,,,,,,,,,,,,,,,,1335.6546304002404,None,,,,,,,,,,,,,,,,,,,,,,,,,,,,,,,,,,,,,,,,,,,,,,,,,,,,,,,,,blossom,93,89,aloud,old,white,1334.1865606997162,None,n,1334.1865606997162,None,"['n', 'return']","[1.074974600225687, 1.4350610999390483]",1334.1865606997162,None,,,66,001,2023_May_01_1250,ExactRep-v3-final,2021.2.3,59.97825204139874,
,,,,,,,,,,,,89,0,89,0,,,,,,,,,,,,,,,,,,,,,,,,,,,,,,,,,,,,,,,,,,,,,,,,,1337.8567244000733,None,,,,,,,,,,,,,,,,,,,,,,,,,,,,,,,,,,,,,,,,,,,,,,,,,,,,,,,,,table,56,90,silent,old,blue,1336.1693946002051,None,y,1336.1693946002051,None,"['y', 'return']","[1.2600865997374058, 1.644055299460888]",1336.1693946002051,None,,,66,001,2023_May_01_1250,ExactRep-v3-final,2021.2.3,59.97825204139874,
,,,,,,,,,,,,90,0,90,0,,,,,,,,,,,,,,,,,,,,,,,,,,,,,,,,,,,,,,,,,,,,,,,,,1339.85883380007,None,,,,,,,,,,,,,,,,,,,,,,,,,,,,,,,,,,,,,,,,,,,,,,,,,,,,,,,,,chief,191,91,sing,new,red,1338.36966960039,None,y,1338.36966960039,None,"['y', 'return']","[1.0439101001247764, 1.4438918000087142]",1338.36966960039,None,,,66,001,2023_May_01_1250,ExactRep-v3-final,2021.2.3,59.97825204139874,
,,,,,,,,,,,,91,0,91,0,,,,,,,,,,,,,,,,,,,,,,,,,,,,,,,,,,,,,,,,,,,,,,,,,1343.445757499896,None,,,,,,,,,,,,,,,,,,,,,,,,,,,,,,,,,,,,,,,,,,,,,,,,,,,,,,,,,mother,129,92,silent,new,blue,1340.3695660997182,None,n,1340.3695660997182,None,"['n', 'return']","[2.715947600081563, 3.036042199470103]",1340.3695660997182,None,,,66,001,2023_May_01_1250,ExactRep-v3-final,2021.2.3,59.97825204139874,
,,,,,,,,,,,,92,0,92,0,,,,,,,,,,,,,,,,,,,,,,,,,,,,,,,,,,,,,,,,,,,,,,,,,1345.2475054003298,None,,,,,,,,,,,,,,,,,,,,,,,,,,,,,,,,,,,,,,,,,,,,,,,,,,,,,,,,,lake,130,93,silent,new,blue,1343.9545639995486,None,n,1343.9545639995486,None,"['n', 'return']","[0.9468277003616095, 1.2590164998546243]",1343.9545639995486,None,,,66,001,2023_May_01_1250,ExactRep-v3-final,2021.2.3,59.97825204139874,
,,,,,,,,,,,,93,0,93,0,,,,,,,,,,,,,,,,,,,,,,,,,,,,,,,,,,,,,,,,,,,,,,,,,1347.1660665003583,None,,,,,,,,,,,,,,,,,,,,,,,,,,,,,,,,,,,,,,,,,,,,,,,,,,,,,,,,,flag,58,94,silent,old,blue,1345.758836099878,None,y,1345.758836099878,None,"['y', 'return']","[1.0387995997443795, 1.3746617995202541]",1345.758836099878,None,,,66,001,2023_May_01_1250,ExactRep-v3-final,2021.2.3,59.97825204139874,
,,,,,,,,,,,,94,0,94,0,,,,,,,,,,,,,,,,,,,,,,,,,,,,,,,,,,,,,,,,,,,,,,,,,1349.3350919000804,None,,,,,,,,,,,,,,,,,,,,,,,,,,,,,,,,,,,,,,,,,,,,,,,,,,,,,,,,,moral,218,95,aloud,new,white,1347.676977599971,None,y,1347.676977599971,None,"['y', 'return']","[1.264716099947691, 1.6166054997593164]",1347.676977599971,None,,,66,001,2023_May_01_1250,ExactRep-v3-final,2021.2.3,59.97825204139874,
,,,,,,,,,,,,95,0,95,0,,,,,,,,,,,,,,,,,,,,,,,,,,,,,,,,,,,,,,,,,,,,,,,,,1352.1710892999545,None,,,,,,,,,,,,,,,,,,,,,,,,,,,,,,,,,,,,,,,,,,,,,,,,,,,,,,,,,engine,2,96,sing,old,red,1349.8471315000206,None,n,1349.8471315000206,None,"['n', 'return']","[1.9105118000879884, 2.2865277007222176]",1349.8471315000206,None,,,66,001,2023_May_01_1250,ExactRep-v3-final,2021.2.3,59.97825204139874,
,,,,,,,,,,,,96,0,96,0,,,,,,,,,,,,,,,,,,,,,,,,,,,,,,,,,,,,,,,,,,,,,,,,,1354.2899625999853,None,,,,,,,,,,,,,,,,,,,,,,,,,,,,,,,,,,,,,,,,,,,,,,,,,,,,,,,,,corn,45,97,silent,old,blue,1352.6803834997118,None,y,1352.6803834997118,None,"['y', 'return']","[1.2211998999118805, 1.5651096003130078]",1352.6803834997118,None,,,66,001,2023_May_01_1250,ExactRep-v3-final,2021.2.3,59.97825204139874,
,,,,,,,,,,,,97,0,97,0,,,,,,,,,,,,,,,,,,,,,,,,,,,,,,,,,,,,,,,,,,,,,,,,,1356.6589730996639,None,,,,,,,,,,,,,,,,,,,,,,,,,,,,,,,,,,,,,,,,,,,,,,,,,,,,,,,,,judge,92,98,aloud,old,white,1354.8014831999317,None,y,1354.8014831999317,None,"['y', 'return']","[1.380111400038004, 1.8119727997109294]",1354.8014831999317,None,,,66,001,2023_May_01_1250,ExactRep-v3-final,2021.2.3,59.97825204139874,
,,,,,,,,,,,,98,0,98,0,,,,,,,,,,,,,,,,,,,,,,,,,,,,,,,,,,,,,,,,,,,,,,,,,1358.8444980997592,None,,,,,,,,,,,,,,,,,,,,,,,,,,,,,,,,,,,,,,,,,,,,,,,,,,,,,,,,,lord,204,99,aloud,new,white,1357.1674971003085,None,n,1357.1674971003085,None,"['n', 'return']","[1.1181755997240543, 1.638106799684465]",1357.1674971003085,None,,,66,001,2023_May_01_1250,ExactRep-v3-final,2021.2.3,59.97825204139874,
,,,,,,,,,,,,99,0,99,0,,,,,,,,,,,,,,,,,,,,,,,,,,,,,,,,,,,,,,,,,,,,,,,,,1361.1300953999162,None,,,,,,,,,,,,,,,,,,,,,,,,,,,,,,,,,,,,,,,,,,,,,,,,,,,,,,,,,toy,125,100,silent,new,blue,1359.356846500188,None,y,1359.356846500188,None,"['y', 'return']","[1.3366554994136095, 1.7286069002002478]",1359.356846500188,None,,,66,001,2023_May_01_1250,ExactRep-v3-final,2021.2.3,59.97825204139874,
,,,,,,,,,,,,100,0,100,0,,,,,,,,,,,,,,,,,,,,,,,,,,,,,,,,,,,,,,,,,,,,,,,,,1363.5658785998821,None,,,,,,,,,,,,,,,,,,,,,,,,,,,,,,,,,,,,,,,,,,,,,,,,,,,,,,,,,humour,97,101,aloud,old,white,1361.641374300234,None,y,1361.641374300234,None,"['y', 'return']","[1.444156900048256, 1.8921697996556759]",1361.641374300234,None,,,66,001,2023_May_01_1250,ExactRep-v3-final,2021.2.3,59.97825204139874,
,,,,,,,,,,,,101,0,101,0,,,,,,,,,,,,,,,,,,,,,,,,,,,,,,,,,,,,,,,,,,,,,,,,,1365.7849070001394,None,,,,,,,,,,,,,,,,,,,,,,,,,,,,,,,,,,,,,,,,,,,,,,,,,,,,,,,,,stone,209,102,sing,new,red,1364.0756547003984,None,n,1364.0756547003984,None,"['n', 'return']","[1.218134299851954, 1.6739798001945019]",1364.0756547003984,None,,,66,001,2023_May_01_1250,ExactRep-v3-final,2021.2.3,59.97825204139874,
,,,,,,,,,,,,102,0,102,0,,,,,,,,,,,,,,,,,,,,,,,,,,,,,,,,,,,,,,,,,,,,,,,,,1367.8368151001632,None,,,,,,,,,,,,,,,,,,,,,,,,,,,,,,,,,,,,,,,,,,,,,,,,,,,,,,,,,coin,65,103,silent,old,blue,1366.293952899985,None,y,1366.293952899985,None,"['y', 'return']","[1.111539600417018, 1.4955694004893303]",1366.293952899985,None,,,66,001,2023_May_01_1250,ExactRep-v3-final,2021.2.3,59.97825204139874,
,,,,,,,,,,,,103,0,103,0,,,,,,,,,,,,,,,,,,,,,,,,,,,,,,,,,,,,,,,,,,,,,,,,,1370.055614599958,None,,,,,,,,,,,,,,,,,,,,,,,,,,,,,,,,,,,,,,,,,,,,,,,,,,,,,,,,,hotel,148,104,silent,new,blue,1368.3460379997268,None,y,1368.3460379997268,None,"['y', 'return']","[1.3156035002321005, 1.6755434004589915]",1368.3460379997268,None,,,66,001,2023_May_01_1250,ExactRep-v3-final,2021.2.3,59.97825204139874,
,,,,,,,,,,,,104,0,104,0,,,,,,,,,,,,,,,,,,,,,,,,,,,,,,,,,,,,,,,,,,,,,,,,,1372.0576932998374,None,,,,,,,,,,,,,,,,,,,,,,,,,,,,,,,,,,,,,,,,,,,,,,,,,,,,,,,,,shame,195,105,sing,new,red,1370.565280499868,None,n,1370.565280499868,None,"['n', 'return']","[1.104225699789822, 1.4562718998640776]",1370.565280499868,None,,,66,001,2023_May_01_1250,ExactRep-v3-final,2021.2.3,59.97825204139874,
,,,,,,,,,,,,105,0,105,0,,,,,,,,,,,,,,,,,,,,,,,,,,,,,,,,,,,,,,,,,,,,,,,,,1373.9762978004292,None,,,,,,,,,,,,,,,,,,,,,,,,,,,,,,,,,,,,,,,,,,,,,,,,,,,,,,,,,forest,114,106,aloud,old,white,1372.5652288999408,None,y,1372.5652288999408,None,"['y', 'return']","[1.000238100066781, 1.3762375004589558]",1372.5652288999408,None,,,66,001,2023_May_01_1250,ExactRep-v3-final,2021.2.3,59.97825204139874,
,,,,,,,,,,,,106,0,106,0,,,,,,,,,,,,,,,,,,,,,,,,,,,,,,,,,,,,,,,,,,,,,,,,,1377.013298300095,None,,,,,,,,,,,,,,,,,,,,,,,,,,,,,,,,,,,,,,,,,,,,,,,,,,,,,,,,,fault,77,107,silent,old,blue,1374.4852112997323,None,n,1374.4852112997323,None,"['n', 'return']","[1.880362999625504, 2.4882878996431828]",1374.4852112997323,None,,,66,001,2023_May_01_1250,ExactRep-v3-final,2021.2.3,59.97825204139874,
,,,,,,,,,,,,107,0,107,0,,,,,,,,,,,,,,,,,,,,,,,,,,,,,,,,,,,,,,,,,,,,,,,,,1379.0979663999751,None,,,,,,,,,,,,,,,,,,,,,,,,,,,,,,,,,,,,,,,,,,,,,,,,,,,,,,,,,glory,203,108,sing,new,red,1377.5221806000918,None,n,1377.5221806000918,None,"['n', 'return']","[1.1553763002157211, 1.5312788002192974]",1377.5221806000918,None,,,66,001,2023_May_01_1250,ExactRep-v3-final,2021.2.3,59.97825204139874,
,,,,,,,,,,,,108,0,108,0,,,,,,,,,,,,,,,,,,,,,,,,,,,,,,,,,,,,,,,,,,,,,,,,,1381.2169668003917,None,,,,,,,,,,,,,,,,,,,,,,,,,,,,,,,,,,,,,,,,,,,,,,,,,,,,,,,,,dream,66,109,silent,old,blue,1379.6121589997783,None,y,1379.6121589997783,None,"['y', 'return']","[1.1613563001155853, 1.5613257000222802]",1379.6121589997783,None,,,66,001,2023_May_01_1250,ExactRep-v3-final,2021.2.3,59.97825204139874,
,,,,,,,,,,,,109,0,109,0,,,,,,,,,,,,,,,,,,,,,,,,,,,,,,,,,,,,,,,,,,,,,,,,,1384.1364358998835,None,,,,,,,,,,,,,,,,,,,,,,,,,,,,,,,,,,,,,,,,,,,,,,,,,,,,,,,,,hour,48,110,silent,old,blue,1381.7278840998188,None,n,1381.7278840998188,None,"['n', 'return']","[2.045860600657761, 2.3656536005437374]",1381.7278840998188,None,,,66,001,2023_May_01_1250,ExactRep-v3-final,2021.2.3,59.97825204139874,
,,,,,,,,,,,,110,0,110,0,,,,,,,,,,,,,,,,,,,,,,,,,,,,,,,,,,,,,,,,,,,,,,,,,1389.4584427000955,None,,,,,,,,,,,,,,,,,,,,,,,,,,,,,,,,,,,,,,,,,,,,,,,,,,,,,,,,,mercy,152,111,silent,new,blue,1384.6476827999577,None,y,1384.6476827999577,None,"['y', 'return']","[4.49398020002991, 4.765878099948168]",1384.6476827999577,None,,,66,001,2023_May_01_1250,ExactRep-v3-final,2021.2.3,59.97825204139874,
,,,,,,,,,,,,111,0,111,0,,,,,,,,,,,,,,,,,,,,,,,,,,,,,,,,,,,,,,,,,,,,,,,,,1391.3102877996862,None,,,,,,,,,,,,,,,,,,,,,,,,,,,,,,,,,,,,,,,,,,,,,,,,,,,,,,,,,origin,167,112,sing,new,red,1389.9711418002844,None,n,1389.9711418002844,None,"['n', 'return']","[1.0185275999829173, 1.3064045999199152]",1389.9711418002844,None,,,66,001,2023_May_01_1250,ExactRep-v3-final,2021.2.3,59.97825204139874,
,,,,,,,,,,,,112,0,112,0,,,,,,,,,,,,,,,,,,,,,,,,,,,,,,,,,,,,,,,,,,,,,,,,,1393.2123376000673,None,,,,,,,,,,,,,,,,,,,,,,,,,,,,,,,,,,,,,,,,,,,,,,,,,,,,,,,,,gift,61,113,silent,old,blue,1391.8186331996694,None,y,1391.8186331996694,None,"['y', 'return']","[1.0192974004894495, 1.34707809984684]",1391.8186331996694,None,,,66,001,2023_May_01_1250,ExactRep-v3-final,2021.2.3,59.97825204139874,
,,,,,,,,,,,,113,0,113,0,,,,,,,,,,,,,,,,,,,,,,,,,,,,,,,,,,,,,,,,,,,,,,,,,1395.8147641997784,None,,,,,,,,,,,,,,,,,,,,,,,,,,,,,,,,,,,,,,,,,,,,,,,,,,,,,,,,,truth,24,114,sing,old,red,1393.7257978999987,None,y,1393.7257978999987,None,"['y', 'return']","[1.7037939000874758, 2.0477940998971462]",1393.7257978999987,None,,,66,001,2023_May_01_1250,ExactRep-v3-final,2021.2.3,59.97825204139874,
,,,,,,,,,,,,114,0,114,0,,,,,,,,,,,,,,,,,,,,,,,,,,,,,,,,,,,,,,,,,,,,,,,,,1400.119237500243,None,,,,,,,,,,,,,,,,,,,,,,,,,,,,,,,,,,,,,,,,,,,,,,,,,,,,,,,,,justice,223,115,sing,new,red,1396.3246819004416,None,y,1396.3246819004416,None,"['n', 'y', 'backspace', 'y', 'return']","[1.0649998001754284, 2.168912500143051, 2.832900899462402, 3.472944799810648, 3.760855400003493]",1396.3246819004416,None,,,66,001,2023_May_01_1250,ExactRep-v3-final,2021.2.3,59.97825204139874,
,,,,,,,,,,,,115,0,115,0,,,,,,,,,,,,,,,,,,,,,,,,,,,,,,,,,,,,,,,,,,,,,,,,,1402.171071499586,None,,,,,,,,,,,,,,,,,,,,,,,,,,,,,,,,,,,,,,,,,,,,,,,,,,,,,,,,,apple,113,116,aloud,old,white,1400.6289132004604,None,n,1400.6289132004604,None,"['n', 'return']","[1.1846308996900916, 1.4965455997735262]",1400.6289132004604,None,,,66,001,2023_May_01_1250,ExactRep-v3-final,2021.2.3,59.97825204139874,
,,,,,,,,,,,,116,0,116,0,,,,,,,,,,,,,,,,,,,,,,,,,,,,,,,,,,,,,,,,,,,,,,,,,1404.0565349999815,None,,,,,,,,,,,,,,,,,,,,,,,,,,,,,,,,,,,,,,,,,,,,,,,,,,,,,,,,,science,6,117,sing,old,red,1402.6808872995898,None,y,1402.6808872995898,None,"['y', 'return']","[1.0527455992996693, 1.3406919995322824]",1402.6808872995898,None,,,66,001,2023_May_01_1250,ExactRep-v3-final,2021.2.3,59.97825204139874,
,,,,,,,,,,,,117,0,117,0,,,,,,,,,,,,,,,,,,,,,,,,,,,,,,,,,,,,,,,,,,,,,,,,,1406.2084398996085,None,,,,,,,,,,,,,,,,,,,,,,,,,,,,,,,,,,,,,,,,,,,,,,,,,,,,,,,,,shore,33,118,sing,old,red,1404.564549099654,None,y,1404.564549099654,None,"['y', 'return']","[1.313123100437224, 1.601019199937582]",1404.564549099654,None,,,66,001,2023_May_01_1250,ExactRep-v3-final,2021.2.3,59.97825204139874,
,,,,,,,,,,,,118,0,118,0,,,,,,,,,,,,,,,,,,,,,,,,,,,,,,,,,,,,,,,,,,,,,,,,,1408.8610902996734,None,,,,,,,,,,,,,,,,,,,,,,,,,,,,,,,,,,,,,,,,,,,,,,,,,,,,,,,,,colony,8,119,sing,old,red,1406.7198192002252,None,n,1406.7198192002252,None,"['n', 'return']","[1.8217763006687164, 2.093748200684786]",1406.7198192002252,None,,,66,001,2023_May_01_1250,ExactRep-v3-final,2021.2.3,59.97825204139874,
,,,,,,,,,,,,119,0,119,0,,,,,,,,,,,,,,,,,,,,,,,,,,,,,,,,,,,,,,,,,,,,,,,,,1410.7129610003904,None,,,,,,,,,,,,,,,,,,,,,,,,,,,,,,,,,,,,,,,,,,,,,,,,,,,,,,,,,car,108,120,aloud,old,white,1409.3701475001872,None,y,1409.3701475001872,None,"['y', 'return']","[1.0594591004773974, 1.307706500403583]",1409.3701475001872,None,,,66,001,2023_May_01_1250,ExactRep-v3-final,2021.2.3,59.97825204139874,
,,,,,,,,,,,,120,0,120,0,,,,,,,,,,,,,,,,,,,,,,,,,,,,,,,,,,,,,,,,,,,,,,,,,1412.9319152003154,None,,,,,,,,,,,,,,,,,,,,,,,,,,,,,,,,,,,,,,,,,,,,,,,,,,,,,,,,,meadow,60,121,silent,old,blue,1411.2260696999729,None,n,1411.2260696999729,None,"['n', 'return']","[1.299735900014639, 1.6676072999835014]",1411.2260696999729,None,,,66,001,2023_May_01_1250,ExactRep-v3-final,2021.2.3,59.97825204139874,
,,,,,,,,,,,,121,0,121,0,,,,,,,,,,,,,,,,,,,,,,,,,,,,,,,,,,,,,,,,,,,,,,,,,1416.11839970015,None,,,,,,,,,,,,,,,,,,,,,,,,,,,,,,,,,,,,,,,,,,,,,,,,,,,,,,,,,library,140,122,silent,new,blue,1413.442847800441,None,n,1413.442847800441,None,"['n', 'return']","[2.186731799505651, 2.6426908001303673]",1413.442847800441,None,,,66,001,2023_May_01_1250,ExactRep-v3-final,2021.2.3,59.97825204139874,
,,,,,,,,,,,,122,0,122,0,,,,,,,,,,,,,,,,,,,,,,,,,,,,,,,,,,,,,,,,,,,,,,,,,1417.970229900442,None,,,,,,,,,,,,,,,,,,,,,,,,,,,,,,,,,,,,,,,,,,,,,,,,,,,,,,,,,insect,177,123,sing,new,red,1416.6277005998418,None,n,1416.6277005998418,None,"['n', 'return']","[0.9938866002485156, 1.3058564001694322]",1416.6277005998418,None,,,66,001,2023_May_01_1250,ExactRep-v3-final,2021.2.3,59.97825204139874,
,,,,,,,,,,,,123,0,123,0,,,,,,,,,,,,,,,,,,,,,,,,,,,,,,,,,,,,,,,,,,,,,,,,,1420.1058280002326,None,,,,,,,,,,,,,,,,,,,,,,,,,,,,,,,,,,,,,,,,,,,,,,,,,,,,,,,,,dust,201,124,sing,new,red,1418.481296500191,None,n,1418.481296500191,None,"['n', 'return']","[1.2763716001063585, 1.580189200118184]",1418.481296500191,None,,,66,001,2023_May_01_1250,ExactRep-v3-final,2021.2.3,59.97825204139874,
,,,,,,,,,,,,124,0,124,0,,,,,,,,,,,,,,,,,,,,,,,,,,,,,,,,,,,,,,,,,,,,,,,,,1421.9575904002413,None,,,,,,,,,,,,,,,,,,,,,,,,,,,,,,,,,,,,,,,,,,,,,,,,,,,,,,,,,form,35,125,sing,old,red,1420.6184480004013,None,y,1420.6184480004013,None,"['y', 'return']","[1.027211899869144, 1.3070717994123697]",1420.6184480004013,None,,,66,001,2023_May_01_1250,ExactRep-v3-final,2021.2.3,59.97825204139874,
,,,,,,,,,,,,125,0,125,0,,,,,,,,,,,,,,,,,,,,,,,,,,,,,,,,,,,,,,,,,,,,,,,,,1424.877319900319,None,,,,,,,,,,,,,,,,,,,,,,,,,,,,,,,,,,,,,,,,,,,,,,,,,,,,,,,,,fun,0,126,sing,old,red,1422.464829299599,None,y,1422.464829299599,None,"['y', 'return']","[2.11660569999367, 2.3728347001597285]",1422.464829299599,None,,,66,001,2023_May_01_1250,ExactRep-v3-final,2021.2.3,59.97825204139874,
,,,,,,,,,,,,126,0,126,0,,,,,,,,,,,,,,,,,,,,,,,,,,,,,,,,,,,,,,,,,,,,,,,,,1426.9291941998526,None,,,,,,,,,,,,,,,,,,,,,,,,,,,,,,,,,,,,,,,,,,,,,,,,,,,,,,,,,girl,52,127,silent,old,blue,1425.3888675998896,None,y,1425.3888675998896,None,"['y', 'return']","[1.1766691002994776, 1.4967638002708554]",1425.3888675998896,None,,,66,001,2023_May_01_1250,ExactRep-v3-final,2021.2.3,59.97825204139874,
,,,,,,,,,,,,127,0,127,0,,,,,,,,,,,,,,,,,,,,,,,,,,,,,,,,,,,,,,,,,,,,,,,,,1429.1814174000174,None,,,,,,,,,,,,,,,,,,,,,,,,,,,,,,,,,,,,,,,,,,,,,,,,,,,,,,,,,power,41,128,silent,old,blue,1427.441737599671,None,n,1427.441737599671,None,"['n', 'return']","[1.1640426004305482, 1.7079149996861815]",1427.441737599671,None,,,66,001,2023_May_01_1250,ExactRep-v3-final,2021.2.3,59.97825204139874,
,,,,,,,,,,,,128,0,128,0,,,,,,,,,,,,,,,,,,,,,,,,,,,,,,,,,,,,,,,,,,,,,,,,,1434.2700070999563,None,,,,,,,,,,,,,,,,,,,,,,,,,,,,,,,,,,,,,,,,,,,,,,,,,,,,,,,,,ticket,172,129,aloud,new,white,1429.6913938000798,None,n,1429.6913938000798,None,"['n', 'return']","[4.290068699978292, 4.538211800158024]",1429.6913938000798,None,,,66,001,2023_May_01_1250,ExactRep-v3-final,2021.2.3,59.97825204139874,
,,,,,,,,,,,,129,0,129,0,,,,,,,,,,,,,,,,,,,,,,,,,,,,,,,,,,,,,,,,,,,,,,,,,1437.155976000242,None,,,,,,,,,,,,,,,,,,,,,,,,,,,,,,,,,,,,,,,,,,,,,,,,,,,,,,,,,butter,40,130,silent,old,blue,1434.779577200301,None,n,1434.779577200301,None,"['n', 'return']","[2.074203399941325, 2.3380813002586365]",1434.779577200301,None,,,66,001,2023_May_01_1250,ExactRep-v3-final,2021.2.3,59.97825204139874,
,,,,,,,,,,,,130,0,130,0,,,,,,,,,,,,,,,,,,,,,,,,,,,,,,,,,,,,,,,,,,,,,,,,,1439.041227900423,None,,,,,,,,,,,,,,,,,,,,,,,,,,,,,,,,,,,,,,,,,,,,,,,,,,,,,,,,,wine,55,131,silent,old,blue,1437.664818899706,None,n,1437.664818899706,None,"['n', 'return']","[1.052917399443686, 1.332719199359417]",1437.664818899706,None,,,66,001,2023_May_01_1250,ExactRep-v3-final,2021.2.3,59.97825204139874,
,,,,,,,,,,,,131,0,131,0,,,,,,,,,,,,,,,,,,,,,,,,,,,,,,,,,,,,,,,,,,,,,,,,,1441.5438457001,None,,,,,,,,,,,,,,,,,,,,,,,,,,,,,,,,,,,,,,,,,,,,,,,,,,,,,,,,,meat,200,132,aloud,new,white,1439.5532106002793,None,n,1439.5532106002793,None,"['n', 'return']","[1.6926782997325063, 1.9484214996919036]",1439.5532106002793,None,,,66,001,2023_May_01_1250,ExactRep-v3-final,2021.2.3,59.97825204139874,
