trials_fam.thisRepN,trials_fam.thisTrialN,trials_fam.thisN,trials_fam.thisIndex,trials_prc.thisRepN,trials_prc.thisTrialN,trials_prc.thisN,trials_prc.thisIndex,StudyLoop.thisRepN,StudyLoop.thisTrialN,StudyLoop.thisN,StudyLoop.thisIndex,TestLoop.thisRepN,TestLoop.thisTrialN,TestLoop.thisN,TestLoop.thisIndex,text_colortest.started,text_colortest.stopped,key_colortest.keys,key_colortest.rt,key_colortest.started,key_colortest.stopped,textCondition.started,textCondition.stopped,keyCondition.keys,keyCondition.rt,keyCondition.started,keyCondition.stopped,Condition_between,Condition_counterbal,keyWelcome.keys,keyWelcome.rt,keyWelcome.started,keyWelcome.stopped,welcome_a.started,welcome_a.stopped,welcome_b.started,welcome_b.stopped,welcome_c.started,welcome_c.stopped,welcome_d.started,welcome_d.stopped,welcome_e.started,welcome_e.stopped,welcome_f.started,welcome_f.stopped,key_resp_fam_inst.keys,key_resp_fam_inst.rt,key_resp_fam_inst.started,key_resp_fam_inst.stopped,fam_a.started,fam_a.stopped,fam_b.started,fam_b.stopped,fam_c.started,fam_c.stopped,fam_d.started,fam_d.stopped,fam_e.started,fam_e.stopped,fam_f.started,fam_f.stopped,text_famil.started,text_famil.stopped,textBlank500.started,textBlank500.stopped,key_resp_prc_inst.keys,key_resp_prc_inst.rt,key_resp_prc_inst.started,key_resp_prc_inst.stopped,prac_a.started,prac_a.stopped,prac_b.started,prac_b.stopped,prac_c.started,prac_c.stopped,prac_d.started,prac_d.stopped,prac_e.started,prac_e.stopped,prac_f.started,prac_f.stopped,text_prc_trial.started,text_prc_trial.stopped,key_resp_study_inst.keys,key_resp_study_inst.rt,key_resp_study_inst.started,key_resp_study_inst.stopped,crit_a.started,crit_a.stopped,crit_b.started,crit_b.stopped,crit_c.started,crit_c.stopped,crit_d.started,crit_d.stopped,crit_e.started,crit_e.stopped,crit_f.started,crit_f.stopped,study_word,study_num,study_order,study_type,word_color,textStudy.started,textStudy.stopped,keyStudy.keys,keyStudy.started,keyStudy.stopped,post_study.started,post_study.stopped,key_resp_post_study.keys,key_resp_post_study.rt,key_resp_post_study.started,key_resp_post_study.stopped,test_inst.started,test_inst.stopped,key_resp_test_inst.keys,key_resp_test_inst.rt,key_resp_test_inst.started,key_resp_test_inst.stopped,test_word,test_num,test_order,test_condition,old_new_test,word_color_test,textConf.started,textConf.stopped,Participant Response,textInput.started,textInput.stopped,keyResp.keys,keyResp.rt,keyResp.started,keyResp.stopped,textEnd.started,textEnd.stopped,participant,session,date,expName,psychopyVersion,frameRate,
,,,,,,,,,,,,,,,,12.606161899864674,None,n,0.6539869997650385,12.606161899864674,None,,,,,,,,,,,,,,,,,,,,,,,,,,,,,,,,,,,,,,,,,,,,,,,,,,,,,,,,,,,,,,,,,,,,,,,,,,,,,,,,,,,,,,,,,,,,,,,,,,,,,,,,,,,,,,,,,,,,,,67,001,2023_May_01_1320,ExactRep-v3-final,2021.2.3,59.94039543098589,
,,,,,,,,,,,,,,,,,,,,,,13.285837000235915,None,a,0.8463042005896568,13.285837000235915,None,,,,,,,,,,,,,,,,,,,,,,,,,,,,,,,,,,,,,,,,,,,,,,,,,,,,,,,,,,,,,,,,,,,,,,,,,,,,,,,,,,,,,,,,,,,,,,,,,,,,,,,,,,,,,,,,67,001,2023_May_01_1320,ExactRep-v3-final,2021.2.3,59.94039543098589,
,,,,,,,,,,,,,,,,,,,,,,,,,,,,whitefoils,a,space,161.38089649938047,24.255427200347185,None,,,,,,,,,,,,,,,,,,,,,,,,,,,,,,,,,,,,,,,,,,,,,,,,,,,,,,,,,,,,,,,,,,,,,,,,,,,,,,,,,,,,,,,,,,,,,,,,,,,,,,,,,,67,001,2023_May_01_1320,ExactRep-v3-final,2021.2.3,59.94039543098589,
,,,,,,,,,,,,,,,,,,,,,,,,,,,,,,,,,,14.29742470011115,None,14.29742470011115,None,14.29742470011115,None,14.29742470011115,None,14.29742470011115,None,14.29742470011115,None,space,18.210387700237334,195.8263194002211,None,,,,,,,,,,,,,,,,,,,,,,,,,,,,,,,,,,,,,,,,,,,,,,,,,,,,,,,,,,,,,,,,,,,,,,,,,,,,,,,,,,,,,,,,,,67,001,2023_May_01_1320,ExactRep-v3-final,2021.2.3,59.94039543098589,
0,0,0,0,,,,,,,,,,,,,,,,,,,,,,,,,,,,,,,,,,,,,,,,,,,,,,,185.8199681006372,None,185.8199681006372,None,185.8199681006372,None,185.8199681006372,None,185.8199681006372,None,185.8199681006372,None,214.11021149996668,None,216.12201699987054,None,,,,,,,,,,,,,,,,,,,,,,,,,,,,,,,,,,,,,,,,,,,,,,,,,,,,,,,,,,,,,,,,,,,,,,,,,,67,001,2023_May_01_1320,ExactRep-v3-final,2021.2.3,59.94039543098589,
1,0,1,0,,,,,,,,,,,,,,,,,,,,,,,,,,,,,,,,,,,,,,,,,,,,,,,,,,,,,,,,,,,216.60806290060282,None,218.60788800008595,None,,,,,,,,,,,,,,,,,,,,,,,,,,,,,,,,,,,,,,,,,,,,,,,,,,,,,,,,,,,,,,,,,,,,,,,,,,67,001,2023_May_01_1320,ExactRep-v3-final,2021.2.3,59.94039543098589,
2,0,2,0,,,,,,,,,,,,,,,,,,,,,,,,,,,,,,,,,,,,,,,,,,,,,,,,,,,,,,,,,,,219.16738819982857,None,221.1273530004546,None,,,,,,,,,,,,,,,,,,,,,,,,,,,,,,,,,,,,,,,,,,,,,,,,,,,,,,,,,,,,,,,,,,,,,,,,,,67,001,2023_May_01_1320,ExactRep-v3-final,2021.2.3,59.94039543098589,
3,0,3,0,,,,,,,,,,,,,,,,,,,,,,,,,,,,,,,,,,,,,,,,,,,,,,,,,,,,,,,,,,,221.62757450062782,None,223.6297064004466,None,,,,,,,,,,,,,,,,,,,,,,,,,,,,,,,,,,,,,,,,,,,,,,,,,,,,,,,,,,,,,,,,,,,,,,,,,,67,001,2023_May_01_1320,ExactRep-v3-final,2021.2.3,59.94039543098589,
4,0,4,0,,,,,,,,,,,,,,,,,,,,,,,,,,,,,,,,,,,,,,,,,,,,,,,,,,,,,,,,,,,224.1345859998837,None,226.1489310003817,None,,,,,,,,,,,,,,,,,,,,,,,,,,,,,,,,,,,,,,,,,,,,,,,,,,,,,,,,,,,,,,,,,,,,,,,,,,67,001,2023_May_01_1320,ExactRep-v3-final,2021.2.3,59.94039543098589,
5,0,5,0,,,,,,,,,,,,,,,,,,,,,,,,,,,,,,,,,,,,,,,,,,,,,,,,,,,,,,,,,,,226.64930440019816,None,228.6513622002676,None,,,,,,,,,,,,,,,,,,,,,,,,,,,,,,,,,,,,,,,,,,,,,,,,,,,,,,,,,,,,,,,,,,,,,,,,,,67,001,2023_May_01_1320,ExactRep-v3-final,2021.2.3,59.94039543098589,
6,0,6,0,,,,,,,,,,,,,,,,,,,,,,,,,,,,,,,,,,,,,,,,,,,,,,,,,,,,,,,,,,,229.16259100008756,None,231.17024600040168,None,,,,,,,,,,,,,,,,,,,,,,,,,,,,,,,,,,,,,,,,,,,,,,,,,,,,,,,,,,,,,,,,,,,,,,,,,,67,001,2023_May_01_1320,ExactRep-v3-final,2021.2.3,59.94039543098589,
7,0,7,0,,,,,,,,,,,,,,,,,,,,,,,,,,,,,,,,,,,,,,,,,,,,,,,,,,,,,,,,,,,231.670773900114,None,233.67312750034034,None,,,,,,,,,,,,,,,,,,,,,,,,,,,,,,,,,,,,,,,,,,,,,,,,,,,,,,,,,,,,,,,,,,,,,,,,,,67,001,2023_May_01_1320,ExactRep-v3-final,2021.2.3,59.94039543098589,
8,0,8,0,,,,,,,,,,,,,,,,,,,,,,,,,,,,,,,,,,,,,,,,,,,,,,,,,,,,,,,,,,,234.1825716001913,None,236.19235249981284,None,,,,,,,,,,,,,,,,,,,,,,,,,,,,,,,,,,,,,,,,,,,,,,,,,,,,,,,,,,,,,,,,,,,,,,,,,,67,001,2023_May_01_1320,ExactRep-v3-final,2021.2.3,59.94039543098589,
9,0,9,0,,,,,,,,,,,,,,,,,,,,,,,,,,,,,,,,,,,,,,,,,,,,,,,,,,,,,,,,,,,236.69290080014616,None,238.6945962002501,None,,,,,,,,,,,,,,,,,,,,,,,,,,,,,,,,,,,,,,,,,,,,,,,,,,,,,,,,,,,,,,,,,,,,,,,,,,67,001,2023_May_01_1320,ExactRep-v3-final,2021.2.3,59.94039543098589,
10,0,10,0,,,,,,,,,,,,,,,,,,,,,,,,,,,,,,,,,,,,,,,,,,,,,,,,,,,,,,,,,,,239.195036300458,None,241.19746500067413,None,,,,,,,,,,,,,,,,,,,,,,,,,,,,,,,,,,,,,,,,,,,,,,,,,,,,,,,,,,,,,,,,,,,,,,,,,,67,001,2023_May_01_1320,ExactRep-v3-final,2021.2.3,59.94039543098589,
11,0,11,0,,,,,,,,,,,,,,,,,,,,,,,,,,,,,,,,,,,,,,,,,,,,,,,,,,,,,,,,,,,241.70610969979316,None,243.71658380050212,None,,,,,,,,,,,,,,,,,,,,,,,,,,,,,,,,,,,,,,,,,,,,,,,,,,,,,,,,,,,,,,,,,,,,,,,,,,67,001,2023_May_01_1320,ExactRep-v3-final,2021.2.3,59.94039543098589,
12,0,12,0,,,,,,,,,,,,,,,,,,,,,,,,,,,,,,,,,,,,,,,,,,,,,,,,,,,,,,,,,,,244.21699609979987,None,246.21890570037067,None,,,,,,,,,,,,,,,,,,,,,,,,,,,,,,,,,,,,,,,,,,,,,,,,,,,,,,,,,,,,,,,,,,,,,,,,,,67,001,2023_May_01_1320,ExactRep-v3-final,2021.2.3,59.94039543098589,
13,0,13,0,,,,,,,,,,,,,,,,,,,,,,,,,,,,,,,,,,,,,,,,,,,,,,,,,,,,,,,,,,,246.71931640058756,None,248.7212530998513,None,,,,,,,,,,,,,,,,,,,,,,,,,,,,,,,,,,,,,,,,,,,,,,,,,,,,,,,,,,,,,,,,,,,,,,,,,,67,001,2023_May_01_1320,ExactRep-v3-final,2021.2.3,59.94039543098589,
14,0,14,0,,,,,,,,,,,,,,,,,,,,,,,,,,,,,,,,,,,,,,,,,,,,,,,,,,,,,,,,,,,249.22183190006763,None,251.2238154001534,None,,,,,,,,,,,,,,,,,,,,,,,,,,,,,,,,,,,,,,,,,,,,,,,,,,,,,,,,,,,,,,,,,,,,,,,,,,67,001,2023_May_01_1320,ExactRep-v3-final,2021.2.3,59.94039543098589,
,,,,,,,,,,,,,,,,,,,,,,,,,,,,,,,,,,,,,,,,,,,,,,,,,,,,,,,,,,,,,,,,,,space,22.38321920018643,261.8615650003776,None,,,,,,,,,,,,,,,,,,,,,,,,,,,,,,,,,,,,,,,,,,,,,,,,,,,,,,,,,,,,,,,,,,,,,,67,001,2023_May_01_1320,ExactRep-v3-final,2021.2.3,59.94039543098589,
,,,,0,0,0,0,,,,,,,,,,,,,,,,,,,,,,,,,,,,,,,,,,,,,,,,,,,,,,,,,,,,,,,,,286.3422770006582,None,,,,,251.88715639989823,None,251.88715639989823,None,251.88715639989823,None,251.88715639989823,None,251.88715639989823,None,251.88715639989823,None,284.33698070049286,None,,,,,,,,,,,,,,,,,,,,,,,,,,,,,,,,,,,,,,,,,,,,,,,,,,,,,,,,67,001,2023_May_01_1320,ExactRep-v3-final,2021.2.3,59.94039543098589,
,,,,1,0,1,0,,,,,,,,,,,,,,,,,,,,,,,,,,,,,,,,,,,,,,,,,,,,,,,,,,,,,,,,,288.8447655001655,None,,,,,,,,,,,,,,,,,286.84300970006734,None,,,,,,,,,,,,,,,,,,,,,,,,,,,,,,,,,,,,,,,,,,,,,,,,,,,,,,,,67,001,2023_May_01_1320,ExactRep-v3-final,2021.2.3,59.94039543098589,
,,,,2,0,2,0,,,,,,,,,,,,,,,,,,,,,,,,,,,,,,,,,,,,,,,,,,,,,,,,,,,,,,,,,291.3475855998695,None,,,,,,,,,,,,,,,,,289.3455055998638,None,,,,,,,,,,,,,,,,,,,,,,,,,,,,,,,,,,,,,,,,,,,,,,,,,,,,,,,,67,001,2023_May_01_1320,ExactRep-v3-final,2021.2.3,59.94039543098589,
,,,,3,0,3,0,,,,,,,,,,,,,,,,,,,,,,,,,,,,,,,,,,,,,,,,,,,,,,,,,,,,,,,,,293.8497726004571,None,,,,,,,,,,,,,,,,,291.8481167005375,None,,,,,,,,,,,,,,,,,,,,,,,,,,,,,,,,,,,,,,,,,,,,,,,,,,,,,,,,67,001,2023_May_01_1320,ExactRep-v3-final,2021.2.3,59.94039543098589,
,,,,4,0,4,0,,,,,,,,,,,,,,,,,,,,,,,,,,,,,,,,,,,,,,,,,,,,,,,,,,,,,,,,,296.3524839999154,None,,,,,,,,,,,,,,,,,294.350503699854,None,,,,,,,,,,,,,,,,,,,,,,,,,,,,,,,,,,,,,,,,,,,,,,,,,,,,,,,,67,001,2023_May_01_1320,ExactRep-v3-final,2021.2.3,59.94039543098589,
,,,,5,0,5,0,,,,,,,,,,,,,,,,,,,,,,,,,,,,,,,,,,,,,,,,,,,,,,,,,,,,,,,,,298.8550219004974,None,,,,,,,,,,,,,,,,,296.85298170056194,None,,,,,,,,,,,,,,,,,,,,,,,,,,,,,,,,,,,,,,,,,,,,,,,,,,,,,,,,67,001,2023_May_01_1320,ExactRep-v3-final,2021.2.3,59.94039543098589,
,,,,6,0,6,0,,,,,,,,,,,,,,,,,,,,,,,,,,,,,,,,,,,,,,,,,,,,,,,,,,,,,,,,,301.35746050067246,None,,,,,,,,,,,,,,,,,299.3555327001959,None,,,,,,,,,,,,,,,,,,,,,,,,,,,,,,,,,,,,,,,,,,,,,,,,,,,,,,,,67,001,2023_May_01_1320,ExactRep-v3-final,2021.2.3,59.94039543098589,
,,,,7,0,7,0,,,,,,,,,,,,,,,,,,,,,,,,,,,,,,,,,,,,,,,,,,,,,,,,,,,,,,,,,303.86016990058124,None,,,,,,,,,,,,,,,,,301.85798209998757,None,,,,,,,,,,,,,,,,,,,,,,,,,,,,,,,,,,,,,,,,,,,,,,,,,,,,,,,,67,001,2023_May_01_1320,ExactRep-v3-final,2021.2.3,59.94039543098589,
,,,,8,0,8,0,,,,,,,,,,,,,,,,,,,,,,,,,,,,,,,,,,,,,,,,,,,,,,,,,,,,,,,,,306.3625525999814,None,,,,,,,,,,,,,,,,,304.3605909002945,None,,,,,,,,,,,,,,,,,,,,,,,,,,,,,,,,,,,,,,,,,,,,,,,,,,,,,,,,67,001,2023_May_01_1320,ExactRep-v3-final,2021.2.3,59.94039543098589,
,,,,9,0,9,0,,,,,,,,,,,,,,,,,,,,,,,,,,,,,,,,,,,,,,,,,,,,,,,,,,,,,,,,,308.86477860063314,None,,,,,,,,,,,,,,,,,306.86306119989604,None,,,,,,,,,,,,,,,,,,,,,,,,,,,,,,,,,,,,,,,,,,,,,,,,,,,,,,,,67,001,2023_May_01_1320,ExactRep-v3-final,2021.2.3,59.94039543098589,
,,,,10,0,10,0,,,,,,,,,,,,,,,,,,,,,,,,,,,,,,,,,,,,,,,,,,,,,,,,,,,,,,,,,311.36742429994047,None,,,,,,,,,,,,,,,,,309.36530810035765,None,,,,,,,,,,,,,,,,,,,,,,,,,,,,,,,,,,,,,,,,,,,,,,,,,,,,,,,,67,001,2023_May_01_1320,ExactRep-v3-final,2021.2.3,59.94039543098589,
,,,,11,0,11,0,,,,,,,,,,,,,,,,,,,,,,,,,,,,,,,,,,,,,,,,,,,,,,,,,,,,,,,,,313.87001410033554,None,,,,,,,,,,,,,,,,,311.8679873002693,None,,,,,,,,,,,,,,,,,,,,,,,,,,,,,,,,,,,,,,,,,,,,,,,,,,,,,,,,67,001,2023_May_01_1320,ExactRep-v3-final,2021.2.3,59.94039543098589,
,,,,12,0,12,0,,,,,,,,,,,,,,,,,,,,,,,,,,,,,,,,,,,,,,,,,,,,,,,,,,,,,,,,,316.37226529978216,None,,,,,,,,,,,,,,,,,314.37048889975995,None,,,,,,,,,,,,,,,,,,,,,,,,,,,,,,,,,,,,,,,,,,,,,,,,,,,,,,,,67,001,2023_May_01_1320,ExactRep-v3-final,2021.2.3,59.94039543098589,
,,,,13,0,13,0,,,,,,,,,,,,,,,,,,,,,,,,,,,,,,,,,,,,,,,,,,,,,,,,,,,,,,,,,318.8749064002186,None,,,,,,,,,,,,,,,,,316.8731099003926,None,,,,,,,,,,,,,,,,,,,,,,,,,,,,,,,,,,,,,,,,,,,,,,,,,,,,,,,,67,001,2023_May_01_1320,ExactRep-v3-final,2021.2.3,59.94039543098589,
,,,,14,0,14,0,,,,,,,,,,,,,,,,,,,,,,,,,,,,,,,,,,,,,,,,,,,,,,,,,,,,,,,,,321.3772728005424,None,,,,,,,,,,,,,,,,,319.37543640006334,None,,,,,,,,,,,,,,,,,,,,,,,,,,,,,,,,,,,,,,,,,,,,,,,,,,,,,,,,67,001,2023_May_01_1320,ExactRep-v3-final,2021.2.3,59.94039543098589,
,,,,,,,,,,,,,,,,,,,,,,,,,,,,,,,,,,,,,,,,,,,,,,,,,,,,,,,,,,,,,,,,,,,,,,,,,,,,,,,,,,,,space,26.48261380009353,331.98578639980406,None,,,,,,,,,,,,,,,,,,,,,,,,,,,,,,,,,,,,,,,,,,,,,,,,,,,,67,001,2023_May_01_1320,ExactRep-v3-final,2021.2.3,59.94039543098589,
,,,,,,,,0,0,0,0,,,,,,,,,,,,,,,,,,,,,,,,,,,,,,,,,,,,,,,,,,,,,,,,,,,,,360.5830241004005,None,,,,,,,,,,,,,,,,,,,,,,,322.0258841998875,None,322.0258841998875,None,322.0258841998875,None,322.0258841998875,None,322.0258841998875,None,322.0258841998875,None,machine,26,1,sing,white,358.58284340053797,None,None,358.58284340053797,None,,,,,,,,,,,,,,,,,,,,,,,,,,,,,,67,001,2023_May_01_1320,ExactRep-v3-final,2021.2.3,59.94039543098589,
,,,,,,,,1,0,1,0,,,,,,,,,,,,,,,,,,,,,,,,,,,,,,,,,,,,,,,,,,,,,,,,,,,,,363.10233400017023,None,,,,,,,,,,,,,,,,,,,,,,,,,,,,,,,,,,,plain,74,2,silent,blue,361.0972517998889,None,None,361.0972517998889,None,,,,,,,,,,,,,,,,,,,,,,,,,,,,,,67,001,2023_May_01_1320,ExactRep-v3-final,2021.2.3,59.94039543098589,
,,,,,,,,2,0,2,0,,,,,,,,,,,,,,,,,,,,,,,,,,,,,,,,,,,,,,,,,,,,,,,,,,,,,365.6217443002388,None,,,,,,,,,,,,,,,,,,,,,,,,,,,,,,,,,,,health,41,3,silent,blue,363.6069646002725,None,None,363.6069646002725,None,,,,,,,,,,,,,,,,,,,,,,,,,,,,,,67,001,2023_May_01_1320,ExactRep-v3-final,2021.2.3,59.94039543098589,
,,,,,,,,3,0,3,0,,,,,,,,,,,,,,,,,,,,,,,,,,,,,,,,,,,,,,,,,,,,,,,,,,,,,368.1242570001632,None,,,,,,,,,,,,,,,,,,,,,,,,,,,,,,,,,,,star,85,4,aloud,red,366.1245642006397,None,None,366.1245642006397,None,,,,,,,,,,,,,,,,,,,,,,,,,,,,,,67,001,2023_May_01_1320,ExactRep-v3-final,2021.2.3,59.94039543098589,
,,,,,,,,4,0,4,0,,,,,,,,,,,,,,,,,,,,,,,,,,,,,,,,,,,,,,,,,,,,,,,,,,,,,370.6431982005015,None,,,,,,,,,,,,,,,,,,,,,,,,,,,,,,,,,,,vessel,114,5,aloud,red,368.6314945006743,None,None,368.6314945006743,None,,,,,,,,,,,,,,,,,,,,,,,,,,,,,,67,001,2023_May_01_1320,ExactRep-v3-final,2021.2.3,59.94039543098589,
,,,,,,,,5,0,5,0,,,,,,,,,,,,,,,,,,,,,,,,,,,,,,,,,,,,,,,,,,,,,,,,,,,,,373.16257550008595,None,,,,,,,,,,,,,,,,,,,,,,,,,,,,,,,,,,,dust,116,6,aloud,red,371.15114010032266,None,None,371.15114010032266,None,,,,,,,,,,,,,,,,,,,,,,,,,,,,,,67,001,2023_May_01_1320,ExactRep-v3-final,2021.2.3,59.94039543098589,
,,,,,,,,6,0,6,0,,,,,,,,,,,,,,,,,,,,,,,,,,,,,,,,,,,,,,,,,,,,,,,,,,,,,375.66502420045435,None,,,,,,,,,,,,,,,,,,,,,,,,,,,,,,,,,,,vision,53,7,silent,blue,373.6642041001469,None,None,373.6642041001469,None,,,,,,,,,,,,,,,,,,,,,,,,,,,,,,67,001,2023_May_01_1320,ExactRep-v3-final,2021.2.3,59.94039543098589,
,,,,,,,,7,0,7,0,,,,,,,,,,,,,,,,,,,,,,,,,,,,,,,,,,,,,,,,,,,,,,,,,,,,,378.1675776997581,None,,,,,,,,,,,,,,,,,,,,,,,,,,,,,,,,,,,event,69,8,silent,blue,376.16611819993705,None,None,376.16611819993705,None,,,,,,,,,,,,,,,,,,,,,,,,,,,,,,67,001,2023_May_01_1320,ExactRep-v3-final,2021.2.3,59.94039543098589,
,,,,,,,,8,0,8,0,,,,,,,,,,,,,,,,,,,,,,,,,,,,,,,,,,,,,,,,,,,,,,,,,,,,,380.6700820000842,None,,,,,,,,,,,,,,,,,,,,,,,,,,,,,,,,,,,pupil,50,9,silent,blue,378.6682406999171,None,None,378.6682406999171,None,,,,,,,,,,,,,,,,,,,,,,,,,,,,,,67,001,2023_May_01_1320,ExactRep-v3-final,2021.2.3,59.94039543098589,
,,,,,,,,9,0,9,0,,,,,,,,,,,,,,,,,,,,,,,,,,,,,,,,,,,,,,,,,,,,,,,,,,,,,383.1892884997651,None,,,,,,,,,,,,,,,,,,,,,,,,,,,,,,,,,,,money,34,10,sing,white,381.17470160033554,None,None,381.17470160033554,None,,,,,,,,,,,,,,,,,,,,,,,,,,,,,,67,001,2023_May_01_1320,ExactRep-v3-final,2021.2.3,59.94039543098589,
,,,,,,,,10,0,10,0,,,,,,,,,,,,,,,,,,,,,,,,,,,,,,,,,,,,,,,,,,,,,,,,,,,,,385.6915555000305,None,,,,,,,,,,,,,,,,,,,,,,,,,,,,,,,,,,,lip,29,11,sing,white,383.69244780018926,None,None,383.69244780018926,None,,,,,,,,,,,,,,,,,,,,,,,,,,,,,,67,001,2023_May_01_1320,ExactRep-v3-final,2021.2.3,59.94039543098589,
,,,,,,,,11,0,11,0,,,,,,,,,,,,,,,,,,,,,,,,,,,,,,,,,,,,,,,,,,,,,,,,,,,,,388.19426969997585,None,,,,,,,,,,,,,,,,,,,,,,,,,,,,,,,,,,,poet,107,12,aloud,red,386.1953074000776,None,None,386.1953074000776,None,,,,,,,,,,,,,,,,,,,,,,,,,,,,,,67,001,2023_May_01_1320,ExactRep-v3-final,2021.2.3,59.94039543098589,
,,,,,,,,12,0,12,0,,,,,,,,,,,,,,,,,,,,,,,,,,,,,,,,,,,,,,,,,,,,,,,,,,,,,390.7132855001837,None,,,,,,,,,,,,,,,,,,,,,,,,,,,,,,,,,,,street,98,13,aloud,red,388.6978146005422,None,None,388.6978146005422,None,,,,,,,,,,,,,,,,,,,,,,,,,,,,,,67,001,2023_May_01_1320,ExactRep-v3-final,2021.2.3,59.94039543098589,
,,,,,,,,13,0,13,0,,,,,,,,,,,,,,,,,,,,,,,,,,,,,,,,,,,,,,,,,,,,,,,,,,,,,393.23249400034547,None,,,,,,,,,,,,,,,,,,,,,,,,,,,,,,,,,,,village,77,14,silent,blue,391.22362140007317,None,None,391.22362140007317,None,,,,,,,,,,,,,,,,,,,,,,,,,,,,,,67,001,2023_May_01_1320,ExactRep-v3-final,2021.2.3,59.94039543098589,
,,,,,,,,14,0,14,0,,,,,,,,,,,,,,,,,,,,,,,,,,,,,,,,,,,,,,,,,,,,,,,,,,,,,395.73528650030494,None,,,,,,,,,,,,,,,,,,,,,,,,,,,,,,,,,,,colony,22,15,sing,white,393.73549269977957,None,None,393.73549269977957,None,,,,,,,,,,,,,,,,,,,,,,,,,,,,,,67,001,2023_May_01_1320,ExactRep-v3-final,2021.2.3,59.94039543098589,
,,,,,,,,15,0,15,0,,,,,,,,,,,,,,,,,,,,,,,,,,,,,,,,,,,,,,,,,,,,,,,,,,,,,398.2375274002552,None,,,,,,,,,,,,,,,,,,,,,,,,,,,,,,,,,,,style,92,16,aloud,red,396.23737969994545,None,None,396.23737969994545,None,,,,,,,,,,,,,,,,,,,,,,,,,,,,,,67,001,2023_May_01_1320,ExactRep-v3-final,2021.2.3,59.94039543098589,
,,,,,,,,16,0,16,0,,,,,,,,,,,,,,,,,,,,,,,,,,,,,,,,,,,,,,,,,,,,,,,,,,,,,400.7568498002365,None,,,,,,,,,,,,,,,,,,,,,,,,,,,,,,,,,,,river,87,17,aloud,red,398.74146729987115,None,None,398.74146729987115,None,,,,,,,,,,,,,,,,,,,,,,,,,,,,,,67,001,2023_May_01_1320,ExactRep-v3-final,2021.2.3,59.94039543098589,
,,,,,,,,17,0,17,0,,,,,,,,,,,,,,,,,,,,,,,,,,,,,,,,,,,,,,,,,,,,,,,,,,,,,403.2593648005277,None,,,,,,,,,,,,,,,,,,,,,,,,,,,,,,,,,,,factory,118,18,aloud,red,401.25859780050814,None,None,401.25859780050814,None,,,,,,,,,,,,,,,,,,,,,,,,,,,,,,67,001,2023_May_01_1320,ExactRep-v3-final,2021.2.3,59.94039543098589,
,,,,,,,,18,0,18,0,,,,,,,,,,,,,,,,,,,,,,,,,,,,,,,,,,,,,,,,,,,,,,,,,,,,,405.77837979979813,None,,,,,,,,,,,,,,,,,,,,,,,,,,,,,,,,,,,product,43,19,silent,blue,403.7627948001027,None,None,403.7627948001027,None,,,,,,,,,,,,,,,,,,,,,,,,,,,,,,67,001,2023_May_01_1320,ExactRep-v3-final,2021.2.3,59.94039543098589,
,,,,,,,,19,0,19,0,,,,,,,,,,,,,,,,,,,,,,,,,,,,,,,,,,,,,,,,,,,,,,,,,,,,,408.28087700065225,None,,,,,,,,,,,,,,,,,,,,,,,,,,,,,,,,,,,deed,104,20,aloud,red,406.2788815004751,None,None,406.2788815004751,None,,,,,,,,,,,,,,,,,,,,,,,,,,,,,,67,001,2023_May_01_1320,ExactRep-v3-final,2021.2.3,59.94039543098589,
,,,,,,,,20,0,20,0,,,,,,,,,,,,,,,,,,,,,,,,,,,,,,,,,,,,,,,,,,,,,,,,,,,,,410.80003160052,None,,,,,,,,,,,,,,,,,,,,,,,,,,,,,,,,,,,ticket,68,21,silent,blue,408.7900323998183,None,None,408.7900323998183,None,,,,,,,,,,,,,,,,,,,,,,,,,,,,,,67,001,2023_May_01_1320,ExactRep-v3-final,2021.2.3,59.94039543098589,
,,,,,,,,21,0,21,0,,,,,,,,,,,,,,,,,,,,,,,,,,,,,,,,,,,,,,,,,,,,,,,,,,,,,413.3027129005641,None,,,,,,,,,,,,,,,,,,,,,,,,,,,,,,,,,,,ship,11,22,sing,white,411.3007048005238,None,None,411.3007048005238,None,,,,,,,,,,,,,,,,,,,,,,,,,,,,,,67,001,2023_May_01_1320,ExactRep-v3-final,2021.2.3,59.94039543098589,
,,,,,,,,22,0,22,0,,,,,,,,,,,,,,,,,,,,,,,,,,,,,,,,,,,,,,,,,,,,,,,,,,,,,415.8220671005547,None,,,,,,,,,,,,,,,,,,,,,,,,,,,,,,,,,,,rock,47,23,silent,blue,413.8072512000799,None,None,413.8072512000799,None,,,,,,,,,,,,,,,,,,,,,,,,,,,,,,67,001,2023_May_01_1320,ExactRep-v3-final,2021.2.3,59.94039543098589,
,,,,,,,,23,0,23,0,,,,,,,,,,,,,,,,,,,,,,,,,,,,,,,,,,,,,,,,,,,,,,,,,,,,,418.32447890006006,None,,,,,,,,,,,,,,,,,,,,,,,,,,,,,,,,,,,church,84,24,aloud,red,416.32225839979947,None,None,416.32225839979947,None,,,,,,,,,,,,,,,,,,,,,,,,,,,,,,67,001,2023_May_01_1320,ExactRep-v3-final,2021.2.3,59.94039543098589,
,,,,,,,,24,0,24,0,,,,,,,,,,,,,,,,,,,,,,,,,,,,,,,,,,,,,,,,,,,,,,,,,,,,,420.84357220027596,None,,,,,,,,,,,,,,,,,,,,,,,,,,,,,,,,,,,soil,119,25,aloud,red,418.83166129980236,None,None,418.83166129980236,None,,,,,,,,,,,,,,,,,,,,,,,,,,,,,,67,001,2023_May_01_1320,ExactRep-v3-final,2021.2.3,59.94039543098589,
,,,,,,,,25,0,25,0,,,,,,,,,,,,,,,,,,,,,,,,,,,,,,,,,,,,,,,,,,,,,,,,,,,,,423.3461001999676,None,,,,,,,,,,,,,,,,,,,,,,,,,,,,,,,,,,,skin,31,26,sing,white,421.34389489982277,None,None,421.34389489982277,None,,,,,,,,,,,,,,,,,,,,,,,,,,,,,,67,001,2023_May_01_1320,ExactRep-v3-final,2021.2.3,59.94039543098589,
,,,,,,,,26,0,26,0,,,,,,,,,,,,,,,,,,,,,,,,,,,,,,,,,,,,,,,,,,,,,,,,,,,,,425.8653004998341,None,,,,,,,,,,,,,,,,,,,,,,,,,,,,,,,,,,,corner,44,27,silent,blue,423.8514505000785,None,None,423.8514505000785,None,,,,,,,,,,,,,,,,,,,,,,,,,,,,,,67,001,2023_May_01_1320,ExactRep-v3-final,2021.2.3,59.94039543098589,
,,,,,,,,27,0,27,0,,,,,,,,,,,,,,,,,,,,,,,,,,,,,,,,,,,,,,,,,,,,,,,,,,,,,428.36749029997736,None,,,,,,,,,,,,,,,,,,,,,,,,,,,,,,,,,,,flag,117,28,aloud,red,426.3660113001242,None,None,426.3660113001242,None,,,,,,,,,,,,,,,,,,,,,,,,,,,,,,67,001,2023_May_01_1320,ExactRep-v3-final,2021.2.3,59.94039543098589,
,,,,,,,,28,0,28,0,,,,,,,,,,,,,,,,,,,,,,,,,,,,,,,,,,,,,,,,,,,,,,,,,,,,,430.8701515002176,None,,,,,,,,,,,,,,,,,,,,,,,,,,,,,,,,,,,fate,56,29,silent,blue,428.8698761006817,None,None,428.8698761006817,None,,,,,,,,,,,,,,,,,,,,,,,,,,,,,,67,001,2023_May_01_1320,ExactRep-v3-final,2021.2.3,59.94039543098589,
,,,,,,,,29,0,29,0,,,,,,,,,,,,,,,,,,,,,,,,,,,,,,,,,,,,,,,,,,,,,,,,,,,,,433.37241230066866,None,,,,,,,,,,,,,,,,,,,,,,,,,,,,,,,,,,,avenue,15,30,sing,white,431.3707231003791,None,None,431.3707231003791,None,,,,,,,,,,,,,,,,,,,,,,,,,,,,,,67,001,2023_May_01_1320,ExactRep-v3-final,2021.2.3,59.94039543098589,
,,,,,,,,30,0,30,0,,,,,,,,,,,,,,,,,,,,,,,,,,,,,,,,,,,,,,,,,,,,,,,,,,,,,435.8918414004147,None,,,,,,,,,,,,,,,,,,,,,,,,,,,,,,,,,,,bottle,102,31,aloud,red,433.88751620054245,None,None,433.88751620054245,None,,,,,,,,,,,,,,,,,,,,,,,,,,,,,,67,001,2023_May_01_1320,ExactRep-v3-final,2021.2.3,59.94039543098589,
,,,,,,,,31,0,31,0,,,,,,,,,,,,,,,,,,,,,,,,,,,,,,,,,,,,,,,,,,,,,,,,,,,,,438.394526200369,None,,,,,,,,,,,,,,,,,,,,,,,,,,,,,,,,,,,effort,30,32,sing,white,436.39447590056807,None,None,436.39447590056807,None,,,,,,,,,,,,,,,,,,,,,,,,,,,,,,67,001,2023_May_01_1320,ExactRep-v3-final,2021.2.3,59.94039543098589,
,,,,,,,,32,0,32,0,,,,,,,,,,,,,,,,,,,,,,,,,,,,,,,,,,,,,,,,,,,,,,,,,,,,,440.89707840047777,None,,,,,,,,,,,,,,,,,,,,,,,,,,,,,,,,,,,dollar,49,33,silent,blue,438.89472690038383,None,None,438.89472690038383,None,,,,,,,,,,,,,,,,,,,,,,,,,,,,,,67,001,2023_May_01_1320,ExactRep-v3-final,2021.2.3,59.94039543098589,
,,,,,,,,33,0,33,0,,,,,,,,,,,,,,,,,,,,,,,,,,,,,,,,,,,,,,,,,,,,,,,,,,,,,443.4162884000689,None,,,,,,,,,,,,,,,,,,,,,,,,,,,,,,,,,,,moral,113,34,aloud,red,441.4044940005988,None,None,441.4044940005988,None,,,,,,,,,,,,,,,,,,,,,,,,,,,,,,67,001,2023_May_01_1320,ExactRep-v3-final,2021.2.3,59.94039543098589,
,,,,,,,,34,0,34,0,,,,,,,,,,,,,,,,,,,,,,,,,,,,,,,,,,,,,,,,,,,,,,,,,,,,,445.9192339004949,None,,,,,,,,,,,,,,,,,,,,,,,,,,,,,,,,,,,hall,46,35,silent,blue,443.916465700604,None,None,443.916465700604,None,,,,,,,,,,,,,,,,,,,,,,,,,,,,,,67,001,2023_May_01_1320,ExactRep-v3-final,2021.2.3,59.94039543098589,
,,,,,,,,35,0,35,0,,,,,,,,,,,,,,,,,,,,,,,,,,,,,,,,,,,,,,,,,,,,,,,,,,,,,448.42098180018365,None,,,,,,,,,,,,,,,,,,,,,,,,,,,,,,,,,,,board,67,36,silent,blue,446.4205967001617,None,None,446.4205967001617,None,,,,,,,,,,,,,,,,,,,,,,,,,,,,,,67,001,2023_May_01_1320,ExactRep-v3-final,2021.2.3,59.94039543098589,
,,,,,,,,36,0,36,0,,,,,,,,,,,,,,,,,,,,,,,,,,,,,,,,,,,,,,,,,,,,,,,,,,,,,450.94014990050346,None,,,,,,,,,,,,,,,,,,,,,,,,,,,,,,,,,,,sea,6,37,sing,white,448.92765520047396,None,None,448.92765520047396,None,,,,,,,,,,,,,,,,,,,,,,,,,,,,,,67,001,2023_May_01_1320,ExactRep-v3-final,2021.2.3,59.94039543098589,
,,,,,,,,37,0,37,0,,,,,,,,,,,,,,,,,,,,,,,,,,,,,,,,,,,,,,,,,,,,,,,,,,,,,453.4427764005959,None,,,,,,,,,,,,,,,,,,,,,,,,,,,,,,,,,,,market,25,38,sing,white,451.443047599867,None,None,451.443047599867,None,,,,,,,,,,,,,,,,,,,,,,,,,,,,,,67,001,2023_May_01_1320,ExactRep-v3-final,2021.2.3,59.94039543098589,
,,,,,,,,38,0,38,0,,,,,,,,,,,,,,,,,,,,,,,,,,,,,,,,,,,,,,,,,,,,,,,,,,,,,455.94534900039434,None,,,,,,,,,,,,,,,,,,,,,,,,,,,,,,,,,,,forest,78,39,silent,blue,453.9450203003362,None,None,453.9450203003362,None,,,,,,,,,,,,,,,,,,,,,,,,,,,,,,67,001,2023_May_01_1320,ExactRep-v3-final,2021.2.3,59.94039543098589,
,,,,,,,,39,0,39,0,,,,,,,,,,,,,,,,,,,,,,,,,,,,,,,,,,,,,,,,,,,,,,,,,,,,,458.44763400033116,None,,,,,,,,,,,,,,,,,,,,,,,,,,,,,,,,,,,breast,40,40,silent,blue,456.44747349992394,None,None,456.44747349992394,None,,,,,,,,,,,,,,,,,,,,,,,,,,,,,,67,001,2023_May_01_1320,ExactRep-v3-final,2021.2.3,59.94039543098589,
,,,,,,,,40,0,40,0,,,,,,,,,,,,,,,,,,,,,,,,,,,,,,,,,,,,,,,,,,,,,,,,,,,,,460.96705750003457,None,,,,,,,,,,,,,,,,,,,,,,,,,,,,,,,,,,,butter,75,41,silent,blue,458.9554524002597,None,None,458.9554524002597,None,,,,,,,,,,,,,,,,,,,,,,,,,,,,,,67,001,2023_May_01_1320,ExactRep-v3-final,2021.2.3,59.94039543098589,
,,,,,,,,41,0,41,0,,,,,,,,,,,,,,,,,,,,,,,,,,,,,,,,,,,,,,,,,,,,,,,,,,,,,463.4695468004793,None,,,,,,,,,,,,,,,,,,,,,,,,,,,,,,,,,,,hour,23,42,sing,white,461.46860470063984,None,None,461.46860470063984,None,,,,,,,,,,,,,,,,,,,,,,,,,,,,,,67,001,2023_May_01_1320,ExactRep-v3-final,2021.2.3,59.94039543098589,
,,,,,,,,42,0,42,0,,,,,,,,,,,,,,,,,,,,,,,,,,,,,,,,,,,,,,,,,,,,,,,,,,,,,465.9718943005428,None,,,,,,,,,,,,,,,,,,,,,,,,,,,,,,,,,,,time,72,43,silent,blue,463.9721480999142,None,None,463.9721480999142,None,,,,,,,,,,,,,,,,,,,,,,,,,,,,,,67,001,2023_May_01_1320,ExactRep-v3-final,2021.2.3,59.94039543098589,
,,,,,,,,43,0,43,0,,,,,,,,,,,,,,,,,,,,,,,,,,,,,,,,,,,,,,,,,,,,,,,,,,,,,468.4912752006203,None,,,,,,,,,,,,,,,,,,,,,,,,,,,,,,,,,,,artist,24,44,sing,white,466.47947600018233,None,None,466.47947600018233,None,,,,,,,,,,,,,,,,,,,,,,,,,,,,,,67,001,2023_May_01_1320,ExactRep-v3-final,2021.2.3,59.94039543098589,
,,,,,,,,44,0,44,0,,,,,,,,,,,,,,,,,,,,,,,,,,,,,,,,,,,,,,,,,,,,,,,,,,,,,470.9936704002321,None,,,,,,,,,,,,,,,,,,,,,,,,,,,,,,,,,,,doll,59,45,silent,blue,468.9917083000764,None,None,468.9917083000764,None,,,,,,,,,,,,,,,,,,,,,,,,,,,,,,67,001,2023_May_01_1320,ExactRep-v3-final,2021.2.3,59.94039543098589,
,,,,,,,,45,0,45,0,,,,,,,,,,,,,,,,,,,,,,,,,,,,,,,,,,,,,,,,,,,,,,,,,,,,,473.49623010028154,None,,,,,,,,,,,,,,,,,,,,,,,,,,,,,,,,,,,boulder,115,46,aloud,red,471.494570299983,None,None,471.494570299983,None,,,,,,,,,,,,,,,,,,,,,,,,,,,,,,67,001,2023_May_01_1320,ExactRep-v3-final,2021.2.3,59.94039543098589,
,,,,,,,,46,0,46,0,,,,,,,,,,,,,,,,,,,,,,,,,,,,,,,,,,,,,,,,,,,,,,,,,,,,,476.0154336998239,None,,,,,,,,,,,,,,,,,,,,,,,,,,,,,,,,,,,plant,91,47,aloud,red,474.00326000060886,None,None,474.00326000060886,None,,,,,,,,,,,,,,,,,,,,,,,,,,,,,,67,001,2023_May_01_1320,ExactRep-v3-final,2021.2.3,59.94039543098589,
,,,,,,,,47,0,47,0,,,,,,,,,,,,,,,,,,,,,,,,,,,,,,,,,,,,,,,,,,,,,,,,,,,,,478.51795690041035,None,,,,,,,,,,,,,,,,,,,,,,,,,,,,,,,,,,,fun,39,48,silent,blue,476.5159258004278,None,None,476.5159258004278,None,,,,,,,,,,,,,,,,,,,,,,,,,,,,,,67,001,2023_May_01_1320,ExactRep-v3-final,2021.2.3,59.94039543098589,
,,,,,,,,48,0,48,0,,,,,,,,,,,,,,,,,,,,,,,,,,,,,,,,,,,,,,,,,,,,,,,,,,,,,481.03716600034386,None,,,,,,,,,,,,,,,,,,,,,,,,,,,,,,,,,,,crime,70,49,silent,blue,479.02429850026965,None,None,479.02429850026965,None,,,,,,,,,,,,,,,,,,,,,,,,,,,,,,67,001,2023_May_01_1320,ExactRep-v3-final,2021.2.3,59.94039543098589,
,,,,,,,,49,0,49,0,,,,,,,,,,,,,,,,,,,,,,,,,,,,,,,,,,,,,,,,,,,,,,,,,,,,,483.5563233997673,None,,,,,,,,,,,,,,,,,,,,,,,,,,,,,,,,,,,ocean,96,50,aloud,red,481.54087659996003,None,None,481.54087659996003,None,,,,,,,,,,,,,,,,,,,,,,,,,,,,,,67,001,2023_May_01_1320,ExactRep-v3-final,2021.2.3,59.94039543098589,
,,,,,,,,50,0,50,0,,,,,,,,,,,,,,,,,,,,,,,,,,,,,,,,,,,,,,,,,,,,,,,,,,,,,486.0753704998642,None,,,,,,,,,,,,,,,,,,,,,,,,,,,,,,,,,,,justice,80,51,aloud,red,484.0653340006247,None,None,484.0653340006247,None,,,,,,,,,,,,,,,,,,,,,,,,,,,,,,67,001,2023_May_01_1320,ExactRep-v3-final,2021.2.3,59.94039543098589,
,,,,,,,,51,0,51,0,,,,,,,,,,,,,,,,,,,,,,,,,,,,,,,,,,,,,,,,,,,,,,,,,,,,,488.5943764001131,None,,,,,,,,,,,,,,,,,,,,,,,,,,,,,,,,,,,hotel,33,52,sing,white,486.582930999808,None,None,486.582930999808,None,,,,,,,,,,,,,,,,,,,,,,,,,,,,,,67,001,2023_May_01_1320,ExactRep-v3-final,2021.2.3,59.94039543098589,
,,,,,,,,52,0,52,0,,,,,,,,,,,,,,,,,,,,,,,,,,,,,,,,,,,,,,,,,,,,,,,,,,,,,491.11406700033695,None,,,,,,,,,,,,,,,,,,,,,,,,,,,,,,,,,,,wine,38,53,sing,white,489.10711169987917,None,None,489.10711169987917,None,,,,,,,,,,,,,,,,,,,,,,,,,,,,,,67,001,2023_May_01_1320,ExactRep-v3-final,2021.2.3,59.94039543098589,
,,,,,,,,53,0,53,0,,,,,,,,,,,,,,,,,,,,,,,,,,,,,,,,,,,,,,,,,,,,,,,,,,,,,493.6330473003909,None,,,,,,,,,,,,,,,,,,,,,,,,,,,,,,,,,,,series,18,54,sing,white,491.62183570023626,None,None,491.62183570023626,None,,,,,,,,,,,,,,,,,,,,,,,,,,,,,,67,001,2023_May_01_1320,ExactRep-v3-final,2021.2.3,59.94039543098589,
,,,,,,,,54,0,54,0,,,,,,,,,,,,,,,,,,,,,,,,,,,,,,,,,,,,,,,,,,,,,,,,,,,,,496.13554280065,None,,,,,,,,,,,,,,,,,,,,,,,,,,,,,,,,,,,month,1,55,sing,white,494.1343700001016,None,None,494.1343700001016,None,,,,,,,,,,,,,,,,,,,,,,,,,,,,,,67,001,2023_May_01_1320,ExactRep-v3-final,2021.2.3,59.94039543098589,
,,,,,,,,55,0,55,0,,,,,,,,,,,,,,,,,,,,,,,,,,,,,,,,,,,,,,,,,,,,,,,,,,,,,498.6380839999765,None,,,,,,,,,,,,,,,,,,,,,,,,,,,,,,,,,,,death,4,56,sing,white,496.639036600478,None,None,496.639036600478,None,,,,,,,,,,,,,,,,,,,,,,,,,,,,,,67,001,2023_May_01_1320,ExactRep-v3-final,2021.2.3,59.94039543098589,
,,,,,,,,56,0,56,0,,,,,,,,,,,,,,,,,,,,,,,,,,,,,,,,,,,,,,,,,,,,,,,,,,,,,501.15727690048516,None,,,,,,,,,,,,,,,,,,,,,,,,,,,,,,,,,,,idea,55,57,silent,blue,499.1450398005545,None,None,499.1450398005545,None,,,,,,,,,,,,,,,,,,,,,,,,,,,,,,67,001,2023_May_01_1320,ExactRep-v3-final,2021.2.3,59.94039543098589,
,,,,,,,,57,0,57,0,,,,,,,,,,,,,,,,,,,,,,,,,,,,,,,,,,,,,,,,,,,,,,,,,,,,,503.6766253998503,None,,,,,,,,,,,,,,,,,,,,,,,,,,,,,,,,,,,victory,83,58,aloud,red,501.6628585001454,None,None,501.6628585001454,None,,,,,,,,,,,,,,,,,,,,,,,,,,,,,,67,001,2023_May_01_1320,ExactRep-v3-final,2021.2.3,59.94039543098589,
,,,,,,,,58,0,58,0,,,,,,,,,,,,,,,,,,,,,,,,,,,,,,,,,,,,,,,,,,,,,,,,,,,,,506.19549079984426,None,,,,,,,,,,,,,,,,,,,,,,,,,,,,,,,,,,,circle,110,59,aloud,red,504.1844049002975,None,None,504.1844049002975,None,,,,,,,,,,,,,,,,,,,,,,,,,,,,,,67,001,2023_May_01_1320,ExactRep-v3-final,2021.2.3,59.94039543098589,
,,,,,,,,59,0,59,0,,,,,,,,,,,,,,,,,,,,,,,,,,,,,,,,,,,,,,,,,,,,,,,,,,,,,508.6981284003705,None,,,,,,,,,,,,,,,,,,,,,,,,,,,,,,,,,,,city,54,60,silent,blue,506.6960768997669,None,None,506.6960768997669,None,,,,,,,,,,,,,,,,,,,,,,,,,,,,,,67,001,2023_May_01_1320,ExactRep-v3-final,2021.2.3,59.94039543098589,
,,,,,,,,60,0,60,0,,,,,,,,,,,,,,,,,,,,,,,,,,,,,,,,,,,,,,,,,,,,,,,,,,,,,511.21781290043145,None,,,,,,,,,,,,,,,,,,,,,,,,,,,,,,,,,,,fire,51,61,silent,blue,509.20204490050673,None,None,509.20204490050673,None,,,,,,,,,,,,,,,,,,,,,,,,,,,,,,67,001,2023_May_01_1320,ExactRep-v3-final,2021.2.3,59.94039543098589,
,,,,,,,,61,0,61,0,,,,,,,,,,,,,,,,,,,,,,,,,,,,,,,,,,,,,,,,,,,,,,,,,,,,,513.7363136000931,None,,,,,,,,,,,,,,,,,,,,,,,,,,,,,,,,,,,rod,103,62,aloud,red,511.72372120060027,None,None,511.72372120060027,None,,,,,,,,,,,,,,,,,,,,,,,,,,,,,,67,001,2023_May_01_1320,ExactRep-v3-final,2021.2.3,59.94039543098589,
,,,,,,,,62,0,62,0,,,,,,,,,,,,,,,,,,,,,,,,,,,,,,,,,,,,,,,,,,,,,,,,,,,,,516.2559047006071,None,,,,,,,,,,,,,,,,,,,,,,,,,,,,,,,,,,,devil,89,63,aloud,red,514.244417000562,None,None,514.244417000562,None,,,,,,,,,,,,,,,,,,,,,,,,,,,,,,67,001,2023_May_01_1320,ExactRep-v3-final,2021.2.3,59.94039543098589,
,,,,,,,,63,0,63,0,,,,,,,,,,,,,,,,,,,,,,,,,,,,,,,,,,,,,,,,,,,,,,,,,,,,,518.7581401998177,None,,,,,,,,,,,,,,,,,,,,,,,,,,,,,,,,,,,season,71,64,silent,blue,516.7575793005526,None,None,516.7575793005526,None,,,,,,,,,,,,,,,,,,,,,,,,,,,,,,67,001,2023_May_01_1320,ExactRep-v3-final,2021.2.3,59.94039543098589,
,,,,,,,,64,0,64,0,,,,,,,,,,,,,,,,,,,,,,,,,,,,,,,,,,,,,,,,,,,,,,,,,,,,,521.2772818999365,None,,,,,,,,,,,,,,,,,,,,,,,,,,,,,,,,,,,humour,37,65,sing,white,519.2620294000953,None,None,519.2620294000953,None,,,,,,,,,,,,,,,,,,,,,,,,,,,,,,67,001,2023_May_01_1320,ExactRep-v3-final,2021.2.3,59.94039543098589,
,,,,,,,,65,0,65,0,,,,,,,,,,,,,,,,,,,,,,,,,,,,,,,,,,,,,,,,,,,,,,,,,,,,,523.7798445001245,None,,,,,,,,,,,,,,,,,,,,,,,,,,,,,,,,,,,fur,101,66,aloud,red,521.7776239002123,None,None,521.7776239002123,None,,,,,,,,,,,,,,,,,,,,,,,,,,,,,,67,001,2023_May_01_1320,ExactRep-v3-final,2021.2.3,59.94039543098589,
,,,,,,,,66,0,66,0,,,,,,,,,,,,,,,,,,,,,,,,,,,,,,,,,,,,,,,,,,,,,,,,,,,,,526.2989770006388,None,,,,,,,,,,,,,,,,,,,,,,,,,,,,,,,,,,,brain,61,67,silent,blue,524.2860925002024,None,None,524.2860925002024,None,,,,,,,,,,,,,,,,,,,,,,,,,,,,,,67,001,2023_May_01_1320,ExactRep-v3-final,2021.2.3,59.94039543098589,
,,,,,,,,67,0,67,0,,,,,,,,,,,,,,,,,,,,,,,,,,,,,,,,,,,,,,,,,,,,,,,,,,,,,528.801551300101,None,,,,,,,,,,,,,,,,,,,,,,,,,,,,,,,,,,,bar,35,68,sing,white,526.7993612000719,None,None,526.7993612000719,None,,,,,,,,,,,,,,,,,,,,,,,,,,,,,,67,001,2023_May_01_1320,ExactRep-v3-final,2021.2.3,59.94039543098589,
,,,,,,,,68,0,68,0,,,,,,,,,,,,,,,,,,,,,,,,,,,,,,,,,,,,,,,,,,,,,,,,,,,,,531.304056700319,None,,,,,,,,,,,,,,,,,,,,,,,,,,,,,,,,,,,air,3,69,sing,white,529.3041061004624,None,None,529.3041061004624,None,,,,,,,,,,,,,,,,,,,,,,,,,,,,,,67,001,2023_May_01_1320,ExactRep-v3-final,2021.2.3,59.94039543098589,
,,,,,,,,69,0,69,0,,,,,,,,,,,,,,,,,,,,,,,,,,,,,,,,,,,,,,,,,,,,,,,,,,,,,533.823115600273,None,,,,,,,,,,,,,,,,,,,,,,,,,,,,,,,,,,,officer,81,70,aloud,red,531.8121327999979,None,None,531.8121327999979,None,,,,,,,,,,,,,,,,,,,,,,,,,,,,,,67,001,2023_May_01_1320,ExactRep-v3-final,2021.2.3,59.94039543098589,
,,,,,,,,70,0,70,0,,,,,,,,,,,,,,,,,,,,,,,,,,,,,,,,,,,,,,,,,,,,,,,,,,,,,536.325755899772,None,,,,,,,,,,,,,,,,,,,,,,,,,,,,,,,,,,,nail,93,71,aloud,red,534.3237388003618,None,None,534.3237388003618,None,,,,,,,,,,,,,,,,,,,,,,,,,,,,,,67,001,2023_May_01_1320,ExactRep-v3-final,2021.2.3,59.94039543098589,
,,,,,,,,71,0,71,0,,,,,,,,,,,,,,,,,,,,,,,,,,,,,,,,,,,,,,,,,,,,,,,,,,,,,538.8282491005957,None,,,,,,,,,,,,,,,,,,,,,,,,,,,,,,,,,,,life,17,72,sing,white,536.8285181000829,None,None,536.8285181000829,None,,,,,,,,,,,,,,,,,,,,,,,,,,,,,,67,001,2023_May_01_1320,ExactRep-v3-final,2021.2.3,59.94039543098589,
,,,,,,,,72,0,72,0,,,,,,,,,,,,,,,,,,,,,,,,,,,,,,,,,,,,,,,,,,,,,,,,,,,,,541.3479073001072,None,,,,,,,,,,,,,,,,,,,,,,,,,,,,,,,,,,,shadow,57,73,silent,blue,539.3340541999787,None,None,539.3340541999787,None,,,,,,,,,,,,,,,,,,,,,,,,,,,,,,67,001,2023_May_01_1320,ExactRep-v3-final,2021.2.3,59.94039543098589,
,,,,,,,,73,0,73,0,,,,,,,,,,,,,,,,,,,,,,,,,,,,,,,,,,,,,,,,,,,,,,,,,,,,,543.8499795999378,None,,,,,,,,,,,,,,,,,,,,,,,,,,,,,,,,,,,maiden,109,74,aloud,red,541.8479230003431,None,None,541.8479230003431,None,,,,,,,,,,,,,,,,,,,,,,,,,,,,,,67,001,2023_May_01_1320,ExactRep-v3-final,2021.2.3,59.94039543098589,
,,,,,,,,74,0,74,0,,,,,,,,,,,,,,,,,,,,,,,,,,,,,,,,,,,,,,,,,,,,,,,,,,,,,546.3691779999062,None,,,,,,,,,,,,,,,,,,,,,,,,,,,,,,,,,,,clock,21,75,sing,white,544.3549185004085,None,None,544.3549185004085,None,,,,,,,,,,,,,,,,,,,,,,,,,,,,,,67,001,2023_May_01_1320,ExactRep-v3-final,2021.2.3,59.94039543098589,
,,,,,,,,75,0,75,0,,,,,,,,,,,,,,,,,,,,,,,,,,,,,,,,,,,,,,,,,,,,,,,,,,,,,548.888312600553,None,,,,,,,,,,,,,,,,,,,,,,,,,,,,,,,,,,,girl,66,76,silent,blue,546.8746667997912,None,None,546.8746667997912,None,,,,,,,,,,,,,,,,,,,,,,,,,,,,,,67,001,2023_May_01_1320,ExactRep-v3-final,2021.2.3,59.94039543098589,
,,,,,,,,76,0,76,0,,,,,,,,,,,,,,,,,,,,,,,,,,,,,,,,,,,,,,,,,,,,,,,,,,,,,551.3909368002787,None,,,,,,,,,,,,,,,,,,,,,,,,,,,,,,,,,,,king,64,77,silent,blue,549.3899806002155,None,None,549.3899806002155,None,,,,,,,,,,,,,,,,,,,,,,,,,,,,,,67,001,2023_May_01_1320,ExactRep-v3-final,2021.2.3,59.94039543098589,
,,,,,,,,77,0,77,0,,,,,,,,,,,,,,,,,,,,,,,,,,,,,,,,,,,,,,,,,,,,,,,,,,,,,553.8933028997853,None,,,,,,,,,,,,,,,,,,,,,,,,,,,,,,,,,,,seat,73,78,silent,blue,551.8928129998967,None,None,551.8928129998967,None,,,,,,,,,,,,,,,,,,,,,,,,,,,,,,67,001,2023_May_01_1320,ExactRep-v3-final,2021.2.3,59.94039543098589,
,,,,,,,,78,0,78,0,,,,,,,,,,,,,,,,,,,,,,,,,,,,,,,,,,,,,,,,,,,,,,,,,,,,,556.4122799998149,None,,,,,,,,,,,,,,,,,,,,,,,,,,,,,,,,,,,hide,112,79,aloud,red,554.397064300254,None,None,554.397064300254,None,,,,,,,,,,,,,,,,,,,,,,,,,,,,,,67,001,2023_May_01_1320,ExactRep-v3-final,2021.2.3,59.94039543098589,
,,,,,,,,79,0,79,0,,,,,,,,,,,,,,,,,,,,,,,,,,,,,,,,,,,,,,,,,,,,,,,,,,,,,558.9317343002185,None,,,,,,,,,,,,,,,,,,,,,,,,,,,,,,,,,,,duty,95,80,aloud,red,556.9161518998444,None,None,556.9161518998444,None,,,,,,,,,,,,,,,,,,,,,,,,,,,,,,67,001,2023_May_01_1320,ExactRep-v3-final,2021.2.3,59.94039543098589,
,,,,,,,,80,0,80,0,,,,,,,,,,,,,,,,,,,,,,,,,,,,,,,,,,,,,,,,,,,,,,,,,,,,,561.435253799893,None,,,,,,,,,,,,,,,,,,,,,,,,,,,,,,,,,,,cabin,52,81,silent,blue,559.432022199966,None,None,559.432022199966,None,,,,,,,,,,,,,,,,,,,,,,,,,,,,,,67,001,2023_May_01_1320,ExactRep-v3-final,2021.2.3,59.94039543098589,
,,,,,,,,81,0,81,0,,,,,,,,,,,,,,,,,,,,,,,,,,,,,,,,,,,,,,,,,,,,,,,,,,,,,563.953423500061,None,,,,,,,,,,,,,,,,,,,,,,,,,,,,,,,,,,,prison,48,82,silent,blue,561.9441328998655,None,None,561.9441328998655,None,,,,,,,,,,,,,,,,,,,,,,,,,,,,,,67,001,2023_May_01_1320,ExactRep-v3-final,2021.2.3,59.94039543098589,
,,,,,,,,82,0,82,0,,,,,,,,,,,,,,,,,,,,,,,,,,,,,,,,,,,,,,,,,,,,,,,,,,,,,566.4559110002592,None,,,,,,,,,,,,,,,,,,,,,,,,,,,,,,,,,,,library,90,83,aloud,red,564.4537062002346,None,None,564.4537062002346,None,,,,,,,,,,,,,,,,,,,,,,,,,,,,,,67,001,2023_May_01_1320,ExactRep-v3-final,2021.2.3,59.94039543098589,
,,,,,,,,83,0,83,0,,,,,,,,,,,,,,,,,,,,,,,,,,,,,,,,,,,,,,,,,,,,,,,,,,,,,568.9750724006444,None,,,,,,,,,,,,,,,,,,,,,,,,,,,,,,,,,,,method,97,84,aloud,red,566.9639531001449,None,None,566.9639531001449,None,,,,,,,,,,,,,,,,,,,,,,,,,,,,,,67,001,2023_May_01_1320,ExactRep-v3-final,2021.2.3,59.94039543098589,
,,,,,,,,84,0,84,0,,,,,,,,,,,,,,,,,,,,,,,,,,,,,,,,,,,,,,,,,,,,,,,,,,,,,571.4940748000517,None,,,,,,,,,,,,,,,,,,,,,,,,,,,,,,,,,,,queen,100,85,aloud,red,569.4821292003617,None,None,569.4821292003617,None,,,,,,,,,,,,,,,,,,,,,,,,,,,,,,67,001,2023_May_01_1320,ExactRep-v3-final,2021.2.3,59.94039543098589,
,,,,,,,,85,0,85,0,,,,,,,,,,,,,,,,,,,,,,,,,,,,,,,,,,,,,,,,,,,,,,,,,,,,,573.9967382000759,None,,,,,,,,,,,,,,,,,,,,,,,,,,,,,,,,,,,judge,9,86,sing,white,571.9945832006633,None,None,571.9945832006633,None,,,,,,,,,,,,,,,,,,,,,,,,,,,,,,67,001,2023_May_01_1320,ExactRep-v3-final,2021.2.3,59.94039543098589,
,,,,,,,,86,0,86,0,,,,,,,,,,,,,,,,,,,,,,,,,,,,,,,,,,,,,,,,,,,,,,,,,,,,,576.4992514001206,None,,,,,,,,,,,,,,,,,,,,,,,,,,,,,,,,,,,truth,20,87,sing,white,574.5002591004595,None,None,574.5002591004595,None,,,,,,,,,,,,,,,,,,,,,,,,,,,,,,67,001,2023_May_01_1320,ExactRep-v3-final,2021.2.3,59.94039543098589,
,,,,,,,,87,0,87,0,,,,,,,,,,,,,,,,,,,,,,,,,,,,,,,,,,,,,,,,,,,,,,,,,,,,,579.0018049003556,None,,,,,,,,,,,,,,,,,,,,,,,,,,,,,,,,,,,murder,5,88,sing,white,577.0022641001269,None,None,577.0022641001269,None,,,,,,,,,,,,,,,,,,,,,,,,,,,,,,67,001,2023_May_01_1320,ExactRep-v3-final,2021.2.3,59.94039543098589,
,,,,,,,,88,0,88,0,,,,,,,,,,,,,,,,,,,,,,,,,,,,,,,,,,,,,,,,,,,,,,,,,,,,,581.520756999962,None,,,,,,,,,,,,,,,,,,,,,,,,,,,,,,,,,,,freedom,99,89,aloud,red,579.5139064006507,None,None,579.5139064006507,None,,,,,,,,,,,,,,,,,,,,,,,,,,,,,,67,001,2023_May_01_1320,ExactRep-v3-final,2021.2.3,59.94039543098589,
,,,,,,,,89,0,89,0,,,,,,,,,,,,,,,,,,,,,,,,,,,,,,,,,,,,,,,,,,,,,,,,,,,,,584.0233270004392,None,,,,,,,,,,,,,,,,,,,,,,,,,,,,,,,,,,,custom,12,90,sing,white,582.021261700429,None,None,582.021261700429,None,,,,,,,,,,,,,,,,,,,,,,,,,,,,,,67,001,2023_May_01_1320,ExactRep-v3-final,2021.2.3,59.94039543098589,
,,,,,,,,90,0,90,0,,,,,,,,,,,,,,,,,,,,,,,,,,,,,,,,,,,,,,,,,,,,,,,,,,,,,586.5425708005205,None,,,,,,,,,,,,,,,,,,,,,,,,,,,,,,,,,,,beast,16,91,sing,white,584.526942900382,None,None,584.526942900382,None,,,,,,,,,,,,,,,,,,,,,,,,,,,,,,67,001,2023_May_01_1320,ExactRep-v3-final,2021.2.3,59.94039543098589,
,,,,,,,,91,0,91,0,,,,,,,,,,,,,,,,,,,,,,,,,,,,,,,,,,,,,,,,,,,,,,,,,,,,,589.0449534002692,None,,,,,,,,,,,,,,,,,,,,,,,,,,,,,,,,,,,child,108,92,aloud,red,587.045027400367,None,None,587.045027400367,None,,,,,,,,,,,,,,,,,,,,,,,,,,,,,,67,001,2023_May_01_1320,ExactRep-v3-final,2021.2.3,59.94039543098589,
,,,,,,,,92,0,92,0,,,,,,,,,,,,,,,,,,,,,,,,,,,,,,,,,,,,,,,,,,,,,,,,,,,,,591.5643394999206,None,,,,,,,,,,,,,,,,,,,,,,,,,,,,,,,,,,,honour,106,93,aloud,red,589.5550616998225,None,None,589.5550616998225,None,,,,,,,,,,,,,,,,,,,,,,,,,,,,,,67,001,2023_May_01_1320,ExactRep-v3-final,2021.2.3,59.94039543098589,
,,,,,,,,93,0,93,0,,,,,,,,,,,,,,,,,,,,,,,,,,,,,,,,,,,,,,,,,,,,,,,,,,,,,594.0666176006198,None,,,,,,,,,,,,,,,,,,,,,,,,,,,,,,,,,,,apple,7,94,sing,white,592.0669470001012,None,None,592.0669470001012,None,,,,,,,,,,,,,,,,,,,,,,,,,,,,,,67,001,2023_May_01_1320,ExactRep-v3-final,2021.2.3,59.94039543098589,
,,,,,,,,94,0,94,0,,,,,,,,,,,,,,,,,,,,,,,,,,,,,,,,,,,,,,,,,,,,,,,,,,,,,596.5693099005148,None,,,,,,,,,,,,,,,,,,,,,,,,,,,,,,,,,,,storm,28,95,sing,white,594.5671490002424,None,None,594.5671490002424,None,,,,,,,,,,,,,,,,,,,,,,,,,,,,,,67,001,2023_May_01_1320,ExactRep-v3-final,2021.2.3,59.94039543098589,
,,,,,,,,95,0,95,0,,,,,,,,,,,,,,,,,,,,,,,,,,,,,,,,,,,,,,,,,,,,,,,,,,,,,599.088528400287,None,,,,,,,,,,,,,,,,,,,,,,,,,,,,,,,,,,,blossom,79,96,sing,white,597.073755200021,None,None,597.073755200021,None,,,,,,,,,,,,,,,,,,,,,,,,,,,,,,67,001,2023_May_01_1320,ExactRep-v3-final,2021.2.3,59.94039543098589,
,,,,,,,,96,0,96,0,,,,,,,,,,,,,,,,,,,,,,,,,,,,,,,,,,,,,,,,,,,,,,,,,,,,,601.607664800249,None,,,,,,,,,,,,,,,,,,,,,,,,,,,,,,,,,,,animal,36,97,sing,white,599.597437100485,None,None,599.597437100485,None,,,,,,,,,,,,,,,,,,,,,,,,,,,,,,67,001,2023_May_01_1320,ExactRep-v3-final,2021.2.3,59.94039543098589,
,,,,,,,,97,0,97,0,,,,,,,,,,,,,,,,,,,,,,,,,,,,,,,,,,,,,,,,,,,,,,,,,,,,,604.1101599000394,None,,,,,,,,,,,,,,,,,,,,,,,,,,,,,,,,,,,lake,32,98,sing,white,602.1090556997806,None,None,602.1090556997806,None,,,,,,,,,,,,,,,,,,,,,,,,,,,,,,67,001,2023_May_01_1320,ExactRep-v3-final,2021.2.3,59.94039543098589,
,,,,,,,,98,0,98,0,,,,,,,,,,,,,,,,,,,,,,,,,,,,,,,,,,,,,,,,,,,,,,,,,,,,,606.6127447001636,None,,,,,,,,,,,,,,,,,,,,,,,,,,,,,,,,,,,bird,27,99,sing,white,604.6123825004324,None,None,604.6123825004324,None,,,,,,,,,,,,,,,,,,,,,,,,,,,,,,67,001,2023_May_01_1320,ExactRep-v3-final,2021.2.3,59.94039543098589,
,,,,,,,,99,0,99,0,,,,,,,,,,,,,,,,,,,,,,,,,,,,,,,,,,,,,,,,,,,,,,,,,,,,,609.115256300196,None,,,,,,,,,,,,,,,,,,,,,,,,,,,,,,,,,,,chance,94,100,aloud,red,607.1148904003203,None,None,607.1148904003203,None,,,,,,,,,,,,,,,,,,,,,,,,,,,,,,67,001,2023_May_01_1320,ExactRep-v3-final,2021.2.3,59.94039543098589,
,,,,,,,,100,0,100,0,,,,,,,,,,,,,,,,,,,,,,,,,,,,,,,,,,,,,,,,,,,,,,,,,,,,,611.634913300164,None,,,,,,,,,,,,,,,,,,,,,,,,,,,,,,,,,,,answer,19,101,sing,white,609.6212157001719,None,None,609.6212157001719,None,,,,,,,,,,,,,,,,,,,,,,,,,,,,,,67,001,2023_May_01_1320,ExactRep-v3-final,2021.2.3,59.94039543098589,
,,,,,,,,101,0,101,0,,,,,,,,,,,,,,,,,,,,,,,,,,,,,,,,,,,,,,,,,,,,,,,,,,,,,614.1368474001065,None,,,,,,,,,,,,,,,,,,,,,,,,,,,,,,,,,,,mind,2,102,sing,white,612.134869299829,None,None,612.134869299829,None,,,,,,,,,,,,,,,,,,,,,,,,,,,,,,67,001,2023_May_01_1320,ExactRep-v3-final,2021.2.3,59.94039543098589,
,,,,,,,,102,0,102,0,,,,,,,,,,,,,,,,,,,,,,,,,,,,,,,,,,,,,,,,,,,,,,,,,,,,,616.6393699999899,None,,,,,,,,,,,,,,,,,,,,,,,,,,,,,,,,,,,anger,13,103,sing,white,614.637628200464,None,None,614.637628200464,None,,,,,,,,,,,,,,,,,,,,,,,,,,,,,,67,001,2023_May_01_1320,ExactRep-v3-final,2021.2.3,59.94039543098589,
,,,,,,,,103,0,103,0,,,,,,,,,,,,,,,,,,,,,,,,,,,,,,,,,,,,,,,,,,,,,,,,,,,,,619.1419096002355,None,,,,,,,,,,,,,,,,,,,,,,,,,,,,,,,,,,,quality,63,104,silent,blue,617.1426269002259,None,None,617.1426269002259,None,,,,,,,,,,,,,,,,,,,,,,,,,,,,,,67,001,2023_May_01_1320,ExactRep-v3-final,2021.2.3,59.94039543098589,
,,,,,,,,104,0,104,0,,,,,,,,,,,,,,,,,,,,,,,,,,,,,,,,,,,,,,,,,,,,,,,,,,,,,621.6608923003078,None,,,,,,,,,,,,,,,,,,,,,,,,,,,,,,,,,,,picture,105,105,aloud,red,619.6454859003425,None,None,619.6454859003425,None,,,,,,,,,,,,,,,,,,,,,,,,,,,,,,67,001,2023_May_01_1320,ExactRep-v3-final,2021.2.3,59.94039543098589,
,,,,,,,,105,0,105,0,,,,,,,,,,,,,,,,,,,,,,,,,,,,,,,,,,,,,,,,,,,,,,,,,,,,,624.1636159000918,None,,,,,,,,,,,,,,,,,,,,,,,,,,,,,,,,,,,arm,0,106,sing,white,622.161504900083,None,None,622.161504900083,None,,,,,,,,,,,,,,,,,,,,,,,,,,,,,,67,001,2023_May_01_1320,ExactRep-v3-final,2021.2.3,59.94039543098589,
,,,,,,,,106,0,106,0,,,,,,,,,,,,,,,,,,,,,,,,,,,,,,,,,,,,,,,,,,,,,,,,,,,,,626.6826038006693,None,,,,,,,,,,,,,,,,,,,,,,,,,,,,,,,,,,,diamond,88,107,aloud,red,624.6712298998609,None,None,624.6712298998609,None,,,,,,,,,,,,,,,,,,,,,,,,,,,,,,67,001,2023_May_01_1320,ExactRep-v3-final,2021.2.3,59.94039543098589,
,,,,,,,,107,0,107,0,,,,,,,,,,,,,,,,,,,,,,,,,,,,,,,,,,,,,,,,,,,,,,,,,,,,,629.2061520004645,None,,,,,,,,,,,,,,,,,,,,,,,,,,,,,,,,,,,insect,8,108,sing,white,627.1954441005364,None,None,627.1954441005364,None,,,,,,,,,,,,,,,,,,,,,,,,,,,,,,67,001,2023_May_01_1320,ExactRep-v3-final,2021.2.3,59.94039543098589,
,,,,,,,,108,0,108,0,,,,,,,,,,,,,,,,,,,,,,,,,,,,,,,,,,,,,,,,,,,,,,,,,,,,,631.7045363001525,None,,,,,,,,,,,,,,,,,,,,,,,,,,,,,,,,,,,steam,42,109,silent,blue,629.7026741001755,None,None,629.7026741001755,None,,,,,,,,,,,,,,,,,,,,,,,,,,,,,,67,001,2023_May_01_1320,ExactRep-v3-final,2021.2.3,59.94039543098589,
,,,,,,,,109,0,109,0,,,,,,,,,,,,,,,,,,,,,,,,,,,,,,,,,,,,,,,,,,,,,,,,,,,,,634.2069544000551,None,,,,,,,,,,,,,,,,,,,,,,,,,,,,,,,,,,,body,111,110,aloud,red,632.2064581001177,None,None,632.2064581001177,None,,,,,,,,,,,,,,,,,,,,,,,,,,,,,,67,001,2023_May_01_1320,ExactRep-v3-final,2021.2.3,59.94039543098589,
,,,,,,,,110,0,110,0,,,,,,,,,,,,,,,,,,,,,,,,,,,,,,,,,,,,,,,,,,,,,,,,,,,,,636.7093358002603,None,,,,,,,,,,,,,,,,,,,,,,,,,,,,,,,,,,,speech,45,111,silent,blue,634.7090253997594,None,None,634.7090253997594,None,,,,,,,,,,,,,,,,,,,,,,,,,,,,,,67,001,2023_May_01_1320,ExactRep-v3-final,2021.2.3,59.94039543098589,
,,,,,,,,111,0,111,0,,,,,,,,,,,,,,,,,,,,,,,,,,,,,,,,,,,,,,,,,,,,,,,,,,,,,639.228639899753,None,,,,,,,,,,,,,,,,,,,,,,,,,,,,,,,,,,,form,14,112,sing,white,637.2182721002027,None,None,637.2182721002027,None,,,,,,,,,,,,,,,,,,,,,,,,,,,,,,67,001,2023_May_01_1320,ExactRep-v3-final,2021.2.3,59.94039543098589,
,,,,,,,,112,0,112,0,,,,,,,,,,,,,,,,,,,,,,,,,,,,,,,,,,,,,,,,,,,,,,,,,,,,,641.7311527999118,None,,,,,,,,,,,,,,,,,,,,,,,,,,,,,,,,,,,paper,10,113,sing,white,639.7300014998764,None,None,639.7300014998764,None,,,,,,,,,,,,,,,,,,,,,,,,,,,,,,67,001,2023_May_01_1320,ExactRep-v3-final,2021.2.3,59.94039543098589,
,,,,,,,,113,0,113,0,,,,,,,,,,,,,,,,,,,,,,,,,,,,,,,,,,,,,,,,,,,,,,,,,,,,,644.2503607003018,None,,,,,,,,,,,,,,,,,,,,,,,,,,,,,,,,,,,soul,86,114,aloud,red,642.2351710004732,None,None,642.2351710004732,None,,,,,,,,,,,,,,,,,,,,,,,,,,,,,,67,001,2023_May_01_1320,ExactRep-v3-final,2021.2.3,59.94039543098589,
,,,,,,,,114,0,114,0,,,,,,,,,,,,,,,,,,,,,,,,,,,,,,,,,,,,,,,,,,,,,,,,,,,,,646.7528062006459,None,,,,,,,,,,,,,,,,,,,,,,,,,,,,,,,,,,,hope,65,115,silent,blue,644.7537120003253,None,None,644.7537120003253,None,,,,,,,,,,,,,,,,,,,,,,,,,,,,,,67,001,2023_May_01_1320,ExactRep-v3-final,2021.2.3,59.94039543098589,
,,,,,,,,115,0,115,0,,,,,,,,,,,,,,,,,,,,,,,,,,,,,,,,,,,,,,,,,,,,,,,,,,,,,649.2554002003744,None,,,,,,,,,,,,,,,,,,,,,,,,,,,,,,,,,,,author,82,116,aloud,red,647.2547486005351,None,None,647.2547486005351,None,,,,,,,,,,,,,,,,,,,,,,,,,,,,,,67,001,2023_May_01_1320,ExactRep-v3-final,2021.2.3,59.94039543098589,
,,,,,,,,116,0,116,0,,,,,,,,,,,,,,,,,,,,,,,,,,,,,,,,,,,,,,,,,,,,,,,,,,,,,651.7578800003976,None,,,,,,,,,,,,,,,,,,,,,,,,,,,,,,,,,,,dress,76,117,silent,blue,649.7572838002816,None,None,649.7572838002816,None,,,,,,,,,,,,,,,,,,,,,,,,,,,,,,67,001,2023_May_01_1320,ExactRep-v3-final,2021.2.3,59.94039543098589,
,,,,,,,,117,0,117,0,,,,,,,,,,,,,,,,,,,,,,,,,,,,,,,,,,,,,,,,,,,,,,,,,,,,,654.260322900489,None,,,,,,,,,,,,,,,,,,,,,,,,,,,,,,,,,,,theory,58,118,silent,blue,652.2613244000822,None,None,652.2613244000822,None,,,,,,,,,,,,,,,,,,,,,,,,,,,,,,67,001,2023_May_01_1320,ExactRep-v3-final,2021.2.3,59.94039543098589,
,,,,,,,,118,0,118,0,,,,,,,,,,,,,,,,,,,,,,,,,,,,,,,,,,,,,,,,,,,,,,,,,,,,,656.7795125003904,None,,,,,,,,,,,,,,,,,,,,,,,,,,,,,,,,,,,table,62,119,silent,blue,654.7689107004553,None,None,654.7689107004553,None,,,,,,,,,,,,,,,,,,,,,,,,,,,,,,67,001,2023_May_01_1320,ExactRep-v3-final,2021.2.3,59.94039543098589,
,,,,,,,,119,0,119,0,,,,,,,,,,,,,,,,,,,,,,,,,,,,,,,,,,,,,,,,,,,,,,,,,,,,,659.2840034998953,None,,,,,,,,,,,,,,,,,,,,,,,,,,,,,,,,,,,spirit,60,120,silent,blue,657.2798303002492,None,None,657.2798303002492,None,,,,,,,,,,,,,,,,,,,,,,,,,,,,,,67,001,2023_May_01_1320,ExactRep-v3-final,2021.2.3,59.94039543098589,
,,,,,,,,,,,,,,,,,,,,,,,,,,,,,,,,,,,,,,,,,,,,,,,,,,,,,,,,,,,,,,,,,,,,,,,,,,,,,,,,,,,,,,,,,,,,,,,,,,,,,,,,,,,,,,659.8007306000218,None,space,1.3719824999570847,669.7771161999553,None,,,,,,,,,,,,,,,,,,,,,,,,67,001,2023_May_01_1320,ExactRep-v3-final,2021.2.3,59.94039543098589,
,,,,,,,,,,,,,,,,,,,,,,,,,,,,,,,,,,,,,,,,,,,,,,,,,,,,,,,,,,,,,,,,,,,,,,,,,,,,,,,,,,,,,,,,,,,,,,,,,,,,,,,,,,,,,,,,,,,,671.1790562001988,None,space,34.033723999746144,681.155403200537,None,,,,,,,,,,,,,,,,,,67,001,2023_May_01_1320,ExactRep-v3-final,2021.2.3,59.94039543098589,
,,,,,,,,,,,,0,0,0,0,,,,,,,,,,,,,,,,,,,,,,,,,,,,,,,,,,,,,,,,,,,,,,,,,717.8903842000291,None,,,,,,,,,,,,,,,,,,,,,,,,,,,,,,,,,,,,,,,,,,,,,,,,,,,,,,,,,crime,70,1,silent,old,yellow,715.7150036003441,None,y,715.7150036003441,None,"['y', 'n', 'return']","[1.4978126995265484, 1.521832499653101, 2.129828599281609]",715.7150036003441,None,,,67,001,2023_May_01_1320,ExactRep-v3-final,2021.2.3,59.94039543098589,
,,,,,,,,,,,,1,0,1,0,,,,,,,,,,,,,,,,,,,,,,,,,,,,,,,,,,,,,,,,,,,,,,,,,720.2928422000259,None,,,,,,,,,,,,,,,,,,,,,,,,,,,,,,,,,,,,,,,,,,,,,,,,,,,,,,,,,corner,44,2,silent,old,yellow,718.3910734001547,None,y,718.3910734001547,None,"['y', 'return']","[1.493780099786818, 1.8617389993742108]",718.3910734001547,None,,,67,001,2023_May_01_1320,ExactRep-v3-final,2021.2.3,59.94039543098589,
,,,,,,,,,,,,2,0,2,0,,,,,,,,,,,,,,,,,,,,,,,,,,,,,,,,,,,,,,,,,,,,,,,,,722.1947289006785,None,,,,,,,,,,,,,,,,,,,,,,,,,,,,,,,,,,,,,,,,,,,,,,,,,,,,,,,,,butter,75,3,silent,old,yellow,720.810118900612,None,y,720.810118900612,None,"['y', 'return']","[0.9866228001192212, 1.3387675005942583]",720.810118900612,None,,,67,001,2023_May_01_1320,ExactRep-v3-final,2021.2.3,59.94039543098589,
,,,,,,,,,,,,3,0,3,0,,,,,,,,,,,,,,,,,,,,,,,,,,,,,,,,,,,,,,,,,,,,,,,,,724.0632744999602,None,,,,,,,,,,,,,,,,,,,,,,,,,,,,,,,,,,,,,,,,,,,,,,,,,,,,,,,,,style,92,4,aloud,old,yellow,722.7031939998269,None,y,722.7031939998269,None,"['y', 'return']","[0.9898998998105526, 1.3256906997412443]",722.7031939998269,None,,,67,001,2023_May_01_1320,ExactRep-v3-final,2021.2.3,59.94039543098589,
,,,,,,,,,,,,4,0,4,0,,,,,,,,,,,,,,,,,,,,,,,,,,,,,,,,,,,,,,,,,,,,,,,,,725.9985885005444,None,,,,,,,,,,,,,,,,,,,,,,,,,,,,,,,,,,,,,,,,,,,,,,,,,,,,,,,,,cat,166,5,aloud,new,yellow,724.5723326001316,None,n,724.5723326001316,None,"['n', 'return']","[1.0644819997251034, 1.384637899696827]",724.5723326001316,None,,,67,001,2023_May_01_1320,ExactRep-v3-final,2021.2.3,59.94039543098589,
,,,,,,,,,,,,5,0,5,0,,,,,,,,,,,,,,,,,,,,,,,,,,,,,,,,,,,,,,,,,,,,,,,,,728.4676644997671,None,,,,,,,,,,,,,,,,,,,,,,,,,,,,,,,,,,,,,,,,,,,,,,,,,,,,,,,,,sugar,135,6,silent,new,yellow,726.5083832005039,None,y,726.5083832005039,None,"['y', 'return']","[1.6166020995005965, 1.9125538999214768]",726.5083832005039,None,,,67,001,2023_May_01_1320,ExactRep-v3-final,2021.2.3,59.94039543098589,
,,,,,,,,,,,,6,0,6,0,,,,,,,,,,,,,,,,,,,,,,,,,,,,,,,,,,,,,,,,,,,,,,,,,730.4363636001945,None,,,,,,,,,,,,,,,,,,,,,,,,,,,,,,,,,,,,,,,,,,,,,,,,,,,,,,,,,fire,51,7,silent,old,yellow,728.9766958998516,None,n,728.9766958998516,None,"['n', 'return']","[1.0601500999182463, 1.4121473003178835]",728.9766958998516,None,,,67,001,2023_May_01_1320,ExactRep-v3-final,2021.2.3,59.94039543098589,
,,,,,,,,,,,,7,0,7,0,,,,,,,,,,,,,,,,,,,,,,,,,,,,,,,,,,,,,,,,,,,,,,,,,732.3882665000856,None,,,,,,,,,,,,,,,,,,,,,,,,,,,,,,,,,,,,,,,,,,,,,,,,,,,,,,,,,judge,9,8,sing,old,yellow,730.9501384999603,None,y,730.9501384999603,None,"['y', 'return']","[1.0626769997179508, 1.3906942997127771]",730.9501384999603,None,,,67,001,2023_May_01_1320,ExactRep-v3-final,2021.2.3,59.94039543098589,
,,,,,,,,,,,,8,0,8,0,,,,,,,,,,,,,,,,,,,,,,,,,,,,,,,,,,,,,,,,,,,,,,,,,734.5405656006187,None,,,,,,,,,,,,,,,,,,,,,,,,,,,,,,,,,,,,,,,,,,,,,,,,,,,,,,,,,power,162,9,aloud,new,yellow,732.8995981998742,None,y,732.8995981998742,None,"['y', 'return']","[1.2974175997078419, 1.6013230998069048]",732.8995981998742,None,,,67,001,2023_May_01_1320,ExactRep-v3-final,2021.2.3,59.94039543098589,
,,,,,,,,,,,,9,0,9,0,,,,,,,,,,,,,,,,,,,,,,,,,,,,,,,,,,,,,,,,,,,,,,,,,736.9928574003279,None,,,,,,,,,,,,,,,,,,,,,,,,,,,,,,,,,,,,,,,,,,,,,,,,,,,,,,,,,church,84,10,aloud,old,yellow,735.0487179001793,None,y,735.0487179001793,None,"['y', 'return']","[1.5402223002165556, 1.908245800063014]",735.0487179001793,None,,,67,001,2023_May_01_1320,ExactRep-v3-final,2021.2.3,59.94039543098589,
,,,,,,,,,,,,10,0,10,0,,,,,,,,,,,,,,,,,,,,,,,,,,,,,,,,,,,,,,,,,,,,,,,,,739.0282307006419,None,,,,,,,,,,,,,,,,,,,,,,,,,,,,,,,,,,,,,,,,,,,,,,,,,,,,,,,,,ability,159,11,silent,new,yellow,737.5005720006302,None,n,737.5005720006302,None,"['n', 'return']","[1.104322699829936, 1.4803720992058516]",737.5005720006302,None,,,67,001,2023_May_01_1320,ExactRep-v3-final,2021.2.3,59.94039543098589,
,,,,,,,,,,,,11,0,11,0,,,,,,,,,,,,,,,,,,,,,,,,,,,,,,,,,,,,,,,,,,,,,,,,,740.99687669985,None,,,,,,,,,,,,,,,,,,,,,,,,,,,,,,,,,,,,,,,,,,,,,,,,,,,,,,,,,slave,212,12,aloud,new,yellow,739.54056819994,None,n,739.54056819994,None,"['n', 'return']","[1.0565007999539375, 1.4242623001337051]",739.54056819994,None,,,67,001,2023_May_01_1320,ExactRep-v3-final,2021.2.3,59.94039543098589,
,,,,,,,,,,,,12,0,12,0,,,,,,,,,,,,,,,,,,,,,,,,,,,,,,,,,,,,,,,,,,,,,,,,,743.933268500492,None,,,,,,,,,,,,,,,,,,,,,,,,,,,,,,,,,,,,,,,,,,,,,,,,,,,,,,,,,pole,206,13,aloud,new,yellow,741.5053010005504,None,n,741.5053010005504,None,"['n', 'return']","[2.0598013000562787, 2.395560900680721]",741.5053010005504,None,,,67,001,2023_May_01_1320,ExactRep-v3-final,2021.2.3,59.94039543098589,
,,,,,,,,,,,,13,0,13,0,,,,,,,,,,,,,,,,,,,,,,,,,,,,,,,,,,,,,,,,,,,,,,,,,746.8026688005775,None,,,,,,,,,,,,,,,,,,,,,,,,,,,,,,,,,,,,,,,,,,,,,,,,,,,,,,,,,thought,136,14,silent,new,yellow,744.4471525000408,None,n,744.4471525000408,None,"['n', 'return']","[1.9496723003685474, 2.3176603000611067]",744.4471525000408,None,,,67,001,2023_May_01_1320,ExactRep-v3-final,2021.2.3,59.94039543098589,
,,,,,,,,,,,,14,0,14,0,,,,,,,,,,,,,,,,,,,,,,,,,,,,,,,,,,,,,,,,,,,,,,,,,749.8224344998598,None,,,,,,,,,,,,,,,,,,,,,,,,,,,,,,,,,,,,,,,,,,,,,,,,,,,,,,,,,coast,176,15,aloud,new,yellow,747.3150770999491,None,y,747.3150770999491,None,"['y', 'return']","[2.1218914994969964, 2.4738534996286035]",747.3150770999491,None,,,67,001,2023_May_01_1320,ExactRep-v3-final,2021.2.3,59.94039543098589,
,,,,,,,,,,,,15,0,15,0,,,,,,,,,,,,,,,,,,,,,,,,,,,,,,,,,,,,,,,,,,,,,,,,,751.7909893998876,None,,,,,,,,,,,,,,,,,,,,,,,,,,,,,,,,,,,,,,,,,,,,,,,,,,,,,,,,,excuse,164,16,aloud,new,yellow,750.3327772999182,None,n,750.3327772999182,None,"['n', 'return']","[1.1122646005824208, 1.4240820007398725]",750.3327772999182,None,,,67,001,2023_May_01_1320,ExactRep-v3-final,2021.2.3,59.94039543098589,
,,,,,,,,,,,,16,0,16,0,,,,,,,,,,,,,,,,,,,,,,,,,,,,,,,,,,,,,,,,,,,,,,,,,753.4927269006148,None,,,,,,,,,,,,,,,,,,,,,,,,,,,,,,,,,,,,,,,,,,,,,,,,,,,,,,,,,idea,55,17,silent,old,yellow,752.3027824005112,None,n,752.3027824005112,None,"['n', 'return']","[0.8619385994970798, 1.1582530001178384]",752.3027824005112,None,,,67,001,2023_May_01_1320,ExactRep-v3-final,2021.2.3,59.94039543098589,
,,,,,,,,,,,,17,0,17,0,,,,,,,,,,,,,,,,,,,,,,,,,,,,,,,,,,,,,,,,,,,,,,,,,755.728241099976,None,,,,,,,,,,,,,,,,,,,,,,,,,,,,,,,,,,,,,,,,,,,,,,,,,,,,,,,,,officer,81,18,aloud,old,yellow,754.0103540001437,None,y,754.0103540001437,None,"['y', 'return']","[1.322456800378859, 1.6744808005169034]",754.0103540001437,None,,,67,001,2023_May_01_1320,ExactRep-v3-final,2021.2.3,59.94039543098589,
,,,,,,,,,,,,18,0,18,0,,,,,,,,,,,,,,,,,,,,,,,,,,,,,,,,,,,,,,,,,,,,,,,,,757.9137476002797,None,,,,,,,,,,,,,,,,,,,,,,,,,,,,,,,,,,,,,,,,,,,,,,,,,,,,,,,,,product,43,19,silent,old,yellow,756.2381957005709,None,y,756.2381957005709,None,"['y', 'return']","[1.1187505992129445, 1.630765799432993]",756.2381957005709,None,,,67,001,2023_May_01_1320,ExactRep-v3-final,2021.2.3,59.94039543098589,
,,,,,,,,,,,,19,0,19,0,,,,,,,,,,,,,,,,,,,,,,,,,,,,,,,,,,,,,,,,,,,,,,,,,761.3177721006796,None,,,,,,,,,,,,,,,,,,,,,,,,,,,,,,,,,,,,,,,,,,,,,,,,,,,,,,,,,boulder,115,20,aloud,old,yellow,758.4325620001182,None,y,758.4325620001182,None,"['y', 'return']","[2.5083579001948237, 2.852164400741458]",758.4325620001182,None,,,67,001,2023_May_01_1320,ExactRep-v3-final,2021.2.3,59.94039543098589,
,,,,,,,,,,,,20,0,20,0,,,,,,,,,,,,,,,,,,,,,,,,,,,,,,,,,,,,,,,,,,,,,,,,,763.2524458998814,None,,,,,,,,,,,,,,,,,,,,,,,,,,,,,,,,,,,,,,,,,,,,,,,,,,,,,,,,,window,181,21,sing,new,yellow,761.8268895000219,None,n,761.8268895000219,None,"['n', 'return']","[1.0978870000690222, 1.3940459992736578]",761.8268895000219,None,,,67,001,2023_May_01_1320,ExactRep-v3-final,2021.2.3,59.94039543098589,
,,,,,,,,,,,,21,0,21,0,,,,,,,,,,,,,,,,,,,,,,,,,,,,,,,,,,,,,,,,,,,,,,,,,765.2713058004156,None,,,,,,,,,,,,,,,,,,,,,,,,,,,,,,,,,,,,,,,,,,,,,,,,,,,,,,,,,sky,170,22,aloud,new,yellow,763.7660694001243,None,y,763.7660694001243,None,"['y', 'return']","[1.166755300015211, 1.4628711007535458]",763.7660694001243,None,,,67,001,2023_May_01_1320,ExactRep-v3-final,2021.2.3,59.94039543098589,
,,,,,,,,,,,,22,0,22,0,,,,,,,,,,,,,,,,,,,,,,,,,,,,,,,,,,,,,,,,,,,,,,,,,767.3397035002708,None,,,,,,,,,,,,,,,,,,,,,,,,,,,,,,,,,,,,,,,,,,,,,,,,,,,,,,,,,poet,107,23,aloud,old,yellow,765.7802082002163,None,y,765.7802082002163,None,"['y', 'return']","[1.2245620004832745, 1.5207016002386808]",765.7802082002163,None,,,67,001,2023_May_01_1320,ExactRep-v3-final,2021.2.3,59.94039543098589,
,,,,,,,,,,,,23,0,23,0,,,,,,,,,,,,,,,,,,,,,,,,,,,,,,,,,,,,,,,,,,,,,,,,,769.0750091001391,None,,,,,,,,,,,,,,,,,,,,,,,,,,,,,,,,,,,,,,,,,,,,,,,,,,,,,,,,,custom,12,24,sing,old,yellow,767.8473668005317,None,y,767.8473668005317,None,"['y', 'return']","[0.8380428999662399, 1.181513199582696]",767.8473668005317,None,,,67,001,2023_May_01_1320,ExactRep-v3-final,2021.2.3,59.94039543098589,
,,,,,,,,,,,,24,0,24,0,,,,,,,,,,,,,,,,,,,,,,,,,,,,,,,,,,,,,,,,,,,,,,,,,772.4951838003471,None,,,,,,,,,,,,,,,,,,,,,,,,,,,,,,,,,,,,,,,,,,,,,,,,,,,,,,,,,maiden,109,25,aloud,old,yellow,769.5864203004166,None,n,769.5864203004166,None,"['n', 'return']","[2.5544582000002265, 2.866496399976313]",769.5864203004166,None,,,67,001,2023_May_01_1320,ExactRep-v3-final,2021.2.3,59.94039543098589,
,,,,,,,,,,,,25,0,25,0,,,,,,,,,,,,,,,,,,,,,,,,,,,,,,,,,,,,,,,,,,,,,,,,,774.2968548005447,None,,,,,,,,,,,,,,,,,,,,,,,,,,,,,,,,,,,,,,,,,,,,,,,,,,,,,,,,,lord,239,26,sing,new,yellow,773.0042026005685,None,n,773.0042026005685,None,"['n', 'return']","[0.9046435998752713, 1.2567511992529035]",773.0042026005685,None,,,67,001,2023_May_01_1320,ExactRep-v3-final,2021.2.3,59.94039543098589,
,,,,,,,,,,,,26,0,26,0,,,,,,,,,,,,,,,,,,,,,,,,,,,,,,,,,,,,,,,,,,,,,,,,,775.9818665003404,None,,,,,,,,,,,,,,,,,,,,,,,,,,,,,,,,,,,,,,,,,,,,,,,,,,,,,,,,,market,25,27,sing,old,yellow,774.8070109002292,None,y,774.8070109002292,None,"['y', 'return']","[0.8618272002786398, 1.1418955996632576]",774.8070109002292,None,,,67,001,2023_May_01_1320,ExactRep-v3-final,2021.2.3,59.94039543098589,
,,,,,,,,,,,,27,0,27,0,,,,,,,,,,,,,,,,,,,,,,,,,,,,,,,,,,,,,,,,,,,,,,,,,778.017181600444,None,,,,,,,,,,,,,,,,,,,,,,,,,,,,,,,,,,,,,,,,,,,,,,,,,,,,,,,,,owner,163,28,sing,new,yellow,776.4912235997617,None,n,776.4912235997617,None,"['n', 'return']","[1.1857833005487919, 1.4816118003800511]",776.4912235997617,None,,,67,001,2023_May_01_1320,ExactRep-v3-final,2021.2.3,59.94039543098589,
,,,,,,,,,,,,28,0,28,0,,,,,,,,,,,,,,,,,,,,,,,,,,,,,,,,,,,,,,,,,,,,,,,,,780.0192824006081,None,,,,,,,,,,,,,,,,,,,,,,,,,,,,,,,,,,,,,,,,,,,,,,,,,,,,,,,,,history,200,29,aloud,new,yellow,778.5270830998197,None,y,778.5270830998197,None,"['y', 'return']","[1.1738219996914268, 1.4457993004471064]",778.5270830998197,None,,,67,001,2023_May_01_1320,ExactRep-v3-final,2021.2.3,59.94039543098589,
,,,,,,,,,,,,29,0,29,0,,,,,,,,,,,,,,,,,,,,,,,,,,,,,,,,,,,,,,,,,,,,,,,,,782.7887006001547,None,,,,,,,,,,,,,,,,,,,,,,,,,,,,,,,,,,,,,,,,,,,,,,,,,,,,,,,,,silence,235,30,sing,new,yellow,780.5230782004073,None,n,780.5230782004073,None,"['n', 'return']","[1.9459295002743602, 2.2178058000281453]",780.5230782004073,None,,,67,001,2023_May_01_1320,ExactRep-v3-final,2021.2.3,59.94039543098589,
,,,,,,,,,,,,30,0,30,0,,,,,,,,,,,,,,,,,,,,,,,,,,,,,,,,,,,,,,,,,,,,,,,,,784.7739695999771,None,,,,,,,,,,,,,,,,,,,,,,,,,,,,,,,,,,,,,,,,,,,,,,,,,,,,,,,,,cash,202,31,aloud,new,yellow,783.2987783998251,None,y,783.2987783998251,None,"['y', 'return']","[1.1382405990734696, 1.4422513991594315]",783.2987783998251,None,,,67,001,2023_May_01_1320,ExactRep-v3-final,2021.2.3,59.94039543098589,
,,,,,,,,,,,,31,0,31,0,,,,,,,,,,,,,,,,,,,,,,,,,,,,,,,,,,,,,,,,,,,,,,,,,786.9094473002478,None,,,,,,,,,,,,,,,,,,,,,,,,,,,,,,,,,,,,,,,,,,,,,,,,,,,,,,,,,chair,127,32,silent,new,yellow,785.2851648004726,None,y,785.2851648004726,None,"['y', 'return']","[1.2317062998190522, 1.5838262997567654]",785.2851648004726,None,,,67,001,2023_May_01_1320,ExactRep-v3-final,2021.2.3,59.94039543098589,
,,,,,,,,,,,,32,0,32,0,,,,,,,,,,,,,,,,,,,,,,,,,,,,,,,,,,,,,,,,,,,,,,,,,789.1285120006651,None,,,,,,,,,,,,,,,,,,,,,,,,,,,,,,,,,,,,,,,,,,,,,,,,,,,,,,,,,flag,117,33,aloud,old,yellow,787.417758400552,None,y,787.417758400552,None,"['y', 'return']","[1.3153715999796987, 1.6752354996278882]",787.417758400552,None,,,67,001,2023_May_01_1320,ExactRep-v3-final,2021.2.3,59.94039543098589,
,,,,,,,,,,,,33,0,33,0,,,,,,,,,,,,,,,,,,,,,,,,,,,,,,,,,,,,,,,,,,,,,,,,,792.4651565002277,None,,,,,,,,,,,,,,,,,,,,,,,,,,,,,,,,,,,,,,,,,,,,,,,,,,,,,,,,,king,64,34,silent,old,yellow,789.6374184004962,None,n,789.6374184004962,None,"['n', 'return']","[1.6954855993390083, 2.7834429992362857]",789.6374184004962,None,,,67,001,2023_May_01_1320,ExactRep-v3-final,2021.2.3,59.94039543098589,
,,,,,,,,,,,,34,0,34,0,,,,,,,,,,,,,,,,,,,,,,,,,,,,,,,,,,,,,,,,,,,,,,,,,794.4170216005296,None,,,,,,,,,,,,,,,,,,,,,,,,,,,,,,,,,,,,,,,,,,,,,,,,,,,,,,,,,soil,119,35,aloud,old,yellow,792.9724385999143,None,y,792.9724385999143,None,"['y', 'return']","[1.1286410000175238, 1.4004856999963522]",792.9724385999143,None,,,67,001,2023_May_01_1320,ExactRep-v3-final,2021.2.3,59.94039543098589,
,,,,,,,,,,,,35,0,35,0,,,,,,,,,,,,,,,,,,,,,,,,,,,,,,,,,,,,,,,,,,,,,,,,,796.2354463003576,None,,,,,,,,,,,,,,,,,,,,,,,,,,,,,,,,,,,,,,,,,,,,,,,,,,,,,,,,,diamond,88,36,aloud,old,yellow,794.9293784005567,None,y,794.9293784005567,None,"['y', 'return']","[0.9717443995177746, 1.2594643998891115]",794.9293784005567,None,,,67,001,2023_May_01_1320,ExactRep-v3-final,2021.2.3,59.94039543098589,
,,,,,,,,,,,,36,0,36,0,,,,,,,,,,,,,,,,,,,,,,,,,,,,,,,,,,,,,,,,,,,,,,,,,798.0372355999425,None,,,,,,,,,,,,,,,,,,,,,,,,,,,,,,,,,,,,,,,,,,,,,,,,,,,,,,,,,chance,94,37,aloud,old,yellow,796.7457429999486,None,n,796.7457429999486,None,"['n', 'return']","[0.9552346998825669, 1.2593253999948502]",796.7457429999486,None,,,67,001,2023_May_01_1320,ExactRep-v3-final,2021.2.3,59.94039543098589,
,,,,,,,,,,,,37,0,37,0,,,,,,,,,,,,,,,,,,,,,,,,,,,,,,,,,,,,,,,,,,,,,,,,,800.1060520000756,None,,,,,,,,,,,,,,,,,,,,,,,,,,,,,,,,,,,,,,,,,,,,,,,,,,,,,,,,,corn,229,38,sing,new,yellow,798.5453193997964,None,n,798.5453193997964,None,"['n', 'return']","[1.1316725006327033, 1.5156268002465367]",798.5453193997964,None,,,67,001,2023_May_01_1320,ExactRep-v3-final,2021.2.3,59.94039543098589,
,,,,,,,,,,,,38,0,38,0,,,,,,,,,,,,,,,,,,,,,,,,,,,,,,,,,,,,,,,,,,,,,,,,,802.1914745001122,None,,,,,,,,,,,,,,,,,,,,,,,,,,,,,,,,,,,,,,,,,,,,,,,,,,,,,,,,,virtue,189,39,sing,new,yellow,800.6149752000347,None,n,800.6149752000347,None,"['n', 'return']","[1.2380579998716712, 1.541889499872923]",800.6149752000347,None,,,67,001,2023_May_01_1320,ExactRep-v3-final,2021.2.3,59.94039543098589,
,,,,,,,,,,,,39,0,39,0,,,,,,,,,,,,,,,,,,,,,,,,,,,,,,,,,,,,,,,,,,,,,,,,,804.076590700075,None,,,,,,,,,,,,,,,,,,,,,,,,,,,,,,,,,,,,,,,,,,,,,,,,,,,,,,,,,breast,40,40,silent,old,yellow,802.7038291003555,None,y,802.7038291003555,None,"['y', 'return']","[1.0129947997629642, 1.3251542001962662]",802.7038291003555,None,,,67,001,2023_May_01_1320,ExactRep-v3-final,2021.2.3,59.94039543098589,
,,,,,,,,,,,,40,0,40,0,,,,,,,,,,,,,,,,,,,,,,,,,,,,,,,,,,,,,,,,,,,,,,,,,806.128652700223,None,,,,,,,,,,,,,,,,,,,,,,,,,,,,,,,,,,,,,,,,,,,,,,,,,,,,,,,,,coin,144,41,silent,new,yellow,804.5895014004782,None,y,804.5895014004782,None,"['y', 'return']","[1.199413700029254, 1.4953437997028232]",804.5895014004782,None,,,67,001,2023_May_01_1320,ExactRep-v3-final,2021.2.3,59.94039543098589,
,,,,,,,,,,,,41,0,41,0,,,,,,,,,,,,,,,,,,,,,,,,,,,,,,,,,,,,,,,,,,,,,,,,,808.0305559998378,None,,,,,,,,,,,,,,,,,,,,,,,,,,,,,,,,,,,,,,,,,,,,,,,,,,,,,,,,,origin,134,42,silent,new,yellow,806.6382531002164,None,n,806.6382531002164,None,"['n', 'return']","[1.0546259004622698, 1.350641000084579]",806.6382531002164,None,,,67,001,2023_May_01_1320,ExactRep-v3-final,2021.2.3,59.94039543098589,
,,,,,,,,,,,,42,0,42,0,,,,,,,,,,,,,,,,,,,,,,,,,,,,,,,,,,,,,,,,,,,,,,,,,810.9000834999606,None,,,,,,,,,,,,,,,,,,,,,,,,,,,,,,,,,,,,,,,,,,,,,,,,,,,,,,,,,steam,42,43,silent,old,yellow,808.5388730000705,None,n,808.5388730000705,None,"['n', 'return']","[1.9859958002343774, 2.314064599573612]",808.5388730000705,None,,,67,001,2023_May_01_1320,ExactRep-v3-final,2021.2.3,59.94039543098589,
,,,,,,,,,,,,43,0,43,0,,,,,,,,,,,,,,,,,,,,,,,,,,,,,,,,,,,,,,,,,,,,,,,,,812.7020585006103,None,,,,,,,,,,,,,,,,,,,,,,,,,,,,,,,,,,,,,,,,,,,,,,,,,,,,,,,,,present,183,44,sing,new,yellow,811.4099868005142,None,n,811.4099868005142,None,"['n', 'return']","[0.8748158002272248, 1.2509451005607843]",811.4099868005142,None,,,67,001,2023_May_01_1320,ExactRep-v3-final,2021.2.3,59.94039543098589,
,,,,,,,,,,,,44,0,44,0,,,,,,,,,,,,,,,,,,,,,,,,,,,,,,,,,,,,,,,,,,,,,,,,,814.5370240006596,None,,,,,,,,,,,,,,,,,,,,,,,,,,,,,,,,,,,,,,,,,,,,,,,,,,,,,,,,,temple,193,45,sing,new,yellow,813.2113934000954,None,n,813.2113934000954,None,"['n', 'return']","[0.9934696005657315, 1.2895977003499866]",813.2113934000954,None,,,67,001,2023_May_01_1320,ExactRep-v3-final,2021.2.3,59.94039543098589,
,,,,,,,,,,,,45,0,45,0,,,,,,,,,,,,,,,,,,,,,,,,,,,,,,,,,,,,,,,,,,,,,,,,,816.6224795999005,None,,,,,,,,,,,,,,,,,,,,,,,,,,,,,,,,,,,,,,,,,,,,,,,,,,,,,,,,,shore,199,46,sing,new,yellow,815.0468597998843,None,n,815.0468597998843,None,"['n', 'return']","[1.2540642004460096, 1.5340719008818269]",815.0468597998843,None,,,67,001,2023_May_01_1320,ExactRep-v3-final,2021.2.3,59.94039543098589,
,,,,,,,,,,,,46,0,46,0,,,,,,,,,,,,,,,,,,,,,,,,,,,,,,,,,,,,,,,,,,,,,,,,,818.4745303001255,None,,,,,,,,,,,,,,,,,,,,,,,,,,,,,,,,,,,,,,,,,,,,,,,,,,,,,,,,,village,77,47,silent,old,yellow,817.1364853000268,None,y,817.1364853000268,None,"['y', 'return']","[0.9404177004471421, 1.2924487004056573]",817.1364853000268,None,,,67,001,2023_May_01_1320,ExactRep-v3-final,2021.2.3,59.94039543098589,
,,,,,,,,,,,,47,0,47,0,,,,,,,,,,,,,,,,,,,,,,,,,,,,,,,,,,,,,,,,,,,,,,,,,821.4606288000941,None,,,,,,,,,,,,,,,,,,,,,,,,,,,,,,,,,,,,,,,,,,,,,,,,,,,,,,,,,weapon,153,48,silent,new,yellow,818.986874899827,None,n,818.986874899827,None,"['n', 'return']","[1.5862263003364205, 2.442065299488604]",818.986874899827,None,,,67,001,2023_May_01_1320,ExactRep-v3-final,2021.2.3,59.94039543098589,
,,,,,,,,,,,,48,0,48,0,,,,,,,,,,,,,,,,,,,,,,,,,,,,,,,,,,,,,,,,,,,,,,,,,823.5294025000185,None,,,,,,,,,,,,,,,,,,,,,,,,,,,,,,,,,,,,,,,,,,,,,,,,,,,,,,,,,form,14,49,sing,old,yellow,821.9703748999164,None,y,821.9703748999164,None,"['y', 'return']","[1.210534599609673, 1.5225404994562268]",821.9703748999164,None,,,67,001,2023_May_01_1320,ExactRep-v3-final,2021.2.3,59.94039543098589,
,,,,,,,,,,,,49,0,49,0,,,,,,,,,,,,,,,,,,,,,,,,,,,,,,,,,,,,,,,,,,,,,,,,,825.5983539000154,None,,,,,,,,,,,,,,,,,,,,,,,,,,,,,,,,,,,,,,,,,,,,,,,,,,,,,,,,,square,230,50,aloud,new,yellow,824.0411582998931,None,n,824.0411582998931,None,"['n', 'return']","[1.1478781001642346, 1.5157674998044968]",824.0411582998931,None,,,67,001,2023_May_01_1320,ExactRep-v3-final,2021.2.3,59.94039543098589,
,,,,,,,,,,,,50,0,50,0,,,,,,,,,,,,,,,,,,,,,,,,,,,,,,,,,,,,,,,,,,,,,,,,,827.5669537000358,None,,,,,,,,,,,,,,,,,,,,,,,,,,,,,,,,,,,,,,,,,,,,,,,,,,,,,,,,,fault,139,51,silent,new,yellow,826.1091990005225,None,n,826.1091990005225,None,"['n', 'return']","[1.1357366004958749, 1.4237104998901486]",826.1091990005225,None,,,67,001,2023_May_01_1320,ExactRep-v3-final,2021.2.3,59.94039543098589,
,,,,,,,,,,,,51,0,51,0,,,,,,,,,,,,,,,,,,,,,,,,,,,,,,,,,,,,,,,,,,,,,,,,,829.3852291004732,None,,,,,,,,,,,,,,,,,,,,,,,,,,,,,,,,,,,,,,,,,,,,,,,,,,,,,,,,,circle,110,52,aloud,old,yellow,828.1077065002173,None,y,828.1077065002173,None,"['y', 'return']","[0.9373738998547196, 1.2413198994472623]",828.1077065002173,None,,,67,001,2023_May_01_1320,ExactRep-v3-final,2021.2.3,59.94039543098589,
,,,,,,,,,,,,52,0,52,0,,,,,,,,,,,,,,,,,,,,,,,,,,,,,,,,,,,,,,,,,,,,,,,,,830.936907700263,None,,,,,,,,,,,,,,,,,,,,,,,,,,,,,,,,,,,,,,,,,,,,,,,,,,,,,,,,,ship,11,53,sing,old,yellow,829.8937665000558,None,n,829.8937665000558,None,"['n', 'return']","[0.7272537006065249, 1.0073065999895334]",829.8937665000558,None,,,67,001,2023_May_01_1320,ExactRep-v3-final,2021.2.3,59.94039543098589,
,,,,,,,,,,,,53,0,53,0,,,,,,,,,,,,,,,,,,,,,,,,,,,,,,,,,,,,,,,,,,,,,,,,,833.3224927000701,None,,,,,,,,,,,,,,,,,,,,,,,,,,,,,,,,,,,,,,,,,,,,,,,,,,,,,,,,,spirit,60,54,silent,old,yellow,831.4522094000131,None,n,831.4522094000131,None,"['n', 'return']","[1.5368135999888182, 1.8328138999640942]",831.4522094000131,None,,,67,001,2023_May_01_1320,ExactRep-v3-final,2021.2.3,59.94039543098589,
,,,,,,,,,,,,54,0,54,0,,,,,,,,,,,,,,,,,,,,,,,,,,,,,,,,,,,,,,,,,,,,,,,,,834.9741654004902,None,,,,,,,,,,,,,,,,,,,,,,,,,,,,,,,,,,,,,,,,,,,,,,,,,,,,,,,,,queen,100,55,aloud,old,yellow,833.834406000562,None,y,833.834406000562,None,"['y', 'return']","[0.7865097001194954, 1.1066244998946786]",833.834406000562,None,,,67,001,2023_May_01_1320,ExactRep-v3-final,2021.2.3,59.94039543098589,
,,,,,,,,,,,,55,0,55,0,,,,,,,,,,,,,,,,,,,,,,,,,,,,,,,,,,,,,,,,,,,,,,,,,837.2931714002043,None,,,,,,,,,,,,,,,,,,,,,,,,,,,,,,,,,,,,,,,,,,,,,,,,,,,,,,,,,ticket,68,56,silent,old,yellow,835.4911665003747,None,y,835.4911665003747,None,"['y', 'return']","[1.4578947005793452, 1.7698177006095648]",835.4911665003747,None,,,67,001,2023_May_01_1320,ExactRep-v3-final,2021.2.3,59.94039543098589,
,,,,,,,,,,,,56,0,56,0,,,,,,,,,,,,,,,,,,,,,,,,,,,,,,,,,,,,,,,,,,,,,,,,,839.2451061997563,None,,,,,,,,,,,,,,,,,,,,,,,,,,,,,,,,,,,,,,,,,,,,,,,,,,,,,,,,,leader,158,57,silent,new,yellow,837.8057051999494,None,n,837.8057051999494,None,"['n', 'return']","[0.9754052003845572, 1.4072112003341317]",837.8057051999494,None,,,67,001,2023_May_01_1320,ExactRep-v3-final,2021.2.3,59.94039543098589,
,,,,,,,,,,,,57,0,57,0,,,,,,,,,,,,,,,,,,,,,,,,,,,,,,,,,,,,,,,,,,,,,,,,,841.3472476005554,None,,,,,,,,,,,,,,,,,,,,,,,,,,,,,,,,,,,,,,,,,,,,,,,,,,,,,,,,,salary,228,58,aloud,new,yellow,839.7519485000521,None,n,839.7519485000521,None,"['n', 'return']","[1.2611440001055598, 1.5570980003103614]",839.7519485000521,None,,,67,001,2023_May_01_1320,ExactRep-v3-final,2021.2.3,59.94039543098589,
,,,,,,,,,,,,58,0,58,0,,,,,,,,,,,,,,,,,,,,,,,,,,,,,,,,,,,,,,,,,,,,,,,,,842.9321347000077,None,,,,,,,,,,,,,,,,,,,,,,,,,,,,,,,,,,,,,,,,,,,,,,,,,,,,,,,,,lake,32,59,sing,old,yellow,841.861669300124,None,n,841.861669300124,None,"['n', 'return']","[0.7594276992604136, 1.0313622998073697]",841.861669300124,None,,,67,001,2023_May_01_1320,ExactRep-v3-final,2021.2.3,59.94039543098589,
,,,,,,,,,,,,59,0,59,0,,,,,,,,,,,,,,,,,,,,,,,,,,,,,,,,,,,,,,,,,,,,,,,,,844.500386800617,None,,,,,,,,,,,,,,,,,,,,,,,,,,,,,,,,,,,,,,,,,,,,,,,,,,,,,,,,,flower,126,60,silent,new,yellow,843.4506892003119,None,n,843.4506892003119,None,"['n', 'return']","[0.7143433000892401, 1.0102697992697358]",843.4506892003119,None,,,67,001,2023_May_01_1320,ExactRep-v3-final,2021.2.3,59.94039543098589,
,,,,,,,,,,,,60,0,60,0,,,,,,,,,,,,,,,,,,,,,,,,,,,,,,,,,,,,,,,,,,,,,,,,,846.252165700309,None,,,,,,,,,,,,,,,,,,,,,,,,,,,,,,,,,,,,,,,,,,,,,,,,,,,,,,,,,winter,182,61,aloud,new,yellow,845.0100007997826,None,n,845.0100007997826,None,"['n', 'return']","[0.9071068996563554, 1.203099800273776]",845.0100007997826,None,,,67,001,2023_May_01_1320,ExactRep-v3-final,2021.2.3,59.94039543098589,
,,,,,,,,,,,,61,0,61,0,,,,,,,,,,,,,,,,,,,,,,,,,,,,,,,,,,,,,,,,,,,,,,,,,848.4376330003142,None,,,,,,,,,,,,,,,,,,,,,,,,,,,,,,,,,,,,,,,,,,,,,,,,,,,,,,,,,bird,27,62,sing,old,yellow,846.7593408999965,None,y,846.7593408999965,None,"['y', 'return']","[1.3256126996129751, 1.637717000208795]",846.7593408999965,None,,,67,001,2023_May_01_1320,ExactRep-v3-final,2021.2.3,59.94039543098589,
,,,,,,,,,,,,62,0,62,0,,,,,,,,,,,,,,,,,,,,,,,,,,,,,,,,,,,,,,,,,,,,,,,,,850.4396462002769,None,,,,,,,,,,,,,,,,,,,,,,,,,,,,,,,,,,,,,,,,,,,,,,,,,,,,,,,,,horse,131,63,silent,new,yellow,848.9485979005694,None,n,848.9485979005694,None,"['n', 'return']","[1.1523706000298262, 1.4562867004424334]",848.9485979005694,None,,,67,001,2023_May_01_1320,ExactRep-v3-final,2021.2.3,59.94039543098589,
,,,,,,,,,,,,63,0,63,0,,,,,,,,,,,,,,,,,,,,,,,,,,,,,,,,,,,,,,,,,,,,,,,,,852.2414490003139,None,,,,,,,,,,,,,,,,,,,,,,,,,,,,,,,,,,,,,,,,,,,,,,,,,,,,,,,,,fun,39,64,silent,old,yellow,850.9505269005895,None,n,850.9505269005895,None,"['n', 'return']","[0.982306600548327, 1.2545881001278758]",850.9505269005895,None,,,67,001,2023_May_01_1320,ExactRep-v3-final,2021.2.3,59.94039543098589,
,,,,,,,,,,,,64,0,64,0,,,,,,,,,,,,,,,,,,,,,,,,,,,,,,,,,,,,,,,,,,,,,,,,,854.2768203997985,None,,,,,,,,,,,,,,,,,,,,,,,,,,,,,,,,,,,,,,,,,,,,,,,,,,,,,,,,,dream,213,65,sing,new,yellow,852.7520102001727,None,n,852.7520102001727,None,"['n', 'return']","[1.1890408005565405, 1.4929443001747131]",852.7520102001727,None,,,67,001,2023_May_01_1320,ExactRep-v3-final,2021.2.3,59.94039543098589,
,,,,,,,,,,,,65,0,65,0,,,,,,,,,,,,,,,,,,,,,,,,,,,,,,,,,,,,,,,,,,,,,,,,,855.9618263999,None,,,,,,,,,,,,,,,,,,,,,,,,,,,,,,,,,,,,,,,,,,,,,,,,,,,,,,,,,plain,74,66,silent,old,yellow,854.7861280003563,None,n,854.7861280003563,None,"['n', 'return']","[0.851006300188601, 1.1389294005930424]",854.7861280003563,None,,,67,001,2023_May_01_1320,ExactRep-v3-final,2021.2.3,59.94039543098589,
,,,,,,,,,,,,66,0,66,0,,,,,,,,,,,,,,,,,,,,,,,,,,,,,,,,,,,,,,,,,,,,,,,,,858.0973680000752,None,,,,,,,,,,,,,,,,,,,,,,,,,,,,,,,,,,,,,,,,,,,,,,,,,,,,,,,,,body,111,67,aloud,old,yellow,856.4695923998952,None,y,856.4695923998952,None,"['y', 'return']","[1.2953518005087972, 1.5914403004571795]",856.4695923998952,None,,,67,001,2023_May_01_1320,ExactRep-v3-final,2021.2.3,59.94039543098589,
,,,,,,,,,,,,67,0,67,0,,,,,,,,,,,,,,,,,,,,,,,,,,,,,,,,,,,,,,,,,,,,,,,,,859.9325165003538,None,,,,,,,,,,,,,,,,,,,,,,,,,,,,,,,,,,,,,,,,,,,,,,,,,,,,,,,,,city,54,68,silent,old,yellow,858.600737400353,None,y,858.600737400353,None,"['y', 'return']","[1.0042660003528, 1.300246000289917]",858.600737400353,None,,,67,001,2023_May_01_1320,ExactRep-v3-final,2021.2.3,59.94039543098589,
,,,,,,,,,,,,68,0,68,0,,,,,,,,,,,,,,,,,,,,,,,,,,,,,,,,,,,,,,,,,,,,,,,,,862.5686726002023,None,,,,,,,,,,,,,,,,,,,,,,,,,,,,,,,,,,,,,,,,,,,,,,,,,,,,,,,,,water,205,69,sing,new,yellow,860.4378411006182,None,y,860.4378411006182,None,"['y', 'return']","[1.7911760993301868, 2.0870410995557904]",860.4378411006182,None,,,67,001,2023_May_01_1320,ExactRep-v3-final,2021.2.3,59.94039543098589,
,,,,,,,,,,,,69,0,69,0,,,,,,,,,,,,,,,,,,,,,,,,,,,,,,,,,,,,,,,,,,,,,,,,,864.4870223999023,None,,,,,,,,,,,,,,,,,,,,,,,,,,,,,,,,,,,,,,,,,,,,,,,,,,,,,,,,,prison,48,70,silent,old,yellow,863.0764562003314,None,y,863.0764562003314,None,"['y', 'return']","[1.0165400998666883, 1.3765011997893453]",863.0764562003314,None,,,67,001,2023_May_01_1320,ExactRep-v3-final,2021.2.3,59.94039543098589,
,,,,,,,,,,,,70,0,70,0,,,,,,,,,,,,,,,,,,,,,,,,,,,,,,,,,,,,,,,,,,,,,,,,,866.5056933006272,None,,,,,,,,,,,,,,,,,,,,,,,,,,,,,,,,,,,,,,,,,,,,,,,,,,,,,,,,,artist,24,71,sing,old,yellow,864.9967243000865,None,y,864.9967243000865,None,"['y', 'return']","[1.1442152997478843, 1.4642168004065752]",864.9967243000865,None,,,67,001,2023_May_01_1320,ExactRep-v3-final,2021.2.3,59.94039543098589,
,,,,,,,,,,,,71,0,71,0,,,,,,,,,,,,,,,,,,,,,,,,,,,,,,,,,,,,,,,,,,,,,,,,,868.5243656001985,None,,,,,,,,,,,,,,,,,,,,,,,,,,,,,,,,,,,,,,,,,,,,,,,,,,,,,,,,,lip,29,72,sing,old,yellow,867.013990400359,None,y,867.013990400359,None,"['y', 'return']","[1.1752373995259404, 1.4790318999439478]",867.013990400359,None,,,67,001,2023_May_01_1320,ExactRep-v3-final,2021.2.3,59.94039543098589,
,,,,,,,,,,,,72,0,72,0,,,,,,,,,,,,,,,,,,,,,,,,,,,,,,,,,,,,,,,,,,,,,,,,,870.3762773005292,None,,,,,,,,,,,,,,,,,,,,,,,,,,,,,,,,,,,,,,,,,,,,,,,,,,,,,,,,,vision,53,73,silent,old,yellow,869.0311627006158,None,y,869.0311627006158,None,"['y', 'return']","[0.9497687006369233, 1.3018945008516312]",869.0311627006158,None,,,67,001,2023_May_01_1320,ExactRep-v3-final,2021.2.3,59.94039543098589,
,,,,,,,,,,,,73,0,73,0,,,,,,,,,,,,,,,,,,,,,,,,,,,,,,,,,,,,,,,,,,,,,,,,,872.678628500551,None,,,,,,,,,,,,,,,,,,,,,,,,,,,,,,,,,,,,,,,,,,,,,,,,,,,,,,,,,house,180,74,aloud,new,yellow,870.8888360997662,None,y,870.8888360997662,None,"['y', 'return']","[1.412147399969399, 1.7560860002413392]",870.8888360997662,None,,,67,001,2023_May_01_1320,ExactRep-v3-final,2021.2.3,59.94039543098589,
,,,,,,,,,,,,74,0,74,0,,,,,,,,,,,,,,,,,,,,,,,,,,,,,,,,,,,,,,,,,,,,,,,,,874.4638828001916,None,,,,,,,,,,,,,,,,,,,,,,,,,,,,,,,,,,,,,,,,,,,,,,,,,,,,,,,,,arm,0,75,sing,old,yellow,873.1893346002325,None,n,873.1893346002325,None,"['n', 'return']","[0.8958863001316786, 1.2315861005336046]",873.1893346002325,None,,,67,001,2023_May_01_1320,ExactRep-v3-final,2021.2.3,59.94039543098589,
,,,,,,,,,,,,75,0,75,0,,,,,,,,,,,,,,,,,,,,,,,,,,,,,,,,,,,,,,,,,,,,,,,,,878.1840539006516,None,,,,,,,,,,,,,,,,,,,,,,,,,,,,,,,,,,,,,,,,,,,,,,,,,,,,,,,,,anger,13,76,sing,old,yellow,874.9779310999438,None,n,874.9779310999438,None,"['n', 'return']","[2.883131599985063, 3.171097499318421]",874.9779310999438,None,,,67,001,2023_May_01_1320,ExactRep-v3-final,2021.2.3,59.94039543098589,
,,,,,,,,,,,,76,0,76,0,,,,,,,,,,,,,,,,,,,,,,,,,,,,,,,,,,,,,,,,,,,,,,,,,880.0194222005084,None,,,,,,,,,,,,,,,,,,,,,,,,,,,,,,,,,,,,,,,,,,,,,,,,,,,,,,,,,boy,203,77,sing,new,yellow,878.6958007998765,None,n,878.6958007998765,None,"['n', 'return']","[1.021314200013876, 1.285195400007069]",878.6958007998765,None,,,67,001,2023_May_01_1320,ExactRep-v3-final,2021.2.3,59.94039543098589,
,,,,,,,,,,,,77,0,77,0,,,,,,,,,,,,,,,,,,,,,,,,,,,,,,,,,,,,,,,,,,,,,,,,,881.7043137000874,None,,,,,,,,,,,,,,,,,,,,,,,,,,,,,,,,,,,,,,,,,,,,,,,,,,,,,,,,,money,34,78,sing,old,yellow,880.5326062003151,None,y,880.5326062003151,None,"['y', 'return']","[0.8485739007592201, 1.1283857002854347]",880.5326062003151,None,,,67,001,2023_May_01_1320,ExactRep-v3-final,2021.2.3,59.94039543098589,
,,,,,,,,,,,,78,0,78,0,,,,,,,,,,,,,,,,,,,,,,,,,,,,,,,,,,,,,,,,,,,,,,,,,883.6562574999407,None,,,,,,,,,,,,,,,,,,,,,,,,,,,,,,,,,,,,,,,,,,,,,,,,,,,,,,,,,season,71,79,silent,old,yellow,882.2048868006095,None,y,882.2048868006095,None,"['y', 'return']","[1.0721612004563212, 1.4080594005063176]",882.2048868006095,None,,,67,001,2023_May_01_1320,ExactRep-v3-final,2021.2.3,59.94039543098589,
,,,,,,,,,,,,79,0,79,0,,,,,,,,,,,,,,,,,,,,,,,,,,,,,,,,,,,,,,,,,,,,,,,,,885.6915827002376,None,,,,,,,,,,,,,,,,,,,,,,,,,,,,,,,,,,,,,,,,,,,,,,,,,,,,,,,,,earth,214,80,aloud,new,yellow,884.1629407005385,None,n,884.1629407005385,None,"['n', 'return']","[1.2500865999609232, 1.490157200023532]",884.1629407005385,None,,,67,001,2023_May_01_1320,ExactRep-v3-final,2021.2.3,59.94039543098589,
,,,,,,,,,,,,80,0,80,0,,,,,,,,,,,,,,,,,,,,,,,,,,,,,,,,,,,,,,,,,,,,,,,,,887.5100982002914,None,,,,,,,,,,,,,,,,,,,,,,,,,,,,,,,,,,,,,,,,,,,,,,,,,,,,,,,,,amount,130,81,silent,new,yellow,886.2013582000509,None,n,886.2013582000509,None,"['n', 'return']","[0.9476332003250718, 1.2676344001665711]",886.2013582000509,None,,,67,001,2023_May_01_1320,ExactRep-v3-final,2021.2.3,59.94039543098589,
,,,,,,,,,,,,81,0,81,0,,,,,,,,,,,,,,,,,,,,,,,,,,,,,,,,,,,,,,,,,,,,,,,,,889.5954916002229,None,,,,,,,,,,,,,,,,,,,,,,,,,,,,,,,,,,,,,,,,,,,,,,,,,,,,,,,,,rod,103,82,aloud,old,yellow,888.0205797003582,None,y,888.0205797003582,None,"['y', 'return']","[1.2166561000049114, 1.5363847007974982]",888.0205797003582,None,,,67,001,2023_May_01_1320,ExactRep-v3-final,2021.2.3,59.94039543098589,
,,,,,,,,,,,,82,0,82,0,,,,,,,,,,,,,,,,,,,,,,,,,,,,,,,,,,,,,,,,,,,,,,,,,891.3805940998718,None,,,,,,,,,,,,,,,,,,,,,,,,,,,,,,,,,,,,,,,,,,,,,,,,,,,,,,,,,forest,78,83,silent,old,yellow,890.1054298998788,None,y,890.1054298998788,None,"['y', 'return']","[0.9235683009028435, 1.2435991000384092]",890.1054298998788,None,,,67,001,2023_May_01_1320,ExactRep-v3-final,2021.2.3,59.94039543098589,
,,,,,,,,,,,,83,0,83,0,,,,,,,,,,,,,,,,,,,,,,,,,,,,,,,,,,,,,,,,,,,,,,,,,894.4002630999312,None,,,,,,,,,,,,,,,,,,,,,,,,,,,,,,,,,,,,,,,,,,,,,,,,,,,,,,,,,meeting,224,84,aloud,new,yellow,891.8905805004761,None,n,891.8905805004761,None,"['n', 'return']","[1.9464444993063807, 2.4664065996184945]",891.8905805004761,None,,,67,001,2023_May_01_1320,ExactRep-v3-final,2021.2.3,59.94039543098589,
,,,,,,,,,,,,84,0,84,0,,,,,,,,,,,,,,,,,,,,,,,,,,,,,,,,,,,,,,,,,,,,,,,,,896.3522209003568,None,,,,,,,,,,,,,,,,,,,,,,,,,,,,,,,,,,,,,,,,,,,,,,,,,,,,,,,,,fortune,225,85,sing,new,yellow,894.908606200479,None,y,894.908606200479,None,"['y', 'return']","[1.1045287996530533, 1.4003972997888923]",894.908606200479,None,,,67,001,2023_May_01_1320,ExactRep-v3-final,2021.2.3,59.94039543098589,
,,,,,,,,,,,,85,0,85,0,,,,,,,,,,,,,,,,,,,,,,,,,,,,,,,,,,,,,,,,,,,,,,,,,898.6545296004042,None,,,,,,,,,,,,,,,,,,,,,,,,,,,,,,,,,,,,,,,,,,,,,,,,,,,,,,,,,coffee,146,86,silent,new,yellow,896.8621204998344,None,y,896.8621204998344,None,"['y', 'return']","[1.3908360004425049, 1.758852900005877]",896.8621204998344,None,,,67,001,2023_May_01_1320,ExactRep-v3-final,2021.2.3,59.94039543098589,
,,,,,,,,,,,,86,0,86,0,,,,,,,,,,,,,,,,,,,,,,,,,,,,,,,,,,,,,,,,,,,,,,,,,901.0235750004649,None,,,,,,,,,,,,,,,,,,,,,,,,,,,,,,,,,,,,,,,,,,,,,,,,,,,,,,,,,woman,142,87,silent,new,yellow,899.1619452005252,None,y,899.1619452005252,None,"['y', 'return']","[1.4910391001030803, 1.8270300002768636]",899.1619452005252,None,,,67,001,2023_May_01_1320,ExactRep-v3-final,2021.2.3,59.94039543098589,
,,,,,,,,,,,,87,0,87,0,,,,,,,,,,,,,,,,,,,,,,,,,,,,,,,,,,,,,,,,,,,,,,,,,903.1089082006365,None,,,,,,,,,,,,,,,,,,,,,,,,,,,,,,,,,,,,,,,,,,,,,,,,,,,,,,,,,river,87,88,aloud,old,yellow,901.5320469001308,None,n,901.5320469001308,None,"['n', 'return']","[0.873101900331676, 1.5370714999735355]",901.5320469001308,None,,,67,001,2023_May_01_1320,ExactRep-v3-final,2021.2.3,59.94039543098589,
,,,,,,,,,,,,88,0,88,0,,,,,,,,,,,,,,,,,,,,,,,,,,,,,,,,,,,,,,,,,,,,,,,,,904.8942469004542,None,,,,,,,,,,,,,,,,,,,,,,,,,,,,,,,,,,,,,,,,,,,,,,,,,,,,,,,,,mercy,217,89,sing,new,yellow,903.6190895000473,None,n,903.6190895000473,None,"['n', 'return']","[0.9460241999477148, 1.2340250005945563]",903.6190895000473,None,,,67,001,2023_May_01_1320,ExactRep-v3-final,2021.2.3,59.94039543098589,
,,,,,,,,,,,,89,0,89,0,,,,,,,,,,,,,,,,,,,,,,,,,,,,,,,,,,,,,,,,,,,,,,,,,906.595812600106,None,,,,,,,,,,,,,,,,,,,,,,,,,,,,,,,,,,,,,,,,,,,,,,,,,,,,,,,,,person,124,90,silent,new,yellow,905.4033500002697,None,y,905.4033500002697,None,"['y', 'return']","[0.8816851992160082, 1.145766499452293]",905.4033500002697,None,,,67,001,2023_May_01_1320,ExactRep-v3-final,2021.2.3,59.94039543098589,
,,,,,,,,,,,,90,0,90,0,,,,,,,,,,,,,,,,,,,,,,,,,,,,,,,,,,,,,,,,,,,,,,,,,908.3309733001515,None,,,,,,,,,,,,,,,,,,,,,,,,,,,,,,,,,,,,,,,,,,,,,,,,,,,,,,,,,army,221,91,sing,new,yellow,907.104835100472,None,n,907.104835100472,None,"['n', 'return']","[0.8601403003558517, 1.1803553001955152]",907.104835100472,None,,,67,001,2023_May_01_1320,ExactRep-v3-final,2021.2.3,59.94039543098589,
,,,,,,,,,,,,91,0,91,0,,,,,,,,,,,,,,,,,,,,,,,,,,,,,,,,,,,,,,,,,,,,,,,,,910.0325699998066,None,,,,,,,,,,,,,,,,,,,,,,,,,,,,,,,,,,,,,,,,,,,,,,,,,,,,,,,,,bottle,102,92,aloud,old,yellow,908.8390719005838,None,y,908.8390719005838,None,"['y', 'return']","[0.8700738996267319, 1.158097899518907]",908.8390719005838,None,,,67,001,2023_May_01_1320,ExactRep-v3-final,2021.2.3,59.94039543098589,
,,,,,,,,,,,,92,0,92,0,,,,,,,,,,,,,,,,,,,,,,,,,,,,,,,,,,,,,,,,,,,,,,,,,911.6009550997987,None,,,,,,,,,,,,,,,,,,,,,,,,,,,,,,,,,,,,,,,,,,,,,,,,,,,,,,,,,chief,149,93,silent,new,yellow,910.5416056998074,None,n,910.5416056998074,None,"['n', 'return']","[0.7514196997508407, 1.0234016999602318]",910.5416056998074,None,,,67,001,2023_May_01_1320,ExactRep-v3-final,2021.2.3,59.94039543098589,
,,,,,,,,,,,,93,0,93,0,,,,,,,,,,,,,,,,,,,,,,,,,,,,,,,,,,,,,,,,,,,,,,,,,913.1356885004789,None,,,,,,,,,,,,,,,,,,,,,,,,,,,,,,,,,,,,,,,,,,,,,,,,,,,,,,,,,cost,198,94,aloud,new,yellow,912.109317900613,None,n,912.109317900613,None,"['n', 'return']","[0.5836876006796956, 0.9836628008633852]",912.109317900613,None,,,67,001,2023_May_01_1320,ExactRep-v3-final,2021.2.3,59.94039543098589,
,,,,,,,,,,,,94,0,94,0,,,,,,,,,,,,,,,,,,,,,,,,,,,,,,,,,,,,,,,,,,,,,,,,,915.1545865004882,None,,,,,,,,,,,,,,,,,,,,,,,,,,,,,,,,,,,,,,,,,,,,,,,,,,,,,,,,,volume,227,95,sing,new,yellow,913.6446460997686,None,n,913.6446460997686,None,"['n', 'return']","[1.1766536999493837, 1.4644419997930527]",913.6446460997686,None,,,67,001,2023_May_01_1320,ExactRep-v3-final,2021.2.3,59.94039543098589,
,,,,,,,,,,,,95,0,95,0,,,,,,,,,,,,,,,,,,,,,,,,,,,,,,,,,,,,,,,,,,,,,,,,,916.8394180005416,None,,,,,,,,,,,,,,,,,,,,,,,,,,,,,,,,,,,,,,,,,,,,,,,,,,,,,,,,,death,4,96,sing,old,yellow,915.6571601005271,None,n,915.6571601005271,None,"['n', 'return']","[0.8998338002711535, 1.1399459997192025]",915.6571601005271,None,,,67,001,2023_May_01_1320,ExactRep-v3-final,2021.2.3,59.94039543098589,
,,,,,,,,,,,,96,0,96,0,,,,,,,,,,,,,,,,,,,,,,,,,,,,,,,,,,,,,,,,,,,,,,,,,918.3743213005364,None,,,,,,,,,,,,,,,,,,,,,,,,,,,,,,,,,,,,,,,,,,,,,,,,,,,,,,,,,troops,238,97,aloud,new,yellow,917.3512988006696,None,n,917.3512988006696,None,"['n', 'return']","[0.7096814000979066, 0.9898431999608874]",917.3512988006696,None,,,67,001,2023_May_01_1320,ExactRep-v3-final,2021.2.3,59.94039543098589,
,,,,,,,,,,,,97,0,97,0,,,,,,,,,,,,,,,,,,,,,,,,,,,,,,,,,,,,,,,,,,,,,,,,,920.3095255000517,None,,,,,,,,,,,,,,,,,,,,,,,,,,,,,,,,,,,,,,,,,,,,,,,,,,,,,,,,,wife,120,98,silent,new,yellow,918.8849622998387,None,n,918.8849622998387,None,"['n', 'return']","[1.112100400030613, 1.39203040022403]",918.8849622998387,None,,,67,001,2023_May_01_1320,ExactRep-v3-final,2021.2.3,59.94039543098589,
,,,,,,,,,,,,98,0,98,0,,,,,,,,,,,,,,,,,,,,,,,,,,,,,,,,,,,,,,,,,,,,,,,,,921.9778188001364,None,,,,,,,,,,,,,,,,,,,,,,,,,,,,,,,,,,,,,,,,,,,,,,,,,,,,,,,,,cotton,196,99,aloud,new,yellow,920.8208546005189,None,y,920.8208546005189,None,"['y', 'return']","[0.8561400007456541, 1.1201974004507065]",920.8208546005189,None,,,67,001,2023_May_01_1320,ExactRep-v3-final,2021.2.3,59.94039543098589,
,,,,,,,,,,,,99,0,99,0,,,,,,,,,,,,,,,,,,,,,,,,,,,,,,,,,,,,,,,,,,,,,,,,,923.8130357004702,None,,,,,,,,,,,,,,,,,,,,,,,,,,,,,,,,,,,,,,,,,,,,,,,,,,,,,,,,,author,82,100,aloud,old,yellow,922.4912239005789,None,y,922.4912239005789,None,"['y', 'return']","[0.9457408003509045, 1.2737576998770237]",922.4912239005789,None,,,67,001,2023_May_01_1320,ExactRep-v3-final,2021.2.3,59.94039543098589,
,,,,,,,,,,,,100,0,100,0,,,,,,,,,,,,,,,,,,,,,,,,,,,,,,,,,,,,,,,,,,,,,,,,,925.7149045998231,None,,,,,,,,,,,,,,,,,,,,,,,,,,,,,,,,,,,,,,,,,,,,,,,,,,,,,,,,,effort,30,101,sing,old,yellow,924.3229315001518,None,y,924.3229315001518,None,"['y', 'return']","[0.9941007001325488, 1.3461285000666976]",924.3229315001518,None,,,67,001,2023_May_01_1320,ExactRep-v3-final,2021.2.3,59.94039543098589,
,,,,,,,,,,,,101,0,101,0,,,,,,,,,,,,,,,,,,,,,,,,,,,,,,,,,,,,,,,,,,,,,,,,,927.5386581998318,None,,,,,,,,,,,,,,,,,,,,,,,,,,,,,,,,,,,,,,,,,,,,,,,,,,,,,,,,,flesh,138,102,silent,new,yellow,926.2246104003862,None,n,926.2246104003862,None,"['n', 'n', 'return']","[0.7724144998937845, 0.9005120005458593, 1.2762798005715013]",926.2246104003862,None,,,67,001,2023_May_01_1320,ExactRep-v3-final,2021.2.3,59.94039543098589,
,,,,,,,,,,,,102,0,102,0,,,,,,,,,,,,,,,,,,,,,,,,,,,,,,,,,,,,,,,,,,,,,,,,,929.3688089000061,None,,,,,,,,,,,,,,,,,,,,,,,,,,,,,,,,,,,,,,,,,,,,,,,,,,,,,,,,,hour,23,103,sing,old,yellow,928.0508163999766,None,y,928.0508163999766,None,"['y', 'return']","[0.970202500000596, 1.2824170999228954]",928.0508163999766,None,,,67,001,2023_May_01_1320,ExactRep-v3-final,2021.2.3,59.94039543098589,
,,,,,,,,,,,,103,0,103,0,,,,,,,,,,,,,,,,,,,,,,,,,,,,,,,,,,,,,,,,,,,,,,,,,931.2204272001982,None,,,,,,,,,,,,,,,,,,,,,,,,,,,,,,,,,,,,,,,,,,,,,,,,,,,,,,,,,charm,175,104,sing,new,yellow,929.8787272004411,None,n,929.8787272004411,None,"['n', 'return']","[1.0302224000915885, 1.2942817006260157]",929.8787272004411,None,,,67,001,2023_May_01_1320,ExactRep-v3-final,2021.2.3,59.94039543098589,
,,,,,,,,,,,,104,0,104,0,,,,,,,,,,,,,,,,,,,,,,,,,,,,,,,,,,,,,,,,,,,,,,,,,933.0556787000969,None,,,,,,,,,,,,,,,,,,,,,,,,,,,,,,,,,,,,,,,,,,,,,,,,,,,,,,,,,friend,233,105,sing,new,yellow,931.721018800512,None,n,931.721018800512,None,"['n', 'return']","[0.9880419000983238, 1.2920610001310706]",931.721018800512,None,,,67,001,2023_May_01_1320,ExactRep-v3-final,2021.2.3,59.94039543098589,
,,,,,,,,,,,,105,0,105,0,,,,,,,,,,,,,,,,,,,,,,,,,,,,,,,,,,,,,,,,,,,,,,,,,935.0576057005674,None,,,,,,,,,,,,,,,,,,,,,,,,,,,,,,,,,,,,,,,,,,,,,,,,,,,,,,,,,honour,106,106,aloud,old,yellow,933.5654677003622,None,y,933.5654677003622,None,"['y', 'return']","[0.9917569998651743, 1.4475228004157543]",933.5654677003622,None,,,67,001,2023_May_01_1320,ExactRep-v3-final,2021.2.3,59.94039543098589,
,,,,,,,,,,,,106,0,106,0,,,,,,,,,,,,,,,,,,,,,,,,,,,,,,,,,,,,,,,,,,,,,,,,,936.8428597999737,None,,,,,,,,,,,,,,,,,,,,,,,,,,,,,,,,,,,,,,,,,,,,,,,,,,,,,,,,,moment,192,107,aloud,new,yellow,935.5731177004054,None,y,935.5731177004054,None,"['y', 'return']","[0.90411869995296, 1.2239728001877666]",935.5731177004054,None,,,67,001,2023_May_01_1320,ExactRep-v3-final,2021.2.3,59.94039543098589,
,,,,,,,,,,,,107,0,107,0,,,,,,,,,,,,,,,,,,,,,,,,,,,,,,,,,,,,,,,,,,,,,,,,,938.9782656999305,None,,,,,,,,,,,,,,,,,,,,,,,,,,,,,,,,,,,,,,,,,,,,,,,,,,,,,,,,,avenue,15,108,sing,old,yellow,937.352642999962,None,n,937.352642999962,None,"['n', 'return']","[1.30854170024395, 1.588535699993372]",937.352642999962,None,,,67,001,2023_May_01_1320,ExactRep-v3-final,2021.2.3,59.94039543098589,
,,,,,,,,,,,,108,0,108,0,,,,,,,,,,,,,,,,,,,,,,,,,,,,,,,,,,,,,,,,,,,,,,,,,942.3882034001872,None,,,,,,,,,,,,,,,,,,,,,,,,,,,,,,,,,,,,,,,,,,,,,,,,,,,,,,,,,love,154,109,silent,new,yellow,939.4871722003445,None,n,939.4871722003445,None,"['y', 'backspace', 'n', 'return']","[0.9098475994542241, 2.0380328996106982, 2.5098302997648716, 2.8538197996094823]",939.4871722003445,None,,,67,001,2023_May_01_1320,ExactRep-v3-final,2021.2.3,59.94039543098589,
,,,,,,,,,,,,109,0,109,0,,,,,,,,,,,,,,,,,,,,,,,,,,,,,,,,,,,,,,,,,,,,,,,,,944.3169105006382,None,,,,,,,,,,,,,,,,,,,,,,,,,,,,,,,,,,,,,,,,,,,,,,,,,,,,,,,,,tool,195,110,sing,new,yellow,942.9061352005228,None,n,942.9061352005228,None,"['n', 'return']","[1.002945899963379, 1.3790047001093626]",942.9061352005228,None,,,67,001,2023_May_01_1320,ExactRep-v3-final,2021.2.3,59.94039543098589,
,,,,,,,,,,,,110,0,110,0,,,,,,,,,,,,,,,,,,,,,,,,,,,,,,,,,,,,,,,,,,,,,,,,,945.951866700314,None,,,,,,,,,,,,,,,,,,,,,,,,,,,,,,,,,,,,,,,,,,,,,,,,,,,,,,,,,factory,118,111,aloud,old,yellow,944.8233793005347,None,n,944.8233793005347,None,"['n', 'return']","[0.7417488992214203, 1.0937407994642854]",944.8233793005347,None,,,67,001,2023_May_01_1320,ExactRep-v3-final,2021.2.3,59.94039543098589,
,,,,,,,,,,,,111,0,111,0,,,,,,,,,,,,,,,,,,,,,,,,,,,,,,,,,,,,,,,,,,,,,,,,,947.7369737001136,None,,,,,,,,,,,,,,,,,,,,,,,,,,,,,,,,,,,,,,,,,,,,,,,,,,,,,,,,,woods,211,112,sing,new,yellow,946.4661023998633,None,n,946.4661023998633,None,"['n', 'return']","[0.8829526994377375, 1.2269206997007132]",946.4661023998633,None,,,67,001,2023_May_01_1320,ExactRep-v3-final,2021.2.3,59.94039543098589,
,,,,,,,,,,,,112,0,112,0,,,,,,,,,,,,,,,,,,,,,,,,,,,,,,,,,,,,,,,,,,,,,,,,,949.4886527005583,None,,,,,,,,,,,,,,,,,,,,,,,,,,,,,,,,,,,,,,,,,,,,,,,,,,,,,,,,,cattle,234,113,aloud,new,yellow,948.2435451000929,None,n,948.2435451000929,None,"['n', 'return']","[0.721739400178194, 1.2015070002526045]",948.2435451000929,None,,,67,001,2023_May_01_1320,ExactRep-v3-final,2021.2.3,59.94039543098589,
,,,,,,,,,,,,113,0,113,0,,,,,,,,,,,,,,,,,,,,,,,,,,,,,,,,,,,,,,,,,,,,,,,,,951.7242605006322,None,,,,,,,,,,,,,,,,,,,,,,,,,,,,,,,,,,,,,,,,,,,,,,,,,,,,,,,,,insect,8,114,sing,old,yellow,949.9996020002291,None,y,949.9996020002291,None,"['y', 'return']","[1.0856886003166437, 1.6854635998606682]",949.9996020002291,None,,,67,001,2023_May_01_1320,ExactRep-v3-final,2021.2.3,59.94039543098589,
,,,,,,,,,,,,114,0,114,0,,,,,,,,,,,,,,,,,,,,,,,,,,,,,,,,,,,,,,,,,,,,,,,,,953.659549000673,None,,,,,,,,,,,,,,,,,,,,,,,,,,,,,,,,,,,,,,,,,,,,,,,,,,,,,,,,,world,236,115,aloud,new,yellow,952.2298183999956,None,y,952.2298183999956,None,"['y', 'return']","[1.0952054997906089, 1.3912468999624252]",952.2298183999956,None,,,67,001,2023_May_01_1320,ExactRep-v3-final,2021.2.3,59.94039543098589,
,,,,,,,,,,,,115,0,115,0,,,,,,,,,,,,,,,,,,,,,,,,,,,,,,,,,,,,,,,,,,,,,,,,,957.2132019000128,None,,,,,,,,,,,,,,,,,,,,,,,,,,,,,,,,,,,,,,,,,,,,,,,,,,,,,,,,,kiss,231,116,sing,new,yellow,954.1757869003341,None,n,954.1757869003341,None,"['return', 'n', 'return']","[1.3573040999472141, 2.2692487007007003, 2.9972554007545114]",954.1757869003341,None,,,67,001,2023_May_01_1320,ExactRep-v3-final,2021.2.3,59.94039543098589,
,,,,,,,,,,,,116,0,116,0,,,,,,,,,,,,,,,,,,,,,,,,,,,,,,,,,,,,,,,,,,,,,,,,,959.3651852002367,None,,,,,,,,,,,,,,,,,,,,,,,,,,,,,,,,,,,,,,,,,,,,,,,,,,,,,,,,,toy,185,117,sing,new,yellow,957.719861600548,None,n,957.719861600548,None,"['n', 'return']","[1.189326699823141, 1.605319899506867]",957.719861600548,None,,,67,001,2023_May_01_1320,ExactRep-v3-final,2021.2.3,59.94039543098589,
,,,,,,,,,,,,117,0,117,0,,,,,,,,,,,,,,,,,,,,,,,,,,,,,,,,,,,,,,,,,,,,,,,,,961.5006919000298,None,,,,,,,,,,,,,,,,,,,,,,,,,,,,,,,,,,,,,,,,,,,,,,,,,,,,,,,,,meat,187,118,sing,new,yellow,959.8743753004819,None,n,959.8743753004819,None,"['n', 'return']","[1.3066922994330525, 1.5946792997419834]",959.8743753004819,None,,,67,001,2023_May_01_1320,ExactRep-v3-final,2021.2.3,59.94039543098589,
,,,,,,,,,,,,118,0,118,0,,,,,,,,,,,,,,,,,,,,,,,,,,,,,,,,,,,,,,,,,,,,,,,,,963.1356722004712,None,,,,,,,,,,,,,,,,,,,,,,,,,,,,,,,,,,,,,,,,,,,,,,,,,,,,,,,,,paper,10,119,sing,old,yellow,962.0076675005257,None,y,962.0076675005257,None,"['y', 'return']","[0.8295666994526982, 1.0853828992694616]",962.0076675005257,None,,,67,001,2023_May_01_1320,ExactRep-v3-final,2021.2.3,59.94039543098589,
,,,,,,,,,,,,119,0,119,0,,,,,,,,,,,,,,,,,,,,,,,,,,,,,,,,,,,,,,,,,,,,,,,,,964.8542252006009,None,,,,,,,,,,,,,,,,,,,,,,,,,,,,,,,,,,,,,,,,,,,,,,,,,,,,,,,,,string,141,120,silent,new,yellow,963.643226900138,None,n,963.643226900138,None,"['n', 'return']","[0.882056400179863, 1.1699401000514627]",963.643226900138,None,,,67,001,2023_May_01_1320,ExactRep-v3-final,2021.2.3,59.94039543098589,
,,,,,,,,,,,,120,0,120,0,,,,,,,,,,,,,,,,,,,,,,,,,,,,,,,,,,,,,,,,,,,,,,,,,966.6891727000475,None,,,,,,,,,,,,,,,,,,,,,,,,,,,,,,,,,,,,,,,,,,,,,,,,,,,,,,,,,car,237,121,sing,new,yellow,965.3547538006678,None,n,965.3547538006678,None,"['n', 'return']","[1.0024196999147534, 1.2902968004345894]",965.3547538006678,None,,,67,001,2023_May_01_1320,ExactRep-v3-final,2021.2.3,59.94039543098589,
,,,,,,,,,,,,121,0,121,0,,,,,,,,,,,,,,,,,,,,,,,,,,,,,,,,,,,,,,,,,,,,,,,,,968.7579520000145,None,,,,,,,,,,,,,,,,,,,,,,,,,,,,,,,,,,,,,,,,,,,,,,,,,,,,,,,,,dollar,49,122,silent,old,yellow,967.200453300029,None,n,967.200453300029,None,"['n', 'return']","[1.2446674006059766, 1.52457519993186]",967.200453300029,None,,,67,001,2023_May_01_1320,ExactRep-v3-final,2021.2.3,59.94039543098589,
,,,,,,,,,,,,122,0,122,0,,,,,,,,,,,,,,,,,,,,,,,,,,,,,,,,,,,,,,,,,,,,,,,,,970.5598523998633,None,,,,,,,,,,,,,,,,,,,,,,,,,,,,,,,,,,,,,,,,,,,,,,,,,,,,,,,,,theory,58,123,silent,old,yellow,969.2662717998028,None,n,969.2662717998028,None,"['n', 'return']","[0.922928599640727, 1.250794599764049]",969.2662717998028,None,,,67,001,2023_May_01_1320,ExactRep-v3-final,2021.2.3,59.94039543098589,
,,,,,,,,,,,,123,0,123,0,,,,,,,,,,,,,,,,,,,,,,,,,,,,,,,,,,,,,,,,,,,,,,,,,972.1947189997882,None,,,,,,,,,,,,,,,,,,,,,,,,,,,,,,,,,,,,,,,,,,,,,,,,,,,,,,,,,science,132,124,silent,new,yellow,971.0692568998784,None,n,971.0692568998784,None,"['n', 'return']","[0.7998038996011019, 1.0798533000051975]",971.0692568998784,None,,,67,001,2023_May_01_1320,ExactRep-v3-final,2021.2.3,59.94039543098589,
,,,,,,,,,,,,124,0,124,0,,,,,,,,,,,,,,,,,,,,,,,,,,,,,,,,,,,,,,,,,,,,,,,,,973.8463956005871,None,,,,,,,,,,,,,,,,,,,,,,,,,,,,,,,,,,,,,,,,,,,,,,,,,,,,,,,,,storm,28,125,sing,old,yellow,972.6953485999256,None,n,972.6953485999256,None,"['n', 'return']","[0.8536951998248696, 1.1178133003413677]",972.6953485999256,None,,,67,001,2023_May_01_1320,ExactRep-v3-final,2021.2.3,59.94039543098589,
,,,,,,,,,,,,125,0,125,0,,,,,,,,,,,,,,,,,,,,,,,,,,,,,,,,,,,,,,,,,,,,,,,,,975.6481870003045,None,,,,,,,,,,,,,,,,,,,,,,,,,,,,,,,,,,,,,,,,,,,,,,,,,,,,,,,,,blood,128,126,silent,new,yellow,974.3559296000749,None,n,974.3559296000749,None,"['n', 'return']","[0.8813209999352694, 1.2572535006329417]",974.3559296000749,None,,,67,001,2023_May_01_1320,ExactRep-v3-final,2021.2.3,59.94039543098589,
,,,,,,,,,,,,126,0,126,0,,,,,,,,,,,,,,,,,,,,,,,,,,,,,,,,,,,,,,,,,,,,,,,,,977.8336958000436,None,,,,,,,,,,,,,,,,,,,,,,,,,,,,,,,,,,,,,,,,,,,,,,,,,,,,,,,,,fur,101,127,aloud,old,yellow,976.156891300343,None,y,976.156891300343,None,"['y', 'return']","[1.2802201993763447, 1.632145299576223]",976.156891300343,None,,,67,001,2023_May_01_1320,ExactRep-v3-final,2021.2.3,59.94039543098589,
,,,,,,,,,,,,127,0,127,0,,,,,,,,,,,,,,,,,,,,,,,,,,,,,,,,,,,,,,,,,,,,,,,,,979.5354081997648,None,,,,,,,,,,,,,,,,,,,,,,,,,,,,,,,,,,,,,,,,,,,,,,,,,,,,,,,,,girl,66,128,silent,old,yellow,978.3408917998895,None,n,978.3408917998895,None,"['n', 'return']","[0.8244332000613213, 1.1521779000759125]",978.3408917998895,None,,,67,001,2023_May_01_1320,ExactRep-v3-final,2021.2.3,59.94039543098589,
,,,,,,,,,,,,128,0,128,0,,,,,,,,,,,,,,,,,,,,,,,,,,,,,,,,,,,,,,,,,,,,,,,,,981.4540812000632,None,,,,,,,,,,,,,,,,,,,,,,,,,,,,,,,,,,,,,,,,,,,,,,,,,,,,,,,,,bowl,145,129,silent,new,yellow,980.0421585002914,None,y,980.0421585002914,None,"['y', 'return']","[1.0829373998567462, 1.3709532003849745]",980.0421585002914,None,,,67,001,2023_May_01_1320,ExactRep-v3-final,2021.2.3,59.94039543098589,
,,,,,,,,,,,,129,0,129,0,,,,,,,,,,,,,,,,,,,,,,,,,,,,,,,,,,,,,,,,,,,,,,,,,983.0055531002581,None,,,,,,,,,,,,,,,,,,,,,,,,,,,,,,,,,,,,,,,,,,,,,,,,,,,,,,,,,journal,197,130,sing,new,yellow,981.9614198002964,None,n,981.9614198002964,None,"['n', 'return']","[0.7477010004222393, 1.0116859003901482]",981.9614198002964,None,,,67,001,2023_May_01_1320,ExactRep-v3-final,2021.2.3,59.94039543098589,
,,,,,,,,,,,,130,0,130,0,,,,,,,,,,,,,,,,,,,,,,,,,,,,,,,,,,,,,,,,,,,,,,,,,984.4905945006758,None,,,,,,,,,,,,,,,,,,,,,,,,,,,,,,,,,,,,,,,,,,,,,,,,,,,,,,,,,engine,140,131,silent,new,yellow,983.5164002999663,None,n,983.5164002999663,None,"['n', 'return']","[0.6327849002555013, 0.9287569997832179]",983.5164002999663,None,,,67,001,2023_May_01_1320,ExactRep-v3-final,2021.2.3,59.94039543098589,
,,,,,,,,,,,,131,0,131,0,,,,,,,,,,,,,,,,,,,,,,,,,,,,,,,,,,,,,,,,,,,,,,,,,985.9251292003319,None,,,,,,,,,,,,,,,,,,,,,,,,,,,,,,,,,,,,,,,,,,,,,,,,,,,,,,,,,iron,137,132,silent,new,yellow,984.9991707000881,None,n,984.9991707000881,None,"['n', 'return']","[0.6379257002845407, 0.8940070001408458]",984.9991707000881,None,,,67,001,2023_May_01_1320,ExactRep-v3-final,2021.2.3,59.94039543098589,
,,,,,,,,,,,,132,0,132,0,,,,,,,,,,,,,,,,,,,,,,,,,,,,,,,,,,,,,,,,,,,,,,,,,987.7936923000962,None,,,,,,,,,,,,,,,,,,,,,,,,,,,,,,,,,,,,,,,,,,,,,,,,,,,,,,,,,street,98,133,aloud,old,yellow,986.4337114002556,None,y,986.4337114002556,None,"['y', 'return']","[0.9075306002050638, 1.31534059997648]",986.4337114002556,None,,,67,001,2023_May_01_1320,ExactRep-v3-final,2021.2.3,59.94039543098589,
