trials_fam.thisRepN,trials_fam.thisTrialN,trials_fam.thisN,trials_fam.thisIndex,trials_prc.thisRepN,trials_prc.thisTrialN,trials_prc.thisN,trials_prc.thisIndex,StudyLoop.thisRepN,StudyLoop.thisTrialN,StudyLoop.thisN,StudyLoop.thisIndex,TestLoop.thisRepN,TestLoop.thisTrialN,TestLoop.thisN,TestLoop.thisIndex,text_colortest.started,text_colortest.stopped,key_colortest.keys,key_colortest.rt,key_colortest.started,key_colortest.stopped,textCondition.started,textCondition.stopped,keyCondition.keys,keyCondition.rt,keyCondition.started,keyCondition.stopped,Condition_between,Condition_counterbal,keyWelcome.keys,keyWelcome.rt,keyWelcome.started,keyWelcome.stopped,welcome_a.started,welcome_a.stopped,welcome_b.started,welcome_b.stopped,welcome_c.started,welcome_c.stopped,welcome_d.started,welcome_d.stopped,welcome_e.started,welcome_e.stopped,welcome_f.started,welcome_f.stopped,key_resp_fam_inst.keys,key_resp_fam_inst.rt,key_resp_fam_inst.started,key_resp_fam_inst.stopped,fam_a.started,fam_a.stopped,fam_b.started,fam_b.stopped,fam_c.started,fam_c.stopped,fam_d.started,fam_d.stopped,fam_e.started,fam_e.stopped,fam_f.started,fam_f.stopped,text_famil.started,text_famil.stopped,textBlank500.started,textBlank500.stopped,key_resp_prc_inst.keys,key_resp_prc_inst.rt,key_resp_prc_inst.started,key_resp_prc_inst.stopped,prac_a.started,prac_a.stopped,prac_b.started,prac_b.stopped,prac_c.started,prac_c.stopped,prac_d.started,prac_d.stopped,prac_e.started,prac_e.stopped,prac_f.started,prac_f.stopped,text_prc_trial.started,text_prc_trial.stopped,key_resp_study_inst.keys,key_resp_study_inst.rt,key_resp_study_inst.started,key_resp_study_inst.stopped,crit_a.started,crit_a.stopped,crit_b.started,crit_b.stopped,crit_c.started,crit_c.stopped,crit_d.started,crit_d.stopped,crit_e.started,crit_e.stopped,crit_f.started,crit_f.stopped,study_word,study_num,study_order,study_type,word_color,textStudy.started,textStudy.stopped,keyStudy.keys,keyStudy.started,keyStudy.stopped,post_study.started,post_study.stopped,key_resp_post_study.keys,key_resp_post_study.rt,key_resp_post_study.started,key_resp_post_study.stopped,test_inst.started,test_inst.stopped,key_resp_test_inst.keys,key_resp_test_inst.rt,key_resp_test_inst.started,key_resp_test_inst.stopped,test_word,test_num,test_order,test_condition,old_new_test,word_color_test,textConf.started,textConf.stopped,Participant Response,textInput.started,textInput.stopped,keyResp.keys,keyResp.rt,keyResp.started,keyResp.stopped,textEnd.started,textEnd.stopped,participant,session,date,expName,psychopyVersion,frameRate,
,,,,,,,,,,,,,,,,36.50189429987222,None,n,1.0863718995824456,36.50189429987222,None,,,,,,,,,,,,,,,,,,,,,,,,,,,,,,,,,,,,,,,,,,,,,,,,,,,,,,,,,,,,,,,,,,,,,,,,,,,,,,,,,,,,,,,,,,,,,,,,,,,,,,,,,,,,,,,,,,,,,,68,001,2023_May_03_1023,ExactRep-v3-final,2021.2.3,59.93885057493337,
,,,,,,,,,,,,,,,,,,,,,,37.60460270009935,None,b,0.5195657005533576,37.60460270009935,None,,,,,,,,,,,,,,,,,,,,,,,,,,,,,,,,,,,,,,,,,,,,,,,,,,,,,,,,,,,,,,,,,,,,,,,,,,,,,,,,,,,,,,,,,,,,,,,,,,,,,,,,,,,,,,,,68,001,2023_May_03_1023,ExactRep-v3-final,2021.2.3,59.93885057493337,
,,,,,,,,,,,,,,,,,,,,,,,,,,,,whitefoils,b,space,2041.3858726006001,48.33227899949998,None,,,,,,,,,,,,,,,,,,,,,,,,,,,,,,,,,,,,,,,,,,,,,,,,,,,,,,,,,,,,,,,,,,,,,,,,,,,,,,,,,,,,,,,,,,,,,,,,,,,,,,,,,,68,001,2023_May_03_1023,ExactRep-v3-final,2021.2.3,59.93885057493337,
,,,,,,,,,,,,,,,,,,,,,,,,,,,,,,,,,,38.34087279997766,None,38.34087279997766,None,38.34087279997766,None,38.34087279997766,None,38.34087279997766,None,38.34087279997766,None,space,20.32447720039636,2099.945645700209,None,,,,,,,,,,,,,,,,,,,,,,,,,,,,,,,,,,,,,,,,,,,,,,,,,,,,,,,,,,,,,,,,,,,,,,,,,,,,,,,,,,,,,,,,,,68,001,2023_May_03_1023,ExactRep-v3-final,2021.2.3,59.93885057493337,
0,0,0,0,,,,,,,,,,,,,,,,,,,,,,,,,,,,,,,,,,,,,,,,,,,,,,,2089.9364604996517,None,2089.9364604996517,None,2089.9364604996517,None,2089.9364604996517,None,2089.9364604996517,None,2089.9364604996517,None,2120.391373999417,None,2122.3892951002344,None,,,,,,,,,,,,,,,,,,,,,,,,,,,,,,,,,,,,,,,,,,,,,,,,,,,,,,,,,,,,,,,,,,,,,,,,,,68,001,2023_May_03_1023,ExactRep-v3-final,2021.2.3,59.93885057493337,
1,0,1,0,,,,,,,,,,,,,,,,,,,,,,,,,,,,,,,,,,,,,,,,,,,,,,,,,,,,,,,,,,,2122.907490800135,None,2124.9085275996476,None,,,,,,,,,,,,,,,,,,,,,,,,,,,,,,,,,,,,,,,,,,,,,,,,,,,,,,,,,,,,,,,,,,,,,,,,,,68,001,2023_May_03_1023,ExactRep-v3-final,2021.2.3,59.93885057493337,
2,0,2,0,,,,,,,,,,,,,,,,,,,,,,,,,,,,,,,,,,,,,,,,,,,,,,,,,,,,,,,,,,,2125.410081099719,None,2127.4110265001655,None,,,,,,,,,,,,,,,,,,,,,,,,,,,,,,,,,,,,,,,,,,,,,,,,,,,,,,,,,,,,,,,,,,,,,,,,,,68,001,2023_May_03_1023,ExactRep-v3-final,2021.2.3,59.93885057493337,
3,0,3,0,,,,,,,,,,,,,,,,,,,,,,,,,,,,,,,,,,,,,,,,,,,,,,,,,,,,,,,,,,,2127.9144695000723,None,2129.929946400225,None,,,,,,,,,,,,,,,,,,,,,,,,,,,,,,,,,,,,,,,,,,,,,,,,,,,,,,,,,,,,,,,,,,,,,,,,,,68,001,2023_May_03_1023,ExactRep-v3-final,2021.2.3,59.93885057493337,
4,0,4,0,,,,,,,,,,,,,,,,,,,,,,,,,,,,,,,,,,,,,,,,,,,,,,,,,,,,,,,,,,,2130.43769299984,None,2132.449351900257,None,,,,,,,,,,,,,,,,,,,,,,,,,,,,,,,,,,,,,,,,,,,,,,,,,,,,,,,,,,,,,,,,,,,,,,,,,,68,001,2023_May_03_1023,ExactRep-v3-final,2021.2.3,59.93885057493337,
5,0,5,0,,,,,,,,,,,,,,,,,,,,,,,,,,,,,,,,,,,,,,,,,,,,,,,,,,,,,,,,,,,2132.949874199927,None,2134.95204610005,None,,,,,,,,,,,,,,,,,,,,,,,,,,,,,,,,,,,,,,,,,,,,,,,,,,,,,,,,,,,,,,,,,,,,,,,,,,68,001,2023_May_03_1023,ExactRep-v3-final,2021.2.3,59.93885057493337,
6,0,6,0,,,,,,,,,,,,,,,,,,,,,,,,,,,,,,,,,,,,,,,,,,,,,,,,,,,,,,,,,,,2135.454666700214,None,2137.4543586997315,None,,,,,,,,,,,,,,,,,,,,,,,,,,,,,,,,,,,,,,,,,,,,,,,,,,,,,,,,,,,,,,,,,,,,,,,,,,68,001,2023_May_03_1023,ExactRep-v3-final,2021.2.3,59.93885057493337,
7,0,7,0,,,,,,,,,,,,,,,,,,,,,,,,,,,,,,,,,,,,,,,,,,,,,,,,,,,,,,,,,,,2137.957106200047,None,2139.9566398998722,None,,,,,,,,,,,,,,,,,,,,,,,,,,,,,,,,,,,,,,,,,,,,,,,,,,,,,,,,,,,,,,,,,,,,,,,,,,68,001,2023_May_03_1023,ExactRep-v3-final,2021.2.3,59.93885057493337,
8,0,8,0,,,,,,,,,,,,,,,,,,,,,,,,,,,,,,,,,,,,,,,,,,,,,,,,,,,,,,,,,,,2140.4651170000434,None,2142.4760044002905,None,,,,,,,,,,,,,,,,,,,,,,,,,,,,,,,,,,,,,,,,,,,,,,,,,,,,,,,,,,,,,,,,,,,,,,,,,,68,001,2023_May_03_1023,ExactRep-v3-final,2021.2.3,59.93885057493337,
9,0,9,0,,,,,,,,,,,,,,,,,,,,,,,,,,,,,,,,,,,,,,,,,,,,,,,,,,,,,,,,,,,2142.9765555001795,None,2144.9783482002094,None,,,,,,,,,,,,,,,,,,,,,,,,,,,,,,,,,,,,,,,,,,,,,,,,,,,,,,,,,,,,,,,,,,,,,,,,,,68,001,2023_May_03_1023,ExactRep-v3-final,2021.2.3,59.93885057493337,
10,0,10,0,,,,,,,,,,,,,,,,,,,,,,,,,,,,,,,,,,,,,,,,,,,,,,,,,,,,,,,,,,,2145.4791981000453,None,2147.480784399435,None,,,,,,,,,,,,,,,,,,,,,,,,,,,,,,,,,,,,,,,,,,,,,,,,,,,,,,,,,,,,,,,,,,,,,,,,,,68,001,2023_May_03_1023,ExactRep-v3-final,2021.2.3,59.93885057493337,
11,0,11,0,,,,,,,,,,,,,,,,,,,,,,,,,,,,,,,,,,,,,,,,,,,,,,,,,,,,,,,,,,,2147.981429499574,None,2149.983487700112,None,,,,,,,,,,,,,,,,,,,,,,,,,,,,,,,,,,,,,,,,,,,,,,,,,,,,,,,,,,,,,,,,,,,,,,,,,,68,001,2023_May_03_1023,ExactRep-v3-final,2021.2.3,59.93885057493337,
12,0,12,0,,,,,,,,,,,,,,,,,,,,,,,,,,,,,,,,,,,,,,,,,,,,,,,,,,,,,,,,,,,2150.4860616996884,None,2152.4860069993883,None,,,,,,,,,,,,,,,,,,,,,,,,,,,,,,,,,,,,,,,,,,,,,,,,,,,,,,,,,,,,,,,,,,,,,,,,,,68,001,2023_May_03_1023,ExactRep-v3-final,2021.2.3,59.93885057493337,
13,0,13,0,,,,,,,,,,,,,,,,,,,,,,,,,,,,,,,,,,,,,,,,,,,,,,,,,,,,,,,,,,,2152.9865477001294,None,2154.9884963994846,None,,,,,,,,,,,,,,,,,,,,,,,,,,,,,,,,,,,,,,,,,,,,,,,,,,,,,,,,,,,,,,,,,,,,,,,,,,68,001,2023_May_03_1023,ExactRep-v3-final,2021.2.3,59.93885057493337,
14,0,14,0,,,,,,,,,,,,,,,,,,,,,,,,,,,,,,,,,,,,,,,,,,,,,,,,,,,,,,,,,,,2155.491054999642,None,2157.4909959994256,None,,,,,,,,,,,,,,,,,,,,,,,,,,,,,,,,,,,,,,,,,,,,,,,,,,,,,,,,,,,,,,,,,,,,,,,,,,68,001,2023_May_03_1023,ExactRep-v3-final,2021.2.3,59.93885057493337,
,,,,,,,,,,,,,,,,,,,,,,,,,,,,,,,,,,,,,,,,,,,,,,,,,,,,,,,,,,,,,,,,,,space,30.936404900625348,2168.1018536994234,None,,,,,,,,,,,,,,,,,,,,,,,,,,,,,,,,,,,,,,,,,,,,,,,,,,,,,,,,,,,,,,,,,,,,,,68,001,2023_May_03_1023,ExactRep-v3-final,2021.2.3,59.93885057493337,
,,,,0,0,0,0,,,,,,,,,,,,,,,,,,,,,,,,,,,,,,,,,,,,,,,,,,,,,,,,,,,,,,,,,2201.1513547999784,None,,,,,2158.143793299794,None,2158.143793299794,None,2158.143793299794,None,2158.143793299794,None,2158.143793299794,None,2158.143793299794,None,2199.1481395997107,None,,,,,,,,,,,,,,,,,,,,,,,,,,,,,,,,,,,,,,,,,,,,,,,,,,,,,,,,68,001,2023_May_03_1023,ExactRep-v3-final,2021.2.3,59.93885057493337,
,,,,1,0,1,0,,,,,,,,,,,,,,,,,,,,,,,,,,,,,,,,,,,,,,,,,,,,,,,,,,,,,,,,,2203.653941099532,None,,,,,,,,,,,,,,,,,2201.651903499849,None,,,,,,,,,,,,,,,,,,,,,,,,,,,,,,,,,,,,,,,,,,,,,,,,,,,,,,,,68,001,2023_May_03_1023,ExactRep-v3-final,2021.2.3,59.93885057493337,
,,,,2,0,2,0,,,,,,,,,,,,,,,,,,,,,,,,,,,,,,,,,,,,,,,,,,,,,,,,,,,,,,,,,2206.156498500146,None,,,,,,,,,,,,,,,,,2204.1541782002896,None,,,,,,,,,,,,,,,,,,,,,,,,,,,,,,,,,,,,,,,,,,,,,,,,,,,,,,,,68,001,2023_May_03_1023,ExactRep-v3-final,2021.2.3,59.93885057493337,
,,,,3,0,3,0,,,,,,,,,,,,,,,,,,,,,,,,,,,,,,,,,,,,,,,,,,,,,,,,,,,,,,,,,2208.6585611999035,None,,,,,,,,,,,,,,,,,2206.6569336997345,None,,,,,,,,,,,,,,,,,,,,,,,,,,,,,,,,,,,,,,,,,,,,,,,,,,,,,,,,68,001,2023_May_03_1023,ExactRep-v3-final,2021.2.3,59.93885057493337,
,,,,4,0,4,0,,,,,,,,,,,,,,,,,,,,,,,,,,,,,,,,,,,,,,,,,,,,,,,,,,,,,,,,,2211.1613572994247,None,,,,,,,,,,,,,,,,,2209.159496500157,None,,,,,,,,,,,,,,,,,,,,,,,,,,,,,,,,,,,,,,,,,,,,,,,,,,,,,,,,68,001,2023_May_03_1023,ExactRep-v3-final,2021.2.3,59.93885057493337,
,,,,5,0,5,0,,,,,,,,,,,,,,,,,,,,,,,,,,,,,,,,,,,,,,,,,,,,,,,,,,,,,,,,,2213.664069900289,None,,,,,,,,,,,,,,,,,2211.661921000108,None,,,,,,,,,,,,,,,,,,,,,,,,,,,,,,,,,,,,,,,,,,,,,,,,,,,,,,,,68,001,2023_May_03_1023,ExactRep-v3-final,2021.2.3,59.93885057493337,
,,,,6,0,6,0,,,,,,,,,,,,,,,,,,,,,,,,,,,,,,,,,,,,,,,,,,,,,,,,,,,,,,,,,2216.166166199371,None,,,,,,,,,,,,,,,,,2214.164222399704,None,,,,,,,,,,,,,,,,,,,,,,,,,,,,,,,,,,,,,,,,,,,,,,,,,,,,,,,,68,001,2023_May_03_1023,ExactRep-v3-final,2021.2.3,59.93885057493337,
,,,,7,0,7,0,,,,,,,,,,,,,,,,,,,,,,,,,,,,,,,,,,,,,,,,,,,,,,,,,,,,,,,,,2218.669024899602,None,,,,,,,,,,,,,,,,,2216.6668616002426,None,,,,,,,,,,,,,,,,,,,,,,,,,,,,,,,,,,,,,,,,,,,,,,,,,,,,,,,,68,001,2023_May_03_1023,ExactRep-v3-final,2021.2.3,59.93885057493337,
,,,,8,0,8,0,,,,,,,,,,,,,,,,,,,,,,,,,,,,,,,,,,,,,,,,,,,,,,,,,,,,,,,,,2221.1714270999655,None,,,,,,,,,,,,,,,,,2219.1695307996124,None,,,,,,,,,,,,,,,,,,,,,,,,,,,,,,,,,,,,,,,,,,,,,,,,,,,,,,,,68,001,2023_May_03_1023,ExactRep-v3-final,2021.2.3,59.93885057493337,
,,,,9,0,9,0,,,,,,,,,,,,,,,,,,,,,,,,,,,,,,,,,,,,,,,,,,,,,,,,,,,,,,,,,2223.673729799688,None,,,,,,,,,,,,,,,,,2221.6719549000263,None,,,,,,,,,,,,,,,,,,,,,,,,,,,,,,,,,,,,,,,,,,,,,,,,,,,,,,,,68,001,2023_May_03_1023,ExactRep-v3-final,2021.2.3,59.93885057493337,
,,,,10,0,10,0,,,,,,,,,,,,,,,,,,,,,,,,,,,,,,,,,,,,,,,,,,,,,,,,,,,,,,,,,2226.1763790994883,None,,,,,,,,,,,,,,,,,2224.174552500248,None,,,,,,,,,,,,,,,,,,,,,,,,,,,,,,,,,,,,,,,,,,,,,,,,,,,,,,,,68,001,2023_May_03_1023,ExactRep-v3-final,2021.2.3,59.93885057493337,
,,,,11,0,11,0,,,,,,,,,,,,,,,,,,,,,,,,,,,,,,,,,,,,,,,,,,,,,,,,,,,,,,,,,2228.678830999881,None,,,,,,,,,,,,,,,,,2226.676905100234,None,,,,,,,,,,,,,,,,,,,,,,,,,,,,,,,,,,,,,,,,,,,,,,,,,,,,,,,,68,001,2023_May_03_1023,ExactRep-v3-final,2021.2.3,59.93885057493337,
,,,,12,0,12,0,,,,,,,,,,,,,,,,,,,,,,,,,,,,,,,,,,,,,,,,,,,,,,,,,,,,,,,,,2231.181432100013,None,,,,,,,,,,,,,,,,,2229.179543899372,None,,,,,,,,,,,,,,,,,,,,,,,,,,,,,,,,,,,,,,,,,,,,,,,,,,,,,,,,68,001,2023_May_03_1023,ExactRep-v3-final,2021.2.3,59.93885057493337,
,,,,13,0,13,0,,,,,,,,,,,,,,,,,,,,,,,,,,,,,,,,,,,,,,,,,,,,,,,,,,,,,,,,,2233.6839156001806,None,,,,,,,,,,,,,,,,,2231.6818985994905,None,,,,,,,,,,,,,,,,,,,,,,,,,,,,,,,,,,,,,,,,,,,,,,,,,,,,,,,,68,001,2023_May_03_1023,ExactRep-v3-final,2021.2.3,59.93885057493337,
,,,,14,0,14,0,,,,,,,,,,,,,,,,,,,,,,,,,,,,,,,,,,,,,,,,,,,,,,,,,,,,,,,,,2236.1864745998755,None,,,,,,,,,,,,,,,,,2234.1843980001286,None,,,,,,,,,,,,,,,,,,,,,,,,,,,,,,,,,,,,,,,,,,,,,,,,,,,,,,,,68,001,2023_May_03_1023,ExactRep-v3-final,2021.2.3,59.93885057493337,
,,,,,,,,,,,,,,,,,,,,,,,,,,,,,,,,,,,,,,,,,,,,,,,,,,,,,,,,,,,,,,,,,,,,,,,,,,,,,,,,,,,,space,29.66099409945309,2246.833244900219,None,,,,,,,,,,,,,,,,,,,,,,,,,,,,,,,,,,,,,,,,,,,,,,,,,,,,68,001,2023_May_03_1023,ExactRep-v3-final,2021.2.3,59.93885057493337,
,,,,,,,,0,0,0,0,,,,,,,,,,,,,,,,,,,,,,,,,,,,,,,,,,,,,,,,,,,,,,,,,,,,,2278.611958700232,None,,,,,,,,,,,,,,,,,,,,,,,2236.860347200185,None,2236.860347200185,None,2236.860347200185,None,2236.860347200185,None,2236.860347200185,None,2236.860347200185,None,meadow,85,1,aloud,red,2276.6117588002235,None,None,2276.6117588002235,None,,,,,,,,,,,,,,,,,,,,,,,,,,,,,,68,001,2023_May_03_1023,ExactRep-v3-final,2021.2.3,59.93885057493337,
,,,,,,,,1,0,1,0,,,,,,,,,,,,,,,,,,,,,,,,,,,,,,,,,,,,,,,,,,,,,,,,,,,,,2281.1310291001573,None,,,,,,,,,,,,,,,,,,,,,,,,,,,,,,,,,,,death,70,2,silent,white,2279.126011399552,None,None,2279.126011399552,None,,,,,,,,,,,,,,,,,,,,,,,,,,,,,,68,001,2023_May_03_1023,ExactRep-v3-final,2021.2.3,59.93885057493337,
,,,,,,,,2,0,2,0,,,,,,,,,,,,,,,,,,,,,,,,,,,,,,,,,,,,,,,,,,,,,,,,,,,,,2283.650350299664,None,,,,,,,,,,,,,,,,,,,,,,,,,,,,,,,,,,,river,91,3,aloud,red,2281.6484754998237,None,None,2281.6484754998237,None,,,,,,,,,,,,,,,,,,,,,,,,,,,,,,68,001,2023_May_03_1023,ExactRep-v3-final,2021.2.3,59.93885057493337,
,,,,,,,,3,0,3,0,,,,,,,,,,,,,,,,,,,,,,,,,,,,,,,,,,,,,,,,,,,,,,,,,,,,,2286.1696082996204,None,,,,,,,,,,,,,,,,,,,,,,,,,,,,,,,,,,,fact,21,4,sing,blue,2284.1583936000243,None,None,2284.1583936000243,None,,,,,,,,,,,,,,,,,,,,,,,,,,,,,,68,001,2023_May_03_1023,ExactRep-v3-final,2021.2.3,59.93885057493337,
,,,,,,,,4,0,4,0,,,,,,,,,,,,,,,,,,,,,,,,,,,,,,,,,,,,,,,,,,,,,,,,,,,,,2288.674246000126,None,,,,,,,,,,,,,,,,,,,,,,,,,,,,,,,,,,,ability,45,5,silent,white,2286.669999799691,None,None,2286.669999799691,None,,,,,,,,,,,,,,,,,,,,,,,,,,,,,,68,001,2023_May_03_1023,ExactRep-v3-final,2021.2.3,59.93885057493337,
,,,,,,,,5,0,5,0,,,,,,,,,,,,,,,,,,,,,,,,,,,,,,,,,,,,,,,,,,,,,,,,,,,,,2291.2080879993737,None,,,,,,,,,,,,,,,,,,,,,,,,,,,,,,,,,,,fault,69,6,silent,white,2289.199272699654,None,None,2289.199272699654,None,,,,,,,,,,,,,,,,,,,,,,,,,,,,,,68,001,2023_May_03_1023,ExactRep-v3-final,2021.2.3,59.93885057493337,
,,,,,,,,6,0,6,0,,,,,,,,,,,,,,,,,,,,,,,,,,,,,,,,,,,,,,,,,,,,,,,,,,,,,2293.727271299809,None,,,,,,,,,,,,,,,,,,,,,,,,,,,,,,,,,,,sugar,117,7,aloud,red,2291.7122917994857,None,None,2291.7122917994857,None,,,,,,,,,,,,,,,,,,,,,,,,,,,,,,68,001,2023_May_03_1023,ExactRep-v3-final,2021.2.3,59.93885057493337,
,,,,,,,,7,0,7,0,,,,,,,,,,,,,,,,,,,,,,,,,,,,,,,,,,,,,,,,,,,,,,,,,,,,,2296.2295928001404,None,,,,,,,,,,,,,,,,,,,,,,,,,,,,,,,,,,,mind,22,8,sing,blue,2294.2302163997665,None,None,2294.2302163997665,None,,,,,,,,,,,,,,,,,,,,,,,,,,,,,,68,001,2023_May_03_1023,ExactRep-v3-final,2021.2.3,59.93885057493337,
,,,,,,,,8,0,8,0,,,,,,,,,,,,,,,,,,,,,,,,,,,,,,,,,,,,,,,,,,,,,,,,,,,,,2298.732052899897,None,,,,,,,,,,,,,,,,,,,,,,,,,,,,,,,,,,,string,39,9,silent,white,2296.7321442998946,None,None,2296.7321442998946,None,,,,,,,,,,,,,,,,,,,,,,,,,,,,,,68,001,2023_May_03_1023,ExactRep-v3-final,2021.2.3,59.93885057493337,
,,,,,,,,9,0,9,0,,,,,,,,,,,,,,,,,,,,,,,,,,,,,,,,,,,,,,,,,,,,,,,,,,,,,2301.234791100025,None,,,,,,,,,,,,,,,,,,,,,,,,,,,,,,,,,,,camp,102,10,aloud,red,2299.2338883997872,None,None,2299.2338883997872,None,,,,,,,,,,,,,,,,,,,,,,,,,,,,,,68,001,2023_May_03_1023,ExactRep-v3-final,2021.2.3,59.93885057493337,
,,,,,,,,10,0,10,0,,,,,,,,,,,,,,,,,,,,,,,,,,,,,,,,,,,,,,,,,,,,,,,,,,,,,2303.753770799376,None,,,,,,,,,,,,,,,,,,,,,,,,,,,,,,,,,,,heaven,50,11,silent,white,2301.7426378997043,None,None,2301.7426378997043,None,,,,,,,,,,,,,,,,,,,,,,,,,,,,,,68,001,2023_May_03_1023,ExactRep-v3-final,2021.2.3,59.93885057493337,
,,,,,,,,11,0,11,0,,,,,,,,,,,,,,,,,,,,,,,,,,,,,,,,,,,,,,,,,,,,,,,,,,,,,2306.2564525995404,None,,,,,,,,,,,,,,,,,,,,,,,,,,,,,,,,,,,table,81,12,aloud,red,2304.2562350993976,None,None,2304.2562350993976,None,,,,,,,,,,,,,,,,,,,,,,,,,,,,,,68,001,2023_May_03_1023,ExactRep-v3-final,2021.2.3,59.93885057493337,
,,,,,,,,12,0,12,0,,,,,,,,,,,,,,,,,,,,,,,,,,,,,,,,,,,,,,,,,,,,,,,,,,,,,2308.7755939001217,None,,,,,,,,,,,,,,,,,,,,,,,,,,,,,,,,,,,money,75,13,silent,white,2306.7668091999367,None,None,2306.7668091999367,None,,,,,,,,,,,,,,,,,,,,,,,,,,,,,,68,001,2023_May_03_1023,ExactRep-v3-final,2021.2.3,59.93885057493337,
,,,,,,,,13,0,13,0,,,,,,,,,,,,,,,,,,,,,,,,,,,,,,,,,,,,,,,,,,,,,,,,,,,,,2311.2780309002846,None,,,,,,,,,,,,,,,,,,,,,,,,,,,,,,,,,,,murder,6,14,sing,blue,2309.2761763995513,None,None,2309.2761763995513,None,,,,,,,,,,,,,,,,,,,,,,,,,,,,,,68,001,2023_May_03_1023,ExactRep-v3-final,2021.2.3,59.93885057493337,
,,,,,,,,14,0,14,0,,,,,,,,,,,,,,,,,,,,,,,,,,,,,,,,,,,,,,,,,,,,,,,,,,,,,2313.7973528997973,None,,,,,,,,,,,,,,,,,,,,,,,,,,,,,,,,,,,chair,34,15,sing,blue,2311.7835636995733,None,None,2311.7835636995733,None,,,,,,,,,,,,,,,,,,,,,,,,,,,,,,68,001,2023_May_03_1023,ExactRep-v3-final,2021.2.3,59.93885057493337,
,,,,,,,,15,0,15,0,,,,,,,,,,,,,,,,,,,,,,,,,,,,,,,,,,,,,,,,,,,,,,,,,,,,,2316.299783299677,None,,,,,,,,,,,,,,,,,,,,,,,,,,,,,,,,,,,product,10,16,sing,blue,2314.297767999582,None,None,2314.297767999582,None,,,,,,,,,,,,,,,,,,,,,,,,,,,,,,68,001,2023_May_03_1023,ExactRep-v3-final,2021.2.3,59.93885057493337,
,,,,,,,,16,0,16,0,,,,,,,,,,,,,,,,,,,,,,,,,,,,,,,,,,,,,,,,,,,,,,,,,,,,,2318.8024595994502,None,,,,,,,,,,,,,,,,,,,,,,,,,,,,,,,,,,,insect,29,17,sing,blue,2316.80319970008,None,None,2316.80319970008,None,,,,,,,,,,,,,,,,,,,,,,,,,,,,,,68,001,2023_May_03_1023,ExactRep-v3-final,2021.2.3,59.93885057493337,
,,,,,,,,17,0,17,0,,,,,,,,,,,,,,,,,,,,,,,,,,,,,,,,,,,,,,,,,,,,,,,,,,,,,2321.321506500244,None,,,,,,,,,,,,,,,,,,,,,,,,,,,,,,,,,,,seat,74,18,silent,white,2319.306450200267,None,None,2319.306450200267,None,,,,,,,,,,,,,,,,,,,,,,,,,,,,,,68,001,2023_May_03_1023,ExactRep-v3-final,2021.2.3,59.93885057493337,
,,,,,,,,18,0,18,0,,,,,,,,,,,,,,,,,,,,,,,,,,,,,,,,,,,,,,,,,,,,,,,,,,,,,2323.8240799000487,None,,,,,,,,,,,,,,,,,,,,,,,,,,,,,,,,,,,storm,101,19,aloud,red,2321.82253449969,None,None,2321.82253449969,None,,,,,,,,,,,,,,,,,,,,,,,,,,,,,,68,001,2023_May_03_1023,ExactRep-v3-final,2021.2.3,59.93885057493337,
,,,,,,,,19,0,19,0,,,,,,,,,,,,,,,,,,,,,,,,,,,,,,,,,,,,,,,,,,,,,,,,,,,,,2326.326714299619,None,,,,,,,,,,,,,,,,,,,,,,,,,,,,,,,,,,,time,82,20,aloud,red,2324.3258975995705,None,None,2324.3258975995705,None,,,,,,,,,,,,,,,,,,,,,,,,,,,,,,68,001,2023_May_03_1023,ExactRep-v3-final,2021.2.3,59.93885057493337,
,,,,,,,,20,0,20,0,,,,,,,,,,,,,,,,,,,,,,,,,,,,,,,,,,,,,,,,,,,,,,,,,,,,,2328.8289018999785,None,,,,,,,,,,,,,,,,,,,,,,,,,,,,,,,,,,,temple,64,21,silent,white,2326.8279643999413,None,None,2326.8279643999413,None,,,,,,,,,,,,,,,,,,,,,,,,,,,,,,68,001,2023_May_03_1023,ExactRep-v3-final,2021.2.3,59.93885057493337,
,,,,,,,,21,0,21,0,,,,,,,,,,,,,,,,,,,,,,,,,,,,,,,,,,,,,,,,,,,,,,,,,,,,,2331.331379399635,None,,,,,,,,,,,,,,,,,,,,,,,,,,,,,,,,,,,girl,112,22,aloud,red,2329.329414099455,None,None,2329.329414099455,None,,,,,,,,,,,,,,,,,,,,,,,,,,,,,,68,001,2023_May_03_1023,ExactRep-v3-final,2021.2.3,59.93885057493337,
,,,,,,,,22,0,22,0,,,,,,,,,,,,,,,,,,,,,,,,,,,,,,,,,,,,,,,,,,,,,,,,,,,,,2333.834128599614,None,,,,,,,,,,,,,,,,,,,,,,,,,,,,,,,,,,,truth,63,23,silent,white,2331.833835599944,None,None,2331.833835599944,None,,,,,,,,,,,,,,,,,,,,,,,,,,,,,,68,001,2023_May_03_1023,ExactRep-v3-final,2021.2.3,59.93885057493337,
,,,,,,,,23,0,23,0,,,,,,,,,,,,,,,,,,,,,,,,,,,,,,,,,,,,,,,,,,,,,,,,,,,,,2336.353245699778,None,,,,,,,,,,,,,,,,,,,,,,,,,,,,,,,,,,,woods,95,24,aloud,red,2334.3393442993984,None,None,2334.3393442993984,None,,,,,,,,,,,,,,,,,,,,,,,,,,,,,,68,001,2023_May_03_1023,ExactRep-v3-final,2021.2.3,59.93885057493337,
,,,,,,,,24,0,24,0,,,,,,,,,,,,,,,,,,,,,,,,,,,,,,,,,,,,,,,,,,,,,,,,,,,,,2338.855960600078,None,,,,,,,,,,,,,,,,,,,,,,,,,,,,,,,,,,,rod,8,25,sing,blue,2336.854925000109,None,None,2336.854925000109,None,,,,,,,,,,,,,,,,,,,,,,,,,,,,,,68,001,2023_May_03_1023,ExactRep-v3-final,2021.2.3,59.93885057493337,
,,,,,,,,25,0,25,0,,,,,,,,,,,,,,,,,,,,,,,,,,,,,,,,,,,,,,,,,,,,,,,,,,,,,2341.3721532998607,None,,,,,,,,,,,,,,,,,,,,,,,,,,,,,,,,,,,month,87,26,aloud,red,2339.359294999391,None,None,2339.359294999391,None,,,,,,,,,,,,,,,,,,,,,,,,,,,,,,68,001,2023_May_03_1023,ExactRep-v3-final,2021.2.3,59.93885057493337,
,,,,,,,,26,0,26,0,,,,,,,,,,,,,,,,,,,,,,,,,,,,,,,,,,,,,,,,,,,,,,,,,,,,,2343.89454919938,None,,,,,,,,,,,,,,,,,,,,,,,,,,,,,,,,,,,city,42,27,silent,white,2341.8822584999725,None,None,2341.8822584999725,None,,,,,,,,,,,,,,,,,,,,,,,,,,,,,,68,001,2023_May_03_1023,ExactRep-v3-final,2021.2.3,59.93885057493337,
,,,,,,,,27,0,27,0,,,,,,,,,,,,,,,,,,,,,,,,,,,,,,,,,,,,,,,,,,,,,,,,,,,,,2346.396584900096,None,,,,,,,,,,,,,,,,,,,,,,,,,,,,,,,,,,,soil,84,28,aloud,red,2344.39438899979,None,None,2344.39438899979,None,,,,,,,,,,,,,,,,,,,,,,,,,,,,,,68,001,2023_May_03_1023,ExactRep-v3-final,2021.2.3,59.93885057493337,
,,,,,,,,28,0,28,0,,,,,,,,,,,,,,,,,,,,,,,,,,,,,,,,,,,,,,,,,,,,,,,,,,,,,2348.8990760995075,None,,,,,,,,,,,,,,,,,,,,,,,,,,,,,,,,,,,volume,96,29,aloud,red,2346.89758790005,None,None,2346.89758790005,None,,,,,,,,,,,,,,,,,,,,,,,,,,,,,,68,001,2023_May_03_1023,ExactRep-v3-final,2021.2.3,59.93885057493337,
,,,,,,,,29,0,29,0,,,,,,,,,,,,,,,,,,,,,,,,,,,,,,,,,,,,,,,,,,,,,,,,,,,,,2351.418392200023,None,,,,,,,,,,,,,,,,,,,,,,,,,,,,,,,,,,,love,19,30,sing,blue,2349.4085026001558,None,None,2349.4085026001558,None,,,,,,,,,,,,,,,,,,,,,,,,,,,,,,68,001,2023_May_03_1023,ExactRep-v3-final,2021.2.3,59.93885057493337,
,,,,,,,,30,0,30,0,,,,,,,,,,,,,,,,,,,,,,,,,,,,,,,,,,,,,,,,,,,,,,,,,,,,,2353.9374708002433,None,,,,,,,,,,,,,,,,,,,,,,,,,,,,,,,,,,,troops,99,31,aloud,red,2351.92600459978,None,None,2351.92600459978,None,,,,,,,,,,,,,,,,,,,,,,,,,,,,,,68,001,2023_May_03_1023,ExactRep-v3-final,2021.2.3,59.93885057493337,
,,,,,,,,31,0,31,0,,,,,,,,,,,,,,,,,,,,,,,,,,,,,,,,,,,,,,,,,,,,,,,,,,,,,2356.4400516999885,None,,,,,,,,,,,,,,,,,,,,,,,,,,,,,,,,,,,woman,41,32,silent,white,2354.437912499532,None,None,2354.437912499532,None,,,,,,,,,,,,,,,,,,,,,,,,,,,,,,68,001,2023_May_03_1023,ExactRep-v3-final,2021.2.3,59.93885057493337,
,,,,,,,,32,0,32,0,,,,,,,,,,,,,,,,,,,,,,,,,,,,,,,,,,,,,,,,,,,,,,,,,,,,,2358.9591611996293,None,,,,,,,,,,,,,,,,,,,,,,,,,,,,,,,,,,,season,92,33,aloud,red,2356.94911929965,None,None,2356.94911929965,None,,,,,,,,,,,,,,,,,,,,,,,,,,,,,,68,001,2023_May_03_1023,ExactRep-v3-final,2021.2.3,59.93885057493337,
,,,,,,,,33,0,33,0,,,,,,,,,,,,,,,,,,,,,,,,,,,,,,,,,,,,,,,,,,,,,,,,,,,,,2361.4618461001664,None,,,,,,,,,,,,,,,,,,,,,,,,,,,,,,,,,,,machine,97,34,aloud,red,2359.4594719996676,None,None,2359.4594719996676,None,,,,,,,,,,,,,,,,,,,,,,,,,,,,,,68,001,2023_May_03_1023,ExactRep-v3-final,2021.2.3,59.93885057493337,
,,,,,,,,34,0,34,0,,,,,,,,,,,,,,,,,,,,,,,,,,,,,,,,,,,,,,,,,,,,,,,,,,,,,2363.9808160997927,None,,,,,,,,,,,,,,,,,,,,,,,,,,,,,,,,,,,shock,98,35,aloud,red,2361.9697682000697,None,None,2361.9697682000697,None,,,,,,,,,,,,,,,,,,,,,,,,,,,,,,68,001,2023_May_03_1023,ExactRep-v3-final,2021.2.3,59.93885057493337,
,,,,,,,,35,0,35,0,,,,,,,,,,,,,,,,,,,,,,,,,,,,,,,,,,,,,,,,,,,,,,,,,,,,,2366.500034899451,None,,,,,,,,,,,,,,,,,,,,,,,,,,,,,,,,,,,steam,30,36,sing,blue,2364.493212999776,None,None,2364.493212999776,None,,,,,,,,,,,,,,,,,,,,,,,,,,,,,,68,001,2023_May_03_1023,ExactRep-v3-final,2021.2.3,59.93885057493337,
,,,,,,,,36,0,36,0,,,,,,,,,,,,,,,,,,,,,,,,,,,,,,,,,,,,,,,,,,,,,,,,,,,,,2369.0026087993756,None,,,,,,,,,,,,,,,,,,,,,,,,,,,,,,,,,,,street,14,37,sing,blue,2367.0003367997706,None,None,2367.0003367997706,None,,,,,,,,,,,,,,,,,,,,,,,,,,,,,,68,001,2023_May_03_1023,ExactRep-v3-final,2021.2.3,59.93885057493337,
,,,,,,,,37,0,37,0,,,,,,,,,,,,,,,,,,,,,,,,,,,,,,,,,,,,,,,,,,,,,,,,,,,,,2371.5050635002553,None,,,,,,,,,,,,,,,,,,,,,,,,,,,,,,,,,,,honour,15,38,sing,blue,2369.5044973995537,None,None,2369.5044973995537,None,,,,,,,,,,,,,,,,,,,,,,,,,,,,,,68,001,2023_May_03_1023,ExactRep-v3-final,2021.2.3,59.93885057493337,
,,,,,,,,38,0,38,0,,,,,,,,,,,,,,,,,,,,,,,,,,,,,,,,,,,,,,,,,,,,,,,,,,,,,2374.0241713002324,None,,,,,,,,,,,,,,,,,,,,,,,,,,,,,,,,,,,green,28,39,sing,blue,2372.012010799721,None,None,2372.012010799721,None,,,,,,,,,,,,,,,,,,,,,,,,,,,,,,68,001,2023_May_03_1023,ExactRep-v3-final,2021.2.3,59.93885057493337,
,,,,,,,,39,0,39,0,,,,,,,,,,,,,,,,,,,,,,,,,,,,,,,,,,,,,,,,,,,,,,,,,,,,,2376.526682900265,None,,,,,,,,,,,,,,,,,,,,,,,,,,,,,,,,,,,engine,93,40,aloud,red,2374.524726100266,None,None,2374.524726100266,None,,,,,,,,,,,,,,,,,,,,,,,,,,,,,,68,001,2023_May_03_1023,ExactRep-v3-final,2021.2.3,59.93885057493337,
,,,,,,,,40,0,40,0,,,,,,,,,,,,,,,,,,,,,,,,,,,,,,,,,,,,,,,,,,,,,,,,,,,,,2379.0292325997725,None,,,,,,,,,,,,,,,,,,,,,,,,,,,,,,,,,,,avenue,36,41,sing,blue,2377.028732399456,None,None,2377.028732399456,None,,,,,,,,,,,,,,,,,,,,,,,,,,,,,,68,001,2023_May_03_1023,ExactRep-v3-final,2021.2.3,59.93885057493337,
,,,,,,,,41,0,41,0,,,,,,,,,,,,,,,,,,,,,,,,,,,,,,,,,,,,,,,,,,,,,,,,,,,,,2381.5317636001855,None,,,,,,,,,,,,,,,,,,,,,,,,,,,,,,,,,,,flower,94,42,aloud,red,2379.532484400086,None,None,2379.532484400086,None,,,,,,,,,,,,,,,,,,,,,,,,,,,,,,68,001,2023_May_03_1023,ExactRep-v3-final,2021.2.3,59.93885057493337,
,,,,,,,,42,0,42,0,,,,,,,,,,,,,,,,,,,,,,,,,,,,,,,,,,,,,,,,,,,,,,,,,,,,,2384.0509211001918,None,,,,,,,,,,,,,,,,,,,,,,,,,,,,,,,,,,,paper,107,43,aloud,red,2382.0395430997014,None,None,2382.0395430997014,None,,,,,,,,,,,,,,,,,,,,,,,,,,,,,,68,001,2023_May_03_1023,ExactRep-v3-final,2021.2.3,59.93885057493337,
,,,,,,,,43,0,43,0,,,,,,,,,,,,,,,,,,,,,,,,,,,,,,,,,,,,,,,,,,,,,,,,,,,,,2386.5534424996004,None,,,,,,,,,,,,,,,,,,,,,,,,,,,,,,,,,,,doctor,78,44,silent,white,2384.552480899729,None,None,2384.552480899729,None,,,,,,,,,,,,,,,,,,,,,,,,,,,,,,68,001,2023_May_03_1023,ExactRep-v3-final,2021.2.3,59.93885057493337,
,,,,,,,,44,0,44,0,,,,,,,,,,,,,,,,,,,,,,,,,,,,,,,,,,,,,,,,,,,,,,,,,,,,,2389.056013099849,None,,,,,,,,,,,,,,,,,,,,,,,,,,,,,,,,,,,plain,40,45,silent,white,2387.0566563000903,None,None,2387.0566563000903,None,,,,,,,,,,,,,,,,,,,,,,,,,,,,,,68,001,2023_May_03_1023,ExactRep-v3-final,2021.2.3,59.93885057493337,
,,,,,,,,45,0,45,0,,,,,,,,,,,,,,,,,,,,,,,,,,,,,,,,,,,,,,,,,,,,,,,,,,,,,2391.558244000189,None,,,,,,,,,,,,,,,,,,,,,,,,,,,,,,,,,,,vessel,65,46,silent,white,2389.5593785000965,None,None,2389.5593785000965,None,,,,,,,,,,,,,,,,,,,,,,,,,,,,,,68,001,2023_May_03_1023,ExactRep-v3-final,2021.2.3,59.93885057493337,
,,,,,,,,46,0,46,0,,,,,,,,,,,,,,,,,,,,,,,,,,,,,,,,,,,,,,,,,,,,,,,,,,,,,2394.0609820000827,None,,,,,,,,,,,,,,,,,,,,,,,,,,,,,,,,,,,nail,17,47,sing,blue,2392.061205400154,None,None,2392.061205400154,None,,,,,,,,,,,,,,,,,,,,,,,,,,,,,,68,001,2023_May_03_1023,ExactRep-v3-final,2021.2.3,59.93885057493337,
,,,,,,,,47,0,47,0,,,,,,,,,,,,,,,,,,,,,,,,,,,,,,,,,,,,,,,,,,,,,,,,,,,,,2396.563471900299,None,,,,,,,,,,,,,,,,,,,,,,,,,,,,,,,,,,,tool,56,48,silent,white,2394.564003699459,None,None,2394.564003699459,None,,,,,,,,,,,,,,,,,,,,,,,,,,,,,,68,001,2023_May_03_1023,ExactRep-v3-final,2021.2.3,59.93885057493337,
,,,,,,,,48,0,48,0,,,,,,,,,,,,,,,,,,,,,,,,,,,,,,,,,,,,,,,,,,,,,,,,,,,,,2399.0825806995854,None,,,,,,,,,,,,,,,,,,,,,,,,,,,,,,,,,,,crime,31,49,sing,blue,2397.0674390997738,None,None,2397.0674390997738,None,,,,,,,,,,,,,,,,,,,,,,,,,,,,,,68,001,2023_May_03_1023,ExactRep-v3-final,2021.2.3,59.93885057493337,
,,,,,,,,49,0,49,0,,,,,,,,,,,,,,,,,,,,,,,,,,,,,,,,,,,,,,,,,,,,,,,,,,,,,2401.601875299588,None,,,,,,,,,,,,,,,,,,,,,,,,,,,,,,,,,,,square,86,50,aloud,red,2399.589387799613,None,None,2399.589387799613,None,,,,,,,,,,,,,,,,,,,,,,,,,,,,,,68,001,2023_May_03_1023,ExactRep-v3-final,2021.2.3,59.93885057493337,
,,,,,,,,50,0,50,0,,,,,,,,,,,,,,,,,,,,,,,,,,,,,,,,,,,,,,,,,,,,,,,,,,,,,2404.1044664997607,None,,,,,,,,,,,,,,,,,,,,,,,,,,,,,,,,,,,cabin,51,51,silent,white,2402.102098000236,None,None,2402.102098000236,None,,,,,,,,,,,,,,,,,,,,,,,,,,,,,,68,001,2023_May_03_1023,ExactRep-v3-final,2021.2.3,59.93885057493337,
,,,,,,,,51,0,51,0,,,,,,,,,,,,,,,,,,,,,,,,,,,,,,,,,,,,,,,,,,,,,,,,,,,,,2406.623327399604,None,,,,,,,,,,,,,,,,,,,,,,,,,,,,,,,,,,,hall,68,52,silent,white,2404.6138661000878,None,None,2404.6138661000878,None,,,,,,,,,,,,,,,,,,,,,,,,,,,,,,68,001,2023_May_03_1023,ExactRep-v3-final,2021.2.3,59.93885057493337,
,,,,,,,,52,0,52,0,,,,,,,,,,,,,,,,,,,,,,,,,,,,,,,,,,,,,,,,,,,,,,,,,,,,,2409.1258354000747,None,,,,,,,,,,,,,,,,,,,,,,,,,,,,,,,,,,,home,104,53,aloud,red,2407.125449099578,None,None,2407.125449099578,None,,,,,,,,,,,,,,,,,,,,,,,,,,,,,,68,001,2023_May_03_1023,ExactRep-v3-final,2021.2.3,59.93885057493337,
,,,,,,,,53,0,53,0,,,,,,,,,,,,,,,,,,,,,,,,,,,,,,,,,,,,,,,,,,,,,,,,,,,,,2411.645155299455,None,,,,,,,,,,,,,,,,,,,,,,,,,,,,,,,,,,,market,113,54,aloud,red,2409.629921699874,None,None,2409.629921699874,None,,,,,,,,,,,,,,,,,,,,,,,,,,,,,,68,001,2023_May_03_1023,ExactRep-v3-final,2021.2.3,59.93885057493337,
,,,,,,,,54,0,54,0,,,,,,,,,,,,,,,,,,,,,,,,,,,,,,,,,,,,,,,,,,,,,,,,,,,,,2414.1643626997247,None,,,,,,,,,,,,,,,,,,,,,,,,,,,,,,,,,,,meeting,18,55,sing,blue,2412.151286999695,None,None,2412.151286999695,None,,,,,,,,,,,,,,,,,,,,,,,,,,,,,,68,001,2023_May_03_1023,ExactRep-v3-final,2021.2.3,59.93885057493337,
,,,,,,,,55,0,55,0,,,,,,,,,,,,,,,,,,,,,,,,,,,,,,,,,,,,,,,,,,,,,,,,,,,,,2416.666774599813,None,,,,,,,,,,,,,,,,,,,,,,,,,,,,,,,,,,,boulder,38,56,sing,blue,2414.66676799953,None,None,2414.66676799953,None,,,,,,,,,,,,,,,,,,,,,,,,,,,,,,68,001,2023_May_03_1023,ExactRep-v3-final,2021.2.3,59.93885057493337,
,,,,,,,,56,0,56,0,,,,,,,,,,,,,,,,,,,,,,,,,,,,,,,,,,,,,,,,,,,,,,,,,,,,,2419.1861087996513,None,,,,,,,,,,,,,,,,,,,,,,,,,,,,,,,,,,,fun,100,57,aloud,red,2417.174054100178,None,None,2417.174054100178,None,,,,,,,,,,,,,,,,,,,,,,,,,,,,,,68,001,2023_May_03_1023,ExactRep-v3-final,2021.2.3,59.93885057493337,
,,,,,,,,57,0,57,0,,,,,,,,,,,,,,,,,,,,,,,,,,,,,,,,,,,,,,,,,,,,,,,,,,,,,2421.6886611999944,None,,,,,,,,,,,,,,,,,,,,,,,,,,,,,,,,,,,iron,26,58,sing,blue,2419.687800999731,None,None,2419.687800999731,None,,,,,,,,,,,,,,,,,,,,,,,,,,,,,,68,001,2023_May_03_1023,ExactRep-v3-final,2021.2.3,59.93885057493337,
,,,,,,,,58,0,58,0,,,,,,,,,,,,,,,,,,,,,,,,,,,,,,,,,,,,,,,,,,,,,,,,,,,,,2424.2076866002753,None,,,,,,,,,,,,,,,,,,,,,,,,,,,,,,,,,,,cottage,115,59,aloud,red,2422.195198399946,None,None,2422.195198399946,None,,,,,,,,,,,,,,,,,,,,,,,,,,,,,,68,001,2023_May_03_1023,ExactRep-v3-final,2021.2.3,59.93885057493337,
,,,,,,,,59,0,59,0,,,,,,,,,,,,,,,,,,,,,,,,,,,,,,,,,,,,,,,,,,,,,,,,,,,,,2426.72687140014,None,,,,,,,,,,,,,,,,,,,,,,,,,,,,,,,,,,,trouble,52,60,silent,white,2424.7191129000857,None,None,2424.7191129000857,None,,,,,,,,,,,,,,,,,,,,,,,,,,,,,,68,001,2023_May_03_1023,ExactRep-v3-final,2021.2.3,59.93885057493337,
,,,,,,,,60,0,60,0,,,,,,,,,,,,,,,,,,,,,,,,,,,,,,,,,,,,,,,,,,,,,,,,,,,,,2429.2294517997652,None,,,,,,,,,,,,,,,,,,,,,,,,,,,,,,,,,,,devil,23,61,sing,blue,2427.2272387994453,None,None,2427.2272387994453,None,,,,,,,,,,,,,,,,,,,,,,,,,,,,,,68,001,2023_May_03_1023,ExactRep-v3-final,2021.2.3,59.93885057493337,
,,,,,,,,61,0,61,0,,,,,,,,,,,,,,,,,,,,,,,,,,,,,,,,,,,,,,,,,,,,,,,,,,,,,2431.748599600047,None,,,,,,,,,,,,,,,,,,,,,,,,,,,,,,,,,,,breast,11,62,sing,blue,2429.734036900103,None,None,2429.734036900103,None,,,,,,,,,,,,,,,,,,,,,,,,,,,,,,68,001,2023_May_03_1023,ExactRep-v3-final,2021.2.3,59.93885057493337,
,,,,,,,,62,0,62,0,,,,,,,,,,,,,,,,,,,,,,,,,,,,,,,,,,,,,,,,,,,,,,,,,,,,,2434.251016399823,None,,,,,,,,,,,,,,,,,,,,,,,,,,,,,,,,,,,shoes,118,63,aloud,red,2432.249329799786,None,None,2432.249329799786,None,,,,,,,,,,,,,,,,,,,,,,,,,,,,,,68,001,2023_May_03_1023,ExactRep-v3-final,2021.2.3,59.93885057493337,
,,,,,,,,63,0,63,0,,,,,,,,,,,,,,,,,,,,,,,,,,,,,,,,,,,,,,,,,,,,,,,,,,,,,2436.7702842997387,None,,,,,,,,,,,,,,,,,,,,,,,,,,,,,,,,,,,church,2,64,sing,blue,2434.7623186996207,None,None,2434.7623186996207,None,,,,,,,,,,,,,,,,,,,,,,,,,,,,,,68,001,2023_May_03_1023,ExactRep-v3-final,2021.2.3,59.93885057493337,
,,,,,,,,64,0,64,0,,,,,,,,,,,,,,,,,,,,,,,,,,,,,,,,,,,,,,,,,,,,,,,,,,,,,2439.2726576002315,None,,,,,,,,,,,,,,,,,,,,,,,,,,,,,,,,,,,plant,61,65,silent,white,2437.2706615002826,None,None,2437.2706615002826,None,,,,,,,,,,,,,,,,,,,,,,,,,,,,,,68,001,2023_May_03_1023,ExactRep-v3-final,2021.2.3,59.93885057493337,
,,,,,,,,65,0,65,0,,,,,,,,,,,,,,,,,,,,,,,,,,,,,,,,,,,,,,,,,,,,,,,,,,,,,2441.775152700022,None,,,,,,,,,,,,,,,,,,,,,,,,,,,,,,,,,,,charm,16,66,sing,blue,2439.773165599443,None,None,2439.773165599443,None,,,,,,,,,,,,,,,,,,,,,,,,,,,,,,68,001,2023_May_03_1023,ExactRep-v3-final,2021.2.3,59.93885057493337,
,,,,,,,,66,0,66,0,,,,,,,,,,,,,,,,,,,,,,,,,,,,,,,,,,,,,,,,,,,,,,,,,,,,,2444.29450729955,None,,,,,,,,,,,,,,,,,,,,,,,,,,,,,,,,,,,anger,7,67,sing,blue,2442.2846339996904,None,None,2442.2846339996904,None,,,,,,,,,,,,,,,,,,,,,,,,,,,,,,68,001,2023_May_03_1023,ExactRep-v3-final,2021.2.3,59.93885057493337,
,,,,,,,,67,0,67,0,,,,,,,,,,,,,,,,,,,,,,,,,,,,,,,,,,,,,,,,,,,,,,,,,,,,,2446.8138635000214,None,,,,,,,,,,,,,,,,,,,,,,,,,,,,,,,,,,,skin,83,68,aloud,red,2444.798667599447,None,None,2444.798667599447,None,,,,,,,,,,,,,,,,,,,,,,,,,,,,,,68,001,2023_May_03_1023,ExactRep-v3-final,2021.2.3,59.93885057493337,
,,,,,,,,68,0,68,0,,,,,,,,,,,,,,,,,,,,,,,,,,,,,,,,,,,,,,,,,,,,,,,,,,,,,2449.316155400127,None,,,,,,,,,,,,,,,,,,,,,,,,,,,,,,,,,,,artist,79,69,sing,blue,2447.315389099531,None,None,2447.315389099531,None,,,,,,,,,,,,,,,,,,,,,,,,,,,,,,68,001,2023_May_03_1023,ExactRep-v3-final,2021.2.3,59.93885057493337,
,,,,,,,,69,0,69,0,,,,,,,,,,,,,,,,,,,,,,,,,,,,,,,,,,,,,,,,,,,,,,,,,,,,,2451.8351558996364,None,,,,,,,,,,,,,,,,,,,,,,,,,,,,,,,,,,,bottle,114,70,aloud,red,2449.820871300064,None,None,2449.820871300064,None,,,,,,,,,,,,,,,,,,,,,,,,,,,,,,68,001,2023_May_03_1023,ExactRep-v3-final,2021.2.3,59.93885057493337,
,,,,,,,,70,0,70,0,,,,,,,,,,,,,,,,,,,,,,,,,,,,,,,,,,,,,,,,,,,,,,,,,,,,,2454.337860999629,None,,,,,,,,,,,,,,,,,,,,,,,,,,,,,,,,,,,cat,116,71,aloud,red,2452.3358704997227,None,None,2452.3358704997227,None,,,,,,,,,,,,,,,,,,,,,,,,,,,,,,68,001,2023_May_03_1023,ExactRep-v3-final,2021.2.3,59.93885057493337,
,,,,,,,,71,0,71,0,,,,,,,,,,,,,,,,,,,,,,,,,,,,,,,,,,,,,,,,,,,,,,,,,,,,,2456.8405304001644,None,,,,,,,,,,,,,,,,,,,,,,,,,,,,,,,,,,,air,49,72,silent,white,2454.839191099629,None,None,2454.839191099629,None,,,,,,,,,,,,,,,,,,,,,,,,,,,,,,68,001,2023_May_03_1023,ExactRep-v3-final,2021.2.3,59.93885057493337,
,,,,,,,,72,0,72,0,,,,,,,,,,,,,,,,,,,,,,,,,,,,,,,,,,,,,,,,,,,,,,,,,,,,,2459.359593800269,None,,,,,,,,,,,,,,,,,,,,,,,,,,,,,,,,,,,weapon,1,73,sing,blue,2457.351006999612,None,None,2457.351006999612,None,,,,,,,,,,,,,,,,,,,,,,,,,,,,,,68,001,2023_May_03_1023,ExactRep-v3-final,2021.2.3,59.93885057493337,
,,,,,,,,73,0,73,0,,,,,,,,,,,,,,,,,,,,,,,,,,,,,,,,,,,,,,,,,,,,,,,,,,,,,2461.8621602999046,None,,,,,,,,,,,,,,,,,,,,,,,,,,,,,,,,,,,child,13,74,sing,blue,2459.8598664002493,None,None,2459.8598664002493,None,,,,,,,,,,,,,,,,,,,,,,,,,,,,,,68,001,2023_May_03_1023,ExactRep-v3-final,2021.2.3,59.93885057493337,
,,,,,,,,74,0,74,0,,,,,,,,,,,,,,,,,,,,,,,,,,,,,,,,,,,,,,,,,,,,,,,,,,,,,2464.3645772002637,None,,,,,,,,,,,,,,,,,,,,,,,,,,,,,,,,,,,cost,59,75,silent,white,2462.3623741995543,None,None,2462.3623741995543,None,,,,,,,,,,,,,,,,,,,,,,,,,,,,,,68,001,2023_May_03_1023,ExactRep-v3-final,2021.2.3,59.93885057493337,
,,,,,,,,75,0,75,0,,,,,,,,,,,,,,,,,,,,,,,,,,,,,,,,,,,,,,,,,,,,,,,,,,,,,2466.8837239993736,None,,,,,,,,,,,,,,,,,,,,,,,,,,,,,,,,,,,poet,72,76,silent,white,2464.8725389996544,None,None,2464.8725389996544,None,,,,,,,,,,,,,,,,,,,,,,,,,,,,,,68,001,2023_May_03_1023,ExactRep-v3-final,2021.2.3,59.93885057493337,
,,,,,,,,76,0,76,0,,,,,,,,,,,,,,,,,,,,,,,,,,,,,,,,,,,,,,,,,,,,,,,,,,,,,2469.386257099919,None,,,,,,,,,,,,,,,,,,,,,,,,,,,,,,,,,,,series,66,77,silent,white,2467.384241799824,None,None,2467.384241799824,None,,,,,,,,,,,,,,,,,,,,,,,,,,,,,,68,001,2023_May_03_1023,ExactRep-v3-final,2021.2.3,59.93885057493337,
,,,,,,,,77,0,77,0,,,,,,,,,,,,,,,,,,,,,,,,,,,,,,,,,,,,,,,,,,,,,,,,,,,,,2471.8886310001835,None,,,,,,,,,,,,,,,,,,,,,,,,,,,,,,,,,,,amount,32,78,sing,blue,2469.8880048999563,None,None,2469.8880048999563,None,,,,,,,,,,,,,,,,,,,,,,,,,,,,,,68,001,2023_May_03_1023,ExactRep-v3-final,2021.2.3,59.93885057493337,
,,,,,,,,78,0,78,0,,,,,,,,,,,,,,,,,,,,,,,,,,,,,,,,,,,,,,,,,,,,,,,,,,,,,2474.4079473996535,None,,,,,,,,,,,,,,,,,,,,,,,,,,,,,,,,,,,answer,105,79,aloud,red,2472.4009759994224,None,None,2472.4009759994224,None,,,,,,,,,,,,,,,,,,,,,,,,,,,,,,68,001,2023_May_03_1023,ExactRep-v3-final,2021.2.3,59.93885057493337,
,,,,,,,,79,0,79,0,,,,,,,,,,,,,,,,,,,,,,,,,,,,,,,,,,,,,,,,,,,,,,,,,,,,,2476.9270973000675,None,,,,,,,,,,,,,,,,,,,,,,,,,,,,,,,,,,,author,48,80,silent,white,2474.9148987997323,None,None,2474.9148987997323,None,,,,,,,,,,,,,,,,,,,,,,,,,,,,,,68,001,2023_May_03_1023,ExactRep-v3-final,2021.2.3,59.93885057493337,
,,,,,,,,80,0,80,0,,,,,,,,,,,,,,,,,,,,,,,,,,,,,,,,,,,,,,,,,,,,,,,,,,,,,2479.4463149998337,None,,,,,,,,,,,,,,,,,,,,,,,,,,,,,,,,,,,wine,77,81,silent,white,2477.432687900029,None,None,2477.432687900029,None,,,,,,,,,,,,,,,,,,,,,,,,,,,,,,68,001,2023_May_03_1023,ExactRep-v3-final,2021.2.3,59.93885057493337,
,,,,,,,,81,0,81,0,,,,,,,,,,,,,,,,,,,,,,,,,,,,,,,,,,,,,,,,,,,,,,,,,,,,,2481.948841799982,None,,,,,,,,,,,,,,,,,,,,,,,,,,,,,,,,,,,stone,76,82,silent,white,2479.9468296002597,None,None,2479.9468296002597,None,,,,,,,,,,,,,,,,,,,,,,,,,,,,,,68,001,2023_May_03_1023,ExactRep-v3-final,2021.2.3,59.93885057493337,
,,,,,,,,82,0,82,0,,,,,,,,,,,,,,,,,,,,,,,,,,,,,,,,,,,,,,,,,,,,,,,,,,,,,2484.468004199676,None,,,,,,,,,,,,,,,,,,,,,,,,,,,,,,,,,,,world,53,83,silent,white,2482.4541219994426,None,None,2482.4541219994426,None,,,,,,,,,,,,,,,,,,,,,,,,,,,,,,68,001,2023_May_03_1023,ExactRep-v3-final,2021.2.3,59.93885057493337,
,,,,,,,,83,0,83,0,,,,,,,,,,,,,,,,,,,,,,,,,,,,,,,,,,,,,,,,,,,,,,,,,,,,,2486.970560199581,None,,,,,,,,,,,,,,,,,,,,,,,,,,,,,,,,,,,bar,111,84,aloud,red,2484.9697958994657,None,None,2484.9697958994657,None,,,,,,,,,,,,,,,,,,,,,,,,,,,,,,68,001,2023_May_03_1023,ExactRep-v3-final,2021.2.3,59.93885057493337,
,,,,,,,,84,0,84,0,,,,,,,,,,,,,,,,,,,,,,,,,,,,,,,,,,,,,,,,,,,,,,,,,,,,,2489.489732099697,None,,,,,,,,,,,,,,,,,,,,,,,,,,,,,,,,,,,fur,35,85,sing,blue,2487.475616599433,None,None,2487.475616599433,None,,,,,,,,,,,,,,,,,,,,,,,,,,,,,,68,001,2023_May_03_1023,ExactRep-v3-final,2021.2.3,59.93885057493337,
,,,,,,,,85,0,85,0,,,,,,,,,,,,,,,,,,,,,,,,,,,,,,,,,,,,,,,,,,,,,,,,,,,,,2491.992194299586,None,,,,,,,,,,,,,,,,,,,,,,,,,,,,,,,,,,,humour,73,86,silent,white,2489.9901495995,None,None,2489.9901495995,None,,,,,,,,,,,,,,,,,,,,,,,,,,,,,,68,001,2023_May_03_1023,ExactRep-v3-final,2021.2.3,59.93885057493337,
,,,,,,,,86,0,86,0,,,,,,,,,,,,,,,,,,,,,,,,,,,,,,,,,,,,,,,,,,,,,,,,,,,,,2494.4947421997786,None,,,,,,,,,,,,,,,,,,,,,,,,,,,,,,,,,,,body,33,87,sing,blue,2492.492410100065,None,None,2492.492410100065,None,,,,,,,,,,,,,,,,,,,,,,,,,,,,,,68,001,2023_May_03_1023,ExactRep-v3-final,2021.2.3,59.93885057493337,
,,,,,,,,87,0,87,0,,,,,,,,,,,,,,,,,,,,,,,,,,,,,,,,,,,,,,,,,,,,,,,,,,,,,2496.997236999683,None,,,,,,,,,,,,,,,,,,,,,,,,,,,,,,,,,,,disease,106,88,aloud,red,2494.9949883995578,None,None,2494.9949883995578,None,,,,,,,,,,,,,,,,,,,,,,,,,,,,,,68,001,2023_May_03_1023,ExactRep-v3-final,2021.2.3,59.93885057493337,
,,,,,,,,88,0,88,0,,,,,,,,,,,,,,,,,,,,,,,,,,,,,,,,,,,,,,,,,,,,,,,,,,,,,2499.4993675993755,None,,,,,,,,,,,,,,,,,,,,,,,,,,,,,,,,,,,priest,3,89,sing,blue,2497.499063999392,None,None,2497.499063999392,None,,,,,,,,,,,,,,,,,,,,,,,,,,,,,,68,001,2023_May_03_1023,ExactRep-v3-final,2021.2.3,59.93885057493337,
,,,,,,,,89,0,89,0,,,,,,,,,,,,,,,,,,,,,,,,,,,,,,,,,,,,,,,,,,,,,,,,,,,,,2502.0022708000615,None,,,,,,,,,,,,,,,,,,,,,,,,,,,,,,,,,,,wheat,89,90,aloud,red,2500.0001087002456,None,None,2500.0001087002456,None,,,,,,,,,,,,,,,,,,,,,,,,,,,,,,68,001,2023_May_03_1023,ExactRep-v3-final,2021.2.3,59.93885057493337,
,,,,,,,,90,0,90,0,,,,,,,,,,,,,,,,,,,,,,,,,,,,,,,,,,,,,,,,,,,,,,,,,,,,,2504.504520399496,None,,,,,,,,,,,,,,,,,,,,,,,,,,,,,,,,,,,butter,27,91,sing,blue,2502.505530299619,None,None,2502.505530299619,None,,,,,,,,,,,,,,,,,,,,,,,,,,,,,,68,001,2023_May_03_1023,ExactRep-v3-final,2021.2.3,59.93885057493337,
,,,,,,,,91,0,91,0,,,,,,,,,,,,,,,,,,,,,,,,,,,,,,,,,,,,,,,,,,,,,,,,,,,,,2507.0071877995506,None,,,,,,,,,,,,,,,,,,,,,,,,,,,,,,,,,,,colony,58,92,silent,white,2505.0081719001755,None,None,2505.0081719001755,None,,,,,,,,,,,,,,,,,,,,,,,,,,,,,,68,001,2023_May_03_1023,ExactRep-v3-final,2021.2.3,59.93885057493337,
,,,,,,,,92,0,92,0,,,,,,,,,,,,,,,,,,,,,,,,,,,,,,,,,,,,,,,,,,,,,,,,,,,,,2509.5097049996257,None,,,,,,,,,,,,,,,,,,,,,,,,,,,,,,,,,,,boy,12,93,sing,blue,2507.5083002001047,None,None,2507.5083002001047,None,,,,,,,,,,,,,,,,,,,,,,,,,,,,,,68,001,2023_May_03_1023,ExactRep-v3-final,2021.2.3,59.93885057493337,
,,,,,,,,93,0,93,0,,,,,,,,,,,,,,,,,,,,,,,,,,,,,,,,,,,,,,,,,,,,,,,,,,,,,2512.028792399913,None,,,,,,,,,,,,,,,,,,,,,,,,,,,,,,,,,,,queen,109,94,aloud,red,2510.0140226995572,None,None,2510.0140226995572,None,,,,,,,,,,,,,,,,,,,,,,,,,,,,,,68,001,2023_May_03_1023,ExactRep-v3-final,2021.2.3,59.93885057493337,
,,,,,,,,94,0,94,0,,,,,,,,,,,,,,,,,,,,,,,,,,,,,,,,,,,,,,,,,,,,,,,,,,,,,2514.5479303998873,None,,,,,,,,,,,,,,,,,,,,,,,,,,,,,,,,,,,coast,54,95,silent,white,2512.5335162002593,None,None,2512.5335162002593,None,,,,,,,,,,,,,,,,,,,,,,,,,,,,,,68,001,2023_May_03_1023,ExactRep-v3-final,2021.2.3,59.93885057493337,
,,,,,,,,95,0,95,0,,,,,,,,,,,,,,,,,,,,,,,,,,,,,,,,,,,,,,,,,,,,,,,,,,,,,2517.0671020001173,None,,,,,,,,,,,,,,,,,,,,,,,,,,,,,,,,,,,present,71,96,silent,white,2515.058489399962,None,None,2515.058489399962,None,,,,,,,,,,,,,,,,,,,,,,,,,,,,,,68,001,2023_May_03_1023,ExactRep-v3-final,2021.2.3,59.93885057493337,
,,,,,,,,96,0,96,0,,,,,,,,,,,,,,,,,,,,,,,,,,,,,,,,,,,,,,,,,,,,,,,,,,,,,2519.5697820996866,None,,,,,,,,,,,,,,,,,,,,,,,,,,,,,,,,,,,blood,0,97,sing,blue,2517.568622600287,None,None,2517.568622600287,None,,,,,,,,,,,,,,,,,,,,,,,,,,,,,,68,001,2023_May_03_1023,ExactRep-v3-final,2021.2.3,59.93885057493337,
,,,,,,,,97,0,97,0,,,,,,,,,,,,,,,,,,,,,,,,,,,,,,,,,,,,,,,,,,,,,,,,,,,,,2522.072335300036,None,,,,,,,,,,,,,,,,,,,,,,,,,,,,,,,,,,,dream,55,98,silent,white,2520.071299499832,None,None,2520.071299499832,None,,,,,,,,,,,,,,,,,,,,,,,,,,,,,,68,001,2023_May_03_1023,ExactRep-v3-final,2021.2.3,59.93885057493337,
,,,,,,,,98,0,98,0,,,,,,,,,,,,,,,,,,,,,,,,,,,,,,,,,,,,,,,,,,,,,,,,,,,,,2524.591664100066,None,,,,,,,,,,,,,,,,,,,,,,,,,,,,,,,,,,,origin,60,99,silent,white,2522.5852940995246,None,None,2522.5852940995246,None,,,,,,,,,,,,,,,,,,,,,,,,,,,,,,68,001,2023_May_03_1023,ExactRep-v3-final,2021.2.3,59.93885057493337,
,,,,,,,,99,0,99,0,,,,,,,,,,,,,,,,,,,,,,,,,,,,,,,,,,,,,,,,,,,,,,,,,,,,,2527.111657999456,None,,,,,,,,,,,,,,,,,,,,,,,,,,,,,,,,,,,friend,44,100,silent,white,2525.09999960009,None,None,2525.09999960009,None,,,,,,,,,,,,,,,,,,,,,,,,,,,,,,68,001,2023_May_03_1023,ExactRep-v3-final,2021.2.3,59.93885057493337,
,,,,,,,,100,0,100,0,,,,,,,,,,,,,,,,,,,,,,,,,,,,,,,,,,,,,,,,,,,,,,,,,,,,,2529.6131015000865,None,,,,,,,,,,,,,,,,,,,,,,,,,,,,,,,,,,,virtue,108,101,aloud,red,2527.6111324001104,None,None,2527.6111324001104,None,,,,,,,,,,,,,,,,,,,,,,,,,,,,,,68,001,2023_May_03_1023,ExactRep-v3-final,2021.2.3,59.93885057493337,
,,,,,,,,101,0,101,0,,,,,,,,,,,,,,,,,,,,,,,,,,,,,,,,,,,,,,,,,,,,,,,,,,,,,2532.1156436996534,None,,,,,,,,,,,,,,,,,,,,,,,,,,,,,,,,,,,slave,37,102,sing,blue,2530.1163409994915,None,None,2530.1163409994915,None,,,,,,,,,,,,,,,,,,,,,,,,,,,,,,68,001,2023_May_03_1023,ExactRep-v3-final,2021.2.3,59.93885057493337,
,,,,,,,,102,0,102,0,,,,,,,,,,,,,,,,,,,,,,,,,,,,,,,,,,,,,,,,,,,,,,,,,,,,,2534.6181752001867,None,,,,,,,,,,,,,,,,,,,,,,,,,,,,,,,,,,,freedom,5,103,sing,blue,2532.617681100033,None,None,2532.617681100033,None,,,,,,,,,,,,,,,,,,,,,,,,,,,,,,68,001,2023_May_03_1023,ExactRep-v3-final,2021.2.3,59.93885057493337,
,,,,,,,,103,0,103,0,,,,,,,,,,,,,,,,,,,,,,,,,,,,,,,,,,,,,,,,,,,,,,,,,,,,,2537.120805799961,None,,,,,,,,,,,,,,,,,,,,,,,,,,,,,,,,,,,power,24,104,sing,blue,2535.118565100245,None,None,2535.118565100245,None,,,,,,,,,,,,,,,,,,,,,,,,,,,,,,68,001,2023_May_03_1023,ExactRep-v3-final,2021.2.3,59.93885057493337,
,,,,,,,,104,0,104,0,,,,,,,,,,,,,,,,,,,,,,,,,,,,,,,,,,,,,,,,,,,,,,,,,,,,,2539.623115999624,None,,,,,,,,,,,,,,,,,,,,,,,,,,,,,,,,,,,moment,90,105,aloud,red,2537.62266310025,None,None,2537.62266310025,None,,,,,,,,,,,,,,,,,,,,,,,,,,,,,,68,001,2023_May_03_1023,ExactRep-v3-final,2021.2.3,59.93885057493337,
,,,,,,,,105,0,105,0,,,,,,,,,,,,,,,,,,,,,,,,,,,,,,,,,,,,,,,,,,,,,,,,,,,,,2542.1254340996966,None,,,,,,,,,,,,,,,,,,,,,,,,,,,,,,,,,,,blossom,67,106,silent,white,2540.1254048002884,None,None,2540.1254048002884,None,,,,,,,,,,,,,,,,,,,,,,,,,,,,,,68,001,2023_May_03_1023,ExactRep-v3-final,2021.2.3,59.93885057493337,
,,,,,,,,106,0,106,0,,,,,,,,,,,,,,,,,,,,,,,,,,,,,,,,,,,,,,,,,,,,,,,,,,,,,2544.628186600283,None,,,,,,,,,,,,,,,,,,,,,,,,,,,,,,,,,,,science,88,107,aloud,red,2542.6276244996116,None,None,2542.6276244996116,None,,,,,,,,,,,,,,,,,,,,,,,,,,,,,,68,001,2023_May_03_1023,ExactRep-v3-final,2021.2.3,59.93885057493337,
,,,,,,,,107,0,107,0,,,,,,,,,,,,,,,,,,,,,,,,,,,,,,,,,,,,,,,,,,,,,,,,,,,,,2547.1307549998164,None,,,,,,,,,,,,,,,,,,,,,,,,,,,,,,,,,,,wife,80,108,aloud,red,2545.1284873997793,None,None,2545.1284873997793,None,,,,,,,,,,,,,,,,,,,,,,,,,,,,,,68,001,2023_May_03_1023,ExactRep-v3-final,2021.2.3,59.93885057493337,
,,,,,,,,108,0,108,0,,,,,,,,,,,,,,,,,,,,,,,,,,,,,,,,,,,,,,,,,,,,,,,,,,,,,2549.6498312000185,None,,,,,,,,,,,,,,,,,,,,,,,,,,,,,,,,,,,history,103,109,aloud,red,2547.64208490029,None,None,2547.64208490029,None,,,,,,,,,,,,,,,,,,,,,,,,,,,,,,68,001,2023_May_03_1023,ExactRep-v3-final,2021.2.3,59.93885057493337,
,,,,,,,,109,0,109,0,,,,,,,,,,,,,,,,,,,,,,,,,,,,,,,,,,,,,,,,,,,,,,,,,,,,,2552.1523912996054,None,,,,,,,,,,,,,,,,,,,,,,,,,,,,,,,,,,,metal,9,110,sing,blue,2550.1513938000426,None,None,2550.1513938000426,None,,,,,,,,,,,,,,,,,,,,,,,,,,,,,,68,001,2023_May_03_1023,ExactRep-v3-final,2021.2.3,59.93885057493337,
,,,,,,,,110,0,110,0,,,,,,,,,,,,,,,,,,,,,,,,,,,,,,,,,,,,,,,,,,,,,,,,,,,,,2554.6715513998643,None,,,,,,,,,,,,,,,,,,,,,,,,,,,,,,,,,,,teacher,110,111,aloud,red,2552.658101200126,None,None,2552.658101200126,None,,,,,,,,,,,,,,,,,,,,,,,,,,,,,,68,001,2023_May_03_1023,ExactRep-v3-final,2021.2.3,59.93885057493337,
,,,,,,,,111,0,111,0,,,,,,,,,,,,,,,,,,,,,,,,,,,,,,,,,,,,,,,,,,,,,,,,,,,,,2557.1912454999983,None,,,,,,,,,,,,,,,,,,,,,,,,,,,,,,,,,,,life,4,112,sing,blue,2555.1763341994956,None,None,2555.1763341994956,None,,,,,,,,,,,,,,,,,,,,,,,,,,,,,,68,001,2023_May_03_1023,ExactRep-v3-final,2021.2.3,59.93885057493337,
,,,,,,,,112,0,112,0,,,,,,,,,,,,,,,,,,,,,,,,,,,,,,,,,,,,,,,,,,,,,,,,,,,,,2559.693189200014,None,,,,,,,,,,,,,,,,,,,,,,,,,,,,,,,,,,,idea,47,113,silent,white,2557.690951699391,None,None,2557.690951699391,None,,,,,,,,,,,,,,,,,,,,,,,,,,,,,,68,001,2023_May_03_1023,ExactRep-v3-final,2021.2.3,59.93885057493337,
,,,,,,,,113,0,113,0,,,,,,,,,,,,,,,,,,,,,,,,,,,,,,,,,,,,,,,,,,,,,,,,,,,,,2562.2122962996364,None,,,,,,,,,,,,,,,,,,,,,,,,,,,,,,,,,,,justice,119,114,aloud,red,2560.2008290998638,None,None,2560.2008290998638,None,,,,,,,,,,,,,,,,,,,,,,,,,,,,,,68,001,2023_May_03_1023,ExactRep-v3-final,2021.2.3,59.93885057493337,
,,,,,,,,114,0,114,0,,,,,,,,,,,,,,,,,,,,,,,,,,,,,,,,,,,,,,,,,,,,,,,,,,,,,2564.7315005995333,None,,,,,,,,,,,,,,,,,,,,,,,,,,,,,,,,,,,toy,20,115,sing,blue,2562.719232900068,None,None,2562.719232900068,None,,,,,,,,,,,,,,,,,,,,,,,,,,,,,,68,001,2023_May_03_1023,ExactRep-v3-final,2021.2.3,59.93885057493337,
,,,,,,,,115,0,115,0,,,,,,,,,,,,,,,,,,,,,,,,,,,,,,,,,,,,,,,,,,,,,,,,,,,,,2567.2341922996566,None,,,,,,,,,,,,,,,,,,,,,,,,,,,,,,,,,,,dust,57,116,silent,white,2565.2351460997015,None,None,2565.2351460997015,None,,,,,,,,,,,,,,,,,,,,,,,,,,,,,,68,001,2023_May_03_1023,ExactRep-v3-final,2021.2.3,59.93885057493337,
,,,,,,,,116,0,116,0,,,,,,,,,,,,,,,,,,,,,,,,,,,,,,,,,,,,,,,,,,,,,,,,,,,,,2569.7365929996595,None,,,,,,,,,,,,,,,,,,,,,,,,,,,,,,,,,,,arm,25,117,sing,blue,2567.7373053999618,None,None,2567.7373053999618,None,,,,,,,,,,,,,,,,,,,,,,,,,,,,,,68,001,2023_May_03_1023,ExactRep-v3-final,2021.2.3,59.93885057493337,
,,,,,,,,117,0,117,0,,,,,,,,,,,,,,,,,,,,,,,,,,,,,,,,,,,,,,,,,,,,,,,,,,,,,2572.2558623999357,None,,,,,,,,,,,,,,,,,,,,,,,,,,,,,,,,,,,hotel,43,118,silent,white,2570.2433903999627,None,None,2570.2433903999627,None,,,,,,,,,,,,,,,,,,,,,,,,,,,,,,68,001,2023_May_03_1023,ExactRep-v3-final,2021.2.3,59.93885057493337,
,,,,,,,,118,0,118,0,,,,,,,,,,,,,,,,,,,,,,,,,,,,,,,,,,,,,,,,,,,,,,,,,,,,,2574.7749688997865,None,,,,,,,,,,,,,,,,,,,,,,,,,,,,,,,,,,,style,62,119,silent,white,2572.7626710999757,None,None,2572.7626710999757,None,,,,,,,,,,,,,,,,,,,,,,,,,,,,,,68,001,2023_May_03_1023,ExactRep-v3-final,2021.2.3,59.93885057493337,
,,,,,,,,119,0,119,0,,,,,,,,,,,,,,,,,,,,,,,,,,,,,,,,,,,,,,,,,,,,,,,,,,,,,2577.2774622002617,None,,,,,,,,,,,,,,,,,,,,,,,,,,,,,,,,,,,dress,46,120,silent,white,2575.2771656000987,None,None,2575.2771656000987,None,,,,,,,,,,,,,,,,,,,,,,,,,,,,,,68,001,2023_May_03_1023,ExactRep-v3-final,2021.2.3,59.93885057493337,
,,,,,,,,,,,,,,,,,,,,,,,,,,,,,,,,,,,,,,,,,,,,,,,,,,,,,,,,,,,,,,,,,,,,,,,,,,,,,,,,,,,,,,,,,,,,,,,,,,,,,,,,,,,,,,2577.7794645996764,None,space,1.5230958992615342,2587.7559418994933,None,,,,,,,,,,,,,,,,,,,,,,,,68,001,2023_May_03_1023,ExactRep-v3-final,2021.2.3,59.93885057493337,
,,,,,,,,,,,,,,,,,,,,,,,,,,,,,,,,,,,,,,,,,,,,,,,,,,,,,,,,,,,,,,,,,,,,,,,,,,,,,,,,,,,,,,,,,,,,,,,,,,,,,,,,,,,,,,,,,,,,2589.3082574997097,None,space,41.44312610011548,2599.2840104000643,None,,,,,,,,,,,,,,,,,,68,001,2023_May_03_1023,ExactRep-v3-final,2021.2.3,59.93885057493337,
,,,,,,,,,,,,0,0,0,0,,,,,,,,,,,,,,,,,,,,,,,,,,,,,,,,,,,,,,,,,,,,,,,,,2648.1709198998287,None,,,,,,,,,,,,,,,,,,,,,,,,,,,,,,,,,,,,,,,,,,,,,,,,,,,,,,,,,home,104,1,aloud,old,yellow,2641.2590407002717,None,y,2641.2590407002717,None,"['y', 'return']","[4.9879032000899315, 6.859687499701977]",2641.2590407002717,None,,,68,001,2023_May_03_1023,ExactRep-v3-final,2021.2.3,59.93885057493337,
,,,,,,,,,,,,1,0,1,0,,,,,,,,,,,,,,,,,,,,,,,,,,,,,,,,,,,,,,,,,,,,,,,,,2651.4013951998204,None,,,,,,,,,,,,,,,,,,,,,,,,,,,,,,,,,,,,,,,,,,,,,,,,,,,,,,,,,bar,111,2,aloud,old,yellow,2648.682094499469,None,y,2648.682094499469,None,"['y', 'return']","[1.7568514999002218, 2.6766668995842338]",2648.682094499469,None,,,68,001,2023_May_03_1023,ExactRep-v3-final,2021.2.3,59.93885057493337,
,,,,,,,,,,,,2,0,2,0,,,,,,,,,,,,,,,,,,,,,,,,,,,,,,,,,,,,,,,,,,,,,,,,,2655.221905199811,None,,,,,,,,,,,,,,,,,,,,,,,,,,,,,,,,,,,,,,,,,,,,,,,,,,,,,,,,,engine,93,3,aloud,old,yellow,2651.901873299852,None,n,2651.901873299852,None,"['n', 'return']","[2.5131390001624823, 3.280851900577545]",2651.901873299852,None,,,68,001,2023_May_03_1023,ExactRep-v3-final,2021.2.3,59.93885057493337,
,,,,,,,,,,,,3,0,3,0,,,,,,,,,,,,,,,,,,,,,,,,,,,,,,,,,,,,,,,,,,,,,,,,,2659.042839099653,None,,,,,,,,,,,,,,,,,,,,,,,,,,,,,,,,,,,,,,,,,,,,,,,,,,,,,,,,,fault,69,4,silent,old,yellow,2655.7236823001876,None,n,2655.7236823001876,None,"['n', 'return']","[2.3232012996450067, 3.274954999797046]",2655.7236823001876,None,,,68,001,2023_May_03_1023,ExactRep-v3-final,2021.2.3,59.93885057493337,
,,,,,,,,,,,,4,0,4,0,,,,,,,,,,,,,,,,,,,,,,,,,,,,,,,,,,,,,,,,,,,,,,,,,2661.4447804996744,None,,,,,,,,,,,,,,,,,,,,,,,,,,,,,,,,,,,,,,,,,,,,,,,,,,,,,,,,,deed,161,5,sing,new,yellow,2659.542813499458,None,n,2659.542813499458,None,"['n', 'return']","[1.2562838001176715, 1.8638521004468203]",2659.542813499458,None,,,68,001,2023_May_03_1023,ExactRep-v3-final,2021.2.3,59.93885057493337,
,,,,,,,,,,,,5,0,5,0,,,,,,,,,,,,,,,,,,,,,,,,,,,,,,,,,,,,,,,,,,,,,,,,,2664.414415399544,None,,,,,,,,,,,,,,,,,,,,,,,,,,,,,,,,,,,,,,,,,,,,,,,,,,,,,,,,,potato,234,6,aloud,new,yellow,2661.9454808998853,None,n,2661.9454808998853,None,"['n', 'return']","[1.5092553002759814, 2.437255000695586]",2661.9454808998853,None,,,68,001,2023_May_03_1023,ExactRep-v3-final,2021.2.3,59.93885057493337,
,,,,,,,,,,,,6,0,6,0,,,,,,,,,,,,,,,,,,,,,,,,,,,,,,,,,,,,,,,,,,,,,,,,,2666.7834732998163,None,,,,,,,,,,,,,,,,,,,,,,,,,,,,,,,,,,,,,,,,,,,,,,,,,,,,,,,,,virtue,108,7,aloud,old,yellow,2664.9150232998654,None,y,2664.9150232998654,None,"['y', 'return']","[1.0839992007240653, 1.8355617001652718]",2664.9150232998654,None,,,68,001,2023_May_03_1023,ExactRep-v3-final,2021.2.3,59.93885057493337,
,,,,,,,,,,,,7,0,7,0,,,,,,,,,,,,,,,,,,,,,,,,,,,,,,,,,,,,,,,,,,,,,,,,,2669.3026719996706,None,,,,,,,,,,,,,,,,,,,,,,,,,,,,,,,,,,,,,,,,,,,,,,,,,,,,,,,,,dollar,122,8,silent,new,yellow,2667.283993500285,None,n,2667.283993500285,None,"['n', 'return']","[1.130735999904573, 1.9868783997371793]",2667.283993500285,None,,,68,001,2023_May_03_1023,ExactRep-v3-final,2021.2.3,59.93885057493337,
,,,,,,,,,,,,8,0,8,0,,,,,,,,,,,,,,,,,,,,,,,,,,,,,,,,,,,,,,,,,,,,,,,,,2673.4734220001847,None,,,,,,,,,,,,,,,,,,,,,,,,,,,,,,,,,,,,,,,,,,,,,,,,,,,,,,,,,owner,227,9,sing,new,yellow,2669.811389800161,None,n,2669.811389800161,None,"['n', 'return']","[2.915699999779463, 3.619633799418807]",2669.811389800161,None,,,68,001,2023_May_03_1023,ExactRep-v3-final,2021.2.3,59.93885057493337,
,,,,,,,,,,,,9,0,9,0,,,,,,,,,,,,,,,,,,,,,,,,,,,,,,,,,,,,,,,,,,,,,,,,,2680.6140179000795,None,,,,,,,,,,,,,,,,,,,,,,,,,,,,,,,,,,,,,,,,,,,,,,,,,,,,,,,,,rod,8,10,sing,old,yellow,2673.974076299928,None,n,2673.974076299928,None,"['n', 'return']","[5.848870399408042, 6.600657199509442]",2673.974076299928,None,,,68,001,2023_May_03_1023,ExactRep-v3-final,2021.2.3,59.93885057493337,
,,,,,,,,,,,,10,0,10,0,,,,,,,,,,,,,,,,,,,,,,,,,,,,,,,,,,,,,,,,,,,,,,,,,2689.005698500201,None,,,,,,,,,,,,,,,,,,,,,,,,,,,,,,,,,,,,,,,,,,,,,,,,,,,,,,,,,pride,174,11,aloud,new,yellow,2681.1302730999887,None,n,2681.1302730999887,None,"['n', 'return']","[6.260647599585354, 7.828536699526012]",2681.1302730999887,None,,,68,001,2023_May_03_1023,ExactRep-v3-final,2021.2.3,59.93885057493337,
,,,,,,,,,,,,11,0,11,0,,,,,,,,,,,,,,,,,,,,,,,,,,,,,,,,,,,,,,,,,,,,,,,,,2691.5250581996515,None,,,,,,,,,,,,,,,,,,,,,,,,,,,,,,,,,,,,,,,,,,,,,,,,,,,,,,,,,devil,23,12,sing,old,yellow,2689.506289499812,None,y,2689.506289499812,None,"['y', 'return']","[1.1329156998544931, 1.9726115996018052]",2689.506289499812,None,,,68,001,2023_May_03_1023,ExactRep-v3-final,2021.2.3,59.93885057493337,
,,,,,,,,,,,,12,0,12,0,,,,,,,,,,,,,,,,,,,,,,,,,,,,,,,,,,,,,,,,,,,,,,,,,2694.578101400286,None,,,,,,,,,,,,,,,,,,,,,,,,,,,,,,,,,,,,,,,,,,,,,,,,,,,,,,,,,length,168,13,aloud,new,yellow,2692.025537800044,None,n,2692.025537800044,None,"['n', 'return']","[1.6455186000093818, 2.509199700318277]",2692.025537800044,None,,,68,001,2023_May_03_1023,ExactRep-v3-final,2021.2.3,59.93885057493337,
,,,,,,,,,,,,13,0,13,0,,,,,,,,,,,,,,,,,,,,,,,,,,,,,,,,,,,,,,,,,,,,,,,,,2701.0677477996796,None,,,,,,,,,,,,,,,,,,,,,,,,,,,,,,,,,,,,,,,,,,,,,,,,,,,,,,,,,moral,142,14,silent,new,yellow,2695.078604100272,None,n,2695.078604100272,None,"['n', 'return']","[5.1764094000682235, 5.952153100632131]",2695.078604100272,None,,,68,001,2023_May_03_1023,ExactRep-v3-final,2021.2.3,59.93885057493337,
,,,,,,,,,,,,14,0,14,0,,,,,,,,,,,,,,,,,,,,,,,,,,,,,,,,,,,,,,,,,,,,,,,,,2703.7372514000162,None,,,,,,,,,,,,,,,,,,,,,,,,,,,,,,,,,,,,,,,,,,,,,,,,,,,,,,,,,dream,55,15,silent,old,yellow,2701.5682705994695,None,y,2701.5682705994695,None,"['y', 'return']","[1.0144887994974852, 2.1264533000066876]",2701.5682705994695,None,,,68,001,2023_May_03_1023,ExactRep-v3-final,2021.2.3,59.93885057493337,
,,,,,,,,,,,,15,0,15,0,,,,,,,,,,,,,,,,,,,,,,,,,,,,,,,,,,,,,,,,,,,,,,,,,2706.4397888993844,None,,,,,,,,,,,,,,,,,,,,,,,,,,,,,,,,,,,,,,,,,,,,,,,,,,,,,,,,,coin,235,16,sing,new,yellow,2704.2378482995555,None,n,2704.2378482995555,None,"['n', 'return']","[1.4251767005771399, 2.1689093001186848]",2704.2378482995555,None,,,68,001,2023_May_03_1023,ExactRep-v3-final,2021.2.3,59.93885057493337,
,,,,,,,,,,,,16,0,16,0,,,,,,,,,,,,,,,,,,,,,,,,,,,,,,,,,,,,,,,,,,,,,,,,,2708.7420878997073,None,,,,,,,,,,,,,,,,,,,,,,,,,,,,,,,,,,,,,,,,,,,,,,,,,,,,,,,,,dress,46,17,silent,old,yellow,2706.9403472002596,None,y,2706.9403472002596,None,"['y', 'return']","[1.114452799782157, 1.7544342996552587]",2706.9403472002596,None,,,68,001,2023_May_03_1023,ExactRep-v3-final,2021.2.3,59.93885057493337,
,,,,,,,,,,,,17,0,17,0,,,,,,,,,,,,,,,,,,,,,,,,,,,,,,,,,,,,,,,,,,,,,,,,,2711.378274800256,None,,,,,,,,,,,,,,,,,,,,,,,,,,,,,,,,,,,,,,,,,,,,,,,,,,,,,,,,,mother,141,18,silent,new,yellow,2709.260463300161,None,n,2709.260463300161,None,"['n', 'return']","[1.4263059999793768, 2.0742396004498005]",2709.260463300161,None,,,68,001,2023_May_03_1023,ExactRep-v3-final,2021.2.3,59.93885057493337,
,,,,,,,,,,,,18,0,18,0,,,,,,,,,,,,,,,,,,,,,,,,,,,,,,,,,,,,,,,,,,,,,,,,,2713.5971299000084,None,,,,,,,,,,,,,,,,,,,,,,,,,,,,,,,,,,,,,,,,,,,,,,,,,,,,,,,,,charm,16,19,sing,old,yellow,2711.8787909997627,None,y,2711.8787909997627,None,"['y', 'return']","[1.1279891999438405, 1.680047799833119]",2711.8787909997627,None,,,68,001,2023_May_03_1023,ExactRep-v3-final,2021.2.3,59.93885057493337,
,,,,,,,,,,,,19,0,19,0,,,,,,,,,,,,,,,,,,,,,,,,,,,,,,,,,,,,,,,,,,,,,,,,,2716.3329863995314,None,,,,,,,,,,,,,,,,,,,,,,,,,,,,,,,,,,,,,,,,,,,,,,,,,,,,,,,,,river,91,20,aloud,old,yellow,2714.0980730000883,None,y,2714.0980730000883,None,"['y', 'return']","[1.1247362000867724, 2.196774300187826]",2714.0980730000883,None,,,68,001,2023_May_03_1023,ExactRep-v3-final,2021.2.3,59.93885057493337,
,,,,,,,,,,,,20,0,20,0,,,,,,,,,,,,,,,,,,,,,,,,,,,,,,,,,,,,,,,,,,,,,,,,,2718.6854699999094,None,,,,,,,,,,,,,,,,,,,,,,,,,,,,,,,,,,,,,,,,,,,,,,,,,,,,,,,,,salary,154,21,silent,new,yellow,2716.833511499688,None,n,2716.833511499688,None,"['n', 'return']","[1.181308500468731, 1.8053766004741192]",2716.833511499688,None,,,68,001,2023_May_03_1023,ExactRep-v3-final,2021.2.3,59.93885057493337,
,,,,,,,,,,,,21,0,21,0,,,,,,,,,,,,,,,,,,,,,,,,,,,,,,,,,,,,,,,,,,,,,,,,,2720.90426329989,None,,,,,,,,,,,,,,,,,,,,,,,,,,,,,,,,,,,,,,,,,,,,,,,,,,,,,,,,,murder,6,22,sing,old,yellow,2719.1861450001597,None,y,2719.1861450001597,None,"['y', 'return']","[1.1646412992849946, 1.6845680996775627]",2719.1861450001597,None,,,68,001,2023_May_03_1023,ExactRep-v3-final,2021.2.3,59.93885057493337,
,,,,,,,,,,,,22,0,22,0,,,,,,,,,,,,,,,,,,,,,,,,,,,,,,,,,,,,,,,,,,,,,,,,,2723.1565295998007,None,,,,,,,,,,,,,,,,,,,,,,,,,,,,,,,,,,,,,,,,,,,,,,,,,,,,,,,,,storm,101,23,aloud,old,yellow,2721.404897100292,None,y,2721.404897100292,None,"['y', 'return']","[1.06653350032866, 1.7139412006363273]",2721.404897100292,None,,,68,001,2023_May_03_1023,ExactRep-v3-final,2021.2.3,59.93885057493337,
,,,,,,,,,,,,23,0,23,0,,,,,,,,,,,,,,,,,,,,,,,,,,,,,,,,,,,,,,,,,,,,,,,,,2731.9319378994405,None,,,,,,,,,,,,,,,,,,,,,,,,,,,,,,,,,,,,,,,,,,,,,,,,,,,,,,,,,series,66,24,silent,old,yellow,2723.6571148000658,None,n,2723.6571148000658,None,"['n', 'return']","[7.757679400034249, 8.23771489970386]",2723.6571148000658,None,,,68,001,2023_May_03_1023,ExactRep-v3-final,2021.2.3,59.93885057493337,
,,,,,,,,,,,,24,0,24,0,,,,,,,,,,,,,,,,,,,,,,,,,,,,,,,,,,,,,,,,,,,,,,,,,2737.5375787001103,None,,,,,,,,,,,,,,,,,,,,,,,,,,,,,,,,,,,,,,,,,,,,,,,,,,,,,,,,,spirit,225,25,sing,new,yellow,2732.4326304001734,None,n,2732.4326304001734,None,"['n', 'return']","[4.542502999305725, 5.062287800014019]",2732.4326304001734,None,,,68,001,2023_May_03_1023,ExactRep-v3-final,2021.2.3,59.93885057493337,
,,,,,,,,,,,,25,0,25,0,,,,,,,,,,,,,,,,,,,,,,,,,,,,,,,,,,,,,,,,,,,,,,,,,2739.5729005998,None,,,,,,,,,,,,,,,,,,,,,,,,,,,,,,,,,,,,,,,,,,,,,,,,,,,,,,,,,avenue,36,26,sing,old,yellow,2738.0392384994775,None,y,2738.0392384994775,None,"['y', 'return']","[1.0075185000896454, 1.4956169994547963]",2738.0392384994775,None,,,68,001,2023_May_03_1023,ExactRep-v3-final,2021.2.3,59.93885057493337,
,,,,,,,,,,,,26,0,26,0,,,,,,,,,,,,,,,,,,,,,,,,,,,,,,,,,,,,,,,,,,,,,,,,,2742.626184100285,None,,,,,,,,,,,,,,,,,,,,,,,,,,,,,,,,,,,,,,,,,,,,,,,,,,,,,,,,,leader,205,27,sing,new,yellow,2740.073545199819,None,n,2740.073545199819,None,"['n', 'return']","[2.0055150995031, 2.517463400028646]",2740.073545199819,None,,,68,001,2023_May_03_1023,ExactRep-v3-final,2021.2.3,59.93885057493337,
,,,,,,,,,,,,27,0,27,0,,,,,,,,,,,,,,,,,,,,,,,,,,,,,,,,,,,,,,,,,,,,,,,,,2745.0617947997525,None,,,,,,,,,,,,,,,,,,,,,,,,,,,,,,,,,,,,,,,,,,,,,,,,,,,,,,,,,person,127,28,silent,new,yellow,2743.1266903001815,None,n,2743.1266903001815,None,"['n', 'return']","[1.3680989006534219, 1.8961556004360318]",2743.1266903001815,None,,,68,001,2023_May_03_1023,ExactRep-v3-final,2021.2.3,59.93885057493337,
,,,,,,,,,,,,28,0,28,0,,,,,,,,,,,,,,,,,,,,,,,,,,,,,,,,,,,,,,,,,,,,,,,,,2747.3642371995375,None,,,,,,,,,,,,,,,,,,,,,,,,,,,,,,,,,,,,,,,,,,,,,,,,,,,,,,,,,freedom,5,29,sing,old,yellow,2745.5624497998506,None,y,2745.5624497998506,None,"['y', 'return']","[1.164257200434804, 1.7643953999504447]",2745.5624497998506,None,,,68,001,2023_May_03_1023,ExactRep-v3-final,2021.2.3,59.93885057493337,
,,,,,,,,,,,,29,0,29,0,,,,,,,,,,,,,,,,,,,,,,,,,,,,,,,,,,,,,,,,,,,,,,,,,2749.432818000205,None,,,,,,,,,,,,,,,,,,,,,,,,,,,,,,,,,,,,,,,,,,,,,,,,,,,,,,,,,girl,112,30,aloud,old,yellow,2747.8646340994164,None,y,2747.8646340994164,None,"['y', 'return']","[1.0221884995698929, 1.534191600047052]",2747.8646340994164,None,,,68,001,2023_May_03_1023,ExactRep-v3-final,2021.2.3,59.93885057493337,
,,,,,,,,,,,,30,0,30,0,,,,,,,,,,,,,,,,,,,,,,,,,,,,,,,,,,,,,,,,,,,,,,,,,2756.3229751996696,None,,,,,,,,,,,,,,,,,,,,,,,,,,,,,,,,,,,,,,,,,,,,,,,,,,,,,,,,,circle,129,31,silent,new,yellow,2749.9333470994607,None,n,2749.9333470994607,None,"['n', 'return']","[5.953992599621415, 6.34538310021162]",2749.9333470994607,None,,,68,001,2023_May_03_1023,ExactRep-v3-final,2021.2.3,59.93885057493337,
,,,,,,,,,,,,31,0,31,0,,,,,,,,,,,,,,,,,,,,,,,,,,,,,,,,,,,,,,,,,,,,,,,,,2758.675541399978,None,,,,,,,,,,,,,,,,,,,,,,,,,,,,,,,,,,,,,,,,,,,,,,,,,,,,,,,,,world,53,32,silent,old,yellow,2756.823501399718,None,y,2756.823501399718,None,"['y', 'return']","[0.9913641000166535, 1.8073570998385549]",2756.823501399718,None,,,68,001,2023_May_03_1023,ExactRep-v3-final,2021.2.3,59.93885057493337,
,,,,,,,,,,,,32,0,32,0,,,,,,,,,,,,,,,,,,,,,,,,,,,,,,,,,,,,,,,,,,,,,,,,,2761.327987799421,None,,,,,,,,,,,,,,,,,,,,,,,,,,,,,,,,,,,,,,,,,,,,,,,,,,,,,,,,,church,2,33,sing,old,yellow,2759.1760169994086,None,n,2759.1760169994086,None,"['n', 'return']","[1.5268071005120873, 2.118935899809003]",2759.1760169994086,None,,,68,001,2023_May_03_1023,ExactRep-v3-final,2021.2.3,59.93885057493337,
,,,,,,,,,,,,33,0,33,0,,,,,,,,,,,,,,,,,,,,,,,,,,,,,,,,,,,,,,,,,,,,,,,,,2763.9807533994317,None,,,,,,,,,,,,,,,,,,,,,,,,,,,,,,,,,,,,,,,,,,,,,,,,,,,,,,,,,shame,209,34,sing,new,yellow,2761.8286855993792,None,n,2761.8286855993792,None,"['n', 'return']","[1.338192000053823, 2.1062161000445485]",2761.8286855993792,None,,,68,001,2023_May_03_1023,ExactRep-v3-final,2021.2.3,59.93885057493337,
,,,,,,,,,,,,34,0,34,0,,,,,,,,,,,,,,,,,,,,,,,,,,,,,,,,,,,,,,,,,,,,,,,,,2772.839964799583,None,,,,,,,,,,,,,,,,,,,,,,,,,,,,,,,,,,,,,,,,,,,,,,,,,,,,,,,,,green,28,35,sing,old,yellow,2764.484031399712,None,n,2764.484031399712,None,"['y', 'backspace', 'n', 'return']","[1.7390441000461578, 5.538775800727308, 7.387209100648761, 8.322807800024748]",2764.484031399712,None,,,68,001,2023_May_03_1023,ExactRep-v3-final,2021.2.3,59.93885057493337,
,,,,,,,,,,,,35,0,35,0,,,,,,,,,,,,,,,,,,,,,,,,,,,,,,,,,,,,,,,,,,,,,,,,,2775.259256299585,None,,,,,,,,,,,,,,,,,,,,,,,,,,,,,,,,,,,,,,,,,,,,,,,,,,,,,,,,,weapon,1,36,sing,old,yellow,2773.343071700074,None,y,2773.343071700074,None,"['y', 'return']","[1.0395945003256202, 1.879767400212586]",2773.343071700074,None,,,68,001,2023_May_03_1023,ExactRep-v3-final,2021.2.3,59.93885057493337,
,,,,,,,,,,,,36,0,36,0,,,,,,,,,,,,,,,,,,,,,,,,,,,,,,,,,,,,,,,,,,,,,,,,,2778.4300306998193,None,,,,,,,,,,,,,,,,,,,,,,,,,,,,,,,,,,,,,,,,,,,,,,,,,,,,,,,,,judge,190,37,aloud,new,yellow,2775.7688258998096,None,y,2775.7688258998096,None,"['y', 'return']","[1.126274099573493, 2.6142219994217157]",2775.7688258998096,None,,,68,001,2023_May_03_1023,ExactRep-v3-final,2021.2.3,59.93885057493337,
,,,,,,,,,,,,37,0,37,0,,,,,,,,,,,,,,,,,,,,,,,,,,,,,,,,,,,,,,,,,,,,,,,,,2781.4563049999997,None,,,,,,,,,,,,,,,,,,,,,,,,,,,,,,,,,,,,,,,,,,,,,,,,,,,,,,,,,poet,72,38,silent,old,yellow,2778.9391502002254,None,n,2778.9391502002254,None,"['n', 'return']","[2.0998688004910946, 2.4757873006165028]",2778.9391502002254,None,,,68,001,2023_May_03_1023,ExactRep-v3-final,2021.2.3,59.93885057493337,
,,,,,,,,,,,,38,0,38,0,,,,,,,,,,,,,,,,,,,,,,,,,,,,,,,,,,,,,,,,,,,,,,,,,2784.1881125001237,None,,,,,,,,,,,,,,,,,,,,,,,,,,,,,,,,,,,,,,,,,,,,,,,,,,,,,,,,,advice,219,39,sing,new,yellow,2781.9749414995313,None,n,2781.9749414995313,None,"['n', 'return']","[1.6885158997029066, 2.1679795999079943]",2781.9749414995313,None,,,68,001,2023_May_03_1023,ExactRep-v3-final,2021.2.3,59.93885057493337,
,,,,,,,,,,,,39,0,39,0,,,,,,,,,,,,,,,,,,,,,,,,,,,,,,,,,,,,,,,,,,,,,,,,,2793.784283699468,None,,,,,,,,,,,,,,,,,,,,,,,,,,,,,,,,,,,,,,,,,,,,,,,,,,,,,,,,,cabin,51,40,silent,old,yellow,2784.7102792998776,None,y,2784.7102792998776,None,"['y', 'return']","[8.3367707002908, 9.024881600402296]",2784.7102792998776,None,,,68,001,2023_May_03_1023,ExactRep-v3-final,2021.2.3,59.93885057493337,
,,,,,,,,,,,,40,0,40,0,,,,,,,,,,,,,,,,,,,,,,,,,,,,,,,,,,,,,,,,,,,,,,,,,2796.187770999968,None,,,,,,,,,,,,,,,,,,,,,,,,,,,,,,,,,,,,,,,,,,,,,,,,,,,,,,,,,bowl,156,41,silent,new,yellow,2794.302091599442,None,n,2794.302091599442,None,"['n', 'return']","[1.3127997005358338, 1.8408586997538805]",2794.302091599442,None,,,68,001,2023_May_03_1023,ExactRep-v3-final,2021.2.3,59.93885057493337,
,,,,,,,,,,,,41,0,41,0,,,,,,,,,,,,,,,,,,,,,,,,,,,,,,,,,,,,,,,,,,,,,,,,,2798.426001199521,None,,,,,,,,,,,,,,,,,,,,,,,,,,,,,,,,,,,,,,,,,,,,,,,,,,,,,,,,,flower,94,42,aloud,old,yellow,2796.7065201997757,None,y,2796.7065201997757,None,"['y', 'return']","[1.108322499319911, 1.6764627993106842]",2796.7065201997757,None,,,68,001,2023_May_03_1023,ExactRep-v3-final,2021.2.3,59.93885057493337,
,,,,,,,,,,,,42,0,42,0,,,,,,,,,,,,,,,,,,,,,,,,,,,,,,,,,,,,,,,,,,,,,,,,,2802.011631099507,None,,,,,,,,,,,,,,,,,,,,,,,,,,,,,,,,,,,,,,,,,,,,,,,,,,,,,,,,,bottle,114,43,aloud,old,yellow,2798.940214799717,None,y,2798.940214799717,None,"['y', 'return']","[2.4827805003151298, 3.026640400290489]",2798.940214799717,None,,,68,001,2023_May_03_1023,ExactRep-v3-final,2021.2.3,59.93885057493337,
,,,,,,,,,,,,43,0,43,0,,,,,,,,,,,,,,,,,,,,,,,,,,,,,,,,,,,,,,,,,,,,,,,,,2804.5302745997906,None,,,,,,,,,,,,,,,,,,,,,,,,,,,,,,,,,,,,,,,,,,,,,,,,,,,,,,,,,woods,95,44,aloud,old,yellow,2802.5263376999646,None,y,2802.5263376999646,None,"['y', 'return']","[1.1447783997282386, 1.960530100390315]",2802.5263376999646,None,,,68,001,2023_May_03_1023,ExactRep-v3-final,2021.2.3,59.93885057493337,
,,,,,,,,,,,,44,0,44,0,,,,,,,,,,,,,,,,,,,,,,,,,,,,,,,,,,,,,,,,,,,,,,,,,2806.828338599764,None,,,,,,,,,,,,,,,,,,,,,,,,,,,,,,,,,,,,,,,,,,,,,,,,,,,,,,,,,pipe,139,45,silent,new,yellow,2805.048803099431,None,n,2805.048803099431,None,"['n', 'return']","[1.1181426998227835, 1.734149199910462]",2805.048803099431,None,,,68,001,2023_May_03_1023,ExactRep-v3-final,2021.2.3,59.93885057493337,
,,,,,,,,,,,,45,0,45,0,,,,,,,,,,,,,,,,,,,,,,,,,,,,,,,,,,,,,,,,,,,,,,,,,2816.0210555996746,None,,,,,,,,,,,,,,,,,,,,,,,,,,,,,,,,,,,,,,,,,,,,,,,,,,,,,,,,,letter,145,46,silent,new,yellow,2807.343801899813,None,n,2807.343801899813,None,"['n', 'return']","[8.079264500178397, 8.63116620015353]",2807.343801899813,None,,,68,001,2023_May_03_1023,ExactRep-v3-final,2021.2.3,59.93885057493337,
,,,,,,,,,,,,46,0,46,0,,,,,,,,,,,,,,,,,,,,,,,,,,,,,,,,,,,,,,,,,,,,,,,,,2820.0637256996706,None,,,,,,,,,,,,,,,,,,,,,,,,,,,,,,,,,,,,,,,,,,,,,,,,,,,,,,,,,quality,175,47,sing,new,yellow,2816.541870200075,None,n,2816.541870200075,None,"['n', 'return']","[2.944963799789548, 3.4730837997049093]",2816.541870200075,None,,,68,001,2023_May_03_1023,ExactRep-v3-final,2021.2.3,59.93885057493337,
,,,,,,,,,,,,47,0,47,0,,,,,,,,,,,,,,,,,,,,,,,,,,,,,,,,,,,,,,,,,,,,,,,,,2824.397023400292,None,,,,,,,,,,,,,,,,,,,,,,,,,,,,,,,,,,,,,,,,,,,,,,,,,,,,,,,,,hour,193,48,sing,new,yellow,2820.580512999557,None,n,2820.580512999557,None,"['n', 'return']","[3.410826800391078, 3.762471300549805]",2820.580512999557,None,,,68,001,2023_May_03_1023,ExactRep-v3-final,2021.2.3,59.93885057493337,
,,,,,,,,,,,,48,0,48,0,,,,,,,,,,,,,,,,,,,,,,,,,,,,,,,,,,,,,,,,,,,,,,,,,2827.563000800088,None,,,,,,,,,,,,,,,,,,,,,,,,,,,,,,,,,,,,,,,,,,,,,,,,,,,,,,,,,woman,41,49,silent,old,yellow,2824.915769400075,None,n,2824.915769400075,None,"['n', 'return']","[2.0512481005862355, 2.603421000763774]",2824.915769400075,None,,,68,001,2023_May_03_1023,ExactRep-v3-final,2021.2.3,59.93885057493337,
,,,,,,,,,,,,49,0,49,0,,,,,,,,,,,,,,,,,,,,,,,,,,,,,,,,,,,,,,,,,,,,,,,,,2830.219679799862,None,,,,,,,,,,,,,,,,,,,,,,,,,,,,,,,,,,,,,,,,,,,,,,,,,,,,,,,,,fate,183,50,sing,new,yellow,2828.093130099587,None,n,2828.093130099587,None,"['n', 'return']","[1.5380304008722305, 2.0740668000653386]",2828.093130099587,None,,,68,001,2023_May_03_1023,ExactRep-v3-final,2021.2.3,59.93885057493337,
,,,,,,,,,,,,50,0,50,0,,,,,,,,,,,,,,,,,,,,,,,,,,,,,,,,,,,,,,,,,,,,,,,,,2837.7450761999935,None,,,,,,,,,,,,,,,,,,,,,,,,,,,,,,,,,,,,,,,,,,,,,,,,,,,,,,,,,grief,222,51,aloud,new,yellow,2830.738789299503,None,n,2830.738789299503,None,"['n', 'return']","[6.3644701996818185, 6.956162999384105]",2830.738789299503,None,,,68,001,2023_May_03_1023,ExactRep-v3-final,2021.2.3,59.93885057493337,
,,,,,,,,,,,,51,0,51,0,,,,,,,,,,,,,,,,,,,,,,,,,,,,,,,,,,,,,,,,,,,,,,,,,2844.1196197001263,None,,,,,,,,,,,,,,,,,,,,,,,,,,,,,,,,,,,,,,,,,,,,,,,,,,,,,,,,,theory,212,52,aloud,new,yellow,2838.2628814000636,None,n,2838.2628814000636,None,"['n', 'return']","[5.008411799557507, 5.808352599851787]",2838.2628814000636,None,,,68,001,2023_May_03_1023,ExactRep-v3-final,2021.2.3,59.93885057493337,
,,,,,,,,,,,,52,0,52,0,,,,,,,,,,,,,,,,,,,,,,,,,,,,,,,,,,,,,,,,,,,,,,,,,2846.817822800018,None,,,,,,,,,,,,,,,,,,,,,,,,,,,,,,,,,,,,,,,,,,,,,,,,,,,,,,,,,moment,90,53,aloud,old,yellow,2844.63413960021,None,y,2844.63413960021,None,"['y', 'return']","[1.132824500091374, 2.133127599954605]",2844.63413960021,None,,,68,001,2023_May_03_1023,ExactRep-v3-final,2021.2.3,59.93885057493337,
,,,,,,,,,,,,53,0,53,0,,,,,,,,,,,,,,,,,,,,,,,,,,,,,,,,,,,,,,,,,,,,,,,,,2849.087177899666,None,,,,,,,,,,,,,,,,,,,,,,,,,,,,,,,,,,,,,,,,,,,,,,,,,,,,,,,,,toy,20,54,sing,old,yellow,2847.3397287996486,None,y,2847.3397287996486,None,"['y', 'return']","[1.123781000263989, 1.699273000471294]",2847.3397287996486,None,,,68,001,2023_May_03_1023,ExactRep-v3-final,2021.2.3,59.93885057493337,
,,,,,,,,,,,,54,0,54,0,,,,,,,,,,,,,,,,,,,,,,,,,,,,,,,,,,,,,,,,,,,,,,,,,2852.038687299937,None,,,,,,,,,,,,,,,,,,,,,,,,,,,,,,,,,,,,,,,,,,,,,,,,,,,,,,,,,coffee,213,55,sing,new,yellow,2849.6065413001925,None,n,2849.6065413001925,None,"['n', 'return']","[1.7366810999810696, 2.3927064994350076]",2849.6065413001925,None,,,68,001,2023_May_03_1023,ExactRep-v3-final,2021.2.3,59.93885057493337,
,,,,,,,,,,,,55,0,55,0,,,,,,,,,,,,,,,,,,,,,,,,,,,,,,,,,,,,,,,,,,,,,,,,,2856.2951139993966,None,,,,,,,,,,,,,,,,,,,,,,,,,,,,,,,,,,,,,,,,,,,,,,,,,,,,,,,,,board,204,56,aloud,new,yellow,2852.574697399512,None,n,2852.574697399512,None,"['n', 'return']","[3.06423999927938, 3.6722086993977427]",2852.574697399512,None,,,68,001,2023_May_03_1023,ExactRep-v3-final,2021.2.3,59.93885057493337,
,,,,,,,,,,,,56,0,56,0,,,,,,,,,,,,,,,,,,,,,,,,,,,,,,,,,,,,,,,,,,,,,,,,,2863.888277400285,None,,,,,,,,,,,,,,,,,,,,,,,,,,,,,,,,,,,,,,,,,,,,,,,,,,,,,,,,,door,172,57,aloud,new,yellow,2856.8157212994993,None,n,2856.8157212994993,None,"['n', 'return']","[6.191616100259125, 7.0233269995078444]",2856.8157212994993,None,,,68,001,2023_May_03_1023,ExactRep-v3-final,2021.2.3,59.93885057493337,
,,,,,,,,,,,,57,0,57,0,,,,,,,,,,,,,,,,,,,,,,,,,,,,,,,,,,,,,,,,,,,,,,,,,2866.2029596995562,None,,,,,,,,,,,,,,,,,,,,,,,,,,,,,,,,,,,,,,,,,,,,,,,,,,,,,,,,,chair,34,58,sing,old,yellow,2864.413331899792,None,y,2864.413331899792,None,"['y', 'return']","[1.057630400173366, 1.7537466008216143]",2864.413331899792,None,,,68,001,2023_May_03_1023,ExactRep-v3-final,2021.2.3,59.93885057493337,
,,,,,,,,,,,,58,0,58,0,,,,,,,,,,,,,,,,,,,,,,,,,,,,,,,,,,,,,,,,,,,,,,,,,2870.582260600291,None,,,,,,,,,,,,,,,,,,,,,,,,,,,,,,,,,,,,,,,,,,,,,,,,,,,,,,,,,trouble,52,59,silent,old,yellow,2866.727936499752,None,y,2866.727936499752,None,"['y', 'return']","[3.1512820003554225, 3.807240500114858]",2866.727936499752,None,,,68,001,2023_May_03_1023,ExactRep-v3-final,2021.2.3,59.93885057493337,
,,,,,,,,,,,,59,0,59,0,,,,,,,,,,,,,,,,,,,,,,,,,,,,,,,,,,,,,,,,,,,,,,,,,2872.8962078997865,None,,,,,,,,,,,,,,,,,,,,,,,,,,,,,,,,,,,,,,,,,,,,,,,,,,,,,,,,,slave,37,60,sing,old,yellow,2871.100046100095,None,y,2871.100046100095,None,"['y', 'return']","[1.1710246996954083, 1.7470086999237537]",2871.100046100095,None,,,68,001,2023_May_03_1023,ExactRep-v3-final,2021.2.3,59.93885057493337,
,,,,,,,,,,,,60,0,60,0,,,,,,,,,,,,,,,,,,,,,,,,,,,,,,,,,,,,,,,,,,,,,,,,,2875.6868815002963,None,,,,,,,,,,,,,,,,,,,,,,,,,,,,,,,,,,,,,,,,,,,,,,,,,,,,,,,,,honour,15,61,sing,old,yellow,2873.4206059994176,None,y,2873.4206059994176,None,"['y', 'return']","[1.506470700725913, 2.2186422999948263]",2873.4206059994176,None,,,68,001,2023_May_03_1023,ExactRep-v3-final,2021.2.3,59.93885057493337,
,,,,,,,,,,,,61,0,61,0,,,,,,,,,,,,,,,,,,,,,,,,,,,,,,,,,,,,,,,,,,,,,,,,,2880.0202850000933,None,,,,,,,,,,,,,,,,,,,,,,,,,,,,,,,,,,,,,,,,,,,,,,,,,,,,,,,,,speech,159,62,silent,new,yellow,2876.2052926998585,None,n,2876.2052926998585,None,"['n', 'return']","[2.6659714998677373, 3.7618204997852445]",2876.2052926998585,None,,,68,001,2023_May_03_1023,ExactRep-v3-final,2021.2.3,59.93885057493337,
,,,,,,,,,,,,62,0,62,0,,,,,,,,,,,,,,,,,,,,,,,,,,,,,,,,,,,,,,,,,,,,,,,,,2882.491702599451,None,,,,,,,,,,,,,,,,,,,,,,,,,,,,,,,,,,,,,,,,,,,,,,,,,,,,,,,,,ocean,218,63,aloud,new,yellow,2880.538190700114,None,n,2880.538190700114,None,"['n', 'return']","[1.1728900000452995, 1.9090755004435778]",2880.538190700114,None,,,68,001,2023_May_03_1023,ExactRep-v3-final,2021.2.3,59.93885057493337,
,,,,,,,,,,,,63,0,63,0,,,,,,,,,,,,,,,,,,,,,,,,,,,,,,,,,,,,,,,,,,,,,,,,,2884.959791000001,None,,,,,,,,,,,,,,,,,,,,,,,,,,,,,,,,,,,,,,,,,,,,,,,,,,,,,,,,,butter,27,64,sing,old,yellow,2883.014414999634,None,y,2883.014414999634,None,"['y', 'return']","[1.2808206006884575, 1.9045668002218008]",2883.014414999634,None,,,68,001,2023_May_03_1023,ExactRep-v3-final,2021.2.3,59.93885057493337,
,,,,,,,,,,,,64,0,64,0,,,,,,,,,,,,,,,,,,,,,,,,,,,,,,,,,,,,,,,,,,,,,,,,,2887.523834899999,None,,,,,,,,,,,,,,,,,,,,,,,,,,,,,,,,,,,,,,,,,,,,,,,,,,,,,,,,,college,229,65,sing,new,yellow,2885.4829498995095,None,n,2885.4829498995095,None,"['n', 'return']","[1.2923053996637464, 1.9962096996605396]",2885.4829498995095,None,,,68,001,2023_May_03_1023,ExactRep-v3-final,2021.2.3,59.93885057493337,
,,,,,,,,,,,,65,0,65,0,,,,,,,,,,,,,,,,,,,,,,,,,,,,,,,,,,,,,,,,,,,,,,,,,2890.0635305996984,None,,,,,,,,,,,,,,,,,,,,,,,,,,,,,,,,,,,,,,,,,,,,,,,,,,,,,,,,,glory,162,66,aloud,new,yellow,2888.046331100166,None,n,2888.046331100166,None,"['n', 'return']","[1.2571446998044848, 1.968974900431931]",2888.046331100166,None,,,68,001,2023_May_03_1023,ExactRep-v3-final,2021.2.3,59.93885057493337,
,,,,,,,,,,,,66,0,66,0,,,,,,,,,,,,,,,,,,,,,,,,,,,,,,,,,,,,,,,,,,,,,,,,,2892.61626529973,None,,,,,,,,,,,,,,,,,,,,,,,,,,,,,,,,,,,,,,,,,,,,,,,,,,,,,,,,,rock,224,67,aloud,new,yellow,2890.586853899993,None,n,2890.586853899993,None,"['n', 'return']","[1.4202444003894925, 1.9881678000092506]",2890.586853899993,None,,,68,001,2023_May_03_1023,ExactRep-v3-final,2021.2.3,59.93885057493337,
,,,,,,,,,,,,67,0,67,0,,,,,,,,,,,,,,,,,,,,,,,,,,,,,,,,,,,,,,,,,,,,,,,,,2894.8512778999284,None,,,,,,,,,,,,,,,,,,,,,,,,,,,,,,,,,,,,,,,,,,,,,,,,,,,,,,,,,answer,105,68,aloud,old,yellow,2893.135590199381,None,y,2893.135590199381,None,"['y', 'return']","[1.1436601001769304, 1.6635867999866605]",2893.135590199381,None,,,68,001,2023_May_03_1023,ExactRep-v3-final,2021.2.3,59.93885057493337,
,,,,,,,,,,,,68,0,68,0,,,,,,,,,,,,,,,,,,,,,,,,,,,,,,,,,,,,,,,,,,,,,,,,,2899.0359197994694,None,,,,,,,,,,,,,,,,,,,,,,,,,,,,,,,,,,,,,,,,,,,,,,,,,,,,,,,,,season,92,69,aloud,old,yellow,2895.3727442994714,None,y,2895.3727442994714,None,"['y', 'return']","[1.2505677994340658, 3.6182631999254227]",2895.3727442994714,None,,,68,001,2023_May_03_1023,ExactRep-v3-final,2021.2.3,59.93885057493337,
,,,,,,,,,,,,69,0,69,0,,,,,,,,,,,,,,,,,,,,,,,,,,,,,,,,,,,,,,,,,,,,,,,,,2901.1215051999316,None,,,,,,,,,,,,,,,,,,,,,,,,,,,,,,,,,,,,,,,,,,,,,,,,,,,,,,,,,teacher,110,70,aloud,old,yellow,2899.5507864998654,None,y,2899.5507864998654,None,"['y', 'return']","[1.0485110003501177, 1.5204417007043958]",2899.5507864998654,None,,,68,001,2023_May_03_1023,ExactRep-v3-final,2021.2.3,59.93885057493337,
,,,,,,,,,,,,70,0,70,0,,,,,,,,,,,,,,,,,,,,,,,,,,,,,,,,,,,,,,,,,,,,,,,,,2903.5607278002426,None,,,,,,,,,,,,,,,,,,,,,,,,,,,,,,,,,,,,,,,,,,,,,,,,,,,,,,,,,lip,131,71,silent,new,yellow,2901.64986110013,None,n,2901.64986110013,None,"['n', 'return']","[1.3174382001161575, 1.8612752994522452]",2901.64986110013,None,,,68,001,2023_May_03_1023,ExactRep-v3-final,2021.2.3,59.93885057493337,
,,,,,,,,,,,,71,0,71,0,,,,,,,,,,,,,,,,,,,,,,,,,,,,,,,,,,,,,,,,,,,,,,,,,2906.0823424002156,None,,,,,,,,,,,,,,,,,,,,,,,,,,,,,,,,,,,,,,,,,,,,,,,,,,,,,,,,,humour,73,72,silent,old,yellow,2904.0780617995188,None,y,2904.0780617995188,None,"['y', 'return']","[1.449332999996841, 1.961119200102985]",2904.0780617995188,None,,,68,001,2023_May_03_1023,ExactRep-v3-final,2021.2.3,59.93885057493337,
,,,,,,,,,,,,72,0,72,0,,,,,,,,,,,,,,,,,,,,,,,,,,,,,,,,,,,,,,,,,,,,,,,,,2908.6035819994286,None,,,,,,,,,,,,,,,,,,,,,,,,,,,,,,,,,,,,,,,,,,,,,,,,,,,,,,,,,disease,106,73,aloud,old,yellow,2906.604355200194,None,n,2906.604355200194,None,"['n', 'return']","[1.4105925001204014, 1.9545622998848557]",2906.604355200194,None,,,68,001,2023_May_03_1023,ExactRep-v3-final,2021.2.3,59.93885057493337,
,,,,,,,,,,,,73,0,73,0,,,,,,,,,,,,,,,,,,,,,,,,,,,,,,,,,,,,,,,,,,,,,,,,,2917.32815239951,None,,,,,,,,,,,,,,,,,,,,,,,,,,,,,,,,,,,,,,,,,,,,,,,,,,,,,,,,,history,103,74,aloud,old,yellow,2909.116942900233,None,n,2909.116942900233,None,"['y', 'backspace', 'n', 'return']","[1.5783202005550265, 7.001949599944055, 7.762329100631177, 8.16237850021571]",2909.116942900233,None,,,68,001,2023_May_03_1023,ExactRep-v3-final,2021.2.3,59.93885057493337,
,,,,,,,,,,,,74,0,74,0,,,,,,,,,,,,,,,,,,,,,,,,,,,,,,,,,,,,,,,,,,,,,,,,,2919.9714209996164,None,,,,,,,,,,,,,,,,,,,,,,,,,,,,,,,,,,,,,,,,,,,,,,,,,,,,,,,,,fact,21,75,sing,old,yellow,2917.8522474002093,None,y,2917.8522474002093,None,"['y', 'return']","[1.427101599983871, 2.0827270997688174]",2917.8522474002093,None,,,68,001,2023_May_03_1023,ExactRep-v3-final,2021.2.3,59.93885057493337,
,,,,,,,,,,,,75,0,75,0,,,,,,,,,,,,,,,,,,,,,,,,,,,,,,,,,,,,,,,,,,,,,,,,,2923.8150862995535,None,,,,,,,,,,,,,,,,,,,,,,,,,,,,,,,,,,,,,,,,,,,,,,,,,,,,,,,,,cat,116,76,aloud,old,yellow,2920.4792256001383,None,y,2920.4792256001383,None,"['y', 'return']","[2.6480360999703407, 3.2960919002071023]",2920.4792256001383,None,,,68,001,2023_May_03_1023,ExactRep-v3-final,2021.2.3,59.93885057493337,
,,,,,,,,,,,,76,0,76,0,,,,,,,,,,,,,,,,,,,,,,,,,,,,,,,,,,,,,,,,,,,,,,,,,2926.4643260994926,None,,,,,,,,,,,,,,,,,,,,,,,,,,,,,,,,,,,,,,,,,,,,,,,,,,,,,,,,,king,149,77,silent,new,yellow,2924.3349812002853,None,n,2924.3349812002853,None,"['n', 'return']","[1.5045185005292296, 2.0801610006019473]",2924.3349812002853,None,,,68,001,2023_May_03_1023,ExactRep-v3-final,2021.2.3,59.93885057493337,
,,,,,,,,,,,,77,0,77,0,,,,,,,,,,,,,,,,,,,,,,,,,,,,,,,,,,,,,,,,,,,,,,,,,2929.1850356999785,None,,,,,,,,,,,,,,,,,,,,,,,,,,,,,,,,,,,,,,,,,,,,,,,,,,,,,,,,,sea,164,78,aloud,new,yellow,2926.986334499903,None,n,2926.986334499903,None,"['n', 'return']","[1.5888032000511885, 2.148697800002992]",2926.986334499903,None,,,68,001,2023_May_03_1023,ExactRep-v3-final,2021.2.3,59.93885057493337,
,,,,,,,,,,,,78,0,78,0,,,,,,,,,,,,,,,,,,,,,,,,,,,,,,,,,,,,,,,,,,,,,,,,,2931.7925987998024,None,,,,,,,,,,,,,,,,,,,,,,,,,,,,,,,,,,,,,,,,,,,,,,,,,,,,,,,,,horse,211,79,sing,new,yellow,2929.704133699648,None,n,2929.704133699648,None,"['n', 'return']","[1.391377099789679, 2.0391884995624423]",2929.704133699648,None,,,68,001,2023_May_03_1023,ExactRep-v3-final,2021.2.3,59.93885057493337,
,,,,,,,,,,,,79,0,79,0,,,,,,,,,,,,,,,,,,,,,,,,,,,,,,,,,,,,,,,,,,,,,,,,,2936.723820500076,None,,,,,,,,,,,,,,,,,,,,,,,,,,,,,,,,,,,,,,,,,,,,,,,,,,,,,,,,,hotel,43,80,silent,old,yellow,2932.3101901998743,None,y,2932.3101901998743,None,"['y', 'return']","[3.8490113001316786, 4.3689069002866745]",2932.3101901998743,None,,,68,001,2023_May_03_1023,ExactRep-v3-final,2021.2.3,59.93885057493337,
,,,,,,,,,,,,80,0,80,0,,,,,,,,,,,,,,,,,,,,,,,,,,,,,,,,,,,,,,,,,,,,,,,,,2939.5139283994213,None,,,,,,,,,,,,,,,,,,,,,,,,,,,,,,,,,,,,,,,,,,,,,,,,,,,,,,,,,troops,99,81,aloud,old,yellow,2937.2449516998604,None,n,2937.2449516998604,None,"['n', 'return']","[1.6500489003956318, 2.2263866998255253]",2937.2449516998604,None,,,68,001,2023_May_03_1023,ExactRep-v3-final,2021.2.3,59.93885057493337,
,,,,,,,,,,,,81,0,81,0,,,,,,,,,,,,,,,,,,,,,,,,,,,,,,,,,,,,,,,,,,,,,,,,,2942.247966299765,None,,,,,,,,,,,,,,,,,,,,,,,,,,,,,,,,,,,,,,,,,,,,,,,,,,,,,,,,,string,39,82,silent,old,yellow,2940.031596499495,None,n,2940.031596499495,None,"['n', 'return']","[1.5114740999415517, 2.167717699892819]",2940.031596499495,None,,,68,001,2023_May_03_1023,ExactRep-v3-final,2021.2.3,59.93885057493337,
,,,,,,,,,,,,82,0,82,0,,,,,,,,,,,,,,,,,,,,,,,,,,,,,,,,,,,,,,,,,,,,,,,,,2948.8338128998876,None,,,,,,,,,,,,,,,,,,,,,,,,,,,,,,,,,,,,,,,,,,,,,,,,,,,,,,,,,brain,231,83,sing,new,yellow,2942.767003700137,None,n,2942.767003700137,None,"['n', 'return']","[5.344371399842203, 6.024330399930477]",2942.767003700137,None,,,68,001,2023_May_03_1023,ExactRep-v3-final,2021.2.3,59.93885057493337,
,,,,,,,,,,,,83,0,83,0,,,,,,,,,,,,,,,,,,,,,,,,,,,,,,,,,,,,,,,,,,,,,,,,,2951.258232999593,None,,,,,,,,,,,,,,,,,,,,,,,,,,,,,,,,,,,,,,,,,,,,,,,,,,,,,,,,,library,146,84,silent,new,yellow,2949.3435094002634,None,y,2949.3435094002634,None,"['y', 'return']","[1.3997729001566768, 1.8635086007416248]",2949.3435094002634,None,,,68,001,2023_May_03_1023,ExactRep-v3-final,2021.2.3,59.93885057493337,
,,,,,,,,,,,,84,0,84,0,,,,,,,,,,,,,,,,,,,,,,,,,,,,,,,,,,,,,,,,,,,,,,,,,2953.7919453997165,None,,,,,,,,,,,,,,,,,,,,,,,,,,,,,,,,,,,,,,,,,,,,,,,,,,,,,,,,,power,24,85,sing,old,yellow,2951.783685100265,None,n,2951.783685100265,None,"['n', 'return']","[1.4236703999340534, 1.959345399402082]",2951.783685100265,None,,,68,001,2023_May_03_1023,ExactRep-v3-final,2021.2.3,59.93885057493337,
,,,,,,,,,,,,85,0,85,0,,,,,,,,,,,,,,,,,,,,,,,,,,,,,,,,,,,,,,,,,,,,,,,,,2956.9448304995894,None,,,,,,,,,,,,,,,,,,,,,,,,,,,,,,,,,,,,,,,,,,,,,,,,,,,,,,,,,pupil,206,86,aloud,new,yellow,2954.314398500137,None,n,2954.314398500137,None,"['n', 'return']","[1.9251488000154495, 2.58070719987154]",2954.314398500137,None,,,68,001,2023_May_03_1023,ExactRep-v3-final,2021.2.3,59.93885057493337,
,,,,,,,,,,,,86,0,86,0,,,,,,,,,,,,,,,,,,,,,,,,,,,,,,,,,,,,,,,,,,,,,,,,,2959.53540099971,None,,,,,,,,,,,,,,,,,,,,,,,,,,,,,,,,,,,,,,,,,,,,,,,,,,,,,,,,,water,177,87,sing,new,yellow,2957.4740230999887,None,y,2957.4740230999887,None,"['y', 'return']","[1.4052892997860909, 2.0132809998467565]",2957.4740230999887,None,,,68,001,2023_May_03_1023,ExactRep-v3-final,2021.2.3,59.93885057493337,
,,,,,,,,,,,,87,0,87,0,,,,,,,,,,,,,,,,,,,,,,,,,,,,,,,,,,,,,,,,,,,,,,,,,2963.438765999861,None,,,,,,,,,,,,,,,,,,,,,,,,,,,,,,,,,,,,,,,,,,,,,,,,,,,,,,,,,stone,76,88,silent,old,yellow,2960.051150799729,None,y,2960.051150799729,None,"['n', 'backspace', 'y', 'return']","[1.2119106007739902, 2.3081706007942557, 2.7799273999407887, 3.3482084004208446]",2960.051150799729,None,,,68,001,2023_May_03_1023,ExactRep-v3-final,2021.2.3,59.93885057493337,
,,,,,,,,,,,,88,0,88,0,,,,,,,,,,,,,,,,,,,,,,,,,,,,,,,,,,,,,,,,,,,,,,,,,2967.244012000039,None,,,,,,,,,,,,,,,,,,,,,,,,,,,,,,,,,,,,,,,,,,,,,,,,,,,,,,,,,officer,140,89,silent,new,yellow,2963.9643211998045,None,y,2963.9643211998045,None,"['y', 'return']","[2.451183999888599, 3.2346879998221993]",2963.9643211998045,None,,,68,001,2023_May_03_1023,ExactRep-v3-final,2021.2.3,59.93885057493337,
,,,,,,,,,,,,89,0,89,0,,,,,,,,,,,,,,,,,,,,,,,,,,,,,,,,,,,,,,,,,,,,,,,,,2969.710753300227,None,,,,,,,,,,,,,,,,,,,,,,,,,,,,,,,,,,,,,,,,,,,,,,,,,,,,,,,,,clock,121,90,silent,new,yellow,2967.7615890000015,None,n,2967.7615890000015,None,"['n', 'return']","[1.134091000072658, 1.9095472004264593]",2967.7615890000015,None,,,68,001,2023_May_03_1023,ExactRep-v3-final,2021.2.3,59.93885057493337,
,,,,,,,,,,,,90,0,90,0,,,,,,,,,,,,,,,,,,,,,,,,,,,,,,,,,,,,,,,,,,,,,,,,,2972.626586600207,None,,,,,,,,,,,,,,,,,,,,,,,,,,,,,,,,,,,,,,,,,,,,,,,,,,,,,,,,,flag,236,91,aloud,new,yellow,2970.2296163998544,None,n,2970.2296163998544,None,"['n', 'return']","[1.833611499518156, 2.353618299588561]",2970.2296163998544,None,,,68,001,2023_May_03_1023,ExactRep-v3-final,2021.2.3,59.93885057493337,
,,,,,,,,,,,,91,0,91,0,,,,,,,,,,,,,,,,,,,,,,,,,,,,,,,,,,,,,,,,,,,,,,,,,2975.0692157000303,None,,,,,,,,,,,,,,,,,,,,,,,,,,,,,,,,,,,,,,,,,,,,,,,,,,,,,,,,,crime,31,92,sing,old,yellow,2973.151785899885,None,y,2973.151785899885,None,"['y', 'return']","[1.4075386999174953, 1.8715920001268387]",2973.151785899885,None,,,68,001,2023_May_03_1023,ExactRep-v3-final,2021.2.3,59.93885057493337,
,,,,,,,,,,,,92,0,92,0,,,,,,,,,,,,,,,,,,,,,,,,,,,,,,,,,,,,,,,,,,,,,,,,,2977.6679117996246,None,,,,,,,,,,,,,,,,,,,,,,,,,,,,,,,,,,,,,,,,,,,,,,,,,,,,,,,,,earth,217,93,sing,new,yellow,2975.5828467998654,None,n,2975.5828467998654,None,"['n', 'return']","[1.656517599709332, 2.040447600185871]",2975.5828467998654,None,,,68,001,2023_May_03_1023,ExactRep-v3-final,2021.2.3,59.93885057493337,
,,,,,,,,,,,,93,0,93,0,,,,,,,,,,,,,,,,,,,,,,,,,,,,,,,,,,,,,,,,,,,,,,,,,2980.134661000222,None,,,,,,,,,,,,,,,,,,,,,,,,,,,,,,,,,,,,,,,,,,,,,,,,,,,,,,,,,air,49,94,silent,old,yellow,2978.185481299646,None,n,2978.185481299646,None,"['n', 'return']","[1.4298243997618556, 1.901625200174749]",2978.185481299646,None,,,68,001,2023_May_03_1023,ExactRep-v3-final,2021.2.3,59.93885057493337,
,,,,,,,,,,,,94,0,94,0,,,,,,,,,,,,,,,,,,,,,,,,,,,,,,,,,,,,,,,,,,,,,,,,,2984.0914457002655,None,,,,,,,,,,,,,,,,,,,,,,,,,,,,,,,,,,,,,,,,,,,,,,,,,,,,,,,,,cottage,115,95,aloud,old,yellow,2980.6550786998123,None,y,2980.6550786998123,None,"['y', 'return']","[2.5679820999503136, 3.384130200371146]",2980.6550786998123,None,,,68,001,2023_May_03_1023,ExactRep-v3-final,2021.2.3,59.93885057493337,
,,,,,,,,,,,,95,0,95,0,,,,,,,,,,,,,,,,,,,,,,,,,,,,,,,,,,,,,,,,,,,,,,,,,2990.746841999702,None,,,,,,,,,,,,,,,,,,,,,,,,,,,,,,,,,,,,,,,,,,,,,,,,,,,,,,,,,metal,9,96,sing,old,yellow,2984.6109120994806,None,n,2984.6109120994806,None,"['n', 'return']","[5.476428900845349, 6.084285500459373]",2984.6109120994806,None,,,68,001,2023_May_03_1023,ExactRep-v3-final,2021.2.3,59.93885057493337,
,,,,,,,,,,,,96,0,96,0,,,,,,,,,,,,,,,,,,,,,,,,,,,,,,,,,,,,,,,,,,,,,,,,,2993.053414300084,None,,,,,,,,,,,,,,,,,,,,,,,,,,,,,,,,,,,,,,,,,,,,,,,,,,,,,,,,,animal,194,97,aloud,new,yellow,2991.265808600001,None,n,2991.265808600001,None,"['n', 'return']","[1.1013611005619168, 1.7413768004626036]",2991.265808600001,None,,,68,001,2023_May_03_1023,ExactRep-v3-final,2021.2.3,59.93885057493337,
,,,,,,,,,,,,97,0,97,0,,,,,,,,,,,,,,,,,,,,,,,,,,,,,,,,,,,,,,,,,,,,,,,,,2995.4329925999045,None,,,,,,,,,,,,,,,,,,,,,,,,,,,,,,,,,,,,,,,,,,,,,,,,,,,,,,,,,safety,187,98,sing,new,yellow,2993.569836500101,None,n,2993.569836500101,None,"['n', 'return']","[1.429390300065279, 1.813476400449872]",2993.569836500101,None,,,68,001,2023_May_03_1023,ExactRep-v3-final,2021.2.3,59.93885057493337,
,,,,,,,,,,,,98,0,98,0,,,,,,,,,,,,,,,,,,,,,,,,,,,,,,,,,,,,,,,,,,,,,,,,,2998.1380239995196,None,,,,,,,,,,,,,,,,,,,,,,,,,,,,,,,,,,,,,,,,,,,,,,,,,,,,,,,,,dust,57,99,silent,old,yellow,2995.95574939996,None,n,2995.95574939996,None,"['n', 'return']","[1.3556697005406022, 2.131322200410068]",2995.95574939996,None,,,68,001,2023_May_03_1023,ExactRep-v3-final,2021.2.3,59.93885057493337,
,,,,,,,,,,,,99,0,99,0,,,,,,,,,,,,,,,,,,,,,,,,,,,,,,,,,,,,,,,,,,,,,,,,,3000.622031699866,None,,,,,,,,,,,,,,,,,,,,,,,,,,,,,,,,,,,,,,,,,,,,,,,,,,,,,,,,,fur,35,100,sing,old,yellow,2998.6554744997993,None,y,2998.6554744997993,None,"['y', 'return']","[1.3197587998583913, 1.9198994999751449]",2998.6554744997993,None,,,68,001,2023_May_03_1023,ExactRep-v3-final,2021.2.3,59.93885057493337,
,,,,,,,,,,,,100,0,100,0,,,,,,,,,,,,,,,,,,,,,,,,,,,,,,,,,,,,,,,,,,,,,,,,,3003.916516300291,None,,,,,,,,,,,,,,,,,,,,,,,,,,,,,,,,,,,,,,,,,,,,,,,,,,,,,,,,,car,238,101,aloud,new,yellow,3001.1402348000556,None,n,3001.1402348000556,None,"['n', 'return']","[1.3951399000361562, 2.7229211991652846]",3001.1402348000556,None,,,68,001,2023_May_03_1023,ExactRep-v3-final,2021.2.3,59.93885057493337,
,,,,,,,,,,,,101,0,101,0,,,,,,,,,,,,,,,,,,,,,,,,,,,,,,,,,,,,,,,,,,,,,,,,,3009.6482839994133,None,,,,,,,,,,,,,,,,,,,,,,,,,,,,,,,,,,,,,,,,,,,,,,,,,,,,,,,,,method,233,102,sing,new,yellow,3004.429086299613,None,y,3004.429086299613,None,"['y', 'return']","[4.434346199966967, 5.1780866999179125]",3004.429086299613,None,,,68,001,2023_May_03_1023,ExactRep-v3-final,2021.2.3,59.93885057493337,
,,,,,,,,,,,,102,0,102,0,,,,,,,,,,,,,,,,,,,,,,,,,,,,,,,,,,,,,,,,,,,,,,,,,3014.9909039996564,None,,,,,,,,,,,,,,,,,,,,,,,,,,,,,,,,,,,,,,,,,,,,,,,,,,,,,,,,,body,33,103,sing,old,yellow,3010.1624461999163,None,n,3010.1624461999163,None,"['y', 'backspace', 'n', 'return']","[1.5166958002373576, 2.9089743001386523, 3.97302530054003, 4.780979100614786]",3010.1624461999163,None,,,68,001,2023_May_03_1023,ExactRep-v3-final,2021.2.3,59.93885057493337,
,,,,,,,,,,,,103,0,103,0,,,,,,,,,,,,,,,,,,,,,,,,,,,,,,,,,,,,,,,,,,,,,,,,,3017.3229855000973,None,,,,,,,,,,,,,,,,,,,,,,,,,,,,,,,,,,,,,,,,,,,,,,,,,,,,,,,,,boy,12,104,sing,old,yellow,3015.506030499935,None,n,3015.506030499935,None,"['n', 'return']","[1.3255172995850444, 1.7653906997293234]",3015.506030499935,None,,,68,001,2023_May_03_1023,ExactRep-v3-final,2021.2.3,59.93885057493337,
,,,,,,,,,,,,104,0,104,0,,,,,,,,,,,,,,,,,,,,,,,,,,,,,,,,,,,,,,,,,,,,,,,,,3021.232584499754,None,,,,,,,,,,,,,,,,,,,,,,,,,,,,,,,,,,,,,,,,,,,,,,,,,,,,,,,,,justice,119,105,aloud,old,yellow,3017.8496629996225,None,n,3017.8496629996225,None,"['n', 'return']","[2.853792400099337, 3.333661900833249]",3017.8496629996225,None,,,68,001,2023_May_03_1023,ExactRep-v3-final,2021.2.3,59.93885057493337,
,,,,,,,,,,,,105,0,105,0,,,,,,,,,,,,,,,,,,,,,,,,,,,,,,,,,,,,,,,,,,,,,,,,,3023.5475960997865,None,,,,,,,,,,,,,,,,,,,,,,,,,,,,,,,,,,,,,,,,,,,,,,,,,,,,,,,,,lake,200,106,aloud,new,yellow,3021.74720050022,None,n,3021.74720050022,None,"['n', 'return']","[1.236396400257945, 1.7481411006301641]",3021.74720050022,None,,,68,001,2023_May_03_1023,ExactRep-v3-final,2021.2.3,59.93885057493337,
,,,,,,,,,,,,106,0,106,0,,,,,,,,,,,,,,,,,,,,,,,,,,,,,,,,,,,,,,,,,,,,,,,,,3026.080134799704,None,,,,,,,,,,,,,,,,,,,,,,,,,,,,,,,,,,,,,,,,,,,,,,,,,,,,,,,,,seat,74,107,silent,old,yellow,3024.064077399671,None,n,3024.064077399671,None,"['n', 'return']","[1.4474512999877334, 1.9753205003216863]",3024.064077399671,None,,,68,001,2023_May_03_1023,ExactRep-v3-final,2021.2.3,59.93885057493337,
,,,,,,,,,,,,107,0,107,0,,,,,,,,,,,,,,,,,,,,,,,,,,,,,,,,,,,,,,,,,,,,,,,,,3028.435029699467,None,,,,,,,,,,,,,,,,,,,,,,,,,,,,,,,,,,,,,,,,,,,,,,,,,,,,,,,,,star,199,108,sing,new,yellow,3026.605387799442,None,n,3026.605387799442,None,"['n', 'return']","[1.2581035997718573, 1.777803000062704]",3026.605387799442,None,,,68,001,2023_May_03_1023,ExactRep-v3-final,2021.2.3,59.93885057493337,
,,,,,,,,,,,,108,0,108,0,,,,,,,,,,,,,,,,,,,,,,,,,,,,,,,,,,,,,,,,,,,,,,,,,3030.6212500995025,None,,,,,,,,,,,,,,,,,,,,,,,,,,,,,,,,,,,,,,,,,,,,,,,,,,,,,,,,,friend,44,109,silent,old,yellow,3028.9513579998165,None,n,3028.9513579998165,None,"['n', 'return']","[1.1277863001450896, 1.6160785993561149]",3028.9513579998165,None,,,68,001,2023_May_03_1023,ExactRep-v3-final,2021.2.3,59.93885057493337,
,,,,,,,,,,,,109,0,109,0,,,,,,,,,,,,,,,,,,,,,,,,,,,,,,,,,,,,,,,,,,,,,,,,,3035.0900178002194,None,,,,,,,,,,,,,,,,,,,,,,,,,,,,,,,,,,,,,,,,,,,,,,,,,,,,,,,,,beast,163,110,sing,new,yellow,3031.1331711001694,None,n,3031.1331711001694,None,"['n', 'return']","[3.346014400012791, 3.906201299279928]",3031.1331711001694,None,,,68,001,2023_May_03_1023,ExactRep-v3-final,2021.2.3,59.93885057493337,
,,,,,,,,,,,,110,0,110,0,,,,,,,,,,,,,,,,,,,,,,,,,,,,,,,,,,,,,,,,,,,,,,,,,3037.9435096001253,None,,,,,,,,,,,,,,,,,,,,,,,,,,,,,,,,,,,,,,,,,,,,,,,,,,,,,,,,,lord,160,111,aloud,new,yellow,3035.6134936995804,None,n,3035.6134936995804,None,"['n', 'return']","[1.7056211000308394, 2.281584399752319]",3035.6134936995804,None,,,68,001,2023_May_03_1023,ExactRep-v3-final,2021.2.3,59.93885057493337,
,,,,,,,,,,,,111,0,111,0,,,,,,,,,,,,,,,,,,,,,,,,,,,,,,,,,,,,,,,,,,,,,,,,,3040.9137516999617,None,,,,,,,,,,,,,,,,,,,,,,,,,,,,,,,,,,,,,,,,,,,,,,,,,,,,,,,,,opinion,179,112,sing,new,yellow,3038.46735970024,None,y,3038.46735970024,None,"['y', 'return']","[1.8361806999891996, 2.3958312002941966]",3038.46735970024,None,,,68,001,2023_May_03_1023,ExactRep-v3-final,2021.2.3,59.93885057493337,
,,,,,,,,,,,,112,0,112,0,,,,,,,,,,,,,,,,,,,,,,,,,,,,,,,,,,,,,,,,,,,,,,,,,3043.063202599995,None,,,,,,,,,,,,,,,,,,,,,,,,,,,,,,,,,,,,,,,,,,,,,,,,,,,,,,,,,maiden,221,113,sing,new,yellow,3041.4344870997593,None,n,3041.4344870997593,None,"['n', 'return']","[1.1567732999101281, 1.5806390000507236]",3041.4344870997593,None,,,68,001,2023_May_03_1023,ExactRep-v3-final,2021.2.3,59.93885057493337,
,,,,,,,,,,,,113,0,113,0,,,,,,,,,,,,,,,,,,,,,,,,,,,,,,,,,,,,,,,,,,,,,,,,,3045.1163580995053,None,,,,,,,,,,,,,,,,,,,,,,,,,,,,,,,,,,,,,,,,,,,,,,,,,,,,,,,,,flesh,191,114,sing,new,yellow,3043.586213399656,None,n,3043.586213399656,None,"['n', 'return']","[1.0450307000428438, 1.4851966993883252]",3043.586213399656,None,,,68,001,2023_May_03_1023,ExactRep-v3-final,2021.2.3,59.93885057493337,
,,,,,,,,,,,,114,0,114,0,,,,,,,,,,,,,,,,,,,,,,,,,,,,,,,,,,,,,,,,,,,,,,,,,3047.3390648001805,None,,,,,,,,,,,,,,,,,,,,,,,,,,,,,,,,,,,,,,,,,,,,,,,,,,,,,,,,,kiss,203,115,sing,new,yellow,3045.636818599887,None,n,3045.636818599887,None,"['n', 'return']","[1.2183493003249168, 1.6586418002843857]",3045.636818599887,None,,,68,001,2023_May_03_1023,ExactRep-v3-final,2021.2.3,59.93885057493337,
,,,,,,,,,,,,115,0,115,0,,,,,,,,,,,,,,,,,,,,,,,,,,,,,,,,,,,,,,,,,,,,,,,,,3049.34628389962,None,,,,,,,,,,,,,,,,,,,,,,,,,,,,,,,,,,,,,,,,,,,,,,,,,,,,,,,,,corner,173,116,sing,new,yellow,3047.8590791001916,None,n,3047.8590791001916,None,"['n', 'return']","[0.8842398002743721, 1.436265000142157]",3047.8590791001916,None,,,68,001,2023_May_03_1023,ExactRep-v3-final,2021.2.3,59.93885057493337,
,,,,,,,,,,,,116,0,116,0,,,,,,,,,,,,,,,,,,,,,,,,,,,,,,,,,,,,,,,,,,,,,,,,,3051.8252654001117,None,,,,,,,,,,,,,,,,,,,,,,,,,,,,,,,,,,,,,,,,,,,,,,,,,,,,,,,,,house,125,117,silent,new,yellow,3049.8569743996486,None,y,3049.8569743996486,None,"['y', 'return']","[1.4383886996656656, 1.9262741999700665]",3049.8569743996486,None,,,68,001,2023_May_03_1023,ExactRep-v3-final,2021.2.3,59.93885057493337,
,,,,,,,,,,,,117,0,117,0,,,,,,,,,,,,,,,,,,,,,,,,,,,,,,,,,,,,,,,,,,,,,,,,,3054.1142149996012,None,,,,,,,,,,,,,,,,,,,,,,,,,,,,,,,,,,,,,,,,,,,,,,,,,,,,,,,,,prison,198,118,aloud,new,yellow,3052.3499226002023,None,y,3052.3499226002023,None,"['y', 'return']","[1.1932488000020385, 1.7214369997382164]",3052.3499226002023,None,,,68,001,2023_May_03_1023,ExactRep-v3-final,2021.2.3,59.93885057493337,
,,,,,,,,,,,,118,0,118,0,,,,,,,,,,,,,,,,,,,,,,,,,,,,,,,,,,,,,,,,,,,,,,,,,3056.3118057996035,None,,,,,,,,,,,,,,,,,,,,,,,,,,,,,,,,,,,,,,,,,,,,,,,,,,,,,,,,,passion,166,119,aloud,new,yellow,3054.6264284001663,None,n,3054.6264284001663,None,"['n', 'return']","[1.1649233996868134, 1.636680199764669]",3054.6264284001663,None,,,68,001,2023_May_03_1023,ExactRep-v3-final,2021.2.3,59.93885057493337,
,,,,,,,,,,,,119,0,119,0,,,,,,,,,,,,,,,,,,,,,,,,,,,,,,,,,,,,,,,,,,,,,,,,,3058.912720799446,None,,,,,,,,,,,,,,,,,,,,,,,,,,,,,,,,,,,,,,,,,,,,,,,,,,,,,,,,,shoes,118,120,aloud,old,yellow,3056.8313906993717,None,n,3056.8313906993717,None,"['n', 'return']","[1.6401610998436809, 2.0402349000796676]",3056.8313906993717,None,,,68,001,2023_May_03_1023,ExactRep-v3-final,2021.2.3,59.93885057493337,
,,,,,,,,,,,,120,0,120,0,,,,,,,,,,,,,,,,,,,,,,,,,,,,,,,,,,,,,,,,,,,,,,,,,3061.0836055995896,None,,,,,,,,,,,,,,,,,,,,,,,,,,,,,,,,,,,,,,,,,,,,,,,,,,,,,,,,,diamond,208,121,aloud,new,yellow,3059.4382389998063,None,n,3059.4382389998063,None,"['n', 'return']","[1.1608980996534228, 1.600887400098145]",3059.4382389998063,None,,,68,001,2023_May_03_1023,ExactRep-v3-final,2021.2.3,59.93885057493337,
,,,,,,,,,,,,121,0,121,0,,,,,,,,,,,,,,,,,,,,,,,,,,,,,,,,,,,,,,,,,,,,,,,,,3063.1021811002865,None,,,,,,,,,,,,,,,,,,,,,,,,,,,,,,,,,,,,,,,,,,,,,,,,,,,,,,,,,shadow,126,122,silent,new,yellow,3061.59939770028,None,y,3061.59939770028,None,"['y', 'return']","[1.0879643997177482, 1.45584150031209]",3061.59939770028,None,,,68,001,2023_May_03_1023,ExactRep-v3-final,2021.2.3,59.93885057493337,
,,,,,,,,,,,,122,0,122,0,,,,,,,,,,,,,,,,,,,,,,,,,,,,,,,,,,,,,,,,,,,,,,,,,3067.8057436998934,None,,,,,,,,,,,,,,,,,,,,,,,,,,,,,,,,,,,,,,,,,,,,,,,,,,,,,,,,,memory,134,123,silent,new,yellow,3063.614834900014,None,n,3063.614834900014,None,"['y', 'backspace', 'n', 'return']","[1.12038469966501, 2.832379600033164, 3.7522585997357965, 4.144394199363887]",3063.614834900014,None,,,68,001,2023_May_03_1023,ExactRep-v3-final,2021.2.3,59.93885057493337,
,,,,,,,,,,,,123,0,123,0,,,,,,,,,,,,,,,,,,,,,,,,,,,,,,,,,,,,,,,,,,,,,,,,,3069.961777999997,None,,,,,,,,,,,,,,,,,,,,,,,,,,,,,,,,,,,,,,,,,,,,,,,,,,,,,,,,,artist,79,124,sing,old,yellow,3068.3329123994336,None,n,3068.3329123994336,None,"['n', 'return']","[1.1865697000175714, 1.5862145004794002]",3068.3329123994336,None,,,68,001,2023_May_03_1023,ExactRep-v3-final,2021.2.3,59.93885057493337,
,,,,,,,,,,,,124,0,124,0,,,,,,,,,,,,,,,,,,,,,,,,,,,,,,,,,,,,,,,,,,,,,,,,,3072.246888799593,None,,,,,,,,,,,,,,,,,,,,,,,,,,,,,,,,,,,,,,,,,,,,,,,,,,,,,,,,,coast,54,125,silent,old,yellow,3070.480162699707,None,n,3070.480162699707,None,"['n', 'return']","[0.9593428997322917, 1.7190266996622086]",3070.480162699707,None,,,68,001,2023_May_03_1023,ExactRep-v3-final,2021.2.3,59.93885057493337,
,,,,,,,,,,,,125,0,125,0,,,,,,,,,,,,,,,,,,,,,,,,,,,,,,,,,,,,,,,,,,,,,,,,,3077.5891298996285,None,,,,,,,,,,,,,,,,,,,,,,,,,,,,,,,,,,,,,,,,,,,,,,,,,,,,,,,,,time,82,126,aloud,old,yellow,3072.7674642000347,None,y,3072.7674642000347,None,"['y', 'return']","[4.055787700228393, 4.775617900304496]",3072.7674642000347,None,,,68,001,2023_May_03_1023,ExactRep-v3-final,2021.2.3,59.93885057493337,
,,,,,,,,,,,,126,0,126,0,,,,,,,,,,,,,,,,,,,,,,,,,,,,,,,,,,,,,,,,,,,,,,,,,3079.4530291995034,None,,,,,,,,,,,,,,,,,,,,,,,,,,,,,,,,,,,,,,,,,,,,,,,,,,,,,,,,,fire,228,127,aloud,new,yellow,3078.1078054001555,None,n,3078.1078054001555,None,"['n', 'return']","[0.9076602002605796, 1.3073177002370358]",3078.1078054001555,None,,,68,001,2023_May_03_1023,ExactRep-v3-final,2021.2.3,59.93885057493337,
,,,,,,,,,,,,127,0,127,0,,,,,,,,,,,,,,,,,,,,,,,,,,,,,,,,,,,,,,,,,,,,,,,,,3081.42101049982,None,,,,,,,,,,,,,,,,,,,,,,,,,,,,,,,,,,,,,,,,,,,,,,,,,,,,,,,,,student,215,128,sing,new,yellow,3079.971613999456,None,n,3079.971613999456,None,"['n', 'return']","[0.9157049991190434, 1.3957856995984912]",3079.971613999456,None,,,68,001,2023_May_03_1023,ExactRep-v3-final,2021.2.3,59.93885057493337,
,,,,,,,,,,,,128,0,128,0,,,,,,,,,,,,,,,,,,,,,,,,,,,,,,,,,,,,,,,,,,,,,,,,,3083.354828500189,None,,,,,,,,,,,,,,,,,,,,,,,,,,,,,,,,,,,,,,,,,,,,,,,,,,,,,,,,,picture,196,129,aloud,new,yellow,3081.948584199883,None,n,3081.948584199883,None,"['n', 'return']","[0.810819000005722, 1.3547382997348905]",3081.948584199883,None,,,68,001,2023_May_03_1023,ExactRep-v3-final,2021.2.3,59.93885057493337,
,,,,,,,,,,,,129,0,129,0,,,,,,,,,,,,,,,,,,,,,,,,,,,,,,,,,,,,,,,,,,,,,,,,,3085.1563045000657,None,,,,,,,,,,,,,,,,,,,,,,,,,,,,,,,,,,,,,,,,,,,,,,,,,,,,,,,,,shock,98,130,aloud,old,yellow,3083.8728940999135,None,n,3083.8728940999135,None,"['n', 'return']","[0.7345465999096632, 1.2461976995691657]",3083.8728940999135,None,,,68,001,2023_May_03_1023,ExactRep-v3-final,2021.2.3,59.93885057493337,
,,,,,,,,,,,,130,0,130,0,,,,,,,,,,,,,,,,,,,,,,,,,,,,,,,,,,,,,,,,,,,,,,,,,3093.4874837994576,None,,,,,,,,,,,,,,,,,,,,,,,,,,,,,,,,,,,,,,,,,,,,,,,,,,,,,,,,,sugar,117,131,aloud,old,yellow,3085.677455799654,None,y,3085.677455799654,None,"['n', 'backspace', 'y', 'return']","[0.8258202997967601, 4.91376500017941, 7.265821699984372, 7.761851799674332]",3085.677455799654,None,,,68,001,2023_May_03_1023,ExactRep-v3-final,2021.2.3,59.93885057493337,
