trials_fam.thisRepN,trials_fam.thisTrialN,trials_fam.thisN,trials_fam.thisIndex,trials_prc.thisRepN,trials_prc.thisTrialN,trials_prc.thisN,trials_prc.thisIndex,StudyLoop.thisRepN,StudyLoop.thisTrialN,StudyLoop.thisN,StudyLoop.thisIndex,TestLoop.thisRepN,TestLoop.thisTrialN,TestLoop.thisN,TestLoop.thisIndex,text_colortest.started,text_colortest.stopped,key_colortest.keys,key_colortest.rt,key_colortest.started,key_colortest.stopped,textCondition.started,textCondition.stopped,keyCondition.keys,keyCondition.rt,keyCondition.started,keyCondition.stopped,Condition_between,Condition_counterbal,keyWelcome.keys,keyWelcome.rt,keyWelcome.started,keyWelcome.stopped,welcome_a.started,welcome_a.stopped,welcome_b.started,welcome_b.stopped,welcome_c.started,welcome_c.stopped,welcome_d.started,welcome_d.stopped,welcome_e.started,welcome_e.stopped,welcome_f.started,welcome_f.stopped,key_resp_fam_inst.keys,key_resp_fam_inst.rt,key_resp_fam_inst.started,key_resp_fam_inst.stopped,fam_a.started,fam_a.stopped,fam_b.started,fam_b.stopped,fam_c.started,fam_c.stopped,fam_d.started,fam_d.stopped,fam_e.started,fam_e.stopped,fam_f.started,fam_f.stopped,text_famil.started,text_famil.stopped,textBlank500.started,textBlank500.stopped,key_resp_prc_inst.keys,key_resp_prc_inst.rt,key_resp_prc_inst.started,key_resp_prc_inst.stopped,prac_a.started,prac_a.stopped,prac_b.started,prac_b.stopped,prac_c.started,prac_c.stopped,prac_d.started,prac_d.stopped,prac_e.started,prac_e.stopped,prac_f.started,prac_f.stopped,text_prc_trial.started,text_prc_trial.stopped,key_resp_study_inst.keys,key_resp_study_inst.rt,key_resp_study_inst.started,key_resp_study_inst.stopped,crit_a.started,crit_a.stopped,crit_b.started,crit_b.stopped,crit_c.started,crit_c.stopped,crit_d.started,crit_d.stopped,crit_e.started,crit_e.stopped,crit_f.started,crit_f.stopped,study_word,study_num,study_order,study_type,word_color,textStudy.started,textStudy.stopped,keyStudy.keys,keyStudy.started,keyStudy.stopped,post_study.started,post_study.stopped,key_resp_post_study.keys,key_resp_post_study.rt,key_resp_post_study.started,key_resp_post_study.stopped,test_inst.started,test_inst.stopped,key_resp_test_inst.keys,key_resp_test_inst.rt,key_resp_test_inst.started,key_resp_test_inst.stopped,test_word,test_num,test_order,test_condition,old_new_test,word_color_test,textConf.started,textConf.stopped,Participant Response,textInput.started,textInput.stopped,keyResp.keys,keyResp.rt,keyResp.started,keyResp.stopped,textEnd.started,textEnd.stopped,participant,session,date,expName,psychopyVersion,frameRate,
,,,,,,,,,,,,,,,,18.082995899952948,None,n,1.9507574997842312,18.082995899952948,None,,,,,,,,,,,,,,,,,,,,,,,,,,,,,,,,,,,,,,,,,,,,,,,,,,,,,,,,,,,,,,,,,,,,,,,,,,,,,,,,,,,,,,,,,,,,,,,,,,,,,,,,,,,,,,,,,,,,,,69NC,001,2023_May_03_1521,ExactRep-v3-final,2021.2.3,59.93292284108386,
,,,,,,,,,,,,,,,,,,,,,,20.05278400052339,None,c,0.7091707997024059,20.05278400052339,None,,,,,,,,,,,,,,,,,,,,,,,,,,,,,,,,,,,,,,,,,,,,,,,,,,,,,,,,,,,,,,,,,,,,,,,,,,,,,,,,,,,,,,,,,,,,,,,,,,,,,,,,,,,,,,,,69NC,001,2023_May_03_1521,ExactRep-v3-final,2021.2.3,59.93292284108386,
,,,,,,,,,,,,,,,,,,,,,,,,,,,,whitefoils,c,space,1094.3417946994305,30.853242499753833,None,,,,,,,,,,,,,,,,,,,,,,,,,,,,,,,,,,,,,,,,,,,,,,,,,,,,,,,,,,,,,,,,,,,,,,,,,,,,,,,,,,,,,,,,,,,,,,,,,,,,,,,,,,69NC,001,2023_May_03_1521,ExactRep-v3-final,2021.2.3,59.93292284108386,
,,,,,,,,,,,,,,,,,,,,,,,,,,,,,,,,,,20.931712800636888,None,20.931712800636888,None,20.931712800636888,None,20.931712800636888,None,20.931712800636888,None,20.931712800636888,None,space,28.64459630008787,1135.4143154006451,None,,,,,,,,,,,,,,,,,,,,,,,,,,,,,,,,,,,,,,,,,,,,,,,,,,,,,,,,,,,,,,,,,,,,,,,,,,,,,,,,,,,,,,,,,,69NC,001,2023_May_03_1521,ExactRep-v3-final,2021.2.3,59.93292284108386,
0,0,0,0,,,,,,,,,,,,,,,,,,,,,,,,,,,,,,,,,,,,,,,,,,,,,,,1125.442944000475,None,1125.442944000475,None,1125.442944000475,None,1125.442944000475,None,1125.442944000475,None,1125.442944000475,None,1164.1826996998861,None,1166.1835254002362,None,,,,,,,,,,,,,,,,,,,,,,,,,,,,,,,,,,,,,,,,,,,,,,,,,,,,,,,,,,,,,,,,,,,,,,,,,,69NC,001,2023_May_03_1521,ExactRep-v3-final,2021.2.3,59.93292284108386,
1,0,1,0,,,,,,,,,,,,,,,,,,,,,,,,,,,,,,,,,,,,,,,,,,,,,,,,,,,,,,,,,,,1166.7052731998265,None,1168.7026673005894,None,,,,,,,,,,,,,,,,,,,,,,,,,,,,,,,,,,,,,,,,,,,,,,,,,,,,,,,,,,,,,,,,,,,,,,,,,,69NC,001,2023_May_03_1521,ExactRep-v3-final,2021.2.3,59.93292284108386,
2,0,2,0,,,,,,,,,,,,,,,,,,,,,,,,,,,,,,,,,,,,,,,,,,,,,,,,,,,,,,,,,,,1169.2114233998582,None,1171.2217011004686,None,,,,,,,,,,,,,,,,,,,,,,,,,,,,,,,,,,,,,,,,,,,,,,,,,,,,,,,,,,,,,,,,,,,,,,,,,,69NC,001,2023_May_03_1521,ExactRep-v3-final,2021.2.3,59.93292284108386,
3,0,3,0,,,,,,,,,,,,,,,,,,,,,,,,,,,,,,,,,,,,,,,,,,,,,,,,,,,,,,,,,,,1171.7225951999426,None,1173.724441700615,None,,,,,,,,,,,,,,,,,,,,,,,,,,,,,,,,,,,,,,,,,,,,,,,,,,,,,,,,,,,,,,,,,,,,,,,,,,69NC,001,2023_May_03_1521,ExactRep-v3-final,2021.2.3,59.93292284108386,
4,0,4,0,,,,,,,,,,,,,,,,,,,,,,,,,,,,,,,,,,,,,,,,,,,,,,,,,,,,,,,,,,,1174.2265402004123,None,1176.2267466997728,None,,,,,,,,,,,,,,,,,,,,,,,,,,,,,,,,,,,,,,,,,,,,,,,,,,,,,,,,,,,,,,,,,,,,,,,,,,69NC,001,2023_May_03_1521,ExactRep-v3-final,2021.2.3,59.93292284108386,
5,0,5,0,,,,,,,,,,,,,,,,,,,,,,,,,,,,,,,,,,,,,,,,,,,,,,,,,,,,,,,,,,,1176.7275469005108,None,1178.7292934004217,None,,,,,,,,,,,,,,,,,,,,,,,,,,,,,,,,,,,,,,,,,,,,,,,,,,,,,,,,,,,,,,,,,,,,,,,,,,69NC,001,2023_May_03_1521,ExactRep-v3-final,2021.2.3,59.93292284108386,
6,0,6,0,,,,,,,,,,,,,,,,,,,,,,,,,,,,,,,,,,,,,,,,,,,,,,,,,,,,,,,,,,,1179.2298400998116,None,1181.2318385001272,None,,,,,,,,,,,,,,,,,,,,,,,,,,,,,,,,,,,,,,,,,,,,,,,,,,,,,,,,,,,,,,,,,,,,,,,,,,69NC,001,2023_May_03_1521,ExactRep-v3-final,2021.2.3,59.93292284108386,
7,0,7,0,,,,,,,,,,,,,,,,,,,,,,,,,,,,,,,,,,,,,,,,,,,,,,,,,,,,,,,,,,,1181.7325662998483,None,1183.734361000359,None,,,,,,,,,,,,,,,,,,,,,,,,,,,,,,,,,,,,,,,,,,,,,,,,,,,,,,,,,,,,,,,,,,,,,,,,,,69NC,001,2023_May_03_1521,ExactRep-v3-final,2021.2.3,59.93292284108386,
8,0,8,0,,,,,,,,,,,,,,,,,,,,,,,,,,,,,,,,,,,,,,,,,,,,,,,,,,,,,,,,,,,1184.2382092000917,None,1186.2535522002727,None,,,,,,,,,,,,,,,,,,,,,,,,,,,,,,,,,,,,,,,,,,,,,,,,,,,,,,,,,,,,,,,,,,,,,,,,,,69NC,001,2023_May_03_1521,ExactRep-v3-final,2021.2.3,59.93292284108386,
9,0,9,0,,,,,,,,,,,,,,,,,,,,,,,,,,,,,,,,,,,,,,,,,,,,,,,,,,,,,,,,,,,1186.7537120999768,None,1188.7560071004555,None,,,,,,,,,,,,,,,,,,,,,,,,,,,,,,,,,,,,,,,,,,,,,,,,,,,,,,,,,,,,,,,,,,,,,,,,,,69NC,001,2023_May_03_1521,ExactRep-v3-final,2021.2.3,59.93292284108386,
10,0,10,0,,,,,,,,,,,,,,,,,,,,,,,,,,,,,,,,,,,,,,,,,,,,,,,,,,,,,,,,,,,1189.2564414003864,None,1191.2585495002568,None,,,,,,,,,,,,,,,,,,,,,,,,,,,,,,,,,,,,,,,,,,,,,,,,,,,,,,,,,,,,,,,,,,,,,,,,,,69NC,001,2023_May_03_1521,ExactRep-v3-final,2021.2.3,59.93292284108386,
11,0,11,0,,,,,,,,,,,,,,,,,,,,,,,,,,,,,,,,,,,,,,,,,,,,,,,,,,,,,,,,,,,1191.7603898001835,None,1193.7609942005947,None,,,,,,,,,,,,,,,,,,,,,,,,,,,,,,,,,,,,,,,,,,,,,,,,,,,,,,,,,,,,,,,,,,,,,,,,,,69NC,001,2023_May_03_1521,ExactRep-v3-final,2021.2.3,59.93292284108386,
12,0,12,0,,,,,,,,,,,,,,,,,,,,,,,,,,,,,,,,,,,,,,,,,,,,,,,,,,,,,,,,,,,1194.2614521998912,None,1196.2637707004324,None,,,,,,,,,,,,,,,,,,,,,,,,,,,,,,,,,,,,,,,,,,,,,,,,,,,,,,,,,,,,,,,,,,,,,,,,,,69NC,001,2023_May_03_1521,ExactRep-v3-final,2021.2.3,59.93292284108386,
13,0,13,0,,,,,,,,,,,,,,,,,,,,,,,,,,,,,,,,,,,,,,,,,,,,,,,,,,,,,,,,,,,1196.7662297999486,None,1198.7658039005473,None,,,,,,,,,,,,,,,,,,,,,,,,,,,,,,,,,,,,,,,,,,,,,,,,,,,,,,,,,,,,,,,,,,,,,,,,,,69NC,001,2023_May_03_1521,ExactRep-v3-final,2021.2.3,59.93292284108386,
14,0,14,0,,,,,,,,,,,,,,,,,,,,,,,,,,,,,,,,,,,,,,,,,,,,,,,,,,,,,,,,,,,1199.266710200347,None,1201.2686131000519,None,,,,,,,,,,,,,,,,,,,,,,,,,,,,,,,,,,,,,,,,,,,,,,,,,,,,,,,,,,,,,,,,,,,,,,,,,,69NC,001,2023_May_03_1521,ExactRep-v3-final,2021.2.3,59.93292284108386,
,,,,,,,,,,,,,,,,,,,,,,,,,,,,,,,,,,,,,,,,,,,,,,,,,,,,,,,,,,,,,,,,,,space,12.590678599663079,1211.8845063000917,None,,,,,,,,,,,,,,,,,,,,,,,,,,,,,,,,,,,,,,,,,,,,,,,,,,,,,,,,,,,,,,,,,,,,,,69NC,001,2023_May_03_1521,ExactRep-v3-final,2021.2.3,59.93292284108386,
,,,,0,0,0,0,,,,,,,,,,,,,,,,,,,,,,,,,,,,,,,,,,,,,,,,,,,,,,,,,,,,,,,,,1226.5438243998215,None,,,,,1201.9216188006103,None,1201.9216188006103,None,1201.9216188006103,None,1201.9216188006103,None,1201.9216188006103,None,1201.9216188006103,None,1224.541226000525,None,,,,,,,,,,,,,,,,,,,,,,,,,,,,,,,,,,,,,,,,,,,,,,,,,,,,,,,,69NC,001,2023_May_03_1521,ExactRep-v3-final,2021.2.3,59.93292284108386,
,,,,1,0,1,0,,,,,,,,,,,,,,,,,,,,,,,,,,,,,,,,,,,,,,,,,,,,,,,,,,,,,,,,,1229.0464494004846,None,,,,,,,,,,,,,,,,,1227.0446174005046,None,,,,,,,,,,,,,,,,,,,,,,,,,,,,,,,,,,,,,,,,,,,,,,,,,,,,,,,,69NC,001,2023_May_03_1521,ExactRep-v3-final,2021.2.3,59.93292284108386,
,,,,2,0,2,0,,,,,,,,,,,,,,,,,,,,,,,,,,,,,,,,,,,,,,,,,,,,,,,,,,,,,,,,,1231.5488531002775,None,,,,,,,,,,,,,,,,,1229.5469137998298,None,,,,,,,,,,,,,,,,,,,,,,,,,,,,,,,,,,,,,,,,,,,,,,,,,,,,,,,,69NC,001,2023_May_03_1521,ExactRep-v3-final,2021.2.3,59.93292284108386,
,,,,3,0,3,0,,,,,,,,,,,,,,,,,,,,,,,,,,,,,,,,,,,,,,,,,,,,,,,,,,,,,,,,,1234.051338300109,None,,,,,,,,,,,,,,,,,1232.0494320997968,None,,,,,,,,,,,,,,,,,,,,,,,,,,,,,,,,,,,,,,,,,,,,,,,,,,,,,,,,69NC,001,2023_May_03_1521,ExactRep-v3-final,2021.2.3,59.93292284108386,
,,,,4,0,4,0,,,,,,,,,,,,,,,,,,,,,,,,,,,,,,,,,,,,,,,,,,,,,,,,,,,,,,,,,1236.5538821006194,None,,,,,,,,,,,,,,,,,1234.5518393004313,None,,,,,,,,,,,,,,,,,,,,,,,,,,,,,,,,,,,,,,,,,,,,,,,,,,,,,,,,69NC,001,2023_May_03_1521,ExactRep-v3-final,2021.2.3,59.93292284108386,
,,,,5,0,5,0,,,,,,,,,,,,,,,,,,,,,,,,,,,,,,,,,,,,,,,,,,,,,,,,,,,,,,,,,1239.0563165005296,None,,,,,,,,,,,,,,,,,1237.0543881999329,None,,,,,,,,,,,,,,,,,,,,,,,,,,,,,,,,,,,,,,,,,,,,,,,,,,,,,,,,69NC,001,2023_May_03_1521,ExactRep-v3-final,2021.2.3,59.93292284108386,
,,,,6,0,6,0,,,,,,,,,,,,,,,,,,,,,,,,,,,,,,,,,,,,,,,,,,,,,,,,,,,,,,,,,1241.5587977999821,None,,,,,,,,,,,,,,,,,1239.5566981006414,None,,,,,,,,,,,,,,,,,,,,,,,,,,,,,,,,,,,,,,,,,,,,,,,,,,,,,,,,69NC,001,2023_May_03_1521,ExactRep-v3-final,2021.2.3,59.93292284108386,
,,,,7,0,7,0,,,,,,,,,,,,,,,,,,,,,,,,,,,,,,,,,,,,,,,,,,,,,,,,,,,,,,,,,1244.0614013001323,None,,,,,,,,,,,,,,,,,1242.059339900501,None,,,,,,,,,,,,,,,,,,,,,,,,,,,,,,,,,,,,,,,,,,,,,,,,,,,,,,,,69NC,001,2023_May_03_1521,ExactRep-v3-final,2021.2.3,59.93292284108386,
,,,,8,0,8,0,,,,,,,,,,,,,,,,,,,,,,,,,,,,,,,,,,,,,,,,,,,,,,,,,,,,,,,,,1246.5639995997772,None,,,,,,,,,,,,,,,,,1244.5619237003848,None,,,,,,,,,,,,,,,,,,,,,,,,,,,,,,,,,,,,,,,,,,,,,,,,,,,,,,,,69NC,001,2023_May_03_1521,ExactRep-v3-final,2021.2.3,59.93292284108386,
,,,,9,0,9,0,,,,,,,,,,,,,,,,,,,,,,,,,,,,,,,,,,,,,,,,,,,,,,,,,,,,,,,,,1249.0664674006402,None,,,,,,,,,,,,,,,,,1247.0643573999405,None,,,,,,,,,,,,,,,,,,,,,,,,,,,,,,,,,,,,,,,,,,,,,,,,,,,,,,,,69NC,001,2023_May_03_1521,ExactRep-v3-final,2021.2.3,59.93292284108386,
,,,,10,0,10,0,,,,,,,,,,,,,,,,,,,,,,,,,,,,,,,,,,,,,,,,,,,,,,,,,,,,,,,,,1251.5688749002293,None,,,,,,,,,,,,,,,,,1249.5666767004877,None,,,,,,,,,,,,,,,,,,,,,,,,,,,,,,,,,,,,,,,,,,,,,,,,,,,,,,,,69NC,001,2023_May_03_1521,ExactRep-v3-final,2021.2.3,59.93292284108386,
,,,,11,0,11,0,,,,,,,,,,,,,,,,,,,,,,,,,,,,,,,,,,,,,,,,,,,,,,,,,,,,,,,,,1254.0714693004265,None,,,,,,,,,,,,,,,,,1252.0691825998947,None,,,,,,,,,,,,,,,,,,,,,,,,,,,,,,,,,,,,,,,,,,,,,,,,,,,,,,,,69NC,001,2023_May_03_1521,ExactRep-v3-final,2021.2.3,59.93292284108386,
,,,,12,0,12,0,,,,,,,,,,,,,,,,,,,,,,,,,,,,,,,,,,,,,,,,,,,,,,,,,,,,,,,,,1256.5739203002304,None,,,,,,,,,,,,,,,,,1254.571725900285,None,,,,,,,,,,,,,,,,,,,,,,,,,,,,,,,,,,,,,,,,,,,,,,,,,,,,,,,,69NC,001,2023_May_03_1521,ExactRep-v3-final,2021.2.3,59.93292284108386,
,,,,13,0,13,0,,,,,,,,,,,,,,,,,,,,,,,,,,,,,,,,,,,,,,,,,,,,,,,,,,,,,,,,,1259.0761556997895,None,,,,,,,,,,,,,,,,,1257.0743334004655,None,,,,,,,,,,,,,,,,,,,,,,,,,,,,,,,,,,,,,,,,,,,,,,,,,,,,,,,,69NC,001,2023_May_03_1521,ExactRep-v3-final,2021.2.3,59.93292284108386,
,,,,14,0,14,0,,,,,,,,,,,,,,,,,,,,,,,,,,,,,,,,,,,,,,,,,,,,,,,,,,,,,,,,,1261.5788735998794,None,,,,,,,,,,,,,,,,,1259.5770666999742,None,,,,,,,,,,,,,,,,,,,,,,,,,,,,,,,,,,,,,,,,,,,,,,,,,,,,,,,,69NC,001,2023_May_03_1521,ExactRep-v3-final,2021.2.3,59.93292284108386,
,,,,,,,,,,,,,,,,,,,,,,,,,,,,,,,,,,,,,,,,,,,,,,,,,,,,,,,,,,,,,,,,,,,,,,,,,,,,,,,,,,,,space,19.44967080000788,1272.1934523005038,None,,,,,,,,,,,,,,,,,,,,,,,,,,,,,,,,,,,,,,,,,,,,,,,,,,,,69NC,001,2023_May_03_1521,ExactRep-v3-final,2021.2.3,59.93292284108386,
,,,,,,,,0,0,0,0,,,,,,,,,,,,,,,,,,,,,,,,,,,,,,,,,,,,,,,,,,,,,,,,,,,,,1293.76100840047,None,,,,,,,,,,,,,,,,,,,,,,,1262.2317879004404,None,1262.2317879004404,None,1262.2317879004404,None,1262.2317879004404,None,1262.2317879004404,None,1262.2317879004404,None,meat,71,1,silent,red,1291.750698200427,None,None,1291.750698200427,None,,,,,,,,,,,,,,,,,,,,,,,,,,,,,,69NC,001,2023_May_03_1521,ExactRep-v3-final,2021.2.3,59.93292284108386,
,,,,,,,,1,0,1,0,,,,,,,,,,,,,,,,,,,,,,,,,,,,,,,,,,,,,,,,,,,,,,,,,,,,,1296.280231100507,None,,,,,,,,,,,,,,,,,,,,,,,,,,,,,,,,,,,pole,103,2,aloud,blue,1294.2664654003456,None,None,1294.2664654003456,None,,,,,,,,,,,,,,,,,,,,,,,,,,,,,,69NC,001,2023_May_03_1521,ExactRep-v3-final,2021.2.3,59.93292284108386,
,,,,,,,,2,0,2,0,,,,,,,,,,,,,,,,,,,,,,,,,,,,,,,,,,,,,,,,,,,,,,,,,,,,,1298.7992154005915,None,,,,,,,,,,,,,,,,,,,,,,,,,,,,,,,,,,,church,32,3,sing,white,1296.7879567006603,None,None,1296.7879567006603,None,,,,,,,,,,,,,,,,,,,,,,,,,,,,,,69NC,001,2023_May_03_1521,ExactRep-v3-final,2021.2.3,59.93292284108386,
,,,,,,,,3,0,3,0,,,,,,,,,,,,,,,,,,,,,,,,,,,,,,,,,,,,,,,,,,,,,,,,,,,,,1301.3186517003924,None,,,,,,,,,,,,,,,,,,,,,,,,,,,,,,,,,,,history,8,4,sing,white,1299.3075639000162,None,None,1299.3075639000162,None,,,,,,,,,,,,,,,,,,,,,,,,,,,,,,69NC,001,2023_May_03_1521,ExactRep-v3-final,2021.2.3,59.93292284108386,
,,,,,,,,4,0,4,0,,,,,,,,,,,,,,,,,,,,,,,,,,,,,,,,,,,,,,,,,,,,,,,,,,,,,1303.8376729004085,None,,,,,,,,,,,,,,,,,,,,,,,,,,,,,,,,,,,flower,106,5,aloud,blue,1301.8248717999086,None,None,1301.8248717999086,None,,,,,,,,,,,,,,,,,,,,,,,,,,,,,,69NC,001,2023_May_03_1521,ExactRep-v3-final,2021.2.3,59.93292284108386,
,,,,,,,,5,0,5,0,,,,,,,,,,,,,,,,,,,,,,,,,,,,,,,,,,,,,,,,,,,,,,,,,,,,,1306.3401196999475,None,,,,,,,,,,,,,,,,,,,,,,,,,,,,,,,,,,,plain,24,6,sing,white,1304.3381431000307,None,None,1304.3381431000307,None,,,,,,,,,,,,,,,,,,,,,,,,,,,,,,69NC,001,2023_May_03_1521,ExactRep-v3-final,2021.2.3,59.93292284108386,
,,,,,,,,6,0,6,0,,,,,,,,,,,,,,,,,,,,,,,,,,,,,,,,,,,,,,,,,,,,,,,,,,,,,1308.8595403004438,None,,,,,,,,,,,,,,,,,,,,,,,,,,,,,,,,,,,sugar,78,7,silent,red,1306.8465942004696,None,None,1306.8465942004696,None,,,,,,,,,,,,,,,,,,,,,,,,,,,,,,69NC,001,2023_May_03_1521,ExactRep-v3-final,2021.2.3,59.93292284108386,
,,,,,,,,7,0,7,0,,,,,,,,,,,,,,,,,,,,,,,,,,,,,,,,,,,,,,,,,,,,,,,,,,,,,1311.3786481004208,None,,,,,,,,,,,,,,,,,,,,,,,,,,,,,,,,,,,judge,94,8,aloud,blue,1309.3717636000365,None,None,1309.3717636000365,None,,,,,,,,,,,,,,,,,,,,,,,,,,,,,,69NC,001,2023_May_03_1521,ExactRep-v3-final,2021.2.3,59.93292284108386,
,,,,,,,,8,0,8,0,,,,,,,,,,,,,,,,,,,,,,,,,,,,,,,,,,,,,,,,,,,,,,,,,,,,,1313.8811952006072,None,,,,,,,,,,,,,,,,,,,,,,,,,,,,,,,,,,,cost,73,9,silent,red,1311.8790866006166,None,None,1311.8790866006166,None,,,,,,,,,,,,,,,,,,,,,,,,,,,,,,69NC,001,2023_May_03_1521,ExactRep-v3-final,2021.2.3,59.93292284108386,
,,,,,,,,9,0,9,0,,,,,,,,,,,,,,,,,,,,,,,,,,,,,,,,,,,,,,,,,,,,,,,,,,,,,1316.400253300555,None,,,,,,,,,,,,,,,,,,,,,,,,,,,,,,,,,,,boulder,17,10,sing,white,1314.3849336002022,None,None,1314.3849336002022,None,,,,,,,,,,,,,,,,,,,,,,,,,,,,,,69NC,001,2023_May_03_1521,ExactRep-v3-final,2021.2.3,59.93292284108386,
,,,,,,,,10,0,10,0,,,,,,,,,,,,,,,,,,,,,,,,,,,,,,,,,,,,,,,,,,,,,,,,,,,,,1318.919502099976,None,,,,,,,,,,,,,,,,,,,,,,,,,,,,,,,,,,,meeting,18,11,sing,white,1316.906918800436,None,None,1316.906918800436,None,,,,,,,,,,,,,,,,,,,,,,,,,,,,,,69NC,001,2023_May_03_1521,ExactRep-v3-final,2021.2.3,59.93292284108386,
,,,,,,,,11,0,11,0,,,,,,,,,,,,,,,,,,,,,,,,,,,,,,,,,,,,,,,,,,,,,,,,,,,,,1321.422039899975,None,,,,,,,,,,,,,,,,,,,,,,,,,,,,,,,,,,,engine,51,12,silent,red,1319.4200135003775,None,None,1319.4200135003775,None,,,,,,,,,,,,,,,,,,,,,,,,,,,,,,69NC,001,2023_May_03_1521,ExactRep-v3-final,2021.2.3,59.93292284108386,
,,,,,,,,12,0,12,0,,,,,,,,,,,,,,,,,,,,,,,,,,,,,,,,,,,,,,,,,,,,,,,,,,,,,1323.9245921000838,None,,,,,,,,,,,,,,,,,,,,,,,,,,,,,,,,,,,corner,16,13,sing,white,1321.9255218002945,None,None,1321.9255218002945,None,,,,,,,,,,,,,,,,,,,,,,,,,,,,,,69NC,001,2023_May_03_1521,ExactRep-v3-final,2021.2.3,59.93292284108386,
,,,,,,,,13,0,13,0,,,,,,,,,,,,,,,,,,,,,,,,,,,,,,,,,,,,,,,,,,,,,,,,,,,,,1326.4270101003349,None,,,,,,,,,,,,,,,,,,,,,,,,,,,,,,,,,,,trouble,34,14,sing,white,1324.4264753004536,None,None,1324.4264753004536,None,,,,,,,,,,,,,,,,,,,,,,,,,,,,,,69NC,001,2023_May_03_1521,ExactRep-v3-final,2021.2.3,59.93292284108386,
,,,,,,,,14,0,14,0,,,,,,,,,,,,,,,,,,,,,,,,,,,,,,,,,,,,,,,,,,,,,,,,,,,,,1328.9295639004558,None,,,,,,,,,,,,,,,,,,,,,,,,,,,,,,,,,,,cabin,109,15,aloud,blue,1326.9290680000558,None,None,1326.9290680000558,None,,,,,,,,,,,,,,,,,,,,,,,,,,,,,,69NC,001,2023_May_03_1521,ExactRep-v3-final,2021.2.3,59.93292284108386,
,,,,,,,,15,0,15,0,,,,,,,,,,,,,,,,,,,,,,,,,,,,,,,,,,,,,,,,,,,,,,,,,,,,,1331.448735699989,None,,,,,,,,,,,,,,,,,,,,,,,,,,,,,,,,,,,clock,14,16,sing,white,1329.4345998000354,None,None,1329.4345998000354,None,,,,,,,,,,,,,,,,,,,,,,,,,,,,,,69NC,001,2023_May_03_1521,ExactRep-v3-final,2021.2.3,59.93292284108386,
,,,,,,,,16,0,16,0,,,,,,,,,,,,,,,,,,,,,,,,,,,,,,,,,,,,,,,,,,,,,,,,,,,,,1333.9511954002082,None,,,,,,,,,,,,,,,,,,,,,,,,,,,,,,,,,,,home,3,17,sing,white,1331.9490069998428,None,None,1331.9490069998428,None,,,,,,,,,,,,,,,,,,,,,,,,,,,,,,69NC,001,2023_May_03_1521,ExactRep-v3-final,2021.2.3,59.93292284108386,
,,,,,,,,17,0,17,0,,,,,,,,,,,,,,,,,,,,,,,,,,,,,,,,,,,,,,,,,,,,,,,,,,,,,1336.4537690002471,None,,,,,,,,,,,,,,,,,,,,,,,,,,,,,,,,,,,speech,4,18,sing,white,1334.4517020005733,None,None,1334.4517020005733,None,,,,,,,,,,,,,,,,,,,,,,,,,,,,,,69NC,001,2023_May_03_1521,ExactRep-v3-final,2021.2.3,59.93292284108386,
,,,,,,,,18,0,18,0,,,,,,,,,,,,,,,,,,,,,,,,,,,,,,,,,,,,,,,,,,,,,,,,,,,,,1338.9562581004575,None,,,,,,,,,,,,,,,,,,,,,,,,,,,,,,,,,,,lip,44,19,silent,red,1336.9543030997738,None,None,1336.9543030997738,None,,,,,,,,,,,,,,,,,,,,,,,,,,,,,,69NC,001,2023_May_03_1521,ExactRep-v3-final,2021.2.3,59.93292284108386,
,,,,,,,,19,0,19,0,,,,,,,,,,,,,,,,,,,,,,,,,,,,,,,,,,,,,,,,,,,,,,,,,,,,,1341.475294300355,None,,,,,,,,,,,,,,,,,,,,,,,,,,,,,,,,,,,gold,12,20,sing,white,1339.4636361999437,None,None,1339.4636361999437,None,,,,,,,,,,,,,,,,,,,,,,,,,,,,,,69NC,001,2023_May_03_1521,ExactRep-v3-final,2021.2.3,59.93292284108386,
,,,,,,,,20,0,20,0,,,,,,,,,,,,,,,,,,,,,,,,,,,,,,,,,,,,,,,,,,,,,,,,,,,,,1343.9946504998952,None,,,,,,,,,,,,,,,,,,,,,,,,,,,,,,,,,,,steam,0,21,sing,white,1341.9853330999613,None,None,1341.9853330999613,None,,,,,,,,,,,,,,,,,,,,,,,,,,,,,,69NC,001,2023_May_03_1521,ExactRep-v3-final,2021.2.3,59.93292284108386,
,,,,,,,,21,0,21,0,,,,,,,,,,,,,,,,,,,,,,,,,,,,,,,,,,,,,,,,,,,,,,,,,,,,,1346.4971679002047,None,,,,,,,,,,,,,,,,,,,,,,,,,,,,,,,,,,,king,45,22,silent,red,1344.497627899982,None,None,1344.497627899982,None,,,,,,,,,,,,,,,,,,,,,,,,,,,,,,69NC,001,2023_May_03_1521,ExactRep-v3-final,2021.2.3,59.93292284108386,
,,,,,,,,22,0,22,0,,,,,,,,,,,,,,,,,,,,,,,,,,,,,,,,,,,,,,,,,,,,,,,,,,,,,1349.0161931999028,None,,,,,,,,,,,,,,,,,,,,,,,,,,,,,,,,,,,officer,58,23,silent,red,1347.0042917998508,None,None,1347.0042917998508,None,,,,,,,,,,,,,,,,,,,,,,,,,,,,,,69NC,001,2023_May_03_1521,ExactRep-v3-final,2021.2.3,59.93292284108386,
,,,,,,,,23,0,23,0,,,,,,,,,,,,,,,,,,,,,,,,,,,,,,,,,,,,,,,,,,,,,,,,,,,,,1351.5187800005078,None,,,,,,,,,,,,,,,,,,,,,,,,,,,,,,,,,,,fault,19,24,sing,white,1349.5178372003138,None,None,1349.5178372003138,None,,,,,,,,,,,,,,,,,,,,,,,,,,,,,,69NC,001,2023_May_03_1521,ExactRep-v3-final,2021.2.3,59.93292284108386,
,,,,,,,,24,0,24,0,,,,,,,,,,,,,,,,,,,,,,,,,,,,,,,,,,,,,,,,,,,,,,,,,,,,,1354.021287300624,None,,,,,,,,,,,,,,,,,,,,,,,,,,,,,,,,,,,hour,82,25,aloud,blue,1352.021215800196,None,None,1352.021215800196,None,,,,,,,,,,,,,,,,,,,,,,,,,,,,,,69NC,001,2023_May_03_1521,ExactRep-v3-final,2021.2.3,59.93292284108386,
,,,,,,,,25,0,25,0,,,,,,,,,,,,,,,,,,,,,,,,,,,,,,,,,,,,,,,,,,,,,,,,,,,,,1356.5244591003284,None,,,,,,,,,,,,,,,,,,,,,,,,,,,,,,,,,,,cat,64,26,silent,red,1354.5235151005909,None,None,1354.5235151005909,None,,,,,,,,,,,,,,,,,,,,,,,,,,,,,,69NC,001,2023_May_03_1521,ExactRep-v3-final,2021.2.3,59.93292284108386,
,,,,,,,,26,0,26,0,,,,,,,,,,,,,,,,,,,,,,,,,,,,,,,,,,,,,,,,,,,,,,,,,,,,,1359.0263180006295,None,,,,,,,,,,,,,,,,,,,,,,,,,,,,,,,,,,,charm,31,27,sing,white,1357.025588400662,None,None,1357.025588400662,None,,,,,,,,,,,,,,,,,,,,,,,,,,,,,,69NC,001,2023_May_03_1521,ExactRep-v3-final,2021.2.3,59.93292284108386,
,,,,,,,,27,0,27,0,,,,,,,,,,,,,,,,,,,,,,,,,,,,,,,,,,,,,,,,,,,,,,,,,,,,,1361.545509800315,None,,,,,,,,,,,,,,,,,,,,,,,,,,,,,,,,,,,garden,59,28,silent,red,1359.5298520000651,None,None,1359.5298520000651,None,,,,,,,,,,,,,,,,,,,,,,,,,,,,,,69NC,001,2023_May_03_1521,ExactRep-v3-final,2021.2.3,59.93292284108386,
,,,,,,,,28,0,28,0,,,,,,,,,,,,,,,,,,,,,,,,,,,,,,,,,,,,,,,,,,,,,,,,,,,,,1364.0644962005317,None,,,,,,,,,,,,,,,,,,,,,,,,,,,,,,,,,,,wife,98,29,aloud,blue,1362.0538658006117,None,None,1362.0538658006117,None,,,,,,,,,,,,,,,,,,,,,,,,,,,,,,69NC,001,2023_May_03_1521,ExactRep-v3-final,2021.2.3,59.93292284108386,
,,,,,,,,29,0,29,0,,,,,,,,,,,,,,,,,,,,,,,,,,,,,,,,,,,,,,,,,,,,,,,,,,,,,1366.56718020048,None,,,,,,,,,,,,,,,,,,,,,,,,,,,,,,,,,,,queen,93,30,aloud,blue,1364.5678633004427,None,None,1364.5678633004427,None,,,,,,,,,,,,,,,,,,,,,,,,,,,,,,69NC,001,2023_May_03_1521,ExactRep-v3-final,2021.2.3,59.93292284108386,
,,,,,,,,30,0,30,0,,,,,,,,,,,,,,,,,,,,,,,,,,,,,,,,,,,,,,,,,,,,,,,,,,,,,1369.086438300088,None,,,,,,,,,,,,,,,,,,,,,,,,,,,,,,,,,,,hide,92,31,aloud,blue,1367.0709453001618,None,None,1367.0709453001618,None,,,,,,,,,,,,,,,,,,,,,,,,,,,,,,69NC,001,2023_May_03_1521,ExactRep-v3-final,2021.2.3,59.93292284108386,
,,,,,,,,31,0,31,0,,,,,,,,,,,,,,,,,,,,,,,,,,,,,,,,,,,,,,,,,,,,,,,,,,,,,1371.5889846999198,None,,,,,,,,,,,,,,,,,,,,,,,,,,,,,,,,,,,air,113,32,aloud,blue,1369.5896191997454,None,None,1369.5896191997454,None,,,,,,,,,,,,,,,,,,,,,,,,,,,,,,69NC,001,2023_May_03_1521,ExactRep-v3-final,2021.2.3,59.93292284108386,
,,,,,,,,32,0,32,0,,,,,,,,,,,,,,,,,,,,,,,,,,,,,,,,,,,,,,,,,,,,,,,,,,,,,1374.0911787999794,None,,,,,,,,,,,,,,,,,,,,,,,,,,,,,,,,,,,fire,47,33,silent,red,1372.0892316000536,None,None,1372.0892316000536,None,,,,,,,,,,,,,,,,,,,,,,,,,,,,,,69NC,001,2023_May_03_1521,ExactRep-v3-final,2021.2.3,59.93292284108386,
,,,,,,,,33,0,33,0,,,,,,,,,,,,,,,,,,,,,,,,,,,,,,,,,,,,,,,,,,,,,,,,,,,,,1376.593872900121,None,,,,,,,,,,,,,,,,,,,,,,,,,,,,,,,,,,,month,72,34,silent,red,1374.5917830001563,None,None,1374.5917830001563,None,,,,,,,,,,,,,,,,,,,,,,,,,,,,,,69NC,001,2023_May_03_1521,ExactRep-v3-final,2021.2.3,59.93292284108386,
,,,,,,,,34,0,34,0,,,,,,,,,,,,,,,,,,,,,,,,,,,,,,,,,,,,,,,,,,,,,,,,,,,,,1379.0963756004348,None,,,,,,,,,,,,,,,,,,,,,,,,,,,,,,,,,,,poet,88,35,aloud,blue,1377.096058299765,None,None,1377.096058299765,None,,,,,,,,,,,,,,,,,,,,,,,,,,,,,,69NC,001,2023_May_03_1521,ExactRep-v3-final,2021.2.3,59.93292284108386,
,,,,,,,,35,0,35,0,,,,,,,,,,,,,,,,,,,,,,,,,,,,,,,,,,,,,,,,,,,,,,,,,,,,,1381.61543409992,None,,,,,,,,,,,,,,,,,,,,,,,,,,,,,,,,,,,blood,115,36,aloud,blue,1379.6051844004542,None,None,1379.6051844004542,None,,,,,,,,,,,,,,,,,,,,,,,,,,,,,,69NC,001,2023_May_03_1521,ExactRep-v3-final,2021.2.3,59.93292284108386,
,,,,,,,,36,0,36,0,,,,,,,,,,,,,,,,,,,,,,,,,,,,,,,,,,,,,,,,,,,,,,,,,,,,,1384.1180162001401,None,,,,,,,,,,,,,,,,,,,,,,,,,,,,,,,,,,,duty,60,37,silent,red,1382.1158798998222,None,None,1382.1158798998222,None,,,,,,,,,,,,,,,,,,,,,,,,,,,,,,69NC,001,2023_May_03_1521,ExactRep-v3-final,2021.2.3,59.93292284108386,
,,,,,,,,37,0,37,0,,,,,,,,,,,,,,,,,,,,,,,,,,,,,,,,,,,,,,,,,,,,,,,,,,,,,1386.6203803997487,None,,,,,,,,,,,,,,,,,,,,,,,,,,,,,,,,,,,animal,57,38,silent,red,1384.6199526004493,None,None,1384.6199526004493,None,,,,,,,,,,,,,,,,,,,,,,,,,,,,,,69NC,001,2023_May_03_1521,ExactRep-v3-final,2021.2.3,59.93292284108386,
,,,,,,,,38,0,38,0,,,,,,,,,,,,,,,,,,,,,,,,,,,,,,,,,,,,,,,,,,,,,,,,,,,,,1389.1230723001063,None,,,,,,,,,,,,,,,,,,,,,,,,,,,,,,,,,,,product,6,39,sing,white,1387.1213100999594,None,None,1387.1213100999594,None,,,,,,,,,,,,,,,,,,,,,,,,,,,,,,69NC,001,2023_May_03_1521,ExactRep-v3-final,2021.2.3,59.93292284108386,
,,,,,,,,39,0,39,0,,,,,,,,,,,,,,,,,,,,,,,,,,,,,,,,,,,,,,,,,,,,,,,,,,,,,1391.6422998998314,None,,,,,,,,,,,,,,,,,,,,,,,,,,,,,,,,,,,thought,38,40,sing,white,1389.6311204005033,None,None,1389.6311204005033,None,,,,,,,,,,,,,,,,,,,,,,,,,,,,,,69NC,001,2023_May_03_1521,ExactRep-v3-final,2021.2.3,59.93292284108386,
,,,,,,,,40,0,40,0,,,,,,,,,,,,,,,,,,,,,,,,,,,,,,,,,,,,,,,,,,,,,,,,,,,,,1394.161520300433,None,,,,,,,,,,,,,,,,,,,,,,,,,,,,,,,,,,,chance,84,41,aloud,blue,1392.1466631004587,None,None,1392.1466631004587,None,,,,,,,,,,,,,,,,,,,,,,,,,,,,,,69NC,001,2023_May_03_1521,ExactRep-v3-final,2021.2.3,59.93292284108386,
,,,,,,,,41,0,41,0,,,,,,,,,,,,,,,,,,,,,,,,,,,,,,,,,,,,,,,,,,,,,,,,,,,,,1396.663761000149,None,,,,,,,,,,,,,,,,,,,,,,,,,,,,,,,,,,,woman,119,42,aloud,blue,1394.6619146000594,None,None,1394.6619146000594,None,,,,,,,,,,,,,,,,,,,,,,,,,,,,,,69NC,001,2023_May_03_1521,ExactRep-v3-final,2021.2.3,59.93292284108386,
,,,,,,,,42,0,42,0,,,,,,,,,,,,,,,,,,,,,,,,,,,,,,,,,,,,,,,,,,,,,,,,,,,,,1399.1832431005314,None,,,,,,,,,,,,,,,,,,,,,,,,,,,,,,,,,,,coin,40,43,silent,red,1397.1677139000967,None,None,1397.1677139000967,None,,,,,,,,,,,,,,,,,,,,,,,,,,,,,,69NC,001,2023_May_03_1521,ExactRep-v3-final,2021.2.3,59.93292284108386,
,,,,,,,,43,0,43,0,,,,,,,,,,,,,,,,,,,,,,,,,,,,,,,,,,,,,,,,,,,,,,,,,,,,,1401.685697500594,None,,,,,,,,,,,,,,,,,,,,,,,,,,,,,,,,,,,wheat,112,44,aloud,blue,1399.685999800451,None,None,1399.685999800451,None,,,,,,,,,,,,,,,,,,,,,,,,,,,,,,69NC,001,2023_May_03_1521,ExactRep-v3-final,2021.2.3,59.93292284108386,
,,,,,,,,44,0,44,0,,,,,,,,,,,,,,,,,,,,,,,,,,,,,,,,,,,,,,,,,,,,,,,,,,,,,1404.204768099822,None,,,,,,,,,,,,,,,,,,,,,,,,,,,,,,,,,,,temple,25,45,sing,white,1402.1895051999018,None,None,1402.1895051999018,None,,,,,,,,,,,,,,,,,,,,,,,,,,,,,,69NC,001,2023_May_03_1521,ExactRep-v3-final,2021.2.3,59.93292284108386,
,,,,,,,,45,0,45,0,,,,,,,,,,,,,,,,,,,,,,,,,,,,,,,,,,,,,,,,,,,,,,,,,,,,,1406.7071128999814,None,,,,,,,,,,,,,,,,,,,,,,,,,,,,,,,,,,,book,28,46,sing,white,1404.7052669003606,None,None,1404.7052669003606,None,,,,,,,,,,,,,,,,,,,,,,,,,,,,,,69NC,001,2023_May_03_1521,ExactRep-v3-final,2021.2.3,59.93292284108386,
,,,,,,,,46,0,46,0,,,,,,,,,,,,,,,,,,,,,,,,,,,,,,,,,,,,,,,,,,,,,,,,,,,,,1409.226469900459,None,,,,,,,,,,,,,,,,,,,,,,,,,,,,,,,,,,,hall,77,47,silent,red,1407.2154119005427,None,None,1407.2154119005427,None,,,,,,,,,,,,,,,,,,,,,,,,,,,,,,69NC,001,2023_May_03_1521,ExactRep-v3-final,2021.2.3,59.93292284108386,
,,,,,,,,47,0,47,0,,,,,,,,,,,,,,,,,,,,,,,,,,,,,,,,,,,,,,,,,,,,,,,,,,,,,1411.745698700659,None,,,,,,,,,,,,,,,,,,,,,,,,,,,,,,,,,,,freedom,41,48,silent,red,1409.7319732997566,None,None,1409.7319732997566,None,,,,,,,,,,,,,,,,,,,,,,,,,,,,,,69NC,001,2023_May_03_1521,ExactRep-v3-final,2021.2.3,59.93292284108386,
,,,,,,,,48,0,48,0,,,,,,,,,,,,,,,,,,,,,,,,,,,,,,,,,,,,,,,,,,,,,,,,,,,,,1414.2648470001295,None,,,,,,,,,,,,,,,,,,,,,,,,,,,,,,,,,,,crime,107,49,aloud,blue,1412.2543476000428,None,None,1412.2543476000428,None,,,,,,,,,,,,,,,,,,,,,,,,,,,,,,69NC,001,2023_May_03_1521,ExactRep-v3-final,2021.2.3,59.93292284108386,
,,,,,,,,49,0,49,0,,,,,,,,,,,,,,,,,,,,,,,,,,,,,,,,,,,,,,,,,,,,,,,,,,,,,1416.7849230999127,None,,,,,,,,,,,,,,,,,,,,,,,,,,,,,,,,,,,style,1,50,sing,white,1414.7738554999232,None,None,1414.7738554999232,None,,,,,,,,,,,,,,,,,,,,,,,,,,,,,,69NC,001,2023_May_03_1521,ExactRep-v3-final,2021.2.3,59.93292284108386,
,,,,,,,,50,0,50,0,,,,,,,,,,,,,,,,,,,,,,,,,,,,,,,,,,,,,,,,,,,,,,,,,,,,,1419.30321510043,None,,,,,,,,,,,,,,,,,,,,,,,,,,,,,,,,,,,party,37,51,sing,white,1417.2917562006041,None,None,1417.2917562006041,None,,,,,,,,,,,,,,,,,,,,,,,,,,,,,,69NC,001,2023_May_03_1521,ExactRep-v3-final,2021.2.3,59.93292284108386,
,,,,,,,,51,0,51,0,,,,,,,,,,,,,,,,,,,,,,,,,,,,,,,,,,,,,,,,,,,,,,,,,,,,,1421.822421300225,None,,,,,,,,,,,,,,,,,,,,,,,,,,,,,,,,,,,excuse,65,52,silent,red,1419.8083046004176,None,None,1419.8083046004176,None,,,,,,,,,,,,,,,,,,,,,,,,,,,,,,69NC,001,2023_May_03_1521,ExactRep-v3-final,2021.2.3,59.93292284108386,
,,,,,,,,52,0,52,0,,,,,,,,,,,,,,,,,,,,,,,,,,,,,,,,,,,,,,,,,,,,,,,,,,,,,1424.3249657005072,None,,,,,,,,,,,,,,,,,,,,,,,,,,,,,,,,,,,chair,48,53,silent,red,1422.3246371001005,None,None,1422.3246371001005,None,,,,,,,,,,,,,,,,,,,,,,,,,,,,,,69NC,001,2023_May_03_1521,ExactRep-v3-final,2021.2.3,59.93292284108386,
,,,,,,,,53,0,53,0,,,,,,,,,,,,,,,,,,,,,,,,,,,,,,,,,,,,,,,,,,,,,,,,,,,,,1426.8441598005593,None,,,,,,,,,,,,,,,,,,,,,,,,,,,,,,,,,,,fate,114,54,aloud,blue,1424.8297167001292,None,None,1424.8297167001292,None,,,,,,,,,,,,,,,,,,,,,,,,,,,,,,69NC,001,2023_May_03_1521,ExactRep-v3-final,2021.2.3,59.93292284108386,
,,,,,,,,54,0,54,0,,,,,,,,,,,,,,,,,,,,,,,,,,,,,,,,,,,,,,,,,,,,,,,,,,,,,1429.3466680999845,None,,,,,,,,,,,,,,,,,,,,,,,,,,,,,,,,,,,flood,61,55,silent,red,1427.3446987001225,None,None,1427.3446987001225,None,,,,,,,,,,,,,,,,,,,,,,,,,,,,,,69NC,001,2023_May_03_1521,ExactRep-v3-final,2021.2.3,59.93292284108386,
,,,,,,,,55,0,55,0,,,,,,,,,,,,,,,,,,,,,,,,,,,,,,,,,,,,,,,,,,,,,,,,,,,,,1431.8656770000234,None,,,,,,,,,,,,,,,,,,,,,,,,,,,,,,,,,,,effort,100,56,aloud,blue,1429.8529962999746,None,None,1429.8529962999746,None,,,,,,,,,,,,,,,,,,,,,,,,,,,,,,69NC,001,2023_May_03_1521,ExactRep-v3-final,2021.2.3,59.93292284108386,
,,,,,,,,56,0,56,0,,,,,,,,,,,,,,,,,,,,,,,,,,,,,,,,,,,,,,,,,,,,,,,,,,,,,1434.384775900282,None,,,,,,,,,,,,,,,,,,,,,,,,,,,,,,,,,,,doctor,101,57,aloud,blue,1432.374698200263,None,None,1432.374698200263,None,,,,,,,,,,,,,,,,,,,,,,,,,,,,,,69NC,001,2023_May_03_1521,ExactRep-v3-final,2021.2.3,59.93292284108386,
,,,,,,,,57,0,57,0,,,,,,,,,,,,,,,,,,,,,,,,,,,,,,,,,,,,,,,,,,,,,,,,,,,,,1436.8873081002384,None,,,,,,,,,,,,,,,,,,,,,,,,,,,,,,,,,,,friend,104,58,aloud,blue,1434.8853368004784,None,None,1434.8853368004784,None,,,,,,,,,,,,,,,,,,,,,,,,,,,,,,69NC,001,2023_May_03_1521,ExactRep-v3-final,2021.2.3,59.93292284108386,
,,,,,,,,58,0,58,0,,,,,,,,,,,,,,,,,,,,,,,,,,,,,,,,,,,,,,,,,,,,,,,,,,,,,1439.390058000572,None,,,,,,,,,,,,,,,,,,,,,,,,,,,,,,,,,,,mercy,67,59,silent,red,1437.3878596005961,None,None,1437.3878596005961,None,,,,,,,,,,,,,,,,,,,,,,,,,,,,,,69NC,001,2023_May_03_1521,ExactRep-v3-final,2021.2.3,59.93292284108386,
,,,,,,,,59,0,59,0,,,,,,,,,,,,,,,,,,,,,,,,,,,,,,,,,,,,,,,,,,,,,,,,,,,,,1441.8925347998738,None,,,,,,,,,,,,,,,,,,,,,,,,,,,,,,,,,,,leader,110,60,aloud,blue,1439.8904907004908,None,None,1439.8904907004908,None,,,,,,,,,,,,,,,,,,,,,,,,,,,,,,69NC,001,2023_May_03_1521,ExactRep-v3-final,2021.2.3,59.93292284108386,
,,,,,,,,60,0,60,0,,,,,,,,,,,,,,,,,,,,,,,,,,,,,,,,,,,,,,,,,,,,,,,,,,,,,1444.3950313003734,None,,,,,,,,,,,,,,,,,,,,,,,,,,,,,,,,,,,door,49,61,silent,red,1442.3951409002766,None,None,1442.3951409002766,None,,,,,,,,,,,,,,,,,,,,,,,,,,,,,,69NC,001,2023_May_03_1521,ExactRep-v3-final,2021.2.3,59.93292284108386,
,,,,,,,,61,0,61,0,,,,,,,,,,,,,,,,,,,,,,,,,,,,,,,,,,,,,,,,,,,,,,,,,,,,,1446.9147537006065,None,,,,,,,,,,,,,,,,,,,,,,,,,,,,,,,,,,,tree,56,62,silent,red,1444.8987939003855,None,None,1444.8987939003855,None,,,,,,,,,,,,,,,,,,,,,,,,,,,,,,69NC,001,2023_May_03_1521,ExactRep-v3-final,2021.2.3,59.93292284108386,
,,,,,,,,62,0,62,0,,,,,,,,,,,,,,,,,,,,,,,,,,,,,,,,,,,,,,,,,,,,,,,,,,,,,1449.4333877004683,None,,,,,,,,,,,,,,,,,,,,,,,,,,,,,,,,,,,meadow,102,63,aloud,blue,1447.4232179000974,None,None,1447.4232179000974,None,,,,,,,,,,,,,,,,,,,,,,,,,,,,,,69NC,001,2023_May_03_1521,ExactRep-v3-final,2021.2.3,59.93292284108386,
,,,,,,,,63,0,63,0,,,,,,,,,,,,,,,,,,,,,,,,,,,,,,,,,,,,,,,,,,,,,,,,,,,,,1451.9359541004524,None,,,,,,,,,,,,,,,,,,,,,,,,,,,,,,,,,,,boy,86,64,aloud,blue,1449.9348002998158,None,None,1449.9348002998158,None,,,,,,,,,,,,,,,,,,,,,,,,,,,,,,69NC,001,2023_May_03_1521,ExactRep-v3-final,2021.2.3,59.93292284108386,
,,,,,,,,64,0,64,0,,,,,,,,,,,,,,,,,,,,,,,,,,,,,,,,,,,,,,,,,,,,,,,,,,,,,1454.45655670017,None,,,,,,,,,,,,,,,,,,,,,,,,,,,,,,,,,,,shock,108,65,aloud,blue,1452.441836600192,None,None,1452.441836600192,None,,,,,,,,,,,,,,,,,,,,,,,,,,,,,,69NC,001,2023_May_03_1521,ExactRep-v3-final,2021.2.3,59.93292284108386,
,,,,,,,,65,0,65,0,,,,,,,,,,,,,,,,,,,,,,,,,,,,,,,,,,,,,,,,,,,,,,,,,,,,,1456.9576769005507,None,,,,,,,,,,,,,,,,,,,,,,,,,,,,,,,,,,,green,66,66,silent,red,1454.9553864002228,None,None,1454.9553864002228,None,,,,,,,,,,,,,,,,,,,,,,,,,,,,,,69NC,001,2023_May_03_1521,ExactRep-v3-final,2021.2.3,59.93292284108386,
,,,,,,,,66,0,66,0,,,,,,,,,,,,,,,,,,,,,,,,,,,,,,,,,,,,,,,,,,,,,,,,,,,,,1459.4766193004325,None,,,,,,,,,,,,,,,,,,,,,,,,,,,,,,,,,,,money,30,67,sing,white,1457.4661269998178,None,None,1457.4661269998178,None,,,,,,,,,,,,,,,,,,,,,,,,,,,,,,69NC,001,2023_May_03_1521,ExactRep-v3-final,2021.2.3,59.93292284108386,
,,,,,,,,67,0,67,0,,,,,,,,,,,,,,,,,,,,,,,,,,,,,,,,,,,,,,,,,,,,,,,,,,,,,1461.9792662998661,None,,,,,,,,,,,,,,,,,,,,,,,,,,,,,,,,,,,owner,20,68,sing,white,1459.979400199838,None,None,1459.979400199838,None,,,,,,,,,,,,,,,,,,,,,,,,,,,,,,69NC,001,2023_May_03_1521,ExactRep-v3-final,2021.2.3,59.93292284108386,
,,,,,,,,68,0,68,0,,,,,,,,,,,,,,,,,,,,,,,,,,,,,,,,,,,,,,,,,,,,,,,,,,,,,1464.4986781999469,None,,,,,,,,,,,,,,,,,,,,,,,,,,,,,,,,,,,dress,116,69,aloud,blue,1462.483063700609,None,None,1462.483063700609,None,,,,,,,,,,,,,,,,,,,,,,,,,,,,,,69NC,001,2023_May_03_1521,ExactRep-v3-final,2021.2.3,59.93292284108386,
,,,,,,,,69,0,69,0,,,,,,,,,,,,,,,,,,,,,,,,,,,,,,,,,,,,,,,,,,,,,,,,,,,,,1467.0220215003937,None,,,,,,,,,,,,,,,,,,,,,,,,,,,,,,,,,,,fact,95,70,aloud,blue,1465.0076648006216,None,None,1465.0076648006216,None,,,,,,,,,,,,,,,,,,,,,,,,,,,,,,69NC,001,2023_May_03_1521,ExactRep-v3-final,2021.2.3,59.93292284108386,
,,,,,,,,70,0,70,0,,,,,,,,,,,,,,,,,,,,,,,,,,,,,,,,,,,,,,,,,,,,,,,,,,,,,1469.5201363004744,None,,,,,,,,,,,,,,,,,,,,,,,,,,,,,,,,,,,fortune,33,71,sing,white,1467.517994900234,None,None,1467.517994900234,None,,,,,,,,,,,,,,,,,,,,,,,,,,,,,,69NC,001,2023_May_03_1521,ExactRep-v3-final,2021.2.3,59.93292284108386,
,,,,,,,,71,0,71,0,,,,,,,,,,,,,,,,,,,,,,,,,,,,,,,,,,,,,,,,,,,,,,,,,,,,,1472.0391401005909,None,,,,,,,,,,,,,,,,,,,,,,,,,,,,,,,,,,,slave,75,72,silent,red,1470.0277519002557,None,None,1470.0277519002557,None,,,,,,,,,,,,,,,,,,,,,,,,,,,,,,69NC,001,2023_May_03_1521,ExactRep-v3-final,2021.2.3,59.93292284108386,
,,,,,,,,72,0,72,0,,,,,,,,,,,,,,,,,,,,,,,,,,,,,,,,,,,,,,,,,,,,,,,,,,,,,1474.5417937003076,None,,,,,,,,,,,,,,,,,,,,,,,,,,,,,,,,,,,seat,83,73,aloud,blue,1472.539624100551,None,None,1472.539624100551,None,,,,,,,,,,,,,,,,,,,,,,,,,,,,,,69NC,001,2023_May_03_1521,ExactRep-v3-final,2021.2.3,59.93292284108386,
,,,,,,,,73,0,73,0,,,,,,,,,,,,,,,,,,,,,,,,,,,,,,,,,,,,,,,,,,,,,,,,,,,,,1477.0443935999647,None,,,,,,,,,,,,,,,,,,,,,,,,,,,,,,,,,,,safety,7,74,sing,white,1475.0437922002748,None,None,1475.0437922002748,None,,,,,,,,,,,,,,,,,,,,,,,,,,,,,,69NC,001,2023_May_03_1521,ExactRep-v3-final,2021.2.3,59.93292284108386,
,,,,,,,,74,0,74,0,,,,,,,,,,,,,,,,,,,,,,,,,,,,,,,,,,,,,,,,,,,,,,,,,,,,,1479.5636972002685,None,,,,,,,,,,,,,,,,,,,,,,,,,,,,,,,,,,,law,63,75,silent,red,1477.5532812997699,None,None,1477.5532812997699,None,,,,,,,,,,,,,,,,,,,,,,,,,,,,,,69NC,001,2023_May_03_1521,ExactRep-v3-final,2021.2.3,59.93292284108386,
,,,,,,,,75,0,75,0,,,,,,,,,,,,,,,,,,,,,,,,,,,,,,,,,,,,,,,,,,,,,,,,,,,,,1482.0827665999532,None,,,,,,,,,,,,,,,,,,,,,,,,,,,,,,,,,,,murder,70,76,silent,red,1480.068108299747,None,None,1480.068108299747,None,,,,,,,,,,,,,,,,,,,,,,,,,,,,,,69NC,001,2023_May_03_1521,ExactRep-v3-final,2021.2.3,59.93292284108386,
,,,,,,,,76,0,76,0,,,,,,,,,,,,,,,,,,,,,,,,,,,,,,,,,,,,,,,,,,,,,,,,,,,,,1484.585234200582,None,,,,,,,,,,,,,,,,,,,,,,,,,,,,,,,,,,,storm,23,77,sing,white,1482.5855892999098,None,None,1482.5855892999098,None,,,,,,,,,,,,,,,,,,,,,,,,,,,,,,69NC,001,2023_May_03_1521,ExactRep-v3-final,2021.2.3,59.93292284108386,
,,,,,,,,77,0,77,0,,,,,,,,,,,,,,,,,,,,,,,,,,,,,,,,,,,,,,,,,,,,,,,,,,,,,1487.1043864004314,None,,,,,,,,,,,,,,,,,,,,,,,,,,,,,,,,,,,shoes,118,78,aloud,blue,1485.0911343004555,None,None,1485.0911343004555,None,,,,,,,,,,,,,,,,,,,,,,,,,,,,,,69NC,001,2023_May_03_1521,ExactRep-v3-final,2021.2.3,59.93292284108386,
,,,,,,,,78,0,78,0,,,,,,,,,,,,,,,,,,,,,,,,,,,,,,,,,,,,,,,,,,,,,,,,,,,,,1489.6067769005895,None,,,,,,,,,,,,,,,,,,,,,,,,,,,,,,,,,,,machine,80,79,aloud,blue,1487.6052280003205,None,None,1487.6052280003205,None,,,,,,,,,,,,,,,,,,,,,,,,,,,,,,69NC,001,2023_May_03_1521,ExactRep-v3-final,2021.2.3,59.93292284108386,
,,,,,,,,79,0,79,0,,,,,,,,,,,,,,,,,,,,,,,,,,,,,,,,,,,,,,,,,,,,,,,,,,,,,1492.125908200629,None,,,,,,,,,,,,,,,,,,,,,,,,,,,,,,,,,,,salary,5,80,sing,white,1490.1132824001834,None,None,1490.1132824001834,None,,,,,,,,,,,,,,,,,,,,,,,,,,,,,,69NC,001,2023_May_03_1521,ExactRep-v3-final,2021.2.3,59.93292284108386,
,,,,,,,,80,0,80,0,,,,,,,,,,,,,,,,,,,,,,,,,,,,,,,,,,,,,,,,,,,,,,,,,,,,,1494.6453026002273,None,,,,,,,,,,,,,,,,,,,,,,,,,,,,,,,,,,,winter,69,81,silent,red,1492.633153400384,None,None,1492.633153400384,None,,,,,,,,,,,,,,,,,,,,,,,,,,,,,,69NC,001,2023_May_03_1521,ExactRep-v3-final,2021.2.3,59.93292284108386,
,,,,,,,,81,0,81,0,,,,,,,,,,,,,,,,,,,,,,,,,,,,,,,,,,,,,,,,,,,,,,,,,,,,,1497.164544700645,None,,,,,,,,,,,,,,,,,,,,,,,,,,,,,,,,,,,anger,10,82,sing,white,1495.1504835002124,None,None,1495.1504835002124,None,,,,,,,,,,,,,,,,,,,,,,,,,,,,,,69NC,001,2023_May_03_1521,ExactRep-v3-final,2021.2.3,59.93292284108386,
,,,,,,,,82,0,82,0,,,,,,,,,,,,,,,,,,,,,,,,,,,,,,,,,,,,,,,,,,,,,,,,,,,,,1499.6667314004153,None,,,,,,,,,,,,,,,,,,,,,,,,,,,,,,,,,,,grass,29,83,sing,white,1497.6647655004635,None,None,1497.6647655004635,None,,,,,,,,,,,,,,,,,,,,,,,,,,,,,,69NC,001,2023_May_03_1521,ExactRep-v3-final,2021.2.3,59.93292284108386,
,,,,,,,,83,0,83,0,,,,,,,,,,,,,,,,,,,,,,,,,,,,,,,,,,,,,,,,,,,,,,,,,,,,,1502.186177100055,None,,,,,,,,,,,,,,,,,,,,,,,,,,,,,,,,,,,square,39,84,silent,red,1500.1775436997414,None,None,1500.1775436997414,None,,,,,,,,,,,,,,,,,,,,,,,,,,,,,,69NC,001,2023_May_03_1521,ExactRep-v3-final,2021.2.3,59.93292284108386,
,,,,,,,,84,0,84,0,,,,,,,,,,,,,,,,,,,,,,,,,,,,,,,,,,,,,,,,,,,,,,,,,,,,,1504.6886560004205,None,,,,,,,,,,,,,,,,,,,,,,,,,,,,,,,,,,,camp,53,85,silent,red,1502.6891994001344,None,None,1502.6891994001344,None,,,,,,,,,,,,,,,,,,,,,,,,,,,,,,69NC,001,2023_May_03_1521,ExactRep-v3-final,2021.2.3,59.93292284108386,
,,,,,,,,85,0,85,0,,,,,,,,,,,,,,,,,,,,,,,,,,,,,,,,,,,,,,,,,,,,,,,,,,,,,1507.2076268000528,None,,,,,,,,,,,,,,,,,,,,,,,,,,,,,,,,,,,valley,46,86,silent,red,1505.193724100478,None,None,1505.193724100478,None,,,,,,,,,,,,,,,,,,,,,,,,,,,,,,69NC,001,2023_May_03_1521,ExactRep-v3-final,2021.2.3,59.93292284108386,
,,,,,,,,86,0,86,0,,,,,,,,,,,,,,,,,,,,,,,,,,,,,,,,,,,,,,,,,,,,,,,,,,,,,1509.7102747000754,None,,,,,,,,,,,,,,,,,,,,,,,,,,,,,,,,,,,fun,91,87,aloud,blue,1507.7081810003147,None,None,1507.7081810003147,None,,,,,,,,,,,,,,,,,,,,,,,,,,,,,,69NC,001,2023_May_03_1521,ExactRep-v3-final,2021.2.3,59.93292284108386,
,,,,,,,,87,0,87,0,,,,,,,,,,,,,,,,,,,,,,,,,,,,,,,,,,,,,,,,,,,,,,,,,,,,,1512.2296882001683,None,,,,,,,,,,,,,,,,,,,,,,,,,,,,,,,,,,,time,52,88,silent,red,1510.21765269991,None,None,1510.21765269991,None,,,,,,,,,,,,,,,,,,,,,,,,,,,,,,69NC,001,2023_May_03_1521,ExactRep-v3-final,2021.2.3,59.93292284108386,
,,,,,,,,88,0,88,0,,,,,,,,,,,,,,,,,,,,,,,,,,,,,,,,,,,,,,,,,,,,,,,,,,,,,1514.7321341000497,None,,,,,,,,,,,,,,,,,,,,,,,,,,,,,,,,,,,child,15,89,sing,white,1512.7311014998704,None,None,1512.7311014998704,None,,,,,,,,,,,,,,,,,,,,,,,,,,,,,,69NC,001,2023_May_03_1521,ExactRep-v3-final,2021.2.3,59.93292284108386,
,,,,,,,,89,0,89,0,,,,,,,,,,,,,,,,,,,,,,,,,,,,,,,,,,,,,,,,,,,,,,,,,,,,,1517.2345452001318,None,,,,,,,,,,,,,,,,,,,,,,,,,,,,,,,,,,,horse,36,90,sing,white,1515.2347314003855,None,None,1515.2347314003855,None,,,,,,,,,,,,,,,,,,,,,,,,,,,,,,69NC,001,2023_May_03_1521,ExactRep-v3-final,2021.2.3,59.93292284108386,
,,,,,,,,90,0,90,0,,,,,,,,,,,,,,,,,,,,,,,,,,,,,,,,,,,,,,,,,,,,,,,,,,,,,1519.7534789005294,None,,,,,,,,,,,,,,,,,,,,,,,,,,,,,,,,,,,diamond,2,91,sing,white,1517.739299500361,None,None,1517.739299500361,None,,,,,,,,,,,,,,,,,,,,,,,,,,,,,,69NC,001,2023_May_03_1521,ExactRep-v3-final,2021.2.3,59.93292284108386,
,,,,,,,,91,0,91,0,,,,,,,,,,,,,,,,,,,,,,,,,,,,,,,,,,,,,,,,,,,,,,,,,,,,,1522.2727335998788,None,,,,,,,,,,,,,,,,,,,,,,,,,,,,,,,,,,,car,85,92,aloud,blue,1520.264012400061,None,None,1520.264012400061,None,,,,,,,,,,,,,,,,,,,,,,,,,,,,,,69NC,001,2023_May_03_1521,ExactRep-v3-final,2021.2.3,59.93292284108386,
,,,,,,,,92,0,92,0,,,,,,,,,,,,,,,,,,,,,,,,,,,,,,,,,,,,,,,,,,,,,,,,,,,,,1524.792082699947,None,,,,,,,,,,,,,,,,,,,,,,,,,,,,,,,,,,,brain,81,93,aloud,blue,1522.7790336003527,None,None,1522.7790336003527,None,,,,,,,,,,,,,,,,,,,,,,,,,,,,,,69NC,001,2023_May_03_1521,ExactRep-v3-final,2021.2.3,59.93292284108386,
,,,,,,,,93,0,93,0,,,,,,,,,,,,,,,,,,,,,,,,,,,,,,,,,,,,,,,,,,,,,,,,,,,,,1527.3113040998578,None,,,,,,,,,,,,,,,,,,,,,,,,,,,,,,,,,,,answer,54,94,silent,red,1525.295895400457,None,None,1525.295895400457,None,,,,,,,,,,,,,,,,,,,,,,,,,,,,,,69NC,001,2023_May_03_1521,ExactRep-v3-final,2021.2.3,59.93292284108386,
,,,,,,,,94,0,94,0,,,,,,,,,,,,,,,,,,,,,,,,,,,,,,,,,,,,,,,,,,,,,,,,,,,,,1529.8137360000983,None,,,,,,,,,,,,,,,,,,,,,,,,,,,,,,,,,,,stone,13,95,sing,white,1527.8141574002802,None,None,1527.8141574002802,None,,,,,,,,,,,,,,,,,,,,,,,,,,,,,,69NC,001,2023_May_03_1521,ExactRep-v3-final,2021.2.3,59.93292284108386,
,,,,,,,,95,0,95,0,,,,,,,,,,,,,,,,,,,,,,,,,,,,,,,,,,,,,,,,,,,,,,,,,,,,,1532.3161888001487,None,,,,,,,,,,,,,,,,,,,,,,,,,,,,,,,,,,,love,68,96,silent,red,1530.3154089003801,None,None,1530.3154089003801,None,,,,,,,,,,,,,,,,,,,,,,,,,,,,,,69NC,001,2023_May_03_1521,ExactRep-v3-final,2021.2.3,59.93292284108386,
,,,,,,,,96,0,96,0,,,,,,,,,,,,,,,,,,,,,,,,,,,,,,,,,,,,,,,,,,,,,,,,,,,,,1534.835290200077,None,,,,,,,,,,,,,,,,,,,,,,,,,,,,,,,,,,,palace,26,97,sing,white,1532.8238575998694,None,None,1532.8238575998694,None,,,,,,,,,,,,,,,,,,,,,,,,,,,,,,69NC,001,2023_May_03_1521,ExactRep-v3-final,2021.2.3,59.93292284108386,
,,,,,,,,97,0,97,0,,,,,,,,,,,,,,,,,,,,,,,,,,,,,,,,,,,,,,,,,,,,,,,,,,,,,1537.3379220999777,None,,,,,,,,,,,,,,,,,,,,,,,,,,,,,,,,,,,ship,62,98,silent,red,1535.335899299942,None,None,1535.335899299942,None,,,,,,,,,,,,,,,,,,,,,,,,,,,,,,69NC,001,2023_May_03_1521,ExactRep-v3-final,2021.2.3,59.93292284108386,
,,,,,,,,98,0,98,0,,,,,,,,,,,,,,,,,,,,,,,,,,,,,,,,,,,,,,,,,,,,,,,,,,,,,1539.8405133998021,None,,,,,,,,,,,,,,,,,,,,,,,,,,,,,,,,,,,moral,99,99,aloud,blue,1537.8398245004937,None,None,1537.8398245004937,None,,,,,,,,,,,,,,,,,,,,,,,,,,,,,,69NC,001,2023_May_03_1521,ExactRep-v3-final,2021.2.3,59.93292284108386,
,,,,,,,,99,0,99,0,,,,,,,,,,,,,,,,,,,,,,,,,,,,,,,,,,,,,,,,,,,,,,,,,,,,,1542.3594752000645,None,,,,,,,,,,,,,,,,,,,,,,,,,,,,,,,,,,,body,42,100,silent,red,1540.3452944997698,None,None,1540.3452944997698,None,,,,,,,,,,,,,,,,,,,,,,,,,,,,,,69NC,001,2023_May_03_1521,ExactRep-v3-final,2021.2.3,59.93292284108386,
,,,,,,,,100,0,100,0,,,,,,,,,,,,,,,,,,,,,,,,,,,,,,,,,,,,,,,,,,,,,,,,,,,,,1544.8787989998236,None,,,,,,,,,,,,,,,,,,,,,,,,,,,,,,,,,,,amount,21,101,sing,white,1542.867267999798,None,None,1542.867267999798,None,,,,,,,,,,,,,,,,,,,,,,,,,,,,,,69NC,001,2023_May_03_1521,ExactRep-v3-final,2021.2.3,59.93292284108386,
,,,,,,,,101,0,101,0,,,,,,,,,,,,,,,,,,,,,,,,,,,,,,,,,,,,,,,,,,,,,,,,,,,,,1547.3813278004527,None,,,,,,,,,,,,,,,,,,,,,,,,,,,,,,,,,,,flesh,50,102,silent,red,1545.3802297003567,None,None,1545.3802297003567,None,,,,,,,,,,,,,,,,,,,,,,,,,,,,,,69NC,001,2023_May_03_1521,ExactRep-v3-final,2021.2.3,59.93292284108386,
,,,,,,,,102,0,102,0,,,,,,,,,,,,,,,,,,,,,,,,,,,,,,,,,,,,,,,,,,,,,,,,,,,,,1549.8836387004703,None,,,,,,,,,,,,,,,,,,,,,,,,,,,,,,,,,,,opinion,97,103,aloud,blue,1547.8833942003548,None,None,1547.8833942003548,None,,,,,,,,,,,,,,,,,,,,,,,,,,,,,,69NC,001,2023_May_03_1521,ExactRep-v3-final,2021.2.3,59.93292284108386,
,,,,,,,,103,0,103,0,,,,,,,,,,,,,,,,,,,,,,,,,,,,,,,,,,,,,,,,,,,,,,,,,,,,,1552.4028583001345,None,,,,,,,,,,,,,,,,,,,,,,,,,,,,,,,,,,,factory,35,104,sing,white,1550.3874580003321,None,None,1550.3874580003321,None,,,,,,,,,,,,,,,,,,,,,,,,,,,,,,69NC,001,2023_May_03_1521,ExactRep-v3-final,2021.2.3,59.93292284108386,
,,,,,,,,104,0,104,0,,,,,,,,,,,,,,,,,,,,,,,,,,,,,,,,,,,,,,,,,,,,,,,,,,,,,1554.922178500332,None,,,,,,,,,,,,,,,,,,,,,,,,,,,,,,,,,,,apple,90,105,aloud,blue,1552.910139400512,None,None,1552.910139400512,None,,,,,,,,,,,,,,,,,,,,,,,,,,,,,,69NC,001,2023_May_03_1521,ExactRep-v3-final,2021.2.3,59.93292284108386,
,,,,,,,,105,0,105,0,,,,,,,,,,,,,,,,,,,,,,,,,,,,,,,,,,,,,,,,,,,,,,,,,,,,,1557.4244542000815,None,,,,,,,,,,,,,,,,,,,,,,,,,,,,,,,,,,,soul,22,106,sing,white,1555.4225312005728,None,None,1555.4225312005728,None,,,,,,,,,,,,,,,,,,,,,,,,,,,,,,69NC,001,2023_May_03_1521,ExactRep-v3-final,2021.2.3,59.93292284108386,
,,,,,,,,106,0,106,0,,,,,,,,,,,,,,,,,,,,,,,,,,,,,,,,,,,,,,,,,,,,,,,,,,,,,1559.9273124998435,None,,,,,,,,,,,,,,,,,,,,,,,,,,,,,,,,,,,method,11,107,sing,white,1557.925290199928,None,None,1557.925290199928,None,,,,,,,,,,,,,,,,,,,,,,,,,,,,,,69NC,001,2023_May_03_1521,ExactRep-v3-final,2021.2.3,59.93292284108386,
,,,,,,,,107,0,107,0,,,,,,,,,,,,,,,,,,,,,,,,,,,,,,,,,,,,,,,,,,,,,,,,,,,,,1562.4463626006618,None,,,,,,,,,,,,,,,,,,,,,,,,,,,,,,,,,,,pupil,111,108,aloud,blue,1560.4371501998976,None,None,1560.4371501998976,None,,,,,,,,,,,,,,,,,,,,,,,,,,,,,,69NC,001,2023_May_03_1521,ExactRep-v3-final,2021.2.3,59.93292284108386,
,,,,,,,,108,0,108,0,,,,,,,,,,,,,,,,,,,,,,,,,,,,,,,,,,,,,,,,,,,,,,,,,,,,,1564.9489777004346,None,,,,,,,,,,,,,,,,,,,,,,,,,,,,,,,,,,,lad,89,109,aloud,blue,1562.946827000007,None,None,1562.946827000007,None,,,,,,,,,,,,,,,,,,,,,,,,,,,,,,69NC,001,2023_May_03_1521,ExactRep-v3-final,2021.2.3,59.93292284108386,
,,,,,,,,109,0,109,0,,,,,,,,,,,,,,,,,,,,,,,,,,,,,,,,,,,,,,,,,,,,,,,,,,,,,1567.4513602005318,None,,,,,,,,,,,,,,,,,,,,,,,,,,,,,,,,,,,lord,96,110,aloud,blue,1565.44945750013,None,None,1565.44945750013,None,,,,,,,,,,,,,,,,,,,,,,,,,,,,,,69NC,001,2023_May_03_1521,ExactRep-v3-final,2021.2.3,59.93292284108386,
,,,,,,,,110,0,110,0,,,,,,,,,,,,,,,,,,,,,,,,,,,,,,,,,,,,,,,,,,,,,,,,,,,,,1569.9558219006285,None,,,,,,,,,,,,,,,,,,,,,,,,,,,,,,,,,,,breast,27,111,sing,white,1567.9530055997893,None,None,1567.9530055997893,None,,,,,,,,,,,,,,,,,,,,,,,,,,,,,,69NC,001,2023_May_03_1521,ExactRep-v3-final,2021.2.3,59.93292284108386,
,,,,,,,,111,0,111,0,,,,,,,,,,,,,,,,,,,,,,,,,,,,,,,,,,,,,,,,,,,,,,,,,,,,,1572.4728955999017,None,,,,,,,,,,,,,,,,,,,,,,,,,,,,,,,,,,,bar,74,112,silent,red,1570.4710661005229,None,None,1570.4710661005229,None,,,,,,,,,,,,,,,,,,,,,,,,,,,,,,69NC,001,2023_May_03_1521,ExactRep-v3-final,2021.2.3,59.93292284108386,
,,,,,,,,112,0,112,0,,,,,,,,,,,,,,,,,,,,,,,,,,,,,,,,,,,,,,,,,,,,,,,,,,,,,1574.9921594001353,None,,,,,,,,,,,,,,,,,,,,,,,,,,,,,,,,,,,dollar,76,113,silent,red,1572.9778527999297,None,None,1572.9778527999297,None,,,,,,,,,,,,,,,,,,,,,,,,,,,,,,69NC,001,2023_May_03_1521,ExactRep-v3-final,2021.2.3,59.93292284108386,
,,,,,,,,113,0,113,0,,,,,,,,,,,,,,,,,,,,,,,,,,,,,,,,,,,,,,,,,,,,,,,,,,,,,1577.4947899999097,None,,,,,,,,,,,,,,,,,,,,,,,,,,,,,,,,,,,woods,105,114,aloud,blue,1575.4927415000275,None,None,1575.4927415000275,None,,,,,,,,,,,,,,,,,,,,,,,,,,,,,,69NC,001,2023_May_03_1521,ExactRep-v3-final,2021.2.3,59.93292284108386,
,,,,,,,,114,0,114,0,,,,,,,,,,,,,,,,,,,,,,,,,,,,,,,,,,,,,,,,,,,,,,,,,,,,,1580.0136237004772,None,,,,,,,,,,,,,,,,,,,,,,,,,,,,,,,,,,,devil,87,115,aloud,blue,1577.9992541000247,None,None,1577.9992541000247,None,,,,,,,,,,,,,,,,,,,,,,,,,,,,,,69NC,001,2023_May_03_1521,ExactRep-v3-final,2021.2.3,59.93292284108386,
,,,,,,,,115,0,115,0,,,,,,,,,,,,,,,,,,,,,,,,,,,,,,,,,,,,,,,,,,,,,,,,,,,,,1582.5332062002271,None,,,,,,,,,,,,,,,,,,,,,,,,,,,,,,,,,,,circle,43,116,silent,red,1580.5175654999912,None,None,1580.5175654999912,None,,,,,,,,,,,,,,,,,,,,,,,,,,,,,,69NC,001,2023_May_03_1521,ExactRep-v3-final,2021.2.3,59.93292284108386,
,,,,,,,,116,0,116,0,,,,,,,,,,,,,,,,,,,,,,,,,,,,,,,,,,,,,,,,,,,,,,,,,,,,,1585.0356953004375,None,,,,,,,,,,,,,,,,,,,,,,,,,,,,,,,,,,,death,117,117,aloud,blue,1583.0359999006614,None,None,1583.0359999006614,None,,,,,,,,,,,,,,,,,,,,,,,,,,,,,,69NC,001,2023_May_03_1521,ExactRep-v3-final,2021.2.3,59.93292284108386,
,,,,,,,,117,0,117,0,,,,,,,,,,,,,,,,,,,,,,,,,,,,,,,,,,,,,,,,,,,,,,,,,,,,,1587.5398447997868,None,,,,,,,,,,,,,,,,,,,,,,,,,,,,,,,,,,,colony,79,118,sing,white,1585.5359722999856,None,None,1585.5359722999856,None,,,,,,,,,,,,,,,,,,,,,,,,,,,,,,69NC,001,2023_May_03_1521,ExactRep-v3-final,2021.2.3,59.93292284108386,
,,,,,,,,118,0,118,0,,,,,,,,,,,,,,,,,,,,,,,,,,,,,,,,,,,,,,,,,,,,,,,,,,,,,1590.0820863004774,None,,,,,,,,,,,,,,,,,,,,,,,,,,,,,,,,,,,army,55,119,silent,red,1588.061252700165,None,None,1588.061252700165,None,,,,,,,,,,,,,,,,,,,,,,,,,,,,,,69NC,001,2023_May_03_1521,ExactRep-v3-final,2021.2.3,59.93292284108386,
,,,,,,,,119,0,119,0,,,,,,,,,,,,,,,,,,,,,,,,,,,,,,,,,,,,,,,,,,,,,,,,,,,,,1592.576334300451,None,,,,,,,,,,,,,,,,,,,,,,,,,,,,,,,,,,,event,9,120,sing,white,1590.5743403006345,None,None,1590.5743403006345,None,,,,,,,,,,,,,,,,,,,,,,,,,,,,,,69NC,001,2023_May_03_1521,ExactRep-v3-final,2021.2.3,59.93292284108386,
,,,,,,,,,,,,,,,,,,,,,,,,,,,,,,,,,,,,,,,,,,,,,,,,,,,,,,,,,,,,,,,,,,,,,,,,,,,,,,,,,,,,,,,,,,,,,,,,,,,,,,,,,,,,,,1593.0786070004106,None,space,1.0689608994871378,1603.0548927001655,None,,,,,,,,,,,,,,,,,,,,,,,,69NC,001,2023_May_03_1521,ExactRep-v3-final,2021.2.3,59.93292284108386,
,,,,,,,,,,,,,,,,,,,,,,,,,,,,,,,,,,,,,,,,,,,,,,,,,,,,,,,,,,,,,,,,,,,,,,,,,,,,,,,,,,,,,,,,,,,,,,,,,,,,,,,,,,,,,,,,,,,,1604.139964000322,None,space,27.647860100492835,1614.116015800275,None,,,,,,,,,,,,,,,,,,69NC,001,2023_May_03_1521,ExactRep-v3-final,2021.2.3,59.93292284108386,
,,,,,,,,,,,,0,0,0,0,,,,,,,,,,,,,,,,,,,,,,,,,,,,,,,,,,,,,,,,,,,,,,,,,1654.0211808998138,None,,,,,,,,,,,,,,,,,,,,,,,,,,,,,,,,,,,,,,,,,,,,,,,,,,,,,,,,,green,66,1,silent,old,yellow,1642.3132172003388,None,y,1642.3132172003388,None,"['y', 'return']","[9.554145500063896, 11.674232000485063]",1642.3132172003388,None,,,69NC,001,2023_May_03_1521,ExactRep-v3-final,2021.2.3,59.93292284108386,
,,,,,,,,,,,,1,0,1,0,,,,,,,,,,,,,,,,,,,,,,,,,,,,,,,,,,,,,,,,,,,,,,,,,1658.5255944998935,None,,,,,,,,,,,,,,,,,,,,,,,,,,,,,,,,,,,,,,,,,,,,,,,,,,,,,,,,,thought,38,2,sing,old,yellow,1654.5282690003514,None,y,1654.5282690003514,None,"['y', 'return']","[2.2353207003325224, 3.955240400508046]",1654.5282690003514,None,,,69NC,001,2023_May_03_1521,ExactRep-v3-final,2021.2.3,59.93292284108386,
,,,,,,,,,,,,2,0,2,0,,,,,,,,,,,,,,,,,,,,,,,,,,,,,,,,,,,,,,,,,,,,,,,,,1662.8466750001535,None,,,,,,,,,,,,,,,,,,,,,,,,,,,,,,,,,,,,,,,,,,,,,,,,,,,,,,,,,cost,73,3,silent,old,yellow,1659.0340807000175,None,n,1659.0340807000175,None,"['n', 'return']","[3.281448899768293, 3.76939080003649]",1659.0340807000175,None,,,69NC,001,2023_May_03_1521,ExactRep-v3-final,2021.2.3,59.93292284108386,
,,,,,,,,,,,,3,0,3,0,,,,,,,,,,,,,,,,,,,,,,,,,,,,,,,,,,,,,,,,,,,,,,,,,1665.6660747006536,None,,,,,,,,,,,,,,,,,,,,,,,,,,,,,,,,,,,,,,,,,,,,,,,,,,,,,,,,,sugar,78,4,silent,old,yellow,1663.35657550022,None,n,1663.35657550022,None,"['n', 'return']","[1.4232651004567742, 2.2628969000652432]",1663.35657550022,None,,,69NC,001,2023_May_03_1521,ExactRep-v3-final,2021.2.3,59.93292284108386,
,,,,,,,,,,,,4,0,4,0,,,,,,,,,,,,,,,,,,,,,,,,,,,,,,,,,,,,,,,,,,,,,,,,,1668.9860589997843,None,,,,,,,,,,,,,,,,,,,,,,,,,,,,,,,,,,,,,,,,,,,,,,,,,,,,,,,,,child,15,5,sing,old,yellow,1666.173257600516,None,y,1666.173257600516,None,"['y', 'return']","[2.302269099280238, 2.7663757000118494]",1666.173257600516,None,,,69NC,001,2023_May_03_1521,ExactRep-v3-final,2021.2.3,59.93292284108386,
,,,,,,,,,,,,5,0,5,0,,,,,,,,,,,,,,,,,,,,,,,,,,,,,,,,,,,,,,,,,,,,,,,,,1676.4270703000948,None,,,,,,,,,,,,,,,,,,,,,,,,,,,,,,,,,,,,,,,,,,,,,,,,,,,,,,,,,seat,83,6,aloud,old,yellow,1669.4953770004213,None,y,1669.4953770004213,None,"['y', 'return']","[6.060364699922502, 6.900197699666023]",1669.4953770004213,None,,,69NC,001,2023_May_03_1521,ExactRep-v3-final,2021.2.3,59.93292284108386,
,,,,,,,,,,,,6,0,6,0,,,,,,,,,,,,,,,,,,,,,,,,,,,,,,,,,,,,,,,,,,,,,,,,,1679.1297046002,None,,,,,,,,,,,,,,,,,,,,,,,,,,,,,,,,,,,,,,,,,,,,,,,,,,,,,,,,,home,3,7,sing,old,yellow,1676.9359624003991,None,y,1676.9359624003991,None,"['y', 'return']","[1.7958193998783827, 2.1556028993800282]",1676.9359624003991,None,,,69NC,001,2023_May_03_1521,ExactRep-v3-final,2021.2.3,59.93292284108386,
,,,,,,,,,,,,7,0,7,0,,,,,,,,,,,,,,,,,,,,,,,,,,,,,,,,,,,,,,,,,,,,,,,,,1682.3662200998515,None,,,,,,,,,,,,,,,,,,,,,,,,,,,,,,,,,,,,,,,,,,,,,,,,,,,,,,,,,hide,92,8,aloud,old,yellow,1679.6353039005771,None,y,1679.6353039005771,None,"['y', 'return']","[2.368217400275171, 2.6881969003006816]",1679.6353039005771,None,,,69NC,001,2023_May_03_1521,ExactRep-v3-final,2021.2.3,59.93292284108386,
,,,,,,,,,,,,8,0,8,0,,,,,,,,,,,,,,,,,,,,,,,,,,,,,,,,,,,,,,,,,,,,,,,,,1685.2857689000666,None,,,,,,,,,,,,,,,,,,,,,,,,,,,,,,,,,,,,,,,,,,,,,,,,,,,,,,,,,cash,128,9,silent,new,yellow,1682.874996200204,None,n,1682.874996200204,None,"['n', 'return']","[1.472812400199473, 2.3685559006407857]",1682.874996200204,None,,,69NC,001,2023_May_03_1521,ExactRep-v3-final,2021.2.3,59.93292284108386,
,,,,,,,,,,,,9,0,9,0,,,,,,,,,,,,,,,,,,,,,,,,,,,,,,,,,,,,,,,,,,,,,,,,,1688.6223621005192,None,,,,,,,,,,,,,,,,,,,,,,,,,,,,,,,,,,,,,,,,,,,,,,,,,,,,,,,,,house,206,10,aloud,new,yellow,1685.7954660002142,None,n,1685.7954660002142,None,"['n', 'return']","[2.296054200269282, 2.7840209007263184]",1685.7954660002142,None,,,69NC,001,2023_May_03_1521,ExactRep-v3-final,2021.2.3,59.93292284108386,
,,,,,,,,,,,,10,0,10,0,,,,,,,,,,,,,,,,,,,,,,,,,,,,,,,,,,,,,,,,,,,,,,,,,1691.4252700004727,None,,,,,,,,,,,,,,,,,,,,,,,,,,,,,,,,,,,,,,,,,,,,,,,,,,,,,,,,,window,165,11,sing,new,yellow,1689.134824000299,None,y,1689.134824000299,None,"['y', 'return']","[1.8287228997796774, 2.2526746997609735]",1689.134824000299,None,,,69NC,001,2023_May_03_1521,ExactRep-v3-final,2021.2.3,59.93292284108386,
,,,,,,,,,,,,11,0,11,0,,,,,,,,,,,,,,,,,,,,,,,,,,,,,,,,,,,,,,,,,,,,,,,,,1695.2289594998583,None,,,,,,,,,,,,,,,,,,,,,,,,,,,,,,,,,,,,,,,,,,,,,,,,,,,,,,,,,speech,4,12,sing,old,yellow,1691.9443239001557,None,y,1691.9443239001557,None,"['y', 'return']","[1.7151667000725865, 3.243196500465274]",1691.9443239001557,None,,,69NC,001,2023_May_03_1521,ExactRep-v3-final,2021.2.3,59.93292284108386,
,,,,,,,,,,,,12,0,12,0,,,,,,,,,,,,,,,,,,,,,,,,,,,,,,,,,,,,,,,,,,,,,,,,,1697.4980650004,None,,,,,,,,,,,,,,,,,,,,,,,,,,,,,,,,,,,,,,,,,,,,,,,,,,,,,,,,,cattle,218,13,aloud,new,yellow,1695.7383366003633,None,n,1695.7383366003633,None,"['n', 'return']","[1.3213889999315143, 1.7132052006199956]",1695.7383366003633,None,,,69NC,001,2023_May_03_1521,ExactRep-v3-final,2021.2.3,59.93292284108386,
,,,,,,,,,,,,13,0,13,0,,,,,,,,,,,,,,,,,,,,,,,,,,,,,,,,,,,,,,,,,,,,,,,,,1703.2719216998667,None,,,,,,,,,,,,,,,,,,,,,,,,,,,,,,,,,,,,,,,,,,,,,,,,,,,,,,,,,fact,95,14,aloud,old,yellow,1698.0139743005857,None,n,1698.0139743005857,None,"['n', 'return']","[4.061478899791837, 5.213605999946594]",1698.0139743005857,None,,,69NC,001,2023_May_03_1521,ExactRep-v3-final,2021.2.3,59.93292284108386,
,,,,,,,,,,,,14,0,14,0,,,,,,,,,,,,,,,,,,,,,,,,,,,,,,,,,,,,,,,,,,,,,,,,,1705.3558045998216,None,,,,,,,,,,,,,,,,,,,,,,,,,,,,,,,,,,,,,,,,,,,,,,,,,,,,,,,,,history,8,15,sing,old,yellow,1703.7747136000544,None,y,1703.7747136000544,None,"['y', 'return']","[1.0452137002721429, 1.5488708997145295]",1703.7747136000544,None,,,69NC,001,2023_May_03_1521,ExactRep-v3-final,2021.2.3,59.93292284108386,
,,,,,,,,,,,,15,0,15,0,,,,,,,,,,,,,,,,,,,,,,,,,,,,,,,,,,,,,,,,,,,,,,,,,1708.475542199798,None,,,,,,,,,,,,,,,,,,,,,,,,,,,,,,,,,,,,,,,,,,,,,,,,,,,,,,,,,passion,207,16,sing,new,yellow,1705.867199100554,None,y,1705.867199100554,None,"['y', 'return']","[1.0083717005327344, 2.5682812007144094]",1705.867199100554,None,,,69NC,001,2023_May_03_1521,ExactRep-v3-final,2021.2.3,59.93292284108386,
,,,,,,,,,,,,16,0,16,0,,,,,,,,,,,,,,,,,,,,,,,,,,,,,,,,,,,,,,,,,,,,,,,,,1712.0123781003058,None,,,,,,,,,,,,,,,,,,,,,,,,,,,,,,,,,,,,,,,,,,,,,,,,,,,,,,,,,charm,31,17,sing,old,yellow,1708.983859400265,None,n,1708.983859400265,None,"['n', 'return']","[2.003710899502039, 2.9957600003108382]",1708.983859400265,None,,,69NC,001,2023_May_03_1521,ExactRep-v3-final,2021.2.3,59.93292284108386,
,,,,,,,,,,,,17,0,17,0,,,,,,,,,,,,,,,,,,,,,,,,,,,,,,,,,,,,,,,,,,,,,,,,,1716.5838283998892,None,,,,,,,,,,,,,,,,,,,,,,,,,,,,,,,,,,,,,,,,,,,,,,,,,,,,,,,,,vision,195,18,sing,new,yellow,1712.5258827004582,None,n,1712.5258827004582,None,"['backspace', 'n', 'return']","[1.2297844998538494, 3.5018980000168085, 4.02185079921037]",1712.5258827004582,None,,,69NC,001,2023_May_03_1521,ExactRep-v3-final,2021.2.3,59.93292284108386,
,,,,,,,,,,,,18,0,18,0,,,,,,,,,,,,,,,,,,,,,,,,,,,,,,,,,,,,,,,,,,,,,,,,,1719.2530081002042,None,,,,,,,,,,,,,,,,,,,,,,,,,,,,,,,,,,,,,,,,,,,,,,,,,,,,,,,,,mercy,67,19,silent,old,yellow,1717.0936088003218,None,y,1717.0936088003218,None,"['y', 'return']","[1.7019130000844598, 2.1179662998765707]",1717.0936088003218,None,,,69NC,001,2023_May_03_1521,ExactRep-v3-final,2021.2.3,59.93292284108386,
,,,,,,,,,,,,19,0,19,0,,,,,,,,,,,,,,,,,,,,,,,,,,,,,,,,,,,,,,,,,,,,,,,,,1722.606309500523,None,,,,,,,,,,,,,,,,,,,,,,,,,,,,,,,,,,,,,,,,,,,,,,,,,,,,,,,,,cottage,224,20,aloud,new,yellow,1719.7730619003996,None,y,1719.7730619003996,None,"['y', 'return']","[2.2384663997218013, 2.798471299931407]",1719.7730619003996,None,,,69NC,001,2023_May_03_1521,ExactRep-v3-final,2021.2.3,59.93292284108386,
,,,,,,,,,,,,20,0,20,0,,,,,,,,,,,,,,,,,,,,,,,,,,,,,,,,,,,,,,,,,,,,,,,,,1725.8762205000967,None,,,,,,,,,,,,,,,,,,,,,,,,,,,,,,,,,,,,,,,,,,,,,,,,,,,,,,,,,letter,205,21,sing,new,yellow,1723.1143404999748,None,y,1723.1143404999748,None,"['y', 'return']","[2.3130762996152043, 2.7291695000603795]",1723.1143404999748,None,,,69NC,001,2023_May_03_1521,ExactRep-v3-final,2021.2.3,59.93292284108386,
,,,,,,,,,,,,21,0,21,0,,,,,,,,,,,,,,,,,,,,,,,,,,,,,,,,,,,,,,,,,,,,,,,,,1733.5839959001169,None,,,,,,,,,,,,,,,,,,,,,,,,,,,,,,,,,,,,,,,,,,,,,,,,,,,,,,,,,effort,100,22,aloud,old,yellow,1726.3872102005407,None,y,1726.3872102005407,None,"['y', 'return']","[6.816625099629164, 7.160382599569857]",1726.3872102005407,None,,,69NC,001,2023_May_03_1521,ExactRep-v3-final,2021.2.3,59.93292284108386,
,,,,,,,,,,,,22,0,22,0,,,,,,,,,,,,,,,,,,,,,,,,,,,,,,,,,,,,,,,,,,,,,,,,,1737.8882712004706,None,,,,,,,,,,,,,,,,,,,,,,,,,,,,,,,,,,,,,,,,,,,,,,,,,,,,,,,,,idea,141,23,silent,new,yellow,1734.0906190006062,None,y,1734.0906190006062,None,"['n', 'backspace', 'y', 'return']","[1.544947899878025, 2.6409730995073915, 3.480944499373436, 3.760973699390888]",1734.0906190006062,None,,,69NC,001,2023_May_03_1521,ExactRep-v3-final,2021.2.3,59.93292284108386,
,,,,,,,,,,,,23,0,23,0,,,,,,,,,,,,,,,,,,,,,,,,,,,,,,,,,,,,,,,,,,,,,,,,,1739.740154599771,None,,,,,,,,,,,,,,,,,,,,,,,,,,,,,,,,,,,,,,,,,,,,,,,,,,,,,,,,,dawn,169,24,sing,new,yellow,1738.403253399767,None,n,1738.403253399767,None,"['n', 'return']","[0.9520886996760964, 1.3041369002312422]",1738.403253399767,None,,,69NC,001,2023_May_03_1521,ExactRep-v3-final,2021.2.3,59.93292284108386,
,,,,,,,,,,,,24,0,24,0,,,,,,,,,,,,,,,,,,,,,,,,,,,,,,,,,,,,,,,,,,,,,,,,,1743.5941812004894,None,,,,,,,,,,,,,,,,,,,,,,,,,,,,,,,,,,,,,,,,,,,,,,,,,,,,,,,,,disease,172,25,aloud,new,yellow,1740.2483247006312,None,n,1740.2483247006312,None,"['n', 'backspace', 'n', 'return']","[1.2673735991120338, 1.9075261997058988, 2.5796213997527957, 3.307291499339044]",1740.2483247006312,None,,,69NC,001,2023_May_03_1521,ExactRep-v3-final,2021.2.3,59.93292284108386,
,,,,,,,,,,,,25,0,25,0,,,,,,,,,,,,,,,,,,,,,,,,,,,,,,,,,,,,,,,,,,,,,,,,,1745.51263500005,None,,,,,,,,,,,,,,,,,,,,,,,,,,,,,,,,,,,,,,,,,,,,,,,,,,,,,,,,,fortune,33,26,sing,old,yellow,1744.1051782006398,None,y,1744.1051782006398,None,"['y', 'return']","[1.0345513997599483, 1.3704292997717857]",1744.1051782006398,None,,,69NC,001,2023_May_03_1521,ExactRep-v3-final,2021.2.3,59.93292284108386,
,,,,,,,,,,,,26,0,26,0,,,,,,,,,,,,,,,,,,,,,,,,,,,,,,,,,,,,,,,,,,,,,,,,,1747.431155600585,None,,,,,,,,,,,,,,,,,,,,,,,,,,,,,,,,,,,,,,,,,,,,,,,,,,,,,,,,,quality,150,27,silent,new,yellow,1746.0293244002387,None,n,1746.0293244002387,None,"['n', 'return']","[1.014393899589777, 1.3662550998851657]",1746.0293244002387,None,,,69NC,001,2023_May_03_1521,ExactRep-v3-final,2021.2.3,59.93292284108386,
,,,,,,,,,,,,27,0,27,0,,,,,,,,,,,,,,,,,,,,,,,,,,,,,,,,,,,,,,,,,,,,,,,,,1749.1162943001837,None,,,,,,,,,,,,,,,,,,,,,,,,,,,,,,,,,,,,,,,,,,,,,,,,,,,,,,,,,colony,79,28,sing,old,yellow,1747.9460572004318,None,y,1747.9460572004318,None,"['y', 'return']","[0.761608399450779, 1.129547500051558]",1747.9460572004318,None,,,69NC,001,2023_May_03_1521,ExactRep-v3-final,2021.2.3,59.93292284108386,
,,,,,,,,,,,,28,0,28,0,,,,,,,,,,,,,,,,,,,,,,,,,,,,,,,,,,,,,,,,,,,,,,,,,1750.8512062001973,None,,,,,,,,,,,,,,,,,,,,,,,,,,,,,,,,,,,,,,,,,,,,,,,,,,,,,,,,,death,117,29,aloud,old,yellow,1749.6260278001428,None,y,1749.6260278001428,None,"['y', 'return']","[0.8495593992993236, 1.1775350999087095]",1749.6260278001428,None,,,69NC,001,2023_May_03_1521,ExactRep-v3-final,2021.2.3,59.93292284108386,
,,,,,,,,,,,,29,0,29,0,,,,,,,,,,,,,,,,,,,,,,,,,,,,,,,,,,,,,,,,,,,,,,,,,1752.7698472002521,None,,,,,,,,,,,,,,,,,,,,,,,,,,,,,,,,,,,,,,,,,,,,,,,,,,,,,,,,,leader,110,30,aloud,old,yellow,1751.3584467004985,None,y,1751.3584467004985,None,"['y', 'return']","[0.9090964002534747, 1.3731487998738885]",1751.3584467004985,None,,,69NC,001,2023_May_03_1521,ExactRep-v3-final,2021.2.3,59.93292284108386,
,,,,,,,,,,,,30,0,30,0,,,,,,,,,,,,,,,,,,,,,,,,,,,,,,,,,,,,,,,,,,,,,,,,,1755.2223075004295,None,,,,,,,,,,,,,,,,,,,,,,,,,,,,,,,,,,,,,,,,,,,,,,,,,,,,,,,,,present,146,31,silent,new,yellow,1753.280028000474,None,n,1753.280028000474,None,"['n', 'return']","[1.5555277997627854, 1.9074403997510672]",1753.280028000474,None,,,69NC,001,2023_May_03_1521,ExactRep-v3-final,2021.2.3,59.93292284108386,
,,,,,,,,,,,,31,0,31,0,,,,,,,,,,,,,,,,,,,,,,,,,,,,,,,,,,,,,,,,,,,,,,,,,1757.3254073001444,None,,,,,,,,,,,,,,,,,,,,,,,,,,,,,,,,,,,,,,,,,,,,,,,,,,,,,,,,,priest,126,32,silent,new,yellow,1755.7323428001255,None,n,1755.7323428001255,None,"['n', 'return']","[1.1512790005654097, 1.5512373996898532]",1755.7323428001255,None,,,69NC,001,2023_May_03_1521,ExactRep-v3-final,2021.2.3,59.93292284108386,
,,,,,,,,,,,,32,0,32,0,,,,,,,,,,,,,,,,,,,,,,,,,,,,,,,,,,,,,,,,,,,,,,,,,1760.6610280005261,None,,,,,,,,,,,,,,,,,,,,,,,,,,,,,,,,,,,,,,,,,,,,,,,,,,,,,,,,,ocean,231,33,sing,new,yellow,1757.834367999807,None,y,1757.834367999807,None,"['y', 'return']","[2.2814217004925013, 2.7932108007371426]",1757.834367999807,None,,,69NC,001,2023_May_03_1521,ExactRep-v3-final,2021.2.3,59.93292284108386,
,,,,,,,,,,,,33,0,33,0,,,,,,,,,,,,,,,,,,,,,,,,,,,,,,,,,,,,,,,,,,,,,,,,,1765.785223999992,None,,,,,,,,,,,,,,,,,,,,,,,,,,,,,,,,,,,,,,,,,,,,,,,,,,,,,,,,,sea,161,34,sing,new,yellow,1761.1669746004045,None,n,1761.1669746004045,None,"['n', 'return']","[4.236760400235653, 4.580554899759591]",1761.1669746004045,None,,,69NC,001,2023_May_03_1521,ExactRep-v3-final,2021.2.3,59.93292284108386,
,,,,,,,,,,,,34,0,34,0,,,,,,,,,,,,,,,,,,,,,,,,,,,,,,,,,,,,,,,,,,,,,,,,,1767.6849504997954,None,,,,,,,,,,,,,,,,,,,,,,,,,,,,,,,,,,,,,,,,,,,,,,,,,,,,,,,,,hotel,180,35,aloud,new,yellow,1766.3070820001885,None,y,1766.3070820001885,None,"['y', 'return']","[0.976757200434804, 1.3447471000254154]",1766.3070820001885,None,,,69NC,001,2023_May_03_1521,ExactRep-v3-final,2021.2.3,59.93292284108386,
,,,,,,,,,,,,35,0,35,0,,,,,,,,,,,,,,,,,,,,,,,,,,,,,,,,,,,,,,,,,,,,,,,,,1777.594677200541,None,,,,,,,,,,,,,,,,,,,,,,,,,,,,,,,,,,,,,,,,,,,,,,,,,,,,,,,,,city,215,36,sing,new,yellow,1768.19778569974,None,y,1768.19778569974,None,"['n', 'backspace', 'y', 'return']","[4.909807300195098, 8.165772800333798, 9.061785999685526, 9.357829200103879]",1768.19778569974,None,,,69NC,001,2023_May_03_1521,ExactRep-v3-final,2021.2.3,59.93292284108386,
,,,,,,,,,,,,36,0,36,0,,,,,,,,,,,,,,,,,,,,,,,,,,,,,,,,,,,,,,,,,,,,,,,,,1779.763528900221,None,,,,,,,,,,,,,,,,,,,,,,,,,,,,,,,,,,,,,,,,,,,,,,,,,,,,,,,,,journal,148,37,silent,new,yellow,1778.1040823999792,None,n,1778.1040823999792,None,"['n', 'return']","[1.3317078994587064, 1.6115466002374887]",1778.1040823999792,None,,,69NC,001,2023_May_03_1521,ExactRep-v3-final,2021.2.3,59.93292284108386,
,,,,,,,,,,,,37,0,37,0,,,,,,,,,,,,,,,,,,,,,,,,,,,,,,,,,,,,,,,,,,,,,,,,,1781.7321453997865,None,,,,,,,,,,,,,,,,,,,,,,,,,,,,,,,,,,,,,,,,,,,,,,,,,,,,,,,,,lad,89,38,aloud,old,yellow,1780.2709747999907,None,y,1780.2709747999907,None,"['y', 'return']","[1.1249038996174932, 1.428545800037682]",1780.2709747999907,None,,,69NC,001,2023_May_03_1521,ExactRep-v3-final,2021.2.3,59.93292284108386,
,,,,,,,,,,,,38,0,38,0,,,,,,,,,,,,,,,,,,,,,,,,,,,,,,,,,,,,,,,,,,,,,,,,,1783.4339348999783,None,,,,,,,,,,,,,,,,,,,,,,,,,,,,,,,,,,,,,,,,,,,,,,,,,,,,,,,,,flower,106,39,aloud,old,yellow,1782.2338968003169,None,y,1782.2338968003169,None,"['y', 'return']","[0.8579126996919513, 1.1616907995194197]",1782.2338968003169,None,,,69NC,001,2023_May_03_1521,ExactRep-v3-final,2021.2.3,59.93292284108386,
,,,,,,,,,,,,39,0,39,0,,,,,,,,,,,,,,,,,,,,,,,,,,,,,,,,,,,,,,,,,,,,,,,,,1784.9687593001872,None,,,,,,,,,,,,,,,,,,,,,,,,,,,,,,,,,,,,,,,,,,,,,,,,,,,,,,,,,palace,26,40,sing,old,yellow,1783.9422420999035,None,y,1783.9422420999035,None,"['y', 'return']","[0.6614653998985887, 0.9814309999346733]",1783.9422420999035,None,,,69NC,001,2023_May_03_1521,ExactRep-v3-final,2021.2.3,59.93292284108386,
,,,,,,,,,,,,40,0,40,0,,,,,,,,,,,,,,,,,,,,,,,,,,,,,,,,,,,,,,,,,,,,,,,,,1786.8706905003637,None,,,,,,,,,,,,,,,,,,,,,,,,,,,,,,,,,,,,,,,,,,,,,,,,,,,,,,,,,star,233,41,sing,new,yellow,1785.4758732002228,None,n,1785.4758732002228,None,"['n', 'return']","[0.9117457000538707, 1.3517097001895308]",1785.4758732002228,None,,,69NC,001,2023_May_03_1521,ExactRep-v3-final,2021.2.3,59.93292284108386,
,,,,,,,,,,,,41,0,41,0,,,,,,,,,,,,,,,,,,,,,,,,,,,,,,,,,,,,,,,,,,,,,,,,,1791.592068400234,None,,,,,,,,,,,,,,,,,,,,,,,,,,,,,,,,,,,,,,,,,,,,,,,,,,,,,,,,,theory,210,42,aloud,new,yellow,1787.3730926001444,None,n,1787.3730926001444,None,"['n', 'return']","[3.0866195000708103, 4.1745333997532725]",1787.3730926001444,None,,,69NC,001,2023_May_03_1521,ExactRep-v3-final,2021.2.3,59.93292284108386,
,,,,,,,,,,,,42,0,42,0,,,,,,,,,,,,,,,,,,,,,,,,,,,,,,,,,,,,,,,,,,,,,,,,,1793.4939144998789,None,,,,,,,,,,,,,,,,,,,,,,,,,,,,,,,,,,,,,,,,,,,,,,,,,,,,,,,,,shock,108,43,aloud,old,yellow,1792.0943499002606,None,y,1792.0943499002606,None,"['y', 'return']","[1.0212238999083638, 1.3572752000764012]",1792.0943499002606,None,,,69NC,001,2023_May_03_1521,ExactRep-v3-final,2021.2.3,59.93292284108386,
,,,,,,,,,,,,43,0,43,0,,,,,,,,,,,,,,,,,,,,,,,,,,,,,,,,,,,,,,,,,,,,,,,,,1796.1635300004855,None,,,,,,,,,,,,,,,,,,,,,,,,,,,,,,,,,,,,,,,,,,,,,,,,,,,,,,,,,master,144,44,silent,new,yellow,1793.9976566005498,None,y,1793.9976566005498,None,"['y', 'return']","[1.7422671997919679, 2.1339907003566623]",1793.9976566005498,None,,,69NC,001,2023_May_03_1521,ExactRep-v3-final,2021.2.3,59.93292284108386,
,,,,,,,,,,,,44,0,44,0,,,,,,,,,,,,,,,,,,,,,,,,,,,,,,,,,,,,,,,,,,,,,,,,,1800.384194499813,None,,,,,,,,,,,,,,,,,,,,,,,,,,,,,,,,,,,,,,,,,,,,,,,,,,,,,,,,,silence,152,45,silent,new,yellow,1796.6724570002407,None,y,1796.6724570002407,None,"['y', 'return']","[3.411401499994099, 3.675226599909365]",1796.6724570002407,None,,,69NC,001,2023_May_03_1521,ExactRep-v3-final,2021.2.3,59.93292284108386,
,,,,,,,,,,,,45,0,45,0,,,,,,,,,,,,,,,,,,,,,,,,,,,,,,,,,,,,,,,,,,,,,,,,,1802.2695296006277,None,,,,,,,,,,,,,,,,,,,,,,,,,,,,,,,,,,,,,,,,,,,,,,,,,,,,,,,,,volume,223,46,sing,new,yellow,1800.88815180026,None,n,1800.88815180026,None,"['n', 'return']","[1.0916055999696255, 1.3394844997674227]",1800.88815180026,None,,,69NC,001,2023_May_03_1521,ExactRep-v3-final,2021.2.3,59.93292284108386,
,,,,,,,,,,,,46,0,46,0,,,,,,,,,,,,,,,,,,,,,,,,,,,,,,,,,,,,,,,,,,,,,,,,,1804.3547227000818,None,,,,,,,,,,,,,,,,,,,,,,,,,,,,,,,,,,,,,,,,,,,,,,,,,,,,,,,,,avenue,124,47,silent,new,yellow,1802.788201100193,None,n,1802.788201100193,None,"['n', 'return']","[1.1354478001594543, 1.5274876998737454]",1802.788201100193,None,,,69NC,001,2023_May_03_1521,ExactRep-v3-final,2021.2.3,59.93292284108386,
,,,,,,,,,,,,47,0,47,0,,,,,,,,,,,,,,,,,,,,,,,,,,,,,,,,,,,,,,,,,,,,,,,,,1806.7073688004166,None,,,,,,,,,,,,,,,,,,,,,,,,,,,,,,,,,,,,,,,,,,,,,,,,,,,,,,,,,shore,179,48,sing,new,yellow,1804.8629224002361,None,n,1804.8629224002361,None,"['n', 'return']","[1.5088471993803978, 1.812819399870932]",1804.8629224002361,None,,,69NC,001,2023_May_03_1521,ExactRep-v3-final,2021.2.3,59.93292284108386,
,,,,,,,,,,,,48,0,48,0,,,,,,,,,,,,,,,,,,,,,,,,,,,,,,,,,,,,,,,,,,,,,,,,,1809.0790026998147,None,,,,,,,,,,,,,,,,,,,,,,,,,,,,,,,,,,,,,,,,,,,,,,,,,,,,,,,,,hour,82,49,aloud,old,yellow,1807.2289147004485,None,y,1807.2289147004485,None,"['y', 'return']","[1.2387867998331785, 1.806746399961412]",1807.2289147004485,None,,,69NC,001,2023_May_03_1521,ExactRep-v3-final,2021.2.3,59.93292284108386,
,,,,,,,,,,,,49,0,49,0,,,,,,,,,,,,,,,,,,,,,,,,,,,,,,,,,,,,,,,,,,,,,,,,,1810.994738000445,None,,,,,,,,,,,,,,,,,,,,,,,,,,,,,,,,,,,,,,,,,,,,,,,,,,,,,,,,,corner,16,50,sing,old,yellow,1809.5983115006238,None,y,1809.5983115006238,None,"['y', 'return']","[1.061459899879992, 1.3494290001690388]",1809.5983115006238,None,,,69NC,001,2023_May_03_1521,ExactRep-v3-final,2021.2.3,59.93292284108386,
,,,,,,,,,,,,50,0,50,0,,,,,,,,,,,,,,,,,,,,,,,,,,,,,,,,,,,,,,,,,,,,,,,,,1812.5464572003111,None,,,,,,,,,,,,,,,,,,,,,,,,,,,,,,,,,,,,,,,,,,,,,,,,,,,,,,,,,product,6,51,sing,old,yellow,1811.504605700262,None,y,1811.504605700262,None,"['y', 'return']","[0.6830866998061538, 1.0030859000980854]",1811.504605700262,None,,,69NC,001,2023_May_03_1521,ExactRep-v3-final,2021.2.3,59.93292284108386,
,,,,,,,,,,,,51,0,51,0,,,,,,,,,,,,,,,,,,,,,,,,,,,,,,,,,,,,,,,,,,,,,,,,,1815.6160273998976,None,,,,,,,,,,,,,,,,,,,,,,,,,,,,,,,,,,,,,,,,,,,,,,,,,,,,,,,,,street,149,52,silent,new,yellow,1813.0587611999363,None,y,1813.0587611999363,None,"['y', 'return']","[2.1127856001257896, 2.5127926003187895]",1813.0587611999363,None,,,69NC,001,2023_May_03_1521,ExactRep-v3-final,2021.2.3,59.93292284108386,
,,,,,,,,,,,,52,0,52,0,,,,,,,,,,,,,,,,,,,,,,,,,,,,,,,,,,,,,,,,,,,,,,,,,1821.0714718000963,None,,,,,,,,,,,,,,,,,,,,,,,,,,,,,,,,,,,,,,,,,,,,,,,,,,,,,,,,,opinion,97,53,aloud,old,yellow,1816.129226299934,None,n,1816.129226299934,None,"['n', 'return']","[4.362420700490475, 4.906451100483537]",1816.129226299934,None,,,69NC,001,2023_May_03_1521,ExactRep-v3-final,2021.2.3,59.93292284108386,
,,,,,,,,,,,,53,0,53,0,,,,,,,,,,,,,,,,,,,,,,,,,,,,,,,,,,,,,,,,,,,,,,,,,1825.2090042000636,None,,,,,,,,,,,,,,,,,,,,,,,,,,,,,,,,,,,,,,,,,,,,,,,,,,,,,,,,,fur,142,54,silent,new,yellow,1821.581600700505,None,n,1821.581600700505,None,"['n', 'return']","[3.2620113994926214, 3.590093399398029]",1821.581600700505,None,,,69NC,001,2023_May_03_1521,ExactRep-v3-final,2021.2.3,59.93292284108386,
,,,,,,,,,,,,54,0,54,0,,,,,,,,,,,,,,,,,,,,,,,,,,,,,,,,,,,,,,,,,,,,,,,,,1827.2276982003823,None,,,,,,,,,,,,,,,,,,,,,,,,,,,,,,,,,,,,,,,,,,,,,,,,,,,,,,,,,gift,157,55,silent,new,yellow,1825.718172300607,None,y,1825.718172300607,None,"['y', 'return']","[1.2135346001014113, 1.4776445999741554]",1825.718172300607,None,,,69NC,001,2023_May_03_1521,ExactRep-v3-final,2021.2.3,59.93292284108386,
,,,,,,,,,,,,55,0,55,0,,,,,,,,,,,,,,,,,,,,,,,,,,,,,,,,,,,,,,,,,,,,,,,,,1829.479887000285,None,,,,,,,,,,,,,,,,,,,,,,,,,,,,,,,,,,,,,,,,,,,,,,,,,,,,,,,,,custom,204,56,aloud,new,yellow,1827.7342948997393,None,n,1827.7342948997393,None,"['n', 'return']","[1.4375522006303072, 1.7013517003506422]",1827.7342948997393,None,,,69NC,001,2023_May_03_1521,ExactRep-v3-final,2021.2.3,59.93292284108386,
,,,,,,,,,,,,56,0,56,0,,,,,,,,,,,,,,,,,,,,,,,,,,,,,,,,,,,,,,,,,,,,,,,,,1834.7018555002287,None,,,,,,,,,,,,,,,,,,,,,,,,,,,,,,,,,,,,,,,,,,,,,,,,,,,,,,,,,coin,40,57,silent,old,yellow,1829.995623900555,None,n,1829.995623900555,None,"['y', 'n', 'backspace', 'n', 'return']","[2.559941300190985, 3.3599976003170013, 3.8961485996842384, 4.224426600150764, 4.664030499756336]",1829.995623900555,None,,,69NC,001,2023_May_03_1521,ExactRep-v3-final,2021.2.3,59.93292284108386,
,,,,,,,,,,,,57,0,57,0,,,,,,,,,,,,,,,,,,,,,,,,,,,,,,,,,,,,,,,,,,,,,,,,,1836.5204400001094,None,,,,,,,,,,,,,,,,,,,,,,,,,,,,,,,,,,,,,,,,,,,,,,,,,,,,,,,,,woods,105,58,aloud,old,yellow,1835.2057579001412,None,y,1835.2057579001412,None,"['y', 'return']","[0.9901357004418969, 1.2699313005432487]",1835.2057579001412,None,,,69NC,001,2023_May_03_1521,ExactRep-v3-final,2021.2.3,59.93292284108386,
,,,,,,,,,,,,58,0,58,0,,,,,,,,,,,,,,,,,,,,,,,,,,,,,,,,,,,,,,,,,,,,,,,,,1838.5389756998047,None,,,,,,,,,,,,,,,,,,,,,,,,,,,,,,,,,,,,,,,,,,,,,,,,,,,,,,,,,water,230,59,aloud,new,yellow,1837.0241708997637,None,n,1837.0241708997637,None,"['n', 'return']","[1.1794650992378592, 1.475569499656558]",1837.0241708997637,None,,,69NC,001,2023_May_03_1521,ExactRep-v3-final,2021.2.3,59.93292284108386,
,,,,,,,,,,,,59,0,59,0,,,,,,,,,,,,,,,,,,,,,,,,,,,,,,,,,,,,,,,,,,,,,,,,,1840.3075641002506,None,,,,,,,,,,,,,,,,,,,,,,,,,,,,,,,,,,,,,,,,,,,,,,,,,,,,,,,,,book,28,60,sing,old,yellow,1839.0478614000604,None,y,1839.0478614000604,None,"['y', 'return']","[0.9239973006770015, 1.2118226001039147]",1839.0478614000604,None,,,69NC,001,2023_May_03_1521,ExactRep-v3-final,2021.2.3,59.93292284108386,
,,,,,,,,,,,,60,0,60,0,,,,,,,,,,,,,,,,,,,,,,,,,,,,,,,,,,,,,,,,,,,,,,,,,1846.013056400232,None,,,,,,,,,,,,,,,,,,,,,,,,,,,,,,,,,,,,,,,,,,,,,,,,,,,,,,,,,pole,103,61,aloud,old,yellow,1840.812384299934,None,y,1840.812384299934,None,"['y', 'return']","[4.88729349989444, 5.159334800206125]",1840.812384299934,None,,,69NC,001,2023_May_03_1521,ExactRep-v3-final,2021.2.3,59.93292284108386,
,,,,,,,,,,,,61,0,61,0,,,,,,,,,,,,,,,,,,,,,,,,,,,,,,,,,,,,,,,,,,,,,,,,,1847.8315687002614,None,,,,,,,,,,,,,,,,,,,,,,,,,,,,,,,,,,,,,,,,,,,,,,,,,,,,,,,,,health,120,62,silent,new,yellow,1846.522971600294,None,y,1846.522971600294,None,"['y', 'return']","[0.9767115004360676, 1.26466070022434]",1846.522971600294,None,,,69NC,001,2023_May_03_1521,ExactRep-v3-final,2021.2.3,59.93292284108386,
,,,,,,,,,,,,62,0,62,0,,,,,,,,,,,,,,,,,,,,,,,,,,,,,,,,,,,,,,,,,,,,,,,,,1852.4210365004838,None,,,,,,,,,,,,,,,,,,,,,,,,,,,,,,,,,,,,,,,,,,,,,,,,,,,,,,,,,lake,221,63,sing,new,yellow,1848.3401811001822,None,n,1848.3401811001822,None,"['n', 'return']","[1.255783200263977, 4.04766540043056]",1848.3401811001822,None,,,69NC,001,2023_May_03_1521,ExactRep-v3-final,2021.2.3,59.93292284108386,
,,,,,,,,,,,,63,0,63,0,,,,,,,,,,,,,,,,,,,,,,,,,,,,,,,,,,,,,,,,,,,,,,,,,1854.8888162998483,None,,,,,,,,,,,,,,,,,,,,,,,,,,,,,,,,,,,,,,,,,,,,,,,,,,,,,,,,,safety,7,64,sing,old,yellow,1852.9297968000174,None,y,1852.9297968000174,None,"['y', 'return']","[1.6419938998296857, 1.9218929996713996]",1852.9297968000174,None,,,69NC,001,2023_May_03_1521,ExactRep-v3-final,2021.2.3,59.93292284108386,
,,,,,,,,,,,,64,0,64,0,,,,,,,,,,,,,,,,,,,,,,,,,,,,,,,,,,,,,,,,,,,,,,,,,1856.5072387000546,None,,,,,,,,,,,,,,,,,,,,,,,,,,,,,,,,,,,,,,,,,,,,,,,,,,,,,,,,,salary,5,65,sing,old,yellow,1855.3984937006608,None,y,1855.3984937006608,None,"['y', 'return']","[0.7014119997620583, 1.061243399977684]",1855.3984937006608,None,,,69NC,001,2023_May_03_1521,ExactRep-v3-final,2021.2.3,59.93292284108386,
,,,,,,,,,,,,65,0,65,0,,,,,,,,,,,,,,,,,,,,,,,,,,,,,,,,,,,,,,,,,,,,,,,,,1861.8290694002062,None,,,,,,,,,,,,,,,,,,,,,,,,,,,,,,,,,,,,,,,,,,,,,,,,,,,,,,,,,month,72,66,silent,old,yellow,1857.0193312000483,None,y,1857.0193312000483,None,"['y', 'return']","[4.4644701005890965, 4.7684058006852865]",1857.0193312000483,None,,,69NC,001,2023_May_03_1521,ExactRep-v3-final,2021.2.3,59.93292284108386,
,,,,,,,,,,,,66,0,66,0,,,,,,,,,,,,,,,,,,,,,,,,,,,,,,,,,,,,,,,,,,,,,,,,,1866.0499410005286,None,,,,,,,,,,,,,,,,,,,,,,,,,,,,,,,,,,,,,,,,,,,,,,,,,,,,,,,,,horse,36,67,sing,old,yellow,1862.3396528000012,None,y,1862.3396528000012,None,"['y', 'return']","[3.360213899984956, 3.672089899890125]",1862.3396528000012,None,,,69NC,001,2023_May_03_1521,ExactRep-v3-final,2021.2.3,59.93292284108386,
,,,,,,,,,,,,67,0,67,0,,,,,,,,,,,,,,,,,,,,,,,,,,,,,,,,,,,,,,,,,,,,,,,,,1868.5690206000581,None,,,,,,,,,,,,,,,,,,,,,,,,,,,,,,,,,,,,,,,,,,,,,,,,,,,,,,,,,moral,99,68,aloud,old,yellow,1866.5581736005843,None,y,1866.5581736005843,None,"['y', 'return']","[1.6217702999711037, 1.9735276000574231]",1866.5581736005843,None,,,69NC,001,2023_May_03_1521,ExactRep-v3-final,2021.2.3,59.93292284108386,
,,,,,,,,,,,,68,0,68,0,,,,,,,,,,,,,,,,,,,,,,,,,,,,,,,,,,,,,,,,,,,,,,,,,1870.587831299752,None,,,,,,,,,,,,,,,,,,,,,,,,,,,,,,,,,,,,,,,,,,,,,,,,,,,,,,,,,earth,129,69,silent,new,yellow,1869.0763293998316,None,n,1869.0763293998316,None,"['n', 'return']","[1.1753790993243456, 1.4634717991575599]",1869.0763293998316,None,,,69NC,001,2023_May_03_1521,ExactRep-v3-final,2021.2.3,59.93292284108386,
,,,,,,,,,,,,69,0,69,0,,,,,,,,,,,,,,,,,,,,,,,,,,,,,,,,,,,,,,,,,,,,,,,,,1872.356107099913,None,,,,,,,,,,,,,,,,,,,,,,,,,,,,,,,,,,,,,,,,,,,,,,,,,,,,,,,,,soul,22,70,sing,old,yellow,1871.0962642999366,None,y,1871.0962642999366,None,"['y', 'return']","[0.9314233995974064, 1.2275074003264308]",1871.0962642999366,None,,,69NC,001,2023_May_03_1521,ExactRep-v3-final,2021.2.3,59.93292284108386,
,,,,,,,,,,,,70,0,70,0,,,,,,,,,,,,,,,,,,,,,,,,,,,,,,,,,,,,,,,,,,,,,,,,,1875.4759888006374,None,,,,,,,,,,,,,,,,,,,,,,,,,,,,,,,,,,,,,,,,,,,,,,,,,,,,,,,,,time,52,71,silent,old,yellow,1872.868779500015,None,n,1872.868779500015,None,"['n', 'return']","[1.702958700247109, 2.5749995997175574]",1872.868779500015,None,,,69NC,001,2023_May_03_1521,ExactRep-v3-final,2021.2.3,59.93292284108386,
,,,,,,,,,,,,71,0,71,0,,,,,,,,,,,,,,,,,,,,,,,,,,,,,,,,,,,,,,,,,,,,,,,,,1880.6813249997795,None,,,,,,,,,,,,,,,,,,,,,,,,,,,,,,,,,,,,,,,,,,,,,,,,,,,,,,,,,dollar,76,72,silent,old,yellow,1875.9866276998073,None,y,1875.9866276998073,None,"['n', 'backspace', 'y', 'return']","[1.337117100134492, 3.1452858997508883, 3.5930604999884963, 4.649254499934614]",1875.9866276998073,None,,,69NC,001,2023_May_03_1521,ExactRep-v3-final,2021.2.3,59.93292284108386,
,,,,,,,,,,,,72,0,72,0,,,,,,,,,,,,,,,,,,,,,,,,,,,,,,,,,,,,,,,,,,,,,,,,,1884.1513982005417,None,,,,,,,,,,,,,,,,,,,,,,,,,,,,,,,,,,,,,,,,,,,,,,,,,,,,,,,,,door,49,73,silent,old,yellow,1881.1884628999978,None,n,1881.1884628999978,None,"['y', 'backspace', 'n', 'return']","[0.8632252002134919, 1.8792327996343374, 2.6232300996780396, 2.9272603997960687]",1881.1884628999978,None,,,69NC,001,2023_May_03_1521,ExactRep-v3-final,2021.2.3,59.93292284108386,
,,,,,,,,,,,,73,0,73,0,,,,,,,,,,,,,,,,,,,,,,,,,,,,,,,,,,,,,,,,,,,,,,,,,1886.5204325998202,None,,,,,,,,,,,,,,,,,,,,,,,,,,,,,,,,,,,,,,,,,,,,,,,,,,,,,,,,,answer,54,74,silent,old,yellow,1884.6667780000716,None,n,1884.6667780000716,None,"['n', 'return']","[1.5210648998618126, 1.8089287001639605]",1884.6667780000716,None,,,69NC,001,2023_May_03_1521,ExactRep-v3-final,2021.2.3,59.93292284108386,
,,,,,,,,,,,,74,0,74,0,,,,,,,,,,,,,,,,,,,,,,,,,,,,,,,,,,,,,,,,,,,,,,,,,1888.5722655998543,None,,,,,,,,,,,,,,,,,,,,,,,,,,,,,,,,,,,,,,,,,,,,,,,,,,,,,,,,,officer,58,75,silent,old,yellow,1887.0277166999876,None,y,1887.0277166999876,None,"['y', 'return']","[1.0161781003698707, 1.5118488995358348]",1887.0277166999876,None,,,69NC,001,2023_May_03_1521,ExactRep-v3-final,2021.2.3,59.93292284108386,
,,,,,,,,,,,,75,0,75,0,,,,,,,,,,,,,,,,,,,,,,,,,,,,,,,,,,,,,,,,,,,,,,,,,1890.7244386998937,None,,,,,,,,,,,,,,,,,,,,,,,,,,,,,,,,,,,,,,,,,,,,,,,,,,,,,,,,,troops,175,76,sing,new,yellow,1889.086118100211,None,n,1889.086118100211,None,"['n', 'return']","[1.1976226000115275, 1.5974875995889306]",1889.086118100211,None,,,69NC,001,2023_May_03_1521,ExactRep-v3-final,2021.2.3,59.93292284108386,
,,,,,,,,,,,,76,0,76,0,,,,,,,,,,,,,,,,,,,,,,,,,,,,,,,,,,,,,,,,,,,,,,,,,1893.4105850998312,None,,,,,,,,,,,,,,,,,,,,,,,,,,,,,,,,,,,,,,,,,,,,,,,,,,,,,,,,,ship,62,77,silent,old,yellow,1891.2314998004586,None,n,1891.2314998004586,None,"['y', 'backspace', 'n', 'return']","[0.6841864995658398, 1.1082951994612813, 1.412173899821937, 2.1322416998445988]",1891.2314998004586,None,,,69NC,001,2023_May_03_1521,ExactRep-v3-final,2021.2.3,59.93292284108386,
,,,,,,,,,,,,77,0,77,0,,,,,,,,,,,,,,,,,,,,,,,,,,,,,,,,,,,,,,,,,,,,,,,,,1895.2123169004917,None,,,,,,,,,,,,,,,,,,,,,,,,,,,,,,,,,,,,,,,,,,,,,,,,,,,,,,,,,anger,10,78,sing,old,yellow,1893.9204377997667,None,y,1893.9204377997667,None,"['y', 'return']","[0.7556861005723476, 1.2592504005879164]",1893.9204377997667,None,,,69NC,001,2023_May_03_1521,ExactRep-v3-final,2021.2.3,59.93292284108386,
,,,,,,,,,,,,78,0,78,0,,,,,,,,,,,,,,,,,,,,,,,,,,,,,,,,,,,,,,,,,,,,,,,,,1896.7639415999874,None,,,,,,,,,,,,,,,,,,,,,,,,,,,,,,,,,,,,,,,,,,,,,,,,,,,,,,,,,wheat,112,79,aloud,old,yellow,1895.721666100435,None,y,1895.721666100435,None,"['y', 'return']","[0.4660587999969721, 1.0100563000887632]",1895.721666100435,None,,,69NC,001,2023_May_03_1521,ExactRep-v3-final,2021.2.3,59.93292284108386,
,,,,,,,,,,,,79,0,79,0,,,,,,,,,,,,,,,,,,,,,,,,,,,,,,,,,,,,,,,,,,,,,,,,,1899.9002967998385,None,,,,,,,,,,,,,,,,,,,,,,,,,,,,,,,,,,,,,,,,,,,,,,,,,,,,,,,,,insect,237,80,sing,new,yellow,1897.271713600494,None,y,1897.271713600494,None,"['n', 'backspace', 'y', 'return']","[1.0120190996676683, 1.7401519995182753, 1.972032499499619, 2.588016699999571]",1897.271713600494,None,,,69NC,001,2023_May_03_1521,ExactRep-v3-final,2021.2.3,59.93292284108386,
,,,,,,,,,,,,80,0,80,0,,,,,,,,,,,,,,,,,,,,,,,,,,,,,,,,,,,,,,,,,,,,,,,,,1901.468669500202,None,,,,,,,,,,,,,,,,,,,,,,,,,,,,,,,,,,,,,,,,,,,,,,,,,,,,,,,,,woman,119,81,aloud,old,yellow,1900.4104212997481,None,y,1900.4104212997481,None,"['y', 'return']","[0.6496599996462464, 1.017336499877274]",1900.4104212997481,None,,,69NC,001,2023_May_03_1521,ExactRep-v3-final,2021.2.3,59.93292284108386,
,,,,,,,,,,,,81,0,81,0,,,,,,,,,,,,,,,,,,,,,,,,,,,,,,,,,,,,,,,,,,,,,,,,,1904.2713441997766,None,,,,,,,,,,,,,,,,,,,,,,,,,,,,,,,,,,,,,,,,,,,,,,,,,,,,,,,,,girl,217,82,sing,new,yellow,1901.9783911006525,None,y,1901.9783911006525,None,"['y', 'return']","[1.7933144997805357, 2.24925160035491]",1901.9783911006525,None,,,69NC,001,2023_May_03_1521,ExactRep-v3-final,2021.2.3,59.93292284108386,
,,,,,,,,,,,,82,0,82,0,,,,,,,,,,,,,,,,,,,,,,,,,,,,,,,,,,,,,,,,,,,,,,,,,1906.0733337001875,None,,,,,,,,,,,,,,,,,,,,,,,,,,,,,,,,,,,,,,,,,,,,,,,,,,,,,,,,,fate,114,83,aloud,old,yellow,1904.7828075001016,None,y,1904.7828075001016,None,"['y', 'return']","[0.8689000997692347, 1.2449202993884683]",1904.7828075001016,None,,,69NC,001,2023_May_03_1521,ExactRep-v3-final,2021.2.3,59.93292284108386,
,,,,,,,,,,,,83,0,83,0,,,,,,,,,,,,,,,,,,,,,,,,,,,,,,,,,,,,,,,,,,,,,,,,,1908.125204499811,None,,,,,,,,,,,,,,,,,,,,,,,,,,,,,,,,,,,,,,,,,,,,,,,,,,,,,,,,,shoes,118,84,aloud,old,yellow,1906.5804177997634,None,n,1906.5804177997634,None,"['n', 'return']","[1.2553516002371907, 1.511306400410831]",1906.5804177997634,None,,,69NC,001,2023_May_03_1521,ExactRep-v3-final,2021.2.3,59.93292284108386,
,,,,,,,,,,,,84,0,84,0,,,,,,,,,,,,,,,,,,,,,,,,,,,,,,,,,,,,,,,,,,,,,,,,,1909.876967200078,None,,,,,,,,,,,,,,,,,,,,,,,,,,,,,,,,,,,,,,,,,,,,,,,,,,,,,,,,,church,32,85,sing,old,yellow,1908.6347925001755,None,y,1908.6347925001755,None,"['y', 'return']","[0.9049788005650043, 1.209060600027442]",1908.6347925001755,None,,,69NC,001,2023_May_03_1521,ExactRep-v3-final,2021.2.3,59.93292284108386,
,,,,,,,,,,,,85,0,85,0,,,,,,,,,,,,,,,,,,,,,,,,,,,,,,,,,,,,,,,,,,,,,,,,,1911.7455585999414,None,,,,,,,,,,,,,,,,,,,,,,,,,,,,,,,,,,,,,,,,,,,,,,,,,,,,,,,,,amount,21,86,sing,old,yellow,1910.386990999803,None,y,1910.386990999803,None,"['y', 'n', 'return']","[0.6647491995245218, 0.9767308998852968, 1.3207651991397142]",1910.386990999803,None,,,69NC,001,2023_May_03_1521,ExactRep-v3-final,2021.2.3,59.93292284108386,
,,,,,,,,,,,,86,0,86,0,,,,,,,,,,,,,,,,,,,,,,,,,,,,,,,,,,,,,,,,,,,,,,,,,1913.5972215002403,None,,,,,,,,,,,,,,,,,,,,,,,,,,,,,,,,,,,,,,,,,,,,,,,,,,,,,,,,,plant,177,87,sing,new,yellow,1912.2552925003693,None,n,1912.2552925003693,None,"['n', 'return']","[0.9885213002562523, 1.308365000411868]",1912.2552925003693,None,,,69NC,001,2023_May_03_1521,ExactRep-v3-final,2021.2.3,59.93292284108386,
,,,,,,,,,,,,87,0,87,0,,,,,,,,,,,,,,,,,,,,,,,,,,,,,,,,,,,,,,,,,,,,,,,,,1918.485535000451,None,,,,,,,,,,,,,,,,,,,,,,,,,,,,,,,,,,,,,,,,,,,,,,,,,,,,,,,,,arm,137,88,silent,new,yellow,1914.1102154003456,None,n,1914.1102154003456,None,"['n', 'return']","[3.773608200252056, 4.333544400520623]",1914.1102154003456,None,,,69NC,001,2023_May_03_1521,ExactRep-v3-final,2021.2.3,59.93292284108386,
,,,,,,,,,,,,88,0,88,0,,,,,,,,,,,,,,,,,,,,,,,,,,,,,,,,,,,,,,,,,,,,,,,,,1920.554390099831,None,,,,,,,,,,,,,,,,,,,,,,,,,,,,,,,,,,,,,,,,,,,,,,,,,,,,,,,,,honour,182,89,aloud,new,yellow,1918.995970800519,None,n,1918.995970800519,None,"['n', 'return']","[1.1920630000531673, 1.5199830001220107]",1918.995970800519,None,,,69NC,001,2023_May_03_1521,ExactRep-v3-final,2021.2.3,59.93292284108386,
,,,,,,,,,,,,89,0,89,0,,,,,,,,,,,,,,,,,,,,,,,,,,,,,,,,,,,,,,,,,,,,,,,,,1923.2247686004266,None,,,,,,,,,,,,,,,,,,,,,,,,,,,,,,,,,,,,,,,,,,,,,,,,,,,,,,,,,picture,164,90,aloud,new,yellow,1921.0565103003755,None,n,1921.0565103003755,None,"['n', 'return']","[1.3955712001770735, 2.123260600492358]",1921.0565103003755,None,,,69NC,001,2023_May_03_1521,ExactRep-v3-final,2021.2.3,59.93292284108386,
,,,,,,,,,,,,90,0,90,0,,,,,,,,,,,,,,,,,,,,,,,,,,,,,,,,,,,,,,,,,,,,,,,,,1924.958722700365,None,,,,,,,,,,,,,,,,,,,,,,,,,,,,,,,,,,,,,,,,,,,,,,,,,,,,,,,,,flood,61,91,silent,old,yellow,1923.733692300506,None,y,1923.733692300506,None,"['y', 'return']","[0.9183069998398423, 1.1900165993720293]",1923.733692300506,None,,,69NC,001,2023_May_03_1521,ExactRep-v3-final,2021.2.3,59.93292284108386,
,,,,,,,,,,,,91,0,91,0,,,,,,,,,,,,,,,,,,,,,,,,,,,,,,,,,,,,,,,,,,,,,,,,,1926.8105461997911,None,,,,,,,,,,,,,,,,,,,,,,,,,,,,,,,,,,,,,,,,,,,,,,,,,,,,,,,,,life,181,92,sing,new,yellow,1925.4677063999698,None,y,1925.4677063999698,None,"['y', 'return']","[0.9280554996803403, 1.3040789002552629]",1925.4677063999698,None,,,69NC,001,2023_May_03_1521,ExactRep-v3-final,2021.2.3,59.93292284108386,
,,,,,,,,,,,,92,0,92,0,,,,,,,,,,,,,,,,,,,,,,,,,,,,,,,,,,,,,,,,,,,,,,,,,1928.8125530006364,None,,,,,,,,,,,,,,,,,,,,,,,,,,,,,,,,,,,,,,,,,,,,,,,,,,,,,,,,,cat,64,93,silent,old,yellow,1927.3179529998451,None,y,1927.3179529998451,None,"['y', 'return']","[1.0697128996253014, 1.4616657998412848]",1927.3179529998451,None,,,69NC,001,2023_May_03_1521,ExactRep-v3-final,2021.2.3,59.93292284108386,
,,,,,,,,,,,,93,0,93,0,,,,,,,,,,,,,,,,,,,,,,,,,,,,,,,,,,,,,,,,,,,,,,,,,1931.0648527005687,None,,,,,,,,,,,,,,,,,,,,,,,,,,,,,,,,,,,,,,,,,,,,,,,,,,,,,,,,,grass,29,94,sing,old,yellow,1929.3225436005741,None,y,1929.3225436005741,None,"['y', 'return']","[0.9535611001774669, 1.6972321001812816]",1929.3225436005741,None,,,69NC,001,2023_May_03_1521,ExactRep-v3-final,2021.2.3,59.93292284108386,
,,,,,,,,,,,,94,0,94,0,,,,,,,,,,,,,,,,,,,,,,,,,,,,,,,,,,,,,,,,,,,,,,,,,1949.9004022004083,None,,,,,,,,,,,,,,,,,,,,,,,,,,,,,,,,,,,,,,,,,,,,,,,,,,,,,,,,,flag,219,95,sing,new,yellow,1931.5709658004344,None,n,1931.5709658004344,None,"['n', 'return']","[17.92905049957335, 18.29677499923855]",1931.5709658004344,None,,,69NC,001,2023_May_03_1521,ExactRep-v3-final,2021.2.3,59.93292284108386,
,,,,,,,,,,,,95,0,95,0,,,,,,,,,,,,,,,,,,,,,,,,,,,,,,,,,,,,,,,,,,,,,,,,,1952.202680000104,None,,,,,,,,,,,,,,,,,,,,,,,,,,,,,,,,,,,,,,,,,,,,,,,,,,,,,,,,,style,1,96,sing,old,yellow,1950.415939600207,None,y,1950.415939600207,None,"['y', 'return']","[1.3720736000686884, 1.7398426001891494]",1950.415939600207,None,,,69NC,001,2023_May_03_1521,ExactRep-v3-final,2021.2.3,59.93292284108386,
,,,,,,,,,,,,96,0,96,0,,,,,,,,,,,,,,,,,,,,,,,,,,,,,,,,,,,,,,,,,,,,,,,,,1957.6248962003738,None,,,,,,,,,,,,,,,,,,,,,,,,,,,,,,,,,,,,,,,,,,,,,,,,,,,,,,,,,storm,23,97,sing,old,yellow,1952.710939699784,None,y,1952.710939699784,None,"['y', 'return']","[4.549033399671316, 4.8688813000917435]",1952.710939699784,None,,,69NC,001,2023_May_03_1521,ExactRep-v3-final,2021.2.3,59.93292284108386,
,,,,,,,,,,,,97,0,97,0,,,,,,,,,,,,,,,,,,,,,,,,,,,,,,,,,,,,,,,,,,,,,,,,,1959.7103674998507,None,,,,,,,,,,,,,,,,,,,,,,,,,,,,,,,,,,,,,,,,,,,,,,,,,,,,,,,,,world,158,98,silent,new,yellow,1958.1361426003277,None,n,1958.1361426003277,None,"['n', 'return']","[1.2438937993720174, 1.5397487999871373]",1958.1361426003277,None,,,69NC,001,2023_May_03_1521,ExactRep-v3-final,2021.2.3,59.93292284108386,
,,,,,,,,,,,,98,0,98,0,,,,,,,,,,,,,,,,,,,,,,,,,,,,,,,,,,,,,,,,,,,,,,,,,1961.74547990039,None,,,,,,,,,,,,,,,,,,,,,,,,,,,,,,,,,,,,,,,,,,,,,,,,,,,,,,,,,method,11,99,sing,old,yellow,1960.2233639005572,None,y,1960.2233639005572,None,"['y', 'return']","[1.1243870994076133, 1.4844164000824094]",1960.2233639005572,None,,,69NC,001,2023_May_03_1521,ExactRep-v3-final,2021.2.3,59.93292284108386,
,,,,,,,,,,,,99,0,99,0,,,,,,,,,,,,,,,,,,,,,,,,,,,,,,,,,,,,,,,,,,,,,,,,,1963.4138956004754,None,,,,,,,,,,,,,,,,,,,,,,,,,,,,,,,,,,,,,,,,,,,,,,,,,,,,,,,,,diamond,2,100,sing,old,yellow,1962.2595875002444,None,y,1962.2595875002444,None,"['y', 'return']","[0.8322866000235081, 1.120239400304854]",1962.2595875002444,None,,,69NC,001,2023_May_03_1521,ExactRep-v3-final,2021.2.3,59.93292284108386,
,,,,,,,,,,,,100,0,100,0,,,,,,,,,,,,,,,,,,,,,,,,,,,,,,,,,,,,,,,,,,,,,,,,,1965.16564380005,None,,,,,,,,,,,,,,,,,,,,,,,,,,,,,,,,,,,,,,,,,,,,,,,,,,,,,,,,,doll,214,101,aloud,new,yellow,1963.9264396000654,None,n,1963.9264396000654,None,"['n', 'return']","[0.8694217996671796, 1.2053225999698043]",1963.9264396000654,None,,,69NC,001,2023_May_03_1521,ExactRep-v3-final,2021.2.3,59.93292284108386,
,,,,,,,,,,,,101,0,101,0,,,,,,,,,,,,,,,,,,,,,,,,,,,,,,,,,,,,,,,,,,,,,,,,,1966.7338880002499,None,,,,,,,,,,,,,,,,,,,,,,,,,,,,,,,,,,,,,,,,,,,,,,,,,,,,,,,,,event,9,102,sing,old,yellow,1965.6773871006444,None,y,1965.6773871006444,None,"['y', 'return']","[0.6544786002486944, 1.0224539004266262]",1965.6773871006444,None,,,69NC,001,2023_May_03_1521,ExactRep-v3-final,2021.2.3,59.93292284108386,
,,,,,,,,,,,,102,0,102,0,,,,,,,,,,,,,,,,,,,,,,,,,,,,,,,,,,,,,,,,,,,,,,,,,1968.836069200188,None,,,,,,,,,,,,,,,,,,,,,,,,,,,,,,,,,,,,,,,,,,,,,,,,,,,,,,,,,advice,136,103,silent,new,yellow,1967.2451538005844,None,y,1967.2451538005844,None,"['y', 'return']","[1.2305536000058055, 1.5586669007316232]",1967.2451538005844,None,,,69NC,001,2023_May_03_1521,ExactRep-v3-final,2021.2.3,59.93292284108386,
,,,,,,,,,,,,103,0,103,0,,,,,,,,,,,,,,,,,,,,,,,,,,,,,,,,,,,,,,,,,,,,,,,,,1970.5876810997725,None,,,,,,,,,,,,,,,,,,,,,,,,,,,,,,,,,,,,,,,,,,,,,,,,,,,,,,,,,victory,209,104,sing,new,yellow,1969.3365814005956,None,y,1969.3365814005956,None,"['y', 'return']","[0.8992046006023884, 1.211281600408256]",1969.3365814005956,None,,,69NC,001,2023_May_03_1521,ExactRep-v3-final,2021.2.3,59.93292284108386,
,,,,,,,,,,,,104,0,104,0,,,,,,,,,,,,,,,,,,,,,,,,,,,,,,,,,,,,,,,,,,,,,,,,,1973.5072435000911,None,,,,,,,,,,,,,,,,,,,,,,,,,,,,,,,,,,,,,,,,,,,,,,,,,,,,,,,,,army,55,105,silent,old,yellow,1971.0965534001589,None,y,1971.0965534001589,None,"['n', 'backspace', 'y', 'return']","[0.8112485995516181, 1.563218000344932, 1.8513893000781536, 2.3632535003125668]",1971.0965534001589,None,,,69NC,001,2023_May_03_1521,ExactRep-v3-final,2021.2.3,59.93292284108386,
,,,,,,,,,,,,105,0,105,0,,,,,,,,,,,,,,,,,,,,,,,,,,,,,,,,,,,,,,,,,,,,,,,,,1975.3259140998125,None,,,,,,,,,,,,,,,,,,,,,,,,,,,,,,,,,,,,,,,,,,,,,,,,,,,,,,,,,dress,116,106,aloud,old,yellow,1974.0139278005809,None,n,1974.0139278005809,None,"['n', 'return']","[0.9258551001548767, 1.2697661994025111]",1974.0139278005809,None,,,69NC,001,2023_May_03_1521,ExactRep-v3-final,2021.2.3,59.93292284108386,
,,,,,,,,,,,,106,0,106,0,,,,,,,,,,,,,,,,,,,,,,,,,,,,,,,,,,,,,,,,,,,,,,,,,1977.0943538006395,None,,,,,,,,,,,,,,,,,,,,,,,,,,,,,,,,,,,,,,,,,,,,,,,,,,,,,,,,,bar,74,107,silent,old,yellow,1975.8347040005028,None,n,1975.8347040005028,None,"['n', 'return']","[0.8731463002040982, 1.225092500448227]",1975.8347040005028,None,,,69NC,001,2023_May_03_1521,ExactRep-v3-final,2021.2.3,59.93292284108386,
,,,,,,,,,,,,107,0,107,0,,,,,,,,,,,,,,,,,,,,,,,,,,,,,,,,,,,,,,,,,,,,,,,,,1979.4300691997632,None,,,,,,,,,,,,,,,,,,,,,,,,,,,,,,,,,,,,,,,,,,,,,,,,,,,,,,,,,corn,208,108,aloud,new,yellow,1977.5971761001274,None,y,1977.5971761001274,None,"['y', 'return']","[0.8148176996037364, 1.798624599352479]",1977.5971761001274,None,,,69NC,001,2023_May_03_1521,ExactRep-v3-final,2021.2.3,59.93292284108386,
,,,,,,,,,,,,108,0,108,0,,,,,,,,,,,,,,,,,,,,,,,,,,,,,,,,,,,,,,,,,,,,,,,,,1982.8835378000513,None,,,,,,,,,,,,,,,,,,,,,,,,,,,,,,,,,,,,,,,,,,,,,,,,,,,,,,,,,skin,200,109,aloud,new,yellow,1979.9403693005443,None,n,1979.9403693005443,None,"['n', 'return']","[2.615367499180138, 2.911467299796641]",1979.9403693005443,None,,,69NC,001,2023_May_03_1521,ExactRep-v3-final,2021.2.3,59.93292284108386,
,,,,,,,,,,,,109,0,109,0,,,,,,,,,,,,,,,,,,,,,,,,,,,,,,,,,,,,,,,,,,,,,,,,,1984.1847494002432,None,,,,,,,,,,,,,,,,,,,,,,,,,,,,,,,,,,,,,,,,,,,,,,,,,,,,,,,,,plain,24,110,sing,old,yellow,1983.390345999971,None,y,1983.390345999971,None,"['y', 'return']","[0.37346410006284714, 0.7494935998693109]",1983.390345999971,None,,,69NC,001,2023_May_03_1521,ExactRep-v3-final,2021.2.3,59.93292284108386,
,,,,,,,,,,,,110,0,110,0,,,,,,,,,,,,,,,,,,,,,,,,,,,,,,,,,,,,,,,,,,,,,,,,,1986.2033716998994,None,,,,,,,,,,,,,,,,,,,,,,,,,,,,,,,,,,,,,,,,,,,,,,,,,,,,,,,,,air,113,111,aloud,old,yellow,1984.6865739002824,None,n,1984.6865739002824,None,"['n', 'return']","[1.1812575003132224, 1.4852644000202417]",1984.6865739002824,None,,,69NC,001,2023_May_03_1521,ExactRep-v3-final,2021.2.3,59.93292284108386,
,,,,,,,,,,,,111,0,111,0,,,,,,,,,,,,,,,,,,,,,,,,,,,,,,,,,,,,,,,,,,,,,,,,,1987.9716640003026,None,,,,,,,,,,,,,,,,,,,,,,,,,,,,,,,,,,,,,,,,,,,,,,,,,,,,,,,,,flesh,50,112,silent,old,yellow,1986.7116943998262,None,y,1986.7116943998262,None,"['y', 'return']","[0.8841253994032741, 1.2121791997924447]",1986.7116943998262,None,,,69NC,001,2023_May_03_1521,ExactRep-v3-final,2021.2.3,59.93292284108386,
,,,,,,,,,,,,112,0,112,0,,,,,,,,,,,,,,,,,,,,,,,,,,,,,,,,,,,,,,,,,,,,,,,,,1989.573549600318,None,,,,,,,,,,,,,,,,,,,,,,,,,,,,,,,,,,,,,,,,,,,,,,,,,,,,,,,,,chance,84,113,aloud,old,yellow,1988.475831400603,None,y,1988.475831400603,None,"['y', 'return']","[0.6000355994328856, 1.064011599868536]",1988.475831400603,None,,,69NC,001,2023_May_03_1521,ExactRep-v3-final,2021.2.3,59.93292284108386,
,,,,,,,,,,,,113,0,113,0,,,,,,,,,,,,,,,,,,,,,,,,,,,,,,,,,,,,,,,,,,,,,,,,,1991.0581482006237,None,,,,,,,,,,,,,,,,,,,,,,,,,,,,,,,,,,,,,,,,,,,,,,,,,,,,,,,,,chair,48,114,silent,old,yellow,1990.0831246003509,None,y,1990.0831246003509,None,"['y', 'return']","[0.5847490997985005, 0.9287310997024179]",1990.0831246003509,None,,,69NC,001,2023_May_03_1521,ExactRep-v3-final,2021.2.3,59.93292284108386,
,,,,,,,,,,,,114,0,114,0,,,,,,,,,,,,,,,,,,,,,,,,,,,,,,,,,,,,,,,,,,,,,,,,,1992.5595982000232,None,,,,,,,,,,,,,,,,,,,,,,,,,,,,,,,,,,,,,,,,,,,,,,,,,,,,,,,,,boulder,17,115,sing,old,yellow,1991.570430200547,None,y,1991.570430200547,None,"['y', 'return']","[0.6333751995116472, 0.9453127002343535]",1991.570430200547,None,,,69NC,001,2023_May_03_1521,ExactRep-v3-final,2021.2.3,59.93292284108386,
,,,,,,,,,,,,115,0,115,0,,,,,,,,,,,,,,,,,,,,,,,,,,,,,,,,,,,,,,,,,,,,,,,,,1994.2446761997417,None,,,,,,,,,,,,,,,,,,,,,,,,,,,,,,,,,,,,,,,,,,,,,,,,,,,,,,,,,love,68,116,silent,old,yellow,1993.0691282004118,None,y,1993.0691282004118,None,"['y', 'return']","[0.6627295007929206, 1.142572999931872]",1993.0691282004118,None,,,69NC,001,2023_May_03_1521,ExactRep-v3-final,2021.2.3,59.93292284108386,
,,,,,,,,,,,,116,0,116,0,,,,,,,,,,,,,,,,,,,,,,,,,,,,,,,,,,,,,,,,,,,,,,,,,1995.8629448004067,None,,,,,,,,,,,,,,,,,,,,,,,,,,,,,,,,,,,,,,,,,,,,,,,,,,,,,,,,,murder,70,117,silent,old,yellow,1994.7545603998005,None,y,1994.7545603998005,None,"['y', 'return']","[0.7294474998489022, 1.0652383007109165]",1994.7545603998005,None,,,69NC,001,2023_May_03_1521,ExactRep-v3-final,2021.2.3,59.93292284108386,
,,,,,,,,,,,,117,0,117,0,,,,,,,,,,,,,,,,,,,,,,,,,,,,,,,,,,,,,,,,,,,,,,,,,1997.2476476999,None,,,,,,,,,,,,,,,,,,,,,,,,,,,,,,,,,,,,,,,,,,,,,,,,,,,,,,,,,friend,104,118,aloud,old,yellow,1996.3718330999836,None,y,1996.3718330999836,None,"['y', 'return']","[0.4800646994262934, 0.8400357998907566]",1996.3718330999836,None,,,69NC,001,2023_May_03_1521,ExactRep-v3-final,2021.2.3,59.93292284108386,
,,,,,,,,,,,,118,0,118,0,,,,,,,,,,,,,,,,,,,,,,,,,,,,,,,,,,,,,,,,,,,,,,,,,1999.1996448002756,None,,,,,,,,,,,,,,,,,,,,,,,,,,,,,,,,,,,,,,,,,,,,,,,,,,,,,,,,,square,39,119,silent,old,yellow,1997.7587215006351,None,n,1997.7587215006351,None,"['n', 'return']","[1.0691422997042537, 1.3970555001869798]",1997.7587215006351,None,,,69NC,001,2023_May_03_1521,ExactRep-v3-final,2021.2.3,59.93292284108386,
,,,,,,,,,,,,119,0,119,0,,,,,,,,,,,,,,,,,,,,,,,,,,,,,,,,,,,,,,,,,,,,,,,,,2001.1682866998017,None,,,,,,,,,,,,,,,,,,,,,,,,,,,,,,,,,,,,,,,,,,,,,,,,,,,,,,,,,coffee,190,120,aloud,new,yellow,1999.7100424999371,None,n,1999.7100424999371,None,"['n', 'return']","[0.941809100098908, 1.41378160007298]",1999.7100424999371,None,,,69NC,001,2023_May_03_1521,ExactRep-v3-final,2021.2.3,59.93292284108386,
,,,,,,,,,,,,120,0,120,0,,,,,,,,,,,,,,,,,,,,,,,,,,,,,,,,,,,,,,,,,,,,,,,,,2003.6040098005906,None,,,,,,,,,,,,,,,,,,,,,,,,,,,,,,,,,,,,,,,,,,,,,,,,,,,,,,,,,money,30,121,sing,old,yellow,2001.6781510999426,None,y,2001.6781510999426,None,"['n', 'backspace', 'y', 'return']","[0.7656789002940059, 1.261854000389576, 1.4699787003919482, 1.8856943007558584]",2001.6781510999426,None,,,69NC,001,2023_May_03_1521,ExactRep-v3-final,2021.2.3,59.93292284108386,
,,,,,,,,,,,,121,0,121,0,,,,,,,,,,,,,,,,,,,,,,,,,,,,,,,,,,,,,,,,,,,,,,,,,2013.4474082002416,None,,,,,,,,,,,,,,,,,,,,,,,,,,,,,,,,,,,,,,,,,,,,,,,,,,,,,,,,,fault,19,122,sing,old,yellow,2004.111568200402,None,y,2004.111568200402,None,"['y', 'return']","[8.652491400018334, 9.300455800257623]",2004.111568200402,None,,,69NC,001,2023_May_03_1521,ExactRep-v3-final,2021.2.3,59.93292284108386,
,,,,,,,,,,,,122,0,122,0,,,,,,,,,,,,,,,,,,,,,,,,,,,,,,,,,,,,,,,,,,,,,,,,,2015.282435500063,None,,,,,,,,,,,,,,,,,,,,,,,,,,,,,,,,,,,,,,,,,,,,,,,,,,,,,,,,,river,188,123,aloud,new,yellow,2013.9587737005204,None,n,2013.9587737005204,None,"['n', 'return']","[0.9251752998679876, 1.2772221006453037]",2013.9587737005204,None,,,69NC,001,2023_May_03_1521,ExactRep-v3-final,2021.2.3,59.93292284108386,
,,,,,,,,,,,,123,0,123,0,,,,,,,,,,,,,,,,,,,,,,,,,,,,,,,,,,,,,,,,,,,,,,,,,2017.4512736005709,None,,,,,,,,,,,,,,,,,,,,,,,,,,,,,,,,,,,,,,,,,,,,,,,,,,,,,,,,,garden,59,124,silent,old,yellow,2015.792364699766,None,n,2015.792364699766,None,"['n', 'return']","[1.1156435003504157, 1.6114875003695488]",2015.792364699766,None,,,69NC,001,2023_May_03_1521,ExactRep-v3-final,2021.2.3,59.93292284108386,
,,,,,,,,,,,,124,0,124,0,,,,,,,,,,,,,,,,,,,,,,,,,,,,,,,,,,,,,,,,,,,,,,,,,2020.120573100634,None,,,,,,,,,,,,,,,,,,,,,,,,,,,,,,,,,,,,,,,,,,,,,,,,,,,,,,,,,queen,93,125,aloud,old,yellow,2017.9612658005208,None,y,2017.9612658005208,None,"['y', 'return']","[1.5067385006695986, 2.114549300633371]",2017.9612658005208,None,,,69NC,001,2023_May_03_1521,ExactRep-v3-final,2021.2.3,59.93292284108386,
,,,,,,,,,,,,125,0,125,0,,,,,,,,,,,,,,,,,,,,,,,,,,,,,,,,,,,,,,,,,,,,,,,,,2023.9744861004874,None,,,,,,,,,,,,,,,,,,,,,,,,,,,,,,,,,,,,,,,,,,,,,,,,,,,,,,,,,engine,51,126,silent,old,yellow,2020.6249660998583,None,y,2020.6249660998583,None,"['n', 'backspace', 'y', 'return']","[1.7390451999381185, 2.466987700201571, 2.7308662002906203, 3.3148634005337954]",2020.6249660998583,None,,,69NC,001,2023_May_03_1521,ExactRep-v3-final,2021.2.3,59.93292284108386,
,,,,,,,,,,,,126,0,126,0,,,,,,,,,,,,,,,,,,,,,,,,,,,,,,,,,,,,,,,,,,,,,,,,,2025.6261085998267,None,,,,,,,,,,,,,,,,,,,,,,,,,,,,,,,,,,,,,,,,,,,,,,,,,,,,,,,,,judge,94,127,aloud,old,yellow,2024.4857721999288,None,y,2024.4857721999288,None,"['y', 'return']","[0.766168599948287, 1.0941083999350667]",2024.4857721999288,None,,,69NC,001,2023_May_03_1521,ExactRep-v3-final,2021.2.3,59.93292284108386,
,,,,,,,,,,,,127,0,127,0,,,,,,,,,,,,,,,,,,,,,,,,,,,,,,,,,,,,,,,,,,,,,,,,,2028.1285522002727,None,,,,,,,,,,,,,,,,,,,,,,,,,,,,,,,,,,,,,,,,,,,,,,,,,,,,,,,,,ability,125,128,silent,new,yellow,2026.136441799812,None,n,2026.136441799812,None,"['n', 'return']","[1.6438033003360033, 1.95547220017761]",2026.136441799812,None,,,69NC,001,2023_May_03_1521,ExactRep-v3-final,2021.2.3,59.93292284108386,
