trials_fam.thisRepN,trials_fam.thisTrialN,trials_fam.thisN,trials_fam.thisIndex,trials_prc.thisRepN,trials_prc.thisTrialN,trials_prc.thisN,trials_prc.thisIndex,StudyLoop.thisRepN,StudyLoop.thisTrialN,StudyLoop.thisN,StudyLoop.thisIndex,TestLoop.thisRepN,TestLoop.thisTrialN,TestLoop.thisN,TestLoop.thisIndex,text_colortest.started,text_colortest.stopped,key_colortest.keys,key_colortest.rt,key_colortest.started,key_colortest.stopped,textCondition.started,textCondition.stopped,keyCondition.keys,keyCondition.rt,keyCondition.started,keyCondition.stopped,Condition_between,Condition_counterbal,keyWelcome.keys,keyWelcome.rt,keyWelcome.started,keyWelcome.stopped,welcome_a.started,welcome_a.stopped,welcome_b.started,welcome_b.stopped,welcome_c.started,welcome_c.stopped,welcome_d.started,welcome_d.stopped,welcome_e.started,welcome_e.stopped,welcome_f.started,welcome_f.stopped,key_resp_fam_inst.keys,key_resp_fam_inst.rt,key_resp_fam_inst.started,key_resp_fam_inst.stopped,fam_a.started,fam_a.stopped,fam_b.started,fam_b.stopped,fam_c.started,fam_c.stopped,fam_d.started,fam_d.stopped,fam_e.started,fam_e.stopped,fam_f.started,fam_f.stopped,text_famil.started,text_famil.stopped,textBlank500.started,textBlank500.stopped,key_resp_prc_inst.keys,key_resp_prc_inst.rt,key_resp_prc_inst.started,key_resp_prc_inst.stopped,prac_a.started,prac_a.stopped,prac_b.started,prac_b.stopped,prac_c.started,prac_c.stopped,prac_d.started,prac_d.stopped,prac_e.started,prac_e.stopped,prac_f.started,prac_f.stopped,text_prc_trial.started,text_prc_trial.stopped,key_resp_study_inst.keys,key_resp_study_inst.rt,key_resp_study_inst.started,key_resp_study_inst.stopped,crit_a.started,crit_a.stopped,crit_b.started,crit_b.stopped,crit_c.started,crit_c.stopped,crit_d.started,crit_d.stopped,crit_e.started,crit_e.stopped,crit_f.started,crit_f.stopped,study_word,study_num,study_order,study_type,word_color,textStudy.started,textStudy.stopped,keyStudy.keys,keyStudy.started,keyStudy.stopped,post_study.started,post_study.stopped,key_resp_post_study.keys,key_resp_post_study.rt,key_resp_post_study.started,key_resp_post_study.stopped,test_inst.started,test_inst.stopped,key_resp_test_inst.keys,key_resp_test_inst.rt,key_resp_test_inst.started,key_resp_test_inst.stopped,test_word,test_num,test_order,test_condition,old_new_test,word_color_test,textConf.started,textConf.stopped,Participant Response,textInput.started,textInput.stopped,keyResp.keys,keyResp.rt,keyResp.started,keyResp.stopped,textEnd.started,textEnd.stopped,participant,session,date,expName,psychopyVersion,frameRate,
,,,,,,,,,,,,,,,,18.77601649996359,None,y,3.3826665999367833,18.77601649996359,None,,,,,,,,,,,,,,,,,,,,,,,,,,,,,,,,,,,,,,,,,,,,,,,,,,,,,,,,,,,,,,,,,,,,,,,,,,,,,,,,,,,,,,,,,,,,,,,,,,,,,,,,,,,,,,,,,,,,,,6,001,2023_Feb_01_1022,ExactRep-v3-final,2021.2.3,59.92789473822199,
,,,,,,,,,,,,,,,,,,,,,,22.18342539994046,None,f,1.0232837999938056,22.18342539994046,None,,,,,,,,,,,,,,,,,,,,,,,,,,,,,,,,,,,,,,,,,,,,,,,,,,,,,,,,,,,,,,,,,,,,,,,,,,,,,,,,,,,,,,,,,,,,,,,,,,,,,,,,,,,,,,,,6,001,2023_Feb_01_1022,ExactRep-v3-final,2021.2.3,59.92789473822199,
,,,,,,,,,,,,,,,,,,,,,,,,,,,,colorfoils,f,space,1131.9028150000377,33.383816799963824,None,,,,,,,,,,,,,,,,,,,,,,,,,,,,,,,,,,,,,,,,,,,,,,,,,,,,,,,,,,,,,,,,,,,,,,,,,,,,,,,,,,,,,,,,,,,,,,,,,,,,,,,,,,6,001,2023_Feb_01_1022,ExactRep-v3-final,2021.2.3,59.92789473822199,
,,,,,,,,,,,,,,,,,,,,,,,,,,,,,,,,,,23.410769799957052,None,23.410769799957052,None,23.410769799957052,None,23.410769799957052,None,23.410769799957052,None,23.410769799957052,None,space,18.842618499998935,1175.4921056999592,None,,,,,,,,,,,,,,,,,,,,,,,,,,,,,,,,,,,,,,,,,,,,,,,,,,,,,,,,,,,,,,,,,,,,,,,,,,,,,,,,,,,,,,,,,,6,001,2023_Feb_01_1022,ExactRep-v3-final,2021.2.3,59.92789473822199,
0,0,0,0,,,,,,,,,,,,,,,,,,,,,,,,,,,,,,,,,,,,,,,,,,,,,,,1165.5141771999188,None,1165.5141771999188,None,1165.5141771999188,None,1165.5141771999188,None,1165.5141771999188,None,1165.5141771999188,None,1194.46614699997,None,1196.4564738998888,None,,,,,,,,,,,,,,,,,,,,,,,,,,,,,,,,,,,,,,,,,,,,,,,,,,,,,,,,,,,,,,,,,,,,,,,,,,6,001,2023_Feb_01_1022,ExactRep-v3-final,2021.2.3,59.92789473822199,
1,0,1,0,,,,,,,,,,,,,,,,,,,,,,,,,,,,,,,,,,,,,,,,,,,,,,,,,,,,,,,,,,,1196.971376499976,None,1198.9758417999838,None,,,,,,,,,,,,,,,,,,,,,,,,,,,,,,,,,,,,,,,,,,,,,,,,,,,,,,,,,,,,,,,,,,,,,,,,,,6,001,2023_Feb_01_1022,ExactRep-v3-final,2021.2.3,59.92789473822199,
2,0,2,0,,,,,,,,,,,,,,,,,,,,,,,,,,,,,,,,,,,,,,,,,,,,,,,,,,,,,,,,,,,1199.4996925999876,None,1201.495003299904,None,,,,,,,,,,,,,,,,,,,,,,,,,,,,,,,,,,,,,,,,,,,,,,,,,,,,,,,,,,,,,,,,,,,,,,,,,,6,001,2023_Feb_01_1022,ExactRep-v3-final,2021.2.3,59.92789473822199,
3,0,3,0,,,,,,,,,,,,,,,,,,,,,,,,,,,,,,,,,,,,,,,,,,,,,,,,,,,,,,,,,,,1201.995350799989,None,1203.9974918999942,None,,,,,,,,,,,,,,,,,,,,,,,,,,,,,,,,,,,,,,,,,,,,,,,,,,,,,,,,,,,,,,,,,,,,,,,,,,6,001,2023_Feb_01_1022,ExactRep-v3-final,2021.2.3,59.92789473822199,
4,0,4,0,,,,,,,,,,,,,,,,,,,,,,,,,,,,,,,,,,,,,,,,,,,,,,,,,,,,,,,,,,,1204.5022646998987,None,1206.5165570999961,None,,,,,,,,,,,,,,,,,,,,,,,,,,,,,,,,,,,,,,,,,,,,,,,,,,,,,,,,,,,,,,,,,,,,,,,,,,6,001,2023_Feb_01_1022,ExactRep-v3-final,2021.2.3,59.92789473822199,
5,0,5,0,,,,,,,,,,,,,,,,,,,,,,,,,,,,,,,,,,,,,,,,,,,,,,,,,,,,,,,,,,,1207.0173293999396,None,1209.0192388999276,None,,,,,,,,,,,,,,,,,,,,,,,,,,,,,,,,,,,,,,,,,,,,,,,,,,,,,,,,,,,,,,,,,,,,,,,,,,6,001,2023_Feb_01_1022,ExactRep-v3-final,2021.2.3,59.92789473822199,
6,0,6,0,,,,,,,,,,,,,,,,,,,,,,,,,,,,,,,,,,,,,,,,,,,,,,,,,,,,,,,,,,,1209.5197883999208,None,1211.521451999899,None,,,,,,,,,,,,,,,,,,,,,,,,,,,,,,,,,,,,,,,,,,,,,,,,,,,,,,,,,,,,,,,,,,,,,,,,,,6,001,2023_Feb_01_1022,ExactRep-v3-final,2021.2.3,59.92789473822199,
7,0,7,0,,,,,,,,,,,,,,,,,,,,,,,,,,,,,,,,,,,,,,,,,,,,,,,,,,,,,,,,,,,1212.0256853998872,None,1214.0407777999062,None,,,,,,,,,,,,,,,,,,,,,,,,,,,,,,,,,,,,,,,,,,,,,,,,,,,,,,,,,,,,,,,,,,,,,,,,,,6,001,2023_Feb_01_1022,ExactRep-v3-final,2021.2.3,59.92789473822199,
8,0,8,0,,,,,,,,,,,,,,,,,,,,,,,,,,,,,,,,,,,,,,,,,,,,,,,,,,,,,,,,,,,1214.5414004999911,None,1216.5433141998947,None,,,,,,,,,,,,,,,,,,,,,,,,,,,,,,,,,,,,,,,,,,,,,,,,,,,,,,,,,,,,,,,,,,,,,,,,,,6,001,2023_Feb_01_1022,ExactRep-v3-final,2021.2.3,59.92789473822199,
9,0,9,0,,,,,,,,,,,,,,,,,,,,,,,,,,,,,,,,,,,,,,,,,,,,,,,,,,,,,,,,,,,1217.0438120999606,None,1219.045809299918,None,,,,,,,,,,,,,,,,,,,,,,,,,,,,,,,,,,,,,,,,,,,,,,,,,,,,,,,,,,,,,,,,,,,,,,,,,,6,001,2023_Feb_01_1022,ExactRep-v3-final,2021.2.3,59.92789473822199,
10,0,10,0,,,,,,,,,,,,,,,,,,,,,,,,,,,,,,,,,,,,,,,,,,,,,,,,,,,,,,,,,,,1219.5465189999668,None,1221.54829159996,None,,,,,,,,,,,,,,,,,,,,,,,,,,,,,,,,,,,,,,,,,,,,,,,,,,,,,,,,,,,,,,,,,,,,,,,,,,6,001,2023_Feb_01_1022,ExactRep-v3-final,2021.2.3,59.92789473822199,
11,0,11,0,,,,,,,,,,,,,,,,,,,,,,,,,,,,,,,,,,,,,,,,,,,,,,,,,,,,,,,,,,,1222.0502692998853,None,1224.0507267999928,None,,,,,,,,,,,,,,,,,,,,,,,,,,,,,,,,,,,,,,,,,,,,,,,,,,,,,,,,,,,,,,,,,,,,,,,,,,6,001,2023_Feb_01_1022,ExactRep-v3-final,2021.2.3,59.92789473822199,
12,0,12,0,,,,,,,,,,,,,,,,,,,,,,,,,,,,,,,,,,,,,,,,,,,,,,,,,,,,,,,,,,,1224.558946999954,None,1226.5699264999712,None,,,,,,,,,,,,,,,,,,,,,,,,,,,,,,,,,,,,,,,,,,,,,,,,,,,,,,,,,,,,,,,,,,,,,,,,,,6,001,2023_Feb_01_1022,ExactRep-v3-final,2021.2.3,59.92789473822199,
13,0,13,0,,,,,,,,,,,,,,,,,,,,,,,,,,,,,,,,,,,,,,,,,,,,,,,,,,,,,,,,,,,1227.0703383999644,None,1229.0723208999261,None,,,,,,,,,,,,,,,,,,,,,,,,,,,,,,,,,,,,,,,,,,,,,,,,,,,,,,,,,,,,,,,,,,,,,,,,,,6,001,2023_Feb_01_1022,ExactRep-v3-final,2021.2.3,59.92789473822199,
14,0,14,0,,,,,,,,,,,,,,,,,,,,,,,,,,,,,,,,,,,,,,,,,,,,,,,,,,,,,,,,,,,1229.5731215999695,None,1231.57501219993,None,,,,,,,,,,,,,,,,,,,,,,,,,,,,,,,,,,,,,,,,,,,,,,,,,,,,,,,,,,,,,,,,,,,,,,,,,,6,001,2023_Feb_01_1022,ExactRep-v3-final,2021.2.3,59.92789473822199,
,,,,,,,,,,,,,,,,,,,,,,,,,,,,,,,,,,,,,,,,,,,,,,,,,,,,,,,,,,,,,,,,,,space,20.010344399954192,1242.1722200999502,None,,,,,,,,,,,,,,,,,,,,,,,,,,,,,,,,,,,,,,,,,,,,,,,,,,,,,,,,,,,,,,,,,,,,,,6,001,2023_Feb_01_1022,ExactRep-v3-final,2021.2.3,59.92789473822199,
,,,,0,0,0,0,,,,,,,,,,,,,,,,,,,,,,,,,,,,,,,,,,,,,,,,,,,,,,,,,,,,,,,,,1264.3410101999762,None,,,,,1232.224508299958,None,1232.224508299958,None,1232.224508299958,None,1232.224508299958,None,1232.224508299958,None,1232.224508299958,None,1262.3369634998962,None,,,,,,,,,,,,,,,,,,,,,,,,,,,,,,,,,,,,,,,,,,,,,,,,,,,,,,,,6,001,2023_Feb_01_1022,ExactRep-v3-final,2021.2.3,59.92789473822199,
,,,,1,0,1,0,,,,,,,,,,,,,,,,,,,,,,,,,,,,,,,,,,,,,,,,,,,,,,,,,,,,,,,,,1266.8435193999903,None,,,,,,,,,,,,,,,,,1264.841729799984,None,,,,,,,,,,,,,,,,,,,,,,,,,,,,,,,,,,,,,,,,,,,,,,,,,,,,,,,,6,001,2023_Feb_01_1022,ExactRep-v3-final,2021.2.3,59.92789473822199,
,,,,2,0,2,0,,,,,,,,,,,,,,,,,,,,,,,,,,,,,,,,,,,,,,,,,,,,,,,,,,,,,,,,,1269.3460453998996,None,,,,,,,,,,,,,,,,,1267.3440599999158,None,,,,,,,,,,,,,,,,,,,,,,,,,,,,,,,,,,,,,,,,,,,,,,,,,,,,,,,,6,001,2023_Feb_01_1022,ExactRep-v3-final,2021.2.3,59.92789473822199,
,,,,3,0,3,0,,,,,,,,,,,,,,,,,,,,,,,,,,,,,,,,,,,,,,,,,,,,,,,,,,,,,,,,,1271.8485065998975,None,,,,,,,,,,,,,,,,,1269.8465045999037,None,,,,,,,,,,,,,,,,,,,,,,,,,,,,,,,,,,,,,,,,,,,,,,,,,,,,,,,,6,001,2023_Feb_01_1022,ExactRep-v3-final,2021.2.3,59.92789473822199,
,,,,4,0,4,0,,,,,,,,,,,,,,,,,,,,,,,,,,,,,,,,,,,,,,,,,,,,,,,,,,,,,,,,,1274.3509040999925,None,,,,,,,,,,,,,,,,,1272.3491024998948,None,,,,,,,,,,,,,,,,,,,,,,,,,,,,,,,,,,,,,,,,,,,,,,,,,,,,,,,,6,001,2023_Feb_01_1022,ExactRep-v3-final,2021.2.3,59.92789473822199,
,,,,5,0,5,0,,,,,,,,,,,,,,,,,,,,,,,,,,,,,,,,,,,,,,,,,,,,,,,,,,,,,,,,,1276.8534721999895,None,,,,,,,,,,,,,,,,,1274.8515763999894,None,,,,,,,,,,,,,,,,,,,,,,,,,,,,,,,,,,,,,,,,,,,,,,,,,,,,,,,,6,001,2023_Feb_01_1022,ExactRep-v3-final,2021.2.3,59.92789473822199,
,,,,6,0,6,0,,,,,,,,,,,,,,,,,,,,,,,,,,,,,,,,,,,,,,,,,,,,,,,,,,,,,,,,,1279.3560784999281,None,,,,,,,,,,,,,,,,,1277.3542634999612,None,,,,,,,,,,,,,,,,,,,,,,,,,,,,,,,,,,,,,,,,,,,,,,,,,,,,,,,,6,001,2023_Feb_01_1022,ExactRep-v3-final,2021.2.3,59.92789473822199,
,,,,7,0,7,0,,,,,,,,,,,,,,,,,,,,,,,,,,,,,,,,,,,,,,,,,,,,,,,,,,,,,,,,,1281.858521899907,None,,,,,,,,,,,,,,,,,1279.856560299988,None,,,,,,,,,,,,,,,,,,,,,,,,,,,,,,,,,,,,,,,,,,,,,,,,,,,,,,,,6,001,2023_Feb_01_1022,ExactRep-v3-final,2021.2.3,59.92789473822199,
,,,,8,0,8,0,,,,,,,,,,,,,,,,,,,,,,,,,,,,,,,,,,,,,,,,,,,,,,,,,,,,,,,,,1284.3612744999118,None,,,,,,,,,,,,,,,,,1282.3590733999154,None,,,,,,,,,,,,,,,,,,,,,,,,,,,,,,,,,,,,,,,,,,,,,,,,,,,,,,,,6,001,2023_Feb_01_1022,ExactRep-v3-final,2021.2.3,59.92789473822199,
,,,,9,0,9,0,,,,,,,,,,,,,,,,,,,,,,,,,,,,,,,,,,,,,,,,,,,,,,,,,,,,,,,,,1286.8637629000004,None,,,,,,,,,,,,,,,,,1284.8617687999504,None,,,,,,,,,,,,,,,,,,,,,,,,,,,,,,,,,,,,,,,,,,,,,,,,,,,,,,,,6,001,2023_Feb_01_1022,ExactRep-v3-final,2021.2.3,59.92789473822199,
,,,,10,0,10,0,,,,,,,,,,,,,,,,,,,,,,,,,,,,,,,,,,,,,,,,,,,,,,,,,,,,,,,,,1289.3660859999945,None,,,,,,,,,,,,,,,,,1287.3639681999339,None,,,,,,,,,,,,,,,,,,,,,,,,,,,,,,,,,,,,,,,,,,,,,,,,,,,,,,,,6,001,2023_Feb_01_1022,ExactRep-v3-final,2021.2.3,59.92789473822199,
,,,,11,0,11,0,,,,,,,,,,,,,,,,,,,,,,,,,,,,,,,,,,,,,,,,,,,,,,,,,,,,,,,,,1291.8686884999042,None,,,,,,,,,,,,,,,,,1289.8667383999564,None,,,,,,,,,,,,,,,,,,,,,,,,,,,,,,,,,,,,,,,,,,,,,,,,,,,,,,,,6,001,2023_Feb_01_1022,ExactRep-v3-final,2021.2.3,59.92789473822199,
,,,,12,0,12,0,,,,,,,,,,,,,,,,,,,,,,,,,,,,,,,,,,,,,,,,,,,,,,,,,,,,,,,,,1294.3710247999988,None,,,,,,,,,,,,,,,,,1292.3691928999033,None,,,,,,,,,,,,,,,,,,,,,,,,,,,,,,,,,,,,,,,,,,,,,,,,,,,,,,,,6,001,2023_Feb_01_1022,ExactRep-v3-final,2021.2.3,59.92789473822199,
,,,,13,0,13,0,,,,,,,,,,,,,,,,,,,,,,,,,,,,,,,,,,,,,,,,,,,,,,,,,,,,,,,,,1296.8735871999525,None,,,,,,,,,,,,,,,,,1294.8716934999684,None,,,,,,,,,,,,,,,,,,,,,,,,,,,,,,,,,,,,,,,,,,,,,,,,,,,,,,,,6,001,2023_Feb_01_1022,ExactRep-v3-final,2021.2.3,59.92789473822199,
,,,,14,0,14,0,,,,,,,,,,,,,,,,,,,,,,,,,,,,,,,,,,,,,,,,,,,,,,,,,,,,,,,,,1299.3759140999755,None,,,,,,,,,,,,,,,,,1297.3742445999524,None,,,,,,,,,,,,,,,,,,,,,,,,,,,,,,,,,,,,,,,,,,,,,,,,,,,,,,,,6,001,2023_Feb_01_1022,ExactRep-v3-final,2021.2.3,59.92789473822199,
,,,,,,,,,,,,,,,,,,,,,,,,,,,,,,,,,,,,,,,,,,,,,,,,,,,,,,,,,,,,,,,,,,,,,,,,,,,,,,,,,,,,space,25.11066090001259,1309.9922272999538,None,,,,,,,,,,,,,,,,,,,,,,,,,,,,,,,,,,,,,,,,,,,,,,,,,,,,6,001,2023_Feb_01_1022,ExactRep-v3-final,2021.2.3,59.92789473822199,
,,,,,,,,0,0,0,0,,,,,,,,,,,,,,,,,,,,,,,,,,,,,,,,,,,,,,,,,,,,,,,,,,,,,1337.1805185999256,None,,,,,,,,,,,,,,,,,,,,,,,1300.055938799982,None,1300.055938799982,None,1300.055938799982,None,1300.055938799982,None,1300.055938799982,None,1300.055938799982,None,officer,42,1,silent,blue,1335.1705401999643,None,None,1335.1705401999643,None,,,,,,,,,,,,,,,,,,,,,,,,,,,,,,6,001,2023_Feb_01_1022,ExactRep-v3-final,2021.2.3,59.92789473822199,
,,,,,,,,1,0,1,0,,,,,,,,,,,,,,,,,,,,,,,,,,,,,,,,,,,,,,,,,,,,,,,,,,,,,1339.699406699976,None,,,,,,,,,,,,,,,,,,,,,,,,,,,,,,,,,,,church,10,2,sing,red,1337.6936829999322,None,None,1337.6936829999322,None,,,,,,,,,,,,,,,,,,,,,,,,,,,,,,6,001,2023_Feb_01_1022,ExactRep-v3-final,2021.2.3,59.92789473822199,
,,,,,,,,2,0,2,0,,,,,,,,,,,,,,,,,,,,,,,,,,,,,,,,,,,,,,,,,,,,,,,,,,,,,1342.2195823999355,None,,,,,,,,,,,,,,,,,,,,,,,,,,,,,,,,,,,rock,113,3,aloud,white,1340.213011099957,None,None,1340.213011099957,None,,,,,,,,,,,,,,,,,,,,,,,,,,,,,,6,001,2023_Feb_01_1022,ExactRep-v3-final,2021.2.3,59.92789473822199,
,,,,,,,,3,0,3,0,,,,,,,,,,,,,,,,,,,,,,,,,,,,,,,,,,,,,,,,,,,,,,,,,,,,,1344.7380586999934,None,,,,,,,,,,,,,,,,,,,,,,,,,,,,,,,,,,,shoes,63,4,silent,blue,1342.7226813999005,None,None,1342.7226813999005,None,,,,,,,,,,,,,,,,,,,,,,,,,,,,,,6,001,2023_Feb_01_1022,ExactRep-v3-final,2021.2.3,59.92789473822199,
,,,,,,,,4,0,4,0,,,,,,,,,,,,,,,,,,,,,,,,,,,,,,,,,,,,,,,,,,,,,,,,,,,,,1347.2571875998983,None,,,,,,,,,,,,,,,,,,,,,,,,,,,,,,,,,,,moment,31,5,sing,red,1345.2521532999817,None,None,1345.2521532999817,None,,,,,,,,,,,,,,,,,,,,,,,,,,,,,,6,001,2023_Feb_01_1022,ExactRep-v3-final,2021.2.3,59.92789473822199,
,,,,,,,,5,0,5,0,,,,,,,,,,,,,,,,,,,,,,,,,,,,,,,,,,,,,,,,,,,,,,,,,,,,,1349.7596077999333,None,,,,,,,,,,,,,,,,,,,,,,,,,,,,,,,,,,,dawn,29,6,sing,red,1347.7585325998953,None,None,1347.7585325998953,None,,,,,,,,,,,,,,,,,,,,,,,,,,,,,,6,001,2023_Feb_01_1022,ExactRep-v3-final,2021.2.3,59.92789473822199,
,,,,,,,,6,0,6,0,,,,,,,,,,,,,,,,,,,,,,,,,,,,,,,,,,,,,,,,,,,,,,,,,,,,,1352.278939299984,None,,,,,,,,,,,,,,,,,,,,,,,,,,,,,,,,,,,doll,27,7,sing,red,1350.26931959996,None,None,1350.26931959996,None,,,,,,,,,,,,,,,,,,,,,,,,,,,,,,6,001,2023_Feb_01_1022,ExactRep-v3-final,2021.2.3,59.92789473822199,
,,,,,,,,7,0,7,0,,,,,,,,,,,,,,,,,,,,,,,,,,,,,,,,,,,,,,,,,,,,,,,,,,,,,1354.7811465999112,None,,,,,,,,,,,,,,,,,,,,,,,,,,,,,,,,,,,bird,35,8,sing,red,1352.779535699985,None,None,1352.779535699985,None,,,,,,,,,,,,,,,,,,,,,,,,,,,,,,6,001,2023_Feb_01_1022,ExactRep-v3-final,2021.2.3,59.92789473822199,
,,,,,,,,8,0,8,0,,,,,,,,,,,,,,,,,,,,,,,,,,,,,,,,,,,,,,,,,,,,,,,,,,,,,1357.3006406999193,None,,,,,,,,,,,,,,,,,,,,,,,,,,,,,,,,,,,meadow,106,9,aloud,white,1355.2897629999788,None,None,1355.2897629999788,None,,,,,,,,,,,,,,,,,,,,,,,,,,,,,,6,001,2023_Feb_01_1022,ExactRep-v3-final,2021.2.3,59.92789473822199,
,,,,,,,,9,0,9,0,,,,,,,,,,,,,,,,,,,,,,,,,,,,,,,,,,,,,,,,,,,,,,,,,,,,,1359.8029924998991,None,,,,,,,,,,,,,,,,,,,,,,,,,,,,,,,,,,,letter,18,10,sing,red,1357.803726199898,None,None,1357.803726199898,None,,,,,,,,,,,,,,,,,,,,,,,,,,,,,,6,001,2023_Feb_01_1022,ExactRep-v3-final,2021.2.3,59.92789473822199,
,,,,,,,,10,0,10,0,,,,,,,,,,,,,,,,,,,,,,,,,,,,,,,,,,,,,,,,,,,,,,,,,,,,,1362.3054829998873,None,,,,,,,,,,,,,,,,,,,,,,,,,,,,,,,,,,,factory,111,11,aloud,white,1360.3036904999753,None,None,1360.3036904999753,None,,,,,,,,,,,,,,,,,,,,,,,,,,,,,,6,001,2023_Feb_01_1022,ExactRep-v3-final,2021.2.3,59.92789473822199,
,,,,,,,,11,0,11,0,,,,,,,,,,,,,,,,,,,,,,,,,,,,,,,,,,,,,,,,,,,,,,,,,,,,,1364.8248292999342,None,,,,,,,,,,,,,,,,,,,,,,,,,,,,,,,,,,,college,73,12,silent,blue,1362.8098724999,None,None,1362.8098724999,None,,,,,,,,,,,,,,,,,,,,,,,,,,,,,,6,001,2023_Feb_01_1022,ExactRep-v3-final,2021.2.3,59.92789473822199,
,,,,,,,,12,0,12,0,,,,,,,,,,,,,,,,,,,,,,,,,,,,,,,,,,,,,,,,,,,,,,,,,,,,,1367.343903199886,None,,,,,,,,,,,,,,,,,,,,,,,,,,,,,,,,,,,plain,91,13,aloud,white,1365.3293442999711,None,None,1365.3293442999711,None,,,,,,,,,,,,,,,,,,,,,,,,,,,,,,6,001,2023_Feb_01_1022,ExactRep-v3-final,2021.2.3,59.92789473822199,
,,,,,,,,13,0,13,0,,,,,,,,,,,,,,,,,,,,,,,,,,,,,,,,,,,,,,,,,,,,,,,,,,,,,1369.863239999977,None,,,,,,,,,,,,,,,,,,,,,,,,,,,,,,,,,,,chief,72,14,silent,blue,1367.8511508998927,None,None,1367.8511508998927,None,,,,,,,,,,,,,,,,,,,,,,,,,,,,,,6,001,2023_Feb_01_1022,ExactRep-v3-final,2021.2.3,59.92789473822199,
,,,,,,,,14,0,14,0,,,,,,,,,,,,,,,,,,,,,,,,,,,,,,,,,,,,,,,,,,,,,,,,,,,,,1372.3688167999499,None,,,,,,,,,,,,,,,,,,,,,,,,,,,,,,,,,,,gold,70,15,silent,blue,1370.3636555999983,None,None,1370.3636555999983,None,,,,,,,,,,,,,,,,,,,,,,,,,,,,,,6,001,2023_Feb_01_1022,ExactRep-v3-final,2021.2.3,59.92789473822199,
,,,,,,,,15,0,15,0,,,,,,,,,,,,,,,,,,,,,,,,,,,,,,,,,,,,,,,,,,,,,,,,,,,,,1374.8848066999344,None,,,,,,,,,,,,,,,,,,,,,,,,,,,,,,,,,,,cost,61,16,silent,blue,1372.882667299942,None,None,1372.882667299942,None,,,,,,,,,,,,,,,,,,,,,,,,,,,,,,6,001,2023_Feb_01_1022,ExactRep-v3-final,2021.2.3,59.92789473822199,
,,,,,,,,16,0,16,0,,,,,,,,,,,,,,,,,,,,,,,,,,,,,,,,,,,,,,,,,,,,,,,,,,,,,1377.403965299949,None,,,,,,,,,,,,,,,,,,,,,,,,,,,,,,,,,,,fun,75,17,silent,blue,1375.396494799992,None,None,1375.396494799992,None,,,,,,,,,,,,,,,,,,,,,,,,,,,,,,6,001,2023_Feb_01_1022,ExactRep-v3-final,2021.2.3,59.92789473822199,
,,,,,,,,17,0,17,0,,,,,,,,,,,,,,,,,,,,,,,,,,,,,,,,,,,,,,,,,,,,,,,,,,,,,1379.9065496999538,None,,,,,,,,,,,,,,,,,,,,,,,,,,,,,,,,,,,poet,59,18,silent,blue,1377.9045168999583,None,None,1377.9045168999583,None,,,,,,,,,,,,,,,,,,,,,,,,,,,,,,6,001,2023_Feb_01_1022,ExactRep-v3-final,2021.2.3,59.92789473822199,
,,,,,,,,18,0,18,0,,,,,,,,,,,,,,,,,,,,,,,,,,,,,,,,,,,,,,,,,,,,,,,,,,,,,1382.4256852999097,None,,,,,,,,,,,,,,,,,,,,,,,,,,,,,,,,,,,opinion,86,19,aloud,white,1380.4161596999038,None,None,1380.4161596999038,None,,,,,,,,,,,,,,,,,,,,,,,,,,,,,,6,001,2023_Feb_01_1022,ExactRep-v3-final,2021.2.3,59.92789473822199,
,,,,,,,,19,0,19,0,,,,,,,,,,,,,,,,,,,,,,,,,,,,,,,,,,,,,,,,,,,,,,,,,,,,,1384.9282047998859,None,,,,,,,,,,,,,,,,,,,,,,,,,,,,,,,,,,,spirit,43,20,silent,blue,1382.9281742998865,None,None,1382.9281742998865,None,,,,,,,,,,,,,,,,,,,,,,,,,,,,,,6,001,2023_Feb_01_1022,ExactRep-v3-final,2021.2.3,59.92789473822199,
,,,,,,,,20,0,20,0,,,,,,,,,,,,,,,,,,,,,,,,,,,,,,,,,,,,,,,,,,,,,,,,,,,,,1387.4305215999484,None,,,,,,,,,,,,,,,,,,,,,,,,,,,,,,,,,,,mind,67,21,silent,blue,1385.4310195998987,None,None,1385.4310195998987,None,,,,,,,,,,,,,,,,,,,,,,,,,,,,,,6,001,2023_Feb_01_1022,ExactRep-v3-final,2021.2.3,59.92789473822199,
,,,,,,,,21,0,21,0,,,,,,,,,,,,,,,,,,,,,,,,,,,,,,,,,,,,,,,,,,,,,,,,,,,,,1389.950065299985,None,,,,,,,,,,,,,,,,,,,,,,,,,,,,,,,,,,,virtue,30,22,sing,red,1387.9381771999178,None,None,1387.9381771999178,None,,,,,,,,,,,,,,,,,,,,,,,,,,,,,,6,001,2023_Feb_01_1022,ExactRep-v3-final,2021.2.3,59.92789473822199,
,,,,,,,,22,0,22,0,,,,,,,,,,,,,,,,,,,,,,,,,,,,,,,,,,,,,,,,,,,,,,,,,,,,,1392.4525186999235,None,,,,,,,,,,,,,,,,,,,,,,,,,,,,,,,,,,,owner,100,23,aloud,white,1390.4502315999707,None,None,1390.4502315999707,None,,,,,,,,,,,,,,,,,,,,,,,,,,,,,,6,001,2023_Feb_01_1022,ExactRep-v3-final,2021.2.3,59.92789473822199,
,,,,,,,,23,0,23,0,,,,,,,,,,,,,,,,,,,,,,,,,,,,,,,,,,,,,,,,,,,,,,,,,,,,,1394.9547279999824,None,,,,,,,,,,,,,,,,,,,,,,,,,,,,,,,,,,,shadow,32,24,sing,red,1392.9557251998922,None,None,1392.9557251998922,None,,,,,,,,,,,,,,,,,,,,,,,,,,,,,,6,001,2023_Feb_01_1022,ExactRep-v3-final,2021.2.3,59.92789473822199,
,,,,,,,,24,0,24,0,,,,,,,,,,,,,,,,,,,,,,,,,,,,,,,,,,,,,,,,,,,,,,,,,,,,,1397.4741021998925,None,,,,,,,,,,,,,,,,,,,,,,,,,,,,,,,,,,,ocean,98,25,aloud,white,1395.460394899943,None,None,1395.460394899943,None,,,,,,,,,,,,,,,,,,,,,,,,,,,,,,6,001,2023_Feb_01_1022,ExactRep-v3-final,2021.2.3,59.92789473822199,
,,,,,,,,25,0,25,0,,,,,,,,,,,,,,,,,,,,,,,,,,,,,,,,,,,,,,,,,,,,,,,,,,,,,1399.9774957998889,None,,,,,,,,,,,,,,,,,,,,,,,,,,,,,,,,,,,soil,116,26,aloud,white,1397.9745361999376,None,None,1397.9745361999376,None,,,,,,,,,,,,,,,,,,,,,,,,,,,,,,6,001,2023_Feb_01_1022,ExactRep-v3-final,2021.2.3,59.92789473822199,
,,,,,,,,26,0,26,0,,,,,,,,,,,,,,,,,,,,,,,,,,,,,,,,,,,,,,,,,,,,,,,,,,,,,1402.4788491999498,None,,,,,,,,,,,,,,,,,,,,,,,,,,,,,,,,,,,boulder,2,27,sing,red,1400.478667999967,None,None,1400.478667999967,None,,,,,,,,,,,,,,,,,,,,,,,,,,,,,,6,001,2023_Feb_01_1022,ExactRep-v3-final,2021.2.3,59.92789473822199,
,,,,,,,,27,0,27,0,,,,,,,,,,,,,,,,,,,,,,,,,,,,,,,,,,,,,,,,,,,,,,,,,,,,,1404.9816551998956,None,,,,,,,,,,,,,,,,,,,,,,,,,,,,,,,,,,,home,34,28,sing,red,1402.9795250999741,None,None,1402.9795250999741,None,,,,,,,,,,,,,,,,,,,,,,,,,,,,,,6,001,2023_Feb_01_1022,ExactRep-v3-final,2021.2.3,59.92789473822199,
,,,,,,,,28,0,28,0,,,,,,,,,,,,,,,,,,,,,,,,,,,,,,,,,,,,,,,,,,,,,,,,,,,,,1407.4842414999148,None,,,,,,,,,,,,,,,,,,,,,,,,,,,,,,,,,,,science,6,29,sing,red,1405.4844017999712,None,None,1405.4844017999712,None,,,,,,,,,,,,,,,,,,,,,,,,,,,,,,6,001,2023_Feb_01_1022,ExactRep-v3-final,2021.2.3,59.92789473822199,
,,,,,,,,29,0,29,0,,,,,,,,,,,,,,,,,,,,,,,,,,,,,,,,,,,,,,,,,,,,,,,,,,,,,1410.0032650999492,None,,,,,,,,,,,,,,,,,,,,,,,,,,,,,,,,,,,cattle,105,30,aloud,white,1407.993323899922,None,None,1407.993323899922,None,,,,,,,,,,,,,,,,,,,,,,,,,,,,,,6,001,2023_Feb_01_1022,ExactRep-v3-final,2021.2.3,59.92789473822199,
,,,,,,,,30,0,30,0,,,,,,,,,,,,,,,,,,,,,,,,,,,,,,,,,,,,,,,,,,,,,,,,,,,,,1412.505510399933,None,,,,,,,,,,,,,,,,,,,,,,,,,,,,,,,,,,,sea,41,31,silent,blue,1410.5037038999144,None,None,1410.5037038999144,None,,,,,,,,,,,,,,,,,,,,,,,,,,,,,,6,001,2023_Feb_01_1022,ExactRep-v3-final,2021.2.3,59.92789473822199,
,,,,,,,,31,0,31,0,,,,,,,,,,,,,,,,,,,,,,,,,,,,,,,,,,,,,,,,,,,,,,,,,,,,,1415.0266189998947,None,,,,,,,,,,,,,,,,,,,,,,,,,,,,,,,,,,,justice,46,32,silent,blue,1413.0155114999507,None,None,1413.0155114999507,None,,,,,,,,,,,,,,,,,,,,,,,,,,,,,,6,001,2023_Feb_01_1022,ExactRep-v3-final,2021.2.3,59.92789473822199,
,,,,,,,,32,0,32,0,,,,,,,,,,,,,,,,,,,,,,,,,,,,,,,,,,,,,,,,,,,,,,,,,,,,,1417.5440925998846,None,,,,,,,,,,,,,,,,,,,,,,,,,,,,,,,,,,,grief,60,33,silent,blue,1415.5286002999637,None,None,1415.5286002999637,None,,,,,,,,,,,,,,,,,,,,,,,,,,,,,,6,001,2023_Feb_01_1022,ExactRep-v3-final,2021.2.3,59.92789473822199,
,,,,,,,,33,0,33,0,,,,,,,,,,,,,,,,,,,,,,,,,,,,,,,,,,,,,,,,,,,,,,,,,,,,,1420.0633614999242,None,,,,,,,,,,,,,,,,,,,,,,,,,,,,,,,,,,,green,26,34,sing,red,1418.0497646000003,None,None,1418.0497646000003,None,,,,,,,,,,,,,,,,,,,,,,,,,,,,,,6,001,2023_Feb_01_1022,ExactRep-v3-final,2021.2.3,59.92789473822199,
,,,,,,,,34,0,34,0,,,,,,,,,,,,,,,,,,,,,,,,,,,,,,,,,,,,,,,,,,,,,,,,,,,,,1422.5825688999612,None,,,,,,,,,,,,,,,,,,,,,,,,,,,,,,,,,,,steam,117,35,aloud,white,1420.5669042998925,None,None,1420.5669042998925,None,,,,,,,,,,,,,,,,,,,,,,,,,,,,,,6,001,2023_Feb_01_1022,ExactRep-v3-final,2021.2.3,59.92789473822199,
,,,,,,,,35,0,35,0,,,,,,,,,,,,,,,,,,,,,,,,,,,,,,,,,,,,,,,,,,,,,,,,,,,,,1425.0849186999258,None,,,,,,,,,,,,,,,,,,,,,,,,,,,,,,,,,,,seat,13,36,sing,red,1423.0839550999226,None,None,1423.0839550999226,None,,,,,,,,,,,,,,,,,,,,,,,,,,,,,,6,001,2023_Feb_01_1022,ExactRep-v3-final,2021.2.3,59.92789473822199,
,,,,,,,,36,0,36,0,,,,,,,,,,,,,,,,,,,,,,,,,,,,,,,,,,,,,,,,,,,,,,,,,,,,,1427.5874208998866,None,,,,,,,,,,,,,,,,,,,,,,,,,,,,,,,,,,,effort,110,37,aloud,white,1425.585369599983,None,None,1425.585369599983,None,,,,,,,,,,,,,,,,,,,,,,,,,,,,,,6,001,2023_Feb_01_1022,ExactRep-v3-final,2021.2.3,59.92789473822199,
,,,,,,,,37,0,37,0,,,,,,,,,,,,,,,,,,,,,,,,,,,,,,,,,,,,,,,,,,,,,,,,,,,,,1430.089955399977,None,,,,,,,,,,,,,,,,,,,,,,,,,,,,,,,,,,,shock,45,38,silent,blue,1428.0879759999225,None,None,1428.0879759999225,None,,,,,,,,,,,,,,,,,,,,,,,,,,,,,,6,001,2023_Feb_01_1022,ExactRep-v3-final,2021.2.3,59.92789473822199,
,,,,,,,,38,0,38,0,,,,,,,,,,,,,,,,,,,,,,,,,,,,,,,,,,,,,,,,,,,,,,,,,,,,,1432.5924420999363,None,,,,,,,,,,,,,,,,,,,,,,,,,,,,,,,,,,,mother,7,39,sing,red,1430.5920017999597,None,None,1430.5920017999597,None,,,,,,,,,,,,,,,,,,,,,,,,,,,,,,6,001,2023_Feb_01_1022,ExactRep-v3-final,2021.2.3,59.92789473822199,
,,,,,,,,39,0,39,0,,,,,,,,,,,,,,,,,,,,,,,,,,,,,,,,,,,,,,,,,,,,,,,,,,,,,1435.094951099949,None,,,,,,,,,,,,,,,,,,,,,,,,,,,,,,,,,,,bar,97,40,aloud,white,1433.0936244999757,None,None,1433.0936244999757,None,,,,,,,,,,,,,,,,,,,,,,,,,,,,,,6,001,2023_Feb_01_1022,ExactRep-v3-final,2021.2.3,59.92789473822199,
,,,,,,,,40,0,40,0,,,,,,,,,,,,,,,,,,,,,,,,,,,,,,,,,,,,,,,,,,,,,,,,,,,,,1437.597347999923,None,,,,,,,,,,,,,,,,,,,,,,,,,,,,,,,,,,,answer,69,41,silent,blue,1435.597988699912,None,None,1435.597988699912,None,,,,,,,,,,,,,,,,,,,,,,,,,,,,,,6,001,2023_Feb_01_1022,ExactRep-v3-final,2021.2.3,59.92789473822199,
,,,,,,,,41,0,41,0,,,,,,,,,,,,,,,,,,,,,,,,,,,,,,,,,,,,,,,,,,,,,,,,,,,,,1440.1165997999487,None,,,,,,,,,,,,,,,,,,,,,,,,,,,,,,,,,,,cash,14,42,sing,red,1438.1015948998975,None,None,1438.1015948998975,None,,,,,,,,,,,,,,,,,,,,,,,,,,,,,,6,001,2023_Feb_01_1022,ExactRep-v3-final,2021.2.3,59.92789473822199,
,,,,,,,,42,0,42,0,,,,,,,,,,,,,,,,,,,,,,,,,,,,,,,,,,,,,,,,,,,,,,,,,,,,,1442.61914049997,None,,,,,,,,,,,,,,,,,,,,,,,,,,,,,,,,,,,square,102,43,aloud,white,1440.6185643998906,None,None,1440.6185643998906,None,,,,,,,,,,,,,,,,,,,,,,,,,,,,,,6,001,2023_Feb_01_1022,ExactRep-v3-final,2021.2.3,59.92789473822199,
,,,,,,,,43,0,43,0,,,,,,,,,,,,,,,,,,,,,,,,,,,,,,,,,,,,,,,,,,,,,,,,,,,,,1445.1217672999483,None,,,,,,,,,,,,,,,,,,,,,,,,,,,,,,,,,,,wheat,83,44,aloud,white,1443.1224231999367,None,None,1443.1224231999367,None,,,,,,,,,,,,,,,,,,,,,,,,,,,,,,6,001,2023_Feb_01_1022,ExactRep-v3-final,2021.2.3,59.92789473822199,
,,,,,,,,44,0,44,0,,,,,,,,,,,,,,,,,,,,,,,,,,,,,,,,,,,,,,,,,,,,,,,,,,,,,1447.6408670999808,None,,,,,,,,,,,,,,,,,,,,,,,,,,,,,,,,,,,volume,11,45,sing,red,1445.625814699917,None,None,1445.625814699917,None,,,,,,,,,,,,,,,,,,,,,,,,,,,,,,6,001,2023_Feb_01_1022,ExactRep-v3-final,2021.2.3,59.92789473822199,
,,,,,,,,45,0,45,0,,,,,,,,,,,,,,,,,,,,,,,,,,,,,,,,,,,,,,,,,,,,,,,,,,,,,1450.1599341999972,None,,,,,,,,,,,,,,,,,,,,,,,,,,,,,,,,,,,ability,36,46,sing,red,1448.1495136999292,None,None,1448.1495136999292,None,,,,,,,,,,,,,,,,,,,,,,,,,,,,,,6,001,2023_Feb_01_1022,ExactRep-v3-final,2021.2.3,59.92789473822199,
,,,,,,,,46,0,46,0,,,,,,,,,,,,,,,,,,,,,,,,,,,,,,,,,,,,,,,,,,,,,,,,,,,,,1452.679225299973,None,,,,,,,,,,,,,,,,,,,,,,,,,,,,,,,,,,,water,5,47,sing,red,1450.6663471999345,None,None,1450.6663471999345,None,,,,,,,,,,,,,,,,,,,,,,,,,,,,,,6,001,2023_Feb_01_1022,ExactRep-v3-final,2021.2.3,59.92789473822199,
,,,,,,,,47,0,47,0,,,,,,,,,,,,,,,,,,,,,,,,,,,,,,,,,,,,,,,,,,,,,,,,,,,,,1455.1984382999362,None,,,,,,,,,,,,,,,,,,,,,,,,,,,,,,,,,,,moral,56,48,silent,blue,1453.1830539999064,None,None,1453.1830539999064,None,,,,,,,,,,,,,,,,,,,,,,,,,,,,,,6,001,2023_Feb_01_1022,ExactRep-v3-final,2021.2.3,59.92789473822199,
,,,,,,,,48,0,48,0,,,,,,,,,,,,,,,,,,,,,,,,,,,,,,,,,,,,,,,,,,,,,,,,,,,,,1457.717590099899,None,,,,,,,,,,,,,,,,,,,,,,,,,,,,,,,,,,,blood,81,49,aloud,white,1455.707300699898,None,None,1455.707300699898,None,,,,,,,,,,,,,,,,,,,,,,,,,,,,,,6,001,2023_Feb_01_1022,ExactRep-v3-final,2021.2.3,59.92789473822199,
,,,,,,,,49,0,49,0,,,,,,,,,,,,,,,,,,,,,,,,,,,,,,,,,,,,,,,,,,,,,,,,,,,,,1460.220055899932,None,,,,,,,,,,,,,,,,,,,,,,,,,,,,,,,,,,,breast,54,50,silent,blue,1458.218068499933,None,None,1458.218068499933,None,,,,,,,,,,,,,,,,,,,,,,,,,,,,,,6,001,2023_Feb_01_1022,ExactRep-v3-final,2021.2.3,59.92789473822199,
,,,,,,,,50,0,50,0,,,,,,,,,,,,,,,,,,,,,,,,,,,,,,,,,,,,,,,,,,,,,,,,,,,,,1462.722545699915,None,,,,,,,,,,,,,,,,,,,,,,,,,,,,,,,,,,,horse,22,51,sing,red,1460.7212669999572,None,None,1460.7212669999572,None,,,,,,,,,,,,,,,,,,,,,,,,,,,,,,6,001,2023_Feb_01_1022,ExactRep-v3-final,2021.2.3,59.92789473822199,
,,,,,,,,51,0,51,0,,,,,,,,,,,,,,,,,,,,,,,,,,,,,,,,,,,,,,,,,,,,,,,,,,,,,1465.2250675999094,None,,,,,,,,,,,,,,,,,,,,,,,,,,,,,,,,,,,lake,89,52,aloud,white,1463.2248773999745,None,None,1463.2248773999745,None,,,,,,,,,,,,,,,,,,,,,,,,,,,,,,6,001,2023_Feb_01_1022,ExactRep-v3-final,2021.2.3,59.92789473822199,
,,,,,,,,52,0,52,0,,,,,,,,,,,,,,,,,,,,,,,,,,,,,,,,,,,,,,,,,,,,,,,,,,,,,1467.7442312999628,None,,,,,,,,,,,,,,,,,,,,,,,,,,,,,,,,,,,colony,47,53,silent,blue,1465.7311353998957,None,None,1465.7311353998957,None,,,,,,,,,,,,,,,,,,,,,,,,,,,,,,6,001,2023_Feb_01_1022,ExactRep-v3-final,2021.2.3,59.92789473822199,
,,,,,,,,53,0,53,0,,,,,,,,,,,,,,,,,,,,,,,,,,,,,,,,,,,,,,,,,,,,,,,,,,,,,1470.246882099891,None,,,,,,,,,,,,,,,,,,,,,,,,,,,,,,,,,,,sky,87,54,aloud,white,1468.2448128999677,None,None,1468.2448128999677,None,,,,,,,,,,,,,,,,,,,,,,,,,,,,,,6,001,2023_Feb_01_1022,ExactRep-v3-final,2021.2.3,59.92789473822199,
,,,,,,,,54,0,54,0,,,,,,,,,,,,,,,,,,,,,,,,,,,,,,,,,,,,,,,,,,,,,,,,,,,,,1472.7491544999648,None,,,,,,,,,,,,,,,,,,,,,,,,,,,,,,,,,,,hall,74,55,silent,blue,1470.7491135998862,None,None,1470.7491135998862,None,,,,,,,,,,,,,,,,,,,,,,,,,,,,,,6,001,2023_Feb_01_1022,ExactRep-v3-final,2021.2.3,59.92789473822199,
,,,,,,,,55,0,55,0,,,,,,,,,,,,,,,,,,,,,,,,,,,,,,,,,,,,,,,,,,,,,,,,,,,,,1475.2517647999339,None,,,,,,,,,,,,,,,,,,,,,,,,,,,,,,,,,,,coffee,90,56,aloud,white,1473.25261519989,None,None,1473.25261519989,None,,,,,,,,,,,,,,,,,,,,,,,,,,,,,,6,001,2023_Feb_01_1022,ExactRep-v3-final,2021.2.3,59.92789473822199,
,,,,,,,,56,0,56,0,,,,,,,,,,,,,,,,,,,,,,,,,,,,,,,,,,,,,,,,,,,,,,,,,,,,,1477.7709665999282,None,,,,,,,,,,,,,,,,,,,,,,,,,,,,,,,,,,,law,23,57,sing,red,1475.7581762999762,None,None,1475.7581762999762,None,,,,,,,,,,,,,,,,,,,,,,,,,,,,,,6,001,2023_Feb_01_1022,ExactRep-v3-final,2021.2.3,59.92789473822199,
,,,,,,,,57,0,57,0,,,,,,,,,,,,,,,,,,,,,,,,,,,,,,,,,,,,,,,,,,,,,,,,,,,,,1480.29020389996,None,,,,,,,,,,,,,,,,,,,,,,,,,,,,,,,,,,,hide,48,58,silent,blue,1478.280568899936,None,None,1478.280568899936,None,,,,,,,,,,,,,,,,,,,,,,,,,,,,,,6,001,2023_Feb_01_1022,ExactRep-v3-final,2021.2.3,59.92789473822199,
,,,,,,,,58,0,58,0,,,,,,,,,,,,,,,,,,,,,,,,,,,,,,,,,,,,,,,,,,,,,,,,,,,,,1482.8091639999766,None,,,,,,,,,,,,,,,,,,,,,,,,,,,,,,,,,,,shame,68,59,silent,blue,1480.7945053000003,None,None,1480.7945053000003,None,,,,,,,,,,,,,,,,,,,,,,,,,,,,,,6,001,2023_Feb_01_1022,ExactRep-v3-final,2021.2.3,59.92789473822199,
,,,,,,,,59,0,59,0,,,,,,,,,,,,,,,,,,,,,,,,,,,,,,,,,,,,,,,,,,,,,,,,,,,,,1485.3118925999152,None,,,,,,,,,,,,,,,,,,,,,,,,,,,,,,,,,,,body,115,60,aloud,white,1483.311078599887,None,None,1483.311078599887,None,,,,,,,,,,,,,,,,,,,,,,,,,,,,,,6,001,2023_Feb_01_1022,ExactRep-v3-final,2021.2.3,59.92789473822199,
,,,,,,,,60,0,60,0,,,,,,,,,,,,,,,,,,,,,,,,,,,,,,,,,,,,,,,,,,,,,,,,,,,,,1487.8142112999922,None,,,,,,,,,,,,,,,,,,,,,,,,,,,,,,,,,,,sugar,20,61,sing,red,1485.814276699908,None,None,1485.814276699908,None,,,,,,,,,,,,,,,,,,,,,,,,,,,,,,6,001,2023_Feb_01_1022,ExactRep-v3-final,2021.2.3,59.92789473822199,
,,,,,,,,61,0,61,0,,,,,,,,,,,,,,,,,,,,,,,,,,,,,,,,,,,,,,,,,,,,,,,,,,,,,1490.316864399938,None,,,,,,,,,,,,,,,,,,,,,,,,,,,,,,,,,,,grass,99,62,aloud,white,1488.316468099947,None,None,1488.316468099947,None,,,,,,,,,,,,,,,,,,,,,,,,,,,,,,6,001,2023_Feb_01_1022,ExactRep-v3-final,2021.2.3,59.92789473822199,
,,,,,,,,62,0,62,0,,,,,,,,,,,,,,,,,,,,,,,,,,,,,,,,,,,,,,,,,,,,,,,,,,,,,1492.8223680999363,None,,,,,,,,,,,,,,,,,,,,,,,,,,,,,,,,,,,maiden,38,63,sing,red,1490.8175662999274,None,None,1490.8175662999274,None,,,,,,,,,,,,,,,,,,,,,,,,,,,,,,6,001,2023_Feb_01_1022,ExactRep-v3-final,2021.2.3,59.92789473822199,
,,,,,,,,63,0,63,0,,,,,,,,,,,,,,,,,,,,,,,,,,,,,,,,,,,,,,,,,,,,,,,,,,,,,1495.3385296999477,None,,,,,,,,,,,,,,,,,,,,,,,,,,,,,,,,,,,style,62,64,silent,blue,1493.3374491999857,None,None,1493.3374491999857,None,,,,,,,,,,,,,,,,,,,,,,,,,,,,,,6,001,2023_Feb_01_1022,ExactRep-v3-final,2021.2.3,59.92789473822199,
,,,,,,,,64,0,64,0,,,,,,,,,,,,,,,,,,,,,,,,,,,,,,,,,,,,,,,,,,,,,,,,,,,,,1497.8576532999286,None,,,,,,,,,,,,,,,,,,,,,,,,,,,,,,,,,,,power,1,65,sing,red,1495.8434628999094,None,None,1495.8434628999094,None,,,,,,,,,,,,,,,,,,,,,,,,,,,,,,6,001,2023_Feb_01_1022,ExactRep-v3-final,2021.2.3,59.92789473822199,
,,,,,,,,65,0,65,0,,,,,,,,,,,,,,,,,,,,,,,,,,,,,,,,,,,,,,,,,,,,,,,,,,,,,1500.3601645999588,None,,,,,,,,,,,,,,,,,,,,,,,,,,,,,,,,,,,lad,112,66,aloud,white,1498.3581652999856,None,None,1498.3581652999856,None,,,,,,,,,,,,,,,,,,,,,,,,,,,,,,6,001,2023_Feb_01_1022,ExactRep-v3-final,2021.2.3,59.92789473822199,
,,,,,,,,66,0,66,0,,,,,,,,,,,,,,,,,,,,,,,,,,,,,,,,,,,,,,,,,,,,,,,,,,,,,1502.862701099948,None,,,,,,,,,,,,,,,,,,,,,,,,,,,,,,,,,,,journal,3,67,sing,red,1500.8635945999995,None,None,1500.8635945999995,None,,,,,,,,,,,,,,,,,,,,,,,,,,,,,,6,001,2023_Feb_01_1022,ExactRep-v3-final,2021.2.3,59.92789473822199,
,,,,,,,,67,0,67,0,,,,,,,,,,,,,,,,,,,,,,,,,,,,,,,,,,,,,,,,,,,,,,,,,,,,,1505.3815825999482,None,,,,,,,,,,,,,,,,,,,,,,,,,,,,,,,,,,,leader,109,68,aloud,white,1503.3684195999522,None,None,1503.3684195999522,None,,,,,,,,,,,,,,,,,,,,,,,,,,,,,,6,001,2023_Feb_01_1022,ExactRep-v3-final,2021.2.3,59.92789473822199,
,,,,,,,,68,0,68,0,,,,,,,,,,,,,,,,,,,,,,,,,,,,,,,,,,,,,,,,,,,,,,,,,,,,,1507.884423499927,None,,,,,,,,,,,,,,,,,,,,,,,,,,,,,,,,,,,fire,77,69,silent,blue,1505.8826117999852,None,None,1505.8826117999852,None,,,,,,,,,,,,,,,,,,,,,,,,,,,,,,6,001,2023_Feb_01_1022,ExactRep-v3-final,2021.2.3,59.92789473822199,
,,,,,,,,69,0,69,0,,,,,,,,,,,,,,,,,,,,,,,,,,,,,,,,,,,,,,,,,,,,,,,,,,,,,1510.3889990999596,None,,,,,,,,,,,,,,,,,,,,,,,,,,,,,,,,,,,ticket,71,70,silent,blue,1508.3849022999639,None,None,1508.3849022999639,None,,,,,,,,,,,,,,,,,,,,,,,,,,,,,,6,001,2023_Feb_01_1022,ExactRep-v3-final,2021.2.3,59.92789473822199,
,,,,,,,,70,0,70,0,,,,,,,,,,,,,,,,,,,,,,,,,,,,,,,,,,,,,,,,,,,,,,,,,,,,,1512.9060954999877,None,,,,,,,,,,,,,,,,,,,,,,,,,,,,,,,,,,,health,4,71,sing,red,1510.9040853999322,None,None,1510.9040853999322,None,,,,,,,,,,,,,,,,,,,,,,,,,,,,,,6,001,2023_Feb_01_1022,ExactRep-v3-final,2021.2.3,59.92789473822199,
,,,,,,,,71,0,71,0,,,,,,,,,,,,,,,,,,,,,,,,,,,,,,,,,,,,,,,,,,,,,,,,,,,,,1515.4252128999215,None,,,,,,,,,,,,,,,,,,,,,,,,,,,,,,,,,,,air,104,72,aloud,white,1513.410099599976,None,None,1513.410099599976,None,,,,,,,,,,,,,,,,,,,,,,,,,,,,,,6,001,2023_Feb_01_1022,ExactRep-v3-final,2021.2.3,59.92789473822199,
,,,,,,,,72,0,72,0,,,,,,,,,,,,,,,,,,,,,,,,,,,,,,,,,,,,,,,,,,,,,,,,,,,,,1517.9277772998903,None,,,,,,,,,,,,,,,,,,,,,,,,,,,,,,,,,,,heaven,53,73,silent,blue,1515.9275500999065,None,None,1515.9275500999065,None,,,,,,,,,,,,,,,,,,,,,,,,,,,,,,6,001,2023_Feb_01_1022,ExactRep-v3-final,2021.2.3,59.92789473822199,
,,,,,,,,73,0,73,0,,,,,,,,,,,,,,,,,,,,,,,,,,,,,,,,,,,,,,,,,,,,,,,,,,,,,1520.447510399972,None,,,,,,,,,,,,,,,,,,,,,,,,,,,,,,,,,,,book,94,74,aloud,white,1518.4363740999252,None,None,1518.4363740999252,None,,,,,,,,,,,,,,,,,,,,,,,,,,,,,,6,001,2023_Feb_01_1022,ExactRep-v3-final,2021.2.3,59.92789473822199,
,,,,,,,,74,0,74,0,,,,,,,,,,,,,,,,,,,,,,,,,,,,,,,,,,,,,,,,,,,,,,,,,,,,,1522.9493775999872,None,,,,,,,,,,,,,,,,,,,,,,,,,,,,,,,,,,,lord,0,75,sing,red,1520.948248899891,None,None,1520.948248899891,None,,,,,,,,,,,,,,,,,,,,,,,,,,,,,,6,001,2023_Feb_01_1022,ExactRep-v3-final,2021.2.3,59.92789473822199,
,,,,,,,,75,0,75,0,,,,,,,,,,,,,,,,,,,,,,,,,,,,,,,,,,,,,,,,,,,,,,,,,,,,,1525.4550515998853,None,,,,,,,,,,,,,,,,,,,,,,,,,,,,,,,,,,,amount,57,76,silent,blue,1523.4498780999565,None,None,1523.4498780999565,None,,,,,,,,,,,,,,,,,,,,,,,,,,,,,,6,001,2023_Feb_01_1022,ExactRep-v3-final,2021.2.3,59.92789473822199,
,,,,,,,,76,0,76,0,,,,,,,,,,,,,,,,,,,,,,,,,,,,,,,,,,,,,,,,,,,,,,,,,,,,,1527.987814799999,None,,,,,,,,,,,,,,,,,,,,,,,,,,,,,,,,,,,form,88,77,aloud,white,1525.9725288999034,None,None,1525.9725288999034,None,,,,,,,,,,,,,,,,,,,,,,,,,,,,,,6,001,2023_Feb_01_1022,ExactRep-v3-final,2021.2.3,59.92789473822199,
,,,,,,,,77,0,77,0,,,,,,,,,,,,,,,,,,,,,,,,,,,,,,,,,,,,,,,,,,,,,,,,,,,,,1530.5069893999025,None,,,,,,,,,,,,,,,,,,,,,,,,,,,,,,,,,,,village,96,78,aloud,white,1528.4917121999897,None,None,1528.4917121999897,None,,,,,,,,,,,,,,,,,,,,,,,,,,,,,,6,001,2023_Feb_01_1022,ExactRep-v3-final,2021.2.3,59.92789473822199,
,,,,,,,,78,0,78,0,,,,,,,,,,,,,,,,,,,,,,,,,,,,,,,,,,,,,,,,,,,,,,,,,,,,,1533.009527899907,None,,,,,,,,,,,,,,,,,,,,,,,,,,,,,,,,,,,mercy,52,79,silent,blue,1531.0075248999055,None,None,1531.0075248999055,None,,,,,,,,,,,,,,,,,,,,,,,,,,,,,,6,001,2023_Feb_01_1022,ExactRep-v3-final,2021.2.3,59.92789473822199,
,,,,,,,,79,0,79,0,,,,,,,,,,,,,,,,,,,,,,,,,,,,,,,,,,,,,,,,,,,,,,,,,,,,,1535.5116734999465,None,,,,,,,,,,,,,,,,,,,,,,,,,,,,,,,,,,,artist,19,80,sing,red,1533.510833999957,None,None,1533.510833999957,None,,,,,,,,,,,,,,,,,,,,,,,,,,,,,,6,001,2023_Feb_01_1022,ExactRep-v3-final,2021.2.3,59.92789473822199,
,,,,,,,,80,0,80,0,,,,,,,,,,,,,,,,,,,,,,,,,,,,,,,,,,,,,,,,,,,,,,,,,,,,,1538.0311637999257,None,,,,,,,,,,,,,,,,,,,,,,,,,,,,,,,,,,,truth,17,81,sing,red,1536.0163422999904,None,None,1536.0163422999904,None,,,,,,,,,,,,,,,,,,,,,,,,,,,,,,6,001,2023_Feb_01_1022,ExactRep-v3-final,2021.2.3,59.92789473822199,
,,,,,,,,81,0,81,0,,,,,,,,,,,,,,,,,,,,,,,,,,,,,,,,,,,,,,,,,,,,,,,,,,,,,1540.5337301999098,None,,,,,,,,,,,,,,,,,,,,,,,,,,,,,,,,,,,death,58,82,silent,blue,1538.5339356999611,None,None,1538.5339356999611,None,,,,,,,,,,,,,,,,,,,,,,,,,,,,,,6,001,2023_Feb_01_1022,ExactRep-v3-final,2021.2.3,59.92789473822199,
,,,,,,,,82,0,82,0,,,,,,,,,,,,,,,,,,,,,,,,,,,,,,,,,,,,,,,,,,,,,,,,,,,,,1543.0362049998948,None,,,,,,,,,,,,,,,,,,,,,,,,,,,,,,,,,,,chair,24,83,sing,red,1541.0364475999959,None,None,1541.0364475999959,None,,,,,,,,,,,,,,,,,,,,,,,,,,,,,,6,001,2023_Feb_01_1022,ExactRep-v3-final,2021.2.3,59.92789473822199,
,,,,,,,,83,0,83,0,,,,,,,,,,,,,,,,,,,,,,,,,,,,,,,,,,,,,,,,,,,,,,,,,,,,,1545.538684799918,None,,,,,,,,,,,,,,,,,,,,,,,,,,,,,,,,,,,quality,95,84,aloud,white,1543.536747999955,None,None,1543.536747999955,None,,,,,,,,,,,,,,,,,,,,,,,,,,,,,,6,001,2023_Feb_01_1022,ExactRep-v3-final,2021.2.3,59.92789473822199,
,,,,,,,,84,0,84,0,,,,,,,,,,,,,,,,,,,,,,,,,,,,,,,,,,,,,,,,,,,,,,,,,,,,,1548.0412233999232,None,,,,,,,,,,,,,,,,,,,,,,,,,,,,,,,,,,,master,80,85,aloud,white,1546.0392047999194,None,None,1546.0392047999194,None,,,,,,,,,,,,,,,,,,,,,,,,,,,,,,6,001,2023_Feb_01_1022,ExactRep-v3-final,2021.2.3,59.92789473822199,
,,,,,,,,85,0,85,0,,,,,,,,,,,,,,,,,,,,,,,,,,,,,,,,,,,,,,,,,,,,,,,,,,,,,1550.5437220999738,None,,,,,,,,,,,,,,,,,,,,,,,,,,,,,,,,,,,fact,93,86,aloud,white,1548.5431291999994,None,None,1548.5431291999994,None,,,,,,,,,,,,,,,,,,,,,,,,,,,,,,6,001,2023_Feb_01_1022,ExactRep-v3-final,2021.2.3,59.92789473822199,
,,,,,,,,86,0,86,0,,,,,,,,,,,,,,,,,,,,,,,,,,,,,,,,,,,,,,,,,,,,,,,,,,,,,1553.0462076999247,None,,,,,,,,,,,,,,,,,,,,,,,,,,,,,,,,,,,prison,118,87,aloud,white,1551.0468190999236,None,None,1551.0468190999236,None,,,,,,,,,,,,,,,,,,,,,,,,,,,,,,6,001,2023_Feb_01_1022,ExactRep-v3-final,2021.2.3,59.92789473822199,
,,,,,,,,87,0,87,0,,,,,,,,,,,,,,,,,,,,,,,,,,,,,,,,,,,,,,,,,,,,,,,,,,,,,1555.5653777999105,None,,,,,,,,,,,,,,,,,,,,,,,,,,,,,,,,,,,board,65,88,silent,blue,1553.5531848999672,None,None,1553.5531848999672,None,,,,,,,,,,,,,,,,,,,,,,,,,,,,,,6,001,2023_Feb_01_1022,ExactRep-v3-final,2021.2.3,59.92789473822199,
,,,,,,,,88,0,88,0,,,,,,,,,,,,,,,,,,,,,,,,,,,,,,,,,,,,,,,,,,,,,,,,,,,,,1558.067813099944,None,,,,,,,,,,,,,,,,,,,,,,,,,,,,,,,,,,,dress,101,89,aloud,white,1556.0674950999673,None,None,1556.0674950999673,None,,,,,,,,,,,,,,,,,,,,,,,,,,,,,,6,001,2023_Feb_01_1022,ExactRep-v3-final,2021.2.3,59.92789473822199,
,,,,,,,,89,0,89,0,,,,,,,,,,,,,,,,,,,,,,,,,,,,,,,,,,,,,,,,,,,,,,,,,,,,,1560.5704038999975,None,,,,,,,,,,,,,,,,,,,,,,,,,,,,,,,,,,,disease,85,90,aloud,white,1558.571090499987,None,None,1558.571090499987,None,,,,,,,,,,,,,,,,,,,,,,,,,,,,,,6,001,2023_Feb_01_1022,ExactRep-v3-final,2021.2.3,59.92789473822199,
,,,,,,,,90,0,90,0,,,,,,,,,,,,,,,,,,,,,,,,,,,,,,,,,,,,,,,,,,,,,,,,,,,,,1563.0729365999578,None,,,,,,,,,,,,,,,,,,,,,,,,,,,,,,,,,,,hotel,92,91,aloud,white,1561.072587999981,None,None,1561.072587999981,None,,,,,,,,,,,,,,,,,,,,,,,,,,,,,,6,001,2023_Feb_01_1022,ExactRep-v3-final,2021.2.3,59.92789473822199,
,,,,,,,,91,0,91,0,,,,,,,,,,,,,,,,,,,,,,,,,,,,,,,,,,,,,,,,,,,,,,,,,,,,,1565.5751188999275,None,,,,,,,,,,,,,,,,,,,,,,,,,,,,,,,,,,,flag,108,92,aloud,white,1563.573452499928,None,None,1563.573452499928,None,,,,,,,,,,,,,,,,,,,,,,,,,,,,,,6,001,2023_Feb_01_1022,ExactRep-v3-final,2021.2.3,59.92789473822199,
,,,,,,,,92,0,92,0,,,,,,,,,,,,,,,,,,,,,,,,,,,,,,,,,,,,,,,,,,,,,,,,,,,,,1568.0945563999703,None,,,,,,,,,,,,,,,,,,,,,,,,,,,,,,,,,,,winter,55,93,silent,blue,1566.0862004999071,None,None,1566.0862004999071,None,,,,,,,,,,,,,,,,,,,,,,,,,,,,,,6,001,2023_Feb_01_1022,ExactRep-v3-final,2021.2.3,59.92789473822199,
,,,,,,,,93,0,93,0,,,,,,,,,,,,,,,,,,,,,,,,,,,,,,,,,,,,,,,,,,,,,,,,,,,,,1570.5971205999376,None,,,,,,,,,,,,,,,,,,,,,,,,,,,,,,,,,,,child,33,94,sing,red,1568.5949895998929,None,None,1568.5949895998929,None,,,,,,,,,,,,,,,,,,,,,,,,,,,,,,6,001,2023_Feb_01_1022,ExactRep-v3-final,2021.2.3,59.92789473822199,
,,,,,,,,94,0,94,0,,,,,,,,,,,,,,,,,,,,,,,,,,,,,,,,,,,,,,,,,,,,,,,,,,,,,1573.116136699915,None,,,,,,,,,,,,,,,,,,,,,,,,,,,,,,,,,,,lip,50,95,silent,blue,1571.1061064999085,None,None,1571.1061064999085,None,,,,,,,,,,,,,,,,,,,,,,,,,,,,,,6,001,2023_Feb_01_1022,ExactRep-v3-final,2021.2.3,59.92789473822199,
,,,,,,,,95,0,95,0,,,,,,,,,,,,,,,,,,,,,,,,,,,,,,,,,,,,,,,,,,,,,,,,,,,,,1575.6351352999918,None,,,,,,,,,,,,,,,,,,,,,,,,,,,,,,,,,,,love,114,96,aloud,white,1573.623200599919,None,None,1573.623200599919,None,,,,,,,,,,,,,,,,,,,,,,,,,,,,,,6,001,2023_Feb_01_1022,ExactRep-v3-final,2021.2.3,59.92789473822199,
,,,,,,,,96,0,96,0,,,,,,,,,,,,,,,,,,,,,,,,,,,,,,,,,,,,,,,,,,,,,,,,,,,,,1578.1379044998903,None,,,,,,,,,,,,,,,,,,,,,,,,,,,,,,,,,,,vision,15,97,sing,red,1576.1358831999823,None,None,1576.1358831999823,None,,,,,,,,,,,,,,,,,,,,,,,,,,,,,,6,001,2023_Feb_01_1022,ExactRep-v3-final,2021.2.3,59.92789473822199,
,,,,,,,,97,0,97,0,,,,,,,,,,,,,,,,,,,,,,,,,,,,,,,,,,,,,,,,,,,,,,,,,,,,,1580.6570463998942,None,,,,,,,,,,,,,,,,,,,,,,,,,,,,,,,,,,,safety,44,98,silent,blue,1578.6423630999634,None,None,1578.6423630999634,None,,,,,,,,,,,,,,,,,,,,,,,,,,,,,,6,001,2023_Feb_01_1022,ExactRep-v3-final,2021.2.3,59.92789473822199,
,,,,,,,,98,0,98,0,,,,,,,,,,,,,,,,,,,,,,,,,,,,,,,,,,,,,,,,,,,,,,,,,,,,,1583.1763186999597,None,,,,,,,,,,,,,,,,,,,,,,,,,,,,,,,,,,,salary,64,99,silent,blue,1581.1620406999718,None,None,1581.1620406999718,None,,,,,,,,,,,,,,,,,,,,,,,,,,,,,,6,001,2023_Feb_01_1022,ExactRep-v3-final,2021.2.3,59.92789473822199,
,,,,,,,,99,0,99,0,,,,,,,,,,,,,,,,,,,,,,,,,,,,,,,,,,,,,,,,,,,,,,,,,,,,,1585.6789008999476,None,,,,,,,,,,,,,,,,,,,,,,,,,,,,,,,,,,,city,107,100,aloud,white,1583.6767861999106,None,None,1583.6767861999106,None,,,,,,,,,,,,,,,,,,,,,,,,,,,,,,6,001,2023_Feb_01_1022,ExactRep-v3-final,2021.2.3,59.92789473822199,
,,,,,,,,100,0,100,0,,,,,,,,,,,,,,,,,,,,,,,,,,,,,,,,,,,,,,,,,,,,,,,,,,,,,1588.1810691999272,None,,,,,,,,,,,,,,,,,,,,,,,,,,,,,,,,,,,passion,40,101,silent,blue,1586.1805976999458,None,None,1586.1805976999458,None,,,,,,,,,,,,,,,,,,,,,,,,,,,,,,6,001,2023_Feb_01_1022,ExactRep-v3-final,2021.2.3,59.92789473822199,
,,,,,,,,101,0,101,0,,,,,,,,,,,,,,,,,,,,,,,,,,,,,,,,,,,,,,,,,,,,,,,,,,,,,1590.7004861999303,None,,,,,,,,,,,,,,,,,,,,,,,,,,,,,,,,,,,dream,12,102,sing,red,1588.6883156999247,None,None,1588.6883156999247,None,,,,,,,,,,,,,,,,,,,,,,,,,,,,,,6,001,2023_Feb_01_1022,ExactRep-v3-final,2021.2.3,59.92789473822199,
,,,,,,,,102,0,102,0,,,,,,,,,,,,,,,,,,,,,,,,,,,,,,,,,,,,,,,,,,,,,,,,,,,,,1593.2028912999667,None,,,,,,,,,,,,,,,,,,,,,,,,,,,,,,,,,,,arm,51,103,silent,blue,1591.2009077999974,None,None,1591.2009077999974,None,,,,,,,,,,,,,,,,,,,,,,,,,,,,,,6,001,2023_Feb_01_1022,ExactRep-v3-final,2021.2.3,59.92789473822199,
,,,,,,,,103,0,103,0,,,,,,,,,,,,,,,,,,,,,,,,,,,,,,,,,,,,,,,,,,,,,,,,,,,,,1595.7221600998892,None,,,,,,,,,,,,,,,,,,,,,,,,,,,,,,,,,,,season,25,104,sing,red,1593.7153101998847,None,None,1593.7153101998847,None,,,,,,,,,,,,,,,,,,,,,,,,,,,,,,6,001,2023_Feb_01_1022,ExactRep-v3-final,2021.2.3,59.92789473822199,
,,,,,,,,104,0,104,0,,,,,,,,,,,,,,,,,,,,,,,,,,,,,,,,,,,,,,,,,,,,,,,,,,,,,1598.2413715999573,None,,,,,,,,,,,,,,,,,,,,,,,,,,,,,,,,,,,vessel,103,105,aloud,white,1596.2298727999441,None,None,1596.2298727999441,None,,,,,,,,,,,,,,,,,,,,,,,,,,,,,,6,001,2023_Feb_01_1022,ExactRep-v3-final,2021.2.3,59.92789473822199,
,,,,,,,,105,0,105,0,,,,,,,,,,,,,,,,,,,,,,,,,,,,,,,,,,,,,,,,,,,,,,,,,,,,,1600.743759999983,None,,,,,,,,,,,,,,,,,,,,,,,,,,,,,,,,,,,slave,78,106,silent,blue,1598.741784599959,None,None,1598.741784599959,None,,,,,,,,,,,,,,,,,,,,,,,,,,,,,,6,001,2023_Feb_01_1022,ExactRep-v3-final,2021.2.3,59.92789473822199,
,,,,,,,,106,0,106,0,,,,,,,,,,,,,,,,,,,,,,,,,,,,,,,,,,,,,,,,,,,,,,,,,,,,,1603.2630038999487,None,,,,,,,,,,,,,,,,,,,,,,,,,,,,,,,,,,,cat,28,107,sing,red,1601.2515666999388,None,None,1601.2515666999388,None,,,,,,,,,,,,,,,,,,,,,,,,,,,,,,6,001,2023_Feb_01_1022,ExactRep-v3-final,2021.2.3,59.92789473822199,
,,,,,,,,107,0,107,0,,,,,,,,,,,,,,,,,,,,,,,,,,,,,,,,,,,,,,,,,,,,,,,,,,,,,1605.7655293999705,None,,,,,,,,,,,,,,,,,,,,,,,,,,,,,,,,,,,beast,119,108,aloud,white,1603.7635505999206,None,None,1603.7635505999206,None,,,,,,,,,,,,,,,,,,,,,,,,,,,,,,6,001,2023_Feb_01_1022,ExactRep-v3-final,2021.2.3,59.92789473822199,
,,,,,,,,108,0,108,0,,,,,,,,,,,,,,,,,,,,,,,,,,,,,,,,,,,,,,,,,,,,,,,,,,,,,1608.268024399993,None,,,,,,,,,,,,,,,,,,,,,,,,,,,,,,,,,,,crime,39,109,silent,blue,1606.2677597999573,None,None,1606.2677597999573,None,,,,,,,,,,,,,,,,,,,,,,,,,,,,,,6,001,2023_Feb_01_1022,ExactRep-v3-final,2021.2.3,59.92789473822199,
,,,,,,,,109,0,109,0,,,,,,,,,,,,,,,,,,,,,,,,,,,,,,,,,,,,,,,,,,,,,,,,,,,,,1610.7704393999884,None,,,,,,,,,,,,,,,,,,,,,,,,,,,,,,,,,,,temple,76,110,silent,blue,1608.770141899935,None,None,1608.770141899935,None,,,,,,,,,,,,,,,,,,,,,,,,,,,,,,6,001,2023_Feb_01_1022,ExactRep-v3-final,2021.2.3,59.92789473822199,
,,,,,,,,110,0,110,0,,,,,,,,,,,,,,,,,,,,,,,,,,,,,,,,,,,,,,,,,,,,,,,,,,,,,1613.289682099945,None,,,,,,,,,,,,,,,,,,,,,,,,,,,,,,,,,,,deed,21,111,sing,red,1611.2820251999656,None,None,1611.2820251999656,None,,,,,,,,,,,,,,,,,,,,,,,,,,,,,,6,001,2023_Feb_01_1022,ExactRep-v3-final,2021.2.3,59.92789473822199,
,,,,,,,,111,0,111,0,,,,,,,,,,,,,,,,,,,,,,,,,,,,,,,,,,,,,,,,,,,,,,,,,,,,,1615.7921941999812,None,,,,,,,,,,,,,,,,,,,,,,,,,,,,,,,,,,,charm,9,112,sing,red,1613.7925437999656,None,None,1613.7925437999656,None,,,,,,,,,,,,,,,,,,,,,,,,,,,,,,6,001,2023_Feb_01_1022,ExactRep-v3-final,2021.2.3,59.92789473822199,
,,,,,,,,112,0,112,0,,,,,,,,,,,,,,,,,,,,,,,,,,,,,,,,,,,,,,,,,,,,,,,,,,,,,1618.3113694998901,None,,,,,,,,,,,,,,,,,,,,,,,,,,,,,,,,,,,custom,79,113,sing,red,1616.2959405999864,None,None,1616.2959405999864,None,,,,,,,,,,,,,,,,,,,,,,,,,,,,,,6,001,2023_Feb_01_1022,ExactRep-v3-final,2021.2.3,59.92789473822199,
,,,,,,,,113,0,113,0,,,,,,,,,,,,,,,,,,,,,,,,,,,,,,,,,,,,,,,,,,,,,,,,,,,,,1620.8305374999763,None,,,,,,,,,,,,,,,,,,,,,,,,,,,,,,,,,,,river,16,114,sing,red,1618.8226382998982,None,None,1618.8226382998982,None,,,,,,,,,,,,,,,,,,,,,,,,,,,,,,6,001,2023_Feb_01_1022,ExactRep-v3-final,2021.2.3,59.92789473822199,
,,,,,,,,114,0,114,0,,,,,,,,,,,,,,,,,,,,,,,,,,,,,,,,,,,,,,,,,,,,,,,,,,,,,1623.3330512999091,None,,,,,,,,,,,,,,,,,,,,,,,,,,,,,,,,,,,circle,84,115,aloud,white,1621.3311091999058,None,None,1621.3311091999058,None,,,,,,,,,,,,,,,,,,,,,,,,,,,,,,6,001,2023_Feb_01_1022,ExactRep-v3-final,2021.2.3,59.92789473822199,
,,,,,,,,115,0,115,0,,,,,,,,,,,,,,,,,,,,,,,,,,,,,,,,,,,,,,,,,,,,,,,,,,,,,1625.8523562999908,None,,,,,,,,,,,,,,,,,,,,,,,,,,,,,,,,,,,anger,37,116,sing,red,1623.8386859999737,None,None,1623.8386859999737,None,,,,,,,,,,,,,,,,,,,,,,,,,,,,,,6,001,2023_Feb_01_1022,ExactRep-v3-final,2021.2.3,59.92789473822199,
,,,,,,,,116,0,116,0,,,,,,,,,,,,,,,,,,,,,,,,,,,,,,,,,,,,,,,,,,,,,,,,,,,,,1628.3557411999209,None,,,,,,,,,,,,,,,,,,,,,,,,,,,,,,,,,,,teacher,66,117,silent,blue,1626.3557504999917,None,None,1626.3557504999917,None,,,,,,,,,,,,,,,,,,,,,,,,,,,,,,6,001,2023_Feb_01_1022,ExactRep-v3-final,2021.2.3,59.92789473822199,
,,,,,,,,117,0,117,0,,,,,,,,,,,,,,,,,,,,,,,,,,,,,,,,,,,,,,,,,,,,,,,,,,,,,1630.8739893999882,None,,,,,,,,,,,,,,,,,,,,,,,,,,,,,,,,,,,chance,82,118,aloud,white,1628.8586406999966,None,None,1628.8586406999966,None,,,,,,,,,,,,,,,,,,,,,,,,,,,,,,6,001,2023_Feb_01_1022,ExactRep-v3-final,2021.2.3,59.92789473822199,
,,,,,,,,118,0,118,0,,,,,,,,,,,,,,,,,,,,,,,,,,,,,,,,,,,,,,,,,,,,,,,,,,,,,1633.376349399914,None,,,,,,,,,,,,,,,,,,,,,,,,,,,,,,,,,,,picture,8,119,sing,red,1631.3753420999274,None,None,1631.3753420999274,None,,,,,,,,,,,,,,,,,,,,,,,,,,,,,,6,001,2023_Feb_01_1022,ExactRep-v3-final,2021.2.3,59.92789473822199,
,,,,,,,,119,0,119,0,,,,,,,,,,,,,,,,,,,,,,,,,,,,,,,,,,,,,,,,,,,,,,,,,,,,,1635.8789611998945,None,,,,,,,,,,,,,,,,,,,,,,,,,,,,,,,,,,,cotton,49,120,silent,blue,1633.8785603999859,None,None,1633.8785603999859,None,,,,,,,,,,,,,,,,,,,,,,,,,,,,,,6,001,2023_Feb_01_1022,ExactRep-v3-final,2021.2.3,59.92789473822199,
,,,,,,,,,,,,,,,,,,,,,,,,,,,,,,,,,,,,,,,,,,,,,,,,,,,,,,,,,,,,,,,,,,,,,,,,,,,,,,,,,,,,,,,,,,,,,,,,,,,,,,,,,,,,,,1636.3810870999005,None,space,6.9777615000493824,1646.357414499973,None,,,,,,,,,,,,,,,,,,,,,,,,6,001,2023_Feb_01_1022,ExactRep-v3-final,2021.2.3,59.92789473822199,
,,,,,,,,,,,,,,,,,,,,,,,,,,,,,,,,,,,,,,,,,,,,,,,,,,,,,,,,,,,,,,,,,,,,,,,,,,,,,,,,,,,,,,,,,,,,,,,,,,,,,,,,,,,,,,,,,,,,1653.3648993999232,None,space,32.36994540004525,1663.341182599892,None,,,,,,,,,,,,,,,,,,6,001,2023_Feb_01_1022,ExactRep-v3-final,2021.2.3,59.92789473822199,
,,,,,,,,,,,,0,0,0,0,,,,,,,,,,,,,,,,,,,,,,,,,,,,,,,,,,,,,,,,,,,,,,,,,1701.7299420998897,None,,,,,,,,,,,,,,,,,,,,,,,,,,,,,,,,,,,,,,,,,,,,,,,,,,,,,,,,,rod,227,1,sing,new,red,1696.253351299907,None,n,1696.253351299907,None,"['n', 'return']","[3.2493494999362156, 5.433380299946293]",1696.253351299907,None,,,6,001,2023_Feb_01_1022,ExactRep-v3-final,2021.2.3,59.92789473822199,
,,,,,,,,,,,,1,0,1,0,,,,,,,,,,,,,,,,,,,,,,,,,,,,,,,,,,,,,,,,,,,,,,,,,1706.3493932998972,None,,,,,,,,,,,,,,,,,,,,,,,,,,,,,,,,,,,,,,,,,,,,,,,,,,,,,,,,,star,190,2,aloud,new,white,1702.2557551999344,None,n,1702.2557551999344,None,"['n', 'return']","[2.6070910999551415, 4.05511519999709]",1702.2557551999344,None,,,6,001,2023_Feb_01_1022,ExactRep-v3-final,2021.2.3,59.92789473822199,
,,,,,,,,,,,,2,0,2,0,,,,,,,,,,,,,,,,,,,,,,,,,,,,,,,,,,,,,,,,,,,,,,,,,1711.6545193999773,None,,,,,,,,,,,,,,,,,,,,,,,,,,,,,,,,,,,,,,,,,,,,,,,,,,,,,,,,,shock,45,3,silent,old,blue,1706.8628923998913,None,n,1706.8628923998913,None,"['n', 'return']","[3.9439177999738604, 4.751891799969599]",1706.8628923998913,None,,,6,001,2023_Feb_01_1022,ExactRep-v3-final,2021.2.3,59.92789473822199,
,,,,,,,,,,,,3,0,3,0,,,,,,,,,,,,,,,,,,,,,,,,,,,,,,,,,,,,,,,,,,,,,,,,,1716.0090215998935,None,,,,,,,,,,,,,,,,,,,,,,,,,,,,,,,,,,,,,,,,,,,,,,,,,,,,,,,,,flood,148,4,silent,new,blue,1712.1627325998852,None,y,1712.1627325998852,None,"['y', 'return']","[2.7642493000021204, 3.8040107999695465]",1712.1627325998852,None,,,6,001,2023_Feb_01_1022,ExactRep-v3-final,2021.2.3,59.92789473822199,
,,,,,,,,,,,,4,0,4,0,,,,,,,,,,,,,,,,,,,,,,,,,,,,,,,,,,,,,,,,,,,,,,,,,1722.1984571999637,None,,,,,,,,,,,,,,,,,,,,,,,,,,,,,,,,,,,,,,,,,,,,,,,,,,,,,,,,,apple,221,5,sing,new,red,1716.5248492999235,None,n,1716.5248492999235,None,"['n', 'return']","[4.913852800033055, 5.6419148000422865]",1716.5248492999235,None,,,6,001,2023_Feb_01_1022,ExactRep-v3-final,2021.2.3,59.92789473822199,
,,,,,,,,,,,,5,0,5,0,,,,,,,,,,,,,,,,,,,,,,,,,,,,,,,,,,,,,,,,,,,,,,,,,1725.052418599953,None,,,,,,,,,,,,,,,,,,,,,,,,,,,,,,,,,,,,,,,,,,,,,,,,,,,,,,,,,avenue,202,6,aloud,new,white,1722.710409399937,None,n,1722.710409399937,None,"['n', 'return']","[1.2723160999594256, 2.304323000018485]",1722.710409399937,None,,,6,001,2023_Feb_01_1022,ExactRep-v3-final,2021.2.3,59.92789473822199,
,,,,,,,,,,,,6,0,6,0,,,,,,,,,,,,,,,,,,,,,,,,,,,,,,,,,,,,,,,,,,,,,,,,,1729.4557715998963,None,,,,,,,,,,,,,,,,,,,,,,,,,,,,,,,,,,,,,,,,,,,,,,,,,,,,,,,,,party,159,7,silent,new,blue,1725.5553515999345,None,n,1725.5553515999345,None,"['n', 'return']","[3.2274173999903724, 3.85943650000263]",1725.5553515999345,None,,,6,001,2023_Feb_01_1022,ExactRep-v3-final,2021.2.3,59.92789473822199,
,,,,,,,,,,,,7,0,7,0,,,,,,,,,,,,,,,,,,,,,,,,,,,,,,,,,,,,,,,,,,,,,,,,,1732.158403599984,None,,,,,,,,,,,,,,,,,,,,,,,,,,,,,,,,,,,,,,,,,,,,,,,,,,,,,,,,,fortune,126,8,silent,new,blue,1729.963167399983,None,n,1729.963167399983,None,"['n', 'return']","[1.3635332999983802, 2.147529299953021]",1729.963167399983,None,,,6,001,2023_Feb_01_1022,ExactRep-v3-final,2021.2.3,59.92789473822199,
,,,,,,,,,,,,8,0,8,0,,,,,,,,,,,,,,,,,,,,,,,,,,,,,,,,,,,,,,,,,,,,,,,,,1737.313562199939,None,,,,,,,,,,,,,,,,,,,,,,,,,,,,,,,,,,,,,,,,,,,,,,,,,,,,,,,,,insect,200,9,aloud,new,white,1732.6654490999645,None,n,1732.6654490999645,None,"['n', 'return']","[4.013200800050981, 4.605226299958304]",1732.6654490999645,None,,,6,001,2023_Feb_01_1022,ExactRep-v3-final,2021.2.3,59.92789473822199,
,,,,,,,,,,,,9,0,9,0,,,,,,,,,,,,,,,,,,,,,,,,,,,,,,,,,,,,,,,,,,,,,,,,,1743.2361514999066,None,,,,,,,,,,,,,,,,,,,,,,,,,,,,,,,,,,,,,,,,,,,,,,,,,,,,,,,,,bird,35,10,sing,old,red,1737.8225104999729,None,y,1737.8225104999729,None,"['y', 'return']","[1.8883010999998078, 5.368321700021625]",1737.8225104999729,None,,,6,001,2023_Feb_01_1022,ExactRep-v3-final,2021.2.3,59.92789473822199,
,,,,,,,,,,,,10,0,10,0,,,,,,,,,,,,,,,,,,,,,,,,,,,,,,,,,,,,,,,,,,,,,,,,,1747.373335299897,None,,,,,,,,,,,,,,,,,,,,,,,,,,,,,,,,,,,,,,,,,,,,,,,,,,,,,,,,,slave,78,11,silent,old,blue,1743.7474198999116,None,y,1743.7474198999116,None,"['y', 'return']","[2.4272944000549614, 3.579143700073473]",1743.7474198999116,None,,,6,001,2023_Feb_01_1022,ExactRep-v3-final,2021.2.3,59.92789473822199,
,,,,,,,,,,,,11,0,11,0,,,,,,,,,,,,,,,,,,,,,,,,,,,,,,,,,,,,,,,,,,,,,,,,,1750.1766834999435,None,,,,,,,,,,,,,,,,,,,,,,,,,,,,,,,,,,,,,,,,,,,,,,,,,,,,,,,,,disease,85,12,aloud,old,white,1747.8837481999071,None,y,1747.8837481999071,None,"['y', 'return']","[1.3629948999732733, 2.250988099956885]",1747.8837481999071,None,,,6,001,2023_Feb_01_1022,ExactRep-v3-final,2021.2.3,59.92789473822199,
,,,,,,,,,,,,12,0,12,0,,,,,,,,,,,,,,,,,,,,,,,,,,,,,,,,,,,,,,,,,,,,,,,,,1753.5307259999681,None,,,,,,,,,,,,,,,,,,,,,,,,,,,,,,,,,,,,,,,,,,,,,,,,,,,,,,,,,virtue,30,13,sing,old,red,1750.6845191998873,None,y,1750.6845191998873,None,"['y', 'return']","[1.2902440999168903, 2.8021978000178933]",1750.6845191998873,None,,,6,001,2023_Feb_01_1022,ExactRep-v3-final,2021.2.3,59.92789473822199,
,,,,,,,,,,,,13,0,13,0,,,,,,,,,,,,,,,,,,,,,,,,,,,,,,,,,,,,,,,,,,,,,,,,,1756.7507082999218,None,,,,,,,,,,,,,,,,,,,,,,,,,,,,,,,,,,,,,,,,,,,,,,,,,,,,,,,,,green,26,14,sing,old,red,1754.0356572999153,None,y,1754.0356572999153,None,"['y', 'return']","[1.51514649996534, 2.675091299926862]",1754.0356572999153,None,,,6,001,2023_Feb_01_1022,ExactRep-v3-final,2021.2.3,59.92789473822199,
,,,,,,,,,,,,14,0,14,0,,,,,,,,,,,,,,,,,,,,,,,,,,,,,,,,,,,,,,,,,,,,,,,,,1759.7528080999618,None,,,,,,,,,,,,,,,,,,,,,,,,,,,,,,,,,,,,,,,,,,,,,,,,,,,,,,,,,prayer,225,15,sing,new,red,1757.2535639998969,None,n,1757.2535639998969,None,"['n', 'return']","[1.3531593999359757, 2.457191299996339]",1757.2535639998969,None,,,6,001,2023_Feb_01_1022,ExactRep-v3-final,2021.2.3,59.92789473822199,
,,,,,,,,,,,,15,0,15,0,,,,,,,,,,,,,,,,,,,,,,,,,,,,,,,,,,,,,,,,,,,,,,,,,1767.1767196999863,None,,,,,,,,,,,,,,,,,,,,,,,,,,,,,,,,,,,,,,,,,,,,,,,,,,,,,,,,,arm,51,16,silent,old,blue,1760.2586291999323,None,n,1760.2586291999323,None,"['n', 'return']","[6.268205500091426, 6.876449500094168]",1760.2586291999323,None,,,6,001,2023_Feb_01_1022,ExactRep-v3-final,2021.2.3,59.92789473822199,
,,,,,,,,,,,,16,0,16,0,,,,,,,,,,,,,,,,,,,,,,,,,,,,,,,,,,,,,,,,,,,,,,,,,1770.5968102999032,None,,,,,,,,,,,,,,,,,,,,,,,,,,,,,,,,,,,,,,,,,,,,,,,,,,,,,,,,,meeting,155,17,silent,new,blue,1767.6864502999233,None,n,1767.6864502999233,None,"['n', 'return']","[2.360372500028461, 2.872309700003825]",1767.6864502999233,None,,,6,001,2023_Feb_01_1022,ExactRep-v3-final,2021.2.3,59.92789473822199,
,,,,,,,,,,,,17,0,17,0,,,,,,,,,,,,,,,,,,,,,,,,,,,,,,,,,,,,,,,,,,,,,,,,,1773.533087699907,None,,,,,,,,,,,,,,,,,,,,,,,,,,,,,,,,,,,,,,,,,,,,,,,,,,,,,,,,,owner,100,18,aloud,old,white,1771.1074731999543,None,y,1771.1074731999543,None,"['y', 'return']","[1.6751809999113902, 2.3793087999802083]",1771.1074731999543,None,,,6,001,2023_Feb_01_1022,ExactRep-v3-final,2021.2.3,59.92789473822199,
,,,,,,,,,,,,18,0,18,0,,,,,,,,,,,,,,,,,,,,,,,,,,,,,,,,,,,,,,,,,,,,,,,,,1778.5045392999891,None,,,,,,,,,,,,,,,,,,,,,,,,,,,,,,,,,,,,,,,,,,,,,,,,,,,,,,,,,grief,60,19,silent,old,blue,1774.042768699932,None,n,1774.042768699932,None,"['n', 'return']","[3.603858800022863, 4.4199720999458805]",1774.042768699932,None,,,6,001,2023_Feb_01_1022,ExactRep-v3-final,2021.2.3,59.92789473822199,
,,,,,,,,,,,,19,0,19,0,,,,,,,,,,,,,,,,,,,,,,,,,,,,,,,,,,,,,,,,,,,,,,,,,1781.1907313999254,None,,,,,,,,,,,,,,,,,,,,,,,,,,,,,,,,,,,,,,,,,,,,,,,,,,,,,,,,,blossom,206,20,aloud,new,white,1779.0145305999322,None,n,1779.0145305999322,None,"['n', 'return']","[1.616164100007154, 2.1283614999847487]",1779.0145305999322,None,,,6,001,2023_Feb_01_1022,ExactRep-v3-final,2021.2.3,59.92789473822199,
,,,,,,,,,,,,20,0,20,0,,,,,,,,,,,,,,,,,,,,,,,,,,,,,,,,,,,,,,,,,,,,,,,,,1783.559780499898,None,,,,,,,,,,,,,,,,,,,,,,,,,,,,,,,,,,,,,,,,,,,,,,,,,,,,,,,,,hall,74,21,silent,old,blue,1781.6978615999687,None,n,1781.6978615999687,None,"['n', 'return']","[1.164900099975057, 1.8287885999307036]",1781.6978615999687,None,,,6,001,2023_Feb_01_1022,ExactRep-v3-final,2021.2.3,59.92789473822199,
,,,,,,,,,,,,21,0,21,0,,,,,,,,,,,,,,,,,,,,,,,,,,,,,,,,,,,,,,,,,,,,,,,,,1788.2477796999738,None,,,,,,,,,,,,,,,,,,,,,,,,,,,,,,,,,,,,,,,,,,,,,,,,,,,,,,,,,meat,124,22,silent,new,blue,1784.0677187999245,None,n,1784.0677187999245,None,"['n', 'return']","[3.6350604000035673, 4.13904579996597]",1784.0677187999245,None,,,6,001,2023_Feb_01_1022,ExactRep-v3-final,2021.2.3,59.92789473822199,
,,,,,,,,,,,,22,0,22,0,,,,,,,,,,,,,,,,,,,,,,,,,,,,,,,,,,,,,,,,,,,,,,,,,1791.717903599958,None,,,,,,,,,,,,,,,,,,,,,,,,,,,,,,,,,,,,,,,,,,,,,,,,,,,,,,,,,length,145,23,silent,new,blue,1788.7575509999879,None,n,1788.7575509999879,None,"['n', 'return']","[2.3131491999374703, 2.9132082998985425]",1788.7575509999879,None,,,6,001,2023_Feb_01_1022,ExactRep-v3-final,2021.2.3,59.92789473822199,
,,,,,,,,,,,,23,0,23,0,,,,,,,,,,,,,,,,,,,,,,,,,,,,,,,,,,,,,,,,,,,,,,,,,1795.8887481999118,None,,,,,,,,,,,,,,,,,,,,,,,,,,,,,,,,,,,,,,,,,,,,,,,,,,,,,,,,,woods,199,24,sing,new,red,1792.2284117999952,None,n,1792.2284117999952,None,"['n', 'return']","[2.9785946001065895, 3.6183784001041204]",1792.2284117999952,None,,,6,001,2023_Feb_01_1022,ExactRep-v3-final,2021.2.3,59.92789473822199,
,,,,,,,,,,,,24,0,24,0,,,,,,,,,,,,,,,,,,,,,,,,,,,,,,,,,,,,,,,,,,,,,,,,,1802.9624822998885,None,,,,,,,,,,,,,,,,,,,,,,,,,,,,,,,,,,,,,,,,,,,,,,,,,,,,,,,,,dust,177,25,sing,new,red,1796.396076099947,None,n,1796.396076099947,None,"['n', 'return']","[5.9868478999705985, 6.522637799964286]",1796.396076099947,None,,,6,001,2023_Feb_01_1022,ExactRep-v3-final,2021.2.3,59.92789473822199,
,,,,,,,,,,,,25,0,25,0,,,,,,,,,,,,,,,,,,,,,,,,,,,,,,,,,,,,,,,,,,,,,,,,,1805.466112999944,None,,,,,,,,,,,,,,,,,,,,,,,,,,,,,,,,,,,,,,,,,,,,,,,,,,,,,,,,,string,123,26,silent,new,blue,1803.4722030999837,None,n,1803.4722030999837,None,"['n', 'return']","[1.462543600006029, 1.950452300021425]",1803.4722030999837,None,,,6,001,2023_Feb_01_1022,ExactRep-v3-final,2021.2.3,59.92789473822199,
,,,,,,,,,,,,26,0,26,0,,,,,,,,,,,,,,,,,,,,,,,,,,,,,,,,,,,,,,,,,,,,,,,,,1807.769643799984,None,,,,,,,,,,,,,,,,,,,,,,,,,,,,,,,,,,,,,,,,,,,,,,,,,,,,,,,,,mother,7,27,sing,old,red,1805.974826199934,None,y,1805.974826199934,None,"['y', 'return']","[1.111983299953863, 1.7517988999607041]",1805.974826199934,None,,,6,001,2023_Feb_01_1022,ExactRep-v3-final,2021.2.3,59.92789473822199,
,,,,,,,,,,,,27,0,27,0,,,,,,,,,,,,,,,,,,,,,,,,,,,,,,,,,,,,,,,,,,,,,,,,,1810.2864662999054,None,,,,,,,,,,,,,,,,,,,,,,,,,,,,,,,,,,,,,,,,,,,,,,,,,,,,,,,,,fun,75,28,silent,old,blue,1808.284990999964,None,y,1808.284990999964,None,"['y', 'return']","[1.4178551000077277, 1.9617963000200689]",1808.284990999964,None,,,6,001,2023_Feb_01_1022,ExactRep-v3-final,2021.2.3,59.92789473822199,
,,,,,,,,,,,,28,0,28,0,,,,,,,,,,,,,,,,,,,,,,,,,,,,,,,,,,,,,,,,,,,,,,,,,1812.63882439991,None,,,,,,,,,,,,,,,,,,,,,,,,,,,,,,,,,,,,,,,,,,,,,,,,,,,,,,,,,thought,219,29,sing,new,red,1810.7961771999253,None,n,1810.7961771999253,None,"['n', 'return']","[1.3386626000283286, 1.7946953000500798]",1810.7961771999253,None,,,6,001,2023_Feb_01_1022,ExactRep-v3-final,2021.2.3,59.92789473822199,
,,,,,,,,,,,,29,0,29,0,,,,,,,,,,,,,,,,,,,,,,,,,,,,,,,,,,,,,,,,,,,,,,,,,1816.8430227999343,None,,,,,,,,,,,,,,,,,,,,,,,,,,,,,,,,,,,,,,,,,,,,,,,,,,,,,,,,,crime,39,30,silent,old,blue,1813.1471062999917,None,n,1813.1471062999917,None,"['n', 'return']","[3.1959033999592066, 3.651585799991153]",1813.1471062999917,None,,,6,001,2023_Feb_01_1022,ExactRep-v3-final,2021.2.3,59.92789473822199,
,,,,,,,,,,,,30,0,30,0,,,,,,,,,,,,,,,,,,,,,,,,,,,,,,,,,,,,,,,,,,,,,,,,,1821.0971515999408,None,,,,,,,,,,,,,,,,,,,,,,,,,,,,,,,,,,,,,,,,,,,,,,,,,,,,,,,,,duty,222,31,aloud,new,white,1817.3585134999594,None,y,1817.3585134999594,None,"['y', 'return']","[2.7443522000685334, 3.696281500044279]",1817.3585134999594,None,,,6,001,2023_Feb_01_1022,ExactRep-v3-final,2021.2.3,59.92789473822199,
,,,,,,,,,,,,31,0,31,0,,,,,,,,,,,,,,,,,,,,,,,,,,,,,,,,,,,,,,,,,,,,,,,,,1823.1004000999965,None,,,,,,,,,,,,,,,,,,,,,,,,,,,,,,,,,,,,,,,,,,,,,,,,,,,,,,,,,air,104,32,aloud,old,white,1821.610012399964,None,y,1821.610012399964,None,"['y', 'return']","[0.916717900079675, 1.4527355000609532]",1821.610012399964,None,,,6,001,2023_Feb_01_1022,ExactRep-v3-final,2021.2.3,59.92789473822199,
,,,,,,,,,,,,32,0,32,0,,,,,,,,,,,,,,,,,,,,,,,,,,,,,,,,,,,,,,,,,,,,,,,,,1825.6852027999703,None,,,,,,,,,,,,,,,,,,,,,,,,,,,,,,,,,,,,,,,,,,,,,,,,,,,,,,,,,lip,50,33,silent,old,blue,1823.6079952999717,None,y,1823.6079952999717,None,"['y', 'return']","[1.4709887999342754, 2.0388204999035224]",1823.6079952999717,None,,,6,001,2023_Feb_01_1022,ExactRep-v3-final,2021.2.3,59.92789473822199,
,,,,,,,,,,,,33,0,33,0,,,,,,,,,,,,,,,,,,,,,,,,,,,,,,,,,,,,,,,,,,,,,,,,,1829.2221080999589,None,,,,,,,,,,,,,,,,,,,,,,,,,,,,,,,,,,,,,,,,,,,,,,,,,,,,,,,,,priest,143,34,silent,new,blue,1826.197193,None,n,1826.197193,None,"['n', 'return']","[2.153696099994704, 2.977618800010532]",1826.197193,None,,,6,001,2023_Feb_01_1022,ExactRep-v3-final,2021.2.3,59.92789473822199,
,,,,,,,,,,,,34,0,34,0,,,,,,,,,,,,,,,,,,,,,,,,,,,,,,,,,,,,,,,,,,,,,,,,,1831.5743931999896,None,,,,,,,,,,,,,,,,,,,,,,,,,,,,,,,,,,,,,,,,,,,,,,,,,,,,,,,,,steam,117,35,aloud,old,white,1829.7349484999431,None,y,1829.7349484999431,None,"['y', 'return']","[1.3276981000090018, 1.7997843000339344]",1829.7349484999431,None,,,6,001,2023_Feb_01_1022,ExactRep-v3-final,2021.2.3,59.92789473822199,
,,,,,,,,,,,,35,0,35,0,,,,,,,,,,,,,,,,,,,,,,,,,,,,,,,,,,,,,,,,,,,,,,,,,1833.9934888998978,None,,,,,,,,,,,,,,,,,,,,,,,,,,,,,,,,,,,,,,,,,,,,,,,,,,,,,,,,,prison,118,36,aloud,old,white,1832.0856121999677,None,y,1832.0856121999677,None,"['y', 'return']","[0.9052383000962436, 1.865158800035715]",1832.0856121999677,None,,,6,001,2023_Feb_01_1022,ExactRep-v3-final,2021.2.3,59.92789473822199,
,,,,,,,,,,,,36,0,36,0,,,,,,,,,,,,,,,,,,,,,,,,,,,,,,,,,,,,,,,,,,,,,,,,,1836.4793394999579,None,,,,,,,,,,,,,,,,,,,,,,,,,,,,,,,,,,,,,,,,,,,,,,,,,,,,,,,,,temple,76,37,silent,old,blue,1834.510018199915,None,y,1834.510018199915,None,"['y', 'return']","[1.39273730001878, 1.9287491000723094]",1834.510018199915,None,,,6,001,2023_Feb_01_1022,ExactRep-v3-final,2021.2.3,59.92789473822199,
,,,,,,,,,,,,37,0,37,0,,,,,,,,,,,,,,,,,,,,,,,,,,,,,,,,,,,,,,,,,,,,,,,,,1838.7483092999319,None,,,,,,,,,,,,,,,,,,,,,,,,,,,,,,,,,,,,,,,,,,,,,,,,,,,,,,,,,gift,238,38,aloud,new,white,1836.989399199956,None,n,1836.989399199956,None,"['n', 'return']","[1.2333700000308454, 1.7133837000001222]",1836.989399199956,None,,,6,001,2023_Feb_01_1022,ExactRep-v3-final,2021.2.3,59.92789473822199,
,,,,,,,,,,,,38,0,38,0,,,,,,,,,,,,,,,,,,,,,,,,,,,,,,,,,,,,,,,,,,,,,,,,,1840.8503623999422,None,,,,,,,,,,,,,,,,,,,,,,,,,,,,,,,,,,,,,,,,,,,,,,,,,,,,,,,,,wine,164,39,aloud,new,white,1839.2565873999847,None,n,1839.2565873999847,None,"['n', 'return']","[1.0861566999228671, 1.5582318999804556]",1839.2565873999847,None,,,6,001,2023_Feb_01_1022,ExactRep-v3-final,2021.2.3,59.92789473822199,
,,,,,,,,,,,,39,0,39,0,,,,,,,,,,,,,,,,,,,,,,,,,,,,,,,,,,,,,,,,,,,,,,,,,1843.0358742999379,None,,,,,,,,,,,,,,,,,,,,,,,,,,,,,,,,,,,,,,,,,,,,,,,,,,,,,,,,,lad,112,40,aloud,old,white,1841.359116199892,None,y,1841.359116199892,None,"['y', 'return']","[1.1596563000930473, 1.6398840000620112]",1841.359116199892,None,,,6,001,2023_Feb_01_1022,ExactRep-v3-final,2021.2.3,59.92789473822199,
,,,,,,,,,,,,40,0,40,0,,,,,,,,,,,,,,,,,,,,,,,,,,,,,,,,,,,,,,,,,,,,,,,,,1845.3559837999055,None,,,,,,,,,,,,,,,,,,,,,,,,,,,,,,,,,,,,,,,,,,,,,,,,,,,,,,,,,heaven,53,41,silent,old,blue,1843.5481318999082,None,y,1843.5481318999082,None,"['y', 'return']","[1.2505775999743491, 1.7705942000029609]",1843.5481318999082,None,,,6,001,2023_Feb_01_1022,ExactRep-v3-final,2021.2.3,59.92789473822199,
,,,,,,,,,,,,41,0,41,0,,,,,,,,,,,,,,,,,,,,,,,,,,,,,,,,,,,,,,,,,,,,,,,,,1847.9074862999842,None,,,,,,,,,,,,,,,,,,,,,,,,,,,,,,,,,,,,,,,,,,,,,,,,,,,,,,,,,custom,79,42,sing,old,red,1845.866306599928,None,y,1845.866306599928,None,"['y', 'return']","[1.428595400066115, 1.996423100004904]",1845.866306599928,None,,,6,001,2023_Feb_01_1022,ExactRep-v3-final,2021.2.3,59.92789473822199,
,,,,,,,,,,,,42,0,42,0,,,,,,,,,,,,,,,,,,,,,,,,,,,,,,,,,,,,,,,,,,,,,,,,,1850.0939998999238,None,,,,,,,,,,,,,,,,,,,,,,,,,,,,,,,,,,,,,,,,,,,,,,,,,,,,,,,,,letter,18,43,sing,old,red,1848.4170322999125,None,y,1848.4170322999125,None,"['y', 'return']","[0.9979146000696346, 1.6297151000471786]",1848.4170322999125,None,,,6,001,2023_Feb_01_1022,ExactRep-v3-final,2021.2.3,59.92789473822199,
,,,,,,,,,,,,43,0,43,0,,,,,,,,,,,,,,,,,,,,,,,,,,,,,,,,,,,,,,,,,,,,,,,,,1855.4315780999605,None,,,,,,,,,,,,,,,,,,,,,,,,,,,,,,,,,,,,,,,,,,,,,,,,,,,,,,,,,flower,229,44,sing,new,red,1850.605453099939,None,y,1850.605453099939,None,"['y', 'return']","[4.217553499969654, 4.793267300003208]",1850.605453099939,None,,,6,001,2023_Feb_01_1022,ExactRep-v3-final,2021.2.3,59.92789473822199,
,,,,,,,,,,,,44,0,44,0,,,,,,,,,,,,,,,,,,,,,,,,,,,,,,,,,,,,,,,,,,,,,,,,,1857.8017251999117,None,,,,,,,,,,,,,,,,,,,,,,,,,,,,,,,,,,,,,,,,,,,,,,,,,,,,,,,,,opinion,86,45,aloud,old,white,1855.9479196999455,None,y,1855.9479196999455,None,"['y', 'return']","[1.1628849999979138, 1.8187682999996468]",1855.9479196999455,None,,,6,001,2023_Feb_01_1022,ExactRep-v3-final,2021.2.3,59.92789473822199,
,,,,,,,,,,,,45,0,45,0,,,,,,,,,,,,,,,,,,,,,,,,,,,,,,,,,,,,,,,,,,,,,,,,,1859.9361235999968,None,,,,,,,,,,,,,,,,,,,,,,,,,,,,,,,,,,,,,,,,,,,,,,,,,,,,,,,,,dollar,231,46,sing,new,red,1858.3113416999113,None,n,1858.3113416999113,None,"['n', 'return']","[1.1354490000521764, 1.5834195000352338]",1858.3113416999113,None,,,6,001,2023_Feb_01_1022,ExactRep-v3-final,2021.2.3,59.92789473822199,
,,,,,,,,,,,,46,0,46,0,,,,,,,,,,,,,,,,,,,,,,,,,,,,,,,,,,,,,,,,,,,,,,,,,1862.3051223999355,None,,,,,,,,,,,,,,,,,,,,,,,,,,,,,,,,,,,,,,,,,,,,,,,,,,,,,,,,,pipe,203,47,sing,new,red,1860.4462697999552,None,n,1860.4462697999552,None,"['n', 'return']","[1.336553500033915, 1.824453099980019]",1860.4462697999552,None,,,6,001,2023_Feb_01_1022,ExactRep-v3-final,2021.2.3,59.92789473822199,
,,,,,,,,,,,,47,0,47,0,,,,,,,,,,,,,,,,,,,,,,,,,,,,,,,,,,,,,,,,,,,,,,,,,1865.2580520999618,None,,,,,,,,,,,,,,,,,,,,,,,,,,,,,,,,,,,,,,,,,,,,,,,,,,,,,,,,,pride,192,48,aloud,new,white,1862.817885999917,None,n,1862.817885999917,None,"['n', 'return']","[1.9249763999832794, 2.4049614999676123]",1862.817885999917,None,,,6,001,2023_Feb_01_1022,ExactRep-v3-final,2021.2.3,59.92789473822199,
,,,,,,,,,,,,48,0,48,0,,,,,,,,,,,,,,,,,,,,,,,,,,,,,,,,,,,,,,,,,,,,,,,,,1867.6604675999843,None,,,,,,,,,,,,,,,,,,,,,,,,,,,,,,,,,,,,,,,,,,,,,,,,,,,,,,,,,sky,87,49,aloud,old,white,1865.7711190999253,None,y,1865.7711190999253,None,"['y', 'return']","[1.3076293000485748, 1.851611000020057]",1865.7711190999253,None,,,6,001,2023_Feb_01_1022,ExactRep-v3-final,2021.2.3,59.92789473822199,
,,,,,,,,,,,,49,0,49,0,,,,,,,,,,,,,,,,,,,,,,,,,,,,,,,,,,,,,,,,,,,,,,,,,1870.6297835999867,None,,,,,,,,,,,,,,,,,,,,,,,,,,,,,,,,,,,,,,,,,,,,,,,,,,,,,,,,,moral,56,50,silent,old,blue,1868.1627446999773,None,y,1868.1627446999773,None,"['y', 'return']","[1.9318727999925613, 2.428079199977219]",1868.1627446999773,None,,,6,001,2023_Feb_01_1022,ExactRep-v3-final,2021.2.3,59.92789473822199,
,,,,,,,,,,,,50,0,50,0,,,,,,,,,,,,,,,,,,,,,,,,,,,,,,,,,,,,,,,,,,,,,,,,,1872.8823999998858,None,,,,,,,,,,,,,,,,,,,,,,,,,,,,,,,,,,,,,,,,,,,,,,,,,,,,,,,,,safety,44,51,silent,old,blue,1871.1406691999873,None,y,1871.1406691999873,None,"['y', 'return']","[1.218100200057961, 1.6980235000373796]",1871.1406691999873,None,,,6,001,2023_Feb_01_1022,ExactRep-v3-final,2021.2.3,59.92789473822199,
,,,,,,,,,,,,51,0,51,0,,,,,,,,,,,,,,,,,,,,,,,,,,,,,,,,,,,,,,,,,,,,,,,,,1874.968398099998,None,,,,,,,,,,,,,,,,,,,,,,,,,,,,,,,,,,,,,,,,,,,,,,,,,,,,,,,,,metal,218,52,aloud,new,white,1873.3981872999575,None,n,1873.3981872999575,None,"['n', 'return']","[1.0645702000474557, 1.5284825001144782]",1873.3981872999575,None,,,6,001,2023_Feb_01_1022,ExactRep-v3-final,2021.2.3,59.92789473822199,
,,,,,,,,,,,,52,0,52,0,,,,,,,,,,,,,,,,,,,,,,,,,,,,,,,,,,,,,,,,,,,,,,,,,1877.5381438999902,None,,,,,,,,,,,,,,,,,,,,,,,,,,,,,,,,,,,,,,,,,,,,,,,,,,,,,,,,,journal,3,53,sing,old,red,1875.4790827999823,None,n,1875.4790827999823,None,"['n', 'return']","[1.5436842000344768, 2.0235928000183776]",1875.4790827999823,None,,,6,001,2023_Feb_01_1022,ExactRep-v3-final,2021.2.3,59.92789473822199,
,,,,,,,,,,,,53,0,53,0,,,,,,,,,,,,,,,,,,,,,,,,,,,,,,,,,,,,,,,,,,,,,,,,,1882.2428075999487,None,,,,,,,,,,,,,,,,,,,,,,,,,,,,,,,,,,,,,,,,,,,,,,,,,,,,,,,,,mind,67,54,silent,old,blue,1878.0420149998972,None,y,1878.0420149998972,None,"['y', 'return']","[3.6127739000367, 4.156731799943373]",1878.0420149998972,None,,,6,001,2023_Feb_01_1022,ExactRep-v3-final,2021.2.3,59.92789473822199,
,,,,,,,,,,,,54,0,54,0,,,,,,,,,,,,,,,,,,,,,,,,,,,,,,,,,,,,,,,,,,,,,,,,,1884.510632499936,None,,,,,,,,,,,,,,,,,,,,,,,,,,,,,,,,,,,,,,,,,,,,,,,,,,,,,,,,,wheat,83,55,aloud,old,white,1882.7514163999585,None,y,1882.7514163999585,None,"['y', 'return']","[1.191298499936238, 1.711370199918747]",1882.7514163999585,None,,,6,001,2023_Feb_01_1022,ExactRep-v3-final,2021.2.3,59.92789473822199,
,,,,,,,,,,,,55,0,55,0,,,,,,,,,,,,,,,,,,,,,,,,,,,,,,,,,,,,,,,,,,,,,,,,,1886.4627185999416,None,,,,,,,,,,,,,,,,,,,,,,,,,,,,,,,,,,,,,,,,,,,,,,,,,,,,,,,,,blood,81,56,aloud,old,white,1885.0183655999135,None,y,1885.0183655999135,None,"['y', 'return']","[0.900551600032486, 1.4124292000196874]",1885.0183655999135,None,,,6,001,2023_Feb_01_1022,ExactRep-v3-final,2021.2.3,59.92789473822199,
,,,,,,,,,,,,56,0,56,0,,,,,,,,,,,,,,,,,,,,,,,,,,,,,,,,,,,,,,,,,,,,,,,,,1892.9034452999476,None,,,,,,,,,,,,,,,,,,,,,,,,,,,,,,,,,,,,,,,,,,,,,,,,,,,,,,,,,amount,57,57,silent,old,blue,1886.9722066998947,None,y,1886.9722066998947,None,"['y', 'return']","[5.370690300012939, 5.890551200020127]",1886.9722066998947,None,,,6,001,2023_Feb_01_1022,ExactRep-v3-final,2021.2.3,59.92789473822199,
,,,,,,,,,,,,57,0,57,0,,,,,,,,,,,,,,,,,,,,,,,,,,,,,,,,,,,,,,,,,,,,,,,,,1895.1879709999776,None,,,,,,,,,,,,,,,,,,,,,,,,,,,,,,,,,,,,,,,,,,,,,,,,,,,,,,,,,bowl,216,58,aloud,new,white,1893.420366999926,None,n,1893.420366999926,None,"['n', 'return']","[1.2504166999133304, 1.7223879999946803]",1893.420366999926,None,,,6,001,2023_Feb_01_1022,ExactRep-v3-final,2021.2.3,59.92789473822199,
,,,,,,,,,,,,58,0,58,0,,,,,,,,,,,,,,,,,,,,,,,,,,,,,,,,,,,,,,,,,,,,,,,,,1897.039820499951,None,,,,,,,,,,,,,,,,,,,,,,,,,,,,,,,,,,,,,,,,,,,,,,,,,,,,,,,,,boy,147,59,silent,new,blue,1895.7000130999368,None,n,1895.7000130999368,None,"['n', 'return']","[0.8987723999889567, 1.3067836000118405]",1895.7000130999368,None,,,6,001,2023_Feb_01_1022,ExactRep-v3-final,2021.2.3,59.92789473822199,
,,,,,,,,,,,,59,0,59,0,,,,,,,,,,,,,,,,,,,,,,,,,,,,,,,,,,,,,,,,,,,,,,,,,1900.6278766999021,None,,,,,,,,,,,,,,,,,,,,,,,,,,,,,,,,,,,,,,,,,,,,,,,,,,,,,,,,,humour,171,60,sing,new,red,1897.5570215999614,None,y,1897.5570215999614,None,"['y', 'return']","[2.537748900009319, 3.0256997999968007]",1897.5570215999614,None,,,6,001,2023_Feb_01_1022,ExactRep-v3-final,2021.2.3,59.92789473822199,
,,,,,,,,,,,,60,0,60,0,,,,,,,,,,,,,,,,,,,,,,,,,,,,,,,,,,,,,,,,,,,,,,,,,1903.6308645999525,None,,,,,,,,,,,,,,,,,,,,,,,,,,,,,,,,,,,,,,,,,,,,,,,,,,,,,,,,,butter,223,61,sing,new,red,1901.144189799903,None,n,1901.144189799903,None,"['n', 'return']","[1.8065587999299169, 2.4465942999813706]",1901.144189799903,None,,,6,001,2023_Feb_01_1022,ExactRep-v3-final,2021.2.3,59.92789473822199,
,,,,,,,,,,,,61,0,61,0,,,,,,,,,,,,,,,,,,,,,,,,,,,,,,,,,,,,,,,,,,,,,,,,,1905.8820408999454,None,,,,,,,,,,,,,,,,,,,,,,,,,,,,,,,,,,,,,,,,,,,,,,,,,,,,,,,,,officer,42,62,silent,old,blue,1904.1427040999988,None,y,1904.1427040999988,None,"['y', 'return']","[1.1602282000239938, 1.7041348000057042]",1904.1427040999988,None,,,6,001,2023_Feb_01_1022,ExactRep-v3-final,2021.2.3,59.92789473822199,
,,,,,,,,,,,,62,0,62,0,,,,,,,,,,,,,,,,,,,,,,,,,,,,,,,,,,,,,,,,,,,,,,,,,1909.4353878999827,None,,,,,,,,,,,,,,,,,,,,,,,,,,,,,,,,,,,,,,,,,,,,,,,,,,,,,,,,,rock,113,63,aloud,old,white,1906.3908164999448,None,y,1906.3908164999448,None,"['y', 'return']","[1.6158270000014454, 3.007930999970995]",1906.3908164999448,None,,,6,001,2023_Feb_01_1022,ExactRep-v3-final,2021.2.3,59.92789473822199,
,,,,,,,,,,,,63,0,63,0,,,,,,,,,,,,,,,,,,,,,,,,,,,,,,,,,,,,,,,,,,,,,,,,,1915.5584270999534,None,,,,,,,,,,,,,,,,,,,,,,,,,,,,,,,,,,,,,,,,,,,,,,,,,,,,,,,,,soul,138,64,silent,new,blue,1909.9461054999847,None,n,1909.9461054999847,None,"['n', 'return']","[4.444663199945353, 5.564634199952707]",1909.9461054999847,None,,,6,001,2023_Feb_01_1022,ExactRep-v3-final,2021.2.3,59.92789473822199,
,,,,,,,,,,,,64,0,64,0,,,,,,,,,,,,,,,,,,,,,,,,,,,,,,,,,,,,,,,,,,,,,,,,,1921.9981018999824,None,,,,,,,,,,,,,,,,,,,,,,,,,,,,,,,,,,,,,,,,,,,,,,,,,,,,,,,,,sea,41,65,silent,old,blue,1916.0683888999047,None,n,1916.0683888999047,None,"['n', 'return']","[4.850587800028734, 5.8824121000943705]",1916.0683888999047,None,,,6,001,2023_Feb_01_1022,ExactRep-v3-final,2021.2.3,59.92789473822199,
,,,,,,,,,,,,65,0,65,0,,,,,,,,,,,,,,,,,,,,,,,,,,,,,,,,,,,,,,,,,,,,,,,,,1924.6674588999012,None,,,,,,,,,,,,,,,,,,,,,,,,,,,,,,,,,,,,,,,,,,,,,,,,,,,,,,,,,excuse,196,66,aloud,new,white,1922.5184712999035,None,n,1922.5184712999035,None,"['n', 'return']","[1.2162771000294015, 2.104267099988647]",1922.5184712999035,None,,,6,001,2023_Feb_01_1022,ExactRep-v3-final,2021.2.3,59.92789473822199,
,,,,,,,,,,,,66,0,66,0,,,,,,,,,,,,,,,,,,,,,,,,,,,,,,,,,,,,,,,,,,,,,,,,,1927.8705231999047,None,,,,,,,,,,,,,,,,,,,,,,,,,,,,,,,,,,,,,,,,,,,,,,,,,,,,,,,,,fire,77,67,silent,old,blue,1925.179518799996,None,y,1925.179518799996,None,"['y', 'return']","[2.163238500012085, 2.659239900065586]",1925.179518799996,None,,,6,001,2023_Feb_01_1022,ExactRep-v3-final,2021.2.3,59.92789473822199,
,,,,,,,,,,,,67,0,67,0,,,,,,,,,,,,,,,,,,,,,,,,,,,,,,,,,,,,,,,,,,,,,,,,,1930.0229440999683,None,,,,,,,,,,,,,,,,,,,,,,,,,,,,,,,,,,,,,,,,,,,,,,,,,,,,,,,,,chair,24,68,sing,old,red,1928.3969379999908,None,y,1928.3969379999908,None,"['y', 'return']","[1.0098008000059053, 1.5937843000283465]",1928.3969379999908,None,,,6,001,2023_Feb_01_1022,ExactRep-v3-final,2021.2.3,59.92789473822199,
,,,,,,,,,,,,68,0,68,0,,,,,,,,,,,,,,,,,,,,,,,,,,,,,,,,,,,,,,,,,,,,,,,,,1932.3418880999088,None,,,,,,,,,,,,,,,,,,,,,,,,,,,,,,,,,,,,,,,,,,,,,,,,,,,,,,,,,ticket,71,69,silent,old,blue,1930.532650899957,None,n,1930.532650899957,None,"['n', 'return']","[1.2101373999612406, 1.7621700000017881]",1930.532650899957,None,,,6,001,2023_Feb_01_1022,ExactRep-v3-final,2021.2.3,59.92789473822199,
,,,,,,,,,,,,69,0,69,0,,,,,,,,,,,,,,,,,,,,,,,,,,,,,,,,,,,,,,,,,,,,,,,,,1934.4108595999423,None,,,,,,,,,,,,,,,,,,,,,,,,,,,,,,,,,,,,,,,,,,,,,,,,,,,,,,,,,doll,27,70,sing,old,red,1932.8534764999058,None,y,1932.8534764999058,None,"['y', 'return']","[1.033331000013277, 1.521268800017424]",1932.8534764999058,None,,,6,001,2023_Feb_01_1022,ExactRep-v3-final,2021.2.3,59.92789473822199,
,,,,,,,,,,,,70,0,70,0,,,,,,,,,,,,,,,,,,,,,,,,,,,,,,,,,,,,,,,,,,,,,,,,,1938.1653815999161,None,,,,,,,,,,,,,,,,,,,,,,,,,,,,,,,,,,,,,,,,,,,,,,,,,,,,,,,,,boulder,2,71,sing,old,red,1934.9177253999515,None,n,1934.9177253999515,None,"['n', 'return']","[2.6970627000555396, 3.2090967999538407]",1934.9177253999515,None,,,6,001,2023_Feb_01_1022,ExactRep-v3-final,2021.2.3,59.92789473822199,
,,,,,,,,,,,,71,0,71,0,,,,,,,,,,,,,,,,,,,,,,,,,,,,,,,,,,,,,,,,,,,,,,,,,1941.5586293999804,None,,,,,,,,,,,,,,,,,,,,,,,,,,,,,,,,,,,,,,,,,,,,,,,,,,,,,,,,,salary,64,72,silent,old,blue,1938.6707727999892,None,y,1938.6707727999892,None,"['y', 'return']","[1.9839958000229672, 2.8318846999900416]",1938.6707727999892,None,,,6,001,2023_Feb_01_1022,ExactRep-v3-final,2021.2.3,59.92789473822199,
,,,,,,,,,,,,72,0,72,0,,,,,,,,,,,,,,,,,,,,,,,,,,,,,,,,,,,,,,,,,,,,,,,,,1943.6871816999046,None,,,,,,,,,,,,,,,,,,,,,,,,,,,,,,,,,,,,,,,,,,,,,,,,,,,,,,,,,brain,217,73,sing,new,red,1942.077400399954,None,n,1942.077400399954,None,"['n', 'return']","[1.0734556999523193, 1.5773627000162378]",1942.077400399954,None,,,6,001,2023_Feb_01_1022,ExactRep-v3-final,2021.2.3,59.92789473822199,
,,,,,,,,,,,,73,0,73,0,,,,,,,,,,,,,,,,,,,,,,,,,,,,,,,,,,,,,,,,,,,,,,,,,1945.8397942999145,None,,,,,,,,,,,,,,,,,,,,,,,,,,,,,,,,,,,,,,,,,,,,,,,,,,,,,,,,,lake,89,74,aloud,old,white,1944.195905599976,None,y,1944.195905599976,None,"['y', 'return']","[1.0907521999906749, 1.6108505999436602]",1944.195905599976,None,,,6,001,2023_Feb_01_1022,ExactRep-v3-final,2021.2.3,59.92789473822199,
,,,,,,,,,,,,74,0,74,0,,,,,,,,,,,,,,,,,,,,,,,,,,,,,,,,,,,,,,,,,,,,,,,,,1947.807242599898,None,,,,,,,,,,,,,,,,,,,,,,,,,,,,,,,,,,,,,,,,,,,,,,,,,,,,,,,,,queen,142,75,silent,new,blue,1946.3527634999482,None,n,1946.3527634999482,None,"['n', 'return']","[0.9419787999941036, 1.4220191999338567]",1946.3527634999482,None,,,6,001,2023_Feb_01_1022,ExactRep-v3-final,2021.2.3,59.92789473822199,
,,,,,,,,,,,,75,0,75,0,,,,,,,,,,,,,,,,,,,,,,,,,,,,,,,,,,,,,,,,,,,,,,,,,1952.9457863999996,None,,,,,,,,,,,,,,,,,,,,,,,,,,,,,,,,,,,,,,,,,,,,,,,,,,,,,,,,,teacher,66,76,silent,old,blue,1948.316868099966,None,n,1948.316868099966,None,"['n', 'return']","[3.873891199938953, 4.593865999951959]",1948.316868099966,None,,,6,001,2023_Feb_01_1022,ExactRep-v3-final,2021.2.3,59.92789473822199,
,,,,,,,,,,,,76,0,76,0,,,,,,,,,,,,,,,,,,,,,,,,,,,,,,,,,,,,,,,,,,,,,,,,,1955.147969899932,None,,,,,,,,,,,,,,,,,,,,,,,,,,,,,,,,,,,,,,,,,,,,,,,,,,,,,,,,,nail,230,77,aloud,new,white,1953.460857499973,None,n,1953.460857499973,None,"['n', 'return']","[1.1058979999506846, 1.6499041999923065]",1953.460857499973,None,,,6,001,2023_Feb_01_1022,ExactRep-v3-final,2021.2.3,59.92789473822199,
,,,,,,,,,,,,77,0,77,0,,,,,,,,,,,,,,,,,,,,,,,,,,,,,,,,,,,,,,,,,,,,,,,,,1958.4680334998993,None,,,,,,,,,,,,,,,,,,,,,,,,,,,,,,,,,,,,,,,,,,,,,,,,,,,,,,,,,money,160,78,aloud,new,white,1955.6519909999333,None,n,1955.6519909999333,None,"['n', 'return']","[2.2667710999958217, 2.770805999985896]",1955.6519909999333,None,,,6,001,2023_Feb_01_1022,ExactRep-v3-final,2021.2.3,59.92789473822199,
,,,,,,,,,,,,78,0,78,0,,,,,,,,,,,,,,,,,,,,,,,,,,,,,,,,,,,,,,,,,,,,,,,,,1960.988665199955,None,,,,,,,,,,,,,,,,,,,,,,,,,,,,,,,,,,,,,,,,,,,,,,,,,,,,,,,,,shoes,63,79,silent,old,blue,1958.9818414999172,None,y,1958.9818414999172,None,"['y', 'return']","[1.4249348000157624, 1.9609189999755472]",1958.9818414999172,None,,,6,001,2023_Feb_01_1022,ExactRep-v3-final,2021.2.3,59.92789473822199,
,,,,,,,,,,,,79,0,79,0,,,,,,,,,,,,,,,,,,,,,,,,,,,,,,,,,,,,,,,,,,,,,,,,,1963.1895456999773,None,,,,,,,,,,,,,,,,,,,,,,,,,,,,,,,,,,,,,,,,,,,,,,,,,,,,,,,,,deed,21,80,sing,old,red,1961.5157133999746,None,n,1961.5157133999746,None,"['n', 'return']","[1.1950485999695957, 1.6350879999808967]",1961.5157133999746,None,,,6,001,2023_Feb_01_1022,ExactRep-v3-final,2021.2.3,59.92789473822199,
,,,,,,,,,,,,80,0,80,0,,,,,,,,,,,,,,,,,,,,,,,,,,,,,,,,,,,,,,,,,,,,,,,,,1965.6751622998854,None,,,,,,,,,,,,,,,,,,,,,,,,,,,,,,,,,,,,,,,,,,,,,,,,,,,,,,,,,shadow,32,81,sing,old,red,1963.70294499991,None,y,1963.70294499991,None,"['y', 'return']","[1.4318123999983072, 1.9277151999995112]",1963.70294499991,None,,,6,001,2023_Feb_01_1022,ExactRep-v3-final,2021.2.3,59.92789473822199,
,,,,,,,,,,,,81,0,81,0,,,,,,,,,,,,,,,,,,,,,,,,,,,,,,,,,,,,,,,,,,,,,,,,,1969.4455756999087,None,,,,,,,,,,,,,,,,,,,,,,,,,,,,,,,,,,,,,,,,,,,,,,,,,,,,,,,,,product,135,82,silent,new,blue,1966.191667499952,None,n,1966.191667499952,None,"['n', 'n', 'return']","[1.8072636000579223, 2.391098599997349, 3.2070994999958202]",1966.191667499952,None,,,6,001,2023_Feb_01_1022,ExactRep-v3-final,2021.2.3,59.92789473822199,
,,,,,,,,,,,,82,0,82,0,,,,,,,,,,,,,,,,,,,,,,,,,,,,,,,,,,,,,,,,,,,,,,,,,1971.8979583999608,None,,,,,,,,,,,,,,,,,,,,,,,,,,,,,,,,,,,,,,,,,,,,,,,,,,,,,,,,,animal,185,83,sing,new,red,1969.9473468998913,None,n,1969.9473468998913,None,"['n', 'return']","[1.3153946000384167, 1.9153774000005797]",1969.9473468998913,None,,,6,001,2023_Feb_01_1022,ExactRep-v3-final,2021.2.3,59.92789473822199,
,,,,,,,,,,,,83,0,83,0,,,,,,,,,,,,,,,,,,,,,,,,,,,,,,,,,,,,,,,,,,,,,,,,,1974.985606299946,None,,,,,,,,,,,,,,,,,,,,,,,,,,,,,,,,,,,,,,,,,,,,,,,,,,,,,,,,,army,170,84,aloud,new,white,1972.4107640999136,None,n,1972.4107640999136,None,"['n', 'return']","[2.0600349999731407, 2.5400581000139937]",1972.4107640999136,None,,,6,001,2023_Feb_01_1022,ExactRep-v3-final,2021.2.3,59.92789473822199,
,,,,,,,,,,,,84,0,84,0,,,,,,,,,,,,,,,,,,,,,,,,,,,,,,,,,,,,,,,,,,,,,,,,,1977.1365412999876,None,,,,,,,,,,,,,,,,,,,,,,,,,,,,,,,,,,,,,,,,,,,,,,,,,,,,,,,,,author,232,85,aloud,new,white,1975.4977458999492,None,n,1975.4977458999492,None,"['n', 'return']","[1.1730200999882072, 1.6050189000088722]",1975.4977458999492,None,,,6,001,2023_Feb_01_1022,ExactRep-v3-final,2021.2.3,59.92789473822199,
,,,,,,,,,,,,85,0,85,0,,,,,,,,,,,,,,,,,,,,,,,,,,,,,,,,,,,,,,,,,,,,,,,,,1979.27197719994,None,,,,,,,,,,,,,,,,,,,,,,,,,,,,,,,,,,,,,,,,,,,,,,,,,,,,,,,,,ocean,98,86,aloud,old,white,1977.6445045999717,None,y,1977.6445045999717,None,"['y', 'return']","[1.0584196000127122, 1.594404499977827]",1977.6445045999717,None,,,6,001,2023_Feb_01_1022,ExactRep-v3-final,2021.2.3,59.92789473822199,
,,,,,,,,,,,,86,0,86,0,,,,,,,,,,,,,,,,,,,,,,,,,,,,,,,,,,,,,,,,,,,,,,,,,1981.2250885999529,None,,,,,,,,,,,,,,,,,,,,,,,,,,,,,,,,,,,,,,,,,,,,,,,,,,,,,,,,,cat,28,87,sing,old,red,1979.7852662999649,None,n,1979.7852662999649,None,"['n', 'return']","[0.9974980999249965, 1.3975031999871135]",1979.7852662999649,None,,,6,001,2023_Feb_01_1022,ExactRep-v3-final,2021.2.3,59.92789473822199,
,,,,,,,,,,,,87,0,87,0,,,,,,,,,,,,,,,,,,,,,,,,,,,,,,,,,,,,,,,,,,,,,,,,,1983.2091434999602,None,,,,,,,,,,,,,,,,,,,,,,,,,,,,,,,,,,,,,,,,,,,,,,,,,,,,,,,,,speech,181,88,sing,new,red,1981.7386057999684,None,n,1981.7386057999684,None,"['n', 'return']","[0.964297299971804, 1.4281737999990582]",1981.7386057999684,None,,,6,001,2023_Feb_01_1022,ExactRep-v3-final,2021.2.3,59.92789473822199,
,,,,,,,,,,,,88,0,88,0,,,,,,,,,,,,,,,,,,,,,,,,,,,,,,,,,,,,,,,,,,,,,,,,,1985.328044499969,None,,,,,,,,,,,,,,,,,,,,,,,,,,,,,,,,,,,,,,,,,,,,,,,,,,,,,,,,,power,1,89,sing,old,red,1983.7206752999919,None,y,1983.7206752999919,None,"['y', 'return']","[1.0220299999928102, 1.5741662998916581]",1983.7206752999919,None,,,6,001,2023_Feb_01_1022,ExactRep-v3-final,2021.2.3,59.92789473822199,
,,,,,,,,,,,,89,0,89,0,,,,,,,,,,,,,,,,,,,,,,,,,,,,,,,,,,,,,,,,,,,,,,,,,1987.396761199925,None,,,,,,,,,,,,,,,,,,,,,,,,,,,,,,,,,,,,,,,,,,,,,,,,,,,,,,,,,maiden,38,90,sing,old,red,1985.8295716999564,None,y,1985.8295716999564,None,"['y', 'return']","[1.0092212000163272, 1.529207499930635]",1985.8295716999564,None,,,6,001,2023_Feb_01_1022,ExactRep-v3-final,2021.2.3,59.92789473822199,
,,,,,,,,,,,,90,0,90,0,,,,,,,,,,,,,,,,,,,,,,,,,,,,,,,,,,,,,,,,,,,,,,,,,1989.9838530999841,None,,,,,,,,,,,,,,,,,,,,,,,,,,,,,,,,,,,,,,,,,,,,,,,,,,,,,,,,,book,94,91,aloud,old,white,1987.899792799959,None,y,1987.899792799959,None,"['y', 'return']","[1.4350586000364274, 2.050954000093043]",1987.899792799959,None,,,6,001,2023_Feb_01_1022,ExactRep-v3-final,2021.2.3,59.92789473822199,
,,,,,,,,,,,,91,0,91,0,,,,,,,,,,,,,,,,,,,,,,,,,,,,,,,,,,,,,,,,,,,,,,,,,1991.867847599904,None,,,,,,,,,,,,,,,,,,,,,,,,,,,,,,,,,,,,,,,,,,,,,,,,,,,,,,,,,devil,239,92,sing,new,red,1990.4927214999916,None,n,1990.4927214999916,None,"['n', 'return']","[0.8899720000335947, 1.3380348000209779]",1990.4927214999916,None,,,6,001,2023_Feb_01_1022,ExactRep-v3-final,2021.2.3,59.92789473822199,
,,,,,,,,,,,,92,0,92,0,,,,,,,,,,,,,,,,,,,,,,,,,,,,,,,,,,,,,,,,,,,,,,,,,1996.7061056999955,None,,,,,,,,,,,,,,,,,,,,,,,,,,,,,,,,,,,,,,,,,,,,,,,,,,,,,,,,,water,5,93,sing,old,red,1992.3719002999132,None,y,1992.3719002999132,None,"['y', 'return']","[3.818950099986978, 4.2989004999399185]",1992.3719002999132,None,,,6,001,2023_Feb_01_1022,ExactRep-v3-final,2021.2.3,59.92789473822199,
,,,,,,,,,,,,93,0,93,0,,,,,,,,,,,,,,,,,,,,,,,,,,,,,,,,,,,,,,,,,,,,,,,,,1998.674666399951,None,,,,,,,,,,,,,,,,,,,,,,,,,,,,,,,,,,,,,,,,,,,,,,,,,,,,,,,,,pole,182,94,aloud,new,white,1997.2150131999515,None,n,1997.2150131999515,None,"['n', 'return']","[0.9117796999635175, 1.4238154999911785]",1997.2150131999515,None,,,6,001,2023_Feb_01_1022,ExactRep-v3-final,2021.2.3,59.92789473822199,
,,,,,,,,,,,,94,0,94,0,,,,,,,,,,,,,,,,,,,,,,,,,,,,,,,,,,,,,,,,,,,,,,,,,2002.728747599991,None,,,,,,,,,,,,,,,,,,,,,,,,,,,,,,,,,,,,,,,,,,,,,,,,,,,,,,,,,glory,152,95,silent,new,blue,1999.1901566999732,None,y,1999.1901566999732,None,"['y', 'return']","[3.0005745999515057, 3.5045391999883577]",1999.1901566999732,None,,,6,001,2023_Feb_01_1022,ExactRep-v3-final,2021.2.3,59.92789473822199,
,,,,,,,,,,,,95,0,95,0,,,,,,,,,,,,,,,,,,,,,,,,,,,,,,,,,,,,,,,,,,,,,,,,,2005.1812162999995,None,,,,,,,,,,,,,,,,,,,,,,,,,,,,,,,,,,,,,,,,,,,,,,,,,,,,,,,,,engine,183,96,sing,new,red,2003.2385259999428,None,n,2003.2385259999428,None,"['n', 'return']","[1.3762622999493033, 1.8962355999974534]",2003.2385259999428,None,,,6,001,2023_Feb_01_1022,ExactRep-v3-final,2021.2.3,59.92789473822199,
,,,,,,,,,,,,96,0,96,0,,,,,,,,,,,,,,,,,,,,,,,,,,,,,,,,,,,,,,,,,,,,,,,,,2007.3667001998983,None,,,,,,,,,,,,,,,,,,,,,,,,,,,,,,,,,,,,,,,,,,,,,,,,,,,,,,,,,machine,228,97,aloud,new,white,2005.692416899954,None,n,2005.692416899954,None,"['n', 'return']","[1.1625615999801084, 1.6424051999347284]",2005.692416899954,None,,,6,001,2023_Feb_01_1022,ExactRep-v3-final,2021.2.3,59.92789473822199,
,,,,,,,,,,,,97,0,97,0,,,,,,,,,,,,,,,,,,,,,,,,,,,,,,,,,,,,,,,,,,,,,,,,,2009.552524699946,None,,,,,,,,,,,,,,,,,,,,,,,,,,,,,,,,,,,,,,,,,,,,,,,,,,,,,,,,,lord,0,98,sing,old,red,2007.8803828998934,None,y,2007.8803828998934,None,"['y', 'return']","[1.1183624000987038, 1.6303687000181526]",2007.8803828998934,None,,,6,001,2023_Feb_01_1022,ExactRep-v3-final,2021.2.3,59.92789473822199,
,,,,,,,,,,,,98,0,98,0,,,,,,,,,,,,,,,,,,,,,,,,,,,,,,,,,,,,,,,,,,,,,,,,,2011.8879319999833,None,,,,,,,,,,,,,,,,,,,,,,,,,,,,,,,,,,,,,,,,,,,,,,,,,,,,,,,,,hotel,92,99,aloud,old,white,2010.0590250999667,None,y,2010.0590250999667,None,"['y', 'return']","[1.3477740000234917, 1.795987299992703]",2010.0590250999667,None,,,6,001,2023_Feb_01_1022,ExactRep-v3-final,2021.2.3,59.92789473822199,
,,,,,,,,,,,,99,0,99,0,,,,,,,,,,,,,,,,,,,,,,,,,,,,,,,,,,,,,,,,,,,,,,,,,2016.0253865999402,None,,,,,,,,,,,,,,,,,,,,,,,,,,,,,,,,,,,,,,,,,,,,,,,,,,,,,,,,,woman,226,100,aloud,new,white,2012.3981751999818,None,n,2012.3981751999818,None,"['n', 'return']","[3.048521500080824, 3.5846474000718445]",2012.3981751999818,None,,,6,001,2023_Feb_01_1022,ExactRep-v3-final,2021.2.3,59.92789473822199,
,,,,,,,,,,,,100,0,100,0,,,,,,,,,,,,,,,,,,,,,,,,,,,,,,,,,,,,,,,,,,,,,,,,,2018.277622399968,None,,,,,,,,,,,,,,,,,,,,,,,,,,,,,,,,,,,,,,,,,,,,,,,,,,,,,,,,,flag,108,101,aloud,old,white,2016.5390068999259,None,y,2016.5390068999259,None,"['y', 'return']","[1.1079266000306234, 1.6918025999329984]",2016.5390068999259,None,,,6,001,2023_Feb_01_1022,ExactRep-v3-final,2021.2.3,59.92789473822199,
,,,,,,,,,,,,101,0,101,0,,,,,,,,,,,,,,,,,,,,,,,,,,,,,,,,,,,,,,,,,,,,,,,,,2023.6830245999154,None,,,,,,,,,,,,,,,,,,,,,,,,,,,,,,,,,,,,,,,,,,,,,,,,,,,,,,,,,poet,59,102,silent,old,blue,2018.7871094999136,None,y,2018.7871094999136,None,"['y', 'return']","[4.283670600038022, 4.859688500058837]",2018.7871094999136,None,,,6,001,2023_Feb_01_1022,ExactRep-v3-final,2021.2.3,59.92789473822199,
,,,,,,,,,,,,102,0,102,0,,,,,,,,,,,,,,,,,,,,,,,,,,,,,,,,,,,,,,,,,,,,,,,,,2028.7380846999586,None,,,,,,,,,,,,,,,,,,,,,,,,,,,,,,,,,,,,,,,,,,,,,,,,,,,,,,,,,murder,133,103,silent,new,blue,2024.1853430999909,None,y,2024.1853430999909,None,"['y', 'return']","[1.3735568000702187, 4.5175299000693485]",2024.1853430999909,None,,,6,001,2023_Feb_01_1022,ExactRep-v3-final,2021.2.3,59.92789473822199,
,,,,,,,,,,,,103,0,103,0,,,,,,,,,,,,,,,,,,,,,,,,,,,,,,,,,,,,,,,,,,,,,,,,,2031.007086699945,None,,,,,,,,,,,,,,,,,,,,,,,,,,,,,,,,,,,,,,,,,,,,,,,,,,,,,,,,,beast,119,104,aloud,old,white,2029.2493212999543,None,y,2029.2493212999543,None,"['y', 'return']","[1.1656196999829262, 1.7174630999797955]",2029.2493212999543,None,,,6,001,2023_Feb_01_1022,ExactRep-v3-final,2021.2.3,59.92789473822199,
,,,,,,,,,,,,104,0,104,0,,,,,,,,,,,,,,,,,,,,,,,,,,,,,,,,,,,,,,,,,,,,,,,,,2033.0423626999836,None,,,,,,,,,,,,,,,,,,,,,,,,,,,,,,,,,,,,,,,,,,,,,,,,,,,,,,,,,plain,91,105,aloud,old,white,2031.517578799976,None,y,2031.517578799976,None,"['y', 'return']","[1.0012462999438867, 1.4892493999795988]",2031.517578799976,None,,,6,001,2023_Feb_01_1022,ExactRep-v3-final,2021.2.3,59.92789473822199,
,,,,,,,,,,,,105,0,105,0,,,,,,,,,,,,,,,,,,,,,,,,,,,,,,,,,,,,,,,,,,,,,,,,,2035.045410499908,None,,,,,,,,,,,,,,,,,,,,,,,,,,,,,,,,,,,,,,,,,,,,,,,,,,,,,,,,,master,80,106,aloud,old,white,2033.552446699934,None,y,2033.552446699934,None,"['y', 'return']","[1.0142924999818206, 1.454348500003107]",2033.552446699934,None,,,6,001,2023_Feb_01_1022,ExactRep-v3-final,2021.2.3,59.92789473822199,
,,,,,,,,,,,,106,0,106,0,,,,,,,,,,,,,,,,,,,,,,,,,,,,,,,,,,,,,,,,,,,,,,,,,2037.4134005999658,None,,,,,,,,,,,,,,,,,,,,,,,,,,,,,,,,,,,,,,,,,,,,,,,,,,,,,,,,,method,198,107,aloud,new,white,2035.5546000999166,None,n,2035.5546000999166,None,"['n', 'return']","[1.1802769000642002, 1.8202311000786722]",2035.5546000999166,None,,,6,001,2023_Feb_01_1022,ExactRep-v3-final,2021.2.3,59.92789473822199,
,,,,,,,,,,,,107,0,107,0,,,,,,,,,,,,,,,,,,,,,,,,,,,,,,,,,,,,,,,,,,,,,,,,,2041.8512227999745,None,,,,,,,,,,,,,,,,,,,,,,,,,,,,,,,,,,,,,,,,,,,,,,,,,,,,,,,,,hide,48,108,silent,old,blue,2037.9221238999162,None,n,2037.9221238999162,None,"['n', 'return']","[3.156725400011055, 3.8926951000466943]",2037.9221238999162,None,,,6,001,2023_Feb_01_1022,ExactRep-v3-final,2021.2.3,59.92789473822199,
,,,,,,,,,,,,108,0,108,0,,,,,,,,,,,,,,,,,,,,,,,,,,,,,,,,,,,,,,,,,,,,,,,,,2043.9200049999636,None,,,,,,,,,,,,,,,,,,,,,,,,,,,,,,,,,,,,,,,,,,,,,,,,,,,,,,,,,memory,193,109,sing,new,red,2042.3609916999703,None,y,2042.3609916999703,None,"['y', 'return']","[1.1019305000081658, 1.5257658999180421]",2042.3609916999703,None,,,6,001,2023_Feb_01_1022,ExactRep-v3-final,2021.2.3,59.92789473822199,
,,,,,,,,,,,,109,0,109,0,,,,,,,,,,,,,,,,,,,,,,,,,,,,,,,,,,,,,,,,,,,,,,,,,2045.8883531999309,None,,,,,,,,,,,,,,,,,,,,,,,,,,,,,,,,,,,,,,,,,,,,,,,,,,,,,,,,,pupil,224,110,aloud,new,white,2044.4260695999255,None,n,2044.4260695999255,None,"['n', 'return']","[0.9968226999044418, 1.4207414999837056]",2044.4260695999255,None,,,6,001,2023_Feb_01_1022,ExactRep-v3-final,2021.2.3,59.92789473822199,
,,,,,,,,,,,,110,0,110,0,,,,,,,,,,,,,,,,,,,,,,,,,,,,,,,,,,,,,,,,,,,,,,,,,2047.8404546999373,None,,,,,,,,,,,,,,,,,,,,,,,,,,,,,,,,,,,,,,,,,,,,,,,,,,,,,,,,,coffee,90,111,aloud,old,white,2046.4072731999913,None,y,2046.4072731999913,None,"['y', 'return']","[0.9515465000877157, 1.3994722000788897]",2046.4072731999913,None,,,6,001,2023_Feb_01_1022,ExactRep-v3-final,2021.2.3,59.92789473822199,
,,,,,,,,,,,,111,0,111,0,,,,,,,,,,,,,,,,,,,,,,,,,,,,,,,,,,,,,,,,,,,,,,,,,2054.3637079999316,None,,,,,,,,,,,,,,,,,,,,,,,,,,,,,,,,,,,,,,,,,,,,,,,,,,,,,,,,,palace,215,112,sing,new,red,2048.3546246999176,None,n,2048.3546246999176,None,"['y', 'n', 'backspace', 'n', 'return']","[2.556114900042303, 3.860149300075136, 4.788262699963525, 5.532085100072436, 5.972133100032806]",2048.3546246999176,None,,,6,001,2023_Feb_01_1022,ExactRep-v3-final,2021.2.3,59.92789473822199,
,,,,,,,,,,,,112,0,112,0,,,,,,,,,,,,,,,,,,,,,,,,,,,,,,,,,,,,,,,,,,,,,,,,,2056.4668824999826,None,,,,,,,,,,,,,,,,,,,,,,,,,,,,,,,,,,,,,,,,,,,,,,,,,,,,,,,,,effort,110,113,aloud,old,white,2054.8813287999947,None,y,2054.8813287999947,None,"['y', 'return']","[1.0216728000668809, 1.5413880000123754]",2054.8813287999947,None,,,6,001,2023_Feb_01_1022,ExactRep-v3-final,2021.2.3,59.92789473822199,
,,,,,,,,,,,,113,0,113,0,,,,,,,,,,,,,,,,,,,,,,,,,,,,,,,,,,,,,,,,,,,,,,,,,2058.2862820999,None,,,,,,,,,,,,,,,,,,,,,,,,,,,,,,,,,,,,,,,,,,,,,,,,,,,,,,,,,skin,184,114,aloud,new,white,2056.9743011998944,None,n,2056.9743011998944,None,"['n', 'return']","[0.8484230000758544, 1.2645965000847355]",2056.9743011998944,None,,,6,001,2023_Feb_01_1022,ExactRep-v3-final,2021.2.3,59.92789473822199,
,,,,,,,,,,,,114,0,114,0,,,,,,,,,,,,,,,,,,,,,,,,,,,,,,,,,,,,,,,,,,,,,,,,,2060.4364726999775,None,,,,,,,,,,,,,,,,,,,,,,,,,,,,,,,,,,,,,,,,,,,,,,,,,,,,,,,,,diamond,186,115,aloud,new,white,2058.8075064999284,None,n,2058.8075064999284,None,"['n', 'return']","[1.0471989000216126, 1.583379999967292]",2058.8075064999284,None,,,6,001,2023_Feb_01_1022,ExactRep-v3-final,2021.2.3,59.92789473822199,
,,,,,,,,,,,,115,0,115,0,,,,,,,,,,,,,,,,,,,,,,,,,,,,,,,,,,,,,,,,,,,,,,,,,2064.123460099916,None,,,,,,,,,,,,,,,,,,,,,,,,,,,,,,,,,,,,,,,,,,,,,,,,,,,,,,,,,breast,54,116,silent,old,blue,2060.944283299963,None,y,2060.944283299963,None,"['y', 'return']","[2.1745470000896603, 3.142525300034322]",2060.944283299963,None,,,6,001,2023_Feb_01_1022,ExactRep-v3-final,2021.2.3,59.92789473822199,
,,,,,,,,,,,,116,0,116,0,,,,,,,,,,,,,,,,,,,,,,,,,,,,,,,,,,,,,,,,,,,,,,,,,2066.2422244999325,None,,,,,,,,,,,,,,,,,,,,,,,,,,,,,,,,,,,,,,,,,,,,,,,,,,,,,,,,,volume,11,117,sing,old,red,2064.631546499906,None,n,2064.631546499906,None,"['n', 'return']","[1.1112282000249252, 1.5753347999416292]",2064.631546499906,None,,,6,001,2023_Feb_01_1022,ExactRep-v3-final,2021.2.3,59.92789473822199,
,,,,,,,,,,,,117,0,117,0,,,,,,,,,,,,,,,,,,,,,,,,,,,,,,,,,,,,,,,,,,,,,,,,,2068.3272916999413,None,,,,,,,,,,,,,,,,,,,,,,,,,,,,,,,,,,,,,,,,,,,,,,,,,,,,,,,,,idea,205,118,sing,new,red,2066.751624599914,None,n,2066.751624599914,None,"['n', 'return']","[1.0711355999810621, 1.535152900032699]",2066.751624599914,None,,,6,001,2023_Feb_01_1022,ExactRep-v3-final,2021.2.3,59.92789473822199,
,,,,,,,,,,,,118,0,118,0,,,,,,,,,,,,,,,,,,,,,,,,,,,,,,,,,,,,,,,,,,,,,,,,,2070.2962487998884,None,,,,,,,,,,,,,,,,,,,,,,,,,,,,,,,,,,,,,,,,,,,,,,,,,,,,,,,,,cotton,49,119,silent,old,blue,2068.8374909999548,None,n,2068.8374909999548,None,"['n', 'return']","[0.9772494999924675, 1.4173278999514878]",2068.8374909999548,None,,,6,001,2023_Feb_01_1022,ExactRep-v3-final,2021.2.3,59.92789473822199,
,,,,,,,,,,,,119,0,119,0,,,,,,,,,,,,,,,,,,,,,,,,,,,,,,,,,,,,,,,,,,,,,,,,,2073.199239699985,None,,,,,,,,,,,,,,,,,,,,,,,,,,,,,,,,,,,,,,,,,,,,,,,,,,,,,,,,,theory,174,120,aloud,new,white,2070.810863999999,None,n,2070.810863999999,None,"['n', 'return']","[1.2999419000698254, 2.3559636999852955]",2070.810863999999,None,,,6,001,2023_Feb_01_1022,ExactRep-v3-final,2021.2.3,59.92789473822199,
,,,,,,,,,,,,120,0,120,0,,,,,,,,,,,,,,,,,,,,,,,,,,,,,,,,,,,,,,,,,,,,,,,,,2075.8195428999607,None,,,,,,,,,,,,,,,,,,,,,,,,,,,,,,,,,,,,,,,,,,,,,,,,,,,,,,,,,fault,125,121,silent,new,blue,2073.7085506999865,None,n,2073.7085506999865,None,"['n', 'return']","[1.1302267999853939, 2.0743436999619007]",2073.7085506999865,None,,,6,001,2023_Feb_01_1022,ExactRep-v3-final,2021.2.3,59.92789473822199,
,,,,,,,,,,,,121,0,121,0,,,,,,,,,,,,,,,,,,,,,,,,,,,,,,,,,,,,,,,,,,,,,,,,,2081.3408670999343,None,,,,,,,,,,,,,,,,,,,,,,,,,,,,,,,,,,,,,,,,,,,,,,,,,,,,,,,,,chance,82,122,aloud,old,white,2076.3306463999907,None,y,2076.3306463999907,None,"['y', 'return']","[4.476111799944192, 4.964151899912395]",2076.3306463999907,None,,,6,001,2023_Feb_01_1022,ExactRep-v3-final,2021.2.3,59.92789473822199,
,,,,,,,,,,,,122,0,122,0,,,,,,,,,,,,,,,,,,,,,,,,,,,,,,,,,,,,,,,,,,,,,,,,,2083.459482599981,None,,,,,,,,,,,,,,,,,,,,,,,,,,,,,,,,,,,,,,,,,,,,,,,,,,,,,,,,,fur,134,123,silent,new,blue,2081.8490244999994,None,n,2081.8490244999994,None,"['n', 'return']","[0.9897583000129089, 1.5657400001073256]",2081.8490244999994,None,,,6,001,2023_Feb_01_1022,ExactRep-v3-final,2021.2.3,59.92789473822199,
,,,,,,,,,,,,123,0,123,0,,,,,,,,,,,,,,,,,,,,,,,,,,,,,,,,,,,,,,,,,,,,,,,,,2085.5782147999853,None,,,,,,,,,,,,,,,,,,,,,,,,,,,,,,,,,,,,,,,,,,,,,,,,,,,,,,,,,valley,120,124,silent,new,blue,2083.970848799916,None,n,2083.970848799916,None,"['n', 'return']","[0.9879566000308841, 1.5720499000744894]",2083.970848799916,None,,,6,001,2023_Feb_01_1022,ExactRep-v3-final,2021.2.3,59.92789473822199,
,,,,,,,,,,,,124,0,124,0,,,,,,,,,,,,,,,,,,,,,,,,,,,,,,,,,,,,,,,,,,,,,,,,,2088.5146344999084,None,,,,,,,,,,,,,,,,,,,,,,,,,,,,,,,,,,,,,,,,,,,,,,,,,,,,,,,,,kiss,132,125,silent,new,blue,2086.087430299958,None,n,2086.087430299958,None,"['n', 'return']","[1.143320200033486, 2.3914216000121087]",2086.087430299958,None,,,6,001,2023_Feb_01_1022,ExactRep-v3-final,2021.2.3,59.92789473822199,
,,,,,,,,,,,,125,0,125,0,,,,,,,,,,,,,,,,,,,,,,,,,,,,,,,,,,,,,,,,,,,,,,,,,2091.3339600999607,None,,,,,,,,,,,,,,,,,,,,,,,,,,,,,,,,,,,,,,,,,,,,,,,,,,,,,,,,,child,33,126,sing,old,red,2089.025903099915,None,y,2089.025903099915,None,"['y', 'return']","[1.74886749999132, 2.2688563000410795]",2089.025903099915,None,,,6,001,2023_Feb_01_1022,ExactRep-v3-final,2021.2.3,59.92789473822199,
,,,,,,,,,,,,126,0,126,0,,,,,,,,,,,,,,,,,,,,,,,,,,,,,,,,,,,,,,,,,,,,,,,,,2093.7030223999172,None,,,,,,,,,,,,,,,,,,,,,,,,,,,,,,,,,,,,,,,,,,,,,,,,,,,,,,,,,camp,129,127,silent,new,blue,2091.8452069999184,None,n,2091.8452069999184,None,"['n', 'return']","[1.297574899974279, 1.81756829994265]",2091.8452069999184,None,,,6,001,2023_Feb_01_1022,ExactRep-v3-final,2021.2.3,59.92789473822199,
,,,,,,,,,,,,127,0,127,0,,,,,,,,,,,,,,,,,,,,,,,,,,,,,,,,,,,,,,,,,,,,,,,,,2095.671656499966,None,,,,,,,,,,,,,,,,,,,,,,,,,,,,,,,,,,,,,,,,,,,,,,,,,,,,,,,,,bottle,156,128,silent,new,blue,2094.2191766999895,None,n,2094.2191766999895,None,"['n', 'return']","[0.9317980000050738, 1.4115939000621438]",2094.2191766999895,None,,,6,001,2023_Feb_01_1022,ExactRep-v3-final,2021.2.3,59.92789473822199,
,,,,,,,,,,,,128,0,128,0,,,,,,,,,,,,,,,,,,,,,,,,,,,,,,,,,,,,,,,,,,,,,,,,,2098.674437299953,None,,,,,,,,,,,,,,,,,,,,,,,,,,,,,,,,,,,,,,,,,,,,,,,,,,,,,,,,,dream,12,129,sing,old,red,2096.1900909999385,None,n,2096.1900909999385,None,"['n', 'return']","[1.9926848999457434, 2.4407829999690875]",2096.1900909999385,None,,,6,001,2023_Feb_01_1022,ExactRep-v3-final,2021.2.3,59.92789473822199,
,,,,,,,,,,,,129,0,129,0,,,,,,,,,,,,,,,,,,,,,,,,,,,,,,,,,,,,,,,,,,,,,,,,,2102.5452168999473,None,,,,,,,,,,,,,,,,,,,,,,,,,,,,,,,,,,,,,,,,,,,,,,,,,,,,,,,,,corner,175,130,sing,new,red,2099.1827505999245,None,n,2099.1827505999245,None,"['n', 'return']","[2.2080525000346825, 3.3280238000443205]",2099.1827505999245,None,,,6,001,2023_Feb_01_1022,ExactRep-v3-final,2021.2.3,59.92789473822199,
,,,,,,,,,,,,130,0,130,0,,,,,,,,,,,,,,,,,,,,,,,,,,,,,,,,,,,,,,,,,,,,,,,,,2104.680408099899,None,,,,,,,,,,,,,,,,,,,,,,,,,,,,,,,,,,,,,,,,,,,,,,,,,,,,,,,,,charm,9,131,sing,old,red,2103.053368499968,None,y,2103.053368499968,None,"['y', 'return']","[1.1134186999406666, 1.5853736998979002]",2103.053368499968,None,,,6,001,2023_Feb_01_1022,ExactRep-v3-final,2021.2.3,59.92789473822199,
,,,,,,,,,,,,131,0,131,0,,,,,,,,,,,,,,,,,,,,,,,,,,,,,,,,,,,,,,,,,,,,,,,,,2106.9829246998997,None,,,,,,,,,,,,,,,,,,,,,,,,,,,,,,,,,,,,,,,,,,,,,,,,,,,,,,,,,law,23,132,sing,old,red,2105.1893917999696,None,y,2105.1893917999696,None,"['y', 'return']","[1.2735432999907061, 1.7534310999326408]",2105.1893917999696,None,,,6,001,2023_Feb_01_1022,ExactRep-v3-final,2021.2.3,59.92789473822199,
