trials_fam.thisRepN,trials_fam.thisTrialN,trials_fam.thisN,trials_fam.thisIndex,trials_prc.thisRepN,trials_prc.thisTrialN,trials_prc.thisN,trials_prc.thisIndex,StudyLoop.thisRepN,StudyLoop.thisTrialN,StudyLoop.thisN,StudyLoop.thisIndex,TestLoop.thisRepN,TestLoop.thisTrialN,TestLoop.thisN,TestLoop.thisIndex,text_colortest.started,text_colortest.stopped,key_colortest.keys,key_colortest.rt,key_colortest.started,key_colortest.stopped,textCondition.started,textCondition.stopped,keyCondition.keys,keyCondition.rt,keyCondition.started,keyCondition.stopped,Condition_between,Condition_counterbal,keyWelcome.keys,keyWelcome.rt,keyWelcome.started,keyWelcome.stopped,welcome_a.started,welcome_a.stopped,welcome_b.started,welcome_b.stopped,welcome_c.started,welcome_c.stopped,welcome_d.started,welcome_d.stopped,welcome_e.started,welcome_e.stopped,welcome_f.started,welcome_f.stopped,key_resp_fam_inst.keys,key_resp_fam_inst.rt,key_resp_fam_inst.started,key_resp_fam_inst.stopped,fam_a.started,fam_a.stopped,fam_b.started,fam_b.stopped,fam_c.started,fam_c.stopped,fam_d.started,fam_d.stopped,fam_e.started,fam_e.stopped,fam_f.started,fam_f.stopped,text_famil.started,text_famil.stopped,textBlank500.started,textBlank500.stopped,key_resp_prc_inst.keys,key_resp_prc_inst.rt,key_resp_prc_inst.started,key_resp_prc_inst.stopped,prac_a.started,prac_a.stopped,prac_b.started,prac_b.stopped,prac_c.started,prac_c.stopped,prac_d.started,prac_d.stopped,prac_e.started,prac_e.stopped,prac_f.started,prac_f.stopped,text_prc_trial.started,text_prc_trial.stopped,key_resp_study_inst.keys,key_resp_study_inst.rt,key_resp_study_inst.started,key_resp_study_inst.stopped,crit_a.started,crit_a.stopped,crit_b.started,crit_b.stopped,crit_c.started,crit_c.stopped,crit_d.started,crit_d.stopped,crit_e.started,crit_e.stopped,crit_f.started,crit_f.stopped,study_word,study_num,study_order,study_type,word_color,textStudy.started,textStudy.stopped,keyStudy.keys,keyStudy.started,keyStudy.stopped,post_study.started,post_study.stopped,key_resp_post_study.keys,key_resp_post_study.rt,key_resp_post_study.started,key_resp_post_study.stopped,test_inst.started,test_inst.stopped,key_resp_test_inst.keys,key_resp_test_inst.rt,key_resp_test_inst.started,key_resp_test_inst.stopped,test_word,test_num,test_order,test_condition,old_new_test,word_color_test,textConf.started,textConf.stopped,Participant Response,textInput.started,textInput.stopped,keyResp.keys,keyResp.rt,keyResp.started,keyResp.stopped,textEnd.started,textEnd.stopped,participant,session,date,expName,psychopyVersion,frameRate,
,,,,,,,,,,,,,,,,35.00757160037756,None,n,5.345710200257599,35.00757160037756,None,,,,,,,,,,,,,,,,,,,,,,,,,,,,,,,,,,,,,,,,,,,,,,,,,,,,,,,,,,,,,,,,,,,,,,,,,,,,,,,,,,,,,,,,,,,,,,,,,,,,,,,,,,,,,,,,,,,,,,70ND,001,2023_May_03_1600,ExactRep-v3-final,2021.2.3,59.89372454685583,
,,,,,,,,,,,,,,,,,,,,,,40.376833599992096,None,d,0.40066170040518045,40.376833599992096,None,,,,,,,,,,,,,,,,,,,,,,,,,,,,,,,,,,,,,,,,,,,,,,,,,,,,,,,,,,,,,,,,,,,,,,,,,,,,,,,,,,,,,,,,,,,,,,,,,,,,,,,,,,,,,,,,70ND,001,2023_May_03_1600,ExactRep-v3-final,2021.2.3,59.89372454685583,
,,,,,,,,,,,,,,,,,,,,,,,,,,,,whitefoils,d,space,1919.5469487998635,50.92032389994711,None,,,,,,,,,,,,,,,,,,,,,,,,,,,,,,,,,,,,,,,,,,,,,,,,,,,,,,,,,,,,,,,,,,,,,,,,,,,,,,,,,,,,,,,,,,,,,,,,,,,,,,,,,,70ND,001,2023_May_03_1600,ExactRep-v3-final,2021.2.3,59.89372454685583,
,,,,,,,,,,,,,,,,,,,,,,,,,,,,,,,,,,40.95081050042063,None,40.95081050042063,None,40.95081050042063,None,40.95081050042063,None,40.95081050042063,None,40.95081050042063,None,space,14.564810199663043,1980.662456200458,None,,,,,,,,,,,,,,,,,,,,,,,,,,,,,,,,,,,,,,,,,,,,,,,,,,,,,,,,,,,,,,,,,,,,,,,,,,,,,,,,,,,,,,,,,,70ND,001,2023_May_03_1600,ExactRep-v3-final,2021.2.3,59.89372454685583,
0,0,0,0,,,,,,,,,,,,,,,,,,,,,,,,,,,,,,,,,,,,,,,,,,,,,,,1970.6821956001222,None,1970.6821956001222,None,1970.6821956001222,None,1970.6821956001222,None,1970.6821956001222,None,1970.6821956001222,None,1995.3357284003869,None,1997.3338322006166,None,,,,,,,,,,,,,,,,,,,,,,,,,,,,,,,,,,,,,,,,,,,,,,,,,,,,,,,,,,,,,,,,,,,,,,,,,,70ND,001,2023_May_03_1600,ExactRep-v3-final,2021.2.3,59.89372454685583,
1,0,1,0,,,,,,,,,,,,,,,,,,,,,,,,,,,,,,,,,,,,,,,,,,,,,,,,,,,,,,,,,,,1997.844455299899,None,1999.8528778003529,None,,,,,,,,,,,,,,,,,,,,,,,,,,,,,,,,,,,,,,,,,,,,,,,,,,,,,,,,,,,,,,,,,,,,,,,,,,70ND,001,2023_May_03_1600,ExactRep-v3-final,2021.2.3,59.89372454685583,
2,0,2,0,,,,,,,,,,,,,,,,,,,,,,,,,,,,,,,,,,,,,,,,,,,,,,,,,,,,,,,,,,,2000.3536234004423,None,2002.3556992001832,None,,,,,,,,,,,,,,,,,,,,,,,,,,,,,,,,,,,,,,,,,,,,,,,,,,,,,,,,,,,,,,,,,,,,,,,,,,70ND,001,2023_May_03_1600,ExactRep-v3-final,2021.2.3,59.89372454685583,
3,0,3,0,,,,,,,,,,,,,,,,,,,,,,,,,,,,,,,,,,,,,,,,,,,,,,,,,,,,,,,,,,,2002.8577332003042,None,2004.8580196006224,None,,,,,,,,,,,,,,,,,,,,,,,,,,,,,,,,,,,,,,,,,,,,,,,,,,,,,,,,,,,,,,,,,,,,,,,,,,70ND,001,2023_May_03_1600,ExactRep-v3-final,2021.2.3,59.89372454685583,
4,0,4,0,,,,,,,,,,,,,,,,,,,,,,,,,,,,,,,,,,,,,,,,,,,,,,,,,,,,,,,,,,,2005.3648971999064,None,2007.3773028999567,None,,,,,,,,,,,,,,,,,,,,,,,,,,,,,,,,,,,,,,,,,,,,,,,,,,,,,,,,,,,,,,,,,,,,,,,,,,70ND,001,2023_May_03_1600,ExactRep-v3-final,2021.2.3,59.89372454685583,
5,0,5,0,,,,,,,,,,,,,,,,,,,,,,,,,,,,,,,,,,,,,,,,,,,,,,,,,,,,,,,,,,,2007.8777927998453,None,2009.8797385999933,None,,,,,,,,,,,,,,,,,,,,,,,,,,,,,,,,,,,,,,,,,,,,,,,,,,,,,,,,,,,,,,,,,,,,,,,,,,70ND,001,2023_May_03_1600,ExactRep-v3-final,2021.2.3,59.89372454685583,
6,0,6,0,,,,,,,,,,,,,,,,,,,,,,,,,,,,,,,,,,,,,,,,,,,,,,,,,,,,,,,,,,,2010.3825043998659,None,2012.3822204004973,None,,,,,,,,,,,,,,,,,,,,,,,,,,,,,,,,,,,,,,,,,,,,,,,,,,,,,,,,,,,,,,,,,,,,,,,,,,70ND,001,2023_May_03_1600,ExactRep-v3-final,2021.2.3,59.89372454685583,
7,0,7,0,,,,,,,,,,,,,,,,,,,,,,,,,,,,,,,,,,,,,,,,,,,,,,,,,,,,,,,,,,,2012.8854247005656,None,2014.8847873006016,None,,,,,,,,,,,,,,,,,,,,,,,,,,,,,,,,,,,,,,,,,,,,,,,,,,,,,,,,,,,,,,,,,,,,,,,,,,70ND,001,2023_May_03_1600,ExactRep-v3-final,2021.2.3,59.89372454685583,
8,0,8,0,,,,,,,,,,,,,,,,,,,,,,,,,,,,,,,,,,,,,,,,,,,,,,,,,,,,,,,,,,,2015.394717999734,None,2017.4039588002488,None,,,,,,,,,,,,,,,,,,,,,,,,,,,,,,,,,,,,,,,,,,,,,,,,,,,,,,,,,,,,,,,,,,,,,,,,,,70ND,001,2023_May_03_1600,ExactRep-v3-final,2021.2.3,59.89372454685583,
9,0,9,0,,,,,,,,,,,,,,,,,,,,,,,,,,,,,,,,,,,,,,,,,,,,,,,,,,,,,,,,,,,2017.9064747001976,None,2019.906493600458,None,,,,,,,,,,,,,,,,,,,,,,,,,,,,,,,,,,,,,,,,,,,,,,,,,,,,,,,,,,,,,,,,,,,,,,,,,,70ND,001,2023_May_03_1600,ExactRep-v3-final,2021.2.3,59.89372454685583,
10,0,10,0,,,,,,,,,,,,,,,,,,,,,,,,,,,,,,,,,,,,,,,,,,,,,,,,,,,,,,,,,,,2020.4101343005896,None,2022.4257402000949,None,,,,,,,,,,,,,,,,,,,,,,,,,,,,,,,,,,,,,,,,,,,,,,,,,,,,,,,,,,,,,,,,,,,,,,,,,,70ND,001,2023_May_03_1600,ExactRep-v3-final,2021.2.3,59.89372454685583,
11,0,11,0,,,,,,,,,,,,,,,,,,,,,,,,,,,,,,,,,,,,,,,,,,,,,,,,,,,,,,,,,,,2022.934349199757,None,2024.9448086004704,None,,,,,,,,,,,,,,,,,,,,,,,,,,,,,,,,,,,,,,,,,,,,,,,,,,,,,,,,,,,,,,,,,,,,,,,,,,70ND,001,2023_May_03_1600,ExactRep-v3-final,2021.2.3,59.89372454685583,
12,0,12,0,,,,,,,,,,,,,,,,,,,,,,,,,,,,,,,,,,,,,,,,,,,,,,,,,,,,,,,,,,,2025.4481135001406,None,2027.4474480999634,None,,,,,,,,,,,,,,,,,,,,,,,,,,,,,,,,,,,,,,,,,,,,,,,,,,,,,,,,,,,,,,,,,,,,,,,,,,70ND,001,2023_May_03_1600,ExactRep-v3-final,2021.2.3,59.89372454685583,
13,0,13,0,,,,,,,,,,,,,,,,,,,,,,,,,,,,,,,,,,,,,,,,,,,,,,,,,,,,,,,,,,,2027.9552223002538,None,2029.9665858000517,None,,,,,,,,,,,,,,,,,,,,,,,,,,,,,,,,,,,,,,,,,,,,,,,,,,,,,,,,,,,,,,,,,,,,,,,,,,70ND,001,2023_May_03_1600,ExactRep-v3-final,2021.2.3,59.89372454685583,
14,0,14,0,,,,,,,,,,,,,,,,,,,,,,,,,,,,,,,,,,,,,,,,,,,,,,,,,,,,,,,,,,,2030.4671924998984,None,2032.4688172005117,None,,,,,,,,,,,,,,,,,,,,,,,,,,,,,,,,,,,,,,,,,,,,,,,,,,,,,,,,,,,,,,,,,,,,,,,,,,70ND,001,2023_May_03_1600,ExactRep-v3-final,2021.2.3,59.89372454685583,
,,,,,,,,,,,,,,,,,,,,,,,,,,,,,,,,,,,,,,,,,,,,,,,,,,,,,,,,,,,,,,,,,,space,14.344033199362457,2043.1073673004285,None,,,,,,,,,,,,,,,,,,,,,,,,,,,,,,,,,,,,,,,,,,,,,,,,,,,,,,,,,,,,,,,,,,,,,,70ND,001,2023_May_03_1600,ExactRep-v3-final,2021.2.3,59.89372454685583,
,,,,0,0,0,0,,,,,,,,,,,,,,,,,,,,,,,,,,,,,,,,,,,,,,,,,,,,,,,,,,,,,,,,,2059.562549199909,None,,,,,2033.1339512998238,None,2033.1339512998238,None,2033.1339512998238,None,2033.1339512998238,None,2033.1339512998238,None,2033.1339512998238,None,2057.5617525000125,None,,,,,,,,,,,,,,,,,,,,,,,,,,,,,,,,,,,,,,,,,,,,,,,,,,,,,,,,70ND,001,2023_May_03_1600,ExactRep-v3-final,2021.2.3,59.89372454685583,
,,,,1,0,1,0,,,,,,,,,,,,,,,,,,,,,,,,,,,,,,,,,,,,,,,,,,,,,,,,,,,,,,,,,2062.065288799815,None,,,,,,,,,,,,,,,,,2060.063066200353,None,,,,,,,,,,,,,,,,,,,,,,,,,,,,,,,,,,,,,,,,,,,,,,,,,,,,,,,,70ND,001,2023_May_03_1600,ExactRep-v3-final,2021.2.3,59.89372454685583,
,,,,2,0,2,0,,,,,,,,,,,,,,,,,,,,,,,,,,,,,,,,,,,,,,,,,,,,,,,,,,,,,,,,,2064.567828600295,None,,,,,,,,,,,,,,,,,2062.565887699835,None,,,,,,,,,,,,,,,,,,,,,,,,,,,,,,,,,,,,,,,,,,,,,,,,,,,,,,,,70ND,001,2023_May_03_1600,ExactRep-v3-final,2021.2.3,59.89372454685583,
,,,,3,0,3,0,,,,,,,,,,,,,,,,,,,,,,,,,,,,,,,,,,,,,,,,,,,,,,,,,,,,,,,,,2067.0703017003834,None,,,,,,,,,,,,,,,,,2065.0682546999305,None,,,,,,,,,,,,,,,,,,,,,,,,,,,,,,,,,,,,,,,,,,,,,,,,,,,,,,,,70ND,001,2023_May_03_1600,ExactRep-v3-final,2021.2.3,59.89372454685583,
,,,,4,0,4,0,,,,,,,,,,,,,,,,,,,,,,,,,,,,,,,,,,,,,,,,,,,,,,,,,,,,,,,,,2069.572806100361,None,,,,,,,,,,,,,,,,,2067.5708122998476,None,,,,,,,,,,,,,,,,,,,,,,,,,,,,,,,,,,,,,,,,,,,,,,,,,,,,,,,,70ND,001,2023_May_03_1600,ExactRep-v3-final,2021.2.3,59.89372454685583,
,,,,5,0,5,0,,,,,,,,,,,,,,,,,,,,,,,,,,,,,,,,,,,,,,,,,,,,,,,,,,,,,,,,,2072.0752338999882,None,,,,,,,,,,,,,,,,,2070.0733428001404,None,,,,,,,,,,,,,,,,,,,,,,,,,,,,,,,,,,,,,,,,,,,,,,,,,,,,,,,,70ND,001,2023_May_03_1600,ExactRep-v3-final,2021.2.3,59.89372454685583,
,,,,6,0,6,0,,,,,,,,,,,,,,,,,,,,,,,,,,,,,,,,,,,,,,,,,,,,,,,,,,,,,,,,,2074.5777815999463,None,,,,,,,,,,,,,,,,,2072.5757341003045,None,,,,,,,,,,,,,,,,,,,,,,,,,,,,,,,,,,,,,,,,,,,,,,,,,,,,,,,,70ND,001,2023_May_03_1600,ExactRep-v3-final,2021.2.3,59.89372454685583,
,,,,7,0,7,0,,,,,,,,,,,,,,,,,,,,,,,,,,,,,,,,,,,,,,,,,,,,,,,,,,,,,,,,,2077.080240400508,None,,,,,,,,,,,,,,,,,2075.078129400499,None,,,,,,,,,,,,,,,,,,,,,,,,,,,,,,,,,,,,,,,,,,,,,,,,,,,,,,,,70ND,001,2023_May_03_1600,ExactRep-v3-final,2021.2.3,59.89372454685583,
,,,,8,0,8,0,,,,,,,,,,,,,,,,,,,,,,,,,,,,,,,,,,,,,,,,,,,,,,,,,,,,,,,,,2079.5827622003853,None,,,,,,,,,,,,,,,,,2077.580699699931,None,,,,,,,,,,,,,,,,,,,,,,,,,,,,,,,,,,,,,,,,,,,,,,,,,,,,,,,,70ND,001,2023_May_03_1600,ExactRep-v3-final,2021.2.3,59.89372454685583,
,,,,9,0,9,0,,,,,,,,,,,,,,,,,,,,,,,,,,,,,,,,,,,,,,,,,,,,,,,,,,,,,,,,,2082.0853534005582,None,,,,,,,,,,,,,,,,,2080.0830305004492,None,,,,,,,,,,,,,,,,,,,,,,,,,,,,,,,,,,,,,,,,,,,,,,,,,,,,,,,,70ND,001,2023_May_03_1600,ExactRep-v3-final,2021.2.3,59.89372454685583,
,,,,10,0,10,0,,,,,,,,,,,,,,,,,,,,,,,,,,,,,,,,,,,,,,,,,,,,,,,,,,,,,,,,,2084.5877883005887,None,,,,,,,,,,,,,,,,,2082.5857629003003,None,,,,,,,,,,,,,,,,,,,,,,,,,,,,,,,,,,,,,,,,,,,,,,,,,,,,,,,,70ND,001,2023_May_03_1600,ExactRep-v3-final,2021.2.3,59.89372454685583,
,,,,11,0,11,0,,,,,,,,,,,,,,,,,,,,,,,,,,,,,,,,,,,,,,,,,,,,,,,,,,,,,,,,,2087.090232499875,None,,,,,,,,,,,,,,,,,2085.0882672006264,None,,,,,,,,,,,,,,,,,,,,,,,,,,,,,,,,,,,,,,,,,,,,,,,,,,,,,,,,70ND,001,2023_May_03_1600,ExactRep-v3-final,2021.2.3,59.89372454685583,
,,,,12,0,12,0,,,,,,,,,,,,,,,,,,,,,,,,,,,,,,,,,,,,,,,,,,,,,,,,,,,,,,,,,2089.592795100063,None,,,,,,,,,,,,,,,,,2087.5907672997564,None,,,,,,,,,,,,,,,,,,,,,,,,,,,,,,,,,,,,,,,,,,,,,,,,,,,,,,,,70ND,001,2023_May_03_1600,ExactRep-v3-final,2021.2.3,59.89372454685583,
,,,,13,0,13,0,,,,,,,,,,,,,,,,,,,,,,,,,,,,,,,,,,,,,,,,,,,,,,,,,,,,,,,,,2092.095261200331,None,,,,,,,,,,,,,,,,,2090.093279500492,None,,,,,,,,,,,,,,,,,,,,,,,,,,,,,,,,,,,,,,,,,,,,,,,,,,,,,,,,70ND,001,2023_May_03_1600,ExactRep-v3-final,2021.2.3,59.89372454685583,
,,,,14,0,14,0,,,,,,,,,,,,,,,,,,,,,,,,,,,,,,,,,,,,,,,,,,,,,,,,,,,,,,,,,2094.597819100134,None,,,,,,,,,,,,,,,,,2092.595971200615,None,,,,,,,,,,,,,,,,,,,,,,,,,,,,,,,,,,,,,,,,,,,,,,,,,,,,,,,,70ND,001,2023_May_03_1600,ExactRep-v3-final,2021.2.3,59.89372454685583,
,,,,,,,,,,,,,,,,,,,,,,,,,,,,,,,,,,,,,,,,,,,,,,,,,,,,,,,,,,,,,,,,,,,,,,,,,,,,,,,,,,,,space,22.913974900729954,2105.2254319004714,None,,,,,,,,,,,,,,,,,,,,,,,,,,,,,,,,,,,,,,,,,,,,,,,,,,,,70ND,001,2023_May_03_1600,ExactRep-v3-final,2021.2.3,59.89372454685583,
,,,,,,,,0,0,0,0,,,,,,,,,,,,,,,,,,,,,,,,,,,,,,,,,,,,,,,,,,,,,,,,,,,,,2130.249943600036,None,,,,,,,,,,,,,,,,,,,,,,,2095.2662807004526,None,2095.2662807004526,None,2095.2662807004526,None,2095.2662807004526,None,2095.2662807004526,None,2095.2662807004526,None,soil,105,1,aloud,blue,2128.239346300252,None,None,2128.239346300252,None,,,,,,,,,,,,,,,,,,,,,,,,,,,,,,70ND,001,2023_May_03_1600,ExactRep-v3-final,2021.2.3,59.89372454685583,
,,,,,,,,1,0,1,0,,,,,,,,,,,,,,,,,,,,,,,,,,,,,,,,,,,,,,,,,,,,,,,,,,,,,2132.769080700353,None,,,,,,,,,,,,,,,,,,,,,,,,,,,,,,,,,,,temple,92,2,aloud,blue,2130.754391600378,None,None,2130.754391600378,None,,,,,,,,,,,,,,,,,,,,,,,,,,,,,,70ND,001,2023_May_03_1600,ExactRep-v3-final,2021.2.3,59.89372454685583,
,,,,,,,,2,0,2,0,,,,,,,,,,,,,,,,,,,,,,,,,,,,,,,,,,,,,,,,,,,,,,,,,,,,,2135.271622000262,None,,,,,,,,,,,,,,,,,,,,,,,,,,,,,,,,,,,brain,28,3,sing,red,2133.269624000415,None,None,2133.269624000415,None,,,,,,,,,,,,,,,,,,,,,,,,,,,,,,70ND,001,2023_May_03_1600,ExactRep-v3-final,2021.2.3,59.89372454685583,
,,,,,,,,3,0,3,0,,,,,,,,,,,,,,,,,,,,,,,,,,,,,,,,,,,,,,,,,,,,,,,,,,,,,2137.7909118998796,None,,,,,,,,,,,,,,,,,,,,,,,,,,,,,,,,,,,window,53,4,silent,white,2135.7822922002524,None,None,2135.7822922002524,None,,,,,,,,,,,,,,,,,,,,,,,,,,,,,,70ND,001,2023_May_03_1600,ExactRep-v3-final,2021.2.3,59.89372454685583,
,,,,,,,,4,0,4,0,,,,,,,,,,,,,,,,,,,,,,,,,,,,,,,,,,,,,,,,,,,,,,,,,,,,,2140.3101906999946,None,,,,,,,,,,,,,,,,,,,,,,,,,,,,,,,,,,,lake,69,5,silent,white,2138.294774300419,None,None,2138.294774300419,None,,,,,,,,,,,,,,,,,,,,,,,,,,,,,,70ND,001,2023_May_03_1600,ExactRep-v3-final,2021.2.3,59.89372454685583,
,,,,,,,,5,0,5,0,,,,,,,,,,,,,,,,,,,,,,,,,,,,,,,,,,,,,,,,,,,,,,,,,,,,,2142.8293539006263,None,,,,,,,,,,,,,,,,,,,,,,,,,,,,,,,,,,,anger,21,6,sing,red,2140.815802199766,None,None,2140.815802199766,None,,,,,,,,,,,,,,,,,,,,,,,,,,,,,,70ND,001,2023_May_03_1600,ExactRep-v3-final,2021.2.3,59.89372454685583,
,,,,,,,,6,0,6,0,,,,,,,,,,,,,,,,,,,,,,,,,,,,,,,,,,,,,,,,,,,,,,,,,,,,,2145.348272100091,None,,,,,,,,,,,,,,,,,,,,,,,,,,,,,,,,,,,heaven,119,7,aloud,blue,2143.3385049002245,None,None,2143.3385049002245,None,,,,,,,,,,,,,,,,,,,,,,,,,,,,,,70ND,001,2023_May_03_1600,ExactRep-v3-final,2021.2.3,59.89372454685583,
,,,,,,,,7,0,7,0,,,,,,,,,,,,,,,,,,,,,,,,,,,,,,,,,,,,,,,,,,,,,,,,,,,,,2147.851021000184,None,,,,,,,,,,,,,,,,,,,,,,,,,,,,,,,,,,,metal,110,8,aloud,blue,2145.8517597001046,None,None,2145.8517597001046,None,,,,,,,,,,,,,,,,,,,,,,,,,,,,,,70ND,001,2023_May_03_1600,ExactRep-v3-final,2021.2.3,59.89372454685583,
,,,,,,,,8,0,8,0,,,,,,,,,,,,,,,,,,,,,,,,,,,,,,,,,,,,,,,,,,,,,,,,,,,,,2150.353353800252,None,,,,,,,,,,,,,,,,,,,,,,,,,,,,,,,,,,,wheat,47,9,silent,white,2148.353572400287,None,None,2148.353572400287,None,,,,,,,,,,,,,,,,,,,,,,,,,,,,,,70ND,001,2023_May_03_1600,ExactRep-v3-final,2021.2.3,59.89372454685583,
,,,,,,,,9,0,9,0,,,,,,,,,,,,,,,,,,,,,,,,,,,,,,,,,,,,,,,,,,,,,,,,,,,,,2152.8725295998156,None,,,,,,,,,,,,,,,,,,,,,,,,,,,,,,,,,,,doctor,34,10,sing,red,2150.8593917004764,None,None,2150.8593917004764,None,,,,,,,,,,,,,,,,,,,,,,,,,,,,,,70ND,001,2023_May_03_1600,ExactRep-v3-final,2021.2.3,59.89372454685583,
,,,,,,,,10,0,10,0,,,,,,,,,,,,,,,,,,,,,,,,,,,,,,,,,,,,,,,,,,,,,,,,,,,,,2155.391696699895,None,,,,,,,,,,,,,,,,,,,,,,,,,,,,,,,,,,,opinion,106,11,aloud,blue,2153.3799346005544,None,None,2153.3799346005544,None,,,,,,,,,,,,,,,,,,,,,,,,,,,,,,70ND,001,2023_May_03_1600,ExactRep-v3-final,2021.2.3,59.89372454685583,
,,,,,,,,11,0,11,0,,,,,,,,,,,,,,,,,,,,,,,,,,,,,,,,,,,,,,,,,,,,,,,,,,,,,2157.894179600291,None,,,,,,,,,,,,,,,,,,,,,,,,,,,,,,,,,,,nail,30,12,sing,red,2155.892265100032,None,None,2155.892265100032,None,,,,,,,,,,,,,,,,,,,,,,,,,,,,,,70ND,001,2023_May_03_1600,ExactRep-v3-final,2021.2.3,59.89372454685583,
,,,,,,,,12,0,12,0,,,,,,,,,,,,,,,,,,,,,,,,,,,,,,,,,,,,,,,,,,,,,,,,,,,,,2160.413399800658,None,,,,,,,,,,,,,,,,,,,,,,,,,,,,,,,,,,,rod,17,13,sing,red,2158.4005105998367,None,None,2158.4005105998367,None,,,,,,,,,,,,,,,,,,,,,,,,,,,,,,70ND,001,2023_May_03_1600,ExactRep-v3-final,2021.2.3,59.89372454685583,
,,,,,,,,13,0,13,0,,,,,,,,,,,,,,,,,,,,,,,,,,,,,,,,,,,,,,,,,,,,,,,,,,,,,2162.9327592998743,None,,,,,,,,,,,,,,,,,,,,,,,,,,,,,,,,,,,ticket,94,14,aloud,blue,2160.918507100083,None,None,2160.918507100083,None,,,,,,,,,,,,,,,,,,,,,,,,,,,,,,70ND,001,2023_May_03_1600,ExactRep-v3-final,2021.2.3,59.89372454685583,
,,,,,,,,14,0,14,0,,,,,,,,,,,,,,,,,,,,,,,,,,,,,,,,,,,,,,,,,,,,,,,,,,,,,2165.4350923001766,None,,,,,,,,,,,,,,,,,,,,,,,,,,,,,,,,,,,science,59,15,silent,white,2163.4355600997806,None,None,2163.4355600997806,None,,,,,,,,,,,,,,,,,,,,,,,,,,,,,,70ND,001,2023_May_03_1600,ExactRep-v3-final,2021.2.3,59.89372454685583,
,,,,,,,,15,0,15,0,,,,,,,,,,,,,,,,,,,,,,,,,,,,,,,,,,,,,,,,,,,,,,,,,,,,,2167.9378427006304,None,,,,,,,,,,,,,,,,,,,,,,,,,,,,,,,,,,,village,86,16,aloud,blue,2165.938508500345,None,None,2165.938508500345,None,,,,,,,,,,,,,,,,,,,,,,,,,,,,,,70ND,001,2023_May_03_1600,ExactRep-v3-final,2021.2.3,59.89372454685583,
,,,,,,,,16,0,16,0,,,,,,,,,,,,,,,,,,,,,,,,,,,,,,,,,,,,,,,,,,,,,,,,,,,,,2170.4569314997643,None,,,,,,,,,,,,,,,,,,,,,,,,,,,,,,,,,,,deed,16,17,sing,red,2168.442997899838,None,None,2168.442997899838,None,,,,,,,,,,,,,,,,,,,,,,,,,,,,,,70ND,001,2023_May_03_1600,ExactRep-v3-final,2021.2.3,59.89372454685583,
,,,,,,,,17,0,17,0,,,,,,,,,,,,,,,,,,,,,,,,,,,,,,,,,,,,,,,,,,,,,,,,,,,,,2172.9591294005513,None,,,,,,,,,,,,,,,,,,,,,,,,,,,,,,,,,,,vision,45,18,silent,white,2170.9595651999116,None,None,2170.9595651999116,None,,,,,,,,,,,,,,,,,,,,,,,,,,,,,,70ND,001,2023_May_03_1600,ExactRep-v3-final,2021.2.3,59.89372454685583,
,,,,,,,,18,0,18,0,,,,,,,,,,,,,,,,,,,,,,,,,,,,,,,,,,,,,,,,,,,,,,,,,,,,,2175.4621312003583,None,,,,,,,,,,,,,,,,,,,,,,,,,,,,,,,,,,,spirit,111,19,aloud,blue,2173.459925400093,None,None,2173.459925400093,None,,,,,,,,,,,,,,,,,,,,,,,,,,,,,,70ND,001,2023_May_03_1600,ExactRep-v3-final,2021.2.3,59.89372454685583,
,,,,,,,,19,0,19,0,,,,,,,,,,,,,,,,,,,,,,,,,,,,,,,,,,,,,,,,,,,,,,,,,,,,,2177.9809387000278,None,,,,,,,,,,,,,,,,,,,,,,,,,,,,,,,,,,,girl,74,20,silent,white,2175.9667500006035,None,None,2175.9667500006035,None,,,,,,,,,,,,,,,,,,,,,,,,,,,,,,70ND,001,2023_May_03_1600,ExactRep-v3-final,2021.2.3,59.89372454685583,
,,,,,,,,20,0,20,0,,,,,,,,,,,,,,,,,,,,,,,,,,,,,,,,,,,,,,,,,,,,,,,,,,,,,2180.500231800601,None,,,,,,,,,,,,,,,,,,,,,,,,,,,,,,,,,,,origin,76,21,silent,white,2178.48945710063,None,None,2178.48945710063,None,,,,,,,,,,,,,,,,,,,,,,,,,,,,,,70ND,001,2023_May_03_1600,ExactRep-v3-final,2021.2.3,59.89372454685583,
,,,,,,,,21,0,21,0,,,,,,,,,,,,,,,,,,,,,,,,,,,,,,,,,,,,,,,,,,,,,,,,,,,,,2183.0027889003977,None,,,,,,,,,,,,,,,,,,,,,,,,,,,,,,,,,,,cattle,19,22,sing,red,2181.000684100203,None,None,2181.000684100203,None,,,,,,,,,,,,,,,,,,,,,,,,,,,,,,70ND,001,2023_May_03_1600,ExactRep-v3-final,2021.2.3,59.89372454685583,
,,,,,,,,22,0,22,0,,,,,,,,,,,,,,,,,,,,,,,,,,,,,,,,,,,,,,,,,,,,,,,,,,,,,2185.505177900195,None,,,,,,,,,,,,,,,,,,,,,,,,,,,,,,,,,,,devil,24,23,sing,red,2183.503211000003,None,None,2183.503211000003,None,,,,,,,,,,,,,,,,,,,,,,,,,,,,,,70ND,001,2023_May_03_1600,ExactRep-v3-final,2021.2.3,59.89372454685583,
,,,,,,,,23,0,23,0,,,,,,,,,,,,,,,,,,,,,,,,,,,,,,,,,,,,,,,,,,,,,,,,,,,,,2188.0244169998914,None,,,,,,,,,,,,,,,,,,,,,,,,,,,,,,,,,,,judge,42,24,silent,white,2186.0205402998254,None,None,2186.0205402998254,None,,,,,,,,,,,,,,,,,,,,,,,,,,,,,,70ND,001,2023_May_03_1600,ExactRep-v3-final,2021.2.3,59.89372454685583,
,,,,,,,,24,0,24,0,,,,,,,,,,,,,,,,,,,,,,,,,,,,,,,,,,,,,,,,,,,,,,,,,,,,,2190.543558999896,None,,,,,,,,,,,,,,,,,,,,,,,,,,,,,,,,,,,excuse,41,25,silent,white,2188.5340076005086,None,None,2188.5340076005086,None,,,,,,,,,,,,,,,,,,,,,,,,,,,,,,70ND,001,2023_May_03_1600,ExactRep-v3-final,2021.2.3,59.89372454685583,
,,,,,,,,25,0,25,0,,,,,,,,,,,,,,,,,,,,,,,,,,,,,,,,,,,,,,,,,,,,,,,,,,,,,2193.062706700526,None,,,,,,,,,,,,,,,,,,,,,,,,,,,,,,,,,,,safety,25,26,sing,red,2191.048158700578,None,None,2191.048158700578,None,,,,,,,,,,,,,,,,,,,,,,,,,,,,,,70ND,001,2023_May_03_1600,ExactRep-v3-final,2021.2.3,59.89372454685583,
,,,,,,,,26,0,26,0,,,,,,,,,,,,,,,,,,,,,,,,,,,,,,,,,,,,,,,,,,,,,,,,,,,,,2195.5652854004875,None,,,,,,,,,,,,,,,,,,,,,,,,,,,,,,,,,,,winter,26,27,sing,red,2193.563259700313,None,None,2193.563259700313,None,,,,,,,,,,,,,,,,,,,,,,,,,,,,,,70ND,001,2023_May_03_1600,ExactRep-v3-final,2021.2.3,59.89372454685583,
,,,,,,,,27,0,27,0,,,,,,,,,,,,,,,,,,,,,,,,,,,,,,,,,,,,,,,,,,,,,,,,,,,,,2198.0679453006014,None,,,,,,,,,,,,,,,,,,,,,,,,,,,,,,,,,,,murder,116,28,aloud,blue,2196.0676091006026,None,None,2196.0676091006026,None,,,,,,,,,,,,,,,,,,,,,,,,,,,,,,70ND,001,2023_May_03_1600,ExactRep-v3-final,2021.2.3,59.89372454685583,
,,,,,,,,28,0,28,0,,,,,,,,,,,,,,,,,,,,,,,,,,,,,,,,,,,,,,,,,,,,,,,,,,,,,2200.5704762004316,None,,,,,,,,,,,,,,,,,,,,,,,,,,,,,,,,,,,moral,99,29,aloud,blue,2198.5704124001786,None,None,2198.5704124001786,None,,,,,,,,,,,,,,,,,,,,,,,,,,,,,,70ND,001,2023_May_03_1600,ExactRep-v3-final,2021.2.3,59.89372454685583,
,,,,,,,,29,0,29,0,,,,,,,,,,,,,,,,,,,,,,,,,,,,,,,,,,,,,,,,,,,,,,,,,,,,,2203.0896107004955,None,,,,,,,,,,,,,,,,,,,,,,,,,,,,,,,,,,,gift,43,30,silent,white,2201.0820006998256,None,None,2201.0820006998256,None,,,,,,,,,,,,,,,,,,,,,,,,,,,,,,70ND,001,2023_May_03_1600,ExactRep-v3-final,2021.2.3,59.89372454685583,
,,,,,,,,30,0,30,0,,,,,,,,,,,,,,,,,,,,,,,,,,,,,,,,,,,,,,,,,,,,,,,,,,,,,2205.608798100613,None,,,,,,,,,,,,,,,,,,,,,,,,,,,,,,,,,,,grief,88,31,aloud,blue,2203.5951634999365,None,None,2203.5951634999365,None,,,,,,,,,,,,,,,,,,,,,,,,,,,,,,70ND,001,2023_May_03_1600,ExactRep-v3-final,2021.2.3,59.89372454685583,
,,,,,,,,31,0,31,0,,,,,,,,,,,,,,,,,,,,,,,,,,,,,,,,,,,,,,,,,,,,,,,,,,,,,2208.111351300031,None,,,,,,,,,,,,,,,,,,,,,,,,,,,,,,,,,,,amount,49,32,silent,white,2206.1091478001326,None,None,2206.1091478001326,None,,,,,,,,,,,,,,,,,,,,,,,,,,,,,,70ND,001,2023_May_03_1600,ExactRep-v3-final,2021.2.3,59.89372454685583,
,,,,,,,,32,0,32,0,,,,,,,,,,,,,,,,,,,,,,,,,,,,,,,,,,,,,,,,,,,,,,,,,,,,,2210.6304948003963,None,,,,,,,,,,,,,,,,,,,,,,,,,,,,,,,,,,,teacher,8,33,sing,red,2208.6162902005017,None,None,2208.6162902005017,None,,,,,,,,,,,,,,,,,,,,,,,,,,,,,,70ND,001,2023_May_03_1600,ExactRep-v3-final,2021.2.3,59.89372454685583,
,,,,,,,,33,0,33,0,,,,,,,,,,,,,,,,,,,,,,,,,,,,,,,,,,,,,,,,,,,,,,,,,,,,,2213.1329674003646,None,,,,,,,,,,,,,,,,,,,,,,,,,,,,,,,,,,,lad,84,34,aloud,blue,2211.131986800581,None,None,2211.131986800581,None,,,,,,,,,,,,,,,,,,,,,,,,,,,,,,70ND,001,2023_May_03_1600,ExactRep-v3-final,2021.2.3,59.89372454685583,
,,,,,,,,34,0,34,0,,,,,,,,,,,,,,,,,,,,,,,,,,,,,,,,,,,,,,,,,,,,,,,,,,,,,2215.635451500304,None,,,,,,,,,,,,,,,,,,,,,,,,,,,,,,,,,,,tool,18,35,sing,red,2213.63518320024,None,None,2213.63518320024,None,,,,,,,,,,,,,,,,,,,,,,,,,,,,,,70ND,001,2023_May_03_1600,ExactRep-v3-final,2021.2.3,59.89372454685583,
,,,,,,,,35,0,35,0,,,,,,,,,,,,,,,,,,,,,,,,,,,,,,,,,,,,,,,,,,,,,,,,,,,,,2218.1380197005346,None,,,,,,,,,,,,,,,,,,,,,,,,,,,,,,,,,,,storm,58,36,silent,white,2216.1380972005427,None,None,2216.1380972005427,None,,,,,,,,,,,,,,,,,,,,,,,,,,,,,,70ND,001,2023_May_03_1600,ExactRep-v3-final,2021.2.3,59.89372454685583,
,,,,,,,,36,0,36,0,,,,,,,,,,,,,,,,,,,,,,,,,,,,,,,,,,,,,,,,,,,,,,,,,,,,,2220.6572361001745,None,,,,,,,,,,,,,,,,,,,,,,,,,,,,,,,,,,,hotel,36,37,sing,red,2218.641676399857,None,None,2218.641676399857,None,,,,,,,,,,,,,,,,,,,,,,,,,,,,,,70ND,001,2023_May_03_1600,ExactRep-v3-final,2021.2.3,59.89372454685583,
,,,,,,,,37,0,37,0,,,,,,,,,,,,,,,,,,,,,,,,,,,,,,,,,,,,,,,,,,,,,,,,,,,,,2223.159813299775,None,,,,,,,,,,,,,,,,,,,,,,,,,,,,,,,,,,,hall,79,38,sing,red,2221.159770300612,None,None,2221.159770300612,None,,,,,,,,,,,,,,,,,,,,,,,,,,,,,,70ND,001,2023_May_03_1600,ExactRep-v3-final,2021.2.3,59.89372454685583,
,,,,,,,,38,0,38,0,,,,,,,,,,,,,,,,,,,,,,,,,,,,,,,,,,,,,,,,,,,,,,,,,,,,,2225.678678800352,None,,,,,,,,,,,,,,,,,,,,,,,,,,,,,,,,,,,coast,31,39,sing,red,2223.663098799996,None,None,2223.663098799996,None,,,,,,,,,,,,,,,,,,,,,,,,,,,,,,70ND,001,2023_May_03_1600,ExactRep-v3-final,2021.2.3,59.89372454685583,
,,,,,,,,39,0,39,0,,,,,,,,,,,,,,,,,,,,,,,,,,,,,,,,,,,,,,,,,,,,,,,,,,,,,2228.1814080001786,None,,,,,,,,,,,,,,,,,,,,,,,,,,,,,,,,,,,air,38,40,sing,red,2226.1791914999485,None,None,2226.1791914999485,None,,,,,,,,,,,,,,,,,,,,,,,,,,,,,,70ND,001,2023_May_03_1600,ExactRep-v3-final,2021.2.3,59.89372454685583,
,,,,,,,,40,0,40,0,,,,,,,,,,,,,,,,,,,,,,,,,,,,,,,,,,,,,,,,,,,,,,,,,,,,,2230.700712900609,None,,,,,,,,,,,,,,,,,,,,,,,,,,,,,,,,,,,answer,100,41,aloud,blue,2228.6861770004034,None,None,2228.6861770004034,None,,,,,,,,,,,,,,,,,,,,,,,,,,,,,,70ND,001,2023_May_03_1600,ExactRep-v3-final,2021.2.3,59.89372454685583,
,,,,,,,,41,0,41,0,,,,,,,,,,,,,,,,,,,,,,,,,,,,,,,,,,,,,,,,,,,,,,,,,,,,,2233.219754099846,None,,,,,,,,,,,,,,,,,,,,,,,,,,,,,,,,,,,river,11,42,sing,red,2231.2099242005497,None,None,2231.2099242005497,None,,,,,,,,,,,,,,,,,,,,,,,,,,,,,,70ND,001,2023_May_03_1600,ExactRep-v3-final,2021.2.3,59.89372454685583,
,,,,,,,,42,0,42,0,,,,,,,,,,,,,,,,,,,,,,,,,,,,,,,,,,,,,,,,,,,,,,,,,,,,,2235.722098399885,None,,,,,,,,,,,,,,,,,,,,,,,,,,,,,,,,,,,shore,67,43,silent,white,2233.7229427006096,None,None,2233.7229427006096,None,,,,,,,,,,,,,,,,,,,,,,,,,,,,,,70ND,001,2023_May_03_1600,ExactRep-v3-final,2021.2.3,59.89372454685583,
,,,,,,,,43,0,43,0,,,,,,,,,,,,,,,,,,,,,,,,,,,,,,,,,,,,,,,,,,,,,,,,,,,,,2238.2245618999004,None,,,,,,,,,,,,,,,,,,,,,,,,,,,,,,,,,,,chance,37,44,sing,red,2236.2225889004767,None,None,2236.2225889004767,None,,,,,,,,,,,,,,,,,,,,,,,,,,,,,,70ND,001,2023_May_03_1600,ExactRep-v3-final,2021.2.3,59.89372454685583,
,,,,,,,,44,0,44,0,,,,,,,,,,,,,,,,,,,,,,,,,,,,,,,,,,,,,,,,,,,,,,,,,,,,,2240.7271001003683,None,,,,,,,,,,,,,,,,,,,,,,,,,,,,,,,,,,,trouble,10,45,sing,red,2238.725577400066,None,None,2238.725577400066,None,,,,,,,,,,,,,,,,,,,,,,,,,,,,,,70ND,001,2023_May_03_1600,ExactRep-v3-final,2021.2.3,59.89372454685583,
,,,,,,,,45,0,45,0,,,,,,,,,,,,,,,,,,,,,,,,,,,,,,,,,,,,,,,,,,,,,,,,,,,,,2243.2296272004023,None,,,,,,,,,,,,,,,,,,,,,,,,,,,,,,,,,,,shame,73,46,silent,white,2241.22893919982,None,None,2241.22893919982,None,,,,,,,,,,,,,,,,,,,,,,,,,,,,,,70ND,001,2023_May_03_1600,ExactRep-v3-final,2021.2.3,59.89372454685583,
,,,,,,,,46,0,46,0,,,,,,,,,,,,,,,,,,,,,,,,,,,,,,,,,,,,,,,,,,,,,,,,,,,,,2245.7488783998415,None,,,,,,,,,,,,,,,,,,,,,,,,,,,,,,,,,,,chair,52,47,silent,white,2243.737170400098,None,None,2243.737170400098,None,,,,,,,,,,,,,,,,,,,,,,,,,,,,,,70ND,001,2023_May_03_1600,ExactRep-v3-final,2021.2.3,59.89372454685583,
,,,,,,,,47,0,47,0,,,,,,,,,,,,,,,,,,,,,,,,,,,,,,,,,,,,,,,,,,,,,,,,,,,,,2248.251313900575,None,,,,,,,,,,,,,,,,,,,,,,,,,,,,,,,,,,,leader,98,48,aloud,blue,2246.2492500003427,None,None,2246.2492500003427,None,,,,,,,,,,,,,,,,,,,,,,,,,,,,,,70ND,001,2023_May_03_1600,ExactRep-v3-final,2021.2.3,59.89372454685583,
,,,,,,,,48,0,48,0,,,,,,,,,,,,,,,,,,,,,,,,,,,,,,,,,,,,,,,,,,,,,,,,,,,,,2250.7706203004345,None,,,,,,,,,,,,,,,,,,,,,,,,,,,,,,,,,,,lord,13,49,sing,red,2248.759387699887,None,None,2248.759387699887,None,,,,,,,,,,,,,,,,,,,,,,,,,,,,,,70ND,001,2023_May_03_1600,ExactRep-v3-final,2021.2.3,59.89372454685583,
,,,,,,,,49,0,49,0,,,,,,,,,,,,,,,,,,,,,,,,,,,,,,,,,,,,,,,,,,,,,,,,,,,,,2253.273114800453,None,,,,,,,,,,,,,,,,,,,,,,,,,,,,,,,,,,,humour,27,50,sing,red,2251.271763499826,None,None,2251.271763499826,None,,,,,,,,,,,,,,,,,,,,,,,,,,,,,,70ND,001,2023_May_03_1600,ExactRep-v3-final,2021.2.3,59.89372454685583,
,,,,,,,,50,0,50,0,,,,,,,,,,,,,,,,,,,,,,,,,,,,,,,,,,,,,,,,,,,,,,,,,,,,,2255.7923106998205,None,,,,,,,,,,,,,,,,,,,,,,,,,,,,,,,,,,,flower,2,51,sing,red,2253.776525599882,None,None,2253.776525599882,None,,,,,,,,,,,,,,,,,,,,,,,,,,,,,,70ND,001,2023_May_03_1600,ExactRep-v3-final,2021.2.3,59.89372454685583,
,,,,,,,,51,0,51,0,,,,,,,,,,,,,,,,,,,,,,,,,,,,,,,,,,,,,,,,,,,,,,,,,,,,,2258.294892400503,None,,,,,,,,,,,,,,,,,,,,,,,,,,,,,,,,,,,salary,101,52,aloud,blue,2256.2927922997624,None,None,2256.2927922997624,None,,,,,,,,,,,,,,,,,,,,,,,,,,,,,,70ND,001,2023_May_03_1600,ExactRep-v3-final,2021.2.3,59.89372454685583,
,,,,,,,,52,0,52,0,,,,,,,,,,,,,,,,,,,,,,,,,,,,,,,,,,,,,,,,,,,,,,,,,,,,,2260.7973199002445,None,,,,,,,,,,,,,,,,,,,,,,,,,,,,,,,,,,,string,113,53,aloud,blue,2258.797937400639,None,None,2258.797937400639,None,,,,,,,,,,,,,,,,,,,,,,,,,,,,,,70ND,001,2023_May_03_1600,ExactRep-v3-final,2021.2.3,59.89372454685583,
,,,,,,,,53,0,53,0,,,,,,,,,,,,,,,,,,,,,,,,,,,,,,,,,,,,,,,,,,,,,,,,,,,,,2263.3165880003944,None,,,,,,,,,,,,,,,,,,,,,,,,,,,,,,,,,,,forest,66,54,silent,white,2261.301161999814,None,None,2261.301161999814,None,,,,,,,,,,,,,,,,,,,,,,,,,,,,,,70ND,001,2023_May_03_1600,ExactRep-v3-final,2021.2.3,59.89372454685583,
,,,,,,,,54,0,54,0,,,,,,,,,,,,,,,,,,,,,,,,,,,,,,,,,,,,,,,,,,,,,,,,,,,,,2265.835502100177,None,,,,,,,,,,,,,,,,,,,,,,,,,,,,,,,,,,,cat,82,55,aloud,blue,2263.8207403002307,None,None,2263.8207403002307,None,,,,,,,,,,,,,,,,,,,,,,,,,,,,,,70ND,001,2023_May_03_1600,ExactRep-v3-final,2021.2.3,59.89372454685583,
,,,,,,,,55,0,55,0,,,,,,,,,,,,,,,,,,,,,,,,,,,,,,,,,,,,,,,,,,,,,,,,,,,,,2268.3548375004902,None,,,,,,,,,,,,,,,,,,,,,,,,,,,,,,,,,,,artist,104,56,aloud,blue,2266.3392524998635,None,None,2266.3392524998635,None,,,,,,,,,,,,,,,,,,,,,,,,,,,,,,70ND,001,2023_May_03_1600,ExactRep-v3-final,2021.2.3,59.89372454685583,
,,,,,,,,56,0,56,0,,,,,,,,,,,,,,,,,,,,,,,,,,,,,,,,,,,,,,,,,,,,,,,,,,,,,2270.8573032002896,None,,,,,,,,,,,,,,,,,,,,,,,,,,,,,,,,,,,insect,64,57,silent,white,2268.8553582001477,None,None,2268.8553582001477,None,,,,,,,,,,,,,,,,,,,,,,,,,,,,,,70ND,001,2023_May_03_1600,ExactRep-v3-final,2021.2.3,59.89372454685583,
,,,,,,,,57,0,57,0,,,,,,,,,,,,,,,,,,,,,,,,,,,,,,,,,,,,,,,,,,,,,,,,,,,,,2273.3598255999386,None,,,,,,,,,,,,,,,,,,,,,,,,,,,,,,,,,,,plain,39,58,silent,white,2271.359218900092,None,None,2271.359218900092,None,,,,,,,,,,,,,,,,,,,,,,,,,,,,,,70ND,001,2023_May_03_1600,ExactRep-v3-final,2021.2.3,59.89372454685583,
,,,,,,,,58,0,58,0,,,,,,,,,,,,,,,,,,,,,,,,,,,,,,,,,,,,,,,,,,,,,,,,,,,,,2275.862406800501,None,,,,,,,,,,,,,,,,,,,,,,,,,,,,,,,,,,,crime,87,59,aloud,blue,2273.863407500088,None,None,2273.863407500088,None,,,,,,,,,,,,,,,,,,,,,,,,,,,,,,70ND,001,2023_May_03_1600,ExactRep-v3-final,2021.2.3,59.89372454685583,
,,,,,,,,59,0,59,0,,,,,,,,,,,,,,,,,,,,,,,,,,,,,,,,,,,,,,,,,,,,,,,,,,,,,2278.3648202000186,None,,,,,,,,,,,,,,,,,,,,,,,,,,,,,,,,,,,justice,6,60,sing,red,2276.364663899876,None,None,2276.364663899876,None,,,,,,,,,,,,,,,,,,,,,,,,,,,,,,70ND,001,2023_May_03_1600,ExactRep-v3-final,2021.2.3,59.89372454685583,
,,,,,,,,60,0,60,0,,,,,,,,,,,,,,,,,,,,,,,,,,,,,,,,,,,,,,,,,,,,,,,,,,,,,2280.884074999951,None,,,,,,,,,,,,,,,,,,,,,,,,,,,,,,,,,,,priest,95,61,aloud,blue,2278.8737182002515,None,None,2278.8737182002515,None,,,,,,,,,,,,,,,,,,,,,,,,,,,,,,70ND,001,2023_May_03_1600,ExactRep-v3-final,2021.2.3,59.89372454685583,
,,,,,,,,61,0,61,0,,,,,,,,,,,,,,,,,,,,,,,,,,,,,,,,,,,,,,,,,,,,,,,,,,,,,2283.3866566000506,None,,,,,,,,,,,,,,,,,,,,,,,,,,,,,,,,,,,bottle,90,62,aloud,blue,2281.3875722000375,None,None,2281.3875722000375,None,,,,,,,,,,,,,,,,,,,,,,,,,,,,,,70ND,001,2023_May_03_1600,ExactRep-v3-final,2021.2.3,59.89372454685583,
,,,,,,,,62,0,62,0,,,,,,,,,,,,,,,,,,,,,,,,,,,,,,,,,,,,,,,,,,,,,,,,,,,,,2285.889172900468,None,,,,,,,,,,,,,,,,,,,,,,,,,,,,,,,,,,,hide,91,63,aloud,blue,2283.8893838999793,None,None,2283.8893838999793,None,,,,,,,,,,,,,,,,,,,,,,,,,,,,,,70ND,001,2023_May_03_1600,ExactRep-v3-final,2021.2.3,59.89372454685583,
,,,,,,,,63,0,63,0,,,,,,,,,,,,,,,,,,,,,,,,,,,,,,,,,,,,,,,,,,,,,,,,,,,,,2288.391611999832,None,,,,,,,,,,,,,,,,,,,,,,,,,,,,,,,,,,,author,61,64,silent,white,2286.390904100612,None,None,2286.390904100612,None,,,,,,,,,,,,,,,,,,,,,,,,,,,,,,70ND,001,2023_May_03_1600,ExactRep-v3-final,2021.2.3,59.89372454685583,
,,,,,,,,64,0,64,0,,,,,,,,,,,,,,,,,,,,,,,,,,,,,,,,,,,,,,,,,,,,,,,,,,,,,2290.9107811003923,None,,,,,,,,,,,,,,,,,,,,,,,,,,,,,,,,,,,queen,51,65,silent,white,2288.9000347005203,None,None,2288.9000347005203,None,,,,,,,,,,,,,,,,,,,,,,,,,,,,,,70ND,001,2023_May_03_1600,ExactRep-v3-final,2021.2.3,59.89372454685583,
,,,,,,,,65,0,65,0,,,,,,,,,,,,,,,,,,,,,,,,,,,,,,,,,,,,,,,,,,,,,,,,,,,,,2293.4132571006194,None,,,,,,,,,,,,,,,,,,,,,,,,,,,,,,,,,,,water,7,66,sing,red,2291.412155699916,None,None,2291.412155699916,None,,,,,,,,,,,,,,,,,,,,,,,,,,,,,,70ND,001,2023_May_03_1600,ExactRep-v3-final,2021.2.3,59.89372454685583,
,,,,,,,,66,0,66,0,,,,,,,,,,,,,,,,,,,,,,,,,,,,,,,,,,,,,,,,,,,,,,,,,,,,,2295.932299300097,None,,,,,,,,,,,,,,,,,,,,,,,,,,,,,,,,,,,power,93,67,aloud,blue,2293.916972200386,None,None,2293.916972200386,None,,,,,,,,,,,,,,,,,,,,,,,,,,,,,,70ND,001,2023_May_03_1600,ExactRep-v3-final,2021.2.3,59.89372454685583,
,,,,,,,,67,0,67,0,,,,,,,,,,,,,,,,,,,,,,,,,,,,,,,,,,,,,,,,,,,,,,,,,,,,,2298.434835200198,None,,,,,,,,,,,,,,,,,,,,,,,,,,,,,,,,,,,apple,75,68,silent,white,2296.4327782001346,None,None,2296.4327782001346,None,,,,,,,,,,,,,,,,,,,,,,,,,,,,,,70ND,001,2023_May_03_1600,ExactRep-v3-final,2021.2.3,59.89372454685583,
,,,,,,,,68,0,68,0,,,,,,,,,,,,,,,,,,,,,,,,,,,,,,,,,,,,,,,,,,,,,,,,,,,,,2300.937472499907,None,,,,,,,,,,,,,,,,,,,,,,,,,,,,,,,,,,,prison,20,69,sing,red,2298.9372608000413,None,None,2298.9372608000413,None,,,,,,,,,,,,,,,,,,,,,,,,,,,,,,70ND,001,2023_May_03_1600,ExactRep-v3-final,2021.2.3,59.89372454685583,
,,,,,,,,69,0,69,0,,,,,,,,,,,,,,,,,,,,,,,,,,,,,,,,,,,,,,,,,,,,,,,,,,,,,2303.4566398002207,None,,,,,,,,,,,,,,,,,,,,,,,,,,,,,,,,,,,mother,50,70,silent,white,2301.4411709997803,None,None,2301.4411709997803,None,,,,,,,,,,,,,,,,,,,,,,,,,,,,,,70ND,001,2023_May_03_1600,ExactRep-v3-final,2021.2.3,59.89372454685583,
,,,,,,,,70,0,70,0,,,,,,,,,,,,,,,,,,,,,,,,,,,,,,,,,,,,,,,,,,,,,,,,,,,,,2305.959136799909,None,,,,,,,,,,,,,,,,,,,,,,,,,,,,,,,,,,,moment,62,71,silent,white,2303.9570233002305,None,None,2303.9570233002305,None,,,,,,,,,,,,,,,,,,,,,,,,,,,,,,70ND,001,2023_May_03_1600,ExactRep-v3-final,2021.2.3,59.89372454685583,
,,,,,,,,71,0,71,0,,,,,,,,,,,,,,,,,,,,,,,,,,,,,,,,,,,,,,,,,,,,,,,,,,,,,2308.4617039998993,None,,,,,,,,,,,,,,,,,,,,,,,,,,,,,,,,,,,palace,117,72,aloud,blue,2306.4613992003724,None,None,2306.4613992003724,None,,,,,,,,,,,,,,,,,,,,,,,,,,,,,,70ND,001,2023_May_03_1600,ExactRep-v3-final,2021.2.3,59.89372454685583,
,,,,,,,,72,0,72,0,,,,,,,,,,,,,,,,,,,,,,,,,,,,,,,,,,,,,,,,,,,,,,,,,,,,,2310.9639921998605,None,,,,,,,,,,,,,,,,,,,,,,,,,,,,,,,,,,,victory,68,73,silent,white,2308.9620168004185,None,None,2308.9620168004185,None,,,,,,,,,,,,,,,,,,,,,,,,,,,,,,70ND,001,2023_May_03_1600,ExactRep-v3-final,2021.2.3,59.89372454685583,
,,,,,,,,73,0,73,0,,,,,,,,,,,,,,,,,,,,,,,,,,,,,,,,,,,,,,,,,,,,,,,,,,,,,2313.4665246000513,None,,,,,,,,,,,,,,,,,,,,,,,,,,,,,,,,,,,steam,29,74,sing,red,2311.4650165997446,None,None,2311.4650165997446,None,,,,,,,,,,,,,,,,,,,,,,,,,,,,,,70ND,001,2023_May_03_1600,ExactRep-v3-final,2021.2.3,59.89372454685583,
,,,,,,,,74,0,74,0,,,,,,,,,,,,,,,,,,,,,,,,,,,,,,,,,,,,,,,,,,,,,,,,,,,,,2315.969231300056,None,,,,,,,,,,,,,,,,,,,,,,,,,,,,,,,,,,,green,63,75,silent,white,2313.9669053005055,None,None,2313.9669053005055,None,,,,,,,,,,,,,,,,,,,,,,,,,,,,,,70ND,001,2023_May_03_1600,ExactRep-v3-final,2021.2.3,59.89372454685583,
,,,,,,,,75,0,75,0,,,,,,,,,,,,,,,,,,,,,,,,,,,,,,,,,,,,,,,,,,,,,,,,,,,,,2318.488097799942,None,,,,,,,,,,,,,,,,,,,,,,,,,,,,,,,,,,,fun,71,76,silent,white,2316.4768078001216,None,None,2316.4768078001216,None,,,,,,,,,,,,,,,,,,,,,,,,,,,,,,70ND,001,2023_May_03_1600,ExactRep-v3-final,2021.2.3,59.89372454685583,
,,,,,,,,76,0,76,0,,,,,,,,,,,,,,,,,,,,,,,,,,,,,,,,,,,,,,,,,,,,,,,,,,,,,2320.9940244005993,None,,,,,,,,,,,,,,,,,,,,,,,,,,,,,,,,,,,picture,97,77,aloud,blue,2318.990578999743,None,None,2318.990578999743,None,,,,,,,,,,,,,,,,,,,,,,,,,,,,,,70ND,001,2023_May_03_1600,ExactRep-v3-final,2021.2.3,59.89372454685583,
,,,,,,,,77,0,77,0,,,,,,,,,,,,,,,,,,,,,,,,,,,,,,,,,,,,,,,,,,,,,,,,,,,,,2323.530358799733,None,,,,,,,,,,,,,,,,,,,,,,,,,,,,,,,,,,,product,0,78,sing,red,2321.512423399836,None,None,2321.512423399836,None,,,,,,,,,,,,,,,,,,,,,,,,,,,,,,70ND,001,2023_May_03_1600,ExactRep-v3-final,2021.2.3,59.89372454685583,
,,,,,,,,78,0,78,0,,,,,,,,,,,,,,,,,,,,,,,,,,,,,,,,,,,,,,,,,,,,,,,,,,,,,2326.0457105999812,None,,,,,,,,,,,,,,,,,,,,,,,,,,,,,,,,,,,book,23,79,sing,red,2324.0319183999673,None,None,2324.0319183999673,None,,,,,,,,,,,,,,,,,,,,,,,,,,,,,,70ND,001,2023_May_03_1600,ExactRep-v3-final,2021.2.3,59.89372454685583,
,,,,,,,,79,0,79,0,,,,,,,,,,,,,,,,,,,,,,,,,,,,,,,,,,,,,,,,,,,,,,,,,,,,,2328.5484158005565,None,,,,,,,,,,,,,,,,,,,,,,,,,,,,,,,,,,,freedom,80,80,aloud,blue,2326.5461685005575,None,None,2326.5461685005575,None,,,,,,,,,,,,,,,,,,,,,,,,,,,,,,70ND,001,2023_May_03_1600,ExactRep-v3-final,2021.2.3,59.89372454685583,
,,,,,,,,80,0,80,0,,,,,,,,,,,,,,,,,,,,,,,,,,,,,,,,,,,,,,,,,,,,,,,,,,,,,2331.0675597004592,None,,,,,,,,,,,,,,,,,,,,,,,,,,,,,,,,,,,boy,54,81,silent,white,2329.0567275006324,None,None,2329.0567275006324,None,,,,,,,,,,,,,,,,,,,,,,,,,,,,,,70ND,001,2023_May_03_1600,ExactRep-v3-final,2021.2.3,59.89372454685583,
,,,,,,,,81,0,81,0,,,,,,,,,,,,,,,,,,,,,,,,,,,,,,,,,,,,,,,,,,,,,,,,,,,,,2333.586517000571,None,,,,,,,,,,,,,,,,,,,,,,,,,,,,,,,,,,,pride,103,82,aloud,blue,2331.5727556999773,None,None,2331.5727556999773,None,,,,,,,,,,,,,,,,,,,,,,,,,,,,,,70ND,001,2023_May_03_1600,ExactRep-v3-final,2021.2.3,59.89372454685583,
,,,,,,,,82,0,82,0,,,,,,,,,,,,,,,,,,,,,,,,,,,,,,,,,,,,,,,,,,,,,,,,,,,,,2336.1061192005873,None,,,,,,,,,,,,,,,,,,,,,,,,,,,,,,,,,,,market,56,83,silent,white,2334.0941508999094,None,None,2334.0941508999094,None,,,,,,,,,,,,,,,,,,,,,,,,,,,,,,70ND,001,2023_May_03_1600,ExactRep-v3-final,2021.2.3,59.89372454685583,
,,,,,,,,83,0,83,0,,,,,,,,,,,,,,,,,,,,,,,,,,,,,,,,,,,,,,,,,,,,,,,,,,,,,2338.6081762006506,None,,,,,,,,,,,,,,,,,,,,,,,,,,,,,,,,,,,flag,83,84,aloud,blue,2336.6063560005277,None,None,2336.6063560005277,None,,,,,,,,,,,,,,,,,,,,,,,,,,,,,,70ND,001,2023_May_03_1600,ExactRep-v3-final,2021.2.3,59.89372454685583,
,,,,,,,,84,0,84,0,,,,,,,,,,,,,,,,,,,,,,,,,,,,,,,,,,,,,,,,,,,,,,,,,,,,,2341.1110887005925,None,,,,,,,,,,,,,,,,,,,,,,,,,,,,,,,,,,,lip,85,85,aloud,blue,2339.1091146003455,None,None,2339.1091146003455,None,,,,,,,,,,,,,,,,,,,,,,,,,,,,,,70ND,001,2023_May_03_1600,ExactRep-v3-final,2021.2.3,59.89372454685583,
,,,,,,,,85,0,85,0,,,,,,,,,,,,,,,,,,,,,,,,,,,,,,,,,,,,,,,,,,,,,,,,,,,,,2343.6300429003313,None,,,,,,,,,,,,,,,,,,,,,,,,,,,,,,,,,,,meadow,5,86,sing,red,2341.614901999943,None,None,2341.614901999943,None,,,,,,,,,,,,,,,,,,,,,,,,,,,,,,70ND,001,2023_May_03_1600,ExactRep-v3-final,2021.2.3,59.89372454685583,
,,,,,,,,86,0,86,0,,,,,,,,,,,,,,,,,,,,,,,,,,,,,,,,,,,,,,,,,,,,,,,,,,,,,2346.132677100599,None,,,,,,,,,,,,,,,,,,,,,,,,,,,,,,,,,,,diamond,102,87,aloud,blue,2344.1334202997386,None,None,2344.1334202997386,None,,,,,,,,,,,,,,,,,,,,,,,,,,,,,,70ND,001,2023_May_03_1600,ExactRep-v3-final,2021.2.3,59.89372454685583,
,,,,,,,,87,0,87,0,,,,,,,,,,,,,,,,,,,,,,,,,,,,,,,,,,,,,,,,,,,,,,,,,,,,,2348.635212100111,None,,,,,,,,,,,,,,,,,,,,,,,,,,,,,,,,,,,ability,114,88,aloud,blue,2346.636126600206,None,None,2346.636126600206,None,,,,,,,,,,,,,,,,,,,,,,,,,,,,,,70ND,001,2023_May_03_1600,ExactRep-v3-final,2021.2.3,59.89372454685583,
,,,,,,,,88,0,88,0,,,,,,,,,,,,,,,,,,,,,,,,,,,,,,,,,,,,,,,,,,,,,,,,,,,,,2351.137626799755,None,,,,,,,,,,,,,,,,,,,,,,,,,,,,,,,,,,,pole,14,89,sing,red,2349.137720500119,None,None,2349.137720500119,None,,,,,,,,,,,,,,,,,,,,,,,,,,,,,,70ND,001,2023_May_03_1600,ExactRep-v3-final,2021.2.3,59.89372454685583,
,,,,,,,,89,0,89,0,,,,,,,,,,,,,,,,,,,,,,,,,,,,,,,,,,,,,,,,,,,,,,,,,,,,,2353.640128900297,None,,,,,,,,,,,,,,,,,,,,,,,,,,,,,,,,,,,boulder,60,90,silent,white,2351.639851300046,None,None,2351.639851300046,None,,,,,,,,,,,,,,,,,,,,,,,,,,,,,,70ND,001,2023_May_03_1600,ExactRep-v3-final,2021.2.3,59.89372454685583,
,,,,,,,,90,0,90,0,,,,,,,,,,,,,,,,,,,,,,,,,,,,,,,,,,,,,,,,,,,,,,,,,,,,,2356.142660900019,None,,,,,,,,,,,,,,,,,,,,,,,,,,,,,,,,,,,silence,55,91,silent,white,2354.1404670998454,None,None,2354.1404670998454,None,,,,,,,,,,,,,,,,,,,,,,,,,,,,,,70ND,001,2023_May_03_1600,ExactRep-v3-final,2021.2.3,59.89372454685583,
,,,,,,,,91,0,91,0,,,,,,,,,,,,,,,,,,,,,,,,,,,,,,,,,,,,,,,,,,,,,,,,,,,,,2358.6617274004966,None,,,,,,,,,,,,,,,,,,,,,,,,,,,,,,,,,,,board,3,92,sing,red,2356.6473272005096,None,None,2356.6473272005096,None,,,,,,,,,,,,,,,,,,,,,,,,,,,,,,70ND,001,2023_May_03_1600,ExactRep-v3-final,2021.2.3,59.89372454685583,
,,,,,,,,92,0,92,0,,,,,,,,,,,,,,,,,,,,,,,,,,,,,,,,,,,,,,,,,,,,,,,,,,,,,2361.1810070006177,None,,,,,,,,,,,,,,,,,,,,,,,,,,,,,,,,,,,beast,89,93,aloud,blue,2359.169041399844,None,None,2359.169041399844,None,,,,,,,,,,,,,,,,,,,,,,,,,,,,,,70ND,001,2023_May_03_1600,ExactRep-v3-final,2021.2.3,59.89372454685583,
,,,,,,,,93,0,93,0,,,,,,,,,,,,,,,,,,,,,,,,,,,,,,,,,,,,,,,,,,,,,,,,,,,,,2363.6835144003853,None,,,,,,,,,,,,,,,,,,,,,,,,,,,,,,,,,,,time,72,94,silent,white,2361.6815176997334,None,None,2361.6815176997334,None,,,,,,,,,,,,,,,,,,,,,,,,,,,,,,70ND,001,2023_May_03_1600,ExactRep-v3-final,2021.2.3,59.89372454685583,
,,,,,,,,94,0,94,0,,,,,,,,,,,,,,,,,,,,,,,,,,,,,,,,,,,,,,,,,,,,,,,,,,,,,2366.2027593003586,None,,,,,,,,,,,,,,,,,,,,,,,,,,,,,,,,,,,square,44,95,silent,white,2364.192341799848,None,None,2364.192341799848,None,,,,,,,,,,,,,,,,,,,,,,,,,,,,,,70ND,001,2023_May_03_1600,ExactRep-v3-final,2021.2.3,59.89372454685583,
,,,,,,,,95,0,95,0,,,,,,,,,,,,,,,,,,,,,,,,,,,,,,,,,,,,,,,,,,,,,,,,,,,,,2368.7053070003167,None,,,,,,,,,,,,,,,,,,,,,,,,,,,,,,,,,,,earth,70,96,silent,white,2366.7031605998054,None,None,2366.7031605998054,None,,,,,,,,,,,,,,,,,,,,,,,,,,,,,,70ND,001,2023_May_03_1600,ExactRep-v3-final,2021.2.3,59.89372454685583,
,,,,,,,,96,0,96,0,,,,,,,,,,,,,,,,,,,,,,,,,,,,,,,,,,,,,,,,,,,,,,,,,,,,,2371.2077251998708,None,,,,,,,,,,,,,,,,,,,,,,,,,,,,,,,,,,,table,48,97,silent,white,2369.2087547006086,None,None,2369.2087547006086,None,,,,,,,,,,,,,,,,,,,,,,,,,,,,,,70ND,001,2023_May_03_1600,ExactRep-v3-final,2021.2.3,59.89372454685583,
,,,,,,,,97,0,97,0,,,,,,,,,,,,,,,,,,,,,,,,,,,,,,,,,,,,,,,,,,,,,,,,,,,,,2373.7102594999596,None,,,,,,,,,,,,,,,,,,,,,,,,,,,,,,,,,,,fate,96,98,aloud,blue,2371.70813800022,None,None,2371.70813800022,None,,,,,,,,,,,,,,,,,,,,,,,,,,,,,,70ND,001,2023_May_03_1600,ExactRep-v3-final,2021.2.3,59.89372454685583,
,,,,,,,,98,0,98,0,,,,,,,,,,,,,,,,,,,,,,,,,,,,,,,,,,,,,,,,,,,,,,,,,,,,,2376.2293933006003,None,,,,,,,,,,,,,,,,,,,,,,,,,,,,,,,,,,,history,46,99,silent,white,2374.216489000246,None,None,2374.216489000246,None,,,,,,,,,,,,,,,,,,,,,,,,,,,,,,70ND,001,2023_May_03_1600,ExactRep-v3-final,2021.2.3,59.89372454685583,
,,,,,,,,99,0,99,0,,,,,,,,,,,,,,,,,,,,,,,,,,,,,,,,,,,,,,,,,,,,,,,,,,,,,2378.731994700618,None,,,,,,,,,,,,,,,,,,,,,,,,,,,,,,,,,,,factory,112,100,aloud,blue,2376.729752300307,None,None,2376.729752300307,None,,,,,,,,,,,,,,,,,,,,,,,,,,,,,,70ND,001,2023_May_03_1600,ExactRep-v3-final,2021.2.3,59.89372454685583,
,,,,,,,,100,0,100,0,,,,,,,,,,,,,,,,,,,,,,,,,,,,,,,,,,,,,,,,,,,,,,,,,,,,,2381.234478600323,None,,,,,,,,,,,,,,,,,,,,,,,,,,,,,,,,,,,journal,65,101,silent,white,2379.235422500409,None,None,2379.235422500409,None,,,,,,,,,,,,,,,,,,,,,,,,,,,,,,70ND,001,2023_May_03_1600,ExactRep-v3-final,2021.2.3,59.89372454685583,
,,,,,,,,101,0,101,0,,,,,,,,,,,,,,,,,,,,,,,,,,,,,,,,,,,,,,,,,,,,,,,,,,,,,2383.7535720001906,None,,,,,,,,,,,,,,,,,,,,,,,,,,,,,,,,,,,horse,15,102,sing,red,2381.740753499791,None,None,2381.740753499791,None,,,,,,,,,,,,,,,,,,,,,,,,,,,,,,70ND,001,2023_May_03_1600,ExactRep-v3-final,2021.2.3,59.89372454685583,
,,,,,,,,102,0,102,0,,,,,,,,,,,,,,,,,,,,,,,,,,,,,,,,,,,,,,,,,,,,,,,,,,,,,2386.2561432998627,None,,,,,,,,,,,,,,,,,,,,,,,,,,,,,,,,,,,idea,109,103,aloud,blue,2384.253792900592,None,None,2384.253792900592,None,,,,,,,,,,,,,,,,,,,,,,,,,,,,,,70ND,001,2023_May_03_1600,ExactRep-v3-final,2021.2.3,59.89372454685583,
,,,,,,,,103,0,103,0,,,,,,,,,,,,,,,,,,,,,,,,,,,,,,,,,,,,,,,,,,,,,,,,,,,,,2388.7681600004435,None,,,,,,,,,,,,,,,,,,,,,,,,,,,,,,,,,,,love,81,104,aloud,blue,2386.759752300568,None,None,2386.759752300568,None,,,,,,,,,,,,,,,,,,,,,,,,,,,,,,70ND,001,2023_May_03_1600,ExactRep-v3-final,2021.2.3,59.89372454685583,
,,,,,,,,104,0,104,0,,,,,,,,,,,,,,,,,,,,,,,,,,,,,,,,,,,,,,,,,,,,,,,,,,,,,2391.277811200358,None,,,,,,,,,,,,,,,,,,,,,,,,,,,,,,,,,,,dust,115,105,aloud,blue,2389.2768016997725,None,None,2389.2768016997725,None,,,,,,,,,,,,,,,,,,,,,,,,,,,,,,70ND,001,2023_May_03_1600,ExactRep-v3-final,2021.2.3,59.89372454685583,
,,,,,,,,105,0,105,0,,,,,,,,,,,,,,,,,,,,,,,,,,,,,,,,,,,,,,,,,,,,,,,,,,,,,2393.7967891003937,None,,,,,,,,,,,,,,,,,,,,,,,,,,,,,,,,,,,bowl,35,106,sing,red,2391.7870567003265,None,None,2391.7870567003265,None,,,,,,,,,,,,,,,,,,,,,,,,,,,,,,70ND,001,2023_May_03_1600,ExactRep-v3-final,2021.2.3,59.89372454685583,
,,,,,,,,106,0,106,0,,,,,,,,,,,,,,,,,,,,,,,,,,,,,,,,,,,,,,,,,,,,,,,,,,,,,2396.3160108001903,None,,,,,,,,,,,,,,,,,,,,,,,,,,,,,,,,,,,meat,4,107,sing,red,2394.302750499919,None,None,2394.302750499919,None,,,,,,,,,,,,,,,,,,,,,,,,,,,,,,70ND,001,2023_May_03_1600,ExactRep-v3-final,2021.2.3,59.89372454685583,
,,,,,,,,107,0,107,0,,,,,,,,,,,,,,,,,,,,,,,,,,,,,,,,,,,,,,,,,,,,,,,,,,,,,2398.8354718005285,None,,,,,,,,,,,,,,,,,,,,,,,,,,,,,,,,,,,maiden,108,108,aloud,blue,2396.8214031001553,None,None,2396.8214031001553,None,,,,,,,,,,,,,,,,,,,,,,,,,,,,,,70ND,001,2023_May_03_1600,ExactRep-v3-final,2021.2.3,59.89372454685583,
,,,,,,,,108,0,108,0,,,,,,,,,,,,,,,,,,,,,,,,,,,,,,,,,,,,,,,,,,,,,,,,,,,,,2401.3543581003323,None,,,,,,,,,,,,,,,,,,,,,,,,,,,,,,,,,,,machine,78,109,silent,white,2399.3434223001823,None,None,2399.3434223001823,None,,,,,,,,,,,,,,,,,,,,,,,,,,,,,,70ND,001,2023_May_03_1600,ExactRep-v3-final,2021.2.3,59.89372454685583,
,,,,,,,,109,0,109,0,,,,,,,,,,,,,,,,,,,,,,,,,,,,,,,,,,,,,,,,,,,,,,,,,,,,,2403.8570293998346,None,,,,,,,,,,,,,,,,,,,,,,,,,,,,,,,,,,,style,22,110,sing,red,2401.855093800463,None,None,2401.855093800463,None,,,,,,,,,,,,,,,,,,,,,,,,,,,,,,70ND,001,2023_May_03_1600,ExactRep-v3-final,2021.2.3,59.89372454685583,
,,,,,,,,110,0,110,0,,,,,,,,,,,,,,,,,,,,,,,,,,,,,,,,,,,,,,,,,,,,,,,,,,,,,2406.359542200342,None,,,,,,,,,,,,,,,,,,,,,,,,,,,,,,,,,,,gold,57,111,silent,white,2404.3576260004193,None,None,2404.3576260004193,None,,,,,,,,,,,,,,,,,,,,,,,,,,,,,,70ND,001,2023_May_03_1600,ExactRep-v3-final,2021.2.3,59.89372454685583,
,,,,,,,,111,0,111,0,,,,,,,,,,,,,,,,,,,,,,,,,,,,,,,,,,,,,,,,,,,,,,,,,,,,,2408.8620934998617,None,,,,,,,,,,,,,,,,,,,,,,,,,,,,,,,,,,,corn,40,112,silent,white,2406.861988999881,None,None,2406.861988999881,None,,,,,,,,,,,,,,,,,,,,,,,,,,,,,,70ND,001,2023_May_03_1600,ExactRep-v3-final,2021.2.3,59.89372454685583,
,,,,,,,,112,0,112,0,,,,,,,,,,,,,,,,,,,,,,,,,,,,,,,,,,,,,,,,,,,,,,,,,,,,,2411.3810571003705,None,,,,,,,,,,,,,,,,,,,,,,,,,,,,,,,,,,,kiss,77,113,silent,white,2409.3671184005216,None,None,2409.3671184005216,None,,,,,,,,,,,,,,,,,,,,,,,,,,,,,,70ND,001,2023_May_03_1600,ExactRep-v3-final,2021.2.3,59.89372454685583,
,,,,,,,,113,0,113,0,,,,,,,,,,,,,,,,,,,,,,,,,,,,,,,,,,,,,,,,,,,,,,,,,,,,,2413.900443300605,None,,,,,,,,,,,,,,,,,,,,,,,,,,,,,,,,,,,home,12,114,sing,red,2411.890378500335,None,None,2411.890378500335,None,,,,,,,,,,,,,,,,,,,,,,,,,,,,,,70ND,001,2023_May_03_1600,ExactRep-v3-final,2021.2.3,59.89372454685583,
,,,,,,,,114,0,114,0,,,,,,,,,,,,,,,,,,,,,,,,,,,,,,,,,,,,,,,,,,,,,,,,,,,,,2416.4036071002483,None,,,,,,,,,,,,,,,,,,,,,,,,,,,,,,,,,,,volume,118,115,aloud,blue,2414.4005821999162,None,None,2414.4005821999162,None,,,,,,,,,,,,,,,,,,,,,,,,,,,,,,70ND,001,2023_May_03_1600,ExactRep-v3-final,2021.2.3,59.89372454685583,
,,,,,,,,115,0,115,0,,,,,,,,,,,,,,,,,,,,,,,,,,,,,,,,,,,,,,,,,,,,,,,,,,,,,2418.905389400199,None,,,,,,,,,,,,,,,,,,,,,,,,,,,,,,,,,,,pipe,32,116,sing,red,2416.906326800585,None,None,2416.906326800585,None,,,,,,,,,,,,,,,,,,,,,,,,,,,,,,70ND,001,2023_May_03_1600,ExactRep-v3-final,2021.2.3,59.89372454685583,
,,,,,,,,116,0,116,0,,,,,,,,,,,,,,,,,,,,,,,,,,,,,,,,,,,,,,,,,,,,,,,,,,,,,2421.4078983003274,None,,,,,,,,,,,,,,,,,,,,,,,,,,,,,,,,,,,rock,33,117,sing,red,2419.4067144002765,None,None,2419.4067144002765,None,,,,,,,,,,,,,,,,,,,,,,,,,,,,,,70ND,001,2023_May_03_1600,ExactRep-v3-final,2021.2.3,59.89372454685583,
,,,,,,,,117,0,117,0,,,,,,,,,,,,,,,,,,,,,,,,,,,,,,,,,,,,,,,,,,,,,,,,,,,,,2423.910576299764,None,,,,,,,,,,,,,,,,,,,,,,,,,,,,,,,,,,,bar,107,118,aloud,blue,2421.910366900265,None,None,2421.910366900265,None,,,,,,,,,,,,,,,,,,,,,,,,,,,,,,70ND,001,2023_May_03_1600,ExactRep-v3-final,2021.2.3,59.89372454685583,
,,,,,,,,118,0,118,0,,,,,,,,,,,,,,,,,,,,,,,,,,,,,,,,,,,,,,,,,,,,,,,,,,,,,2426.4296113001183,None,,,,,,,,,,,,,,,,,,,,,,,,,,,,,,,,,,,pupil,9,119,sing,red,2424.4205817002803,None,None,2424.4205817002803,None,,,,,,,,,,,,,,,,,,,,,,,,,,,,,,70ND,001,2023_May_03_1600,ExactRep-v3-final,2021.2.3,59.89372454685583,
,,,,,,,,119,0,119,0,,,,,,,,,,,,,,,,,,,,,,,,,,,,,,,,,,,,,,,,,,,,,,,,,,,,,2428.9321666006,None,,,,,,,,,,,,,,,,,,,,,,,,,,,,,,,,,,,student,1,120,sing,red,2426.9324984000996,None,None,2426.9324984000996,None,,,,,,,,,,,,,,,,,,,,,,,,,,,,,,70ND,001,2023_May_03_1600,ExactRep-v3-final,2021.2.3,59.89372454685583,
,,,,,,,,,,,,,,,,,,,,,,,,,,,,,,,,,,,,,,,,,,,,,,,,,,,,,,,,,,,,,,,,,,,,,,,,,,,,,,,,,,,,,,,,,,,,,,,,,,,,,,,,,,,,,,2429.43412300013,None,space,0.705608899705112,2439.4104597000405,None,,,,,,,,,,,,,,,,,,,,,,,,70ND,001,2023_May_03_1600,ExactRep-v3-final,2021.2.3,59.89372454685583,
,,,,,,,,,,,,,,,,,,,,,,,,,,,,,,,,,,,,,,,,,,,,,,,,,,,,,,,,,,,,,,,,,,,,,,,,,,,,,,,,,,,,,,,,,,,,,,,,,,,,,,,,,,,,,,,,,,,,2440.1450709002092,None,space,22.25880610011518,2450.1214303998277,None,,,,,,,,,,,,,,,,,,70ND,001,2023_May_03_1600,ExactRep-v3-final,2021.2.3,59.89372454685583,
,,,,,,,,,,,,0,0,0,0,,,,,,,,,,,,,,,,,,,,,,,,,,,,,,,,,,,,,,,,,,,,,,,,,2479.332290700637,None,,,,,,,,,,,,,,,,,,,,,,,,,,,,,,,,,,,,,,,,,,,,,,,,,,,,,,,,,length,121,1,silent,new,yellow,2472.9248822005466,None,n,2472.9248822005466,None,"['n', 'return']","[5.191205800510943, 6.366918699815869]",2472.9248822005466,None,,,70ND,001,2023_May_03_1600,ExactRep-v3-final,2021.2.3,59.89372454685583,
,,,,,,,,,,,,1,0,1,0,,,,,,,,,,,,,,,,,,,,,,,,,,,,,,,,,,,,,,,,,,,,,,,,,2483.6199874999,None,,,,,,,,,,,,,,,,,,,,,,,,,,,,,,,,,,,,,,,,,,,,,,,,,,,,,,,,,skin,204,2,aloud,new,yellow,2479.8436791999266,None,n,2479.8436791999266,None,"['n', 'return']","[3.424457000568509, 3.7441769000142813]",2479.8436791999266,None,,,70ND,001,2023_May_03_1600,ExactRep-v3-final,2021.2.3,59.89372454685583,
,,,,,,,,,,,,2,0,2,0,,,,,,,,,,,,,,,,,,,,,,,,,,,,,,,,,,,,,,,,,,,,,,,,,2487.457061899826,None,,,,,,,,,,,,,,,,,,,,,,,,,,,,,,,,,,,,,,,,,,,,,,,,,,,,,,,,,flood,218,3,aloud,new,yellow,2484.133448299952,None,n,2484.133448299952,None,"['n', 'return']","[2.966372100636363, 3.2863729000091553]",2484.133448299952,None,,,70ND,001,2023_May_03_1600,ExactRep-v3-final,2021.2.3,59.89372454685583,
,,,,,,,,,,,,3,0,3,0,,,,,,,,,,,,,,,,,,,,,,,,,,,,,,,,,,,,,,,,,,,,,,,,,2489.0753469998017,None,,,,,,,,,,,,,,,,,,,,,,,,,,,,,,,,,,,,,,,,,,,,,,,,,,,,,,,,,dollar,177,4,sing,new,yellow,2487.966983200051,None,n,2487.966983200051,None,"['n', 'return']","[0.7888553999364376, 1.0607675993815064]",2487.966983200051,None,,,70ND,001,2023_May_03_1600,ExactRep-v3-final,2021.2.3,59.89372454685583,
,,,,,,,,,,,,4,0,4,0,,,,,,,,,,,,,,,,,,,,,,,,,,,,,,,,,,,,,,,,,,,,,,,,,2490.660469800234,None,,,,,,,,,,,,,,,,,,,,,,,,,,,,,,,,,,,,,,,,,,,,,,,,,,,,,,,,,maiden,108,5,aloud,old,yellow,2489.5837478004396,None,y,2489.5837478004396,None,"['y', 'return']","[0.7642495995387435, 1.0440279999747872]",2489.5837478004396,None,,,70ND,001,2023_May_03_1600,ExactRep-v3-final,2021.2.3,59.89372454685583,
,,,,,,,,,,,,5,0,5,0,,,,,,,,,,,,,,,,,,,,,,,,,,,,,,,,,,,,,,,,,,,,,,,,,2491.9783891001716,None,,,,,,,,,,,,,,,,,,,,,,,,,,,,,,,,,,,,,,,,,,,,,,,,,,,,,,,,,flower,2,6,sing,old,yellow,2491.17419990059,None,y,2491.17419990059,None,"['y', 'return']","[0.549614199437201, 0.7576686991378665]",2491.17419990059,None,,,70ND,001,2023_May_03_1600,ExactRep-v3-final,2021.2.3,59.89372454685583,
,,,,,,,,,,,,6,0,6,0,,,,,,,,,,,,,,,,,,,,,,,,,,,,,,,,,,,,,,,,,,,,,,,,,2493.296422299929,None,,,,,,,,,,,,,,,,,,,,,,,,,,,,,,,,,,,,,,,,,,,,,,,,,,,,,,,,,palace,117,7,aloud,old,yellow,2492.4881498999894,None,y,2492.4881498999894,None,"['y', 'return']","[0.57980199996382, 0.7636960996314883]",2492.4881498999894,None,,,70ND,001,2023_May_03_1600,ExactRep-v3-final,2021.2.3,59.89372454685583,
,,,,,,,,,,,,7,0,7,0,,,,,,,,,,,,,,,,,,,,,,,,,,,,,,,,,,,,,,,,,,,,,,,,,2495.3484377004206,None,,,,,,,,,,,,,,,,,,,,,,,,,,,,,,,,,,,,,,,,,,,,,,,,,,,,,,,,,safety,25,8,sing,old,yellow,2493.8087136000395,None,n,2493.8087136000395,None,"['n', 'return']","[1.379300800152123, 1.5072867004200816]",2493.8087136000395,None,,,70ND,001,2023_May_03_1600,ExactRep-v3-final,2021.2.3,59.89372454685583,
,,,,,,,,,,,,8,0,8,0,,,,,,,,,,,,,,,,,,,,,,,,,,,,,,,,,,,,,,,,,,,,,,,,,2498.435290600173,None,,,,,,,,,,,,,,,,,,,,,,,,,,,,,,,,,,,,,,,,,,,,,,,,,,,,,,,,,gold,57,9,silent,old,yellow,2495.866175699979,None,n,2495.866175699979,None,"['n', 'return']","[2.441783300600946, 2.5216827001422644]",2495.866175699979,None,,,70ND,001,2023_May_03_1600,ExactRep-v3-final,2021.2.3,59.89372454685583,
,,,,,,,,,,,,9,0,9,0,,,,,,,,,,,,,,,,,,,,,,,,,,,,,,,,,,,,,,,,,,,,,,,,,2500.0863461000845,None,,,,,,,,,,,,,,,,,,,,,,,,,,,,,,,,,,,,,,,,,,,,,,,,,,,,,,,,,fire,182,10,aloud,new,yellow,2498.9447707002982,None,y,2498.9447707002982,None,"['y', 'return']","[0.9950414998456836, 1.107027499936521]",2498.9447707002982,None,,,70ND,001,2023_May_03_1600,ExactRep-v3-final,2021.2.3,59.89372454685583,
,,,,,,,,,,,,10,0,10,0,,,,,,,,,,,,,,,,,,,,,,,,,,,,,,,,,,,,,,,,,,,,,,,,,2501.4711095998064,None,,,,,,,,,,,,,,,,,,,,,,,,,,,,,,,,,,,,,,,,,,,,,,,,,,,,,,,,,star,192,11,aloud,new,yellow,2500.596393899992,None,n,2500.596393899992,None,"['n', 'return']","[0.7194132003933191, 0.8395023001357913]",2500.596393899992,None,,,70ND,001,2023_May_03_1600,ExactRep-v3-final,2021.2.3,59.89372454685583,
,,,,,,,,,,,,11,0,11,0,,,,,,,,,,,,,,,,,,,,,,,,,,,,,,,,,,,,,,,,,,,,,,,,,2502.8558223005384,None,,,,,,,,,,,,,,,,,,,,,,,,,,,,,,,,,,,,,,,,,,,,,,,,,,,,,,,,,clock,151,12,silent,new,yellow,2501.984654000029,None,n,2501.984654000029,None,"['n', 'return']","[0.7234742995351553, 0.8271482000127435]",2501.984654000029,None,,,70ND,001,2023_May_03_1600,ExactRep-v3-final,2021.2.3,59.89372454685583,
,,,,,,,,,,,,12,0,12,0,,,,,,,,,,,,,,,,,,,,,,,,,,,,,,,,,,,,,,,,,,,,,,,,,2504.1571816001087,None,,,,,,,,,,,,,,,,,,,,,,,,,,,,,,,,,,,,,,,,,,,,,,,,,,,,,,,,,theory,231,13,sing,new,yellow,2503.369823000394,None,n,2503.369823000394,None,"['n', 'return']","[0.6340611008927226, 0.7541962005198002]",2503.369823000394,None,,,70ND,001,2023_May_03_1600,ExactRep-v3-final,2021.2.3,59.89372454685583,
,,,,,,,,,,,,13,0,13,0,,,,,,,,,,,,,,,,,,,,,,,,,,,,,,,,,,,,,,,,,,,,,,,,,2506.609567500651,None,,,,,,,,,,,,,,,,,,,,,,,,,,,,,,,,,,,,,,,,,,,,,,,,,,,,,,,,,machine,78,14,silent,old,yellow,2504.665828200057,None,y,2504.665828200057,None,"['y', 'return']","[1.7379943002015352, 1.898247200064361]",2504.665828200057,None,,,70ND,001,2023_May_03_1600,ExactRep-v3-final,2021.2.3,59.89372454685583,
,,,,,,,,,,,,14,0,14,0,,,,,,,,,,,,,,,,,,,,,,,,,,,,,,,,,,,,,,,,,,,,,,,,,2508.0463060997427,None,,,,,,,,,,,,,,,,,,,,,,,,,,,,,,,,,,,,,,,,,,,,,,,,,,,,,,,,,butter,165,15,sing,new,yellow,2507.1175001999363,None,n,2507.1175001999363,None,"['n', 'return']","[0.7823558002710342, 0.8942919000983238]",2507.1175001999363,None,,,70ND,001,2023_May_03_1600,ExactRep-v3-final,2021.2.3,59.89372454685583,
,,,,,,,,,,,,15,0,15,0,,,,,,,,,,,,,,,,,,,,,,,,,,,,,,,,,,,,,,,,,,,,,,,,,2509.629353600554,None,,,,,,,,,,,,,,,,,,,,,,,,,,,,,,,,,,,,,,,,,,,,,,,,,,,,,,,,,girl,74,16,silent,old,yellow,2508.5694011999294,None,n,2508.5694011999294,None,"['n', 'return']","[0.9305635998025537, 1.018485900014639]",2508.5694011999294,None,,,70ND,001,2023_May_03_1600,ExactRep-v3-final,2021.2.3,59.89372454685583,
,,,,,,,,,,,,16,0,16,0,,,,,,,,,,,,,,,,,,,,,,,,,,,,,,,,,,,,,,,,,,,,,,,,,2514.0336701003835,None,,,,,,,,,,,,,,,,,,,,,,,,,,,,,,,,,,,,,,,,,,,,,,,,,,,,,,,,,fact,149,17,silent,new,yellow,2510.139185000211,None,n,2510.139185000211,None,"['backspace', 'n', 'return']","[1.6808529002591968, 3.7688250998035073, 3.85684460029006]",2510.139185000211,None,,,70ND,001,2023_May_03_1600,ExactRep-v3-final,2021.2.3,59.89372454685583,
,,,,,,,,,,,,17,0,17,0,,,,,,,,,,,,,,,,,,,,,,,,,,,,,,,,,,,,,,,,,,,,,,,,,2516.402727600187,None,,,,,,,,,,,,,,,,,,,,,,,,,,,,,,,,,,,,,,,,,,,,,,,,,,,,,,,,,ocean,128,18,silent,new,yellow,2514.5419431999326,None,n,2514.5419431999326,None,"['n', 'return']","[1.5179826999083161, 1.821952000260353]",2514.5419431999326,None,,,70ND,001,2023_May_03_1600,ExactRep-v3-final,2021.2.3,59.89372454685583,
,,,,,,,,,,,,18,0,18,0,,,,,,,,,,,,,,,,,,,,,,,,,,,,,,,,,,,,,,,,,,,,,,,,,2518.504891199991,None,,,,,,,,,,,,,,,,,,,,,,,,,,,,,,,,,,,,,,,,,,,,,,,,,,,,,,,,,body,132,19,silent,new,yellow,2516.9143842002377,None,y,2516.9143842002377,None,"['y', 'return']","[1.3536064000800252, 1.5454957000911236]",2516.9143842002377,None,,,70ND,001,2023_May_03_1600,ExactRep-v3-final,2021.2.3,59.89372454685583,
,,,,,,,,,,,,19,0,19,0,,,,,,,,,,,,,,,,,,,,,,,,,,,,,,,,,,,,,,,,,,,,,,,,,2519.9229787001386,None,,,,,,,,,,,,,,,,,,,,,,,,,,,,,,,,,,,,,,,,,,,,,,,,,,,,,,,,,ship,159,20,silent,new,yellow,2519.007687000558,None,n,2519.007687000558,None,"['n', 'return']","[0.7641675006598234, 0.8682046001777053]",2519.007687000558,None,,,70ND,001,2023_May_03_1600,ExactRep-v3-final,2021.2.3,59.89372454685583,
,,,,,,,,,,,,20,0,20,0,,,,,,,,,,,,,,,,,,,,,,,,,,,,,,,,,,,,,,,,,,,,,,,,,2521.240948200226,None,,,,,,,,,,,,,,,,,,,,,,,,,,,,,,,,,,,,,,,,,,,,,,,,,,,,,,,,,corner,222,21,aloud,new,yellow,2520.434417400509,None,n,2520.434417400509,None,"['n', 'return']","[0.6736738001927733, 0.7615055004134774]",2520.434417400509,None,,,70ND,001,2023_May_03_1600,ExactRep-v3-final,2021.2.3,59.89372454685583,
,,,,,,,,,,,,21,0,21,0,,,,,,,,,,,,,,,,,,,,,,,,,,,,,,,,,,,,,,,,,,,,,,,,,2522.992696300149,None,,,,,,,,,,,,,,,,,,,,,,,,,,,,,,,,,,,,,,,,,,,,,,,,,,,,,,,,,speech,195,22,sing,new,yellow,2521.7538459999487,None,n,2521.7538459999487,None,"['n', 'return']","[1.0741443000733852, 1.194030599668622]",2521.7538459999487,None,,,70ND,001,2023_May_03_1600,ExactRep-v3-final,2021.2.3,59.89372454685583,
,,,,,,,,,,,,22,0,22,0,,,,,,,,,,,,,,,,,,,,,,,,,,,,,,,,,,,,,,,,,,,,,,,,,2524.7944600004703,None,,,,,,,,,,,,,,,,,,,,,,,,,,,,,,,,,,,,,,,,,,,,,,,,,,,,,,,,,volume,118,23,aloud,old,yellow,2523.501643500291,None,y,2523.501643500291,None,"['y', 'return']","[1.10228450037539, 1.2463853005319834]",2523.501643500291,None,,,70ND,001,2023_May_03_1600,ExactRep-v3-final,2021.2.3,59.89372454685583,
,,,,,,,,,,,,23,0,23,0,,,,,,,,,,,,,,,,,,,,,,,,,,,,,,,,,,,,,,,,,,,,,,,,,2526.1458577997983,None,,,,,,,,,,,,,,,,,,,,,,,,,,,,,,,,,,,,,,,,,,,,,,,,,,,,,,,,,hour,137,24,silent,new,yellow,2525.305928300135,None,n,2525.305928300135,None,"['n', 'return']","[0.6579598998650908, 0.8021416999399662]",2525.305928300135,None,,,70ND,001,2023_May_03_1600,ExactRep-v3-final,2021.2.3,59.89372454685583,
,,,,,,,,,,,,24,0,24,0,,,,,,,,,,,,,,,,,,,,,,,,,,,,,,,,,,,,,,,,,,,,,,,,,2529.265595600009,None,,,,,,,,,,,,,,,,,,,,,,,,,,,,,,,,,,,,,,,,,,,,,,,,,,,,,,,,,mother,50,25,silent,old,yellow,2526.6540306005627,None,n,2526.6540306005627,None,"['n', 'return']","[2.221725800074637, 2.5738540003076196]",2526.6540306005627,None,,,70ND,001,2023_May_03_1600,ExactRep-v3-final,2021.2.3,59.89372454685583,
,,,,,,,,,,,,25,0,25,0,,,,,,,,,,,,,,,,,,,,,,,,,,,,,,,,,,,,,,,,,,,,,,,,,2530.683790099807,None,,,,,,,,,,,,,,,,,,,,,,,,,,,,,,,,,,,,,,,,,,,,,,,,,,,,,,,,,meat,4,26,sing,old,yellow,2529.7693729000166,None,y,2529.7693729000166,None,"['y', 'return']","[0.6345232995226979, 0.8825992001220584]",2529.7693729000166,None,,,70ND,001,2023_May_03_1600,ExactRep-v3-final,2021.2.3,59.89372454685583,
,,,,,,,,,,,,26,0,26,0,,,,,,,,,,,,,,,,,,,,,,,,,,,,,,,,,,,,,,,,,,,,,,,,,2532.3687522001565,None,,,,,,,,,,,,,,,,,,,,,,,,,,,,,,,,,,,,,,,,,,,,,,,,,,,,,,,,,plain,39,27,silent,old,yellow,2531.187656099908,None,y,2531.187656099908,None,"['y', 'return']","[0.9201239999383688, 1.14430580008775]",2531.187656099908,None,,,70ND,001,2023_May_03_1600,ExactRep-v3-final,2021.2.3,59.89372454685583,
,,,,,,,,,,,,27,0,27,0,,,,,,,,,,,,,,,,,,,,,,,,,,,,,,,,,,,,,,,,,,,,,,,,,2534.20406260062,None,,,,,,,,,,,,,,,,,,,,,,,,,,,,,,,,,,,,,,,,,,,,,,,,,,,,,,,,,picture,97,28,aloud,old,yellow,2532.8816360002384,None,y,2532.8816360002384,None,"['y', 'return']","[1.0983242997899652, 1.2903090994805098]",2532.8816360002384,None,,,70ND,001,2023_May_03_1600,ExactRep-v3-final,2021.2.3,59.89372454685583,
,,,,,,,,,,,,28,0,28,0,,,,,,,,,,,,,,,,,,,,,,,,,,,,,,,,,,,,,,,,,,,,,,,,,2535.805420000106,None,,,,,,,,,,,,,,,,,,,,,,,,,,,,,,,,,,,,,,,,,,,,,,,,,,,,,,,,,breast,203,29,sing,new,yellow,2534.7150453003123,None,n,2534.7150453003123,None,"['n', 'return']","[0.8407736998051405, 1.0567955998703837]",2534.7150453003123,None,,,70ND,001,2023_May_03_1600,ExactRep-v3-final,2021.2.3,59.89372454685583,
,,,,,,,,,,,,29,0,29,0,,,,,,,,,,,,,,,,,,,,,,,,,,,,,,,,,,,,,,,,,,,,,,,,,2537.223508399911,None,,,,,,,,,,,,,,,,,,,,,,,,,,,,,,,,,,,,,,,,,,,,,,,,,,,,,,,,,ability,114,30,aloud,old,yellow,2536.317910199985,None,y,2536.317910199985,None,"['y', 'return']","[0.6779535003006458, 0.8701493004336953]",2536.317910199985,None,,,70ND,001,2023_May_03_1600,ExactRep-v3-final,2021.2.3,59.89372454685583,
,,,,,,,,,,,,30,0,30,0,,,,,,,,,,,,,,,,,,,,,,,,,,,,,,,,,,,,,,,,,,,,,,,,,2538.5415725000203,None,,,,,,,,,,,,,,,,,,,,,,,,,,,,,,,,,,,,,,,,,,,,,,,,,,,,,,,,,fate,96,31,aloud,old,yellow,2537.7414898006245,None,y,2537.7414898006245,None,"['y', 'return']","[0.5584137998521328, 0.7583924997597933]",2537.7414898006245,None,,,70ND,001,2023_May_03_1600,ExactRep-v3-final,2021.2.3,59.89372454685583,
,,,,,,,,,,,,31,0,31,0,,,,,,,,,,,,,,,,,,,,,,,,,,,,,,,,,,,,,,,,,,,,,,,,,2540.4935260005295,None,,,,,,,,,,,,,,,,,,,,,,,,,,,,,,,,,,,,,,,,,,,,,,,,,,,,,,,,,judge,42,32,silent,old,yellow,2539.0497487997636,None,y,2539.0497487997636,None,"['y', 'return']","[1.2422200003638864, 1.4103242997080088]",2539.0497487997636,None,,,70ND,001,2023_May_03_1600,ExactRep-v3-final,2021.2.3,59.89372454685583,
,,,,,,,,,,,,32,0,32,0,,,,,,,,,,,,,,,,,,,,,,,,,,,,,,,,,,,,,,,,,,,,,,,,,2542.2953580999747,None,,,,,,,,,,,,,,,,,,,,,,,,,,,,,,,,,,,,,,,,,,,,,,,,,,,,,,,,,excuse,41,33,silent,old,yellow,2540.9981054998934,None,n,2540.9981054998934,None,"['n', 'return']","[1.142098599113524, 1.262080899439752]",2540.9981054998934,None,,,70ND,001,2023_May_03_1600,ExactRep-v3-final,2021.2.3,59.89372454685583,
,,,,,,,,,,,,33,0,33,0,,,,,,,,,,,,,,,,,,,,,,,,,,,,,,,,,,,,,,,,,,,,,,,,,2543.963554999791,None,,,,,,,,,,,,,,,,,,,,,,,,,,,,,,,,,,,,,,,,,,,,,,,,,,,,,,,,,fur,185,34,sing,new,yellow,2542.8090989999473,None,n,2542.8090989999473,None,"['n', 'return']","[0.994764500297606, 1.1069449000060558]",2542.8090989999473,None,,,70ND,001,2023_May_03_1600,ExactRep-v3-final,2021.2.3,59.89372454685583,
,,,,,,,,,,,,34,0,34,0,,,,,,,,,,,,,,,,,,,,,,,,,,,,,,,,,,,,,,,,,,,,,,,,,2546.499451700598,None,,,,,,,,,,,,,,,,,,,,,,,,,,,,,,,,,,,,,,,,,,,,,,,,,,,,,,,,,toy,120,35,silent,new,yellow,2544.4752545999363,None,n,2544.4752545999363,None,"['n', 'return']","[1.8004935001954436, 1.9767402997240424]",2544.4752545999363,None,,,70ND,001,2023_May_03_1600,ExactRep-v3-final,2021.2.3,59.89372454685583,
,,,,,,,,,,,,35,0,35,0,,,,,,,,,,,,,,,,,,,,,,,,,,,,,,,,,,,,,,,,,,,,,,,,,2549.085480700247,None,,,,,,,,,,,,,,,,,,,,,,,,,,,,,,,,,,,,,,,,,,,,,,,,,,,,,,,,,fortune,230,36,aloud,new,yellow,2547.0185858001933,None,n,2547.0185858001933,None,"['n', 'return']","[1.8731598006561399, 2.0332433003932238]",2547.0185858001933,None,,,70ND,001,2023_May_03_1600,ExactRep-v3-final,2021.2.3,59.89372454685583,
,,,,,,,,,,,,36,0,36,0,,,,,,,,,,,,,,,,,,,,,,,,,,,,,,,,,,,,,,,,,,,,,,,,,2550.420243400149,None,,,,,,,,,,,,,,,,,,,,,,,,,,,,,,,,,,,,,,,,,,,,,,,,,,,,,,,,,artist,104,37,aloud,old,yellow,2549.5936901997775,None,y,2549.5936901997775,None,"['y', 'return']","[0.6023395992815495, 0.7862321995198727]",2549.5936901997775,None,,,70ND,001,2023_May_03_1600,ExactRep-v3-final,2021.2.3,59.89372454685583,
,,,,,,,,,,,,37,0,37,0,,,,,,,,,,,,,,,,,,,,,,,,,,,,,,,,,,,,,,,,,,,,,,,,,2551.671388200484,None,,,,,,,,,,,,,,,,,,,,,,,,,,,,,,,,,,,,,,,,,,,,,,,,,,,,,,,,,cash,154,38,silent,new,yellow,2550.9274754999205,None,n,2550.9274754999205,None,"['n', 'return']","[0.5567292999476194, 0.7004805998876691]",2550.9274754999205,None,,,70ND,001,2023_May_03_1600,ExactRep-v3-final,2021.2.3,59.89372454685583,
,,,,,,,,,,,,38,0,38,0,,,,,,,,,,,,,,,,,,,,,,,,,,,,,,,,,,,,,,,,,,,,,,,,,2554.7577101001516,None,,,,,,,,,,,,,,,,,,,,,,,,,,,,,,,,,,,,,,,,,,,,,,,,,,,,,,,,,factory,112,39,aloud,old,yellow,2552.180353200063,None,y,2552.180353200063,None,"['y', 'return']","[2.423557499423623, 2.5435651000589132]",2552.180353200063,None,,,70ND,001,2023_May_03_1600,ExactRep-v3-final,2021.2.3,59.89372454685583,
,,,,,,,,,,,,39,0,39,0,,,,,,,,,,,,,,,,,,,,,,,,,,,,,,,,,,,,,,,,,,,,,,,,,2557.9109597001225,None,,,,,,,,,,,,,,,,,,,,,,,,,,,,,,,,,,,,,,,,,,,,,,,,,,,,,,,,,camp,211,40,sing,new,yellow,2555.264418900013,None,n,2555.264418900013,None,"['n', 'return']","[2.4676076006144285, 2.6035903999581933]",2555.264418900013,None,,,70ND,001,2023_May_03_1600,ExactRep-v3-final,2021.2.3,59.89372454685583,
,,,,,,,,,,,,40,0,40,0,,,,,,,,,,,,,,,,,,,,,,,,,,,,,,,,,,,,,,,,,,,,,,,,,2559.779466399923,None,,,,,,,,,,,,,,,,,,,,,,,,,,,,,,,,,,,,,,,,,,,,,,,,,,,,,,,,,humour,27,41,sing,old,yellow,2558.419269300066,None,n,2558.419269300066,None,"['n', 'return']","[1.1686463998630643, 1.3206808995455503]",2558.419269300066,None,,,70ND,001,2023_May_03_1600,ExactRep-v3-final,2021.2.3,59.89372454685583,
,,,,,,,,,,,,41,0,41,0,,,,,,,,,,,,,,,,,,,,,,,,,,,,,,,,,,,,,,,,,,,,,,,,,2561.214191700332,None,,,,,,,,,,,,,,,,,,,,,,,,,,,,,,,,,,,,,,,,,,,,,,,,,,,,,,,,,style,22,42,sing,old,yellow,2560.293646699749,None,y,2560.293646699749,None,"['y', 'return']","[0.71021160017699, 0.8862100997939706]",2560.293646699749,None,,,70ND,001,2023_May_03_1600,ExactRep-v3-final,2021.2.3,59.89372454685583,
,,,,,,,,,,,,42,0,42,0,,,,,,,,,,,,,,,,,,,,,,,,,,,,,,,,,,,,,,,,,,,,,,,,,2563.7501126006246,None,,,,,,,,,,,,,,,,,,,,,,,,,,,,,,,,,,,,,,,,,,,,,,,,,,,,,,,,,officer,200,43,aloud,new,yellow,2561.7222811002284,None,n,2561.7222811002284,None,"['n', 'return']","[1.761756499297917, 1.9856415996327996]",2561.7222811002284,None,,,70ND,001,2023_May_03_1600,ExactRep-v3-final,2021.2.3,59.89372454685583,
,,,,,,,,,,,,43,0,43,0,,,,,,,,,,,,,,,,,,,,,,,,,,,,,,,,,,,,,,,,,,,,,,,,,2565.3516552997753,None,,,,,,,,,,,,,,,,,,,,,,,,,,,,,,,,,,,,,,,,,,,,,,,,,,,,,,,,,product,0,44,sing,old,yellow,2564.261741200462,None,n,2564.261741200462,None,"['n', 'return']","[0.8463417999446392, 1.0543332993984222]",2564.261741200462,None,,,70ND,001,2023_May_03_1600,ExactRep-v3-final,2021.2.3,59.89372454685583,
,,,,,,,,,,,,44,0,44,0,,,,,,,,,,,,,,,,,,,,,,,,,,,,,,,,,,,,,,,,,,,,,,,,,2566.81986830011,None,,,,,,,,,,,,,,,,,,,,,,,,,,,,,,,,,,,,,,,,,,,,,,,,,,,,,,,,,passion,161,45,sing,new,yellow,2565.8557313000783,None,n,2565.8557313000783,None,"['n', 'return']","[0.6521743005141616, 0.9322086004540324]",2565.8557313000783,None,,,70ND,001,2023_May_03_1600,ExactRep-v3-final,2021.2.3,59.89372454685583,
,,,,,,,,,,,,45,0,45,0,,,,,,,,,,,,,,,,,,,,,,,,,,,,,,,,,,,,,,,,,,,,,,,,,2568.0877221003175,None,,,,,,,,,,,,,,,,,,,,,,,,,,,,,,,,,,,,,,,,,,,,,,,,,,,,,,,,,soul,175,46,sing,new,yellow,2567.3287431001663,None,n,2567.3287431001663,None,"['n', 'return']","[0.5310694007202983, 0.7150757005438209]",2567.3287431001663,None,,,70ND,001,2023_May_03_1600,ExactRep-v3-final,2021.2.3,59.89372454685583,
,,,,,,,,,,,,46,0,46,0,,,,,,,,,,,,,,,,,,,,,,,,,,,,,,,,,,,,,,,,,,,,,,,,,2569.505971999839,None,,,,,,,,,,,,,,,,,,,,,,,,,,,,,,,,,,,,,,,,,,,,,,,,,,,,,,,,,street,214,47,aloud,new,yellow,2568.5906514003873,None,n,2568.5906514003873,None,"['n', 'return']","[0.4212666004896164, 0.8774115005508065]",2568.5906514003873,None,,,70ND,001,2023_May_03_1600,ExactRep-v3-final,2021.2.3,59.89372454685583,
,,,,,,,,,,,,47,0,47,0,,,,,,,,,,,,,,,,,,,,,,,,,,,,,,,,,,,,,,,,,,,,,,,,,2571.257555199787,None,,,,,,,,,,,,,,,,,,,,,,,,,,,,,,,,,,,,,,,,,,,,,,,,,,,,,,,,,thought,186,48,aloud,new,yellow,2570.015657500364,None,n,2570.015657500364,None,"['n', 'return']","[1.0362286996096373, 1.1961423000320792]",2570.015657500364,None,,,70ND,001,2023_May_03_1600,ExactRep-v3-final,2021.2.3,59.89372454685583,
,,,,,,,,,,,,48,0,48,0,,,,,,,,,,,,,,,,,,,,,,,,,,,,,,,,,,,,,,,,,,,,,,,,,2572.7759175002575,None,,,,,,,,,,,,,,,,,,,,,,,,,,,,,,,,,,,,,,,,,,,,,,,,,,,,,,,,,deed,16,49,sing,old,yellow,2571.76309460029,None,n,2571.76309460029,None,"['n', 'return']","[0.760840100236237, 0.9688202003017068]",2571.76309460029,None,,,70ND,001,2023_May_03_1600,ExactRep-v3-final,2021.2.3,59.89372454685583,
,,,,,,,,,,,,49,0,49,0,,,,,,,,,,,,,,,,,,,,,,,,,,,,,,,,,,,,,,,,,,,,,,,,,2574.294003800489,None,,,,,,,,,,,,,,,,,,,,,,,,,,,,,,,,,,,,,,,,,,,,,,,,,,,,,,,,,brain,28,50,sing,old,yellow,2573.288171700202,None,y,2573.288171700202,None,"['y', 'return']","[0.8037457000464201, 0.9637511000037193]",2573.288171700202,None,,,70ND,001,2023_May_03_1600,ExactRep-v3-final,2021.2.3,59.89372454685583,
,,,,,,,,,,,,50,0,50,0,,,,,,,,,,,,,,,,,,,,,,,,,,,,,,,,,,,,,,,,,,,,,,,,,2575.8019289998338,None,,,,,,,,,,,,,,,,,,,,,,,,,,,,,,,,,,,,,,,,,,,,,,,,,,,,,,,,,cotton,232,51,aloud,new,yellow,2574.806319599971,None,n,2574.806319599971,None,"['n', 'return']","[0.8055989993736148, 0.9415723001584411]",2574.806319599971,None,,,70ND,001,2023_May_03_1600,ExactRep-v3-final,2021.2.3,59.89372454685583,
,,,,,,,,,,,,51,0,51,0,,,,,,,,,,,,,,,,,,,,,,,,,,,,,,,,,,,,,,,,,,,,,,,,,2577.363717900589,None,,,,,,,,,,,,,,,,,,,,,,,,,,,,,,,,,,,,,,,,,,,,,,,,,,,,,,,,,rod,17,52,sing,old,yellow,2576.323369599879,None,y,2576.323369599879,None,"['y', 'return']","[0.8404981000348926, 0.9925838001072407]",2576.323369599879,None,,,70ND,001,2023_May_03_1600,ExactRep-v3-final,2021.2.3,59.89372454685583,
,,,,,,,,,,,,52,0,52,0,,,,,,,,,,,,,,,,,,,,,,,,,,,,,,,,,,,,,,,,,,,,,,,,,2578.8320409003645,None,,,,,,,,,,,,,,,,,,,,,,,,,,,,,,,,,,,,,,,,,,,,,,,,,,,,,,,,,house,207,53,sing,new,yellow,2577.873351099901,None,y,2577.873351099901,None,"['y', 'return']","[0.7705771997570992, 0.914491499774158]",2577.873351099901,None,,,70ND,001,2023_May_03_1600,ExactRep-v3-final,2021.2.3,59.89372454685583,
,,,,,,,,,,,,53,0,53,0,,,,,,,,,,,,,,,,,,,,,,,,,,,,,,,,,,,,,,,,,,,,,,,,,2580.1331799002364,None,,,,,,,,,,,,,,,,,,,,,,,,,,,,,,,,,,,,,,,,,,,,,,,,,,,,,,,,,student,1,54,sing,old,yellow,2579.34434240032,None,y,2579.34434240032,None,"['y', 'return']","[0.6195825999602675, 0.7557353004813194]",2579.34434240032,None,,,70ND,001,2023_May_03_1600,ExactRep-v3-final,2021.2.3,59.89372454685583,
,,,,,,,,,,,,54,0,54,0,,,,,,,,,,,,,,,,,,,,,,,,,,,,,,,,,,,,,,,,,,,,,,,,,2581.634672500193,None,,,,,,,,,,,,,,,,,,,,,,,,,,,,,,,,,,,,,,,,,,,,,,,,,,,,,,,,,honour,193,55,sing,new,yellow,2580.6399405002594,None,n,2580.6399405002594,None,"['n', 'return']","[0.7879726001992822, 0.9559569004923105]",2580.6399405002594,None,,,70ND,001,2023_May_03_1600,ExactRep-v3-final,2021.2.3,59.89372454685583,
,,,,,,,,,,,,55,0,55,0,,,,,,,,,,,,,,,,,,,,,,,,,,,,,,,,,,,,,,,,,,,,,,,,,2583.169457300566,None,,,,,,,,,,,,,,,,,,,,,,,,,,,,,,,,,,,,,,,,,,,,,,,,,,,,,,,,,flesh,180,56,aloud,new,yellow,2582.144999000244,None,n,2582.144999000244,None,"['n', 'return']","[0.8509026998654008, 0.979106199927628]",2582.144999000244,None,,,70ND,001,2023_May_03_1600,ExactRep-v3-final,2021.2.3,59.89372454685583,
,,,,,,,,,,,,56,0,56,0,,,,,,,,,,,,,,,,,,,,,,,,,,,,,,,,,,,,,,,,,,,,,,,,,2584.487519999966,None,,,,,,,,,,,,,,,,,,,,,,,,,,,,,,,,,,,,,,,,,,,,,,,,,,,,,,,,,chance,37,57,sing,old,yellow,2583.6788114001974,None,n,2583.6788114001974,None,"['n', 'return']","[0.5891837002709508, 0.7731298999860883]",2583.6788114001974,None,,,70ND,001,2023_May_03_1600,ExactRep-v3-final,2021.2.3,59.89372454685583,
,,,,,,,,,,,,57,0,57,0,,,,,,,,,,,,,,,,,,,,,,,,,,,,,,,,,,,,,,,,,,,,,,,,,2585.7722965003923,None,,,,,,,,,,,,,,,,,,,,,,,,,,,,,,,,,,,,,,,,,,,,,,,,,,,,,,,,,lake,69,58,silent,old,yellow,2584.9989464003593,None,n,2584.9989464003593,None,"['n', 'return']","[0.6129652997478843, 0.7410102998837829]",2584.9989464003593,None,,,70ND,001,2023_May_03_1600,ExactRep-v3-final,2021.2.3,59.89372454685583,
,,,,,,,,,,,,58,0,58,0,,,,,,,,,,,,,,,,,,,,,,,,,,,,,,,,,,,,,,,,,,,,,,,,,2587.173537200317,None,,,,,,,,,,,,,,,,,,,,,,,,,,,,,,,,,,,,,,,,,,,,,,,,,,,,,,,,,flag,83,59,aloud,old,yellow,2586.282044400461,None,n,2586.282044400461,None,"['n', 'return']","[0.7059406004846096, 0.8578435005620122]",2586.282044400461,None,,,70ND,001,2023_May_03_1600,ExactRep-v3-final,2021.2.3,59.89372454685583,
,,,,,,,,,,,,59,0,59,0,,,,,,,,,,,,,,,,,,,,,,,,,,,,,,,,,,,,,,,,,,,,,,,,,2589.142276700586,None,,,,,,,,,,,,,,,,,,,,,,,,,,,,,,,,,,,,,,,,,,,,,,,,,,,,,,,,,water,7,60,sing,old,yellow,2587.684411100112,None,n,2587.684411100112,None,"['n', 'return']","[1.287437199614942, 1.4234720999374986]",2587.684411100112,None,,,70ND,001,2023_May_03_1600,ExactRep-v3-final,2021.2.3,59.89372454685583,
,,,,,,,,,,,,60,0,60,0,,,,,,,,,,,,,,,,,,,,,,,,,,,,,,,,,,,,,,,,,,,,,,,,,2591.094224699773,None,,,,,,,,,,,,,,,,,,,,,,,,,,,,,,,,,,,,,,,,,,,,,,,,,,,,,,,,,river,11,61,sing,old,yellow,2589.652708400041,None,y,2589.652708400041,None,"['y', 'return']","[1.319343799725175, 1.3994057001546025]",2589.652708400041,None,,,70ND,001,2023_May_03_1600,ExactRep-v3-final,2021.2.3,59.89372454685583,
,,,,,,,,,,,,61,0,61,0,,,,,,,,,,,,,,,,,,,,,,,,,,,,,,,,,,,,,,,,,,,,,,,,,2592.562370600179,None,,,,,,,,,,,,,,,,,,,,,,,,,,,,,,,,,,,,,,,,,,,,,,,,,,,,,,,,,law,239,62,sing,new,yellow,2591.6034724004567,None,n,2591.6034724004567,None,"['n', 'return']","[0.8007821999490261, 0.920660000294447]",2591.6034724004567,None,,,70ND,001,2023_May_03_1600,ExactRep-v3-final,2021.2.3,59.89372454685583,
,,,,,,,,,,,,62,0,62,0,,,,,,,,,,,,,,,,,,,,,,,,,,,,,,,,,,,,,,,,,,,,,,,,,2594.3973914003,None,,,,,,,,,,,,,,,,,,,,,,,,,,,,,,,,,,,,,,,,,,,,,,,,,,,,,,,,,bar,107,63,aloud,old,yellow,2593.0703437002376,None,n,2593.0703437002376,None,"['n', 'return']","[1.1816850993782282, 1.2858245996758342]",2593.0703437002376,None,,,70ND,001,2023_May_03_1600,ExactRep-v3-final,2021.2.3,59.89372454685583,
,,,,,,,,,,,,63,0,63,0,,,,,,,,,,,,,,,,,,,,,,,,,,,,,,,,,,,,,,,,,,,,,,,,,2596.3726179003716,None,,,,,,,,,,,,,,,,,,,,,,,,,,,,,,,,,,,,,,,,,,,,,,,,,,,,,,,,,world,136,64,silent,new,yellow,2594.905627099797,None,n,2594.905627099797,None,"['n', 'return']","[1.3223029002547264, 1.4262044997885823]",2594.905627099797,None,,,70ND,001,2023_May_03_1600,ExactRep-v3-final,2021.2.3,59.89372454685583,
,,,,,,,,,,,,64,0,64,0,,,,,,,,,,,,,,,,,,,,,,,,,,,,,,,,,,,,,,,,,,,,,,,,,2597.6673830002546,None,,,,,,,,,,,,,,,,,,,,,,,,,,,,,,,,,,,,,,,,,,,,,,,,,,,,,,,,,boulder,60,65,silent,old,yellow,2596.8912097997963,None,n,2596.8912097997963,None,"['n', 'return']","[0.6167075000703335, 0.7447378998622298]",2596.8912097997963,None,,,70ND,001,2023_May_03_1600,ExactRep-v3-final,2021.2.3,59.89372454685583,
,,,,,,,,,,,,65,0,65,0,,,,,,,,,,,,,,,,,,,,,,,,,,,,,,,,,,,,,,,,,,,,,,,,,2599.0855696005747,None,,,,,,,,,,,,,,,,,,,,,,,,,,,,,,,,,,,,,,,,,,,,,,,,,,,,,,,,,nail,30,66,sing,old,yellow,2598.176440999843,None,n,2598.176440999843,None,"['n', 'return']","[0.7314765006303787, 0.8674597004428506]",2598.176440999843,None,,,70ND,001,2023_May_03_1600,ExactRep-v3-final,2021.2.3,59.89372454685583,
,,,,,,,,,,,,66,0,66,0,,,,,,,,,,,,,,,,,,,,,,,,,,,,,,,,,,,,,,,,,,,,,,,,,2600.703782700002,None,,,,,,,,,,,,,,,,,,,,,,,,,,,,,,,,,,,,,,,,,,,,,,,,,,,,,,,,,market,56,67,silent,old,yellow,2599.5958436997607,None,n,2599.5958436997607,None,"['n', 'return']","[0.9281721003353596, 1.064152400009334]",2599.5958436997607,None,,,70ND,001,2023_May_03_1600,ExactRep-v3-final,2021.2.3,59.89372454685583,
,,,,,,,,,,,,67,0,67,0,,,,,,,,,,,,,,,,,,,,,,,,,,,,,,,,,,,,,,,,,,,,,,,,,2602.5056325998157,None,,,,,,,,,,,,,,,,,,,,,,,,,,,,,,,,,,,,,,,,,,,,,,,,,,,,,,,,,cottage,129,68,silent,new,yellow,2601.2161488002166,None,n,2601.2161488002166,None,"['n', 'return']","[1.1957700997591019, 1.2518622996285558]",2601.2161488002166,None,,,70ND,001,2023_May_03_1600,ExactRep-v3-final,2021.2.3,59.89372454685583,
,,,,,,,,,,,,68,0,68,0,,,,,,,,,,,,,,,,,,,,,,,,,,,,,,,,,,,,,,,,,,,,,,,,,2604.0238701999187,None,,,,,,,,,,,,,,,,,,,,,,,,,,,,,,,,,,,,,,,,,,,,,,,,,,,,,,,,,opinion,106,69,aloud,old,yellow,2603.013853800483,None,y,2603.013853800483,None,"['y', 'return']","[0.8700739992782474, 0.9660008000209928]",2603.013853800483,None,,,70ND,001,2023_May_03_1600,ExactRep-v3-final,2021.2.3,59.89372454685583,
,,,,,,,,,,,,69,0,69,0,,,,,,,,,,,,,,,,,,,,,,,,,,,,,,,,,,,,,,,,,,,,,,,,,2605.5418995004147,None,,,,,,,,,,,,,,,,,,,,,,,,,,,,,,,,,,,,,,,,,,,,,,,,,,,,,,,,,hope,174,70,aloud,new,yellow,2604.5255184005946,None,n,2604.5255184005946,None,"['n', 'return']","[0.8464214997366071, 0.9744982998818159]",2604.5255184005946,None,,,70ND,001,2023_May_03_1600,ExactRep-v3-final,2021.2.3,59.89372454685583,
,,,,,,,,,,,,70,0,70,0,,,,,,,,,,,,,,,,,,,,,,,,,,,,,,,,,,,,,,,,,,,,,,,,,2607.0434298003092,None,,,,,,,,,,,,,,,,,,,,,,,,,,,,,,,,,,,,,,,,,,,,,,,,,,,,,,,,,forest,66,71,silent,old,yellow,2606.0549785001203,None,y,2606.0549785001203,None,"['y', 'return']","[0.8369068000465631, 0.9412042004987597]",2606.0549785001203,None,,,70ND,001,2023_May_03_1600,ExactRep-v3-final,2021.2.3,59.89372454685583,
,,,,,,,,,,,,71,0,71,0,,,,,,,,,,,,,,,,,,,,,,,,,,,,,,,,,,,,,,,,,,,,,,,,,2608.678311499767,None,,,,,,,,,,,,,,,,,,,,,,,,,,,,,,,,,,,,,,,,,,,,,,,,,,,,,,,,,pupil,9,72,sing,old,yellow,2607.5503000002354,None,y,2607.5503000002354,None,"['y', 'return']","[0.9819744993001223, 1.0856256997212768]",2607.5503000002354,None,,,70ND,001,2023_May_03_1600,ExactRep-v3-final,2021.2.3,59.89372454685583,
,,,,,,,,,,,,72,0,72,0,,,,,,,,,,,,,,,,,,,,,,,,,,,,,,,,,,,,,,,,,,,,,,,,,2610.0630417000502,None,,,,,,,,,,,,,,,,,,,,,,,,,,,,,,,,,,,,,,,,,,,,,,,,,,,,,,,,,army,167,73,sing,new,yellow,2609.188408800401,None,n,2609.188408800401,None,"['n', 'return']","[0.7115090005099773, 0.8395533999428153]",2609.188408800401,None,,,70ND,001,2023_May_03_1600,ExactRep-v3-final,2021.2.3,59.89372454685583,
,,,,,,,,,,,,73,0,73,0,,,,,,,,,,,,,,,,,,,,,,,,,,,,,,,,,,,,,,,,,,,,,,,,,2611.497967700474,None,,,,,,,,,,,,,,,,,,,,,,,,,,,,,,,,,,,,,,,,,,,,,,,,,,,,,,,,,gift,43,74,silent,old,yellow,2610.5738706998527,None,n,2610.5738706998527,None,"['n', 'return']","[0.7500864006578922, 0.8861139006912708]",2610.5738706998527,None,,,70ND,001,2023_May_03_1600,ExactRep-v3-final,2021.2.3,59.89372454685583,
,,,,,,,,,,,,74,0,74,0,,,,,,,,,,,,,,,,,,,,,,,,,,,,,,,,,,,,,,,,,,,,,,,,,2612.7991367001086,None,,,,,,,,,,,,,,,,,,,,,,,,,,,,,,,,,,,,,,,,,,,,,,,,,,,,,,,,,garden,171,75,sing,new,yellow,2612.0061250003055,None,n,2612.0061250003055,None,"['n', 'return']","[0.6058970000594854, 0.7498880000784993]",2612.0061250003055,None,,,70ND,001,2023_May_03_1600,ExactRep-v3-final,2021.2.3,59.89372454685583,
,,,,,,,,,,,,75,0,75,0,,,,,,,,,,,,,,,,,,,,,,,,,,,,,,,,,,,,,,,,,,,,,,,,,2614.267233800143,None,,,,,,,,,,,,,,,,,,,,,,,,,,,,,,,,,,,,,,,,,,,,,,,,,,,,,,,,,spirit,111,76,aloud,old,yellow,2613.3088555000722,None,y,2613.3088555000722,None,"['y', 'return']","[0.7272848002612591, 0.9111035000532866]",2613.3088555000722,None,,,70ND,001,2023_May_03_1600,ExactRep-v3-final,2021.2.3,59.89372454685583,
,,,,,,,,,,,,76,0,76,0,,,,,,,,,,,,,,,,,,,,,,,,,,,,,,,,,,,,,,,,,,,,,,,,,2615.7521096998826,None,,,,,,,,,,,,,,,,,,,,,,,,,,,,,,,,,,,,,,,,,,,,,,,,,,,,,,,,,tree,146,77,silent,new,yellow,2614.7729762000963,None,y,2614.7729762000963,None,"['y', 'return']","[0.8152572000399232, 0.9430740000680089]",2614.7729762000963,None,,,70ND,001,2023_May_03_1600,ExactRep-v3-final,2021.2.3,59.89372454685583,
,,,,,,,,,,,,77,0,77,0,,,,,,,,,,,,,,,,,,,,,,,,,,,,,,,,,,,,,,,,,,,,,,,,,2617.1046230001375,None,,,,,,,,,,,,,,,,,,,,,,,,,,,,,,,,,,,,,,,,,,,,,,,,,,,,,,,,,custom,224,78,aloud,new,yellow,2616.2655842006207,None,n,2616.2655842006207,None,"['n', 'return']","[0.6504103001207113, 0.8024986004456878]",2616.2655842006207,None,,,70ND,001,2023_May_03_1600,ExactRep-v3-final,2021.2.3,59.89372454685583,
,,,,,,,,,,,,78,0,78,0,,,,,,,,,,,,,,,,,,,,,,,,,,,,,,,,,,,,,,,,,,,,,,,,,2618.388203999959,None,,,,,,,,,,,,,,,,,,,,,,,,,,,,,,,,,,,,,,,,,,,,,,,,,,,,,,,,,amount,49,79,silent,old,yellow,2617.615323400125,None,n,2617.615323400125,None,"['n', 'return']","[0.596751800738275, 0.7409214004874229]",2617.615323400125,None,,,70ND,001,2023_May_03_1600,ExactRep-v3-final,2021.2.3,59.89372454685583,
,,,,,,,,,,,,79,0,79,0,,,,,,,,,,,,,,,,,,,,,,,,,,,,,,,,,,,,,,,,,,,,,,,,,2619.989621100016,None,,,,,,,,,,,,,,,,,,,,,,,,,,,,,,,,,,,,,,,,,,,,,,,,,,,,,,,,,season,173,80,sing,new,yellow,2618.8947001006454,None,n,2618.8947001006454,None,"['n', 'return']","[0.9333413001149893, 1.0613733995705843]",2618.8947001006454,None,,,70ND,001,2023_May_03_1600,ExactRep-v3-final,2021.2.3,59.89372454685583,
,,,,,,,,,,,,80,0,80,0,,,,,,,,,,,,,,,,,,,,,,,,,,,,,,,,,,,,,,,,,,,,,,,,,2621.3077910998836,None,,,,,,,,,,,,,,,,,,,,,,,,,,,,,,,,,,,,,,,,,,,,,,,,,,,,,,,,,silence,55,81,silent,old,yellow,2620.4994005998597,None,n,2620.4994005998597,None,"['n', 'return']","[0.6325385998934507, 0.7605629004538059]",2620.4994005998597,None,,,70ND,001,2023_May_03_1600,ExactRep-v3-final,2021.2.3,59.89372454685583,
,,,,,,,,,,,,81,0,81,0,,,,,,,,,,,,,,,,,,,,,,,,,,,,,,,,,,,,,,,,,,,,,,,,,2622.609102600254,None,,,,,,,,,,,,,,,,,,,,,,,,,,,,,,,,,,,,,,,,,,,,,,,,,,,,,,,,,series,228,82,aloud,new,yellow,2621.817652400583,None,n,2621.817652400583,None,"['n', 'return']","[0.6025822004303336, 0.7544531999155879]",2621.817652400583,None,,,70ND,001,2023_May_03_1600,ExactRep-v3-final,2021.2.3,59.89372454685583,
,,,,,,,,,,,,82,0,82,0,,,,,,,,,,,,,,,,,,,,,,,,,,,,,,,,,,,,,,,,,,,,,,,,,2625.745381399989,None,,,,,,,,,,,,,,,,,,,,,,,,,,,,,,,,,,,,,,,,,,,,,,,,,,,,,,,,,chair,52,83,silent,old,yellow,2623.1135066002607,None,y,2623.1135066002607,None,"['y', 'return']","[2.4745183000341058, 2.5865432005375624]",2623.1135066002607,None,,,70ND,001,2023_May_03_1600,ExactRep-v3-final,2021.2.3,59.89372454685583,
,,,,,,,,,,,,83,0,83,0,,,,,,,,,,,,,,,,,,,,,,,,,,,,,,,,,,,,,,,,,,,,,,,,,2626.979940900579,None,,,,,,,,,,,,,,,,,,,,,,,,,,,,,,,,,,,,,,,,,,,,,,,,,,,,,,,,,beast,89,84,aloud,old,yellow,2626.256833899766,None,n,2626.256833899766,None,"['n', 'return']","[0.5630938000977039, 0.6831032000482082]",2626.256833899766,None,,,70ND,001,2023_May_03_1600,ExactRep-v3-final,2021.2.3,59.89372454685583,
,,,,,,,,,,,,84,0,84,0,,,,,,,,,,,,,,,,,,,,,,,,,,,,,,,,,,,,,,,,,,,,,,,,,2628.6818201001734,None,,,,,,,,,,,,,,,,,,,,,,,,,,,,,,,,,,,,,,,,,,,,,,,,,,,,,,,,,window,53,85,silent,old,yellow,2627.4860204998404,None,y,2627.4860204998404,None,"['y', 'return']","[1.06194750033319, 1.150242899544537]",2627.4860204998404,None,,,70ND,001,2023_May_03_1600,ExactRep-v3-final,2021.2.3,59.89372454685583,
,,,,,,,,,,,,85,0,85,0,,,,,,,,,,,,,,,,,,,,,,,,,,,,,,,,,,,,,,,,,,,,,,,,,2629.9662287998945,None,,,,,,,,,,,,,,,,,,,,,,,,,,,,,,,,,,,,,,,,,,,,,,,,,,,,,,,,,journal,65,86,silent,old,yellow,2629.18920810055,None,n,2629.18920810055,None,"['n', 'return']","[0.5907784998416901, 0.7348028002306819]",2629.18920810055,None,,,70ND,001,2023_May_03_1600,ExactRep-v3-final,2021.2.3,59.89372454685583,
,,,,,,,,,,,,86,0,86,0,,,,,,,,,,,,,,,,,,,,,,,,,,,,,,,,,,,,,,,,,,,,,,,,,2631.267571300268,None,,,,,,,,,,,,,,,,,,,,,,,,,,,,,,,,,,,,,,,,,,,,,,,,,,,,,,,,,doll,170,87,aloud,new,yellow,2630.475402300246,None,n,2630.475402300246,None,"['n', 'return']","[0.6245035994797945, 0.744726300239563]",2630.475402300246,None,,,70ND,001,2023_May_03_1600,ExactRep-v3-final,2021.2.3,59.89372454685583,
,,,,,,,,,,,,87,0,87,0,,,,,,,,,,,,,,,,,,,,,,,,,,,,,,,,,,,,,,,,,,,,,,,,,2634.003668100573,None,,,,,,,,,,,,,,,,,,,,,,,,,,,,,,,,,,,,,,,,,,,,,,,,,,,,,,,,,master,157,88,silent,new,yellow,2631.782656800002,None,n,2631.782656800002,None,"['n', 'return']","[2.0533748995512724, 2.189375899732113]",2631.782656800002,None,,,70ND,001,2023_May_03_1600,ExactRep-v3-final,2021.2.3,59.89372454685583,
,,,,,,,,,,,,88,0,88,0,,,,,,,,,,,,,,,,,,,,,,,,,,,,,,,,,,,,,,,,,,,,,,,,,2635.4050166001543,None,,,,,,,,,,,,,,,,,,,,,,,,,,,,,,,,,,,,,,,,,,,,,,,,,,,,,,,,,time,72,89,silent,old,yellow,2634.5126915005967,None,n,2634.5126915005967,None,"['n', 'return']","[0.6911848997697234, 0.8512932993471622]",2634.5126915005967,None,,,70ND,001,2023_May_03_1600,ExactRep-v3-final,2021.2.3,59.89372454685583,
,,,,,,,,,,,,89,0,89,0,,,,,,,,,,,,,,,,,,,,,,,,,,,,,,,,,,,,,,,,,,,,,,,,,2636.606235800311,None,,,,,,,,,,,,,,,,,,,,,,,,,,,,,,,,,,,,,,,,,,,,,,,,,,,,,,,,,wife,217,90,sing,new,yellow,2635.915901400149,None,n,2635.915901400149,None,"['n', 'return']","[0.5203872993588448, 0.656059599481523]",2635.915901400149,None,,,70ND,001,2023_May_03_1600,ExactRep-v3-final,2021.2.3,59.89372454685583,
,,,,,,,,,,,,90,0,90,0,,,,,,,,,,,,,,,,,,,,,,,,,,,,,,,,,,,,,,,,,,,,,,,,,2637.9076231000945,None,,,,,,,,,,,,,,,,,,,,,,,,,,,,,,,,,,,,,,,,,,,,,,,,,,,,,,,,,bird,236,91,aloud,new,yellow,2637.1150789000094,None,n,2637.1150789000094,None,"['n', 'return']","[0.6089834999293089, 0.7529899999499321]",2637.1150789000094,None,,,70ND,001,2023_May_03_1600,ExactRep-v3-final,2021.2.3,59.89372454685583,
,,,,,,,,,,,,91,0,91,0,,,,,,,,,,,,,,,,,,,,,,,,,,,,,,,,,,,,,,,,,,,,,,,,,2639.7593972999603,None,,,,,,,,,,,,,,,,,,,,,,,,,,,,,,,,,,,,,,,,,,,,,,,,,,,,,,,,,college,134,92,silent,new,yellow,2638.4243314005435,None,n,2638.4243314005435,None,"['n', 'return']","[1.1636374006047845, 1.2917218003422022]",2638.4243314005435,None,,,70ND,001,2023_May_03_1600,ExactRep-v3-final,2021.2.3,59.89372454685583,
,,,,,,,,,,,,92,0,92,0,,,,,,,,,,,,,,,,,,,,,,,,,,,,,,,,,,,,,,,,,,,,,,,,,2641.511142800562,None,,,,,,,,,,,,,,,,,,,,,,,,,,,,,,,,,,,,,,,,,,,,,,,,,,,,,,,,,sea,229,93,sing,new,yellow,2640.2680871002376,None,y,2640.2680871002376,None,"['y', 'return']","[1.1040173005312681, 1.2080179005861282]",2640.2680871002376,None,,,70ND,001,2023_May_03_1600,ExactRep-v3-final,2021.2.3,59.89372454685583,
,,,,,,,,,,,,93,0,93,0,,,,,,,,,,,,,,,,,,,,,,,,,,,,,,,,,,,,,,,,,,,,,,,,,2643.179421200417,None,,,,,,,,,,,,,,,,,,,,,,,,,,,,,,,,,,,,,,,,,,,,,,,,,,,,,,,,,dream,178,94,aloud,new,yellow,2642.02264859993,None,y,2642.02264859993,None,"['y', 'return']","[0.997477600350976, 1.1092980997636914]",2642.02264859993,None,,,70ND,001,2023_May_03_1600,ExactRep-v3-final,2021.2.3,59.89372454685583,
,,,,,,,,,,,,94,0,94,0,,,,,,,,,,,,,,,,,,,,,,,,,,,,,,,,,,,,,,,,,,,,,,,,,2644.5475066006184,None,,,,,,,,,,,,,,,,,,,,,,,,,,,,,,,,,,,,,,,,,,,,,,,,,,,,,,,,,weapon,145,95,silent,new,yellow,2643.685046000406,None,n,2643.685046000406,None,"['n', 'return']","[0.6790021006017923, 0.8231804007664323]",2643.685046000406,None,,,70ND,001,2023_May_03_1600,ExactRep-v3-final,2021.2.3,59.89372454685583,
,,,,,,,,,,,,95,0,95,0,,,,,,,,,,,,,,,,,,,,,,,,,,,,,,,,,,,,,,,,,,,,,,,,,2647.9176205005497,None,,,,,,,,,,,,,,,,,,,,,,,,,,,,,,,,,,,,,,,,,,,,,,,,,,,,,,,,,horse,15,96,sing,old,yellow,2645.0570235000923,None,y,2645.0570235000923,None,"['return', 'y', 'return']","[2.122898600064218, 2.563030299730599, 2.8190631000325084]",2645.0570235000923,None,,,70ND,001,2023_May_03_1600,ExactRep-v3-final,2021.2.3,59.89372454685583,
,,,,,,,,,,,,96,0,96,0,,,,,,,,,,,,,,,,,,,,,,,,,,,,,,,,,,,,,,,,,,,,,,,,,2650.053097399883,None,,,,,,,,,,,,,,,,,,,,,,,,,,,,,,,,,,,,,,,,,,,,,,,,,,,,,,,,,string,113,97,aloud,old,yellow,2648.42724760063,None,n,2648.42724760063,None,"['n', 'return']","[1.4086702996864915, 1.5847557997331023]",2648.42724760063,None,,,70ND,001,2023_May_03_1600,ExactRep-v3-final,2021.2.3,59.89372454685583,
,,,,,,,,,,,,97,0,97,0,,,,,,,,,,,,,,,,,,,,,,,,,,,,,,,,,,,,,,,,,,,,,,,,,2652.438691000454,None,,,,,,,,,,,,,,,,,,,,,,,,,,,,,,,,,,,,,,,,,,,,,,,,,,,,,,,,,apple,75,98,silent,old,yellow,2650.570842400193,None,n,2650.570842400193,None,"['n', 'return']","[1.585223900154233, 1.8332067001610994]",2650.570842400193,None,,,70ND,001,2023_May_03_1600,ExactRep-v3-final,2021.2.3,59.89372454685583,
,,,,,,,,,,,,98,0,98,0,,,,,,,,,,,,,,,,,,,,,,,,,,,,,,,,,,,,,,,,,,,,,,,,,2656.209267400205,None,,,,,,,,,,,,,,,,,,,,,,,,,,,,,,,,,,,,,,,,,,,,,,,,,,,,,,,,,cabin,206,99,aloud,new,yellow,2652.9470226000994,None,n,2652.9470226000994,None,"['return', 'n', 'return']","[0.6329883001744747, 2.409006499685347, 3.217101499438286]",2652.9470226000994,None,,,70ND,001,2023_May_03_1600,ExactRep-v3-final,2021.2.3,59.89372454685583,
,,,,,,,,,,,,99,0,99,0,,,,,,,,,,,,,,,,,,,,,,,,,,,,,,,,,,,,,,,,,,,,,,,,,2657.677432499826,None,,,,,,,,,,,,,,,,,,,,,,,,,,,,,,,,,,,,,,,,,,,,,,,,,,,,,,,,,priest,95,100,aloud,old,yellow,2656.717395800166,None,y,2656.717395800166,None,"['y', 'return']","[0.7270789993926883, 0.9266395997256041]",2656.717395800166,None,,,70ND,001,2023_May_03_1600,ExactRep-v3-final,2021.2.3,59.89372454685583,
,,,,,,,,,,,,100,0,100,0,,,,,,,,,,,,,,,,,,,,,,,,,,,,,,,,,,,,,,,,,,,,,,,,,2659.27898820024,None,,,,,,,,,,,,,,,,,,,,,,,,,,,,,,,,,,,,,,,,,,,,,,,,,,,,,,,,,science,59,101,silent,old,yellow,2658.189649499953,None,n,2658.189649499953,None,"['n', 'return']","[0.9106844002380967, 1.046326500363648]",2658.189649499953,None,,,70ND,001,2023_May_03_1600,ExactRep-v3-final,2021.2.3,59.89372454685583,
,,,,,,,,,,,,101,0,101,0,,,,,,,,,,,,,,,,,,,,,,,,,,,,,,,,,,,,,,,,,,,,,,,,,2662.6992327999324,None,,,,,,,,,,,,,,,,,,,,,,,,,,,,,,,,,,,,,,,,,,,,,,,,,,,,,,,,,coast,31,102,sing,old,yellow,2659.7918025003746,None,n,2659.7918025003746,None,"['n', 'return']","[2.620383099652827, 2.868233999237418]",2659.7918025003746,None,,,70ND,001,2023_May_03_1600,ExactRep-v3-final,2021.2.3,59.89372454685583,
,,,,,,,,,,,,102,0,102,0,,,,,,,,,,,,,,,,,,,,,,,,,,,,,,,,,,,,,,,,,,,,,,,,,2664.4674712000415,None,,,,,,,,,,,,,,,,,,,,,,,,,,,,,,,,,,,,,,,,,,,,,,,,,,,,,,,,,advice,216,103,aloud,new,yellow,2663.2082390002906,None,n,2663.2082390002906,None,"['n', 'return']","[1.083815200254321, 1.2120457999408245]",2663.2082390002906,None,,,70ND,001,2023_May_03_1600,ExactRep-v3-final,2021.2.3,59.89372454685583,
,,,,,,,,,,,,103,0,103,0,,,,,,,,,,,,,,,,,,,,,,,,,,,,,,,,,,,,,,,,,,,,,,,,,2666.1858392003924,None,,,,,,,,,,,,,,,,,,,,,,,,,,,,,,,,,,,,,,,,,,,,,,,,,,,,,,,,,event,142,104,silent,new,yellow,2664.975905600004,None,y,2664.975905600004,None,"['y', 'return']","[1.0681168995797634, 1.164220099337399]",2664.975905600004,None,,,70ND,001,2023_May_03_1600,ExactRep-v3-final,2021.2.3,59.89372454685583,
,,,,,,,,,,,,104,0,104,0,,,,,,,,,,,,,,,,,,,,,,,,,,,,,,,,,,,,,,,,,,,,,,,,,2668.354721800424,None,,,,,,,,,,,,,,,,,,,,,,,,,,,,,,,,,,,,,,,,,,,,,,,,,,,,,,,,,home,12,105,sing,old,yellow,2666.6945890001953,None,n,2666.6945890001953,None,"['n', 'y', 'return']","[0.7334182001650333, 1.2855762001127005, 1.6133795008063316]",2666.6945890001953,None,,,70ND,001,2023_May_03_1600,ExactRep-v3-final,2021.2.3,59.89372454685583,
,,,,,,,,,,,,105,0,105,0,,,,,,,,,,,,,,,,,,,,,,,,,,,,,,,,,,,,,,,,,,,,,,,,,2671.80817040056,None,,,,,,,,,,,,,,,,,,,,,,,,,,,,,,,,,,,,,,,,,,,,,,,,,,,,,,,,,heaven,119,106,aloud,old,yellow,2668.8646269999444,None,y,2668.8646269999444,None,"['y', 'return']","[2.4913894003257155, 2.9074432998895645]",2668.8646269999444,None,,,70ND,001,2023_May_03_1600,ExactRep-v3-final,2021.2.3,59.89372454685583,
,,,,,,,,,,,,106,0,106,0,,,,,,,,,,,,,,,,,,,,,,,,,,,,,,,,,,,,,,,,,,,,,,,,,2673.3764278003946,None,,,,,,,,,,,,,,,,,,,,,,,,,,,,,,,,,,,,,,,,,,,,,,,,,,,,,,,,,duty,130,107,silent,new,yellow,2672.3180970000103,None,n,2672.3180970000103,None,"['n', 'return']","[0.7503581000491977, 1.021968999877572]",2672.3180970000103,None,,,70ND,001,2023_May_03_1600,ExactRep-v3-final,2021.2.3,59.89372454685583,
,,,,,,,,,,,,107,0,107,0,,,,,,,,,,,,,,,,,,,,,,,,,,,,,,,,,,,,,,,,,,,,,,,,,2675.0447799004614,None,,,,,,,,,,,,,,,,,,,,,,,,,,,,,,,,,,,,,,,,,,,,,,,,,,,,,,,,,victory,68,108,silent,old,yellow,2673.8906303998083,None,n,2673.8906303998083,None,"['n', 'return']","[0.7454013004899025, 1.1135121006518602]",2673.8906303998083,None,,,70ND,001,2023_May_03_1600,ExactRep-v3-final,2021.2.3,59.89372454685583,
,,,,,,,,,,,,108,0,108,0,,,,,,,,,,,,,,,,,,,,,,,,,,,,,,,,,,,,,,,,,,,,,,,,,2676.446158000268,None,,,,,,,,,,,,,,,,,,,,,,,,,,,,,,,,,,,,,,,,,,,,,,,,,,,,,,,,,car,127,109,silent,new,yellow,2675.56127830036,None,y,2675.56127830036,None,"['y', 'return']","[0.67491490021348, 0.850751900114119]",2675.56127830036,None,,,70ND,001,2023_May_03_1600,ExactRep-v3-final,2021.2.3,59.89372454685583,
,,,,,,,,,,,,109,0,109,0,,,,,,,,,,,,,,,,,,,,,,,,,,,,,,,,,,,,,,,,,,,,,,,,,2678.2313002003357,None,,,,,,,,,,,,,,,,,,,,,,,,,,,,,,,,,,,,,,,,,,,,,,,,,,,,,,,,,form,225,110,sing,new,yellow,2676.9523998005316,None,n,2676.9523998005316,None,"['n', 'return']","[1.0115507999435067, 1.2356914998963475]",2676.9523998005316,None,,,70ND,001,2023_May_03_1600,ExactRep-v3-final,2021.2.3,59.89372454685583,
,,,,,,,,,,,,110,0,110,0,,,,,,,,,,,,,,,,,,,,,,,,,,,,,,,,,,,,,,,,,,,,,,,,,2679.5994679005817,None,,,,,,,,,,,,,,,,,,,,,,,,,,,,,,,,,,,,,,,,,,,,,,,,,,,,,,,,,iron,176,111,aloud,new,yellow,2678.742294399999,None,n,2678.742294399999,None,"['n', 'return']","[0.6617668000981212, 0.8219111999496818]",2678.742294399999,None,,,70ND,001,2023_May_03_1600,ExactRep-v3-final,2021.2.3,59.89372454685583,
,,,,,,,,,,,,111,0,111,0,,,,,,,,,,,,,,,,,,,,,,,,,,,,,,,,,,,,,,,,,,,,,,,,,2681.0841466002166,None,,,,,,,,,,,,,,,,,,,,,,,,,,,,,,,,,,,,,,,,,,,,,,,,,,,,,,,,,party,162,112,aloud,new,yellow,2680.105922100134,None,n,2680.105922100134,None,"['n', 'return']","[0.7541306000202894, 0.9461638005450368]",2680.105922100134,None,,,70ND,001,2023_May_03_1600,ExactRep-v3-final,2021.2.3,59.89372454685583,
,,,,,,,,,,,,112,0,112,0,,,,,,,,,,,,,,,,,,,,,,,,,,,,,,,,,,,,,,,,,,,,,,,,,2682.9859421998262,None,,,,,,,,,,,,,,,,,,,,,,,,,,,,,,,,,,,,,,,,,,,,,,,,,,,,,,,,,dust,115,113,aloud,old,yellow,2681.5927352998406,None,y,2681.5927352998406,None,"['y', 'return']","[1.1794692995026708, 1.3473771000280976]",2681.5927352998406,None,,,70ND,001,2023_May_03_1600,ExactRep-v3-final,2021.2.3,59.89372454685583,
,,,,,,,,,,,,113,0,113,0,,,,,,,,,,,,,,,,,,,,,,,,,,,,,,,,,,,,,,,,,,,,,,,,,2684.9880340006202,None,,,,,,,,,,,,,,,,,,,,,,,,,,,,,,,,,,,,,,,,,,,,,,,,,,,,,,,,,paper,205,114,sing,new,yellow,2683.49429509975,None,n,2683.49429509975,None,"['n', 'return']","[1.3177260998636484, 1.4537265999242663]",2683.49429509975,None,,,70ND,001,2023_May_03_1600,ExactRep-v3-final,2021.2.3,59.89372454685583,
,,,,,,,,,,,,114,0,114,0,,,,,,,,,,,,,,,,,,,,,,,,,,,,,,,,,,,,,,,,,,,,,,,,,2686.7730870004743,None,,,,,,,,,,,,,,,,,,,,,,,,,,,,,,,,,,,,,,,,,,,,,,,,,,,,,,,,,sky,163,115,sing,new,yellow,2685.4960556002334,None,n,2685.4960556002334,None,"['n', 'return']","[1.1081788996234536, 1.2443447997793555]",2685.4960556002334,None,,,70ND,001,2023_May_03_1600,ExactRep-v3-final,2021.2.3,59.89372454685583,
,,,,,,,,,,,,115,0,115,0,,,,,,,,,,,,,,,,,,,,,,,,,,,,,,,,,,,,,,,,,,,,,,,,,2688.3914403999224,None,,,,,,,,,,,,,,,,,,,,,,,,,,,,,,,,,,,,,,,,,,,,,,,,,,,,,,,,,moral,99,116,aloud,old,yellow,2687.28337199986,None,y,2687.28337199986,None,"['y', 'return']","[0.9206627998501062, 1.0647134995087981]",2687.28337199986,None,,,70ND,001,2023_May_03_1600,ExactRep-v3-final,2021.2.3,59.89372454685583,
,,,,,,,,,,,,116,0,116,0,,,,,,,,,,,,,,,,,,,,,,,,,,,,,,,,,,,,,,,,,,,,,,,,,2689.842894700356,None,,,,,,,,,,,,,,,,,,,,,,,,,,,,,,,,,,,,,,,,,,,,,,,,,,,,,,,,,meeting,158,117,silent,new,yellow,2688.9011396002024,None,n,2688.9011396002024,None,"['n', 'return']","[0.7191286003217101, 0.9030494000762701]",2688.9011396002024,None,,,70ND,001,2023_May_03_1600,ExactRep-v3-final,2021.2.3,59.89372454685583,
,,,,,,,,,,,,117,0,117,0,,,,,,,,,,,,,,,,,,,,,,,,,,,,,,,,,,,,,,,,,,,,,,,,,2691.344388499856,None,,,,,,,,,,,,,,,,,,,,,,,,,,,,,,,,,,,,,,,,,,,,,,,,,,,,,,,,,green,63,118,silent,old,yellow,2690.352122900076,None,n,2690.352122900076,None,"['n', 'return']","[0.7959866002202034, 0.947881399653852]",2690.352122900076,None,,,70ND,001,2023_May_03_1600,ExactRep-v3-final,2021.2.3,59.89372454685583,
,,,,,,,,,,,,118,0,118,0,,,,,,,,,,,,,,,,,,,,,,,,,,,,,,,,,,,,,,,,,,,,,,,,,2693.229605000466,None,,,,,,,,,,,,,,,,,,,,,,,,,,,,,,,,,,,,,,,,,,,,,,,,,,,,,,,,,cost,209,119,sing,new,yellow,2691.85337060038,None,n,2691.85337060038,None,"['n', 'return']","[1.1909485002979636, 1.3426814004778862]",2691.85337060038,None,,,70ND,001,2023_May_03_1600,ExactRep-v3-final,2021.2.3,59.89372454685583,
,,,,,,,,,,,,119,0,119,0,,,,,,,,,,,,,,,,,,,,,,,,,,,,,,,,,,,,,,,,,,,,,,,,,2694.8147040000185,None,,,,,,,,,,,,,,,,,,,,,,,,,,,,,,,,,,,,,,,,,,,,,,,,,,,,,,,,,vision,45,120,silent,old,yellow,2693.746957000345,None,n,2693.746957000345,None,"['n', 'return']","[0.8971522999927402, 1.0331602999940515]",2693.746957000345,None,,,70ND,001,2023_May_03_1600,ExactRep-v3-final,2021.2.3,59.89372454685583,
,,,,,,,,,,,,120,0,120,0,,,,,,,,,,,,,,,,,,,,,,,,,,,,,,,,,,,,,,,,,,,,,,,,,2697.283647700213,None,,,,,,,,,,,,,,,,,,,,,,,,,,,,,,,,,,,,,,,,,,,,,,,,,,,,,,,,,poet,188,121,aloud,new,yellow,2695.320101399906,None,n,2695.320101399906,None,"['n', 'return']","[1.772001899778843, 1.924176000058651]",2695.320101399906,None,,,70ND,001,2023_May_03_1600,ExactRep-v3-final,2021.2.3,59.89372454685583,
,,,,,,,,,,,,121,0,121,0,,,,,,,,,,,,,,,,,,,,,,,,,,,,,,,,,,,,,,,,,,,,,,,,,2698.7184289004654,None,,,,,,,,,,,,,,,,,,,,,,,,,,,,,,,,,,,,,,,,,,,,,,,,,,,,,,,,,village,86,122,aloud,old,yellow,2697.79571100045,None,y,2697.79571100045,None,"['y', 'return']","[0.7685580998659134, 0.8882996998727322]",2697.79571100045,None,,,70ND,001,2023_May_03_1600,ExactRep-v3-final,2021.2.3,59.89372454685583,
,,,,,,,,,,,,122,0,122,0,,,,,,,,,,,,,,,,,,,,,,,,,,,,,,,,,,,,,,,,,,,,,,,,,2700.0364218000323,None,,,,,,,,,,,,,,,,,,,,,,,,,,,,,,,,,,,,,,,,,,,,,,,,,,,,,,,,,soil,105,123,aloud,old,yellow,2699.22535029985,None,y,2699.22535029985,None,"['y', 'return']","[0.6746638994663954, 0.7789062997326255]",2699.22535029985,None,,,70ND,001,2023_May_03_1600,ExactRep-v3-final,2021.2.3,59.89372454685583,
,,,,,,,,,,,,123,0,123,0,,,,,,,,,,,,,,,,,,,,,,,,,,,,,,,,,,,,,,,,,,,,,,,,,2701.471095699817,None,,,,,,,,,,,,,,,,,,,,,,,,,,,,,,,,,,,,,,,,,,,,,,,,,,,,,,,,,troops,215,124,sing,new,yellow,2700.55497200042,None,n,2700.55497200042,None,"['n', 'return']","[0.6570674004033208, 0.8730584997683764]",2700.55497200042,None,,,70ND,001,2023_May_03_1600,ExactRep-v3-final,2021.2.3,59.89372454685583,
,,,,,,,,,,,,124,0,124,0,,,,,,,,,,,,,,,,,,,,,,,,,,,,,,,,,,,,,,,,,,,,,,,,,2703.423258599825,None,,,,,,,,,,,,,,,,,,,,,,,,,,,,,,,,,,,,,,,,,,,,,,,,,,,,,,,,,chief,210,125,aloud,new,yellow,2701.9820221997797,None,y,2701.9820221997797,None,"['y', 'return']","[1.30203009955585, 1.4060614993795753]",2701.9820221997797,None,,,70ND,001,2023_May_03_1600,ExactRep-v3-final,2021.2.3,59.89372454685583,
,,,,,,,,,,,,125,0,125,0,,,,,,,,,,,,,,,,,,,,,,,,,,,,,,,,,,,,,,,,,,,,,,,,,2704.707751300186,None,,,,,,,,,,,,,,,,,,,,,,,,,,,,,,,,,,,,,,,,,,,,,,,,,,,,,,,,,vessel,164,126,aloud,new,yellow,2703.9329727999866,None,n,2703.9329727999866,None,"['n', 'return']","[0.5511288000270724, 0.7269874000921845]",2703.9329727999866,None,,,70ND,001,2023_May_03_1600,ExactRep-v3-final,2021.2.3,59.89372454685583,
,,,,,,,,,,,,126,0,126,0,,,,,,,,,,,,,,,,,,,,,,,,,,,,,,,,,,,,,,,,,,,,,,,,,2706.3259846,None,,,,,,,,,,,,,,,,,,,,,,,,,,,,,,,,,,,,,,,,,,,,,,,,,,,,,,,,,lip,85,127,aloud,old,yellow,2705.2177221998572,None,y,2705.2177221998572,None,"['y', 'return']","[0.9062736006453633, 1.0663729002699256]",2705.2177221998572,None,,,70ND,001,2023_May_03_1600,ExactRep-v3-final,2021.2.3,59.89372454685583,
,,,,,,,,,,,,127,0,127,0,,,,,,,,,,,,,,,,,,,,,,,,,,,,,,,,,,,,,,,,,,,,,,,,,2708.2446183003485,None,,,,,,,,,,,,,,,,,,,,,,,,,,,,,,,,,,,,,,,,,,,,,,,,,,,,,,,,,moment,62,128,silent,old,yellow,2706.8369406005368,None,y,2706.8369406005368,None,"['y', 'return']","[1.2711096005514264, 1.375190400518477]",2706.8369406005368,None,,,70ND,001,2023_May_03_1600,ExactRep-v3-final,2021.2.3,59.89372454685583,
,,,,,,,,,,,,128,0,128,0,,,,,,,,,,,,,,,,,,,,,,,,,,,,,,,,,,,,,,,,,,,,,,,,,2709.529255100526,None,,,,,,,,,,,,,,,,,,,,,,,,,,,,,,,,,,,,,,,,,,,,,,,,,,,,,,,,,pipe,32,129,sing,old,yellow,2708.755633899942,None,y,2708.755633899942,None,"['y', 'return']","[0.6403235998004675, 0.7363024996593595]",2708.755633899942,None,,,70ND,001,2023_May_03_1600,ExactRep-v3-final,2021.2.3,59.89372454685583,
,,,,,,,,,,,,129,0,129,0,,,,,,,,,,,,,,,,,,,,,,,,,,,,,,,,,,,,,,,,,,,,,,,,,2711.214144900441,None,,,,,,,,,,,,,,,,,,,,,,,,,,,,,,,,,,,,,,,,,,,,,,,,,,,,,,,,,fun,71,130,silent,old,yellow,2710.0386212999,None,y,2710.0386212999,None,"['y', 'return']","[1.0134242996573448, 1.133584899827838]",2710.0386212999,None,,,70ND,001,2023_May_03_1600,ExactRep-v3-final,2021.2.3,59.89372454685583,
