trials_fam.thisRepN,trials_fam.thisTrialN,trials_fam.thisN,trials_fam.thisIndex,trials_prc.thisRepN,trials_prc.thisTrialN,trials_prc.thisN,trials_prc.thisIndex,StudyLoop.thisRepN,StudyLoop.thisTrialN,StudyLoop.thisN,StudyLoop.thisIndex,TestLoop.thisRepN,TestLoop.thisTrialN,TestLoop.thisN,TestLoop.thisIndex,text_colortest.started,text_colortest.stopped,key_colortest.keys,key_colortest.rt,key_colortest.started,key_colortest.stopped,textCondition.started,textCondition.stopped,keyCondition.keys,keyCondition.rt,keyCondition.started,keyCondition.stopped,Condition_between,Condition_counterbal,keyWelcome.keys,keyWelcome.rt,keyWelcome.started,keyWelcome.stopped,welcome_a.started,welcome_a.stopped,welcome_b.started,welcome_b.stopped,welcome_c.started,welcome_c.stopped,welcome_d.started,welcome_d.stopped,welcome_e.started,welcome_e.stopped,welcome_f.started,welcome_f.stopped,key_resp_fam_inst.keys,key_resp_fam_inst.rt,key_resp_fam_inst.started,key_resp_fam_inst.stopped,fam_a.started,fam_a.stopped,fam_b.started,fam_b.stopped,fam_c.started,fam_c.stopped,fam_d.started,fam_d.stopped,fam_e.started,fam_e.stopped,fam_f.started,fam_f.stopped,text_famil.started,text_famil.stopped,textBlank500.started,textBlank500.stopped,key_resp_prc_inst.keys,key_resp_prc_inst.rt,key_resp_prc_inst.started,key_resp_prc_inst.stopped,prac_a.started,prac_a.stopped,prac_b.started,prac_b.stopped,prac_c.started,prac_c.stopped,prac_d.started,prac_d.stopped,prac_e.started,prac_e.stopped,prac_f.started,prac_f.stopped,text_prc_trial.started,text_prc_trial.stopped,key_resp_study_inst.keys,key_resp_study_inst.rt,key_resp_study_inst.started,key_resp_study_inst.stopped,crit_a.started,crit_a.stopped,crit_b.started,crit_b.stopped,crit_c.started,crit_c.stopped,crit_d.started,crit_d.stopped,crit_e.started,crit_e.stopped,crit_f.started,crit_f.stopped,study_word,study_num,study_order,study_type,word_color,textStudy.started,textStudy.stopped,keyStudy.keys,keyStudy.started,keyStudy.stopped,post_study.started,post_study.stopped,key_resp_post_study.keys,key_resp_post_study.rt,key_resp_post_study.started,key_resp_post_study.stopped,test_inst.started,test_inst.stopped,key_resp_test_inst.keys,key_resp_test_inst.rt,key_resp_test_inst.started,key_resp_test_inst.stopped,test_word,test_num,test_order,test_condition,old_new_test,word_color_test,textConf.started,textConf.stopped,Participant Response,textInput.started,textInput.stopped,keyResp.keys,keyResp.rt,keyResp.started,keyResp.stopped,textEnd.started,textEnd.stopped,participant,session,date,expName,psychopyVersion,frameRate,
,,,,,,,,,,,,,,,,19.71684030070901,None,n,0.8264955999329686,19.71684030070901,None,,,,,,,,,,,,,,,,,,,,,,,,,,,,,,,,,,,,,,,,,,,,,,,,,,,,,,,,,,,,,,,,,,,,,,,,,,,,,,,,,,,,,,,,,,,,,,,,,,,,,,,,,,,,,,,,,,,,,,71NE,001,2023_May_03_1701,ExactRep-v3-final,2021.2.3,59.96088125112583,
,,,,,,,,,,,,,,,,,,,,,,20.56895360071212,None,e,0.9663895992562175,20.56895360071212,None,,,,,,,,,,,,,,,,,,,,,,,,,,,,,,,,,,,,,,,,,,,,,,,,,,,,,,,,,,,,,,,,,,,,,,,,,,,,,,,,,,,,,,,,,,,,,,,,,,,,,,,,,,,,,,,,71NE,001,2023_May_03_1701,ExactRep-v3-final,2021.2.3,59.96088125112583,
,,,,,,,,,,,,,,,,,,,,,,,,,,,,whitefoils,e,space,1871.7604538006708,31.63285030052066,None,,,,,,,,,,,,,,,,,,,,,,,,,,,,,,,,,,,,,,,,,,,,,,,,,,,,,,,,,,,,,,,,,,,,,,,,,,,,,,,,,,,,,,,,,,,,,,,,,,,,,,,,,,71NE,001,2023_May_03_1701,ExactRep-v3-final,2021.2.3,59.96088125112583,
,,,,,,,,,,,,,,,,,,,,,,,,,,,,,,,,,,21.70614100061357,None,21.70614100061357,None,21.70614100061357,None,21.70614100061357,None,21.70614100061357,None,21.70614100061357,None,space,17.226808399893343,1913.5261157006025,None,,,,,,,,,,,,,,,,,,,,,,,,,,,,,,,,,,,,,,,,,,,,,,,,,,,,,,,,,,,,,,,,,,,,,,,,,,,,,,,,,,,,,,,,,,71NE,001,2023_May_03_1701,ExactRep-v3-final,2021.2.3,59.96088125112583,
0,0,0,0,,,,,,,,,,,,,,,,,,,,,,,,,,,,,,,,,,,,,,,,,,,,,,,1903.5472193006426,None,1903.5472193006426,None,1903.5472193006426,None,1903.5472193006426,None,1903.5472193006426,None,1903.5472193006426,None,1930.8795107007027,None,1932.8808955000713,None,,,,,,,,,,,,,,,,,,,,,,,,,,,,,,,,,,,,,,,,,,,,,,,,,,,,,,,,,,,,,,,,,,,,,,,,,,71NE,001,2023_May_03_1701,ExactRep-v3-final,2021.2.3,59.96088125112583,
1,0,1,0,,,,,,,,,,,,,,,,,,,,,,,,,,,,,,,,,,,,,,,,,,,,,,,,,,,,,,,,,,,1933.3816724000499,None,1935.3834778005257,None,,,,,,,,,,,,,,,,,,,,,,,,,,,,,,,,,,,,,,,,,,,,,,,,,,,,,,,,,,,,,,,,,,,,,,,,,,71NE,001,2023_May_03_1701,ExactRep-v3-final,2021.2.3,59.96088125112583,
2,0,2,0,,,,,,,,,,,,,,,,,,,,,,,,,,,,,,,,,,,,,,,,,,,,,,,,,,,,,,,,,,,1935.897617599927,None,1937.9029157999903,None,,,,,,,,,,,,,,,,,,,,,,,,,,,,,,,,,,,,,,,,,,,,,,,,,,,,,,,,,,,,,,,,,,,,,,,,,,71NE,001,2023_May_03_1701,ExactRep-v3-final,2021.2.3,59.96088125112583,
3,0,3,0,,,,,,,,,,,,,,,,,,,,,,,,,,,,,,,,,,,,,,,,,,,,,,,,,,,,,,,,,,,1938.4266881998628,None,1940.4219708004966,None,,,,,,,,,,,,,,,,,,,,,,,,,,,,,,,,,,,,,,,,,,,,,,,,,,,,,,,,,,,,,,,,,,,,,,,,,,71NE,001,2023_May_03_1701,ExactRep-v3-final,2021.2.3,59.96088125112583,
4,0,4,0,,,,,,,,,,,,,,,,,,,,,,,,,,,,,,,,,,,,,,,,,,,,,,,,,,,,,,,,,,,1940.9224388999864,None,1942.9243592005223,None,,,,,,,,,,,,,,,,,,,,,,,,,,,,,,,,,,,,,,,,,,,,,,,,,,,,,,,,,,,,,,,,,,,,,,,,,,71NE,001,2023_May_03_1701,ExactRep-v3-final,2021.2.3,59.96088125112583,
5,0,5,0,,,,,,,,,,,,,,,,,,,,,,,,,,,,,,,,,,,,,,,,,,,,,,,,,,,,,,,,,,,1943.425079099834,None,1945.427144200541,None,,,,,,,,,,,,,,,,,,,,,,,,,,,,,,,,,,,,,,,,,,,,,,,,,,,,,,,,,,,,,,,,,,,,,,,,,,71NE,001,2023_May_03_1701,ExactRep-v3-final,2021.2.3,59.96088125112583,
6,0,6,0,,,,,,,,,,,,,,,,,,,,,,,,,,,,,,,,,,,,,,,,,,,,,,,,,,,,,,,,,,,1945.927443800494,None,1947.9295450001955,None,,,,,,,,,,,,,,,,,,,,,,,,,,,,,,,,,,,,,,,,,,,,,,,,,,,,,,,,,,,,,,,,,,,,,,,,,,71NE,001,2023_May_03_1701,ExactRep-v3-final,2021.2.3,59.96088125112583,
7,0,7,0,,,,,,,,,,,,,,,,,,,,,,,,,,,,,,,,,,,,,,,,,,,,,,,,,,,,,,,,,,,1948.4345539007336,None,1950.4487297004089,None,,,,,,,,,,,,,,,,,,,,,,,,,,,,,,,,,,,,,,,,,,,,,,,,,,,,,,,,,,,,,,,,,,,,,,,,,,71NE,001,2023_May_03_1701,ExactRep-v3-final,2021.2.3,59.96088125112583,
8,0,8,0,,,,,,,,,,,,,,,,,,,,,,,,,,,,,,,,,,,,,,,,,,,,,,,,,,,,,,,,,,,1950.9491058001295,None,1952.951042899862,None,,,,,,,,,,,,,,,,,,,,,,,,,,,,,,,,,,,,,,,,,,,,,,,,,,,,,,,,,,,,,,,,,,,,,,,,,,71NE,001,2023_May_03_1701,ExactRep-v3-final,2021.2.3,59.96088125112583,
9,0,9,0,,,,,,,,,,,,,,,,,,,,,,,,,,,,,,,,,,,,,,,,,,,,,,,,,,,,,,,,,,,1953.4540281007066,None,1955.4536947002634,None,,,,,,,,,,,,,,,,,,,,,,,,,,,,,,,,,,,,,,,,,,,,,,,,,,,,,,,,,,,,,,,,,,,,,,,,,,71NE,001,2023_May_03_1701,ExactRep-v3-final,2021.2.3,59.96088125112583,
10,0,10,0,,,,,,,,,,,,,,,,,,,,,,,,,,,,,,,,,,,,,,,,,,,,,,,,,,,,,,,,,,,1955.9583570007235,None,1957.9729364998639,None,,,,,,,,,,,,,,,,,,,,,,,,,,,,,,,,,,,,,,,,,,,,,,,,,,,,,,,,,,,,,,,,,,,,,,,,,,71NE,001,2023_May_03_1701,ExactRep-v3-final,2021.2.3,59.96088125112583,
11,0,11,0,,,,,,,,,,,,,,,,,,,,,,,,,,,,,,,,,,,,,,,,,,,,,,,,,,,,,,,,,,,1958.4751216005534,None,1960.4751647002995,None,,,,,,,,,,,,,,,,,,,,,,,,,,,,,,,,,,,,,,,,,,,,,,,,,,,,,,,,,,,,,,,,,,,,,,,,,,71NE,001,2023_May_03_1701,ExactRep-v3-final,2021.2.3,59.96088125112583,
12,0,12,0,,,,,,,,,,,,,,,,,,,,,,,,,,,,,,,,,,,,,,,,,,,,,,,,,,,,,,,,,,,1960.9834718005732,None,1962.9946054005995,None,,,,,,,,,,,,,,,,,,,,,,,,,,,,,,,,,,,,,,,,,,,,,,,,,,,,,,,,,,,,,,,,,,,,,,,,,,71NE,001,2023_May_03_1701,ExactRep-v3-final,2021.2.3,59.96088125112583,
13,0,13,0,,,,,,,,,,,,,,,,,,,,,,,,,,,,,,,,,,,,,,,,,,,,,,,,,,,,,,,,,,,1963.4951504003257,None,1965.4971115002409,None,,,,,,,,,,,,,,,,,,,,,,,,,,,,,,,,,,,,,,,,,,,,,,,,,,,,,,,,,,,,,,,,,,,,,,,,,,71NE,001,2023_May_03_1701,ExactRep-v3-final,2021.2.3,59.96088125112583,
14,0,14,0,,,,,,,,,,,,,,,,,,,,,,,,,,,,,,,,,,,,,,,,,,,,,,,,,,,,,,,,,,,1966.0022330004722,None,1968.0163850998506,None,,,,,,,,,,,,,,,,,,,,,,,,,,,,,,,,,,,,,,,,,,,,,,,,,,,,,,,,,,,,,,,,,,,,,,,,,,71NE,001,2023_May_03_1701,ExactRep-v3-final,2021.2.3,59.96088125112583,
,,,,,,,,,,,,,,,,,,,,,,,,,,,,,,,,,,,,,,,,,,,,,,,,,,,,,,,,,,,,,,,,,,space,13.445881200022995,1978.651199100539,None,,,,,,,,,,,,,,,,,,,,,,,,,,,,,,,,,,,,,,,,,,,,,,,,,,,,,,,,,,,,,,,,,,,,,,71NE,001,2023_May_03_1701,ExactRep-v3-final,2021.2.3,59.96088125112583,
,,,,0,0,0,0,,,,,,,,,,,,,,,,,,,,,,,,,,,,,,,,,,,,,,,,,,,,,,,,,,,,,,,,,1994.1758973002434,None,,,,,1968.6734972000122,None,1968.6734972000122,None,1968.6734972000122,None,1968.6734972000122,None,1968.6734972000122,None,1968.6734972000122,None,1992.1722375005484,None,,,,,,,,,,,,,,,,,,,,,,,,,,,,,,,,,,,,,,,,,,,,,,,,,,,,,,,,71NE,001,2023_May_03_1701,ExactRep-v3-final,2021.2.3,59.96088125112583,
,,,,1,0,1,0,,,,,,,,,,,,,,,,,,,,,,,,,,,,,,,,,,,,,,,,,,,,,,,,,,,,,,,,,1996.6780797000974,None,,,,,,,,,,,,,,,,,1994.6763848001137,None,,,,,,,,,,,,,,,,,,,,,,,,,,,,,,,,,,,,,,,,,,,,,,,,,,,,,,,,71NE,001,2023_May_03_1701,ExactRep-v3-final,2021.2.3,59.96088125112583,
,,,,2,0,2,0,,,,,,,,,,,,,,,,,,,,,,,,,,,,,,,,,,,,,,,,,,,,,,,,,,,,,,,,,1999.1807492002845,None,,,,,,,,,,,,,,,,,1997.1789036998525,None,,,,,,,,,,,,,,,,,,,,,,,,,,,,,,,,,,,,,,,,,,,,,,,,,,,,,,,,71NE,001,2023_May_03_1701,ExactRep-v3-final,2021.2.3,59.96088125112583,
,,,,3,0,3,0,,,,,,,,,,,,,,,,,,,,,,,,,,,,,,,,,,,,,,,,,,,,,,,,,,,,,,,,,2001.6832180004567,None,,,,,,,,,,,,,,,,,1999.68119319994,None,,,,,,,,,,,,,,,,,,,,,,,,,,,,,,,,,,,,,,,,,,,,,,,,,,,,,,,,71NE,001,2023_May_03_1701,ExactRep-v3-final,2021.2.3,59.96088125112583,
,,,,4,0,4,0,,,,,,,,,,,,,,,,,,,,,,,,,,,,,,,,,,,,,,,,,,,,,,,,,,,,,,,,,2004.1857935003936,None,,,,,,,,,,,,,,,,,2002.1838028999045,None,,,,,,,,,,,,,,,,,,,,,,,,,,,,,,,,,,,,,,,,,,,,,,,,,,,,,,,,71NE,001,2023_May_03_1701,ExactRep-v3-final,2021.2.3,59.96088125112583,
,,,,5,0,5,0,,,,,,,,,,,,,,,,,,,,,,,,,,,,,,,,,,,,,,,,,,,,,,,,,,,,,,,,,2006.6882458003238,None,,,,,,,,,,,,,,,,,2004.6862375000492,None,,,,,,,,,,,,,,,,,,,,,,,,,,,,,,,,,,,,,,,,,,,,,,,,,,,,,,,,71NE,001,2023_May_03_1701,ExactRep-v3-final,2021.2.3,59.96088125112583,
,,,,6,0,6,0,,,,,,,,,,,,,,,,,,,,,,,,,,,,,,,,,,,,,,,,,,,,,,,,,,,,,,,,,2009.1906808000058,None,,,,,,,,,,,,,,,,,2007.1888369005173,None,,,,,,,,,,,,,,,,,,,,,,,,,,,,,,,,,,,,,,,,,,,,,,,,,,,,,,,,71NE,001,2023_May_03_1701,ExactRep-v3-final,2021.2.3,59.96088125112583,
,,,,7,0,7,0,,,,,,,,,,,,,,,,,,,,,,,,,,,,,,,,,,,,,,,,,,,,,,,,,,,,,,,,,2011.6933623999357,None,,,,,,,,,,,,,,,,,2009.6913053998724,None,,,,,,,,,,,,,,,,,,,,,,,,,,,,,,,,,,,,,,,,,,,,,,,,,,,,,,,,71NE,001,2023_May_03_1701,ExactRep-v3-final,2021.2.3,59.96088125112583,
,,,,8,0,8,0,,,,,,,,,,,,,,,,,,,,,,,,,,,,,,,,,,,,,,,,,,,,,,,,,,,,,,,,,2014.1958117000759,None,,,,,,,,,,,,,,,,,2012.193866200745,None,,,,,,,,,,,,,,,,,,,,,,,,,,,,,,,,,,,,,,,,,,,,,,,,,,,,,,,,71NE,001,2023_May_03_1701,ExactRep-v3-final,2021.2.3,59.96088125112583,
,,,,9,0,9,0,,,,,,,,,,,,,,,,,,,,,,,,,,,,,,,,,,,,,,,,,,,,,,,,,,,,,,,,,2016.6982634998858,None,,,,,,,,,,,,,,,,,2014.69629490003,None,,,,,,,,,,,,,,,,,,,,,,,,,,,,,,,,,,,,,,,,,,,,,,,,,,,,,,,,71NE,001,2023_May_03_1701,ExactRep-v3-final,2021.2.3,59.96088125112583,
,,,,10,0,10,0,,,,,,,,,,,,,,,,,,,,,,,,,,,,,,,,,,,,,,,,,,,,,,,,,,,,,,,,,2019.200882700272,None,,,,,,,,,,,,,,,,,2017.1988572999835,None,,,,,,,,,,,,,,,,,,,,,,,,,,,,,,,,,,,,,,,,,,,,,,,,,,,,,,,,71NE,001,2023_May_03_1701,ExactRep-v3-final,2021.2.3,59.96088125112583,
,,,,11,0,11,0,,,,,,,,,,,,,,,,,,,,,,,,,,,,,,,,,,,,,,,,,,,,,,,,,,,,,,,,,2021.703316600062,None,,,,,,,,,,,,,,,,,2019.7013428006321,None,,,,,,,,,,,,,,,,,,,,,,,,,,,,,,,,,,,,,,,,,,,,,,,,,,,,,,,,71NE,001,2023_May_03_1701,ExactRep-v3-final,2021.2.3,59.96088125112583,
,,,,12,0,12,0,,,,,,,,,,,,,,,,,,,,,,,,,,,,,,,,,,,,,,,,,,,,,,,,,,,,,,,,,2024.20593390055,None,,,,,,,,,,,,,,,,,2022.203896800056,None,,,,,,,,,,,,,,,,,,,,,,,,,,,,,,,,,,,,,,,,,,,,,,,,,,,,,,,,71NE,001,2023_May_03_1701,ExactRep-v3-final,2021.2.3,59.96088125112583,
,,,,13,0,13,0,,,,,,,,,,,,,,,,,,,,,,,,,,,,,,,,,,,,,,,,,,,,,,,,,,,,,,,,,2026.7082743998617,None,,,,,,,,,,,,,,,,,2024.7061157003045,None,,,,,,,,,,,,,,,,,,,,,,,,,,,,,,,,,,,,,,,,,,,,,,,,,,,,,,,,71NE,001,2023_May_03_1701,ExactRep-v3-final,2021.2.3,59.96088125112583,
,,,,14,0,14,0,,,,,,,,,,,,,,,,,,,,,,,,,,,,,,,,,,,,,,,,,,,,,,,,,,,,,,,,,2029.2107981005684,None,,,,,,,,,,,,,,,,,2027.20884830039,None,,,,,,,,,,,,,,,,,,,,,,,,,,,,,,,,,,,,,,,,,,,,,,,,,,,,,,,,71NE,001,2023_May_03_1701,ExactRep-v3-final,2021.2.3,59.96088125112583,
,,,,,,,,,,,,,,,,,,,,,,,,,,,,,,,,,,,,,,,,,,,,,,,,,,,,,,,,,,,,,,,,,,,,,,,,,,,,,,,,,,,,space,23.830453300848603,2039.858653800562,None,,,,,,,,,,,,,,,,,,,,,,,,,,,,,,,,,,,,,,,,,,,,,,,,,,,,71NE,001,2023_May_03_1701,ExactRep-v3-final,2021.2.3,59.96088125112583,
,,,,,,,,0,0,0,0,,,,,,,,,,,,,,,,,,,,,,,,,,,,,,,,,,,,,,,,,,,,,,,,,,,,,2065.7971825003624,None,,,,,,,,,,,,,,,,,,,,,,,2029.9035534998402,None,2029.9035534998402,None,2029.9035534998402,None,2029.9035534998402,None,2029.9035534998402,None,2029.9035534998402,None,colony,31,1,sing,blue,2063.7873527007177,None,None,2063.7873527007177,None,,,,,,,,,,,,,,,,,,,,,,,,,,,,,,71NE,001,2023_May_03_1701,ExactRep-v3-final,2021.2.3,59.96088125112583,
,,,,,,,,1,0,1,0,,,,,,,,,,,,,,,,,,,,,,,,,,,,,,,,,,,,,,,,,,,,,,,,,,,,,2068.3165632002056,None,,,,,,,,,,,,,,,,,,,,,,,,,,,,,,,,,,,safety,61,2,silent,red,2066.305084700696,None,None,2066.305084700696,None,,,,,,,,,,,,,,,,,,,,,,,,,,,,,,71NE,001,2023_May_03_1701,ExactRep-v3-final,2021.2.3,59.96088125112583,
,,,,,,,,2,0,2,0,,,,,,,,,,,,,,,,,,,,,,,,,,,,,,,,,,,,,,,,,,,,,,,,,,,,,2070.8190656006336,None,,,,,,,,,,,,,,,,,,,,,,,,,,,,,,,,,,,city,93,3,aloud,white,2068.819408500567,None,None,2068.819408500567,None,,,,,,,,,,,,,,,,,,,,,,,,,,,,,,71NE,001,2023_May_03_1701,ExactRep-v3-final,2021.2.3,59.96088125112583,
,,,,,,,,3,0,3,0,,,,,,,,,,,,,,,,,,,,,,,,,,,,,,,,,,,,,,,,,,,,,,,,,,,,,2073.338285200298,None,,,,,,,,,,,,,,,,,,,,,,,,,,,,,,,,,,,fortune,98,4,aloud,white,2071.325355200097,None,None,2071.325355200097,None,,,,,,,,,,,,,,,,,,,,,,,,,,,,,,71NE,001,2023_May_03_1701,ExactRep-v3-final,2021.2.3,59.96088125112583,
,,,,,,,,4,0,4,0,,,,,,,,,,,,,,,,,,,,,,,,,,,,,,,,,,,,,,,,,,,,,,,,,,,,,2075.840810100548,None,,,,,,,,,,,,,,,,,,,,,,,,,,,,,,,,,,,letter,71,5,silent,red,2073.8414155002683,None,None,2073.8414155002683,None,,,,,,,,,,,,,,,,,,,,,,,,,,,,,,71NE,001,2023_May_03_1701,ExactRep-v3-final,2021.2.3,59.96088125112583,
,,,,,,,,5,0,5,0,,,,,,,,,,,,,,,,,,,,,,,,,,,,,,,,,,,,,,,,,,,,,,,,,,,,,2078.359789500013,None,,,,,,,,,,,,,,,,,,,,,,,,,,,,,,,,,,,shadow,117,6,aloud,white,2076.3459709007293,None,None,2076.3459709007293,None,,,,,,,,,,,,,,,,,,,,,,,,,,,,,,71NE,001,2023_May_03_1701,ExactRep-v3-final,2021.2.3,59.96088125112583,
,,,,,,,,6,0,6,0,,,,,,,,,,,,,,,,,,,,,,,,,,,,,,,,,,,,,,,,,,,,,,,,,,,,,2080.879073800519,None,,,,,,,,,,,,,,,,,,,,,,,,,,,,,,,,,,,pipe,42,7,silent,red,2078.8650459004566,None,None,2078.8650459004566,None,,,,,,,,,,,,,,,,,,,,,,,,,,,,,,71NE,001,2023_May_03_1701,ExactRep-v3-final,2021.2.3,59.96088125112583,
,,,,,,,,7,0,7,0,,,,,,,,,,,,,,,,,,,,,,,,,,,,,,,,,,,,,,,,,,,,,,,,,,,,,2083.3815721999854,None,,,,,,,,,,,,,,,,,,,,,,,,,,,,,,,,,,,fire,96,8,aloud,white,2081.379308000207,None,None,2081.379308000207,None,,,,,,,,,,,,,,,,,,,,,,,,,,,,,,71NE,001,2023_May_03_1701,ExactRep-v3-final,2021.2.3,59.96088125112583,
,,,,,,,,8,0,8,0,,,,,,,,,,,,,,,,,,,,,,,,,,,,,,,,,,,,,,,,,,,,,,,,,,,,,2085.9007776007056,None,,,,,,,,,,,,,,,,,,,,,,,,,,,,,,,,,,,clock,5,9,sing,blue,2083.887514400296,None,None,2083.887514400296,None,,,,,,,,,,,,,,,,,,,,,,,,,,,,,,71NE,001,2023_May_03_1701,ExactRep-v3-final,2021.2.3,59.96088125112583,
,,,,,,,,9,0,9,0,,,,,,,,,,,,,,,,,,,,,,,,,,,,,,,,,,,,,,,,,,,,,,,,,,,,,2088.419858899899,None,,,,,,,,,,,,,,,,,,,,,,,,,,,,,,,,,,,maiden,69,10,silent,red,2086.4062208002433,None,None,2086.4062208002433,None,,,,,,,,,,,,,,,,,,,,,,,,,,,,,,71NE,001,2023_May_03_1701,ExactRep-v3-final,2021.2.3,59.96088125112583,
,,,,,,,,10,0,10,0,,,,,,,,,,,,,,,,,,,,,,,,,,,,,,,,,,,,,,,,,,,,,,,,,,,,,2090.922445300035,None,,,,,,,,,,,,,,,,,,,,,,,,,,,,,,,,,,,pole,111,11,aloud,white,2088.9227839000523,None,None,2088.9227839000523,None,,,,,,,,,,,,,,,,,,,,,,,,,,,,,,71NE,001,2023_May_03_1701,ExactRep-v3-final,2021.2.3,59.96088125112583,
,,,,,,,,11,0,11,0,,,,,,,,,,,,,,,,,,,,,,,,,,,,,,,,,,,,,,,,,,,,,,,,,,,,,2093.441831100732,None,,,,,,,,,,,,,,,,,,,,,,,,,,,,,,,,,,,arm,49,12,silent,red,2091.4279760001227,None,None,2091.4279760001227,None,,,,,,,,,,,,,,,,,,,,,,,,,,,,,,71NE,001,2023_May_03_1701,ExactRep-v3-final,2021.2.3,59.96088125112583,
,,,,,,,,12,0,12,0,,,,,,,,,,,,,,,,,,,,,,,,,,,,,,,,,,,,,,,,,,,,,,,,,,,,,2095.9440508000553,None,,,,,,,,,,,,,,,,,,,,,,,,,,,,,,,,,,,fur,4,13,sing,blue,2093.942044100724,None,None,2093.942044100724,None,,,,,,,,,,,,,,,,,,,,,,,,,,,,,,71NE,001,2023_May_03_1701,ExactRep-v3-final,2021.2.3,59.96088125112583,
,,,,,,,,13,0,13,0,,,,,,,,,,,,,,,,,,,,,,,,,,,,,,,,,,,,,,,,,,,,,,,,,,,,,2098.4633932998404,None,,,,,,,,,,,,,,,,,,,,,,,,,,,,,,,,,,,iron,15,14,sing,blue,2096.4518218003213,None,None,2096.4518218003213,None,,,,,,,,,,,,,,,,,,,,,,,,,,,,,,71NE,001,2023_May_03_1701,ExactRep-v3-final,2021.2.3,59.96088125112583,
,,,,,,,,14,0,14,0,,,,,,,,,,,,,,,,,,,,,,,,,,,,,,,,,,,,,,,,,,,,,,,,,,,,,2100.982363000512,None,,,,,,,,,,,,,,,,,,,,,,,,,,,,,,,,,,,forest,51,15,silent,red,2098.967978800647,None,None,2098.967978800647,None,,,,,,,,,,,,,,,,,,,,,,,,,,,,,,71NE,001,2023_May_03_1701,ExactRep-v3-final,2021.2.3,59.96088125112583,
,,,,,,,,15,0,15,0,,,,,,,,,,,,,,,,,,,,,,,,,,,,,,,,,,,,,,,,,,,,,,,,,,,,,2103.4850162006915,None,,,,,,,,,,,,,,,,,,,,,,,,,,,,,,,,,,,shock,110,16,aloud,white,2101.483046100475,None,None,2101.483046100475,None,,,,,,,,,,,,,,,,,,,,,,,,,,,,,,71NE,001,2023_May_03_1701,ExactRep-v3-final,2021.2.3,59.96088125112583,
,,,,,,,,16,0,16,0,,,,,,,,,,,,,,,,,,,,,,,,,,,,,,,,,,,,,,,,,,,,,,,,,,,,,2105.9875827999786,None,,,,,,,,,,,,,,,,,,,,,,,,,,,,,,,,,,,month,16,17,sing,blue,2103.9865461001173,None,None,2103.9865461001173,None,,,,,,,,,,,,,,,,,,,,,,,,,,,,,,71NE,001,2023_May_03_1701,ExactRep-v3-final,2021.2.3,59.96088125112583,
,,,,,,,,17,0,17,0,,,,,,,,,,,,,,,,,,,,,,,,,,,,,,,,,,,,,,,,,,,,,,,,,,,,,2108.4899730999023,None,,,,,,,,,,,,,,,,,,,,,,,,,,,,,,,,,,,lord,52,18,silent,red,2106.4902378004044,None,None,2106.4902378004044,None,,,,,,,,,,,,,,,,,,,,,,,,,,,,,,71NE,001,2023_May_03_1701,ExactRep-v3-final,2021.2.3,59.96088125112583,
,,,,,,,,18,0,18,0,,,,,,,,,,,,,,,,,,,,,,,,,,,,,,,,,,,,,,,,,,,,,,,,,,,,,2110.9925624998286,None,,,,,,,,,,,,,,,,,,,,,,,,,,,,,,,,,,,toy,119,19,aloud,white,2108.993113500066,None,None,2108.993113500066,None,,,,,,,,,,,,,,,,,,,,,,,,,,,,,,71NE,001,2023_May_03_1701,ExactRep-v3-final,2021.2.3,59.96088125112583,
,,,,,,,,19,0,19,0,,,,,,,,,,,,,,,,,,,,,,,,,,,,,,,,,,,,,,,,,,,,,,,,,,,,,2113.4950245004147,None,,,,,,,,,,,,,,,,,,,,,,,,,,,,,,,,,,,grief,17,20,sing,blue,2111.4948066007346,None,None,2111.4948066007346,None,,,,,,,,,,,,,,,,,,,,,,,,,,,,,,71NE,001,2023_May_03_1701,ExactRep-v3-final,2021.2.3,59.96088125112583,
,,,,,,,,20,0,20,0,,,,,,,,,,,,,,,,,,,,,,,,,,,,,,,,,,,,,,,,,,,,,,,,,,,,,2115.997537200339,None,,,,,,,,,,,,,,,,,,,,,,,,,,,,,,,,,,,lad,114,21,aloud,white,2113.9954444998875,None,None,2113.9954444998875,None,,,,,,,,,,,,,,,,,,,,,,,,,,,,,,71NE,001,2023_May_03_1701,ExactRep-v3-final,2021.2.3,59.96088125112583,
,,,,,,,,21,0,21,0,,,,,,,,,,,,,,,,,,,,,,,,,,,,,,,,,,,,,,,,,,,,,,,,,,,,,2118.499874500558,None,,,,,,,,,,,,,,,,,,,,,,,,,,,,,,,,,,,salary,88,22,aloud,white,2116.4993798006326,None,None,2116.4993798006326,None,,,,,,,,,,,,,,,,,,,,,,,,,,,,,,71NE,001,2023_May_03_1701,ExactRep-v3-final,2021.2.3,59.96088125112583,
,,,,,,,,22,0,22,0,,,,,,,,,,,,,,,,,,,,,,,,,,,,,,,,,,,,,,,,,,,,,,,,,,,,,2121.002726100385,None,,,,,,,,,,,,,,,,,,,,,,,,,,,,,,,,,,,ship,33,23,sing,blue,2119.0025174003094,None,None,2119.0025174003094,None,,,,,,,,,,,,,,,,,,,,,,,,,,,,,,71NE,001,2023_May_03_1701,ExactRep-v3-final,2021.2.3,59.96088125112583,
,,,,,,,,23,0,23,0,,,,,,,,,,,,,,,,,,,,,,,,,,,,,,,,,,,,,,,,,,,,,,,,,,,,,2123.5217794002965,None,,,,,,,,,,,,,,,,,,,,,,,,,,,,,,,,,,,journal,44,24,silent,red,2121.5111372005194,None,None,2121.5111372005194,None,,,,,,,,,,,,,,,,,,,,,,,,,,,,,,71NE,001,2023_May_03_1701,ExactRep-v3-final,2021.2.3,59.96088125112583,
,,,,,,,,24,0,24,0,,,,,,,,,,,,,,,,,,,,,,,,,,,,,,,,,,,,,,,,,,,,,,,,,,,,,2126.0410068007186,None,,,,,,,,,,,,,,,,,,,,,,,,,,,,,,,,,,,vision,12,25,sing,blue,2124.032565000467,None,None,2124.032565000467,None,,,,,,,,,,,,,,,,,,,,,,,,,,,,,,71NE,001,2023_May_03_1701,ExactRep-v3-final,2021.2.3,59.96088125112583,
,,,,,,,,25,0,25,0,,,,,,,,,,,,,,,,,,,,,,,,,,,,,,,,,,,,,,,,,,,,,,,,,,,,,2128.560154000297,None,,,,,,,,,,,,,,,,,,,,,,,,,,,,,,,,,,,hour,118,26,aloud,white,2126.547375000082,None,None,2126.547375000082,None,,,,,,,,,,,,,,,,,,,,,,,,,,,,,,71NE,001,2023_May_03_1701,ExactRep-v3-final,2021.2.3,59.96088125112583,
,,,,,,,,26,0,26,0,,,,,,,,,,,,,,,,,,,,,,,,,,,,,,,,,,,,,,,,,,,,,,,,,,,,,2131.062498399988,None,,,,,,,,,,,,,,,,,,,,,,,,,,,,,,,,,,,truth,68,27,silent,red,2129.0618374003097,None,None,2129.0618374003097,None,,,,,,,,,,,,,,,,,,,,,,,,,,,,,,71NE,001,2023_May_03_1701,ExactRep-v3-final,2021.2.3,59.96088125112583,
,,,,,,,,27,0,27,0,,,,,,,,,,,,,,,,,,,,,,,,,,,,,,,,,,,,,,,,,,,,,,,,,,,,,2133.5816673003137,None,,,,,,,,,,,,,,,,,,,,,,,,,,,,,,,,,,,tool,65,28,silent,red,2131.568093200214,None,None,2131.568093200214,None,,,,,,,,,,,,,,,,,,,,,,,,,,,,,,71NE,001,2023_May_03_1701,ExactRep-v3-final,2021.2.3,59.96088125112583,
,,,,,,,,28,0,28,0,,,,,,,,,,,,,,,,,,,,,,,,,,,,,,,,,,,,,,,,,,,,,,,,,,,,,2136.0843526003882,None,,,,,,,,,,,,,,,,,,,,,,,,,,,,,,,,,,,blossom,25,29,sing,blue,2134.0848329002038,None,None,2134.0848329002038,None,,,,,,,,,,,,,,,,,,,,,,,,,,,,,,71NE,001,2023_May_03_1701,ExactRep-v3-final,2021.2.3,59.96088125112583,
,,,,,,,,29,0,29,0,,,,,,,,,,,,,,,,,,,,,,,,,,,,,,,,,,,,,,,,,,,,,,,,,,,,,2138.6035925000906,None,,,,,,,,,,,,,,,,,,,,,,,,,,,,,,,,,,,kiss,23,30,sing,blue,2136.588019700721,None,None,2136.588019700721,None,,,,,,,,,,,,,,,,,,,,,,,,,,,,,,71NE,001,2023_May_03_1701,ExactRep-v3-final,2021.2.3,59.96088125112583,
,,,,,,,,30,0,30,0,,,,,,,,,,,,,,,,,,,,,,,,,,,,,,,,,,,,,,,,,,,,,,,,,,,,,2141.1058208001778,None,,,,,,,,,,,,,,,,,,,,,,,,,,,,,,,,,,,potato,106,31,aloud,white,2139.10383020062,None,None,2139.10383020062,None,,,,,,,,,,,,,,,,,,,,,,,,,,,,,,71NE,001,2023_May_03_1701,ExactRep-v3-final,2021.2.3,59.96088125112583,
,,,,,,,,31,0,31,0,,,,,,,,,,,,,,,,,,,,,,,,,,,,,,,,,,,,,,,,,,,,,,,,,,,,,2143.6252625007182,None,,,,,,,,,,,,,,,,,,,,,,,,,,,,,,,,,,,quality,18,32,sing,blue,2141.6178958006203,None,None,2141.6178958006203,None,,,,,,,,,,,,,,,,,,,,,,,,,,,,,,71NE,001,2023_May_03_1701,ExactRep-v3-final,2021.2.3,59.96088125112583,
,,,,,,,,32,0,32,0,,,,,,,,,,,,,,,,,,,,,,,,,,,,,,,,,,,,,,,,,,,,,,,,,,,,,2146.144338800572,None,,,,,,,,,,,,,,,,,,,,,,,,,,,,,,,,,,,flower,82,33,aloud,white,2144.1293534999713,None,None,2144.1293534999713,None,,,,,,,,,,,,,,,,,,,,,,,,,,,,,,71NE,001,2023_May_03_1701,ExactRep-v3-final,2021.2.3,59.96088125112583,
,,,,,,,,33,0,33,0,,,,,,,,,,,,,,,,,,,,,,,,,,,,,,,,,,,,,,,,,,,,,,,,,,,,,2148.6468919999897,None,,,,,,,,,,,,,,,,,,,,,,,,,,,,,,,,,,,window,46,34,silent,red,2146.644935400225,None,None,2146.644935400225,None,,,,,,,,,,,,,,,,,,,,,,,,,,,,,,71NE,001,2023_May_03_1701,ExactRep-v3-final,2021.2.3,59.96088125112583,
,,,,,,,,34,0,34,0,,,,,,,,,,,,,,,,,,,,,,,,,,,,,,,,,,,,,,,,,,,,,,,,,,,,,2151.149355100468,None,,,,,,,,,,,,,,,,,,,,,,,,,,,,,,,,,,,woods,36,35,sing,blue,2149.1487728999928,None,None,2149.1487728999928,None,,,,,,,,,,,,,,,,,,,,,,,,,,,,,,71NE,001,2023_May_03_1701,ExactRep-v3-final,2021.2.3,59.96088125112583,
,,,,,,,,35,0,35,0,,,,,,,,,,,,,,,,,,,,,,,,,,,,,,,,,,,,,,,,,,,,,,,,,,,,,2153.651773100719,None,,,,,,,,,,,,,,,,,,,,,,,,,,,,,,,,,,,deed,109,36,aloud,white,2151.6516570998356,None,None,2151.6516570998356,None,,,,,,,,,,,,,,,,,,,,,,,,,,,,,,71NE,001,2023_May_03_1701,ExactRep-v3-final,2021.2.3,59.96088125112583,
,,,,,,,,36,0,36,0,,,,,,,,,,,,,,,,,,,,,,,,,,,,,,,,,,,,,,,,,,,,,,,,,,,,,2156.1544050006196,None,,,,,,,,,,,,,,,,,,,,,,,,,,,,,,,,,,,rod,99,37,aloud,white,2154.15480150003,None,None,2154.15480150003,None,,,,,,,,,,,,,,,,,,,,,,,,,,,,,,71NE,001,2023_May_03_1701,ExactRep-v3-final,2021.2.3,59.96088125112583,
,,,,,,,,37,0,37,0,,,,,,,,,,,,,,,,,,,,,,,,,,,,,,,,,,,,,,,,,,,,,,,,,,,,,2158.6732533005998,None,,,,,,,,,,,,,,,,,,,,,,,,,,,,,,,,,,,steam,95,38,aloud,white,2156.6635146001354,None,None,2156.6635146001354,None,,,,,,,,,,,,,,,,,,,,,,,,,,,,,,71NE,001,2023_May_03_1701,ExactRep-v3-final,2021.2.3,59.96088125112583,
,,,,,,,,38,0,38,0,,,,,,,,,,,,,,,,,,,,,,,,,,,,,,,,,,,,,,,,,,,,,,,,,,,,,2161.1928302999586,None,,,,,,,,,,,,,,,,,,,,,,,,,,,,,,,,,,,weapon,63,39,silent,red,2159.1777028003708,None,None,2159.1777028003708,None,,,,,,,,,,,,,,,,,,,,,,,,,,,,,,71NE,001,2023_May_03_1701,ExactRep-v3-final,2021.2.3,59.96088125112583,
,,,,,,,,39,0,39,0,,,,,,,,,,,,,,,,,,,,,,,,,,,,,,,,,,,,,,,,,,,,,,,,,,,,,2163.7117669004947,None,,,,,,,,,,,,,,,,,,,,,,,,,,,,,,,,,,,square,41,40,silent,red,2161.7051507001743,None,None,2161.7051507001743,None,,,,,,,,,,,,,,,,,,,,,,,,,,,,,,71NE,001,2023_May_03_1701,ExactRep-v3-final,2021.2.3,59.96088125112583,
,,,,,,,,40,0,40,0,,,,,,,,,,,,,,,,,,,,,,,,,,,,,,,,,,,,,,,,,,,,,,,,,,,,,2166.2142719998956,None,,,,,,,,,,,,,,,,,,,,,,,,,,,,,,,,,,,blood,108,41,aloud,white,2164.2122252006084,None,None,2164.2122252006084,None,,,,,,,,,,,,,,,,,,,,,,,,,,,,,,71NE,001,2023_May_03_1701,ExactRep-v3-final,2021.2.3,59.96088125112583,
,,,,,,,,41,0,41,0,,,,,,,,,,,,,,,,,,,,,,,,,,,,,,,,,,,,,,,,,,,,,,,,,,,,,2168.733505600132,None,,,,,,,,,,,,,,,,,,,,,,,,,,,,,,,,,,,theory,35,42,sing,blue,2166.7222036002204,None,None,2166.7222036002204,None,,,,,,,,,,,,,,,,,,,,,,,,,,,,,,71NE,001,2023_May_03_1701,ExactRep-v3-final,2021.2.3,59.96088125112583,
,,,,,,,,42,0,42,0,,,,,,,,,,,,,,,,,,,,,,,,,,,,,,,,,,,,,,,,,,,,,,,,,,,,,2171.25279649999,None,,,,,,,,,,,,,,,,,,,,,,,,,,,,,,,,,,,meeting,13,43,sing,blue,2169.2403716007248,None,None,2169.2403716007248,None,,,,,,,,,,,,,,,,,,,,,,,,,,,,,,71NE,001,2023_May_03_1701,ExactRep-v3-final,2021.2.3,59.96088125112583,
,,,,,,,,43,0,43,0,,,,,,,,,,,,,,,,,,,,,,,,,,,,,,,,,,,,,,,,,,,,,,,,,,,,,2173.755246900022,None,,,,,,,,,,,,,,,,,,,,,,,,,,,,,,,,,,,gold,83,44,aloud,white,2171.7535530002788,None,None,2171.7535530002788,None,,,,,,,,,,,,,,,,,,,,,,,,,,,,,,71NE,001,2023_May_03_1701,ExactRep-v3-final,2021.2.3,59.96088125112583,
,,,,,,,,44,0,44,0,,,,,,,,,,,,,,,,,,,,,,,,,,,,,,,,,,,,,,,,,,,,,,,,,,,,,2176.2578869005665,None,,,,,,,,,,,,,,,,,,,,,,,,,,,,,,,,,,,cottage,37,45,sing,blue,2174.2571236006916,None,None,2174.2571236006916,None,,,,,,,,,,,,,,,,,,,,,,,,,,,,,,71NE,001,2023_May_03_1701,ExactRep-v3-final,2021.2.3,59.96088125112583,
,,,,,,,,45,0,45,0,,,,,,,,,,,,,,,,,,,,,,,,,,,,,,,,,,,,,,,,,,,,,,,,,,,,,2178.7768381005153,None,,,,,,,,,,,,,,,,,,,,,,,,,,,,,,,,,,,origin,97,46,aloud,white,2176.7669064998627,None,None,2176.7669064998627,None,,,,,,,,,,,,,,,,,,,,,,,,,,,,,,71NE,001,2023_May_03_1701,ExactRep-v3-final,2021.2.3,59.96088125112583,
,,,,,,,,46,0,46,0,,,,,,,,,,,,,,,,,,,,,,,,,,,,,,,,,,,,,,,,,,,,,,,,,,,,,2181.2961715003476,None,,,,,,,,,,,,,,,,,,,,,,,,,,,,,,,,,,,wine,21,47,sing,blue,2179.2828085999936,None,None,2179.2828085999936,None,,,,,,,,,,,,,,,,,,,,,,,,,,,,,,71NE,001,2023_May_03_1701,ExactRep-v3-final,2021.2.3,59.96088125112583,
,,,,,,,,47,0,47,0,,,,,,,,,,,,,,,,,,,,,,,,,,,,,,,,,,,,,,,,,,,,,,,,,,,,,2183.7987915007398,None,,,,,,,,,,,,,,,,,,,,,,,,,,,,,,,,,,,thought,113,48,aloud,white,2181.796496000141,None,None,2181.796496000141,None,,,,,,,,,,,,,,,,,,,,,,,,,,,,,,71NE,001,2023_May_03_1701,ExactRep-v3-final,2021.2.3,59.96088125112583,
,,,,,,,,48,0,48,0,,,,,,,,,,,,,,,,,,,,,,,,,,,,,,,,,,,,,,,,,,,,,,,,,,,,,2186.3179382998496,None,,,,,,,,,,,,,,,,,,,,,,,,,,,,,,,,,,,science,34,49,sing,blue,2184.304617200047,None,None,2184.304617200047,None,,,,,,,,,,,,,,,,,,,,,,,,,,,,,,71NE,001,2023_May_03_1701,ExactRep-v3-final,2021.2.3,59.96088125112583,
,,,,,,,,49,0,49,0,,,,,,,,,,,,,,,,,,,,,,,,,,,,,,,,,,,,,,,,,,,,,,,,,,,,,2188.820411200635,None,,,,,,,,,,,,,,,,,,,,,,,,,,,,,,,,,,,flood,40,50,silent,red,2186.8184005003422,None,None,2186.8184005003422,None,,,,,,,,,,,,,,,,,,,,,,,,,,,,,,71NE,001,2023_May_03_1701,ExactRep-v3-final,2021.2.3,59.96088125112583,
,,,,,,,,50,0,50,0,,,,,,,,,,,,,,,,,,,,,,,,,,,,,,,,,,,,,,,,,,,,,,,,,,,,,2191.341282300651,None,,,,,,,,,,,,,,,,,,,,,,,,,,,,,,,,,,,power,116,51,aloud,white,2189.3314225003123,None,None,2189.3314225003123,None,,,,,,,,,,,,,,,,,,,,,,,,,,,,,,71NE,001,2023_May_03_1701,ExactRep-v3-final,2021.2.3,59.96088125112583,
,,,,,,,,51,0,51,0,,,,,,,,,,,,,,,,,,,,,,,,,,,,,,,,,,,,,,,,,,,,,,,,,,,,,2193.842075000517,None,,,,,,,,,,,,,,,,,,,,,,,,,,,,,,,,,,,pride,22,52,sing,blue,2191.8399718999863,None,None,2191.8399718999863,None,,,,,,,,,,,,,,,,,,,,,,,,,,,,,,71NE,001,2023_May_03_1701,ExactRep-v3-final,2021.2.3,59.96088125112583,
,,,,,,,,52,0,52,0,,,,,,,,,,,,,,,,,,,,,,,,,,,,,,,,,,,,,,,,,,,,,,,,,,,,,2196.344549300149,None,,,,,,,,,,,,,,,,,,,,,,,,,,,,,,,,,,,leader,92,53,aloud,white,2194.343770100735,None,None,2194.343770100735,None,,,,,,,,,,,,,,,,,,,,,,,,,,,,,,71NE,001,2023_May_03_1701,ExactRep-v3-final,2021.2.3,59.96088125112583,
,,,,,,,,53,0,53,0,,,,,,,,,,,,,,,,,,,,,,,,,,,,,,,,,,,,,,,,,,,,,,,,,,,,,2198.8471530005336,None,,,,,,,,,,,,,,,,,,,,,,,,,,,,,,,,,,,storm,53,54,silent,red,2196.846418400295,None,None,2196.846418400295,None,,,,,,,,,,,,,,,,,,,,,,,,,,,,,,71NE,001,2023_May_03_1701,ExactRep-v3-final,2021.2.3,59.96088125112583,
,,,,,,,,54,0,54,0,,,,,,,,,,,,,,,,,,,,,,,,,,,,,,,,,,,,,,,,,,,,,,,,,,,,,2201.366242500022,None,,,,,,,,,,,,,,,,,,,,,,,,,,,,,,,,,,,picture,7,55,sing,blue,2199.357003699988,None,None,2199.357003699988,None,,,,,,,,,,,,,,,,,,,,,,,,,,,,,,71NE,001,2023_May_03_1701,ExactRep-v3-final,2021.2.3,59.96088125112583,
,,,,,,,,55,0,55,0,,,,,,,,,,,,,,,,,,,,,,,,,,,,,,,,,,,,,,,,,,,,,,,,,,,,,2203.868762500584,None,,,,,,,,,,,,,,,,,,,,,,,,,,,,,,,,,,,friend,84,56,aloud,white,2201.8676847005263,None,None,2201.8676847005263,None,,,,,,,,,,,,,,,,,,,,,,,,,,,,,,71NE,001,2023_May_03_1701,ExactRep-v3-final,2021.2.3,59.96088125112583,
,,,,,,,,56,0,56,0,,,,,,,,,,,,,,,,,,,,,,,,,,,,,,,,,,,,,,,,,,,,,,,,,,,,,2206.3881099000573,None,,,,,,,,,,,,,,,,,,,,,,,,,,,,,,,,,,,village,66,57,silent,red,2204.372519100085,None,None,2204.372519100085,None,,,,,,,,,,,,,,,,,,,,,,,,,,,,,,71NE,001,2023_May_03_1701,ExactRep-v3-final,2021.2.3,59.96088125112583,
,,,,,,,,57,0,57,0,,,,,,,,,,,,,,,,,,,,,,,,,,,,,,,,,,,,,,,,,,,,,,,,,,,,,2208.9071756005287,None,,,,,,,,,,,,,,,,,,,,,,,,,,,,,,,,,,,door,76,58,silent,red,2206.8933040006086,None,None,2206.8933040006086,None,,,,,,,,,,,,,,,,,,,,,,,,,,,,,,71NE,001,2023_May_03_1701,ExactRep-v3-final,2021.2.3,59.96088125112583,
,,,,,,,,58,0,58,0,,,,,,,,,,,,,,,,,,,,,,,,,,,,,,,,,,,,,,,,,,,,,,,,,,,,,2211.409653400071,None,,,,,,,,,,,,,,,,,,,,,,,,,,,,,,,,,,,master,19,59,sing,blue,2209.408808800392,None,None,2209.408808800392,None,,,,,,,,,,,,,,,,,,,,,,,,,,,,,,71NE,001,2023_May_03_1701,ExactRep-v3-final,2021.2.3,59.96088125112583,
,,,,,,,,59,0,59,0,,,,,,,,,,,,,,,,,,,,,,,,,,,,,,,,,,,,,,,,,,,,,,,,,,,,,2213.928739500232,None,,,,,,,,,,,,,,,,,,,,,,,,,,,,,,,,,,,murder,56,60,silent,red,2211.9140921002254,None,None,2211.9140921002254,None,,,,,,,,,,,,,,,,,,,,,,,,,,,,,,71NE,001,2023_May_03_1701,ExactRep-v3-final,2021.2.3,59.96088125112583,
,,,,,,,,60,0,60,0,,,,,,,,,,,,,,,,,,,,,,,,,,,,,,,,,,,,,,,,,,,,,,,,,,,,,2216.4312751004472,None,,,,,,,,,,,,,,,,,,,,,,,,,,,,,,,,,,,effort,2,61,sing,blue,2214.430194700137,None,None,2214.430194700137,None,,,,,,,,,,,,,,,,,,,,,,,,,,,,,,71NE,001,2023_May_03_1701,ExactRep-v3-final,2021.2.3,59.96088125112583,
,,,,,,,,61,0,61,0,,,,,,,,,,,,,,,,,,,,,,,,,,,,,,,,,,,,,,,,,,,,,,,,,,,,,2218.9334797002375,None,,,,,,,,,,,,,,,,,,,,,,,,,,,,,,,,,,,artist,28,62,sing,blue,2216.933704100549,None,None,2216.933704100549,None,,,,,,,,,,,,,,,,,,,,,,,,,,,,,,71NE,001,2023_May_03_1701,ExactRep-v3-final,2021.2.3,59.96088125112583,
,,,,,,,,62,0,62,0,,,,,,,,,,,,,,,,,,,,,,,,,,,,,,,,,,,,,,,,,,,,,,,,,,,,,2221.4528435999528,None,,,,,,,,,,,,,,,,,,,,,,,,,,,,,,,,,,,garden,77,63,silent,red,2219.443879700266,None,None,2219.443879700266,None,,,,,,,,,,,,,,,,,,,,,,,,,,,,,,71NE,001,2023_May_03_1701,ExactRep-v3-final,2021.2.3,59.96088125112583,
,,,,,,,,63,0,63,0,,,,,,,,,,,,,,,,,,,,,,,,,,,,,,,,,,,,,,,,,,,,,,,,,,,,,2223.955336600542,None,,,,,,,,,,,,,,,,,,,,,,,,,,,,,,,,,,,honour,86,64,aloud,white,2221.953356500715,None,None,2221.953356500715,None,,,,,,,,,,,,,,,,,,,,,,,,,,,,,,71NE,001,2023_May_03_1701,ExactRep-v3-final,2021.2.3,59.96088125112583,
,,,,,,,,64,0,64,0,,,,,,,,,,,,,,,,,,,,,,,,,,,,,,,,,,,,,,,,,,,,,,,,,,,,,2226.457863500342,None,,,,,,,,,,,,,,,,,,,,,,,,,,,,,,,,,,,king,54,65,silent,red,2224.45584340021,None,None,2224.45584340021,None,,,,,,,,,,,,,,,,,,,,,,,,,,,,,,71NE,001,2023_May_03_1701,ExactRep-v3-final,2021.2.3,59.96088125112583,
,,,,,,,,65,0,65,0,,,,,,,,,,,,,,,,,,,,,,,,,,,,,,,,,,,,,,,,,,,,,,,,,,,,,2228.977157100104,None,,,,,,,,,,,,,,,,,,,,,,,,,,,,,,,,,,,queen,85,66,aloud,white,2226.96652800031,None,None,2226.96652800031,None,,,,,,,,,,,,,,,,,,,,,,,,,,,,,,71NE,001,2023_May_03_1701,ExactRep-v3-final,2021.2.3,59.96088125112583,
,,,,,,,,66,0,66,0,,,,,,,,,,,,,,,,,,,,,,,,,,,,,,,,,,,,,,,,,,,,,,,,,,,,,2231.4797106999904,None,,,,,,,,,,,,,,,,,,,,,,,,,,,,,,,,,,,party,60,67,silent,red,2229.477493200451,None,None,2229.477493200451,None,,,,,,,,,,,,,,,,,,,,,,,,,,,,,,71NE,001,2023_May_03_1701,ExactRep-v3-final,2021.2.3,59.96088125112583,
,,,,,,,,67,0,67,0,,,,,,,,,,,,,,,,,,,,,,,,,,,,,,,,,,,,,,,,,,,,,,,,,,,,,2233.998917700723,None,,,,,,,,,,,,,,,,,,,,,,,,,,,,,,,,,,,memory,89,68,aloud,white,2231.983369300142,None,None,2231.983369300142,None,,,,,,,,,,,,,,,,,,,,,,,,,,,,,,71NE,001,2023_May_03_1701,ExactRep-v3-final,2021.2.3,59.96088125112583,
,,,,,,,,68,0,68,0,,,,,,,,,,,,,,,,,,,,,,,,,,,,,,,,,,,,,,,,,,,,,,,,,,,,,2236.5013768998906,None,,,,,,,,,,,,,,,,,,,,,,,,,,,,,,,,,,,diamond,58,69,silent,red,2234.500173400156,None,None,2234.500173400156,None,,,,,,,,,,,,,,,,,,,,,,,,,,,,,,71NE,001,2023_May_03_1701,ExactRep-v3-final,2021.2.3,59.96088125112583,
,,,,,,,,69,0,69,0,,,,,,,,,,,,,,,,,,,,,,,,,,,,,,,,,,,,,,,,,,,,,,,,,,,,,2239.020573500544,None,,,,,,,,,,,,,,,,,,,,,,,,,,,,,,,,,,,spirit,74,70,silent,red,2237.0051974998787,None,None,2237.0051974998787,None,,,,,,,,,,,,,,,,,,,,,,,,,,,,,,71NE,001,2023_May_03_1701,ExactRep-v3-final,2021.2.3,59.96088125112583,
,,,,,,,,70,0,70,0,,,,,,,,,,,,,,,,,,,,,,,,,,,,,,,,,,,,,,,,,,,,,,,,,,,,,2241.5398144004866,None,,,,,,,,,,,,,,,,,,,,,,,,,,,,,,,,,,,victory,73,71,silent,red,2239.524407500401,None,None,2239.524407500401,None,,,,,,,,,,,,,,,,,,,,,,,,,,,,,,71NE,001,2023_May_03_1701,ExactRep-v3-final,2021.2.3,59.96088125112583,
,,,,,,,,71,0,71,0,,,,,,,,,,,,,,,,,,,,,,,,,,,,,,,,,,,,,,,,,,,,,,,,,,,,,2244.0423110006377,None,,,,,,,,,,,,,,,,,,,,,,,,,,,,,,,,,,,form,64,72,silent,red,2242.0400654003024,None,None,2242.0400654003024,None,,,,,,,,,,,,,,,,,,,,,,,,,,,,,,71NE,001,2023_May_03_1701,ExactRep-v3-final,2021.2.3,59.96088125112583,
,,,,,,,,72,0,72,0,,,,,,,,,,,,,,,,,,,,,,,,,,,,,,,,,,,,,,,,,,,,,,,,,,,,,2246.561290900223,None,,,,,,,,,,,,,,,,,,,,,,,,,,,,,,,,,,,bird,1,73,sing,blue,2244.546250199899,None,None,2244.546250199899,None,,,,,,,,,,,,,,,,,,,,,,,,,,,,,,71NE,001,2023_May_03_1701,ExactRep-v3-final,2021.2.3,59.96088125112583,
,,,,,,,,73,0,73,0,,,,,,,,,,,,,,,,,,,,,,,,,,,,,,,,,,,,,,,,,,,,,,,,,,,,,2249.080314300023,None,,,,,,,,,,,,,,,,,,,,,,,,,,,,,,,,,,,moment,57,74,silent,red,2247.068522600457,None,None,2247.068522600457,None,,,,,,,,,,,,,,,,,,,,,,,,,,,,,,71NE,001,2023_May_03_1701,ExactRep-v3-final,2021.2.3,59.96088125112583,
,,,,,,,,74,0,74,0,,,,,,,,,,,,,,,,,,,,,,,,,,,,,,,,,,,,,,,,,,,,,,,,,,,,,2251.5998601000756,None,,,,,,,,,,,,,,,,,,,,,,,,,,,,,,,,,,,ticket,104,75,aloud,white,2249.584513500333,None,None,2249.584513500333,None,,,,,,,,,,,,,,,,,,,,,,,,,,,,,,71NE,001,2023_May_03_1701,ExactRep-v3-final,2021.2.3,59.96088125112583,
,,,,,,,,75,0,75,0,,,,,,,,,,,,,,,,,,,,,,,,,,,,,,,,,,,,,,,,,,,,,,,,,,,,,2254.1188628003,None,,,,,,,,,,,,,,,,,,,,,,,,,,,,,,,,,,,library,14,76,sing,blue,2252.1037659998983,None,None,2252.1037659998983,None,,,,,,,,,,,,,,,,,,,,,,,,,,,,,,71NE,001,2023_May_03_1701,ExactRep-v3-final,2021.2.3,59.96088125112583,
,,,,,,,,76,0,76,0,,,,,,,,,,,,,,,,,,,,,,,,,,,,,,,,,,,,,,,,,,,,,,,,,,,,,2256.6231896001846,None,,,,,,,,,,,,,,,,,,,,,,,,,,,,,,,,,,,metal,67,77,silent,red,2254.6193364998326,None,None,2254.6193364998326,None,,,,,,,,,,,,,,,,,,,,,,,,,,,,,,71NE,001,2023_May_03_1701,ExactRep-v3-final,2021.2.3,59.96088125112583,
,,,,,,,,77,0,77,0,,,,,,,,,,,,,,,,,,,,,,,,,,,,,,,,,,,,,,,,,,,,,,,,,,,,,2259.1407937007025,None,,,,,,,,,,,,,,,,,,,,,,,,,,,,,,,,,,,meat,39,78,silent,red,2257.1407456006855,None,None,2257.1407456006855,None,,,,,,,,,,,,,,,,,,,,,,,,,,,,,,71NE,001,2023_May_03_1701,ExactRep-v3-final,2021.2.3,59.96088125112583,
,,,,,,,,78,0,78,0,,,,,,,,,,,,,,,,,,,,,,,,,,,,,,,,,,,,,,,,,,,,,,,,,,,,,2261.6597036002204,None,,,,,,,,,,,,,,,,,,,,,,,,,,,,,,,,,,,circle,47,79,silent,red,2259.646768500097,None,None,2259.646768500097,None,,,,,,,,,,,,,,,,,,,,,,,,,,,,,,71NE,001,2023_May_03_1701,ExactRep-v3-final,2021.2.3,59.96088125112583,
,,,,,,,,79,0,79,0,,,,,,,,,,,,,,,,,,,,,,,,,,,,,,,,,,,,,,,,,,,,,,,,,,,,,2264.17929500062,None,,,,,,,,,,,,,,,,,,,,,,,,,,,,,,,,,,,wheat,79,80,sing,blue,2262.1636815005913,None,None,2262.1636815005913,None,,,,,,,,,,,,,,,,,,,,,,,,,,,,,,71NE,001,2023_May_03_1701,ExactRep-v3-final,2021.2.3,59.96088125112583,
,,,,,,,,80,0,80,0,,,,,,,,,,,,,,,,,,,,,,,,,,,,,,,,,,,,,,,,,,,,,,,,,,,,,2266.6815742999315,None,,,,,,,,,,,,,,,,,,,,,,,,,,,,,,,,,,,coffee,9,81,sing,blue,2264.680458300747,None,None,2264.680458300747,None,,,,,,,,,,,,,,,,,,,,,,,,,,,,,,71NE,001,2023_May_03_1701,ExactRep-v3-final,2021.2.3,59.96088125112583,
,,,,,,,,81,0,81,0,,,,,,,,,,,,,,,,,,,,,,,,,,,,,,,,,,,,,,,,,,,,,,,,,,,,,2269.1840623999014,None,,,,,,,,,,,,,,,,,,,,,,,,,,,,,,,,,,,horse,72,82,silent,red,2267.183838600293,None,None,2267.183838600293,None,,,,,,,,,,,,,,,,,,,,,,,,,,,,,,71NE,001,2023_May_03_1701,ExactRep-v3-final,2021.2.3,59.96088125112583,
,,,,,,,,82,0,82,0,,,,,,,,,,,,,,,,,,,,,,,,,,,,,,,,,,,,,,,,,,,,,,,,,,,,,2271.686365100555,None,,,,,,,,,,,,,,,,,,,,,,,,,,,,,,,,,,,temple,81,83,aloud,white,2269.686306000687,None,None,2269.686306000687,None,,,,,,,,,,,,,,,,,,,,,,,,,,,,,,71NE,001,2023_May_03_1701,ExactRep-v3-final,2021.2.3,59.96088125112583,
,,,,,,,,83,0,83,0,,,,,,,,,,,,,,,,,,,,,,,,,,,,,,,,,,,,,,,,,,,,,,,,,,,,,2274.2058317000046,None,,,,,,,,,,,,,,,,,,,,,,,,,,,,,,,,,,,product,102,84,aloud,white,2272.1925697000697,None,None,2272.1925697000697,None,,,,,,,,,,,,,,,,,,,,,,,,,,,,,,71NE,001,2023_May_03_1701,ExactRep-v3-final,2021.2.3,59.96088125112583,
,,,,,,,,84,0,84,0,,,,,,,,,,,,,,,,,,,,,,,,,,,,,,,,,,,,,,,,,,,,,,,,,,,,,2276.7250171005726,None,,,,,,,,,,,,,,,,,,,,,,,,,,,,,,,,,,,wife,32,85,sing,blue,2274.7103681005538,None,None,2274.7103681005538,None,,,,,,,,,,,,,,,,,,,,,,,,,,,,,,71NE,001,2023_May_03_1701,ExactRep-v3-final,2021.2.3,59.96088125112583,
,,,,,,,,85,0,85,0,,,,,,,,,,,,,,,,,,,,,,,,,,,,,,,,,,,,,,,,,,,,,,,,,,,,,2279.243919200264,None,,,,,,,,,,,,,,,,,,,,,,,,,,,,,,,,,,,event,38,86,sing,blue,2277.22960070055,None,None,2277.22960070055,None,,,,,,,,,,,,,,,,,,,,,,,,,,,,,,71NE,001,2023_May_03_1701,ExactRep-v3-final,2021.2.3,59.96088125112583,
,,,,,,,,86,0,86,0,,,,,,,,,,,,,,,,,,,,,,,,,,,,,,,,,,,,,,,,,,,,,,,,,,,,,2281.746691199951,None,,,,,,,,,,,,,,,,,,,,,,,,,,,,,,,,,,,dawn,75,87,silent,red,2279.7475577006117,None,None,2279.7475577006117,None,,,,,,,,,,,,,,,,,,,,,,,,,,,,,,71NE,001,2023_May_03_1701,ExactRep-v3-final,2021.2.3,59.96088125112583,
,,,,,,,,87,0,87,0,,,,,,,,,,,,,,,,,,,,,,,,,,,,,,,,,,,,,,,,,,,,,,,,,,,,,2284.24915389996,None,,,,,,,,,,,,,,,,,,,,,,,,,,,,,,,,,,,anger,112,88,aloud,white,2282.2498607998714,None,None,2282.2498607998714,None,,,,,,,,,,,,,,,,,,,,,,,,,,,,,,71NE,001,2023_May_03_1701,ExactRep-v3-final,2021.2.3,59.96088125112583,
,,,,,,,,88,0,88,0,,,,,,,,,,,,,,,,,,,,,,,,,,,,,,,,,,,,,,,,,,,,,,,,,,,,,2286.7682822998613,None,,,,,,,,,,,,,,,,,,,,,,,,,,,,,,,,,,,time,43,89,silent,red,2284.754005100578,None,None,2284.754005100578,None,,,,,,,,,,,,,,,,,,,,,,,,,,,,,,71NE,001,2023_May_03_1701,ExactRep-v3-final,2021.2.3,59.96088125112583,
,,,,,,,,89,0,89,0,,,,,,,,,,,,,,,,,,,,,,,,,,,,,,,,,,,,,,,,,,,,,,,,,,,,,2289.2875347007066,None,,,,,,,,,,,,,,,,,,,,,,,,,,,,,,,,,,,disease,30,90,sing,blue,2287.274140600115,None,None,2287.274140600115,None,,,,,,,,,,,,,,,,,,,,,,,,,,,,,,71NE,001,2023_May_03_1701,ExactRep-v3-final,2021.2.3,59.96088125112583,
,,,,,,,,90,0,90,0,,,,,,,,,,,,,,,,,,,,,,,,,,,,,,,,,,,,,,,,,,,,,,,,,,,,,2291.790015700273,None,,,,,,,,,,,,,,,,,,,,,,,,,,,,,,,,,,,soul,20,91,sing,blue,2289.7897789999843,None,None,2289.7897789999843,None,,,,,,,,,,,,,,,,,,,,,,,,,,,,,,71NE,001,2023_May_03_1701,ExactRep-v3-final,2021.2.3,59.96088125112583,
,,,,,,,,91,0,91,0,,,,,,,,,,,,,,,,,,,,,,,,,,,,,,,,,,,,,,,,,,,,,,,,,,,,,2294.29251509998,None,,,,,,,,,,,,,,,,,,,,,,,,,,,,,,,,,,,coin,3,92,sing,blue,2292.2934274999425,None,None,2292.2934274999425,None,,,,,,,,,,,,,,,,,,,,,,,,,,,,,,71NE,001,2023_May_03_1701,ExactRep-v3-final,2021.2.3,59.96088125112583,
,,,,,,,,92,0,92,0,,,,,,,,,,,,,,,,,,,,,,,,,,,,,,,,,,,,,,,,,,,,,,,,,,,,,2296.794889200479,None,,,,,,,,,,,,,,,,,,,,,,,,,,,,,,,,,,,poet,45,93,silent,red,2294.794437300414,None,None,2294.794437300414,None,,,,,,,,,,,,,,,,,,,,,,,,,,,,,,71NE,001,2023_May_03_1701,ExactRep-v3-final,2021.2.3,59.96088125112583,
,,,,,,,,93,0,93,0,,,,,,,,,,,,,,,,,,,,,,,,,,,,,,,,,,,,,,,,,,,,,,,,,,,,,2299.3142901007086,None,,,,,,,,,,,,,,,,,,,,,,,,,,,,,,,,,,,sea,6,94,sing,blue,2297.300018600188,None,None,2297.300018600188,None,,,,,,,,,,,,,,,,,,,,,,,,,,,,,,71NE,001,2023_May_03_1701,ExactRep-v3-final,2021.2.3,59.96088125112583,
,,,,,,,,94,0,94,0,,,,,,,,,,,,,,,,,,,,,,,,,,,,,,,,,,,,,,,,,,,,,,,,,,,,,2301.8165789004415,None,,,,,,,,,,,,,,,,,,,,,,,,,,,,,,,,,,,college,87,95,aloud,white,2299.814705000259,None,None,2299.814705000259,None,,,,,,,,,,,,,,,,,,,,,,,,,,,,,,71NE,001,2023_May_03_1701,ExactRep-v3-final,2021.2.3,59.96088125112583,
,,,,,,,,95,0,95,0,,,,,,,,,,,,,,,,,,,,,,,,,,,,,,,,,,,,,,,,,,,,,,,,,,,,,2304.3359920000657,None,,,,,,,,,,,,,,,,,,,,,,,,,,,,,,,,,,,cost,70,96,silent,red,2302.323137599975,None,None,2302.323137599975,None,,,,,,,,,,,,,,,,,,,,,,,,,,,,,,71NE,001,2023_May_03_1701,ExactRep-v3-final,2021.2.3,59.96088125112583,
,,,,,,,,96,0,96,0,,,,,,,,,,,,,,,,,,,,,,,,,,,,,,,,,,,,,,,,,,,,,,,,,,,,,2306.838446800597,None,,,,,,,,,,,,,,,,,,,,,,,,,,,,,,,,,,,woman,105,97,aloud,white,2304.8362257005647,None,None,2304.8362257005647,None,,,,,,,,,,,,,,,,,,,,,,,,,,,,,,71NE,001,2023_May_03_1701,ExactRep-v3-final,2021.2.3,59.96088125112583,
,,,,,,,,97,0,97,0,,,,,,,,,,,,,,,,,,,,,,,,,,,,,,,,,,,,,,,,,,,,,,,,,,,,,2309.3573566004634,None,,,,,,,,,,,,,,,,,,,,,,,,,,,,,,,,,,,moral,62,98,silent,red,2307.342411700636,None,None,2307.342411700636,None,,,,,,,,,,,,,,,,,,,,,,,,,,,,,,71NE,001,2023_May_03_1701,ExactRep-v3-final,2021.2.3,59.96088125112583,
,,,,,,,,98,0,98,0,,,,,,,,,,,,,,,,,,,,,,,,,,,,,,,,,,,,,,,,,,,,,,,,,,,,,2311.8601932004094,None,,,,,,,,,,,,,,,,,,,,,,,,,,,,,,,,,,,plant,91,99,aloud,white,2309.859214699827,None,None,2309.859214699827,None,,,,,,,,,,,,,,,,,,,,,,,,,,,,,,71NE,001,2023_May_03_1701,ExactRep-v3-final,2021.2.3,59.96088125112583,
,,,,,,,,99,0,99,0,,,,,,,,,,,,,,,,,,,,,,,,,,,,,,,,,,,,,,,,,,,,,,,,,,,,,2314.3626040006056,None,,,,,,,,,,,,,,,,,,,,,,,,,,,,,,,,,,,hall,80,100,aloud,white,2312.3604120006785,None,None,2312.3604120006785,None,,,,,,,,,,,,,,,,,,,,,,,,,,,,,,71NE,001,2023_May_03_1701,ExactRep-v3-final,2021.2.3,59.96088125112583,
,,,,,,,,100,0,100,0,,,,,,,,,,,,,,,,,,,,,,,,,,,,,,,,,,,,,,,,,,,,,,,,,,,,,2316.86492270045,None,,,,,,,,,,,,,,,,,,,,,,,,,,,,,,,,,,,shoes,55,101,silent,red,2314.864805500023,None,None,2314.864805500023,None,,,,,,,,,,,,,,,,,,,,,,,,,,,,,,71NE,001,2023_May_03_1701,ExactRep-v3-final,2021.2.3,59.96088125112583,
,,,,,,,,101,0,101,0,,,,,,,,,,,,,,,,,,,,,,,,,,,,,,,,,,,,,,,,,,,,,,,,,,,,,2319.367628100328,None,,,,,,,,,,,,,,,,,,,,,,,,,,,,,,,,,,,life,115,102,aloud,white,2317.36735060066,None,None,2317.36735060066,None,,,,,,,,,,,,,,,,,,,,,,,,,,,,,,71NE,001,2023_May_03_1701,ExactRep-v3-final,2021.2.3,59.96088125112583,
,,,,,,,,102,0,102,0,,,,,,,,,,,,,,,,,,,,,,,,,,,,,,,,,,,,,,,,,,,,,,,,,,,,,2321.8701909007505,None,,,,,,,,,,,,,,,,,,,,,,,,,,,,,,,,,,,pupil,26,103,sing,blue,2319.871086000465,None,None,2319.871086000465,None,,,,,,,,,,,,,,,,,,,,,,,,,,,,,,71NE,001,2023_May_03_1701,ExactRep-v3-final,2021.2.3,59.96088125112583,
,,,,,,,,103,0,103,0,,,,,,,,,,,,,,,,,,,,,,,,,,,,,,,,,,,,,,,,,,,,,,,,,,,,,2324.389295000583,None,,,,,,,,,,,,,,,,,,,,,,,,,,,,,,,,,,,chief,78,104,silent,red,2322.373654000461,None,None,2322.373654000461,None,,,,,,,,,,,,,,,,,,,,,,,,,,,,,,71NE,001,2023_May_03_1701,ExactRep-v3-final,2021.2.3,59.96088125112583,
,,,,,,,,104,0,104,0,,,,,,,,,,,,,,,,,,,,,,,,,,,,,,,,,,,,,,,,,,,,,,,,,,,,,2326.8917590007186,None,,,,,,,,,,,,,,,,,,,,,,,,,,,,,,,,,,,fate,103,105,aloud,white,2324.8920900998637,None,None,2324.8920900998637,None,,,,,,,,,,,,,,,,,,,,,,,,,,,,,,71NE,001,2023_May_03_1701,ExactRep-v3-final,2021.2.3,59.96088125112583,
,,,,,,,,105,0,105,0,,,,,,,,,,,,,,,,,,,,,,,,,,,,,,,,,,,,,,,,,,,,,,,,,,,,,2329.394353300333,None,,,,,,,,,,,,,,,,,,,,,,,,,,,,,,,,,,,sky,100,106,aloud,white,2327.392043299973,None,None,2327.392043299973,None,,,,,,,,,,,,,,,,,,,,,,,,,,,,,,71NE,001,2023_May_03_1701,ExactRep-v3-final,2021.2.3,59.96088125112583,
,,,,,,,,106,0,106,0,,,,,,,,,,,,,,,,,,,,,,,,,,,,,,,,,,,,,,,,,,,,,,,,,,,,,2331.8967377003282,None,,,,,,,,,,,,,,,,,,,,,,,,,,,,,,,,,,,chance,0,107,sing,blue,2329.896553600207,None,None,2329.896553600207,None,,,,,,,,,,,,,,,,,,,,,,,,,,,,,,71NE,001,2023_May_03_1701,ExactRep-v3-final,2021.2.3,59.96088125112583,
,,,,,,,,107,0,107,0,,,,,,,,,,,,,,,,,,,,,,,,,,,,,,,,,,,,,,,,,,,,,,,,,,,,,2334.399445500225,None,,,,,,,,,,,,,,,,,,,,,,,,,,,,,,,,,,,hope,27,108,sing,blue,2332.3990890998393,None,None,2332.3990890998393,None,,,,,,,,,,,,,,,,,,,,,,,,,,,,,,71NE,001,2023_May_03_1701,ExactRep-v3-final,2021.2.3,59.96088125112583,
,,,,,,,,108,0,108,0,,,,,,,,,,,,,,,,,,,,,,,,,,,,,,,,,,,,,,,,,,,,,,,,,,,,,2336.9185512000695,None,,,,,,,,,,,,,,,,,,,,,,,,,,,,,,,,,,,humour,11,109,sing,blue,2334.9039735002443,None,None,2334.9039735002443,None,,,,,,,,,,,,,,,,,,,,,,,,,,,,,,71NE,001,2023_May_03_1701,ExactRep-v3-final,2021.2.3,59.96088125112583,
,,,,,,,,109,0,109,0,,,,,,,,,,,,,,,,,,,,,,,,,,,,,,,,,,,,,,,,,,,,,,,,,,,,,2339.4209511000663,None,,,,,,,,,,,,,,,,,,,,,,,,,,,,,,,,,,,apple,94,110,aloud,white,2337.418991100043,None,None,2337.418991100043,None,,,,,,,,,,,,,,,,,,,,,,,,,,,,,,71NE,001,2023_May_03_1701,ExactRep-v3-final,2021.2.3,59.96088125112583,
,,,,,,,,110,0,110,0,,,,,,,,,,,,,,,,,,,,,,,,,,,,,,,,,,,,,,,,,,,,,,,,,,,,,2341.9400845002383,None,,,,,,,,,,,,,,,,,,,,,,,,,,,,,,,,,,,coast,10,111,sing,blue,2339.9283557003364,None,None,2339.9283557003364,None,,,,,,,,,,,,,,,,,,,,,,,,,,,,,,71NE,001,2023_May_03_1701,ExactRep-v3-final,2021.2.3,59.96088125112583,
,,,,,,,,111,0,111,0,,,,,,,,,,,,,,,,,,,,,,,,,,,,,,,,,,,,,,,,,,,,,,,,,,,,,2344.4426544001326,None,,,,,,,,,,,,,,,,,,,,,,,,,,,,,,,,,,,hotel,107,112,aloud,white,2342.4406611006707,None,None,2342.4406611006707,None,,,,,,,,,,,,,,,,,,,,,,,,,,,,,,71NE,001,2023_May_03_1701,ExactRep-v3-final,2021.2.3,59.96088125112583,
,,,,,,,,112,0,112,0,,,,,,,,,,,,,,,,,,,,,,,,,,,,,,,,,,,,,,,,,,,,,,,,,,,,,2346.9452031999826,None,,,,,,,,,,,,,,,,,,,,,,,,,,,,,,,,,,,fun,48,113,silent,red,2344.943012500182,None,None,2344.943012500182,None,,,,,,,,,,,,,,,,,,,,,,,,,,,,,,71NE,001,2023_May_03_1701,ExactRep-v3-final,2021.2.3,59.96088125112583,
,,,,,,,,113,0,113,0,,,,,,,,,,,,,,,,,,,,,,,,,,,,,,,,,,,,,,,,,,,,,,,,,,,,,2349.464294800535,None,,,,,,,,,,,,,,,,,,,,,,,,,,,,,,,,,,,excuse,8,114,sing,blue,2347.4533937005326,None,None,2347.4533937005326,None,,,,,,,,,,,,,,,,,,,,,,,,,,,,,,71NE,001,2023_May_03_1701,ExactRep-v3-final,2021.2.3,59.96088125112583,
,,,,,,,,114,0,114,0,,,,,,,,,,,,,,,,,,,,,,,,,,,,,,,,,,,,,,,,,,,,,,,,,,,,,2351.9668916007504,None,,,,,,,,,,,,,,,,,,,,,,,,,,,,,,,,,,,nail,24,115,sing,blue,2349.964836699888,None,None,2349.964836699888,None,,,,,,,,,,,,,,,,,,,,,,,,,,,,,,71NE,001,2023_May_03_1701,ExactRep-v3-final,2021.2.3,59.96088125112583,
,,,,,,,,115,0,115,0,,,,,,,,,,,,,,,,,,,,,,,,,,,,,,,,,,,,,,,,,,,,,,,,,,,,,2354.4695065999404,None,,,,,,,,,,,,,,,,,,,,,,,,,,,,,,,,,,,speech,90,116,aloud,white,2352.4701606007293,None,None,2352.4701606007293,None,,,,,,,,,,,,,,,,,,,,,,,,,,,,,,71NE,001,2023_May_03_1701,ExactRep-v3-final,2021.2.3,59.96088125112583,
,,,,,,,,116,0,116,0,,,,,,,,,,,,,,,,,,,,,,,,,,,,,,,,,,,,,,,,,,,,,,,,,,,,,2356.9886117000133,None,,,,,,,,,,,,,,,,,,,,,,,,,,,,,,,,,,,star,29,117,sing,blue,2354.972953800112,None,None,2354.972953800112,None,,,,,,,,,,,,,,,,,,,,,,,,,,,,,,71NE,001,2023_May_03_1701,ExactRep-v3-final,2021.2.3,59.96088125112583,
,,,,,,,,117,0,117,0,,,,,,,,,,,,,,,,,,,,,,,,,,,,,,,,,,,,,,,,,,,,,,,,,,,,,2359.4910920001566,None,,,,,,,,,,,,,,,,,,,,,,,,,,,,,,,,,,,board,59,118,silent,red,2357.49170350004,None,None,2357.49170350004,None,,,,,,,,,,,,,,,,,,,,,,,,,,,,,,71NE,001,2023_May_03_1701,ExactRep-v3-final,2021.2.3,59.96088125112583,
,,,,,,,,118,0,118,0,,,,,,,,,,,,,,,,,,,,,,,,,,,,,,,,,,,,,,,,,,,,,,,,,,,,,2361.993588199839,None,,,,,,,,,,,,,,,,,,,,,,,,,,,,,,,,,,,table,101,119,aloud,white,2359.99182190001,None,None,2359.99182190001,None,,,,,,,,,,,,,,,,,,,,,,,,,,,,,,71NE,001,2023_May_03_1701,ExactRep-v3-final,2021.2.3,59.96088125112583,
,,,,,,,,119,0,119,0,,,,,,,,,,,,,,,,,,,,,,,,,,,,,,,,,,,,,,,,,,,,,,,,,,,,,2364.5127622000873,None,,,,,,,,,,,,,,,,,,,,,,,,,,,,,,,,,,,chair,50,120,silent,red,2362.5009598005563,None,None,2362.5009598005563,None,,,,,,,,,,,,,,,,,,,,,,,,,,,,,,71NE,001,2023_May_03_1701,ExactRep-v3-final,2021.2.3,59.96088125112583,
,,,,,,,,,,,,,,,,,,,,,,,,,,,,,,,,,,,,,,,,,,,,,,,,,,,,,,,,,,,,,,,,,,,,,,,,,,,,,,,,,,,,,,,,,,,,,,,,,,,,,,,,,,,,,,2365.014819700271,None,space,0.26693660020828247,2374.99104490038,None,,,,,,,,,,,,,,,,,,,,,,,,71NE,001,2023_May_03_1701,ExactRep-v3-final,2021.2.3,59.96088125112583,
,,,,,,,,,,,,,,,,,,,,,,,,,,,,,,,,,,,,,,,,,,,,,,,,,,,,,,,,,,,,,,,,,,,,,,,,,,,,,,,,,,,,,,,,,,,,,,,,,,,,,,,,,,,,,,,,,,,,2375.275197500363,None,space,26.470270799472928,2385.251616000198,None,,,,,,,,,,,,,,,,,,71NE,001,2023_May_03_1701,ExactRep-v3-final,2021.2.3,59.96088125112583,
,,,,,,,,,,,,0,0,0,0,,,,,,,,,,,,,,,,,,,,,,,,,,,,,,,,,,,,,,,,,,,,,,,,,2417.081833000295,None,,,,,,,,,,,,,,,,,,,,,,,,,,,,,,,,,,,,,,,,,,,,,,,,,,,,,,,,,rock,193,1,sing,new,yellow,2412.2652096003294,None,n,2412.2652096003294,None,"['n', 'return']","[3.112531900405884, 4.7763499999418855]",2412.2652096003294,None,,,71NE,001,2023_May_03_1701,ExactRep-v3-final,2021.2.3,59.96088125112583,
,,,,,,,,,,,,1,0,1,0,,,,,,,,,,,,,,,,,,,,,,,,,,,,,,,,,,,,,,,,,,,,,,,,,2425.390051700175,None,,,,,,,,,,,,,,,,,,,,,,,,,,,,,,,,,,,,,,,,,,,,,,,,,,,,,,,,,amount,161,2,sing,new,yellow,2417.591268500313,None,n,2417.591268500313,None,"['n', 'return']","[6.4262651996687055, 7.754248299635947]",2417.591268500313,None,,,71NE,001,2023_May_03_1701,ExactRep-v3-final,2021.2.3,59.96088125112583,
,,,,,,,,,,,,2,0,2,0,,,,,,,,,,,,,,,,,,,,,,,,,,,,,,,,,,,,,,,,,,,,,,,,,2428.593264300376,None,,,,,,,,,,,,,,,,,,,,,,,,,,,,,,,,,,,,,,,,,,,,,,,,,,,,,,,,,star,29,3,sing,old,yellow,2425.8971401005983,None,y,2425.8971401005983,None,"['y', 'return']","[1.5123773999512196, 2.664556799456477]",2425.8971401005983,None,,,71NE,001,2023_May_03_1701,ExactRep-v3-final,2021.2.3,59.96088125112583,
,,,,,,,,,,,,3,0,3,0,,,,,,,,,,,,,,,,,,,,,,,,,,,,,,,,,,,,,,,,,,,,,,,,,2431.846702900715,None,,,,,,,,,,,,,,,,,,,,,,,,,,,,,,,,,,,,,,,,,,,,,,,,,,,,,,,,,ability,176,4,aloud,new,yellow,2429.102575399913,None,n,2429.102575399913,None,"['n', 'return']","[1.6108574997633696, 2.707159399986267]",2429.102575399913,None,,,71NE,001,2023_May_03_1701,ExactRep-v3-final,2021.2.3,59.96088125112583,
,,,,,,,,,,,,4,0,4,0,,,,,,,,,,,,,,,,,,,,,,,,,,,,,,,,,,,,,,,,,,,,,,,,,2434.8829369004816,None,,,,,,,,,,,,,,,,,,,,,,,,,,,,,,,,,,,,,,,,,,,,,,,,,,,,,,,,,hope,27,5,sing,old,yellow,2432.3591793999076,None,y,2432.3591793999076,None,"['y', 'return']","[1.3784754006192088, 2.490341800265014]",2432.3591793999076,None,,,71NE,001,2023_May_03_1701,ExactRep-v3-final,2021.2.3,59.96088125112583,
,,,,,,,,,,,,5,0,5,0,,,,,,,,,,,,,,,,,,,,,,,,,,,,,,,,,,,,,,,,,,,,,,,,,2439.4735671998933,None,,,,,,,,,,,,,,,,,,,,,,,,,,,,,,,,,,,,,,,,,,,,,,,,,,,,,,,,,college,87,6,aloud,old,yellow,2435.398928800598,None,y,2435.398928800598,None,"['y', 'return']","[3.0267594000324607, 4.0344815999269485]",2435.398928800598,None,,,71NE,001,2023_May_03_1701,ExactRep-v3-final,2021.2.3,59.96088125112583,
,,,,,,,,,,,,6,0,6,0,,,,,,,,,,,,,,,,,,,,,,,,,,,,,,,,,,,,,,,,,,,,,,,,,2442.090298499912,None,,,,,,,,,,,,,,,,,,,,,,,,,,,,,,,,,,,,,,,,,,,,,,,,,,,,,,,,,flower,82,7,aloud,old,yellow,2439.9961125003174,None,y,2439.9961125003174,None,"['y', 'return']","[1.3094579996541142, 2.053466900251806]",2439.9961125003174,None,,,71NE,001,2023_May_03_1701,ExactRep-v3-final,2021.2.3,59.96088125112583,
,,,,,,,,,,,,7,0,7,0,,,,,,,,,,,,,,,,,,,,,,,,,,,,,,,,,,,,,,,,,,,,,,,,,2444.4093304006383,None,,,,,,,,,,,,,,,,,,,,,,,,,,,,,,,,,,,,,,,,,,,,,,,,,,,,,,,,,meeting,13,8,sing,old,yellow,2442.6044886000454,None,n,2442.6044886000454,None,"['n', 'return']","[1.2132740002125502, 1.7731429999694228]",2442.6044886000454,None,,,71NE,001,2023_May_03_1701,ExactRep-v3-final,2021.2.3,59.96088125112583,
,,,,,,,,,,,,8,0,8,0,,,,,,,,,,,,,,,,,,,,,,,,,,,,,,,,,,,,,,,,,,,,,,,,,2446.461177300662,None,,,,,,,,,,,,,,,,,,,,,,,,,,,,,,,,,,,,,,,,,,,,,,,,,,,,,,,,,cat,179,9,sing,new,yellow,2444.9158730003983,None,n,2444.9158730003983,None,"['n', 'return']","[1.0457116002216935, 1.5098202005028725]",2444.9158730003983,None,,,71NE,001,2023_May_03_1701,ExactRep-v3-final,2021.2.3,59.96088125112583,
,,,,,,,,,,,,9,0,9,0,,,,,,,,,,,,,,,,,,,,,,,,,,,,,,,,,,,,,,,,,,,,,,,,,2448.429754800163,None,,,,,,,,,,,,,,,,,,,,,,,,,,,,,,,,,,,,,,,,,,,,,,,,,,,,,,,,,market,156,10,silent,new,yellow,2446.970451200381,None,n,2446.970451200381,None,"['n', 'return']","[0.9910276001319289, 1.415115600451827]",2446.970451200381,None,,,71NE,001,2023_May_03_1701,ExactRep-v3-final,2021.2.3,59.96088125112583,
,,,,,,,,,,,,10,0,10,0,,,,,,,,,,,,,,,,,,,,,,,,,,,,,,,,,,,,,,,,,,,,,,,,,2450.5653082001954,None,,,,,,,,,,,,,,,,,,,,,,,,,,,,,,,,,,,,,,,,,,,,,,,,,,,,,,,,,poet,45,11,silent,old,yellow,2448.93562570028,None,n,2448.93562570028,None,"['n', 'return']","[1.1059720003977418, 1.593957400880754]",2448.93562570028,None,,,71NE,001,2023_May_03_1701,ExactRep-v3-final,2021.2.3,59.96088125112583,
,,,,,,,,,,,,11,0,11,0,,,,,,,,,,,,,,,,,,,,,,,,,,,,,,,,,,,,,,,,,,,,,,,,,2452.383719000034,None,,,,,,,,,,,,,,,,,,,,,,,,,,,,,,,,,,,,,,,,,,,,,,,,,,,,,,,,,diamond,58,12,silent,old,yellow,2451.0751379001886,None,y,2451.0751379001886,None,"['y', 'return']","[0.7903501000255346, 1.262495900504291]",2451.0751379001886,None,,,71NE,001,2023_May_03_1701,ExactRep-v3-final,2021.2.3,59.96088125112583,
,,,,,,,,,,,,12,0,12,0,,,,,,,,,,,,,,,,,,,,,,,,,,,,,,,,,,,,,,,,,,,,,,,,,2454.502606300637,None,,,,,,,,,,,,,,,,,,,,,,,,,,,,,,,,,,,,,,,,,,,,,,,,,,,,,,,,,river,195,13,sing,new,yellow,2452.8917314000428,None,n,2452.8917314000428,None,"['n', 'return']","[1.085831799544394, 1.5739693995565176]",2452.8917314000428,None,,,71NE,001,2023_May_03_1701,ExactRep-v3-final,2021.2.3,59.96088125112583,
,,,,,,,,,,,,13,0,13,0,,,,,,,,,,,,,,,,,,,,,,,,,,,,,,,,,,,,,,,,,,,,,,,,,2456.7548545002937,None,,,,,,,,,,,,,,,,,,,,,,,,,,,,,,,,,,,,,,,,,,,,,,,,,,,,,,,,,steam,95,14,aloud,old,yellow,2455.006256000139,None,y,2455.006256000139,None,"['y', 'return']","[1.2593125002458692, 1.715412000194192]",2455.006256000139,None,,,71NE,001,2023_May_03_1701,ExactRep-v3-final,2021.2.3,59.96088125112583,
,,,,,,,,,,,,14,0,14,0,,,,,,,,,,,,,,,,,,,,,,,,,,,,,,,,,,,,,,,,,,,,,,,,,2459.8579453006387,None,,,,,,,,,,,,,,,,,,,,,,,,,,,,,,,,,,,,,,,,,,,,,,,,,,,,,,,,,cabin,215,15,sing,new,yellow,2457.2643368998542,None,n,2457.2643368998542,None,"['n', 'return']","[2.145287100225687, 2.5612580999732018]",2457.2643368998542,None,,,71NE,001,2023_May_03_1701,ExactRep-v3-final,2021.2.3,59.96088125112583,
,,,,,,,,,,,,15,0,15,0,,,,,,,,,,,,,,,,,,,,,,,,,,,,,,,,,,,,,,,,,,,,,,,,,2461.96018140018,None,,,,,,,,,,,,,,,,,,,,,,,,,,,,,,,,,,,,,,,,,,,,,,,,,,,,,,,,,storm,53,16,silent,old,yellow,2460.3657287005335,None,y,2460.3657287005335,None,"['y', 'return']","[1.116024799644947, 1.547812500037253]",2460.3657287005335,None,,,71NE,001,2023_May_03_1701,ExactRep-v3-final,2021.2.3,59.96088125112583,
,,,,,,,,,,,,16,0,16,0,,,,,,,,,,,,,,,,,,,,,,,,,,,,,,,,,,,,,,,,,,,,,,,,,2463.928660600446,None,,,,,,,,,,,,,,,,,,,,,,,,,,,,,,,,,,,,,,,,,,,,,,,,,,,,,,,,,law,221,17,sing,new,yellow,2462.4689643001184,None,n,2462.4689643001184,None,"['n', 'return']","[0.940782300196588, 1.4126172997057438]",2462.4689643001184,None,,,71NE,001,2023_May_03_1701,ExactRep-v3-final,2021.2.3,59.96088125112583,
,,,,,,,,,,,,17,0,17,0,,,,,,,,,,,,,,,,,,,,,,,,,,,,,,,,,,,,,,,,,,,,,,,,,2467.131984599866,None,,,,,,,,,,,,,,,,,,,,,,,,,,,,,,,,,,,,,,,,,,,,,,,,,,,,,,,,,prayer,136,18,silent,new,yellow,2464.4382509998977,None,y,2464.4382509998977,None,"['y', 'return']","[2.2434745002537966, 2.6513398997485638]",2464.4382509998977,None,,,71NE,001,2023_May_03_1701,ExactRep-v3-final,2021.2.3,59.96088125112583,
,,,,,,,,,,,,18,0,18,0,,,,,,,,,,,,,,,,,,,,,,,,,,,,,,,,,,,,,,,,,,,,,,,,,2468.9003306003287,None,,,,,,,,,,,,,,,,,,,,,,,,,,,,,,,,,,,,,,,,,,,,,,,,,,,,,,,,,friend,84,19,aloud,old,yellow,2467.6383803002536,None,n,2467.6383803002536,None,"['n', 'return']","[0.7794411005452275, 1.21919110044837]",2467.6383803002536,None,,,71NE,001,2023_May_03_1701,ExactRep-v3-final,2021.2.3,59.96088125112583,
,,,,,,,,,,,,19,0,19,0,,,,,,,,,,,,,,,,,,,,,,,,,,,,,,,,,,,,,,,,,,,,,,,,,2471.502864100039,None,,,,,,,,,,,,,,,,,,,,,,,,,,,,,,,,,,,,,,,,,,,,,,,,,,,,,,,,,girl,129,20,silent,new,yellow,2469.4103375999257,None,n,2469.4103375999257,None,"['n', 'return']","[1.6472965003922582, 2.055267699994147]",2469.4103375999257,None,,,71NE,001,2023_May_03_1701,ExactRep-v3-final,2021.2.3,59.96088125112583,
,,,,,,,,,,,,20,0,20,0,,,,,,,,,,,,,,,,,,,,,,,,,,,,,,,,,,,,,,,,,,,,,,,,,2473.705131900497,None,,,,,,,,,,,,,,,,,,,,,,,,,,,,,,,,,,,,,,,,,,,,,,,,,,,,,,,,,picture,7,21,sing,old,yellow,2472.0125951003283,None,n,2472.0125951003283,None,"['n', 'return']","[1.2533187000080943, 1.6610120004042983]",2472.0125951003283,None,,,71NE,001,2023_May_03_1701,ExactRep-v3-final,2021.2.3,59.96088125112583,
,,,,,,,,,,,,21,0,21,0,,,,,,,,,,,,,,,,,,,,,,,,,,,,,,,,,,,,,,,,,,,,,,,,,2475.82393420022,None,,,,,,,,,,,,,,,,,,,,,,,,,,,,,,,,,,,,,,,,,,,,,,,,,,,,,,,,,book,226,22,aloud,new,yellow,2474.214885700494,None,n,2474.214885700494,None,"['n', 'return']","[1.1146202003583312, 1.5706580001860857]",2474.214885700494,None,,,71NE,001,2023_May_03_1701,ExactRep-v3-final,2021.2.3,59.96088125112583,
,,,,,,,,,,,,22,0,22,0,,,,,,,,,,,,,,,,,,,,,,,,,,,,,,,,,,,,,,,,,,,,,,,,,2478.109588900581,None,,,,,,,,,,,,,,,,,,,,,,,,,,,,,,,,,,,,,,,,,,,,,,,,,,,,,,,,,metal,67,23,silent,old,yellow,2476.3348027002066,None,n,2476.3348027002066,None,"['n', 'return']","[1.2108863005414605, 1.738857800140977]",2476.3348027002066,None,,,71NE,001,2023_May_03_1701,ExactRep-v3-final,2021.2.3,59.96088125112583,
,,,,,,,,,,,,23,0,23,0,,,,,,,,,,,,,,,,,,,,,,,,,,,,,,,,,,,,,,,,,,,,,,,,,2479.944605600089,None,,,,,,,,,,,,,,,,,,,,,,,,,,,,,,,,,,,,,,,,,,,,,,,,,,,,,,,,,deed,109,24,aloud,old,yellow,2478.6184812001884,None,y,2478.6184812001884,None,"['y', 'return']","[0.8551361998543143, 1.2790818000212312]",2478.6184812001884,None,,,71NE,001,2023_May_03_1701,ExactRep-v3-final,2021.2.3,59.96088125112583,
,,,,,,,,,,,,24,0,24,0,,,,,,,,,,,,,,,,,,,,,,,,,,,,,,,,,,,,,,,,,,,,,,,,,2481.8299743998796,None,,,,,,,,,,,,,,,,,,,,,,,,,,,,,,,,,,,,,,,,,,,,,,,,,,,,,,,,,cottage,37,25,sing,old,yellow,2480.457231800072,None,y,2480.457231800072,None,"['y', 'return']","[0.9285385999828577, 1.3283025994896889]",2480.457231800072,None,,,71NE,001,2023_May_03_1701,ExactRep-v3-final,2021.2.3,59.96088125112583,
,,,,,,,,,,,,25,0,25,0,,,,,,,,,,,,,,,,,,,,,,,,,,,,,,,,,,,,,,,,,,,,,,,,,2484.248945900239,None,,,,,,,,,,,,,,,,,,,,,,,,,,,,,,,,,,,,,,,,,,,,,,,,,,,,,,,,,home,185,26,sing,new,yellow,2482.3415548000485,None,n,2482.3415548000485,None,"['n', 'return']","[1.372125600464642, 1.8681490998715162]",2482.3415548000485,None,,,71NE,001,2023_May_03_1701,ExactRep-v3-final,2021.2.3,59.96088125112583,
,,,,,,,,,,,,26,0,26,0,,,,,,,,,,,,,,,,,,,,,,,,,,,,,,,,,,,,,,,,,,,,,,,,,2487.6189400004223,None,,,,,,,,,,,,,,,,,,,,,,,,,,,,,,,,,,,,,,,,,,,,,,,,,,,,,,,,,green,174,27,aloud,new,yellow,2484.7594611998647,None,n,2484.7594611998647,None,"['n', 'return']","[2.3381275003775954, 2.81822710018605]",2484.7594611998647,None,,,71NE,001,2023_May_03_1701,ExactRep-v3-final,2021.2.3,59.96088125112583,
,,,,,,,,,,,,27,0,27,0,,,,,,,,,,,,,,,,,,,,,,,,,,,,,,,,,,,,,,,,,,,,,,,,,2489.554299700074,None,,,,,,,,,,,,,,,,,,,,,,,,,,,,,,,,,,,,,,,,,,,,,,,,,,,,,,,,,time,43,28,silent,old,yellow,2488.1306322002783,None,n,2488.1306322002783,None,"['n', 'return']","[0.8949991995468736, 1.3908385001122952]",2488.1306322002783,None,,,71NE,001,2023_May_03_1701,ExactRep-v3-final,2021.2.3,59.96088125112583,
,,,,,,,,,,,,28,0,28,0,,,,,,,,,,,,,,,,,,,,,,,,,,,,,,,,,,,,,,,,,,,,,,,,,2491.8233739007264,None,,,,,,,,,,,,,,,,,,,,,,,,,,,,,,,,,,,,,,,,,,,,,,,,,,,,,,,,,grass,132,29,silent,new,yellow,2490.063104700297,None,n,2490.063104700297,None,"['n', 'return']","[1.2183672999963164, 1.7224874999374151]",2490.063104700297,None,,,71NE,001,2023_May_03_1701,ExactRep-v3-final,2021.2.3,59.96088125112583,
,,,,,,,,,,,,29,0,29,0,,,,,,,,,,,,,,,,,,,,,,,,,,,,,,,,,,,,,,,,,,,,,,,,,2493.8752907002345,None,,,,,,,,,,,,,,,,,,,,,,,,,,,,,,,,,,,,,,,,,,,,,,,,,,,,,,,,,iron,15,30,sing,old,yellow,2492.331871500239,None,y,2492.331871500239,None,"['y', 'return']","[1.0297256000339985, 1.5096983006224036]",2492.331871500239,None,,,71NE,001,2023_May_03_1701,ExactRep-v3-final,2021.2.3,59.96088125112583,
,,,,,,,,,,,,30,0,30,0,,,,,,,,,,,,,,,,,,,,,,,,,,,,,,,,,,,,,,,,,,,,,,,,,2495.8773036003113,None,,,,,,,,,,,,,,,,,,,,,,,,,,,,,,,,,,,,,,,,,,,,,,,,,,,,,,,,,troops,139,31,silent,new,yellow,2494.385422900319,None,n,2494.385422900319,None,"['n', 'return']","[0.9842388005927205, 1.4481742000207305]",2494.385422900319,None,,,71NE,001,2023_May_03_1701,ExactRep-v3-final,2021.2.3,59.96088125112583,
,,,,,,,,,,,,31,0,31,0,,,,,,,,,,,,,,,,,,,,,,,,,,,,,,,,,,,,,,,,,,,,,,,,,2498.246335000731,None,,,,,,,,,,,,,,,,,,,,,,,,,,,,,,,,,,,,,,,,,,,,,,,,,,,,,,,,,murder,56,32,silent,old,yellow,2496.3891028007492,None,n,2496.3891028007492,None,"['n', 'return']","[1.3246123995631933, 1.8124505998566747]",2496.3891028007492,None,,,71NE,001,2023_May_03_1701,ExactRep-v3-final,2021.2.3,59.96088125112583,
,,,,,,,,,,,,32,0,32,0,,,,,,,,,,,,,,,,,,,,,,,,,,,,,,,,,,,,,,,,,,,,,,,,,2500.5485864998773,None,,,,,,,,,,,,,,,,,,,,,,,,,,,,,,,,,,,,,,,,,,,,,,,,,,,,,,,,,corner,180,33,aloud,new,yellow,2498.7589070005342,None,n,2498.7589070005342,None,"['n', 'return']","[1.2426744000986218, 1.7466799998655915]",2498.7589070005342,None,,,71NE,001,2023_May_03_1701,ExactRep-v3-final,2021.2.3,59.96088125112583,
,,,,,,,,,,,,33,0,33,0,,,,,,,,,,,,,,,,,,,,,,,,,,,,,,,,,,,,,,,,,,,,,,,,,2502.7841866007075,None,,,,,,,,,,,,,,,,,,,,,,,,,,,,,,,,,,,,,,,,,,,,,,,,,,,,,,,,,leader,92,34,aloud,old,yellow,2501.0589151000604,None,n,2501.0589151000604,None,"['n', 'return']","[1.2228450998663902, 1.678803600370884]",2501.0589151000604,None,,,71NE,001,2023_May_03_1701,ExactRep-v3-final,2021.2.3,59.96088125112583,
,,,,,,,,,,,,34,0,34,0,,,,,,,,,,,,,,,,,,,,,,,,,,,,,,,,,,,,,,,,,,,,,,,,,2504.6695053000003,None,,,,,,,,,,,,,,,,,,,,,,,,,,,,,,,,,,,,,,,,,,,,,,,,,,,,,,,,,hall,80,35,aloud,old,yellow,2503.2925557000563,None,y,2503.2925557000563,None,"['y', 'return']","[0.9170070001855493, 1.3330015996471047]",2503.2925557000563,None,,,71NE,001,2023_May_03_1701,ExactRep-v3-final,2021.2.3,59.96088125112583,
,,,,,,,,,,,,35,0,35,0,,,,,,,,,,,,,,,,,,,,,,,,,,,,,,,,,,,,,,,,,,,,,,,,,2506.554446199909,None,,,,,,,,,,,,,,,,,,,,,,,,,,,,,,,,,,,,,,,,,,,,,,,,,,,,,,,,,maiden,69,36,silent,old,yellow,2505.1790477000177,None,y,2505.1790477000177,None,"['y', 'return']","[0.9665320003405213, 1.3346421997994184]",2505.1790477000177,None,,,71NE,001,2023_May_03_1701,ExactRep-v3-final,2021.2.3,59.96088125112583,
,,,,,,,,,,,,36,0,36,0,,,,,,,,,,,,,,,,,,,,,,,,,,,,,,,,,,,,,,,,,,,,,,,,,2508.4064816003665,None,,,,,,,,,,,,,,,,,,,,,,,,,,,,,,,,,,,,,,,,,,,,,,,,,,,,,,,,,life,115,37,aloud,old,yellow,2507.0603394005448,None,y,2507.0603394005448,None,"['y', 'return']","[0.8854118995368481, 1.3094358993694186]",2507.0603394005448,None,,,71NE,001,2023_May_03_1701,ExactRep-v3-final,2021.2.3,59.96088125112583,
,,,,,,,,,,,,37,0,37,0,,,,,,,,,,,,,,,,,,,,,,,,,,,,,,,,,,,,,,,,,,,,,,,,,2510.324992400594,None,,,,,,,,,,,,,,,,,,,,,,,,,,,,,,,,,,,,,,,,,,,,,,,,,,,,,,,,,author,211,38,sing,new,yellow,2508.9187959004194,None,n,2508.9187959004194,None,"['n', 'return']","[0.9228256000205874, 1.3628006996586919]",2508.9187959004194,None,,,71NE,001,2023_May_03_1701,ExactRep-v3-final,2021.2.3,59.96088125112583,
,,,,,,,,,,,,38,0,38,0,,,,,,,,,,,,,,,,,,,,,,,,,,,,,,,,,,,,,,,,,,,,,,,,,2512.277046199888,None,,,,,,,,,,,,,,,,,,,,,,,,,,,,,,,,,,,,,,,,,,,,,,,,,,,,,,,,,blossom,25,39,sing,old,yellow,2510.8348530000076,None,y,2510.8348530000076,None,"['y', 'return']","[0.8870831001549959, 1.3987344997003675]",2510.8348530000076,None,,,71NE,001,2023_May_03_1701,ExactRep-v3-final,2021.2.3,59.96088125112583,
,,,,,,,,,,,,39,0,39,0,,,,,,,,,,,,,,,,,,,,,,,,,,,,,,,,,,,,,,,,,,,,,,,,,2514.128853400238,None,,,,,,,,,,,,,,,,,,,,,,,,,,,,,,,,,,,,,,,,,,,,,,,,,,,,,,,,,humour,11,40,sing,old,yellow,2512.7777311000973,None,y,2512.7777311000973,None,"['y', 'return']","[0.9520053993910551, 1.3119295993819833]",2512.7777311000973,None,,,71NE,001,2023_May_03_1701,ExactRep-v3-final,2021.2.3,59.96088125112583,
,,,,,,,,,,,,40,0,40,0,,,,,,,,,,,,,,,,,,,,,,,,,,,,,,,,,,,,,,,,,,,,,,,,,2515.9138337001204,None,,,,,,,,,,,,,,,,,,,,,,,,,,,,,,,,,,,,,,,,,,,,,,,,,,,,,,,,,string,186,41,aloud,new,yellow,2514.637022100389,None,n,2514.637022100389,None,"['n', 'return']","[0.8206521002575755, 1.2446384001523256]",2514.637022100389,None,,,71NE,001,2023_May_03_1701,ExactRep-v3-final,2021.2.3,59.96088125112583,
,,,,,,,,,,,,41,0,41,0,,,,,,,,,,,,,,,,,,,,,,,,,,,,,,,,,,,,,,,,,,,,,,,,,2518.6166457999498,None,,,,,,,,,,,,,,,,,,,,,,,,,,,,,,,,,,,,,,,,,,,,,,,,,,,,,,,,,passion,163,42,sing,new,yellow,2516.4247917002067,None,n,2516.4247917002067,None,"['n', 'return']","[1.728986899368465, 2.144852999597788]",2516.4247917002067,None,,,71NE,001,2023_May_03_1701,ExactRep-v3-final,2021.2.3,59.96088125112583,
,,,,,,,,,,,,42,0,42,0,,,,,,,,,,,,,,,,,,,,,,,,,,,,,,,,,,,,,,,,,,,,,,,,,2520.51856970042,None,,,,,,,,,,,,,,,,,,,,,,,,,,,,,,,,,,,,,,,,,,,,,,,,,,,,,,,,,door,76,43,silent,old,yellow,2519.1337125999853,None,y,2519.1337125999853,None,"['y', 'return']","[0.8761452995240688, 1.3399986000731587]",2519.1337125999853,None,,,71NE,001,2023_May_03_1701,ExactRep-v3-final,2021.2.3,59.96088125112583,
,,,,,,,,,,,,43,0,43,0,,,,,,,,,,,,,,,,,,,,,,,,,,,,,,,,,,,,,,,,,,,,,,,,,2523.2213995000347,None,,,,,,,,,,,,,,,,,,,,,,,,,,,,,,,,,,,,,,,,,,,,,,,,,,,,,,,,,woods,36,44,sing,old,yellow,2521.0286884000525,None,n,2521.0286884000525,None,"['n', 'return']","[1.7169193997979164, 2.156971000134945]",2521.0286884000525,None,,,71NE,001,2023_May_03_1701,ExactRep-v3-final,2021.2.3,59.96088125112583,
,,,,,,,,,,,,44,0,44,0,,,,,,,,,,,,,,,,,,,,,,,,,,,,,,,,,,,,,,,,,,,,,,,,,2526.457903800532,None,,,,,,,,,,,,,,,,,,,,,,,,,,,,,,,,,,,,,,,,,,,,,,,,,,,,,,,,,salary,88,45,aloud,old,yellow,2523.7320215003565,None,y,2523.7320215003565,None,"['y', 'return']","[2.245616400614381, 2.6936792004853487]",2523.7320215003565,None,,,71NE,001,2023_May_03_1701,ExactRep-v3-final,2021.2.3,59.96088125112583,
,,,,,,,,,,,,45,0,45,0,,,,,,,,,,,,,,,,,,,,,,,,,,,,,,,,,,,,,,,,,,,,,,,,,2528.593445200473,None,,,,,,,,,,,,,,,,,,,,,,,,,,,,,,,,,,,,,,,,,,,,,,,,,,,,,,,,,meadow,233,46,sing,new,yellow,2526.968083200045,None,n,2526.968083200045,None,"['n', 'return']","[1.113626199774444, 1.5936409998685122]",2526.968083200045,None,,,71NE,001,2023_May_03_1701,ExactRep-v3-final,2021.2.3,59.96088125112583,
,,,,,,,,,,,,46,0,46,0,,,,,,,,,,,,,,,,,,,,,,,,,,,,,,,,,,,,,,,,,,,,,,,,,2530.5952674001455,None,,,,,,,,,,,,,,,,,,,,,,,,,,,,,,,,,,,,,,,,,,,,,,,,,,,,,,,,,coin,3,47,sing,old,yellow,2529.105092700571,None,y,2529.105092700571,None,"['y', 'return']","[0.95285340026021, 1.4565998995676637]",2529.105092700571,None,,,71NE,001,2023_May_03_1701,ExactRep-v3-final,2021.2.3,59.96088125112583,
,,,,,,,,,,,,47,0,47,0,,,,,,,,,,,,,,,,,,,,,,,,,,,,,,,,,,,,,,,,,,,,,,,,,2533.832022900693,None,,,,,,,,,,,,,,,,,,,,,,,,,,,,,,,,,,,,,,,,,,,,,,,,,,,,,,,,,fact,138,48,silent,new,yellow,2531.101833799854,None,n,2531.101833799854,None,"['n', 'return']","[2.2518032006919384, 2.6838362999260426]",2531.101833799854,None,,,71NE,001,2023_May_03_1701,ExactRep-v3-final,2021.2.3,59.96088125112583,
,,,,,,,,,,,,48,0,48,0,,,,,,,,,,,,,,,,,,,,,,,,,,,,,,,,,,,,,,,,,,,,,,,,,2536.234420900233,None,,,,,,,,,,,,,,,,,,,,,,,,,,,,,,,,,,,,,,,,,,,,,,,,,,,,,,,,,shock,110,49,aloud,old,yellow,2534.3408316001296,None,n,2534.3408316001296,None,"['n', 'return']","[1.4287948003038764, 1.8608601996675134]",2534.3408316001296,None,,,71NE,001,2023_May_03_1701,ExactRep-v3-final,2021.2.3,59.96088125112583,
,,,,,,,,,,,,49,0,49,0,,,,,,,,,,,,,,,,,,,,,,,,,,,,,,,,,,,,,,,,,,,,,,,,,2538.0861920006573,None,,,,,,,,,,,,,,,,,,,,,,,,,,,,,,,,,,,,,,,,,,,,,,,,,,,,,,,,,colony,31,50,sing,old,yellow,2536.7432530000806,None,y,2536.7432530000806,None,"['y', 'return']","[0.8106919005513191, 1.3064791997894645]",2536.7432530000806,None,,,71NE,001,2023_May_03_1701,ExactRep-v3-final,2021.2.3,59.96088125112583,
,,,,,,,,,,,,50,0,50,0,,,,,,,,,,,,,,,,,,,,,,,,,,,,,,,,,,,,,,,,,,,,,,,,,2540.5720848003402,None,,,,,,,,,,,,,,,,,,,,,,,,,,,,,,,,,,,,,,,,,,,,,,,,,,,,,,,,,idea,177,51,sing,new,yellow,2538.5958190001547,None,n,2538.5958190001547,None,"['n', 'return']","[1.5181932002305984, 1.9337734002619982]",2538.5958190001547,None,,,71NE,001,2023_May_03_1701,ExactRep-v3-final,2021.2.3,59.96088125112583,
,,,,,,,,,,,,51,0,51,0,,,,,,,,,,,,,,,,,,,,,,,,,,,,,,,,,,,,,,,,,,,,,,,,,2542.774134499952,None,,,,,,,,,,,,,,,,,,,,,,,,,,,,,,,,,,,,,,,,,,,,,,,,,,,,,,,,,speech,90,52,aloud,old,yellow,2541.0834875004366,None,y,2541.0834875004366,None,"['y', 'return']","[1.2781675001606345, 1.6541778994724154]",2541.0834875004366,None,,,71NE,001,2023_May_03_1701,ExactRep-v3-final,2021.2.3,59.96088125112583,
,,,,,,,,,,,,52,0,52,0,,,,,,,,,,,,,,,,,,,,,,,,,,,,,,,,,,,,,,,,,,,,,,,,,2544.7094018999487,None,,,,,,,,,,,,,,,,,,,,,,,,,,,,,,,,,,,,,,,,,,,,,,,,,,,,,,,,,lip,160,53,aloud,new,yellow,2543.281280199997,None,n,2543.281280199997,None,"['n', 'return']","[0.9363528992980719, 1.392403299920261]",2543.281280199997,None,,,71NE,001,2023_May_03_1701,ExactRep-v3-final,2021.2.3,59.96088125112583,
,,,,,,,,,,,,53,0,53,0,,,,,,,,,,,,,,,,,,,,,,,,,,,,,,,,,,,,,,,,,,,,,,,,,2546.461334700696,None,,,,,,,,,,,,,,,,,,,,,,,,,,,,,,,,,,,,,,,,,,,,,,,,,,,,,,,,,soul,20,54,sing,old,yellow,2545.217886299826,None,y,2545.217886299826,None,"['y', 'return']","[0.8159329993650317, 1.1997786993160844]",2545.217886299826,None,,,71NE,001,2023_May_03_1701,ExactRep-v3-final,2021.2.3,59.96088125112583,
,,,,,,,,,,,,54,0,54,0,,,,,,,,,,,,,,,,,,,,,,,,,,,,,,,,,,,,,,,,,,,,,,,,,2548.2963532004505,None,,,,,,,,,,,,,,,,,,,,,,,,,,,,,,,,,,,,,,,,,,,,,,,,,,,,,,,,,effort,2,55,sing,old,yellow,2546.9707597000524,None,y,2546.9707597000524,None,"['y', 'return']","[0.8308941004797816, 1.2869453998282552]",2546.9707597000524,None,,,71NE,001,2023_May_03_1701,ExactRep-v3-final,2021.2.3,59.96088125112583,
,,,,,,,,,,,,55,0,55,0,,,,,,,,,,,,,,,,,,,,,,,,,,,,,,,,,,,,,,,,,,,,,,,,,2551.299308200367,None,,,,,,,,,,,,,,,,,,,,,,,,,,,,,,,,,,,,,,,,,,,,,,,,,,,,,,,,,excuse,8,56,sing,old,yellow,2548.8013263000175,None,y,2548.8013263000175,None,"['y', 'return']","[2.144332599826157, 2.4643083000555634]",2548.8013263000175,None,,,71NE,001,2023_May_03_1701,ExactRep-v3-final,2021.2.3,59.96088125112583,
,,,,,,,,,,,,56,0,56,0,,,,,,,,,,,,,,,,,,,,,,,,,,,,,,,,,,,,,,,,,,,,,,,,,2553.5182902999222,None,,,,,,,,,,,,,,,,,,,,,,,,,,,,,,,,,,,,,,,,,,,,,,,,,,,,,,,,,forest,51,57,silent,old,yellow,2551.7997264005244,None,n,2551.7997264005244,None,"['n', 'return']","[1.297919699922204, 1.681967900134623]",2551.7997264005244,None,,,71NE,001,2023_May_03_1701,ExactRep-v3-final,2021.2.3,59.96088125112583,
,,,,,,,,,,,,57,0,57,0,,,,,,,,,,,,,,,,,,,,,,,,,,,,,,,,,,,,,,,,,,,,,,,,,2555.136581500061,None,,,,,,,,,,,,,,,,,,,,,,,,,,,,,,,,,,,,,,,,,,,,,,,,,,,,,,,,,officer,151,58,silent,new,yellow,2554.0274757007137,None,n,2554.0274757007137,None,"['n', 'return']","[0.7342494996264577, 1.0702416002750397]",2554.0274757007137,None,,,71NE,001,2023_May_03_1701,ExactRep-v3-final,2021.2.3,59.96088125112583,
,,,,,,,,,,,,58,0,58,0,,,,,,,,,,,,,,,,,,,,,,,,,,,,,,,,,,,,,,,,,,,,,,,,,2556.938320999965,None,,,,,,,,,,,,,,,,,,,,,,,,,,,,,,,,,,,,,,,,,,,,,,,,,,,,,,,,,skin,210,59,aloud,new,yellow,2555.6439904002473,None,n,2555.6439904002473,None,"['n', 'return']","[0.9096903996542096, 1.2537178993225098]",2555.6439904002473,None,,,71NE,001,2023_May_03_1701,ExactRep-v3-final,2021.2.3,59.96088125112583,
,,,,,,,,,,,,59,0,59,0,,,,,,,,,,,,,,,,,,,,,,,,,,,,,,,,,,,,,,,,,,,,,,,,,2558.740099900402,None,,,,,,,,,,,,,,,,,,,,,,,,,,,,,,,,,,,,,,,,,,,,,,,,,,,,,,,,,chance,0,60,sing,old,yellow,2557.44900680054,None,y,2557.44900680054,None,"['y', 'return']","[0.9207044001668692, 1.2566339997574687]",2557.44900680054,None,,,71NE,001,2023_May_03_1701,ExactRep-v3-final,2021.2.3,59.96088125112583,
,,,,,,,,,,,,60,0,60,0,,,,,,,,,,,,,,,,,,,,,,,,,,,,,,,,,,,,,,,,,,,,,,,,,2560.3417116999626,None,,,,,,,,,,,,,,,,,,,,,,,,,,,,,,,,,,,,,,,,,,,,,,,,,,,,,,,,,coffee,9,61,sing,old,yellow,2559.250759500079,None,y,2559.250759500079,None,"['y', 'return']","[0.702767500653863, 1.0468562003225088]",2559.250759500079,None,,,71NE,001,2023_May_03_1701,ExactRep-v3-final,2021.2.3,59.96088125112583,
,,,,,,,,,,,,61,0,61,0,,,,,,,,,,,,,,,,,,,,,,,,,,,,,,,,,,,,,,,,,,,,,,,,,2563.244626100175,None,,,,,,,,,,,,,,,,,,,,,,,,,,,,,,,,,,,,,,,,,,,,,,,,,,,,,,,,,square,41,62,silent,old,yellow,2560.855667900294,None,y,2560.855667900294,None,"['y', 'return']","[1.9941596994176507, 2.353980199433863]",2560.855667900294,None,,,71NE,001,2023_May_03_1701,ExactRep-v3-final,2021.2.3,59.96088125112583,
,,,,,,,,,,,,62,0,62,0,,,,,,,,,,,,,,,,,,,,,,,,,,,,,,,,,,,,,,,,,,,,,,,,,2565.1131442999467,None,,,,,,,,,,,,,,,,,,,,,,,,,,,,,,,,,,,,,,,,,,,,,,,,,,,,,,,,,journal,44,63,silent,old,yellow,2563.74972790014,None,n,2563.74972790014,None,"['n', 'return']","[0.9000270003452897, 1.3240807000547647]",2563.74972790014,None,,,71NE,001,2023_May_03_1701,ExactRep-v3-final,2021.2.3,59.96088125112583,
,,,,,,,,,,,,63,0,63,0,,,,,,,,,,,,,,,,,,,,,,,,,,,,,,,,,,,,,,,,,,,,,,,,,2566.848232800141,None,,,,,,,,,,,,,,,,,,,,,,,,,,,,,,,,,,,,,,,,,,,,,,,,,,,,,,,,,doll,199,64,sing,new,yellow,2565.625657500699,None,n,2565.625657500699,None,"['n', 'return']","[0.784328299574554, 1.176031599752605]",2565.625657500699,None,,,71NE,001,2023_May_03_1701,ExactRep-v3-final,2021.2.3,59.96088125112583,
,,,,,,,,,,,,64,0,64,0,,,,,,,,,,,,,,,,,,,,,,,,,,,,,,,,,,,,,,,,,,,,,,,,,2568.650164300576,None,,,,,,,,,,,,,,,,,,,,,,,,,,,,,,,,,,,,,,,,,,,,,,,,,,,,,,,,,event,38,65,sing,old,yellow,2567.3581958999857,None,y,2567.3581958999857,None,"['y', 'return']","[0.8514673002064228, 1.2596100000664592]",2567.3581958999857,None,,,71NE,001,2023_May_03_1701,ExactRep-v3-final,2021.2.3,59.96088125112583,
,,,,,,,,,,,,65,0,65,0,,,,,,,,,,,,,,,,,,,,,,,,,,,,,,,,,,,,,,,,,,,,,,,,,2570.902297500521,None,,,,,,,,,,,,,,,,,,,,,,,,,,,,,,,,,,,,,,,,,,,,,,,,,,,,,,,,,glory,175,66,sing,new,yellow,2569.1610278999433,None,n,2569.1610278999433,None,"['n', 'return']","[1.3128317007794976, 1.7047143001109362]",2569.1610278999433,None,,,71NE,001,2023_May_03_1701,ExactRep-v3-final,2021.2.3,59.96088125112583,
,,,,,,,,,,,,66,0,66,0,,,,,,,,,,,,,,,,,,,,,,,,,,,,,,,,,,,,,,,,,,,,,,,,,2573.0378055004403,None,,,,,,,,,,,,,,,,,,,,,,,,,,,,,,,,,,,,,,,,,,,,,,,,,,,,,,,,,dawn,75,67,silent,old,yellow,2571.416460700333,None,y,2571.416460700333,None,"['y', 'return']","[1.201204700395465, 1.5851603001356125]",2571.416460700333,None,,,71NE,001,2023_May_03_1701,ExactRep-v3-final,2021.2.3,59.96088125112583,
,,,,,,,,,,,,67,0,67,0,,,,,,,,,,,,,,,,,,,,,,,,,,,,,,,,,,,,,,,,,,,,,,,,,2575.50692110043,None,,,,,,,,,,,,,,,,,,,,,,,,,,,,,,,,,,,,,,,,,,,,,,,,,,,,,,,,,fate,103,68,aloud,old,yellow,2573.5495334006846,None,n,2573.5495334006846,None,"['n', 'return']","[1.572146199643612, 1.9242998994886875]",2573.5495334006846,None,,,71NE,001,2023_May_03_1701,ExactRep-v3-final,2021.2.3,59.96088125112583,
,,,,,,,,,,,,68,0,68,0,,,,,,,,,,,,,,,,,,,,,,,,,,,,,,,,,,,,,,,,,,,,,,,,,2577.208614900708,None,,,,,,,,,,,,,,,,,,,,,,,,,,,,,,,,,,,,,,,,,,,,,,,,,,,,,,,,,king,54,69,silent,old,yellow,2576.017173600383,None,y,2576.017173600383,None,"['y', 'return']","[0.7126065008342266, 1.1525706006214023]",2576.017173600383,None,,,71NE,001,2023_May_03_1701,ExactRep-v3-final,2021.2.3,59.96088125112583,
,,,,,,,,,,,,69,0,69,0,,,,,,,,,,,,,,,,,,,,,,,,,,,,,,,,,,,,,,,,,,,,,,,,,2580.011358000338,None,,,,,,,,,,,,,,,,,,,,,,,,,,,,,,,,,,,,,,,,,,,,,,,,,,,,,,,,,army,237,70,sing,new,yellow,2577.7194722006097,None,n,2577.7194722006097,None,"['n', 'return']","[1.8422670001164079, 2.258225600235164]",2577.7194722006097,None,,,71NE,001,2023_May_03_1701,ExactRep-v3-final,2021.2.3,59.96088125112583,
,,,,,,,,,,,,70,0,70,0,,,,,,,,,,,,,,,,,,,,,,,,,,,,,,,,,,,,,,,,,,,,,,,,,2583.1312060002238,None,,,,,,,,,,,,,,,,,,,,,,,,,,,,,,,,,,,,,,,,,,,,,,,,,,,,,,,,,palace,137,71,silent,new,yellow,2580.5186162004247,None,n,2580.5186162004247,None,"['return', 'n', 'return']","[1.4909634999930859, 2.003184199333191, 2.579076699912548]",2580.5186162004247,None,,,71NE,001,2023_May_03_1701,ExactRep-v3-final,2021.2.3,59.96088125112583,
,,,,,,,,,,,,71,0,71,0,,,,,,,,,,,,,,,,,,,,,,,,,,,,,,,,,,,,,,,,,,,,,,,,,2585.2666406007484,None,,,,,,,,,,,,,,,,,,,,,,,,,,,,,,,,,,,,,,,,,,,,,,,,,,,,,,,,,plain,124,72,silent,new,yellow,2583.642022800632,None,n,2583.642022800632,None,"['n', 'return']","[1.1516834003850818, 1.5917325001209974]",2583.642022800632,None,,,71NE,001,2023_May_03_1701,ExactRep-v3-final,2021.2.3,59.96088125112583,
,,,,,,,,,,,,72,0,72,0,,,,,,,,,,,,,,,,,,,,,,,,,,,,,,,,,,,,,,,,,,,,,,,,,2586.968415000476,None,,,,,,,,,,,,,,,,,,,,,,,,,,,,,,,,,,,,,,,,,,,,,,,,,,,,,,,,,kiss,23,73,sing,old,yellow,2585.7686979006976,None,y,2585.7686979006976,None,"['y', 'return']","[0.7610138999298215, 1.1610444001853466]",2585.7686979006976,None,,,71NE,001,2023_May_03_1701,ExactRep-v3-final,2021.2.3,59.96088125112583,
,,,,,,,,,,,,73,0,73,0,,,,,,,,,,,,,,,,,,,,,,,,,,,,,,,,,,,,,,,,,,,,,,,,,2589.621042800136,None,,,,,,,,,,,,,,,,,,,,,,,,,,,,,,,,,,,,,,,,,,,,,,,,,,,,,,,,,chair,50,74,silent,old,yellow,2587.4760460006073,None,n,2587.4760460006073,None,"['n', 'return']","[1.7017603004351258, 2.1016195006668568]",2587.4760460006073,None,,,71NE,001,2023_May_03_1701,ExactRep-v3-final,2021.2.3,59.96088125112583,
,,,,,,,,,,,,74,0,74,0,,,,,,,,,,,,,,,,,,,,,,,,,,,,,,,,,,,,,,,,,,,,,,,,,2591.6397401001304,None,,,,,,,,,,,,,,,,,,,,,,,,,,,,,,,,,,,,,,,,,,,,,,,,,,,,,,,,,bird,1,75,sing,old,yellow,2590.131034400314,None,n,2590.131034400314,None,"['n', 'return']","[0.9426335003226995, 1.462742700241506]",2590.131034400314,None,,,71NE,001,2023_May_03_1701,ExactRep-v3-final,2021.2.3,59.96088125112583,
,,,,,,,,,,,,75,0,75,0,,,,,,,,,,,,,,,,,,,,,,,,,,,,,,,,,,,,,,,,,,,,,,,,,2593.491496800445,None,,,,,,,,,,,,,,,,,,,,,,,,,,,,,,,,,,,,,,,,,,,,,,,,,,,,,,,,,potato,106,76,aloud,old,yellow,2592.149182700552,None,y,2592.149182700552,None,"['y', 'return']","[0.9246895993128419, 1.3085314994677901]",2592.149182700552,None,,,71NE,001,2023_May_03_1701,ExactRep-v3-final,2021.2.3,59.96088125112583,
,,,,,,,,,,,,76,0,76,0,,,,,,,,,,,,,,,,,,,,,,,,,,,,,,,,,,,,,,,,,,,,,,,,,2595.493587899953,None,,,,,,,,,,,,,,,,,,,,,,,,,,,,,,,,,,,,,,,,,,,,,,,,,,,,,,,,,boy,140,77,silent,new,yellow,2594.001110800542,None,n,2594.001110800542,None,"['n', 'return']","[1.048472199589014, 1.4566027000546455]",2594.001110800542,None,,,71NE,001,2023_May_03_1701,ExactRep-v3-final,2021.2.3,59.96088125112583,
,,,,,,,,,,,,77,0,77,0,,,,,,,,,,,,,,,,,,,,,,,,,,,,,,,,,,,,,,,,,,,,,,,,,2597.362208700739,None,,,,,,,,,,,,,,,,,,,,,,,,,,,,,,,,,,,,,,,,,,,,,,,,,,,,,,,,,devil,190,78,aloud,new,yellow,2596.0107507007197,None,n,2596.0107507007197,None,"['n', 'return']","[0.9429653994739056, 1.3109862999990582]",2596.0107507007197,None,,,71NE,001,2023_May_03_1701,ExactRep-v3-final,2021.2.3,59.96088125112583,
,,,,,,,,,,,,78,0,78,0,,,,,,,,,,,,,,,,,,,,,,,,,,,,,,,,,,,,,,,,,,,,,,,,,2599.163864100352,None,,,,,,,,,,,,,,,,,,,,,,,,,,,,,,,,,,,,,,,,,,,,,,,,,,,,,,,,,thought,113,79,aloud,old,yellow,2597.869451000355,None,n,2597.869451000355,None,"['n', 'return']","[0.8442544005811214, 1.2602185001596808]",2597.869451000355,None,,,71NE,001,2023_May_03_1701,ExactRep-v3-final,2021.2.3,59.96088125112583,
,,,,,,,,,,,,79,0,79,0,,,,,,,,,,,,,,,,,,,,,,,,,,,,,,,,,,,,,,,,,,,,,,,,,2602.8844140004367,None,,,,,,,,,,,,,,,,,,,,,,,,,,,,,,,,,,,,,,,,,,,,,,,,,,,,,,,,,artist,28,80,sing,old,yellow,2599.67726550065,None,y,2599.67726550065,None,"['y', 'return']","[2.7723960001021624, 3.1724065002053976]",2599.67726550065,None,,,71NE,001,2023_May_03_1701,ExactRep-v3-final,2021.2.3,59.96088125112583,
,,,,,,,,,,,,80,0,80,0,,,,,,,,,,,,,,,,,,,,,,,,,,,,,,,,,,,,,,,,,,,,,,,,,2604.6361688002944,None,,,,,,,,,,,,,,,,,,,,,,,,,,,,,,,,,,,,,,,,,,,,,,,,,,,,,,,,,shoes,55,81,silent,old,yellow,2603.4013144001365,None,n,2603.4013144001365,None,"['n', 'return']","[0.7604562994092703, 1.2003456000238657]",2603.4013144001365,None,,,71NE,001,2023_May_03_1701,ExactRep-v3-final,2021.2.3,59.96088125112583,
,,,,,,,,,,,,81,0,81,0,,,,,,,,,,,,,,,,,,,,,,,,,,,,,,,,,,,,,,,,,,,,,,,,,2606.4046661006287,None,,,,,,,,,,,,,,,,,,,,,,,,,,,,,,,,,,,,,,,,,,,,,,,,,,,,,,,,,freedom,181,82,sing,new,yellow,2605.1430108007044,None,n,2605.1430108007044,None,"['n', 'return']","[0.8029172997921705, 1.2267305003479123]",2605.1430108007044,None,,,71NE,001,2023_May_03_1701,ExactRep-v3-final,2021.2.3,59.96088125112583,
,,,,,,,,,,,,82,0,82,0,,,,,,,,,,,,,,,,,,,,,,,,,,,,,,,,,,,,,,,,,,,,,,,,,2608.590020700358,None,,,,,,,,,,,,,,,,,,,,,,,,,,,,,,,,,,,,,,,,,,,,,,,,,,,,,,,,,gift,206,83,aloud,new,yellow,2606.909889699891,None,n,2606.909889699891,None,"['n', 'return']","[1.3000375991687179, 1.6358437994495034]",2606.909889699891,None,,,71NE,001,2023_May_03_1701,ExactRep-v3-final,2021.2.3,59.96088125112583,
,,,,,,,,,,,,83,0,83,0,,,,,,,,,,,,,,,,,,,,,,,,,,,,,,,,,,,,,,,,,,,,,,,,,2610.4253481002524,None,,,,,,,,,,,,,,,,,,,,,,,,,,,,,,,,,,,,,,,,,,,,,,,,,,,,,,,,,corn,164,84,aloud,new,yellow,2609.099370500073,None,n,2609.099370500073,None,"['n', 'return']","[0.8866574000567198, 1.2783180996775627]",2609.099370500073,None,,,71NE,001,2023_May_03_1701,ExactRep-v3-final,2021.2.3,59.96088125112583,
,,,,,,,,,,,,84,0,84,0,,,,,,,,,,,,,,,,,,,,,,,,,,,,,,,,,,,,,,,,,,,,,,,,,2613.6118146004155,None,,,,,,,,,,,,,,,,,,,,,,,,,,,,,,,,,,,,,,,,,,,,,,,,,,,,,,,,,fault,126,85,silent,new,yellow,2610.934193700552,None,n,2610.934193700552,None,"['n', 'return']","[2.251719600521028, 2.6436075000092387]",2610.934193700552,None,,,71NE,001,2023_May_03_1701,ExactRep-v3-final,2021.2.3,59.96088125112583,
,,,,,,,,,,,,85,0,85,0,,,,,,,,,,,,,,,,,,,,,,,,,,,,,,,,,,,,,,,,,,,,,,,,,2615.5138165000826,None,,,,,,,,,,,,,,,,,,,,,,,,,,,,,,,,,,,,,,,,,,,,,,,,,,,,,,,,,clock,5,86,sing,old,yellow,2614.122827500105,None,y,2614.122827500105,None,"['y', 'return']","[1.0149089004844427, 1.3509114002808928]",2614.122827500105,None,,,71NE,001,2023_May_03_1701,ExactRep-v3-final,2021.2.3,59.96088125112583,
,,,,,,,,,,,,86,0,86,0,,,,,,,,,,,,,,,,,,,,,,,,,,,,,,,,,,,,,,,,,,,,,,,,,2620.5186189999804,None,,,,,,,,,,,,,,,,,,,,,,,,,,,,,,,,,,,,,,,,,,,,,,,,,,,,,,,,,tool,65,87,silent,old,yellow,2616.0292918002233,None,n,2616.0292918002233,None,"['n', 'return']","[4.124288600869477, 4.452389900572598]",2616.0292918002233,None,,,71NE,001,2023_May_03_1701,ExactRep-v3-final,2021.2.3,59.96088125112583,
,,,,,,,,,,,,87,0,87,0,,,,,,,,,,,,,,,,,,,,,,,,,,,,,,,,,,,,,,,,,,,,,,,,,2622.587290200405,None,,,,,,,,,,,,,,,,,,,,,,,,,,,,,,,,,,,,,,,,,,,,,,,,,,,,,,,,,opinion,165,88,sing,new,yellow,2621.0305534005165,None,n,2621.0305534005165,None,"['n', 'return']","[1.0991527996957302, 1.5152124995365739]",2621.0305534005165,None,,,71NE,001,2023_May_03_1701,ExactRep-v3-final,2021.2.3,59.96088125112583,
,,,,,,,,,,,,88,0,88,0,,,,,,,,,,,,,,,,,,,,,,,,,,,,,,,,,,,,,,,,,,,,,,,,,2624.373505000025,None,,,,,,,,,,,,,,,,,,,,,,,,,,,,,,,,,,,,,,,,,,,,,,,,,,,,,,,,,priest,208,89,aloud,new,yellow,2623.1013016002253,None,n,2623.1013016002253,None,"['n', 'return']","[0.868443800136447, 1.228511200286448]",2623.1013016002253,None,,,71NE,001,2023_May_03_1701,ExactRep-v3-final,2021.2.3,59.96088125112583,
,,,,,,,,,,,,89,0,89,0,,,,,,,,,,,,,,,,,,,,,,,,,,,,,,,,,,,,,,,,,,,,,,,,,2626.1575064007193,None,,,,,,,,,,,,,,,,,,,,,,,,,,,,,,,,,,,,,,,,,,,,,,,,,,,,,,,,,mind,172,90,aloud,new,yellow,2624.8842465998605,None,n,2624.8842465998605,None,"['n', 'return']","[0.8695439994335175, 1.2294678995385766]",2624.8842465998605,None,,,71NE,001,2023_May_03_1701,ExactRep-v3-final,2021.2.3,59.96088125112583,
,,,,,,,,,,,,90,0,90,0,,,,,,,,,,,,,,,,,,,,,,,,,,,,,,,,,,,,,,,,,,,,,,,,,2628.0094975000247,None,,,,,,,,,,,,,,,,,,,,,,,,,,,,,,,,,,,,,,,,,,,,,,,,,,,,,,,,,length,143,91,silent,new,yellow,2626.6689593000337,None,n,2626.6689593000337,None,"['n', 'return']","[0.9089511996135116, 1.3008059998974204]",2626.6689593000337,None,,,71NE,001,2023_May_03_1701,ExactRep-v3-final,2021.2.3,59.96088125112583,
,,,,,,,,,,,,91,0,91,0,,,,,,,,,,,,,,,,,,,,,,,,,,,,,,,,,,,,,,,,,,,,,,,,,2629.844595500268,None,,,,,,,,,,,,,,,,,,,,,,,,,,,,,,,,,,,,,,,,,,,,,,,,,,,,,,,,,hotel,107,92,aloud,old,yellow,2628.5177194001153,None,y,2628.5177194001153,None,"['y', 'return']","[0.8119894005358219, 1.2921513002365828]",2628.5177194001153,None,,,71NE,001,2023_May_03_1701,ExactRep-v3-final,2021.2.3,59.96088125112583,
,,,,,,,,,,,,92,0,92,0,,,,,,,,,,,,,,,,,,,,,,,,,,,,,,,,,,,,,,,,,,,,,,,,,2632.4137622006238,None,,,,,,,,,,,,,,,,,,,,,,,,,,,,,,,,,,,,,,,,,,,,,,,,,,,,,,,,,mercy,202,93,aloud,new,yellow,2630.357773399912,None,n,2630.357773399912,None,"['n', 'return']","[1.6441032998263836, 2.0119241001084447]",2630.357773399912,None,,,71NE,001,2023_May_03_1701,ExactRep-v3-final,2021.2.3,59.96088125112583,
,,,,,,,,,,,,93,0,93,0,,,,,,,,,,,,,,,,,,,,,,,,,,,,,,,,,,,,,,,,,,,,,,,,,2634.265595000237,None,,,,,,,,,,,,,,,,,,,,,,,,,,,,,,,,,,,,,,,,,,,,,,,,,,,,,,,,,body,145,94,silent,new,yellow,2632.918040700257,None,n,2632.918040700257,None,"['n', 'return']","[0.8676733002066612, 1.2997513003647327]",2632.918040700257,None,,,71NE,001,2023_May_03_1701,ExactRep-v3-final,2021.2.3,59.96088125112583,
,,,,,,,,,,,,94,0,94,0,,,,,,,,,,,,,,,,,,,,,,,,,,,,,,,,,,,,,,,,,,,,,,,,,2636.2175814006478,None,,,,,,,,,,,,,,,,,,,,,,,,,,,,,,,,,,,,,,,,,,,,,,,,,,,,,,,,,anger,112,95,aloud,old,yellow,2634.7796836998314,None,y,2634.7796836998314,None,"['y', 'return']","[1.0220378004014492, 1.39016090054065]",2634.7796836998314,None,,,71NE,001,2023_May_03_1701,ExactRep-v3-final,2021.2.3,59.96088125112583,
,,,,,,,,,,,,95,0,95,0,,,,,,,,,,,,,,,,,,,,,,,,,,,,,,,,,,,,,,,,,,,,,,,,,2637.8358594998717,None,,,,,,,,,,,,,,,,,,,,,,,,,,,,,,,,,,,,,,,,,,,,,,,,,,,,,,,,,pupil,26,96,sing,old,yellow,2636.7277545006946,None,y,2636.7277545006946,None,"['y', 'return']","[0.7621675003319979, 1.0659622997045517]",2636.7277545006946,None,,,71NE,001,2023_May_03_1701,ExactRep-v3-final,2021.2.3,59.96088125112583,
,,,,,,,,,,,,96,0,96,0,,,,,,,,,,,,,,,,,,,,,,,,,,,,,,,,,,,,,,,,,,,,,,,,,2640.805481400341,None,,,,,,,,,,,,,,,,,,,,,,,,,,,,,,,,,,,,,,,,,,,,,,,,,,,,,,,,,boulder,191,97,sing,new,yellow,2638.345892299898,None,n,2638.345892299898,None,"['n', 'return']","[1.33617589995265, 2.4158417992293835]",2638.345892299898,None,,,71NE,001,2023_May_03_1701,ExactRep-v3-final,2021.2.3,59.96088125112583,
,,,,,,,,,,,,97,0,97,0,,,,,,,,,,,,,,,,,,,,,,,,,,,,,,,,,,,,,,,,,,,,,,,,,2642.774137900211,None,,,,,,,,,,,,,,,,,,,,,,,,,,,,,,,,,,,,,,,,,,,,,,,,,,,,,,,,,soil,144,98,silent,new,yellow,2641.3090490000322,None,n,2641.3090490000322,None,"['n', 'return']","[1.0765960002318025, 1.4287354005500674]",2641.3090490000322,None,,,71NE,001,2023_May_03_1701,ExactRep-v3-final,2021.2.3,59.96088125112583,
,,,,,,,,,,,,98,0,98,0,,,,,,,,,,,,,,,,,,,,,,,,,,,,,,,,,,,,,,,,,,,,,,,,,2644.7262669000775,None,,,,,,,,,,,,,,,,,,,,,,,,,,,,,,,,,,,,,,,,,,,,,,,,,,,,,,,,,health,168,99,aloud,new,yellow,2643.285141600296,None,n,2643.285141600296,None,"['n', 'return']","[1.0686819003894925, 1.4047333002090454]",2643.285141600296,None,,,71NE,001,2023_May_03_1701,ExactRep-v3-final,2021.2.3,59.96088125112583,
,,,,,,,,,,,,99,0,99,0,,,,,,,,,,,,,,,,,,,,,,,,,,,,,,,,,,,,,,,,,,,,,,,,,2646.761490500532,None,,,,,,,,,,,,,,,,,,,,,,,,,,,,,,,,,,,,,,,,,,,,,,,,,,,,,,,,,fortune,98,100,aloud,old,yellow,2645.235789500177,None,y,2645.235789500177,None,"['y', 'return']","[1.0619238996878266, 1.4859835002571344]",2645.235789500177,None,,,71NE,001,2023_May_03_1701,ExactRep-v3-final,2021.2.3,59.96088125112583,
,,,,,,,,,,,,100,0,100,0,,,,,,,,,,,,,,,,,,,,,,,,,,,,,,,,,,,,,,,,,,,,,,,,,2649.6142776003107,None,,,,,,,,,,,,,,,,,,,,,,,,,,,,,,,,,,,,,,,,,,,,,,,,,,,,,,,,,justice,173,101,sing,new,yellow,2647.2711354000494,None,n,2647.2711354000494,None,"['n', 'return']","[2.042571800760925, 2.3066122001037]",2647.2711354000494,None,,,71NE,001,2023_May_03_1701,ExactRep-v3-final,2021.2.3,59.96088125112583,
,,,,,,,,,,,,101,0,101,0,,,,,,,,,,,,,,,,,,,,,,,,,,,,,,,,,,,,,,,,,,,,,,,,,2651.4996950002387,None,,,,,,,,,,,,,,,,,,,,,,,,,,,,,,,,,,,,,,,,,,,,,,,,,,,,,,,,,vision,12,102,sing,old,yellow,2650.126026900485,None,y,2650.126026900485,None,"['y', 'return']","[0.8357429997995496, 1.33174670021981]",2650.126026900485,None,,,71NE,001,2023_May_03_1701,ExactRep-v3-final,2021.2.3,59.96088125112583,
,,,,,,,,,,,,102,0,102,0,,,,,,,,,,,,,,,,,,,,,,,,,,,,,,,,,,,,,,,,,,,,,,,,,2653.401504000649,None,,,,,,,,,,,,,,,,,,,,,,,,,,,,,,,,,,,,,,,,,,,,,,,,,,,,,,,,,window,46,103,silent,old,yellow,2652.007683600299,None,n,2652.007683600299,None,"['n', 'return']","[0.8661636998876929, 1.3541513998061419]",2652.007683600299,None,,,71NE,001,2023_May_03_1701,ExactRep-v3-final,2021.2.3,59.96088125112583,
,,,,,,,,,,,,103,0,103,0,,,,,,,,,,,,,,,,,,,,,,,,,,,,,,,,,,,,,,,,,,,,,,,,,2656.087600099854,None,,,,,,,,,,,,,,,,,,,,,,,,,,,,,,,,,,,,,,,,,,,,,,,,,,,,,,,,,cotton,223,104,sing,new,yellow,2653.9080319004133,None,n,2653.9080319004133,None,"['n', 'return']","[1.7979059992358088, 2.141892399638891]",2653.9080319004133,None,,,71NE,001,2023_May_03_1701,ExactRep-v3-final,2021.2.3,59.96088125112583,
,,,,,,,,,,,,104,0,104,0,,,,,,,,,,,,,,,,,,,,,,,,,,,,,,,,,,,,,,,,,,,,,,,,,2657.7058200007305,None,,,,,,,,,,,,,,,,,,,,,,,,,,,,,,,,,,,,,,,,,,,,,,,,,,,,,,,,,cattle,224,105,aloud,new,yellow,2656.5966002000496,None,n,2656.5966002000496,None,"['n', 'return']","[0.7652832996100187, 1.0693122996017337]",2656.5966002000496,None,,,71NE,001,2023_May_03_1701,ExactRep-v3-final,2021.2.3,59.96088125112583,
,,,,,,,,,,,,105,0,105,0,,,,,,,,,,,,,,,,,,,,,,,,,,,,,,,,,,,,,,,,,,,,,,,,,2659.674355099909,None,,,,,,,,,,,,,,,,,,,,,,,,,,,,,,,,,,,,,,,,,,,,,,,,,,,,,,,,,table,101,106,aloud,old,yellow,2658.2309838002548,None,y,2658.2309838002548,None,"['y', 'return']","[1.106827599927783, 1.410747199319303]",2658.2309838002548,None,,,71NE,001,2023_May_03_1701,ExactRep-v3-final,2021.2.3,59.96088125112583,
,,,,,,,,,,,,106,0,106,0,,,,,,,,,,,,,,,,,,,,,,,,,,,,,,,,,,,,,,,,,,,,,,,,,2662.243600600399,None,,,,,,,,,,,,,,,,,,,,,,,,,,,,,,,,,,,,,,,,,,,,,,,,,,,,,,,,,cash,238,107,aloud,new,yellow,2660.184255200438,None,n,2660.184255200438,None,"['n', 'return']","[1.7377967992797494, 2.0255338000133634]",2660.184255200438,None,,,71NE,001,2023_May_03_1701,ExactRep-v3-final,2021.2.3,59.96088125112583,
,,,,,,,,,,,,107,0,107,0,,,,,,,,,,,,,,,,,,,,,,,,,,,,,,,,,,,,,,,,,,,,,,,,,2663.745178100653,None,,,,,,,,,,,,,,,,,,,,,,,,,,,,,,,,,,,,,,,,,,,,,,,,,,,,,,,,,child,167,108,sing,new,yellow,2662.7441622000188,None,n,2662.7441622000188,None,"['n', 'return']","[0.6655588997527957, 0.9696129998192191]",2662.7441622000188,None,,,71NE,001,2023_May_03_1701,ExactRep-v3-final,2021.2.3,59.96088125112583,
,,,,,,,,,,,,108,0,108,0,,,,,,,,,,,,,,,,,,,,,,,,,,,,,,,,,,,,,,,,,,,,,,,,,2665.6136661004275,None,,,,,,,,,,,,,,,,,,,,,,,,,,,,,,,,,,,,,,,,,,,,,,,,,,,,,,,,,grief,17,109,sing,old,yellow,2664.2605574000627,None,y,2664.2605574000627,None,"['y', 'return']","[1.0051471004262567, 1.3172816997393966]",2664.2605574000627,None,,,71NE,001,2023_May_03_1701,ExactRep-v3-final,2021.2.3,59.96088125112583,
,,,,,,,,,,,,109,0,109,0,,,,,,,,,,,,,,,,,,,,,,,,,,,,,,,,,,,,,,,,,,,,,,,,,2667.3321440005675,None,,,,,,,,,,,,,,,,,,,,,,,,,,,,,,,,,,,,,,,,,,,,,,,,,,,,,,,,,stone,141,110,silent,new,yellow,2666.123233700171,None,n,2666.123233700171,None,"['n', 'return']","[0.8391267005354166, 1.1665703002363443]",2666.123233700171,None,,,71NE,001,2023_May_03_1701,ExactRep-v3-final,2021.2.3,59.96088125112583,
,,,,,,,,,,,,110,0,110,0,,,,,,,,,,,,,,,,,,,,,,,,,,,,,,,,,,,,,,,,,,,,,,,,,2669.7346847001463,None,,,,,,,,,,,,,,,,,,,,,,,,,,,,,,,,,,,,,,,,,,,,,,,,,,,,,,,,,bar,152,111,silent,new,yellow,2667.838050399907,None,y,2667.838050399907,None,"['y', 'return']","[1.4998102998360991, 1.8517660005018115]",2667.838050399907,None,,,71NE,001,2023_May_03_1701,ExactRep-v3-final,2021.2.3,59.96088125112583,
,,,,,,,,,,,,111,0,111,0,,,,,,,,,,,,,,,,,,,,,,,,,,,,,,,,,,,,,,,,,,,,,,,,,2671.1692145001143,None,,,,,,,,,,,,,,,,,,,,,,,,,,,,,,,,,,,,,,,,,,,,,,,,,,,,,,,,,butter,216,112,aloud,new,yellow,2670.2427302002907,None,n,2670.2427302002907,None,"['n', 'return']","[0.5910852998495102, 0.879093399271369]",2670.2427302002907,None,,,71NE,001,2023_May_03_1701,ExactRep-v3-final,2021.2.3,59.96088125112583,
,,,,,,,,,,,,112,0,112,0,,,,,,,,,,,,,,,,,,,,,,,,,,,,,,,,,,,,,,,,,,,,,,,,,2672.8041564002633,None,,,,,,,,,,,,,,,,,,,,,,,,,,,,,,,,,,,,,,,,,,,,,,,,,,,,,,,,,money,239,113,sing,new,yellow,2671.6775126000866,None,n,2671.6775126000866,None,"['n', 'return']","[0.7402590001001954, 1.0843016998842359]",2671.6775126000866,None,,,71NE,001,2023_May_03_1701,ExactRep-v3-final,2021.2.3,59.96088125112583,
,,,,,,,,,,,,113,0,113,0,,,,,,,,,,,,,,,,,,,,,,,,,,,,,,,,,,,,,,,,,,,,,,,,,2674.9397120000795,None,,,,,,,,,,,,,,,,,,,,,,,,,,,,,,,,,,,,,,,,,,,,,,,,,,,,,,,,,love,235,114,sing,new,yellow,2673.3158544003963,None,n,2673.3158544003963,None,"['n', 'return']","[1.3418928002938628, 1.5821091998368502]",2673.3158544003963,None,,,71NE,001,2023_May_03_1701,ExactRep-v3-final,2021.2.3,59.96088125112583,
,,,,,,,,,,,,114,0,114,0,,,,,,,,,,,,,,,,,,,,,,,,,,,,,,,,,,,,,,,,,,,,,,,,,2676.5911931004375,None,,,,,,,,,,,,,,,,,,,,,,,,,,,,,,,,,,,,,,,,,,,,,,,,,,,,,,,,,sea,6,115,sing,old,yellow,2675.44831440039,None,y,2675.44831440039,None,"['y', 'return']","[0.7935800999403, 1.0974161000922322]",2675.44831440039,None,,,71NE,001,2023_May_03_1701,ExactRep-v3-final,2021.2.3,59.96088125112583,
,,,,,,,,,,,,115,0,115,0,,,,,,,,,,,,,,,,,,,,,,,,,,,,,,,,,,,,,,,,,,,,,,,,,2678.109684200026,None,,,,,,,,,,,,,,,,,,,,,,,,,,,,,,,,,,,,,,,,,,,,,,,,,,,,,,,,,product,102,116,aloud,old,yellow,2677.1052687000483,None,y,2677.1052687000483,None,"['y', 'return']","[0.3364920997992158, 0.9685508999973536]",2677.1052687000483,None,,,71NE,001,2023_May_03_1701,ExactRep-v3-final,2021.2.3,59.96088125112583,
,,,,,,,,,,,,116,0,116,0,,,,,,,,,,,,,,,,,,,,,,,,,,,,,,,,,,,,,,,,,,,,,,,,,2680.0448109004647,None,,,,,,,,,,,,,,,,,,,,,,,,,,,,,,,,,,,,,,,,,,,,,,,,,,,,,,,,,fire,96,117,aloud,old,yellow,2678.621011700481,None,n,2678.621011700481,None,"['n', 'return']","[0.8688536994159222, 1.3807214992120862]",2678.621011700481,None,,,71NE,001,2023_May_03_1701,ExactRep-v3-final,2021.2.3,59.96088125112583,
,,,,,,,,,,,,117,0,117,0,,,,,,,,,,,,,,,,,,,,,,,,,,,,,,,,,,,,,,,,,,,,,,,,,2684.2324483003467,None,,,,,,,,,,,,,,,,,,,,,,,,,,,,,,,,,,,,,,,,,,,,,,,,,,,,,,,,,weapon,63,118,silent,old,yellow,2680.5468771001324,None,n,2680.5468771001324,None,"['n', 'return']","[1.7589406995102763, 3.6389132998883724]",2680.5468771001324,None,,,71NE,001,2023_May_03_1701,ExactRep-v3-final,2021.2.3,59.96088125112583,
,,,,,,,,,,,,118,0,118,0,,,,,,,,,,,,,,,,,,,,,,,,,,,,,,,,,,,,,,,,,,,,,,,,,2686.551244600676,None,,,,,,,,,,,,,,,,,,,,,,,,,,,,,,,,,,,,,,,,,,,,,,,,,,,,,,,,,garden,77,119,silent,old,yellow,2684.7421654006466,None,n,2684.7421654006466,None,"['n', 'return']","[1.4040595004335046, 1.7716779001057148]",2684.7421654006466,None,,,71NE,001,2023_May_03_1701,ExactRep-v3-final,2021.2.3,59.96088125112583,
,,,,,,,,,,,,119,0,119,0,,,,,,,,,,,,,,,,,,,,,,,,,,,,,,,,,,,,,,,,,,,,,,,,,2688.219752199948,None,,,,,,,,,,,,,,,,,,,,,,,,,,,,,,,,,,,,,,,,,,,,,,,,,,,,,,,,,fur,4,120,sing,old,yellow,2687.0627781003714,None,y,2687.0627781003714,None,"['y', 'return']","[0.7232974004000425, 1.1150694005191326]",2687.0627781003714,None,,,71NE,001,2023_May_03_1701,ExactRep-v3-final,2021.2.3,59.96088125112583,
,,,,,,,,,,,,120,0,120,0,,,,,,,,,,,,,,,,,,,,,,,,,,,,,,,,,,,,,,,,,,,,,,,,,2690.1381648005918,None,,,,,,,,,,,,,,,,,,,,,,,,,,,,,,,,,,,,,,,,,,,,,,,,,,,,,,,,,factory,219,121,sing,new,yellow,2688.7263294998556,None,n,2688.7263294998556,None,"['n', 'return']","[0.9954154994338751, 1.3794690994545817]",2688.7263294998556,None,,,71NE,001,2023_May_03_1701,ExactRep-v3-final,2021.2.3,59.96088125112583,
,,,,,,,,,,,,121,0,121,0,,,,,,,,,,,,,,,,,,,,,,,,,,,,,,,,,,,,,,,,,,,,,,,,,2691.8398606004193,None,,,,,,,,,,,,,,,,,,,,,,,,,,,,,,,,,,,,,,,,,,,,,,,,,,,,,,,,,theory,35,122,sing,old,yellow,2690.649683800526,None,y,2690.649683800526,None,"['y', 'return']","[0.7762604001909494, 1.1521455999463797]",2690.649683800526,None,,,71NE,001,2023_May_03_1701,ExactRep-v3-final,2021.2.3,59.96088125112583,
,,,,,,,,,,,,122,0,122,0,,,,,,,,,,,,,,,,,,,,,,,,,,,,,,,,,,,,,,,,,,,,,,,,,2693.62540540006,None,,,,,,,,,,,,,,,,,,,,,,,,,,,,,,,,,,,,,,,,,,,,,,,,,,,,,,,,,disease,30,123,sing,old,yellow,2692.3427499001846,None,y,2692.3427499001846,None,"['y', 'return']","[0.8752731997519732, 1.235096599906683]",2692.3427499001846,None,,,71NE,001,2023_May_03_1701,ExactRep-v3-final,2021.2.3,59.96088125112583,
,,,,,,,,,,,,123,0,123,0,,,,,,,,,,,,,,,,,,,,,,,,,,,,,,,,,,,,,,,,,,,,,,,,,2695.3434057999402,None,,,,,,,,,,,,,,,,,,,,,,,,,,,,,,,,,,,,,,,,,,,,,,,,,,,,,,,,,nail,24,124,sing,old,yellow,2694.133286400698,None,y,2694.133286400698,None,"['y', 'return']","[0.7567496001720428, 1.164580900222063]",2694.133286400698,None,,,71NE,001,2023_May_03_1701,ExactRep-v3-final,2021.2.3,59.96088125112583,
,,,,,,,,,,,,124,0,124,0,,,,,,,,,,,,,,,,,,,,,,,,,,,,,,,,,,,,,,,,,,,,,,,,,2697.7124714003876,None,,,,,,,,,,,,,,,,,,,,,,,,,,,,,,,,,,,,,,,,,,,,,,,,,,,,,,,,,lake,120,125,silent,new,yellow,2695.853394200094,None,n,2695.853394200094,None,"['n', 'return']","[1.4365069000050426, 1.8204463999718428]",2695.853394200094,None,,,71NE,001,2023_May_03_1701,ExactRep-v3-final,2021.2.3,59.96088125112583,
,,,,,,,,,,,,125,0,125,0,,,,,,,,,,,,,,,,,,,,,,,,,,,,,,,,,,,,,,,,,,,,,,,,,2699.4643192999065,None,,,,,,,,,,,,,,,,,,,,,,,,,,,,,,,,,,,,,,,,,,,,,,,,,,,,,,,,,car,232,126,aloud,new,yellow,2698.221022300422,None,n,2698.221022300422,None,"['n', 'return']","[0.8772085998207331, 1.2048528995364904]",2698.221022300422,None,,,71NE,001,2023_May_03_1701,ExactRep-v3-final,2021.2.3,59.96088125112583,
,,,,,,,,,,,,126,0,126,0,,,,,,,,,,,,,,,,,,,,,,,,,,,,,,,,,,,,,,,,,,,,,,,,,2701.916568200104,None,,,,,,,,,,,,,,,,,,,,,,,,,,,,,,,,,,,,,,,,,,,,,,,,,,,,,,,,,charm,197,127,sing,new,yellow,2699.9710486000404,None,n,2699.9710486000404,None,"['n', 'return']","[1.550692000426352, 1.9027471002191305]",2699.9710486000404,None,,,71NE,001,2023_May_03_1701,ExactRep-v3-final,2021.2.3,59.96088125112583,
,,,,,,,,,,,,127,0,127,0,,,,,,,,,,,,,,,,,,,,,,,,,,,,,,,,,,,,,,,,,,,,,,,,,2704.7027385998517,None,,,,,,,,,,,,,,,,,,,,,,,,,,,,,,,,,,,,,,,,,,,,,,,,,,,,,,,,,house,231,128,sing,new,yellow,2702.429555300623,None,n,2702.429555300623,None,"['n', 'return']","[1.948403799906373, 2.236316199414432]",2702.429555300623,None,,,71NE,001,2023_May_03_1701,ExactRep-v3-final,2021.2.3,59.96088125112583,
,,,,,,,,,,,,128,0,128,0,,,,,,,,,,,,,,,,,,,,,,,,,,,,,,,,,,,,,,,,,,,,,,,,,2706.6546797007322,None,,,,,,,,,,,,,,,,,,,,,,,,,,,,,,,,,,,,,,,,,,,,,,,,,,,,,,,,,air,184,129,aloud,new,yellow,2705.219773900695,None,y,2705.219773900695,None,"['y', 'return']","[1.054037400521338, 1.3981400998309255]",2705.219773900695,None,,,71NE,001,2023_May_03_1701,ExactRep-v3-final,2021.2.3,59.96088125112583,
,,,,,,,,,,,,129,0,129,0,,,,,,,,,,,,,,,,,,,,,,,,,,,,,,,,,,,,,,,,,,,,,,,,,2708.389706800692,None,,,,,,,,,,,,,,,,,,,,,,,,,,,,,,,,,,,,,,,,,,,,,,,,,,,,,,,,,avenue,236,130,aloud,new,yellow,2707.1699214000255,None,n,2707.1699214000255,None,"['n', 'return']","[0.8560223001986742, 1.1758963000029325]",2707.1699214000255,None,,,71NE,001,2023_May_03_1701,ExactRep-v3-final,2021.2.3,59.96088125112583,
