trials_fam.thisRepN,trials_fam.thisTrialN,trials_fam.thisN,trials_fam.thisIndex,trials_prc.thisRepN,trials_prc.thisTrialN,trials_prc.thisN,trials_prc.thisIndex,StudyLoop.thisRepN,StudyLoop.thisTrialN,StudyLoop.thisN,StudyLoop.thisIndex,TestLoop.thisRepN,TestLoop.thisTrialN,TestLoop.thisN,TestLoop.thisIndex,text_colortest.started,text_colortest.stopped,key_colortest.keys,key_colortest.rt,key_colortest.started,key_colortest.stopped,textCondition.started,textCondition.stopped,keyCondition.keys,keyCondition.rt,keyCondition.started,keyCondition.stopped,Condition_between,Condition_counterbal,keyWelcome.keys,keyWelcome.rt,keyWelcome.started,keyWelcome.stopped,welcome_a.started,welcome_a.stopped,welcome_b.started,welcome_b.stopped,welcome_c.started,welcome_c.stopped,welcome_d.started,welcome_d.stopped,welcome_e.started,welcome_e.stopped,welcome_f.started,welcome_f.stopped,key_resp_fam_inst.keys,key_resp_fam_inst.rt,key_resp_fam_inst.started,key_resp_fam_inst.stopped,fam_a.started,fam_a.stopped,fam_b.started,fam_b.stopped,fam_c.started,fam_c.stopped,fam_d.started,fam_d.stopped,fam_e.started,fam_e.stopped,fam_f.started,fam_f.stopped,text_famil.started,text_famil.stopped,textBlank500.started,textBlank500.stopped,key_resp_prc_inst.keys,key_resp_prc_inst.rt,key_resp_prc_inst.started,key_resp_prc_inst.stopped,prac_a.started,prac_a.stopped,prac_b.started,prac_b.stopped,prac_c.started,prac_c.stopped,prac_d.started,prac_d.stopped,prac_e.started,prac_e.stopped,prac_f.started,prac_f.stopped,text_prc_trial.started,text_prc_trial.stopped,key_resp_study_inst.keys,key_resp_study_inst.rt,key_resp_study_inst.started,key_resp_study_inst.stopped,crit_a.started,crit_a.stopped,crit_b.started,crit_b.stopped,crit_c.started,crit_c.stopped,crit_d.started,crit_d.stopped,crit_e.started,crit_e.stopped,crit_f.started,crit_f.stopped,study_word,study_num,study_order,study_type,word_color,textStudy.started,textStudy.stopped,keyStudy.keys,keyStudy.started,keyStudy.stopped,post_study.started,post_study.stopped,key_resp_post_study.keys,key_resp_post_study.rt,key_resp_post_study.started,key_resp_post_study.stopped,test_inst.started,test_inst.stopped,key_resp_test_inst.keys,key_resp_test_inst.rt,key_resp_test_inst.started,key_resp_test_inst.stopped,test_word,test_num,test_order,test_condition,old_new_test,word_color_test,textConf.started,textConf.stopped,Participant Response,textInput.started,textInput.stopped,keyResp.keys,keyResp.rt,keyResp.started,keyResp.stopped,textEnd.started,textEnd.stopped,participant,session,date,expName,psychopyVersion,frameRate,
,,,,,,,,,,,,,,,,26.81275930069387,None,n,0.6536568999290466,26.81275930069387,None,,,,,,,,,,,,,,,,,,,,,,,,,,,,,,,,,,,,,,,,,,,,,,,,,,,,,,,,,,,,,,,,,,,,,,,,,,,,,,,,,,,,,,,,,,,,,,,,,,,,,,,,,,,,,,,,,,,,,,72NF,001,2023_May_05_0951,ExactRep-v3-final,2021.2.3,59.97077034511379,
,,,,,,,,,,,,,,,,,,,,,,27.48826550040394,None,f,0.4581019999459386,27.48826550040394,None,,,,,,,,,,,,,,,,,,,,,,,,,,,,,,,,,,,,,,,,,,,,,,,,,,,,,,,,,,,,,,,,,,,,,,,,,,,,,,,,,,,,,,,,,,,,,,,,,,,,,,,,,,,,,,,,72NF,001,2023_May_05_0951,ExactRep-v3-final,2021.2.3,59.97077034511379,
,,,,,,,,,,,,,,,,,,,,,,,,,,,,whitefoils,f,space,883.3135364996269,38.065918900072575,None,,,,,,,,,,,,,,,,,,,,,,,,,,,,,,,,,,,,,,,,,,,,,,,,,,,,,,,,,,,,,,,,,,,,,,,,,,,,,,,,,,,,,,,,,,,,,,,,,,,,,,,,,,72NF,001,2023_May_05_0951,ExactRep-v3-final,2021.2.3,59.97077034511379,
,,,,,,,,,,,,,,,,,,,,,,,,,,,,,,,,,,28.14033200033009,None,28.14033200033009,None,28.14033200033009,None,28.14033200033009,None,28.14033200033009,None,28.14033200033009,None,space,14.58137010037899,931.5180448004976,None,,,,,,,,,,,,,,,,,,,,,,,,,,,,,,,,,,,,,,,,,,,,,,,,,,,,,,,,,,,,,,,,,,,,,,,,,,,,,,,,,,,,,,,,,,72NF,001,2023_May_05_0951,ExactRep-v3-final,2021.2.3,59.97077034511379,
0,0,0,0,,,,,,,,,,,,,,,,,,,,,,,,,,,,,,,,,,,,,,,,,,,,,,,921.5442579006776,None,921.5442579006776,None,921.5442579006776,None,921.5442579006776,None,921.5442579006776,None,921.5442579006776,None,946.2156682005152,None,948.2117111003026,None,,,,,,,,,,,,,,,,,,,,,,,,,,,,,,,,,,,,,,,,,,,,,,,,,,,,,,,,,,,,,,,,,,,,,,,,,,72NF,001,2023_May_05_0951,ExactRep-v3-final,2021.2.3,59.97077034511379,
1,0,1,0,,,,,,,,,,,,,,,,,,,,,,,,,,,,,,,,,,,,,,,,,,,,,,,,,,,,,,,,,,,948.7141399001703,None,950.7141734007746,None,,,,,,,,,,,,,,,,,,,,,,,,,,,,,,,,,,,,,,,,,,,,,,,,,,,,,,,,,,,,,,,,,,,,,,,,,,72NF,001,2023_May_05_0951,ExactRep-v3-final,2021.2.3,59.97077034511379,
2,0,2,0,,,,,,,,,,,,,,,,,,,,,,,,,,,,,,,,,,,,,,,,,,,,,,,,,,,,,,,,,,,951.2145134005696,None,953.2166438000277,None,,,,,,,,,,,,,,,,,,,,,,,,,,,,,,,,,,,,,,,,,,,,,,,,,,,,,,,,,,,,,,,,,,,,,,,,,,72NF,001,2023_May_05_0951,ExactRep-v3-final,2021.2.3,59.97077034511379,
3,0,3,0,,,,,,,,,,,,,,,,,,,,,,,,,,,,,,,,,,,,,,,,,,,,,,,,,,,,,,,,,,,953.7297787005082,None,955.7360527003184,None,,,,,,,,,,,,,,,,,,,,,,,,,,,,,,,,,,,,,,,,,,,,,,,,,,,,,,,,,,,,,,,,,,,,,,,,,,72NF,001,2023_May_05_0951,ExactRep-v3-final,2021.2.3,59.97077034511379,
4,0,4,0,,,,,,,,,,,,,,,,,,,,,,,,,,,,,,,,,,,,,,,,,,,,,,,,,,,,,,,,,,,956.2364632003009,None,958.2381695006043,None,,,,,,,,,,,,,,,,,,,,,,,,,,,,,,,,,,,,,,,,,,,,,,,,,,,,,,,,,,,,,,,,,,,,,,,,,,72NF,001,2023_May_05_0951,ExactRep-v3-final,2021.2.3,59.97077034511379,
5,0,5,0,,,,,,,,,,,,,,,,,,,,,,,,,,,,,,,,,,,,,,,,,,,,,,,,,,,,,,,,,,,958.7389404000714,None,960.7409688001499,None,,,,,,,,,,,,,,,,,,,,,,,,,,,,,,,,,,,,,,,,,,,,,,,,,,,,,,,,,,,,,,,,,,,,,,,,,,72NF,001,2023_May_05_0951,ExactRep-v3-final,2021.2.3,59.97077034511379,
6,0,6,0,,,,,,,,,,,,,,,,,,,,,,,,,,,,,,,,,,,,,,,,,,,,,,,,,,,,,,,,,,,961.2419424001127,None,963.243355200626,None,,,,,,,,,,,,,,,,,,,,,,,,,,,,,,,,,,,,,,,,,,,,,,,,,,,,,,,,,,,,,,,,,,,,,,,,,,72NF,001,2023_May_05_0951,ExactRep-v3-final,2021.2.3,59.97077034511379,
7,0,7,0,,,,,,,,,,,,,,,,,,,,,,,,,,,,,,,,,,,,,,,,,,,,,,,,,,,,,,,,,,,963.7449839003384,None,965.7460716003552,None,,,,,,,,,,,,,,,,,,,,,,,,,,,,,,,,,,,,,,,,,,,,,,,,,,,,,,,,,,,,,,,,,,,,,,,,,,72NF,001,2023_May_05_0951,ExactRep-v3-final,2021.2.3,59.97077034511379,
8,0,8,0,,,,,,,,,,,,,,,,,,,,,,,,,,,,,,,,,,,,,,,,,,,,,,,,,,,,,,,,,,,966.2537369001657,None,968.2653440004215,None,,,,,,,,,,,,,,,,,,,,,,,,,,,,,,,,,,,,,,,,,,,,,,,,,,,,,,,,,,,,,,,,,,,,,,,,,,72NF,001,2023_May_05_0951,ExactRep-v3-final,2021.2.3,59.97077034511379,
9,0,9,0,,,,,,,,,,,,,,,,,,,,,,,,,,,,,,,,,,,,,,,,,,,,,,,,,,,,,,,,,,,968.7665570005774,None,970.7676756000146,None,,,,,,,,,,,,,,,,,,,,,,,,,,,,,,,,,,,,,,,,,,,,,,,,,,,,,,,,,,,,,,,,,,,,,,,,,,72NF,001,2023_May_05_0951,ExactRep-v3-final,2021.2.3,59.97077034511379,
10,0,10,0,,,,,,,,,,,,,,,,,,,,,,,,,,,,,,,,,,,,,,,,,,,,,,,,,,,,,,,,,,,971.2682326007634,None,973.2704039001837,None,,,,,,,,,,,,,,,,,,,,,,,,,,,,,,,,,,,,,,,,,,,,,,,,,,,,,,,,,,,,,,,,,,,,,,,,,,72NF,001,2023_May_05_0951,ExactRep-v3-final,2021.2.3,59.97077034511379,
11,0,11,0,,,,,,,,,,,,,,,,,,,,,,,,,,,,,,,,,,,,,,,,,,,,,,,,,,,,,,,,,,,973.7805746002123,None,975.7893884005025,None,,,,,,,,,,,,,,,,,,,,,,,,,,,,,,,,,,,,,,,,,,,,,,,,,,,,,,,,,,,,,,,,,,,,,,,,,,72NF,001,2023_May_05_0951,ExactRep-v3-final,2021.2.3,59.97077034511379,
12,0,12,0,,,,,,,,,,,,,,,,,,,,,,,,,,,,,,,,,,,,,,,,,,,,,,,,,,,,,,,,,,,976.2898776000366,None,978.2919204002246,None,,,,,,,,,,,,,,,,,,,,,,,,,,,,,,,,,,,,,,,,,,,,,,,,,,,,,,,,,,,,,,,,,,,,,,,,,,72NF,001,2023_May_05_0951,ExactRep-v3-final,2021.2.3,59.97077034511379,
13,0,13,0,,,,,,,,,,,,,,,,,,,,,,,,,,,,,,,,,,,,,,,,,,,,,,,,,,,,,,,,,,,978.7972571998835,None,980.8111165007576,None,,,,,,,,,,,,,,,,,,,,,,,,,,,,,,,,,,,,,,,,,,,,,,,,,,,,,,,,,,,,,,,,,,,,,,,,,,72NF,001,2023_May_05_0951,ExactRep-v3-final,2021.2.3,59.97077034511379,
14,0,14,0,,,,,,,,,,,,,,,,,,,,,,,,,,,,,,,,,,,,,,,,,,,,,,,,,,,,,,,,,,,981.3114318000153,None,983.3136129006743,None,,,,,,,,,,,,,,,,,,,,,,,,,,,,,,,,,,,,,,,,,,,,,,,,,,,,,,,,,,,,,,,,,,,,,,,,,,72NF,001,2023_May_05_0951,ExactRep-v3-final,2021.2.3,59.97077034511379,
,,,,,,,,,,,,,,,,,,,,,,,,,,,,,,,,,,,,,,,,,,,,,,,,,,,,,,,,,,,,,,,,,,space,10.916654899716377,993.9107415005565,None,,,,,,,,,,,,,,,,,,,,,,,,,,,,,,,,,,,,,,,,,,,,,,,,,,,,,,,,,,,,,,,,,,,,,,72NF,001,2023_May_05_0951,ExactRep-v3-final,2021.2.3,59.97077034511379,
,,,,0,0,0,0,,,,,,,,,,,,,,,,,,,,,,,,,,,,,,,,,,,,,,,,,,,,,,,,,,,,,,,,,1006.9040037002414,None,,,,,983.9358831001446,None,983.9358831001446,None,983.9358831001446,None,983.9358831001446,None,983.9358831001446,None,983.9358831001446,None,1004.9036258999258,None,,,,,,,,,,,,,,,,,,,,,,,,,,,,,,,,,,,,,,,,,,,,,,,,,,,,,,,,72NF,001,2023_May_05_0951,ExactRep-v3-final,2021.2.3,59.97077034511379,
,,,,1,0,1,0,,,,,,,,,,,,,,,,,,,,,,,,,,,,,,,,,,,,,,,,,,,,,,,,,,,,,,,,,1009.4062876002863,None,,,,,,,,,,,,,,,,,1007.4045787006617,None,,,,,,,,,,,,,,,,,,,,,,,,,,,,,,,,,,,,,,,,,,,,,,,,,,,,,,,,72NF,001,2023_May_05_0951,ExactRep-v3-final,2021.2.3,59.97077034511379,
,,,,2,0,2,0,,,,,,,,,,,,,,,,,,,,,,,,,,,,,,,,,,,,,,,,,,,,,,,,,,,,,,,,,1011.9087471999228,None,,,,,,,,,,,,,,,,,1009.9070073999465,None,,,,,,,,,,,,,,,,,,,,,,,,,,,,,,,,,,,,,,,,,,,,,,,,,,,,,,,,72NF,001,2023_May_05_0951,ExactRep-v3-final,2021.2.3,59.97077034511379,
,,,,3,0,3,0,,,,,,,,,,,,,,,,,,,,,,,,,,,,,,,,,,,,,,,,,,,,,,,,,,,,,,,,,1014.4114113999531,None,,,,,,,,,,,,,,,,,1012.4093254003674,None,,,,,,,,,,,,,,,,,,,,,,,,,,,,,,,,,,,,,,,,,,,,,,,,,,,,,,,,72NF,001,2023_May_05_0951,ExactRep-v3-final,2021.2.3,59.97077034511379,
,,,,4,0,4,0,,,,,,,,,,,,,,,,,,,,,,,,,,,,,,,,,,,,,,,,,,,,,,,,,,,,,,,,,1016.9139175005257,None,,,,,,,,,,,,,,,,,1014.9126749001443,None,,,,,,,,,,,,,,,,,,,,,,,,,,,,,,,,,,,,,,,,,,,,,,,,,,,,,,,,72NF,001,2023_May_05_0951,ExactRep-v3-final,2021.2.3,59.97077034511379,
,,,,5,0,5,0,,,,,,,,,,,,,,,,,,,,,,,,,,,,,,,,,,,,,,,,,,,,,,,,,,,,,,,,,1019.4165524002165,None,,,,,,,,,,,,,,,,,1017.4141945000738,None,,,,,,,,,,,,,,,,,,,,,,,,,,,,,,,,,,,,,,,,,,,,,,,,,,,,,,,,72NF,001,2023_May_05_0951,ExactRep-v3-final,2021.2.3,59.97077034511379,
,,,,6,0,6,0,,,,,,,,,,,,,,,,,,,,,,,,,,,,,,,,,,,,,,,,,,,,,,,,,,,,,,,,,1021.9185259006917,None,,,,,,,,,,,,,,,,,1019.916860899888,None,,,,,,,,,,,,,,,,,,,,,,,,,,,,,,,,,,,,,,,,,,,,,,,,,,,,,,,,72NF,001,2023_May_05_0951,ExactRep-v3-final,2021.2.3,59.97077034511379,
,,,,7,0,7,0,,,,,,,,,,,,,,,,,,,,,,,,,,,,,,,,,,,,,,,,,,,,,,,,,,,,,,,,,1024.4214286003262,None,,,,,,,,,,,,,,,,,1022.4189479006454,None,,,,,,,,,,,,,,,,,,,,,,,,,,,,,,,,,,,,,,,,,,,,,,,,,,,,,,,,72NF,001,2023_May_05_0951,ExactRep-v3-final,2021.2.3,59.97077034511379,
,,,,8,0,8,0,,,,,,,,,,,,,,,,,,,,,,,,,,,,,,,,,,,,,,,,,,,,,,,,,,,,,,,,,1026.9237429006025,None,,,,,,,,,,,,,,,,,1024.9218578999862,None,,,,,,,,,,,,,,,,,,,,,,,,,,,,,,,,,,,,,,,,,,,,,,,,,,,,,,,,72NF,001,2023_May_05_0951,ExactRep-v3-final,2021.2.3,59.97077034511379,
,,,,9,0,9,0,,,,,,,,,,,,,,,,,,,,,,,,,,,,,,,,,,,,,,,,,,,,,,,,,,,,,,,,,1029.4264005003497,None,,,,,,,,,,,,,,,,,1027.4242767998949,None,,,,,,,,,,,,,,,,,,,,,,,,,,,,,,,,,,,,,,,,,,,,,,,,,,,,,,,,72NF,001,2023_May_05_0951,ExactRep-v3-final,2021.2.3,59.97077034511379,
,,,,10,0,10,0,,,,,,,,,,,,,,,,,,,,,,,,,,,,,,,,,,,,,,,,,,,,,,,,,,,,,,,,,1031.9288784004748,None,,,,,,,,,,,,,,,,,1029.926891100593,None,,,,,,,,,,,,,,,,,,,,,,,,,,,,,,,,,,,,,,,,,,,,,,,,,,,,,,,,72NF,001,2023_May_05_0951,ExactRep-v3-final,2021.2.3,59.97077034511379,
,,,,11,0,11,0,,,,,,,,,,,,,,,,,,,,,,,,,,,,,,,,,,,,,,,,,,,,,,,,,,,,,,,,,1034.4313853001222,None,,,,,,,,,,,,,,,,,1032.4293913999572,None,,,,,,,,,,,,,,,,,,,,,,,,,,,,,,,,,,,,,,,,,,,,,,,,,,,,,,,,72NF,001,2023_May_05_0951,ExactRep-v3-final,2021.2.3,59.97077034511379,
,,,,12,0,12,0,,,,,,,,,,,,,,,,,,,,,,,,,,,,,,,,,,,,,,,,,,,,,,,,,,,,,,,,,1036.9337758999318,None,,,,,,,,,,,,,,,,,1034.931927700527,None,,,,,,,,,,,,,,,,,,,,,,,,,,,,,,,,,,,,,,,,,,,,,,,,,,,,,,,,72NF,001,2023_May_05_0951,ExactRep-v3-final,2021.2.3,59.97077034511379,
,,,,13,0,13,0,,,,,,,,,,,,,,,,,,,,,,,,,,,,,,,,,,,,,,,,,,,,,,,,,,,,,,,,,1039.4362218007445,None,,,,,,,,,,,,,,,,,1037.4343997007236,None,,,,,,,,,,,,,,,,,,,,,,,,,,,,,,,,,,,,,,,,,,,,,,,,,,,,,,,,72NF,001,2023_May_05_0951,ExactRep-v3-final,2021.2.3,59.97077034511379,
,,,,14,0,14,0,,,,,,,,,,,,,,,,,,,,,,,,,,,,,,,,,,,,,,,,,,,,,,,,,,,,,,,,,1041.9387157000601,None,,,,,,,,,,,,,,,,,1039.9368334002793,None,,,,,,,,,,,,,,,,,,,,,,,,,,,,,,,,,,,,,,,,,,,,,,,,,,,,,,,,72NF,001,2023_May_05_0951,ExactRep-v3-final,2021.2.3,59.97077034511379,
,,,,,,,,,,,,,,,,,,,,,,,,,,,,,,,,,,,,,,,,,,,,,,,,,,,,,,,,,,,,,,,,,,,,,,,,,,,,,,,,,,,,space,15.505465199239552,1052.5780238006264,None,,,,,,,,,,,,,,,,,,,,,,,,,,,,,,,,,,,,,,,,,,,,,,,,,,,,72NF,001,2023_May_05_0951,ExactRep-v3-final,2021.2.3,59.97077034511379,
,,,,,,,,0,0,0,0,,,,,,,,,,,,,,,,,,,,,,,,,,,,,,,,,,,,,,,,,,,,,,,,,,,,,1070.1671008002013,None,,,,,,,,,,,,,,,,,,,,,,,1042.6093968003988,None,1042.6093968003988,None,1042.6093968003988,None,1042.6093968003988,None,1042.6093968003988,None,1042.6093968003988,None,passion,73,1,silent,blue,1068.166927200742,None,None,1068.166927200742,None,,,,,,,,,,,,,,,,,,,,,,,,,,,,,,72NF,001,2023_May_05_0951,ExactRep-v3-final,2021.2.3,59.97077034511379,
,,,,,,,,1,0,1,0,,,,,,,,,,,,,,,,,,,,,,,,,,,,,,,,,,,,,,,,,,,,,,,,,,,,,1072.6861516004428,None,,,,,,,,,,,,,,,,,,,,,,,,,,,,,,,,,,,wine,29,2,sing,red,1070.677400900051,None,None,1070.677400900051,None,,,,,,,,,,,,,,,,,,,,,,,,,,,,,,72NF,001,2023_May_05_0951,ExactRep-v3-final,2021.2.3,59.97077034511379,
,,,,,,,,2,0,2,0,,,,,,,,,,,,,,,,,,,,,,,,,,,,,,,,,,,,,,,,,,,,,,,,,,,,,1075.2054850999266,None,,,,,,,,,,,,,,,,,,,,,,,,,,,,,,,,,,,earth,79,3,sing,red,1073.1967203002423,None,None,1073.1967203002423,None,,,,,,,,,,,,,,,,,,,,,,,,,,,,,,72NF,001,2023_May_05_0951,ExactRep-v3-final,2021.2.3,59.97077034511379,
,,,,,,,,3,0,3,0,,,,,,,,,,,,,,,,,,,,,,,,,,,,,,,,,,,,,,,,,,,,,,,,,,,,,1077.7077573006973,None,,,,,,,,,,,,,,,,,,,,,,,,,,,,,,,,,,,hope,27,4,sing,red,1075.7069776002318,None,None,1075.7069776002318,None,,,,,,,,,,,,,,,,,,,,,,,,,,,,,,72NF,001,2023_May_05_0951,ExactRep-v3-final,2021.2.3,59.97077034511379,
,,,,,,,,4,0,4,0,,,,,,,,,,,,,,,,,,,,,,,,,,,,,,,,,,,,,,,,,,,,,,,,,,,,,1080.2103300001472,None,,,,,,,,,,,,,,,,,,,,,,,,,,,,,,,,,,,potato,87,5,aloud,white,1078.2104200003669,None,None,1078.2104200003669,None,,,,,,,,,,,,,,,,,,,,,,,,,,,,,,72NF,001,2023_May_05_0951,ExactRep-v3-final,2021.2.3,59.97077034511379,
,,,,,,,,5,0,5,0,,,,,,,,,,,,,,,,,,,,,,,,,,,,,,,,,,,,,,,,,,,,,,,,,,,,,1082.72922619991,None,,,,,,,,,,,,,,,,,,,,,,,,,,,,,,,,,,,girl,101,6,aloud,white,1080.7173065003008,None,None,1080.7173065003008,None,,,,,,,,,,,,,,,,,,,,,,,,,,,,,,72NF,001,2023_May_05_0951,ExactRep-v3-final,2021.2.3,59.97077034511379,
,,,,,,,,6,0,6,0,,,,,,,,,,,,,,,,,,,,,,,,,,,,,,,,,,,,,,,,,,,,,,,,,,,,,1085.2490592002869,None,,,,,,,,,,,,,,,,,,,,,,,,,,,,,,,,,,,plant,7,7,sing,red,1083.2389702005312,None,None,1083.2389702005312,None,,,,,,,,,,,,,,,,,,,,,,,,,,,,,,72NF,001,2023_May_05_0951,ExactRep-v3-final,2021.2.3,59.97077034511379,
,,,,,,,,7,0,7,0,,,,,,,,,,,,,,,,,,,,,,,,,,,,,,,,,,,,,,,,,,,,,,,,,,,,,1087.7511285003275,None,,,,,,,,,,,,,,,,,,,,,,,,,,,,,,,,,,,glory,85,8,aloud,white,1085.7491651000455,None,None,1085.7491651000455,None,,,,,,,,,,,,,,,,,,,,,,,,,,,,,,72NF,001,2023_May_05_0951,ExactRep-v3-final,2021.2.3,59.97077034511379,
,,,,,,,,8,0,8,0,,,,,,,,,,,,,,,,,,,,,,,,,,,,,,,,,,,,,,,,,,,,,,,,,,,,,1090.2703293999657,None,,,,,,,,,,,,,,,,,,,,,,,,,,,,,,,,,,,journal,13,9,sing,red,1088.259026600048,None,None,1088.259026600048,None,,,,,,,,,,,,,,,,,,,,,,,,,,,,,,72NF,001,2023_May_05_0951,ExactRep-v3-final,2021.2.3,59.97077034511379,
,,,,,,,,9,0,9,0,,,,,,,,,,,,,,,,,,,,,,,,,,,,,,,,,,,,,,,,,,,,,,,,,,,,,1092.772652800195,None,,,,,,,,,,,,,,,,,,,,,,,,,,,,,,,,,,,answer,40,10,silent,blue,1090.7735905004665,None,None,1090.7735905004665,None,,,,,,,,,,,,,,,,,,,,,,,,,,,,,,72NF,001,2023_May_05_0951,ExactRep-v3-final,2021.2.3,59.97077034511379,
,,,,,,,,10,0,10,0,,,,,,,,,,,,,,,,,,,,,,,,,,,,,,,,,,,,,,,,,,,,,,,,,,,,,1095.2923074001446,None,,,,,,,,,,,,,,,,,,,,,,,,,,,,,,,,,,,style,51,11,silent,blue,1093.2766607999802,None,None,1093.2766607999802,None,,,,,,,,,,,,,,,,,,,,,,,,,,,,,,72NF,001,2023_May_05_0951,ExactRep-v3-final,2021.2.3,59.97077034511379,
,,,,,,,,11,0,11,0,,,,,,,,,,,,,,,,,,,,,,,,,,,,,,,,,,,,,,,,,,,,,,,,,,,,,1097.811334900558,None,,,,,,,,,,,,,,,,,,,,,,,,,,,,,,,,,,,colony,106,12,aloud,white,1095.7974892007187,None,None,1095.7974892007187,None,,,,,,,,,,,,,,,,,,,,,,,,,,,,,,72NF,001,2023_May_05_0951,ExactRep-v3-final,2021.2.3,59.97077034511379,
,,,,,,,,12,0,12,0,,,,,,,,,,,,,,,,,,,,,,,,,,,,,,,,,,,,,,,,,,,,,,,,,,,,,1100.3137151002884,None,,,,,,,,,,,,,,,,,,,,,,,,,,,,,,,,,,,humour,99,13,aloud,white,1098.3145713005215,None,None,1098.3145713005215,None,,,,,,,,,,,,,,,,,,,,,,,,,,,,,,72NF,001,2023_May_05_0951,ExactRep-v3-final,2021.2.3,59.97077034511379,
,,,,,,,,13,0,13,0,,,,,,,,,,,,,,,,,,,,,,,,,,,,,,,,,,,,,,,,,,,,,,,,,,,,,1102.8331645000726,None,,,,,,,,,,,,,,,,,,,,,,,,,,,,,,,,,,,month,110,14,aloud,white,1100.8217478003353,None,None,1100.8217478003353,None,,,,,,,,,,,,,,,,,,,,,,,,,,,,,,72NF,001,2023_May_05_0951,ExactRep-v3-final,2021.2.3,59.97077034511379,
,,,,,,,,14,0,14,0,,,,,,,,,,,,,,,,,,,,,,,,,,,,,,,,,,,,,,,,,,,,,,,,,,,,,1105.3543492006138,None,,,,,,,,,,,,,,,,,,,,,,,,,,,,,,,,,,,artist,66,15,silent,blue,1103.3379107005894,None,None,1103.3379107005894,None,,,,,,,,,,,,,,,,,,,,,,,,,,,,,,72NF,001,2023_May_05_0951,ExactRep-v3-final,2021.2.3,59.97077034511379,
,,,,,,,,15,0,15,0,,,,,,,,,,,,,,,,,,,,,,,,,,,,,,,,,,,,,,,,,,,,,,,,,,,,,1107.854836200364,None,,,,,,,,,,,,,,,,,,,,,,,,,,,,,,,,,,,vision,23,16,sing,red,1105.8526894999668,None,None,1105.8526894999668,None,,,,,,,,,,,,,,,,,,,,,,,,,,,,,,72NF,001,2023_May_05_0951,ExactRep-v3-final,2021.2.3,59.97077034511379,
,,,,,,,,16,0,16,0,,,,,,,,,,,,,,,,,,,,,,,,,,,,,,,,,,,,,,,,,,,,,,,,,,,,,1110.3740117000416,None,,,,,,,,,,,,,,,,,,,,,,,,,,,,,,,,,,,paper,67,17,silent,blue,1108.359094100073,None,None,1108.359094100073,None,,,,,,,,,,,,,,,,,,,,,,,,,,,,,,72NF,001,2023_May_05_0951,ExactRep-v3-final,2021.2.3,59.97077034511379,
,,,,,,,,17,0,17,0,,,,,,,,,,,,,,,,,,,,,,,,,,,,,,,,,,,,,,,,,,,,,,,,,,,,,1112.8764749001712,None,,,,,,,,,,,,,,,,,,,,,,,,,,,,,,,,,,,dress,61,18,silent,blue,1110.87594609987,None,None,1110.87594609987,None,,,,,,,,,,,,,,,,,,,,,,,,,,,,,,72NF,001,2023_May_05_0951,ExactRep-v3-final,2021.2.3,59.97077034511379,
,,,,,,,,18,0,18,0,,,,,,,,,,,,,,,,,,,,,,,,,,,,,,,,,,,,,,,,,,,,,,,,,,,,,1115.3789512999356,None,,,,,,,,,,,,,,,,,,,,,,,,,,,,,,,,,,,meat,90,19,aloud,white,1113.378595800139,None,None,1113.378595800139,None,,,,,,,,,,,,,,,,,,,,,,,,,,,,,,72NF,001,2023_May_05_0951,ExactRep-v3-final,2021.2.3,59.97077034511379,
,,,,,,,,19,0,19,0,,,,,,,,,,,,,,,,,,,,,,,,,,,,,,,,,,,,,,,,,,,,,,,,,,,,,1117.881567900069,None,,,,,,,,,,,,,,,,,,,,,,,,,,,,,,,,,,,palace,55,20,silent,blue,1115.8811953999102,None,None,1115.8811953999102,None,,,,,,,,,,,,,,,,,,,,,,,,,,,,,,72NF,001,2023_May_05_0951,ExactRep-v3-final,2021.2.3,59.97077034511379,
,,,,,,,,20,0,20,0,,,,,,,,,,,,,,,,,,,,,,,,,,,,,,,,,,,,,,,,,,,,,,,,,,,,,1120.383972399868,None,,,,,,,,,,,,,,,,,,,,,,,,,,,,,,,,,,,teacher,14,21,sing,red,1118.3836042005569,None,None,1118.3836042005569,None,,,,,,,,,,,,,,,,,,,,,,,,,,,,,,72NF,001,2023_May_05_0951,ExactRep-v3-final,2021.2.3,59.97077034511379,
,,,,,,,,21,0,21,0,,,,,,,,,,,,,,,,,,,,,,,,,,,,,,,,,,,,,,,,,,,,,,,,,,,,,1122.8864520005882,None,,,,,,,,,,,,,,,,,,,,,,,,,,,,,,,,,,,avenue,89,22,aloud,white,1120.885912200436,None,None,1120.885912200436,None,,,,,,,,,,,,,,,,,,,,,,,,,,,,,,72NF,001,2023_May_05_0951,ExactRep-v3-final,2021.2.3,59.97077034511379,
,,,,,,,,22,0,22,0,,,,,,,,,,,,,,,,,,,,,,,,,,,,,,,,,,,,,,,,,,,,,,,,,,,,,1125.4056692998856,None,,,,,,,,,,,,,,,,,,,,,,,,,,,,,,,,,,,college,60,23,silent,blue,1123.3931943001226,None,None,1123.3931943001226,None,,,,,,,,,,,,,,,,,,,,,,,,,,,,,,72NF,001,2023_May_05_0951,ExactRep-v3-final,2021.2.3,59.97077034511379,
,,,,,,,,23,0,23,0,,,,,,,,,,,,,,,,,,,,,,,,,,,,,,,,,,,,,,,,,,,,,,,,,,,,,1127.9248745003715,None,,,,,,,,,,,,,,,,,,,,,,,,,,,,,,,,,,,quality,32,24,sing,red,1125.9131388003007,None,None,1125.9131388003007,None,,,,,,,,,,,,,,,,,,,,,,,,,,,,,,72NF,001,2023_May_05_0951,ExactRep-v3-final,2021.2.3,59.97077034511379,
,,,,,,,,24,0,24,0,,,,,,,,,,,,,,,,,,,,,,,,,,,,,,,,,,,,,,,,,,,,,,,,,,,,,1130.444096500054,None,,,,,,,,,,,,,,,,,,,,,,,,,,,,,,,,,,,excuse,35,25,sing,red,1128.4313193000853,None,None,1128.4313193000853,None,,,,,,,,,,,,,,,,,,,,,,,,,,,,,,72NF,001,2023_May_05_0951,ExactRep-v3-final,2021.2.3,59.97077034511379,
,,,,,,,,25,0,25,0,,,,,,,,,,,,,,,,,,,,,,,,,,,,,,,,,,,,,,,,,,,,,,,,,,,,,1132.9464011006057,None,,,,,,,,,,,,,,,,,,,,,,,,,,,,,,,,,,,village,118,26,aloud,white,1130.9458651002496,None,None,1130.9458651002496,None,,,,,,,,,,,,,,,,,,,,,,,,,,,,,,72NF,001,2023_May_05_0951,ExactRep-v3-final,2021.2.3,59.97077034511379,
,,,,,,,,26,0,26,0,,,,,,,,,,,,,,,,,,,,,,,,,,,,,,,,,,,,,,,,,,,,,,,,,,,,,1135.4657479999587,None,,,,,,,,,,,,,,,,,,,,,,,,,,,,,,,,,,,meadow,12,27,sing,red,1133.4575291005895,None,None,1133.4575291005895,None,,,,,,,,,,,,,,,,,,,,,,,,,,,,,,72NF,001,2023_May_05_0951,ExactRep-v3-final,2021.2.3,59.97077034511379,
,,,,,,,,27,0,27,0,,,,,,,,,,,,,,,,,,,,,,,,,,,,,,,,,,,,,,,,,,,,,,,,,,,,,1137.9847348006442,None,,,,,,,,,,,,,,,,,,,,,,,,,,,,,,,,,,,effort,0,28,sing,red,1135.97025569994,None,None,1135.97025569994,None,,,,,,,,,,,,,,,,,,,,,,,,,,,,,,72NF,001,2023_May_05_0951,ExactRep-v3-final,2021.2.3,59.97077034511379,
,,,,,,,,28,0,28,0,,,,,,,,,,,,,,,,,,,,,,,,,,,,,,,,,,,,,,,,,,,,,,,,,,,,,1140.4874614998698,None,,,,,,,,,,,,,,,,,,,,,,,,,,,,,,,,,,,valley,92,29,aloud,white,1138.4852555003017,None,None,1138.4852555003017,None,,,,,,,,,,,,,,,,,,,,,,,,,,,,,,72NF,001,2023_May_05_0951,ExactRep-v3-final,2021.2.3,59.97077034511379,
,,,,,,,,29,0,29,0,,,,,,,,,,,,,,,,,,,,,,,,,,,,,,,,,,,,,,,,,,,,,,,,,,,,,1142.9897817000747,None,,,,,,,,,,,,,,,,,,,,,,,,,,,,,,,,,,,sea,18,30,sing,red,1140.9879782004282,None,None,1140.9879782004282,None,,,,,,,,,,,,,,,,,,,,,,,,,,,,,,72NF,001,2023_May_05_0951,ExactRep-v3-final,2021.2.3,59.97077034511379,
,,,,,,,,30,0,30,0,,,,,,,,,,,,,,,,,,,,,,,,,,,,,,,,,,,,,,,,,,,,,,,,,,,,,1145.5091073000804,None,,,,,,,,,,,,,,,,,,,,,,,,,,,,,,,,,,,shame,47,31,silent,blue,1143.4978611003608,None,None,1143.4978611003608,None,,,,,,,,,,,,,,,,,,,,,,,,,,,,,,72NF,001,2023_May_05_0951,ExactRep-v3-final,2021.2.3,59.97077034511379,
,,,,,,,,31,0,31,0,,,,,,,,,,,,,,,,,,,,,,,,,,,,,,,,,,,,,,,,,,,,,,,,,,,,,1148.011705700308,None,,,,,,,,,,,,,,,,,,,,,,,,,,,,,,,,,,,dawn,6,32,sing,red,1146.0094712004066,None,None,1146.0094712004066,None,,,,,,,,,,,,,,,,,,,,,,,,,,,,,,72NF,001,2023_May_05_0951,ExactRep-v3-final,2021.2.3,59.97077034511379,
,,,,,,,,32,0,32,0,,,,,,,,,,,,,,,,,,,,,,,,,,,,,,,,,,,,,,,,,,,,,,,,,,,,,1150.513993400149,None,,,,,,,,,,,,,,,,,,,,,,,,,,,,,,,,,,,idea,78,33,silent,blue,1148.5129927005619,None,None,1148.5129927005619,None,,,,,,,,,,,,,,,,,,,,,,,,,,,,,,72NF,001,2023_May_05_0951,ExactRep-v3-final,2021.2.3,59.97077034511379,
,,,,,,,,33,0,33,0,,,,,,,,,,,,,,,,,,,,,,,,,,,,,,,,,,,,,,,,,,,,,,,,,,,,,1153.0331542007625,None,,,,,,,,,,,,,,,,,,,,,,,,,,,,,,,,,,,spirit,8,34,sing,red,1151.020204800181,None,None,1151.020204800181,None,,,,,,,,,,,,,,,,,,,,,,,,,,,,,,72NF,001,2023_May_05_0951,ExactRep-v3-final,2021.2.3,59.97077034511379,
,,,,,,,,34,0,34,0,,,,,,,,,,,,,,,,,,,,,,,,,,,,,,,,,,,,,,,,,,,,,,,,,,,,,1155.5358937000856,None,,,,,,,,,,,,,,,,,,,,,,,,,,,,,,,,,,,opinion,96,35,aloud,white,1153.5345347002149,None,None,1153.5345347002149,None,,,,,,,,,,,,,,,,,,,,,,,,,,,,,,72NF,001,2023_May_05_0951,ExactRep-v3-final,2021.2.3,59.97077034511379,
,,,,,,,,35,0,35,0,,,,,,,,,,,,,,,,,,,,,,,,,,,,,,,,,,,,,,,,,,,,,,,,,,,,,1158.05481480062,None,,,,,,,,,,,,,,,,,,,,,,,,,,,,,,,,,,,gold,2,36,sing,red,1156.0404459005222,None,None,1156.0404459005222,None,,,,,,,,,,,,,,,,,,,,,,,,,,,,,,72NF,001,2023_May_05_0951,ExactRep-v3-final,2021.2.3,59.97077034511379,
,,,,,,,,36,0,36,0,,,,,,,,,,,,,,,,,,,,,,,,,,,,,,,,,,,,,,,,,,,,,,,,,,,,,1160.5574898999184,None,,,,,,,,,,,,,,,,,,,,,,,,,,,,,,,,,,,king,11,37,sing,red,1158.5556091004983,None,None,1158.5556091004983,None,,,,,,,,,,,,,,,,,,,,,,,,,,,,,,72NF,001,2023_May_05_0951,ExactRep-v3-final,2021.2.3,59.97077034511379,
,,,,,,,,37,0,37,0,,,,,,,,,,,,,,,,,,,,,,,,,,,,,,,,,,,,,,,,,,,,,,,,,,,,,1163.0766887003556,None,,,,,,,,,,,,,,,,,,,,,,,,,,,,,,,,,,,water,103,38,aloud,white,1161.0620794007555,None,None,1161.0620794007555,None,,,,,,,,,,,,,,,,,,,,,,,,,,,,,,72NF,001,2023_May_05_0951,ExactRep-v3-final,2021.2.3,59.97077034511379,
,,,,,,,,38,0,38,0,,,,,,,,,,,,,,,,,,,,,,,,,,,,,,,,,,,,,,,,,,,,,,,,,,,,,1165.5792391998693,None,,,,,,,,,,,,,,,,,,,,,,,,,,,,,,,,,,,steam,37,39,sing,red,1163.577190500684,None,None,1163.577190500684,None,,,,,,,,,,,,,,,,,,,,,,,,,,,,,,72NF,001,2023_May_05_0951,ExactRep-v3-final,2021.2.3,59.97077034511379,
,,,,,,,,39,0,39,0,,,,,,,,,,,,,,,,,,,,,,,,,,,,,,,,,,,,,,,,,,,,,,,,,,,,,1168.081700200215,None,,,,,,,,,,,,,,,,,,,,,,,,,,,,,,,,,,,city,84,40,aloud,white,1166.082492600195,None,None,1166.082492600195,None,,,,,,,,,,,,,,,,,,,,,,,,,,,,,,72NF,001,2023_May_05_0951,ExactRep-v3-final,2021.2.3,59.97077034511379,
,,,,,,,,40,0,40,0,,,,,,,,,,,,,,,,,,,,,,,,,,,,,,,,,,,,,,,,,,,,,,,,,,,,,1170.584135199897,None,,,,,,,,,,,,,,,,,,,,,,,,,,,,,,,,,,,letter,30,41,sing,red,1168.5823528999463,None,None,1168.5823528999463,None,,,,,,,,,,,,,,,,,,,,,,,,,,,,,,72NF,001,2023_May_05_0951,ExactRep-v3-final,2021.2.3,59.97077034511379,
,,,,,,,,41,0,41,0,,,,,,,,,,,,,,,,,,,,,,,,,,,,,,,,,,,,,,,,,,,,,,,,,,,,,1173.0867824004963,None,,,,,,,,,,,,,,,,,,,,,,,,,,,,,,,,,,,author,48,42,silent,blue,1171.0849259002134,None,None,1171.0849259002134,None,,,,,,,,,,,,,,,,,,,,,,,,,,,,,,72NF,001,2023_May_05_0951,ExactRep-v3-final,2021.2.3,59.97077034511379,
,,,,,,,,42,0,42,0,,,,,,,,,,,,,,,,,,,,,,,,,,,,,,,,,,,,,,,,,,,,,,,,,,,,,1175.6057951003313,None,,,,,,,,,,,,,,,,,,,,,,,,,,,,,,,,,,,shock,95,43,aloud,white,1173.5908470004797,None,None,1173.5908470004797,None,,,,,,,,,,,,,,,,,,,,,,,,,,,,,,72NF,001,2023_May_05_0951,ExactRep-v3-final,2021.2.3,59.97077034511379,
,,,,,,,,43,0,43,0,,,,,,,,,,,,,,,,,,,,,,,,,,,,,,,,,,,,,,,,,,,,,,,,,,,,,1178.108344499953,None,,,,,,,,,,,,,,,,,,,,,,,,,,,,,,,,,,,vessel,17,44,sing,red,1176.1063533006236,None,None,1176.1063533006236,None,,,,,,,,,,,,,,,,,,,,,,,,,,,,,,72NF,001,2023_May_05_0951,ExactRep-v3-final,2021.2.3,59.97077034511379,
,,,,,,,,44,0,44,0,,,,,,,,,,,,,,,,,,,,,,,,,,,,,,,,,,,,,,,,,,,,,,,,,,,,,1180.6108902003616,None,,,,,,,,,,,,,,,,,,,,,,,,,,,,,,,,,,,freedom,15,45,sing,red,1178.611214400269,None,None,1178.611214400269,None,,,,,,,,,,,,,,,,,,,,,,,,,,,,,,72NF,001,2023_May_05_0951,ExactRep-v3-final,2021.2.3,59.97077034511379,
,,,,,,,,45,0,45,0,,,,,,,,,,,,,,,,,,,,,,,,,,,,,,,,,,,,,,,,,,,,,,,,,,,,,1183.1140390001237,None,,,,,,,,,,,,,,,,,,,,,,,,,,,,,,,,,,,silence,102,46,aloud,white,1181.1143885999918,None,None,1181.1143885999918,None,,,,,,,,,,,,,,,,,,,,,,,,,,,,,,72NF,001,2023_May_05_0951,ExactRep-v3-final,2021.2.3,59.97077034511379,
,,,,,,,,46,0,46,0,,,,,,,,,,,,,,,,,,,,,,,,,,,,,,,,,,,,,,,,,,,,,,,,,,,,,1185.6324674999341,None,,,,,,,,,,,,,,,,,,,,,,,,,,,,,,,,,,,mercy,74,47,silent,blue,1183.6177825005725,None,None,1183.6177825005725,None,,,,,,,,,,,,,,,,,,,,,,,,,,,,,,72NF,001,2023_May_05_0951,ExactRep-v3-final,2021.2.3,59.97077034511379,
,,,,,,,,47,0,47,0,,,,,,,,,,,,,,,,,,,,,,,,,,,,,,,,,,,,,,,,,,,,,,,,,,,,,1188.1351319998503,None,,,,,,,,,,,,,,,,,,,,,,,,,,,,,,,,,,,square,34,48,sing,red,1186.1353767998517,None,None,1186.1353767998517,None,,,,,,,,,,,,,,,,,,,,,,,,,,,,,,72NF,001,2023_May_05_0951,ExactRep-v3-final,2021.2.3,59.97077034511379,
,,,,,,,,48,0,48,0,,,,,,,,,,,,,,,,,,,,,,,,,,,,,,,,,,,,,,,,,,,,,,,,,,,,,1190.6542434003204,None,,,,,,,,,,,,,,,,,,,,,,,,,,,,,,,,,,,queen,43,49,silent,blue,1188.6413632007316,None,None,1188.6413632007316,None,,,,,,,,,,,,,,,,,,,,,,,,,,,,,,72NF,001,2023_May_05_0951,ExactRep-v3-final,2021.2.3,59.97077034511379,
,,,,,,,,49,0,49,0,,,,,,,,,,,,,,,,,,,,,,,,,,,,,,,,,,,,,,,,,,,,,,,,,,,,,1193.1567679001018,None,,,,,,,,,,,,,,,,,,,,,,,,,,,,,,,,,,,crime,57,50,silent,blue,1191.1547340005636,None,None,1191.1547340005636,None,,,,,,,,,,,,,,,,,,,,,,,,,,,,,,72NF,001,2023_May_05_0951,ExactRep-v3-final,2021.2.3,59.97077034511379,
,,,,,,,,50,0,50,0,,,,,,,,,,,,,,,,,,,,,,,,,,,,,,,,,,,,,,,,,,,,,,,,,,,,,1195.6591135002673,None,,,,,,,,,,,,,,,,,,,,,,,,,,,,,,,,,,,hour,94,51,aloud,white,1193.6596109000966,None,None,1193.6596109000966,None,,,,,,,,,,,,,,,,,,,,,,,,,,,,,,72NF,001,2023_May_05_0951,ExactRep-v3-final,2021.2.3,59.97077034511379,
,,,,,,,,51,0,51,0,,,,,,,,,,,,,,,,,,,,,,,,,,,,,,,,,,,,,,,,,,,,,,,,,,,,,1198.178245600313,None,,,,,,,,,,,,,,,,,,,,,,,,,,,,,,,,,,,sky,39,52,silent,blue,1196.170692000538,None,None,1196.170692000538,None,,,,,,,,,,,,,,,,,,,,,,,,,,,,,,72NF,001,2023_May_05_0951,ExactRep-v3-final,2021.2.3,59.97077034511379,
,,,,,,,,52,0,52,0,,,,,,,,,,,,,,,,,,,,,,,,,,,,,,,,,,,,,,,,,,,,,,,,,,,,,1200.680752900429,None,,,,,,,,,,,,,,,,,,,,,,,,,,,,,,,,,,,honour,62,53,silent,blue,1198.6817065998912,None,None,1198.6817065998912,None,,,,,,,,,,,,,,,,,,,,,,,,,,,,,,72NF,001,2023_May_05_0951,ExactRep-v3-final,2021.2.3,59.97077034511379,
,,,,,,,,53,0,53,0,,,,,,,,,,,,,,,,,,,,,,,,,,,,,,,,,,,,,,,,,,,,,,,,,,,,,1203.1834105001763,None,,,,,,,,,,,,,,,,,,,,,,,,,,,,,,,,,,,weapon,71,54,silent,blue,1201.1812721006572,None,None,1201.1812721006572,None,,,,,,,,,,,,,,,,,,,,,,,,,,,,,,72NF,001,2023_May_05_0951,ExactRep-v3-final,2021.2.3,59.97077034511379,
,,,,,,,,54,0,54,0,,,,,,,,,,,,,,,,,,,,,,,,,,,,,,,,,,,,,,,,,,,,,,,,,,,,,1205.6857526004314,None,,,,,,,,,,,,,,,,,,,,,,,,,,,,,,,,,,,skin,9,55,sing,red,1203.6864435998723,None,None,1203.6864435998723,None,,,,,,,,,,,,,,,,,,,,,,,,,,,,,,72NF,001,2023_May_05_0951,ExactRep-v3-final,2021.2.3,59.97077034511379,
,,,,,,,,55,0,55,0,,,,,,,,,,,,,,,,,,,,,,,,,,,,,,,,,,,,,,,,,,,,,,,,,,,,,1208.1884833006188,None,,,,,,,,,,,,,,,,,,,,,,,,,,,,,,,,,,,cottage,49,56,silent,blue,1206.1862794002518,None,None,1206.1862794002518,None,,,,,,,,,,,,,,,,,,,,,,,,,,,,,,72NF,001,2023_May_05_0951,ExactRep-v3-final,2021.2.3,59.97077034511379,
,,,,,,,,56,0,56,0,,,,,,,,,,,,,,,,,,,,,,,,,,,,,,,,,,,,,,,,,,,,,,,,,,,,,1210.6908077001572,None,,,,,,,,,,,,,,,,,,,,,,,,,,,,,,,,,,,custom,76,57,silent,blue,1208.6904090000317,None,None,1208.6904090000317,None,,,,,,,,,,,,,,,,,,,,,,,,,,,,,,72NF,001,2023_May_05_0951,ExactRep-v3-final,2021.2.3,59.97077034511379,
,,,,,,,,57,0,57,0,,,,,,,,,,,,,,,,,,,,,,,,,,,,,,,,,,,,,,,,,,,,,,,,,,,,,1213.1933554001153,None,,,,,,,,,,,,,,,,,,,,,,,,,,,,,,,,,,,corner,70,58,silent,blue,1211.1932724006474,None,None,1211.1932724006474,None,,,,,,,,,,,,,,,,,,,,,,,,,,,,,,72NF,001,2023_May_05_0951,ExactRep-v3-final,2021.2.3,59.97077034511379,
,,,,,,,,58,0,58,0,,,,,,,,,,,,,,,,,,,,,,,,,,,,,,,,,,,,,,,,,,,,,,,,,,,,,1215.6960752001032,None,,,,,,,,,,,,,,,,,,,,,,,,,,,,,,,,,,,pole,20,59,sing,red,1213.6963336002082,None,None,1213.6963336002082,None,,,,,,,,,,,,,,,,,,,,,,,,,,,,,,72NF,001,2023_May_05_0951,ExactRep-v3-final,2021.2.3,59.97077034511379,
,,,,,,,,59,0,59,0,,,,,,,,,,,,,,,,,,,,,,,,,,,,,,,,,,,,,,,,,,,,,,,,,,,,,1218.1984256999567,None,,,,,,,,,,,,,,,,,,,,,,,,,,,,,,,,,,,victory,112,60,aloud,white,1216.196411699988,None,None,1216.196411699988,None,,,,,,,,,,,,,,,,,,,,,,,,,,,,,,72NF,001,2023_May_05_0951,ExactRep-v3-final,2021.2.3,59.97077034511379,
,,,,,,,,60,0,60,0,,,,,,,,,,,,,,,,,,,,,,,,,,,,,,,,,,,,,,,,,,,,,,,,,,,,,1220.7177146999165,None,,,,,,,,,,,,,,,,,,,,,,,,,,,,,,,,,,,shore,10,61,sing,red,1218.702648400329,None,None,1218.702648400329,None,,,,,,,,,,,,,,,,,,,,,,,,,,,,,,72NF,001,2023_May_05_0951,ExactRep-v3-final,2021.2.3,59.97077034511379,
,,,,,,,,61,0,61,0,,,,,,,,,,,,,,,,,,,,,,,,,,,,,,,,,,,,,,,,,,,,,,,,,,,,,1223.220264799893,None,,,,,,,,,,,,,,,,,,,,,,,,,,,,,,,,,,,bowl,64,62,silent,blue,1221.221170800738,None,None,1221.221170800738,None,,,,,,,,,,,,,,,,,,,,,,,,,,,,,,72NF,001,2023_May_05_0951,ExactRep-v3-final,2021.2.3,59.97077034511379,
,,,,,,,,62,0,62,0,,,,,,,,,,,,,,,,,,,,,,,,,,,,,,,,,,,,,,,,,,,,,,,,,,,,,1225.7228151001036,None,,,,,,,,,,,,,,,,,,,,,,,,,,,,,,,,,,,ocean,33,63,sing,red,1223.7223287001252,None,None,1223.7223287001252,None,,,,,,,,,,,,,,,,,,,,,,,,,,,,,,72NF,001,2023_May_05_0951,ExactRep-v3-final,2021.2.3,59.97077034511379,
,,,,,,,,63,0,63,0,,,,,,,,,,,,,,,,,,,,,,,,,,,,,,,,,,,,,,,,,,,,,,,,,,,,,1228.241854400374,None,,,,,,,,,,,,,,,,,,,,,,,,,,,,,,,,,,,woods,1,64,sing,red,1226.2264670003206,None,None,1226.2264670003206,None,,,,,,,,,,,,,,,,,,,,,,,,,,,,,,72NF,001,2023_May_05_0951,ExactRep-v3-final,2021.2.3,59.97077034511379,
,,,,,,,,64,0,64,0,,,,,,,,,,,,,,,,,,,,,,,,,,,,,,,,,,,,,,,,,,,,,,,,,,,,,1230.744462000206,None,,,,,,,,,,,,,,,,,,,,,,,,,,,,,,,,,,,thought,36,65,sing,red,1228.7454024003819,None,None,1228.7454024003819,None,,,,,,,,,,,,,,,,,,,,,,,,,,,,,,72NF,001,2023_May_05_0951,ExactRep-v3-final,2021.2.3,59.97077034511379,
,,,,,,,,65,0,65,0,,,,,,,,,,,,,,,,,,,,,,,,,,,,,,,,,,,,,,,,,,,,,,,,,,,,,1233.263562200591,None,,,,,,,,,,,,,,,,,,,,,,,,,,,,,,,,,,,friend,3,66,sing,red,1231.2521703001112,None,None,1231.2521703001112,None,,,,,,,,,,,,,,,,,,,,,,,,,,,,,,72NF,001,2023_May_05_0951,ExactRep-v3-final,2021.2.3,59.97077034511379,
,,,,,,,,66,0,66,0,,,,,,,,,,,,,,,,,,,,,,,,,,,,,,,,,,,,,,,,,,,,,,,,,,,,,1235.7660345006734,None,,,,,,,,,,,,,,,,,,,,,,,,,,,,,,,,,,,street,113,67,aloud,white,1233.7670900002122,None,None,1233.7670900002122,None,,,,,,,,,,,,,,,,,,,,,,,,,,,,,,72NF,001,2023_May_05_0951,ExactRep-v3-final,2021.2.3,59.97077034511379,
,,,,,,,,67,0,67,0,,,,,,,,,,,,,,,,,,,,,,,,,,,,,,,,,,,,,,,,,,,,,,,,,,,,,1238.2685291003436,None,,,,,,,,,,,,,,,,,,,,,,,,,,,,,,,,,,,ship,4,68,sing,red,1236.2691264003515,None,None,1236.2691264003515,None,,,,,,,,,,,,,,,,,,,,,,,,,,,,,,72NF,001,2023_May_05_0951,ExactRep-v3-final,2021.2.3,59.97077034511379,
,,,,,,,,68,0,68,0,,,,,,,,,,,,,,,,,,,,,,,,,,,,,,,,,,,,,,,,,,,,,,,,,,,,,1240.7710268003866,None,,,,,,,,,,,,,,,,,,,,,,,,,,,,,,,,,,,temple,54,69,silent,blue,1238.7703328002244,None,None,1238.7703328002244,None,,,,,,,,,,,,,,,,,,,,,,,,,,,,,,72NF,001,2023_May_05_0951,ExactRep-v3-final,2021.2.3,59.97077034511379,
,,,,,,,,69,0,69,0,,,,,,,,,,,,,,,,,,,,,,,,,,,,,,,,,,,,,,,,,,,,,,,,,,,,,1243.2735339002684,None,,,,,,,,,,,,,,,,,,,,,,,,,,,,,,,,,,,child,41,70,silent,blue,1241.272797100246,None,None,1241.272797100246,None,,,,,,,,,,,,,,,,,,,,,,,,,,,,,,72NF,001,2023_May_05_0951,ExactRep-v3-final,2021.2.3,59.97077034511379,
,,,,,,,,70,0,70,0,,,,,,,,,,,,,,,,,,,,,,,,,,,,,,,,,,,,,,,,,,,,,,,,,,,,,1245.7760959006846,None,,,,,,,,,,,,,,,,,,,,,,,,,,,,,,,,,,,dust,88,71,aloud,white,1243.773977700621,None,None,1243.773977700621,None,,,,,,,,,,,,,,,,,,,,,,,,,,,,,,72NF,001,2023_May_05_0951,ExactRep-v3-final,2021.2.3,59.97077034511379,
,,,,,,,,71,0,71,0,,,,,,,,,,,,,,,,,,,,,,,,,,,,,,,,,,,,,,,,,,,,,,,,,,,,,1248.2786626005545,None,,,,,,,,,,,,,,,,,,,,,,,,,,,,,,,,,,,boulder,114,72,aloud,white,1246.2763529000804,None,None,1246.2763529000804,None,,,,,,,,,,,,,,,,,,,,,,,,,,,,,,72NF,001,2023_May_05_0951,ExactRep-v3-final,2021.2.3,59.97077034511379,
,,,,,,,,72,0,72,0,,,,,,,,,,,,,,,,,,,,,,,,,,,,,,,,,,,,,,,,,,,,,,,,,,,,,1250.7810923000798,None,,,,,,,,,,,,,,,,,,,,,,,,,,,,,,,,,,,iron,68,73,silent,blue,1248.7789261005819,None,None,1248.7789261005819,None,,,,,,,,,,,,,,,,,,,,,,,,,,,,,,72NF,001,2023_May_05_0951,ExactRep-v3-final,2021.2.3,59.97077034511379,
,,,,,,,,73,0,73,0,,,,,,,,,,,,,,,,,,,,,,,,,,,,,,,,,,,,,,,,,,,,,,,,,,,,,1253.2835723999888,None,,,,,,,,,,,,,,,,,,,,,,,,,,,,,,,,,,,lad,107,74,aloud,white,1251.284569900483,None,None,1251.284569900483,None,,,,,,,,,,,,,,,,,,,,,,,,,,,,,,72NF,001,2023_May_05_0951,ExactRep-v3-final,2021.2.3,59.97077034511379,
,,,,,,,,74,0,74,0,,,,,,,,,,,,,,,,,,,,,,,,,,,,,,,,,,,,,,,,,,,,,,,,,,,,,1255.8025430999696,None,,,,,,,,,,,,,,,,,,,,,,,,,,,,,,,,,,,virtue,86,75,aloud,white,1253.7882414003834,None,None,1253.7882414003834,None,,,,,,,,,,,,,,,,,,,,,,,,,,,,,,72NF,001,2023_May_05_0951,ExactRep-v3-final,2021.2.3,59.97077034511379,
,,,,,,,,75,0,75,0,,,,,,,,,,,,,,,,,,,,,,,,,,,,,,,,,,,,,,,,,,,,,,,,,,,,,1258.3052063006908,None,,,,,,,,,,,,,,,,,,,,,,,,,,,,,,,,,,,star,97,76,aloud,white,1256.30380159989,None,None,1256.30380159989,None,,,,,,,,,,,,,,,,,,,,,,,,,,,,,,72NF,001,2023_May_05_0951,ExactRep-v3-final,2021.2.3,59.97077034511379,
,,,,,,,,76,0,76,0,,,,,,,,,,,,,,,,,,,,,,,,,,,,,,,,,,,,,,,,,,,,,,,,,,,,,1260.80784410052,None,,,,,,,,,,,,,,,,,,,,,,,,,,,,,,,,,,,arm,44,77,silent,blue,1258.8057170007378,None,None,1258.8057170007378,None,,,,,,,,,,,,,,,,,,,,,,,,,,,,,,72NF,001,2023_May_05_0951,ExactRep-v3-final,2021.2.3,59.97077034511379,
,,,,,,,,77,0,77,0,,,,,,,,,,,,,,,,,,,,,,,,,,,,,,,,,,,,,,,,,,,,,,,,,,,,,1263.326958999969,None,,,,,,,,,,,,,,,,,,,,,,,,,,,,,,,,,,,speech,72,78,silent,blue,1261.318139700219,None,None,1261.318139700219,None,,,,,,,,,,,,,,,,,,,,,,,,,,,,,,72NF,001,2023_May_05_0951,ExactRep-v3-final,2021.2.3,59.97077034511379,
,,,,,,,,78,0,78,0,,,,,,,,,,,,,,,,,,,,,,,,,,,,,,,,,,,,,,,,,,,,,,,,,,,,,1265.8314906004816,None,,,,,,,,,,,,,,,,,,,,,,,,,,,,,,,,,,,wheat,82,79,aloud,white,1263.8291186001152,None,None,1263.8291186001152,None,,,,,,,,,,,,,,,,,,,,,,,,,,,,,,72NF,001,2023_May_05_0951,ExactRep-v3-final,2021.2.3,59.97077034511379,
,,,,,,,,79,0,79,0,,,,,,,,,,,,,,,,,,,,,,,,,,,,,,,,,,,,,,,,,,,,,,,,,,,,,1268.3484910000116,None,,,,,,,,,,,,,,,,,,,,,,,,,,,,,,,,,,,troops,81,80,aloud,white,1266.346450600773,None,None,1266.346450600773,None,,,,,,,,,,,,,,,,,,,,,,,,,,,,,,72NF,001,2023_May_05_0951,ExactRep-v3-final,2021.2.3,59.97077034511379,
,,,,,,,,80,0,80,0,,,,,,,,,,,,,,,,,,,,,,,,,,,,,,,,,,,,,,,,,,,,,,,,,,,,,1270.8511494006962,None,,,,,,,,,,,,,,,,,,,,,,,,,,,,,,,,,,,insect,21,81,sing,red,1268.8504960006103,None,None,1268.8504960006103,None,,,,,,,,,,,,,,,,,,,,,,,,,,,,,,72NF,001,2023_May_05_0951,ExactRep-v3-final,2021.2.3,59.97077034511379,
,,,,,,,,81,0,81,0,,,,,,,,,,,,,,,,,,,,,,,,,,,,,,,,,,,,,,,,,,,,,,,,,,,,,1273.3700204007328,None,,,,,,,,,,,,,,,,,,,,,,,,,,,,,,,,,,,church,69,82,silent,blue,1271.3544260999188,None,None,1271.3544260999188,None,,,,,,,,,,,,,,,,,,,,,,,,,,,,,,72NF,001,2023_May_05_0951,ExactRep-v3-final,2021.2.3,59.97077034511379,
,,,,,,,,82,0,82,0,,,,,,,,,,,,,,,,,,,,,,,,,,,,,,,,,,,,,,,,,,,,,,,,,,,,,1275.8725931001827,None,,,,,,,,,,,,,,,,,,,,,,,,,,,,,,,,,,,advice,42,83,silent,blue,1273.8708151001483,None,None,1273.8708151001483,None,,,,,,,,,,,,,,,,,,,,,,,,,,,,,,72NF,001,2023_May_05_0951,ExactRep-v3-final,2021.2.3,59.97077034511379,
,,,,,,,,83,0,83,0,,,,,,,,,,,,,,,,,,,,,,,,,,,,,,,,,,,,,,,,,,,,,,,,,,,,,1278.392006000504,None,,,,,,,,,,,,,,,,,,,,,,,,,,,,,,,,,,,bar,45,84,silent,blue,1276.3814016003162,None,None,1276.3814016003162,None,,,,,,,,,,,,,,,,,,,,,,,,,,,,,,72NF,001,2023_May_05_0951,ExactRep-v3-final,2021.2.3,59.97077034511379,
,,,,,,,,84,0,84,0,,,,,,,,,,,,,,,,,,,,,,,,,,,,,,,,,,,,,,,,,,,,,,,,,,,,,1280.894525400363,None,,,,,,,,,,,,,,,,,,,,,,,,,,,,,,,,,,,corn,31,85,sing,red,1278.8924703998491,None,None,1278.8924703998491,None,,,,,,,,,,,,,,,,,,,,,,,,,,,,,,72NF,001,2023_May_05_0951,ExactRep-v3-final,2021.2.3,59.97077034511379,
,,,,,,,,85,0,85,0,,,,,,,,,,,,,,,,,,,,,,,,,,,,,,,,,,,,,,,,,,,,,,,,,,,,,1283.4137270003557,None,,,,,,,,,,,,,,,,,,,,,,,,,,,,,,,,,,,lip,93,86,aloud,white,1281.3990557007492,None,None,1281.3990557007492,None,,,,,,,,,,,,,,,,,,,,,,,,,,,,,,72NF,001,2023_May_05_0951,ExactRep-v3-final,2021.2.3,59.97077034511379,
,,,,,,,,86,0,86,0,,,,,,,,,,,,,,,,,,,,,,,,,,,,,,,,,,,,,,,,,,,,,,,,,,,,,1285.932726399973,None,,,,,,,,,,,,,,,,,,,,,,,,,,,,,,,,,,,fire,50,87,silent,blue,1283.9178201006725,None,None,1283.9178201006725,None,,,,,,,,,,,,,,,,,,,,,,,,,,,,,,72NF,001,2023_May_05_0951,ExactRep-v3-final,2021.2.3,59.97077034511379,
,,,,,,,,87,0,87,0,,,,,,,,,,,,,,,,,,,,,,,,,,,,,,,,,,,,,,,,,,,,,,,,,,,,,1288.4521734006703,None,,,,,,,,,,,,,,,,,,,,,,,,,,,,,,,,,,,doctor,111,88,aloud,white,1286.4425214007497,None,None,1286.4425214007497,None,,,,,,,,,,,,,,,,,,,,,,,,,,,,,,72NF,001,2023_May_05_0951,ExactRep-v3-final,2021.2.3,59.97077034511379,
,,,,,,,,88,0,88,0,,,,,,,,,,,,,,,,,,,,,,,,,,,,,,,,,,,,,,,,,,,,,,,,,,,,,1290.9546906007454,None,,,,,,,,,,,,,,,,,,,,,,,,,,,,,,,,,,,soil,59,89,silent,blue,1288.9525402002037,None,None,1288.9525402002037,None,,,,,,,,,,,,,,,,,,,,,,,,,,,,,,72NF,001,2023_May_05_0951,ExactRep-v3-final,2021.2.3,59.97077034511379,
,,,,,,,,89,0,89,0,,,,,,,,,,,,,,,,,,,,,,,,,,,,,,,,,,,,,,,,,,,,,,,,,,,,,1293.4569439003244,None,,,,,,,,,,,,,,,,,,,,,,,,,,,,,,,,,,,death,91,90,aloud,white,1291.4563837004825,None,None,1291.4563837004825,None,,,,,,,,,,,,,,,,,,,,,,,,,,,,,,72NF,001,2023_May_05_0951,ExactRep-v3-final,2021.2.3,59.97077034511379,
,,,,,,,,90,0,90,0,,,,,,,,,,,,,,,,,,,,,,,,,,,,,,,,,,,,,,,,,,,,,,,,,,,,,1295.9595526000485,None,,,,,,,,,,,,,,,,,,,,,,,,,,,,,,,,,,,stone,53,91,silent,blue,1293.9589822003618,None,None,1293.9589822003618,None,,,,,,,,,,,,,,,,,,,,,,,,,,,,,,72NF,001,2023_May_05_0951,ExactRep-v3-final,2021.2.3,59.97077034511379,
,,,,,,,,91,0,91,0,,,,,,,,,,,,,,,,,,,,,,,,,,,,,,,,,,,,,,,,,,,,,,,,,,,,,1298.4787993999198,None,,,,,,,,,,,,,,,,,,,,,,,,,,,,,,,,,,,fact,52,92,silent,blue,1296.4690001001582,None,None,1296.4690001001582,None,,,,,,,,,,,,,,,,,,,,,,,,,,,,,,72NF,001,2023_May_05_0951,ExactRep-v3-final,2021.2.3,59.97077034511379,
,,,,,,,,92,0,92,0,,,,,,,,,,,,,,,,,,,,,,,,,,,,,,,,,,,,,,,,,,,,,,,,,,,,,1300.9809483001009,None,,,,,,,,,,,,,,,,,,,,,,,,,,,,,,,,,,,kiss,56,93,silent,blue,1298.9801137000322,None,None,1298.9801137000322,None,,,,,,,,,,,,,,,,,,,,,,,,,,,,,,72NF,001,2023_May_05_0951,ExactRep-v3-final,2021.2.3,59.97077034511379,
,,,,,,,,93,0,93,0,,,,,,,,,,,,,,,,,,,,,,,,,,,,,,,,,,,,,,,,,,,,,,,,,,,,,1303.4835588000715,None,,,,,,,,,,,,,,,,,,,,,,,,,,,,,,,,,,,devil,117,94,aloud,white,1301.4817262999713,None,None,1301.4817262999713,None,,,,,,,,,,,,,,,,,,,,,,,,,,,,,,72NF,001,2023_May_05_0951,ExactRep-v3-final,2021.2.3,59.97077034511379,
,,,,,,,,94,0,94,0,,,,,,,,,,,,,,,,,,,,,,,,,,,,,,,,,,,,,,,,,,,,,,,,,,,,,1305.9862692002207,None,,,,,,,,,,,,,,,,,,,,,,,,,,,,,,,,,,,poet,105,95,aloud,white,1303.9861492998898,None,None,1303.9861492998898,None,,,,,,,,,,,,,,,,,,,,,,,,,,,,,,72NF,001,2023_May_05_0951,ExactRep-v3-final,2021.2.3,59.97077034511379,
,,,,,,,,95,0,95,0,,,,,,,,,,,,,,,,,,,,,,,,,,,,,,,,,,,,,,,,,,,,,,,,,,,,,1308.4885841999203,None,,,,,,,,,,,,,,,,,,,,,,,,,,,,,,,,,,,boy,16,96,sing,red,1306.486496500671,None,None,1306.486496500671,None,,,,,,,,,,,,,,,,,,,,,,,,,,,,,,72NF,001,2023_May_05_0951,ExactRep-v3-final,2021.2.3,59.97077034511379,
,,,,,,,,96,0,96,0,,,,,,,,,,,,,,,,,,,,,,,,,,,,,,,,,,,,,,,,,,,,,,,,,,,,,1311.007919200696,None,,,,,,,,,,,,,,,,,,,,,,,,,,,,,,,,,,,engine,115,97,aloud,white,1308.9928473001346,None,None,1308.9928473001346,None,,,,,,,,,,,,,,,,,,,,,,,,,,,,,,72NF,001,2023_May_05_0951,ExactRep-v3-final,2021.2.3,59.97077034511379,
,,,,,,,,97,0,97,0,,,,,,,,,,,,,,,,,,,,,,,,,,,,,,,,,,,,,,,,,,,,,,,,,,,,,1313.510517500341,None,,,,,,,,,,,,,,,,,,,,,,,,,,,,,,,,,,,garden,58,98,silent,blue,1311.5084698004648,None,None,1311.5084698004648,None,,,,,,,,,,,,,,,,,,,,,,,,,,,,,,72NF,001,2023_May_05_0951,ExactRep-v3-final,2021.2.3,59.97077034511379,
,,,,,,,,98,0,98,0,,,,,,,,,,,,,,,,,,,,,,,,,,,,,,,,,,,,,,,,,,,,,,,,,,,,,1316.0129470005631,None,,,,,,,,,,,,,,,,,,,,,,,,,,,,,,,,,,,power,65,99,silent,blue,1314.0108312005177,None,None,1314.0108312005177,None,,,,,,,,,,,,,,,,,,,,,,,,,,,,,,72NF,001,2023_May_05_0951,ExactRep-v3-final,2021.2.3,59.97077034511379,
,,,,,,,,99,0,99,0,,,,,,,,,,,,,,,,,,,,,,,,,,,,,,,,,,,,,,,,,,,,,,,,,,,,,1318.5154456002638,None,,,,,,,,,,,,,,,,,,,,,,,,,,,,,,,,,,,theory,77,100,silent,blue,1316.5152667006478,None,None,1316.5152667006478,None,,,,,,,,,,,,,,,,,,,,,,,,,,,,,,72NF,001,2023_May_05_0951,ExactRep-v3-final,2021.2.3,59.97077034511379,
,,,,,,,,100,0,100,0,,,,,,,,,,,,,,,,,,,,,,,,,,,,,,,,,,,,,,,,,,,,,,,,,,,,,1321.0179583001882,None,,,,,,,,,,,,,,,,,,,,,,,,,,,,,,,,,,,air,24,101,sing,red,1319.0179343000054,None,None,1319.0179343000054,None,,,,,,,,,,,,,,,,,,,,,,,,,,,,,,72NF,001,2023_May_05_0951,ExactRep-v3-final,2021.2.3,59.97077034511379,
,,,,,,,,101,0,101,0,,,,,,,,,,,,,,,,,,,,,,,,,,,,,,,,,,,,,,,,,,,,,,,,,,,,,1323.5369629999623,None,,,,,,,,,,,,,,,,,,,,,,,,,,,,,,,,,,,fault,25,102,sing,red,1321.5219792006537,None,None,1321.5219792006537,None,,,,,,,,,,,,,,,,,,,,,,,,,,,,,,72NF,001,2023_May_05_0951,ExactRep-v3-final,2021.2.3,59.97077034511379,
,,,,,,,,102,0,102,0,,,,,,,,,,,,,,,,,,,,,,,,,,,,,,,,,,,,,,,,,,,,,,,,,,,,,1326.0394569998607,None,,,,,,,,,,,,,,,,,,,,,,,,,,,,,,,,,,,body,38,103,sing,red,1324.0374816004187,None,None,1324.0374816004187,None,,,,,,,,,,,,,,,,,,,,,,,,,,,,,,72NF,001,2023_May_05_0951,ExactRep-v3-final,2021.2.3,59.97077034511379,
,,,,,,,,103,0,103,0,,,,,,,,,,,,,,,,,,,,,,,,,,,,,,,,,,,,,,,,,,,,,,,,,,,,,1328.5419914005324,None,,,,,,,,,,,,,,,,,,,,,,,,,,,,,,,,,,,cotton,19,104,sing,red,1326.5399903999642,None,None,1326.5399903999642,None,,,,,,,,,,,,,,,,,,,,,,,,,,,,,,72NF,001,2023_May_05_0951,ExactRep-v3-final,2021.2.3,59.97077034511379,
,,,,,,,,104,0,104,0,,,,,,,,,,,,,,,,,,,,,,,,,,,,,,,,,,,,,,,,,,,,,,,,,,,,,1331.0612320005894,None,,,,,,,,,,,,,,,,,,,,,,,,,,,,,,,,,,,person,83,105,aloud,white,1329.0462059006095,None,None,1329.0462059006095,None,,,,,,,,,,,,,,,,,,,,,,,,,,,,,,72NF,001,2023_May_05_0951,ExactRep-v3-final,2021.2.3,59.97077034511379,
,,,,,,,,105,0,105,0,,,,,,,,,,,,,,,,,,,,,,,,,,,,,,,,,,,,,,,,,,,,,,,,,,,,,1333.563710800372,None,,,,,,,,,,,,,,,,,,,,,,,,,,,,,,,,,,,meeting,108,106,aloud,white,1331.5618155002594,None,None,1331.5618155002594,None,,,,,,,,,,,,,,,,,,,,,,,,,,,,,,72NF,001,2023_May_05_0951,ExactRep-v3-final,2021.2.3,59.97077034511379,
,,,,,,,,106,0,106,0,,,,,,,,,,,,,,,,,,,,,,,,,,,,,,,,,,,,,,,,,,,,,,,,,,,,,1336.0663896007463,None,,,,,,,,,,,,,,,,,,,,,,,,,,,,,,,,,,,library,63,107,silent,blue,1334.0647603999823,None,None,1334.0647603999823,None,,,,,,,,,,,,,,,,,,,,,,,,,,,,,,72NF,001,2023_May_05_0951,ExactRep-v3-final,2021.2.3,59.97077034511379,
,,,,,,,,107,0,107,0,,,,,,,,,,,,,,,,,,,,,,,,,,,,,,,,,,,,,,,,,,,,,,,,,,,,,1338.5855077998713,None,,,,,,,,,,,,,,,,,,,,,,,,,,,,,,,,,,,officer,5,108,sing,red,1336.571183600463,None,None,1336.571183600463,None,,,,,,,,,,,,,,,,,,,,,,,,,,,,,,72NF,001,2023_May_05_0951,ExactRep-v3-final,2021.2.3,59.97077034511379,
,,,,,,,,108,0,108,0,,,,,,,,,,,,,,,,,,,,,,,,,,,,,,,,,,,,,,,,,,,,,,,,,,,,,1341.104561100714,None,,,,,,,,,,,,,,,,,,,,,,,,,,,,,,,,,,,factory,26,109,sing,red,1339.090913100168,None,None,1339.090913100168,None,,,,,,,,,,,,,,,,,,,,,,,,,,,,,,72NF,001,2023_May_05_0951,ExactRep-v3-final,2021.2.3,59.97077034511379,
,,,,,,,,109,0,109,0,,,,,,,,,,,,,,,,,,,,,,,,,,,,,,,,,,,,,,,,,,,,,,,,,,,,,1343.6239376002923,None,,,,,,,,,,,,,,,,,,,,,,,,,,,,,,,,,,,soul,46,110,silent,blue,1341.6098781004548,None,None,1341.6098781004548,None,,,,,,,,,,,,,,,,,,,,,,,,,,,,,,72NF,001,2023_May_05_0951,ExactRep-v3-final,2021.2.3,59.97077034511379,
,,,,,,,,110,0,110,0,,,,,,,,,,,,,,,,,,,,,,,,,,,,,,,,,,,,,,,,,,,,,,,,,,,,,1346.1261828001589,None,,,,,,,,,,,,,,,,,,,,,,,,,,,,,,,,,,,event,28,111,sing,red,1344.1248965999112,None,None,1344.1248965999112,None,,,,,,,,,,,,,,,,,,,,,,,,,,,,,,72NF,001,2023_May_05_0951,ExactRep-v3-final,2021.2.3,59.97077034511379,
,,,,,,,,111,0,111,0,,,,,,,,,,,,,,,,,,,,,,,,,,,,,,,,,,,,,,,,,,,,,,,,,,,,,1348.6296140998602,None,,,,,,,,,,,,,,,,,,,,,,,,,,,,,,,,,,,metal,119,112,aloud,white,1346.6284688999876,None,None,1346.6284688999876,None,,,,,,,,,,,,,,,,,,,,,,,,,,,,,,72NF,001,2023_May_05_0951,ExactRep-v3-final,2021.2.3,59.97077034511379,
,,,,,,,,112,0,112,0,,,,,,,,,,,,,,,,,,,,,,,,,,,,,,,,,,,,,,,,,,,,,,,,,,,,,1351.1313196001574,None,,,,,,,,,,,,,,,,,,,,,,,,,,,,,,,,,,,flower,104,113,aloud,white,1349.1311687007546,None,None,1349.1311687007546,None,,,,,,,,,,,,,,,,,,,,,,,,,,,,,,72NF,001,2023_May_05_0951,ExactRep-v3-final,2021.2.3,59.97077034511379,
,,,,,,,,113,0,113,0,,,,,,,,,,,,,,,,,,,,,,,,,,,,,,,,,,,,,,,,,,,,,,,,,,,,,1353.6425267001614,None,,,,,,,,,,,,,,,,,,,,,,,,,,,,,,,,,,,judge,80,114,aloud,white,1351.633801500313,None,None,1351.633801500313,None,,,,,,,,,,,,,,,,,,,,,,,,,,,,,,72NF,001,2023_May_05_0951,ExactRep-v3-final,2021.2.3,59.97077034511379,
,,,,,,,,114,0,114,0,,,,,,,,,,,,,,,,,,,,,,,,,,,,,,,,,,,,,,,,,,,,,,,,,,,,,1356.1698088999838,None,,,,,,,,,,,,,,,,,,,,,,,,,,,,,,,,,,,table,100,115,aloud,white,1354.161957600154,None,None,1354.161957600154,None,,,,,,,,,,,,,,,,,,,,,,,,,,,,,,72NF,001,2023_May_05_0951,ExactRep-v3-final,2021.2.3,59.97077034511379,
,,,,,,,,115,0,115,0,,,,,,,,,,,,,,,,,,,,,,,,,,,,,,,,,,,,,,,,,,,,,,,,,,,,,1358.6890259999782,None,,,,,,,,,,,,,,,,,,,,,,,,,,,,,,,,,,,health,98,116,aloud,white,1356.6741973999888,None,None,1356.6741973999888,None,,,,,,,,,,,,,,,,,,,,,,,,,,,,,,72NF,001,2023_May_05_0951,ExactRep-v3-final,2021.2.3,59.97077034511379,
,,,,,,,,116,0,116,0,,,,,,,,,,,,,,,,,,,,,,,,,,,,,,,,,,,,,,,,,,,,,,,,,,,,,1361.2082151006907,None,,,,,,,,,,,,,,,,,,,,,,,,,,,,,,,,,,,coast,109,117,aloud,white,1359.194712500088,None,None,1359.194712500088,None,,,,,,,,,,,,,,,,,,,,,,,,,,,,,,72NF,001,2023_May_05_0951,ExactRep-v3-final,2021.2.3,59.97077034511379,
,,,,,,,,117,0,117,0,,,,,,,,,,,,,,,,,,,,,,,,,,,,,,,,,,,,,,,,,,,,,,,,,,,,,1363.7274961005896,None,,,,,,,,,,,,,,,,,,,,,,,,,,,,,,,,,,,trouble,22,118,sing,red,1361.7139749005437,None,None,1361.7139749005437,None,,,,,,,,,,,,,,,,,,,,,,,,,,,,,,72NF,001,2023_May_05_0951,ExactRep-v3-final,2021.2.3,59.97077034511379,
,,,,,,,,118,0,118,0,,,,,,,,,,,,,,,,,,,,,,,,,,,,,,,,,,,,,,,,,,,,,,,,,,,,,1366.2465327000245,None,,,,,,,,,,,,,,,,,,,,,,,,,,,,,,,,,,,river,75,119,silent,blue,1364.2338398005813,None,None,1364.2338398005813,None,,,,,,,,,,,,,,,,,,,,,,,,,,,,,,72NF,001,2023_May_05_0951,ExactRep-v3-final,2021.2.3,59.97077034511379,
,,,,,,,,119,0,119,0,,,,,,,,,,,,,,,,,,,,,,,,,,,,,,,,,,,,,,,,,,,,,,,,,,,,,1368.748870600015,None,,,,,,,,,,,,,,,,,,,,,,,,,,,,,,,,,,,money,116,120,aloud,white,1366.7467625001445,None,None,1366.7467625001445,None,,,,,,,,,,,,,,,,,,,,,,,,,,,,,,72NF,001,2023_May_05_0951,ExactRep-v3-final,2021.2.3,59.97077034511379,
,,,,,,,,,,,,,,,,,,,,,,,,,,,,,,,,,,,,,,,,,,,,,,,,,,,,,,,,,,,,,,,,,,,,,,,,,,,,,,,,,,,,,,,,,,,,,,,,,,,,,,,,,,,,,,1369.2510770000517,None,space,0.13674999959766865,1379.2275205003098,None,,,,,,,,,,,,,,,,,,,,,,,,72NF,001,2023_May_05_0951,ExactRep-v3-final,2021.2.3,59.97077034511379,
,,,,,,,,,,,,,,,,,,,,,,,,,,,,,,,,,,,,,,,,,,,,,,,,,,,,,,,,,,,,,,,,,,,,,,,,,,,,,,,,,,,,,,,,,,,,,,,,,,,,,,,,,,,,,,,,,,,,1379.3948578005657,None,space,34.737385500222445,1389.3707218999043,None,,,,,,,,,,,,,,,,,,72NF,001,2023_May_05_0951,ExactRep-v3-final,2021.2.3,59.97077034511379,
,,,,,,,,,,,,0,0,0,0,,,,,,,,,,,,,,,,,,,,,,,,,,,,,,,,,,,,,,,,,,,,,,,,,1430.0601057000458,None,,,,,,,,,,,,,,,,,,,,,,,,,,,,,,,,,,,,,,,,,,,,,,,,,,,,,,,,,factory,26,1,sing,old,yellow,1424.6496315998957,None,y,1424.6496315998957,None,"['y', 'return']","[3.0263988003134727, 5.3702482003718615]",1424.6496315998957,None,,,72NF,001,2023_May_05_0951,ExactRep-v3-final,2021.2.3,59.97077034511379,
,,,,,,,,,,,,1,0,1,0,,,,,,,,,,,,,,,,,,,,,,,,,,,,,,,,,,,,,,,,,,,,,,,,,1436.2161367004737,None,,,,,,,,,,,,,,,,,,,,,,,,,,,,,,,,,,,,,,,,,,,,,,,,,,,,,,,,,wine,29,2,sing,old,yellow,1430.567884400487,None,y,1430.567884400487,None,"['y', 'return']","[3.5080335000529885, 5.612008900381625]",1430.567884400487,None,,,72NF,001,2023_May_05_0951,ExactRep-v3-final,2021.2.3,59.97077034511379,
,,,,,,,,,,,,2,0,2,0,,,,,,,,,,,,,,,,,,,,,,,,,,,,,,,,,,,,,,,,,,,,,,,,,1440.8041855003685,None,,,,,,,,,,,,,,,,,,,,,,,,,,,,,,,,,,,,,,,,,,,,,,,,,,,,,,,,,beast,174,3,aloud,new,yellow,1436.7258369000629,None,n,1436.7258369000629,None,"['n', 'return']","[3.5260598994791508, 4.038047700189054]",1436.7258369000629,None,,,72NF,001,2023_May_05_0951,ExactRep-v3-final,2021.2.3,59.97077034511379,
,,,,,,,,,,,,3,0,3,0,,,,,,,,,,,,,,,,,,,,,,,,,,,,,,,,,,,,,,,,,,,,,,,,,1443.1065652007237,None,,,,,,,,,,,,,,,,,,,,,,,,,,,,,,,,,,,,,,,,,,,,,,,,,,,,,,,,,justice,159,4,silent,new,yellow,1441.31745829992,None,y,1441.31745829992,None,"['y', 'return']","[1.1346742995083332, 1.742496999911964]",1441.31745829992,None,,,72NF,001,2023_May_05_0951,ExactRep-v3-final,2021.2.3,59.97077034511379,
,,,,,,,,,,,,4,0,4,0,,,,,,,,,,,,,,,,,,,,,,,,,,,,,,,,,,,,,,,,,,,,,,,,,1445.3254463002086,None,,,,,,,,,,,,,,,,,,,,,,,,,,,,,,,,,,,,,,,,,,,,,,,,,,,,,,,,,window,193,5,sing,new,yellow,1443.6160962004215,None,y,1443.6160962004215,None,"['y', 'return']","[1.1077514998614788, 1.6758634997531772]",1443.6160962004215,None,,,72NF,001,2023_May_05_0951,ExactRep-v3-final,2021.2.3,59.97077034511379,
,,,,,,,,,,,,5,0,5,0,,,,,,,,,,,,,,,,,,,,,,,,,,,,,,,,,,,,,,,,,,,,,,,,,1448.1616879003122,None,,,,,,,,,,,,,,,,,,,,,,,,,,,,,,,,,,,,,,,,,,,,,,,,,,,,,,,,,iron,68,6,silent,old,yellow,1445.8343911003321,None,n,1445.8343911003321,None,"['n', 'return']","[1.6255025994032621, 2.2816516999155283]",1445.8343911003321,None,,,72NF,001,2023_May_05_0951,ExactRep-v3-final,2021.2.3,59.97077034511379,
,,,,,,,,,,,,6,0,6,0,,,,,,,,,,,,,,,,,,,,,,,,,,,,,,,,,,,,,,,,,,,,,,,,,1450.564207800664,None,,,,,,,,,,,,,,,,,,,,,,,,,,,,,,,,,,,,,,,,,,,,,,,,,,,,,,,,,board,171,7,sing,new,yellow,1448.6703441003338,None,n,1448.6703441003338,None,"['n', 'return']","[1.1975993998348713, 1.8456740994006395]",1448.6703441003338,None,,,72NF,001,2023_May_05_0951,ExactRep-v3-final,2021.2.3,59.97077034511379,
,,,,,,,,,,,,7,0,7,0,,,,,,,,,,,,,,,,,,,,,,,,,,,,,,,,,,,,,,,,,,,,,,,,,1452.6661181002855,None,,,,,,,,,,,,,,,,,,,,,,,,,,,,,,,,,,,,,,,,,,,,,,,,,,,,,,,,,custom,76,8,silent,old,yellow,1451.0694850003347,None,y,1451.0694850003347,None,"['y', 'return']","[1.1025272998958826, 1.550441099330783]",1451.0694850003347,None,,,72NF,001,2023_May_05_0951,ExactRep-v3-final,2021.2.3,59.97077034511379,
,,,,,,,,,,,,8,0,8,0,,,,,,,,,,,,,,,,,,,,,,,,,,,,,,,,,,,,,,,,,,,,,,,,,1455.0516232000664,None,,,,,,,,,,,,,,,,,,,,,,,,,,,,,,,,,,,,,,,,,,,,,,,,,,,,,,,,,avenue,89,9,aloud,old,yellow,1453.1801662007347,None,n,1453.1801662007347,None,"['n', 'return']","[1.1757920002564788, 1.8397530997171998]",1453.1801662007347,None,,,72NF,001,2023_May_05_0951,ExactRep-v3-final,2021.2.3,59.97077034511379,
,,,,,,,,,,,,9,0,9,0,,,,,,,,,,,,,,,,,,,,,,,,,,,,,,,,,,,,,,,,,,,,,,,,,1458.0378908999264,None,,,,,,,,,,,,,,,,,,,,,,,,,,,,,,,,,,,,,,,,,,,,,,,,,,,,,,,,,dream,194,10,aloud,new,yellow,1455.5583780007437,None,y,1455.5583780007437,None,"['y', 'return']","[1.9819570006802678, 2.4375985004007816]",1455.5583780007437,None,,,72NF,001,2023_May_05_0951,ExactRep-v3-final,2021.2.3,59.97077034511379,
,,,,,,,,,,,,10,0,10,0,,,,,,,,,,,,,,,,,,,,,,,,,,,,,,,,,,,,,,,,,,,,,,,,,1460.1568750999868,None,,,,,,,,,,,,,,,,,,,,,,,,,,,,,,,,,,,,,,,,,,,,,,,,,,,,,,,,,flesh,233,11,sing,new,yellow,1458.5546494005248,None,n,1458.5546494005248,None,"['n', 'return']","[1.129305699840188, 1.561276899650693]",1458.5546494005248,None,,,72NF,001,2023_May_05_0951,ExactRep-v3-final,2021.2.3,59.97077034511379,
,,,,,,,,,,,,11,0,11,0,,,,,,,,,,,,,,,,,,,,,,,,,,,,,,,,,,,,,,,,,,,,,,,,,1462.2757237004116,None,,,,,,,,,,,,,,,,,,,,,,,,,,,,,,,,,,,,,,,,,,,,,,,,,,,,,,,,,cash,183,12,sing,new,yellow,1460.6669477000833,None,n,1460.6669477000833,None,"['n', 'return']","[1.073008400388062, 1.560902800410986]",1460.6669477000833,None,,,72NF,001,2023_May_05_0951,ExactRep-v3-final,2021.2.3,59.97077034511379,
,,,,,,,,,,,,12,0,12,0,,,,,,,,,,,,,,,,,,,,,,,,,,,,,,,,,,,,,,,,,,,,,,,,,1464.3110121004283,None,,,,,,,,,,,,,,,,,,,,,,,,,,,,,,,,,,,,,,,,,,,,,,,,,,,,,,,,,pupil,234,13,aloud,new,yellow,1462.7852343004197,None,n,1462.7852343004197,None,"['n', 'return']","[1.098708100616932, 1.482702700421214]",1462.7852343004197,None,,,72NF,001,2023_May_05_0951,ExactRep-v3-final,2021.2.3,59.97077034511379,
,,,,,,,,,,,,13,0,13,0,,,,,,,,,,,,,,,,,,,,,,,,,,,,,,,,,,,,,,,,,,,,,,,,,1466.2463621003553,None,,,,,,,,,,,,,,,,,,,,,,,,,,,,,,,,,,,,,,,,,,,,,,,,,,,,,,,,,death,91,14,aloud,old,yellow,1464.8201903002337,None,y,1464.8201903002337,None,"['y', 'return']","[0.9517451003193855, 1.3837631000205874]",1464.8201903002337,None,,,72NF,001,2023_May_05_0951,ExactRep-v3-final,2021.2.3,59.97077034511379,
,,,,,,,,,,,,14,0,14,0,,,,,,,,,,,,,,,,,,,,,,,,,,,,,,,,,,,,,,,,,,,,,,,,,1468.331537200138,None,,,,,,,,,,,,,,,,,,,,,,,,,,,,,,,,,,,,,,,,,,,,,,,,,,,,,,,,,plant,7,15,sing,old,yellow,1466.7557869004086,None,n,1466.7557869004086,None,"['n', 'return']","[1.0961949005723, 1.5441125007346272]",1466.7557869004086,None,,,72NF,001,2023_May_05_0951,ExactRep-v3-final,2021.2.3,59.97077034511379,
,,,,,,,,,,,,15,0,15,0,,,,,,,,,,,,,,,,,,,,,,,,,,,,,,,,,,,,,,,,,,,,,,,,,1470.283606200479,None,,,,,,,,,,,,,,,,,,,,,,,,,,,,,,,,,,,,,,,,,,,,,,,,,,,,,,,,,butter,237,16,sing,new,yellow,1468.8413537004963,None,n,1468.8413537004963,None,"['n', 'return']","[1.0025416994467378, 1.3945220997557044]",1468.8413537004963,None,,,72NF,001,2023_May_05_0951,ExactRep-v3-final,2021.2.3,59.97077034511379,
,,,,,,,,,,,,16,0,16,0,,,,,,,,,,,,,,,,,,,,,,,,,,,,,,,,,,,,,,,,,,,,,,,,,1472.9863801002502,None,,,,,,,,,,,,,,,,,,,,,,,,,,,,,,,,,,,,,,,,,,,,,,,,,,,,,,,,,valley,92,17,aloud,old,yellow,1470.7888720007613,None,y,1470.7888720007613,None,"['y', 'return']","[1.7910353001207113, 2.151074199937284]",1470.7888720007613,None,,,72NF,001,2023_May_05_0951,ExactRep-v3-final,2021.2.3,59.97077034511379,
,,,,,,,,,,,,17,0,17,0,,,,,,,,,,,,,,,,,,,,,,,,,,,,,,,,,,,,,,,,,,,,,,,,,1477.4573330003768,None,,,,,,,,,,,,,,,,,,,,,,,,,,,,,,,,,,,,,,,,,,,,,,,,,,,,,,,,,lord,189,18,sing,new,yellow,1473.4970607999712,None,n,1473.4970607999712,None,"['n', 'return']","[1.3789892001077533, 3.914911899715662]",1473.4970607999712,None,,,72NF,001,2023_May_05_0951,ExactRep-v3-final,2021.2.3,59.97077034511379,
,,,,,,,,,,,,18,0,18,0,,,,,,,,,,,,,,,,,,,,,,,,,,,,,,,,,,,,,,,,,,,,,,,,,1480.8775866003707,None,,,,,,,,,,,,,,,,,,,,,,,,,,,,,,,,,,,,,,,,,,,,,,,,,,,,,,,,,paper,67,19,silent,old,yellow,1477.9701284002513,None,y,1477.9701284002513,None,"['y', 'return']","[2.3781311996281147, 2.8656864995136857]",1477.9701284002513,None,,,72NF,001,2023_May_05_0951,ExactRep-v3-final,2021.2.3,59.97077034511379,
,,,,,,,,,,,,19,0,19,0,,,,,,,,,,,,,,,,,,,,,,,,,,,,,,,,,,,,,,,,,,,,,,,,,1482.8462374005467,None,,,,,,,,,,,,,,,,,,,,,,,,,,,,,,,,,,,,,,,,,,,,,,,,,,,,,,,,,spirit,8,20,sing,old,yellow,1481.3837606003508,None,y,1481.3837606003508,None,"['y', 'return']","[0.9721667002886534, 1.4281147997826338]",1481.3837606003508,None,,,72NF,001,2023_May_05_0951,ExactRep-v3-final,2021.2.3,59.97077034511379,
,,,,,,,,,,,,20,0,20,0,,,,,,,,,,,,,,,,,,,,,,,,,,,,,,,,,,,,,,,,,,,,,,,,,1485.7322843000293,None,,,,,,,,,,,,,,,,,,,,,,,,,,,,,,,,,,,,,,,,,,,,,,,,,,,,,,,,,star,97,21,aloud,old,yellow,1483.3563492000103,None,n,1483.3563492000103,None,"['n', 'return']","[1.7195720998570323, 2.343622799962759]",1483.3563492000103,None,,,72NF,001,2023_May_05_0951,ExactRep-v3-final,2021.2.3,59.97077034511379,
,,,,,,,,,,,,21,0,21,0,,,,,,,,,,,,,,,,,,,,,,,,,,,,,,,,,,,,,,,,,,,,,,,,,1487.6343499999493,None,,,,,,,,,,,,,,,,,,,,,,,,,,,,,,,,,,,,,,,,,,,,,,,,,,,,,,,,,cottage,49,22,silent,old,yellow,1486.247346200049,None,y,1486.247346200049,None,"['y', 'return']","[0.9404728999361396, 1.3406125996261835]",1486.247346200049,None,,,72NF,001,2023_May_05_0951,ExactRep-v3-final,2021.2.3,59.97077034511379,
,,,,,,,,,,,,22,0,22,0,,,,,,,,,,,,,,,,,,,,,,,,,,,,,,,,,,,,,,,,,,,,,,,,,1489.686461600475,None,,,,,,,,,,,,,,,,,,,,,,,,,,,,,,,,,,,,,,,,,,,,,,,,,,,,,,,,,truth,138,23,silent,new,yellow,1488.1382643003017,None,y,1488.1382643003017,None,"['y', 'return']","[1.009638700634241, 1.5056950999423862]",1488.1382643003017,None,,,72NF,001,2023_May_05_0951,ExactRep-v3-final,2021.2.3,59.97077034511379,
,,,,,,,,,,,,23,0,23,0,,,,,,,,,,,,,,,,,,,,,,,,,,,,,,,,,,,,,,,,,,,,,,,,,1491.5048080999404,None,,,,,,,,,,,,,,,,,,,,,,,,,,,,,,,,,,,,,,,,,,,,,,,,,,,,,,,,,queen,43,24,silent,old,yellow,1490.1979921003804,None,n,1490.1979921003804,None,"['n', 'return']","[0.9098889995366335, 1.2699293000623584]",1490.1979921003804,None,,,72NF,001,2023_May_05_0951,ExactRep-v3-final,2021.2.3,59.97077034511379,
,,,,,,,,,,,,24,0,24,0,,,,,,,,,,,,,,,,,,,,,,,,,,,,,,,,,,,,,,,,,,,,,,,,,1493.3736113002524,None,,,,,,,,,,,,,,,,,,,,,,,,,,,,,,,,,,,,,,,,,,,,,,,,,,,,,,,,,hall,212,25,aloud,new,yellow,1492.025007000193,None,n,1492.025007000193,None,"['n', 'return']","[0.9548631999641657, 1.306920500472188]",1492.025007000193,None,,,72NF,001,2023_May_05_0951,ExactRep-v3-final,2021.2.3,59.97077034511379,
,,,,,,,,,,,,25,0,25,0,,,,,,,,,,,,,,,,,,,,,,,,,,,,,,,,,,,,,,,,,,,,,,,,,1495.3920665001497,None,,,,,,,,,,,,,,,,,,,,,,,,,,,,,,,,,,,,,,,,,,,,,,,,,,,,,,,,,ability,169,26,sing,new,yellow,1493.884248400107,None,n,1493.884248400107,None,"['n', 'return']","[1.095707000233233, 1.471696900203824]",1493.884248400107,None,,,72NF,001,2023_May_05_0951,ExactRep-v3-final,2021.2.3,59.97077034511379,
,,,,,,,,,,,,26,0,26,0,,,,,,,,,,,,,,,,,,,,,,,,,,,,,,,,,,,,,,,,,,,,,,,,,1497.1606244007125,None,,,,,,,,,,,,,,,,,,,,,,,,,,,,,,,,,,,,,,,,,,,,,,,,,,,,,,,,,officer,5,27,sing,old,yellow,1495.8945666998625,None,y,1495.8945666998625,None,"['y', 'return']","[0.8374323006719351, 1.2294323006644845]",1495.8945666998625,None,,,72NF,001,2023_May_05_0951,ExactRep-v3-final,2021.2.3,59.97077034511379,
,,,,,,,,,,,,27,0,27,0,,,,,,,,,,,,,,,,,,,,,,,,,,,,,,,,,,,,,,,,,,,,,,,,,1499.3295047003776,None,,,,,,,,,,,,,,,,,,,,,,,,,,,,,,,,,,,,,,,,,,,,,,,,,,,,,,,,,duty,151,28,silent,new,yellow,1497.6700028004125,None,y,1497.6700028004125,None,"['y', 'return']","[1.1179296998307109, 1.6219667000696063]",1497.6700028004125,None,,,72NF,001,2023_May_05_0951,ExactRep-v3-final,2021.2.3,59.97077034511379,
,,,,,,,,,,,,28,0,28,0,,,,,,,,,,,,,,,,,,,,,,,,,,,,,,,,,,,,,,,,,,,,,,,,,1501.2145962007344,None,,,,,,,,,,,,,,,,,,,,,,,,,,,,,,,,,,,,,,,,,,,,,,,,,,,,,,,,,origin,165,29,sing,new,yellow,1499.8378698006272,None,n,1499.8378698006272,None,"['n', 'return']","[0.9182972991839051, 1.3340954994782805]",1499.8378698006272,None,,,72NF,001,2023_May_05_0951,ExactRep-v3-final,2021.2.3,59.97077034511379,
,,,,,,,,,,,,29,0,29,0,,,,,,,,,,,,,,,,,,,,,,,,,,,,,,,,,,,,,,,,,,,,,,,,,1503.48360100016,None,,,,,,,,,,,,,,,,,,,,,,,,,,,,,,,,,,,,,,,,,,,,,,,,,,,,,,,,,meadow,12,30,sing,old,yellow,1501.7238882007077,None,y,1501.7238882007077,None,"['y', 'return']","[1.0880752000957727, 1.720062700100243]",1501.7238882007077,None,,,72NF,001,2023_May_05_0951,ExactRep-v3-final,2021.2.3,59.97077034511379,
,,,,,,,,,,,,30,0,30,0,,,,,,,,,,,,,,,,,,,,,,,,,,,,,,,,,,,,,,,,,,,,,,,,,1505.201929899864,None,,,,,,,,,,,,,,,,,,,,,,,,,,,,,,,,,,,,,,,,,,,,,,,,,,,,,,,,,fur,215,31,sing,new,yellow,1503.9948458001018,None,n,1503.9948458001018,None,"['n', 'return']","[0.8170854998752475, 1.169131400063634]",1503.9948458001018,None,,,72NF,001,2023_May_05_0951,ExactRep-v3-final,2021.2.3,59.97077034511379,
,,,,,,,,,,,,31,0,31,0,,,,,,,,,,,,,,,,,,,,,,,,,,,,,,,,,,,,,,,,,,,,,,,,,1507.0537574999034,None,,,,,,,,,,,,,,,,,,,,,,,,,,,,,,,,,,,,,,,,,,,,,,,,,,,,,,,,,fate,150,32,silent,new,yellow,1505.7137724002823,None,n,1505.7137724002823,None,"['n', 'return']","[0.9621590999886394, 1.2982335006818175]",1505.7137724002823,None,,,72NF,001,2023_May_05_0951,ExactRep-v3-final,2021.2.3,59.97077034511379,
,,,,,,,,,,,,32,0,32,0,,,,,,,,,,,,,,,,,,,,,,,,,,,,,,,,,,,,,,,,,,,,,,,,,1508.8557166000828,None,,,,,,,,,,,,,,,,,,,,,,,,,,,,,,,,,,,,,,,,,,,,,,,,,,,,,,,,,steam,37,33,sing,old,yellow,1507.5635972004384,None,y,1507.5635972004384,None,"['y', 'return']","[0.896390900015831, 1.24825410079211]",1507.5635972004384,None,,,72NF,001,2023_May_05_0951,ExactRep-v3-final,2021.2.3,59.97077034511379,
,,,,,,,,,,,,33,0,33,0,,,,,,,,,,,,,,,,,,,,,,,,,,,,,,,,,,,,,,,,,,,,,,,,,1511.5250126002356,None,,,,,,,,,,,,,,,,,,,,,,,,,,,,,,,,,,,,,,,,,,,,,,,,,,,,,,,,,mind,179,34,sing,new,yellow,1509.3643102003261,None,y,1509.3643102003261,None,"['y', 'return']","[1.7438358999788761, 2.127615999430418]",1509.3643102003261,None,,,72NF,001,2023_May_05_0951,ExactRep-v3-final,2021.2.3,59.97077034511379,
,,,,,,,,,,,,34,0,34,0,,,,,,,,,,,,,,,,,,,,,,,,,,,,,,,,,,,,,,,,,,,,,,,,,1513.9107563002035,None,,,,,,,,,,,,,,,,,,,,,,,,,,,,,,,,,,,,,,,,,,,,,,,,,,,,,,,,,vision,23,35,sing,old,yellow,1512.028354300186,None,y,1512.028354300186,None,"['y', 'return']","[1.3596103005111217, 1.839626600034535]",1512.028354300186,None,,,72NF,001,2023_May_05_0951,ExactRep-v3-final,2021.2.3,59.97077034511379,
,,,,,,,,,,,,35,0,35,0,,,,,,,,,,,,,,,,,,,,,,,,,,,,,,,,,,,,,,,,,,,,,,,,,1516.4298774003983,None,,,,,,,,,,,,,,,,,,,,,,,,,,,,,,,,,,,,,,,,,,,,,,,,,,,,,,,,,car,203,36,sing,new,yellow,1514.4199454002082,None,n,1514.4199454002082,None,"['n', 'return']","[1.6320101004093885, 1.976049399934709]",1514.4199454002082,None,,,72NF,001,2023_May_05_0951,ExactRep-v3-final,2021.2.3,59.97077034511379,
,,,,,,,,,,,,36,0,36,0,,,,,,,,,,,,,,,,,,,,,,,,,,,,,,,,,,,,,,,,,,,,,,,,,1518.3818330001086,None,,,,,,,,,,,,,,,,,,,,,,,,,,,,,,,,,,,,,,,,,,,,,,,,,,,,,,,,,volume,181,37,sing,new,yellow,1516.9425769001245,None,n,1516.9425769001245,None,"['n', 'return']","[1.0295224003493786, 1.397545900195837]",1516.9425769001245,None,,,72NF,001,2023_May_05_0951,ExactRep-v3-final,2021.2.3,59.97077034511379,
,,,,,,,,,,,,37,0,37,0,,,,,,,,,,,,,,,,,,,,,,,,,,,,,,,,,,,,,,,,,,,,,,,,,1520.3170413002372,None,,,,,,,,,,,,,,,,,,,,,,,,,,,,,,,,,,,,,,,,,,,,,,,,,,,,,,,,,prison,235,38,sing,new,yellow,1518.8901762999594,None,y,1518.8901762999594,None,"['y', 'return']","[0.9458253001794219, 1.3938210997730494]",1518.8901762999594,None,,,72NF,001,2023_May_05_0951,ExactRep-v3-final,2021.2.3,59.97077034511379,
,,,,,,,,,,,,38,0,38,0,,,,,,,,,,,,,,,,,,,,,,,,,,,,,,,,,,,,,,,,,,,,,,,,,1522.2355254003778,None,,,,,,,,,,,,,,,,,,,,,,,,,,,,,,,,,,,,,,,,,,,,,,,,,,,,,,,,,coffee,214,39,aloud,new,yellow,1520.828894100152,None,n,1520.828894100152,None,"['n', 'return']","[1.03108389955014, 1.3749532997608185]",1520.828894100152,None,,,72NF,001,2023_May_05_0951,ExactRep-v3-final,2021.2.3,59.97077034511379,
,,,,,,,,,,,,39,0,39,0,,,,,,,,,,,,,,,,,,,,,,,,,,,,,,,,,,,,,,,,,,,,,,,,,1524.1208327002823,None,,,,,,,,,,,,,,,,,,,,,,,,,,,,,,,,,,,,,,,,,,,,,,,,,,,,,,,,,shadow,163,40,sing,new,yellow,1522.7483366001397,None,y,1522.7483366001397,None,"['y', 'return']","[0.9916241997852921, 1.335623599588871]",1522.7483366001397,None,,,72NF,001,2023_May_05_0951,ExactRep-v3-final,2021.2.3,59.97077034511379,
,,,,,,,,,,,,40,0,40,0,,,,,,,,,,,,,,,,,,,,,,,,,,,,,,,,,,,,,,,,,,,,,,,,,1526.122849199921,None,,,,,,,,,,,,,,,,,,,,,,,,,,,,,,,,,,,,,,,,,,,,,,,,,,,,,,,,,palace,55,41,silent,old,yellow,1524.6328052002937,None,y,1524.6328052002937,None,"['y', 'return']","[1.091262299567461, 1.4433231996372342]",1524.6328052002937,None,,,72NF,001,2023_May_05_0951,ExactRep-v3-final,2021.2.3,59.97077034511379,
,,,,,,,,,,,,41,0,41,0,,,,,,,,,,,,,,,,,,,,,,,,,,,,,,,,,,,,,,,,,,,,,,,,,1528.608693400398,None,,,,,,,,,,,,,,,,,,,,,,,,,,,,,,,,,,,,,,,,,,,,,,,,,,,,,,,,,house,205,42,sing,new,yellow,1526.63376800064,None,n,1526.63376800064,None,"['n', 'return']","[1.5546335000544786, 1.9382579000666738]",1526.63376800064,None,,,72NF,001,2023_May_05_0951,ExactRep-v3-final,2021.2.3,59.97077034511379,
,,,,,,,,,,,,42,0,42,0,,,,,,,,,,,,,,,,,,,,,,,,,,,,,,,,,,,,,,,,,,,,,,,,,1530.5439208000898,None,,,,,,,,,,,,,,,,,,,,,,,,,,,,,,,,,,,,,,,,,,,,,,,,,,,,,,,,,fault,25,43,sing,old,yellow,1529.1150580001995,None,y,1529.1150580001995,None,"['y', 'return']","[0.9529389999806881, 1.3848983999341726]",1529.1150580001995,None,,,72NF,001,2023_May_05_0951,ExactRep-v3-final,2021.2.3,59.97077034511379,
,,,,,,,,,,,,43,0,43,0,,,,,,,,,,,,,,,,,,,,,,,,,,,,,,,,,,,,,,,,,,,,,,,,,1532.462599100545,None,,,,,,,,,,,,,,,,,,,,,,,,,,,,,,,,,,,,,,,,,,,,,,,,,,,,,,,,,garden,58,44,silent,old,yellow,1531.0533963004127,None,y,1531.0533963004127,None,"['y', 'return']","[0.9986483994871378, 1.374540999531746]",1531.0533963004127,None,,,72NF,001,2023_May_05_0951,ExactRep-v3-final,2021.2.3,59.97077034511379,
,,,,,,,,,,,,44,0,44,0,,,,,,,,,,,,,,,,,,,,,,,,,,,,,,,,,,,,,,,,,,,,,,,,,1534.4647630006075,None,,,,,,,,,,,,,,,,,,,,,,,,,,,,,,,,,,,,,,,,,,,,,,,,,,,,,,,,,corn,31,45,sing,old,yellow,1532.9755493002012,None,y,1532.9755493002012,None,"['y', 'return']","[1.0684837000444531, 1.4444384993985295]",1532.9755493002012,None,,,72NF,001,2023_May_05_0951,ExactRep-v3-final,2021.2.3,59.97077034511379,
,,,,,,,,,,,,45,0,45,0,,,,,,,,,,,,,,,,,,,,,,,,,,,,,,,,,,,,,,,,,,,,,,,,,1536.19959679991,None,,,,,,,,,,,,,,,,,,,,,,,,,,,,,,,,,,,,,,,,,,,,,,,,,,,,,,,,,horse,238,46,aloud,new,yellow,1534.977759600617,None,y,1534.977759600617,None,"['y', 'return']","[0.8101472994312644, 1.1862448994070292]",1534.977759600617,None,,,72NF,001,2023_May_05_0951,ExactRep-v3-final,2021.2.3,59.97077034511379,
,,,,,,,,,,,,46,0,46,0,,,,,,,,,,,,,,,,,,,,,,,,,,,,,,,,,,,,,,,,,,,,,,,,,1538.018076499924,None,,,,,,,,,,,,,,,,,,,,,,,,,,,,,,,,,,,,,,,,,,,,,,,,,,,,,,,,,coast,109,47,aloud,old,yellow,1536.7072644000873,None,y,1536.7072644000873,None,"['y', 'return']","[0.8809524001553655, 1.2648288998752832]",1536.7072644000873,None,,,72NF,001,2023_May_05_0951,ExactRep-v3-final,2021.2.3,59.97077034511379,
,,,,,,,,,,,,47,0,47,0,,,,,,,,,,,,,,,,,,,,,,,,,,,,,,,,,,,,,,,,,,,,,,,,,1539.804347800091,None,,,,,,,,,,,,,,,,,,,,,,,,,,,,,,,,,,,,,,,,,,,,,,,,,,,,,,,,,clock,187,48,sing,new,yellow,1538.5346492007375,None,n,1538.5346492007375,None,"['n', 'return']","[0.861417499370873, 1.2214063992723823]",1538.5346492007375,None,,,72NF,001,2023_May_05_0951,ExactRep-v3-final,2021.2.3,59.97077034511379,
,,,,,,,,,,,,48,0,48,0,,,,,,,,,,,,,,,,,,,,,,,,,,,,,,,,,,,,,,,,,,,,,,,,,1541.571620600298,None,,,,,,,,,,,,,,,,,,,,,,,,,,,,,,,,,,,,,,,,,,,,,,,,,,,,,,,,,sugar,208,49,aloud,new,yellow,1540.3156628003344,None,n,1540.3156628003344,None,"['n', 'return']","[0.8724548006430268, 1.216439500451088]",1540.3156628003344,None,,,72NF,001,2023_May_05_0951,ExactRep-v3-final,2021.2.3,59.97077034511379,
,,,,,,,,,,,,49,0,49,0,,,,,,,,,,,,,,,,,,,,,,,,,,,,,,,,,,,,,,,,,,,,,,,,,1543.4903739001602,None,,,,,,,,,,,,,,,,,,,,,,,,,,,,,,,,,,,,,,,,,,,,,,,,,,,,,,,,,crime,57,50,silent,old,yellow,1542.0740929003805,None,y,1542.0740929003805,None,"['y', 'return']","[0.9939778000116348, 1.370010799728334]",1542.0740929003805,None,,,72NF,001,2023_May_05_0951,ExactRep-v3-final,2021.2.3,59.97077034511379,
,,,,,,,,,,,,50,0,50,0,,,,,,,,,,,,,,,,,,,,,,,,,,,,,,,,,,,,,,,,,,,,,,,,,1545.4088586000726,None,,,,,,,,,,,,,,,,,,,,,,,,,,,,,,,,,,,,,,,,,,,,,,,,,,,,,,,,,leader,153,51,silent,new,yellow,1543.9975124001503,None,y,1543.9975124001503,None,"['y', 'return']","[1.014529099687934, 1.3745969999581575]",1543.9975124001503,None,,,72NF,001,2023_May_05_0951,ExactRep-v3-final,2021.2.3,59.97077034511379,
,,,,,,,,,,,,51,0,51,0,,,,,,,,,,,,,,,,,,,,,,,,,,,,,,,,,,,,,,,,,,,,,,,,,1547.1939233001322,None,,,,,,,,,,,,,,,,,,,,,,,,,,,,,,,,,,,,,,,,,,,,,,,,,,,,,,,,,troops,81,52,aloud,old,yellow,1545.9186730002984,None,y,1545.9186730002984,None,"['y', 'return']","[0.8694025995209813, 1.2374589992687106]",1545.9186730002984,None,,,72NF,001,2023_May_05_0951,ExactRep-v3-final,2021.2.3,59.97077034511379,
,,,,,,,,,,,,52,0,52,0,,,,,,,,,,,,,,,,,,,,,,,,,,,,,,,,,,,,,,,,,,,,,,,,,1548.9123013000935,None,,,,,,,,,,,,,,,,,,,,,,,,,,,,,,,,,,,,,,,,,,,,,,,,,,,,,,,,,doll,126,53,silent,new,yellow,1547.7032318003476,None,n,1547.7032318003476,None,"['n', 'return']","[0.7806997001171112, 1.1647196998819709]",1547.7032318003476,None,,,72NF,001,2023_May_05_0951,ExactRep-v3-final,2021.2.3,59.97077034511379,
,,,,,,,,,,,,53,0,53,0,,,,,,,,,,,,,,,,,,,,,,,,,,,,,,,,,,,,,,,,,,,,,,,,,1550.6809236006811,None,,,,,,,,,,,,,,,,,,,,,,,,,,,,,,,,,,,,,,,,,,,,,,,,,,,,,,,,,gold,2,54,sing,old,yellow,1549.4238627003506,None,n,1549.4238627003506,None,"['n', 'return']","[0.8763199001550674, 1.2201070003211498]",1549.4238627003506,None,,,72NF,001,2023_May_05_0951,ExactRep-v3-final,2021.2.3,59.97077034511379,
,,,,,,,,,,,,54,0,54,0,,,,,,,,,,,,,,,,,,,,,,,,,,,,,,,,,,,,,,,,,,,,,,,,,1552.387383500114,None,,,,,,,,,,,,,,,,,,,,,,,,,,,,,,,,,,,,,,,,,,,,,,,,,,,,,,,,,meat,90,55,aloud,old,yellow,1551.1850660005584,None,y,1551.1850660005584,None,"['y', 'return']","[0.795113299973309, 1.1628547003492713]",1551.1850660005584,None,,,72NF,001,2023_May_05_0951,ExactRep-v3-final,2021.2.3,59.97077034511379,
,,,,,,,,,,,,55,0,55,0,,,,,,,,,,,,,,,,,,,,,,,,,,,,,,,,,,,,,,,,,,,,,,,,,1554.6347526004538,None,,,,,,,,,,,,,,,,,,,,,,,,,,,,,,,,,,,,,,,,,,,,,,,,,,,,,,,,,wheat,82,56,aloud,old,yellow,1552.9170554000884,None,y,1552.9170554000884,None,"['y', 'return']","[1.335160999558866, 1.670863799750805]",1552.9170554000884,None,,,72NF,001,2023_May_05_0951,ExactRep-v3-final,2021.2.3,59.97077034511379,
,,,,,,,,,,,,56,0,56,0,,,,,,,,,,,,,,,,,,,,,,,,,,,,,,,,,,,,,,,,,,,,,,,,,1556.753501500003,None,,,,,,,,,,,,,,,,,,,,,,,,,,,,,,,,,,,,,,,,,,,,,,,,,,,,,,,,,silence,102,57,aloud,old,yellow,1555.1447745002806,None,y,1555.1447745002806,None,"['y', 'return']","[1.1153725003823638, 1.5712486002594233]",1555.1447745002806,None,,,72NF,001,2023_May_05_0951,ExactRep-v3-final,2021.2.3,59.97077034511379,
,,,,,,,,,,,,57,0,57,0,,,,,,,,,,,,,,,,,,,,,,,,,,,,,,,,,,,,,,,,,,,,,,,,,1558.5721708005294,None,,,,,,,,,,,,,,,,,,,,,,,,,,,,,,,,,,,,,,,,,,,,,,,,,,,,,,,,,soil,59,58,silent,old,yellow,1557.2809418002144,None,y,1557.2809418002144,None,"['y', 'return']","[0.8992793997749686, 1.243146600201726]",1557.2809418002144,None,,,72NF,001,2023_May_05_0951,ExactRep-v3-final,2021.2.3,59.97077034511379,
,,,,,,,,,,,,58,0,58,0,,,,,,,,,,,,,,,,,,,,,,,,,,,,,,,,,,,,,,,,,,,,,,,,,1560.65746519994,None,,,,,,,,,,,,,,,,,,,,,,,,,,,,,,,,,,,,,,,,,,,,,,,,,,,,,,,,,winter,155,59,silent,new,yellow,1559.07885969989,None,n,1559.07885969989,None,"['n', 'return']","[1.1891713002696633, 1.5412569995969534]",1559.07885969989,None,,,72NF,001,2023_May_05_0951,ExactRep-v3-final,2021.2.3,59.97077034511379,
,,,,,,,,,,,,59,0,59,0,,,,,,,,,,,,,,,,,,,,,,,,,,,,,,,,,,,,,,,,,,,,,,,,,1562.4258770998567,None,,,,,,,,,,,,,,,,,,,,,,,,,,,,,,,,,,,,,,,,,,,,,,,,,,,,,,,,,answer,40,60,silent,old,yellow,1561.1689113005996,None,y,1561.1689113005996,None,"['y', 'return']","[0.8750775996595621, 1.2112264996394515]",1561.1689113005996,None,,,72NF,001,2023_May_05_0951,ExactRep-v3-final,2021.2.3,59.97077034511379,
,,,,,,,,,,,,60,0,60,0,,,,,,,,,,,,,,,,,,,,,,,,,,,,,,,,,,,,,,,,,,,,,,,,,1564.2776594003662,None,,,,,,,,,,,,,,,,,,,,,,,,,,,,,,,,,,,,,,,,,,,,,,,,,,,,,,,,,city,84,61,aloud,old,yellow,1562.9339874004945,None,y,1562.9339874004945,None,"['y', 'return']","[0.9581237994134426, 1.3100180998444557]",1562.9339874004945,None,,,72NF,001,2023_May_05_0951,ExactRep-v3-final,2021.2.3,59.97077034511379,
,,,,,,,,,,,,61,0,61,0,,,,,,,,,,,,,,,,,,,,,,,,,,,,,,,,,,,,,,,,,,,,,,,,,1566.3965018000454,None,,,,,,,,,,,,,,,,,,,,,,,,,,,,,,,,,,,,,,,,,,,,,,,,,,,,,,,,,library,63,62,silent,old,yellow,1564.7849518004805,None,n,1564.7849518004805,None,"['n', 'return']","[1.1950245993211865, 1.5790711995214224]",1564.7849518004805,None,,,72NF,001,2023_May_05_0951,ExactRep-v3-final,2021.2.3,59.97077034511379,
,,,,,,,,,,,,62,0,62,0,,,,,,,,,,,,,,,,,,,,,,,,,,,,,,,,,,,,,,,,,,,,,,,,,1568.214941800572,None,,,,,,,,,,,,,,,,,,,,,,,,,,,,,,,,,,,,,,,,,,,,,,,,,,,,,,,,,virtue,86,63,aloud,old,yellow,1566.9133878005669,None,y,1566.9133878005669,None,"['y', 'return']","[0.9066207995638251, 1.2586255995556712]",1566.9133878005669,None,,,72NF,001,2023_May_05_0951,ExactRep-v3-final,2021.2.3,59.97077034511379,
,,,,,,,,,,,,63,0,63,0,,,,,,,,,,,,,,,,,,,,,,,,,,,,,,,,,,,,,,,,,,,,,,,,,1570.1001483006403,None,,,,,,,,,,,,,,,,,,,,,,,,,,,,,,,,,,,,,,,,,,,,,,,,,,,,,,,,,world,156,64,silent,new,yellow,1568.7316343998536,None,y,1568.7316343998536,None,"['y', 'return']","[0.984557299874723, 1.328430499881506]",1568.7316343998536,None,,,72NF,001,2023_May_05_0951,ExactRep-v3-final,2021.2.3,59.97077034511379,
,,,,,,,,,,,,64,0,64,0,,,,,,,,,,,,,,,,,,,,,,,,,,,,,,,,,,,,,,,,,,,,,,,,,1571.835214599967,None,,,,,,,,,,,,,,,,,,,,,,,,,,,,,,,,,,,,,,,,,,,,,,,,,,,,,,,,,dawn,6,65,sing,old,yellow,1570.608169800602,None,y,1570.608169800602,None,"['y', 'return']","[0.7957883002236485, 1.1798791997134686]",1570.608169800602,None,,,72NF,001,2023_May_05_0951,ExactRep-v3-final,2021.2.3,59.97077034511379,
,,,,,,,,,,,,65,0,65,0,,,,,,,,,,,,,,,,,,,,,,,,,,,,,,,,,,,,,,,,,,,,,,,,,1574.0040792003274,None,,,,,,,,,,,,,,,,,,,,,,,,,,,,,,,,,,,,,,,,,,,,,,,,,,,,,,,,,flood,142,66,silent,new,yellow,1572.3444854002446,None,n,1572.3444854002446,None,"['n', 'return']","[0.8356405002996325, 1.611615400761366]",1572.3444854002446,None,,,72NF,001,2023_May_05_0951,ExactRep-v3-final,2021.2.3,59.97077034511379,
,,,,,,,,,,,,66,0,66,0,,,,,,,,,,,,,,,,,,,,,,,,,,,,,,,,,,,,,,,,,,,,,,,,,1575.7559162005782,None,,,,,,,,,,,,,,,,,,,,,,,,,,,,,,,,,,,,,,,,,,,,,,,,,,,,,,,,,nail,172,67,aloud,new,yellow,1574.507369200699,None,n,1574.507369200699,None,"['n', 'return']","[0.8486109999939799, 1.2006652001291513]",1574.507369200699,None,,,72NF,001,2023_May_05_0951,ExactRep-v3-final,2021.2.3,59.97077034511379,
,,,,,,,,,,,,67,0,67,0,,,,,,,,,,,,,,,,,,,,,,,,,,,,,,,,,,,,,,,,,,,,,,,,,1577.457512699999,None,,,,,,,,,,,,,,,,,,,,,,,,,,,,,,,,,,,,,,,,,,,,,,,,,,,,,,,,,present,184,68,aloud,new,yellow,1576.2737258998677,None,y,1576.2737258998677,None,"['y', 'return']","[0.7463330002501607, 1.1463796002790332]",1576.2737258998677,None,,,72NF,001,2023_May_05_0951,ExactRep-v3-final,2021.2.3,59.97077034511379,
,,,,,,,,,,,,68,0,68,0,,,,,,,,,,,,,,,,,,,,,,,,,,,,,,,,,,,,,,,,,,,,,,,,,1579.2092590006068,None,,,,,,,,,,,,,,,,,,,,,,,,,,,,,,,,,,,,,,,,,,,,,,,,,,,,,,,,,dress,61,69,silent,old,yellow,1577.9690391002223,None,n,1577.9690391002223,None,"['n', 'return']","[0.9068447994068265, 1.1950052995234728]",1577.9690391002223,None,,,72NF,001,2023_May_05_0951,ExactRep-v3-final,2021.2.3,59.97077034511379,
,,,,,,,,,,,,69,0,69,0,,,,,,,,,,,,,,,,,,,,,,,,,,,,,,,,,,,,,,,,,,,,,,,,,1580.9611315000802,None,,,,,,,,,,,,,,,,,,,,,,,,,,,,,,,,,,,,,,,,,,,,,,,,,,,,,,,,,plain,152,70,silent,new,yellow,1579.7198071004823,None,y,1579.7198071004823,None,"['y', 'return']","[0.8363632000982761, 1.1962372995913029]",1579.7198071004823,None,,,72NF,001,2023_May_05_0951,ExactRep-v3-final,2021.2.3,59.97077034511379,
,,,,,,,,,,,,70,0,70,0,,,,,,,,,,,,,,,,,,,,,,,,,,,,,,,,,,,,,,,,,,,,,,,,,1582.7961915004998,None,,,,,,,,,,,,,,,,,,,,,,,,,,,,,,,,,,,,,,,,,,,,,,,,,,,,,,,,,judge,80,71,aloud,old,yellow,1581.4685914004222,None,y,1581.4685914004222,None,"['y', 'return']","[0.959566100500524, 1.2874841997399926]",1581.4685914004222,None,,,72NF,001,2023_May_05_0951,ExactRep-v3-final,2021.2.3,59.97077034511379,
,,,,,,,,,,,,71,0,71,0,,,,,,,,,,,,,,,,,,,,,,,,,,,,,,,,,,,,,,,,,,,,,,,,,1584.4479678003117,None,,,,,,,,,,,,,,,,,,,,,,,,,,,,,,,,,,,,,,,,,,,,,,,,,,,,,,,,,blood,136,72,silent,new,yellow,1583.311555100605,None,n,1583.311555100605,None,"['n', 'return']","[0.7805238999426365, 1.100310300476849]",1583.311555100605,None,,,72NF,001,2023_May_05_0951,ExactRep-v3-final,2021.2.3,59.97077034511379,
,,,,,,,,,,,,72,0,72,0,,,,,,,,,,,,,,,,,,,,,,,,,,,,,,,,,,,,,,,,,,,,,,,,,1586.1841358002275,None,,,,,,,,,,,,,,,,,,,,,,,,,,,,,,,,,,,,,,,,,,,,,,,,,,,,,,,,,priest,207,73,sing,new,yellow,1584.9502886999398,None,n,1584.9502886999398,None,"['n', 'return']","[0.8138435008004308, 1.1897261999547482]",1584.9502886999398,None,,,72NF,001,2023_May_05_0951,ExactRep-v3-final,2021.2.3,59.97077034511379,
,,,,,,,,,,,,73,0,73,0,,,,,,,,,,,,,,,,,,,,,,,,,,,,,,,,,,,,,,,,,,,,,,,,,1587.9680244000629,None,,,,,,,,,,,,,,,,,,,,,,,,,,,,,,,,,,,,,,,,,,,,,,,,,,,,,,,,,metal,119,74,aloud,old,yellow,1586.6928359000012,None,y,1586.6928359000012,None,"['y', 'return']","[0.8872346002608538, 1.2392368000000715]",1586.6928359000012,None,,,72NF,001,2023_May_05_0951,ExactRep-v3-final,2021.2.3,59.97077034511379,
,,,,,,,,,,,,74,0,74,0,,,,,,,,,,,,,,,,,,,,,,,,,,,,,,,,,,,,,,,,,,,,,,,,,1589.6697040004656,None,,,,,,,,,,,,,,,,,,,,,,,,,,,,,,,,,,,,,,,,,,,,,,,,,,,,,,,,,devil,117,75,aloud,old,yellow,1588.4817449999973,None,y,1588.4817449999973,None,"['y', 'return']","[0.8024766994640231, 1.154246399179101]",1588.4817449999973,None,,,72NF,001,2023_May_05_0951,ExactRep-v3-final,2021.2.3,59.97077034511379,
,,,,,,,,,,,,75,0,75,0,,,,,,,,,,,,,,,,,,,,,,,,,,,,,,,,,,,,,,,,,,,,,,,,,1591.4381531998515,None,,,,,,,,,,,,,,,,,,,,,,,,,,,,,,,,,,,,,,,,,,,,,,,,,,,,,,,,,moral,217,76,sing,new,yellow,1590.1749581005424,None,n,1590.1749581005424,None,"['n', 'return']","[0.8932287003844976, 1.2290783002972603]",1590.1749581005424,None,,,72NF,001,2023_May_05_0951,ExactRep-v3-final,2021.2.3,59.97077034511379,
,,,,,,,,,,,,76,0,76,0,,,,,,,,,,,,,,,,,,,,,,,,,,,,,,,,,,,,,,,,,,,,,,,,,1593.2566823000088,None,,,,,,,,,,,,,,,,,,,,,,,,,,,,,,,,,,,,,,,,,,,,,,,,,,,,,,,,,honour,62,77,silent,old,yellow,1591.9481847006828,None,y,1591.9481847006828,None,"['y', 'return']","[0.9201545007526875, 1.2637582998722792]",1591.9481847006828,None,,,72NF,001,2023_May_05_0951,ExactRep-v3-final,2021.2.3,59.97077034511379,
,,,,,,,,,,,,77,0,77,0,,,,,,,,,,,,,,,,,,,,,,,,,,,,,,,,,,,,,,,,,,,,,,,,,1595.0417507998645,None,,,,,,,,,,,,,,,,,,,,,,,,,,,,,,,,,,,,,,,,,,,,,,,,,,,,,,,,,freedom,15,78,sing,old,yellow,1593.77217400074,None,y,1593.77217400074,None,"['y', 'return']","[0.8558344999328256, 1.231844799593091]",1593.77217400074,None,,,72NF,001,2023_May_05_0951,ExactRep-v3-final,2021.2.3,59.97077034511379,
,,,,,,,,,,,,78,0,78,0,,,,,,,,,,,,,,,,,,,,,,,,,,,,,,,,,,,,,,,,,,,,,,,,,1596.7935119001195,None,,,,,,,,,,,,,,,,,,,,,,,,,,,,,,,,,,,,,,,,,,,,,,,,,,,,,,,,,camp,131,79,silent,new,yellow,1595.5578967006877,None,n,1595.5578967006877,None,"['n', 'return']","[0.8541107997298241, 1.1901757000014186]",1595.5578967006877,None,,,72NF,001,2023_May_05_0951,ExactRep-v3-final,2021.2.3,59.97077034511379,
,,,,,,,,,,,,79,0,79,0,,,,,,,,,,,,,,,,,,,,,,,,,,,,,,,,,,,,,,,,,,,,,,,,,1598.611859000288,None,,,,,,,,,,,,,,,,,,,,,,,,,,,,,,,,,,,,,,,,,,,,,,,,,,,,,,,,,earth,79,80,sing,old,yellow,1597.307699000463,None,n,1597.307699000463,None,"['n', 'return']","[0.9523892998695374, 1.2642820999026299]",1597.307699000463,None,,,72NF,001,2023_May_05_0951,ExactRep-v3-final,2021.2.3,59.97077034511379,
,,,,,,,,,,,,80,0,80,0,,,,,,,,,,,,,,,,,,,,,,,,,,,,,,,,,,,,,,,,,,,,,,,,,1600.3637212999165,None,,,,,,,,,,,,,,,,,,,,,,,,,,,,,,,,,,,,,,,,,,,,,,,,,,,,,,,,,cattle,188,81,aloud,new,yellow,1599.1219076998532,None,y,1599.1219076998532,None,"['y', 'return']","[0.8422373998910189, 1.202233400195837]",1599.1219076998532,None,,,72NF,001,2023_May_05_0951,ExactRep-v3-final,2021.2.3,59.97077034511379,
,,,,,,,,,,,,81,0,81,0,,,,,,,,,,,,,,,,,,,,,,,,,,,,,,,,,,,,,,,,,,,,,,,,,1602.2825019005686,None,,,,,,,,,,,,,,,,,,,,,,,,,,,,,,,,,,,,,,,,,,,,,,,,,,,,,,,,,flag,232,82,aloud,new,yellow,1600.8744608005509,None,n,1600.8744608005509,None,"['n', 'return']","[1.0335871996358037, 1.3616970991715789]",1600.8744608005509,None,,,72NF,001,2023_May_05_0951,ExactRep-v3-final,2021.2.3,59.97077034511379,
,,,,,,,,,,,,82,0,82,0,,,,,,,,,,,,,,,,,,,,,,,,,,,,,,,,,,,,,,,,,,,,,,,,,1603.9673480000347,None,,,,,,,,,,,,,,,,,,,,,,,,,,,,,,,,,,,,,,,,,,,,,,,,,,,,,,,,,ship,4,83,sing,old,yellow,1602.791227100417,None,y,1602.791227100417,None,"['y', 'return']","[0.8048485005274415, 1.1327486000955105]",1602.791227100417,None,,,72NF,001,2023_May_05_0951,ExactRep-v3-final,2021.2.3,59.97077034511379,
,,,,,,,,,,,,83,0,83,0,,,,,,,,,,,,,,,,,,,,,,,,,,,,,,,,,,,,,,,,,,,,,,,,,1606.3697516005486,None,,,,,,,,,,,,,,,,,,,,,,,,,,,,,,,,,,,,,,,,,,,,,,,,,,,,,,,,,vessel,17,84,sing,old,yellow,1604.474883100018,None,y,1604.474883100018,None,"['y', 'return']","[1.5051751006394625, 1.8492926005274057]",1604.474883100018,None,,,72NF,001,2023_May_05_0951,ExactRep-v3-final,2021.2.3,59.97077034511379,
,,,,,,,,,,,,84,0,84,0,,,,,,,,,,,,,,,,,,,,,,,,,,,,,,,,,,,,,,,,,,,,,,,,,1608.5719494000077,None,,,,,,,,,,,,,,,,,,,,,,,,,,,,,,,,,,,,,,,,,,,,,,,,,,,,,,,,,glory,85,85,aloud,old,yellow,1606.8777375007048,None,y,1606.8777375007048,None,"['y', 'return']","[1.2945002997294068, 1.6465328000485897]",1606.8777375007048,None,,,72NF,001,2023_May_05_0951,ExactRep-v3-final,2021.2.3,59.97077034511379,
,,,,,,,,,,,,85,0,85,0,,,,,,,,,,,,,,,,,,,,,,,,,,,,,,,,,,,,,,,,,,,,,,,,,1610.2903391001746,None,,,,,,,,,,,,,,,,,,,,,,,,,,,,,,,,,,,,,,,,,,,,,,,,,,,,,,,,,memory,127,86,silent,new,yellow,1609.0824894001707,None,y,1609.0824894001707,None,"['y', 'return']","[0.8255656994879246, 1.169731599278748]",1609.0824894001707,None,,,72NF,001,2023_May_05_0951,ExactRep-v3-final,2021.2.3,59.97077034511379,
,,,,,,,,,,,,86,0,86,0,,,,,,,,,,,,,,,,,,,,,,,,,,,,,,,,,,,,,,,,,,,,,,,,,1613.1098249005154,None,,,,,,,,,,,,,,,,,,,,,,,,,,,,,,,,,,,,,,,,,,,,,,,,,,,,,,,,,flower,104,87,aloud,old,yellow,1610.8031607000157,None,y,1610.8031607000157,None,"['y', 'return']","[0.7770216995850205, 2.264954099431634]",1610.8031607000157,None,,,72NF,001,2023_May_05_0951,ExactRep-v3-final,2021.2.3,59.97077034511379,
,,,,,,,,,,,,87,0,87,0,,,,,,,,,,,,,,,,,,,,,,,,,,,,,,,,,,,,,,,,,,,,,,,,,1614.7948385998607,None,,,,,,,,,,,,,,,,,,,,,,,,,,,,,,,,,,,,,,,,,,,,,,,,,,,,,,,,,effort,0,88,sing,old,yellow,1613.6203665006906,None,y,1613.6203665006906,None,"['y', 'return']","[0.7756951004266739, 1.1357372999191284]",1613.6203665006906,None,,,72NF,001,2023_May_05_0951,ExactRep-v3-final,2021.2.3,59.97077034511379,
,,,,,,,,,,,,88,0,88,0,,,,,,,,,,,,,,,,,,,,,,,,,,,,,,,,,,,,,,,,,,,,,,,,,1617.197263800539,None,,,,,,,,,,,,,,,,,,,,,,,,,,,,,,,,,,,,,,,,,,,,,,,,,,,,,,,,,lake,186,89,aloud,new,yellow,1615.3044410999864,None,y,1615.3044410999864,None,"['y', 'return']","[1.4438546001911163, 1.859819800592959]",1615.3044410999864,None,,,72NF,001,2023_May_05_0951,ExactRep-v3-final,2021.2.3,59.97077034511379,
,,,,,,,,,,,,89,0,89,0,,,,,,,,,,,,,,,,,,,,,,,,,,,,,,,,,,,,,,,,,,,,,,,,,1619.2159274006262,None,,,,,,,,,,,,,,,,,,,,,,,,,,,,,,,,,,,,,,,,,,,,,,,,,,,,,,,,,tool,148,90,silent,new,yellow,1617.7053799005225,None,n,1617.7053799005225,None,"['n', 'return']","[1.0987353008240461, 1.4666554005816579]",1617.7053799005225,None,,,72NF,001,2023_May_05_0951,ExactRep-v3-final,2021.2.3,59.97077034511379,
,,,,,,,,,,,,90,0,90,0,,,,,,,,,,,,,,,,,,,,,,,,,,,,,,,,,,,,,,,,,,,,,,,,,1621.201516000554,None,,,,,,,,,,,,,,,,,,,,,,,,,,,,,,,,,,,,,,,,,,,,,,,,,,,,,,,,,life,196,91,aloud,new,yellow,1619.7353826006874,None,n,1619.7353826006874,None,"['n', 'return']","[0.9326545996591449, 1.428852199576795]",1619.7353826006874,None,,,72NF,001,2023_May_05_0951,ExactRep-v3-final,2021.2.3,59.97077034511379,
,,,,,,,,,,,,91,0,91,0,,,,,,,,,,,,,,,,,,,,,,,,,,,,,,,,,,,,,,,,,,,,,,,,,1623.0531095005572,None,,,,,,,,,,,,,,,,,,,,,,,,,,,,,,,,,,,,,,,,,,,,,,,,,,,,,,,,,bottle,129,92,silent,new,yellow,1621.7130601005629,None,y,1621.7130601005629,None,"['y', 'return']","[0.9711624998599291, 1.3071181001141667]",1621.7130601005629,None,,,72NF,001,2023_May_05_0951,ExactRep-v3-final,2021.2.3,59.97077034511379,
,,,,,,,,,,,,92,0,92,0,,,,,,,,,,,,,,,,,,,,,,,,,,,,,,,,,,,,,,,,,,,,,,,,,1624.8549215001985,None,,,,,,,,,,,,,,,,,,,,,,,,,,,,,,,,,,,,,,,,,,,,,,,,,,,,,,,,,deed,178,93,aloud,new,yellow,1623.564851500094,None,n,1623.564851500094,None,"['n', 'return']","[0.927369199693203, 1.2552456995472312]",1623.564851500094,None,,,72NF,001,2023_May_05_0951,ExactRep-v3-final,2021.2.3,59.97077034511379,
,,,,,,,,,,,,93,0,93,0,,,,,,,,,,,,,,,,,,,,,,,,,,,,,,,,,,,,,,,,,,,,,,,,,1627.4408395001665,None,,,,,,,,,,,,,,,,,,,,,,,,,,,,,,,,,,,,,,,,,,,,,,,,,,,,,,,,,blossom,180,94,aloud,new,yellow,1625.3633352005854,None,n,1625.3633352005854,None,"['n', 'return']","[1.4889123002067208, 2.032708900049329]",1625.3633352005854,None,,,72NF,001,2023_May_05_0951,ExactRep-v3-final,2021.2.3,59.97077034511379,
,,,,,,,,,,,,94,0,94,0,,,,,,,,,,,,,,,,,,,,,,,,,,,,,,,,,,,,,,,,,,,,,,,,,1629.142603000626,None,,,,,,,,,,,,,,,,,,,,,,,,,,,,,,,,,,,,,,,,,,,,,,,,,,,,,,,,,master,198,95,aloud,new,yellow,1627.9510527001694,None,n,1627.9510527001694,None,"['n', 'return']","[0.8370232004672289, 1.1570198005065322]",1627.9510527001694,None,,,72NF,001,2023_May_05_0951,ExactRep-v3-final,2021.2.3,59.97077034511379,
,,,,,,,,,,,,95,0,95,0,,,,,,,,,,,,,,,,,,,,,,,,,,,,,,,,,,,,,,,,,,,,,,,,,1631.0277329999954,None,,,,,,,,,,,,,,,,,,,,,,,,,,,,,,,,,,,,,,,,,,,,,,,,,,,,,,,,,woods,1,96,sing,old,yellow,1629.6496525006369,None,y,1629.6496525006369,None,"['y', 'return']","[0.9784962004050612, 1.3465833999216557]",1629.6496525006369,None,,,72NF,001,2023_May_05_0951,ExactRep-v3-final,2021.2.3,59.97077034511379,
,,,,,,,,,,,,96,0,96,0,,,,,,,,,,,,,,,,,,,,,,,,,,,,,,,,,,,,,,,,,,,,,,,,,1632.846316200681,None,,,,,,,,,,,,,,,,,,,,,,,,,,,,,,,,,,,,,,,,,,,,,,,,,,,,,,,,,science,146,97,silent,new,yellow,1631.5358418002725,None,n,1631.5358418002725,None,"['n', 'return']","[0.8921844996511936, 1.2682935995981097]",1631.5358418002725,None,,,72NF,001,2023_May_05_0951,ExactRep-v3-final,2021.2.3,59.97077034511379,
,,,,,,,,,,,,97,0,97,0,,,,,,,,,,,,,,,,,,,,,,,,,,,,,,,,,,,,,,,,,,,,,,,,,1634.5979919005185,None,,,,,,,,,,,,,,,,,,,,,,,,,,,,,,,,,,,,,,,,,,,,,,,,,,,,,,,,,letter,30,98,sing,old,yellow,1633.359890400432,None,y,1633.359890400432,None,"['y', 'return']","[0.8361953003332019, 1.1962360003963113]",1633.359890400432,None,,,72NF,001,2023_May_05_0951,ExactRep-v3-final,2021.2.3,59.97077034511379,
,,,,,,,,,,,,98,0,98,0,,,,,,,,,,,,,,,,,,,,,,,,,,,,,,,,,,,,,,,,,,,,,,,,,1636.29974110052,None,,,,,,,,,,,,,,,,,,,,,,,,,,,,,,,,,,,,,,,,,,,,,,,,,,,,,,,,,victory,112,99,aloud,old,yellow,1635.1063601002097,None,y,1635.1063601002097,None,"['y', 'return']","[0.8177752997726202, 1.161756300367415]",1635.1063601002097,None,,,72NF,001,2023_May_05_0951,ExactRep-v3-final,2021.2.3,59.97077034511379,
,,,,,,,,,,,,99,0,99,0,,,,,,,,,,,,,,,,,,,,,,,,,,,,,,,,,,,,,,,,,,,,,,,,,1638.0848232004791,None,,,,,,,,,,,,,,,,,,,,,,,,,,,,,,,,,,,,,,,,,,,,,,,,,,,,,,,,,amount,218,100,aloud,new,yellow,1636.8149832002819,None,n,1636.8149832002819,None,"['n', 'return']","[0.9011342003941536, 1.2291195997968316]",1636.8149832002819,None,,,72NF,001,2023_May_05_0951,ExactRep-v3-final,2021.2.3,59.97077034511379,
,,,,,,,,,,,,100,0,100,0,,,,,,,,,,,,,,,,,,,,,,,,,,,,,,,,,,,,,,,,,,,,,,,,,1639.9701637001708,None,,,,,,,,,,,,,,,,,,,,,,,,,,,,,,,,,,,,,,,,,,,,,,,,,,,,,,,,,square,34,101,sing,old,yellow,1638.5998015003279,None,y,1638.5998015003279,None,"['y', 'return']","[0.9802022008225322, 1.324158800765872]",1638.5998015003279,None,,,72NF,001,2023_May_05_0951,ExactRep-v3-final,2021.2.3,59.97077034511379,
,,,,,,,,,,,,101,0,101,0,,,,,,,,,,,,,,,,,,,,,,,,,,,,,,,,,,,,,,,,,,,,,,,,,1641.7718163998798,None,,,,,,,,,,,,,,,,,,,,,,,,,,,,,,,,,,,,,,,,,,,,,,,,,,,,,,,,,salary,216,102,aloud,new,yellow,1640.4779429007322,None,n,1640.4779429007322,None,"['n', 'return']","[0.9421383999288082, 1.2541750995442271]",1640.4779429007322,None,,,72NF,001,2023_May_05_0951,ExactRep-v3-final,2021.2.3,59.97077034511379,
,,,,,,,,,,,,102,0,102,0,,,,,,,,,,,,,,,,,,,,,,,,,,,,,,,,,,,,,,,,,,,,,,,,,1643.45684070047,None,,,,,,,,,,,,,,,,,,,,,,,,,,,,,,,,,,,,,,,,,,,,,,,,,,,,,,,,,speech,72,103,silent,old,yellow,1642.2799244001508,None,y,1642.2799244001508,None,"['y', 'return']","[0.7960722995921969, 1.132121899165213]",1642.2799244001508,None,,,72NF,001,2023_May_05_0951,ExactRep-v3-final,2021.2.3,59.97077034511379,
,,,,,,,,,,,,103,0,103,0,,,,,,,,,,,,,,,,,,,,,,,,,,,,,,,,,,,,,,,,,,,,,,,,,1645.0918885003775,None,,,,,,,,,,,,,,,,,,,,,,,,,,,,,,,,,,,,,,,,,,,,,,,,,,,,,,,,,artist,66,104,silent,old,yellow,1643.9648844003677,None,y,1643.9648844003677,None,"['y', 'return']","[0.751431000418961, 1.0872929003089666]",1643.9648844003677,None,,,72NF,001,2023_May_05_0951,ExactRep-v3-final,2021.2.3,59.97077034511379,
,,,,,,,,,,,,104,0,104,0,,,,,,,,,,,,,,,,,,,,,,,,,,,,,,,,,,,,,,,,,,,,,,,,,1646.6934104999527,None,,,,,,,,,,,,,,,,,,,,,,,,,,,,,,,,,,,,,,,,,,,,,,,,,,,,,,,,,product,185,105,sing,new,yellow,1645.601859900169,None,y,1645.601859900169,None,"['y', 'return']","[0.7222126005217433, 1.0582598000764847]",1645.601859900169,None,,,72NF,001,2023_May_05_0951,ExactRep-v3-final,2021.2.3,59.97077034511379,
,,,,,,,,,,,,105,0,105,0,,,,,,,,,,,,,,,,,,,,,,,,,,,,,,,,,,,,,,,,,,,,,,,,,1649.195921599865,None,,,,,,,,,,,,,,,,,,,,,,,,,,,,,,,,,,,,,,,,,,,,,,,,,,,,,,,,,bowl,64,106,silent,old,yellow,1647.204421600327,None,y,1647.204421600327,None,"['y', 'return']","[1.6559513993561268, 1.959741000086069]",1647.204421600327,None,,,72NF,001,2023_May_05_0951,ExactRep-v3-final,2021.2.3,59.97077034511379,
,,,,,,,,,,,,106,0,106,0,,,,,,,,,,,,,,,,,,,,,,,,,,,,,,,,,,,,,,,,,,,,,,,,,1650.8642923003063,None,,,,,,,,,,,,,,,,,,,,,,,,,,,,,,,,,,,,,,,,,,,,,,,,,,,,,,,,,village,118,107,aloud,old,yellow,1649.7051039002836,None,y,1649.7051039002836,None,"['y', 'return']","[0.7390304999426007, 1.1149645000696182]",1649.7051039002836,None,,,72NF,001,2023_May_05_0951,ExactRep-v3-final,2021.2.3,59.97077034511379,
,,,,,,,,,,,,107,0,107,0,,,,,,,,,,,,,,,,,,,,,,,,,,,,,,,,,,,,,,,,,,,,,,,,,1652.6160160005093,None,,,,,,,,,,,,,,,,,,,,,,,,,,,,,,,,,,,,,,,,,,,,,,,,,,,,,,,,,stone,53,108,silent,old,yellow,1651.377460599877,None,n,1651.377460599877,None,"['n', 'return']","[0.8906283993273973, 1.1946088997647166]",1651.377460599877,None,,,72NF,001,2023_May_05_0951,ExactRep-v3-final,2021.2.3,59.97077034511379,
,,,,,,,,,,,,108,0,108,0,,,,,,,,,,,,,,,,,,,,,,,,,,,,,,,,,,,,,,,,,,,,,,,,,1654.6848129006103,None,,,,,,,,,,,,,,,,,,,,,,,,,,,,,,,,,,,,,,,,,,,,,,,,,,,,,,,,,disease,141,109,silent,new,yellow,1653.1202199002728,None,n,1653.1202199002728,None,"['n', 'return']","[1.2279386995360255, 1.5318783996626735]",1653.1202199002728,None,,,72NF,001,2023_May_05_0951,ExactRep-v3-final,2021.2.3,59.97077034511379,
,,,,,,,,,,,,109,0,109,0,,,,,,,,,,,,,,,,,,,,,,,,,,,,,,,,,,,,,,,,,,,,,,,,,1656.4384177001193,None,,,,,,,,,,,,,,,,,,,,,,,,,,,,,,,,,,,,,,,,,,,,,,,,,,,,,,,,,history,160,110,aloud,new,yellow,1655.1974424999207,None,y,1655.1974424999207,None,"['y', 'return']","[0.8706637006253004, 1.1987343998625875]",1655.1974424999207,None,,,72NF,001,2023_May_05_0951,ExactRep-v3-final,2021.2.3,59.97077034511379,
,,,,,,,,,,,,110,0,110,0,,,,,,,,,,,,,,,,,,,,,,,,,,,,,,,,,,,,,,,,,,,,,,,,,1658.121517200023,None,,,,,,,,,,,,,,,,,,,,,,,,,,,,,,,,,,,,,,,,,,,,,,,,,,,,,,,,,shore,10,111,sing,old,yellow,1656.9658391000703,None,n,1656.9658391000703,None,"['n', 'return']","[0.7903677001595497, 1.1182587007060647]",1656.9658391000703,None,,,72NF,001,2023_May_05_0951,ExactRep-v3-final,2021.2.3,59.97077034511379,
,,,,,,,,,,,,111,0,111,0,,,,,,,,,,,,,,,,,,,,,,,,,,,,,,,,,,,,,,,,,,,,,,,,,1659.906637900509,None,,,,,,,,,,,,,,,,,,,,,,,,,,,,,,,,,,,,,,,,,,,,,,,,,,,,,,,,,law,137,112,silent,new,yellow,1658.6283037001267,None,y,1658.6283037001267,None,"['y', 'return']","[0.903855400159955, 1.2398895006626844]",1658.6283037001267,None,,,72NF,001,2023_May_05_0951,ExactRep-v3-final,2021.2.3,59.97077034511379,
,,,,,,,,,,,,112,0,112,0,,,,,,,,,,,,,,,,,,,,,,,,,,,,,,,,,,,,,,,,,,,,,,,,,1661.65838740021,None,,,,,,,,,,,,,,,,,,,,,,,,,,,,,,,,,,,,,,,,,,,,,,,,,,,,,,,,,mercy,74,113,silent,old,yellow,1660.4150993004441,None,y,1660.4150993004441,None,"['y', 'return']","[0.8210287000983953, 1.2050075996667147]",1660.4150993004441,None,,,72NF,001,2023_May_05_0951,ExactRep-v3-final,2021.2.3,59.97077034511379,
,,,,,,,,,,,,113,0,113,0,,,,,,,,,,,,,,,,,,,,,,,,,,,,,,,,,,,,,,,,,,,,,,,,,1663.3268702002242,None,,,,,,,,,,,,,,,,,,,,,,,,,,,,,,,,,,,,,,,,,,,,,,,,,,,,,,,,,temple,54,114,silent,old,yellow,1662.1702101007104,None,y,1662.1702101007104,None,"['y', 'return']","[0.7862045001238585, 1.1219875002279878]",1662.1702101007104,None,,,72NF,001,2023_May_05_0951,ExactRep-v3-final,2021.2.3,59.97077034511379,
,,,,,,,,,,,,114,0,114,0,,,,,,,,,,,,,,,,,,,,,,,,,,,,,,,,,,,,,,,,,,,,,,,,,1665.5289197005332,None,,,,,,,,,,,,,,,,,,,,,,,,,,,,,,,,,,,,,,,,,,,,,,,,,,,,,,,,,trouble,22,115,sing,old,yellow,1663.8369692005217,None,n,1663.8369692005217,None,"['n', 'return']","[1.239237000234425, 1.6472163004800677]",1663.8369692005217,None,,,72NF,001,2023_May_05_0951,ExactRep-v3-final,2021.2.3,59.97077034511379,
,,,,,,,,,,,,115,0,115,0,,,,,,,,,,,,,,,,,,,,,,,,,,,,,,,,,,,,,,,,,,,,,,,,,1667.2973623005673,None,,,,,,,,,,,,,,,,,,,,,,,,,,,,,,,,,,,,,,,,,,,,,,,,,,,,,,,,,fire,50,116,silent,old,yellow,1666.0412483001128,None,n,1666.0412483001128,None,"['n', 'return']","[0.9068855000659823, 1.2108339006081223]",1666.0412483001128,None,,,72NF,001,2023_May_05_0951,ExactRep-v3-final,2021.2.3,59.97077034511379,
,,,,,,,,,,,,116,0,116,0,,,,,,,,,,,,,,,,,,,,,,,,,,,,,,,,,,,,,,,,,,,,,,,,,1669.1325315004215,None,,,,,,,,,,,,,,,,,,,,,,,,,,,,,,,,,,,,,,,,,,,,,,,,,,,,,,,,,friend,3,117,sing,old,yellow,1667.8015048000962,None,y,1667.8015048000962,None,"['y', 'return']","[0.9386413004249334, 1.2826966000720859]",1667.8015048000962,None,,,72NF,001,2023_May_05_0951,ExactRep-v3-final,2021.2.3,59.97077034511379,
,,,,,,,,,,,,117,0,117,0,,,,,,,,,,,,,,,,,,,,,,,,,,,,,,,,,,,,,,,,,,,,,,,,,1670.7842134004459,None,,,,,,,,,,,,,,,,,,,,,,,,,,,,,,,,,,,,,,,,,,,,,,,,,,,,,,,,,grass,132,118,silent,new,yellow,1669.6419812999666,None,n,1669.6419812999666,None,"['n', 'return']","[0.7782449005171657, 1.0981256999075413]",1669.6419812999666,None,,,72NF,001,2023_May_05_0951,ExactRep-v3-final,2021.2.3,59.97077034511379,
,,,,,,,,,,,,118,0,118,0,,,,,,,,,,,,,,,,,,,,,,,,,,,,,,,,,,,,,,,,,,,,,,,,,1672.5861274003983,None,,,,,,,,,,,,,,,,,,,,,,,,,,,,,,,,,,,,,,,,,,,,,,,,,,,,,,,,,safety,121,119,silent,new,yellow,1671.2974551999941,None,n,1671.2974551999941,None,"['n', 'return']","[0.9227387001737952, 1.250795199535787]",1671.2974551999941,None,,,72NF,001,2023_May_05_0951,ExactRep-v3-final,2021.2.3,59.97077034511379,
,,,,,,,,,,,,119,0,119,0,,,,,,,,,,,,,,,,,,,,,,,,,,,,,,,,,,,,,,,,,,,,,,,,,1674.3880008999258,None,,,,,,,,,,,,,,,,,,,,,,,,,,,,,,,,,,,,,,,,,,,,,,,,,,,,,,,,,power,65,120,silent,old,yellow,1673.0909481998533,None,y,1673.0909481998533,None,"['y', 'return']","[0.9291679002344608, 1.2572165997698903]",1673.0909481998533,None,,,72NF,001,2023_May_05_0951,ExactRep-v3-final,2021.2.3,59.97077034511379,
,,,,,,,,,,,,120,0,120,0,,,,,,,,,,,,,,,,,,,,,,,,,,,,,,,,,,,,,,,,,,,,,,,,,1676.022758600302,None,,,,,,,,,,,,,,,,,,,,,,,,,,,,,,,,,,,,,,,,,,,,,,,,,,,,,,,,,owner,122,121,silent,new,yellow,1674.8975173998624,None,n,1674.8975173998624,None,"['n', 'return']","[0.7626862991601229, 1.0826131999492645]",1674.8975173998624,None,,,72NF,001,2023_May_05_0951,ExactRep-v3-final,2021.2.3,59.97077034511379,
,,,,,,,,,,,,121,0,121,0,,,,,,,,,,,,,,,,,,,,,,,,,,,,,,,,,,,,,,,,,,,,,,,,,1677.9414993999526,None,,,,,,,,,,,,,,,,,,,,,,,,,,,,,,,,,,,,,,,,,,,,,,,,,,,,,,,,,grief,167,122,sing,new,yellow,1676.5316614005715,None,n,1676.5316614005715,None,"['n', 'return']","[1.0885600997135043, 1.3765356997027993]",1676.5316614005715,None,,,72NF,001,2023_May_05_0951,ExactRep-v3-final,2021.2.3,59.97077034511379,
,,,,,,,,,,,,122,0,122,0,,,,,,,,,,,,,,,,,,,,,,,,,,,,,,,,,,,,,,,,,,,,,,,,,1679.5596965001896,None,,,,,,,,,,,,,,,,,,,,,,,,,,,,,,,,,,,,,,,,,,,,,,,,,,,,,,,,,boulder,114,123,aloud,old,yellow,1678.4524387000129,None,y,1678.4524387000129,None,"['y', 'return']","[0.743640000000596, 1.0636326000094414]",1678.4524387000129,None,,,72NF,001,2023_May_05_0951,ExactRep-v3-final,2021.2.3,59.97077034511379,
,,,,,,,,,,,,123,0,123,0,,,,,,,,,,,,,,,,,,,,,,,,,,,,,,,,,,,,,,,,,,,,,,,,,1681.1951034003869,None,,,,,,,,,,,,,,,,,,,,,,,,,,,,,,,,,,,,,,,,,,,,,,,,,,,,,,,,,party,200,124,aloud,new,yellow,1680.0761521998793,None,n,1680.0761521998793,None,"['n', 'return']","[0.7519808001816273, 1.0800681002438068]",1680.0761521998793,None,,,72NF,001,2023_May_05_0951,ExactRep-v3-final,2021.2.3,59.97077034511379,
,,,,,,,,,,,,124,0,124,0,,,,,,,,,,,,,,,,,,,,,,,,,,,,,,,,,,,,,,,,,,,,,,,,,1683.4136564005166,None,,,,,,,,,,,,,,,,,,,,,,,,,,,,,,,,,,,,,,,,,,,,,,,,,,,,,,,,,teacher,14,125,sing,old,yellow,1681.7057926999405,None,n,1681.7057926999405,None,"['n', 'return']","[1.3543188003823161, 1.6663311999291182]",1681.7057926999405,None,,,72NF,001,2023_May_05_0951,ExactRep-v3-final,2021.2.3,59.97077034511379,
,,,,,,,,,,,,125,0,125,0,,,,,,,,,,,,,,,,,,,,,,,,,,,,,,,,,,,,,,,,,,,,,,,,,1684.9162635002285,None,,,,,,,,,,,,,,,,,,,,,,,,,,,,,,,,,,,,,,,,,,,,,,,,,,,,,,,,,charm,135,126,silent,new,yellow,1683.9262492004782,None,n,1683.9262492004782,None,"['n', 'return']","[0.6539414003491402, 0.94198780041188]",1683.9262492004782,None,,,72NF,001,2023_May_05_0951,ExactRep-v3-final,2021.2.3,59.97077034511379,
,,,,,,,,,,,,126,0,126,0,,,,,,,,,,,,,,,,,,,,,,,,,,,,,,,,,,,,,,,,,,,,,,,,,1686.5833111004904,None,,,,,,,,,,,,,,,,,,,,,,,,,,,,,,,,,,,,,,,,,,,,,,,,,,,,,,,,,fact,52,127,silent,old,yellow,1685.426281400025,None,y,1685.426281400025,None,"['y', 'return']","[0.7217589002102613, 1.1138738002628088]",1685.426281400025,None,,,72NF,001,2023_May_05_0951,ExactRep-v3-final,2021.2.3,59.97077034511379,
,,,,,,,,,,,,127,0,127,0,,,,,,,,,,,,,,,,,,,,,,,,,,,,,,,,,,,,,,,,,,,,,,,,,1688.2683601006866,None,,,,,,,,,,,,,,,,,,,,,,,,,,,,,,,,,,,,,,,,,,,,,,,,,,,,,,,,,skin,9,128,sing,old,yellow,1687.094552100636,None,y,1687.094552100636,None,"['y', 'return']","[0.805511400103569, 1.13371179997921]",1687.094552100636,None,,,72NF,001,2023_May_05_0951,ExactRep-v3-final,2021.2.3,59.97077034511379,
,,,,,,,,,,,,128,0,128,0,,,,,,,,,,,,,,,,,,,,,,,,,,,,,,,,,,,,,,,,,,,,,,,,,1689.9034889005125,None,,,,,,,,,,,,,,,,,,,,,,,,,,,,,,,,,,,,,,,,,,,,,,,,,,,,,,,,,string,219,129,sing,new,yellow,1688.7764277001843,None,n,1688.7764277001843,None,"['n', 'return']","[0.7477562995627522, 1.083696799352765]",1688.7764277001843,None,,,72NF,001,2023_May_05_0951,ExactRep-v3-final,2021.2.3,59.97077034511379,
,,,,,,,,,,,,129,0,129,0,,,,,,,,,,,,,,,,,,,,,,,,,,,,,,,,,,,,,,,,,,,,,,,,,1691.671666400507,None,,,,,,,,,,,,,,,,,,,,,,,,,,,,,,,,,,,,,,,,,,,,,,,,,,,,,,,,,river,75,130,silent,old,yellow,1690.4117531999946,None,y,1690.4117531999946,None,"['y', 'return']","[0.9124748995527625, 1.2246171003207564]",1690.4117531999946,None,,,72NF,001,2023_May_05_0951,ExactRep-v3-final,2021.2.3,59.97077034511379,
