trials_fam.thisRepN,trials_fam.thisTrialN,trials_fam.thisN,trials_fam.thisIndex,trials_prc.thisRepN,trials_prc.thisTrialN,trials_prc.thisN,trials_prc.thisIndex,StudyLoop.thisRepN,StudyLoop.thisTrialN,StudyLoop.thisN,StudyLoop.thisIndex,TestLoop.thisRepN,TestLoop.thisTrialN,TestLoop.thisN,TestLoop.thisIndex,text_colortest.started,text_colortest.stopped,key_colortest.keys,key_colortest.rt,key_colortest.started,key_colortest.stopped,textCondition.started,textCondition.stopped,keyCondition.keys,keyCondition.rt,keyCondition.started,keyCondition.stopped,Condition_between,Condition_counterbal,keyWelcome.keys,keyWelcome.rt,keyWelcome.started,keyWelcome.stopped,welcome_a.started,welcome_a.stopped,welcome_b.started,welcome_b.stopped,welcome_c.started,welcome_c.stopped,welcome_d.started,welcome_d.stopped,welcome_e.started,welcome_e.stopped,welcome_f.started,welcome_f.stopped,key_resp_fam_inst.keys,key_resp_fam_inst.rt,key_resp_fam_inst.started,key_resp_fam_inst.stopped,fam_a.started,fam_a.stopped,fam_b.started,fam_b.stopped,fam_c.started,fam_c.stopped,fam_d.started,fam_d.stopped,fam_e.started,fam_e.stopped,fam_f.started,fam_f.stopped,text_famil.started,text_famil.stopped,textBlank500.started,textBlank500.stopped,key_resp_prc_inst.keys,key_resp_prc_inst.rt,key_resp_prc_inst.started,key_resp_prc_inst.stopped,prac_a.started,prac_a.stopped,prac_b.started,prac_b.stopped,prac_c.started,prac_c.stopped,prac_d.started,prac_d.stopped,prac_e.started,prac_e.stopped,prac_f.started,prac_f.stopped,text_prc_trial.started,text_prc_trial.stopped,key_resp_study_inst.keys,key_resp_study_inst.rt,key_resp_study_inst.started,key_resp_study_inst.stopped,crit_a.started,crit_a.stopped,crit_b.started,crit_b.stopped,crit_c.started,crit_c.stopped,crit_d.started,crit_d.stopped,crit_e.started,crit_e.stopped,crit_f.started,crit_f.stopped,study_word,study_num,study_order,study_type,word_color,textStudy.started,textStudy.stopped,keyStudy.keys,keyStudy.started,keyStudy.stopped,post_study.started,post_study.stopped,key_resp_post_study.keys,key_resp_post_study.rt,key_resp_post_study.started,key_resp_post_study.stopped,test_inst.started,test_inst.stopped,key_resp_test_inst.keys,key_resp_test_inst.rt,key_resp_test_inst.started,key_resp_test_inst.stopped,test_word,test_num,test_order,test_condition,old_new_test,word_color_test,textConf.started,textConf.stopped,Participant Response,textInput.started,textInput.stopped,keyResp.keys,keyResp.rt,keyResp.started,keyResp.stopped,textEnd.started,textEnd.stopped,participant,session,date,expName,psychopyVersion,frameRate,
,,,,,,,,,,,,,,,,17.03140030056238,None,y,1.3534367000684142,17.03140030056238,None,,,,,,,,,,,,,,,,,,,,,,,,,,,,,,,,,,,,,,,,,,,,,,,,,,,,,,,,,,,,,,,,,,,,,,,,,,,,,,,,,,,,,,,,,,,,,,,,,,,,,,,,,,,,,,,,,,,,,,73YA,001,2023_May_05_1023,ExactRep-v3-final,2021.2.3,60.08903967962311,
,,,,,,,,,,,,,,,,,,,,,,18.403744600713253,None,a,0.36524289939552546,18.403744600713253,None,,,,,,,,,,,,,,,,,,,,,,,,,,,,,,,,,,,,,,,,,,,,,,,,,,,,,,,,,,,,,,,,,,,,,,,,,,,,,,,,,,,,,,,,,,,,,,,,,,,,,,,,,,,,,,,,73YA,001,2023_May_05_1023,ExactRep-v3-final,2021.2.3,60.08903967962311,
,,,,,,,,,,,,,,,,,,,,,,,,,,,,colorfoils,a,space,360.53018589969724,28.88668330013752,None,,,,,,,,,,,,,,,,,,,,,,,,,,,,,,,,,,,,,,,,,,,,,,,,,,,,,,,,,,,,,,,,,,,,,,,,,,,,,,,,,,,,,,,,,,,,,,,,,,,,,,,,,,73YA,001,2023_May_05_1023,ExactRep-v3-final,2021.2.3,60.08903967962311,
,,,,,,,,,,,,,,,,,,,,,,,,,,,,,,,,,,18.94124890025705,None,18.94124890025705,None,18.94124890025705,None,18.94124890025705,None,18.94124890025705,None,18.94124890025705,None,space,13.524515999481082,399.5804944001138,None,,,,,,,,,,,,,,,,,,,,,,,,,,,,,,,,,,,,,,,,,,,,,,,,,,,,,,,,,,,,,,,,,,,,,,,,,,,,,,,,,,,,,,,,,,73YA,001,2023_May_05_1023,ExactRep-v3-final,2021.2.3,60.08903967962311,
0,0,0,0,,,,,,,,,,,,,,,,,,,,,,,,,,,,,,,,,,,,,,,,,,,,,,,389.6043050000444,None,389.6043050000444,None,389.6043050000444,None,389.6043050000444,None,389.6043050000444,None,389.6043050000444,None,413.2114627007395,None,415.2170510003343,None,,,,,,,,,,,,,,,,,,,,,,,,,,,,,,,,,,,,,,,,,,,,,,,,,,,,,,,,,,,,,,,,,,,,,,,,,,73YA,001,2023_May_05_1023,ExactRep-v3-final,2021.2.3,60.08903967962311,
1,0,1,0,,,,,,,,,,,,,,,,,,,,,,,,,,,,,,,,,,,,,,,,,,,,,,,,,,,,,,,,,,,415.7177763003856,None,417.71943300031126,None,,,,,,,,,,,,,,,,,,,,,,,,,,,,,,,,,,,,,,,,,,,,,,,,,,,,,,,,,,,,,,,,,,,,,,,,,,73YA,001,2023_May_05_1023,ExactRep-v3-final,2021.2.3,60.08903967962311,
2,0,2,0,,,,,,,,,,,,,,,,,,,,,,,,,,,,,,,,,,,,,,,,,,,,,,,,,,,,,,,,,,,418.2352470001206,None,420.23916900064796,None,,,,,,,,,,,,,,,,,,,,,,,,,,,,,,,,,,,,,,,,,,,,,,,,,,,,,,,,,,,,,,,,,,,,,,,,,,73YA,001,2023_May_05_1023,ExactRep-v3-final,2021.2.3,60.08903967962311,
3,0,3,0,,,,,,,,,,,,,,,,,,,,,,,,,,,,,,,,,,,,,,,,,,,,,,,,,,,,,,,,,,,420.7432506000623,None,422.75801240000874,None,,,,,,,,,,,,,,,,,,,,,,,,,,,,,,,,,,,,,,,,,,,,,,,,,,,,,,,,,,,,,,,,,,,,,,,,,,73YA,001,2023_May_05_1023,ExactRep-v3-final,2021.2.3,60.08903967962311,
4,0,4,0,,,,,,,,,,,,,,,,,,,,,,,,,,,,,,,,,,,,,,,,,,,,,,,,,,,,,,,,,,,423.2421280005947,None,425.2436137003824,None,,,,,,,,,,,,,,,,,,,,,,,,,,,,,,,,,,,,,,,,,,,,,,,,,,,,,,,,,,,,,,,,,,,,,,,,,,73YA,001,2023_May_05_1023,ExactRep-v3-final,2021.2.3,60.08903967962311,
5,0,5,0,,,,,,,,,,,,,,,,,,,,,,,,,,,,,,,,,,,,,,,,,,,,,,,,,,,,,,,,,,,425.74433890078217,None,427.7462963005528,None,,,,,,,,,,,,,,,,,,,,,,,,,,,,,,,,,,,,,,,,,,,,,,,,,,,,,,,,,,,,,,,,,,,,,,,,,,73YA,001,2023_May_05_1023,ExactRep-v3-final,2021.2.3,60.08903967962311,
6,0,6,0,,,,,,,,,,,,,,,,,,,,,,,,,,,,,,,,,,,,,,,,,,,,,,,,,,,,,,,,,,,428.2526392005384,None,430.26585480012,None,,,,,,,,,,,,,,,,,,,,,,,,,,,,,,,,,,,,,,,,,,,,,,,,,,,,,,,,,,,,,,,,,,,,,,,,,,73YA,001,2023_May_05_1023,ExactRep-v3-final,2021.2.3,60.08903967962311,
7,0,7,0,,,,,,,,,,,,,,,,,,,,,,,,,,,,,,,,,,,,,,,,,,,,,,,,,,,,,,,,,,,430.76588600035757,None,432.7679839003831,None,,,,,,,,,,,,,,,,,,,,,,,,,,,,,,,,,,,,,,,,,,,,,,,,,,,,,,,,,,,,,,,,,,,,,,,,,,73YA,001,2023_May_05_1023,ExactRep-v3-final,2021.2.3,60.08903967962311,
8,0,8,0,,,,,,,,,,,,,,,,,,,,,,,,,,,,,,,,,,,,,,,,,,,,,,,,,,,,,,,,,,,433.2696427004412,None,435.27033460047096,None,,,,,,,,,,,,,,,,,,,,,,,,,,,,,,,,,,,,,,,,,,,,,,,,,,,,,,,,,,,,,,,,,,,,,,,,,,73YA,001,2023_May_05_1023,ExactRep-v3-final,2021.2.3,60.08903967962311,
9,0,9,0,,,,,,,,,,,,,,,,,,,,,,,,,,,,,,,,,,,,,,,,,,,,,,,,,,,,,,,,,,,435.7709846002981,None,437.77312300074846,None,,,,,,,,,,,,,,,,,,,,,,,,,,,,,,,,,,,,,,,,,,,,,,,,,,,,,,,,,,,,,,,,,,,,,,,,,,73YA,001,2023_May_05_1023,ExactRep-v3-final,2021.2.3,60.08903967962311,
10,0,10,0,,,,,,,,,,,,,,,,,,,,,,,,,,,,,,,,,,,,,,,,,,,,,,,,,,,,,,,,,,,438.2756489003077,None,440.27567910030484,None,,,,,,,,,,,,,,,,,,,,,,,,,,,,,,,,,,,,,,,,,,,,,,,,,,,,,,,,,,,,,,,,,,,,,,,,,,73YA,001,2023_May_05_1023,ExactRep-v3-final,2021.2.3,60.08903967962311,
11,0,11,0,,,,,,,,,,,,,,,,,,,,,,,,,,,,,,,,,,,,,,,,,,,,,,,,,,,,,,,,,,,440.77985280007124,None,442.7948743002489,None,,,,,,,,,,,,,,,,,,,,,,,,,,,,,,,,,,,,,,,,,,,,,,,,,,,,,,,,,,,,,,,,,,,,,,,,,,73YA,001,2023_May_05_1023,ExactRep-v3-final,2021.2.3,60.08903967962311,
12,0,12,0,,,,,,,,,,,,,,,,,,,,,,,,,,,,,,,,,,,,,,,,,,,,,,,,,,,,,,,,,,,443.2953542005271,None,445.2973843002692,None,,,,,,,,,,,,,,,,,,,,,,,,,,,,,,,,,,,,,,,,,,,,,,,,,,,,,,,,,,,,,,,,,,,,,,,,,,73YA,001,2023_May_05_1023,ExactRep-v3-final,2021.2.3,60.08903967962311,
13,0,13,0,,,,,,,,,,,,,,,,,,,,,,,,,,,,,,,,,,,,,,,,,,,,,,,,,,,,,,,,,,,445.80583350080997,None,447.816564200446,None,,,,,,,,,,,,,,,,,,,,,,,,,,,,,,,,,,,,,,,,,,,,,,,,,,,,,,,,,,,,,,,,,,,,,,,,,,73YA,001,2023_May_05_1023,ExactRep-v3-final,2021.2.3,60.08903967962311,
14,0,14,0,,,,,,,,,,,,,,,,,,,,,,,,,,,,,,,,,,,,,,,,,,,,,,,,,,,,,,,,,,,448.31709420029074,None,450.31900840066373,None,,,,,,,,,,,,,,,,,,,,,,,,,,,,,,,,,,,,,,,,,,,,,,,,,,,,,,,,,,,,,,,,,,,,,,,,,,73YA,001,2023_May_05_1023,ExactRep-v3-final,2021.2.3,60.08903967962311,
,,,,,,,,,,,,,,,,,,,,,,,,,,,,,,,,,,,,,,,,,,,,,,,,,,,,,,,,,,,,,,,,,,space,11.724738399498165,460.9002582002431,None,,,,,,,,,,,,,,,,,,,,,,,,,,,,,,,,,,,,,,,,,,,,,,,,,,,,,,,,,,,,,,,,,,,,,,73YA,001,2023_May_05_1023,ExactRep-v3-final,2021.2.3,60.08903967962311,
,,,,0,0,0,0,,,,,,,,,,,,,,,,,,,,,,,,,,,,,,,,,,,,,,,,,,,,,,,,,,,,,,,,,474.7269172007218,None,,,,,450.94818180054426,None,450.94818180054426,None,450.94818180054426,None,450.94818180054426,None,450.94818180054426,None,450.94818180054426,None,472.72533630020916,None,,,,,,,,,,,,,,,,,,,,,,,,,,,,,,,,,,,,,,,,,,,,,,,,,,,,,,,,73YA,001,2023_May_05_1023,ExactRep-v3-final,2021.2.3,60.08903967962311,
,,,,1,0,1,0,,,,,,,,,,,,,,,,,,,,,,,,,,,,,,,,,,,,,,,,,,,,,,,,,,,,,,,,,477.2290867008269,None,,,,,,,,,,,,,,,,,475.2273054001853,None,,,,,,,,,,,,,,,,,,,,,,,,,,,,,,,,,,,,,,,,,,,,,,,,,,,,,,,,73YA,001,2023_May_05_1023,ExactRep-v3-final,2021.2.3,60.08903967962311,
,,,,2,0,2,0,,,,,,,,,,,,,,,,,,,,,,,,,,,,,,,,,,,,,,,,,,,,,,,,,,,,,,,,,479.73172500077635,None,,,,,,,,,,,,,,,,,477.72994530014694,None,,,,,,,,,,,,,,,,,,,,,,,,,,,,,,,,,,,,,,,,,,,,,,,,,,,,,,,,73YA,001,2023_May_05_1023,ExactRep-v3-final,2021.2.3,60.08903967962311,
,,,,3,0,3,0,,,,,,,,,,,,,,,,,,,,,,,,,,,,,,,,,,,,,,,,,,,,,,,,,,,,,,,,,482.234287600033,None,,,,,,,,,,,,,,,,,480.2324188007042,None,,,,,,,,,,,,,,,,,,,,,,,,,,,,,,,,,,,,,,,,,,,,,,,,,,,,,,,,73YA,001,2023_May_05_1023,ExactRep-v3-final,2021.2.3,60.08903967962311,
,,,,4,0,4,0,,,,,,,,,,,,,,,,,,,,,,,,,,,,,,,,,,,,,,,,,,,,,,,,,,,,,,,,,484.73658400028944,None,,,,,,,,,,,,,,,,,482.73477510083467,None,,,,,,,,,,,,,,,,,,,,,,,,,,,,,,,,,,,,,,,,,,,,,,,,,,,,,,,,73YA,001,2023_May_05_1023,ExactRep-v3-final,2021.2.3,60.08903967962311,
,,,,5,0,5,0,,,,,,,,,,,,,,,,,,,,,,,,,,,,,,,,,,,,,,,,,,,,,,,,,,,,,,,,,487.2393166003749,None,,,,,,,,,,,,,,,,,485.2372992001474,None,,,,,,,,,,,,,,,,,,,,,,,,,,,,,,,,,,,,,,,,,,,,,,,,,,,,,,,,73YA,001,2023_May_05_1023,ExactRep-v3-final,2021.2.3,60.08903967962311,
,,,,6,0,6,0,,,,,,,,,,,,,,,,,,,,,,,,,,,,,,,,,,,,,,,,,,,,,,,,,,,,,,,,,489.74176570028067,None,,,,,,,,,,,,,,,,,487.7396138003096,None,,,,,,,,,,,,,,,,,,,,,,,,,,,,,,,,,,,,,,,,,,,,,,,,,,,,,,,,73YA,001,2023_May_05_1023,ExactRep-v3-final,2021.2.3,60.08903967962311,
,,,,7,0,7,0,,,,,,,,,,,,,,,,,,,,,,,,,,,,,,,,,,,,,,,,,,,,,,,,,,,,,,,,,492.2442150004208,None,,,,,,,,,,,,,,,,,490.2420959006995,None,,,,,,,,,,,,,,,,,,,,,,,,,,,,,,,,,,,,,,,,,,,,,,,,,,,,,,,,73YA,001,2023_May_05_1023,ExactRep-v3-final,2021.2.3,60.08903967962311,
,,,,8,0,8,0,,,,,,,,,,,,,,,,,,,,,,,,,,,,,,,,,,,,,,,,,,,,,,,,,,,,,,,,,494.74667600076646,None,,,,,,,,,,,,,,,,,492.7448655003682,None,,,,,,,,,,,,,,,,,,,,,,,,,,,,,,,,,,,,,,,,,,,,,,,,,,,,,,,,73YA,001,2023_May_05_1023,ExactRep-v3-final,2021.2.3,60.08903967962311,
,,,,9,0,9,0,,,,,,,,,,,,,,,,,,,,,,,,,,,,,,,,,,,,,,,,,,,,,,,,,,,,,,,,,497.24929490033537,None,,,,,,,,,,,,,,,,,495.24733450077474,None,,,,,,,,,,,,,,,,,,,,,,,,,,,,,,,,,,,,,,,,,,,,,,,,,,,,,,,,73YA,001,2023_May_05_1023,ExactRep-v3-final,2021.2.3,60.08903967962311,
,,,,10,0,10,0,,,,,,,,,,,,,,,,,,,,,,,,,,,,,,,,,,,,,,,,,,,,,,,,,,,,,,,,,499.7515485007316,None,,,,,,,,,,,,,,,,,497.74981910083443,None,,,,,,,,,,,,,,,,,,,,,,,,,,,,,,,,,,,,,,,,,,,,,,,,,,,,,,,,73YA,001,2023_May_05_1023,ExactRep-v3-final,2021.2.3,60.08903967962311,
,,,,11,0,11,0,,,,,,,,,,,,,,,,,,,,,,,,,,,,,,,,,,,,,,,,,,,,,,,,,,,,,,,,,502.25434980075806,None,,,,,,,,,,,,,,,,,500.2521082004532,None,,,,,,,,,,,,,,,,,,,,,,,,,,,,,,,,,,,,,,,,,,,,,,,,,,,,,,,,73YA,001,2023_May_05_1023,ExactRep-v3-final,2021.2.3,60.08903967962311,
,,,,12,0,12,0,,,,,,,,,,,,,,,,,,,,,,,,,,,,,,,,,,,,,,,,,,,,,,,,,,,,,,,,,504.75686080008745,None,,,,,,,,,,,,,,,,,502.75489970017225,None,,,,,,,,,,,,,,,,,,,,,,,,,,,,,,,,,,,,,,,,,,,,,,,,,,,,,,,,73YA,001,2023_May_05_1023,ExactRep-v3-final,2021.2.3,60.08903967962311,
,,,,13,0,13,0,,,,,,,,,,,,,,,,,,,,,,,,,,,,,,,,,,,,,,,,,,,,,,,,,,,,,,,,,507.2592803006992,None,,,,,,,,,,,,,,,,,505.25712450034916,None,,,,,,,,,,,,,,,,,,,,,,,,,,,,,,,,,,,,,,,,,,,,,,,,,,,,,,,,73YA,001,2023_May_05_1023,ExactRep-v3-final,2021.2.3,60.08903967962311,
,,,,14,0,14,0,,,,,,,,,,,,,,,,,,,,,,,,,,,,,,,,,,,,,,,,,,,,,,,,,,,,,,,,,509.7617901004851,None,,,,,,,,,,,,,,,,,507.75977870076895,None,,,,,,,,,,,,,,,,,,,,,,,,,,,,,,,,,,,,,,,,,,,,,,,,,,,,,,,,73YA,001,2023_May_05_1023,ExactRep-v3-final,2021.2.3,60.08903967962311,
,,,,,,,,,,,,,,,,,,,,,,,,,,,,,,,,,,,,,,,,,,,,,,,,,,,,,,,,,,,,,,,,,,,,,,,,,,,,,,,,,,,,space,14.83733840007335,520.3962654005736,None,,,,,,,,,,,,,,,,,,,,,,,,,,,,,,,,,,,,,,,,,,,,,,,,,,,,73YA,001,2023_May_05_1023,ExactRep-v3-final,2021.2.3,60.08903967962311,
,,,,,,,,0,0,0,0,,,,,,,,,,,,,,,,,,,,,,,,,,,,,,,,,,,,,,,,,,,,,,,,,,,,,537.3060290003195,None,,,,,,,,,,,,,,,,,,,,,,,510.4190906006843,None,510.4190906006843,None,510.4190906006843,None,510.4190906006843,None,510.4190906006843,None,510.4190906006843,None,toy,116,1,aloud,red,535.295120600611,None,None,535.295120600611,None,,,,,,,,,,,,,,,,,,,,,,,,,,,,,,73YA,001,2023_May_05_1023,ExactRep-v3-final,2021.2.3,60.08903967962311,
,,,,,,,,1,0,1,0,,,,,,,,,,,,,,,,,,,,,,,,,,,,,,,,,,,,,,,,,,,,,,,,,,,,,539.8256484000012,None,,,,,,,,,,,,,,,,,,,,,,,,,,,,,,,,,,,pupil,56,2,silent,blue,537.813010500744,None,None,537.813010500744,None,,,,,,,,,,,,,,,,,,,,,,,,,,,,,,73YA,001,2023_May_05_1023,ExactRep-v3-final,2021.2.3,60.08903967962311,
,,,,,,,,2,0,2,0,,,,,,,,,,,,,,,,,,,,,,,,,,,,,,,,,,,,,,,,,,,,,,,,,,,,,542.3443589005619,None,,,,,,,,,,,,,,,,,,,,,,,,,,,,,,,,,,,fire,45,3,silent,blue,540.3378976006061,None,None,540.3378976006061,None,,,,,,,,,,,,,,,,,,,,,,,,,,,,,,73YA,001,2023_May_05_1023,ExactRep-v3-final,2021.2.3,60.08903967962311,
,,,,,,,,3,0,3,0,,,,,,,,,,,,,,,,,,,,,,,,,,,,,,,,,,,,,,,,,,,,,,,,,,,,,544.8633717000484,None,,,,,,,,,,,,,,,,,,,,,,,,,,,,,,,,,,,length,46,4,silent,blue,542.8482034001499,None,None,542.8482034001499,None,,,,,,,,,,,,,,,,,,,,,,,,,,,,,,73YA,001,2023_May_05_1023,ExactRep-v3-final,2021.2.3,60.08903967962311,
,,,,,,,,4,0,4,0,,,,,,,,,,,,,,,,,,,,,,,,,,,,,,,,,,,,,,,,,,,,,,,,,,,,,547.3828143002465,None,,,,,,,,,,,,,,,,,,,,,,,,,,,,,,,,,,,temple,119,5,aloud,red,545.3758038002998,None,None,545.3758038002998,None,,,,,,,,,,,,,,,,,,,,,,,,,,,,,,73YA,001,2023_May_05_1023,ExactRep-v3-final,2021.2.3,60.08903967962311,
,,,,,,,,5,0,5,0,,,,,,,,,,,,,,,,,,,,,,,,,,,,,,,,,,,,,,,,,,,,,,,,,,,,,549.902139400132,None,,,,,,,,,,,,,,,,,,,,,,,,,,,,,,,,,,,apple,62,6,silent,blue,547.8877632003278,None,None,547.8877632003278,None,,,,,,,,,,,,,,,,,,,,,,,,,,,,,,73YA,001,2023_May_05_1023,ExactRep-v3-final,2021.2.3,60.08903967962311,
,,,,,,,,6,0,6,0,,,,,,,,,,,,,,,,,,,,,,,,,,,,,,,,,,,,,,,,,,,,,,,,,,,,,552.421213700436,None,,,,,,,,,,,,,,,,,,,,,,,,,,,,,,,,,,,gold,20,7,sing,white,550.4077267004177,None,None,550.4077267004177,None,,,,,,,,,,,,,,,,,,,,,,,,,,,,,,73YA,001,2023_May_05_1023,ExactRep-v3-final,2021.2.3,60.08903967962311,
,,,,,,,,7,0,7,0,,,,,,,,,,,,,,,,,,,,,,,,,,,,,,,,,,,,,,,,,,,,,,,,,,,,,554.9402932999656,None,,,,,,,,,,,,,,,,,,,,,,,,,,,,,,,,,,,fun,32,8,sing,white,552.9271749006584,None,None,552.9271749006584,None,,,,,,,,,,,,,,,,,,,,,,,,,,,,,,73YA,001,2023_May_05_1023,ExactRep-v3-final,2021.2.3,60.08903967962311,
,,,,,,,,8,0,8,0,,,,,,,,,,,,,,,,,,,,,,,,,,,,,,,,,,,,,,,,,,,,,,,,,,,,,557.459322700277,None,,,,,,,,,,,,,,,,,,,,,,,,,,,,,,,,,,,mercy,90,9,aloud,red,555.4443287001923,None,None,555.4443287001923,None,,,,,,,,,,,,,,,,,,,,,,,,,,,,,,73YA,001,2023_May_05_1023,ExactRep-v3-final,2021.2.3,60.08903967962311,
,,,,,,,,9,0,9,0,,,,,,,,,,,,,,,,,,,,,,,,,,,,,,,,,,,,,,,,,,,,,,,,,,,,,559.9788776002824,None,,,,,,,,,,,,,,,,,,,,,,,,,,,,,,,,,,,dawn,31,10,sing,white,557.9656401006505,None,None,557.9656401006505,None,,,,,,,,,,,,,,,,,,,,,,,,,,,,,,73YA,001,2023_May_05_1023,ExactRep-v3-final,2021.2.3,60.08903967962311,
,,,,,,,,10,0,10,0,,,,,,,,,,,,,,,,,,,,,,,,,,,,,,,,,,,,,,,,,,,,,,,,,,,,,562.4811369003728,None,,,,,,,,,,,,,,,,,,,,,,,,,,,,,,,,,,,cat,12,11,sing,white,560.4788681007922,None,None,560.4788681007922,None,,,,,,,,,,,,,,,,,,,,,,,,,,,,,,73YA,001,2023_May_05_1023,ExactRep-v3-final,2021.2.3,60.08903967962311,
,,,,,,,,11,0,11,0,,,,,,,,,,,,,,,,,,,,,,,,,,,,,,,,,,,,,,,,,,,,,,,,,,,,,564.9836936006323,None,,,,,,,,,,,,,,,,,,,,,,,,,,,,,,,,,,,author,77,12,silent,blue,562.9832989005372,None,None,562.9832989005372,None,,,,,,,,,,,,,,,,,,,,,,,,,,,,,,73YA,001,2023_May_05_1023,ExactRep-v3-final,2021.2.3,60.08903967962311,
,,,,,,,,12,0,12,0,,,,,,,,,,,,,,,,,,,,,,,,,,,,,,,,,,,,,,,,,,,,,,,,,,,,,567.4861930999905,None,,,,,,,,,,,,,,,,,,,,,,,,,,,,,,,,,,,city,72,13,silent,blue,565.4864695006981,None,None,565.4864695006981,None,,,,,,,,,,,,,,,,,,,,,,,,,,,,,,73YA,001,2023_May_05_1023,ExactRep-v3-final,2021.2.3,60.08903967962311,
,,,,,,,,13,0,13,0,,,,,,,,,,,,,,,,,,,,,,,,,,,,,,,,,,,,,,,,,,,,,,,,,,,,,569.9888347005472,None,,,,,,,,,,,,,,,,,,,,,,,,,,,,,,,,,,,pipe,92,14,aloud,red,567.9887685999274,None,None,567.9887685999274,None,,,,,,,,,,,,,,,,,,,,,,,,,,,,,,73YA,001,2023_May_05_1023,ExactRep-v3-final,2021.2.3,60.08903967962311,
,,,,,,,,14,0,14,0,,,,,,,,,,,,,,,,,,,,,,,,,,,,,,,,,,,,,,,,,,,,,,,,,,,,,572.5078878002241,None,,,,,,,,,,,,,,,,,,,,,,,,,,,,,,,,,,,chair,75,15,silent,blue,570.4923969004303,None,None,570.4923969004303,None,,,,,,,,,,,,,,,,,,,,,,,,,,,,,,73YA,001,2023_May_05_1023,ExactRep-v3-final,2021.2.3,60.08903967962311,
,,,,,,,,15,0,15,0,,,,,,,,,,,,,,,,,,,,,,,,,,,,,,,,,,,,,,,,,,,,,,,,,,,,,575.0101876007393,None,,,,,,,,,,,,,,,,,,,,,,,,,,,,,,,,,,,wine,27,16,sing,white,573.011188200675,None,None,573.011188200675,None,,,,,,,,,,,,,,,,,,,,,,,,,,,,,,73YA,001,2023_May_05_1023,ExactRep-v3-final,2021.2.3,60.08903967962311,
,,,,,,,,16,0,16,0,,,,,,,,,,,,,,,,,,,,,,,,,,,,,,,,,,,,,,,,,,,,,,,,,,,,,577.5127231003717,None,,,,,,,,,,,,,,,,,,,,,,,,,,,,,,,,,,,opinion,94,17,aloud,red,575.5106998002157,None,None,575.5106998002157,None,,,,,,,,,,,,,,,,,,,,,,,,,,,,,,73YA,001,2023_May_05_1023,ExactRep-v3-final,2021.2.3,60.08903967962311,
,,,,,,,,17,0,17,0,,,,,,,,,,,,,,,,,,,,,,,,,,,,,,,,,,,,,,,,,,,,,,,,,,,,,580.0151645001024,None,,,,,,,,,,,,,,,,,,,,,,,,,,,,,,,,,,,colony,74,18,silent,blue,578.0133668007329,None,None,578.0133668007329,None,,,,,,,,,,,,,,,,,,,,,,,,,,,,,,73YA,001,2023_May_05_1023,ExactRep-v3-final,2021.2.3,60.08903967962311,
,,,,,,,,18,0,18,0,,,,,,,,,,,,,,,,,,,,,,,,,,,,,,,,,,,,,,,,,,,,,,,,,,,,,582.5180278001353,None,,,,,,,,,,,,,,,,,,,,,,,,,,,,,,,,,,,charm,0,19,sing,white,580.5156960003078,None,None,580.5156960003078,None,,,,,,,,,,,,,,,,,,,,,,,,,,,,,,73YA,001,2023_May_05_1023,ExactRep-v3-final,2021.2.3,60.08903967962311,
,,,,,,,,19,0,19,0,,,,,,,,,,,,,,,,,,,,,,,,,,,,,,,,,,,,,,,,,,,,,,,,,,,,,585.0204380005598,None,,,,,,,,,,,,,,,,,,,,,,,,,,,,,,,,,,,corner,96,20,aloud,red,583.018419300206,None,None,583.018419300206,None,,,,,,,,,,,,,,,,,,,,,,,,,,,,,,73YA,001,2023_May_05_1023,ExactRep-v3-final,2021.2.3,60.08903967962311,
,,,,,,,,20,0,20,0,,,,,,,,,,,,,,,,,,,,,,,,,,,,,,,,,,,,,,,,,,,,,,,,,,,,,587.5396199999377,None,,,,,,,,,,,,,,,,,,,,,,,,,,,,,,,,,,,army,99,21,aloud,red,585.5249119000509,None,None,585.5249119000509,None,,,,,,,,,,,,,,,,,,,,,,,,,,,,,,73YA,001,2023_May_05_1023,ExactRep-v3-final,2021.2.3,60.08903967962311,
,,,,,,,,21,0,21,0,,,,,,,,,,,,,,,,,,,,,,,,,,,,,,,,,,,,,,,,,,,,,,,,,,,,,590.0587292006239,None,,,,,,,,,,,,,,,,,,,,,,,,,,,,,,,,,,,lip,33,22,sing,white,588.0435858005658,None,None,588.0435858005658,None,,,,,,,,,,,,,,,,,,,,,,,,,,,,,,73YA,001,2023_May_05_1023,ExactRep-v3-final,2021.2.3,60.08903967962311,
,,,,,,,,22,0,22,0,,,,,,,,,,,,,,,,,,,,,,,,,,,,,,,,,,,,,,,,,,,,,,,,,,,,,592.5780116003007,None,,,,,,,,,,,,,,,,,,,,,,,,,,,,,,,,,,,series,6,23,sing,white,590.5629361001775,None,None,590.5629361001775,None,,,,,,,,,,,,,,,,,,,,,,,,,,,,,,73YA,001,2023_May_05_1023,ExactRep-v3-final,2021.2.3,60.08903967962311,
,,,,,,,,23,0,23,0,,,,,,,,,,,,,,,,,,,,,,,,,,,,,,,,,,,,,,,,,,,,,,,,,,,,,595.0971344001591,None,,,,,,,,,,,,,,,,,,,,,,,,,,,,,,,,,,,slave,41,24,silent,blue,593.0895160008222,None,None,593.0895160008222,None,,,,,,,,,,,,,,,,,,,,,,,,,,,,,,73YA,001,2023_May_05_1023,ExactRep-v3-final,2021.2.3,60.08903967962311,
,,,,,,,,24,0,24,0,,,,,,,,,,,,,,,,,,,,,,,,,,,,,,,,,,,,,,,,,,,,,,,,,,,,,597.616427000612,None,,,,,,,,,,,,,,,,,,,,,,,,,,,,,,,,,,,moment,109,25,aloud,red,595.602511100471,None,None,595.602511100471,None,,,,,,,,,,,,,,,,,,,,,,,,,,,,,,73YA,001,2023_May_05_1023,ExactRep-v3-final,2021.2.3,60.08903967962311,
,,,,,,,,25,0,25,0,,,,,,,,,,,,,,,,,,,,,,,,,,,,,,,,,,,,,,,,,,,,,,,,,,,,,600.1353049008176,None,,,,,,,,,,,,,,,,,,,,,,,,,,,,,,,,,,,cabin,84,26,aloud,red,598.1200076006353,None,None,598.1200076006353,None,,,,,,,,,,,,,,,,,,,,,,,,,,,,,,73YA,001,2023_May_05_1023,ExactRep-v3-final,2021.2.3,60.08903967962311,
,,,,,,,,26,0,26,0,,,,,,,,,,,,,,,,,,,,,,,,,,,,,,,,,,,,,,,,,,,,,,,,,,,,,602.6380596002564,None,,,,,,,,,,,,,,,,,,,,,,,,,,,,,,,,,,,wife,2,27,sing,white,600.6359898000956,None,None,600.6359898000956,None,,,,,,,,,,,,,,,,,,,,,,,,,,,,,,73YA,001,2023_May_05_1023,ExactRep-v3-final,2021.2.3,60.08903967962311,
,,,,,,,,27,0,27,0,,,,,,,,,,,,,,,,,,,,,,,,,,,,,,,,,,,,,,,,,,,,,,,,,,,,,605.1569695007056,None,,,,,,,,,,,,,,,,,,,,,,,,,,,,,,,,,,,memory,59,28,silent,blue,603.1435689004138,None,None,603.1435689004138,None,,,,,,,,,,,,,,,,,,,,,,,,,,,,,,73YA,001,2023_May_05_1023,ExactRep-v3-final,2021.2.3,60.08903967962311,
,,,,,,,,28,0,28,0,,,,,,,,,,,,,,,,,,,,,,,,,,,,,,,,,,,,,,,,,,,,,,,,,,,,,607.6763714002445,None,,,,,,,,,,,,,,,,,,,,,,,,,,,,,,,,,,,machine,42,29,silent,blue,605.6652281004936,None,None,605.6652281004936,None,,,,,,,,,,,,,,,,,,,,,,,,,,,,,,73YA,001,2023_May_05_1023,ExactRep-v3-final,2021.2.3,60.08903967962311,
,,,,,,,,29,0,29,0,,,,,,,,,,,,,,,,,,,,,,,,,,,,,,,,,,,,,,,,,,,,,,,,,,,,,610.1787411002442,None,,,,,,,,,,,,,,,,,,,,,,,,,,,,,,,,,,,potato,53,30,silent,blue,608.1788670001552,None,None,608.1788670001552,None,,,,,,,,,,,,,,,,,,,,,,,,,,,,,,73YA,001,2023_May_05_1023,ExactRep-v3-final,2021.2.3,60.08903967962311,
,,,,,,,,30,0,30,0,,,,,,,,,,,,,,,,,,,,,,,,,,,,,,,,,,,,,,,,,,,,,,,,,,,,,612.681250100024,None,,,,,,,,,,,,,,,,,,,,,,,,,,,,,,,,,,,hide,50,31,silent,blue,610.6816167999059,None,None,610.6816167999059,None,,,,,,,,,,,,,,,,,,,,,,,,,,,,,,73YA,001,2023_May_05_1023,ExactRep-v3-final,2021.2.3,60.08903967962311,
,,,,,,,,31,0,31,0,,,,,,,,,,,,,,,,,,,,,,,,,,,,,,,,,,,,,,,,,,,,,,,,,,,,,615.2003860007972,None,,,,,,,,,,,,,,,,,,,,,,,,,,,,,,,,,,,avenue,100,32,aloud,red,613.1881951000541,None,None,613.1881951000541,None,,,,,,,,,,,,,,,,,,,,,,,,,,,,,,73YA,001,2023_May_05_1023,ExactRep-v3-final,2021.2.3,60.08903967962311,
,,,,,,,,32,0,32,0,,,,,,,,,,,,,,,,,,,,,,,,,,,,,,,,,,,,,,,,,,,,,,,,,,,,,617.7197050005198,None,,,,,,,,,,,,,,,,,,,,,,,,,,,,,,,,,,,market,85,33,aloud,red,615.7046706005931,None,None,615.7046706005931,None,,,,,,,,,,,,,,,,,,,,,,,,,,,,,,73YA,001,2023_May_05_1023,ExactRep-v3-final,2021.2.3,60.08903967962311,
,,,,,,,,33,0,33,0,,,,,,,,,,,,,,,,,,,,,,,,,,,,,,,,,,,,,,,,,,,,,,,,,,,,,620.2389644999057,None,,,,,,,,,,,,,,,,,,,,,,,,,,,,,,,,,,,prison,43,34,silent,blue,618.2253367006779,None,None,618.2253367006779,None,,,,,,,,,,,,,,,,,,,,,,,,,,,,,,73YA,001,2023_May_05_1023,ExactRep-v3-final,2021.2.3,60.08903967962311,
,,,,,,,,34,0,34,0,,,,,,,,,,,,,,,,,,,,,,,,,,,,,,,,,,,,,,,,,,,,,,,,,,,,,622.7579810004681,None,,,,,,,,,,,,,,,,,,,,,,,,,,,,,,,,,,,thought,105,35,aloud,red,620.7454102002084,None,None,620.7454102002084,None,,,,,,,,,,,,,,,,,,,,,,,,,,,,,,73YA,001,2023_May_05_1023,ExactRep-v3-final,2021.2.3,60.08903967962311,
,,,,,,,,35,0,35,0,,,,,,,,,,,,,,,,,,,,,,,,,,,,,,,,,,,,,,,,,,,,,,,,,,,,,625.26063039992,None,,,,,,,,,,,,,,,,,,,,,,,,,,,,,,,,,,,breast,19,36,sing,white,623.2584912003949,None,None,623.2584912003949,None,,,,,,,,,,,,,,,,,,,,,,,,,,,,,,73YA,001,2023_May_05_1023,ExactRep-v3-final,2021.2.3,60.08903967962311,
,,,,,,,,36,0,36,0,,,,,,,,,,,,,,,,,,,,,,,,,,,,,,,,,,,,,,,,,,,,,,,,,,,,,627.7631479008123,None,,,,,,,,,,,,,,,,,,,,,,,,,,,,,,,,,,,blood,82,37,aloud,red,625.7639715000987,None,None,625.7639715000987,None,,,,,,,,,,,,,,,,,,,,,,,,,,,,,,73YA,001,2023_May_05_1023,ExactRep-v3-final,2021.2.3,60.08903967962311,
,,,,,,,,37,0,37,0,,,,,,,,,,,,,,,,,,,,,,,,,,,,,,,,,,,,,,,,,,,,,,,,,,,,,630.2827638005838,None,,,,,,,,,,,,,,,,,,,,,,,,,,,,,,,,,,,meadow,10,38,sing,white,628.2672480000183,None,None,628.2672480000183,None,,,,,,,,,,,,,,,,,,,,,,,,,,,,,,73YA,001,2023_May_05_1023,ExactRep-v3-final,2021.2.3,60.08903967962311,
,,,,,,,,38,0,38,0,,,,,,,,,,,,,,,,,,,,,,,,,,,,,,,,,,,,,,,,,,,,,,,,,,,,,632.784815300256,None,,,,,,,,,,,,,,,,,,,,,,,,,,,,,,,,,,,history,55,39,silent,blue,630.7826892007142,None,None,630.7826892007142,None,,,,,,,,,,,,,,,,,,,,,,,,,,,,,,73YA,001,2023_May_05_1023,ExactRep-v3-final,2021.2.3,60.08903967962311,
,,,,,,,,39,0,39,0,,,,,,,,,,,,,,,,,,,,,,,,,,,,,,,,,,,,,,,,,,,,,,,,,,,,,635.3040159000084,None,,,,,,,,,,,,,,,,,,,,,,,,,,,,,,,,,,,college,93,40,aloud,red,633.2884239004925,None,None,633.2884239004925,None,,,,,,,,,,,,,,,,,,,,,,,,,,,,,,73YA,001,2023_May_05_1023,ExactRep-v3-final,2021.2.3,60.08903967962311,
,,,,,,,,40,0,40,0,,,,,,,,,,,,,,,,,,,,,,,,,,,,,,,,,,,,,,,,,,,,,,,,,,,,,637.8063811007887,None,,,,,,,,,,,,,,,,,,,,,,,,,,,,,,,,,,,insect,80,41,aloud,red,635.8066985001788,None,None,635.8066985001788,None,,,,,,,,,,,,,,,,,,,,,,,,,,,,,,73YA,001,2023_May_05_1023,ExactRep-v3-final,2021.2.3,60.08903967962311,
,,,,,,,,41,0,41,0,,,,,,,,,,,,,,,,,,,,,,,,,,,,,,,,,,,,,,,,,,,,,,,,,,,,,640.3257467001677,None,,,,,,,,,,,,,,,,,,,,,,,,,,,,,,,,,,,vision,73,42,silent,blue,638.3233665004373,None,None,638.3233665004373,None,,,,,,,,,,,,,,,,,,,,,,,,,,,,,,73YA,001,2023_May_05_1023,ExactRep-v3-final,2021.2.3,60.08903967962311,
,,,,,,,,42,0,42,0,,,,,,,,,,,,,,,,,,,,,,,,,,,,,,,,,,,,,,,,,,,,,,,,,,,,,642.8504441007972,None,,,,,,,,,,,,,,,,,,,,,,,,,,,,,,,,,,,camp,49,43,silent,blue,640.8299414003268,None,None,640.8299414003268,None,,,,,,,,,,,,,,,,,,,,,,,,,,,,,,73YA,001,2023_May_05_1023,ExactRep-v3-final,2021.2.3,60.08903967962311,
,,,,,,,,43,0,43,0,,,,,,,,,,,,,,,,,,,,,,,,,,,,,,,,,,,,,,,,,,,,,,,,,,,,,645.3469671001658,None,,,,,,,,,,,,,,,,,,,,,,,,,,,,,,,,,,,crime,110,44,aloud,red,643.3464097008109,None,None,643.3464097008109,None,,,,,,,,,,,,,,,,,,,,,,,,,,,,,,73YA,001,2023_May_05_1023,ExactRep-v3-final,2021.2.3,60.08903967962311,
,,,,,,,,44,0,44,0,,,,,,,,,,,,,,,,,,,,,,,,,,,,,,,,,,,,,,,,,,,,,,,,,,,,,647.8497437005863,None,,,,,,,,,,,,,,,,,,,,,,,,,,,,,,,,,,,air,78,45,silent,blue,645.8503211000934,None,None,645.8503211000934,None,,,,,,,,,,,,,,,,,,,,,,,,,,,,,,73YA,001,2023_May_05_1023,ExactRep-v3-final,2021.2.3,60.08903967962311,
,,,,,,,,45,0,45,0,,,,,,,,,,,,,,,,,,,,,,,,,,,,,,,,,,,,,,,,,,,,,,,,,,,,,650.3690558001399,None,,,,,,,,,,,,,,,,,,,,,,,,,,,,,,,,,,,fact,87,46,aloud,red,648.3540259003639,None,None,648.3540259003639,None,,,,,,,,,,,,,,,,,,,,,,,,,,,,,,73YA,001,2023_May_05_1023,ExactRep-v3-final,2021.2.3,60.08903967962311,
,,,,,,,,46,0,46,0,,,,,,,,,,,,,,,,,,,,,,,,,,,,,,,,,,,,,,,,,,,,,,,,,,,,,652.8715551001951,None,,,,,,,,,,,,,,,,,,,,,,,,,,,,,,,,,,,animal,26,47,sing,white,650.8693200005218,None,None,650.8693200005218,None,,,,,,,,,,,,,,,,,,,,,,,,,,,,,,73YA,001,2023_May_05_1023,ExactRep-v3-final,2021.2.3,60.08903967962311,
,,,,,,,,47,0,47,0,,,,,,,,,,,,,,,,,,,,,,,,,,,,,,,,,,,,,,,,,,,,,,,,,,,,,655.3907345002517,None,,,,,,,,,,,,,,,,,,,,,,,,,,,,,,,,,,,forest,57,48,silent,blue,653.3756322003901,None,None,653.3756322003901,None,,,,,,,,,,,,,,,,,,,,,,,,,,,,,,73YA,001,2023_May_05_1023,ExactRep-v3-final,2021.2.3,60.08903967962311,
,,,,,,,,48,0,48,0,,,,,,,,,,,,,,,,,,,,,,,,,,,,,,,,,,,,,,,,,,,,,,,,,,,,,657.8932349001989,None,,,,,,,,,,,,,,,,,,,,,,,,,,,,,,,,,,,dream,97,49,aloud,red,655.8921778006479,None,None,655.8921778006479,None,,,,,,,,,,,,,,,,,,,,,,,,,,,,,,73YA,001,2023_May_05_1023,ExactRep-v3-final,2021.2.3,60.08903967962311,
,,,,,,,,49,0,49,0,,,,,,,,,,,,,,,,,,,,,,,,,,,,,,,,,,,,,,,,,,,,,,,,,,,,,660.412153000012,None,,,,,,,,,,,,,,,,,,,,,,,,,,,,,,,,,,,cotton,14,50,sing,white,658.4009444005787,None,None,658.4009444005787,None,,,,,,,,,,,,,,,,,,,,,,,,,,,,,,73YA,001,2023_May_05_1023,ExactRep-v3-final,2021.2.3,60.08903967962311,
,,,,,,,,50,0,50,0,,,,,,,,,,,,,,,,,,,,,,,,,,,,,,,,,,,,,,,,,,,,,,,,,,,,,662.9148417999968,None,,,,,,,,,,,,,,,,,,,,,,,,,,,,,,,,,,,artist,24,51,sing,white,660.9155490007252,None,None,660.9155490007252,None,,,,,,,,,,,,,,,,,,,,,,,,,,,,,,73YA,001,2023_May_05_1023,ExactRep-v3-final,2021.2.3,60.08903967962311,
,,,,,,,,51,0,51,0,,,,,,,,,,,,,,,,,,,,,,,,,,,,,,,,,,,,,,,,,,,,,,,,,,,,,665.4174473006278,None,,,,,,,,,,,,,,,,,,,,,,,,,,,,,,,,,,,picture,28,52,sing,white,663.4167897999287,None,None,663.4167897999287,None,,,,,,,,,,,,,,,,,,,,,,,,,,,,,,73YA,001,2023_May_05_1023,ExactRep-v3-final,2021.2.3,60.08903967962311,
,,,,,,,,52,0,52,0,,,,,,,,,,,,,,,,,,,,,,,,,,,,,,,,,,,,,,,,,,,,,,,,,,,,,667.9366419008002,None,,,,,,,,,,,,,,,,,,,,,,,,,,,,,,,,,,,meeting,63,53,silent,blue,665.9211101001129,None,None,665.9211101001129,None,,,,,,,,,,,,,,,,,,,,,,,,,,,,,,73YA,001,2023_May_05_1023,ExactRep-v3-final,2021.2.3,60.08903967962311,
,,,,,,,,53,0,53,0,,,,,,,,,,,,,,,,,,,,,,,,,,,,,,,,,,,,,,,,,,,,,,,,,,,,,670.4391263006255,None,,,,,,,,,,,,,,,,,,,,,,,,,,,,,,,,,,,table,34,54,sing,white,668.4371420005336,None,None,668.4371420005336,None,,,,,,,,,,,,,,,,,,,,,,,,,,,,,,73YA,001,2023_May_05_1023,ExactRep-v3-final,2021.2.3,60.08903967962311,
,,,,,,,,54,0,54,0,,,,,,,,,,,,,,,,,,,,,,,,,,,,,,,,,,,,,,,,,,,,,,,,,,,,,672.941690900363,None,,,,,,,,,,,,,,,,,,,,,,,,,,,,,,,,,,,girl,18,55,sing,white,670.9418506007642,None,None,670.9418506007642,None,,,,,,,,,,,,,,,,,,,,,,,,,,,,,,73YA,001,2023_May_05_1023,ExactRep-v3-final,2021.2.3,60.08903967962311,
,,,,,,,,55,0,55,0,,,,,,,,,,,,,,,,,,,,,,,,,,,,,,,,,,,,,,,,,,,,,,,,,,,,,675.4441512003541,None,,,,,,,,,,,,,,,,,,,,,,,,,,,,,,,,,,,tree,47,56,silent,blue,673.4445548001677,None,None,673.4445548001677,None,,,,,,,,,,,,,,,,,,,,,,,,,,,,,,73YA,001,2023_May_05_1023,ExactRep-v3-final,2021.2.3,60.08903967962311,
,,,,,,,,56,0,56,0,,,,,,,,,,,,,,,,,,,,,,,,,,,,,,,,,,,,,,,,,,,,,,,,,,,,,677.9465583004057,None,,,,,,,,,,,,,,,,,,,,,,,,,,,,,,,,,,,passion,15,57,sing,white,675.9444486005232,None,None,675.9444486005232,None,,,,,,,,,,,,,,,,,,,,,,,,,,,,,,73YA,001,2023_May_05_1023,ExactRep-v3-final,2021.2.3,60.08903967962311,
,,,,,,,,57,0,57,0,,,,,,,,,,,,,,,,,,,,,,,,,,,,,,,,,,,,,,,,,,,,,,,,,,,,,680.4489197004586,None,,,,,,,,,,,,,,,,,,,,,,,,,,,,,,,,,,,paper,70,58,silent,blue,678.4486470008269,None,None,678.4486470008269,None,,,,,,,,,,,,,,,,,,,,,,,,,,,,,,73YA,001,2023_May_05_1023,ExactRep-v3-final,2021.2.3,60.08903967962311,
,,,,,,,,58,0,58,0,,,,,,,,,,,,,,,,,,,,,,,,,,,,,,,,,,,,,,,,,,,,,,,,,,,,,682.9517165003344,None,,,,,,,,,,,,,,,,,,,,,,,,,,,,,,,,,,,cash,44,59,silent,blue,680.9521018005908,None,None,680.9521018005908,None,,,,,,,,,,,,,,,,,,,,,,,,,,,,,,73YA,001,2023_May_05_1023,ExactRep-v3-final,2021.2.3,60.08903967962311,
,,,,,,,,59,0,59,0,,,,,,,,,,,,,,,,,,,,,,,,,,,,,,,,,,,,,,,,,,,,,,,,,,,,,685.4708300000057,None,,,,,,,,,,,,,,,,,,,,,,,,,,,,,,,,,,,engine,36,60,sing,white,683.4566224003211,None,None,683.4566224003211,None,,,,,,,,,,,,,,,,,,,,,,,,,,,,,,73YA,001,2023_May_05_1023,ExactRep-v3-final,2021.2.3,60.08903967962311,
,,,,,,,,60,0,60,0,,,,,,,,,,,,,,,,,,,,,,,,,,,,,,,,,,,,,,,,,,,,,,,,,,,,,687.9733314001933,None,,,,,,,,,,,,,,,,,,,,,,,,,,,,,,,,,,,arm,68,61,silent,blue,685.9711259007454,None,None,685.9711259007454,None,,,,,,,,,,,,,,,,,,,,,,,,,,,,,,73YA,001,2023_May_05_1023,ExactRep-v3-final,2021.2.3,60.08903967962311,
,,,,,,,,61,0,61,0,,,,,,,,,,,,,,,,,,,,,,,,,,,,,,,,,,,,,,,,,,,,,,,,,,,,,690.475606800057,None,,,,,,,,,,,,,,,,,,,,,,,,,,,,,,,,,,,sugar,9,62,sing,white,688.4757115999237,None,None,688.4757115999237,None,,,,,,,,,,,,,,,,,,,,,,,,,,,,,,73YA,001,2023_May_05_1023,ExactRep-v3-final,2021.2.3,60.08903967962311,
,,,,,,,,62,0,62,0,,,,,,,,,,,,,,,,,,,,,,,,,,,,,,,,,,,,,,,,,,,,,,,,,,,,,692.9786865999922,None,,,,,,,,,,,,,,,,,,,,,,,,,,,,,,,,,,,boulder,8,63,sing,white,690.9794956007972,None,None,690.9794956007972,None,,,,,,,,,,,,,,,,,,,,,,,,,,,,,,73YA,001,2023_May_05_1023,ExactRep-v3-final,2021.2.3,60.08903967962311,
,,,,,,,,63,0,63,0,,,,,,,,,,,,,,,,,,,,,,,,,,,,,,,,,,,,,,,,,,,,,,,,,,,,,695.4806764004752,None,,,,,,,,,,,,,,,,,,,,,,,,,,,,,,,,,,,diamond,7,64,sing,white,693.4804049003869,None,None,693.4804049003869,None,,,,,,,,,,,,,,,,,,,,,,,,,,,,,,73YA,001,2023_May_05_1023,ExactRep-v3-final,2021.2.3,60.08903967962311,
,,,,,,,,64,0,64,0,,,,,,,,,,,,,,,,,,,,,,,,,,,,,,,,,,,,,,,,,,,,,,,,,,,,,698.000104800798,None,,,,,,,,,,,,,,,,,,,,,,,,,,,,,,,,,,,lake,64,65,silent,blue,695.9909081002697,None,None,695.9909081002697,None,,,,,,,,,,,,,,,,,,,,,,,,,,,,,,73YA,001,2023_May_05_1023,ExactRep-v3-final,2021.2.3,60.08903967962311,
,,,,,,,,65,0,65,0,,,,,,,,,,,,,,,,,,,,,,,,,,,,,,,,,,,,,,,,,,,,,,,,,,,,,700.5024335002527,None,,,,,,,,,,,,,,,,,,,,,,,,,,,,,,,,,,,palace,21,66,sing,white,698.5019966000691,None,None,698.5019966000691,None,,,,,,,,,,,,,,,,,,,,,,,,,,,,,,73YA,001,2023_May_05_1023,ExactRep-v3-final,2021.2.3,60.08903967962311,
,,,,,,,,66,0,66,0,,,,,,,,,,,,,,,,,,,,,,,,,,,,,,,,,,,,,,,,,,,,,,,,,,,,,703.0050302008167,None,,,,,,,,,,,,,,,,,,,,,,,,,,,,,,,,,,,pride,29,67,sing,white,701.0031436001882,None,None,701.0031436001882,None,,,,,,,,,,,,,,,,,,,,,,,,,,,,,,73YA,001,2023_May_05_1023,ExactRep-v3-final,2021.2.3,60.08903967962311,
,,,,,,,,67,0,67,0,,,,,,,,,,,,,,,,,,,,,,,,,,,,,,,,,,,,,,,,,,,,,,,,,,,,,705.5075518004596,None,,,,,,,,,,,,,,,,,,,,,,,,,,,,,,,,,,,lord,118,68,aloud,red,703.5073332004249,None,None,703.5073332004249,None,,,,,,,,,,,,,,,,,,,,,,,,,,,,,,73YA,001,2023_May_05_1023,ExactRep-v3-final,2021.2.3,60.08903967962311,
,,,,,,,,68,0,68,0,,,,,,,,,,,,,,,,,,,,,,,,,,,,,,,,,,,,,,,,,,,,,,,,,,,,,708.010010400787,None,,,,,,,,,,,,,,,,,,,,,,,,,,,,,,,,,,,flood,88,69,aloud,red,706.007914500311,None,None,706.007914500311,None,,,,,,,,,,,,,,,,,,,,,,,,,,,,,,73YA,001,2023_May_05_1023,ExactRep-v3-final,2021.2.3,60.08903967962311,
,,,,,,,,69,0,69,0,,,,,,,,,,,,,,,,,,,,,,,,,,,,,,,,,,,,,,,,,,,,,,,,,,,,,710.5125192003325,None,,,,,,,,,,,,,,,,,,,,,,,,,,,,,,,,,,,grief,37,70,sing,white,708.512545700185,None,None,708.512545700185,None,,,,,,,,,,,,,,,,,,,,,,,,,,,,,,73YA,001,2023_May_05_1023,ExactRep-v3-final,2021.2.3,60.08903967962311,
,,,,,,,,70,0,70,0,,,,,,,,,,,,,,,,,,,,,,,,,,,,,,,,,,,,,,,,,,,,,,,,,,,,,713.0147624006495,None,,,,,,,,,,,,,,,,,,,,,,,,,,,,,,,,,,,volume,11,71,sing,white,711.0152719002217,None,None,711.0152719002217,None,,,,,,,,,,,,,,,,,,,,,,,,,,,,,,73YA,001,2023_May_05_1023,ExactRep-v3-final,2021.2.3,60.08903967962311,
,,,,,,,,71,0,71,0,,,,,,,,,,,,,,,,,,,,,,,,,,,,,,,,,,,,,,,,,,,,,,,,,,,,,715.5174104003236,None,,,,,,,,,,,,,,,,,,,,,,,,,,,,,,,,,,,cottage,40,72,silent,blue,713.5152692003176,None,None,713.5152692003176,None,,,,,,,,,,,,,,,,,,,,,,,,,,,,,,73YA,001,2023_May_05_1023,ExactRep-v3-final,2021.2.3,60.08903967962311,
,,,,,,,,72,0,72,0,,,,,,,,,,,,,,,,,,,,,,,,,,,,,,,,,,,,,,,,,,,,,,,,,,,,,718.0201540999115,None,,,,,,,,,,,,,,,,,,,,,,,,,,,,,,,,,,,money,35,73,sing,white,716.0179120004177,None,None,716.0179120004177,None,,,,,,,,,,,,,,,,,,,,,,,,,,,,,,73YA,001,2023_May_05_1023,ExactRep-v3-final,2021.2.3,60.08903967962311,
,,,,,,,,73,0,73,0,,,,,,,,,,,,,,,,,,,,,,,,,,,,,,,,,,,,,,,,,,,,,,,,,,,,,720.5224168999121,None,,,,,,,,,,,,,,,,,,,,,,,,,,,,,,,,,,,tool,52,74,silent,blue,718.5205585006624,None,None,718.5205585006624,None,,,,,,,,,,,,,,,,,,,,,,,,,,,,,,73YA,001,2023_May_05_1023,ExactRep-v3-final,2021.2.3,60.08903967962311,
,,,,,,,,74,0,74,0,,,,,,,,,,,,,,,,,,,,,,,,,,,,,,,,,,,,,,,,,,,,,,,,,,,,,723.0250524003059,None,,,,,,,,,,,,,,,,,,,,,,,,,,,,,,,,,,,friend,117,75,aloud,red,721.0229151006788,None,None,721.0229151006788,None,,,,,,,,,,,,,,,,,,,,,,,,,,,,,,73YA,001,2023_May_05_1023,ExactRep-v3-final,2021.2.3,60.08903967962311,
,,,,,,,,75,0,75,0,,,,,,,,,,,,,,,,,,,,,,,,,,,,,,,,,,,,,,,,,,,,,,,,,,,,,725.5439548008144,None,,,,,,,,,,,,,,,,,,,,,,,,,,,,,,,,,,,plant,102,76,aloud,red,723.5299407001585,None,None,723.5299407001585,None,,,,,,,,,,,,,,,,,,,,,,,,,,,,,,73YA,001,2023_May_05_1023,ExactRep-v3-final,2021.2.3,60.08903967962311,
,,,,,,,,76,0,76,0,,,,,,,,,,,,,,,,,,,,,,,,,,,,,,,,,,,,,,,,,,,,,,,,,,,,,728.0634894007817,None,,,,,,,,,,,,,,,,,,,,,,,,,,,,,,,,,,,grass,65,77,silent,blue,726.0499655008316,None,None,726.0499655008316,None,,,,,,,,,,,,,,,,,,,,,,,,,,,,,,73YA,001,2023_May_05_1023,ExactRep-v3-final,2021.2.3,60.08903967962311,
,,,,,,,,77,0,77,0,,,,,,,,,,,,,,,,,,,,,,,,,,,,,,,,,,,,,,,,,,,,,,,,,,,,,730.5659032007679,None,,,,,,,,,,,,,,,,,,,,,,,,,,,,,,,,,,,wheat,71,78,silent,blue,728.5639128005132,None,None,728.5639128005132,None,,,,,,,,,,,,,,,,,,,,,,,,,,,,,,73YA,001,2023_May_05_1023,ExactRep-v3-final,2021.2.3,60.08903967962311,
,,,,,,,,78,0,78,0,,,,,,,,,,,,,,,,,,,,,,,,,,,,,,,,,,,,,,,,,,,,,,,,,,,,,733.0685638003051,None,,,,,,,,,,,,,,,,,,,,,,,,,,,,,,,,,,,shore,51,79,silent,blue,731.0662663001567,None,None,731.0662663001567,None,,,,,,,,,,,,,,,,,,,,,,,,,,,,,,73YA,001,2023_May_05_1023,ExactRep-v3-final,2021.2.3,60.08903967962311,
,,,,,,,,79,0,79,0,,,,,,,,,,,,,,,,,,,,,,,,,,,,,,,,,,,,,,,,,,,,,,,,,,,,,735.5874743005261,None,,,,,,,,,,,,,,,,,,,,,,,,,,,,,,,,,,,flesh,16,80,sing,white,733.5767970001325,None,None,733.5767970001325,None,,,,,,,,,,,,,,,,,,,,,,,,,,,,,,73YA,001,2023_May_05_1023,ExactRep-v3-final,2021.2.3,60.08903967962311,
,,,,,,,,80,0,80,0,,,,,,,,,,,,,,,,,,,,,,,,,,,,,,,,,,,,,,,,,,,,,,,,,,,,,738.08998300042,None,,,,,,,,,,,,,,,,,,,,,,,,,,,,,,,,,,,style,106,81,aloud,red,736.0881313001737,None,None,736.0881313001737,None,,,,,,,,,,,,,,,,,,,,,,,,,,,,,,73YA,001,2023_May_05_1023,ExactRep-v3-final,2021.2.3,60.08903967962311,
,,,,,,,,81,0,81,0,,,,,,,,,,,,,,,,,,,,,,,,,,,,,,,,,,,,,,,,,,,,,,,,,,,,,740.5926697999239,None,,,,,,,,,,,,,,,,,,,,,,,,,,,,,,,,,,,ocean,79,82,sing,white,738.5925954999402,None,None,738.5925954999402,None,,,,,,,,,,,,,,,,,,,,,,,,,,,,,,73YA,001,2023_May_05_1023,ExactRep-v3-final,2021.2.3,60.08903967962311,
,,,,,,,,82,0,82,0,,,,,,,,,,,,,,,,,,,,,,,,,,,,,,,,,,,,,,,,,,,,,,,,,,,,,743.094888000749,None,,,,,,,,,,,,,,,,,,,,,,,,,,,,,,,,,,,power,67,83,silent,blue,741.0931071005762,None,None,741.0931071005762,None,,,,,,,,,,,,,,,,,,,,,,,,,,,,,,73YA,001,2023_May_05_1023,ExactRep-v3-final,2021.2.3,60.08903967962311,
,,,,,,,,83,0,83,0,,,,,,,,,,,,,,,,,,,,,,,,,,,,,,,,,,,,,,,,,,,,,,,,,,,,,745.5973749002442,None,,,,,,,,,,,,,,,,,,,,,,,,,,,,,,,,,,,horse,66,84,silent,blue,743.595794999972,None,None,743.595794999972,None,,,,,,,,,,,,,,,,,,,,,,,,,,,,,,73YA,001,2023_May_05_1023,ExactRep-v3-final,2021.2.3,60.08903967962311,
,,,,,,,,84,0,84,0,,,,,,,,,,,,,,,,,,,,,,,,,,,,,,,,,,,,,,,,,,,,,,,,,,,,,748.1000530999154,None,,,,,,,,,,,,,,,,,,,,,,,,,,,,,,,,,,,trouble,91,85,aloud,red,746.0979606006294,None,None,746.0979606006294,None,,,,,,,,,,,,,,,,,,,,,,,,,,,,,,73YA,001,2023_May_05_1023,ExactRep-v3-final,2021.2.3,60.08903967962311,
,,,,,,,,85,0,85,0,,,,,,,,,,,,,,,,,,,,,,,,,,,,,,,,,,,,,,,,,,,,,,,,,,,,,750.6025031004101,None,,,,,,,,,,,,,,,,,,,,,,,,,,,,,,,,,,,amount,22,86,sing,white,748.6005006004125,None,None,748.6005006004125,None,,,,,,,,,,,,,,,,,,,,,,,,,,,,,,73YA,001,2023_May_05_1023,ExactRep-v3-final,2021.2.3,60.08903967962311,
,,,,,,,,86,0,86,0,,,,,,,,,,,,,,,,,,,,,,,,,,,,,,,,,,,,,,,,,,,,,,,,,,,,,753.1049602003768,None,,,,,,,,,,,,,,,,,,,,,,,,,,,,,,,,,,,window,60,87,silent,blue,751.1030027000234,None,None,751.1030027000234,None,,,,,,,,,,,,,,,,,,,,,,,,,,,,,,73YA,001,2023_May_05_1023,ExactRep-v3-final,2021.2.3,60.08903967962311,
,,,,,,,,87,0,87,0,,,,,,,,,,,,,,,,,,,,,,,,,,,,,,,,,,,,,,,,,,,,,,,,,,,,,755.6076124003157,None,,,,,,,,,,,,,,,,,,,,,,,,,,,,,,,,,,,pole,81,88,aloud,red,753.6054634004831,None,None,753.6054634004831,None,,,,,,,,,,,,,,,,,,,,,,,,,,,,,,73YA,001,2023_May_05_1023,ExactRep-v3-final,2021.2.3,60.08903967962311,
,,,,,,,,88,0,88,0,,,,,,,,,,,,,,,,,,,,,,,,,,,,,,,,,,,,,,,,,,,,,,,,,,,,,758.1102391006425,None,,,,,,,,,,,,,,,,,,,,,,,,,,,,,,,,,,,murder,101,89,aloud,red,756.1080990005285,None,None,756.1080990005285,None,,,,,,,,,,,,,,,,,,,,,,,,,,,,,,73YA,001,2023_May_05_1023,ExactRep-v3-final,2021.2.3,60.08903967962311,
,,,,,,,,89,0,89,0,,,,,,,,,,,,,,,,,,,,,,,,,,,,,,,,,,,,,,,,,,,,,,,,,,,,,760.6290722005069,None,,,,,,,,,,,,,,,,,,,,,,,,,,,,,,,,,,,hotel,48,90,silent,blue,758.6139275003225,None,None,758.6139275003225,None,,,,,,,,,,,,,,,,,,,,,,,,,,,,,,73YA,001,2023_May_05_1023,ExactRep-v3-final,2021.2.3,60.08903967962311,
,,,,,,,,90,0,90,0,,,,,,,,,,,,,,,,,,,,,,,,,,,,,,,,,,,,,,,,,,,,,,,,,,,,,763.1318137999624,None,,,,,,,,,,,,,,,,,,,,,,,,,,,,,,,,,,,officer,114,91,aloud,red,761.1299585001543,None,None,761.1299585001543,None,,,,,,,,,,,,,,,,,,,,,,,,,,,,,,73YA,001,2023_May_05_1023,ExactRep-v3-final,2021.2.3,60.08903967962311,
,,,,,,,,91,0,91,0,,,,,,,,,,,,,,,,,,,,,,,,,,,,,,,,,,,,,,,,,,,,,,,,,,,,,765.6343462001532,None,,,,,,,,,,,,,,,,,,,,,,,,,,,,,,,,,,,priest,61,92,silent,blue,763.6318822000176,None,None,763.6318822000176,None,,,,,,,,,,,,,,,,,,,,,,,,,,,,,,73YA,001,2023_May_05_1023,ExactRep-v3-final,2021.2.3,60.08903967962311,
,,,,,,,,92,0,92,0,,,,,,,,,,,,,,,,,,,,,,,,,,,,,,,,,,,,,,,,,,,,,,,,,,,,,768.1537268999964,None,,,,,,,,,,,,,,,,,,,,,,,,,,,,,,,,,,,origin,30,93,sing,white,766.1442474005744,None,None,766.1442474005744,None,,,,,,,,,,,,,,,,,,,,,,,,,,,,,,73YA,001,2023_May_05_1023,ExactRep-v3-final,2021.2.3,60.08903967962311,
,,,,,,,,93,0,93,0,,,,,,,,,,,,,,,,,,,,,,,,,,,,,,,,,,,,,,,,,,,,,,,,,,,,,770.656112300232,None,,,,,,,,,,,,,,,,,,,,,,,,,,,,,,,,,,,dollar,108,94,aloud,red,768.6540640005842,None,None,768.6540640005842,None,,,,,,,,,,,,,,,,,,,,,,,,,,,,,,73YA,001,2023_May_05_1023,ExactRep-v3-final,2021.2.3,60.08903967962311,
,,,,,,,,94,0,94,0,,,,,,,,,,,,,,,,,,,,,,,,,,,,,,,,,,,,,,,,,,,,,,,,,,,,,773.1752294003963,None,,,,,,,,,,,,,,,,,,,,,,,,,,,,,,,,,,,custom,38,95,sing,white,771.1621788004413,None,None,771.1621788004413,None,,,,,,,,,,,,,,,,,,,,,,,,,,,,,,73YA,001,2023_May_05_1023,ExactRep-v3-final,2021.2.3,60.08903967962311,
,,,,,,,,95,0,95,0,,,,,,,,,,,,,,,,,,,,,,,,,,,,,,,,,,,,,,,,,,,,,,,,,,,,,775.6778413001448,None,,,,,,,,,,,,,,,,,,,,,,,,,,,,,,,,,,,master,39,96,silent,blue,773.6779286004603,None,None,773.6779286004603,None,,,,,,,,,,,,,,,,,,,,,,,,,,,,,,73YA,001,2023_May_05_1023,ExactRep-v3-final,2021.2.3,60.08903967962311,
,,,,,,,,96,0,96,0,,,,,,,,,,,,,,,,,,,,,,,,,,,,,,,,,,,,,,,,,,,,,,,,,,,,,778.1802241001278,None,,,,,,,,,,,,,,,,,,,,,,,,,,,,,,,,,,,seat,54,97,silent,blue,776.1796809006482,None,None,776.1796809006482,None,,,,,,,,,,,,,,,,,,,,,,,,,,,,,,73YA,001,2023_May_05_1023,ExactRep-v3-final,2021.2.3,60.08903967962311,
,,,,,,,,97,0,97,0,,,,,,,,,,,,,,,,,,,,,,,,,,,,,,,,,,,,,,,,,,,,,,,,,,,,,780.6994158001617,None,,,,,,,,,,,,,,,,,,,,,,,,,,,,,,,,,,,owner,89,98,aloud,red,778.6840027002618,None,None,778.6840027002618,None,,,,,,,,,,,,,,,,,,,,,,,,,,,,,,73YA,001,2023_May_05_1023,ExactRep-v3-final,2021.2.3,60.08903967962311,
,,,,,,,,98,0,98,0,,,,,,,,,,,,,,,,,,,,,,,,,,,,,,,,,,,,,,,,,,,,,,,,,,,,,783.202026700601,None,,,,,,,,,,,,,,,,,,,,,,,,,,,,,,,,,,,form,104,99,aloud,red,781.2009120006114,None,None,781.2009120006114,None,,,,,,,,,,,,,,,,,,,,,,,,,,,,,,73YA,001,2023_May_05_1023,ExactRep-v3-final,2021.2.3,60.08903967962311,
,,,,,,,,99,0,99,0,,,,,,,,,,,,,,,,,,,,,,,,,,,,,,,,,,,,,,,,,,,,,,,,,,,,,785.704427300021,None,,,,,,,,,,,,,,,,,,,,,,,,,,,,,,,,,,,bird,98,100,aloud,red,783.7021462004632,None,None,783.7021462004632,None,,,,,,,,,,,,,,,,,,,,,,,,,,,,,,73YA,001,2023_May_05_1023,ExactRep-v3-final,2021.2.3,60.08903967962311,
,,,,,,,,100,0,100,0,,,,,,,,,,,,,,,,,,,,,,,,,,,,,,,,,,,,,,,,,,,,,,,,,,,,,788.2067519007251,None,,,,,,,,,,,,,,,,,,,,,,,,,,,,,,,,,,,village,17,101,sing,white,786.204734900035,None,None,786.204734900035,None,,,,,,,,,,,,,,,,,,,,,,,,,,,,,,73YA,001,2023_May_05_1023,ExactRep-v3-final,2021.2.3,60.08903967962311,
,,,,,,,,101,0,101,0,,,,,,,,,,,,,,,,,,,,,,,,,,,,,,,,,,,,,,,,,,,,,,,,,,,,,790.709266600199,None,,,,,,,,,,,,,,,,,,,,,,,,,,,,,,,,,,,safety,111,102,aloud,red,788.7092222999781,None,None,788.7092222999781,None,,,,,,,,,,,,,,,,,,,,,,,,,,,,,,73YA,001,2023_May_05_1023,ExactRep-v3-final,2021.2.3,60.08903967962311,
,,,,,,,,102,0,102,0,,,,,,,,,,,,,,,,,,,,,,,,,,,,,,,,,,,,,,,,,,,,,,,,,,,,,793.2119273999706,None,,,,,,,,,,,,,,,,,,,,,,,,,,,,,,,,,,,speech,3,103,sing,white,791.2115536006168,None,None,791.2115536006168,None,,,,,,,,,,,,,,,,,,,,,,,,,,,,,,73YA,001,2023_May_05_1023,ExactRep-v3-final,2021.2.3,60.08903967962311,
,,,,,,,,103,0,103,0,,,,,,,,,,,,,,,,,,,,,,,,,,,,,,,,,,,,,,,,,,,,,,,,,,,,,795.7144047999755,None,,,,,,,,,,,,,,,,,,,,,,,,,,,,,,,,,,,moral,69,104,silent,blue,793.7155098002404,None,None,793.7155098002404,None,,,,,,,,,,,,,,,,,,,,,,,,,,,,,,73YA,001,2023_May_05_1023,ExactRep-v3-final,2021.2.3,60.08903967962311,
,,,,,,,,104,0,104,0,,,,,,,,,,,,,,,,,,,,,,,,,,,,,,,,,,,,,,,,,,,,,,,,,,,,,798.2169123999774,None,,,,,,,,,,,,,,,,,,,,,,,,,,,,,,,,,,,heaven,112,105,aloud,red,796.2177001005039,None,None,796.2177001005039,None,,,,,,,,,,,,,,,,,,,,,,,,,,,,,,73YA,001,2023_May_05_1023,ExactRep-v3-final,2021.2.3,60.08903967962311,
,,,,,,,,105,0,105,0,,,,,,,,,,,,,,,,,,,,,,,,,,,,,,,,,,,,,,,,,,,,,,,,,,,,,800.7359493002295,None,,,,,,,,,,,,,,,,,,,,,,,,,,,,,,,,,,,truth,23,106,sing,white,798.7227739999071,None,None,798.7227739999071,None,,,,,,,,,,,,,,,,,,,,,,,,,,,,,,73YA,001,2023_May_05_1023,ExactRep-v3-final,2021.2.3,60.08903967962311,
,,,,,,,,106,0,106,0,,,,,,,,,,,,,,,,,,,,,,,,,,,,,,,,,,,,,,,,,,,,,,,,,,,,,803.238551300019,None,,,,,,,,,,,,,,,,,,,,,,,,,,,,,,,,,,,leader,113,107,aloud,red,801.2364318007603,None,None,801.2364318007603,None,,,,,,,,,,,,,,,,,,,,,,,,,,,,,,73YA,001,2023_May_05_1023,ExactRep-v3-final,2021.2.3,60.08903967962311,
,,,,,,,,107,0,107,0,,,,,,,,,,,,,,,,,,,,,,,,,,,,,,,,,,,,,,,,,,,,,,,,,,,,,805.7577855000272,None,,,,,,,,,,,,,,,,,,,,,,,,,,,,,,,,,,,salary,4,108,sing,white,803.7458220999688,None,None,803.7458220999688,None,,,,,,,,,,,,,,,,,,,,,,,,,,,,,,73YA,001,2023_May_05_1023,ExactRep-v3-final,2021.2.3,60.08903967962311,
,,,,,,,,108,0,108,0,,,,,,,,,,,,,,,,,,,,,,,,,,,,,,,,,,,,,,,,,,,,,,,,,,,,,808.2768296999857,None,,,,,,,,,,,,,,,,,,,,,,,,,,,,,,,,,,,queen,86,109,aloud,red,806.2680982006714,None,None,806.2680982006714,None,,,,,,,,,,,,,,,,,,,,,,,,,,,,,,73YA,001,2023_May_05_1023,ExactRep-v3-final,2021.2.3,60.08903967962311,
,,,,,,,,109,0,109,0,,,,,,,,,,,,,,,,,,,,,,,,,,,,,,,,,,,,,,,,,,,,,,,,,,,,,810.7961639007553,None,,,,,,,,,,,,,,,,,,,,,,,,,,,,,,,,,,,iron,76,110,silent,blue,808.7832412999123,None,None,808.7832412999123,None,,,,,,,,,,,,,,,,,,,,,,,,,,,,,,73YA,001,2023_May_05_1023,ExactRep-v3-final,2021.2.3,60.08903967962311,
,,,,,,,,110,0,110,0,,,,,,,,,,,,,,,,,,,,,,,,,,,,,,,,,,,,,,,,,,,,,,,,,,,,,813.298790300265,None,,,,,,,,,,,,,,,,,,,,,,,,,,,,,,,,,,,answer,25,111,sing,white,811.297500400804,None,None,811.297500400804,None,,,,,,,,,,,,,,,,,,,,,,,,,,,,,,73YA,001,2023_May_05_1023,ExactRep-v3-final,2021.2.3,60.08903967962311,
,,,,,,,,111,0,111,0,,,,,,,,,,,,,,,,,,,,,,,,,,,,,,,,,,,,,,,,,,,,,,,,,,,,,815.801256400533,None,,,,,,,,,,,,,,,,,,,,,,,,,,,,,,,,,,,love,107,112,aloud,red,813.8010330004618,None,None,813.8010330004618,None,,,,,,,,,,,,,,,,,,,,,,,,,,,,,,73YA,001,2023_May_05_1023,ExactRep-v3-final,2021.2.3,60.08903967962311,
,,,,,,,,112,0,112,0,,,,,,,,,,,,,,,,,,,,,,,,,,,,,,,,,,,,,,,,,,,,,,,,,,,,,818.3200248004869,None,,,,,,,,,,,,,,,,,,,,,,,,,,,,,,,,,,,justice,1,113,sing,white,816.3136857002974,None,None,816.3136857002974,None,,,,,,,,,,,,,,,,,,,,,,,,,,,,,,73YA,001,2023_May_05_1023,ExactRep-v3-final,2021.2.3,60.08903967962311,
,,,,,,,,113,0,113,0,,,,,,,,,,,,,,,,,,,,,,,,,,,,,,,,,,,,,,,,,,,,,,,,,,,,,820.8401634003967,None,,,,,,,,,,,,,,,,,,,,,,,,,,,,,,,,,,,green,103,114,aloud,red,818.8243717001751,None,None,818.8243717001751,None,,,,,,,,,,,,,,,,,,,,,,,,,,,,,,73YA,001,2023_May_05_1023,ExactRep-v3-final,2021.2.3,60.08903967962311,
,,,,,,,,114,0,114,0,,,,,,,,,,,,,,,,,,,,,,,,,,,,,,,,,,,,,,,,,,,,,,,,,,,,,823.3419315004721,None,,,,,,,,,,,,,,,,,,,,,,,,,,,,,,,,,,,skin,115,115,aloud,red,821.33994370047,None,None,821.33994370047,None,,,,,,,,,,,,,,,,,,,,,,,,,,,,,,73YA,001,2023_May_05_1023,ExactRep-v3-final,2021.2.3,60.08903967962311,
,,,,,,,,115,0,115,0,,,,,,,,,,,,,,,,,,,,,,,,,,,,,,,,,,,,,,,,,,,,,,,,,,,,,825.8443991001695,None,,,,,,,,,,,,,,,,,,,,,,,,,,,,,,,,,,,law,83,116,aloud,red,823.8424267005175,None,None,823.8424267005175,None,,,,,,,,,,,,,,,,,,,,,,,,,,,,,,73YA,001,2023_May_05_1023,ExactRep-v3-final,2021.2.3,60.08903967962311,
,,,,,,,,116,0,116,0,,,,,,,,,,,,,,,,,,,,,,,,,,,,,,,,,,,,,,,,,,,,,,,,,,,,,828.3470916002989,None,,,,,,,,,,,,,,,,,,,,,,,,,,,,,,,,,,,mother,5,117,sing,white,826.3465763004497,None,None,826.3465763004497,None,,,,,,,,,,,,,,,,,,,,,,,,,,,,,,73YA,001,2023_May_05_1023,ExactRep-v3-final,2021.2.3,60.08903967962311,
,,,,,,,,117,0,117,0,,,,,,,,,,,,,,,,,,,,,,,,,,,,,,,,,,,,,,,,,,,,,,,,,,,,,830.8496314007789,None,,,,,,,,,,,,,,,,,,,,,,,,,,,,,,,,,,,spirit,58,118,silent,blue,828.8497804999352,None,None,828.8497804999352,None,,,,,,,,,,,,,,,,,,,,,,,,,,,,,,73YA,001,2023_May_05_1023,ExactRep-v3-final,2021.2.3,60.08903967962311,
,,,,,,,,118,0,118,0,,,,,,,,,,,,,,,,,,,,,,,,,,,,,,,,,,,,,,,,,,,,,,,,,,,,,833.3685976006091,None,,,,,,,,,,,,,,,,,,,,,,,,,,,,,,,,,,,garden,13,119,sing,white,831.3561155004427,None,None,831.3561155004427,None,,,,,,,,,,,,,,,,,,,,,,,,,,,,,,73YA,001,2023_May_05_1023,ExactRep-v3-final,2021.2.3,60.08903967962311,
,,,,,,,,119,0,119,0,,,,,,,,,,,,,,,,,,,,,,,,,,,,,,,,,,,,,,,,,,,,,,,,,,,,,835.8710709000006,None,,,,,,,,,,,,,,,,,,,,,,,,,,,,,,,,,,,month,95,120,aloud,red,833.8691422007978,None,None,833.8691422007978,None,,,,,,,,,,,,,,,,,,,,,,,,,,,,,,73YA,001,2023_May_05_1023,ExactRep-v3-final,2021.2.3,60.08903967962311,
,,,,,,,,,,,,,,,,,,,,,,,,,,,,,,,,,,,,,,,,,,,,,,,,,,,,,,,,,,,,,,,,,,,,,,,,,,,,,,,,,,,,,,,,,,,,,,,,,,,,,,,,,,,,,,836.3734480002895,None,space,1.2118532992899418,846.3497287007049,None,,,,,,,,,,,,,,,,,,,,,,,,73YA,001,2023_May_05_1023,ExactRep-v3-final,2021.2.3,60.08903967962311,
,,,,,,,,,,,,,,,,,,,,,,,,,,,,,,,,,,,,,,,,,,,,,,,,,,,,,,,,,,,,,,,,,,,,,,,,,,,,,,,,,,,,,,,,,,,,,,,,,,,,,,,,,,,,,,,,,,,,847.5846139006317,None,space,29.608816700056195,857.5610287003219,None,,,,,,,,,,,,,,,,,,73YA,001,2023_May_05_1023,ExactRep-v3-final,2021.2.3,60.08903967962311,
,,,,,,,,,,,,0,0,0,0,,,,,,,,,,,,,,,,,,,,,,,,,,,,,,,,,,,,,,,,,,,,,,,,,893.2283813003451,None,,,,,,,,,,,,,,,,,,,,,,,,,,,,,,,,,,,,,,,,,,,,,,,,,,,,,,,,,chance,197,1,sing,new,white,887.7218989999965,None,n,887.7218989999965,None,"['n', 'return']","[3.5194477001205087, 5.471465299837291]",887.7218989999965,None,,,73YA,001,2023_May_05_1023,ExactRep-v3-final,2021.2.3,60.08903967962311,
,,,,,,,,,,,,1,0,1,0,,,,,,,,,,,,,,,,,,,,,,,,,,,,,,,,,,,,,,,,,,,,,,,,,898.2501352000982,None,,,,,,,,,,,,,,,,,,,,,,,,,,,,,,,,,,,,,,,,,,,,,,,,,,,,,,,,,coffee,235,2,sing,new,white,893.7396064000204,None,n,893.7396064000204,None,"['n', 'return']","[2.781863199546933, 4.469838200137019]",893.7396064000204,None,,,73YA,001,2023_May_05_1023,ExactRep-v3-final,2021.2.3,60.08903967962311,
,,,,,,,,,,,,2,0,2,0,,,,,,,,,,,,,,,,,,,,,,,,,,,,,,,,,,,,,,,,,,,,,,,,,900.719030899927,None,,,,,,,,,,,,,,,,,,,,,,,,,,,,,,,,,,,,,,,,,,,,,,,,,,,,,,,,,wife,2,3,sing,old,white,898.7593887001276,None,y,898.7593887001276,None,"['y', 'return']","[1.2099312003701925, 1.92216319963336]",898.7593887001276,None,,,73YA,001,2023_May_05_1023,ExactRep-v3-final,2021.2.3,60.08903967962311,
,,,,,,,,,,,,3,0,3,0,,,,,,,,,,,,,,,,,,,,,,,,,,,,,,,,,,,,,,,,,,,,,,,,,904.3228157004341,None,,,,,,,,,,,,,,,,,,,,,,,,,,,,,,,,,,,,,,,,,,,,,,,,,,,,,,,,,horse,66,4,silent,old,blue,901.2237064000219,None,y,901.2237064000219,None,"['y', 'return']","[2.7619066992774606, 3.0657441997900605]",901.2237064000219,None,,,73YA,001,2023_May_05_1023,ExactRep-v3-final,2021.2.3,60.08903967962311,
,,,,,,,,,,,,4,0,4,0,,,,,,,,,,,,,,,,,,,,,,,,,,,,,,,,,,,,,,,,,,,,,,,,,906.0744773000479,None,,,,,,,,,,,,,,,,,,,,,,,,,,,,,,,,,,,,,,,,,,,,,,,,,,,,,,,,,soul,155,5,silent,new,blue,904.830188699998,None,n,904.830188699998,None,"['n', 'return']","[0.9633289007470012, 1.2113867001608014]",904.830188699998,None,,,73YA,001,2023_May_05_1023,ExactRep-v3-final,2021.2.3,60.08903967962311,
,,,,,,,,,,,,5,0,5,0,,,,,,,,,,,,,,,,,,,,,,,,,,,,,,,,,,,,,,,,,,,,,,,,,910.1619812007993,None,,,,,,,,,,,,,,,,,,,,,,,,,,,,,,,,,,,,,,,,,,,,,,,,,,,,,,,,,flower,166,6,aloud,new,red,906.5836412003264,None,n,906.5836412003264,None,"['n', 'return']","[3.3458099998533726, 3.537805300205946]",906.5836412003264,None,,,73YA,001,2023_May_05_1023,ExactRep-v3-final,2021.2.3,60.08903967962311,
,,,,,,,,,,,,6,0,6,0,,,,,,,,,,,,,,,,,,,,,,,,,,,,,,,,,,,,,,,,,,,,,,,,,912.4142190003768,None,,,,,,,,,,,,,,,,,,,,,,,,,,,,,,,,,,,,,,,,,,,,,,,,,,,,,,,,,cattle,214,7,aloud,new,red,910.6692908005789,None,n,910.6692908005789,None,"['n', 'return']","[1.5241647996008396, 1.7081546001136303]",910.6692908005789,None,,,73YA,001,2023_May_05_1023,ExactRep-v3-final,2021.2.3,60.08903967962311,
,,,,,,,,,,,,7,0,7,0,,,,,,,,,,,,,,,,,,,,,,,,,,,,,,,,,,,,,,,,,,,,,,,,,914.0825725002214,None,,,,,,,,,,,,,,,,,,,,,,,,,,,,,,,,,,,,,,,,,,,,,,,,,,,,,,,,,brain,191,8,sing,new,white,912.924267699942,None,n,912.924267699942,None,"['n', 'return']","[0.9330691993236542, 1.1171884993091226]",912.924267699942,None,,,73YA,001,2023_May_05_1023,ExactRep-v3-final,2021.2.3,60.08903967962311,
,,,,,,,,,,,,8,0,8,0,,,,,,,,,,,,,,,,,,,,,,,,,,,,,,,,,,,,,,,,,,,,,,,,,916.101338500157,None,,,,,,,,,,,,,,,,,,,,,,,,,,,,,,,,,,,,,,,,,,,,,,,,,,,,,,,,,wheat,71,9,silent,old,blue,914.5895613003522,None,y,914.5895613003522,None,"['y', 'return']","[1.220171400345862, 1.4760502995923162]",914.5895613003522,None,,,73YA,001,2023_May_05_1023,ExactRep-v3-final,2021.2.3,60.08903967962311,
,,,,,,,,,,,,9,0,9,0,,,,,,,,,,,,,,,,,,,,,,,,,,,,,,,,,,,,,,,,,,,,,,,,,919.0874064005911,None,,,,,,,,,,,,,,,,,,,,,,,,,,,,,,,,,,,,,,,,,,,,,,,,,,,,,,,,,mercy,90,10,aloud,old,red,916.6114594005048,None,y,916.6114594005048,None,"['y', 'return']","[2.2622295999899507, 2.4379268996417522]",916.6114594005048,None,,,73YA,001,2023_May_05_1023,ExactRep-v3-final,2021.2.3,60.08903967962311,
,,,,,,,,,,,,10,0,10,0,,,,,,,,,,,,,,,,,,,,,,,,,,,,,,,,,,,,,,,,,,,,,,,,,920.9228974003345,None,,,,,,,,,,,,,,,,,,,,,,,,,,,,,,,,,,,,,,,,,,,,,,,,,,,,,,,,,world,178,11,aloud,new,red,919.6045775003731,None,n,919.6045775003731,None,"['n', 'return']","[1.1569055002182722, 1.285134700126946]",919.6045775003731,None,,,73YA,001,2023_May_05_1023,ExactRep-v3-final,2021.2.3,60.08903967962311,
,,,,,,,,,,,,11,0,11,0,,,,,,,,,,,,,,,,,,,,,,,,,,,,,,,,,,,,,,,,,,,,,,,,,923.0918022003025,None,,,,,,,,,,,,,,,,,,,,,,,,,,,,,,,,,,,,,,,,,,,,,,,,,,,,,,,,,fun,32,12,sing,old,white,921.4329352006316,None,y,921.4329352006316,None,"['y', 'return']","[1.4247163003310561, 1.6164824003353715]",921.4329352006316,None,,,73YA,001,2023_May_05_1023,ExactRep-v3-final,2021.2.3,60.08903967962311,
,,,,,,,,,,,,12,0,12,0,,,,,,,,,,,,,,,,,,,,,,,,,,,,,,,,,,,,,,,,,,,,,,,,,924.7264339001849,None,,,,,,,,,,,,,,,,,,,,,,,,,,,,,,,,,,,,,,,,,,,,,,,,,,,,,,,,,priest,61,13,silent,old,blue,923.6001482000574,None,y,923.6001482000574,None,"['y', 'return']","[0.9132941998541355, 1.0813231002539396]",923.6001482000574,None,,,73YA,001,2023_May_05_1023,ExactRep-v3-final,2021.2.3,60.08903967962311,
,,,,,,,,,,,,13,0,13,0,,,,,,,,,,,,,,,,,,,,,,,,,,,,,,,,,,,,,,,,,,,,,,,,,928.2133559007198,None,,,,,,,,,,,,,,,,,,,,,,,,,,,,,,,,,,,,,,,,,,,,,,,,,,,,,,,,,dream,97,14,aloud,old,red,925.2365290001035,None,n,925.2365290001035,None,"['n', 'return']","[2.788921500556171, 2.9409370999783278]",925.2365290001035,None,,,73YA,001,2023_May_05_1023,ExactRep-v3-final,2021.2.3,60.08903967962311,
,,,,,,,,,,,,14,0,14,0,,,,,,,,,,,,,,,,,,,,,,,,,,,,,,,,,,,,,,,,,,,,,,,,,929.8483965005726,None,,,,,,,,,,,,,,,,,,,,,,,,,,,,,,,,,,,,,,,,,,,,,,,,,,,,,,,,,village,17,15,sing,old,white,928.7180066006258,None,y,928.7180066006258,None,"['y', 'return']","[0.8914398001506925, 1.0915343007072806]",928.7180066006258,None,,,73YA,001,2023_May_05_1023,ExactRep-v3-final,2021.2.3,60.08903967962311,
,,,,,,,,,,,,15,0,15,0,,,,,,,,,,,,,,,,,,,,,,,,,,,,,,,,,,,,,,,,,,,,,,,,,931.983680699952,None,,,,,,,,,,,,,,,,,,,,,,,,,,,,,,,,,,,,,,,,,,,,,,,,,,,,,,,,,victory,212,16,aloud,new,red,930.3582405000925,None,n,930.3582405000925,None,"['n', 'return']","[1.4432036997750401, 1.5792647991329432]",930.3582405000925,None,,,73YA,001,2023_May_05_1023,ExactRep-v3-final,2021.2.3,60.08903967962311,
,,,,,,,,,,,,16,0,16,0,,,,,,,,,,,,,,,,,,,,,,,,,,,,,,,,,,,,,,,,,,,,,,,,,934.052551000379,None,,,,,,,,,,,,,,,,,,,,,,,,,,,,,,,,,,,,,,,,,,,,,,,,,,,,,,,,,fault,137,17,silent,new,blue,932.4910395005718,None,n,932.4910395005718,None,"['n', 'return']","[1.342395099811256, 1.526409899815917]",932.4910395005718,None,,,73YA,001,2023_May_05_1023,ExactRep-v3-final,2021.2.3,60.08903967962311,
,,,,,,,,,,,,17,0,17,0,,,,,,,,,,,,,,,,,,,,,,,,,,,,,,,,,,,,,,,,,,,,,,,,,935.4873715005815,None,,,,,,,,,,,,,,,,,,,,,,,,,,,,,,,,,,,,,,,,,,,,,,,,,,,,,,,,,hall,237,18,sing,new,white,934.5645385999233,None,n,934.5645385999233,None,"['n', 'return']","[0.7409530002623796, 0.8772180005908012]",934.5645385999233,None,,,73YA,001,2023_May_05_1023,ExactRep-v3-final,2021.2.3,60.08903967962311,
,,,,,,,,,,,,18,0,18,0,,,,,,,,,,,,,,,,,,,,,,,,,,,,,,,,,,,,,,,,,,,,,,,,,937.5394267002121,None,,,,,,,,,,,,,,,,,,,,,,,,,,,,,,,,,,,,,,,,,,,,,,,,,,,,,,,,,disease,194,19,aloud,new,red,935.9993846006691,None,n,935.9993846006691,None,"['n', 'return']","[1.3221878996118903, 1.5060984995216131]",935.9993846006691,None,,,73YA,001,2023_May_05_1023,ExactRep-v3-final,2021.2.3,60.08903967962311,
,,,,,,,,,,,,19,0,19,0,,,,,,,,,,,,,,,,,,,,,,,,,,,,,,,,,,,,,,,,,,,,,,,,,939.4413386005908,None,,,,,,,,,,,,,,,,,,,,,,,,,,,,,,,,,,,,,,,,,,,,,,,,,,,,,,,,,soil,189,20,sing,new,white,938.0529845999554,None,n,938.0529845999554,None,"['n', 'return']","[1.1006306996569037, 1.3483862997964025]",938.0529845999554,None,,,73YA,001,2023_May_05_1023,ExactRep-v3-final,2021.2.3,60.08903967962311,
,,,,,,,,,,,,20,0,20,0,,,,,,,,,,,,,,,,,,,,,,,,,,,,,,,,,,,,,,,,,,,,,,,,,941.4265723004937,None,,,,,,,,,,,,,,,,,,,,,,,,,,,,,,,,,,,,,,,,,,,,,,,,,,,,,,,,,river,154,21,silent,new,blue,939.9491381999105,None,n,939.9491381999105,None,"['n', 'return']","[1.21231700014323, 1.4443413000553846]",939.9491381999105,None,,,73YA,001,2023_May_05_1023,ExactRep-v3-final,2021.2.3,60.08903967962311,
,,,,,,,,,,,,21,0,21,0,,,,,,,,,,,,,,,,,,,,,,,,,,,,,,,,,,,,,,,,,,,,,,,,,942.9115443006158,None,,,,,,,,,,,,,,,,,,,,,,,,,,,,,,,,,,,,,,,,,,,,,,,,,,,,,,,,,grass,65,22,silent,old,blue,941.9365206006914,None,y,941.9365206006914,None,"['y', 'return']","[0.7370720002800226, 0.9290250996127725]",941.9365206006914,None,,,73YA,001,2023_May_05_1023,ExactRep-v3-final,2021.2.3,60.08903967962311,
,,,,,,,,,,,,22,0,22,0,,,,,,,,,,,,,,,,,,,,,,,,,,,,,,,,,,,,,,,,,,,,,,,,,944.6799884000793,None,,,,,,,,,,,,,,,,,,,,,,,,,,,,,,,,,,,,,,,,,,,,,,,,,,,,,,,,,silence,222,23,aloud,new,red,943.4150124005973,None,n,943.4150124005973,None,"['n', 'return']","[1.0825728997588158, 1.2266801996156573]",943.4150124005973,None,,,73YA,001,2023_May_05_1023,ExactRep-v3-final,2021.2.3,60.08903967962311,
,,,,,,,,,,,,23,0,23,0,,,,,,,,,,,,,,,,,,,,,,,,,,,,,,,,,,,,,,,,,,,,,,,,,946.5481912000105,None,,,,,,,,,,,,,,,,,,,,,,,,,,,,,,,,,,,,,,,,,,,,,,,,,,,,,,,,,party,127,24,silent,new,blue,945.1889714999124,None,n,945.1889714999124,None,"['n', 'return']","[1.1485733008012176, 1.3244659006595612]",945.1889714999124,None,,,73YA,001,2023_May_05_1023,ExactRep-v3-final,2021.2.3,60.08903967962311,
,,,,,,,,,,,,24,0,24,0,,,,,,,,,,,,,,,,,,,,,,,,,,,,,,,,,,,,,,,,,,,,,,,,,949.0509596001357,None,,,,,,,,,,,,,,,,,,,,,,,,,,,,,,,,,,,,,,,,,,,,,,,,,,,,,,,,,life,159,25,silent,new,blue,947.0586550999433,None,n,947.0586550999433,None,"['n', 'return']","[1.7907338999211788, 1.9509800001978874]",947.0586550999433,None,,,73YA,001,2023_May_05_1023,ExactRep-v3-final,2021.2.3,60.08903967962311,
,,,,,,,,,,,,25,0,25,0,,,,,,,,,,,,,,,,,,,,,,,,,,,,,,,,,,,,,,,,,,,,,,,,,951.9205078007653,None,,,,,,,,,,,,,,,,,,,,,,,,,,,,,,,,,,,,,,,,,,,,,,,,,,,,,,,,,vision,73,26,silent,old,blue,949.5599121004343,None,n,949.5599121004343,None,"['n', 'return']","[2.1456162007525563, 2.313592000864446]",949.5599121004343,None,,,73YA,001,2023_May_05_1023,ExactRep-v3-final,2021.2.3,60.08903967962311,
,,,,,,,,,,,,26,0,26,0,,,,,,,,,,,,,,,,,,,,,,,,,,,,,,,,,,,,,,,,,,,,,,,,,953.6055984999985,None,,,,,,,,,,,,,,,,,,,,,,,,,,,,,,,,,,,,,,,,,,,,,,,,,,,,,,,,,girl,18,27,sing,old,white,952.4285288006067,None,y,952.4285288006067,None,"['y', 'return']","[0.8690202999860048, 1.1411040993407369]",952.4285288006067,None,,,73YA,001,2023_May_05_1023,ExactRep-v3-final,2021.2.3,60.08903967962311,
,,,,,,,,,,,,27,0,27,0,,,,,,,,,,,,,,,,,,,,,,,,,,,,,,,,,,,,,,,,,,,,,,,,,955.0567095000297,None,,,,,,,,,,,,,,,,,,,,,,,,,,,,,,,,,,,,,,,,,,,,,,,,,,,,,,,,,answer,25,28,sing,old,white,954.1152036003768,None,y,954.1152036003768,None,"['y', 'return']","[0.6304112998768687, 0.8942657997831702]",954.1152036003768,None,,,73YA,001,2023_May_05_1023,ExactRep-v3-final,2021.2.3,60.08903967962311,
,,,,,,,,,,,,28,0,28,0,,,,,,,,,,,,,,,,,,,,,,,,,,,,,,,,,,,,,,,,,,,,,,,,,957.025568600744,None,,,,,,,,,,,,,,,,,,,,,,,,,,,,,,,,,,,,,,,,,,,,,,,,,,,,,,,,,storm,223,29,sing,new,white,955.5607086000964,None,n,955.5607086000964,None,"['n', 'return']","[1.0567693002521992, 1.4248954998329282]",955.5607086000964,None,,,73YA,001,2023_May_05_1023,ExactRep-v3-final,2021.2.3,60.08903967962311,
,,,,,,,,,,,,29,0,29,0,,,,,,,,,,,,,,,,,,,,,,,,,,,,,,,,,,,,,,,,,,,,,,,,,960.9794518006966,None,,,,,,,,,,,,,,,,,,,,,,,,,,,,,,,,,,,,,,,,,,,,,,,,,,,,,,,,,house,181,30,sing,new,white,957.5341720003635,None,n,957.5341720003635,None,"['n', 'return']","[3.0912892995402217, 3.403409699909389]",957.5341720003635,None,,,73YA,001,2023_May_05_1023,ExactRep-v3-final,2021.2.3,60.08903967962311,
,,,,,,,,,,,,30,0,30,0,,,,,,,,,,,,,,,,,,,,,,,,,,,,,,,,,,,,,,,,,,,,,,,,,964.1826578006148,None,,,,,,,,,,,,,,,,,,,,,,,,,,,,,,,,,,,,,,,,,,,,,,,,,,,,,,,,,owner,89,31,aloud,old,red,961.4851360004395,None,y,961.4851360004395,None,"['y', 'return']","[1.460649499669671, 2.6523619992658496]",961.4851360004395,None,,,73YA,001,2023_May_05_1023,ExactRep-v3-final,2021.2.3,60.08903967962311,
,,,,,,,,,,,,31,0,31,0,,,,,,,,,,,,,,,,,,,,,,,,,,,,,,,,,,,,,,,,,,,,,,,,,970.3555606007576,None,,,,,,,,,,,,,,,,,,,,,,,,,,,,,,,,,,,,,,,,,,,,,,,,,,,,,,,,,corner,96,32,aloud,old,red,964.6899065002799,None,n,964.6899065002799,None,"['y', 'backspace', 'n', 'return']","[1.1916001001372933, 2.7197471000254154, 3.351659099571407, 5.623636099509895]",964.6899065002799,None,,,73YA,001,2023_May_05_1023,ExactRep-v3-final,2021.2.3,60.08903967962311,
,,,,,,,,,,,,32,0,32,0,,,,,,,,,,,,,,,,,,,,,,,,,,,,,,,,,,,,,,,,,,,,,,,,,972.1740932008252,None,,,,,,,,,,,,,,,,,,,,,,,,,,,,,,,,,,,,,,,,,,,,,,,,,,,,,,,,,library,132,33,silent,new,blue,970.8597467001528,None,n,970.8597467001528,None,"['n', 'return']","[1.005769900046289, 1.2777447002008557]",970.8597467001528,None,,,73YA,001,2023_May_05_1023,ExactRep-v3-final,2021.2.3,60.08903967962311,
,,,,,,,,,,,,33,0,33,0,,,,,,,,,,,,,,,,,,,,,,,,,,,,,,,,,,,,,,,,,,,,,,,,,973.9591778004542,None,,,,,,,,,,,,,,,,,,,,,,,,,,,,,,,,,,,,,,,,,,,,,,,,,,,,,,,,,custom,38,34,sing,old,white,972.6819971008226,None,y,972.6819971008226,None,"['y', 'return']","[0.8875865004956722, 1.2316377004608512]",972.6819971008226,None,,,73YA,001,2023_May_05_1023,ExactRep-v3-final,2021.2.3,60.08903967962311,
,,,,,,,,,,,,34,0,34,0,,,,,,,,,,,,,,,,,,,,,,,,,,,,,,,,,,,,,,,,,,,,,,,,,978.9643402006477,None,,,,,,,,,,,,,,,,,,,,,,,,,,,,,,,,,,,,,,,,,,,,,,,,,,,,,,,,,hide,50,35,silent,old,blue,974.4635755000636,None,y,974.4635755000636,None,"['n', 'backspace', 'y', 'return']","[2.465841700322926, 4.001936700195074, 4.241939000785351, 4.457875300198793]",974.4635755000636,None,,,73YA,001,2023_May_05_1023,ExactRep-v3-final,2021.2.3,60.08903967962311,
,,,,,,,,,,,,35,0,35,0,,,,,,,,,,,,,,,,,,,,,,,,,,,,,,,,,,,,,,,,,,,,,,,,,980.8326583001763,None,,,,,,,,,,,,,,,,,,,,,,,,,,,,,,,,,,,,,,,,,,,,,,,,,,,,,,,,,breast,19,36,sing,old,white,979.473972200416,None,y,979.473972200416,None,"['y', 'return']","[0.9996290002018213, 1.319561400450766]",979.473972200416,None,,,73YA,001,2023_May_05_1023,ExactRep-v3-final,2021.2.3,60.08903967962311,
,,,,,,,,,,,,36,0,36,0,,,,,,,,,,,,,,,,,,,,,,,,,,,,,,,,,,,,,,,,,,,,,,,,,983.769039100036,None,,,,,,,,,,,,,,,,,,,,,,,,,,,,,,,,,,,,,,,,,,,,,,,,,,,,,,,,,series,6,37,sing,old,white,981.3435410000384,None,n,981.3435410000384,None,"['n', 'return']","[2.073993599973619, 2.386022599413991]",981.3435410000384,None,,,73YA,001,2023_May_05_1023,ExactRep-v3-final,2021.2.3,60.08903967962311,
,,,,,,,,,,,,37,0,37,0,,,,,,,,,,,,,,,,,,,,,,,,,,,,,,,,,,,,,,,,,,,,,,,,,985.7876419005916,None,,,,,,,,,,,,,,,,,,,,,,,,,,,,,,,,,,,,,,,,,,,,,,,,,,,,,,,,,clock,173,38,sing,new,white,984.2804821999744,None,n,984.2804821999744,None,"['n', 'return']","[1.1530073005706072, 1.4650522004812956]",984.2804821999744,None,,,73YA,001,2023_May_05_1023,ExactRep-v3-final,2021.2.3,60.08903967962311,
,,,,,,,,,,,,38,0,38,0,,,,,,,,,,,,,,,,,,,,,,,,,,,,,,,,,,,,,,,,,,,,,,,,,989.0909940004349,None,,,,,,,,,,,,,,,,,,,,,,,,,,,,,,,,,,,,,,,,,,,,,,,,,,,,,,,,,stone,226,39,aloud,new,red,986.297916200012,None,n,986.297916200012,None,"['n', 'return']","[2.5036158999428153, 2.7595725003629923]",986.297916200012,None,,,73YA,001,2023_May_05_1023,ExactRep-v3-final,2021.2.3,60.08903967962311,
,,,,,,,,,,,,39,0,39,0,,,,,,,,,,,,,,,,,,,,,,,,,,,,,,,,,,,,,,,,,,,,,,,,,991.9771132003516,None,,,,,,,,,,,,,,,,,,,,,,,,,,,,,,,,,,,,,,,,,,,,,,,,,,,,,,,,,moment,109,40,aloud,old,red,989.600470200181,None,y,989.600470200181,None,"['y', 'return']","[1.945219200104475, 2.329002800397575]",989.600470200181,None,,,73YA,001,2023_May_05_1023,ExactRep-v3-final,2021.2.3,60.08903967962311,
,,,,,,,,,,,,40,0,40,0,,,,,,,,,,,,,,,,,,,,,,,,,,,,,,,,,,,,,,,,,,,,,,,,,995.1805052002892,None,,,,,,,,,,,,,,,,,,,,,,,,,,,,,,,,,,,,,,,,,,,,,,,,,,,,,,,,,friend,117,41,aloud,old,red,992.4897662000731,None,y,992.4897662000731,None,"['y', 'return']","[2.3677975004538894, 2.6557806003838778]",992.4897662000731,None,,,73YA,001,2023_May_05_1023,ExactRep-v3-final,2021.2.3,60.08903967962311,
,,,,,,,,,,,,41,0,41,0,,,,,,,,,,,,,,,,,,,,,,,,,,,,,,,,,,,,,,,,,,,,,,,,,998.5672317007557,None,,,,,,,,,,,,,,,,,,,,,,,,,,,,,,,,,,,,,,,,,,,,,,,,,,,,,,,,,student,152,42,silent,new,blue,995.6845179004595,None,n,995.6845179004595,None,"['n', 'return']","[2.5170454001054168, 2.8450800999999046]",995.6845179004595,None,,,73YA,001,2023_May_05_1023,ExactRep-v3-final,2021.2.3,60.08903967962311,
,,,,,,,,,,,,42,0,42,0,,,,,,,,,,,,,,,,,,,,,,,,,,,,,,,,,,,,,,,,,,,,,,,,,1000.6720012007281,None,,,,,,,,,,,,,,,,,,,,,,,,,,,,,,,,,,,,,,,,,,,,,,,,,,,,,,,,,fur,135,43,silent,new,blue,999.0755891008303,None,n,999.0755891008303,None,"['n', 'return']","[1.2058317996561527, 1.5578902000561357]",999.0755891008303,None,,,73YA,001,2023_May_05_1023,ExactRep-v3-final,2021.2.3,60.08903967962311,
,,,,,,,,,,,,43,0,43,0,,,,,,,,,,,,,,,,,,,,,,,,,,,,,,,,,,,,,,,,,,,,,,,,,1003.2550739003345,None,,,,,,,,,,,,,,,,,,,,,,,,,,,,,,,,,,,,,,,,,,,,,,,,,,,,,,,,,slave,41,44,silent,old,blue,1001.1991795003414,None,n,1001.1991795003414,None,"['n', 'return']","[1.1784757999703288, 2.0184196000918746]",1001.1991795003414,None,,,73YA,001,2023_May_05_1023,ExactRep-v3-final,2021.2.3,60.08903967962311,
,,,,,,,,,,,,44,0,44,0,,,,,,,,,,,,,,,,,,,,,,,,,,,,,,,,,,,,,,,,,,,,,,,,,1004.9400866003707,None,,,,,,,,,,,,,,,,,,,,,,,,,,,,,,,,,,,,,,,,,,,,,,,,,,,,,,,,,forest,57,45,silent,old,blue,1003.7671330003068,None,y,1003.7671330003068,None,"['y', 'return']","[0.8183663999661803, 1.1383921997621655]",1003.7671330003068,None,,,73YA,001,2023_May_05_1023,ExactRep-v3-final,2021.2.3,60.08903967962311,
,,,,,,,,,,,,45,0,45,0,,,,,,,,,,,,,,,,,,,,,,,,,,,,,,,,,,,,,,,,,,,,,,,,,1007.9931433005258,None,,,,,,,,,,,,,,,,,,,,,,,,,,,,,,,,,,,,,,,,,,,,,,,,,,,,,,,,,plain,120,46,silent,new,blue,1005.4539490006864,None,n,1005.4539490006864,None,"['n', 'return']","[2.1636936999857426, 2.4914881996810436]",1005.4539490006864,None,,,73YA,001,2023_May_05_1023,ExactRep-v3-final,2021.2.3,60.08903967962311,
,,,,,,,,,,,,46,0,46,0,,,,,,,,,,,,,,,,,,,,,,,,,,,,,,,,,,,,,,,,,,,,,,,,,1009.8283063005656,None,,,,,,,,,,,,,,,,,,,,,,,,,,,,,,,,,,,,,,,,,,,,,,,,,,,,,,,,,shore,51,47,silent,old,blue,1008.5004325006157,None,y,1008.5004325006157,None,"['y', 'return']","[0.9090626006945968, 1.2930554999038577]",1008.5004325006157,None,,,73YA,001,2023_May_05_1023,ExactRep-v3-final,2021.2.3,60.08903967962311,
,,,,,,,,,,,,47,0,47,0,,,,,,,,,,,,,,,,,,,,,,,,,,,,,,,,,,,,,,,,,,,,,,,,,1011.5635617002845,None,,,,,,,,,,,,,,,,,,,,,,,,,,,,,,,,,,,,,,,,,,,,,,,,,,,,,,,,,king,136,48,silent,new,blue,1010.3393954001367,None,n,1010.3393954001367,None,"['n', 'return']","[0.8140860004350543, 1.1821107007563114]",1010.3393954001367,None,,,73YA,001,2023_May_05_1023,ExactRep-v3-final,2021.2.3,60.08903967962311,
,,,,,,,,,,,,48,0,48,0,,,,,,,,,,,,,,,,,,,,,,,,,,,,,,,,,,,,,,,,,,,,,,,,,1013.1817474002019,None,,,,,,,,,,,,,,,,,,,,,,,,,,,,,,,,,,,,,,,,,,,,,,,,,,,,,,,,,love,107,49,aloud,old,red,1012.0649941004813,None,y,1012.0649941004813,None,"['y', 'return']","[0.7046068999916315, 1.0724974004551768]",1012.0649941004813,None,,,73YA,001,2023_May_05_1023,ExactRep-v3-final,2021.2.3,60.08903967962311,
,,,,,,,,,,,,49,0,49,0,,,,,,,,,,,,,,,,,,,,,,,,,,,,,,,,,,,,,,,,,,,,,,,,,1014.7832675008103,None,,,,,,,,,,,,,,,,,,,,,,,,,,,,,,,,,,,,,,,,,,,,,,,,,,,,,,,,,tree,47,50,silent,old,blue,1013.6864419002086,None,y,1013.6864419002086,None,"['y', 'return']","[0.7393840998411179, 1.0590952998027205]",1013.6864419002086,None,,,73YA,001,2023_May_05_1023,ExactRep-v3-final,2021.2.3,60.08903967962311,
,,,,,,,,,,,,50,0,50,0,,,,,,,,,,,,,,,,,,,,,,,,,,,,,,,,,,,,,,,,,,,,,,,,,1016.351584800519,None,,,,,,,,,,,,,,,,,,,,,,,,,,,,,,,,,,,,,,,,,,,,,,,,,,,,,,,,,opinion,94,51,aloud,old,red,1015.2994092004374,None,y,1015.2994092004374,None,"['y', 'return']","[0.726231100037694, 1.0142737999558449]",1015.2994092004374,None,,,73YA,001,2023_May_05_1023,ExactRep-v3-final,2021.2.3,60.08903967962311,
,,,,,,,,,,,,51,0,51,0,,,,,,,,,,,,,,,,,,,,,,,,,,,,,,,,,,,,,,,,,,,,,,,,,1018.2869442002848,None,,,,,,,,,,,,,,,,,,,,,,,,,,,,,,,,,,,,,,,,,,,,,,,,,,,,,,,,,product,207,52,sing,new,white,1016.8624562006444,None,n,1016.8624562006444,None,"['n', 'return']","[1.0430139005184174, 1.3870764998719096]",1016.8624562006444,None,,,73YA,001,2023_May_05_1023,ExactRep-v3-final,2021.2.3,60.08903967962311,
,,,,,,,,,,,,52,0,52,0,,,,,,,,,,,,,,,,,,,,,,,,,,,,,,,,,,,,,,,,,,,,,,,,,1021.0395472999662,None,,,,,,,,,,,,,,,,,,,,,,,,,,,,,,,,,,,,,,,,,,,,,,,,,,,,,,,,,board,153,53,silent,new,blue,1018.7978557003662,None,n,1018.7978557003662,None,"['n', 'return']","[1.931724900379777, 2.1957504004240036]",1018.7978557003662,None,,,73YA,001,2023_May_05_1023,ExactRep-v3-final,2021.2.3,60.08903967962311,
,,,,,,,,,,,,53,0,53,0,,,,,,,,,,,,,,,,,,,,,,,,,,,,,,,,,,,,,,,,,,,,,,,,,1022.8246483001858,None,,,,,,,,,,,,,,,,,,,,,,,,,,,,,,,,,,,,,,,,,,,,,,,,,,,,,,,,,woman,238,54,aloud,new,red,1021.5471051000059,None,y,1021.5471051000059,None,"['y', 'return']","[0.9984421003609896, 1.238472499884665]",1021.5471051000059,None,,,73YA,001,2023_May_05_1023,ExactRep-v3-final,2021.2.3,60.08903967962311,
,,,,,,,,,,,,54,0,54,0,,,,,,,,,,,,,,,,,,,,,,,,,,,,,,,,,,,,,,,,,,,,,,,,,1024.4596291007474,None,,,,,,,,,,,,,,,,,,,,,,,,,,,,,,,,,,,,,,,,,,,,,,,,,,,,,,,,,coin,213,55,sing,new,white,1023.3366680005565,None,n,1023.3366680005565,None,"['n', 'return']","[0.8248271001502872, 1.0888446001335979]",1023.3366680005565,None,,,73YA,001,2023_May_05_1023,ExactRep-v3-final,2021.2.3,60.08903967962311,
,,,,,,,,,,,,55,0,55,0,,,,,,,,,,,,,,,,,,,,,,,,,,,,,,,,,,,,,,,,,,,,,,,,,1026.4949842002243,None,,,,,,,,,,,,,,,,,,,,,,,,,,,,,,,,,,,,,,,,,,,,,,,,,,,,,,,,,thought,105,56,aloud,old,red,1024.9682849003002,None,n,1024.9682849003002,None,"['n', 'return']","[1.2492826003581285, 1.481330799870193]",1024.9682849003002,None,,,73YA,001,2023_May_05_1023,ExactRep-v3-final,2021.2.3,60.08903967962311,
,,,,,,,,,,,,56,0,56,0,,,,,,,,,,,,,,,,,,,,,,,,,,,,,,,,,,,,,,,,,,,,,,,,,1029.5147707005963,None,,,,,,,,,,,,,,,,,,,,,,,,,,,,,,,,,,,,,,,,,,,,,,,,,,,,,,,,,colony,74,57,silent,old,blue,1027.0042013004422,None,n,1027.0042013004422,None,"['n', 'return']","[2.1813789000734687, 2.4694699998945]",1027.0042013004422,None,,,73YA,001,2023_May_05_1023,ExactRep-v3-final,2021.2.3,60.08903967962311,
,,,,,,,,,,,,57,0,57,0,,,,,,,,,,,,,,,,,,,,,,,,,,,,,,,,,,,,,,,,,,,,,,,,,1035.3372354004532,None,,,,,,,,,,,,,,,,,,,,,,,,,,,,,,,,,,,,,,,,,,,,,,,,,,,,,,,,,insect,80,58,aloud,old,red,1030.027093200013,None,n,1030.027093200013,None,"['n', 'return']","[3.990552400238812, 5.2784854006022215]",1030.027093200013,None,,,73YA,001,2023_May_05_1023,ExactRep-v3-final,2021.2.3,60.08903967962311,
,,,,,,,,,,,,58,0,58,0,,,,,,,,,,,,,,,,,,,,,,,,,,,,,,,,,,,,,,,,,,,,,,,,,1036.9054644005373,None,,,,,,,,,,,,,,,,,,,,,,,,,,,,,,,,,,,,,,,,,,,,,,,,,,,,,,,,,style,106,59,aloud,old,red,1035.8375797001645,None,y,1035.8375797001645,None,"['y', 'return']","[0.708007300272584, 1.0199996000155807]",1035.8375797001645,None,,,73YA,001,2023_May_05_1023,ExactRep-v3-final,2021.2.3,60.08903967962311,
,,,,,,,,,,,,59,0,59,0,,,,,,,,,,,,,,,,,,,,,,,,,,,,,,,,,,,,,,,,,,,,,,,,,1039.5748252002522,None,,,,,,,,,,,,,,,,,,,,,,,,,,,,,,,,,,,,,,,,,,,,,,,,,,,,,,,,,bowl,185,60,sing,new,white,1037.4140415005386,None,n,1037.4140415005386,None,"['n', 'return']","[1.8595718005672097, 2.123585100285709]",1037.4140415005386,None,,,73YA,001,2023_May_05_1023,ExactRep-v3-final,2021.2.3,60.08903967962311,
,,,,,,,,,,,,60,0,60,0,,,,,,,,,,,,,,,,,,,,,,,,,,,,,,,,,,,,,,,,,,,,,,,,,1041.292926300317,None,,,,,,,,,,,,,,,,,,,,,,,,,,,,,,,,,,,,,,,,,,,,,,,,,,,,,,,,,boy,124,61,silent,new,blue,1040.0838748002425,None,n,1040.0838748002425,None,"['n', 'return']","[0.8617016999050975, 1.1656526001170278]",1040.0838748002425,None,,,73YA,001,2023_May_05_1023,ExactRep-v3-final,2021.2.3,60.08903967962311,
,,,,,,,,,,,,61,0,61,0,,,,,,,,,,,,,,,,,,,,,,,,,,,,,,,,,,,,,,,,,,,,,,,,,1042.9783241003752,None,,,,,,,,,,,,,,,,,,,,,,,,,,,,,,,,,,,,,,,,,,,,,,,,,,,,,,,,,pole,81,62,aloud,old,red,1041.8006840003654,None,y,1041.8006840003654,None,"['y', 'return']","[0.864890399388969, 1.1448467997834086]",1041.8006840003654,None,,,73YA,001,2023_May_05_1023,ExactRep-v3-final,2021.2.3,60.08903967962311,
,,,,,,,,,,,,62,0,62,0,,,,,,,,,,,,,,,,,,,,,,,,,,,,,,,,,,,,,,,,,,,,,,,,,1045.4306240007281,None,,,,,,,,,,,,,,,,,,,,,,,,,,,,,,,,,,,,,,,,,,,,,,,,,,,,,,,,,coast,146,63,silent,new,blue,1043.4902974003926,None,n,1043.4902974003926,None,"['n', 'return']","[1.6152661005035043, 1.9033039007335901]",1043.4902974003926,None,,,73YA,001,2023_May_05_1023,ExactRep-v3-final,2021.2.3,60.08903967962311,
,,,,,,,,,,,,63,0,63,0,,,,,,,,,,,,,,,,,,,,,,,,,,,,,,,,,,,,,,,,,,,,,,,,,1047.1824093004689,None,,,,,,,,,,,,,,,,,,,,,,,,,,,,,,,,,,,,,,,,,,,,,,,,,,,,,,,,,lad,139,64,silent,new,blue,1045.9361253008246,None,n,1045.9361253008246,None,"['n', 'return']","[0.8896448006853461, 1.2095892000943422]",1045.9361253008246,None,,,73YA,001,2023_May_05_1023,ExactRep-v3-final,2021.2.3,60.08903967962311,
,,,,,,,,,,,,64,0,64,0,,,,,,,,,,,,,,,,,,,,,,,,,,,,,,,,,,,,,,,,,,,,,,,,,1050.5191742004827,None,,,,,,,,,,,,,,,,,,,,,,,,,,,,,,,,,,,,,,,,,,,,,,,,,,,,,,,,,anger,141,65,silent,new,blue,1047.6937891002744,None,n,1047.6937891002744,None,"['n', 'return']","[2.5479612993076444, 2.7798166992142797]",1047.6937891002744,None,,,73YA,001,2023_May_05_1023,ExactRep-v3-final,2021.2.3,60.08903967962311,
,,,,,,,,,,,,65,0,65,0,,,,,,,,,,,,,,,,,,,,,,,,,,,,,,,,,,,,,,,,,,,,,,,,,1052.3041711999103,None,,,,,,,,,,,,,,,,,,,,,,,,,,,,,,,,,,,,,,,,,,,,,,,,,,,,,,,,,sky,204,66,aloud,new,red,1051.0278074005619,None,n,1051.0278074005619,None,"['n', 'return']","[0.9898454006761312, 1.2298448998481035]",1051.0278074005619,None,,,73YA,001,2023_May_05_1023,ExactRep-v3-final,2021.2.3,60.08903967962311,
,,,,,,,,,,,,66,0,66,0,,,,,,,,,,,,,,,,,,,,,,,,,,,,,,,,,,,,,,,,,,,,,,,,,1054.1057453006506,None,,,,,,,,,,,,,,,,,,,,,,,,,,,,,,,,,,,,,,,,,,,,,,,,,,,,,,,,,charm,0,67,sing,old,white,1052.81506370008,None,y,1052.81506370008,None,"['y', 'return']","[0.9705571997910738, 1.2506473995745182]",1052.81506370008,None,,,73YA,001,2023_May_05_1023,ExactRep-v3-final,2021.2.3,60.08903967962311,
,,,,,,,,,,,,67,0,67,0,,,,,,,,,,,,,,,,,,,,,,,,,,,,,,,,,,,,,,,,,,,,,,,,,1057.1421615006402,None,,,,,,,,,,,,,,,,,,,,,,,,,,,,,,,,,,,,,,,,,,,,,,,,,,,,,,,,,string,200,68,aloud,new,red,1054.6227191006765,None,n,1054.6227191006765,None,"['n', 'return']","[2.1788488999009132, 2.474784600548446]",1054.6227191006765,None,,,73YA,001,2023_May_05_1023,ExactRep-v3-final,2021.2.3,60.08903967962311,
,,,,,,,,,,,,68,0,68,0,,,,,,,,,,,,,,,,,,,,,,,,,,,,,,,,,,,,,,,,,,,,,,,,,1059.0108381006867,None,,,,,,,,,,,,,,,,,,,,,,,,,,,,,,,,,,,,,,,,,,,,,,,,,,,,,,,,,picture,28,69,sing,old,white,1057.6522303000093,None,y,1057.6522303000093,None,"['y', 'return']","[0.98933030012995, 1.3252790002152324]",1057.6522303000093,None,,,73YA,001,2023_May_05_1023,ExactRep-v3-final,2021.2.3,60.08903967962311,
,,,,,,,,,,,,69,0,69,0,,,,,,,,,,,,,,,,,,,,,,,,,,,,,,,,,,,,,,,,,,,,,,,,,1060.545780800283,None,,,,,,,,,,,,,,,,,,,,,,,,,,,,,,,,,,,,,,,,,,,,,,,,,,,,,,,,,cotton,14,70,sing,old,white,1059.5202027000487,None,y,1059.5202027000487,None,"['y', 'return']","[0.6653871992602944, 0.9853949993848801]",1059.5202027000487,None,,,73YA,001,2023_May_05_1023,ExactRep-v3-final,2021.2.3,60.08903967962311,
,,,,,,,,,,,,70,0,70,0,,,,,,,,,,,,,,,,,,,,,,,,,,,,,,,,,,,,,,,,,,,,,,,,,1062.1306966999546,None,,,,,,,,,,,,,,,,,,,,,,,,,,,,,,,,,,,,,,,,,,,,,,,,,,,,,,,,,troops,175,71,sing,new,white,1061.0504696005955,None,n,1061.0504696005955,None,"['n', 'return']","[0.7671376997604966, 1.0391881000250578]",1061.0504696005955,None,,,73YA,001,2023_May_05_1023,ExactRep-v3-final,2021.2.3,60.08903967962311,
,,,,,,,,,,,,71,0,71,0,,,,,,,,,,,,,,,,,,,,,,,,,,,,,,,,,,,,,,,,,,,,,,,,,1065.0168566005304,None,,,,,,,,,,,,,,,,,,,,,,,,,,,,,,,,,,,,,,,,,,,,,,,,,,,,,,,,,health,157,72,silent,new,blue,1062.641580699943,None,n,1062.641580699943,None,"['n', 'return']","[1.8081412008032203, 2.336036200635135]",1062.641580699943,None,,,73YA,001,2023_May_05_1023,ExactRep-v3-final,2021.2.3,60.08903967962311,
,,,,,,,,,,,,72,0,72,0,,,,,,,,,,,,,,,,,,,,,,,,,,,,,,,,,,,,,,,,,,,,,,,,,1067.035696499981,None,,,,,,,,,,,,,,,,,,,,,,,,,,,,,,,,,,,,,,,,,,,,,,,,,,,,,,,,,valley,190,73,aloud,new,red,1065.5259934999049,None,n,1065.5259934999049,None,"['n', 'return']","[1.12381980009377, 1.4675869001075625]",1065.5259934999049,None,,,73YA,001,2023_May_05_1023,ExactRep-v3-final,2021.2.3,60.08903967962311,
,,,,,,,,,,,,73,0,73,0,,,,,,,,,,,,,,,,,,,,,,,,,,,,,,,,,,,,,,,,,,,,,,,,,1069.221128700301,None,,,,,,,,,,,,,,,,,,,,,,,,,,,,,,,,,,,,,,,,,,,,,,,,,,,,,,,,,water,236,74,aloud,new,red,1067.5454744007438,None,n,1067.5454744007438,None,"['n', 'return']","[1.2881356999278069, 1.640250800177455]",1067.5454744007438,None,,,73YA,001,2023_May_05_1023,ExactRep-v3-final,2021.2.3,60.08903967962311,
,,,,,,,,,,,,74,0,74,0,,,,,,,,,,,,,,,,,,,,,,,,,,,,,,,,,,,,,,,,,,,,,,,,,1070.8061309000477,None,,,,,,,,,,,,,,,,,,,,,,,,,,,,,,,,,,,,,,,,,,,,,,,,,,,,,,,,,amount,22,75,sing,old,white,1069.7283812006935,None,y,1069.7283812006935,None,"['y', 'return']","[0.6892034001648426, 1.0331795001402497]",1069.7283812006935,None,,,73YA,001,2023_May_05_1023,ExactRep-v3-final,2021.2.3,60.08903967962311,
,,,,,,,,,,,,75,0,75,0,,,,,,,,,,,,,,,,,,,,,,,,,,,,,,,,,,,,,,,,,,,,,,,,,1072.3073580004275,None,,,,,,,,,,,,,,,,,,,,,,,,,,,,,,,,,,,,,,,,,,,,,,,,,,,,,,,,,pride,29,76,sing,old,white,1071.3099250001833,None,y,1071.3099250001833,None,"['y', 'return']","[0.6276642996817827, 0.9636459993198514]",1071.3099250001833,None,,,73YA,001,2023_May_05_1023,ExactRep-v3-final,2021.2.3,60.08903967962311,
,,,,,,,,,,,,76,0,76,0,,,,,,,,,,,,,,,,,,,,,,,,,,,,,,,,,,,,,,,,,,,,,,,,,1073.9089790005237,None,,,,,,,,,,,,,,,,,,,,,,,,,,,,,,,,,,,,,,,,,,,,,,,,,,,,,,,,,apple,62,77,silent,old,blue,1072.821061800234,None,n,1072.821061800234,None,"['n', 'return']","[0.7087119994685054, 1.0526564996689558]",1072.821061800234,None,,,73YA,001,2023_May_05_1023,ExactRep-v3-final,2021.2.3,60.08903967962311,
,,,,,,,,,,,,77,0,77,0,,,,,,,,,,,,,,,,,,,,,,,,,,,,,,,,,,,,,,,,,,,,,,,,,1078.6638352004811,None,,,,,,,,,,,,,,,,,,,,,,,,,,,,,,,,,,,,,,,,,,,,,,,,,,,,,,,,,memory,59,78,silent,old,blue,1074.4207816999406,None,n,1074.4207816999406,None,"['n', 'return']","[3.9888312006369233, 4.204864400438964]",1074.4207816999406,None,,,73YA,001,2023_May_05_1023,ExactRep-v3-final,2021.2.3,60.08903967962311,
,,,,,,,,,,,,78,0,78,0,,,,,,,,,,,,,,,,,,,,,,,,,,,,,,,,,,,,,,,,,,,,,,,,,1080.3489236002788,None,,,,,,,,,,,,,,,,,,,,,,,,,,,,,,,,,,,,,,,,,,,,,,,,,,,,,,,,,lake,64,79,silent,old,blue,1079.1764975003898,None,n,1079.1764975003898,None,"['n', 'return']","[0.8732572998851538, 1.1291004996746778]",1079.1764975003898,None,,,73YA,001,2023_May_05_1023,ExactRep-v3-final,2021.2.3,60.08903967962311,
,,,,,,,,,,,,79,0,79,0,,,,,,,,,,,,,,,,,,,,,,,,,,,,,,,,,,,,,,,,,,,,,,,,,1081.9171459004283,None,,,,,,,,,,,,,,,,,,,,,,,,,,,,,,,,,,,,,,,,,,,,,,,,,,,,,,,,,grief,37,80,sing,old,white,1080.8549903007224,None,y,1080.8549903007224,None,"['y', 'return']","[0.7707334002479911, 1.0267957001924515]",1080.8549903007224,None,,,73YA,001,2023_May_05_1023,ExactRep-v3-final,2021.2.3,60.08903967962311,
,,,,,,,,,,,,80,0,80,0,,,,,,,,,,,,,,,,,,,,,,,,,,,,,,,,,,,,,,,,,,,,,,,,,1088.2234728001058,None,,,,,,,,,,,,,,,,,,,,,,,,,,,,,,,,,,,,,,,,,,,,,,,,,,,,,,,,,weapon,206,81,aloud,new,red,1082.429465699941,None,n,1082.429465699941,None,"['return', 'n', 'return']","[4.412207600660622, 4.980241499841213, 5.748253700323403]",1082.429465699941,None,,,73YA,001,2023_May_05_1023,ExactRep-v3-final,2021.2.3,60.08903967962311,
,,,,,,,,,,,,81,0,81,0,,,,,,,,,,,,,,,,,,,,,,,,,,,,,,,,,,,,,,,,,,,,,,,,,1091.6767354002222,None,,,,,,,,,,,,,,,,,,,,,,,,,,,,,,,,,,,,,,,,,,,,,,,,,,,,,,,,,chair,75,82,silent,old,blue,1088.7415225002915,None,y,1088.7415225002915,None,"['y', 'return']","[2.668062699958682, 2.900192099623382]",1088.7415225002915,None,,,73YA,001,2023_May_05_1023,ExactRep-v3-final,2021.2.3,60.08903967962311,
,,,,,,,,,,,,82,0,82,0,,,,,,,,,,,,,,,,,,,,,,,,,,,,,,,,,,,,,,,,,,,,,,,,,1094.2627623006701,None,,,,,,,,,,,,,,,,,,,,,,,,,,,,,,,,,,,,,,,,,,,,,,,,,,,,,,,,,window,60,83,silent,old,blue,1092.181197100319,None,y,1092.181197100319,None,"['y', 'return']","[1.6364700002595782, 2.044426799751818]",1092.181197100319,None,,,73YA,001,2023_May_05_1023,ExactRep-v3-final,2021.2.3,60.08903967962311,
,,,,,,,,,,,,83,0,83,0,,,,,,,,,,,,,,,,,,,,,,,,,,,,,,,,,,,,,,,,,,,,,,,,,1095.7308296002448,None,,,,,,,,,,,,,,,,,,,,,,,,,,,,,,,,,,,,,,,,,,,,,,,,,,,,,,,,,star,126,84,silent,new,blue,1094.772009300068,None,n,1094.772009300068,None,"['n', 'return']","[0.6056933999061584, 0.917633899487555]",1094.772009300068,None,,,73YA,001,2023_May_05_1023,ExactRep-v3-final,2021.2.3,60.08903967962311,
,,,,,,,,,,,,84,0,84,0,,,,,,,,,,,,,,,,,,,,,,,,,,,,,,,,,,,,,,,,,,,,,,,,,1097.4167888006195,None,,,,,,,,,,,,,,,,,,,,,,,,,,,,,,,,,,,,,,,,,,,,,,,,,,,,,,,,,poet,196,85,aloud,new,red,1096.2316455002874,None,n,1096.2316455002874,None,"['n', 'return']","[0.9143116995692253, 1.14598280005157]",1096.2316455002874,None,,,73YA,001,2023_May_05_1023,ExactRep-v3-final,2021.2.3,60.08903967962311,
,,,,,,,,,,,,85,0,85,0,,,,,,,,,,,,,,,,,,,,,,,,,,,,,,,,,,,,,,,,,,,,,,,,,1099.6848501004279,None,,,,,,,,,,,,,,,,,,,,,,,,,,,,,,,,,,,,,,,,,,,,,,,,,,,,,,,,,time,147,86,silent,new,blue,1097.9242657003924,None,n,1097.9242657003924,None,"['n', 'return']","[1.4054249003529549, 1.7173879006877542]",1097.9242657003924,None,,,73YA,001,2023_May_05_1023,ExactRep-v3-final,2021.2.3,60.08903967962311,
,,,,,,,,,,,,86,0,86,0,,,,,,,,,,,,,,,,,,,,,,,,,,,,,,,,,,,,,,,,,,,,,,,,,1103.9055572003126,None,,,,,,,,,,,,,,,,,,,,,,,,,,,,,,,,,,,,,,,,,,,,,,,,,,,,,,,,,temple,119,87,aloud,old,red,1100.195717100054,None,y,1100.195717100054,None,"['y', 'return']","[3.4538997998461127, 3.6778809996321797]",1100.195717100054,None,,,73YA,001,2023_May_05_1023,ExactRep-v3-final,2021.2.3,60.08903967962311,
,,,,,,,,,,,,87,0,87,0,,,,,,,,,,,,,,,,,,,,,,,,,,,,,,,,,,,,,,,,,,,,,,,,,1107.359184000641,None,,,,,,,,,,,,,,,,,,,,,,,,,,,,,,,,,,,,,,,,,,,,,,,,,,,,,,,,,earth,160,88,aloud,new,red,1104.4157775007188,None,y,1104.4157775007188,None,"['y', 'return']","[2.665899599902332, 2.8978960001841187]",1104.4157775007188,None,,,73YA,001,2023_May_05_1023,ExactRep-v3-final,2021.2.3,60.08903967962311,
,,,,,,,,,,,,88,0,88,0,,,,,,,,,,,,,,,,,,,,,,,,,,,,,,,,,,,,,,,,,,,,,,,,,1109.678693400696,None,,,,,,,,,,,,,,,,,,,,,,,,,,,,,,,,,,,,,,,,,,,,,,,,,,,,,,,,,cost,215,89,sing,new,white,1107.8680533999577,None,n,1107.8680533999577,None,"['n', 'return']","[1.4055914003401995, 1.773624800145626]",1107.8680533999577,None,,,73YA,001,2023_May_05_1023,ExactRep-v3-final,2021.2.3,60.08903967962311,
,,,,,,,,,,,,89,0,89,0,,,,,,,,,,,,,,,,,,,,,,,,,,,,,,,,,,,,,,,,,,,,,,,,,1111.5465625999495,None,,,,,,,,,,,,,,,,,,,,,,,,,,,,,,,,,,,,,,,,,,,,,,,,,,,,,,,,,metal,184,90,aloud,new,red,1110.1894918000326,None,n,1110.1894918000326,None,"['n', 'return']","[0.9242393998429179, 1.3161824000999331]",1110.1894918000326,None,,,73YA,001,2023_May_05_1023,ExactRep-v3-final,2021.2.3,60.08903967962311,
,,,,,,,,,,,,90,0,90,0,,,,,,,,,,,,,,,,,,,,,,,,,,,,,,,,,,,,,,,,,,,,,,,,,1113.2984530003741,None,,,,,,,,,,,,,,,,,,,,,,,,,,,,,,,,,,,,,,,,,,,,,,,,,,,,,,,,,glory,224,91,aloud,new,red,1112.0583447003737,None,n,1112.0583447003737,None,"['n', 'return']","[0.887317699380219, 1.2072289995849133]",1112.0583447003737,None,,,73YA,001,2023_May_05_1023,ExactRep-v3-final,2021.2.3,60.08903967962311,
,,,,,,,,,,,,91,0,91,0,,,,,,,,,,,,,,,,,,,,,,,,,,,,,,,,,,,,,,,,,,,,,,,,,1114.9167839000002,None,,,,,,,,,,,,,,,,,,,,,,,,,,,,,,,,,,,,,,,,,,,,,,,,,,,,,,,,,animal,26,92,sing,old,white,1113.8096831003204,None,y,1113.8096831003204,None,"['y', 'return']","[0.7919927006587386, 1.072002500295639]",1113.8096831003204,None,,,73YA,001,2023_May_05_1023,ExactRep-v3-final,2021.2.3,60.08903967962311,
,,,,,,,,,,,,92,0,92,0,,,,,,,,,,,,,,,,,,,,,,,,,,,,,,,,,,,,,,,,,,,,,,,,,1116.7686196006835,None,,,,,,,,,,,,,,,,,,,,,,,,,,,,,,,,,,,,,,,,,,,,,,,,,,,,,,,,,meeting,63,93,silent,old,blue,1115.435853600502,None,n,1115.435853600502,None,"['n', 'return']","[1.0459137000143528, 1.2859038999304175]",1115.435853600502,None,,,73YA,001,2023_May_05_1023,ExactRep-v3-final,2021.2.3,60.08903967962311,
,,,,,,,,,,,,93,0,93,0,,,,,,,,,,,,,,,,,,,,,,,,,,,,,,,,,,,,,,,,,,,,,,,,,1122.4242039006203,None,,,,,,,,,,,,,,,,,,,,,,,,,,,,,,,,,,,,,,,,,,,,,,,,,,,,,,,,,mother,5,94,sing,old,white,1117.2814645003527,None,y,1117.2814645003527,None,"['n', 'backspace', 'y', 'return']","[2.8162641003727913, 3.9362282007932663, 4.3281582007184625, 5.09608650021255]",1117.2814645003527,None,,,73YA,001,2023_May_05_1023,ExactRep-v3-final,2021.2.3,60.08903967962311,
,,,,,,,,,,,,94,0,94,0,,,,,,,,,,,,,,,,,,,,,,,,,,,,,,,,,,,,,,,,,,,,,,,,,1125.7775972001255,None,,,,,,,,,,,,,,,,,,,,,,,,,,,,,,,,,,,,,,,,,,,,,,,,,,,,,,,,,person,208,95,aloud,new,red,1122.9393204003572,None,n,1122.9393204003572,None,"['n', 'return']","[2.5825595995411277, 2.8065019994974136]",1122.9393204003572,None,,,73YA,001,2023_May_05_1023,ExactRep-v3-final,2021.2.3,60.08903967962311,
,,,,,,,,,,,,95,0,95,0,,,,,,,,,,,,,,,,,,,,,,,,,,,,,,,,,,,,,,,,,,,,,,,,,1128.930931800045,None,,,,,,,,,,,,,,,,,,,,,,,,,,,,,,,,,,,,,,,,,,,,,,,,,,,,,,,,,cat,12,96,sing,old,white,1126.2867634007707,None,n,1126.2867634007707,None,"['n', 'return']","[2.0028855996206403, 2.6111688995733857]",1126.2867634007707,None,,,73YA,001,2023_May_05_1023,ExactRep-v3-final,2021.2.3,60.08903967962311,
,,,,,,,,,,,,96,0,96,0,,,,,,,,,,,,,,,,,,,,,,,,,,,,,,,,,,,,,,,,,,,,,,,,,1130.7325861006975,None,,,,,,,,,,,,,,,,,,,,,,,,,,,,,,,,,,,,,,,,,,,,,,,,,,,,,,,,,idea,186,97,aloud,new,red,1129.4394225003198,None,n,1129.4394225003198,None,"['n', 'return']","[0.9863886004313827, 1.2502460004761815]",1129.4394225003198,None,,,73YA,001,2023_May_05_1023,ExactRep-v3-final,2021.2.3,60.08903967962311,
,,,,,,,,,,,,97,0,97,0,,,,,,,,,,,,,,,,,,,,,,,,,,,,,,,,,,,,,,,,,,,,,,,,,1132.2841226002201,None,,,,,,,,,,,,,,,,,,,,,,,,,,,,,,,,,,,,,,,,,,,,,,,,,,,,,,,,,fate,210,98,aloud,new,red,1131.242398400791,None,n,1131.242398400791,None,"['n', 'return']","[0.7032765001058578, 1.0072210002690554]",1131.242398400791,None,,,73YA,001,2023_May_05_1023,ExactRep-v3-final,2021.2.3,60.08903967962311,
,,,,,,,,,,,,98,0,98,0,,,,,,,,,,,,,,,,,,,,,,,,,,,,,,,,,,,,,,,,,,,,,,,,,1134.0356704005972,None,,,,,,,,,,,,,,,,,,,,,,,,,,,,,,,,,,,,,,,,,,,,,,,,,,,,,,,,,salary,4,99,sing,old,white,1132.7953016003594,None,y,1132.7953016003594,None,"['y', 'return']","[0.6785776000469923, 1.206296999938786]",1132.7953016003594,None,,,73YA,001,2023_May_05_1023,ExactRep-v3-final,2021.2.3,60.08903967962311,
,,,,,,,,,,,,99,0,99,0,,,,,,,,,,,,,,,,,,,,,,,,,,,,,,,,,,,,,,,,,,,,,,,,,1135.670668900013,None,,,,,,,,,,,,,,,,,,,,,,,,,,,,,,,,,,,,,,,,,,,,,,,,,,,,,,,,,woods,225,100,sing,new,white,1134.551705300808,None,n,1134.551705300808,None,"['n', 'return']","[0.8178720008581877, 1.0819730004295707]",1134.551705300808,None,,,73YA,001,2023_May_05_1023,ExactRep-v3-final,2021.2.3,60.08903967962311,
,,,,,,,,,,,,100,0,100,0,,,,,,,,,,,,,,,,,,,,,,,,,,,,,,,,,,,,,,,,,,,,,,,,,1137.8231581002474,None,,,,,,,,,,,,,,,,,,,,,,,,,,,,,,,,,,,,,,,,,,,,,,,,,,,,,,,,,lip,33,101,sing,old,white,1136.1797624006867,None,n,1136.1797624006867,None,"['n', 'return']","[1.2779969004914165, 1.6059170002117753]",1136.1797624006867,None,,,73YA,001,2023_May_05_1023,ExactRep-v3-final,2021.2.3,60.08903967962311,
,,,,,,,,,,,,101,0,101,0,,,,,,,,,,,,,,,,,,,,,,,,,,,,,,,,,,,,,,,,,,,,,,,,,1141.2764623006806,None,,,,,,,,,,,,,,,,,,,,,,,,,,,,,,,,,,,,,,,,,,,,,,,,,,,,,,,,,devil,151,102,silent,new,blue,1138.332560600713,None,n,1138.332560600713,None,"['n', 'return']","[2.5489584002643824, 2.9009993001818657]",1138.332560600713,None,,,73YA,001,2023_May_05_1023,ExactRep-v3-final,2021.2.3,60.08903967962311,
,,,,,,,,,,,,102,0,102,0,,,,,,,,,,,,,,,,,,,,,,,,,,,,,,,,,,,,,,,,,,,,,,,,,1143.779002700001,None,,,,,,,,,,,,,,,,,,,,,,,,,,,,,,,,,,,,,,,,,,,,,,,,,,,,,,,,,steam,219,103,sing,new,white,1141.7813308006153,None,n,1141.7813308006153,None,"['n', 'return']","[1.5963113000616431, 1.956372399814427]",1141.7813308006153,None,,,73YA,001,2023_May_05_1023,ExactRep-v3-final,2021.2.3,60.08903967962311,
,,,,,,,,,,,,103,0,103,0,,,,,,,,,,,,,,,,,,,,,,,,,,,,,,,,,,,,,,,,,,,,,,,,,1145.4306176006794,None,,,,,,,,,,,,,,,,,,,,,,,,,,,,,,,,,,,,,,,,,,,,,,,,,,,,,,,,,law,83,104,aloud,old,red,1144.280507599935,None,y,1144.280507599935,None,"['y', 'return']","[0.8170967996120453, 1.1132151000201702]",1144.280507599935,None,,,73YA,001,2023_May_05_1023,ExactRep-v3-final,2021.2.3,60.08903967962311,
,,,,,,,,,,,,104,0,104,0,,,,,,,,,,,,,,,,,,,,,,,,,,,,,,,,,,,,,,,,,,,,,,,,,1147.1656689001247,None,,,,,,,,,,,,,,,,,,,,,,,,,,,,,,,,,,,,,,,,,,,,,,,,,,,,,,,,,car,144,105,silent,new,blue,1145.9492017999291,None,n,1145.9492017999291,None,"['n', 'return']","[0.860550400801003, 1.1724411007016897]",1145.9492017999291,None,,,73YA,001,2023_May_05_1023,ExactRep-v3-final,2021.2.3,60.08903967962311,
,,,,,,,,,,,,105,0,105,0,,,,,,,,,,,,,,,,,,,,,,,,,,,,,,,,,,,,,,,,,,,,,,,,,1151.353183700703,None,,,,,,,,,,,,,,,,,,,,,,,,,,,,,,,,,,,,,,,,,,,,,,,,,,,,,,,,,ocean,79,106,sing,old,white,1147.6764569003135,None,n,1147.6764569003135,None,"['n', 'return']","[1.3573676003143191, 3.63722509983927]",1147.6764569003135,None,,,73YA,001,2023_May_05_1023,ExactRep-v3-final,2021.2.3,60.08903967962311,
,,,,,,,,,,,,106,0,106,0,,,,,,,,,,,,,,,,,,,,,,,,,,,,,,,,,,,,,,,,,,,,,,,,,1153.2218259004876,None,,,,,,,,,,,,,,,,,,,,,,,,,,,,,,,,,,,,,,,,,,,,,,,,,,,,,,,,,fortune,163,107,sing,new,white,1151.857236600481,None,n,1151.857236600481,None,"['n', 'return']","[1.0486182998865843, 1.3285043006762862]",1151.857236600481,None,,,73YA,001,2023_May_05_1023,ExactRep-v3-final,2021.2.3,60.08903967962311,
,,,,,,,,,,,,107,0,107,0,,,,,,,,,,,,,,,,,,,,,,,,,,,,,,,,,,,,,,,,,,,,,,,,,1154.8901342004538,None,,,,,,,,,,,,,,,,,,,,,,,,,,,,,,,,,,,,,,,,,,,,,,,,,,,,,,,,,dawn,31,108,sing,old,white,1153.7301032003015,None,y,1153.7301032003015,None,"['y', 'return']","[0.7915471000596881, 1.1195970000699162]",1153.7301032003015,None,,,73YA,001,2023_May_05_1023,ExactRep-v3-final,2021.2.3,60.08903967962311,
,,,,,,,,,,,,108,0,108,0,,,,,,,,,,,,,,,,,,,,,,,,,,,,,,,,,,,,,,,,,,,,,,,,,1157.8094715001062,None,,,,,,,,,,,,,,,,,,,,,,,,,,,,,,,,,,,,,,,,,,,,,,,,,,,,,,,,,meadow,10,109,sing,old,white,1155.390416700393,None,y,1155.390416700393,None,"['y', 'return']","[2.035333499312401, 2.371442699804902]",1155.390416700393,None,,,73YA,001,2023_May_05_1023,ExactRep-v3-final,2021.2.3,60.08903967962311,
,,,,,,,,,,,,109,0,109,0,,,,,,,,,,,,,,,,,,,,,,,,,,,,,,,,,,,,,,,,,,,,,,,,,1160.478964900598,None,,,,,,,,,,,,,,,,,,,,,,,,,,,,,,,,,,,,,,,,,,,,,,,,,,,,,,,,,engine,36,110,sing,old,white,1158.3136446001008,None,y,1158.3136446001008,None,"['y', 'return']","[1.7761201998218894, 2.128232299350202]",1158.3136446001008,None,,,73YA,001,2023_May_05_1023,ExactRep-v3-final,2021.2.3,60.08903967962311,
,,,,,,,,,,,,110,0,110,0,,,,,,,,,,,,,,,,,,,,,,,,,,,,,,,,,,,,,,,,,,,,,,,,,1162.497731800191,None,,,,,,,,,,,,,,,,,,,,,,,,,,,,,,,,,,,,,,,,,,,,,,,,,,,,,,,,,trouble,91,111,aloud,old,red,1160.989379200153,None,y,1160.989379200153,None,"['y', 'return']","[1.2125573996454477, 1.460254400037229]",1160.989379200153,None,,,73YA,001,2023_May_05_1023,ExactRep-v3-final,2021.2.3,60.08903967962311,
,,,,,,,,,,,,111,0,111,0,,,,,,,,,,,,,,,,,,,,,,,,,,,,,,,,,,,,,,,,,,,,,,,,,1164.1325241001323,None,,,,,,,,,,,,,,,,,,,,,,,,,,,,,,,,,,,,,,,,,,,,,,,,,,,,,,,,,rod,220,112,aloud,new,red,1163.0061431005597,None,n,1163.0061431005597,None,"['n', 'return']","[0.7875735992565751, 1.0914742993190885]",1163.0061431005597,None,,,73YA,001,2023_May_05_1023,ExactRep-v3-final,2021.2.3,60.08903967962311,
,,,,,,,,,,,,112,0,112,0,,,,,,,,,,,,,,,,,,,,,,,,,,,,,,,,,,,,,,,,,,,,,,,,,1166.43493330013,None,,,,,,,,,,,,,,,,,,,,,,,,,,,,,,,,,,,,,,,,,,,,,,,,,,,,,,,,,machine,42,113,silent,old,blue,1164.6424206001684,None,n,1164.6424206001684,None,"['n', 'return']","[1.3352910997346044, 1.7513987999409437]",1164.6424206001684,None,,,73YA,001,2023_May_05_1023,ExactRep-v3-final,2021.2.3,60.08903967962311,
,,,,,,,,,,,,113,0,113,0,,,,,,,,,,,,,,,,,,,,,,,,,,,,,,,,,,,,,,,,,,,,,,,,,1168.270107500255,None,,,,,,,,,,,,,,,,,,,,,,,,,,,,,,,,,,,,,,,,,,,,,,,,,,,,,,,,,effort,172,114,aloud,new,red,1166.9471647003666,None,n,1166.9471647003666,None,"['n', 'return']","[0.9346144003793597, 1.2784438002854586]",1166.9471647003666,None,,,73YA,001,2023_May_05_1023,ExactRep-v3-final,2021.2.3,60.08903967962311,
,,,,,,,,,,,,114,0,114,0,,,,,,,,,,,,,,,,,,,,,,,,,,,,,,,,,,,,,,,,,,,,,,,,,1169.9718767004088,None,,,,,,,,,,,,,,,,,,,,,,,,,,,,,,,,,,,,,,,,,,,,,,,,,,,,,,,,,kiss,158,115,silent,new,blue,1168.7845927001908,None,n,1168.7845927001908,None,"['n', 'return']","[0.8172428999096155, 1.153125800192356]",1168.7845927001908,None,,,73YA,001,2023_May_05_1023,ExactRep-v3-final,2021.2.3,60.08903967962311,
,,,,,,,,,,,,115,0,115,0,,,,,,,,,,,,,,,,,,,,,,,,,,,,,,,,,,,,,,,,,,,,,,,,,1172.9248171001673,None,,,,,,,,,,,,,,,,,,,,,,,,,,,,,,,,,,,,,,,,,,,,,,,,,,,,,,,,,history,55,116,silent,old,blue,1170.4786641001701,None,y,1170.4786641001701,None,"['y', 'return']","[2.1792106004431844, 2.411068900488317]",1170.4786641001701,None,,,73YA,001,2023_May_05_1023,ExactRep-v3-final,2021.2.3,60.08903967962311,
,,,,,,,,,,,,116,0,116,0,,,,,,,,,,,,,,,,,,,,,,,,,,,,,,,,,,,,,,,,,,,,,,,,,1174.3762172004208,None,,,,,,,,,,,,,,,,,,,,,,,,,,,,,,,,,,,,,,,,,,,,,,,,,,,,,,,,,pupil,56,117,silent,old,blue,1173.4371957005933,None,y,1173.4371957005933,None,"['y', 'return']","[0.6445320006459951, 0.892599300481379]",1173.4371957005933,None,,,73YA,001,2023_May_05_1023,ExactRep-v3-final,2021.2.3,60.08903967962311,
,,,,,,,,,,,,117,0,117,0,,,,,,,,,,,,,,,,,,,,,,,,,,,,,,,,,,,,,,,,,,,,,,,,,1175.894497600384,None,,,,,,,,,,,,,,,,,,,,,,,,,,,,,,,,,,,,,,,,,,,,,,,,,,,,,,,,,author,77,118,silent,old,blue,1174.8951242007315,None,y,1174.8951242007315,None,"['y', 'return']","[0.7305143000558019, 0.9545126995071769]",1174.8951242007315,None,,,73YA,001,2023_May_05_1023,ExactRep-v3-final,2021.2.3,60.08903967962311,
,,,,,,,,,,,,118,0,118,0,,,,,,,,,,,,,,,,,,,,,,,,,,,,,,,,,,,,,,,,,,,,,,,,,1177.996316500008,None,,,,,,,,,,,,,,,,,,,,,,,,,,,,,,,,,,,,,,,,,,,,,,,,,,,,,,,,,present,145,119,silent,new,blue,1176.4073263006285,None,n,1176.4073263006285,None,"['n', 'return']","[1.266453200019896, 1.5463415998965502]",1176.4073263006285,None,,,73YA,001,2023_May_05_1023,ExactRep-v3-final,2021.2.3,60.08903967962311,
,,,,,,,,,,,,119,0,119,0,,,,,,,,,,,,,,,,,,,,,,,,,,,,,,,,,,,,,,,,,,,,,,,,,1179.848378800787,None,,,,,,,,,,,,,,,,,,,,,,,,,,,,,,,,,,,,,,,,,,,,,,,,,,,,,,,,,vessel,217,120,sing,new,white,1178.5050862999633,None,n,1178.5050862999633,None,"['n', 'return']","[0.9925689995288849, 1.296654099598527]",1178.5050862999633,None,,,73YA,001,2023_May_05_1023,ExactRep-v3-final,2021.2.3,60.08903967962311,
,,,,,,,,,,,,120,0,120,0,,,,,,,,,,,,,,,,,,,,,,,,,,,,,,,,,,,,,,,,,,,,,,,,,1181.4002530006692,None,,,,,,,,,,,,,,,,,,,,,,,,,,,,,,,,,,,,,,,,,,,,,,,,,,,,,,,,,pipe,92,121,aloud,old,red,1180.3569110007957,None,y,1180.3569110007957,None,"['y', 'return']","[0.6447456004098058, 0.9968165997415781]",1180.3569110007957,None,,,73YA,001,2023_May_05_1023,ExactRep-v3-final,2021.2.3,60.08903967962311,
,,,,,,,,,,,,121,0,121,0,,,,,,,,,,,,,,,,,,,,,,,,,,,,,,,,,,,,,,,,,,,,,,,,,1183.135158000514,None,,,,,,,,,,,,,,,,,,,,,,,,,,,,,,,,,,,,,,,,,,,,,,,,,,,,,,,,,humour,148,122,silent,new,blue,1181.909705400467,None,n,1181.909705400467,None,"['n', 'return']","[0.8760329997166991, 1.1800373001024127]",1181.909705400467,None,,,73YA,001,2023_May_05_1023,ExactRep-v3-final,2021.2.3,60.08903967962311,
,,,,,,,,,,,,122,0,122,0,,,,,,,,,,,,,,,,,,,,,,,,,,,,,,,,,,,,,,,,,,,,,,,,,1188.2734958007932,None,,,,,,,,,,,,,,,,,,,,,,,,,,,,,,,,,,,,,,,,,,,,,,,,,,,,,,,,,justice,1,123,sing,old,white,1183.6381385000423,None,n,1183.6381385000423,None,"['n', 'return']","[4.3874784000217915, 4.595573900267482]",1183.6381385000423,None,,,73YA,001,2023_May_05_1023,ExactRep-v3-final,2021.2.3,60.08903967962311,
,,,,,,,,,,,,123,0,123,0,,,,,,,,,,,,,,,,,,,,,,,,,,,,,,,,,,,,,,,,,,,,,,,,,1189.841772600077,None,,,,,,,,,,,,,,,,,,,,,,,,,,,,,,,,,,,,,,,,,,,,,,,,,,,,,,,,,boulder,8,124,sing,old,white,1188.7844812003896,None,y,1188.7844812003896,None,"['y', 'return']","[0.7773033995181322, 1.0252503994852304]",1188.7844812003896,None,,,73YA,001,2023_May_05_1023,ExactRep-v3-final,2021.2.3,60.08903967962311,
,,,,,,,,,,,,124,0,124,0,,,,,,,,,,,,,,,,,,,,,,,,,,,,,,,,,,,,,,,,,,,,,,,,,1191.3432545000687,None,,,,,,,,,,,,,,,,,,,,,,,,,,,,,,,,,,,,,,,,,,,,,,,,,,,,,,,,,meat,170,125,aloud,new,red,1190.354871100746,None,n,1190.354871100746,None,"['n', 'return']","[0.7188862999901175, 0.9509090995416045]",1190.354871100746,None,,,73YA,001,2023_May_05_1023,ExactRep-v3-final,2021.2.3,60.08903967962311,
,,,,,,,,,,,,125,0,125,0,,,,,,,,,,,,,,,,,,,,,,,,,,,,,,,,,,,,,,,,,,,,,,,,,1193.295126600191,None,,,,,,,,,,,,,,,,,,,,,,,,,,,,,,,,,,,,,,,,,,,,,,,,,,,,,,,,,teacher,142,126,silent,new,blue,1191.857195400633,None,n,1191.857195400633,None,"['n', 'return']","[1.0247082002460957, 1.3926445003598928]",1191.857195400633,None,,,73YA,001,2023_May_05_1023,ExactRep-v3-final,2021.2.3,60.08903967962311,
,,,,,,,,,,,,126,0,126,0,,,,,,,,,,,,,,,,,,,,,,,,,,,,,,,,,,,,,,,,,,,,,,,,,1196.081308000721,None,,,,,,,,,,,,,,,,,,,,,,,,,,,,,,,,,,,,,,,,,,,,,,,,,,,,,,,,,power,67,127,silent,old,blue,1193.8045778004453,None,n,1193.8045778004453,None,"['n', 'return']","[2.0130622992292047, 2.2291613994166255]",1193.8045778004453,None,,,73YA,001,2023_May_05_1023,ExactRep-v3-final,2021.2.3,60.08903967962311,
,,,,,,,,,,,,127,0,127,0,,,,,,,,,,,,,,,,,,,,,,,,,,,,,,,,,,,,,,,,,,,,,,,,,1197.7830262007192,None,,,,,,,,,,,,,,,,,,,,,,,,,,,,,,,,,,,,,,,,,,,,,,,,,,,,,,,,,wine,27,128,sing,old,white,1196.5912987003103,None,y,1196.5912987003103,None,"['y', 'return']","[0.8265236001461744, 1.1545185996219516]",1196.5912987003103,None,,,73YA,001,2023_May_05_1023,ExactRep-v3-final,2021.2.3,60.08903967962311,
,,,,,,,,,,,,128,0,128,0,,,,,,,,,,,,,,,,,,,,,,,,,,,,,,,,,,,,,,,,,,,,,,,,,1199.3345728004351,None,,,,,,,,,,,,,,,,,,,,,,,,,,,,,,,,,,,,,,,,,,,,,,,,,,,,,,,,,chief,122,129,silent,new,blue,1198.2951009003446,None,n,1198.2951009003446,None,"['n', 'return']","[0.6746111996471882, 0.9947053994983435]",1198.2951009003446,None,,,73YA,001,2023_May_05_1023,ExactRep-v3-final,2021.2.3,60.08903967962311,
,,,,,,,,,,,,129,0,129,0,,,,,,,,,,,,,,,,,,,,,,,,,,,,,,,,,,,,,,,,,,,,,,,,,1201.920332800597,None,,,,,,,,,,,,,,,,,,,,,,,,,,,,,,,,,,,,,,,,,,,,,,,,,,,,,,,,,seat,54,130,silent,old,blue,1199.8416504003108,None,y,1199.8416504003108,None,"['y', 'return']","[1.656098099425435, 2.032187500037253]",1199.8416504003108,None,,,73YA,001,2023_May_05_1023,ExactRep-v3-final,2021.2.3,60.08903967962311,
,,,,,,,,,,,,130,0,130,0,,,,,,,,,,,,,,,,,,,,,,,,,,,,,,,,,,,,,,,,,,,,,,,,,1203.5888326000422,None,,,,,,,,,,,,,,,,,,,,,,,,,,,,,,,,,,,,,,,,,,,,,,,,,,,,,,,,,duty,134,131,silent,new,blue,1202.4293824005872,None,n,1202.4293824005872,None,"['n', 'return']","[0.8526311991736293, 1.124392599798739]",1202.4293824005872,None,,,73YA,001,2023_May_05_1023,ExactRep-v3-final,2021.2.3,60.08903967962311,
