trials_fam.thisRepN,trials_fam.thisTrialN,trials_fam.thisN,trials_fam.thisIndex,trials_prc.thisRepN,trials_prc.thisTrialN,trials_prc.thisN,trials_prc.thisIndex,StudyLoop.thisRepN,StudyLoop.thisTrialN,StudyLoop.thisN,StudyLoop.thisIndex,TestLoop.thisRepN,TestLoop.thisTrialN,TestLoop.thisN,TestLoop.thisIndex,text_colortest.started,text_colortest.stopped,key_colortest.keys,key_colortest.rt,key_colortest.started,key_colortest.stopped,textCondition.started,textCondition.stopped,keyCondition.keys,keyCondition.rt,keyCondition.started,keyCondition.stopped,Condition_between,Condition_counterbal,keyWelcome.keys,keyWelcome.rt,keyWelcome.started,keyWelcome.stopped,welcome_a.started,welcome_a.stopped,welcome_b.started,welcome_b.stopped,welcome_c.started,welcome_c.stopped,welcome_d.started,welcome_d.stopped,welcome_e.started,welcome_e.stopped,welcome_f.started,welcome_f.stopped,key_resp_fam_inst.keys,key_resp_fam_inst.rt,key_resp_fam_inst.started,key_resp_fam_inst.stopped,fam_a.started,fam_a.stopped,fam_b.started,fam_b.stopped,fam_c.started,fam_c.stopped,fam_d.started,fam_d.stopped,fam_e.started,fam_e.stopped,fam_f.started,fam_f.stopped,text_famil.started,text_famil.stopped,textBlank500.started,textBlank500.stopped,key_resp_prc_inst.keys,key_resp_prc_inst.rt,key_resp_prc_inst.started,key_resp_prc_inst.stopped,prac_a.started,prac_a.stopped,prac_b.started,prac_b.stopped,prac_c.started,prac_c.stopped,prac_d.started,prac_d.stopped,prac_e.started,prac_e.stopped,prac_f.started,prac_f.stopped,text_prc_trial.started,text_prc_trial.stopped,key_resp_study_inst.keys,key_resp_study_inst.rt,key_resp_study_inst.started,key_resp_study_inst.stopped,crit_a.started,crit_a.stopped,crit_b.started,crit_b.stopped,crit_c.started,crit_c.stopped,crit_d.started,crit_d.stopped,crit_e.started,crit_e.stopped,crit_f.started,crit_f.stopped,study_word,study_num,study_order,study_type,word_color,textStudy.started,textStudy.stopped,keyStudy.keys,keyStudy.started,keyStudy.stopped,post_study.started,post_study.stopped,key_resp_post_study.keys,key_resp_post_study.rt,key_resp_post_study.started,key_resp_post_study.stopped,test_inst.started,test_inst.stopped,key_resp_test_inst.keys,key_resp_test_inst.rt,key_resp_test_inst.started,key_resp_test_inst.stopped,test_word,test_num,test_order,test_condition,old_new_test,word_color_test,textConf.started,textConf.stopped,Participant Response,textInput.started,textInput.stopped,keyResp.keys,keyResp.rt,keyResp.started,keyResp.stopped,textEnd.started,textEnd.stopped,participant,session,date,expName,psychopyVersion,frameRate,
,,,,,,,,,,,,,,,,18.651538399979472,None,y,2.9541687993332744,18.651538399979472,None,,,,,,,,,,,,,,,,,,,,,,,,,,,,,,,,,,,,,,,,,,,,,,,,,,,,,,,,,,,,,,,,,,,,,,,,,,,,,,,,,,,,,,,,,,,,,,,,,,,,,,,,,,,,,,,,,,,,,,74YB,001,2023_May_05_1050,ExactRep-v3-final,2021.2.3,59.93698226542875,
,,,,,,,,,,,,,,,,,,,,,,21.630615999922156,None,b,0.5750740999355912,21.630615999922156,None,,,,,,,,,,,,,,,,,,,,,,,,,,,,,,,,,,,,,,,,,,,,,,,,,,,,,,,,,,,,,,,,,,,,,,,,,,,,,,,,,,,,,,,,,,,,,,,,,,,,,,,,,,,,,,,,74YB,001,2023_May_05_1050,ExactRep-v3-final,2021.2.3,59.93698226542875,
,,,,,,,,,,,,,,,,,,,,,,,,,,,,colorfoils,b,space,614.9708003997803,32.331539100036025,None,,,,,,,,,,,,,,,,,,,,,,,,,,,,,,,,,,,,,,,,,,,,,,,,,,,,,,,,,,,,,,,,,,,,,,,,,,,,,,,,,,,,,,,,,,,,,,,,,,,,,,,,,,74YB,001,2023_May_05_1050,ExactRep-v3-final,2021.2.3,59.93698226542875,
,,,,,,,,,,,,,,,,,,,,,,,,,,,,,,,,,,22.381266799755394,None,22.381266799755394,None,22.381266799755394,None,22.381266799755394,None,22.381266799755394,None,22.381266799755394,None,space,15.038188999518752,657.4963878998533,None,,,,,,,,,,,,,,,,,,,,,,,,,,,,,,,,,,,,,,,,,,,,,,,,,,,,,,,,,,,,,,,,,,,,,,,,,,,,,,,,,,,,,,,,,,74YB,001,2023_May_05_1050,ExactRep-v3-final,2021.2.3,59.93698226542875,
0,0,0,0,,,,,,,,,,,,,,,,,,,,,,,,,,,,,,,,,,,,,,,,,,,,,,,647.4836908997968,None,647.4836908997968,None,647.4836908997968,None,647.4836908997968,None,647.4836908997968,None,647.4836908997968,None,672.6119667999446,None,674.6168775996193,None,,,,,,,,,,,,,,,,,,,,,,,,,,,,,,,,,,,,,,,,,,,,,,,,,,,,,,,,,,,,,,,,,,,,,,,,,,74YB,001,2023_May_05_1050,ExactRep-v3-final,2021.2.3,59.93698226542875,
1,0,1,0,,,,,,,,,,,,,,,,,,,,,,,,,,,,,,,,,,,,,,,,,,,,,,,,,,,,,,,,,,,675.1415195995942,None,677.1361095998436,None,,,,,,,,,,,,,,,,,,,,,,,,,,,,,,,,,,,,,,,,,,,,,,,,,,,,,,,,,,,,,,,,,,,,,,,,,,74YB,001,2023_May_05_1050,ExactRep-v3-final,2021.2.3,59.93698226542875,
2,0,2,0,,,,,,,,,,,,,,,,,,,,,,,,,,,,,,,,,,,,,,,,,,,,,,,,,,,,,,,,,,,677.6367514003068,None,679.6382050001994,None,,,,,,,,,,,,,,,,,,,,,,,,,,,,,,,,,,,,,,,,,,,,,,,,,,,,,,,,,,,,,,,,,,,,,,,,,,74YB,001,2023_May_05_1050,ExactRep-v3-final,2021.2.3,59.93698226542875,
3,0,3,0,,,,,,,,,,,,,,,,,,,,,,,,,,,,,,,,,,,,,,,,,,,,,,,,,,,,,,,,,,,680.1451693996787,None,682.1580785997212,None,,,,,,,,,,,,,,,,,,,,,,,,,,,,,,,,,,,,,,,,,,,,,,,,,,,,,,,,,,,,,,,,,,,,,,,,,,74YB,001,2023_May_05_1050,ExactRep-v3-final,2021.2.3,59.93698226542875,
4,0,4,0,,,,,,,,,,,,,,,,,,,,,,,,,,,,,,,,,,,,,,,,,,,,,,,,,,,,,,,,,,,682.6582626001909,None,684.6605388997123,None,,,,,,,,,,,,,,,,,,,,,,,,,,,,,,,,,,,,,,,,,,,,,,,,,,,,,,,,,,,,,,,,,,,,,,,,,,74YB,001,2023_May_05_1050,ExactRep-v3-final,2021.2.3,59.93698226542875,
5,0,5,0,,,,,,,,,,,,,,,,,,,,,,,,,,,,,,,,,,,,,,,,,,,,,,,,,,,,,,,,,,,685.1607965994626,None,687.1630684994161,None,,,,,,,,,,,,,,,,,,,,,,,,,,,,,,,,,,,,,,,,,,,,,,,,,,,,,,,,,,,,,,,,,,,,,,,,,,74YB,001,2023_May_05_1050,ExactRep-v3-final,2021.2.3,59.93698226542875,
6,0,6,0,,,,,,,,,,,,,,,,,,,,,,,,,,,,,,,,,,,,,,,,,,,,,,,,,,,,,,,,,,,687.673855099827,None,689.6818386996165,None,,,,,,,,,,,,,,,,,,,,,,,,,,,,,,,,,,,,,,,,,,,,,,,,,,,,,,,,,,,,,,,,,,,,,,,,,,74YB,001,2023_May_05_1050,ExactRep-v3-final,2021.2.3,59.93698226542875,
7,0,7,0,,,,,,,,,,,,,,,,,,,,,,,,,,,,,,,,,,,,,,,,,,,,,,,,,,,,,,,,,,,690.1825824994594,None,692.1844549998641,None,,,,,,,,,,,,,,,,,,,,,,,,,,,,,,,,,,,,,,,,,,,,,,,,,,,,,,,,,,,,,,,,,,,,,,,,,,74YB,001,2023_May_05_1050,ExactRep-v3-final,2021.2.3,59.93698226542875,
8,0,8,0,,,,,,,,,,,,,,,,,,,,,,,,,,,,,,,,,,,,,,,,,,,,,,,,,,,,,,,,,,,692.6849349001423,None,694.6870582001284,None,,,,,,,,,,,,,,,,,,,,,,,,,,,,,,,,,,,,,,,,,,,,,,,,,,,,,,,,,,,,,,,,,,,,,,,,,,74YB,001,2023_May_05_1050,ExactRep-v3-final,2021.2.3,59.93698226542875,
9,0,9,0,,,,,,,,,,,,,,,,,,,,,,,,,,,,,,,,,,,,,,,,,,,,,,,,,,,,,,,,,,,695.1918484997004,None,697.2060696994886,None,,,,,,,,,,,,,,,,,,,,,,,,,,,,,,,,,,,,,,,,,,,,,,,,,,,,,,,,,,,,,,,,,,,,,,,,,,74YB,001,2023_May_05_1050,ExactRep-v3-final,2021.2.3,59.93698226542875,
10,0,10,0,,,,,,,,,,,,,,,,,,,,,,,,,,,,,,,,,,,,,,,,,,,,,,,,,,,,,,,,,,,697.7066406998783,None,699.7085819002241,None,,,,,,,,,,,,,,,,,,,,,,,,,,,,,,,,,,,,,,,,,,,,,,,,,,,,,,,,,,,,,,,,,,,,,,,,,,74YB,001,2023_May_05_1050,ExactRep-v3-final,2021.2.3,59.93698226542875,
11,0,11,0,,,,,,,,,,,,,,,,,,,,,,,,,,,,,,,,,,,,,,,,,,,,,,,,,,,,,,,,,,,700.2097699996084,None,702.2110931994393,None,,,,,,,,,,,,,,,,,,,,,,,,,,,,,,,,,,,,,,,,,,,,,,,,,,,,,,,,,,,,,,,,,,,,,,,,,,74YB,001,2023_May_05_1050,ExactRep-v3-final,2021.2.3,59.93698226542875,
12,0,12,0,,,,,,,,,,,,,,,,,,,,,,,,,,,,,,,,,,,,,,,,,,,,,,,,,,,,,,,,,,,702.7116050999612,None,704.7139806002378,None,,,,,,,,,,,,,,,,,,,,,,,,,,,,,,,,,,,,,,,,,,,,,,,,,,,,,,,,,,,,,,,,,,,,,,,,,,74YB,001,2023_May_05_1050,ExactRep-v3-final,2021.2.3,59.93698226542875,
13,0,13,0,,,,,,,,,,,,,,,,,,,,,,,,,,,,,,,,,,,,,,,,,,,,,,,,,,,,,,,,,,,705.2169434996322,None,707.2164600994438,None,,,,,,,,,,,,,,,,,,,,,,,,,,,,,,,,,,,,,,,,,,,,,,,,,,,,,,,,,,,,,,,,,,,,,,,,,,74YB,001,2023_May_05_1050,ExactRep-v3-final,2021.2.3,59.93698226542875,
14,0,14,0,,,,,,,,,,,,,,,,,,,,,,,,,,,,,,,,,,,,,,,,,,,,,,,,,,,,,,,,,,,707.7196594001725,None,709.735189399682,None,,,,,,,,,,,,,,,,,,,,,,,,,,,,,,,,,,,,,,,,,,,,,,,,,,,,,,,,,,,,,,,,,,,,,,,,,,74YB,001,2023_May_05_1050,ExactRep-v3-final,2021.2.3,59.93698226542875,
,,,,,,,,,,,,,,,,,,,,,,,,,,,,,,,,,,,,,,,,,,,,,,,,,,,,,,,,,,,,,,,,,,space,14.867953900247812,720.3623289996758,None,,,,,,,,,,,,,,,,,,,,,,,,,,,,,,,,,,,,,,,,,,,,,,,,,,,,,,,,,,,,,,,,,,,,,,74YB,001,2023_May_05_1050,ExactRep-v3-final,2021.2.3,59.93698226542875,
,,,,0,0,0,0,,,,,,,,,,,,,,,,,,,,,,,,,,,,,,,,,,,,,,,,,,,,,,,,,,,,,,,,,737.3295088997111,None,,,,,710.3839820995927,None,710.3839820995927,None,710.3839820995927,None,710.3839820995927,None,710.3839820995927,None,710.3839820995927,None,735.3277049995959,None,,,,,,,,,,,,,,,,,,,,,,,,,,,,,,,,,,,,,,,,,,,,,,,,,,,,,,,,74YB,001,2023_May_05_1050,ExactRep-v3-final,2021.2.3,59.93698226542875,
,,,,1,0,1,0,,,,,,,,,,,,,,,,,,,,,,,,,,,,,,,,,,,,,,,,,,,,,,,,,,,,,,,,,739.8318862002343,None,,,,,,,,,,,,,,,,,737.8302525999025,None,,,,,,,,,,,,,,,,,,,,,,,,,,,,,,,,,,,,,,,,,,,,,,,,,,,,,,,,74YB,001,2023_May_05_1050,ExactRep-v3-final,2021.2.3,59.93698226542875,
,,,,2,0,2,0,,,,,,,,,,,,,,,,,,,,,,,,,,,,,,,,,,,,,,,,,,,,,,,,,,,,,,,,,742.3347493000329,None,,,,,,,,,,,,,,,,,740.332780700177,None,,,,,,,,,,,,,,,,,,,,,,,,,,,,,,,,,,,,,,,,,,,,,,,,,,,,,,,,74YB,001,2023_May_05_1050,ExactRep-v3-final,2021.2.3,59.93698226542875,
,,,,3,0,3,0,,,,,,,,,,,,,,,,,,,,,,,,,,,,,,,,,,,,,,,,,,,,,,,,,,,,,,,,,744.837241999805,None,,,,,,,,,,,,,,,,,742.835226399824,None,,,,,,,,,,,,,,,,,,,,,,,,,,,,,,,,,,,,,,,,,,,,,,,,,,,,,,,,74YB,001,2023_May_05_1050,ExactRep-v3-final,2021.2.3,59.93698226542875,
,,,,4,0,4,0,,,,,,,,,,,,,,,,,,,,,,,,,,,,,,,,,,,,,,,,,,,,,,,,,,,,,,,,,747.3395836995915,None,,,,,,,,,,,,,,,,,745.3377284994349,None,,,,,,,,,,,,,,,,,,,,,,,,,,,,,,,,,,,,,,,,,,,,,,,,,,,,,,,,74YB,001,2023_May_05_1050,ExactRep-v3-final,2021.2.3,59.93698226542875,
,,,,5,0,5,0,,,,,,,,,,,,,,,,,,,,,,,,,,,,,,,,,,,,,,,,,,,,,,,,,,,,,,,,,749.8422643002123,None,,,,,,,,,,,,,,,,,747.8402226995677,None,,,,,,,,,,,,,,,,,,,,,,,,,,,,,,,,,,,,,,,,,,,,,,,,,,,,,,,,74YB,001,2023_May_05_1050,ExactRep-v3-final,2021.2.3,59.93698226542875,
,,,,6,0,6,0,,,,,,,,,,,,,,,,,,,,,,,,,,,,,,,,,,,,,,,,,,,,,,,,,,,,,,,,,752.344765599817,None,,,,,,,,,,,,,,,,,750.3428163994104,None,,,,,,,,,,,,,,,,,,,,,,,,,,,,,,,,,,,,,,,,,,,,,,,,,,,,,,,,74YB,001,2023_May_05_1050,ExactRep-v3-final,2021.2.3,59.93698226542875,
,,,,7,0,7,0,,,,,,,,,,,,,,,,,,,,,,,,,,,,,,,,,,,,,,,,,,,,,,,,,,,,,,,,,754.8472395995632,None,,,,,,,,,,,,,,,,,752.8453132994473,None,,,,,,,,,,,,,,,,,,,,,,,,,,,,,,,,,,,,,,,,,,,,,,,,,,,,,,,,74YB,001,2023_May_05_1050,ExactRep-v3-final,2021.2.3,59.93698226542875,
,,,,8,0,8,0,,,,,,,,,,,,,,,,,,,,,,,,,,,,,,,,,,,,,,,,,,,,,,,,,,,,,,,,,757.3497353997082,None,,,,,,,,,,,,,,,,,755.3477950999513,None,,,,,,,,,,,,,,,,,,,,,,,,,,,,,,,,,,,,,,,,,,,,,,,,,,,,,,,,74YB,001,2023_May_05_1050,ExactRep-v3-final,2021.2.3,59.93698226542875,
,,,,9,0,9,0,,,,,,,,,,,,,,,,,,,,,,,,,,,,,,,,,,,,,,,,,,,,,,,,,,,,,,,,,759.852452499792,None,,,,,,,,,,,,,,,,,757.850256100297,None,,,,,,,,,,,,,,,,,,,,,,,,,,,,,,,,,,,,,,,,,,,,,,,,,,,,,,,,74YB,001,2023_May_05_1050,ExactRep-v3-final,2021.2.3,59.93698226542875,
,,,,10,0,10,0,,,,,,,,,,,,,,,,,,,,,,,,,,,,,,,,,,,,,,,,,,,,,,,,,,,,,,,,,762.3548093000427,None,,,,,,,,,,,,,,,,,760.3527616001666,None,,,,,,,,,,,,,,,,,,,,,,,,,,,,,,,,,,,,,,,,,,,,,,,,,,,,,,,,74YB,001,2023_May_05_1050,ExactRep-v3-final,2021.2.3,59.93698226542875,
,,,,11,0,11,0,,,,,,,,,,,,,,,,,,,,,,,,,,,,,,,,,,,,,,,,,,,,,,,,,,,,,,,,,764.8572718994692,None,,,,,,,,,,,,,,,,,762.8553189001977,None,,,,,,,,,,,,,,,,,,,,,,,,,,,,,,,,,,,,,,,,,,,,,,,,,,,,,,,,74YB,001,2023_May_05_1050,ExactRep-v3-final,2021.2.3,59.93698226542875,
,,,,12,0,12,0,,,,,,,,,,,,,,,,,,,,,,,,,,,,,,,,,,,,,,,,,,,,,,,,,,,,,,,,,767.3595252996311,None,,,,,,,,,,,,,,,,,765.3577648997307,None,,,,,,,,,,,,,,,,,,,,,,,,,,,,,,,,,,,,,,,,,,,,,,,,,,,,,,,,74YB,001,2023_May_05_1050,ExactRep-v3-final,2021.2.3,59.93698226542875,
,,,,13,0,13,0,,,,,,,,,,,,,,,,,,,,,,,,,,,,,,,,,,,,,,,,,,,,,,,,,,,,,,,,,769.8624069998041,None,,,,,,,,,,,,,,,,,767.8601450994611,None,,,,,,,,,,,,,,,,,,,,,,,,,,,,,,,,,,,,,,,,,,,,,,,,,,,,,,,,74YB,001,2023_May_05_1050,ExactRep-v3-final,2021.2.3,59.93698226542875,
,,,,14,0,14,0,,,,,,,,,,,,,,,,,,,,,,,,,,,,,,,,,,,,,,,,,,,,,,,,,,,,,,,,,772.3646018002182,None,,,,,,,,,,,,,,,,,770.3626673994586,None,,,,,,,,,,,,,,,,,,,,,,,,,,,,,,,,,,,,,,,,,,,,,,,,,,,,,,,,74YB,001,2023_May_05_1050,ExactRep-v3-final,2021.2.3,59.93698226542875,
,,,,,,,,,,,,,,,,,,,,,,,,,,,,,,,,,,,,,,,,,,,,,,,,,,,,,,,,,,,,,,,,,,,,,,,,,,,,,,,,,,,,space,25.103218300268054,783.0151816997677,None,,,,,,,,,,,,,,,,,,,,,,,,,,,,,,,,,,,,,,,,,,,,,,,,,,,,74YB,001,2023_May_05_1050,ExactRep-v3-final,2021.2.3,59.93698226542875,
,,,,,,,,0,0,0,0,,,,,,,,,,,,,,,,,,,,,,,,,,,,,,,,,,,,,,,,,,,,,,,,,,,,,810.2025753995404,None,,,,,,,,,,,,,,,,,,,,,,,773.0573801994324,None,773.0573801994324,None,773.0573801994324,None,773.0573801994324,None,773.0573801994324,None,773.0573801994324,None,heaven,15,1,sing,blue,808.190192299895,None,None,808.190192299895,None,,,,,,,,,,,,,,,,,,,,,,,,,,,,,,74YB,001,2023_May_05_1050,ExactRep-v3-final,2021.2.3,59.93698226542875,
,,,,,,,,1,0,1,0,,,,,,,,,,,,,,,,,,,,,,,,,,,,,,,,,,,,,,,,,,,,,,,,,,,,,812.7049231994897,None,,,,,,,,,,,,,,,,,,,,,,,,,,,,,,,,,,,shoes,0,2,sing,blue,810.7055967999622,None,None,810.7055967999622,None,,,,,,,,,,,,,,,,,,,,,,,,,,,,,,74YB,001,2023_May_05_1050,ExactRep-v3-final,2021.2.3,59.93698226542875,
,,,,,,,,2,0,2,0,,,,,,,,,,,,,,,,,,,,,,,,,,,,,,,,,,,,,,,,,,,,,,,,,,,,,815.2244293000549,None,,,,,,,,,,,,,,,,,,,,,,,,,,,,,,,,,,,cottage,20,3,sing,blue,813.2118130000308,None,None,813.2118130000308,None,,,,,,,,,,,,,,,,,,,,,,,,,,,,,,74YB,001,2023_May_05_1050,ExactRep-v3-final,2021.2.3,59.93698226542875,
,,,,,,,,3,0,3,0,,,,,,,,,,,,,,,,,,,,,,,,,,,,,,,,,,,,,,,,,,,,,,,,,,,,,817.7434360999614,None,,,,,,,,,,,,,,,,,,,,,,,,,,,,,,,,,,,journal,100,4,aloud,red,815.7337798001245,None,None,815.7337798001245,None,,,,,,,,,,,,,,,,,,,,,,,,,,,,,,74YB,001,2023_May_05_1050,ExactRep-v3-final,2021.2.3,59.93698226542875,
,,,,,,,,4,0,4,0,,,,,,,,,,,,,,,,,,,,,,,,,,,,,,,,,,,,,,,,,,,,,,,,,,,,,820.2460521999747,None,,,,,,,,,,,,,,,,,,,,,,,,,,,,,,,,,,,water,7,5,sing,blue,818.2468878002837,None,None,818.2468878002837,None,,,,,,,,,,,,,,,,,,,,,,,,,,,,,,74YB,001,2023_May_05_1050,ExactRep-v3-final,2021.2.3,59.93698226542875,
,,,,,,,,5,0,5,0,,,,,,,,,,,,,,,,,,,,,,,,,,,,,,,,,,,,,,,,,,,,,,,,,,,,,822.7482743002474,None,,,,,,,,,,,,,,,,,,,,,,,,,,,,,,,,,,,hotel,61,6,silent,white,820.7482380000874,None,None,820.7482380000874,None,,,,,,,,,,,,,,,,,,,,,,,,,,,,,,74YB,001,2023_May_05_1050,ExactRep-v3-final,2021.2.3,59.93698226542875,
,,,,,,,,6,0,6,0,,,,,,,,,,,,,,,,,,,,,,,,,,,,,,,,,,,,,,,,,,,,,,,,,,,,,825.2531981002539,None,,,,,,,,,,,,,,,,,,,,,,,,,,,,,,,,,,,opinion,58,7,silent,white,823.2500641997904,None,None,823.2500641997904,None,,,,,,,,,,,,,,,,,,,,,,,,,,,,,,74YB,001,2023_May_05_1050,ExactRep-v3-final,2021.2.3,59.93698226542875,
,,,,,,,,7,0,7,0,,,,,,,,,,,,,,,,,,,,,,,,,,,,,,,,,,,,,,,,,,,,,,,,,,,,,827.7866310998797,None,,,,,,,,,,,,,,,,,,,,,,,,,,,,,,,,,,,weapon,75,8,silent,white,825.7721101995558,None,None,825.7721101995558,None,,,,,,,,,,,,,,,,,,,,,,,,,,,,,,74YB,001,2023_May_05_1050,ExactRep-v3-final,2021.2.3,59.93698226542875,
,,,,,,,,8,0,8,0,,,,,,,,,,,,,,,,,,,,,,,,,,,,,,,,,,,,,,,,,,,,,,,,,,,,,830.3060934999958,None,,,,,,,,,,,,,,,,,,,,,,,,,,,,,,,,,,,hide,36,9,sing,blue,828.2966946996748,None,None,828.2966946996748,None,,,,,,,,,,,,,,,,,,,,,,,,,,,,,,74YB,001,2023_May_05_1050,ExactRep-v3-final,2021.2.3,59.93698226542875,
,,,,,,,,9,0,9,0,,,,,,,,,,,,,,,,,,,,,,,,,,,,,,,,,,,,,,,,,,,,,,,,,,,,,832.8086046995595,None,,,,,,,,,,,,,,,,,,,,,,,,,,,,,,,,,,,doctor,112,10,aloud,red,830.8063783003017,None,None,830.8063783003017,None,,,,,,,,,,,,,,,,,,,,,,,,,,,,,,74YB,001,2023_May_05_1050,ExactRep-v3-final,2021.2.3,59.93698226542875,
,,,,,,,,10,0,10,0,,,,,,,,,,,,,,,,,,,,,,,,,,,,,,,,,,,,,,,,,,,,,,,,,,,,,835.3274280000478,None,,,,,,,,,,,,,,,,,,,,,,,,,,,,,,,,,,,window,34,11,sing,blue,833.3194597000256,None,None,833.3194597000256,None,,,,,,,,,,,,,,,,,,,,,,,,,,,,,,74YB,001,2023_May_05_1050,ExactRep-v3-final,2021.2.3,59.93698226542875,
,,,,,,,,11,0,11,0,,,,,,,,,,,,,,,,,,,,,,,,,,,,,,,,,,,,,,,,,,,,,,,,,,,,,837.8468984998763,None,,,,,,,,,,,,,,,,,,,,,,,,,,,,,,,,,,,cattle,2,12,sing,blue,835.8397038001567,None,None,835.8397038001567,None,,,,,,,,,,,,,,,,,,,,,,,,,,,,,,74YB,001,2023_May_05_1050,ExactRep-v3-final,2021.2.3,59.93698226542875,
,,,,,,,,12,0,12,0,,,,,,,,,,,,,,,,,,,,,,,,,,,,,,,,,,,,,,,,,,,,,,,,,,,,,840.3493606001139,None,,,,,,,,,,,,,,,,,,,,,,,,,,,,,,,,,,,bar,57,13,silent,white,838.3474466996267,None,None,838.3474466996267,None,,,,,,,,,,,,,,,,,,,,,,,,,,,,,,74YB,001,2023_May_05_1050,ExactRep-v3-final,2021.2.3,59.93698226542875,
,,,,,,,,13,0,13,0,,,,,,,,,,,,,,,,,,,,,,,,,,,,,,,,,,,,,,,,,,,,,,,,,,,,,842.8686710996553,None,,,,,,,,,,,,,,,,,,,,,,,,,,,,,,,,,,,market,52,14,silent,white,840.8581841997802,None,None,840.8581841997802,None,,,,,,,,,,,,,,,,,,,,,,,,,,,,,,74YB,001,2023_May_05_1050,ExactRep-v3-final,2021.2.3,59.93698226542875,
,,,,,,,,14,0,14,0,,,,,,,,,,,,,,,,,,,,,,,,,,,,,,,,,,,,,,,,,,,,,,,,,,,,,845.3880059998482,None,,,,,,,,,,,,,,,,,,,,,,,,,,,,,,,,,,,toy,111,15,aloud,red,843.3738476997241,None,None,843.3738476997241,None,,,,,,,,,,,,,,,,,,,,,,,,,,,,,,74YB,001,2023_May_05_1050,ExactRep-v3-final,2021.2.3,59.93698226542875,
,,,,,,,,15,0,15,0,,,,,,,,,,,,,,,,,,,,,,,,,,,,,,,,,,,,,,,,,,,,,,,,,,,,,847.8901140997186,None,,,,,,,,,,,,,,,,,,,,,,,,,,,,,,,,,,,fire,65,16,silent,white,845.8897281996906,None,None,845.8897281996906,None,,,,,,,,,,,,,,,,,,,,,,,,,,,,,,74YB,001,2023_May_05_1050,ExactRep-v3-final,2021.2.3,59.93698226542875,
,,,,,,,,16,0,16,0,,,,,,,,,,,,,,,,,,,,,,,,,,,,,,,,,,,,,,,,,,,,,,,,,,,,,850.4093412002549,None,,,,,,,,,,,,,,,,,,,,,,,,,,,,,,,,,,,garden,41,17,silent,white,848.3960766997188,None,None,848.3960766997188,None,,,,,,,,,,,,,,,,,,,,,,,,,,,,,,74YB,001,2023_May_05_1050,ExactRep-v3-final,2021.2.3,59.93698226542875,
,,,,,,,,17,0,17,0,,,,,,,,,,,,,,,,,,,,,,,,,,,,,,,,,,,,,,,,,,,,,,,,,,,,,852.9286255994812,None,,,,,,,,,,,,,,,,,,,,,,,,,,,,,,,,,,,flood,46,18,silent,white,850.914845299907,None,None,850.914845299907,None,,,,,,,,,,,,,,,,,,,,,,,,,,,,,,74YB,001,2023_May_05_1050,ExactRep-v3-final,2021.2.3,59.93698226542875,
,,,,,,,,18,0,18,0,,,,,,,,,,,,,,,,,,,,,,,,,,,,,,,,,,,,,,,,,,,,,,,,,,,,,855.4310082001612,None,,,,,,,,,,,,,,,,,,,,,,,,,,,,,,,,,,,speech,97,19,aloud,red,853.431752000004,None,None,853.431752000004,None,,,,,,,,,,,,,,,,,,,,,,,,,,,,,,74YB,001,2023_May_05_1050,ExactRep-v3-final,2021.2.3,59.93698226542875,
,,,,,,,,19,0,19,0,,,,,,,,,,,,,,,,,,,,,,,,,,,,,,,,,,,,,,,,,,,,,,,,,,,,,857.9336471995339,None,,,,,,,,,,,,,,,,,,,,,,,,,,,,,,,,,,,coast,88,20,aloud,red,855.9313497999683,None,None,855.9313497999683,None,,,,,,,,,,,,,,,,,,,,,,,,,,,,,,74YB,001,2023_May_05_1050,ExactRep-v3-final,2021.2.3,59.93698226542875,
,,,,,,,,20,0,20,0,,,,,,,,,,,,,,,,,,,,,,,,,,,,,,,,,,,,,,,,,,,,,,,,,,,,,860.4528308995068,None,,,,,,,,,,,,,,,,,,,,,,,,,,,,,,,,,,,ship,27,21,sing,blue,858.4406024999917,None,None,858.4406024999917,None,,,,,,,,,,,,,,,,,,,,,,,,,,,,,,74YB,001,2023_May_05_1050,ExactRep-v3-final,2021.2.3,59.93698226542875,
,,,,,,,,21,0,21,0,,,,,,,,,,,,,,,,,,,,,,,,,,,,,,,,,,,,,,,,,,,,,,,,,,,,,862.9554651994258,None,,,,,,,,,,,,,,,,,,,,,,,,,,,,,,,,,,,charm,84,22,aloud,red,860.9530464001,None,None,860.9530464001,None,,,,,,,,,,,,,,,,,,,,,,,,,,,,,,74YB,001,2023_May_05_1050,ExactRep-v3-final,2021.2.3,59.93698226542875,
,,,,,,,,22,0,22,0,,,,,,,,,,,,,,,,,,,,,,,,,,,,,,,,,,,,,,,,,,,,,,,,,,,,,865.4578917995095,None,,,,,,,,,,,,,,,,,,,,,,,,,,,,,,,,,,,stone,106,23,aloud,red,863.4566957997158,None,None,863.4566957997158,None,,,,,,,,,,,,,,,,,,,,,,,,,,,,,,74YB,001,2023_May_05_1050,ExactRep-v3-final,2021.2.3,59.93698226542875,
,,,,,,,,23,0,23,0,,,,,,,,,,,,,,,,,,,,,,,,,,,,,,,,,,,,,,,,,,,,,,,,,,,,,867.9769013002515,None,,,,,,,,,,,,,,,,,,,,,,,,,,,,,,,,,,,season,47,24,silent,white,865.9691460998729,None,None,865.9691460998729,None,,,,,,,,,,,,,,,,,,,,,,,,,,,,,,74YB,001,2023_May_05_1050,ExactRep-v3-final,2021.2.3,59.93698226542875,
,,,,,,,,24,0,24,0,,,,,,,,,,,,,,,,,,,,,,,,,,,,,,,,,,,,,,,,,,,,,,,,,,,,,870.4795033996925,None,,,,,,,,,,,,,,,,,,,,,,,,,,,,,,,,,,,cat,10,25,sing,blue,868.4774217000231,None,None,868.4774217000231,None,,,,,,,,,,,,,,,,,,,,,,,,,,,,,,74YB,001,2023_May_05_1050,ExactRep-v3-final,2021.2.3,59.93698226542875,
,,,,,,,,25,0,25,0,,,,,,,,,,,,,,,,,,,,,,,,,,,,,,,,,,,,,,,,,,,,,,,,,,,,,872.9818746000528,None,,,,,,,,,,,,,,,,,,,,,,,,,,,,,,,,,,,wife,39,26,silent,white,870.9819689001888,None,None,870.9819689001888,None,,,,,,,,,,,,,,,,,,,,,,,,,,,,,,74YB,001,2023_May_05_1050,ExactRep-v3-final,2021.2.3,59.93698226542875,
,,,,,,,,26,0,26,0,,,,,,,,,,,,,,,,,,,,,,,,,,,,,,,,,,,,,,,,,,,,,,,,,,,,,875.4844063995406,None,,,,,,,,,,,,,,,,,,,,,,,,,,,,,,,,,,,cabin,24,27,sing,blue,873.4821672001854,None,None,873.4821672001854,None,,,,,,,,,,,,,,,,,,,,,,,,,,,,,,74YB,001,2023_May_05_1050,ExactRep-v3-final,2021.2.3,59.93698226542875,
,,,,,,,,27,0,27,0,,,,,,,,,,,,,,,,,,,,,,,,,,,,,,,,,,,,,,,,,,,,,,,,,,,,,878.003425899893,None,,,,,,,,,,,,,,,,,,,,,,,,,,,,,,,,,,,method,63,28,silent,white,875.9944671001285,None,None,875.9944671001285,None,,,,,,,,,,,,,,,,,,,,,,,,,,,,,,74YB,001,2023_May_05_1050,ExactRep-v3-final,2021.2.3,59.93698226542875,
,,,,,,,,28,0,28,0,,,,,,,,,,,,,,,,,,,,,,,,,,,,,,,,,,,,,,,,,,,,,,,,,,,,,880.5062154000625,None,,,,,,,,,,,,,,,,,,,,,,,,,,,,,,,,,,,product,117,29,aloud,red,878.504110599868,None,None,878.504110599868,None,,,,,,,,,,,,,,,,,,,,,,,,,,,,,,74YB,001,2023_May_05_1050,ExactRep-v3-final,2021.2.3,59.93698226542875,
,,,,,,,,29,0,29,0,,,,,,,,,,,,,,,,,,,,,,,,,,,,,,,,,,,,,,,,,,,,,,,,,,,,,883.025616900064,None,,,,,,,,,,,,,,,,,,,,,,,,,,,,,,,,,,,health,28,30,sing,blue,881.0133720999584,None,None,881.0133720999584,None,,,,,,,,,,,,,,,,,,,,,,,,,,,,,,74YB,001,2023_May_05_1050,ExactRep-v3-final,2021.2.3,59.93698226542875,
,,,,,,,,30,0,30,0,,,,,,,,,,,,,,,,,,,,,,,,,,,,,,,,,,,,,,,,,,,,,,,,,,,,,885.5444328999147,None,,,,,,,,,,,,,,,,,,,,,,,,,,,,,,,,,,,fortune,72,31,silent,white,883.537930900231,None,None,883.537930900231,None,,,,,,,,,,,,,,,,,,,,,,,,,,,,,,74YB,001,2023_May_05_1050,ExactRep-v3-final,2021.2.3,59.93698226542875,
,,,,,,,,31,0,31,0,,,,,,,,,,,,,,,,,,,,,,,,,,,,,,,,,,,,,,,,,,,,,,,,,,,,,888.0637427996844,None,,,,,,,,,,,,,,,,,,,,,,,,,,,,,,,,,,,camp,54,32,silent,white,886.0533974999562,None,None,886.0533974999562,None,,,,,,,,,,,,,,,,,,,,,,,,,,,,,,74YB,001,2023_May_05_1050,ExactRep-v3-final,2021.2.3,59.93698226542875,
,,,,,,,,32,0,32,0,,,,,,,,,,,,,,,,,,,,,,,,,,,,,,,,,,,,,,,,,,,,,,,,,,,,,890.5661591999233,None,,,,,,,,,,,,,,,,,,,,,,,,,,,,,,,,,,,dream,45,33,silent,white,888.5643494995311,None,None,888.5643494995311,None,,,,,,,,,,,,,,,,,,,,,,,,,,,,,,74YB,001,2023_May_05_1050,ExactRep-v3-final,2021.2.3,59.93698226542875,
,,,,,,,,33,0,33,0,,,,,,,,,,,,,,,,,,,,,,,,,,,,,,,,,,,,,,,,,,,,,,,,,,,,,893.0688129998744,None,,,,,,,,,,,,,,,,,,,,,,,,,,,,,,,,,,,village,42,34,silent,white,891.0690014995635,None,None,891.0690014995635,None,,,,,,,,,,,,,,,,,,,,,,,,,,,,,,74YB,001,2023_May_05_1050,ExactRep-v3-final,2021.2.3,59.93698226542875,
,,,,,,,,34,0,34,0,,,,,,,,,,,,,,,,,,,,,,,,,,,,,,,,,,,,,,,,,,,,,,,,,,,,,895.5876430999488,None,,,,,,,,,,,,,,,,,,,,,,,,,,,,,,,,,,,lord,11,35,sing,blue,893.5793789001182,None,None,893.5793789001182,None,,,,,,,,,,,,,,,,,,,,,,,,,,,,,,74YB,001,2023_May_05_1050,ExactRep-v3-final,2021.2.3,59.93698226542875,
,,,,,,,,35,0,35,0,,,,,,,,,,,,,,,,,,,,,,,,,,,,,,,,,,,,,,,,,,,,,,,,,,,,,898.1071531996131,None,,,,,,,,,,,,,,,,,,,,,,,,,,,,,,,,,,,paper,51,36,silent,white,896.0991676999256,None,None,896.0991676999256,None,,,,,,,,,,,,,,,,,,,,,,,,,,,,,,74YB,001,2023_May_05_1050,ExactRep-v3-final,2021.2.3,59.93698226542875,
,,,,,,,,36,0,36,0,,,,,,,,,,,,,,,,,,,,,,,,,,,,,,,,,,,,,,,,,,,,,,,,,,,,,900.609781799838,None,,,,,,,,,,,,,,,,,,,,,,,,,,,,,,,,,,,library,59,37,silent,white,898.608450899832,None,None,898.608450899832,None,,,,,,,,,,,,,,,,,,,,,,,,,,,,,,74YB,001,2023_May_05_1050,ExactRep-v3-final,2021.2.3,59.93698226542875,
,,,,,,,,37,0,37,0,,,,,,,,,,,,,,,,,,,,,,,,,,,,,,,,,,,,,,,,,,,,,,,,,,,,,903.1121573001146,None,,,,,,,,,,,,,,,,,,,,,,,,,,,,,,,,,,,breast,99,38,aloud,red,901.112906999886,None,None,901.112906999886,None,,,,,,,,,,,,,,,,,,,,,,,,,,,,,,74YB,001,2023_May_05_1050,ExactRep-v3-final,2021.2.3,59.93698226542875,
,,,,,,,,38,0,38,0,,,,,,,,,,,,,,,,,,,,,,,,,,,,,,,,,,,,,,,,,,,,,,,,,,,,,905.6153894998133,None,,,,,,,,,,,,,,,,,,,,,,,,,,,,,,,,,,,valley,76,39,silent,white,903.6129951002076,None,None,903.6129951002076,None,,,,,,,,,,,,,,,,,,,,,,,,,,,,,,74YB,001,2023_May_05_1050,ExactRep-v3-final,2021.2.3,59.93698226542875,
,,,,,,,,39,0,39,0,,,,,,,,,,,,,,,,,,,,,,,,,,,,,,,,,,,,,,,,,,,,,,,,,,,,,908.1171484002843,None,,,,,,,,,,,,,,,,,,,,,,,,,,,,,,,,,,,salary,82,40,aloud,red,906.1167965000495,None,None,906.1167965000495,None,,,,,,,,,,,,,,,,,,,,,,,,,,,,,,74YB,001,2023_May_05_1050,ExactRep-v3-final,2021.2.3,59.93698226542875,
,,,,,,,,40,0,40,0,,,,,,,,,,,,,,,,,,,,,,,,,,,,,,,,,,,,,,,,,,,,,,,,,,,,,910.6230456000194,None,,,,,,,,,,,,,,,,,,,,,,,,,,,,,,,,,,,advice,73,41,silent,white,908.617777899839,None,None,908.617777899839,None,,,,,,,,,,,,,,,,,,,,,,,,,,,,,,74YB,001,2023_May_05_1050,ExactRep-v3-final,2021.2.3,59.93698226542875,
,,,,,,,,41,0,41,0,,,,,,,,,,,,,,,,,,,,,,,,,,,,,,,,,,,,,,,,,,,,,,,,,,,,,913.1554148001596,None,,,,,,,,,,,,,,,,,,,,,,,,,,,,,,,,,,,trouble,94,42,aloud,red,911.1400907998905,None,None,911.1400907998905,None,,,,,,,,,,,,,,,,,,,,,,,,,,,,,,74YB,001,2023_May_05_1050,ExactRep-v3-final,2021.2.3,59.93698226542875,
,,,,,,,,42,0,42,0,,,,,,,,,,,,,,,,,,,,,,,,,,,,,,,,,,,,,,,,,,,,,,,,,,,,,915.6748831002042,None,,,,,,,,,,,,,,,,,,,,,,,,,,,,,,,,,,,ticket,8,43,sing,blue,913.6710011996329,None,None,913.6710011996329,None,,,,,,,,,,,,,,,,,,,,,,,,,,,,,,74YB,001,2023_May_05_1050,ExactRep-v3-final,2021.2.3,59.93698226542875,
,,,,,,,,43,0,43,0,,,,,,,,,,,,,,,,,,,,,,,,,,,,,,,,,,,,,,,,,,,,,,,,,,,,,918.1770548997447,None,,,,,,,,,,,,,,,,,,,,,,,,,,,,,,,,,,,car,118,44,aloud,red,916.1774774994701,None,None,916.1774774994701,None,,,,,,,,,,,,,,,,,,,,,,,,,,,,,,74YB,001,2023_May_05_1050,ExactRep-v3-final,2021.2.3,59.93698226542875,
,,,,,,,,44,0,44,0,,,,,,,,,,,,,,,,,,,,,,,,,,,,,,,,,,,,,,,,,,,,,,,,,,,,,920.6963996002451,None,,,,,,,,,,,,,,,,,,,,,,,,,,,,,,,,,,,gift,103,45,aloud,red,918.6892144000158,None,None,918.6892144000158,None,,,,,,,,,,,,,,,,,,,,,,,,,,,,,,74YB,001,2023_May_05_1050,ExactRep-v3-final,2021.2.3,59.93698226542875,
,,,,,,,,45,0,45,0,,,,,,,,,,,,,,,,,,,,,,,,,,,,,,,,,,,,,,,,,,,,,,,,,,,,,923.1990604000166,None,,,,,,,,,,,,,,,,,,,,,,,,,,,,,,,,,,,wheat,70,46,silent,white,921.1968008996919,None,None,921.1968008996919,None,,,,,,,,,,,,,,,,,,,,,,,,,,,,,,74YB,001,2023_May_05_1050,ExactRep-v3-final,2021.2.3,59.93698226542875,
,,,,,,,,46,0,46,0,,,,,,,,,,,,,,,,,,,,,,,,,,,,,,,,,,,,,,,,,,,,,,,,,,,,,925.718062300235,None,,,,,,,,,,,,,,,,,,,,,,,,,,,,,,,,,,,king,49,47,silent,white,923.7040128000081,None,None,923.7040128000081,None,,,,,,,,,,,,,,,,,,,,,,,,,,,,,,74YB,001,2023_May_05_1050,ExactRep-v3-final,2021.2.3,59.93698226542875,
,,,,,,,,47,0,47,0,,,,,,,,,,,,,,,,,,,,,,,,,,,,,,,,,,,,,,,,,,,,,,,,,,,,,928.2372517995536,None,,,,,,,,,,,,,,,,,,,,,,,,,,,,,,,,,,,vision,96,48,aloud,red,926.2225498994812,None,None,926.2225498994812,None,,,,,,,,,,,,,,,,,,,,,,,,,,,,,,74YB,001,2023_May_05_1050,ExactRep-v3-final,2021.2.3,59.93698226542875,
,,,,,,,,48,0,48,0,,,,,,,,,,,,,,,,,,,,,,,,,,,,,,,,,,,,,,,,,,,,,,,,,,,,,930.7396253002807,None,,,,,,,,,,,,,,,,,,,,,,,,,,,,,,,,,,,seat,104,49,aloud,red,928.7377968998626,None,None,928.7377968998626,None,,,,,,,,,,,,,,,,,,,,,,,,,,,,,,74YB,001,2023_May_05_1050,ExactRep-v3-final,2021.2.3,59.93698226542875,
,,,,,,,,49,0,49,0,,,,,,,,,,,,,,,,,,,,,,,,,,,,,,,,,,,,,,,,,,,,,,,,,,,,,933.2423155000433,None,,,,,,,,,,,,,,,,,,,,,,,,,,,,,,,,,,,memory,98,50,aloud,red,931.2407126994804,None,None,931.2407126994804,None,,,,,,,,,,,,,,,,,,,,,,,,,,,,,,74YB,001,2023_May_05_1050,ExactRep-v3-final,2021.2.3,59.93698226542875,
,,,,,,,,50,0,50,0,,,,,,,,,,,,,,,,,,,,,,,,,,,,,,,,,,,,,,,,,,,,,,,,,,,,,935.7648184001446,None,,,,,,,,,,,,,,,,,,,,,,,,,,,,,,,,,,,shame,93,51,aloud,red,933.746724399738,None,None,933.746724399738,None,,,,,,,,,,,,,,,,,,,,,,,,,,,,,,74YB,001,2023_May_05_1050,ExactRep-v3-final,2021.2.3,59.93698226542875,
,,,,,,,,51,0,51,0,,,,,,,,,,,,,,,,,,,,,,,,,,,,,,,,,,,,,,,,,,,,,,,,,,,,,938.2640185002238,None,,,,,,,,,,,,,,,,,,,,,,,,,,,,,,,,,,,string,56,52,silent,white,936.2618089001626,None,None,936.2618089001626,None,,,,,,,,,,,,,,,,,,,,,,,,,,,,,,74YB,001,2023_May_05_1050,ExactRep-v3-final,2021.2.3,59.93698226542875,
,,,,,,,,52,0,52,0,,,,,,,,,,,,,,,,,,,,,,,,,,,,,,,,,,,,,,,,,,,,,,,,,,,,,940.7832111995667,None,,,,,,,,,,,,,,,,,,,,,,,,,,,,,,,,,,,friend,66,53,silent,white,938.7703561000526,None,None,938.7703561000526,None,,,,,,,,,,,,,,,,,,,,,,,,,,,,,,74YB,001,2023_May_05_1050,ExactRep-v3-final,2021.2.3,59.93698226542875,
,,,,,,,,53,0,53,0,,,,,,,,,,,,,,,,,,,,,,,,,,,,,,,,,,,,,,,,,,,,,,,,,,,,,943.3023795001209,None,,,,,,,,,,,,,,,,,,,,,,,,,,,,,,,,,,,silence,30,54,sing,blue,941.2892527999356,None,None,941.2892527999356,None,,,,,,,,,,,,,,,,,,,,,,,,,,,,,,74YB,001,2023_May_05_1050,ExactRep-v3-final,2021.2.3,59.93698226542875,
,,,,,,,,54,0,54,0,,,,,,,,,,,,,,,,,,,,,,,,,,,,,,,,,,,,,,,,,,,,,,,,,,,,,945.8048725994304,None,,,,,,,,,,,,,,,,,,,,,,,,,,,,,,,,,,,justice,109,55,aloud,red,943.8037340994924,None,None,943.8037340994924,None,,,,,,,,,,,,,,,,,,,,,,,,,,,,,,74YB,001,2023_May_05_1050,ExactRep-v3-final,2021.2.3,59.93698226542875,
,,,,,,,,55,0,55,0,,,,,,,,,,,,,,,,,,,,,,,,,,,,,,,,,,,,,,,,,,,,,,,,,,,,,948.3071975000203,None,,,,,,,,,,,,,,,,,,,,,,,,,,,,,,,,,,,cash,115,56,aloud,red,946.3078616997227,None,None,946.3078616997227,None,,,,,,,,,,,,,,,,,,,,,,,,,,,,,,74YB,001,2023_May_05_1050,ExactRep-v3-final,2021.2.3,59.93698226542875,
,,,,,,,,56,0,56,0,,,,,,,,,,,,,,,,,,,,,,,,,,,,,,,,,,,,,,,,,,,,,,,,,,,,,950.8263317001984,None,,,,,,,,,,,,,,,,,,,,,,,,,,,,,,,,,,,fault,102,57,aloud,red,948.8153408998623,None,None,948.8153408998623,None,,,,,,,,,,,,,,,,,,,,,,,,,,,,,,74YB,001,2023_May_05_1050,ExactRep-v3-final,2021.2.3,59.93698226542875,
,,,,,,,,57,0,57,0,,,,,,,,,,,,,,,,,,,,,,,,,,,,,,,,,,,,,,,,,,,,,,,,,,,,,953.3291108999401,None,,,,,,,,,,,,,,,,,,,,,,,,,,,,,,,,,,,crime,89,58,aloud,red,951.3298436999321,None,None,951.3298436999321,None,,,,,,,,,,,,,,,,,,,,,,,,,,,,,,74YB,001,2023_May_05_1050,ExactRep-v3-final,2021.2.3,59.93698226542875,
,,,,,,,,58,0,58,0,,,,,,,,,,,,,,,,,,,,,,,,,,,,,,,,,,,,,,,,,,,,,,,,,,,,,955.8314023995772,None,,,,,,,,,,,,,,,,,,,,,,,,,,,,,,,,,,,letter,81,59,aloud,red,953.8293399997056,None,None,953.8293399997056,None,,,,,,,,,,,,,,,,,,,,,,,,,,,,,,74YB,001,2023_May_05_1050,ExactRep-v3-final,2021.2.3,59.93698226542875,
,,,,,,,,59,0,59,0,,,,,,,,,,,,,,,,,,,,,,,,,,,,,,,,,,,,,,,,,,,,,,,,,,,,,958.3341520996764,None,,,,,,,,,,,,,,,,,,,,,,,,,,,,,,,,,,,origin,64,60,silent,white,956.3319004001096,None,None,956.3319004001096,None,,,,,,,,,,,,,,,,,,,,,,,,,,,,,,74YB,001,2023_May_05_1050,ExactRep-v3-final,2021.2.3,59.93698226542875,
,,,,,,,,60,0,60,0,,,,,,,,,,,,,,,,,,,,,,,,,,,,,,,,,,,,,,,,,,,,,,,,,,,,,960.8365593003109,None,,,,,,,,,,,,,,,,,,,,,,,,,,,,,,,,,,,love,86,61,aloud,red,958.836707400158,None,None,958.836707400158,None,,,,,,,,,,,,,,,,,,,,,,,,,,,,,,74YB,001,2023_May_05_1050,ExactRep-v3-final,2021.2.3,59.93698226542875,
,,,,,,,,61,0,61,0,,,,,,,,,,,,,,,,,,,,,,,,,,,,,,,,,,,,,,,,,,,,,,,,,,,,,963.3390889996663,None,,,,,,,,,,,,,,,,,,,,,,,,,,,,,,,,,,,cost,114,62,aloud,red,961.3392728995532,None,None,961.3392728995532,None,,,,,,,,,,,,,,,,,,,,,,,,,,,,,,74YB,001,2023_May_05_1050,ExactRep-v3-final,2021.2.3,59.93698226542875,
,,,,,,,,62,0,62,0,,,,,,,,,,,,,,,,,,,,,,,,,,,,,,,,,,,,,,,,,,,,,,,,,,,,,965.8583316998556,None,,,,,,,,,,,,,,,,,,,,,,,,,,,,,,,,,,,body,12,63,sing,blue,963.8429749999195,None,None,963.8429749999195,None,,,,,,,,,,,,,,,,,,,,,,,,,,,,,,74YB,001,2023_May_05_1050,ExactRep-v3-final,2021.2.3,59.93698226542875,
,,,,,,,,63,0,63,0,,,,,,,,,,,,,,,,,,,,,,,,,,,,,,,,,,,,,,,,,,,,,,,,,,,,,968.3607735000551,None,,,,,,,,,,,,,,,,,,,,,,,,,,,,,,,,,,,horse,4,64,sing,blue,966.360276799649,None,None,966.360276799649,None,,,,,,,,,,,,,,,,,,,,,,,,,,,,,,74YB,001,2023_May_05_1050,ExactRep-v3-final,2021.2.3,59.93698226542875,
,,,,,,,,64,0,64,0,,,,,,,,,,,,,,,,,,,,,,,,,,,,,,,,,,,,,,,,,,,,,,,,,,,,,970.8799433000386,None,,,,,,,,,,,,,,,,,,,,,,,,,,,,,,,,,,,custom,13,65,sing,blue,968.8654950000346,None,None,968.8654950000346,None,,,,,,,,,,,,,,,,,,,,,,,,,,,,,,74YB,001,2023_May_05_1050,ExactRep-v3-final,2021.2.3,59.93698226542875,
,,,,,,,,65,0,65,0,,,,,,,,,,,,,,,,,,,,,,,,,,,,,,,,,,,,,,,,,,,,,,,,,,,,,973.3825119994581,None,,,,,,,,,,,,,,,,,,,,,,,,,,,,,,,,,,,month,26,66,sing,blue,971.38027269952,None,None,971.38027269952,None,,,,,,,,,,,,,,,,,,,,,,,,,,,,,,74YB,001,2023_May_05_1050,ExactRep-v3-final,2021.2.3,59.93698226542875,
,,,,,,,,66,0,66,0,,,,,,,,,,,,,,,,,,,,,,,,,,,,,,,,,,,,,,,,,,,,,,,,,,,,,975.9016456995159,None,,,,,,,,,,,,,,,,,,,,,,,,,,,,,,,,,,,moral,77,67,silent,white,973.8872766997665,None,None,973.8872766997665,None,,,,,,,,,,,,,,,,,,,,,,,,,,,,,,74YB,001,2023_May_05_1050,ExactRep-v3-final,2021.2.3,59.93698226542875,
,,,,,,,,67,0,67,0,,,,,,,,,,,,,,,,,,,,,,,,,,,,,,,,,,,,,,,,,,,,,,,,,,,,,978.420810399577,None,,,,,,,,,,,,,,,,,,,,,,,,,,,,,,,,,,,church,29,68,sing,blue,976.4056968996301,None,None,976.4056968996301,None,,,,,,,,,,,,,,,,,,,,,,,,,,,,,,74YB,001,2023_May_05_1050,ExactRep-v3-final,2021.2.3,59.93698226542875,
,,,,,,,,68,0,68,0,,,,,,,,,,,,,,,,,,,,,,,,,,,,,,,,,,,,,,,,,,,,,,,,,,,,,980.9233550000936,None,,,,,,,,,,,,,,,,,,,,,,,,,,,,,,,,,,,anger,60,69,silent,white,978.92369509954,None,None,978.92369509954,None,,,,,,,,,,,,,,,,,,,,,,,,,,,,,,74YB,001,2023_May_05_1050,ExactRep-v3-final,2021.2.3,59.93698226542875,
,,,,,,,,69,0,69,0,,,,,,,,,,,,,,,,,,,,,,,,,,,,,,,,,,,,,,,,,,,,,,,,,,,,,983.4425336997956,None,,,,,,,,,,,,,,,,,,,,,,,,,,,,,,,,,,,butter,48,70,silent,white,981.4292104998603,None,None,981.4292104998603,None,,,,,,,,,,,,,,,,,,,,,,,,,,,,,,74YB,001,2023_May_05_1050,ExactRep-v3-final,2021.2.3,59.93698226542875,
,,,,,,,,70,0,70,0,,,,,,,,,,,,,,,,,,,,,,,,,,,,,,,,,,,,,,,,,,,,,,,,,,,,,985.9617063999176,None,,,,,,,,,,,,,,,,,,,,,,,,,,,,,,,,,,,quality,35,71,sing,blue,983.9528021998703,None,None,983.9528021998703,None,,,,,,,,,,,,,,,,,,,,,,,,,,,,,,74YB,001,2023_May_05_1050,ExactRep-v3-final,2021.2.3,59.93698226542875,
,,,,,,,,71,0,71,0,,,,,,,,,,,,,,,,,,,,,,,,,,,,,,,,,,,,,,,,,,,,,,,,,,,,,988.4642009995878,None,,,,,,,,,,,,,,,,,,,,,,,,,,,,,,,,,,,sea,69,72,silent,white,986.4633582001552,None,None,986.4633582001552,None,,,,,,,,,,,,,,,,,,,,,,,,,,,,,,74YB,001,2023_May_05_1050,ExactRep-v3-final,2021.2.3,59.93698226542875,
,,,,,,,,72,0,72,0,,,,,,,,,,,,,,,,,,,,,,,,,,,,,,,,,,,,,,,,,,,,,,,,,,,,,990.9832196999341,None,,,,,,,,,,,,,,,,,,,,,,,,,,,,,,,,,,,chief,85,73,aloud,red,988.9715510997921,None,None,988.9715510997921,None,,,,,,,,,,,,,,,,,,,,,,,,,,,,,,74YB,001,2023_May_05_1050,ExactRep-v3-final,2021.2.3,59.93698226542875,
,,,,,,,,73,0,73,0,,,,,,,,,,,,,,,,,,,,,,,,,,,,,,,,,,,,,,,,,,,,,,,,,,,,,993.5023924997076,None,,,,,,,,,,,,,,,,,,,,,,,,,,,,,,,,,,,soul,95,74,aloud,red,991.4892250997946,None,None,991.4892250997946,None,,,,,,,,,,,,,,,,,,,,,,,,,,,,,,74YB,001,2023_May_05_1050,ExactRep-v3-final,2021.2.3,59.93698226542875,
,,,,,,,,74,0,74,0,,,,,,,,,,,,,,,,,,,,,,,,,,,,,,,,,,,,,,,,,,,,,,,,,,,,,996.0049377996475,None,,,,,,,,,,,,,,,,,,,,,,,,,,,,,,,,,,,chair,108,75,aloud,red,994.0029176995158,None,None,994.0029176995158,None,,,,,,,,,,,,,,,,,,,,,,,,,,,,,,74YB,001,2023_May_05_1050,ExactRep-v3-final,2021.2.3,59.93698226542875,
,,,,,,,,75,0,75,0,,,,,,,,,,,,,,,,,,,,,,,,,,,,,,,,,,,,,,,,,,,,,,,,,,,,,998.5243295002729,None,,,,,,,,,,,,,,,,,,,,,,,,,,,,,,,,,,,hour,23,76,sing,blue,996.5132518000901,None,None,996.5132518000901,None,,,,,,,,,,,,,,,,,,,,,,,,,,,,,,74YB,001,2023_May_05_1050,ExactRep-v3-final,2021.2.3,59.93698226542875,
,,,,,,,,76,0,76,0,,,,,,,,,,,,,,,,,,,,,,,,,,,,,,,,,,,,,,,,,,,,,,,,,,,,,1001.0267297001556,None,,,,,,,,,,,,,,,,,,,,,,,,,,,,,,,,,,,animal,67,77,silent,white,999.02486460004,None,None,999.02486460004,None,,,,,,,,,,,,,,,,,,,,,,,,,,,,,,74YB,001,2023_May_05_1050,ExactRep-v3-final,2021.2.3,59.93698226542875,
,,,,,,,,77,0,77,0,,,,,,,,,,,,,,,,,,,,,,,,,,,,,,,,,,,,,,,,,,,,,,,,,,,,,1003.5292751993984,None,,,,,,,,,,,,,,,,,,,,,,,,,,,,,,,,,,,boy,3,78,sing,blue,1001.5281125996262,None,None,1001.5281125996262,None,,,,,,,,,,,,,,,,,,,,,,,,,,,,,,74YB,001,2023_May_05_1050,ExactRep-v3-final,2021.2.3,59.93698226542875,
,,,,,,,,78,0,78,0,,,,,,,,,,,,,,,,,,,,,,,,,,,,,,,,,,,,,,,,,,,,,,,,,,,,,1006.0318323001266,None,,,,,,,,,,,,,,,,,,,,,,,,,,,,,,,,,,,forest,78,79,silent,white,1004.0325608998537,None,None,1004.0325608998537,None,,,,,,,,,,,,,,,,,,,,,,,,,,,,,,74YB,001,2023_May_05_1050,ExactRep-v3-final,2021.2.3,59.93698226542875,
,,,,,,,,79,0,79,0,,,,,,,,,,,,,,,,,,,,,,,,,,,,,,,,,,,,,,,,,,,,,,,,,,,,,1008.5342384995893,None,,,,,,,,,,,,,,,,,,,,,,,,,,,,,,,,,,,street,16,80,sing,blue,1006.5339126000181,None,None,1006.5339126000181,None,,,,,,,,,,,,,,,,,,,,,,,,,,,,,,74YB,001,2023_May_05_1050,ExactRep-v3-final,2021.2.3,59.93698226542875,
,,,,,,,,80,0,80,0,,,,,,,,,,,,,,,,,,,,,,,,,,,,,,,,,,,,,,,,,,,,,,,,,,,,,1011.0532866995782,None,,,,,,,,,,,,,,,,,,,,,,,,,,,,,,,,,,,grief,113,81,aloud,red,1009.0382284000516,None,None,1009.0382284000516,None,,,,,,,,,,,,,,,,,,,,,,,,,,,,,,74YB,001,2023_May_05_1050,ExactRep-v3-final,2021.2.3,59.93698226542875,
,,,,,,,,81,0,81,0,,,,,,,,,,,,,,,,,,,,,,,,,,,,,,,,,,,,,,,,,,,,,,,,,,,,,1013.5557826999575,None,,,,,,,,,,,,,,,,,,,,,,,,,,,,,,,,,,,ability,31,82,sing,blue,1011.5537350997329,None,None,1011.5537350997329,None,,,,,,,,,,,,,,,,,,,,,,,,,,,,,,74YB,001,2023_May_05_1050,ExactRep-v3-final,2021.2.3,59.93698226542875,
,,,,,,,,82,0,82,0,,,,,,,,,,,,,,,,,,,,,,,,,,,,,,,,,,,,,,,,,,,,,,,,,,,,,1016.0584686994553,None,,,,,,,,,,,,,,,,,,,,,,,,,,,,,,,,,,,slave,68,83,silent,white,1014.0564021999016,None,None,1014.0564021999016,None,,,,,,,,,,,,,,,,,,,,,,,,,,,,,,74YB,001,2023_May_05_1050,ExactRep-v3-final,2021.2.3,59.93698226542875,
,,,,,,,,83,0,83,0,,,,,,,,,,,,,,,,,,,,,,,,,,,,,,,,,,,,,,,,,,,,,,,,,,,,,1018.5776471002027,None,,,,,,,,,,,,,,,,,,,,,,,,,,,,,,,,,,,engine,5,84,sing,blue,1016.5714879995212,None,None,1016.5714879995212,None,,,,,,,,,,,,,,,,,,,,,,,,,,,,,,74YB,001,2023_May_05_1050,ExactRep-v3-final,2021.2.3,59.93698226542875,
,,,,,,,,84,0,84,0,,,,,,,,,,,,,,,,,,,,,,,,,,,,,,,,,,,,,,,,,,,,,,,,,,,,,1021.0801248000935,None,,,,,,,,,,,,,,,,,,,,,,,,,,,,,,,,,,,table,38,85,sing,blue,1019.0781926997006,None,None,1019.0781926997006,None,,,,,,,,,,,,,,,,,,,,,,,,,,,,,,74YB,001,2023_May_05_1050,ExactRep-v3-final,2021.2.3,59.93698226542875,
,,,,,,,,85,0,85,0,,,,,,,,,,,,,,,,,,,,,,,,,,,,,,,,,,,,,,,,,,,,,,,,,,,,,1023.5827307999134,None,,,,,,,,,,,,,,,,,,,,,,,,,,,,,,,,,,,circle,80,86,aloud,red,1021.5824531000108,None,None,1021.5824531000108,None,,,,,,,,,,,,,,,,,,,,,,,,,,,,,,74YB,001,2023_May_05_1050,ExactRep-v3-final,2021.2.3,59.93698226542875,
,,,,,,,,86,0,86,0,,,,,,,,,,,,,,,,,,,,,,,,,,,,,,,,,,,,,,,,,,,,,,,,,,,,,1026.1015405002981,None,,,,,,,,,,,,,,,,,,,,,,,,,,,,,,,,,,,sky,14,87,sing,blue,1024.0871447995305,None,None,1024.0871447995305,None,,,,,,,,,,,,,,,,,,,,,,,,,,,,,,74YB,001,2023_May_05_1050,ExactRep-v3-final,2021.2.3,59.93698226542875,
,,,,,,,,87,0,87,0,,,,,,,,,,,,,,,,,,,,,,,,,,,,,,,,,,,,,,,,,,,,,,,,,,,,,1028.604407900013,None,,,,,,,,,,,,,,,,,,,,,,,,,,,,,,,,,,,metal,44,88,silent,white,1026.604187199846,None,None,1026.604187199846,None,,,,,,,,,,,,,,,,,,,,,,,,,,,,,,74YB,001,2023_May_05_1050,ExactRep-v3-final,2021.2.3,59.93698226542875,
,,,,,,,,88,0,88,0,,,,,,,,,,,,,,,,,,,,,,,,,,,,,,,,,,,,,,,,,,,,,,,,,,,,,1031.1233682995662,None,,,,,,,,,,,,,,,,,,,,,,,,,,,,,,,,,,,excuse,110,89,aloud,red,1029.1086299000308,None,None,1029.1086299000308,None,,,,,,,,,,,,,,,,,,,,,,,,,,,,,,74YB,001,2023_May_05_1050,ExactRep-v3-final,2021.2.3,59.93698226542875,
,,,,,,,,89,0,89,0,,,,,,,,,,,,,,,,,,,,,,,,,,,,,,,,,,,,,,,,,,,,,,,,,,,,,1033.6259185001254,None,,,,,,,,,,,,,,,,,,,,,,,,,,,,,,,,,,,coffee,22,90,sing,blue,1031.6253658998758,None,None,1031.6253658998758,None,,,,,,,,,,,,,,,,,,,,,,,,,,,,,,74YB,001,2023_May_05_1050,ExactRep-v3-final,2021.2.3,59.93698226542875,
,,,,,,,,90,0,90,0,,,,,,,,,,,,,,,,,,,,,,,,,,,,,,,,,,,,,,,,,,,,,,,,,,,,,1036.1452526999637,None,,,,,,,,,,,,,,,,,,,,,,,,,,,,,,,,,,,event,43,91,silent,white,1034.1299230000004,None,None,1034.1299230000004,None,,,,,,,,,,,,,,,,,,,,,,,,,,,,,,74YB,001,2023_May_05_1050,ExactRep-v3-final,2021.2.3,59.93698226542875,
,,,,,,,,91,0,91,0,,,,,,,,,,,,,,,,,,,,,,,,,,,,,,,,,,,,,,,,,,,,,,,,,,,,,1038.6497782003134,None,,,,,,,,,,,,,,,,,,,,,,,,,,,,,,,,,,,maiden,1,92,sing,blue,1036.6477121002972,None,None,1036.6477121002972,None,,,,,,,,,,,,,,,,,,,,,,,,,,,,,,74YB,001,2023_May_05_1050,ExactRep-v3-final,2021.2.3,59.93698226542875,
,,,,,,,,92,0,92,0,,,,,,,,,,,,,,,,,,,,,,,,,,,,,,,,,,,,,,,,,,,,,,,,,,,,,1041.1834255997092,None,,,,,,,,,,,,,,,,,,,,,,,,,,,,,,,,,,,steam,21,93,sing,blue,1039.1711162002757,None,None,1039.1711162002757,None,,,,,,,,,,,,,,,,,,,,,,,,,,,,,,74YB,001,2023_May_05_1050,ExactRep-v3-final,2021.2.3,59.93698226542875,
,,,,,,,,93,0,93,0,,,,,,,,,,,,,,,,,,,,,,,,,,,,,,,,,,,,,,,,,,,,,,,,,,,,,1043.6861495003104,None,,,,,,,,,,,,,,,,,,,,,,,,,,,,,,,,,,,flower,71,94,silent,white,1041.6848099995404,None,None,1041.6848099995404,None,,,,,,,,,,,,,,,,,,,,,,,,,,,,,,74YB,001,2023_May_05_1050,ExactRep-v3-final,2021.2.3,59.93698226542875,
,,,,,,,,94,0,94,0,,,,,,,,,,,,,,,,,,,,,,,,,,,,,,,,,,,,,,,,,,,,,,,,,,,,,1046.18837049976,None,,,,,,,,,,,,,,,,,,,,,,,,,,,,,,,,,,,spirit,37,95,sing,blue,1044.1864094994962,None,None,1044.1864094994962,None,,,,,,,,,,,,,,,,,,,,,,,,,,,,,,74YB,001,2023_May_05_1050,ExactRep-v3-final,2021.2.3,59.93698226542875,
,,,,,,,,95,0,95,0,,,,,,,,,,,,,,,,,,,,,,,,,,,,,,,,,,,,,,,,,,,,,,,,,,,,,1048.6908879997209,None,,,,,,,,,,,,,,,,,,,,,,,,,,,,,,,,,,,cotton,62,96,silent,white,1046.6890203999355,None,None,1046.6890203999355,None,,,,,,,,,,,,,,,,,,,,,,,,,,,,,,74YB,001,2023_May_05_1050,ExactRep-v3-final,2021.2.3,59.93698226542875,
,,,,,,,,96,0,96,0,,,,,,,,,,,,,,,,,,,,,,,,,,,,,,,,,,,,,,,,,,,,,,,,,,,,,1051.1934377001598,None,,,,,,,,,,,,,,,,,,,,,,,,,,,,,,,,,,,deed,50,97,silent,white,1049.191603999585,None,None,1049.191603999585,None,,,,,,,,,,,,,,,,,,,,,,,,,,,,,,74YB,001,2023_May_05_1050,ExactRep-v3-final,2021.2.3,59.93698226542875,
,,,,,,,,97,0,97,0,,,,,,,,,,,,,,,,,,,,,,,,,,,,,,,,,,,,,,,,,,,,,,,,,,,,,1053.6961198998615,None,,,,,,,,,,,,,,,,,,,,,,,,,,,,,,,,,,,ocean,9,98,sing,blue,1051.695809500292,None,None,1051.695809500292,None,,,,,,,,,,,,,,,,,,,,,,,,,,,,,,74YB,001,2023_May_05_1050,ExactRep-v3-final,2021.2.3,59.93698226542875,
,,,,,,,,98,0,98,0,,,,,,,,,,,,,,,,,,,,,,,,,,,,,,,,,,,,,,,,,,,,,,,,,,,,,1056.2153401998803,None,,,,,,,,,,,,,,,,,,,,,,,,,,,,,,,,,,,plain,116,99,aloud,red,1054.1999269993976,None,None,1054.1999269993976,None,,,,,,,,,,,,,,,,,,,,,,,,,,,,,,74YB,001,2023_May_05_1050,ExactRep-v3-final,2021.2.3,59.93698226542875,
,,,,,,,,99,0,99,0,,,,,,,,,,,,,,,,,,,,,,,,,,,,,,,,,,,,,,,,,,,,,,,,,,,,,1058.7344819996506,None,,,,,,,,,,,,,,,,,,,,,,,,,,,,,,,,,,,safety,79,100,sing,blue,1056.7196188997477,None,None,1056.7196188997477,None,,,,,,,,,,,,,,,,,,,,,,,,,,,,,,74YB,001,2023_May_05_1050,ExactRep-v3-final,2021.2.3,59.93698226542875,
,,,,,,,,100,0,100,0,,,,,,,,,,,,,,,,,,,,,,,,,,,,,,,,,,,,,,,,,,,,,,,,,,,,,1061.2369919000193,None,,,,,,,,,,,,,,,,,,,,,,,,,,,,,,,,,,,author,105,101,aloud,red,1059.2357880994678,None,None,1059.2357880994678,None,,,,,,,,,,,,,,,,,,,,,,,,,,,,,,74YB,001,2023_May_05_1050,ExactRep-v3-final,2021.2.3,59.93698226542875,
,,,,,,,,101,0,101,0,,,,,,,,,,,,,,,,,,,,,,,,,,,,,,,,,,,,,,,,,,,,,,,,,,,,,1063.7562065999955,None,,,,,,,,,,,,,,,,,,,,,,,,,,,,,,,,,,,freedom,25,102,sing,blue,1061.7409566994756,None,None,1061.7409566994756,None,,,,,,,,,,,,,,,,,,,,,,,,,,,,,,74YB,001,2023_May_05_1050,ExactRep-v3-final,2021.2.3,59.93698226542875,
,,,,,,,,102,0,102,0,,,,,,,,,,,,,,,,,,,,,,,,,,,,,,,,,,,,,,,,,,,,,,,,,,,,,1066.2585312994197,None,,,,,,,,,,,,,,,,,,,,,,,,,,,,,,,,,,,teacher,101,103,aloud,red,1064.2564703999087,None,None,1064.2564703999087,None,,,,,,,,,,,,,,,,,,,,,,,,,,,,,,74YB,001,2023_May_05_1050,ExactRep-v3-final,2021.2.3,59.93698226542875,
,,,,,,,,103,0,103,0,,,,,,,,,,,,,,,,,,,,,,,,,,,,,,,,,,,,,,,,,,,,,,,,,,,,,1068.777810299769,None,,,,,,,,,,,,,,,,,,,,,,,,,,,,,,,,,,,corner,32,104,sing,blue,1066.7634940994903,None,None,1066.7634940994903,None,,,,,,,,,,,,,,,,,,,,,,,,,,,,,,74YB,001,2023_May_05_1050,ExactRep-v3-final,2021.2.3,59.93698226542875,
,,,,,,,,104,0,104,0,,,,,,,,,,,,,,,,,,,,,,,,,,,,,,,,,,,,,,,,,,,,,,,,,,,,,1071.280386899598,None,,,,,,,,,,,,,,,,,,,,,,,,,,,,,,,,,,,student,87,105,aloud,red,1069.2783538000658,None,None,1069.2783538000658,None,,,,,,,,,,,,,,,,,,,,,,,,,,,,,,74YB,001,2023_May_05_1050,ExactRep-v3-final,2021.2.3,59.93698226542875,
,,,,,,,,105,0,105,0,,,,,,,,,,,,,,,,,,,,,,,,,,,,,,,,,,,,,,,,,,,,,,,,,,,,,1073.799584100023,None,,,,,,,,,,,,,,,,,,,,,,,,,,,,,,,,,,,green,83,106,aloud,red,1071.7841328997165,None,None,1071.7841328997165,None,,,,,,,,,,,,,,,,,,,,,,,,,,,,,,74YB,001,2023_May_05_1050,ExactRep-v3-final,2021.2.3,59.93698226542875,
,,,,,,,,106,0,106,0,,,,,,,,,,,,,,,,,,,,,,,,,,,,,,,,,,,,,,,,,,,,,,,,,,,,,1076.318725399673,None,,,,,,,,,,,,,,,,,,,,,,,,,,,,,,,,,,,air,6,107,sing,blue,1074.3045948995277,None,None,1074.3045948995277,None,,,,,,,,,,,,,,,,,,,,,,,,,,,,,,74YB,001,2023_May_05_1050,ExactRep-v3-final,2021.2.3,59.93698226542875,
,,,,,,,,107,0,107,0,,,,,,,,,,,,,,,,,,,,,,,,,,,,,,,,,,,,,,,,,,,,,,,,,,,,,1078.8212115997449,None,,,,,,,,,,,,,,,,,,,,,,,,,,,,,,,,,,,kiss,92,108,aloud,red,1076.8190631000325,None,None,1076.8190631000325,None,,,,,,,,,,,,,,,,,,,,,,,,,,,,,,74YB,001,2023_May_05_1050,ExactRep-v3-final,2021.2.3,59.93698226542875,
,,,,,,,,108,0,108,0,,,,,,,,,,,,,,,,,,,,,,,,,,,,,,,,,,,,,,,,,,,,,,,,,,,,,1081.3404134996235,None,,,,,,,,,,,,,,,,,,,,,,,,,,,,,,,,,,,army,119,109,aloud,red,1079.3267550999299,None,None,1079.3267550999299,None,,,,,,,,,,,,,,,,,,,,,,,,,,,,,,74YB,001,2023_May_05_1050,ExactRep-v3-final,2021.2.3,59.93698226542875,
,,,,,,,,109,0,109,0,,,,,,,,,,,,,,,,,,,,,,,,,,,,,,,,,,,,,,,,,,,,,,,,,,,,,1083.8428739001974,None,,,,,,,,,,,,,,,,,,,,,,,,,,,,,,,,,,,duty,19,110,sing,blue,1081.8420156994835,None,None,1081.8420156994835,None,,,,,,,,,,,,,,,,,,,,,,,,,,,,,,74YB,001,2023_May_05_1050,ExactRep-v3-final,2021.2.3,59.93698226542875,
,,,,,,,,110,0,110,0,,,,,,,,,,,,,,,,,,,,,,,,,,,,,,,,,,,,,,,,,,,,,,,,,,,,,1086.3454962996766,None,,,,,,,,,,,,,,,,,,,,,,,,,,,,,,,,,,,child,91,111,aloud,red,1084.3436348997056,None,None,1084.3436348997056,None,,,,,,,,,,,,,,,,,,,,,,,,,,,,,,74YB,001,2023_May_05_1050,ExactRep-v3-final,2021.2.3,59.93698226542875,
,,,,,,,,111,0,111,0,,,,,,,,,,,,,,,,,,,,,,,,,,,,,,,,,,,,,,,,,,,,,,,,,,,,,1088.8646636996418,None,,,,,,,,,,,,,,,,,,,,,,,,,,,,,,,,,,,diamond,17,112,sing,blue,1086.8514717994258,None,None,1086.8514717994258,None,,,,,,,,,,,,,,,,,,,,,,,,,,,,,,74YB,001,2023_May_05_1050,ExactRep-v3-final,2021.2.3,59.93698226542875,
,,,,,,,,112,0,112,0,,,,,,,,,,,,,,,,,,,,,,,,,,,,,,,,,,,,,,,,,,,,,,,,,,,,,1091.3835658002645,None,,,,,,,,,,,,,,,,,,,,,,,,,,,,,,,,,,,potato,53,113,silent,white,1089.3684697998688,None,None,1089.3684697998688,None,,,,,,,,,,,,,,,,,,,,,,,,,,,,,,74YB,001,2023_May_05_1050,ExactRep-v3-final,2021.2.3,59.93698226542875,
,,,,,,,,113,0,113,0,,,,,,,,,,,,,,,,,,,,,,,,,,,,,,,,,,,,,,,,,,,,,,,,,,,,,1093.9029863001779,None,,,,,,,,,,,,,,,,,,,,,,,,,,,,,,,,,,,party,33,114,sing,blue,1091.8942334996536,None,None,1091.8942334996536,None,,,,,,,,,,,,,,,,,,,,,,,,,,,,,,74YB,001,2023_May_05_1050,ExactRep-v3-final,2021.2.3,59.93698226542875,
,,,,,,,,114,0,114,0,,,,,,,,,,,,,,,,,,,,,,,,,,,,,,,,,,,,,,,,,,,,,,,,,,,,,1096.4054491994902,None,,,,,,,,,,,,,,,,,,,,,,,,,,,,,,,,,,,city,40,115,silent,white,1094.405914899893,None,None,1094.405914899893,None,,,,,,,,,,,,,,,,,,,,,,,,,,,,,,74YB,001,2023_May_05_1050,ExactRep-v3-final,2021.2.3,59.93698226542875,
,,,,,,,,115,0,115,0,,,,,,,,,,,,,,,,,,,,,,,,,,,,,,,,,,,,,,,,,,,,,,,,,,,,,1098.9077174002305,None,,,,,,,,,,,,,,,,,,,,,,,,,,,,,,,,,,,artist,55,116,silent,white,1096.905961399898,None,None,1096.905961399898,None,,,,,,,,,,,,,,,,,,,,,,,,,,,,,,74YB,001,2023_May_05_1050,ExactRep-v3-final,2021.2.3,59.93698226542875,
,,,,,,,,116,0,116,0,,,,,,,,,,,,,,,,,,,,,,,,,,,,,,,,,,,,,,,,,,,,,,,,,,,,,1101.410317200236,None,,,,,,,,,,,,,,,,,,,,,,,,,,,,,,,,,,,pole,90,117,aloud,red,1099.4102763999254,None,None,1099.4102763999254,None,,,,,,,,,,,,,,,,,,,,,,,,,,,,,,74YB,001,2023_May_05_1050,ExactRep-v3-final,2021.2.3,59.93698226542875,
,,,,,,,,117,0,117,0,,,,,,,,,,,,,,,,,,,,,,,,,,,,,,,,,,,,,,,,,,,,,,,,,,,,,1103.912911599502,None,,,,,,,,,,,,,,,,,,,,,,,,,,,,,,,,,,,flag,107,118,aloud,red,1101.9132850002497,None,None,1101.9132850002497,None,,,,,,,,,,,,,,,,,,,,,,,,,,,,,,74YB,001,2023_May_05_1050,ExactRep-v3-final,2021.2.3,59.93698226542875,
,,,,,,,,118,0,118,0,,,,,,,,,,,,,,,,,,,,,,,,,,,,,,,,,,,,,,,,,,,,,,,,,,,,,1106.4319479996338,None,,,,,,,,,,,,,,,,,,,,,,,,,,,,,,,,,,,college,18,119,sing,blue,1104.416695700027,None,None,1104.416695700027,None,,,,,,,,,,,,,,,,,,,,,,,,,,,,,,74YB,001,2023_May_05_1050,ExactRep-v3-final,2021.2.3,59.93698226542875,
,,,,,,,,119,0,119,0,,,,,,,,,,,,,,,,,,,,,,,,,,,,,,,,,,,,,,,,,,,,,,,,,,,,,1108.95133779943,None,,,,,,,,,,,,,,,,,,,,,,,,,,,,,,,,,,,mercy,74,120,silent,white,1106.937989199534,None,None,1106.937989199534,None,,,,,,,,,,,,,,,,,,,,,,,,,,,,,,74YB,001,2023_May_05_1050,ExactRep-v3-final,2021.2.3,59.93698226542875,
,,,,,,,,,,,,,,,,,,,,,,,,,,,,,,,,,,,,,,,,,,,,,,,,,,,,,,,,,,,,,,,,,,,,,,,,,,,,,,,,,,,,,,,,,,,,,,,,,,,,,,,,,,,,,,1109.453343999572,None,space,3.4652468003332615,1119.4298415994272,None,,,,,,,,,,,,,,,,,,,,,,,,74YB,001,2023_May_05_1050,ExactRep-v3-final,2021.2.3,59.93698226542875,
,,,,,,,,,,,,,,,,,,,,,,,,,,,,,,,,,,,,,,,,,,,,,,,,,,,,,,,,,,,,,,,,,,,,,,,,,,,,,,,,,,,,,,,,,,,,,,,,,,,,,,,,,,,,,,,,,,,,1122.9171303994954,None,space,20.681972799822688,1132.8932290999219,None,,,,,,,,,,,,,,,,,,74YB,001,2023_May_05_1050,ExactRep-v3-final,2021.2.3,59.93698226542875,
,,,,,,,,,,,,0,0,0,0,,,,,,,,,,,,,,,,,,,,,,,,,,,,,,,,,,,,,,,,,,,,,,,,,1165.2742411000654,None,,,,,,,,,,,,,,,,,,,,,,,,,,,,,,,,,,,,,,,,,,,,,,,,,,,,,,,,,poet,142,1,silent,new,white,1154.1031609997153,None,n,1154.1031609997153,None,"['n', 'y', 'return']","[7.4717058995738626, 9.015795199200511, 11.127569199539721]",1154.1031609997153,None,,,74YB,001,2023_May_05_1050,ExactRep-v3-final,2021.2.3,59.93698226542875,
,,,,,,,,,,,,1,0,1,0,,,,,,,,,,,,,,,,,,,,,,,,,,,,,,,,,,,,,,,,,,,,,,,,,1173.115528400056,None,,,,,,,,,,,,,,,,,,,,,,,,,,,,,,,,,,,,,,,,,,,,,,,,,,,,,,,,,excuse,110,2,aloud,old,red,1165.7860856000334,None,y,1165.7860856000334,None,"['y', 'return']","[6.956670299172401, 7.29269539937377]",1165.7860856000334,None,,,74YB,001,2023_May_05_1050,ExactRep-v3-final,2021.2.3,59.93698226542875,
,,,,,,,,,,,,2,0,2,0,,,,,,,,,,,,,,,,,,,,,,,,,,,,,,,,,,,,,,,,,,,,,,,,,1175.0339599996805,None,,,,,,,,,,,,,,,,,,,,,,,,,,,,,,,,,,,,,,,,,,,,,,,,,,,,,,,,,corner,32,3,sing,old,blue,1173.6301712002605,None,y,1173.6301712002605,None,"['y', 'return']","[0.8887432999908924, 1.3686769995838404]",1173.6301712002605,None,,,74YB,001,2023_May_05_1050,ExactRep-v3-final,2021.2.3,59.93698226542875,
,,,,,,,,,,,,3,0,3,0,,,,,,,,,,,,,,,,,,,,,,,,,,,,,,,,,,,,,,,,,,,,,,,,,1177.5532051995397,None,,,,,,,,,,,,,,,,,,,,,,,,,,,,,,,,,,,,,,,,,,,,,,,,,,,,,,,,,passion,158,4,silent,new,white,1175.546139500104,None,y,1175.546139500104,None,"['y', 'return']","[1.660496199503541, 1.9726461991667747]",1175.546139500104,None,,,74YB,001,2023_May_05_1050,ExactRep-v3-final,2021.2.3,59.93698226542875,
,,,,,,,,,,,,4,0,4,0,,,,,,,,,,,,,,,,,,,,,,,,,,,,,,,,,,,,,,,,,,,,,,,,,1179.338272199966,None,,,,,,,,,,,,,,,,,,,,,,,,,,,,,,,,,,,,,,,,,,,,,,,,,,,,,,,,,forest,78,5,silent,old,white,1178.062996099703,None,y,1178.062996099703,None,"['y', 'return']","[0.9197620004415512, 1.2316972007974982]",1178.062996099703,None,,,74YB,001,2023_May_05_1050,ExactRep-v3-final,2021.2.3,59.93698226542875,
,,,,,,,,,,,,5,0,5,0,,,,,,,,,,,,,,,,,,,,,,,,,,,,,,,,,,,,,,,,,,,,,,,,,1180.8897470002994,None,,,,,,,,,,,,,,,,,,,,,,,,,,,,,,,,,,,,,,,,,,,,,,,,,,,,,,,,,water,7,6,sing,old,blue,1179.8506678994745,None,y,1179.8506678994745,None,"['y', 'return']","[0.7080955998972058, 0.9959692005068064]",1179.8506678994745,None,,,74YB,001,2023_May_05_1050,ExactRep-v3-final,2021.2.3,59.93698226542875,
,,,,,,,,,,,,6,0,6,0,,,,,,,,,,,,,,,,,,,,,,,,,,,,,,,,,,,,,,,,,,,,,,,,,1182.5747667998075,None,,,,,,,,,,,,,,,,,,,,,,,,,,,,,,,,,,,,,,,,,,,,,,,,,,,,,,,,,mercy,74,7,silent,old,white,1181.4006567997858,None,y,1181.4006567997858,None,"['y', 'return']","[0.8461071001365781, 1.1260982006788254]",1181.4006567997858,None,,,74YB,001,2023_May_05_1050,ExactRep-v3-final,2021.2.3,59.93698226542875,
,,,,,,,,,,,,7,0,7,0,,,,,,,,,,,,,,,,,,,,,,,,,,,,,,,,,,,,,,,,,,,,,,,,,1184.2931479001418,None,,,,,,,,,,,,,,,,,,,,,,,,,,,,,,,,,,,,,,,,,,,,,,,,,,,,,,,,,devil,198,8,aloud,new,red,1183.087189999409,None,n,1183.087189999409,None,"['n', 'return']","[0.9114931002259254, 1.167607200331986]",1183.087189999409,None,,,74YB,001,2023_May_05_1050,ExactRep-v3-final,2021.2.3,59.93698226542875,
,,,,,,,,,,,,8,0,8,0,,,,,,,,,,,,,,,,,,,,,,,,,,,,,,,,,,,,,,,,,,,,,,,,,1186.7291067996994,None,,,,,,,,,,,,,,,,,,,,,,,,,,,,,,,,,,,,,,,,,,,,,,,,,,,,,,,,,dollar,180,9,aloud,new,red,1184.8027617000043,None,n,1184.8027617000043,None,"['n', 'return']","[1.660045299679041, 1.891983900219202]",1184.8027617000043,None,,,74YB,001,2023_May_05_1050,ExactRep-v3-final,2021.2.3,59.93698226542875,
,,,,,,,,,,,,9,0,9,0,,,,,,,,,,,,,,,,,,,,,,,,,,,,,,,,,,,,,,,,,,,,,,,,,1188.5143238995224,None,,,,,,,,,,,,,,,,,,,,,,,,,,,,,,,,,,,,,,,,,,,,,,,,,,,,,,,,,plant,207,10,sing,new,blue,1187.2388086998835,None,n,1187.2388086998835,None,"['n', 'return']","[0.976176300086081, 1.2401557005941868]",1187.2388086998835,None,,,74YB,001,2023_May_05_1050,ExactRep-v3-final,2021.2.3,59.93698226542875,
,,,,,,,,,,,,10,0,10,0,,,,,,,,,,,,,,,,,,,,,,,,,,,,,,,,,,,,,,,,,,,,,,,,,1190.3658694000915,None,,,,,,,,,,,,,,,,,,,,,,,,,,,,,,,,,,,,,,,,,,,,,,,,,,,,,,,,,animal,67,11,silent,old,white,1189.034398299642,None,y,1189.034398299642,None,"['y', 'return']","[1.0365038001909852, 1.2844313997775316]",1189.034398299642,None,,,74YB,001,2023_May_05_1050,ExactRep-v3-final,2021.2.3,59.93698226542875,
,,,,,,,,,,,,11,0,11,0,,,,,,,,,,,,,,,,,,,,,,,,,,,,,,,,,,,,,,,,,,,,,,,,,1191.9508793996647,None,,,,,,,,,,,,,,,,,,,,,,,,,,,,,,,,,,,,,,,,,,,,,,,,,,,,,,,,,troops,201,12,sing,new,blue,1190.8742480995134,None,n,1190.8742480995134,None,"['n', 'return']","[0.7645419994369149, 1.0285530993714929]",1190.8742480995134,None,,,74YB,001,2023_May_05_1050,ExactRep-v3-final,2021.2.3,59.93698226542875,
,,,,,,,,,,,,12,0,12,0,,,,,,,,,,,,,,,,,,,,,,,,,,,,,,,,,,,,,,,,,,,,,,,,,1193.7026237994432,None,,,,,,,,,,,,,,,,,,,,,,,,,,,,,,,,,,,,,,,,,,,,,,,,,,,,,,,,,present,196,13,aloud,new,red,1192.4591975994408,None,y,1192.4591975994408,None,"['y', 'return']","[0.8516742000356317, 1.2115552006289363]",1192.4591975994408,None,,,74YB,001,2023_May_05_1050,ExactRep-v3-final,2021.2.3,59.93698226542875,
,,,,,,,,,,,,13,0,13,0,,,,,,,,,,,,,,,,,,,,,,,,,,,,,,,,,,,,,,,,,,,,,,,,,1196.8723734999076,None,,,,,,,,,,,,,,,,,,,,,,,,,,,,,,,,,,,,,,,,,,,,,,,,,,,,,,,,,library,59,14,silent,old,white,1194.2076445994899,None,n,1194.2076445994899,None,"['n', 'return']","[2.4150966992601752, 2.631140699610114]",1194.2076445994899,None,,,74YB,001,2023_May_05_1050,ExactRep-v3-final,2021.2.3,59.93698226542875,
,,,,,,,,,,,,14,0,14,0,,,,,,,,,,,,,,,,,,,,,,,,,,,,,,,,,,,,,,,,,,,,,,,,,1198.4072473002598,None,,,,,,,,,,,,,,,,,,,,,,,,,,,,,,,,,,,,,,,,,,,,,,,,,,,,,,,,,string,56,15,silent,old,white,1197.382500499487,None,n,1197.382500499487,None,"['n', 'return']","[0.848339700140059, 0.9846556996926665]",1197.382500499487,None,,,74YB,001,2023_May_05_1050,ExactRep-v3-final,2021.2.3,59.93698226542875,
,,,,,,,,,,,,15,0,15,0,,,,,,,,,,,,,,,,,,,,,,,,,,,,,,,,,,,,,,,,,,,,,,,,,1199.942295299843,None,,,,,,,,,,,,,,,,,,,,,,,,,,,,,,,,,,,,,,,,,,,,,,,,,,,,,,,,,fur,163,16,sing,new,blue,1198.9201509002596,None,n,1198.9201509002596,None,"['n', 'return']","[0.8147528003901243, 0.9746497003361583]",1198.9201509002596,None,,,74YB,001,2023_May_05_1050,ExactRep-v3-final,2021.2.3,59.93698226542875,
,,,,,,,,,,,,16,0,16,0,,,,,,,,,,,,,,,,,,,,,,,,,,,,,,,,,,,,,,,,,,,,,,,,,1201.476978899911,None,,,,,,,,,,,,,,,,,,,,,,,,,,,,,,,,,,,,,,,,,,,,,,,,,,,,,,,,,judge,225,17,sing,new,blue,1200.4464138997719,None,n,1200.4464138997719,None,"['n', 'return']","[0.8403899995610118, 0.9924127003178]",1200.4464138997719,None,,,74YB,001,2023_May_05_1050,ExactRep-v3-final,2021.2.3,59.93698226542875,
,,,,,,,,,,,,17,0,17,0,,,,,,,,,,,,,,,,,,,,,,,,,,,,,,,,,,,,,,,,,,,,,,,,,1203.0119306994602,None,,,,,,,,,,,,,,,,,,,,,,,,,,,,,,,,,,,,,,,,,,,,,,,,,,,,,,,,,master,162,18,aloud,new,red,1201.9866359001026,None,y,1201.9866359001026,None,"['y', 'return']","[0.8441608007997274, 0.9881813004612923]",1201.9866359001026,None,,,74YB,001,2023_May_05_1050,ExactRep-v3-final,2021.2.3,59.93698226542875,
,,,,,,,,,,,,18,0,18,0,,,,,,,,,,,,,,,,,,,,,,,,,,,,,,,,,,,,,,,,,,,,,,,,,1204.997286300175,None,,,,,,,,,,,,,,,,,,,,,,,,,,,,,,,,,,,,,,,,,,,,,,,,,,,,,,,,,freedom,25,19,sing,old,blue,1203.5234719999135,None,y,1203.5234719999135,None,"['y', 'return']","[1.315307100303471, 1.427496800199151]",1203.5234719999135,None,,,74YB,001,2023_May_05_1050,ExactRep-v3-final,2021.2.3,59.93698226542875,
,,,,,,,,,,,,19,0,19,0,,,,,,,,,,,,,,,,,,,,,,,,,,,,,,,,,,,,,,,,,,,,,,,,,1206.6154506998137,None,,,,,,,,,,,,,,,,,,,,,,,,,,,,,,,,,,,,,,,,,,,,,,,,,,,,,,,,,rod,178,20,aloud,new,red,1205.5062891002744,None,n,1205.5062891002744,None,"['n', 'return']","[0.8605150002986193, 1.0764643996953964]",1205.5062891002744,None,,,74YB,001,2023_May_05_1050,ExactRep-v3-final,2021.2.3,59.93698226542875,
,,,,,,,,,,,,20,0,20,0,,,,,,,,,,,,,,,,,,,,,,,,,,,,,,,,,,,,,,,,,,,,,,,,,1209.0345411002636,None,,,,,,,,,,,,,,,,,,,,,,,,,,,,,,,,,,,,,,,,,,,,,,,,,,,,,,,,,woman,140,21,silent,new,white,1207.1198416994885,None,y,1207.1198416994885,None,"['y', 'return']","[1.7112504001706839, 1.8709373008459806]",1207.1198416994885,None,,,74YB,001,2023_May_05_1050,ExactRep-v3-final,2021.2.3,59.93698226542875,
,,,,,,,,,,,,21,0,21,0,,,,,,,,,,,,,,,,,,,,,,,,,,,,,,,,,,,,,,,,,,,,,,,,,1210.3193143000826,None,,,,,,,,,,,,,,,,,,,,,,,,,,,,,,,,,,,,,,,,,,,,,,,,,,,,,,,,,mother,143,22,silent,new,white,1209.5394163001329,None,y,1209.5394163001329,None,"['y', 'return']","[0.6594509007409215, 0.7473804000765085]",1209.5394163001329,None,,,74YB,001,2023_May_05_1050,ExactRep-v3-final,2021.2.3,59.93698226542875,
,,,,,,,,,,,,22,0,22,0,,,,,,,,,,,,,,,,,,,,,,,,,,,,,,,,,,,,,,,,,,,,,,,,,1211.370459199883,None,,,,,,,,,,,,,,,,,,,,,,,,,,,,,,,,,,,,,,,,,,,,,,,,,,,,,,,,,potato,53,23,silent,old,white,1210.827963099815,None,y,1210.827963099815,None,"['y', 'return']","[0.4349300004541874, 0.5069396002218127]",1210.827963099815,None,,,74YB,001,2023_May_05_1050,ExactRep-v3-final,2021.2.3,59.93698226542875,
,,,,,,,,,,,,23,0,23,0,,,,,,,,,,,,,,,,,,,,,,,,,,,,,,,,,,,,,,,,,,,,,,,,,1213.2888735001907,None,,,,,,,,,,,,,,,,,,,,,,,,,,,,,,,,,,,,,,,,,,,,,,,,,,,,,,,,,wife,39,24,silent,old,white,1211.879783499986,None,y,1211.879783499986,None,"['y', 'return', 'return', 'y', 'return']","[0.6070966999977827, 0.6070966999977827, 1.1030601002275944, 1.1511802999302745, 1.3750163996592164]",1211.879783499986,None,,,74YB,001,2023_May_05_1050,ExactRep-v3-final,2021.2.3,59.93698226542875,
,,,,,,,,,,,,24,0,24,0,,,,,,,,,,,,,,,,,,,,,,,,,,,,,,,,,,,,,,,,,,,,,,,,,1214.9571931995451,None,,,,,,,,,,,,,,,,,,,,,,,,,,,,,,,,,,,,,,,,,,,,,,,,,,,,,,,,,author,105,25,aloud,old,red,1213.7957335999236,None,y,1213.7957335999236,None,"['y', 'return']","[0.9630514997988939, 1.1150998994708061]",1213.7957335999236,None,,,74YB,001,2023_May_05_1050,ExactRep-v3-final,2021.2.3,59.93698226542875,
,,,,,,,,,,,,25,0,25,0,,,,,,,,,,,,,,,,,,,,,,,,,,,,,,,,,,,,,,,,,,,,,,,,,1216.0584055995569,None,,,,,,,,,,,,,,,,,,,,,,,,,,,,,,,,,,,,,,,,,,,,,,,,,,,,,,,,,salary,82,26,aloud,old,red,1215.467306099832,None,y,1215.467306099832,None,"['y', 'return']","[0.41947530023753643, 0.5474973004311323]",1215.467306099832,None,,,74YB,001,2023_May_05_1050,ExactRep-v3-final,2021.2.3,59.93698226542875,
,,,,,,,,,,,,26,0,26,0,,,,,,,,,,,,,,,,,,,,,,,,,,,,,,,,,,,,,,,,,,,,,,,,,1217.126218999736,None,,,,,,,,,,,,,,,,,,,,,,,,,,,,,,,,,,,,,,,,,,,,,,,,,,,,,,,,,rock,133,27,silent,new,white,1216.5638611996546,None,y,1216.5638611996546,None,"['y', 'return']","[0.47523059975355864, 0.523043000139296]",1216.5638611996546,None,,,74YB,001,2023_May_05_1050,ExactRep-v3-final,2021.2.3,59.93698226542875,
,,,,,,,,,,,,27,0,27,0,,,,,,,,,,,,,,,,,,,,,,,,,,,,,,,,,,,,,,,,,,,,,,,,,1218.810968699865,None,,,,,,,,,,,,,,,,,,,,,,,,,,,,,,,,,,,,,,,,,,,,,,,,,,,,,,,,,fortune,72,28,silent,old,white,1217.6380193997175,None,y,1217.6380193997175,None,"['y', 'return']","[0.9527879999950528, 1.1288534998893738]",1217.6380193997175,None,,,74YB,001,2023_May_05_1050,ExactRep-v3-final,2021.2.3,59.93698226542875,
,,,,,,,,,,,,28,0,28,0,,,,,,,,,,,,,,,,,,,,,,,,,,,,,,,,,,,,,,,,,,,,,,,,,1220.062396899797,None,,,,,,,,,,,,,,,,,,,,,,,,,,,,,,,,,,,,,,,,,,,,,,,,,,,,,,,,,lad,179,29,sing,new,blue,1219.3200471000746,None,y,1219.3200471000746,None,"['y', 'return']","[0.35900789964944124, 0.6948525998741388]",1219.3200471000746,None,,,74YB,001,2023_May_05_1050,ExactRep-v3-final,2021.2.3,59.93698226542875,
,,,,,,,,,,,,29,0,29,0,,,,,,,,,,,,,,,,,,,,,,,,,,,,,,,,,,,,,,,,,,,,,,,,,1222.0809276998043,None,,,,,,,,,,,,,,,,,,,,,,,,,,,,,,,,,,,,,,,,,,,,,,,,,,,,,,,,,ticket,8,30,sing,old,blue,1220.5733482996002,None,n,1220.5733482996002,None,"['n', 'return']","[1.185458599589765, 1.4734257999807596]",1220.5733482996002,None,,,74YB,001,2023_May_05_1050,ExactRep-v3-final,2021.2.3,59.93698226542875,
,,,,,,,,,,,,30,0,30,0,,,,,,,,,,,,,,,,,,,,,,,,,,,,,,,,,,,,,,,,,,,,,,,,,1223.70119300019,None,,,,,,,,,,,,,,,,,,,,,,,,,,,,,,,,,,,,,,,,,,,,,,,,,,,,,,,,,factory,126,31,silent,new,white,1222.5892835995182,None,y,1222.5892835995182,None,"['y', 'return']","[0.8495439002290368, 1.0735916001722217]",1222.5892835995182,None,,,74YB,001,2023_May_05_1050,ExactRep-v3-final,2021.2.3,59.93698226542875,
,,,,,,,,,,,,31,0,31,0,,,,,,,,,,,,,,,,,,,,,,,,,,,,,,,,,,,,,,,,,,,,,,,,,1225.1173061002046,None,,,,,,,,,,,,,,,,,,,,,,,,,,,,,,,,,,,,,,,,,,,,,,,,,,,,,,,,,teacher,101,32,aloud,old,red,1224.2241214998066,None,y,1224.2241214998066,None,"['y', 'return']","[0.6627221005037427, 0.8467294005677104]",1224.2241214998066,None,,,74YB,001,2023_May_05_1050,ExactRep-v3-final,2021.2.3,59.93698226542875,
,,,,,,,,,,,,32,0,32,0,,,,,,,,,,,,,,,,,,,,,,,,,,,,,,,,,,,,,,,,,,,,,,,,,1226.3520275996998,None,,,,,,,,,,,,,,,,,,,,,,,,,,,,,,,,,,,,,,,,,,,,,,,,,,,,,,,,,palace,164,33,aloud,new,red,1225.6298313997686,None,y,1225.6298313997686,None,"['y', 'return']","[0.5531794996932149, 0.6810111002996564]",1225.6298313997686,None,,,74YB,001,2023_May_05_1050,ExactRep-v3-final,2021.2.3,59.93698226542875,
,,,,,,,,,,,,33,0,33,0,,,,,,,,,,,,,,,,,,,,,,,,,,,,,,,,,,,,,,,,,,,,,,,,,1227.5698357000947,None,,,,,,,,,,,,,,,,,,,,,,,,,,,,,,,,,,,,,,,,,,,,,,,,,,,,,,,,,fun,148,34,silent,new,white,1226.8626963999122,None,y,1226.8626963999122,None,"['y', 'return']","[0.4960163999348879, 0.6640154998749495]",1226.8626963999122,None,,,74YB,001,2023_May_05_1050,ExactRep-v3-final,2021.2.3,59.93698226542875,
,,,,,,,,,,,,34,0,34,0,,,,,,,,,,,,,,,,,,,,,,,,,,,,,,,,,,,,,,,,,,,,,,,,,1228.8044895995408,None,,,,,,,,,,,,,,,,,,,,,,,,,,,,,,,,,,,,,,,,,,,,,,,,,,,,,,,,,vision,96,35,aloud,old,red,1228.078515299596,None,y,1228.078515299596,None,"['y', 'return']","[0.5683260997757316, 0.6883592996746302]",1228.078515299596,None,,,74YB,001,2023_May_05_1050,ExactRep-v3-final,2021.2.3,59.93698226542875,
,,,,,,,,,,,,35,0,35,0,,,,,,,,,,,,,,,,,,,,,,,,,,,,,,,,,,,,,,,,,,,,,,,,,1230.0889306999743,None,,,,,,,,,,,,,,,,,,,,,,,,,,,,,,,,,,,,,,,,,,,,,,,,,,,,,,,,,shoes,0,36,sing,old,blue,1229.319388399832,None,n,1229.319388399832,None,"['n', 'return']","[0.6154391001909971, 0.735406500287354]",1229.319388399832,None,,,74YB,001,2023_May_05_1050,ExactRep-v3-final,2021.2.3,59.93698226542875,
,,,,,,,,,,,,36,0,36,0,,,,,,,,,,,,,,,,,,,,,,,,,,,,,,,,,,,,,,,,,,,,,,,,,1231.2901523001492,None,,,,,,,,,,,,,,,,,,,,,,,,,,,,,,,,,,,,,,,,,,,,,,,,,,,,,,,,,style,169,37,sing,new,blue,1230.5988531000912,None,n,1230.5988531000912,None,"['n', 'return']","[0.6241303002461791, 0.6480542002245784]",1230.5988531000912,None,,,74YB,001,2023_May_05_1050,ExactRep-v3-final,2021.2.3,59.93698226542875,
,,,,,,,,,,,,37,0,37,0,,,,,,,,,,,,,,,,,,,,,,,,,,,,,,,,,,,,,,,,,,,,,,,,,1233.2420854000375,None,,,,,,,,,,,,,,,,,,,,,,,,,,,,,,,,,,,,,,,,,,,,,,,,,,,,,,,,,thought,212,38,aloud,new,red,1231.7995776999742,None,y,1231.7995776999742,None,"['y', 'return', 'y', 'return']","[0.7515232004225254, 0.7515232004225254, 1.1913015004247427, 1.4076421996578574]",1231.7995776999742,None,,,74YB,001,2023_May_05_1050,ExactRep-v3-final,2021.2.3,59.93698226542875,
,,,,,,,,,,,,38,0,38,0,,,,,,,,,,,,,,,,,,,,,,,,,,,,,,,,,,,,,,,,,,,,,,,,,1235.6444788994268,None,,,,,,,,,,,,,,,,,,,,,,,,,,,,,,,,,,,,,,,,,,,,,,,,,,,,,,,,,power,139,39,silent,new,white,1233.7558116000146,None,y,1233.7558116000146,None,"['y', 'return', 'y', 'return']","[1.1552267000079155, 1.1552267000079155, 1.5390488002449274, 1.8510320000350475]",1233.7558116000146,None,,,74YB,001,2023_May_05_1050,ExactRep-v3-final,2021.2.3,59.93698226542875,
,,,,,,,,,,,,39,0,39,0,,,,,,,,,,,,,,,,,,,,,,,,,,,,,,,,,,,,,,,,,,,,,,,,,1238.3138303002343,None,,,,,,,,,,,,,,,,,,,,,,,,,,,,,,,,,,,,,,,,,,,,,,,,,,,,,,,,,blood,190,40,aloud,new,red,1236.152409300208,None,n,1236.152409300208,None,"['n', 'return']","[1.9985579000785947, 2.1264744997024536]",1236.152409300208,None,,,74YB,001,2023_May_05_1050,ExactRep-v3-final,2021.2.3,59.93698226542875,
,,,,,,,,,,,,40,0,40,0,,,,,,,,,,,,,,,,,,,,,,,,,,,,,,,,,,,,,,,,,,,,,,,,,1240.3825546000153,None,,,,,,,,,,,,,,,,,,,,,,,,,,,,,,,,,,,,,,,,,,,,,,,,,,,,,,,,,gift,103,41,aloud,old,red,1238.820822299458,None,y,1238.820822299458,None,"['y', 'return']","[1.2981914998963475, 1.5220734002068639]",1238.820822299458,None,,,74YB,001,2023_May_05_1050,ExactRep-v3-final,2021.2.3,59.93698226542875,
,,,,,,,,,,,,41,0,41,0,,,,,,,,,,,,,,,,,,,,,,,,,,,,,,,,,,,,,,,,,,,,,,,,,1241.5671523995697,None,,,,,,,,,,,,,,,,,,,,,,,,,,,,,,,,,,,,,,,,,,,,,,,,,,,,,,,,,glory,121,42,silent,new,white,1240.902022300288,None,y,1240.902022300288,None,"['y', 'return']","[0.5048123998567462, 0.6250128000974655]",1240.902022300288,None,,,74YB,001,2023_May_05_1050,ExactRep-v3-final,2021.2.3,59.93698226542875,
,,,,,,,,,,,,42,0,42,0,,,,,,,,,,,,,,,,,,,,,,,,,,,,,,,,,,,,,,,,,,,,,,,,,1243.0685797994956,None,,,,,,,,,,,,,,,,,,,,,,,,,,,,,,,,,,,,,,,,,,,,,,,,,,,,,,,,,prayer,125,43,silent,new,white,1242.0769616998732,None,n,1242.0769616998732,None,"['n', 'return']","[0.8178754998371005, 0.9539589006453753]",1242.0769616998732,None,,,74YB,001,2023_May_05_1050,ExactRep-v3-final,2021.2.3,59.93698226542875,
,,,,,,,,,,,,43,0,43,0,,,,,,,,,,,,,,,,,,,,,,,,,,,,,,,,,,,,,,,,,,,,,,,,,1244.3698859997094,None,,,,,,,,,,,,,,,,,,,,,,,,,,,,,,,,,,,,,,,,,,,,,,,,,,,,,,,,,clock,154,44,silent,new,white,1243.5695027997717,None,n,1243.5695027997717,None,"['n', 'return']","[0.733284099958837, 0.7653128001838923]",1243.5695027997717,None,,,74YB,001,2023_May_05_1050,ExactRep-v3-final,2021.2.3,59.93698226542875,
,,,,,,,,,,,,44,0,44,0,,,,,,,,,,,,,,,,,,,,,,,,,,,,,,,,,,,,,,,,,,,,,,,,,1246.271855100058,None,,,,,,,,,,,,,,,,,,,,,,,,,,,,,,,,,,,,,,,,,,,,,,,,,,,,,,,,,series,237,45,sing,new,blue,1244.8790076998994,None,n,1244.8790076998994,None,"['n', 'return', 'n', 'return']","[0.5760284001007676, 0.5760284001007676, 1.1839975006878376, 1.3599921008571982]",1244.8790076998994,None,,,74YB,001,2023_May_05_1050,ExactRep-v3-final,2021.2.3,59.93698226542875,
,,,,,,,,,,,,45,0,45,0,,,,,,,,,,,,,,,,,,,,,,,,,,,,,,,,,,,,,,,,,,,,,,,,,1247.6232837997377,None,,,,,,,,,,,,,,,,,,,,,,,,,,,,,,,,,,,,,,,,,,,,,,,,,,,,,,,,,wine,232,46,aloud,new,red,1246.783405199647,None,n,1246.783405199647,None,"['n', 'return']","[0.6232904996722937, 0.8074896996840835]",1246.783405199647,None,,,74YB,001,2023_May_05_1050,ExactRep-v3-final,2021.2.3,59.93698226542875,
,,,,,,,,,,,,46,0,46,0,,,,,,,,,,,,,,,,,,,,,,,,,,,,,,,,,,,,,,,,,,,,,,,,,1249.7587863001972,None,,,,,,,,,,,,,,,,,,,,,,,,,,,,,,,,,,,,,,,,,,,,,,,,,,,,,,,,,theory,141,47,silent,new,white,1248.1410095999017,None,y,1248.1410095999017,None,"['y', 'return']","[1.457918600179255, 1.5782121997326612]",1248.1410095999017,None,,,74YB,001,2023_May_05_1050,ExactRep-v3-final,2021.2.3,59.93698226542875,
,,,,,,,,,,,,47,0,47,0,,,,,,,,,,,,,,,,,,,,,,,,,,,,,,,,,,,,,,,,,,,,,,,,,1250.926435499452,None,,,,,,,,,,,,,,,,,,,,,,,,,,,,,,,,,,,,,,,,,,,,,,,,,,,,,,,,,home,197,48,sing,new,blue,1250.2702056001872,None,y,1250.2702056001872,None,"['y', 'return']","[0.3207812001928687, 0.6246450999751687]",1250.2702056001872,None,,,74YB,001,2023_May_05_1050,ExactRep-v3-final,2021.2.3,59.93698226542875,
,,,,,,,,,,,,48,0,48,0,,,,,,,,,,,,,,,,,,,,,,,,,,,,,,,,,,,,,,,,,,,,,,,,,1252.1789772994816,None,,,,,,,,,,,,,,,,,,,,,,,,,,,,,,,,,,,,,,,,,,,,,,,,,,,,,,,,,wheat,70,49,silent,old,white,1251.4269511001185,None,n,1251.4269511001185,None,"['n', 'return']","[0.42792570032179356, 0.7080060997977853]",1251.4269511001185,None,,,74YB,001,2023_May_05_1050,ExactRep-v3-final,2021.2.3,59.93698226542875,
,,,,,,,,,,,,49,0,49,0,,,,,,,,,,,,,,,,,,,,,,,,,,,,,,,,,,,,,,,,,,,,,,,,,1253.8627650998533,None,,,,,,,,,,,,,,,,,,,,,,,,,,,,,,,,,,,,,,,,,,,,,,,,,,,,,,,,,square,218,50,aloud,new,red,1252.6892703995109,None,n,1252.6892703995109,None,"['return', 'return', 'n', 'return']","[0.31764219980686903, 0.709752400405705, 0.7815514001995325, 1.1336046000942588]",1252.6892703995109,None,,,74YB,001,2023_May_05_1050,ExactRep-v3-final,2021.2.3,59.93698226542875,
,,,,,,,,,,,,50,0,50,0,,,,,,,,,,,,,,,,,,,,,,,,,,,,,,,,,,,,,,,,,,,,,,,,,1255.0306484997272,None,,,,,,,,,,,,,,,,,,,,,,,,,,,,,,,,,,,,,,,,,,,,,,,,,,,,,,,,,coast,88,51,aloud,old,red,1254.3710738001391,None,y,1254.3710738001391,None,"['y', 'return']","[0.24377209972590208, 0.6117743002250791]",1254.3710738001391,None,,,74YB,001,2023_May_05_1050,ExactRep-v3-final,2021.2.3,59.93698226542875,
,,,,,,,,,,,,51,0,51,0,,,,,,,,,,,,,,,,,,,,,,,,,,,,,,,,,,,,,,,,,,,,,,,,,1256.431953200139,None,,,,,,,,,,,,,,,,,,,,,,,,,,,,,,,,,,,,,,,,,,,,,,,,,,,,,,,,,college,18,52,sing,old,blue,1255.5412347996607,None,y,1255.5412347996607,None,"['return', 'y', 'return']","[0.22564730048179626, 0.513646200299263, 0.8496368005871773]",1255.5412347996607,None,,,74YB,001,2023_May_05_1050,ExactRep-v3-final,2021.2.3,59.93698226542875,
,,,,,,,,,,,,52,0,52,0,,,,,,,,,,,,,,,,,,,,,,,,,,,,,,,,,,,,,,,,,,,,,,,,,1257.6500140000135,None,,,,,,,,,,,,,,,,,,,,,,,,,,,,,,,,,,,,,,,,,,,,,,,,,,,,,,,,,maiden,1,53,sing,old,blue,1256.9415938993916,None,y,1256.9415938993916,None,"['y', 'return']","[0.31329340022057295, 0.6732473997399211]",1256.9415938993916,None,,,74YB,001,2023_May_05_1050,ExactRep-v3-final,2021.2.3,59.93698226542875,
,,,,,,,,,,,,53,0,53,0,,,,,,,,,,,,,,,,,,,,,,,,,,,,,,,,,,,,,,,,,,,,,,,,,1258.9845762997866,None,,,,,,,,,,,,,,,,,,,,,,,,,,,,,,,,,,,,,,,,,,,,,,,,,,,,,,,,,king,49,54,silent,old,white,1258.1672083996236,None,y,1258.1672083996236,None,"['y', 'return']","[0.3036775002256036, 0.7756933001801372]",1258.1672083996236,None,,,74YB,001,2023_May_05_1050,ExactRep-v3-final,2021.2.3,59.93698226542875,
,,,,,,,,,,,,54,0,54,0,,,,,,,,,,,,,,,,,,,,,,,,,,,,,,,,,,,,,,,,,,,,,,,,,1260.50275420025,None,,,,,,,,,,,,,,,,,,,,,,,,,,,,,,,,,,,,,,,,,,,,,,,,,,,,,,,,,officer,175,55,sing,new,blue,1259.5016152001917,None,y,1259.5016152001917,None,"['y', 'return']","[0.5932649001479149, 0.9532715007662773]",1259.5016152001917,None,,,74YB,001,2023_May_05_1050,ExactRep-v3-final,2021.2.3,59.93698226542875,
,,,,,,,,,,,,55,0,55,0,,,,,,,,,,,,,,,,,,,,,,,,,,,,,,,,,,,,,,,,,,,,,,,,,1261.7039642995223,None,,,,,,,,,,,,,,,,,,,,,,,,,,,,,,,,,,,,,,,,,,,,,,,,,,,,,,,,,army,119,56,aloud,old,red,1261.0125454999506,None,n,1261.0125454999506,None,"['n', 'return']","[0.29835589975118637, 0.6503293002024293]",1261.0125454999506,None,,,74YB,001,2023_May_05_1050,ExactRep-v3-final,2021.2.3,59.93698226542875,
,,,,,,,,,,,,56,0,56,0,,,,,,,,,,,,,,,,,,,,,,,,,,,,,,,,,,,,,,,,,,,,,,,,,1262.9385867994279,None,,,,,,,,,,,,,,,,,,,,,,,,,,,,,,,,,,,,,,,,,,,,,,,,,,,,,,,,,brain,153,57,silent,new,white,1262.213453100063,None,y,1262.213453100063,None,"['y', 'return']","[0.42569279950112104, 0.6813601991161704]",1262.213453100063,None,,,74YB,001,2023_May_05_1050,ExactRep-v3-final,2021.2.3,59.93698226542875,
,,,,,,,,,,,,57,0,57,0,,,,,,,,,,,,,,,,,,,,,,,,,,,,,,,,,,,,,,,,,,,,,,,,,1263.8560277996585,None,,,,,,,,,,,,,,,,,,,,,,,,,,,,,,,,,,,,,,,,,,,,,,,,,,,,,,,,,iron,229,58,sing,new,blue,1263.4470154000446,None,y,1263.4470154000446,None,"['y', 'return']","[0.18386930041015148, 0.37594280019402504]",1263.4470154000446,None,,,74YB,001,2023_May_05_1050,ExactRep-v3-final,2021.2.3,59.93698226542875,
,,,,,,,,,,,,58,0,58,0,,,,,,,,,,,,,,,,,,,,,,,,,,,,,,,,,,,,,,,,,,,,,,,,,1265.7413387997076,None,,,,,,,,,,,,,,,,,,,,,,,,,,,,,,,,,,,,,,,,,,,,,,,,,,,,,,,,,student,87,59,aloud,old,red,1264.3633054001257,None,n,1264.3633054001257,None,"['n', 'return']","[0.051454899832606316, 1.339707899838686]",1264.3633054001257,None,,,74YB,001,2023_May_05_1050,ExactRep-v3-final,2021.2.3,59.93698226542875,
,,,,,,,,,,,,59,0,59,0,,,,,,,,,,,,,,,,,,,,,,,,,,,,,,,,,,,,,,,,,,,,,,,,,1267.8600121997297,None,,,,,,,,,,,,,,,,,,,,,,,,,,,,,,,,,,,,,,,,,,,,,,,,,,,,,,,,,insect,234,60,aloud,new,red,1266.2521810997277,None,y,1266.2521810997277,None,"['y', 'return']","[1.3227345002815127, 1.5627186996862292]",1266.2521810997277,None,,,74YB,001,2023_May_05_1050,ExactRep-v3-final,2021.2.3,59.93698226542875,
,,,,,,,,,,,,60,0,60,0,,,,,,,,,,,,,,,,,,,,,,,,,,,,,,,,,,,,,,,,,,,,,,,,,1269.061497000046,None,,,,,,,,,,,,,,,,,,,,,,,,,,,,,,,,,,,,,,,,,,,,,,,,,,,,,,,,,hour,23,61,sing,old,blue,1268.3630507001653,None,y,1268.3630507001653,None,"['y', 'return']","[0.3317323997616768, 0.6518949000164866]",1268.3630507001653,None,,,74YB,001,2023_May_05_1050,ExactRep-v3-final,2021.2.3,59.93698226542875,
,,,,,,,,,,,,61,0,61,0,,,,,,,,,,,,,,,,,,,,,,,,,,,,,,,,,,,,,,,,,,,,,,,,,1270.0789141003042,None,,,,,,,,,,,,,,,,,,,,,,,,,,,,,,,,,,,,,,,,,,,,,,,,,,,,,,,,,flesh,128,62,silent,new,white,1269.5690904995427,None,n,1269.5690904995427,None,"['n', 'return']","[0.21384440083056688, 0.46981010027229786]",1269.5690904995427,None,,,74YB,001,2023_May_05_1050,ExactRep-v3-final,2021.2.3,59.93698226542875,
,,,,,,,,,,,,62,0,62,0,,,,,,,,,,,,,,,,,,,,,,,,,,,,,,,,,,,,,,,,,,,,,,,,,1271.4470095997676,None,,,,,,,,,,,,,,,,,,,,,,,,,,,,,,,,,,,,,,,,,,,,,,,,,,,,,,,,,flag,107,63,aloud,old,red,1270.5880819000304,None,y,1270.5880819000304,None,"['y', 'return']","[0.33071940019726753, 0.826813000254333]",1270.5880819000304,None,,,74YB,001,2023_May_05_1050,ExactRep-v3-final,2021.2.3,59.93698226542875,
,,,,,,,,,,,,63,0,63,0,,,,,,,,,,,,,,,,,,,,,,,,,,,,,,,,,,,,,,,,,,,,,,,,,1272.4480411997065,None,,,,,,,,,,,,,,,,,,,,,,,,,,,,,,,,,,,,,,,,,,,,,,,,,,,,,,,,,history,152,64,silent,new,white,1271.956446999684,None,y,1271.956446999684,None,"['y', 'return']","[0.22641090024262667, 0.45043979957699776]",1271.956446999684,None,,,74YB,001,2023_May_05_1050,ExactRep-v3-final,2021.2.3,59.93698226542875,
,,,,,,,,,,,,64,0,64,0,,,,,,,,,,,,,,,,,,,,,,,,,,,,,,,,,,,,,,,,,,,,,,,,,1273.6325444001704,None,,,,,,,,,,,,,,,,,,,,,,,,,,,,,,,,,,,,,,,,,,,,,,,,,,,,,,,,,woods,184,65,aloud,new,red,1272.9532613996416,None,y,1272.9532613996416,None,"['y', 'return']","[0.5096841994673014, 0.6375404000282288]",1272.9532613996416,None,,,74YB,001,2023_May_05_1050,ExactRep-v3-final,2021.2.3,59.93698226542875,
,,,,,,,,,,,,65,0,65,0,,,,,,,,,,,,,,,,,,,,,,,,,,,,,,,,,,,,,,,,,,,,,,,,,1274.767009000294,None,,,,,,,,,,,,,,,,,,,,,,,,,,,,,,,,,,,,,,,,,,,,,,,,,,,,,,,,,hall,137,66,silent,new,white,1274.145460699685,None,n,1274.145460699685,None,"['n', 'return']","[0.45327410008758307, 0.5814137002453208]",1274.145460699685,None,,,74YB,001,2023_May_05_1050,ExactRep-v3-final,2021.2.3,59.93698226542875,
,,,,,,,,,,,,66,0,66,0,,,,,,,,,,,,,,,,,,,,,,,,,,,,,,,,,,,,,,,,,,,,,,,,,1275.7346294000745,None,,,,,,,,,,,,,,,,,,,,,,,,,,,,,,,,,,,,,,,,,,,,,,,,,,,,,,,,,victory,211,67,sing,new,blue,1275.275956899859,None,n,1275.275956899859,None,"['n', 'return']","[0.2589224996045232, 0.4269693996757269]",1275.275956899859,None,,,74YB,001,2023_May_05_1050,ExactRep-v3-final,2021.2.3,59.93698226542875,
,,,,,,,,,,,,67,0,67,0,,,,,,,,,,,,,,,,,,,,,,,,,,,,,,,,,,,,,,,,,,,,,,,,,1276.9358387999237,None,,,,,,,,,,,,,,,,,,,,,,,,,,,,,,,,,,,,,,,,,,,,,,,,,,,,,,,,,kiss,92,68,aloud,old,red,1276.2460562000051,None,n,1276.2460562000051,None,"['n', 'return']","[0.5528113003820181, 0.6568504003807902]",1276.2460562000051,None,,,74YB,001,2023_May_05_1050,ExactRep-v3-final,2021.2.3,59.93698226542875,
,,,,,,,,,,,,68,0,68,0,,,,,,,,,,,,,,,,,,,,,,,,,,,,,,,,,,,,,,,,,,,,,,,,,1277.8867645999417,None,,,,,,,,,,,,,,,,,,,,,,,,,,,,,,,,,,,,,,,,,,,,,,,,,,,,,,,,,child,91,69,aloud,old,red,1277.447002099827,None,y,1277.447002099827,None,"['y', 'return']","[0.2717840000987053, 0.39200069941580296]",1277.447002099827,None,,,74YB,001,2023_May_05_1050,ExactRep-v3-final,2021.2.3,59.93698226542875,
,,,,,,,,,,,,69,0,69,0,,,,,,,,,,,,,,,,,,,,,,,,,,,,,,,,,,,,,,,,,,,,,,,,,1278.7544566001743,None,,,,,,,,,,,,,,,,,,,,,,,,,,,,,,,,,,,,,,,,,,,,,,,,,,,,,,,,,justice,109,70,aloud,old,red,1278.3872368000448,None,y,1278.3872368000448,None,"['y', 'return']","[0.17165520042181015, 0.3236448001116514]",1278.3872368000448,None,,,74YB,001,2023_May_05_1050,ExactRep-v3-final,2021.2.3,59.93698226542875,
,,,,,,,,,,,,70,0,70,0,,,,,,,,,,,,,,,,,,,,,,,,,,,,,,,,,,,,,,,,,,,,,,,,,1279.8889617994428,None,,,,,,,,,,,,,,,,,,,,,,,,,,,,,,,,,,,,,,,,,,,,,,,,,,,,,,,,,journal,100,71,aloud,old,red,1279.2639349997044,None,y,1279.2639349997044,None,"['y', 'return']","[0.18316479958593845, 0.5828481996431947]",1279.2639349997044,None,,,74YB,001,2023_May_05_1050,ExactRep-v3-final,2021.2.3,59.93698226542875,
,,,,,,,,,,,,71,0,71,0,,,,,,,,,,,,,,,,,,,,,,,,,,,,,,,,,,,,,,,,,,,,,,,,,1281.9741839002818,None,,,,,,,,,,,,,,,,,,,,,,,,,,,,,,,,,,,,,,,,,,,,,,,,,,,,,,,,,sky,14,72,sing,old,blue,1280.3934642001987,None,n,1280.3934642001987,None,"['n', 'y', 'return']","[0.74951639957726, 1.0134878000244498, 1.54146539978683]",1280.3934642001987,None,,,74YB,001,2023_May_05_1050,ExactRep-v3-final,2021.2.3,59.93698226542875,
,,,,,,,,,,,,72,0,72,0,,,,,,,,,,,,,,,,,,,,,,,,,,,,,,,,,,,,,,,,,,,,,,,,,1283.7760371994227,None,,,,,,,,,,,,,,,,,,,,,,,,,,,,,,,,,,,,,,,,,,,,,,,,,,,,,,,,,party,33,73,sing,old,blue,1282.479443100281,None,y,1282.479443100281,None,"['y', 'return']","[1.055532000027597, 1.2634970005601645]",1282.479443100281,None,,,74YB,001,2023_May_05_1050,ExactRep-v3-final,2021.2.3,59.93698226542875,
,,,,,,,,,,,,73,0,73,0,,,,,,,,,,,,,,,,,,,,,,,,,,,,,,,,,,,,,,,,,,,,,,,,,1285.110643999651,None,,,,,,,,,,,,,,,,,,,,,,,,,,,,,,,,,,,,,,,,,,,,,,,,,,,,,,,,,weapon,75,74,silent,old,white,1284.293969700113,None,y,1284.293969700113,None,"['y', 'return']","[0.6328091993927956, 0.7848248993977904]",1284.293969700113,None,,,74YB,001,2023_May_05_1050,ExactRep-v3-final,2021.2.3,59.93698226542875,
,,,,,,,,,,,,74,0,74,0,,,,,,,,,,,,,,,,,,,,,,,,,,,,,,,,,,,,,,,,,,,,,,,,,1286.7958484999835,None,,,,,,,,,,,,,,,,,,,,,,,,,,,,,,,,,,,,,,,,,,,,,,,,,,,,,,,,,bowl,159,75,silent,new,white,1285.6187205994502,None,n,1285.6187205994502,None,"['n', 'return']","[0.9401444997638464, 1.1321855001151562]",1285.6187205994502,None,,,74YB,001,2023_May_05_1050,ExactRep-v3-final,2021.2.3,59.93698226542875,
,,,,,,,,,,,,75,0,75,0,,,,,,,,,,,,,,,,,,,,,,,,,,,,,,,,,,,,,,,,,,,,,,,,,1288.814325099811,None,,,,,,,,,,,,,,,,,,,,,,,,,,,,,,,,,,,,,,,,,,,,,,,,,,,,,,,,,shock,129,76,silent,new,white,1287.3048077002168,None,n,1287.3048077002168,None,"['n', 'return']","[1.3181203994899988, 1.470129800029099]",1287.3048077002168,None,,,74YB,001,2023_May_05_1050,ExactRep-v3-final,2021.2.3,59.93698226542875,
,,,,,,,,,,,,76,0,76,0,,,,,,,,,,,,,,,,,,,,,,,,,,,,,,,,,,,,,,,,,,,,,,,,,1289.9988430002704,None,,,,,,,,,,,,,,,,,,,,,,,,,,,,,,,,,,,,,,,,,,,,,,,,,,,,,,,,,picture,151,77,silent,new,white,1289.3257689997554,None,y,1289.3257689997554,None,"['y', 'return']","[0.5050499001517892, 0.6331404000520706]",1289.3257689997554,None,,,74YB,001,2023_May_05_1050,ExactRep-v3-final,2021.2.3,59.93698226542875,
,,,,,,,,,,,,77,0,77,0,,,,,,,,,,,,,,,,,,,,,,,,,,,,,,,,,,,,,,,,,,,,,,,,,1291.4836969003081,None,,,,,,,,,,,,,,,,,,,,,,,,,,,,,,,,,,,,,,,,,,,,,,,,,,,,,,,,,machine,215,78,sing,new,blue,1290.509650300257,None,y,1290.509650300257,None,"['y', 'return']","[0.769255300052464, 0.9374230001121759]",1290.509650300257,None,,,74YB,001,2023_May_05_1050,ExactRep-v3-final,2021.2.3,59.93698226542875,
,,,,,,,,,,,,78,0,78,0,,,,,,,,,,,,,,,,,,,,,,,,,,,,,,,,,,,,,,,,,,,,,,,,,1292.6350478995591,None,,,,,,,,,,,,,,,,,,,,,,,,,,,,,,,,,,,,,,,,,,,,,,,,,,,,,,,,,ability,31,79,sing,old,blue,1291.9937028000131,None,y,1291.9937028000131,None,"['y', 'return']","[0.45346920005977154, 0.5971366995945573]",1291.9937028000131,None,,,74YB,001,2023_May_05_1050,ExactRep-v3-final,2021.2.3,59.93698226542875,
,,,,,,,,,,,,79,0,79,0,,,,,,,,,,,,,,,,,,,,,,,,,,,,,,,,,,,,,,,,,,,,,,,,,1293.7525992998853,None,,,,,,,,,,,,,,,,,,,,,,,,,,,,,,,,,,,,,,,,,,,,,,,,,,,,,,,,,market,52,80,silent,old,white,1293.1456939997151,None,y,1293.1456939997151,None,"['y', 'return']","[0.4613952999934554, 0.5732068000361323]",1293.1456939997151,None,,,74YB,001,2023_May_05_1050,ExactRep-v3-final,2021.2.3,59.93698226542875,
,,,,,,,,,,,,80,0,80,0,,,,,,,,,,,,,,,,,,,,,,,,,,,,,,,,,,,,,,,,,,,,,,,,,1294.90373750031,None,,,,,,,,,,,,,,,,,,,,,,,,,,,,,,,,,,,,,,,,,,,,,,,,,,,,,,,,,hotel,61,81,silent,old,white,1294.2600234001875,None,y,1294.2600234001875,None,"['y', 'return']","[0.4909613002091646, 0.610737300477922]",1294.2600234001875,None,,,74YB,001,2023_May_05_1050,ExactRep-v3-final,2021.2.3,59.93698226542875,
,,,,,,,,,,,,81,0,81,0,,,,,,,,,,,,,,,,,,,,,,,,,,,,,,,,,,,,,,,,,,,,,,,,,1295.9214386995882,None,,,,,,,,,,,,,,,,,,,,,,,,,,,,,,,,,,,,,,,,,,,,,,,,,,,,,,,,,advice,73,82,silent,old,white,1295.4132290994748,None,n,1295.4132290994748,None,"['n', 'return']","[0.3696392001584172, 0.46577230002731085]",1295.4132290994748,None,,,74YB,001,2023_May_05_1050,ExactRep-v3-final,2021.2.3,59.93698226542875,
,,,,,,,,,,,,82,0,82,0,,,,,,,,,,,,,,,,,,,,,,,,,,,,,,,,,,,,,,,,,,,,,,,,,1297.1726770000532,None,,,,,,,,,,,,,,,,,,,,,,,,,,,,,,,,,,,,,,,,,,,,,,,,,,,,,,,,,speech,97,83,aloud,old,red,1296.4365451997146,None,n,1296.4365451997146,None,"['n', 'return']","[0.578417900018394, 0.6984131000936031]",1296.4365451997146,None,,,74YB,001,2023_May_05_1050,ExactRep-v3-final,2021.2.3,59.93698226542875,
,,,,,,,,,,,,83,0,83,0,,,,,,,,,,,,,,,,,,,,,,,,,,,,,,,,,,,,,,,,,,,,,,,,,1298.4240317996591,None,,,,,,,,,,,,,,,,,,,,,,,,,,,,,,,,,,,,,,,,,,,,,,,,,,,,,,,,,valley,76,84,silent,old,white,1297.6825542999431,None,y,1297.6825542999431,None,"['y', 'return']","[0.564355899579823, 0.7004594998434186]",1297.6825542999431,None,,,74YB,001,2023_May_05_1050,ExactRep-v3-final,2021.2.3,59.93698226542875,
,,,,,,,,,,,,84,0,84,0,,,,,,,,,,,,,,,,,,,,,,,,,,,,,,,,,,,,,,,,,,,,,,,,,1299.4251181995496,None,,,,,,,,,,,,,,,,,,,,,,,,,,,,,,,,,,,,,,,,,,,,,,,,,,,,,,,,,seat,104,85,aloud,old,red,1298.929677600041,None,y,1298.929677600041,None,"['y', 'return']","[0.3173494003713131, 0.4534022007137537]",1298.929677600041,None,,,74YB,001,2023_May_05_1050,ExactRep-v3-final,2021.2.3,59.93698226542875,
,,,,,,,,,,,,85,0,85,0,,,,,,,,,,,,,,,,,,,,,,,,,,,,,,,,,,,,,,,,,,,,,,,,,1300.743056599982,None,,,,,,,,,,,,,,,,,,,,,,,,,,,,,,,,,,,,,,,,,,,,,,,,,,,,,,,,,gold,191,86,sing,new,blue,1299.9369681002572,None,y,1299.9369681002572,None,"['y', 'return']","[0.5980179002508521, 0.7580315005034208]",1299.9369681002572,None,,,74YB,001,2023_May_05_1050,ExactRep-v3-final,2021.2.3,59.93698226542875,
,,,,,,,,,,,,86,0,86,0,,,,,,,,,,,,,,,,,,,,,,,,,,,,,,,,,,,,,,,,,,,,,,,,,1301.777369399555,None,,,,,,,,,,,,,,,,,,,,,,,,,,,,,,,,,,,,,,,,,,,,,,,,,,,,,,,,,safety,79,87,sing,old,blue,1301.253016100265,None,y,1301.253016100265,None,"['y', 'return']","[0.33792669977992773, 0.4820047998800874]",1301.253016100265,None,,,74YB,001,2023_May_05_1050,ExactRep-v3-final,2021.2.3,59.93698226542875,
,,,,,,,,,,,,87,0,87,0,,,,,,,,,,,,,,,,,,,,,,,,,,,,,,,,,,,,,,,,,,,,,,,,,1302.6782697997987,None,,,,,,,,,,,,,,,,,,,,,,,,,,,,,,,,,,,,,,,,,,,,,,,,,,,,,,,,,beast,150,88,silent,new,white,1302.285648100078,None,n,1302.285648100078,None,"['n', 'return']","[0.2252007992938161, 0.35332119930535555]",1302.285648100078,None,,,74YB,001,2023_May_05_1050,ExactRep-v3-final,2021.2.3,59.93698226542875,
,,,,,,,,,,,,88,0,88,0,,,,,,,,,,,,,,,,,,,,,,,,,,,,,,,,,,,,,,,,,,,,,,,,,1303.5791675997898,None,,,,,,,,,,,,,,,,,,,,,,,,,,,,,,,,,,,,,,,,,,,,,,,,,,,,,,,,,cost,114,89,aloud,old,red,1303.1811317000538,None,n,1303.1811317000538,None,"['n', 'return']","[0.2018825002014637, 0.3538092998787761]",1303.1811317000538,None,,,74YB,001,2023_May_05_1050,ExactRep-v3-final,2021.2.3,59.93698226542875,
,,,,,,,,,,,,89,0,89,0,,,,,,,,,,,,,,,,,,,,,,,,,,,,,,,,,,,,,,,,,,,,,,,,,1304.58007789962,None,,,,,,,,,,,,,,,,,,,,,,,,,,,,,,,,,,,,,,,,,,,,,,,,,,,,,,,,,shore,189,90,sing,new,blue,1304.0891284001991,None,y,1304.0891284001991,None,"['y', 'return']","[0.2700622994452715, 0.45378770027309656]",1304.0891284001991,None,,,74YB,001,2023_May_05_1050,ExactRep-v3-final,2021.2.3,59.93698226542875,
,,,,,,,,,,,,90,0,90,0,,,,,,,,,,,,,,,,,,,,,,,,,,,,,,,,,,,,,,,,,,,,,,,,,1305.4311114000157,None,,,,,,,,,,,,,,,,,,,,,,,,,,,,,,,,,,,,,,,,,,,,,,,,,,,,,,,,,cattle,2,91,sing,old,blue,1305.084101099521,None,y,1305.084101099521,None,"['y', 'return']","[0.1468412997201085, 0.31476750038564205]",1305.084101099521,None,,,74YB,001,2023_May_05_1050,ExactRep-v3-final,2021.2.3,59.93698226542875,
,,,,,,,,,,,,91,0,91,0,,,,,,,,,,,,,,,,,,,,,,,,,,,,,,,,,,,,,,,,,,,,,,,,,1306.9157673995942,None,,,,,,,,,,,,,,,,,,,,,,,,,,,,,,,,,,,,,,,,,,,,,,,,,,,,,,,,,sugar,222,92,aloud,new,red,1305.9413419999182,None,y,1305.9413419999182,None,"['y', 'return']","[0.8176412004977465, 0.9375975001603365]",1305.9413419999182,None,,,74YB,001,2023_May_05_1050,ExactRep-v3-final,2021.2.3,59.93698226542875,
,,,,,,,,,,,,92,0,92,0,,,,,,,,,,,,,,,,,,,,,,,,,,,,,,,,,,,,,,,,,,,,,,,,,1308.5340697001666,None,,,,,,,,,,,,,,,,,,,,,,,,,,,,,,,,,,,,,,,,,,,,,,,,,,,,,,,,,leader,174,93,aloud,new,red,1307.4240536997095,None,n,1307.4240536997095,None,"['n', 'return']","[0.9747551996260881, 1.0708627998828888]",1307.4240536997095,None,,,74YB,001,2023_May_05_1050,ExactRep-v3-final,2021.2.3,59.93698226542875,
,,,,,,,,,,,,93,0,93,0,,,,,,,,,,,,,,,,,,,,,,,,,,,,,,,,,,,,,,,,,,,,,,,,,1309.7186369001865,None,,,,,,,,,,,,,,,,,,,,,,,,,,,,,,,,,,,,,,,,,,,,,,,,,,,,,,,,,village,42,94,silent,old,white,1309.0415225997567,None,n,1309.0415225997567,None,"['n', 'return']","[0.525344000197947, 0.6294078007340431]",1309.0415225997567,None,,,74YB,001,2023_May_05_1050,ExactRep-v3-final,2021.2.3,59.93698226542875,
,,,,,,,,,,,,94,0,94,0,,,,,,,,,,,,,,,,,,,,,,,,,,,,,,,,,,,,,,,,,,,,,,,,,1310.9198487997055,None,,,,,,,,,,,,,,,,,,,,,,,,,,,,,,,,,,,,,,,,,,,,,,,,,,,,,,,,,spirit,37,95,sing,old,blue,1310.2287210999057,None,y,1310.2287210999057,None,"['y', 'return']","[0.498322700150311, 0.658236300572753]",1310.2287210999057,None,,,74YB,001,2023_May_05_1050,ExactRep-v3-final,2021.2.3,59.93698226542875,
,,,,,,,,,,,,95,0,95,0,,,,,,,,,,,,,,,,,,,,,,,,,,,,,,,,,,,,,,,,,,,,,,,,,1312.3879212001339,None,,,,,,,,,,,,,,,,,,,,,,,,,,,,,,,,,,,,,,,,,,,,,,,,,,,,,,,,,city,40,96,silent,old,white,1311.4259379999712,None,y,1311.4259379999712,None,"['y', 'return']","[0.8130700001493096, 0.9250060003250837]",1311.4259379999712,None,,,74YB,001,2023_May_05_1050,ExactRep-v3-final,2021.2.3,59.93698226542875,
,,,,,,,,,,,,96,0,96,0,,,,,,,,,,,,,,,,,,,,,,,,,,,,,,,,,,,,,,,,,,,,,,,,,1314.9904886996374,None,,,,,,,,,,,,,,,,,,,,,,,,,,,,,,,,,,,,,,,,,,,,,,,,,,,,,,,,,arm,194,97,aloud,new,red,1312.8961253995076,None,n,1312.8961253995076,None,"['n', 'return']","[1.8548709005117416, 2.0466990005224943]",1312.8961253995076,None,,,74YB,001,2023_May_05_1050,ExactRep-v3-final,2021.2.3,59.93698226542875,
,,,,,,,,,,,,97,0,97,0,,,,,,,,,,,,,,,,,,,,,,,,,,,,,,,,,,,,,,,,,,,,,,,,,1316.3753757998347,None,,,,,,,,,,,,,,,,,,,,,,,,,,,,,,,,,,,,,,,,,,,,,,,,,,,,,,,,,product,117,98,aloud,old,red,1315.4969466999173,None,n,1315.4969466999173,None,"['n', 'return']","[0.6380374999716878, 0.8460220992565155]",1315.4969466999173,None,,,74YB,001,2023_May_05_1050,ExactRep-v3-final,2021.2.3,59.93698226542875,
,,,,,,,,,,,,98,0,98,0,,,,,,,,,,,,,,,,,,,,,,,,,,,,,,,,,,,,,,,,,,,,,,,,,1318.4940055999905,None,,,,,,,,,,,,,,,,,,,,,,,,,,,,,,,,,,,,,,,,,,,,,,,,,,,,,,,,,lord,11,99,sing,old,blue,1316.8854580000043,None,y,1316.8854580000043,None,"['y', 'return']","[1.3694819007068872, 1.5615293001756072]",1316.8854580000043,None,,,74YB,001,2023_May_05_1050,ExactRep-v3-final,2021.2.3,59.93698226542875,
,,,,,,,,,,,,99,0,99,0,,,,,,,,,,,,,,,,,,,,,,,,,,,,,,,,,,,,,,,,,,,,,,,,,1319.6799413003027,None,,,,,,,,,,,,,,,,,,,,,,,,,,,,,,,,,,,,,,,,,,,,,,,,,,,,,,,,,cat,10,100,sing,old,blue,1319.0028774002567,None,y,1319.0028774002567,None,"['y', 'return']","[0.5080046998336911, 0.6359459003433585]",1319.0028774002567,None,,,74YB,001,2023_May_05_1050,ExactRep-v3-final,2021.2.3,59.93698226542875,
,,,,,,,,,,,,100,0,100,0,,,,,,,,,,,,,,,,,,,,,,,,,,,,,,,,,,,,,,,,,,,,,,,,,1320.8463637996465,None,,,,,,,,,,,,,,,,,,,,,,,,,,,,,,,,,,,,,,,,,,,,,,,,,,,,,,,,,custom,13,101,sing,old,blue,1320.1864828998223,None,y,1320.1864828998223,None,"['y', 'return']","[0.4604593003168702, 0.6124595999717712]",1320.1864828998223,None,,,74YB,001,2023_May_05_1050,ExactRep-v3-final,2021.2.3,59.93698226542875,
,,,,,,,,,,,,101,0,101,0,,,,,,,,,,,,,,,,,,,,,,,,,,,,,,,,,,,,,,,,,,,,,,,,,1322.2310744002461,None,,,,,,,,,,,,,,,,,,,,,,,,,,,,,,,,,,,,,,,,,,,,,,,,,,,,,,,,,artist,55,102,silent,old,white,1321.3600800996646,None,n,1321.3600800996646,None,"['n', 'return']","[0.6628390001133084, 0.8307475000619888]",1321.3600800996646,None,,,74YB,001,2023_May_05_1050,ExactRep-v3-final,2021.2.3,59.93698226542875,
,,,,,,,,,,,,102,0,102,0,,,,,,,,,,,,,,,,,,,,,,,,,,,,,,,,,,,,,,,,,,,,,,,,,1324.3499897997826,None,,,,,,,,,,,,,,,,,,,,,,,,,,,,,,,,,,,,,,,,,,,,,,,,,,,,,,,,,dust,206,103,aloud,new,red,1322.7393672000617,None,n,1322.7393672000617,None,"['return', 'n', 'return']","[0.8915137005969882, 1.3955180002376437, 1.5715546002611518]",1322.7393672000617,None,,,74YB,001,2023_May_05_1050,ExactRep-v3-final,2021.2.3,59.93698226542875,
,,,,,,,,,,,,103,0,103,0,,,,,,,,,,,,,,,,,,,,,,,,,,,,,,,,,,,,,,,,,,,,,,,,,1328.8543533999473,None,,,,,,,,,,,,,,,,,,,,,,,,,,,,,,,,,,,,,,,,,,,,,,,,,,,,,,,,,colony,195,104,sing,new,blue,1324.8584180995822,None,n,1324.8584180995822,None,"['y', 'n', 'n', 'n', 'n', 'n', 'n', 'backspace', 'n', 'return']","[0.5885124001652002, 0.8926512002944946, 1.5405630003660917, 1.7405123999342322, 1.8924267999827862, 2.0123679004609585, 2.156470200046897, 2.908522500656545, 3.772517300210893, 3.9645825000479817]",1324.8584180995822,None,,,74YB,001,2023_May_05_1050,ExactRep-v3-final,2021.2.3,59.93698226542875,
,,,,,,,,,,,,104,0,104,0,,,,,,,,,,,,,,,,,,,,,,,,,,,,,,,,,,,,,,,,,,,,,,,,,1330.2058422993869,None,,,,,,,,,,,,,,,,,,,,,,,,,,,,,,,,,,,,,,,,,,,,,,,,,,,,,,,,,owner,220,105,aloud,new,red,1329.3567158002406,None,n,1329.3567158002406,None,"['return', 'n', 'return']","[0.13018759991973639, 0.6582169998437166, 0.8022702997550368]",1329.3567158002406,None,,,74YB,001,2023_May_05_1050,ExactRep-v3-final,2021.2.3,59.93698226542875,
,,,,,,,,,,,,105,0,105,0,,,,,,,,,,,,,,,,,,,,,,,,,,,,,,,,,,,,,,,,,,,,,,,,,1331.3902187999338,None,,,,,,,,,,,,,,,,,,,,,,,,,,,,,,,,,,,,,,,,,,,,,,,,,,,,,,,,,star,149,106,silent,new,white,1330.712977799587,None,y,1330.712977799587,None,"['y', 'return']","[0.4779269006103277, 0.6379639999940991]",1330.712977799587,None,,,74YB,001,2023_May_05_1050,ExactRep-v3-final,2021.2.3,59.93698226542875,
,,,,,,,,,,,,106,0,106,0,,,,,,,,,,,,,,,,,,,,,,,,,,,,,,,,,,,,,,,,,,,,,,,,,1332.574884899892,None,,,,,,,,,,,,,,,,,,,,,,,,,,,,,,,,,,,,,,,,,,,,,,,,,,,,,,,,,body,12,107,sing,old,blue,1331.9002935001627,None,y,1331.9002935001627,None,"['y', 'return']","[0.5465522995218635, 0.642651199363172]",1331.9002935001627,None,,,74YB,001,2023_May_05_1050,ExactRep-v3-final,2021.2.3,59.93698226542875,
,,,,,,,,,,,,107,0,107,0,,,,,,,,,,,,,,,,,,,,,,,,,,,,,,,,,,,,,,,,,,,,,,,,,1333.7259737998247,None,,,,,,,,,,,,,,,,,,,,,,,,,,,,,,,,,,,,,,,,,,,,,,,,,,,,,,,,,origin,64,108,silent,old,white,1333.08048029989,None,y,1333.08048029989,None,"['y', 'return']","[0.5024268999695778, 0.5984811000525951]",1333.08048029989,None,,,74YB,001,2023_May_05_1050,ExactRep-v3-final,2021.2.3,59.93698226542875,
,,,,,,,,,,,,108,0,108,0,,,,,,,,,,,,,,,,,,,,,,,,,,,,,,,,,,,,,,,,,,,,,,,,,1334.877205000259,None,,,,,,,,,,,,,,,,,,,,,,,,,,,,,,,,,,,,,,,,,,,,,,,,,,,,,,,,,temple,132,109,silent,new,white,1334.2367719998583,None,y,1334.2367719998583,None,"['y', 'return']","[0.35423440020531416, 0.6021763999015093]",1334.2367719998583,None,,,74YB,001,2023_May_05_1050,ExactRep-v3-final,2021.2.3,59.93698226542875,
,,,,,,,,,,,,109,0,109,0,,,,,,,,,,,,,,,,,,,,,,,,,,,,,,,,,,,,,,,,,,,,,,,,,1336.2784470999613,None,,,,,,,,,,,,,,,,,,,,,,,,,,,,,,,,,,,,,,,,,,,,,,,,,,,,,,,,,plain,116,110,aloud,old,red,1335.3842834997922,None,y,1335.3842834997922,None,"['return', 'y', 'return']","[0.14261069986969233, 0.5508372997865081, 0.8626626003533602]",1335.3842834997922,None,,,74YB,001,2023_May_05_1050,ExactRep-v3-final,2021.2.3,59.93698226542875,
,,,,,,,,,,,,110,0,110,0,,,,,,,,,,,,,,,,,,,,,,,,,,,,,,,,,,,,,,,,,,,,,,,,,1337.196034499444,None,,,,,,,,,,,,,,,,,,,,,,,,,,,,,,,,,,,,,,,,,,,,,,,,,,,,,,,,,doll,155,111,silent,new,white,1336.787882199511,None,y,1336.787882199511,None,"['y', 'return']","[0.25112560018897057, 0.3710799003019929]",1336.787882199511,None,,,74YB,001,2023_May_05_1050,ExactRep-v3-final,2021.2.3,59.93698226542875,
,,,,,,,,,,,,111,0,111,0,,,,,,,,,,,,,,,,,,,,,,,,,,,,,,,,,,,,,,,,,,,,,,,,,1338.2138860998675,None,,,,,,,,,,,,,,,,,,,,,,,,,,,,,,,,,,,,,,,,,,,,,,,,,,,,,,,,,priest,165,112,sing,new,blue,1337.6997111001983,None,n,1337.6997111001983,None,"['n', 'return']","[0.3076502997428179, 0.4673343999311328]",1337.6997111001983,None,,,74YB,001,2023_May_05_1050,ExactRep-v3-final,2021.2.3,59.93698226542875,
,,,,,,,,,,,,112,0,112,0,,,,,,,,,,,,,,,,,,,,,,,,,,,,,,,,,,,,,,,,,,,,,,,,,1339.214885899797,None,,,,,,,,,,,,,,,,,,,,,,,,,,,,,,,,,,,,,,,,,,,,,,,,,,,,,,,,,nail,124,113,silent,new,white,1338.7218394996598,None,n,1338.7218394996598,None,"['n', 'return']","[0.3011625995859504, 0.46115189976990223]",1338.7218394996598,None,,,74YB,001,2023_May_05_1050,ExactRep-v3-final,2021.2.3,59.93698226542875,
,,,,,,,,,,,,113,0,113,0,,,,,,,,,,,,,,,,,,,,,,,,,,,,,,,,,,,,,,,,,,,,,,,,,1340.199198300019,None,,,,,,,,,,,,,,,,,,,,,,,,,,,,,,,,,,,,,,,,,,,,,,,,,,,,,,,,,friend,66,114,silent,old,white,1339.7352166995406,None,n,1339.7352166995406,None,"['n', 'return']","[0.2957117995247245, 0.42377940006554127]",1339.7352166995406,None,,,74YB,001,2023_May_05_1050,ExactRep-v3-final,2021.2.3,59.93698226542875,
,,,,,,,,,,,,114,0,114,0,,,,,,,,,,,,,,,,,,,,,,,,,,,,,,,,,,,,,,,,,,,,,,,,,1341.1834805998951,None,,,,,,,,,,,,,,,,,,,,,,,,,,,,,,,,,,,,,,,,,,,,,,,,,,,,,,,,,shadow,192,115,aloud,new,red,1340.702002200298,None,n,1340.702002200298,None,"['n', 'return']","[0.30500980000942945, 0.4488972006365657]",1340.702002200298,None,,,74YB,001,2023_May_05_1050,ExactRep-v3-final,2021.2.3,59.93698226542875,
,,,,,,,,,,,,115,0,115,0,,,,,,,,,,,,,,,,,,,,,,,,,,,,,,,,,,,,,,,,,,,,,,,,,1342.167735000141,None,,,,,,,,,,,,,,,,,,,,,,,,,,,,,,,,,,,,,,,,,,,,,,,,,,,,,,,,,meat,131,116,silent,new,white,1341.6933460002765,None,n,1341.6933460002765,None,"['n', 'return']","[0.2655925005674362, 0.4336149003356695]",1341.6933460002765,None,,,74YB,001,2023_May_05_1050,ExactRep-v3-final,2021.2.3,59.93698226542875,
,,,,,,,,,,,,116,0,116,0,,,,,,,,,,,,,,,,,,,,,,,,,,,,,,,,,,,,,,,,,,,,,,,,,1343.7025367002934,None,,,,,,,,,,,,,,,,,,,,,,,,,,,,,,,,,,,,,,,,,,,,,,,,,,,,,,,,,cabin,24,117,sing,old,blue,1342.6784341996536,None,y,1342.6784341996536,None,"['y', 'return']","[0.8005958003923297, 0.9845408005639911]",1342.6784341996536,None,,,74YB,001,2023_May_05_1050,ExactRep-v3-final,2021.2.3,59.93698226542875,
,,,,,,,,,,,,117,0,117,0,,,,,,,,,,,,,,,,,,,,,,,,,,,,,,,,,,,,,,,,,,,,,,,,,1345.6545794997364,None,,,,,,,,,,,,,,,,,,,,,,,,,,,,,,,,,,,,,,,,,,,,,,,,,,,,,,,,,letter,81,118,aloud,old,red,1344.2102367002517,None,y,1344.2102367002517,None,"['y', 'return']","[1.2367346994578838, 1.3966036001220345]",1344.2102367002517,None,,,74YB,001,2023_May_05_1050,ExactRep-v3-final,2021.2.3,59.93698226542875,
,,,,,,,,,,,,118,0,118,0,,,,,,,,,,,,,,,,,,,,,,,,,,,,,,,,,,,,,,,,,,,,,,,,,1347.4062524996698,None,,,,,,,,,,,,,,,,,,,,,,,,,,,,,,,,,,,,,,,,,,,,,,,,,,,,,,,,,deed,50,119,silent,old,white,1346.1626595994458,None,y,1346.1626595994458,None,"['y', 'return']","[0.9963278006762266, 1.2043364001438022]",1346.1626595994458,None,,,74YB,001,2023_May_05_1050,ExactRep-v3-final,2021.2.3,59.93698226542875,
,,,,,,,,,,,,119,0,119,0,,,,,,,,,,,,,,,,,,,,,,,,,,,,,,,,,,,,,,,,,,,,,,,,,1348.5740834996104,None,,,,,,,,,,,,,,,,,,,,,,,,,,,,,,,,,,,,,,,,,,,,,,,,,,,,,,,,,pole,90,120,aloud,old,red,1347.9201133996248,None,y,1347.9201133996248,None,"['y', 'return']","[0.4788418998941779, 0.6148637002333999]",1347.9201133996248,None,,,74YB,001,2023_May_05_1050,ExactRep-v3-final,2021.2.3,59.93698226542875,
,,,,,,,,,,,,120,0,120,0,,,,,,,,,,,,,,,,,,,,,,,,,,,,,,,,,,,,,,,,,,,,,,,,,1349.8421762995422,None,,,,,,,,,,,,,,,,,,,,,,,,,,,,,,,,,,,,,,,,,,,,,,,,,,,,,,,,,boy,3,121,sing,old,blue,1349.0830039000139,None,y,1349.0830039000139,None,"['y', 'return']","[0.5478876000270247, 0.7160519994795322]",1349.0830039000139,None,,,74YB,001,2023_May_05_1050,ExactRep-v3-final,2021.2.3,59.93698226542875,
,,,,,,,,,,,,121,0,121,0,,,,,,,,,,,,,,,,,,,,,,,,,,,,,,,,,,,,,,,,,,,,,,,,,1351.1600024998188,None,,,,,,,,,,,,,,,,,,,,,,,,,,,,,,,,,,,,,,,,,,,,,,,,,,,,,,,,,soul,95,122,aloud,old,red,1350.353811699897,None,y,1350.353811699897,None,"['y', 'return']","[0.5890781003981829, 0.7732800003141165]",1350.353811699897,None,,,74YB,001,2023_May_05_1050,ExactRep-v3-final,2021.2.3,59.93698226542875,
,,,,,,,,,,,,122,0,122,0,,,,,,,,,,,,,,,,,,,,,,,,,,,,,,,,,,,,,,,,,,,,,,,,,1352.4144867993891,None,,,,,,,,,,,,,,,,,,,,,,,,,,,,,,,,,,,,,,,,,,,,,,,,,,,,,,,,,vessel,228,123,aloud,new,red,1351.6676954999566,None,y,1351.6676954999566,None,"['y', 'return']","[0.5792939998209476, 0.6994040999561548]",1351.6676954999566,None,,,74YB,001,2023_May_05_1050,ExactRep-v3-final,2021.2.3,59.93698226542875,
,,,,,,,,,,,,123,0,123,0,,,,,,,,,,,,,,,,,,,,,,,,,,,,,,,,,,,,,,,,,,,,,,,,,1353.662731599994,None,,,,,,,,,,,,,,,,,,,,,,,,,,,,,,,,,,,,,,,,,,,,,,,,,,,,,,,,,coffee,22,124,sing,old,blue,1352.9378054998815,None,y,1352.9378054998815,None,"['y', 'return']","[0.5492083001881838, 0.6772142006084323]",1352.9378054998815,None,,,74YB,001,2023_May_05_1050,ExactRep-v3-final,2021.2.3,59.93698226542875,
,,,,,,,,,,,,124,0,124,0,,,,,,,,,,,,,,,,,,,,,,,,,,,,,,,,,,,,,,,,,,,,,,,,,1355.531037000008,None,,,,,,,,,,,,,,,,,,,,,,,,,,,,,,,,,,,,,,,,,,,,,,,,,,,,,,,,,window,34,125,sing,old,blue,1354.1716916998848,None,y,1354.1716916998848,None,"['y', 'return']","[1.0991235999390483, 1.3232831005007029]",1354.1716916998848,None,,,74YB,001,2023_May_05_1050,ExactRep-v3-final,2021.2.3,59.93698226542875,
,,,,,,,,,,,,125,0,125,0,,,,,,,,,,,,,,,,,,,,,,,,,,,,,,,,,,,,,,,,,,,,,,,,,1357.0159828001633,None,,,,,,,,,,,,,,,,,,,,,,,,,,,,,,,,,,,,,,,,,,,,,,,,,,,,,,,,,slave,68,126,silent,old,white,1356.041036900133,None,y,1356.041036900133,None,"['y', 'return']","[0.7498984998092055, 0.9420684995129704]",1356.041036900133,None,,,74YB,001,2023_May_05_1050,ExactRep-v3-final,2021.2.3,59.93698226542875,
,,,,,,,,,,,,126,0,126,0,,,,,,,,,,,,,,,,,,,,,,,,,,,,,,,,,,,,,,,,,,,,,,,,,1358.7511767996475,None,,,,,,,,,,,,,,,,,,,,,,,,,,,,,,,,,,,,,,,,,,,,,,,,,,,,,,,,,answer,166,127,aloud,new,red,1357.5258619999513,None,y,1357.5258619999513,None,"['y', 'return']","[1.0010973000898957, 1.193198999390006]",1357.5258619999513,None,,,74YB,001,2023_May_05_1050,ExactRep-v3-final,2021.2.3,59.93698226542875,
,,,,,,,,,,,,127,0,127,0,,,,,,,,,,,,,,,,,,,,,,,,,,,,,,,,,,,,,,,,,,,,,,,,,1360.302561399527,None,,,,,,,,,,,,,,,,,,,,,,,,,,,,,,,,,,,,,,,,,,,,,,,,,,,,,,,,,pipe,134,128,silent,new,white,1359.2626149998978,None,n,1359.2626149998978,None,"['n', 'return']","[0.8163107000291348, 1.0083523001521826]",1359.2626149998978,None,,,74YB,001,2023_May_05_1050,ExactRep-v3-final,2021.2.3,59.93698226542875,
,,,,,,,,,,,,128,0,128,0,,,,,,,,,,,,,,,,,,,,,,,,,,,,,,,,,,,,,,,,,,,,,,,,,1361.7207054998726,None,,,,,,,,,,,,,,,,,,,,,,,,,,,,,,,,,,,,,,,,,,,,,,,,,,,,,,,,,ship,27,129,sing,old,blue,1360.8106646994129,None,y,1360.8106646994129,None,"['y', 'return']","[0.6925673997029662, 0.8683377001434565]",1360.8106646994129,None,,,74YB,001,2023_May_05_1050,ExactRep-v3-final,2021.2.3,59.93698226542875,
