trials_fam.thisRepN,trials_fam.thisTrialN,trials_fam.thisN,trials_fam.thisIndex,trials_prc.thisRepN,trials_prc.thisTrialN,trials_prc.thisN,trials_prc.thisIndex,StudyLoop.thisRepN,StudyLoop.thisTrialN,StudyLoop.thisN,StudyLoop.thisIndex,TestLoop.thisRepN,TestLoop.thisTrialN,TestLoop.thisN,TestLoop.thisIndex,text_colortest.started,text_colortest.stopped,key_colortest.keys,key_colortest.rt,key_colortest.started,key_colortest.stopped,textCondition.started,textCondition.stopped,keyCondition.keys,keyCondition.rt,keyCondition.started,keyCondition.stopped,Condition_between,Condition_counterbal,keyWelcome.keys,keyWelcome.rt,keyWelcome.started,keyWelcome.stopped,welcome_a.started,welcome_a.stopped,welcome_b.started,welcome_b.stopped,welcome_c.started,welcome_c.stopped,welcome_d.started,welcome_d.stopped,welcome_e.started,welcome_e.stopped,welcome_f.started,welcome_f.stopped,key_resp_fam_inst.keys,key_resp_fam_inst.rt,key_resp_fam_inst.started,key_resp_fam_inst.stopped,fam_a.started,fam_a.stopped,fam_b.started,fam_b.stopped,fam_c.started,fam_c.stopped,fam_d.started,fam_d.stopped,fam_e.started,fam_e.stopped,fam_f.started,fam_f.stopped,text_famil.started,text_famil.stopped,textBlank500.started,textBlank500.stopped,key_resp_prc_inst.keys,key_resp_prc_inst.rt,key_resp_prc_inst.started,key_resp_prc_inst.stopped,prac_a.started,prac_a.stopped,prac_b.started,prac_b.stopped,prac_c.started,prac_c.stopped,prac_d.started,prac_d.stopped,prac_e.started,prac_e.stopped,prac_f.started,prac_f.stopped,text_prc_trial.started,text_prc_trial.stopped,key_resp_study_inst.keys,key_resp_study_inst.rt,key_resp_study_inst.started,key_resp_study_inst.stopped,crit_a.started,crit_a.stopped,crit_b.started,crit_b.stopped,crit_c.started,crit_c.stopped,crit_d.started,crit_d.stopped,crit_e.started,crit_e.stopped,crit_f.started,crit_f.stopped,study_word,study_num,study_order,study_type,word_color,textStudy.started,textStudy.stopped,keyStudy.keys,keyStudy.started,keyStudy.stopped,post_study.started,post_study.stopped,key_resp_post_study.keys,key_resp_post_study.rt,key_resp_post_study.started,key_resp_post_study.stopped,test_inst.started,test_inst.stopped,key_resp_test_inst.keys,key_resp_test_inst.rt,key_resp_test_inst.started,key_resp_test_inst.stopped,test_word,test_num,test_order,test_condition,old_new_test,word_color_test,textConf.started,textConf.stopped,Participant Response,textInput.started,textInput.stopped,keyResp.keys,keyResp.rt,keyResp.started,keyResp.stopped,textEnd.started,textEnd.stopped,participant,session,date,expName,psychopyVersion,frameRate,
,,,,,,,,,,,,,,,,110.59244349971414,None,y,5.0955461002886295,110.59244349971414,None,,,,,,,,,,,,,,,,,,,,,,,,,,,,,,,,,,,,,,,,,,,,,,,,,,,,,,,,,,,,,,,,,,,,,,,,,,,,,,,,,,,,,,,,,,,,,,,,,,,,,,,,,,,,,,,,,,,,,,75YC,001,2023_May_05_1121,ExactRep-v3-final,2021.2.3,59.93820381349433,
,,,,,,,,,,,,,,,,,,,,,,115.71713779959828,None,c,0.6667455993592739,115.71713779959828,None,,,,,,,,,,,,,,,,,,,,,,,,,,,,,,,,,,,,,,,,,,,,,,,,,,,,,,,,,,,,,,,,,,,,,,,,,,,,,,,,,,,,,,,,,,,,,,,,,,,,,,,,,,,,,,,,75YC,001,2023_May_05_1121,ExactRep-v3-final,2021.2.3,59.93820381349433,
,,,,,,,,,,,,,,,,,,,,,,,,,,,,colorfoils,c,space,852.7005793005228,126.53252399992198,None,,,,,,,,,,,,,,,,,,,,,,,,,,,,,,,,,,,,,,,,,,,,,,,,,,,,,,,,,,,,,,,,,,,,,,,,,,,,,,,,,,,,,,,,,,,,,,,,,,,,,,,,,,75YC,001,2023_May_05_1121,ExactRep-v3-final,2021.2.3,59.93820381349433,
,,,,,,,,,,,,,,,,,,,,,,,,,,,,,,,,,,116.58603290002793,None,116.58603290002793,None,116.58603290002793,None,116.58603290002793,None,116.58603290002793,None,116.58603290002793,None,space,14.424872700124979,989.3757716994733,None,,,,,,,,,,,,,,,,,,,,,,,,,,,,,,,,,,,,,,,,,,,,,,,,,,,,,,,,,,,,,,,,,,,,,,,,,,,,,,,,,,,,,,,,,,75YC,001,2023_May_05_1121,ExactRep-v3-final,2021.2.3,59.93820381349433,
0,0,0,0,,,,,,,,,,,,,,,,,,,,,,,,,,,,,,,,,,,,,,,,,,,,,,,979.4310251995921,None,979.4310251995921,None,979.4310251995921,None,979.4310251995921,None,979.4310251995921,None,979.4310251995921,None,1003.9223082996905,None,1005.9239015998319,None,,,,,,,,,,,,,,,,,,,,,,,,,,,,,,,,,,,,,,,,,,,,,,,,,,,,,,,,,,,,,,,,,,,,,,,,,,75YC,001,2023_May_05_1121,ExactRep-v3-final,2021.2.3,59.93820381349433,
1,0,1,0,,,,,,,,,,,,,,,,,,,,,,,,,,,,,,,,,,,,,,,,,,,,,,,,,,,,,,,,,,,1006.4347007991746,None,1008.4432754991576,None,,,,,,,,,,,,,,,,,,,,,,,,,,,,,,,,,,,,,,,,,,,,,,,,,,,,,,,,,,,,,,,,,,,,,,,,,,75YC,001,2023_May_05_1121,ExactRep-v3-final,2021.2.3,59.93820381349433,
2,0,2,0,,,,,,,,,,,,,,,,,,,,,,,,,,,,,,,,,,,,,,,,,,,,,,,,,,,,,,,,,,,1008.9521180996671,None,1010.9623299995437,None,,,,,,,,,,,,,,,,,,,,,,,,,,,,,,,,,,,,,,,,,,,,,,,,,,,,,,,,,,,,,,,,,,,,,,,,,,75YC,001,2023_May_05_1121,ExactRep-v3-final,2021.2.3,59.93820381349433,
3,0,3,0,,,,,,,,,,,,,,,,,,,,,,,,,,,,,,,,,,,,,,,,,,,,,,,,,,,,,,,,,,,1011.4628784991801,None,1013.46464130003,None,,,,,,,,,,,,,,,,,,,,,,,,,,,,,,,,,,,,,,,,,,,,,,,,,,,,,,,,,,,,,,,,,,,,,,,,,,75YC,001,2023_May_05_1121,ExactRep-v3-final,2021.2.3,59.93820381349433,
4,0,4,0,,,,,,,,,,,,,,,,,,,,,,,,,,,,,,,,,,,,,,,,,,,,,,,,,,,,,,,,,,,1013.964956799522,None,1015.9671324994415,None,,,,,,,,,,,,,,,,,,,,,,,,,,,,,,,,,,,,,,,,,,,,,,,,,,,,,,,,,,,,,,,,,,,,,,,,,,75YC,001,2023_May_05_1121,ExactRep-v3-final,2021.2.3,59.93820381349433,
5,0,5,0,,,,,,,,,,,,,,,,,,,,,,,,,,,,,,,,,,,,,,,,,,,,,,,,,,,,,,,,,,,1016.47043679934,None,1018.4698534999043,None,,,,,,,,,,,,,,,,,,,,,,,,,,,,,,,,,,,,,,,,,,,,,,,,,,,,,,,,,,,,,,,,,,,,,,,,,,75YC,001,2023_May_05_1121,ExactRep-v3-final,2021.2.3,59.93820381349433,
6,0,6,0,,,,,,,,,,,,,,,,,,,,,,,,,,,,,,,,,,,,,,,,,,,,,,,,,,,,,,,,,,,1018.9736342998222,None,1020.988802799955,None,,,,,,,,,,,,,,,,,,,,,,,,,,,,,,,,,,,,,,,,,,,,,,,,,,,,,,,,,,,,,,,,,,,,,,,,,,75YC,001,2023_May_05_1121,ExactRep-v3-final,2021.2.3,59.93820381349433,
7,0,7,0,,,,,,,,,,,,,,,,,,,,,,,,,,,,,,,,,,,,,,,,,,,,,,,,,,,,,,,,,,,1021.4895114991814,None,1023.4915498998016,None,,,,,,,,,,,,,,,,,,,,,,,,,,,,,,,,,,,,,,,,,,,,,,,,,,,,,,,,,,,,,,,,,,,,,,,,,,75YC,001,2023_May_05_1121,ExactRep-v3-final,2021.2.3,59.93820381349433,
8,0,8,0,,,,,,,,,,,,,,,,,,,,,,,,,,,,,,,,,,,,,,,,,,,,,,,,,,,,,,,,,,,1023.9917478999123,None,1025.9938482996076,None,,,,,,,,,,,,,,,,,,,,,,,,,,,,,,,,,,,,,,,,,,,,,,,,,,,,,,,,,,,,,,,,,,,,,,,,,,75YC,001,2023_May_05_1121,ExactRep-v3-final,2021.2.3,59.93820381349433,
9,0,9,0,,,,,,,,,,,,,,,,,,,,,,,,,,,,,,,,,,,,,,,,,,,,,,,,,,,,,,,,,,,1026.4945260994136,None,1028.4965148996562,None,,,,,,,,,,,,,,,,,,,,,,,,,,,,,,,,,,,,,,,,,,,,,,,,,,,,,,,,,,,,,,,,,,,,,,,,,,75YC,001,2023_May_05_1121,ExactRep-v3-final,2021.2.3,59.93820381349433,
10,0,10,0,,,,,,,,,,,,,,,,,,,,,,,,,,,,,,,,,,,,,,,,,,,,,,,,,,,,,,,,,,,1028.9990929998457,None,1030.99903549999,None,,,,,,,,,,,,,,,,,,,,,,,,,,,,,,,,,,,,,,,,,,,,,,,,,,,,,,,,,,,,,,,,,,,,,,,,,,75YC,001,2023_May_05_1121,ExactRep-v3-final,2021.2.3,59.93820381349433,
11,0,11,0,,,,,,,,,,,,,,,,,,,,,,,,,,,,,,,,,,,,,,,,,,,,,,,,,,,,,,,,,,,1031.499576899223,None,1033.5015423996374,None,,,,,,,,,,,,,,,,,,,,,,,,,,,,,,,,,,,,,,,,,,,,,,,,,,,,,,,,,,,,,,,,,,,,,,,,,,75YC,001,2023_May_05_1121,ExactRep-v3-final,2021.2.3,59.93820381349433,
12,0,12,0,,,,,,,,,,,,,,,,,,,,,,,,,,,,,,,,,,,,,,,,,,,,,,,,,,,,,,,,,,,1034.0020405994728,None,1036.0040091993287,None,,,,,,,,,,,,,,,,,,,,,,,,,,,,,,,,,,,,,,,,,,,,,,,,,,,,,,,,,,,,,,,,,,,,,,,,,,75YC,001,2023_May_05_1121,ExactRep-v3-final,2021.2.3,59.93820381349433,
13,0,13,0,,,,,,,,,,,,,,,,,,,,,,,,,,,,,,,,,,,,,,,,,,,,,,,,,,,,,,,,,,,1036.506443599239,None,1038.5065224999562,None,,,,,,,,,,,,,,,,,,,,,,,,,,,,,,,,,,,,,,,,,,,,,,,,,,,,,,,,,,,,,,,,,,,,,,,,,,75YC,001,2023_May_05_1121,ExactRep-v3-final,2021.2.3,59.93820381349433,
14,0,14,0,,,,,,,,,,,,,,,,,,,,,,,,,,,,,,,,,,,,,,,,,,,,,,,,,,,,,,,,,,,1039.008971299976,None,1041.0088655995205,None,,,,,,,,,,,,,,,,,,,,,,,,,,,,,,,,,,,,,,,,,,,,,,,,,,,,,,,,,,,,,,,,,,,,,,,,,,75YC,001,2023_May_05_1121,ExactRep-v3-final,2021.2.3,59.93820381349433,
,,,,,,,,,,,,,,,,,,,,,,,,,,,,,,,,,,,,,,,,,,,,,,,,,,,,,,,,,,,,,,,,,,space,17.28573550004512,1051.6431657997891,None,,,,,,,,,,,,,,,,,,,,,,,,,,,,,,,,,,,,,,,,,,,,,,,,,,,,,,,,,,,,,,,,,,,,,,75YC,001,2023_May_05_1121,ExactRep-v3-final,2021.2.3,59.93820381349433,
,,,,0,0,0,0,,,,,,,,,,,,,,,,,,,,,,,,,,,,,,,,,,,,,,,,,,,,,,,,,,,,,,,,,1070.989024600014,None,,,,,1041.666367199272,None,1041.666367199272,None,1041.666367199272,None,1041.666367199272,None,1041.666367199272,None,1041.666367199272,None,1068.989211499691,None,,,,,,,,,,,,,,,,,,,,,,,,,,,,,,,,,,,,,,,,,,,,,,,,,,,,,,,,75YC,001,2023_May_05_1121,ExactRep-v3-final,2021.2.3,59.93820381349433,
,,,,1,0,1,0,,,,,,,,,,,,,,,,,,,,,,,,,,,,,,,,,,,,,,,,,,,,,,,,,,,,,,,,,1073.4915512995794,None,,,,,,,,,,,,,,,,,1071.4893477996811,None,,,,,,,,,,,,,,,,,,,,,,,,,,,,,,,,,,,,,,,,,,,,,,,,,,,,,,,,75YC,001,2023_May_05_1121,ExactRep-v3-final,2021.2.3,59.93820381349433,
,,,,2,0,2,0,,,,,,,,,,,,,,,,,,,,,,,,,,,,,,,,,,,,,,,,,,,,,,,,,,,,,,,,,1075.9940313994884,None,,,,,,,,,,,,,,,,,1073.99220839981,None,,,,,,,,,,,,,,,,,,,,,,,,,,,,,,,,,,,,,,,,,,,,,,,,,,,,,,,,75YC,001,2023_May_05_1121,ExactRep-v3-final,2021.2.3,59.93820381349433,
,,,,3,0,3,0,,,,,,,,,,,,,,,,,,,,,,,,,,,,,,,,,,,,,,,,,,,,,,,,,,,,,,,,,1078.4963409993798,None,,,,,,,,,,,,,,,,,1076.4942562999204,None,,,,,,,,,,,,,,,,,,,,,,,,,,,,,,,,,,,,,,,,,,,,,,,,,,,,,,,,75YC,001,2023_May_05_1121,ExactRep-v3-final,2021.2.3,59.93820381349433,
,,,,4,0,4,0,,,,,,,,,,,,,,,,,,,,,,,,,,,,,,,,,,,,,,,,,,,,,,,,,,,,,,,,,1080.999018099159,None,,,,,,,,,,,,,,,,,1078.9968591993675,None,,,,,,,,,,,,,,,,,,,,,,,,,,,,,,,,,,,,,,,,,,,,,,,,,,,,,,,,75YC,001,2023_May_05_1121,ExactRep-v3-final,2021.2.3,59.93820381349433,
,,,,5,0,5,0,,,,,,,,,,,,,,,,,,,,,,,,,,,,,,,,,,,,,,,,,,,,,,,,,,,,,,,,,1083.5015094997361,None,,,,,,,,,,,,,,,,,1081.4995468994603,None,,,,,,,,,,,,,,,,,,,,,,,,,,,,,,,,,,,,,,,,,,,,,,,,,,,,,,,,75YC,001,2023_May_05_1121,ExactRep-v3-final,2021.2.3,59.93820381349433,
,,,,6,0,6,0,,,,,,,,,,,,,,,,,,,,,,,,,,,,,,,,,,,,,,,,,,,,,,,,,,,,,,,,,1086.0041247997433,None,,,,,,,,,,,,,,,,,1084.002006799914,None,,,,,,,,,,,,,,,,,,,,,,,,,,,,,,,,,,,,,,,,,,,,,,,,,,,,,,,,75YC,001,2023_May_05_1121,ExactRep-v3-final,2021.2.3,59.93820381349433,
,,,,7,0,7,0,,,,,,,,,,,,,,,,,,,,,,,,,,,,,,,,,,,,,,,,,,,,,,,,,,,,,,,,,1088.5063667995855,None,,,,,,,,,,,,,,,,,1086.5043586995453,None,,,,,,,,,,,,,,,,,,,,,,,,,,,,,,,,,,,,,,,,,,,,,,,,,,,,,,,,75YC,001,2023_May_05_1121,ExactRep-v3-final,2021.2.3,59.93820381349433,
,,,,8,0,8,0,,,,,,,,,,,,,,,,,,,,,,,,,,,,,,,,,,,,,,,,,,,,,,,,,,,,,,,,,1091.0091855991632,None,,,,,,,,,,,,,,,,,1089.007008999586,None,,,,,,,,,,,,,,,,,,,,,,,,,,,,,,,,,,,,,,,,,,,,,,,,,,,,,,,,75YC,001,2023_May_05_1121,ExactRep-v3-final,2021.2.3,59.93820381349433,
,,,,9,0,9,0,,,,,,,,,,,,,,,,,,,,,,,,,,,,,,,,,,,,,,,,,,,,,,,,,,,,,,,,,1093.5113214999437,None,,,,,,,,,,,,,,,,,1091.509629899636,None,,,,,,,,,,,,,,,,,,,,,,,,,,,,,,,,,,,,,,,,,,,,,,,,,,,,,,,,75YC,001,2023_May_05_1121,ExactRep-v3-final,2021.2.3,59.93820381349433,
,,,,10,0,10,0,,,,,,,,,,,,,,,,,,,,,,,,,,,,,,,,,,,,,,,,,,,,,,,,,,,,,,,,,1096.0139985000715,None,,,,,,,,,,,,,,,,,1094.0118511999026,None,,,,,,,,,,,,,,,,,,,,,,,,,,,,,,,,,,,,,,,,,,,,,,,,,,,,,,,,75YC,001,2023_May_05_1121,ExactRep-v3-final,2021.2.3,59.93820381349433,
,,,,11,0,11,0,,,,,,,,,,,,,,,,,,,,,,,,,,,,,,,,,,,,,,,,,,,,,,,,,,,,,,,,,1098.5161494994536,None,,,,,,,,,,,,,,,,,1096.5145135996863,None,,,,,,,,,,,,,,,,,,,,,,,,,,,,,,,,,,,,,,,,,,,,,,,,,,,,,,,,75YC,001,2023_May_05_1121,ExactRep-v3-final,2021.2.3,59.93820381349433,
,,,,12,0,12,0,,,,,,,,,,,,,,,,,,,,,,,,,,,,,,,,,,,,,,,,,,,,,,,,,,,,,,,,,1101.0192450992763,None,,,,,,,,,,,,,,,,,1099.0168739994988,None,,,,,,,,,,,,,,,,,,,,,,,,,,,,,,,,,,,,,,,,,,,,,,,,,,,,,,,,75YC,001,2023_May_05_1121,ExactRep-v3-final,2021.2.3,59.93820381349433,
,,,,13,0,13,0,,,,,,,,,,,,,,,,,,,,,,,,,,,,,,,,,,,,,,,,,,,,,,,,,,,,,,,,,1103.5215723998845,None,,,,,,,,,,,,,,,,,1101.5195247996598,None,,,,,,,,,,,,,,,,,,,,,,,,,,,,,,,,,,,,,,,,,,,,,,,,,,,,,,,,75YC,001,2023_May_05_1121,ExactRep-v3-final,2021.2.3,59.93820381349433,
,,,,14,0,14,0,,,,,,,,,,,,,,,,,,,,,,,,,,,,,,,,,,,,,,,,,,,,,,,,,,,,,,,,,1106.024019099772,None,,,,,,,,,,,,,,,,,1104.021938899532,None,,,,,,,,,,,,,,,,,,,,,,,,,,,,,,,,,,,,,,,,,,,,,,,,,,,,,,,,75YC,001,2023_May_05_1121,ExactRep-v3-final,2021.2.3,59.93820381349433,
,,,,,,,,,,,,,,,,,,,,,,,,,,,,,,,,,,,,,,,,,,,,,,,,,,,,,,,,,,,,,,,,,,,,,,,,,,,,,,,,,,,,space,18.28786789998412,1116.6409858996049,None,,,,,,,,,,,,,,,,,,,,,,,,,,,,,,,,,,,,,,,,,,,,,,,,,,,,75YC,001,2023_May_05_1121,ExactRep-v3-final,2021.2.3,59.93820381349433,
,,,,,,,,0,0,0,0,,,,,,,,,,,,,,,,,,,,,,,,,,,,,,,,,,,,,,,,,,,,,,,,,,,,,1137.0215505994856,None,,,,,,,,,,,,,,,,,,,,,,,1106.6847270000726,None,1106.6847270000726,None,1106.6847270000726,None,1106.6847270000726,None,1106.6847270000726,None,1106.6847270000726,None,board,92,1,aloud,blue,1135.0222624996677,None,None,1135.0222624996677,None,,,,,,,,,,,,,,,,,,,,,,,,,,,,,,75YC,001,2023_May_05_1121,ExactRep-v3-final,2021.2.3,59.93820381349433,
,,,,,,,,1,0,1,0,,,,,,,,,,,,,,,,,,,,,,,,,,,,,,,,,,,,,,,,,,,,,,,,,,,,,1139.540987899527,None,,,,,,,,,,,,,,,,,,,,,,,,,,,,,,,,,,,meeting,54,2,silent,red,1137.538577599451,None,None,1137.538577599451,None,,,,,,,,,,,,,,,,,,,,,,,,,,,,,,75YC,001,2023_May_05_1121,ExactRep-v3-final,2021.2.3,59.93820381349433,
,,,,,,,,2,0,2,0,,,,,,,,,,,,,,,,,,,,,,,,,,,,,,,,,,,,,,,,,,,,,,,,,,,,,1142.0601454991847,None,,,,,,,,,,,,,,,,,,,,,,,,,,,,,,,,,,,cat,59,3,silent,red,1140.0449315998703,None,None,1140.0449315998703,None,,,,,,,,,,,,,,,,,,,,,,,,,,,,,,75YC,001,2023_May_05_1121,ExactRep-v3-final,2021.2.3,59.93820381349433,
,,,,,,,,3,0,3,0,,,,,,,,,,,,,,,,,,,,,,,,,,,,,,,,,,,,,,,,,,,,,,,,,,,,,1144.579287899658,None,,,,,,,,,,,,,,,,,,,,,,,,,,,,,,,,,,,salary,63,4,silent,red,1142.5736360000446,None,None,1142.5736360000446,None,,,,,,,,,,,,,,,,,,,,,,,,,,,,,,75YC,001,2023_May_05_1121,ExactRep-v3-final,2021.2.3,59.93820381349433,
,,,,,,,,4,0,4,0,,,,,,,,,,,,,,,,,,,,,,,,,,,,,,,,,,,,,,,,,,,,,,,,,,,,,1147.0815437994897,None,,,,,,,,,,,,,,,,,,,,,,,,,,,,,,,,,,,city,117,5,aloud,blue,1145.0819416996092,None,None,1145.0819416996092,None,,,,,,,,,,,,,,,,,,,,,,,,,,,,,,75YC,001,2023_May_05_1121,ExactRep-v3-final,2021.2.3,59.93820381349433,
,,,,,,,,5,0,5,0,,,,,,,,,,,,,,,,,,,,,,,,,,,,,,,,,,,,,,,,,,,,,,,,,,,,,1149.6010630996898,None,,,,,,,,,,,,,,,,,,,,,,,,,,,,,,,,,,,party,45,6,silent,red,1147.5951433992013,None,None,1147.5951433992013,None,,,,,,,,,,,,,,,,,,,,,,,,,,,,,,75YC,001,2023_May_05_1121,ExactRep-v3-final,2021.2.3,59.93820381349433,
,,,,,,,,6,0,6,0,,,,,,,,,,,,,,,,,,,,,,,,,,,,,,,,,,,,,,,,,,,,,,,,,,,,,1152.1035196995363,None,,,,,,,,,,,,,,,,,,,,,,,,,,,,,,,,,,,cattle,17,7,sing,white,1150.1025636997074,None,None,1150.1025636997074,None,,,,,,,,,,,,,,,,,,,,,,,,,,,,,,75YC,001,2023_May_05_1121,ExactRep-v3-final,2021.2.3,59.93820381349433,
,,,,,,,,7,0,7,0,,,,,,,,,,,,,,,,,,,,,,,,,,,,,,,,,,,,,,,,,,,,,,,,,,,,,1154.6060708994046,None,,,,,,,,,,,,,,,,,,,,,,,,,,,,,,,,,,,bar,44,8,silent,red,1152.6055365996435,None,None,1152.6055365996435,None,,,,,,,,,,,,,,,,,,,,,,,,,,,,,,75YC,001,2023_May_05_1121,ExactRep-v3-final,2021.2.3,59.93820381349433,
,,,,,,,,8,0,8,0,,,,,,,,,,,,,,,,,,,,,,,,,,,,,,,,,,,,,,,,,,,,,,,,,,,,,1157.125189599581,None,,,,,,,,,,,,,,,,,,,,,,,,,,,,,,,,,,,wine,119,9,aloud,blue,1155.112795099616,None,None,1155.112795099616,None,,,,,,,,,,,,,,,,,,,,,,,,,,,,,,75YC,001,2023_May_05_1121,ExactRep-v3-final,2021.2.3,59.93820381349433,
,,,,,,,,9,0,9,0,,,,,,,,,,,,,,,,,,,,,,,,,,,,,,,,,,,,,,,,,,,,,,,,,,,,,1159.6443205997348,None,,,,,,,,,,,,,,,,,,,,,,,,,,,,,,,,,,,chair,18,10,sing,white,1157.6308875000104,None,None,1157.6308875000104,None,,,,,,,,,,,,,,,,,,,,,,,,,,,,,,75YC,001,2023_May_05_1121,ExactRep-v3-final,2021.2.3,59.93820381349433,
,,,,,,,,10,0,10,0,,,,,,,,,,,,,,,,,,,,,,,,,,,,,,,,,,,,,,,,,,,,,,,,,,,,,1162.1468383995816,None,,,,,,,,,,,,,,,,,,,,,,,,,,,,,,,,,,,plant,65,11,silent,red,1160.144618500024,None,None,1160.144618500024,None,,,,,,,,,,,,,,,,,,,,,,,,,,,,,,75YC,001,2023_May_05_1121,ExactRep-v3-final,2021.2.3,59.93820381349433,
,,,,,,,,11,0,11,0,,,,,,,,,,,,,,,,,,,,,,,,,,,,,,,,,,,,,,,,,,,,,,,,,,,,,1164.6660215994343,None,,,,,,,,,,,,,,,,,,,,,,,,,,,,,,,,,,,letter,110,12,aloud,blue,1162.6511283991858,None,None,1162.6511283991858,None,,,,,,,,,,,,,,,,,,,,,,,,,,,,,,75YC,001,2023_May_05_1121,ExactRep-v3-final,2021.2.3,59.93820381349433,
,,,,,,,,12,0,12,0,,,,,,,,,,,,,,,,,,,,,,,,,,,,,,,,,,,,,,,,,,,,,,,,,,,,,1167.185177299194,None,,,,,,,,,,,,,,,,,,,,,,,,,,,,,,,,,,,artist,60,13,silent,red,1165.171503899619,None,None,1165.171503899619,None,,,,,,,,,,,,,,,,,,,,,,,,,,,,,,75YC,001,2023_May_05_1121,ExactRep-v3-final,2021.2.3,59.93820381349433,
,,,,,,,,13,0,13,0,,,,,,,,,,,,,,,,,,,,,,,,,,,,,,,,,,,,,,,,,,,,,,,,,,,,,1169.6876647993922,None,,,,,,,,,,,,,,,,,,,,,,,,,,,,,,,,,,,church,67,14,silent,red,1167.6864168997854,None,None,1167.6864168997854,None,,,,,,,,,,,,,,,,,,,,,,,,,,,,,,75YC,001,2023_May_05_1121,ExactRep-v3-final,2021.2.3,59.93820381349433,
,,,,,,,,14,0,14,0,,,,,,,,,,,,,,,,,,,,,,,,,,,,,,,,,,,,,,,,,,,,,,,,,,,,,1172.1901582991704,None,,,,,,,,,,,,,,,,,,,,,,,,,,,,,,,,,,,temple,16,15,sing,white,1170.1909807994962,None,None,1170.1909807994962,None,,,,,,,,,,,,,,,,,,,,,,,,,,,,,,75YC,001,2023_May_05_1121,ExactRep-v3-final,2021.2.3,59.93820381349433,
,,,,,,,,15,0,15,0,,,,,,,,,,,,,,,,,,,,,,,,,,,,,,,,,,,,,,,,,,,,,,,,,,,,,1174.692813700065,None,,,,,,,,,,,,,,,,,,,,,,,,,,,,,,,,,,,coin,95,16,aloud,blue,1172.6924280999228,None,None,1172.6924280999228,None,,,,,,,,,,,,,,,,,,,,,,,,,,,,,,75YC,001,2023_May_05_1121,ExactRep-v3-final,2021.2.3,59.93820381349433,
,,,,,,,,16,0,16,0,,,,,,,,,,,,,,,,,,,,,,,,,,,,,,,,,,,,,,,,,,,,,,,,,,,,,1177.1953296000138,None,,,,,,,,,,,,,,,,,,,,,,,,,,,,,,,,,,,flesh,36,17,sing,white,1175.1934829996899,None,None,1175.1934829996899,None,,,,,,,,,,,,,,,,,,,,,,,,,,,,,,75YC,001,2023_May_05_1121,ExactRep-v3-final,2021.2.3,59.93820381349433,
,,,,,,,,17,0,17,0,,,,,,,,,,,,,,,,,,,,,,,,,,,,,,,,,,,,,,,,,,,,,,,,,,,,,1179.6977057000622,None,,,,,,,,,,,,,,,,,,,,,,,,,,,,,,,,,,,effort,47,18,silent,red,1177.6984612997621,None,None,1177.6984612997621,None,,,,,,,,,,,,,,,,,,,,,,,,,,,,,,75YC,001,2023_May_05_1121,ExactRep-v3-final,2021.2.3,59.93820381349433,
,,,,,,,,18,0,18,0,,,,,,,,,,,,,,,,,,,,,,,,,,,,,,,,,,,,,,,,,,,,,,,,,,,,,1182.1998918000609,None,,,,,,,,,,,,,,,,,,,,,,,,,,,,,,,,,,,hope,23,19,sing,white,1180.198181499727,None,None,1180.198181499727,None,,,,,,,,,,,,,,,,,,,,,,,,,,,,,,75YC,001,2023_May_05_1121,ExactRep-v3-final,2021.2.3,59.93820381349433,
,,,,,,,,19,0,19,0,,,,,,,,,,,,,,,,,,,,,,,,,,,,,,,,,,,,,,,,,,,,,,,,,,,,,1184.720682299696,None,,,,,,,,,,,,,,,,,,,,,,,,,,,,,,,,,,,leader,56,20,silent,red,1182.7052978994325,None,None,1182.7052978994325,None,,,,,,,,,,,,,,,,,,,,,,,,,,,,,,75YC,001,2023_May_05_1121,ExactRep-v3-final,2021.2.3,59.93820381349433,
,,,,,,,,20,0,20,0,,,,,,,,,,,,,,,,,,,,,,,,,,,,,,,,,,,,,,,,,,,,,,,,,,,,,1187.2218827996403,None,,,,,,,,,,,,,,,,,,,,,,,,,,,,,,,,,,,spirit,73,21,silent,red,1185.222001299262,None,None,1185.222001299262,None,,,,,,,,,,,,,,,,,,,,,,,,,,,,,,75YC,001,2023_May_05_1121,ExactRep-v3-final,2021.2.3,59.93820381349433,
,,,,,,,,21,0,21,0,,,,,,,,,,,,,,,,,,,,,,,,,,,,,,,,,,,,,,,,,,,,,,,,,,,,,1189.7243848992512,None,,,,,,,,,,,,,,,,,,,,,,,,,,,,,,,,,,,pupil,9,22,sing,white,1187.7222289992496,None,None,1187.7222289992496,None,,,,,,,,,,,,,,,,,,,,,,,,,,,,,,75YC,001,2023_May_05_1121,ExactRep-v3-final,2021.2.3,59.93820381349433,
,,,,,,,,22,0,22,0,,,,,,,,,,,,,,,,,,,,,,,,,,,,,,,,,,,,,,,,,,,,,,,,,,,,,1192.2265348993242,None,,,,,,,,,,,,,,,,,,,,,,,,,,,,,,,,,,,troops,12,23,sing,white,1190.2267053993419,None,None,1190.2267053993419,None,,,,,,,,,,,,,,,,,,,,,,,,,,,,,,75YC,001,2023_May_05_1121,ExactRep-v3-final,2021.2.3,59.93820381349433,
,,,,,,,,23,0,23,0,,,,,,,,,,,,,,,,,,,,,,,,,,,,,,,,,,,,,,,,,,,,,,,,,,,,,1194.7294456996024,None,,,,,,,,,,,,,,,,,,,,,,,,,,,,,,,,,,,truth,102,24,aloud,blue,1192.7286208998412,None,None,1192.7286208998412,None,,,,,,,,,,,,,,,,,,,,,,,,,,,,,,75YC,001,2023_May_05_1121,ExactRep-v3-final,2021.2.3,59.93820381349433,
,,,,,,,,24,0,24,0,,,,,,,,,,,,,,,,,,,,,,,,,,,,,,,,,,,,,,,,,,,,,,,,,,,,,1197.2319160997868,None,,,,,,,,,,,,,,,,,,,,,,,,,,,,,,,,,,,friend,38,25,sing,white,1195.2329874997959,None,None,1195.2329874997959,None,,,,,,,,,,,,,,,,,,,,,,,,,,,,,,75YC,001,2023_May_05_1121,ExactRep-v3-final,2021.2.3,59.93820381349433,
,,,,,,,,25,0,25,0,,,,,,,,,,,,,,,,,,,,,,,,,,,,,,,,,,,,,,,,,,,,,,,,,,,,,1199.7510996991768,None,,,,,,,,,,,,,,,,,,,,,,,,,,,,,,,,,,,love,87,26,aloud,blue,1197.7380323996767,None,None,1197.7380323996767,None,,,,,,,,,,,,,,,,,,,,,,,,,,,,,,75YC,001,2023_May_05_1121,ExactRep-v3-final,2021.2.3,59.93820381349433,
,,,,,,,,26,0,26,0,,,,,,,,,,,,,,,,,,,,,,,,,,,,,,,,,,,,,,,,,,,,,,,,,,,,,1202.2703553000465,None,,,,,,,,,,,,,,,,,,,,,,,,,,,,,,,,,,,book,25,27,sing,white,1200.2649162998423,None,None,1200.2649162998423,None,,,,,,,,,,,,,,,,,,,,,,,,,,,,,,75YC,001,2023_May_05_1121,ExactRep-v3-final,2021.2.3,59.93820381349433,
,,,,,,,,27,0,27,0,,,,,,,,,,,,,,,,,,,,,,,,,,,,,,,,,,,,,,,,,,,,,,,,,,,,,1204.7892743991688,None,,,,,,,,,,,,,,,,,,,,,,,,,,,,,,,,,,,potato,43,28,silent,red,1202.775018999353,None,None,1202.775018999353,None,,,,,,,,,,,,,,,,,,,,,,,,,,,,,,75YC,001,2023_May_05_1121,ExactRep-v3-final,2021.2.3,59.93820381349433,
,,,,,,,,28,0,28,0,,,,,,,,,,,,,,,,,,,,,,,,,,,,,,,,,,,,,,,,,,,,,,,,,,,,,1207.2920014997944,None,,,,,,,,,,,,,,,,,,,,,,,,,,,,,,,,,,,judge,101,29,aloud,blue,1205.289772699587,None,None,1205.289772699587,None,,,,,,,,,,,,,,,,,,,,,,,,,,,,,,75YC,001,2023_May_05_1121,ExactRep-v3-final,2021.2.3,59.93820381349433,
,,,,,,,,29,0,29,0,,,,,,,,,,,,,,,,,,,,,,,,,,,,,,,,,,,,,,,,,,,,,,,,,,,,,1209.811001099646,None,,,,,,,,,,,,,,,,,,,,,,,,,,,,,,,,,,,power,51,30,silent,red,1207.7956897998229,None,None,1207.7956897998229,None,,,,,,,,,,,,,,,,,,,,,,,,,,,,,,75YC,001,2023_May_05_1121,ExactRep-v3-final,2021.2.3,59.93820381349433,
,,,,,,,,30,0,30,0,,,,,,,,,,,,,,,,,,,,,,,,,,,,,,,,,,,,,,,,,,,,,,,,,,,,,1212.313649399206,None,,,,,,,,,,,,,,,,,,,,,,,,,,,,,,,,,,,sea,27,31,sing,white,1210.3116461997852,None,None,1210.3116461997852,None,,,,,,,,,,,,,,,,,,,,,,,,,,,,,,75YC,001,2023_May_05_1121,ExactRep-v3-final,2021.2.3,59.93820381349433,
,,,,,,,,31,0,31,0,,,,,,,,,,,,,,,,,,,,,,,,,,,,,,,,,,,,,,,,,,,,,,,,,,,,,1214.8161772992462,None,,,,,,,,,,,,,,,,,,,,,,,,,,,,,,,,,,,season,99,32,aloud,blue,1212.8156760996208,None,None,1212.8156760996208,None,,,,,,,,,,,,,,,,,,,,,,,,,,,,,,75YC,001,2023_May_05_1121,ExactRep-v3-final,2021.2.3,59.93820381349433,
,,,,,,,,32,0,32,0,,,,,,,,,,,,,,,,,,,,,,,,,,,,,,,,,,,,,,,,,,,,,,,,,,,,,1217.3186652995646,None,,,,,,,,,,,,,,,,,,,,,,,,,,,,,,,,,,,fur,31,33,sing,white,1215.3191801998764,None,None,1215.3191801998764,None,,,,,,,,,,,,,,,,,,,,,,,,,,,,,,75YC,001,2023_May_05_1121,ExactRep-v3-final,2021.2.3,59.93820381349433,
,,,,,,,,33,0,33,0,,,,,,,,,,,,,,,,,,,,,,,,,,,,,,,,,,,,,,,,,,,,,,,,,,,,,1219.8379313992336,None,,,,,,,,,,,,,,,,,,,,,,,,,,,,,,,,,,,humour,10,34,sing,white,1217.8223966993392,None,None,1217.8223966993392,None,,,,,,,,,,,,,,,,,,,,,,,,,,,,,,75YC,001,2023_May_05_1121,ExactRep-v3-final,2021.2.3,59.93820381349433,
,,,,,,,,34,0,34,0,,,,,,,,,,,,,,,,,,,,,,,,,,,,,,,,,,,,,,,,,,,,,,,,,,,,,1222.3403661996126,None,,,,,,,,,,,,,,,,,,,,,,,,,,,,,,,,,,,bottle,49,35,silent,red,1220.338358699344,None,None,1220.338358699344,None,,,,,,,,,,,,,,,,,,,,,,,,,,,,,,75YC,001,2023_May_05_1121,ExactRep-v3-final,2021.2.3,59.93820381349433,
,,,,,,,,35,0,35,0,,,,,,,,,,,,,,,,,,,,,,,,,,,,,,,,,,,,,,,,,,,,,,,,,,,,,1224.8426739992574,None,,,,,,,,,,,,,,,,,,,,,,,,,,,,,,,,,,,iron,113,36,aloud,blue,1222.8431249000132,None,None,1222.8431249000132,None,,,,,,,,,,,,,,,,,,,,,,,,,,,,,,75YC,001,2023_May_05_1121,ExactRep-v3-final,2021.2.3,59.93820381349433,
,,,,,,,,36,0,36,0,,,,,,,,,,,,,,,,,,,,,,,,,,,,,,,,,,,,,,,,,,,,,,,,,,,,,1227.362031799741,None,,,,,,,,,,,,,,,,,,,,,,,,,,,,,,,,,,,cottage,104,37,aloud,blue,1225.352622299455,None,None,1225.352622299455,None,,,,,,,,,,,,,,,,,,,,,,,,,,,,,,75YC,001,2023_May_05_1121,ExactRep-v3-final,2021.2.3,59.93820381349433,
,,,,,,,,37,0,37,0,,,,,,,,,,,,,,,,,,,,,,,,,,,,,,,,,,,,,,,,,,,,,,,,,,,,,1229.8645382998511,None,,,,,,,,,,,,,,,,,,,,,,,,,,,,,,,,,,,pride,53,38,silent,red,1227.8634950993583,None,None,1227.8634950993583,None,,,,,,,,,,,,,,,,,,,,,,,,,,,,,,75YC,001,2023_May_05_1121,ExactRep-v3-final,2021.2.3,59.93820381349433,
,,,,,,,,38,0,38,0,,,,,,,,,,,,,,,,,,,,,,,,,,,,,,,,,,,,,,,,,,,,,,,,,,,,,1232.3835555994883,None,,,,,,,,,,,,,,,,,,,,,,,,,,,,,,,,,,,garden,96,39,aloud,blue,1230.3738751998171,None,None,1230.3738751998171,None,,,,,,,,,,,,,,,,,,,,,,,,,,,,,,75YC,001,2023_May_05_1121,ExactRep-v3-final,2021.2.3,59.93820381349433,
,,,,,,,,39,0,39,0,,,,,,,,,,,,,,,,,,,,,,,,,,,,,,,,,,,,,,,,,,,,,,,,,,,,,1234.9027487998828,None,,,,,,,,,,,,,,,,,,,,,,,,,,,,,,,,,,,plain,46,40,silent,red,1232.8936515999958,None,None,1232.8936515999958,None,,,,,,,,,,,,,,,,,,,,,,,,,,,,,,75YC,001,2023_May_05_1121,ExactRep-v3-final,2021.2.3,59.93820381349433,
,,,,,,,,40,0,40,0,,,,,,,,,,,,,,,,,,,,,,,,,,,,,,,,,,,,,,,,,,,,,,,,,,,,,1237.4054266000167,None,,,,,,,,,,,,,,,,,,,,,,,,,,,,,,,,,,,hotel,111,41,aloud,blue,1235.4032619995996,None,None,1235.4032619995996,None,,,,,,,,,,,,,,,,,,,,,,,,,,,,,,75YC,001,2023_May_05_1121,ExactRep-v3-final,2021.2.3,59.93820381349433,
,,,,,,,,41,0,41,0,,,,,,,,,,,,,,,,,,,,,,,,,,,,,,,,,,,,,,,,,,,,,,,,,,,,,1239.9246269995347,None,,,,,,,,,,,,,,,,,,,,,,,,,,,,,,,,,,,camp,21,42,sing,white,1237.9090849999338,None,None,1237.9090849999338,None,,,,,,,,,,,,,,,,,,,,,,,,,,,,,,75YC,001,2023_May_05_1121,ExactRep-v3-final,2021.2.3,59.93820381349433,
,,,,,,,,42,0,42,0,,,,,,,,,,,,,,,,,,,,,,,,,,,,,,,,,,,,,,,,,,,,,,,,,,,,,1242.4271045997739,None,,,,,,,,,,,,,,,,,,,,,,,,,,,,,,,,,,,gold,107,43,aloud,blue,1240.4251446994022,None,None,1240.4251446994022,None,,,,,,,,,,,,,,,,,,,,,,,,,,,,,,75YC,001,2023_May_05_1121,ExactRep-v3-final,2021.2.3,59.93820381349433,
,,,,,,,,43,0,43,0,,,,,,,,,,,,,,,,,,,,,,,,,,,,,,,,,,,,,,,,,,,,,,,,,,,,,1244.9460861999542,None,,,,,,,,,,,,,,,,,,,,,,,,,,,,,,,,,,,doctor,81,44,aloud,blue,1242.935963199474,None,None,1242.935963199474,None,,,,,,,,,,,,,,,,,,,,,,,,,,,,,,75YC,001,2023_May_05_1121,ExactRep-v3-final,2021.2.3,59.93820381349433,
,,,,,,,,44,0,44,0,,,,,,,,,,,,,,,,,,,,,,,,,,,,,,,,,,,,,,,,,,,,,,,,,,,,,1247.46546950005,None,,,,,,,,,,,,,,,,,,,,,,,,,,,,,,,,,,,table,78,45,silent,red,1245.455183999613,None,None,1245.455183999613,None,,,,,,,,,,,,,,,,,,,,,,,,,,,,,,75YC,001,2023_May_05_1121,ExactRep-v3-final,2021.2.3,59.93820381349433,
,,,,,,,,45,0,45,0,,,,,,,,,,,,,,,,,,,,,,,,,,,,,,,,,,,,,,,,,,,,,,,,,,,,,1249.9679916994646,None,,,,,,,,,,,,,,,,,,,,,,,,,,,,,,,,,,,dollar,24,46,sing,white,1247.9669604999945,None,None,1247.9669604999945,None,,,,,,,,,,,,,,,,,,,,,,,,,,,,,,75YC,001,2023_May_05_1121,ExactRep-v3-final,2021.2.3,59.93820381349433,
,,,,,,,,46,0,46,0,,,,,,,,,,,,,,,,,,,,,,,,,,,,,,,,,,,,,,,,,,,,,,,,,,,,,1252.470486599952,None,,,,,,,,,,,,,,,,,,,,,,,,,,,,,,,,,,,child,14,47,sing,white,1250.4713989999145,None,None,1250.4713989999145,None,,,,,,,,,,,,,,,,,,,,,,,,,,,,,,75YC,001,2023_May_05_1121,ExactRep-v3-final,2021.2.3,59.93820381349433,
,,,,,,,,47,0,47,0,,,,,,,,,,,,,,,,,,,,,,,,,,,,,,,,,,,,,,,,,,,,,,,,,,,,,1254.9897541999817,None,,,,,,,,,,,,,,,,,,,,,,,,,,,,,,,,,,,cabin,34,48,sing,white,1252.9780472991988,None,None,1252.9780472991988,None,,,,,,,,,,,,,,,,,,,,,,,,,,,,,,75YC,001,2023_May_05_1121,ExactRep-v3-final,2021.2.3,59.93820381349433,
,,,,,,,,48,0,48,0,,,,,,,,,,,,,,,,,,,,,,,,,,,,,,,,,,,,,,,,,,,,,,,,,,,,,1257.5086720995605,None,,,,,,,,,,,,,,,,,,,,,,,,,,,,,,,,,,,theory,48,49,silent,red,1255.4955648994073,None,None,1255.4955648994073,None,,,,,,,,,,,,,,,,,,,,,,,,,,,,,,75YC,001,2023_May_05_1121,ExactRep-v3-final,2021.2.3,59.93820381349433,
,,,,,,,,49,0,49,0,,,,,,,,,,,,,,,,,,,,,,,,,,,,,,,,,,,,,,,,,,,,,,,,,,,,,1260.0113439997658,None,,,,,,,,,,,,,,,,,,,,,,,,,,,,,,,,,,,death,108,50,aloud,blue,1258.0095682991669,None,None,1258.0095682991669,None,,,,,,,,,,,,,,,,,,,,,,,,,,,,,,75YC,001,2023_May_05_1121,ExactRep-v3-final,2021.2.3,59.93820381349433,
,,,,,,,,50,0,50,0,,,,,,,,,,,,,,,,,,,,,,,,,,,,,,,,,,,,,,,,,,,,,,,,,,,,,1262.513861199841,None,,,,,,,,,,,,,,,,,,,,,,,,,,,,,,,,,,,duty,97,51,aloud,blue,1260.5125163998455,None,None,1260.5125163998455,None,,,,,,,,,,,,,,,,,,,,,,,,,,,,,,75YC,001,2023_May_05_1121,ExactRep-v3-final,2021.2.3,59.93820381349433,
,,,,,,,,51,0,51,0,,,,,,,,,,,,,,,,,,,,,,,,,,,,,,,,,,,,,,,,,,,,,,,,,,,,,1265.033065399155,None,,,,,,,,,,,,,,,,,,,,,,,,,,,,,,,,,,,safety,79,52,sing,white,1263.0175804998726,None,None,1263.0175804998726,None,,,,,,,,,,,,,,,,,,,,,,,,,,,,,,75YC,001,2023_May_05_1121,ExactRep-v3-final,2021.2.3,59.93820381349433,
,,,,,,,,52,0,52,0,,,,,,,,,,,,,,,,,,,,,,,,,,,,,,,,,,,,,,,,,,,,,,,,,,,,,1267.5356134995818,None,,,,,,,,,,,,,,,,,,,,,,,,,,,,,,,,,,,apple,20,53,sing,white,1265.5345793999732,None,None,1265.5345793999732,None,,,,,,,,,,,,,,,,,,,,,,,,,,,,,,75YC,001,2023_May_05_1121,ExactRep-v3-final,2021.2.3,59.93820381349433,
,,,,,,,,53,0,53,0,,,,,,,,,,,,,,,,,,,,,,,,,,,,,,,,,,,,,,,,,,,,,,,,,,,,,1270.0380432000384,None,,,,,,,,,,,,,,,,,,,,,,,,,,,,,,,,,,,market,61,54,silent,red,1268.0376188000664,None,None,1268.0376188000664,None,,,,,,,,,,,,,,,,,,,,,,,,,,,,,,75YC,001,2023_May_05_1121,ExactRep-v3-final,2021.2.3,59.93820381349433,
,,,,,,,,54,0,54,0,,,,,,,,,,,,,,,,,,,,,,,,,,,,,,,,,,,,,,,,,,,,,,,,,,,,,1272.5404652999714,None,,,,,,,,,,,,,,,,,,,,,,,,,,,,,,,,,,,paper,103,55,aloud,blue,1270.5393301993608,None,None,1270.5393301993608,None,,,,,,,,,,,,,,,,,,,,,,,,,,,,,,75YC,001,2023_May_05_1121,ExactRep-v3-final,2021.2.3,59.93820381349433,
,,,,,,,,55,0,55,0,,,,,,,,,,,,,,,,,,,,,,,,,,,,,,,,,,,,,,,,,,,,,,,,,,,,,1275.0428168997169,None,,,,,,,,,,,,,,,,,,,,,,,,,,,,,,,,,,,forest,88,56,aloud,blue,1273.0409138994291,None,None,1273.0409138994291,None,,,,,,,,,,,,,,,,,,,,,,,,,,,,,,75YC,001,2023_May_05_1121,ExactRep-v3-final,2021.2.3,59.93820381349433,
,,,,,,,,56,0,56,0,,,,,,,,,,,,,,,,,,,,,,,,,,,,,,,,,,,,,,,,,,,,,,,,,,,,,1277.5622620992362,None,,,,,,,,,,,,,,,,,,,,,,,,,,,,,,,,,,,wheat,109,57,aloud,blue,1275.5470429994166,None,None,1275.5470429994166,None,,,,,,,,,,,,,,,,,,,,,,,,,,,,,,75YC,001,2023_May_05_1121,ExactRep-v3-final,2021.2.3,59.93820381349433,
,,,,,,,,57,0,57,0,,,,,,,,,,,,,,,,,,,,,,,,,,,,,,,,,,,,,,,,,,,,,,,,,,,,,1280.064758499153,None,,,,,,,,,,,,,,,,,,,,,,,,,,,,,,,,,,,owner,93,58,aloud,blue,1278.0627477997914,None,None,1278.0627477997914,None,,,,,,,,,,,,,,,,,,,,,,,,,,,,,,75YC,001,2023_May_05_1121,ExactRep-v3-final,2021.2.3,59.93820381349433,
,,,,,,,,58,0,58,0,,,,,,,,,,,,,,,,,,,,,,,,,,,,,,,,,,,,,,,,,,,,,,,,,,,,,1282.5673038996756,None,,,,,,,,,,,,,,,,,,,,,,,,,,,,,,,,,,,brain,80,59,aloud,blue,1280.5670422995463,None,None,1280.5670422995463,None,,,,,,,,,,,,,,,,,,,,,,,,,,,,,,75YC,001,2023_May_05_1121,ExactRep-v3-final,2021.2.3,59.93820381349433,
,,,,,,,,59,0,59,0,,,,,,,,,,,,,,,,,,,,,,,,,,,,,,,,,,,,,,,,,,,,,,,,,,,,,1285.069734199904,None,,,,,,,,,,,,,,,,,,,,,,,,,,,,,,,,,,,answer,2,60,sing,white,1283.0691513996571,None,None,1283.0691513996571,None,,,,,,,,,,,,,,,,,,,,,,,,,,,,,,75YC,001,2023_May_05_1121,ExactRep-v3-final,2021.2.3,59.93820381349433,
,,,,,,,,60,0,60,0,,,,,,,,,,,,,,,,,,,,,,,,,,,,,,,,,,,,,,,,,,,,,,,,,,,,,1287.5722201997414,None,,,,,,,,,,,,,,,,,,,,,,,,,,,,,,,,,,,star,69,61,silent,red,1285.5718633998185,None,None,1285.5718633998185,None,,,,,,,,,,,,,,,,,,,,,,,,,,,,,,75YC,001,2023_May_05_1121,ExactRep-v3-final,2021.2.3,59.93820381349433,
,,,,,,,,61,0,61,0,,,,,,,,,,,,,,,,,,,,,,,,,,,,,,,,,,,,,,,,,,,,,,,,,,,,,1290.0747352000326,None,,,,,,,,,,,,,,,,,,,,,,,,,,,,,,,,,,,breast,84,62,aloud,blue,1288.0746702998877,None,None,1288.0746702998877,None,,,,,,,,,,,,,,,,,,,,,,,,,,,,,,75YC,001,2023_May_05_1121,ExactRep-v3-final,2021.2.3,59.93820381349433,
,,,,,,,,62,0,62,0,,,,,,,,,,,,,,,,,,,,,,,,,,,,,,,,,,,,,,,,,,,,,,,,,,,,,1292.5770753994584,None,,,,,,,,,,,,,,,,,,,,,,,,,,,,,,,,,,,house,77,63,silent,red,1290.5770605998114,None,None,1290.5770605998114,None,,,,,,,,,,,,,,,,,,,,,,,,,,,,,,75YC,001,2023_May_05_1121,ExactRep-v3-final,2021.2.3,59.93820381349433,
,,,,,,,,63,0,63,0,,,,,,,,,,,,,,,,,,,,,,,,,,,,,,,,,,,,,,,,,,,,,,,,,,,,,1295.0962381996214,None,,,,,,,,,,,,,,,,,,,,,,,,,,,,,,,,,,,victory,52,64,silent,red,1293.0829104995355,None,None,1293.0829104995355,None,,,,,,,,,,,,,,,,,,,,,,,,,,,,,,75YC,001,2023_May_05_1121,ExactRep-v3-final,2021.2.3,59.93820381349433,
,,,,,,,,64,0,64,0,,,,,,,,,,,,,,,,,,,,,,,,,,,,,,,,,,,,,,,,,,,,,,,,,,,,,1297.5989780994132,None,,,,,,,,,,,,,,,,,,,,,,,,,,,,,,,,,,,college,33,65,sing,white,1295.5968026993796,None,None,1295.5968026993796,None,,,,,,,,,,,,,,,,,,,,,,,,,,,,,,75YC,001,2023_May_05_1121,ExactRep-v3-final,2021.2.3,59.93820381349433,
,,,,,,,,65,0,65,0,,,,,,,,,,,,,,,,,,,,,,,,,,,,,,,,,,,,,,,,,,,,,,,,,,,,,1300.117924099788,None,,,,,,,,,,,,,,,,,,,,,,,,,,,,,,,,,,,dawn,4,66,sing,white,1298.1022940995172,None,None,1298.1022940995172,None,,,,,,,,,,,,,,,,,,,,,,,,,,,,,,75YC,001,2023_May_05_1121,ExactRep-v3-final,2021.2.3,59.93820381349433,
,,,,,,,,66,0,66,0,,,,,,,,,,,,,,,,,,,,,,,,,,,,,,,,,,,,,,,,,,,,,,,,,,,,,1302.6207086993381,None,,,,,,,,,,,,,,,,,,,,,,,,,,,,,,,,,,,skin,83,67,aloud,blue,1300.6184871997684,None,None,1300.6184871997684,None,,,,,,,,,,,,,,,,,,,,,,,,,,,,,,75YC,001,2023_May_05_1121,ExactRep-v3-final,2021.2.3,59.93820381349433,
,,,,,,,,67,0,67,0,,,,,,,,,,,,,,,,,,,,,,,,,,,,,,,,,,,,,,,,,,,,,,,,,,,,,1305.1231092996895,None,,,,,,,,,,,,,,,,,,,,,,,,,,,,,,,,,,,poet,22,68,sing,white,1303.1236271997914,None,None,1303.1236271997914,None,,,,,,,,,,,,,,,,,,,,,,,,,,,,,,75YC,001,2023_May_05_1121,ExactRep-v3-final,2021.2.3,59.93820381349433,
,,,,,,,,68,0,68,0,,,,,,,,,,,,,,,,,,,,,,,,,,,,,,,,,,,,,,,,,,,,,,,,,,,,,1307.625473299995,None,,,,,,,,,,,,,,,,,,,,,,,,,,,,,,,,,,,library,58,69,silent,red,1305.6248640995473,None,None,1305.6248640995473,None,,,,,,,,,,,,,,,,,,,,,,,,,,,,,,75YC,001,2023_May_05_1121,ExactRep-v3-final,2021.2.3,59.93820381349433,
,,,,,,,,69,0,69,0,,,,,,,,,,,,,,,,,,,,,,,,,,,,,,,,,,,,,,,,,,,,,,,,,,,,,1310.1282863998786,None,,,,,,,,,,,,,,,,,,,,,,,,,,,,,,,,,,,mother,82,70,aloud,blue,1308.1259697992355,None,None,1308.1259697992355,None,,,,,,,,,,,,,,,,,,,,,,,,,,,,,,75YC,001,2023_May_05_1121,ExactRep-v3-final,2021.2.3,59.93820381349433,
,,,,,,,,70,0,70,0,,,,,,,,,,,,,,,,,,,,,,,,,,,,,,,,,,,,,,,,,,,,,,,,,,,,,1312.6306803999469,None,,,,,,,,,,,,,,,,,,,,,,,,,,,,,,,,,,,length,70,71,silent,red,1310.6315330993384,None,None,1310.6315330993384,None,,,,,,,,,,,,,,,,,,,,,,,,,,,,,,75YC,001,2023_May_05_1121,ExactRep-v3-final,2021.2.3,59.93820381349433,
,,,,,,,,71,0,71,0,,,,,,,,,,,,,,,,,,,,,,,,,,,,,,,,,,,,,,,,,,,,,,,,,,,,,1315.1332992995158,None,,,,,,,,,,,,,,,,,,,,,,,,,,,,,,,,,,,shore,29,72,sing,white,1313.133034300059,None,None,1313.133034300059,None,,,,,,,,,,,,,,,,,,,,,,,,,,,,,,75YC,001,2023_May_05_1121,ExactRep-v3-final,2021.2.3,59.93820381349433,
,,,,,,,,72,0,72,0,,,,,,,,,,,,,,,,,,,,,,,,,,,,,,,,,,,,,,,,,,,,,,,,,,,,,1317.6358384992927,None,,,,,,,,,,,,,,,,,,,,,,,,,,,,,,,,,,,fault,98,73,aloud,blue,1315.6354318000376,None,None,1315.6354318000376,None,,,,,,,,,,,,,,,,,,,,,,,,,,,,,,75YC,001,2023_May_05_1121,ExactRep-v3-final,2021.2.3,59.93820381349433,
,,,,,,,,73,0,73,0,,,,,,,,,,,,,,,,,,,,,,,,,,,,,,,,,,,,,,,,,,,,,,,,,,,,,1320.1381543995813,None,,,,,,,,,,,,,,,,,,,,,,,,,,,,,,,,,,,series,40,74,silent,red,1318.1379733998328,None,None,1318.1379733998328,None,,,,,,,,,,,,,,,,,,,,,,,,,,,,,,75YC,001,2023_May_05_1121,ExactRep-v3-final,2021.2.3,59.93820381349433,
,,,,,,,,74,0,74,0,,,,,,,,,,,,,,,,,,,,,,,,,,,,,,,,,,,,,,,,,,,,,,,,,,,,,1322.6574519993737,None,,,,,,,,,,,,,,,,,,,,,,,,,,,,,,,,,,,lord,85,75,aloud,blue,1320.6473639998585,None,None,1320.6473639998585,None,,,,,,,,,,,,,,,,,,,,,,,,,,,,,,75YC,001,2023_May_05_1121,ExactRep-v3-final,2021.2.3,59.93820381349433,
,,,,,,,,75,0,75,0,,,,,,,,,,,,,,,,,,,,,,,,,,,,,,,,,,,,,,,,,,,,,,,,,,,,,1325.1599319996312,None,,,,,,,,,,,,,,,,,,,,,,,,,,,,,,,,,,,avenue,76,76,silent,red,1323.1578436000273,None,None,1323.1578436000273,None,,,,,,,,,,,,,,,,,,,,,,,,,,,,,,75YC,001,2023_May_05_1121,ExactRep-v3-final,2021.2.3,59.93820381349433,
,,,,,,,,76,0,76,0,,,,,,,,,,,,,,,,,,,,,,,,,,,,,,,,,,,,,,,,,,,,,,,,,,,,,1327.6623834995553,None,,,,,,,,,,,,,,,,,,,,,,,,,,,,,,,,,,,charm,75,77,silent,red,1325.662028699182,None,None,1325.662028699182,None,,,,,,,,,,,,,,,,,,,,,,,,,,,,,,75YC,001,2023_May_05_1121,ExactRep-v3-final,2021.2.3,59.93820381349433,
,,,,,,,,77,0,77,0,,,,,,,,,,,,,,,,,,,,,,,,,,,,,,,,,,,,,,,,,,,,,,,,,,,,,1330.181596399285,None,,,,,,,,,,,,,,,,,,,,,,,,,,,,,,,,,,,advice,71,78,silent,red,1328.1726751998067,None,None,1328.1726751998067,None,,,,,,,,,,,,,,,,,,,,,,,,,,,,,,75YC,001,2023_May_05_1121,ExactRep-v3-final,2021.2.3,59.93820381349433,
,,,,,,,,78,0,78,0,,,,,,,,,,,,,,,,,,,,,,,,,,,,,,,,,,,,,,,,,,,,,,,,,,,,,1332.7007694998756,None,,,,,,,,,,,,,,,,,,,,,,,,,,,,,,,,,,,boulder,89,79,aloud,blue,1330.686194599606,None,None,1330.686194599606,None,,,,,,,,,,,,,,,,,,,,,,,,,,,,,,75YC,001,2023_May_05_1121,ExactRep-v3-final,2021.2.3,59.93820381349433,
,,,,,,,,79,0,79,0,,,,,,,,,,,,,,,,,,,,,,,,,,,,,,,,,,,,,,,,,,,,,,,,,,,,,1335.2199011994526,None,,,,,,,,,,,,,,,,,,,,,,,,,,,,,,,,,,,storm,6,80,sing,white,1333.2045956999063,None,None,1333.2045956999063,None,,,,,,,,,,,,,,,,,,,,,,,,,,,,,,75YC,001,2023_May_05_1121,ExactRep-v3-final,2021.2.3,59.93820381349433,
,,,,,,,,80,0,80,0,,,,,,,,,,,,,,,,,,,,,,,,,,,,,,,,,,,,,,,,,,,,,,,,,,,,,1337.722434499301,None,,,,,,,,,,,,,,,,,,,,,,,,,,,,,,,,,,,dream,62,81,silent,red,1335.7225740998983,None,None,1335.7225740998983,None,,,,,,,,,,,,,,,,,,,,,,,,,,,,,,75YC,001,2023_May_05_1121,ExactRep-v3-final,2021.2.3,59.93820381349433,
,,,,,,,,81,0,81,0,,,,,,,,,,,,,,,,,,,,,,,,,,,,,,,,,,,,,,,,,,,,,,,,,,,,,1340.2416076995432,None,,,,,,,,,,,,,,,,,,,,,,,,,,,,,,,,,,,winter,1,82,sing,white,1338.2261595996097,None,None,1338.2261595996097,None,,,,,,,,,,,,,,,,,,,,,,,,,,,,,,75YC,001,2023_May_05_1121,ExactRep-v3-final,2021.2.3,59.93820381349433,
,,,,,,,,82,0,82,0,,,,,,,,,,,,,,,,,,,,,,,,,,,,,,,,,,,,,,,,,,,,,,,,,,,,,1342.7441354999319,None,,,,,,,,,,,,,,,,,,,,,,,,,,,,,,,,,,,passion,64,83,silent,red,1340.7439761999995,None,None,1340.7439761999995,None,,,,,,,,,,,,,,,,,,,,,,,,,,,,,,75YC,001,2023_May_05_1121,ExactRep-v3-final,2021.2.3,59.93820381349433,
,,,,,,,,83,0,83,0,,,,,,,,,,,,,,,,,,,,,,,,,,,,,,,,,,,,,,,,,,,,,,,,,,,,,1345.2632479993626,None,,,,,,,,,,,,,,,,,,,,,,,,,,,,,,,,,,,health,68,84,silent,red,1343.2476947996765,None,None,1343.2476947996765,None,,,,,,,,,,,,,,,,,,,,,,,,,,,,,,75YC,001,2023_May_05_1121,ExactRep-v3-final,2021.2.3,59.93820381349433,
,,,,,,,,84,0,84,0,,,,,,,,,,,,,,,,,,,,,,,,,,,,,,,,,,,,,,,,,,,,,,,,,,,,,1347.7657925998792,None,,,,,,,,,,,,,,,,,,,,,,,,,,,,,,,,,,,shadow,8,85,sing,white,1345.7637505996972,None,None,1345.7637505996972,None,,,,,,,,,,,,,,,,,,,,,,,,,,,,,,75YC,001,2023_May_05_1121,ExactRep-v3-final,2021.2.3,59.93820381349433,
,,,,,,,,85,0,85,0,,,,,,,,,,,,,,,,,,,,,,,,,,,,,,,,,,,,,,,,,,,,,,,,,,,,,1350.2681282991543,None,,,,,,,,,,,,,,,,,,,,,,,,,,,,,,,,,,,river,114,86,aloud,blue,1348.2679325994104,None,None,1348.2679325994104,None,,,,,,,,,,,,,,,,,,,,,,,,,,,,,,75YC,001,2023_May_05_1121,ExactRep-v3-final,2021.2.3,59.93820381349433,
,,,,,,,,86,0,86,0,,,,,,,,,,,,,,,,,,,,,,,,,,,,,,,,,,,,,,,,,,,,,,,,,,,,,1352.770751199685,None,,,,,,,,,,,,,,,,,,,,,,,,,,,,,,,,,,,journal,105,87,aloud,blue,1350.768859299831,None,None,1350.768859299831,None,,,,,,,,,,,,,,,,,,,,,,,,,,,,,,75YC,001,2023_May_05_1121,ExactRep-v3-final,2021.2.3,59.93820381349433,
,,,,,,,,87,0,87,0,,,,,,,,,,,,,,,,,,,,,,,,,,,,,,,,,,,,,,,,,,,,,,,,,,,,,1355.2734498996288,None,,,,,,,,,,,,,,,,,,,,,,,,,,,,,,,,,,,priest,86,88,aloud,blue,1353.2727482998744,None,None,1353.2727482998744,None,,,,,,,,,,,,,,,,,,,,,,,,,,,,,,75YC,001,2023_May_05_1121,ExactRep-v3-final,2021.2.3,59.93820381349433,
,,,,,,,,88,0,88,0,,,,,,,,,,,,,,,,,,,,,,,,,,,,,,,,,,,,,,,,,,,,,,,,,,,,,1357.7758336998522,None,,,,,,,,,,,,,,,,,,,,,,,,,,,,,,,,,,,girl,118,89,aloud,blue,1355.7755543999374,None,None,1355.7755543999374,None,,,,,,,,,,,,,,,,,,,,,,,,,,,,,,75YC,001,2023_May_05_1121,ExactRep-v3-final,2021.2.3,59.93820381349433,
,,,,,,,,89,0,89,0,,,,,,,,,,,,,,,,,,,,,,,,,,,,,,,,,,,,,,,,,,,,,,,,,,,,,1360.2948277993128,None,,,,,,,,,,,,,,,,,,,,,,,,,,,,,,,,,,,grass,90,90,aloud,blue,1358.2806576993316,None,None,1358.2806576993316,None,,,,,,,,,,,,,,,,,,,,,,,,,,,,,,75YC,001,2023_May_05_1121,ExactRep-v3-final,2021.2.3,59.93820381349433,
,,,,,,,,90,0,90,0,,,,,,,,,,,,,,,,,,,,,,,,,,,,,,,,,,,,,,,,,,,,,,,,,,,,,1362.814188200049,None,,,,,,,,,,,,,,,,,,,,,,,,,,,,,,,,,,,factory,106,91,aloud,blue,1360.7989748995751,None,None,1360.7989748995751,None,,,,,,,,,,,,,,,,,,,,,,,,,,,,,,75YC,001,2023_May_05_1121,ExactRep-v3-final,2021.2.3,59.93820381349433,
,,,,,,,,91,0,91,0,,,,,,,,,,,,,,,,,,,,,,,,,,,,,,,,,,,,,,,,,,,,,,,,,,,,,1365.3166336994618,None,,,,,,,,,,,,,,,,,,,,,,,,,,,,,,,,,,,freedom,3,92,sing,white,1363.3159485999495,None,None,1363.3159485999495,None,,,,,,,,,,,,,,,,,,,,,,,,,,,,,,75YC,001,2023_May_05_1121,ExactRep-v3-final,2021.2.3,59.93820381349433,
,,,,,,,,92,0,92,0,,,,,,,,,,,,,,,,,,,,,,,,,,,,,,,,,,,,,,,,,,,,,,,,,,,,,1367.8358710994944,None,,,,,,,,,,,,,,,,,,,,,,,,,,,,,,,,,,,silence,66,93,silent,red,1365.8215441992506,None,None,1365.8215441992506,None,,,,,,,,,,,,,,,,,,,,,,,,,,,,,,75YC,001,2023_May_05_1121,ExactRep-v3-final,2021.2.3,59.93820381349433,
,,,,,,,,93,0,93,0,,,,,,,,,,,,,,,,,,,,,,,,,,,,,,,,,,,,,,,,,,,,,,,,,,,,,1370.3550470992923,None,,,,,,,,,,,,,,,,,,,,,,,,,,,,,,,,,,,diamond,39,94,silent,red,1368.344337400049,None,None,1368.344337400049,None,,,,,,,,,,,,,,,,,,,,,,,,,,,,,,75YC,001,2023_May_05_1121,ExactRep-v3-final,2021.2.3,59.93820381349433,
,,,,,,,,94,0,94,0,,,,,,,,,,,,,,,,,,,,,,,,,,,,,,,,,,,,,,,,,,,,,,,,,,,,,1372.8575654998422,None,,,,,,,,,,,,,,,,,,,,,,,,,,,,,,,,,,,fate,112,95,aloud,blue,1370.8555183997378,None,None,1370.8555183997378,None,,,,,,,,,,,,,,,,,,,,,,,,,,,,,,75YC,001,2023_May_05_1121,ExactRep-v3-final,2021.2.3,59.93820381349433,
,,,,,,,,95,0,95,0,,,,,,,,,,,,,,,,,,,,,,,,,,,,,,,,,,,,,,,,,,,,,,,,,,,,,1375.3601440992206,None,,,,,,,,,,,,,,,,,,,,,,,,,,,,,,,,,,,hide,0,96,sing,white,1373.3598752999678,None,None,1373.3598752999678,None,,,,,,,,,,,,,,,,,,,,,,,,,,,,,,75YC,001,2023_May_05_1121,ExactRep-v3-final,2021.2.3,59.93820381349433,
,,,,,,,,96,0,96,0,,,,,,,,,,,,,,,,,,,,,,,,,,,,,,,,,,,,,,,,,,,,,,,,,,,,,1377.8625598996878,None,,,,,,,,,,,,,,,,,,,,,,,,,,,,,,,,,,,doll,50,97,silent,red,1375.861895499751,None,None,1375.861895499751,None,,,,,,,,,,,,,,,,,,,,,,,,,,,,,,75YC,001,2023_May_05_1121,ExactRep-v3-final,2021.2.3,59.93820381349433,
,,,,,,,,97,0,97,0,,,,,,,,,,,,,,,,,,,,,,,,,,,,,,,,,,,,,,,,,,,,,,,,,,,,,1380.3651560992002,None,,,,,,,,,,,,,,,,,,,,,,,,,,,,,,,,,,,animal,42,98,silent,red,1378.3648673994467,None,None,1378.3648673994467,None,,,,,,,,,,,,,,,,,,,,,,,,,,,,,,75YC,001,2023_May_05_1121,ExactRep-v3-final,2021.2.3,59.93820381349433,
,,,,,,,,98,0,98,0,,,,,,,,,,,,,,,,,,,,,,,,,,,,,,,,,,,,,,,,,,,,,,,,,,,,,1382.8842564998195,None,,,,,,,,,,,,,,,,,,,,,,,,,,,,,,,,,,,method,30,99,sing,white,1380.873564299196,None,None,1380.873564299196,None,,,,,,,,,,,,,,,,,,,,,,,,,,,,,,75YC,001,2023_May_05_1121,ExactRep-v3-final,2021.2.3,59.93820381349433,
,,,,,,,,99,0,99,0,,,,,,,,,,,,,,,,,,,,,,,,,,,,,,,,,,,,,,,,,,,,,,,,,,,,,1385.386930000037,None,,,,,,,,,,,,,,,,,,,,,,,,,,,,,,,,,,,crime,19,100,sing,white,1383.387490899302,None,None,1383.387490899302,None,,,,,,,,,,,,,,,,,,,,,,,,,,,,,,75YC,001,2023_May_05_1121,ExactRep-v3-final,2021.2.3,59.93820381349433,
,,,,,,,,100,0,100,0,,,,,,,,,,,,,,,,,,,,,,,,,,,,,,,,,,,,,,,,,,,,,,,,,,,,,1387.8891303995624,None,,,,,,,,,,,,,,,,,,,,,,,,,,,,,,,,,,,clock,35,101,sing,white,1385.8889537993819,None,None,1385.8889537993819,None,,,,,,,,,,,,,,,,,,,,,,,,,,,,,,75YC,001,2023_May_05_1121,ExactRep-v3-final,2021.2.3,59.93820381349433,
,,,,,,,,101,0,101,0,,,,,,,,,,,,,,,,,,,,,,,,,,,,,,,,,,,,,,,,,,,,,,,,,,,,,1390.3917886000127,None,,,,,,,,,,,,,,,,,,,,,,,,,,,,,,,,,,,shame,55,102,silent,red,1388.3923104992136,None,None,1388.3923104992136,None,,,,,,,,,,,,,,,,,,,,,,,,,,,,,,75YC,001,2023_May_05_1121,ExactRep-v3-final,2021.2.3,59.93820381349433,
,,,,,,,,102,0,102,0,,,,,,,,,,,,,,,,,,,,,,,,,,,,,,,,,,,,,,,,,,,,,,,,,,,,,1392.9110057996586,None,,,,,,,,,,,,,,,,,,,,,,,,,,,,,,,,,,,cost,7,103,sing,white,1390.9000094998628,None,None,1390.9000094998628,None,,,,,,,,,,,,,,,,,,,,,,,,,,,,,,75YC,001,2023_May_05_1121,ExactRep-v3-final,2021.2.3,59.93820381349433,
,,,,,,,,103,0,103,0,,,,,,,,,,,,,,,,,,,,,,,,,,,,,,,,,,,,,,,,,,,,,,,,,,,,,1395.4134281994775,None,,,,,,,,,,,,,,,,,,,,,,,,,,,,,,,,,,,metal,91,104,aloud,blue,1393.4114276999608,None,None,1393.4114276999608,None,,,,,,,,,,,,,,,,,,,,,,,,,,,,,,75YC,001,2023_May_05_1121,ExactRep-v3-final,2021.2.3,59.93820381349433,
,,,,,,,,104,0,104,0,,,,,,,,,,,,,,,,,,,,,,,,,,,,,,,,,,,,,,,,,,,,,,,,,,,,,1397.916093699634,None,,,,,,,,,,,,,,,,,,,,,,,,,,,,,,,,,,,grief,13,105,sing,white,1395.914388999343,None,None,1395.914388999343,None,,,,,,,,,,,,,,,,,,,,,,,,,,,,,,75YC,001,2023_May_05_1121,ExactRep-v3-final,2021.2.3,59.93820381349433,
,,,,,,,,105,0,105,0,,,,,,,,,,,,,,,,,,,,,,,,,,,,,,,,,,,,,,,,,,,,,,,,,,,,,1400.4185247998685,None,,,,,,,,,,,,,,,,,,,,,,,,,,,,,,,,,,,vision,15,106,sing,white,1398.4195837993175,None,None,1398.4195837993175,None,,,,,,,,,,,,,,,,,,,,,,,,,,,,,,75YC,001,2023_May_05_1121,ExactRep-v3-final,2021.2.3,59.93820381349433,
,,,,,,,,106,0,106,0,,,,,,,,,,,,,,,,,,,,,,,,,,,,,,,,,,,,,,,,,,,,,,,,,,,,,1402.9209218993783,None,,,,,,,,,,,,,,,,,,,,,,,,,,,,,,,,,,,lake,116,107,aloud,blue,1400.9214021991938,None,None,1400.9214021991938,None,,,,,,,,,,,,,,,,,,,,,,,,,,,,,,75YC,001,2023_May_05_1121,ExactRep-v3-final,2021.2.3,59.93820381349433,
,,,,,,,,107,0,107,0,,,,,,,,,,,,,,,,,,,,,,,,,,,,,,,,,,,,,,,,,,,,,,,,,,,,,1405.4233063999563,None,,,,,,,,,,,,,,,,,,,,,,,,,,,,,,,,,,,arm,72,108,silent,red,1403.4214254999533,None,None,1403.4214254999533,None,,,,,,,,,,,,,,,,,,,,,,,,,,,,,,75YC,001,2023_May_05_1121,ExactRep-v3-final,2021.2.3,59.93820381349433,
,,,,,,,,108,0,108,0,,,,,,,,,,,,,,,,,,,,,,,,,,,,,,,,,,,,,,,,,,,,,,,,,,,,,1407.942680399865,None,,,,,,,,,,,,,,,,,,,,,,,,,,,,,,,,,,,pipe,94,109,aloud,blue,1405.9297046996653,None,None,1405.9297046996653,None,,,,,,,,,,,,,,,,,,,,,,,,,,,,,,75YC,001,2023_May_05_1121,ExactRep-v3-final,2021.2.3,59.93820381349433,
,,,,,,,,109,0,109,0,,,,,,,,,,,,,,,,,,,,,,,,,,,,,,,,,,,,,,,,,,,,,,,,,,,,,1410.4616765994579,None,,,,,,,,,,,,,,,,,,,,,,,,,,,,,,,,,,,lad,28,110,sing,white,1408.44900389947,None,None,1408.44900389947,None,,,,,,,,,,,,,,,,,,,,,,,,,,,,,,75YC,001,2023_May_05_1121,ExactRep-v3-final,2021.2.3,59.93820381349433,
,,,,,,,,110,0,110,0,,,,,,,,,,,,,,,,,,,,,,,,,,,,,,,,,,,,,,,,,,,,,,,,,,,,,1412.9643004992977,None,,,,,,,,,,,,,,,,,,,,,,,,,,,,,,,,,,,moral,100,111,aloud,blue,1410.9622083995491,None,None,1410.9622083995491,None,,,,,,,,,,,,,,,,,,,,,,,,,,,,,,75YC,001,2023_May_05_1121,ExactRep-v3-final,2021.2.3,59.93820381349433,
,,,,,,,,111,0,111,0,,,,,,,,,,,,,,,,,,,,,,,,,,,,,,,,,,,,,,,,,,,,,,,,,,,,,1415.4667949993163,None,,,,,,,,,,,,,,,,,,,,,,,,,,,,,,,,,,,mind,74,112,silent,red,1413.4671313995495,None,None,1413.4671313995495,None,,,,,,,,,,,,,,,,,,,,,,,,,,,,,,75YC,001,2023_May_05_1121,ExactRep-v3-final,2021.2.3,59.93820381349433,
,,,,,,,,112,0,112,0,,,,,,,,,,,,,,,,,,,,,,,,,,,,,,,,,,,,,,,,,,,,,,,,,,,,,1417.9858515998349,None,,,,,,,,,,,,,,,,,,,,,,,,,,,,,,,,,,,horse,32,113,sing,white,1415.9768313998356,None,None,1415.9768313998356,None,,,,,,,,,,,,,,,,,,,,,,,,,,,,,,75YC,001,2023_May_05_1121,ExactRep-v3-final,2021.2.3,59.93820381349433,
,,,,,,,,113,0,113,0,,,,,,,,,,,,,,,,,,,,,,,,,,,,,,,,,,,,,,,,,,,,,,,,,,,,,1420.5050018997863,None,,,,,,,,,,,,,,,,,,,,,,,,,,,,,,,,,,,shoes,26,114,sing,white,1418.4898800998926,None,None,1418.4898800998926,None,,,,,,,,,,,,,,,,,,,,,,,,,,,,,,75YC,001,2023_May_05_1121,ExactRep-v3-final,2021.2.3,59.93820381349433,
,,,,,,,,114,0,114,0,,,,,,,,,,,,,,,,,,,,,,,,,,,,,,,,,,,,,,,,,,,,,,,,,,,,,1423.0246000997722,None,,,,,,,,,,,,,,,,,,,,,,,,,,,,,,,,,,,village,11,115,sing,white,1421.0131593998522,None,None,1421.0131593998522,None,,,,,,,,,,,,,,,,,,,,,,,,,,,,,,75YC,001,2023_May_05_1121,ExactRep-v3-final,2021.2.3,59.93820381349433,
,,,,,,,,115,0,115,0,,,,,,,,,,,,,,,,,,,,,,,,,,,,,,,,,,,,,,,,,,,,,,,,,,,,,1425.5268650995567,None,,,,,,,,,,,,,,,,,,,,,,,,,,,,,,,,,,,coffee,41,116,silent,red,1423.525664200075,None,None,1423.525664200075,None,,,,,,,,,,,,,,,,,,,,,,,,,,,,,,75YC,001,2023_May_05_1121,ExactRep-v3-final,2021.2.3,59.93820381349433,
,,,,,,,,116,0,116,0,,,,,,,,,,,,,,,,,,,,,,,,,,,,,,,,,,,,,,,,,,,,,,,,,,,,,1428.0294097997248,None,,,,,,,,,,,,,,,,,,,,,,,,,,,,,,,,,,,rod,5,117,sing,white,1426.0292333997786,None,None,1426.0292333997786,None,,,,,,,,,,,,,,,,,,,,,,,,,,,,,,75YC,001,2023_May_05_1121,ExactRep-v3-final,2021.2.3,59.93820381349433,
,,,,,,,,117,0,117,0,,,,,,,,,,,,,,,,,,,,,,,,,,,,,,,,,,,,,,,,,,,,,,,,,,,,,1430.5320488996804,None,,,,,,,,,,,,,,,,,,,,,,,,,,,,,,,,,,,rock,37,118,sing,white,1428.5318256998435,None,None,1428.5318256998435,None,,,,,,,,,,,,,,,,,,,,,,,,,,,,,,75YC,001,2023_May_05_1121,ExactRep-v3-final,2021.2.3,59.93820381349433,
,,,,,,,,118,0,118,0,,,,,,,,,,,,,,,,,,,,,,,,,,,,,,,,,,,,,,,,,,,,,,,,,,,,,1433.0343813998625,None,,,,,,,,,,,,,,,,,,,,,,,,,,,,,,,,,,,form,57,119,silent,red,1431.033267699182,None,None,1431.033267699182,None,,,,,,,,,,,,,,,,,,,,,,,,,,,,,,75YC,001,2023_May_05_1121,ExactRep-v3-final,2021.2.3,59.93820381349433,
,,,,,,,,119,0,119,0,,,,,,,,,,,,,,,,,,,,,,,,,,,,,,,,,,,,,,,,,,,,,,,,,,,,,1435.536955599673,None,,,,,,,,,,,,,,,,,,,,,,,,,,,,,,,,,,,vessel,115,120,aloud,blue,1433.5368279991671,None,None,1433.5368279991671,None,,,,,,,,,,,,,,,,,,,,,,,,,,,,,,75YC,001,2023_May_05_1121,ExactRep-v3-final,2021.2.3,59.93820381349433,
,,,,,,,,,,,,,,,,,,,,,,,,,,,,,,,,,,,,,,,,,,,,,,,,,,,,,,,,,,,,,,,,,,,,,,,,,,,,,,,,,,,,,,,,,,,,,,,,,,,,,,,,,,,,,,1436.039105899632,None,space,2.6019265996292233,1446.0153471995145,None,,,,,,,,,,,,,,,,,,,,,,,,75YC,001,2023_May_05_1121,ExactRep-v3-final,2021.2.3,59.93820381349433,
,,,,,,,,,,,,,,,,,,,,,,,,,,,,,,,,,,,,,,,,,,,,,,,,,,,,,,,,,,,,,,,,,,,,,,,,,,,,,,,,,,,,,,,,,,,,,,,,,,,,,,,,,,,,,,,,,,,,1448.6348166996613,None,space,32.74992089997977,1458.6114606000483,None,,,,,,,,,,,,,,,,,,75YC,001,2023_May_05_1121,ExactRep-v3-final,2021.2.3,59.93820381349433,
,,,,,,,,,,,,0,0,0,0,,,,,,,,,,,,,,,,,,,,,,,,,,,,,,,,,,,,,,,,,,,,,,,,,1495.9977559996769,None,,,,,,,,,,,,,,,,,,,,,,,,,,,,,,,,,,,,,,,,,,,,,,,,,,,,,,,,,method,30,1,sing,old,white,1491.8877714993432,None,y,1491.8877714993432,None,"['y', 'return']","[2.097538199275732, 4.065394699573517]",1491.8877714993432,None,,,75YC,001,2023_May_05_1121,ExactRep-v3-final,2021.2.3,59.93820381349433,
,,,,,,,,,,,,1,0,1,0,,,,,,,,,,,,,,,,,,,,,,,,,,,,,,,,,,,,,,,,,,,,,,,,,1502.0700548999012,None,,,,,,,,,,,,,,,,,,,,,,,,,,,,,,,,,,,,,,,,,,,,,,,,,,,,,,,,,victory,52,2,silent,old,red,1496.5082594994456,None,y,1496.5082594994456,None,"['y', 'return']","[5.004986800253391, 5.516936800442636]",1496.5082594994456,None,,,75YC,001,2023_May_05_1121,ExactRep-v3-final,2021.2.3,59.93820381349433,
,,,,,,,,,,,,2,0,2,0,,,,,,,,,,,,,,,,,,,,,,,,,,,,,,,,,,,,,,,,,,,,,,,,,1504.4223048994318,None,,,,,,,,,,,,,,,,,,,,,,,,,,,,,,,,,,,,,,,,,,,,,,,,,,,,,,,,,money,134,3,silent,new,red,1502.5766396997496,None,n,1502.5766396997496,None,"['n', 'return']","[1.3766628000885248, 1.8005681997165084]",1502.5766396997496,None,,,75YC,001,2023_May_05_1121,ExactRep-v3-final,2021.2.3,59.93820381349433,
,,,,,,,,,,,,3,0,3,0,,,,,,,,,,,,,,,,,,,,,,,,,,,,,,,,,,,,,,,,,,,,,,,,,1506.908062399365,None,,,,,,,,,,,,,,,,,,,,,,,,,,,,,,,,,,,,,,,,,,,,,,,,,,,,,,,,,insect,164,4,aloud,new,blue,1504.9371197000146,None,n,1504.9371197000146,None,"['n', 'return']","[1.5840621003881097, 1.928100200369954]",1504.9371197000146,None,,,75YC,001,2023_May_05_1121,ExactRep-v3-final,2021.2.3,59.93820381349433,
,,,,,,,,,,,,4,0,4,0,,,,,,,,,,,,,,,,,,,,,,,,,,,,,,,,,,,,,,,,,,,,,,,,,1509.6276154993102,None,,,,,,,,,,,,,,,,,,,,,,,,,,,,,,,,,,,,,,,,,,,,,,,,,,,,,,,,,boy,192,5,aloud,new,blue,1507.4184846999124,None,n,1507.4184846999124,None,"['n', 'return']","[1.9188765995204449, 2.1666906997561455]",1507.4184846999124,None,,,75YC,001,2023_May_05_1121,ExactRep-v3-final,2021.2.3,59.93820381349433,
,,,,,,,,,,,,5,0,5,0,,,,,,,,,,,,,,,,,,,,,,,,,,,,,,,,,,,,,,,,,,,,,,,,,1512.0967187993228,None,,,,,,,,,,,,,,,,,,,,,,,,,,,,,,,,,,,,,,,,,,,,,,,,,,,,,,,,,friend,38,6,sing,old,white,1510.1360112000257,None,y,1510.1360112000257,None,"['y', 'return']","[1.6090973000973463, 1.9131241999566555]",1510.1360112000257,None,,,75YC,001,2023_May_05_1121,ExactRep-v3-final,2021.2.3,59.93820381349433,
,,,,,,,,,,,,6,0,6,0,,,,,,,,,,,,,,,,,,,,,,,,,,,,,,,,,,,,,,,,,,,,,,,,,1518.4696161998436,None,,,,,,,,,,,,,,,,,,,,,,,,,,,,,,,,,,,,,,,,,,,,,,,,,,,,,,,,,palace,221,7,sing,new,white,1512.6073671998456,None,n,1512.6073671998456,None,"['n', 'return']","[5.5621987003833055, 5.825883099809289]",1512.6073671998456,None,,,75YC,001,2023_May_05_1121,ExactRep-v3-final,2021.2.3,59.93820381349433,
,,,,,,,,,,,,7,0,7,0,,,,,,,,,,,,,,,,,,,,,,,,,,,,,,,,,,,,,,,,,,,,,,,,,1521.9733323995024,None,,,,,,,,,,,,,,,,,,,,,,,,,,,,,,,,,,,,,,,,,,,,,,,,,,,,,,,,,iron,113,8,aloud,old,blue,1518.9789714999497,None,y,1518.9789714999497,None,"['y', 'return']","[2.5824023000895977, 2.95824300032109]",1518.9789714999497,None,,,75YC,001,2023_May_05_1121,ExactRep-v3-final,2021.2.3,59.93820381349433,
,,,,,,,,,,,,8,0,8,0,,,,,,,,,,,,,,,,,,,,,,,,,,,,,,,,,,,,,,,,,,,,,,,,,1525.8770122993737,None,,,,,,,,,,,,,,,,,,,,,,,,,,,,,,,,,,,,,,,,,,,,,,,,,,,,,,,,,coast,135,9,silent,new,red,1522.4856048999354,None,n,1522.4856048999354,None,"['n', 'return']","[3.0597853995859623, 3.3556624995544553]",1522.4856048999354,None,,,75YC,001,2023_May_05_1121,ExactRep-v3-final,2021.2.3,59.93820381349433,
,,,,,,,,,,,,9,0,9,0,,,,,,,,,,,,,,,,,,,,,,,,,,,,,,,,,,,,,,,,,,,,,,,,,1529.6975972997025,None,,,,,,,,,,,,,,,,,,,,,,,,,,,,,,,,,,,,,,,,,,,,,,,,,,,,,,,,,world,196,10,aloud,new,blue,1526.3869465999305,None,n,1526.3869465999305,None,"['n', 'return']","[3.0063140001147985, 3.270287699997425]",1526.3869465999305,None,,,75YC,001,2023_May_05_1121,ExactRep-v3-final,2021.2.3,59.93820381349433,
,,,,,,,,,,,,10,0,10,0,,,,,,,,,,,,,,,,,,,,,,,,,,,,,,,,,,,,,,,,,,,,,,,,,1531.8508588997647,None,,,,,,,,,,,,,,,,,,,,,,,,,,,,,,,,,,,,,,,,,,,,,,,,,,,,,,,,,college,33,11,sing,old,white,1530.2053609993309,None,y,1530.2053609993309,None,"['y', 'return']","[1.3240786008536816, 1.6039514001458883]",1530.2053609993309,None,,,75YC,001,2023_May_05_1121,ExactRep-v3-final,2021.2.3,59.93820381349433,
,,,,,,,,,,,,11,0,11,0,,,,,,,,,,,,,,,,,,,,,,,,,,,,,,,,,,,,,,,,,,,,,,,,,1534.8527083992958,None,,,,,,,,,,,,,,,,,,,,,,,,,,,,,,,,,,,,,,,,,,,,,,,,,,,,,,,,,library,58,12,silent,old,red,1532.3513016998768,None,y,1532.3513016998768,None,"['y', 'return']","[2.170080899260938, 2.45787169970572]",1532.3513016998768,None,,,75YC,001,2023_May_05_1121,ExactRep-v3-final,2021.2.3,59.93820381349433,
,,,,,,,,,,,,12,0,12,0,,,,,,,,,,,,,,,,,,,,,,,,,,,,,,,,,,,,,,,,,,,,,,,,,1538.2060284996405,None,,,,,,,,,,,,,,,,,,,,,,,,,,,,,,,,,,,,,,,,,,,,,,,,,,,,,,,,,machine,166,13,aloud,new,blue,1535.361713799648,None,n,1535.361713799648,None,"['n', 'return']","[2.535671300254762, 2.807538299821317]",1535.361713799648,None,,,75YC,001,2023_May_05_1121,ExactRep-v3-final,2021.2.3,59.93820381349433,
,,,,,,,,,,,,13,0,13,0,,,,,,,,,,,,,,,,,,,,,,,,,,,,,,,,,,,,,,,,,,,,,,,,,1541.1756536997855,None,,,,,,,,,,,,,,,,,,,,,,,,,,,,,,,,,,,,,,,,,,,,,,,,,,,,,,,,,green,194,14,aloud,new,blue,1538.7172544999048,None,n,1538.7172544999048,None,"['n', 'return']","[2.1800468992441893, 2.4200221998617053]",1538.7172544999048,None,,,75YC,001,2023_May_05_1121,ExactRep-v3-final,2021.2.3,59.93820381349433,
,,,,,,,,,,,,14,0,14,0,,,,,,,,,,,,,,,,,,,,,,,,,,,,,,,,,,,,,,,,,,,,,,,,,1544.0618789000437,None,,,,,,,,,,,,,,,,,,,,,,,,,,,,,,,,,,,,,,,,,,,,,,,,,,,,,,,,,pole,187,15,sing,new,white,1541.6792897991836,None,n,1541.6792897991836,None,"['n', 'return']","[2.105811000801623, 2.337916400283575]",1541.6792897991836,None,,,75YC,001,2023_May_05_1121,ExactRep-v3-final,2021.2.3,59.93820381349433,
,,,,,,,,,,,,15,0,15,0,,,,,,,,,,,,,,,,,,,,,,,,,,,,,,,,,,,,,,,,,,,,,,,,,1546.0828567994758,None,,,,,,,,,,,,,,,,,,,,,,,,,,,,,,,,,,,,,,,,,,,,,,,,,,,,,,,,,apple,20,16,sing,old,white,1544.5724554993212,None,y,1544.5724554993212,None,"['y', 'return']","[1.2288678996264935, 1.468791300430894]",1544.5724554993212,None,,,75YC,001,2023_May_05_1121,ExactRep-v3-final,2021.2.3,59.93820381349433,
,,,,,,,,,,,,16,0,16,0,,,,,,,,,,,,,,,,,,,,,,,,,,,,,,,,,,,,,,,,,,,,,,,,,1549.4006317993626,None,,,,,,,,,,,,,,,,,,,,,,,,,,,,,,,,,,,,,,,,,,,,,,,,,,,,,,,,,custom,145,17,silent,new,red,1546.6040578000247,None,n,1546.6040578000247,None,"['n', 'return']","[2.509414500556886, 2.7492049001157284]",1546.6040578000247,None,,,75YC,001,2023_May_05_1121,ExactRep-v3-final,2021.2.3,59.93820381349433,
,,,,,,,,,,,,17,0,17,0,,,,,,,,,,,,,,,,,,,,,,,,,,,,,,,,,,,,,,,,,,,,,,,,,1551.3858892992139,None,,,,,,,,,,,,,,,,,,,,,,,,,,,,,,,,,,,,,,,,,,,,,,,,,,,,,,,,,avenue,76,18,silent,old,red,1549.9079957995564,None,y,1549.9079957995564,None,"['y', 'return']","[1.2212127996608615, 1.4451576992869377]",1549.9079957995564,None,,,75YC,001,2023_May_05_1121,ExactRep-v3-final,2021.2.3,59.93820381349433,
,,,,,,,,,,,,18,0,18,0,,,,,,,,,,,,,,,,,,,,,,,,,,,,,,,,,,,,,,,,,,,,,,,,,1553.3544975994155,None,,,,,,,,,,,,,,,,,,,,,,,,,,,,,,,,,,,,,,,,,,,,,,,,,,,,,,,,,fate,112,19,aloud,old,blue,1551.89392639976,None,y,1551.89392639976,None,"['y', 'return']","[1.1396934995427728, 1.4193219002336264]",1551.89392639976,None,,,75YC,001,2023_May_05_1121,ExactRep-v3-final,2021.2.3,59.93820381349433,
,,,,,,,,,,,,19,0,19,0,,,,,,,,,,,,,,,,,,,,,,,,,,,,,,,,,,,,,,,,,,,,,,,,,1556.2240416994318,None,,,,,,,,,,,,,,,,,,,,,,,,,,,,,,,,,,,,,,,,,,,,,,,,,,,,,,,,,doctor,81,20,aloud,old,blue,1553.864266499877,None,y,1553.864266499877,None,"['y', 'return']","[2.0649266997352242, 2.3129927003756166]",1553.864266499877,None,,,75YC,001,2023_May_05_1121,ExactRep-v3-final,2021.2.3,59.93820381349433,
,,,,,,,,,,,,20,0,20,0,,,,,,,,,,,,,,,,,,,,,,,,,,,,,,,,,,,,,,,,,,,,,,,,,1558.5763815995306,None,,,,,,,,,,,,,,,,,,,,,,,,,,,,,,,,,,,,,,,,,,,,,,,,,,,,,,,,,chair,18,21,sing,old,white,1556.7268769992515,None,y,1556.7268769992515,None,"['y', 'return']","[1.4905243003740907, 1.802377300336957]",1556.7268769992515,None,,,75YC,001,2023_May_05_1121,ExactRep-v3-final,2021.2.3,59.93820381349433,
,,,,,,,,,,,,21,0,21,0,,,,,,,,,,,,,,,,,,,,,,,,,,,,,,,,,,,,,,,,,,,,,,,,,1561.1290641995147,None,,,,,,,,,,,,,,,,,,,,,,,,,,,,,,,,,,,,,,,,,,,,,,,,,,,,,,,,,corn,239,22,sing,new,white,1559.082389999181,None,n,1559.082389999181,None,"['n', 'return']","[1.766821900382638, 2.0069368006661534]",1559.082389999181,None,,,75YC,001,2023_May_05_1121,ExactRep-v3-final,2021.2.3,59.93820381349433,
,,,,,,,,,,,,22,0,22,0,,,,,,,,,,,,,,,,,,,,,,,,,,,,,,,,,,,,,,,,,,,,,,,,,1563.3478317996487,None,,,,,,,,,,,,,,,,,,,,,,,,,,,,,,,,,,,,,,,,,,,,,,,,,,,,,,,,,history,141,23,silent,new,red,1561.6329038999975,None,y,1561.6329038999975,None,"['y', 'return']","[1.3925413005053997, 1.672443000599742]",1561.6329038999975,None,,,75YC,001,2023_May_05_1121,ExactRep-v3-final,2021.2.3,59.93820381349433,
,,,,,,,,,,,,23,0,23,0,,,,,,,,,,,,,,,,,,,,,,,,,,,,,,,,,,,,,,,,,,,,,,,,,1565.950439799577,None,,,,,,,,,,,,,,,,,,,,,,,,,,,,,,,,,,,,,,,,,,,,,,,,,,,,,,,,,slave,233,24,sing,new,white,1563.8574047992006,None,n,1563.8574047992006,None,"['n', 'return']","[1.7757919002324343, 2.0559610994532704]",1563.8574047992006,None,,,75YC,001,2023_May_05_1121,ExactRep-v3-final,2021.2.3,59.93820381349433,
,,,,,,,,,,,,24,0,24,0,,,,,,,,,,,,,,,,,,,,,,,,,,,,,,,,,,,,,,,,,,,,,,,,,1567.7689943993464,None,,,,,,,,,,,,,,,,,,,,,,,,,,,,,,,,,,,,,,,,,,,,,,,,,,,,,,,,,cost,7,25,sing,old,white,1566.4690735992044,None,y,1566.4690735992044,None,"['y', 'return']","[0.9644637005403638, 1.2523493003100157]",1566.4690735992044,None,,,75YC,001,2023_May_05_1121,ExactRep-v3-final,2021.2.3,59.93820381349433,
,,,,,,,,,,,,25,0,25,0,,,,,,,,,,,,,,,,,,,,,,,,,,,,,,,,,,,,,,,,,,,,,,,,,1569.604290199466,None,,,,,,,,,,,,,,,,,,,,,,,,,,,,,,,,,,,,,,,,,,,,,,,,,,,,,,,,,dollar,24,26,sing,old,white,1568.2797804996371,None,y,1568.2797804996371,None,"['y', 'return']","[1.0173559002578259, 1.2893799999728799]",1568.2797804996371,None,,,75YC,001,2023_May_05_1121,ExactRep-v3-final,2021.2.3,59.93820381349433,
,,,,,,,,,,,,26,0,26,0,,,,,,,,,,,,,,,,,,,,,,,,,,,,,,,,,,,,,,,,,,,,,,,,,1574.77592859976,None,,,,,,,,,,,,,,,,,,,,,,,,,,,,,,,,,,,,,,,,,,,,,,,,,,,,,,,,,grass,90,27,aloud,old,blue,1570.114089699462,None,n,1570.114089699462,None,"['n', 'return']","[4.423251799307764, 4.623192699626088]",1570.114089699462,None,,,75YC,001,2023_May_05_1121,ExactRep-v3-final,2021.2.3,59.93820381349433,
,,,,,,,,,,,,27,0,27,0,,,,,,,,,,,,,,,,,,,,,,,,,,,,,,,,,,,,,,,,,,,,,,,,,1578.1126021994278,None,,,,,,,,,,,,,,,,,,,,,,,,,,,,,,,,,,,,,,,,,,,,,,,,,,,,,,,,,heaven,165,28,sing,new,white,1575.2860133992508,None,n,1575.2860133992508,None,"['n', 'return']","[2.5712801003828645, 2.779251300729811]",1575.2860133992508,None,,,75YC,001,2023_May_05_1121,ExactRep-v3-final,2021.2.3,59.93820381349433,
,,,,,,,,,,,,28,0,28,0,,,,,,,,,,,,,,,,,,,,,,,,,,,,,,,,,,,,,,,,,,,,,,,,,1580.2315079998225,None,,,,,,,,,,,,,,,,,,,,,,,,,,,,,,,,,,,,,,,,,,,,,,,,,,,,,,,,,fun,161,29,sing,new,white,1578.6195851992816,None,n,1578.6195851992816,None,"['n', 'return']","[1.2936885999515653, 1.5656920997425914]",1578.6195851992816,None,,,75YC,001,2023_May_05_1121,ExactRep-v3-final,2021.2.3,59.93820381349433,
,,,,,,,,,,,,29,0,29,0,,,,,,,,,,,,,,,,,,,,,,,,,,,,,,,,,,,,,,,,,,,,,,,,,1582.83420799952,None,,,,,,,,,,,,,,,,,,,,,,,,,,,,,,,,,,,,,,,,,,,,,,,,,,,,,,,,,fire,223,30,sing,new,white,1580.73333489988,None,n,1580.73333489988,None,"['n', 'return']","[1.8442032998427749, 2.059855899773538]",1580.73333489988,None,,,75YC,001,2023_May_05_1121,ExactRep-v3-final,2021.2.3,59.93820381349433,
,,,,,,,,,,,,30,0,30,0,,,,,,,,,,,,,,,,,,,,,,,,,,,,,,,,,,,,,,,,,,,,,,,,,1585.603466199711,None,,,,,,,,,,,,,,,,,,,,,,,,,,,,,,,,,,,,,,,,,,,,,,,,,,,,,,,,,child,14,31,sing,old,white,1583.3428171994165,None,y,1583.3428171994165,None,"['y', 'return']","[1.9784638993442059, 2.2264307998120785]",1583.3428171994165,None,,,75YC,001,2023_May_05_1121,ExactRep-v3-final,2021.2.3,59.93820381349433,
,,,,,,,,,,,,31,0,31,0,,,,,,,,,,,,,,,,,,,,,,,,,,,,,,,,,,,,,,,,,,,,,,,,,1587.8723906995729,None,,,,,,,,,,,,,,,,,,,,,,,,,,,,,,,,,,,,,,,,,,,,,,,,,,,,,,,,,speech,197,32,sing,new,white,1586.117256399244,None,n,1586.117256399244,None,"['n', 'return']","[1.4281206000596285, 1.7080359999090433]",1586.117256399244,None,,,75YC,001,2023_May_05_1121,ExactRep-v3-final,2021.2.3,59.93820381349433,
,,,,,,,,,,,,32,0,32,0,,,,,,,,,,,,,,,,,,,,,,,,,,,,,,,,,,,,,,,,,,,,,,,,,1590.8419928997755,None,,,,,,,,,,,,,,,,,,,,,,,,,,,,,,,,,,,,,,,,,,,,,,,,,,,,,,,,,window,202,33,aloud,new,blue,1588.3789693992585,None,n,1588.3789693992585,None,"['n', 'return']","[2.1822648998349905, 2.4223332004621625]",1588.3789693992585,None,,,75YC,001,2023_May_05_1121,ExactRep-v3-final,2021.2.3,59.93820381349433,
,,,,,,,,,,,,33,0,33,0,,,,,,,,,,,,,,,,,,,,,,,,,,,,,,,,,,,,,,,,,,,,,,,,,1593.5447151996195,None,,,,,,,,,,,,,,,,,,,,,,,,,,,,,,,,,,,,,,,,,,,,,,,,,,,,,,,,,product,143,34,silent,new,red,1591.3554706992581,None,n,1591.3554706992581,None,"['n', 'return']","[1.9259242992848158, 2.149803299456835]",1591.3554706992581,None,,,75YC,001,2023_May_05_1121,ExactRep-v3-final,2021.2.3,59.93820381349433,
,,,,,,,,,,,,34,0,34,0,,,,,,,,,,,,,,,,,,,,,,,,,,,,,,,,,,,,,,,,,,,,,,,,,1595.479992799461,None,,,,,,,,,,,,,,,,,,,,,,,,,,,,,,,,,,,,,,,,,,,,,,,,,,,,,,,,,pipe,94,35,aloud,old,blue,1594.0548069998622,None,y,1594.0548069998622,None,"['y', 'return']","[1.1228951998054981, 1.3785571996122599]",1594.0548069998622,None,,,75YC,001,2023_May_05_1121,ExactRep-v3-final,2021.2.3,59.93820381349433,
,,,,,,,,,,,,35,0,35,0,,,,,,,,,,,,,,,,,,,,,,,,,,,,,,,,,,,,,,,,,,,,,,,,,1599.2337164999917,None,,,,,,,,,,,,,,,,,,,,,,,,,,,,,,,,,,,,,,,,,,,,,,,,,,,,,,,,,event,131,36,silent,new,red,1595.9882486993447,None,n,1595.9882486993447,None,"['n', 'return']","[3.013031800277531, 3.2051446000114083]",1595.9882486993447,None,,,75YC,001,2023_May_05_1121,ExactRep-v3-final,2021.2.3,59.93820381349433,
,,,,,,,,,,,,36,0,36,0,,,,,,,,,,,,,,,,,,,,,,,,,,,,,,,,,,,,,,,,,,,,,,,,,1601.1190756000578,None,,,,,,,,,,,,,,,,,,,,,,,,,,,,,,,,,,,,,,,,,,,,,,,,,,,,,,,,,coffee,41,37,silent,old,red,1599.734279599972,None,y,1599.734279599972,None,"['y', 'return']","[1.0990714998915792, 1.3469759998843074]",1599.734279599972,None,,,75YC,001,2023_May_05_1121,ExactRep-v3-final,2021.2.3,59.93820381349433,
,,,,,,,,,,,,37,0,37,0,,,,,,,,,,,,,,,,,,,,,,,,,,,,,,,,,,,,,,,,,,,,,,,,,1603.2377891996875,None,,,,,,,,,,,,,,,,,,,,,,,,,,,,,,,,,,,,,,,,,,,,,,,,,,,,,,,,,woods,180,38,aloud,new,blue,1601.6287561999634,None,n,1601.6287561999634,None,"['n', 'return']","[1.3166385004296899, 1.5645077005028725]",1601.6287561999634,None,,,75YC,001,2023_May_05_1121,ExactRep-v3-final,2021.2.3,59.93820381349433,
,,,,,,,,,,,,38,0,38,0,,,,,,,,,,,,,,,,,,,,,,,,,,,,,,,,,,,,,,,,,,,,,,,,,1611.6795003991574,None,,,,,,,,,,,,,,,,,,,,,,,,,,,,,,,,,,,,,,,,,,,,,,,,,,,,,,,,,prison,169,39,sing,new,white,1603.751527399756,None,y,1603.751527399756,None,"['n', 'backspace', 'y', 'return']","[6.025709699839354, 7.121790500357747, 7.6337339002639055, 7.889697900041938]",1603.751527399756,None,,,75YC,001,2023_May_05_1121,ExactRep-v3-final,2021.2.3,59.93820381349433,
,,,,,,,,,,,,39,0,39,0,,,,,,,,,,,,,,,,,,,,,,,,,,,,,,,,,,,,,,,,,,,,,,,,,1614.065398399718,None,,,,,,,,,,,,,,,,,,,,,,,,,,,,,,,,,,,,,,,,,,,,,,,,,,,,,,,,,star,69,40,silent,old,red,1612.1883826991543,None,n,1612.1883826991543,None,"['n', 'return']","[1.5888833003118634, 1.8290059994906187]",1612.1883826991543,None,,,75YC,001,2023_May_05_1121,ExactRep-v3-final,2021.2.3,59.93820381349433,
,,,,,,,,,,,,40,0,40,0,,,,,,,,,,,,,,,,,,,,,,,,,,,,,,,,,,,,,,,,,,,,,,,,,1616.40102260001,None,,,,,,,,,,,,,,,,,,,,,,,,,,,,,,,,,,,,,,,,,,,,,,,,,,,,,,,,,fact,227,41,sing,new,white,1614.573889799416,None,n,1614.573889799416,None,"['n', 'return']","[1.555413800291717, 1.7953942008316517]",1614.573889799416,None,,,75YC,001,2023_May_05_1121,ExactRep-v3-final,2021.2.3,59.93820381349433,
,,,,,,,,,,,,41,0,41,0,,,,,,,,,,,,,,,,,,,,,,,,,,,,,,,,,,,,,,,,,,,,,,,,,1619.1703185997903,None,,,,,,,,,,,,,,,,,,,,,,,,,,,,,,,,,,,,,,,,,,,,,,,,,,,,,,,,,king,160,42,aloud,new,blue,1616.9125437000766,None,n,1616.9125437000766,None,"['n', 'return']","[1.9687022995203733, 2.2247959999367595]",1616.9125437000766,None,,,75YC,001,2023_May_05_1121,ExactRep-v3-final,2021.2.3,59.93820381349433,
,,,,,,,,,,,,42,0,42,0,,,,,,,,,,,,,,,,,,,,,,,,,,,,,,,,,,,,,,,,,,,,,,,,,1621.205859599635,None,,,,,,,,,,,,,,,,,,,,,,,,,,,,,,,,,,,,,,,,,,,,,,,,,,,,,,,,,cabin,34,43,sing,old,white,1619.6868080999702,None,y,1619.6868080999702,None,"['y', 'return']","[1.2185260998085141, 1.4744769996032119]",1619.6868080999702,None,,,75YC,001,2023_May_05_1121,ExactRep-v3-final,2021.2.3,59.93820381349433,
,,,,,,,,,,,,43,0,43,0,,,,,,,,,,,,,,,,,,,,,,,,,,,,,,,,,,,,,,,,,,,,,,,,,1623.9751477995887,None,,,,,,,,,,,,,,,,,,,,,,,,,,,,,,,,,,,,,,,,,,,,,,,,,,,,,,,,,present,201,44,sing,new,white,1621.7155198995024,None,y,1621.7155198995024,None,"['y', 'return']","[1.9739065999165177, 2.221789000555873]",1621.7155198995024,None,,,75YC,001,2023_May_05_1121,ExactRep-v3-final,2021.2.3,59.93820381349433,
,,,,,,,,,,,,44,0,44,0,,,,,,,,,,,,,,,,,,,,,,,,,,,,,,,,,,,,,,,,,,,,,,,,,1625.9937968999147,None,,,,,,,,,,,,,,,,,,,,,,,,,,,,,,,,,,,,,,,,,,,,,,,,,,,,,,,,,law,217,45,sing,new,white,1624.4853008994833,None,n,1624.4853008994833,None,"['n', 'return']","[1.164062600582838, 1.4680329002439976]",1624.4853008994833,None,,,75YC,001,2023_May_05_1121,ExactRep-v3-final,2021.2.3,59.93820381349433,
,,,,,,,,,,,,45,0,45,0,,,,,,,,,,,,,,,,,,,,,,,,,,,,,,,,,,,,,,,,,,,,,,,,,1628.4130592998117,None,,,,,,,,,,,,,,,,,,,,,,,,,,,,,,,,,,,,,,,,,,,,,,,,,,,,,,,,,water,189,46,sing,new,white,1626.4982491992414,None,n,1626.4982491992414,None,"['n', 'return']","[1.6711229998618364, 1.8710024999454618]",1626.4982491992414,None,,,75YC,001,2023_May_05_1121,ExactRep-v3-final,2021.2.3,59.93820381349433,
,,,,,,,,,,,,46,0,46,0,,,,,,,,,,,,,,,,,,,,,,,,,,,,,,,,,,,,,,,,,,,,,,,,,1630.5817849999294,None,,,,,,,,,,,,,,,,,,,,,,,,,,,,,,,,,,,,,,,,,,,,,,,,,,,,,,,,,house,77,47,silent,old,red,1628.9198342999443,None,y,1628.9198342999443,None,"['y', 'return']","[1.3855972001329064, 1.6254781996831298]",1628.9198342999443,None,,,75YC,001,2023_May_05_1121,ExactRep-v3-final,2021.2.3,59.93820381349433,
,,,,,,,,,,,,47,0,47,0,,,,,,,,,,,,,,,,,,,,,,,,,,,,,,,,,,,,,,,,,,,,,,,,,1632.9342109998688,None,,,,,,,,,,,,,,,,,,,,,,,,,,,,,,,,,,,,,,,,,,,,,,,,,,,,,,,,,cash,122,48,silent,new,red,1631.0938510000706,None,y,1631.0938510000706,None,"['y', 'return']","[1.5715912003070116, 1.8035029005259275]",1631.0938510000706,None,,,75YC,001,2023_May_05_1121,ExactRep-v3-final,2021.2.3,59.93820381349433,
,,,,,,,,,,,,48,0,48,0,,,,,,,,,,,,,,,,,,,,,,,,,,,,,,,,,,,,,,,,,,,,,,,,,1637.7890208000317,None,,,,,,,,,,,,,,,,,,,,,,,,,,,,,,,,,,,,,,,,,,,,,,,,,,,,,,,,,storm,6,49,sing,old,white,1633.468341499567,None,y,1633.468341499567,None,"['n', 'backspace', 'y', 'return']","[2.132827900350094, 3.101007900200784, 4.020864199846983, 4.2849573995918036]",1633.468341499567,None,,,75YC,001,2023_May_05_1121,ExactRep-v3-final,2021.2.3,59.93820381349433,
,,,,,,,,,,,,49,0,49,0,,,,,,,,,,,,,,,,,,,,,,,,,,,,,,,,,,,,,,,,,,,,,,,,,1640.5752644995227,None,,,,,,,,,,,,,,,,,,,,,,,,,,,,,,,,,,,,,,,,,,,,,,,,,,,,,,,,,salary,63,50,silent,old,red,1638.3008896997198,None,n,1638.3008896997198,None,"['n', 'return']","[2.0206261994317174, 2.228552299551666]",1638.3008896997198,None,,,75YC,001,2023_May_05_1121,ExactRep-v3-final,2021.2.3,59.93820381349433,
,,,,,,,,,,,,50,0,50,0,,,,,,,,,,,,,,,,,,,,,,,,,,,,,,,,,,,,,,,,,,,,,,,,,1642.527065999806,None,,,,,,,,,,,,,,,,,,,,,,,,,,,,,,,,,,,,,,,,,,,,,,,,,,,,,,,,,village,11,51,sing,old,white,1641.0850619999692,None,y,1641.0850619999692,None,"['y', 'return']","[1.1324479999020696, 1.4043041002005339]",1641.0850619999692,None,,,75YC,001,2023_May_05_1121,ExactRep-v3-final,2021.2.3,59.93820381349433,
,,,,,,,,,,,,51,0,51,0,,,,,,,,,,,,,,,,,,,,,,,,,,,,,,,,,,,,,,,,,,,,,,,,,1646.4642650997266,None,,,,,,,,,,,,,,,,,,,,,,,,,,,,,,,,,,,,,,,,,,,,,,,,,,,,,,,,,love,87,52,aloud,old,blue,1643.0326139992103,None,y,1643.0326139992103,None,"['y', 'return']","[3.176689799875021, 3.392698099836707]",1643.0326139992103,None,,,75YC,001,2023_May_05_1121,ExactRep-v3-final,2021.2.3,59.93820381349433,
,,,,,,,,,,,,52,0,52,0,,,,,,,,,,,,,,,,,,,,,,,,,,,,,,,,,,,,,,,,,,,,,,,,,1648.8499793997034,None,,,,,,,,,,,,,,,,,,,,,,,,,,,,,,,,,,,,,,,,,,,,,,,,,,,,,,,,,grief,13,53,sing,old,white,1646.9715900998563,None,n,1646.9715900998563,None,"['n', 'return']","[1.6141692996025085, 1.84572839923203]",1646.9715900998563,None,,,75YC,001,2023_May_05_1121,ExactRep-v3-final,2021.2.3,59.93820381349433,
,,,,,,,,,,,,53,0,53,0,,,,,,,,,,,,,,,,,,,,,,,,,,,,,,,,,,,,,,,,,,,,,,,,,1656.858082599938,None,,,,,,,,,,,,,,,,,,,,,,,,,,,,,,,,,,,,,,,,,,,,,,,,,,,,,,,,,cat,59,54,silent,old,red,1649.358957999386,None,y,1649.358957999386,None,"['y', 'return']","[7.2743647005409, 7.466301499865949]",1649.358957999386,None,,,75YC,001,2023_May_05_1121,ExactRep-v3-final,2021.2.3,59.93820381349433,
,,,,,,,,,,,,54,0,54,0,,,,,,,,,,,,,,,,,,,,,,,,,,,,,,,,,,,,,,,,,,,,,,,,,1660.8286932995543,None,,,,,,,,,,,,,,,,,,,,,,,,,,,,,,,,,,,,,,,,,,,,,,,,,,,,,,,,,garden,96,55,aloud,old,blue,1657.3680046992376,None,y,1657.3680046992376,None,"['y', 'return']","[3.2413296001031995, 3.4174097003415227]",1657.3680046992376,None,,,75YC,001,2023_May_05_1121,ExactRep-v3-final,2021.2.3,59.93820381349433,
,,,,,,,,,,,,55,0,55,0,,,,,,,,,,,,,,,,,,,,,,,,,,,,,,,,,,,,,,,,,,,,,,,,,1662.847362499684,None,,,,,,,,,,,,,,,,,,,,,,,,,,,,,,,,,,,,,,,,,,,,,,,,,,,,,,,,,sea,27,56,sing,old,white,1661.3376275999472,None,y,1661.3376275999472,None,"['y', 'return']","[1.2076650001108646, 1.4637115001678467]",1661.3376275999472,None,,,75YC,001,2023_May_05_1121,ExactRep-v3-final,2021.2.3,59.93820381349433,
,,,,,,,,,,,,56,0,56,0,,,,,,,,,,,,,,,,,,,,,,,,,,,,,,,,,,,,,,,,,,,,,,,,,1664.966113999486,None,,,,,,,,,,,,,,,,,,,,,,,,,,,,,,,,,,,,,,,,,,,,,,,,,,,,,,,,,corner,129,57,silent,new,red,1663.3587161991745,None,y,1663.3587161991745,None,"['y', 'return']","[1.3307119999080896, 1.5706452000886202]",1663.3587161991745,None,,,75YC,001,2023_May_05_1121,ExactRep-v3-final,2021.2.3,59.93820381349433,
,,,,,,,,,,,,57,0,57,0,,,,,,,,,,,,,,,,,,,,,,,,,,,,,,,,,,,,,,,,,,,,,,,,,1667.668819499202,None,,,,,,,,,,,,,,,,,,,,,,,,,,,,,,,,,,,,,,,,,,,,,,,,,,,,,,,,,fur,31,58,sing,old,white,1665.4748479994014,None,y,1665.4748479994014,None,"['y', 'return']","[1.9104946004226804, 2.1504662996158004]",1665.4748479994014,None,,,75YC,001,2023_May_05_1121,ExactRep-v3-final,2021.2.3,59.93820381349433,
,,,,,,,,,,,,58,0,58,0,,,,,,,,,,,,,,,,,,,,,,,,,,,,,,,,,,,,,,,,,,,,,,,,,1670.0547577999532,None,,,,,,,,,,,,,,,,,,,,,,,,,,,,,,,,,,,,,,,,,,,,,,,,,,,,,,,,,charm,75,59,silent,old,red,1668.1789080994204,None,y,1668.1789080994204,None,"['y', 'return']","[1.5824952004477382, 1.838421399705112]",1668.1789080994204,None,,,75YC,001,2023_May_05_1121,ExactRep-v3-final,2021.2.3,59.93820381349433,
,,,,,,,,,,,,59,0,59,0,,,,,,,,,,,,,,,,,,,,,,,,,,,,,,,,,,,,,,,,,,,,,,,,,1672.8240334000438,None,,,,,,,,,,,,,,,,,,,,,,,,,,,,,,,,,,,,,,,,,,,,,,,,,,,,,,,,,forest,88,60,aloud,old,blue,1670.5703171994537,None,y,1670.5703171994537,None,"['y', 'return']","[1.9751060009002686, 2.207045200280845]",1670.5703171994537,None,,,75YC,001,2023_May_05_1121,ExactRep-v3-final,2021.2.3,59.93820381349433,
,,,,,,,,,,,,60,0,60,0,,,,,,,,,,,,,,,,,,,,,,,,,,,,,,,,,,,,,,,,,,,,,,,,,1690.160551299341,None,,,,,,,,,,,,,,,,,,,,,,,,,,,,,,,,,,,,,,,,,,,,,,,,,,,,,,,,,boulder,89,61,aloud,old,blue,1673.3340046992525,None,n,1673.3340046992525,None,"['n', 'return']","[13.891624400392175, 16.78724789991975]",1673.3340046992525,None,,,75YC,001,2023_May_05_1121,ExactRep-v3-final,2021.2.3,59.93820381349433,
,,,,,,,,,,,,61,0,61,0,,,,,,,,,,,,,,,,,,,,,,,,,,,,,,,,,,,,,,,,,,,,,,,,,1695.479964999482,None,,,,,,,,,,,,,,,,,,,,,,,,,,,,,,,,,,,,,,,,,,,,,,,,,,,,,,,,,skin,83,62,aloud,old,blue,1690.6824762998149,None,n,1690.6824762998149,None,"['n', 'return']","[3.711281900294125, 4.750946000218391]",1690.6824762998149,None,,,75YC,001,2023_May_05_1121,ExactRep-v3-final,2021.2.3,59.93820381349433,
,,,,,,,,,,,,62,0,62,0,,,,,,,,,,,,,,,,,,,,,,,,,,,,,,,,,,,,,,,,,,,,,,,,,1698.7834545997903,None,,,,,,,,,,,,,,,,,,,,,,,,,,,,,,,,,,,,,,,,,,,,,,,,,,,,,,,,,virtue,147,63,silent,new,red,1695.9887338997796,None,n,1695.9887338997796,None,"['n', 'return']","[0.9485700000077486, 2.7487281002104282]",1695.9887338997796,None,,,75YC,001,2023_May_05_1121,ExactRep-v3-final,2021.2.3,59.93820381349433,
,,,,,,,,,,,,63,0,63,0,,,,,,,,,,,,,,,,,,,,,,,,,,,,,,,,,,,,,,,,,,,,,,,,,1701.2690685996786,None,,,,,,,,,,,,,,,,,,,,,,,,,,,,,,,,,,,,,,,,,,,,,,,,,,,,,,,,,theory,48,64,silent,old,red,1699.2929253997281,None,y,1699.2929253997281,None,"['y', 'return']","[1.0924068000167608, 1.940492500551045]",1699.2929253997281,None,,,75YC,001,2023_May_05_1121,ExactRep-v3-final,2021.2.3,59.93820381349433,
,,,,,,,,,,,,64,0,64,0,,,,,,,,,,,,,,,,,,,,,,,,,,,,,,,,,,,,,,,,,,,,,,,,,1710.4283410999924,None,,,,,,,,,,,,,,,,,,,,,,,,,,,,,,,,,,,,,,,,,,,,,,,,,,,,,,,,,party,45,65,silent,old,red,1701.777420499362,None,n,1701.777420499362,None,"['n', 'return']","[8.416033999994397, 8.615991099737585]",1701.777420499362,None,,,75YC,001,2023_May_05_1121,ExactRep-v3-final,2021.2.3,59.93820381349433,
,,,,,,,,,,,,65,0,65,0,,,,,,,,,,,,,,,,,,,,,,,,,,,,,,,,,,,,,,,,,,,,,,,,,1712.6638225000352,None,,,,,,,,,,,,,,,,,,,,,,,,,,,,,,,,,,,,,,,,,,,,,,,,,,,,,,,,,breast,84,66,aloud,old,blue,1710.939547199756,None,y,1710.939547199756,None,"['y', 'return']","[1.4618181008845568, 1.6858346005901694]",1710.939547199756,None,,,75YC,001,2023_May_05_1121,ExactRep-v3-final,2021.2.3,59.93820381349433,
,,,,,,,,,,,,66,0,66,0,,,,,,,,,,,,,,,,,,,,,,,,,,,,,,,,,,,,,,,,,,,,,,,,,1715.0995587995276,None,,,,,,,,,,,,,,,,,,,,,,,,,,,,,,,,,,,,,,,,,,,,,,,,,,,,,,,,,steam,177,67,sing,new,white,1713.1700774999335,None,n,1713.1700774999335,None,"['n', 'return']","[1.543360199779272, 1.887322200462222]",1713.1700774999335,None,,,75YC,001,2023_May_05_1121,ExactRep-v3-final,2021.2.3,59.93820381349433,
,,,,,,,,,,,,67,0,67,0,,,,,,,,,,,,,,,,,,,,,,,,,,,,,,,,,,,,,,,,,,,,,,,,,1716.9681635992602,None,,,,,,,,,,,,,,,,,,,,,,,,,,,,,,,,,,,,,,,,,,,,,,,,,,,,,,,,,shore,29,68,sing,old,white,1715.609540199861,None,y,1715.609540199861,None,"['y', 'return']","[1.0878694001585245, 1.3199031995609403]",1715.609540199861,None,,,75YC,001,2023_May_05_1121,ExactRep-v3-final,2021.2.3,59.93820381349433,
,,,,,,,,,,,,68,0,68,0,,,,,,,,,,,,,,,,,,,,,,,,,,,,,,,,,,,,,,,,,,,,,,,,,1725.109585199505,None,,,,,,,,,,,,,,,,,,,,,,,,,,,,,,,,,,,,,,,,,,,,,,,,,,,,,,,,,fault,98,69,aloud,old,blue,1717.4806519998237,None,n,1717.4806519998237,None,"['n', 'return']","[7.400758500210941, 7.5927740996703506]",1717.4806519998237,None,,,75YC,001,2023_May_05_1121,ExactRep-v3-final,2021.2.3,59.93820381349433,
,,,,,,,,,,,,69,0,69,0,,,,,,,,,,,,,,,,,,,,,,,,,,,,,,,,,,,,,,,,,,,,,,,,,1726.9949648994952,None,,,,,,,,,,,,,,,,,,,,,,,,,,,,,,,,,,,,,,,,,,,,,,,,,,,,,,,,,origin,171,70,sing,new,white,1725.6190192997456,None,n,1725.6190192997456,None,"['n', 'return']","[1.1183737004175782, 1.3344110995531082]",1725.6190192997456,None,,,75YC,001,2023_May_05_1121,ExactRep-v3-final,2021.2.3,59.93820381349433,
,,,,,,,,,,,,70,0,70,0,,,,,,,,,,,,,,,,,,,,,,,,,,,,,,,,,,,,,,,,,,,,,,,,,1728.7966090999544,None,,,,,,,,,,,,,,,,,,,,,,,,,,,,,,,,,,,,,,,,,,,,,,,,,,,,,,,,,winter,1,71,sing,old,white,1727.5058646993712,None,y,1727.5058646993712,None,"['y', 'return']","[1.0236561000347137, 1.2475768998265266]",1727.5058646993712,None,,,75YC,001,2023_May_05_1121,ExactRep-v3-final,2021.2.3,59.93820381349433,
,,,,,,,,,,,,71,0,71,0,,,,,,,,,,,,,,,,,,,,,,,,,,,,,,,,,,,,,,,,,,,,,,,,,1730.7653977992013,None,,,,,,,,,,,,,,,,,,,,,,,,,,,,,,,,,,,,,,,,,,,,,,,,,,,,,,,,,excuse,211,72,sing,new,white,1729.3096813000739,None,n,1729.3096813000739,None,"['n', 'return']","[1.2116631995886564, 1.4117278000339866]",1729.3096813000739,None,,,75YC,001,2023_May_05_1121,ExactRep-v3-final,2021.2.3,59.93820381349433,
,,,,,,,,,,,,72,0,72,0,,,,,,,,,,,,,,,,,,,,,,,,,,,,,,,,,,,,,,,,,,,,,,,,,1734.519048199989,None,,,,,,,,,,,,,,,,,,,,,,,,,,,,,,,,,,,,,,,,,,,,,,,,,,,,,,,,,truth,102,73,aloud,old,blue,1731.274953899905,None,n,1731.274953899905,None,"['n', 'return']","[3.030476899817586, 3.2064863992854953]",1731.274953899905,None,,,75YC,001,2023_May_05_1121,ExactRep-v3-final,2021.2.3,59.93820381349433,
,,,,,,,,,,,,73,0,73,0,,,,,,,,,,,,,,,,,,,,,,,,,,,,,,,,,,,,,,,,,,,,,,,,,1738.7565979994833,None,,,,,,,,,,,,,,,,,,,,,,,,,,,,,,,,,,,,,,,,,,,,,,,,,,,,,,,,,air,183,74,sing,new,white,1735.0250509995967,None,y,1735.0250509995967,None,"['y', 'return']","[3.4804031997919083, 3.6964827002957463]",1735.0250509995967,None,,,75YC,001,2023_May_05_1121,ExactRep-v3-final,2021.2.3,59.93820381349433,
,,,,,,,,,,,,74,0,74,0,,,,,,,,,,,,,,,,,,,,,,,,,,,,,,,,,,,,,,,,,,,,,,,,,1741.092295399867,None,,,,,,,,,,,,,,,,,,,,,,,,,,,,,,,,,,,,,,,,,,,,,,,,,,,,,,,,,hour,152,75,silent,new,red,1739.2657691994682,None,y,1739.2657691994682,None,"['y', 'return']","[1.6558913001790643, 1.7838591001927853]",1739.2657691994682,None,,,75YC,001,2023_May_05_1121,ExactRep-v3-final,2021.2.3,59.93820381349433,
,,,,,,,,,,,,75,0,75,0,,,,,,,,,,,,,,,,,,,,,,,,,,,,,,,,,,,,,,,,,,,,,,,,,1743.127664799802,None,,,,,,,,,,,,,,,,,,,,,,,,,,,,,,,,,,,,,,,,,,,,,,,,,,,,,,,,,queen,199,76,sing,new,white,1741.607850600034,None,n,1741.607850600034,None,"['n', 'return']","[1.2814245000481606, 1.4734237994998693]",1741.607850600034,None,,,75YC,001,2023_May_05_1121,ExactRep-v3-final,2021.2.3,59.93820381349433,
,,,,,,,,,,,,76,0,76,0,,,,,,,,,,,,,,,,,,,,,,,,,,,,,,,,,,,,,,,,,,,,,,,,,1746.3808663999662,None,,,,,,,,,,,,,,,,,,,,,,,,,,,,,,,,,,,,,,,,,,,,,,,,,,,,,,,,,troops,12,77,sing,old,white,1743.6359627991915,None,n,1743.6359627991915,None,"['n', 'return']","[2.4935653004795313, 2.701414500363171]",1743.6359627991915,None,,,75YC,001,2023_May_05_1121,ExactRep-v3-final,2021.2.3,59.93820381349433,
,,,,,,,,,,,,77,0,77,0,,,,,,,,,,,,,,,,,,,,,,,,,,,,,,,,,,,,,,,,,,,,,,,,,1749.3508775997907,None,,,,,,,,,,,,,,,,,,,,,,,,,,,,,,,,,,,,,,,,,,,,,,,,,,,,,,,,,sky,208,78,aloud,new,blue,1746.890181299299,None,n,1746.890181299299,None,"['n', 'return']","[2.21529780048877, 2.415111600421369]",1746.890181299299,None,,,75YC,001,2023_May_05_1121,ExactRep-v3-final,2021.2.3,59.93820381349433,
,,,,,,,,,,,,78,0,78,0,,,,,,,,,,,,,,,,,,,,,,,,,,,,,,,,,,,,,,,,,,,,,,,,,1751.7862863000482,None,,,,,,,,,,,,,,,,,,,,,,,,,,,,,,,,,,,,,,,,,,,,,,,,,,,,,,,,,health,68,79,silent,old,red,1749.8511010995135,None,y,1749.8511010995135,None,"['y', 'return']","[1.5742868995293975, 1.8944395994767547]",1749.8511010995135,None,,,75YC,001,2023_May_05_1121,ExactRep-v3-final,2021.2.3,59.93820381349433,
,,,,,,,,,,,,79,0,79,0,,,,,,,,,,,,,,,,,,,,,,,,,,,,,,,,,,,,,,,,,,,,,,,,,1754.4889639997855,None,,,,,,,,,,,,,,,,,,,,,,,,,,,,,,,,,,,,,,,,,,,,,,,,,,,,,,,,,blood,234,80,aloud,new,blue,1752.294265399687,None,n,1752.294265399687,None,"['n', 'return']","[1.947176399640739, 2.1551776994019747]",1752.294265399687,None,,,75YC,001,2023_May_05_1121,ExactRep-v3-final,2021.2.3,59.93820381349433,
,,,,,,,,,,,,80,0,80,0,,,,,,,,,,,,,,,,,,,,,,,,,,,,,,,,,,,,,,,,,,,,,,,,,1757.391884399578,None,,,,,,,,,,,,,,,,,,,,,,,,,,,,,,,,,,,,,,,,,,,,,,,,,,,,,,,,,home,154,81,silent,new,red,1754.9981660991907,None,y,1754.9981660991907,None,"['y', 'return']","[2.1314516002312303, 2.3553142994642258]",1754.9981660991907,None,,,75YC,001,2023_May_05_1121,ExactRep-v3-final,2021.2.3,59.93820381349433,
,,,,,,,,,,,,81,0,81,0,,,,,,,,,,,,,,,,,,,,,,,,,,,,,,,,,,,,,,,,,,,,,,,,,1759.4607544997707,None,,,,,,,,,,,,,,,,,,,,,,,,,,,,,,,,,,,,,,,,,,,,,,,,,,,,,,,,,vessel,115,82,aloud,old,blue,1757.9030978996307,None,y,1757.9030978996307,None,"['y', 'return']","[1.346378699876368, 1.5224572997540236]",1757.9030978996307,None,,,75YC,001,2023_May_05_1121,ExactRep-v3-final,2021.2.3,59.93820381349433,
,,,,,,,,,,,,82,0,82,0,,,,,,,,,,,,,,,,,,,,,,,,,,,,,,,,,,,,,,,,,,,,,,,,,1761.3958759000525,None,,,,,,,,,,,,,,,,,,,,,,,,,,,,,,,,,,,,,,,,,,,,,,,,,,,,,,,,,tool,209,83,sing,new,white,1759.9662096993998,None,n,1759.9662096993998,None,"['n', 'return']","[1.1793027995154262, 1.3872469002380967]",1759.9662096993998,None,,,75YC,001,2023_May_05_1121,ExactRep-v3-final,2021.2.3,59.93820381349433,
,,,,,,,,,,,,83,0,83,0,,,,,,,,,,,,,,,,,,,,,,,,,,,,,,,,,,,,,,,,,,,,,,,,,1763.7995348991826,None,,,,,,,,,,,,,,,,,,,,,,,,,,,,,,,,,,,,,,,,,,,,,,,,,,,,,,,,,deed,121,84,silent,new,red,1761.9070393992588,None,n,1761.9070393992588,None,"['n', 'return']","[1.6863955995067954, 1.8544838996604085]",1761.9070393992588,None,,,75YC,001,2023_May_05_1121,ExactRep-v3-final,2021.2.3,59.93820381349433,
,,,,,,,,,,,,84,0,84,0,,,,,,,,,,,,,,,,,,,,,,,,,,,,,,,,,,,,,,,,,,,,,,,,,1767.3685878999531,None,,,,,,,,,,,,,,,,,,,,,,,,,,,,,,,,,,,,,,,,,,,,,,,,,,,,,,,,,city,117,85,aloud,old,blue,1764.3069001995027,None,n,1764.3069001995027,None,"['n', 'return']","[2.8067082995548844, 3.0145889995619655]",1764.3069001995027,None,,,75YC,001,2023_May_05_1121,ExactRep-v3-final,2021.2.3,59.93820381349433,
,,,,,,,,,,,,85,0,85,0,,,,,,,,,,,,,,,,,,,,,,,,,,,,,,,,,,,,,,,,,,,,,,,,,1769.6043086992577,None,,,,,,,,,,,,,,,,,,,,,,,,,,,,,,,,,,,,,,,,,,,,,,,,,,,,,,,,,bottle,49,86,silent,old,red,1767.8813873995095,None,y,1767.8813873995095,None,"['y', 'return']","[1.4960545003414154, 1.687919500283897]",1767.8813873995095,None,,,75YC,001,2023_May_05_1121,ExactRep-v3-final,2021.2.3,59.93820381349433,
,,,,,,,,,,,,86,0,86,0,,,,,,,,,,,,,,,,,,,,,,,,,,,,,,,,,,,,,,,,,,,,,,,,,1772.2246010992676,None,,,,,,,,,,,,,,,,,,,,,,,,,,,,,,,,,,,,,,,,,,,,,,,,,,,,,,,,,camp,21,87,sing,old,white,1770.109271899797,None,n,1770.109271899797,None,"['n', 'return']","[1.8120871996507049, 2.0761794997379184]",1770.109271899797,None,,,75YC,001,2023_May_05_1121,ExactRep-v3-final,2021.2.3,59.93820381349433,
,,,,,,,,,,,,87,0,87,0,,,,,,,,,,,,,,,,,,,,,,,,,,,,,,,,,,,,,,,,,,,,,,,,,1774.525752899237,None,,,,,,,,,,,,,,,,,,,,,,,,,,,,,,,,,,,,,,,,,,,,,,,,,,,,,,,,,dawn,4,88,sing,old,white,1772.7283109994605,None,n,1772.7283109994605,None,"['return', 'n', 'return']","[1.0091601004824042, 1.5452387006953359, 1.753082800656557]",1772.7283109994605,None,,,75YC,001,2023_May_05_1121,ExactRep-v3-final,2021.2.3,59.93820381349433,
,,,,,,,,,,,,88,0,88,0,,,,,,,,,,,,,,,,,,,,,,,,,,,,,,,,,,,,,,,,,,,,,,,,,1777.0617799991742,None,,,,,,,,,,,,,,,,,,,,,,,,,,,,,,,,,,,,,,,,,,,,,,,,,,,,,,,,,chance,125,89,silent,new,red,1775.0333966994658,None,n,1775.0333966994658,None,"['n', 'return']","[1.6720834001898766, 1.9840152999386191]",1775.0333966994658,None,,,75YC,001,2023_May_05_1121,ExactRep-v3-final,2021.2.3,59.93820381349433,
,,,,,,,,,,,,89,0,89,0,,,,,,,,,,,,,,,,,,,,,,,,,,,,,,,,,,,,,,,,,,,,,,,,,1779.730963899754,None,,,,,,,,,,,,,,,,,,,,,,,,,,,,,,,,,,,,,,,,,,,,,,,,,,,,,,,,,memory,215,90,sing,new,white,1777.5731334993616,None,n,1777.5731334993616,None,"['n', 'return']","[1.6523786000907421, 2.1163081005215645]",1777.5731334993616,None,,,75YC,001,2023_May_05_1121,ExactRep-v3-final,2021.2.3,59.93820381349433,
,,,,,,,,,,,,90,0,90,0,,,,,,,,,,,,,,,,,,,,,,,,,,,,,,,,,,,,,,,,,,,,,,,,,1781.7662330996245,None,,,,,,,,,,,,,,,,,,,,,,,,,,,,,,,,,,,,,,,,,,,,,,,,,,,,,,,,,teacher,188,91,aloud,new,blue,1780.239951399155,None,y,1780.239951399155,None,"['y', 'return']","[1.2974987998604774, 1.4894971996545792]",1780.239951399155,None,,,75YC,001,2023_May_05_1121,ExactRep-v3-final,2021.2.3,59.93820381349433,
,,,,,,,,,,,,91,0,91,0,,,,,,,,,,,,,,,,,,,,,,,,,,,,,,,,,,,,,,,,,,,,,,,,,1783.951802100055,None,,,,,,,,,,,,,,,,,,,,,,,,,,,,,,,,,,,,,,,,,,,,,,,,,,,,,,,,,beast,130,92,silent,new,red,1782.2739199995995,None,n,1782.2739199995995,None,"['n', 'return']","[1.4315253999084234, 1.631682200357318]",1782.2739199995995,None,,,75YC,001,2023_May_05_1121,ExactRep-v3-final,2021.2.3,59.93820381349433,
,,,,,,,,,,,,92,0,92,0,,,,,,,,,,,,,,,,,,,,,,,,,,,,,,,,,,,,,,,,,,,,,,,,,1788.3563800994307,None,,,,,,,,,,,,,,,,,,,,,,,,,,,,,,,,,,,,,,,,,,,,,,,,,,,,,,,,,justice,218,93,aloud,new,blue,1784.4602710995823,None,n,1784.4602710995823,None,"['n', 'return']","[3.685347800143063, 3.861115800216794]",1784.4602710995823,None,,,75YC,001,2023_May_05_1121,ExactRep-v3-final,2021.2.3,59.93820381349433,
,,,,,,,,,,,,93,0,93,0,,,,,,,,,,,,,,,,,,,,,,,,,,,,,,,,,,,,,,,,,,,,,,,,,1790.6917447000742,None,,,,,,,,,,,,,,,,,,,,,,,,,,,,,,,,,,,,,,,,,,,,,,,,,,,,,,,,,mother,82,94,aloud,old,blue,1788.8641629992053,None,y,1788.8641629992053,None,"['y', 'return']","[1.561409399844706, 1.793304800055921]",1788.8641629992053,None,,,75YC,001,2023_May_05_1121,ExactRep-v3-final,2021.2.3,59.93820381349433,
,,,,,,,,,,,,94,0,94,0,,,,,,,,,,,,,,,,,,,,,,,,,,,,,,,,,,,,,,,,,,,,,,,,,1792.593778799288,None,,,,,,,,,,,,,,,,,,,,,,,,,,,,,,,,,,,,,,,,,,,,,,,,,,,,,,,,,square,216,95,aloud,new,blue,1791.2019118992612,None,n,1791.2019118992612,None,"['n', 'return']","[0.9755301000550389, 1.3596098003908992]",1791.2019118992612,None,,,75YC,001,2023_May_05_1121,ExactRep-v3-final,2021.2.3,59.93820381349433,
,,,,,,,,,,,,95,0,95,0,,,,,,,,,,,,,,,,,,,,,,,,,,,,,,,,,,,,,,,,,,,,,,,,,1795.730120100081,None,,,,,,,,,,,,,,,,,,,,,,,,,,,,,,,,,,,,,,,,,,,,,,,,,,,,,,,,,answer,2,96,sing,old,white,1793.1062674997374,None,y,1793.1062674997374,None,"['y', 'return']","[2.343205800279975, 2.591195300221443]",1793.1062674997374,None,,,75YC,001,2023_May_05_1121,ExactRep-v3-final,2021.2.3,59.93820381349433,
,,,,,,,,,,,,96,0,96,0,,,,,,,,,,,,,,,,,,,,,,,,,,,,,,,,,,,,,,,,,,,,,,,,,1797.732266199775,None,,,,,,,,,,,,,,,,,,,,,,,,,,,,,,,,,,,,,,,,,,,,,,,,,,,,,,,,,humour,10,97,sing,old,white,1796.2397888991982,None,y,1796.2397888991982,None,"['y', 'return']","[1.1537048006430268, 1.4576022000983357]",1796.2397888991982,None,,,75YC,001,2023_May_05_1121,ExactRep-v3-final,2021.2.3,59.93820381349433,
,,,,,,,,,,,,97,0,97,0,,,,,,,,,,,,,,,,,,,,,,,,,,,,,,,,,,,,,,,,,,,,,,,,,1800.8186306999996,None,,,,,,,,,,,,,,,,,,,,,,,,,,,,,,,,,,,,,,,,,,,,,,,,,,,,,,,,,advice,71,98,silent,old,red,1798.2459446992725,None,y,1798.2459446992725,None,"['y', 'return']","[2.2994951996952295, 2.5315608996897936]",1798.2459446992725,None,,,75YC,001,2023_May_05_1121,ExactRep-v3-final,2021.2.3,59.93820381349433,
,,,,,,,,,,,,98,0,98,0,,,,,,,,,,,,,,,,,,,,,,,,,,,,,,,,,,,,,,,,,,,,,,,,,1803.404549899511,None,,,,,,,,,,,,,,,,,,,,,,,,,,,,,,,,,,,,,,,,,,,,,,,,,,,,,,,,,time,232,99,aloud,new,blue,1801.3321891995147,None,y,1801.3321891995147,None,"['y', 'return']","[1.797291500493884, 2.0292886001989245]",1801.3321891995147,None,,,75YC,001,2023_May_05_1121,ExactRep-v3-final,2021.2.3,59.93820381349433,
,,,,,,,,,,,,99,0,99,0,,,,,,,,,,,,,,,,,,,,,,,,,,,,,,,,,,,,,,,,,,,,,,,,,1805.306369899772,None,,,,,,,,,,,,,,,,,,,,,,,,,,,,,,,,,,,,,,,,,,,,,,,,,,,,,,,,,bird,124,100,silent,new,red,1803.9092930993065,None,n,1803.9092930993065,None,"['n', 'return']","[1.0842351000756025, 1.3562019998207688]",1803.9092930993065,None,,,75YC,001,2023_May_05_1121,ExactRep-v3-final,2021.2.3,59.93820381349433,
,,,,,,,,,,,,100,0,100,0,,,,,,,,,,,,,,,,,,,,,,,,,,,,,,,,,,,,,,,,,,,,,,,,,1807.0917218998075,None,,,,,,,,,,,,,,,,,,,,,,,,,,,,,,,,,,,,,,,,,,,,,,,,,,,,,,,,,nail,150,101,silent,new,red,1805.8159745000303,None,y,1805.8159745000303,None,"['y', 'return']","[0.8976469002664089, 1.2336379997432232]",1805.8159745000303,None,,,75YC,001,2023_May_05_1121,ExactRep-v3-final,2021.2.3,59.93820381349433,
,,,,,,,,,,,,101,0,101,0,,,,,,,,,,,,,,,,,,,,,,,,,,,,,,,,,,,,,,,,,,,,,,,,,1811.1792154992,None,,,,,,,,,,,,,,,,,,,,,,,,,,,,,,,,,,,,,,,,,,,,,,,,,,,,,,,,,toy,167,102,sing,new,white,1807.594704899937,None,n,1807.594704899937,None,"['n', 'return']","[3.2706310003995895, 3.5426270002499223]",1807.594704899937,None,,,75YC,001,2023_May_05_1121,ExactRep-v3-final,2021.2.3,59.93820381349433,
,,,,,,,,,,,,102,0,102,0,,,,,,,,,,,,,,,,,,,,,,,,,,,,,,,,,,,,,,,,,,,,,,,,,1813.0975821996108,None,,,,,,,,,,,,,,,,,,,,,,,,,,,,,,,,,,,,,,,,,,,,,,,,,,,,,,,,,freedom,3,103,sing,old,white,1811.690460499376,None,y,1811.690460499376,None,"['y', 'return']","[1.0310109993442893, 1.367060599848628]",1811.690460499376,None,,,75YC,001,2023_May_05_1121,ExactRep-v3-final,2021.2.3,59.93820381349433,
,,,,,,,,,,,,103,0,103,0,,,,,,,,,,,,,,,,,,,,,,,,,,,,,,,,,,,,,,,,,,,,,,,,,1815.9505309993401,None,,,,,,,,,,,,,,,,,,,,,,,,,,,,,,,,,,,,,,,,,,,,,,,,,,,,,,,,,ability,224,104,aloud,new,blue,1813.6114832991734,None,y,1813.6114832991734,None,"['y', 'return']","[2.1100005004554987, 2.294084000401199]",1813.6114832991734,None,,,75YC,001,2023_May_05_1121,ExactRep-v3-final,2021.2.3,59.93820381349433,
,,,,,,,,,,,,104,0,104,0,,,,,,,,,,,,,,,,,,,,,,,,,,,,,,,,,,,,,,,,,,,,,,,,,1817.685535799712,None,,,,,,,,,,,,,,,,,,,,,,,,,,,,,,,,,,,,,,,,,,,,,,,,,,,,,,,,,pupil,9,105,sing,old,white,1816.4635946992785,None,y,1816.4635946992785,None,"['y', 'return']","[0.905906000174582, 1.177841399796307]",1816.4635946992785,None,,,75YC,001,2023_May_05_1121,ExactRep-v3-final,2021.2.3,59.93820381349433,
,,,,,,,,,,,,105,0,105,0,,,,,,,,,,,,,,,,,,,,,,,,,,,,,,,,,,,,,,,,,,,,,,,,,1819.6206626994535,None,,,,,,,,,,,,,,,,,,,,,,,,,,,,,,,,,,,,,,,,,,,,,,,,,,,,,,,,,meadow,226,106,aloud,new,blue,1818.1952094994485,None,n,1818.1952094994485,None,"['n', 'return']","[1.046497999690473, 1.3904670998454094]",1818.1952094994485,None,,,75YC,001,2023_May_05_1121,ExactRep-v3-final,2021.2.3,59.93820381349433,
,,,,,,,,,,,,106,0,106,0,,,,,,,,,,,,,,,,,,,,,,,,,,,,,,,,,,,,,,,,,,,,,,,,,1821.906276599504,None,,,,,,,,,,,,,,,,,,,,,,,,,,,,,,,,,,,,,,,,,,,,,,,,,,,,,,,,,ticket,204,107,aloud,new,blue,1820.1303728995845,None,y,1820.1303728995845,None,"['y', 'return']","[1.535049700178206, 1.7351365005597472]",1820.1303728995845,None,,,75YC,001,2023_May_05_1121,ExactRep-v3-final,2021.2.3,59.93820381349433,
,,,,,,,,,,,,107,0,107,0,,,,,,,,,,,,,,,,,,,,,,,,,,,,,,,,,,,,,,,,,,,,,,,,,1823.5415743999183,None,,,,,,,,,,,,,,,,,,,,,,,,,,,,,,,,,,,,,,,,,,,,,,,,,,,,,,,,,judge,101,108,aloud,old,blue,1822.4166445992887,None,y,1822.4166445992887,None,"['y', 'return']","[0.8252419997006655, 1.0889584999531507]",1822.4166445992887,None,,,75YC,001,2023_May_05_1121,ExactRep-v3-final,2021.2.3,59.93820381349433,
,,,,,,,,,,,,108,0,108,0,,,,,,,,,,,,,,,,,,,,,,,,,,,,,,,,,,,,,,,,,,,,,,,,,1827.2450969992206,None,,,,,,,,,,,,,,,,,,,,,,,,,,,,,,,,,,,,,,,,,,,,,,,,,,,,,,,,,quality,148,109,silent,new,red,1824.05189100001,None,y,1824.05189100001,None,"['y', 'return']","[1.4778672996908426, 3.1496366998180747]",1824.05189100001,None,,,75YC,001,2023_May_05_1121,ExactRep-v3-final,2021.2.3,59.93820381349433,
,,,,,,,,,,,,109,0,109,0,,,,,,,,,,,,,,,,,,,,,,,,,,,,,,,,,,,,,,,,,,,,,,,,,1830.097908099182,None,,,,,,,,,,,,,,,,,,,,,,,,,,,,,,,,,,,,,,,,,,,,,,,,,,,,,,,,,tree,159,110,silent,new,red,1827.7478486998007,None,n,1827.7478486998007,None,"['n', 'return']","[2.045987700112164, 2.317675500176847]",1827.7478486998007,None,,,75YC,001,2023_May_05_1121,ExactRep-v3-final,2021.2.3,59.93820381349433,
,,,,,,,,,,,,110,0,110,0,,,,,,,,,,,,,,,,,,,,,,,,,,,,,,,,,,,,,,,,,,,,,,,,,1831.649421999231,None,,,,,,,,,,,,,,,,,,,,,,,,,,,,,,,,,,,,,,,,,,,,,,,,,,,,,,,,,plant,65,111,silent,old,red,1830.619597199373,None,y,1830.619597199373,None,"['y', 'return']","[0.725980500690639, 0.9899450000375509]",1830.619597199373,None,,,75YC,001,2023_May_05_1121,ExactRep-v3-final,2021.2.3,59.93820381349433,
,,,,,,,,,,,,111,0,111,0,,,,,,,,,,,,,,,,,,,,,,,,,,,,,,,,,,,,,,,,,,,,,,,,,1833.1521554999053,None,,,,,,,,,,,,,,,,,,,,,,,,,,,,,,,,,,,,,,,,,,,,,,,,,,,,,,,,,doll,50,112,silent,old,red,1832.155549599789,None,y,1832.155549599789,None,"['y', 'return']","[0.6459723999723792, 0.9499679999426007]",1832.155549599789,None,,,75YC,001,2023_May_05_1121,ExactRep-v3-final,2021.2.3,59.93820381349433,
,,,,,,,,,,,,112,0,112,0,,,,,,,,,,,,,,,,,,,,,,,,,,,,,,,,,,,,,,,,,,,,,,,,,1834.669236799702,None,,,,,,,,,,,,,,,,,,,,,,,,,,,,,,,,,,,,,,,,,,,,,,,,,,,,,,,,,artist,60,113,silent,old,red,1833.6599791999906,None,y,1833.6599791999906,None,"['y', 'return']","[0.6778877004981041, 0.9654994001612067]",1833.6599791999906,None,,,75YC,001,2023_May_05_1121,ExactRep-v3-final,2021.2.3,59.93820381349433,
,,,,,,,,,,,,113,0,113,0,,,,,,,,,,,,,,,,,,,,,,,,,,,,,,,,,,,,,,,,,,,,,,,,,1836.6379368994385,None,,,,,,,,,,,,,,,,,,,,,,,,,,,,,,,,,,,,,,,,,,,,,,,,,,,,,,,,,length,70,114,silent,old,red,1835.1780432993546,None,y,1835.1780432993546,None,"['y', 'return']","[1.1593936998397112, 1.4235032005235553]",1835.1780432993546,None,,,75YC,001,2023_May_05_1121,ExactRep-v3-final,2021.2.3,59.93820381349433,
,,,,,,,,,,,,114,0,114,0,,,,,,,,,,,,,,,,,,,,,,,,,,,,,,,,,,,,,,,,,,,,,,,,,1838.1893358994275,None,,,,,,,,,,,,,,,,,,,,,,,,,,,,,,,,,,,,,,,,,,,,,,,,,,,,,,,,,series,40,115,silent,old,red,1837.1471582995728,None,n,1837.1471582995728,None,"['n', 'return']","[0.7425046004354954, 0.9983248999342322]",1837.1471582995728,None,,,75YC,001,2023_May_05_1121,ExactRep-v3-final,2021.2.3,59.93820381349433,
,,,,,,,,,,,,115,0,115,0,,,,,,,,,,,,,,,,,,,,,,,,,,,,,,,,,,,,,,,,,,,,,,,,,1844.9793662000448,None,,,,,,,,,,,,,,,,,,,,,,,,,,,,,,,,,,,,,,,,,,,,,,,,,,,,,,,,,journal,105,116,aloud,old,blue,1838.7018951000646,None,n,1838.7018951000646,None,"['n', 'return']","[5.955664299428463, 6.243649499490857]",1838.7018951000646,None,,,75YC,001,2023_May_05_1121,ExactRep-v3-final,2021.2.3,59.93820381349433,
,,,,,,,,,,,,116,0,116,0,,,,,,,,,,,,,,,,,,,,,,,,,,,,,,,,,,,,,,,,,,,,,,,,,1849.066900299862,None,,,,,,,,,,,,,,,,,,,,,,,,,,,,,,,,,,,,,,,,,,,,,,,,,,,,,,,,,dream,62,117,silent,old,red,1845.4926831992343,None,y,1845.4926831992343,None,"['y', 'return']","[3.2528352001681924, 3.540821200236678]",1845.4926831992343,None,,,75YC,001,2023_May_05_1121,ExactRep-v3-final,2021.2.3,59.93820381349433,
,,,,,,,,,,,,117,0,117,0,,,,,,,,,,,,,,,,,,,,,,,,,,,,,,,,,,,,,,,,,,,,,,,,,1851.1024918993935,None,,,,,,,,,,,,,,,,,,,,,,,,,,,,,,,,,,,,,,,,,,,,,,,,,,,,,,,,,hotel,111,118,aloud,old,blue,1849.5778193995357,None,y,1849.5778193995357,None,"['y', 'return']","[1.2317180000245571, 1.4879771992564201]",1849.5778193995357,None,,,75YC,001,2023_May_05_1121,ExactRep-v3-final,2021.2.3,59.93820381349433,
,,,,,,,,,,,,118,0,118,0,,,,,,,,,,,,,,,,,,,,,,,,,,,,,,,,,,,,,,,,,,,,,,,,,1853.8550846995786,None,,,,,,,,,,,,,,,,,,,,,,,,,,,,,,,,,,,,,,,,,,,,,,,,,,,,,,,,,book,25,119,sing,old,white,1851.6095814993605,None,y,1851.6095814993605,None,"['y', 'return']","[1.839924099855125, 2.20796259958297]",1851.6095814993605,None,,,75YC,001,2023_May_05_1121,ExactRep-v3-final,2021.2.3,59.93820381349433,
,,,,,,,,,,,,119,0,119,0,,,,,,,,,,,,,,,,,,,,,,,,,,,,,,,,,,,,,,,,,,,,,,,,,1856.20735159982,None,,,,,,,,,,,,,,,,,,,,,,,,,,,,,,,,,,,,,,,,,,,,,,,,,,,,,,,,,body,157,120,silent,new,red,1854.3642992991954,None,n,1854.3642992991954,None,"['n', 'return']","[1.4372589001432061, 1.7973102992400527]",1854.3642992991954,None,,,75YC,001,2023_May_05_1121,ExactRep-v3-final,2021.2.3,59.93820381349433,
,,,,,,,,,,,,120,0,120,0,,,,,,,,,,,,,,,,,,,,,,,,,,,,,,,,,,,,,,,,,,,,,,,,,1859.9612984992564,None,,,,,,,,,,,,,,,,,,,,,,,,,,,,,,,,,,,,,,,,,,,,,,,,,,,,,,,,,moral,100,121,aloud,old,blue,1856.7217266000807,None,y,1856.7217266000807,None,"['y', 'return']","[2.9040112998336554, 3.199827100150287]",1856.7217266000807,None,,,75YC,001,2023_May_05_1121,ExactRep-v3-final,2021.2.3,59.93820381349433,
,,,,,,,,,,,,121,0,121,0,,,,,,,,,,,,,,,,,,,,,,,,,,,,,,,,,,,,,,,,,,,,,,,,,1861.5963278999552,None,,,,,,,,,,,,,,,,,,,,,,,,,,,,,,,,,,,,,,,,,,,,,,,,,,,,,,,,,weapon,123,122,silent,new,red,1860.4681912995875,None,n,1860.4681912995875,None,"['n', 'return']","[0.8055133000016212, 1.0933193005621433]",1860.4681912995875,None,,,75YC,001,2023_May_05_1121,ExactRep-v3-final,2021.2.3,59.93820381349433,
,,,,,,,,,,,,122,0,122,0,,,,,,,,,,,,,,,,,,,,,,,,,,,,,,,,,,,,,,,,,,,,,,,,,1863.564708800055,None,,,,,,,,,,,,,,,,,,,,,,,,,,,,,,,,,,,,,,,,,,,,,,,,,,,,,,,,,honour,172,123,aloud,new,blue,1862.0991195999086,None,n,1862.0991195999086,None,"['n', 'return']","[1.1184937991201878, 1.4303999999538064]",1862.0991195999086,None,,,75YC,001,2023_May_05_1121,ExactRep-v3-final,2021.2.3,59.93820381349433,
,,,,,,,,,,,,123,0,123,0,,,,,,,,,,,,,,,,,,,,,,,,,,,,,,,,,,,,,,,,,,,,,,,,,1865.550289399922,None,,,,,,,,,,,,,,,,,,,,,,,,,,,,,,,,,,,,,,,,,,,,,,,,,,,,,,,,,mercy,127,124,silent,new,red,1864.0730227995664,None,y,1864.0730227995664,None,"['y', 'return']","[1.1045834003016353, 1.4324465999379754]",1864.0730227995664,None,,,75YC,001,2023_May_05_1121,ExactRep-v3-final,2021.2.3,59.93820381349433,
,,,,,,,,,,,,124,0,124,0,,,,,,,,,,,,,,,,,,,,,,,,,,,,,,,,,,,,,,,,,,,,,,,,,1867.8191201994196,None,,,,,,,,,,,,,,,,,,,,,,,,,,,,,,,,,,,,,,,,,,,,,,,,,,,,,,,,,colony,206,125,aloud,new,blue,1866.066160599701,None,n,1866.066160599701,None,"['n', 'return']","[1.3513955995440483, 1.7114254999905825]",1866.066160599701,None,,,75YC,001,2023_May_05_1121,ExactRep-v3-final,2021.2.3,59.93820381349433,
,,,,,,,,,,,,125,0,125,0,,,,,,,,,,,,,,,,,,,,,,,,,,,,,,,,,,,,,,,,,,,,,,,,,1871.906475099735,None,,,,,,,,,,,,,,,,,,,,,,,,,,,,,,,,,,,,,,,,,,,,,,,,,,,,,,,,,dust,137,126,silent,new,red,1868.3314809994772,None,n,1868.3314809994772,None,"['n', 'return']","[3.206084300763905, 3.5420313999056816]",1868.3314809994772,None,,,75YC,001,2023_May_05_1121,ExactRep-v3-final,2021.2.3,59.93820381349433,
,,,,,,,,,,,,126,0,126,0,,,,,,,,,,,,,,,,,,,,,,,,,,,,,,,,,,,,,,,,,,,,,,,,,1874.158710499294,None,,,,,,,,,,,,,,,,,,,,,,,,,,,,,,,,,,,,,,,,,,,,,,,,,,,,,,,,,board,92,127,aloud,old,blue,1872.4103492991999,None,y,1872.4103492991999,None,"['y', 'return']","[1.4472132995724678, 1.7112587001174688]",1872.4103492991999,None,,,75YC,001,2023_May_05_1121,ExactRep-v3-final,2021.2.3,59.93820381349433,
,,,,,,,,,,,,127,0,127,0,,,,,,,,,,,,,,,,,,,,,,,,,,,,,,,,,,,,,,,,,,,,,,,,,1875.7437498997897,None,,,,,,,,,,,,,,,,,,,,,,,,,,,,,,,,,,,,,,,,,,,,,,,,,,,,,,,,,girl,118,128,aloud,old,blue,1874.6684494996443,None,y,1874.6684494996443,None,"['y', 'return']","[0.7251190999522805, 1.0370824001729488]",1874.6684494996443,None,,,75YC,001,2023_May_05_1121,ExactRep-v3-final,2021.2.3,59.93820381349433,
,,,,,,,,,,,,128,0,128,0,,,,,,,,,,,,,,,,,,,,,,,,,,,,,,,,,,,,,,,,,,,,,,,,,1878.0959915993735,None,,,,,,,,,,,,,,,,,,,,,,,,,,,,,,,,,,,,,,,,,,,,,,,,,,,,,,,,,stone,207,129,sing,new,white,1876.2463746992871,None,n,1876.2463746992871,None,"['n', 'return']","[1.5231329994276166, 1.8031712993979454]",1876.2463746992871,None,,,75YC,001,2023_May_05_1121,ExactRep-v3-final,2021.2.3,59.93820381349433,
,,,,,,,,,,,,129,0,129,0,,,,,,,,,,,,,,,,,,,,,,,,,,,,,,,,,,,,,,,,,,,,,,,,,1880.6986794993281,None,,,,,,,,,,,,,,,,,,,,,,,,,,,,,,,,,,,,,,,,,,,,,,,,,,,,,,,,,leader,56,130,silent,old,red,1878.60529319942,None,n,1878.60529319942,None,"['n', 'return']","[1.7483152002096176, 2.052363400347531]",1878.60529319942,None,,,75YC,001,2023_May_05_1121,ExactRep-v3-final,2021.2.3,59.93820381349433,
