trials_fam.thisRepN,trials_fam.thisTrialN,trials_fam.thisN,trials_fam.thisIndex,trials_prc.thisRepN,trials_prc.thisTrialN,trials_prc.thisN,trials_prc.thisIndex,StudyLoop.thisRepN,StudyLoop.thisTrialN,StudyLoop.thisN,StudyLoop.thisIndex,TestLoop.thisRepN,TestLoop.thisTrialN,TestLoop.thisN,TestLoop.thisIndex,text_colortest.started,text_colortest.stopped,key_colortest.keys,key_colortest.rt,key_colortest.started,key_colortest.stopped,textCondition.started,textCondition.stopped,keyCondition.keys,keyCondition.rt,keyCondition.started,keyCondition.stopped,Condition_between,Condition_counterbal,keyWelcome.keys,keyWelcome.rt,keyWelcome.started,keyWelcome.stopped,welcome_a.started,welcome_a.stopped,welcome_b.started,welcome_b.stopped,welcome_c.started,welcome_c.stopped,welcome_d.started,welcome_d.stopped,welcome_e.started,welcome_e.stopped,welcome_f.started,welcome_f.stopped,key_resp_fam_inst.keys,key_resp_fam_inst.rt,key_resp_fam_inst.started,key_resp_fam_inst.stopped,fam_a.started,fam_a.stopped,fam_b.started,fam_b.stopped,fam_c.started,fam_c.stopped,fam_d.started,fam_d.stopped,fam_e.started,fam_e.stopped,fam_f.started,fam_f.stopped,text_famil.started,text_famil.stopped,textBlank500.started,textBlank500.stopped,key_resp_prc_inst.keys,key_resp_prc_inst.rt,key_resp_prc_inst.started,key_resp_prc_inst.stopped,prac_a.started,prac_a.stopped,prac_b.started,prac_b.stopped,prac_c.started,prac_c.stopped,prac_d.started,prac_d.stopped,prac_e.started,prac_e.stopped,prac_f.started,prac_f.stopped,text_prc_trial.started,text_prc_trial.stopped,key_resp_study_inst.keys,key_resp_study_inst.rt,key_resp_study_inst.started,key_resp_study_inst.stopped,crit_a.started,crit_a.stopped,crit_b.started,crit_b.stopped,crit_c.started,crit_c.stopped,crit_d.started,crit_d.stopped,crit_e.started,crit_e.stopped,crit_f.started,crit_f.stopped,study_word,study_num,study_order,study_type,word_color,textStudy.started,textStudy.stopped,keyStudy.keys,keyStudy.started,keyStudy.stopped,post_study.started,post_study.stopped,key_resp_post_study.keys,key_resp_post_study.rt,key_resp_post_study.started,key_resp_post_study.stopped,test_inst.started,test_inst.stopped,key_resp_test_inst.keys,key_resp_test_inst.rt,key_resp_test_inst.started,key_resp_test_inst.stopped,test_word,test_num,test_order,test_condition,old_new_test,word_color_test,textConf.started,textConf.stopped,Participant Response,textInput.started,textInput.stopped,keyResp.keys,keyResp.rt,keyResp.started,keyResp.stopped,textEnd.started,textEnd.stopped,participant,session,date,expName,psychopyVersion,frameRate,
,,,,,,,,,,,,,,,,32.54505769908428,None,y,0.5660863993689418,32.54505769908428,None,,,,,,,,,,,,,,,,,,,,,,,,,,,,,,,,,,,,,,,,,,,,,,,,,,,,,,,,,,,,,,,,,,,,,,,,,,,,,,,,,,,,,,,,,,,,,,,,,,,,,,,,,,,,,,,,,,,,,,76YD,001,2023_May_05_1157,ExactRep-v3-final,2021.2.3,59.96519596317314,
,,,,,,,,,,,,,,,,,,,,,,33.136678699404,None,d,0.4946279004216194,33.136678699404,None,,,,,,,,,,,,,,,,,,,,,,,,,,,,,,,,,,,,,,,,,,,,,,,,,,,,,,,,,,,,,,,,,,,,,,,,,,,,,,,,,,,,,,,,,,,,,,,,,,,,,,,,,,,,,,,,76YD,001,2023_May_05_1157,ExactRep-v3-final,2021.2.3,59.96519596317314,
,,,,,,,,,,,,,,,,,,,,,,,,,,,,colorfoils,d,space,203.62527409940958,43.74993499927223,None,,,,,,,,,,,,,,,,,,,,,,,,,,,,,,,,,,,,,,,,,,,,,,,,,,,,,,,,,,,,,,,,,,,,,,,,,,,,,,,,,,,,,,,,,,,,,,,,,,,,,,,,,,76YD,001,2023_May_05_1157,ExactRep-v3-final,2021.2.3,59.96519596317314,
,,,,,,,,,,,,,,,,,,,,,,,,,,,,,,,,,,33.80700489971787,None,33.80700489971787,None,33.80700489971787,None,33.80700489971787,None,33.80700489971787,None,33.80700489971787,None,space,14.407373399473727,257.6158590996638,None,,,,,,,,,,,,,,,,,,,,,,,,,,,,,,,,,,,,,,,,,,,,,,,,,,,,,,,,,,,,,,,,,,,,,,,,,,,,,,,,,,,,,,,,,,76YD,001,2023_May_05_1157,ExactRep-v3-final,2021.2.3,59.96519596317314,
0,0,0,0,,,,,,,,,,,,,,,,,,,,,,,,,,,,,,,,,,,,,,,,,,,,,,,247.6094618998468,None,247.6094618998468,None,247.6094618998468,None,247.6094618998468,None,247.6094618998468,None,247.6094618998468,None,272.1238758992404,None,274.1104448996484,None,,,,,,,,,,,,,,,,,,,,,,,,,,,,,,,,,,,,,,,,,,,,,,,,,,,,,,,,,,,,,,,,,,,,,,,,,,76YD,001,2023_May_05_1157,ExactRep-v3-final,2021.2.3,59.96519596317314,
1,0,1,0,,,,,,,,,,,,,,,,,,,,,,,,,,,,,,,,,,,,,,,,,,,,,,,,,,,,,,,,,,,274.61138599924743,None,276.6132207997143,None,,,,,,,,,,,,,,,,,,,,,,,,,,,,,,,,,,,,,,,,,,,,,,,,,,,,,,,,,,,,,,,,,,,,,,,,,,76YD,001,2023_May_05_1157,ExactRep-v3-final,2021.2.3,59.96519596317314,
2,0,2,0,,,,,,,,,,,,,,,,,,,,,,,,,,,,,,,,,,,,,,,,,,,,,,,,,,,,,,,,,,,277.114266499877,None,279.1156055992469,None,,,,,,,,,,,,,,,,,,,,,,,,,,,,,,,,,,,,,,,,,,,,,,,,,,,,,,,,,,,,,,,,,,,,,,,,,,76YD,001,2023_May_05_1157,ExactRep-v3-final,2021.2.3,59.96519596317314,
3,0,3,0,,,,,,,,,,,,,,,,,,,,,,,,,,,,,,,,,,,,,,,,,,,,,,,,,,,,,,,,,,,279.6161427991465,None,281.6180190993473,None,,,,,,,,,,,,,,,,,,,,,,,,,,,,,,,,,,,,,,,,,,,,,,,,,,,,,,,,,,,,,,,,,,,,,,,,,,76YD,001,2023_May_05_1157,ExactRep-v3-final,2021.2.3,59.96519596317314,
4,0,4,0,,,,,,,,,,,,,,,,,,,,,,,,,,,,,,,,,,,,,,,,,,,,,,,,,,,,,,,,,,,282.12313519977033,None,284.13738759979606,None,,,,,,,,,,,,,,,,,,,,,,,,,,,,,,,,,,,,,,,,,,,,,,,,,,,,,,,,,,,,,,,,,,,,,,,,,,76YD,001,2023_May_05_1157,ExactRep-v3-final,2021.2.3,59.96519596317314,
5,0,5,0,,,,,,,,,,,,,,,,,,,,,,,,,,,,,,,,,,,,,,,,,,,,,,,,,,,,,,,,,,,284.63797879964113,None,286.6399839995429,None,,,,,,,,,,,,,,,,,,,,,,,,,,,,,,,,,,,,,,,,,,,,,,,,,,,,,,,,,,,,,,,,,,,,,,,,,,76YD,001,2023_May_05_1157,ExactRep-v3-final,2021.2.3,59.96519596317314,
6,0,6,0,,,,,,,,,,,,,,,,,,,,,,,,,,,,,,,,,,,,,,,,,,,,,,,,,,,,,,,,,,,287.1403984995559,None,289.1426680991426,None,,,,,,,,,,,,,,,,,,,,,,,,,,,,,,,,,,,,,,,,,,,,,,,,,,,,,,,,,,,,,,,,,,,,,,,,,,76YD,001,2023_May_05_1157,ExactRep-v3-final,2021.2.3,59.96519596317314,
7,0,7,0,,,,,,,,,,,,,,,,,,,,,,,,,,,,,,,,,,,,,,,,,,,,,,,,,,,,,,,,,,,289.65269259922206,None,291.6616764999926,None,,,,,,,,,,,,,,,,,,,,,,,,,,,,,,,,,,,,,,,,,,,,,,,,,,,,,,,,,,,,,,,,,,,,,,,,,,76YD,001,2023_May_05_1157,ExactRep-v3-final,2021.2.3,59.96519596317314,
8,0,8,0,,,,,,,,,,,,,,,,,,,,,,,,,,,,,,,,,,,,,,,,,,,,,,,,,,,,,,,,,,,292.16196379996836,None,294.1640098998323,None,,,,,,,,,,,,,,,,,,,,,,,,,,,,,,,,,,,,,,,,,,,,,,,,,,,,,,,,,,,,,,,,,,,,,,,,,,76YD,001,2023_May_05_1157,ExactRep-v3-final,2021.2.3,59.96519596317314,
9,0,9,0,,,,,,,,,,,,,,,,,,,,,,,,,,,,,,,,,,,,,,,,,,,,,,,,,,,,,,,,,,,294.664634199813,None,296.66669119987637,None,,,,,,,,,,,,,,,,,,,,,,,,,,,,,,,,,,,,,,,,,,,,,,,,,,,,,,,,,,,,,,,,,,,,,,,,,,76YD,001,2023_May_05_1157,ExactRep-v3-final,2021.2.3,59.96519596317314,
10,0,10,0,,,,,,,,,,,,,,,,,,,,,,,,,,,,,,,,,,,,,,,,,,,,,,,,,,,,,,,,,,,297.1672216998413,None,299.1689587999135,None,,,,,,,,,,,,,,,,,,,,,,,,,,,,,,,,,,,,,,,,,,,,,,,,,,,,,,,,,,,,,,,,,,,,,,,,,,76YD,001,2023_May_05_1157,ExactRep-v3-final,2021.2.3,59.96519596317314,
11,0,11,0,,,,,,,,,,,,,,,,,,,,,,,,,,,,,,,,,,,,,,,,,,,,,,,,,,,,,,,,,,,299.6818023994565,None,301.68853909987956,None,,,,,,,,,,,,,,,,,,,,,,,,,,,,,,,,,,,,,,,,,,,,,,,,,,,,,,,,,,,,,,,,,,,,,,,,,,76YD,001,2023_May_05_1157,ExactRep-v3-final,2021.2.3,59.96519596317314,
12,0,12,0,,,,,,,,,,,,,,,,,,,,,,,,,,,,,,,,,,,,,,,,,,,,,,,,,,,,,,,,,,,302.1887240000069,None,304.1908271992579,None,,,,,,,,,,,,,,,,,,,,,,,,,,,,,,,,,,,,,,,,,,,,,,,,,,,,,,,,,,,,,,,,,,,,,,,,,,76YD,001,2023_May_05_1157,ExactRep-v3-final,2021.2.3,59.96519596317314,
13,0,13,0,,,,,,,,,,,,,,,,,,,,,,,,,,,,,,,,,,,,,,,,,,,,,,,,,,,,,,,,,,,304.69160089921206,None,306.69340779911727,None,,,,,,,,,,,,,,,,,,,,,,,,,,,,,,,,,,,,,,,,,,,,,,,,,,,,,,,,,,,,,,,,,,,,,,,,,,76YD,001,2023_May_05_1157,ExactRep-v3-final,2021.2.3,59.96519596317314,
14,0,14,0,,,,,,,,,,,,,,,,,,,,,,,,,,,,,,,,,,,,,,,,,,,,,,,,,,,,,,,,,,,307.20477299951017,None,309.2128341998905,None,,,,,,,,,,,,,,,,,,,,,,,,,,,,,,,,,,,,,,,,,,,,,,,,,,,,,,,,,,,,,,,,,,,,,,,,,,76YD,001,2023_May_05_1157,ExactRep-v3-final,2021.2.3,59.96519596317314,
,,,,,,,,,,,,,,,,,,,,,,,,,,,,,,,,,,,,,,,,,,,,,,,,,,,,,,,,,,,,,,,,,,space,13.395216999575496,319.8440650999546,None,,,,,,,,,,,,,,,,,,,,,,,,,,,,,,,,,,,,,,,,,,,,,,,,,,,,,,,,,,,,,,,,,,,,,,76YD,001,2023_May_05_1157,ExactRep-v3-final,2021.2.3,59.96519596317314,
,,,,0,0,0,0,,,,,,,,,,,,,,,,,,,,,,,,,,,,,,,,,,,,,,,,,,,,,,,,,,,,,,,,,335.30527829937637,None,,,,,309.8761078994721,None,309.8761078994721,None,309.8761078994721,None,309.8761078994721,None,309.8761078994721,None,309.8761078994721,None,333.29940039943904,None,,,,,,,,,,,,,,,,,,,,,,,,,,,,,,,,,,,,,,,,,,,,,,,,,,,,,,,,76YD,001,2023_May_05_1157,ExactRep-v3-final,2021.2.3,59.96519596317314,
,,,,1,0,1,0,,,,,,,,,,,,,,,,,,,,,,,,,,,,,,,,,,,,,,,,,,,,,,,,,,,,,,,,,337.80765679944307,None,,,,,,,,,,,,,,,,,335.8055795999244,None,,,,,,,,,,,,,,,,,,,,,,,,,,,,,,,,,,,,,,,,,,,,,,,,,,,,,,,,76YD,001,2023_May_05_1157,ExactRep-v3-final,2021.2.3,59.96519596317314,
,,,,2,0,2,0,,,,,,,,,,,,,,,,,,,,,,,,,,,,,,,,,,,,,,,,,,,,,,,,,,,,,,,,,340.3102159993723,None,,,,,,,,,,,,,,,,,338.30812089983374,None,,,,,,,,,,,,,,,,,,,,,,,,,,,,,,,,,,,,,,,,,,,,,,,,,,,,,,,,76YD,001,2023_May_05_1157,ExactRep-v3-final,2021.2.3,59.96519596317314,
,,,,3,0,3,0,,,,,,,,,,,,,,,,,,,,,,,,,,,,,,,,,,,,,,,,,,,,,,,,,,,,,,,,,342.81276019942015,None,,,,,,,,,,,,,,,,,340.8108217995614,None,,,,,,,,,,,,,,,,,,,,,,,,,,,,,,,,,,,,,,,,,,,,,,,,,,,,,,,,76YD,001,2023_May_05_1157,ExactRep-v3-final,2021.2.3,59.96519596317314,
,,,,4,0,4,0,,,,,,,,,,,,,,,,,,,,,,,,,,,,,,,,,,,,,,,,,,,,,,,,,,,,,,,,,345.3152574999258,None,,,,,,,,,,,,,,,,,343.3131651999429,None,,,,,,,,,,,,,,,,,,,,,,,,,,,,,,,,,,,,,,,,,,,,,,,,,,,,,,,,76YD,001,2023_May_05_1157,ExactRep-v3-final,2021.2.3,59.96519596317314,
,,,,5,0,5,0,,,,,,,,,,,,,,,,,,,,,,,,,,,,,,,,,,,,,,,,,,,,,,,,,,,,,,,,,347.8177128992975,None,,,,,,,,,,,,,,,,,345.8157751997933,None,,,,,,,,,,,,,,,,,,,,,,,,,,,,,,,,,,,,,,,,,,,,,,,,,,,,,,,,76YD,001,2023_May_05_1157,ExactRep-v3-final,2021.2.3,59.96519596317314,
,,,,6,0,6,0,,,,,,,,,,,,,,,,,,,,,,,,,,,,,,,,,,,,,,,,,,,,,,,,,,,,,,,,,350.32005539909005,None,,,,,,,,,,,,,,,,,348.31834919936955,None,,,,,,,,,,,,,,,,,,,,,,,,,,,,,,,,,,,,,,,,,,,,,,,,,,,,,,,,76YD,001,2023_May_05_1157,ExactRep-v3-final,2021.2.3,59.96519596317314,
,,,,7,0,7,0,,,,,,,,,,,,,,,,,,,,,,,,,,,,,,,,,,,,,,,,,,,,,,,,,,,,,,,,,352.82289729919285,None,,,,,,,,,,,,,,,,,350.82084769941866,None,,,,,,,,,,,,,,,,,,,,,,,,,,,,,,,,,,,,,,,,,,,,,,,,,,,,,,,,76YD,001,2023_May_05_1157,ExactRep-v3-final,2021.2.3,59.96519596317314,
,,,,8,0,8,0,,,,,,,,,,,,,,,,,,,,,,,,,,,,,,,,,,,,,,,,,,,,,,,,,,,,,,,,,355.32519269920886,None,,,,,,,,,,,,,,,,,353.32328129932284,None,,,,,,,,,,,,,,,,,,,,,,,,,,,,,,,,,,,,,,,,,,,,,,,,,,,,,,,,76YD,001,2023_May_05_1157,ExactRep-v3-final,2021.2.3,59.96519596317314,
,,,,9,0,9,0,,,,,,,,,,,,,,,,,,,,,,,,,,,,,,,,,,,,,,,,,,,,,,,,,,,,,,,,,357.8277142997831,None,,,,,,,,,,,,,,,,,355.8258980996907,None,,,,,,,,,,,,,,,,,,,,,,,,,,,,,,,,,,,,,,,,,,,,,,,,,,,,,,,,76YD,001,2023_May_05_1157,ExactRep-v3-final,2021.2.3,59.96519596317314,
,,,,10,0,10,0,,,,,,,,,,,,,,,,,,,,,,,,,,,,,,,,,,,,,,,,,,,,,,,,,,,,,,,,,360.33039549924433,None,,,,,,,,,,,,,,,,,358.3282198999077,None,,,,,,,,,,,,,,,,,,,,,,,,,,,,,,,,,,,,,,,,,,,,,,,,,,,,,,,,76YD,001,2023_May_05_1157,ExactRep-v3-final,2021.2.3,59.96519596317314,
,,,,11,0,11,0,,,,,,,,,,,,,,,,,,,,,,,,,,,,,,,,,,,,,,,,,,,,,,,,,,,,,,,,,362.8327638991177,None,,,,,,,,,,,,,,,,,360.83105909917504,None,,,,,,,,,,,,,,,,,,,,,,,,,,,,,,,,,,,,,,,,,,,,,,,,,,,,,,,,76YD,001,2023_May_05_1157,ExactRep-v3-final,2021.2.3,59.96519596317314,
,,,,12,0,12,0,,,,,,,,,,,,,,,,,,,,,,,,,,,,,,,,,,,,,,,,,,,,,,,,,,,,,,,,,365.33523409999907,None,,,,,,,,,,,,,,,,,363.3333825999871,None,,,,,,,,,,,,,,,,,,,,,,,,,,,,,,,,,,,,,,,,,,,,,,,,,,,,,,,,76YD,001,2023_May_05_1157,ExactRep-v3-final,2021.2.3,59.96519596317314,
,,,,13,0,13,0,,,,,,,,,,,,,,,,,,,,,,,,,,,,,,,,,,,,,,,,,,,,,,,,,,,,,,,,,367.8378890994936,None,,,,,,,,,,,,,,,,,365.83580279909074,None,,,,,,,,,,,,,,,,,,,,,,,,,,,,,,,,,,,,,,,,,,,,,,,,,,,,,,,,76YD,001,2023_May_05_1157,ExactRep-v3-final,2021.2.3,59.96519596317314,
,,,,14,0,14,0,,,,,,,,,,,,,,,,,,,,,,,,,,,,,,,,,,,,,,,,,,,,,,,,,,,,,,,,,370.34027319960296,None,,,,,,,,,,,,,,,,,368.33843869995326,None,,,,,,,,,,,,,,,,,,,,,,,,,,,,,,,,,,,,,,,,,,,,,,,,,,,,,,,,76YD,001,2023_May_05_1157,ExactRep-v3-final,2021.2.3,59.96519596317314,
,,,,,,,,,,,,,,,,,,,,,,,,,,,,,,,,,,,,,,,,,,,,,,,,,,,,,,,,,,,,,,,,,,,,,,,,,,,,,,,,,,,,space,15.73993009980768,380.963414799422,None,,,,,,,,,,,,,,,,,,,,,,,,,,,,,,,,,,,,,,,,,,,,,,,,,,,,76YD,001,2023_May_05_1157,ExactRep-v3-final,2021.2.3,59.96519596317314,
,,,,,,,,0,0,0,0,,,,,,,,,,,,,,,,,,,,,,,,,,,,,,,,,,,,,,,,,,,,,,,,,,,,,398.81910259928554,None,,,,,,,,,,,,,,,,,,,,,,,371.00487269926816,None,371.00487269926816,None,371.00487269926816,None,371.00487269926816,None,371.00487269926816,None,371.00487269926816,None,beast,76,1,silent,white,396.8087764997035,None,None,396.8087764997035,None,,,,,,,,,,,,,,,,,,,,,,,,,,,,,,76YD,001,2023_May_05_1157,ExactRep-v3-final,2021.2.3,59.96519596317314,
,,,,,,,,1,0,1,0,,,,,,,,,,,,,,,,,,,,,,,,,,,,,,,,,,,,,,,,,,,,,,,,,,,,,401.33793979976326,None,,,,,,,,,,,,,,,,,,,,,,,,,,,,,,,,,,,flood,118,2,aloud,blue,399.32392519991845,None,None,399.32392519991845,None,,,,,,,,,,,,,,,,,,,,,,,,,,,,,,76YD,001,2023_May_05_1157,ExactRep-v3-final,2021.2.3,59.96519596317314,
,,,,,,,,2,0,2,0,,,,,,,,,,,,,,,,,,,,,,,,,,,,,,,,,,,,,,,,,,,,,,,,,,,,,403.85712289996445,None,,,,,,,,,,,,,,,,,,,,,,,,,,,,,,,,,,,child,116,3,aloud,blue,401.8439074996859,None,None,401.8439074996859,None,,,,,,,,,,,,,,,,,,,,,,,,,,,,,,76YD,001,2023_May_05_1157,ExactRep-v3-final,2021.2.3,59.96519596317314,
,,,,,,,,3,0,3,0,,,,,,,,,,,,,,,,,,,,,,,,,,,,,,,,,,,,,,,,,,,,,,,,,,,,,406.37639469932765,None,,,,,,,,,,,,,,,,,,,,,,,,,,,,,,,,,,,artist,74,4,silent,white,404.3615705994889,None,None,404.3615705994889,None,,,,,,,,,,,,,,,,,,,,,,,,,,,,,,76YD,001,2023_May_05_1157,ExactRep-v3-final,2021.2.3,59.96519596317314,
,,,,,,,,4,0,4,0,,,,,,,,,,,,,,,,,,,,,,,,,,,,,,,,,,,,,,,,,,,,,,,,,,,,,408.87905179988593,None,,,,,,,,,,,,,,,,,,,,,,,,,,,,,,,,,,,cottage,97,5,aloud,blue,406.87693629972637,None,None,406.87693629972637,None,,,,,,,,,,,,,,,,,,,,,,,,,,,,,,76YD,001,2023_May_05_1157,ExactRep-v3-final,2021.2.3,59.96519596317314,
,,,,,,,,5,0,5,0,,,,,,,,,,,,,,,,,,,,,,,,,,,,,,,,,,,,,,,,,,,,,,,,,,,,,411.3979310998693,None,,,,,,,,,,,,,,,,,,,,,,,,,,,,,,,,,,,colony,88,6,aloud,blue,409.38387289922684,None,None,409.38387289922684,None,,,,,,,,,,,,,,,,,,,,,,,,,,,,,,76YD,001,2023_May_05_1157,ExactRep-v3-final,2021.2.3,59.96519596317314,
,,,,,,,,6,0,6,0,,,,,,,,,,,,,,,,,,,,,,,,,,,,,,,,,,,,,,,,,,,,,,,,,,,,,413.90064029954374,None,,,,,,,,,,,,,,,,,,,,,,,,,,,,,,,,,,,table,106,7,aloud,blue,411.8984788991511,None,None,411.8984788991511,None,,,,,,,,,,,,,,,,,,,,,,,,,,,,,,76YD,001,2023_May_05_1157,ExactRep-v3-final,2021.2.3,59.96519596317314,
,,,,,,,,7,0,7,0,,,,,,,,,,,,,,,,,,,,,,,,,,,,,,,,,,,,,,,,,,,,,,,,,,,,,416.41982219927013,None,,,,,,,,,,,,,,,,,,,,,,,,,,,,,,,,,,,lad,114,8,aloud,blue,414.4070150991902,None,None,414.4070150991902,None,,,,,,,,,,,,,,,,,,,,,,,,,,,,,,76YD,001,2023_May_05_1157,ExactRep-v3-final,2021.2.3,59.96519596317314,
,,,,,,,,8,0,8,0,,,,,,,,,,,,,,,,,,,,,,,,,,,,,,,,,,,,,,,,,,,,,,,,,,,,,418.93901009950787,None,,,,,,,,,,,,,,,,,,,,,,,,,,,,,,,,,,,moment,18,9,sing,red,416.9388159997761,None,None,416.9388159997761,None,,,,,,,,,,,,,,,,,,,,,,,,,,,,,,76YD,001,2023_May_05_1157,ExactRep-v3-final,2021.2.3,59.96519596317314,
,,,,,,,,9,0,9,0,,,,,,,,,,,,,,,,,,,,,,,,,,,,,,,,,,,,,,,,,,,,,,,,,,,,,421.46014499943703,None,,,,,,,,,,,,,,,,,,,,,,,,,,,,,,,,,,,meadow,23,10,sing,red,419.4433593992144,None,None,419.4433593992144,None,,,,,,,,,,,,,,,,,,,,,,,,,,,,,,76YD,001,2023_May_05_1157,ExactRep-v3-final,2021.2.3,59.96519596317314,
,,,,,,,,10,0,10,0,,,,,,,,,,,,,,,,,,,,,,,,,,,,,,,,,,,,,,,,,,,,,,,,,,,,,423.97720499988645,None,,,,,,,,,,,,,,,,,,,,,,,,,,,,,,,,,,,tool,95,11,aloud,blue,421.96375589910895,None,None,421.96375589910895,None,,,,,,,,,,,,,,,,,,,,,,,,,,,,,,76YD,001,2023_May_05_1157,ExactRep-v3-final,2021.2.3,59.96519596317314,
,,,,,,,,11,0,11,0,,,,,,,,,,,,,,,,,,,,,,,,,,,,,,,,,,,,,,,,,,,,,,,,,,,,,426.48002059943974,None,,,,,,,,,,,,,,,,,,,,,,,,,,,,,,,,,,,cost,37,12,sing,red,424.4777704998851,None,None,424.4777704998851,None,,,,,,,,,,,,,,,,,,,,,,,,,,,,,,76YD,001,2023_May_05_1157,ExactRep-v3-final,2021.2.3,59.96519596317314,
,,,,,,,,12,0,12,0,,,,,,,,,,,,,,,,,,,,,,,,,,,,,,,,,,,,,,,,,,,,,,,,,,,,,428.9823963996023,None,,,,,,,,,,,,,,,,,,,,,,,,,,,,,,,,,,,gift,8,13,sing,red,426.9821686996147,None,None,426.9821686996147,None,,,,,,,,,,,,,,,,,,,,,,,,,,,,,,76YD,001,2023_May_05_1157,ExactRep-v3-final,2021.2.3,59.96519596317314,
,,,,,,,,13,0,13,0,,,,,,,,,,,,,,,,,,,,,,,,,,,,,,,,,,,,,,,,,,,,,,,,,,,,,431.5013822996989,None,,,,,,,,,,,,,,,,,,,,,,,,,,,,,,,,,,,butter,78,14,silent,white,429.49240210000426,None,None,429.49240210000426,None,,,,,,,,,,,,,,,,,,,,,,,,,,,,,,76YD,001,2023_May_05_1157,ExactRep-v3-final,2021.2.3,59.96519596317314,
,,,,,,,,14,0,14,0,,,,,,,,,,,,,,,,,,,,,,,,,,,,,,,,,,,,,,,,,,,,,,,,,,,,,434.0039111999795,None,,,,,,,,,,,,,,,,,,,,,,,,,,,,,,,,,,,green,19,15,sing,red,432.0017591994256,None,None,432.0017591994256,None,,,,,,,,,,,,,,,,,,,,,,,,,,,,,,76YD,001,2023_May_05_1157,ExactRep-v3-final,2021.2.3,59.96519596317314,
,,,,,,,,15,0,15,0,,,,,,,,,,,,,,,,,,,,,,,,,,,,,,,,,,,,,,,,,,,,,,,,,,,,,436.52290949970484,None,,,,,,,,,,,,,,,,,,,,,,,,,,,,,,,,,,,pipe,7,16,sing,red,434.5102675994858,None,None,434.5102675994858,None,,,,,,,,,,,,,,,,,,,,,,,,,,,,,,76YD,001,2023_May_05_1157,ExactRep-v3-final,2021.2.3,59.96519596317314,
,,,,,,,,16,0,16,0,,,,,,,,,,,,,,,,,,,,,,,,,,,,,,,,,,,,,,,,,,,,,,,,,,,,,439.0424857996404,None,,,,,,,,,,,,,,,,,,,,,,,,,,,,,,,,,,,coffee,63,17,silent,white,437.03229229990393,None,None,437.03229229990393,None,,,,,,,,,,,,,,,,,,,,,,,,,,,,,,76YD,001,2023_May_05_1157,ExactRep-v3-final,2021.2.3,59.96519596317314,
,,,,,,,,17,0,17,0,,,,,,,,,,,,,,,,,,,,,,,,,,,,,,,,,,,,,,,,,,,,,,,,,,,,,441.56144429929554,None,,,,,,,,,,,,,,,,,,,,,,,,,,,,,,,,,,,wife,83,18,aloud,blue,439.5469652991742,None,None,439.5469652991742,None,,,,,,,,,,,,,,,,,,,,,,,,,,,,,,76YD,001,2023_May_05_1157,ExactRep-v3-final,2021.2.3,59.96519596317314,
,,,,,,,,18,0,18,0,,,,,,,,,,,,,,,,,,,,,,,,,,,,,,,,,,,,,,,,,,,,,,,,,,,,,444.080769199878,None,,,,,,,,,,,,,,,,,,,,,,,,,,,,,,,,,,,bottle,14,19,sing,red,442.0706476997584,None,None,442.0706476997584,None,,,,,,,,,,,,,,,,,,,,,,,,,,,,,,76YD,001,2023_May_05_1157,ExactRep-v3-final,2021.2.3,59.96519596317314,
,,,,,,,,19,0,19,0,,,,,,,,,,,,,,,,,,,,,,,,,,,,,,,,,,,,,,,,,,,,,,,,,,,,,446.59979309979826,None,,,,,,,,,,,,,,,,,,,,,,,,,,,,,,,,,,,dream,81,20,aloud,blue,444.5843253992498,None,None,444.5843253992498,None,,,,,,,,,,,,,,,,,,,,,,,,,,,,,,76YD,001,2023_May_05_1157,ExactRep-v3-final,2021.2.3,59.96519596317314,
,,,,,,,,20,0,20,0,,,,,,,,,,,,,,,,,,,,,,,,,,,,,,,,,,,,,,,,,,,,,,,,,,,,,449.1025445992127,None,,,,,,,,,,,,,,,,,,,,,,,,,,,,,,,,,,,blossom,49,21,silent,white,447.10032959934324,None,None,447.10032959934324,None,,,,,,,,,,,,,,,,,,,,,,,,,,,,,,76YD,001,2023_May_05_1157,ExactRep-v3-final,2021.2.3,59.96519596317314,
,,,,,,,,21,0,21,0,,,,,,,,,,,,,,,,,,,,,,,,,,,,,,,,,,,,,,,,,,,,,,,,,,,,,451.6056591998786,None,,,,,,,,,,,,,,,,,,,,,,,,,,,,,,,,,,,fire,119,22,aloud,blue,449.602899399586,None,None,449.602899399586,None,,,,,,,,,,,,,,,,,,,,,,,,,,,,,,76YD,001,2023_May_05_1157,ExactRep-v3-final,2021.2.3,59.96519596317314,
,,,,,,,,22,0,22,0,,,,,,,,,,,,,,,,,,,,,,,,,,,,,,,,,,,,,,,,,,,,,,,,,,,,,454.1262302994728,None,,,,,,,,,,,,,,,,,,,,,,,,,,,,,,,,,,,excuse,35,23,sing,red,452.1123368991539,None,None,452.1123368991539,None,,,,,,,,,,,,,,,,,,,,,,,,,,,,,,76YD,001,2023_May_05_1157,ExactRep-v3-final,2021.2.3,59.96519596317314,
,,,,,,,,23,0,23,0,,,,,,,,,,,,,,,,,,,,,,,,,,,,,,,,,,,,,,,,,,,,,,,,,,,,,456.643396099098,None,,,,,,,,,,,,,,,,,,,,,,,,,,,,,,,,,,,troops,44,24,silent,white,454.6321828998625,None,None,454.6321828998625,None,,,,,,,,,,,,,,,,,,,,,,,,,,,,,,76YD,001,2023_May_05_1157,ExactRep-v3-final,2021.2.3,59.96519596317314,
,,,,,,,,24,0,24,0,,,,,,,,,,,,,,,,,,,,,,,,,,,,,,,,,,,,,,,,,,,,,,,,,,,,,459.1458848994225,None,,,,,,,,,,,,,,,,,,,,,,,,,,,,,,,,,,,pride,69,25,silent,white,457.14386919979006,None,None,457.14386919979006,None,,,,,,,,,,,,,,,,,,,,,,,,,,,,,,76YD,001,2023_May_05_1157,ExactRep-v3-final,2021.2.3,59.96519596317314,
,,,,,,,,25,0,25,0,,,,,,,,,,,,,,,,,,,,,,,,,,,,,,,,,,,,,,,,,,,,,,,,,,,,,461.6651054993272,None,,,,,,,,,,,,,,,,,,,,,,,,,,,,,,,,,,,anger,90,26,aloud,blue,459.65055929962546,None,None,459.65055929962546,None,,,,,,,,,,,,,,,,,,,,,,,,,,,,,,76YD,001,2023_May_05_1157,ExactRep-v3-final,2021.2.3,59.96519596317314,
,,,,,,,,26,0,26,0,,,,,,,,,,,,,,,,,,,,,,,,,,,,,,,,,,,,,,,,,,,,,,,,,,,,,464.1675576996058,None,,,,,,,,,,,,,,,,,,,,,,,,,,,,,,,,,,,murder,80,27,aloud,blue,462.16769199911505,None,None,462.16769199911505,None,,,,,,,,,,,,,,,,,,,,,,,,,,,,,,76YD,001,2023_May_05_1157,ExactRep-v3-final,2021.2.3,59.96519596317314,
,,,,,,,,27,0,27,0,,,,,,,,,,,,,,,,,,,,,,,,,,,,,,,,,,,,,,,,,,,,,,,,,,,,,466.6701183998957,None,,,,,,,,,,,,,,,,,,,,,,,,,,,,,,,,,,,product,86,28,aloud,blue,464.6708364998922,None,None,464.6708364998922,None,,,,,,,,,,,,,,,,,,,,,,,,,,,,,,76YD,001,2023_May_05_1157,ExactRep-v3-final,2021.2.3,59.96519596317314,
,,,,,,,,28,0,28,0,,,,,,,,,,,,,,,,,,,,,,,,,,,,,,,,,,,,,,,,,,,,,,,,,,,,,469.1733153993264,None,,,,,,,,,,,,,,,,,,,,,,,,,,,,,,,,,,,fate,99,29,aloud,blue,467.1726510999724,None,None,467.1726510999724,None,,,,,,,,,,,,,,,,,,,,,,,,,,,,,,76YD,001,2023_May_05_1157,ExactRep-v3-final,2021.2.3,59.96519596317314,
,,,,,,,,29,0,29,0,,,,,,,,,,,,,,,,,,,,,,,,,,,,,,,,,,,,,,,,,,,,,,,,,,,,,471.67496449965984,None,,,,,,,,,,,,,,,,,,,,,,,,,,,,,,,,,,,woman,28,30,sing,red,469.67521149944514,None,None,469.67521149944514,None,,,,,,,,,,,,,,,,,,,,,,,,,,,,,,76YD,001,2023_May_05_1157,ExactRep-v3-final,2021.2.3,59.96519596317314,
,,,,,,,,30,0,30,0,,,,,,,,,,,,,,,,,,,,,,,,,,,,,,,,,,,,,,,,,,,,,,,,,,,,,474.17739149928093,None,,,,,,,,,,,,,,,,,,,,,,,,,,,,,,,,,,,season,98,31,aloud,blue,472.17693219985813,None,None,472.17693219985813,None,,,,,,,,,,,,,,,,,,,,,,,,,,,,,,76YD,001,2023_May_05_1157,ExactRep-v3-final,2021.2.3,59.96519596317314,
,,,,,,,,31,0,31,0,,,,,,,,,,,,,,,,,,,,,,,,,,,,,,,,,,,,,,,,,,,,,,,,,,,,,476.6965480996296,None,,,,,,,,,,,,,,,,,,,,,,,,,,,,,,,,,,,valley,68,32,silent,white,474.68779649958014,None,None,474.68779649958014,None,,,,,,,,,,,,,,,,,,,,,,,,,,,,,,76YD,001,2023_May_05_1157,ExactRep-v3-final,2021.2.3,59.96519596317314,
,,,,,,,,32,0,32,0,,,,,,,,,,,,,,,,,,,,,,,,,,,,,,,,,,,,,,,,,,,,,,,,,,,,,479.2020948994905,None,,,,,,,,,,,,,,,,,,,,,,,,,,,,,,,,,,,leader,53,33,silent,white,477.1970533998683,None,None,477.1970533998683,None,,,,,,,,,,,,,,,,,,,,,,,,,,,,,,76YD,001,2023_May_05_1157,ExactRep-v3-final,2021.2.3,59.96519596317314,
,,,,,,,,33,0,33,0,,,,,,,,,,,,,,,,,,,,,,,,,,,,,,,,,,,,,,,,,,,,,,,,,,,,,481.71844859980047,None,,,,,,,,,,,,,,,,,,,,,,,,,,,,,,,,,,,lord,85,34,aloud,blue,479.71748589910567,None,None,479.71748589910567,None,,,,,,,,,,,,,,,,,,,,,,,,,,,,,,76YD,001,2023_May_05_1157,ExactRep-v3-final,2021.2.3,59.96519596317314,
,,,,,,,,34,0,34,0,,,,,,,,,,,,,,,,,,,,,,,,,,,,,,,,,,,,,,,,,,,,,,,,,,,,,484.2209567995742,None,,,,,,,,,,,,,,,,,,,,,,,,,,,,,,,,,,,earth,115,35,aloud,blue,482.2189538991079,None,None,482.2189538991079,None,,,,,,,,,,,,,,,,,,,,,,,,,,,,,,76YD,001,2023_May_05_1157,ExactRep-v3-final,2021.2.3,59.96519596317314,
,,,,,,,,35,0,35,0,,,,,,,,,,,,,,,,,,,,,,,,,,,,,,,,,,,,,,,,,,,,,,,,,,,,,486.72350759990513,None,,,,,,,,,,,,,,,,,,,,,,,,,,,,,,,,,,,winter,101,36,aloud,blue,484.7236429993063,None,None,484.7236429993063,None,,,,,,,,,,,,,,,,,,,,,,,,,,,,,,76YD,001,2023_May_05_1157,ExactRep-v3-final,2021.2.3,59.96519596317314,
,,,,,,,,36,0,36,0,,,,,,,,,,,,,,,,,,,,,,,,,,,,,,,,,,,,,,,,,,,,,,,,,,,,,489.24268089979887,None,,,,,,,,,,,,,,,,,,,,,,,,,,,,,,,,,,,woods,56,37,silent,white,487.23058009985834,None,None,487.23058009985834,None,,,,,,,,,,,,,,,,,,,,,,,,,,,,,,76YD,001,2023_May_05_1157,ExactRep-v3-final,2021.2.3,59.96519596317314,
,,,,,,,,37,0,37,0,,,,,,,,,,,,,,,,,,,,,,,,,,,,,,,,,,,,,,,,,,,,,,,,,,,,,491.7453228998929,None,,,,,,,,,,,,,,,,,,,,,,,,,,,,,,,,,,,chance,11,38,sing,red,489.74542039912194,None,None,489.74542039912194,None,,,,,,,,,,,,,,,,,,,,,,,,,,,,,,76YD,001,2023_May_05_1157,ExactRep-v3-final,2021.2.3,59.96519596317314,
,,,,,,,,38,0,38,0,,,,,,,,,,,,,,,,,,,,,,,,,,,,,,,,,,,,,,,,,,,,,,,,,,,,,494.24766219966114,None,,,,,,,,,,,,,,,,,,,,,,,,,,,,,,,,,,,avenue,103,39,aloud,blue,492.24556660000235,None,None,492.24556660000235,None,,,,,,,,,,,,,,,,,,,,,,,,,,,,,,76YD,001,2023_May_05_1157,ExactRep-v3-final,2021.2.3,59.96519596317314,
,,,,,,,,39,0,39,0,,,,,,,,,,,,,,,,,,,,,,,,,,,,,,,,,,,,,,,,,,,,,,,,,,,,,496.7502117995173,None,,,,,,,,,,,,,,,,,,,,,,,,,,,,,,,,,,,doctor,54,40,silent,white,494.75048379972577,None,None,494.75048379972577,None,,,,,,,,,,,,,,,,,,,,,,,,,,,,,,76YD,001,2023_May_05_1157,ExactRep-v3-final,2021.2.3,59.96519596317314,
,,,,,,,,40,0,40,0,,,,,,,,,,,,,,,,,,,,,,,,,,,,,,,,,,,,,,,,,,,,,,,,,,,,,499.2693202998489,None,,,,,,,,,,,,,,,,,,,,,,,,,,,,,,,,,,,apple,51,41,silent,white,497.25709859933704,None,None,497.25709859933704,None,,,,,,,,,,,,,,,,,,,,,,,,,,,,,,76YD,001,2023_May_05_1157,ExactRep-v3-final,2021.2.3,59.96519596317314,
,,,,,,,,41,0,41,0,,,,,,,,,,,,,,,,,,,,,,,,,,,,,,,,,,,,,,,,,,,,,,,,,,,,,501.77195669990033,None,,,,,,,,,,,,,,,,,,,,,,,,,,,,,,,,,,,corn,92,42,aloud,blue,499.76990299951285,None,None,499.76990299951285,None,,,,,,,,,,,,,,,,,,,,,,,,,,,,,,76YD,001,2023_May_05_1157,ExactRep-v3-final,2021.2.3,59.96519596317314,
,,,,,,,,42,0,42,0,,,,,,,,,,,,,,,,,,,,,,,,,,,,,,,,,,,,,,,,,,,,,,,,,,,,,504.2742025991902,None,,,,,,,,,,,,,,,,,,,,,,,,,,,,,,,,,,,time,52,43,silent,white,502.2749204998836,None,None,502.2749204998836,None,,,,,,,,,,,,,,,,,,,,,,,,,,,,,,76YD,001,2023_May_05_1157,ExactRep-v3-final,2021.2.3,59.96519596317314,
,,,,,,,,43,0,43,0,,,,,,,,,,,,,,,,,,,,,,,,,,,,,,,,,,,,,,,,,,,,,,,,,,,,,506.79359319992363,None,,,,,,,,,,,,,,,,,,,,,,,,,,,,,,,,,,,street,107,44,aloud,blue,504.78774279914796,None,None,504.78774279914796,None,,,,,,,,,,,,,,,,,,,,,,,,,,,,,,76YD,001,2023_May_05_1157,ExactRep-v3-final,2021.2.3,59.96519596317314,
,,,,,,,,44,0,44,0,,,,,,,,,,,,,,,,,,,,,,,,,,,,,,,,,,,,,,,,,,,,,,,,,,,,,509.2961190994829,None,,,,,,,,,,,,,,,,,,,,,,,,,,,,,,,,,,,shoes,59,45,silent,white,507.29376169946045,None,None,507.29376169946045,None,,,,,,,,,,,,,,,,,,,,,,,,,,,,,,76YD,001,2023_May_05_1157,ExactRep-v3-final,2021.2.3,59.96519596317314,
,,,,,,,,45,0,45,0,,,,,,,,,,,,,,,,,,,,,,,,,,,,,,,,,,,,,,,,,,,,,,,,,,,,,511.79866119939834,None,,,,,,,,,,,,,,,,,,,,,,,,,,,,,,,,,,,doll,66,46,silent,white,509.7963012997061,None,None,509.7963012997061,None,,,,,,,,,,,,,,,,,,,,,,,,,,,,,,76YD,001,2023_May_05_1157,ExactRep-v3-final,2021.2.3,59.96519596317314,
,,,,,,,,46,0,46,0,,,,,,,,,,,,,,,,,,,,,,,,,,,,,,,,,,,,,,,,,,,,,,,,,,,,,514.3179100994021,None,,,,,,,,,,,,,,,,,,,,,,,,,,,,,,,,,,,deed,70,47,silent,white,512.306686299853,None,None,512.306686299853,None,,,,,,,,,,,,,,,,,,,,,,,,,,,,,,76YD,001,2023_May_05_1157,ExactRep-v3-final,2021.2.3,59.96519596317314,
,,,,,,,,47,0,47,0,,,,,,,,,,,,,,,,,,,,,,,,,,,,,,,,,,,,,,,,,,,,,,,,,,,,,516.820025799796,None,,,,,,,,,,,,,,,,,,,,,,,,,,,,,,,,,,,cabin,100,48,aloud,blue,514.8193341996521,None,None,514.8193341996521,None,,,,,,,,,,,,,,,,,,,,,,,,,,,,,,76YD,001,2023_May_05_1157,ExactRep-v3-final,2021.2.3,59.96519596317314,
,,,,,,,,48,0,48,0,,,,,,,,,,,,,,,,,,,,,,,,,,,,,,,,,,,,,,,,,,,,,,,,,,,,,519.3226953996345,None,,,,,,,,,,,,,,,,,,,,,,,,,,,,,,,,,,,virtue,60,49,silent,white,517.3205239996314,None,None,517.3205239996314,None,,,,,,,,,,,,,,,,,,,,,,,,,,,,,,76YD,001,2023_May_05_1157,ExactRep-v3-final,2021.2.3,59.96519596317314,
,,,,,,,,49,0,49,0,,,,,,,,,,,,,,,,,,,,,,,,,,,,,,,,,,,,,,,,,,,,,,,,,,,,,521.8417089991271,None,,,,,,,,,,,,,,,,,,,,,,,,,,,,,,,,,,,king,45,50,silent,white,519.8303982997313,None,None,519.8303982997313,None,,,,,,,,,,,,,,,,,,,,,,,,,,,,,,76YD,001,2023_May_05_1157,ExactRep-v3-final,2021.2.3,59.96519596317314,
,,,,,,,,50,0,50,0,,,,,,,,,,,,,,,,,,,,,,,,,,,,,,,,,,,,,,,,,,,,,,,,,,,,,524.3445557998493,None,,,,,,,,,,,,,,,,,,,,,,,,,,,,,,,,,,,money,75,51,silent,white,522.3422606997192,None,None,522.3422606997192,None,,,,,,,,,,,,,,,,,,,,,,,,,,,,,,76YD,001,2023_May_05_1157,ExactRep-v3-final,2021.2.3,59.96519596317314,
,,,,,,,,51,0,51,0,,,,,,,,,,,,,,,,,,,,,,,,,,,,,,,,,,,,,,,,,,,,,,,,,,,,,526.8635884998366,None,,,,,,,,,,,,,,,,,,,,,,,,,,,,,,,,,,,river,50,52,silent,white,524.8508474994451,None,None,524.8508474994451,None,,,,,,,,,,,,,,,,,,,,,,,,,,,,,,76YD,001,2023_May_05_1157,ExactRep-v3-final,2021.2.3,59.96519596317314,
,,,,,,,,52,0,52,0,,,,,,,,,,,,,,,,,,,,,,,,,,,,,,,,,,,,,,,,,,,,,,,,,,,,,529.3660639999434,None,,,,,,,,,,,,,,,,,,,,,,,,,,,,,,,,,,,stone,24,53,sing,red,527.3639592994004,None,None,527.3639592994004,None,,,,,,,,,,,,,,,,,,,,,,,,,,,,,,76YD,001,2023_May_05_1157,ExactRep-v3-final,2021.2.3,59.96519596317314,
,,,,,,,,53,0,53,0,,,,,,,,,,,,,,,,,,,,,,,,,,,,,,,,,,,,,,,,,,,,,,,,,,,,,531.8853860991076,None,,,,,,,,,,,,,,,,,,,,,,,,,,,,,,,,,,,sugar,9,54,sing,red,529.8717828998342,None,None,529.8717828998342,None,,,,,,,,,,,,,,,,,,,,,,,,,,,,,,76YD,001,2023_May_05_1157,ExactRep-v3-final,2021.2.3,59.96519596317314,
,,,,,,,,54,0,54,0,,,,,,,,,,,,,,,,,,,,,,,,,,,,,,,,,,,,,,,,,,,,,,,,,,,,,534.4045140994713,None,,,,,,,,,,,,,,,,,,,,,,,,,,,,,,,,,,,freedom,91,55,aloud,blue,532.3894752999768,None,None,532.3894752999768,None,,,,,,,,,,,,,,,,,,,,,,,,,,,,,,76YD,001,2023_May_05_1157,ExactRep-v3-final,2021.2.3,59.96519596317314,
,,,,,,,,55,0,55,0,,,,,,,,,,,,,,,,,,,,,,,,,,,,,,,,,,,,,,,,,,,,,,,,,,,,,536.9234720999375,None,,,,,,,,,,,,,,,,,,,,,,,,,,,,,,,,,,,skin,25,56,sing,red,534.9078877000138,None,None,534.9078877000138,None,,,,,,,,,,,,,,,,,,,,,,,,,,,,,,76YD,001,2023_May_05_1157,ExactRep-v3-final,2021.2.3,59.96519596317314,
,,,,,,,,56,0,56,0,,,,,,,,,,,,,,,,,,,,,,,,,,,,,,,,,,,,,,,,,,,,,,,,,,,,,539.4428598992527,None,,,,,,,,,,,,,,,,,,,,,,,,,,,,,,,,,,,palace,3,57,sing,red,537.4308235999197,None,None,537.4308235999197,None,,,,,,,,,,,,,,,,,,,,,,,,,,,,,,76YD,001,2023_May_05_1157,ExactRep-v3-final,2021.2.3,59.96519596317314,
,,,,,,,,57,0,57,0,,,,,,,,,,,,,,,,,,,,,,,,,,,,,,,,,,,,,,,,,,,,,,,,,,,,,541.945423499681,None,,,,,,,,,,,,,,,,,,,,,,,,,,,,,,,,,,,rock,96,58,aloud,blue,539.9436534997076,None,None,539.9436534997076,None,,,,,,,,,,,,,,,,,,,,,,,,,,,,,,76YD,001,2023_May_05_1157,ExactRep-v3-final,2021.2.3,59.96519596317314,
,,,,,,,,58,0,58,0,,,,,,,,,,,,,,,,,,,,,,,,,,,,,,,,,,,,,,,,,,,,,,,,,,,,,544.4646419994533,None,,,,,,,,,,,,,,,,,,,,,,,,,,,,,,,,,,,board,58,59,silent,white,542.4539203997701,None,None,542.4539203997701,None,,,,,,,,,,,,,,,,,,,,,,,,,,,,,,76YD,001,2023_May_05_1157,ExactRep-v3-final,2021.2.3,59.96519596317314,
,,,,,,,,59,0,59,0,,,,,,,,,,,,,,,,,,,,,,,,,,,,,,,,,,,,,,,,,,,,,,,,,,,,,546.9669166998938,None,,,,,,,,,,,,,,,,,,,,,,,,,,,,,,,,,,,circle,4,60,sing,red,544.9650823995471,None,None,544.9650823995471,None,,,,,,,,,,,,,,,,,,,,,,,,,,,,,,76YD,001,2023_May_05_1157,ExactRep-v3-final,2021.2.3,59.96519596317314,
,,,,,,,,60,0,60,0,,,,,,,,,,,,,,,,,,,,,,,,,,,,,,,,,,,,,,,,,,,,,,,,,,,,,549.4862469993532,None,,,,,,,,,,,,,,,,,,,,,,,,,,,,,,,,,,,journal,20,61,sing,red,547.4781839996576,None,None,547.4781839996576,None,,,,,,,,,,,,,,,,,,,,,,,,,,,,,,76YD,001,2023_May_05_1157,ExactRep-v3-final,2021.2.3,59.96519596317314,
,,,,,,,,61,0,61,0,,,,,,,,,,,,,,,,,,,,,,,,,,,,,,,,,,,,,,,,,,,,,,,,,,,,,551.9885359993204,None,,,,,,,,,,,,,,,,,,,,,,,,,,,,,,,,,,,passion,105,62,aloud,blue,549.9866938991472,None,None,549.9866938991472,None,,,,,,,,,,,,,,,,,,,,,,,,,,,,,,76YD,001,2023_May_05_1157,ExactRep-v3-final,2021.2.3,59.96519596317314,
,,,,,,,,62,0,62,0,,,,,,,,,,,,,,,,,,,,,,,,,,,,,,,,,,,,,,,,,,,,,,,,,,,,,554.5080505991355,None,,,,,,,,,,,,,,,,,,,,,,,,,,,,,,,,,,,owner,10,63,sing,red,552.4928022995591,None,None,552.4928022995591,None,,,,,,,,,,,,,,,,,,,,,,,,,,,,,,76YD,001,2023_May_05_1157,ExactRep-v3-final,2021.2.3,59.96519596317314,
,,,,,,,,63,0,63,0,,,,,,,,,,,,,,,,,,,,,,,,,,,,,,,,,,,,,,,,,,,,,,,,,,,,,557.0103802997619,None,,,,,,,,,,,,,,,,,,,,,,,,,,,,,,,,,,,wine,1,64,sing,red,555.0081946998835,None,None,555.0081946998835,None,,,,,,,,,,,,,,,,,,,,,,,,,,,,,,76YD,001,2023_May_05_1157,ExactRep-v3-final,2021.2.3,59.96519596317314,
,,,,,,,,64,0,64,0,,,,,,,,,,,,,,,,,,,,,,,,,,,,,,,,,,,,,,,,,,,,,,,,,,,,,559.5129168992862,None,,,,,,,,,,,,,,,,,,,,,,,,,,,,,,,,,,,theory,61,65,silent,white,557.5107265999541,None,None,557.5107265999541,None,,,,,,,,,,,,,,,,,,,,,,,,,,,,,,76YD,001,2023_May_05_1157,ExactRep-v3-final,2021.2.3,59.96519596317314,
,,,,,,,,65,0,65,0,,,,,,,,,,,,,,,,,,,,,,,,,,,,,,,,,,,,,,,,,,,,,,,,,,,,,562.0154135990888,None,,,,,,,,,,,,,,,,,,,,,,,,,,,,,,,,,,,chief,46,66,silent,white,560.0152247995138,None,None,560.0152247995138,None,,,,,,,,,,,,,,,,,,,,,,,,,,,,,,76YD,001,2023_May_05_1157,ExactRep-v3-final,2021.2.3,59.96519596317314,
,,,,,,,,66,0,66,0,,,,,,,,,,,,,,,,,,,,,,,,,,,,,,,,,,,,,,,,,,,,,,,,,,,,,564.5345535995439,None,,,,,,,,,,,,,,,,,,,,,,,,,,,,,,,,,,,spirit,111,67,aloud,blue,562.5191248999909,None,None,562.5191248999909,None,,,,,,,,,,,,,,,,,,,,,,,,,,,,,,76YD,001,2023_May_05_1157,ExactRep-v3-final,2021.2.3,59.96519596317314,
,,,,,,,,67,0,67,0,,,,,,,,,,,,,,,,,,,,,,,,,,,,,,,,,,,,,,,,,,,,,,,,,,,,,567.0370884994045,None,,,,,,,,,,,,,,,,,,,,,,,,,,,,,,,,,,,home,43,68,silent,white,565.0350930998102,None,None,565.0350930998102,None,,,,,,,,,,,,,,,,,,,,,,,,,,,,,,76YD,001,2023_May_05_1157,ExactRep-v3-final,2021.2.3,59.96519596317314,
,,,,,,,,68,0,68,0,,,,,,,,,,,,,,,,,,,,,,,,,,,,,,,,,,,,,,,,,,,,,,,,,,,,,569.5559640992433,None,,,,,,,,,,,,,,,,,,,,,,,,,,,,,,,,,,,paper,112,69,aloud,blue,567.5414661997929,None,None,567.5414661997929,None,,,,,,,,,,,,,,,,,,,,,,,,,,,,,,76YD,001,2023_May_05_1157,ExactRep-v3-final,2021.2.3,59.96519596317314,
,,,,,,,,69,0,69,0,,,,,,,,,,,,,,,,,,,,,,,,,,,,,,,,,,,,,,,,,,,,,,,,,,,,,572.058799999766,None,,,,,,,,,,,,,,,,,,,,,,,,,,,,,,,,,,,hour,65,70,silent,white,570.0591120999306,None,None,570.0591120999306,None,,,,,,,,,,,,,,,,,,,,,,,,,,,,,,76YD,001,2023_May_05_1157,ExactRep-v3-final,2021.2.3,59.96519596317314,
,,,,,,,,70,0,70,0,,,,,,,,,,,,,,,,,,,,,,,,,,,,,,,,,,,,,,,,,,,,,,,,,,,,,574.57797679957,None,,,,,,,,,,,,,,,,,,,,,,,,,,,,,,,,,,,market,42,71,silent,white,572.5636952994391,None,None,572.5636952994391,None,,,,,,,,,,,,,,,,,,,,,,,,,,,,,,76YD,001,2023_May_05_1157,ExactRep-v3-final,2021.2.3,59.96519596317314,
,,,,,,,,71,0,71,0,,,,,,,,,,,,,,,,,,,,,,,,,,,,,,,,,,,,,,,,,,,,,,,,,,,,,577.0802360000089,None,,,,,,,,,,,,,,,,,,,,,,,,,,,,,,,,,,,fact,64,72,silent,white,575.0797200994566,None,None,575.0797200994566,None,,,,,,,,,,,,,,,,,,,,,,,,,,,,,,76YD,001,2023_May_05_1157,ExactRep-v3-final,2021.2.3,59.96519596317314,
,,,,,,,,72,0,72,0,,,,,,,,,,,,,,,,,,,,,,,,,,,,,,,,,,,,,,,,,,,,,,,,,,,,,579.5830395994708,None,,,,,,,,,,,,,,,,,,,,,,,,,,,,,,,,,,,brain,13,73,sing,red,577.5808293996379,None,None,577.5808293996379,None,,,,,,,,,,,,,,,,,,,,,,,,,,,,,,76YD,001,2023_May_05_1157,ExactRep-v3-final,2021.2.3,59.96519596317314,
,,,,,,,,73,0,73,0,,,,,,,,,,,,,,,,,,,,,,,,,,,,,,,,,,,,,,,,,,,,,,,,,,,,,582.0852460991591,None,,,,,,,,,,,,,,,,,,,,,,,,,,,,,,,,,,,maiden,40,74,silent,white,580.0850261999294,None,None,580.0850261999294,None,,,,,,,,,,,,,,,,,,,,,,,,,,,,,,76YD,001,2023_May_05_1157,ExactRep-v3-final,2021.2.3,59.96519596317314,
,,,,,,,,74,0,74,0,,,,,,,,,,,,,,,,,,,,,,,,,,,,,,,,,,,,,,,,,,,,,,,,,,,,,584.587970899418,None,,,,,,,,,,,,,,,,,,,,,,,,,,,,,,,,,,,letter,93,75,aloud,blue,582.5859918994829,None,None,582.5859918994829,None,,,,,,,,,,,,,,,,,,,,,,,,,,,,,,76YD,001,2023_May_05_1157,ExactRep-v3-final,2021.2.3,59.96519596317314,
,,,,,,,,75,0,75,0,,,,,,,,,,,,,,,,,,,,,,,,,,,,,,,,,,,,,,,,,,,,,,,,,,,,,587.0904851993546,None,,,,,,,,,,,,,,,,,,,,,,,,,,,,,,,,,,,boulder,113,76,aloud,blue,585.0913936998695,None,None,585.0913936998695,None,,,,,,,,,,,,,,,,,,,,,,,,,,,,,,76YD,001,2023_May_05_1157,ExactRep-v3-final,2021.2.3,59.96519596317314,
,,,,,,,,76,0,76,0,,,,,,,,,,,,,,,,,,,,,,,,,,,,,,,,,,,,,,,,,,,,,,,,,,,,,589.6096377996728,None,,,,,,,,,,,,,,,,,,,,,,,,,,,,,,,,,,,potato,82,77,aloud,blue,587.5942294998094,None,None,587.5942294998094,None,,,,,,,,,,,,,,,,,,,,,,,,,,,,,,76YD,001,2023_May_05_1157,ExactRep-v3-final,2021.2.3,59.96519596317314,
,,,,,,,,77,0,77,0,,,,,,,,,,,,,,,,,,,,,,,,,,,,,,,,,,,,,,,,,,,,,,,,,,,,,592.1120550995693,None,,,,,,,,,,,,,,,,,,,,,,,,,,,,,,,,,,,answer,0,78,sing,red,590.1101606991142,None,None,590.1101606991142,None,,,,,,,,,,,,,,,,,,,,,,,,,,,,,,76YD,001,2023_May_05_1157,ExactRep-v3-final,2021.2.3,59.96519596317314,
,,,,,,,,78,0,78,0,,,,,,,,,,,,,,,,,,,,,,,,,,,,,,,,,,,,,,,,,,,,,,,,,,,,,594.6313205994666,None,,,,,,,,,,,,,,,,,,,,,,,,,,,,,,,,,,,safety,22,79,sing,red,592.6221611993387,None,None,592.6221611993387,None,,,,,,,,,,,,,,,,,,,,,,,,,,,,,,76YD,001,2023_May_05_1157,ExactRep-v3-final,2021.2.3,59.96519596317314,
,,,,,,,,79,0,79,0,,,,,,,,,,,,,,,,,,,,,,,,,,,,,,,,,,,,,,,,,,,,,,,,,,,,,597.1339434999973,None,,,,,,,,,,,,,,,,,,,,,,,,,,,,,,,,,,,hide,39,80,silent,white,595.1318604992703,None,None,595.1318604992703,None,,,,,,,,,,,,,,,,,,,,,,,,,,,,,,76YD,001,2023_May_05_1157,ExactRep-v3-final,2021.2.3,59.96519596317314,
,,,,,,,,80,0,80,0,,,,,,,,,,,,,,,,,,,,,,,,,,,,,,,,,,,,,,,,,,,,,,,,,,,,,599.6363744996488,None,,,,,,,,,,,,,,,,,,,,,,,,,,,,,,,,,,,star,31,81,sing,red,597.6344218999147,None,None,597.6344218999147,None,,,,,,,,,,,,,,,,,,,,,,,,,,,,,,76YD,001,2023_May_05_1157,ExactRep-v3-final,2021.2.3,59.96519596317314,
,,,,,,,,81,0,81,0,,,,,,,,,,,,,,,,,,,,,,,,,,,,,,,,,,,,,,,,,,,,,,,,,,,,,602.1555510992184,None,,,,,,,,,,,,,,,,,,,,,,,,,,,,,,,,,,,machine,41,82,silent,white,600.140047699213,None,None,600.140047699213,None,,,,,,,,,,,,,,,,,,,,,,,,,,,,,,76YD,001,2023_May_05_1157,ExactRep-v3-final,2021.2.3,59.96519596317314,
,,,,,,,,82,0,82,0,,,,,,,,,,,,,,,,,,,,,,,,,,,,,,,,,,,,,,,,,,,,,,,,,,,,,604.6579660996795,None,,,,,,,,,,,,,,,,,,,,,,,,,,,,,,,,,,,kiss,27,83,sing,red,602.6570201991126,None,None,602.6570201991126,None,,,,,,,,,,,,,,,,,,,,,,,,,,,,,,76YD,001,2023_May_05_1157,ExactRep-v3-final,2021.2.3,59.96519596317314,
,,,,,,,,83,0,83,0,,,,,,,,,,,,,,,,,,,,,,,,,,,,,,,,,,,,,,,,,,,,,,,,,,,,,607.1605497999117,None,,,,,,,,,,,,,,,,,,,,,,,,,,,,,,,,,,,shore,84,84,aloud,blue,605.1602326994762,None,None,605.1602326994762,None,,,,,,,,,,,,,,,,,,,,,,,,,,,,,,76YD,001,2023_May_05_1157,ExactRep-v3-final,2021.2.3,59.96519596317314,
,,,,,,,,84,0,84,0,,,,,,,,,,,,,,,,,,,,,,,,,,,,,,,,,,,,,,,,,,,,,,,,,,,,,609.6797864995897,None,,,,,,,,,,,,,,,,,,,,,,,,,,,,,,,,,,,dollar,102,85,aloud,blue,607.6745906993747,None,None,607.6745906993747,None,,,,,,,,,,,,,,,,,,,,,,,,,,,,,,76YD,001,2023_May_05_1157,ExactRep-v3-final,2021.2.3,59.96519596317314,
,,,,,,,,85,0,85,0,,,,,,,,,,,,,,,,,,,,,,,,,,,,,,,,,,,,,,,,,,,,,,,,,,,,,612.1989126997069,None,,,,,,,,,,,,,,,,,,,,,,,,,,,,,,,,,,,plant,57,86,silent,white,610.1867615999654,None,None,610.1867615999654,None,,,,,,,,,,,,,,,,,,,,,,,,,,,,,,76YD,001,2023_May_05_1157,ExactRep-v3-final,2021.2.3,59.96519596317314,
,,,,,,,,86,0,86,0,,,,,,,,,,,,,,,,,,,,,,,,,,,,,,,,,,,,,,,,,,,,,,,,,,,,,614.7014761995524,None,,,,,,,,,,,,,,,,,,,,,,,,,,,,,,,,,,,amount,38,87,sing,red,612.6994324997067,None,None,612.6994324997067,None,,,,,,,,,,,,,,,,,,,,,,,,,,,,,,76YD,001,2023_May_05_1157,ExactRep-v3-final,2021.2.3,59.96519596317314,
,,,,,,,,87,0,87,0,,,,,,,,,,,,,,,,,,,,,,,,,,,,,,,,,,,,,,,,,,,,,,,,,,,,,617.2206503991038,None,,,,,,,,,,,,,,,,,,,,,,,,,,,,,,,,,,,army,29,88,sing,red,615.2086977995932,None,None,615.2086977995932,None,,,,,,,,,,,,,,,,,,,,,,,,,,,,,,76YD,001,2023_May_05_1157,ExactRep-v3-final,2021.2.3,59.96519596317314,
,,,,,,,,88,0,88,0,,,,,,,,,,,,,,,,,,,,,,,,,,,,,,,,,,,,,,,,,,,,,,,,,,,,,619.7231791997328,None,,,,,,,,,,,,,,,,,,,,,,,,,,,,,,,,,,,horse,104,89,aloud,blue,617.7223048992455,None,None,617.7223048992455,None,,,,,,,,,,,,,,,,,,,,,,,,,,,,,,76YD,001,2023_May_05_1157,ExactRep-v3-final,2021.2.3,59.96519596317314,
,,,,,,,,89,0,89,0,,,,,,,,,,,,,,,,,,,,,,,,,,,,,,,,,,,,,,,,,,,,,,,,,,,,,622.2424059994519,None,,,,,,,,,,,,,,,,,,,,,,,,,,,,,,,,,,,cattle,73,90,silent,white,620.2269754000008,None,None,620.2269754000008,None,,,,,,,,,,,,,,,,,,,,,,,,,,,,,,76YD,001,2023_May_05_1157,ExactRep-v3-final,2021.2.3,59.96519596317314,
,,,,,,,,90,0,90,0,,,,,,,,,,,,,,,,,,,,,,,,,,,,,,,,,,,,,,,,,,,,,,,,,,,,,624.7448301995173,None,,,,,,,,,,,,,,,,,,,,,,,,,,,,,,,,,,,body,55,91,silent,white,622.7427330994979,None,None,622.7427330994979,None,,,,,,,,,,,,,,,,,,,,,,,,,,,,,,76YD,001,2023_May_05_1157,ExactRep-v3-final,2021.2.3,59.96519596317314,
,,,,,,,,91,0,91,0,,,,,,,,,,,,,,,,,,,,,,,,,,,,,,,,,,,,,,,,,,,,,,,,,,,,,627.2473786994815,None,,,,,,,,,,,,,,,,,,,,,,,,,,,,,,,,,,,present,117,92,aloud,blue,625.2451467998326,None,None,625.2451467998326,None,,,,,,,,,,,,,,,,,,,,,,,,,,,,,,76YD,001,2023_May_05_1157,ExactRep-v3-final,2021.2.3,59.96519596317314,
,,,,,,,,92,0,92,0,,,,,,,,,,,,,,,,,,,,,,,,,,,,,,,,,,,,,,,,,,,,,,,,,,,,,629.7498130993918,None,,,,,,,,,,,,,,,,,,,,,,,,,,,,,,,,,,,water,89,93,aloud,blue,627.7498299991712,None,None,627.7498299991712,None,,,,,,,,,,,,,,,,,,,,,,,,,,,,,,76YD,001,2023_May_05_1157,ExactRep-v3-final,2021.2.3,59.96519596317314,
,,,,,,,,93,0,93,0,,,,,,,,,,,,,,,,,,,,,,,,,,,,,,,,,,,,,,,,,,,,,,,,,,,,,632.2689023995772,None,,,,,,,,,,,,,,,,,,,,,,,,,,,,,,,,,,,coin,30,94,sing,red,630.259982299991,None,None,630.259982299991,None,,,,,,,,,,,,,,,,,,,,,,,,,,,,,,76YD,001,2023_May_05_1157,ExactRep-v3-final,2021.2.3,59.96519596317314,
,,,,,,,,94,0,94,0,,,,,,,,,,,,,,,,,,,,,,,,,,,,,,,,,,,,,,,,,,,,,,,,,,,,,634.7713450994343,None,,,,,,,,,,,,,,,,,,,,,,,,,,,,,,,,,,,charm,17,95,sing,red,632.7693495992571,None,None,632.7693495992571,None,,,,,,,,,,,,,,,,,,,,,,,,,,,,,,76YD,001,2023_May_05_1157,ExactRep-v3-final,2021.2.3,59.96519596317314,
,,,,,,,,95,0,95,0,,,,,,,,,,,,,,,,,,,,,,,,,,,,,,,,,,,,,,,,,,,,,,,,,,,,,637.2740341993049,None,,,,,,,,,,,,,,,,,,,,,,,,,,,,,,,,,,,humour,109,96,aloud,blue,635.2750933999196,None,None,635.2750933999196,None,,,,,,,,,,,,,,,,,,,,,,,,,,,,,,76YD,001,2023_May_05_1157,ExactRep-v3-final,2021.2.3,59.96519596317314,
,,,,,,,,96,0,96,0,,,,,,,,,,,,,,,,,,,,,,,,,,,,,,,,,,,,,,,,,,,,,,,,,,,,,639.7932357992977,None,,,,,,,,,,,,,,,,,,,,,,,,,,,,,,,,,,,picture,32,97,sing,red,637.778192400001,None,None,637.778192400001,None,,,,,,,,,,,,,,,,,,,,,,,,,,,,,,76YD,001,2023_May_05_1157,ExactRep-v3-final,2021.2.3,59.96519596317314,
,,,,,,,,97,0,97,0,,,,,,,,,,,,,,,,,,,,,,,,,,,,,,,,,,,,,,,,,,,,,,,,,,,,,642.2956966999918,None,,,,,,,,,,,,,,,,,,,,,,,,,,,,,,,,,,,toy,33,98,sing,red,640.2935749990866,None,None,640.2935749990866,None,,,,,,,,,,,,,,,,,,,,,,,,,,,,,,76YD,001,2023_May_05_1157,ExactRep-v3-final,2021.2.3,59.96519596317314,
,,,,,,,,98,0,98,0,,,,,,,,,,,,,,,,,,,,,,,,,,,,,,,,,,,,,,,,,,,,,,,,,,,,,644.8149062991142,None,,,,,,,,,,,,,,,,,,,,,,,,,,,,,,,,,,,custom,34,99,sing,red,642.8003456993029,None,None,642.8003456993029,None,,,,,,,,,,,,,,,,,,,,,,,,,,,,,,76YD,001,2023_May_05_1157,ExactRep-v3-final,2021.2.3,59.96519596317314,
,,,,,,,,99,0,99,0,,,,,,,,,,,,,,,,,,,,,,,,,,,,,,,,,,,,,,,,,,,,,,,,,,,,,647.3170308992267,None,,,,,,,,,,,,,,,,,,,,,,,,,,,,,,,,,,,mercy,62,100,silent,white,645.3152652997524,None,None,645.3152652997524,None,,,,,,,,,,,,,,,,,,,,,,,,,,,,,,76YD,001,2023_May_05_1157,ExactRep-v3-final,2021.2.3,59.96519596317314,
,,,,,,,,100,0,100,0,,,,,,,,,,,,,,,,,,,,,,,,,,,,,,,,,,,,,,,,,,,,,,,,,,,,,649.8365738997236,None,,,,,,,,,,,,,,,,,,,,,,,,,,,,,,,,,,,meat,110,101,aloud,blue,647.8263471992686,None,None,647.8263471992686,None,,,,,,,,,,,,,,,,,,,,,,,,,,,,,,76YD,001,2023_May_05_1157,ExactRep-v3-final,2021.2.3,59.96519596317314,
,,,,,,,,101,0,101,0,,,,,,,,,,,,,,,,,,,,,,,,,,,,,,,,,,,,,,,,,,,,,,,,,,,,,652.3391631999984,None,,,,,,,,,,,,,,,,,,,,,,,,,,,,,,,,,,,meeting,48,102,silent,white,650.3382655996829,None,None,650.3382655996829,None,,,,,,,,,,,,,,,,,,,,,,,,,,,,,,76YD,001,2023_May_05_1157,ExactRep-v3-final,2021.2.3,59.96519596317314,
,,,,,,,,102,0,102,0,,,,,,,,,,,,,,,,,,,,,,,,,,,,,,,,,,,,,,,,,,,,,,,,,,,,,654.8415623996407,None,,,,,,,,,,,,,,,,,,,,,,,,,,,,,,,,,,,girl,71,103,silent,white,652.8393945991993,None,None,652.8393945991993,None,,,,,,,,,,,,,,,,,,,,,,,,,,,,,,76YD,001,2023_May_05_1157,ExactRep-v3-final,2021.2.3,59.96519596317314,
,,,,,,,,103,0,103,0,,,,,,,,,,,,,,,,,,,,,,,,,,,,,,,,,,,,,,,,,,,,,,,,,,,,,657.3438778994605,None,,,,,,,,,,,,,,,,,,,,,,,,,,,,,,,,,,,engine,72,104,silent,white,655.3447025995702,None,None,655.3447025995702,None,,,,,,,,,,,,,,,,,,,,,,,,,,,,,,76YD,001,2023_May_05_1157,ExactRep-v3-final,2021.2.3,59.96519596317314,
,,,,,,,,104,0,104,0,,,,,,,,,,,,,,,,,,,,,,,,,,,,,,,,,,,,,,,,,,,,,,,,,,,,,659.8465546993539,None,,,,,,,,,,,,,,,,,,,,,,,,,,,,,,,,,,,disease,108,105,aloud,blue,657.8444654997438,None,None,657.8444654997438,None,,,,,,,,,,,,,,,,,,,,,,,,,,,,,,76YD,001,2023_May_05_1157,ExactRep-v3-final,2021.2.3,59.96519596317314,
,,,,,,,,105,0,105,0,,,,,,,,,,,,,,,,,,,,,,,,,,,,,,,,,,,,,,,,,,,,,,,,,,,,,662.3655832996592,None,,,,,,,,,,,,,,,,,,,,,,,,,,,,,,,,,,,clock,47,106,silent,white,660.3517400994897,None,None,660.3517400994897,None,,,,,,,,,,,,,,,,,,,,,,,,,,,,,,76YD,001,2023_May_05_1157,ExactRep-v3-final,2021.2.3,59.96519596317314,
,,,,,,,,106,0,106,0,,,,,,,,,,,,,,,,,,,,,,,,,,,,,,,,,,,,,,,,,,,,,,,,,,,,,664.8682815991342,None,,,,,,,,,,,,,,,,,,,,,,,,,,,,,,,,,,,blood,5,107,sing,red,662.8660804992542,None,None,662.8660804992542,None,,,,,,,,,,,,,,,,,,,,,,,,,,,,,,76YD,001,2023_May_05_1157,ExactRep-v3-final,2021.2.3,59.96519596317314,
,,,,,,,,107,0,107,0,,,,,,,,,,,,,,,,,,,,,,,,,,,,,,,,,,,,,,,,,,,,,,,,,,,,,667.3874452998862,None,,,,,,,,,,,,,,,,,,,,,,,,,,,,,,,,,,,memory,12,108,sing,red,665.3722425997257,None,None,665.3722425997257,None,,,,,,,,,,,,,,,,,,,,,,,,,,,,,,76YD,001,2023_May_05_1157,ExactRep-v3-final,2021.2.3,59.96519596317314,
,,,,,,,,108,0,108,0,,,,,,,,,,,,,,,,,,,,,,,,,,,,,,,,,,,,,,,,,,,,,,,,,,,,,669.9066420998424,None,,,,,,,,,,,,,,,,,,,,,,,,,,,,,,,,,,,library,16,109,sing,red,667.892721099779,None,None,667.892721099779,None,,,,,,,,,,,,,,,,,,,,,,,,,,,,,,76YD,001,2023_May_05_1157,ExactRep-v3-final,2021.2.3,59.96519596317314,
,,,,,,,,109,0,109,0,,,,,,,,,,,,,,,,,,,,,,,,,,,,,,,,,,,,,,,,,,,,,,,,,,,,,672.4259194992483,None,,,,,,,,,,,,,,,,,,,,,,,,,,,,,,,,,,,poet,77,110,silent,white,670.4105120999739,None,None,670.4105120999739,None,,,,,,,,,,,,,,,,,,,,,,,,,,,,,,76YD,001,2023_May_05_1157,ExactRep-v3-final,2021.2.3,59.96519596317314,
,,,,,,,,110,0,110,0,,,,,,,,,,,,,,,,,,,,,,,,,,,,,,,,,,,,,,,,,,,,,,,,,,,,,674.9283611997962,None,,,,,,,,,,,,,,,,,,,,,,,,,,,,,,,,,,,officer,6,111,sing,red,672.9285534992814,None,None,672.9285534992814,None,,,,,,,,,,,,,,,,,,,,,,,,,,,,,,76YD,001,2023_May_05_1157,ExactRep-v3-final,2021.2.3,59.96519596317314,
,,,,,,,,111,0,111,0,,,,,,,,,,,,,,,,,,,,,,,,,,,,,,,,,,,,,,,,,,,,,,,,,,,,,677.4308221992105,None,,,,,,,,,,,,,,,,,,,,,,,,,,,,,,,,,,,prison,2,112,sing,red,675.4286794997752,None,None,675.4286794997752,None,,,,,,,,,,,,,,,,,,,,,,,,,,,,,,76YD,001,2023_May_05_1157,ExactRep-v3-final,2021.2.3,59.96519596317314,
,,,,,,,,112,0,112,0,,,,,,,,,,,,,,,,,,,,,,,,,,,,,,,,,,,,,,,,,,,,,,,,,,,,,679.9333014991134,None,,,,,,,,,,,,,,,,,,,,,,,,,,,,,,,,,,,sea,36,113,sing,red,677.9338228991255,None,None,677.9338228991255,None,,,,,,,,,,,,,,,,,,,,,,,,,,,,,,76YD,001,2023_May_05_1157,ExactRep-v3-final,2021.2.3,59.96519596317314,
,,,,,,,,113,0,113,0,,,,,,,,,,,,,,,,,,,,,,,,,,,,,,,,,,,,,,,,,,,,,,,,,,,,,682.435687799938,None,,,,,,,,,,,,,,,,,,,,,,,,,,,,,,,,,,,city,26,114,sing,red,680.4336691992357,None,None,680.4336691992357,None,,,,,,,,,,,,,,,,,,,,,,,,,,,,,,76YD,001,2023_May_05_1157,ExactRep-v3-final,2021.2.3,59.96519596317314,
,,,,,,,,114,0,114,0,,,,,,,,,,,,,,,,,,,,,,,,,,,,,,,,,,,,,,,,,,,,,,,,,,,,,684.9384033996612,None,,,,,,,,,,,,,,,,,,,,,,,,,,,,,,,,,,,student,67,115,silent,white,682.9379645995796,None,None,682.9379645995796,None,,,,,,,,,,,,,,,,,,,,,,,,,,,,,,76YD,001,2023_May_05_1157,ExactRep-v3-final,2021.2.3,59.96519596317314,
,,,,,,,,115,0,115,0,,,,,,,,,,,,,,,,,,,,,,,,,,,,,,,,,,,,,,,,,,,,,,,,,,,,,687.4408225994557,None,,,,,,,,,,,,,,,,,,,,,,,,,,,,,,,,,,,window,79,116,sing,red,685.4409983996302,None,None,685.4409983996302,None,,,,,,,,,,,,,,,,,,,,,,,,,,,,,,76YD,001,2023_May_05_1157,ExactRep-v3-final,2021.2.3,59.96519596317314,
,,,,,,,,116,0,116,0,,,,,,,,,,,,,,,,,,,,,,,,,,,,,,,,,,,,,,,,,,,,,,,,,,,,,689.9599194992334,None,,,,,,,,,,,,,,,,,,,,,,,,,,,,,,,,,,,fun,94,117,aloud,blue,687.9488709997386,None,None,687.9488709997386,None,,,,,,,,,,,,,,,,,,,,,,,,,,,,,,76YD,001,2023_May_05_1157,ExactRep-v3-final,2021.2.3,59.96519596317314,
,,,,,,,,117,0,117,0,,,,,,,,,,,,,,,,,,,,,,,,,,,,,,,,,,,,,,,,,,,,,,,,,,,,,692.4624263998121,None,,,,,,,,,,,,,,,,,,,,,,,,,,,,,,,,,,,honour,87,118,aloud,blue,690.4603075999767,None,None,690.4603075999767,None,,,,,,,,,,,,,,,,,,,,,,,,,,,,,,76YD,001,2023_May_05_1157,ExactRep-v3-final,2021.2.3,59.96519596317314,
,,,,,,,,118,0,118,0,,,,,,,,,,,,,,,,,,,,,,,,,,,,,,,,,,,,,,,,,,,,,,,,,,,,,694.9650264997035,None,,,,,,,,,,,,,,,,,,,,,,,,,,,,,,,,,,,string,15,119,sing,red,692.9628807995468,None,None,692.9628807995468,None,,,,,,,,,,,,,,,,,,,,,,,,,,,,,,76YD,001,2023_May_05_1157,ExactRep-v3-final,2021.2.3,59.96519596317314,
,,,,,,,,119,0,119,0,,,,,,,,,,,,,,,,,,,,,,,,,,,,,,,,,,,,,,,,,,,,,,,,,,,,,697.4673356991261,None,,,,,,,,,,,,,,,,,,,,,,,,,,,,,,,,,,,grass,21,120,sing,red,695.4682644996792,None,None,695.4682644996792,None,,,,,,,,,,,,,,,,,,,,,,,,,,,,,,76YD,001,2023_May_05_1157,ExactRep-v3-final,2021.2.3,59.96519596317314,
,,,,,,,,,,,,,,,,,,,,,,,,,,,,,,,,,,,,,,,,,,,,,,,,,,,,,,,,,,,,,,,,,,,,,,,,,,,,,,,,,,,,,,,,,,,,,,,,,,,,,,,,,,,,,,697.9695837991312,None,space,0.9339335998520255,707.9460148997605,None,,,,,,,,,,,,,,,,,,,,,,,,76YD,001,2023_May_05_1157,ExactRep-v3-final,2021.2.3,59.96519596317314,
,,,,,,,,,,,,,,,,,,,,,,,,,,,,,,,,,,,,,,,,,,,,,,,,,,,,,,,,,,,,,,,,,,,,,,,,,,,,,,,,,,,,,,,,,,,,,,,,,,,,,,,,,,,,,,,,,,,,708.8972920998931,None,space,24.966545899398625,718.8736176993698,None,,,,,,,,,,,,,,,,,,76YD,001,2023_May_05_1157,ExactRep-v3-final,2021.2.3,59.96519596317314,
,,,,,,,,,,,,0,0,0,0,,,,,,,,,,,,,,,,,,,,,,,,,,,,,,,,,,,,,,,,,,,,,,,,,751.3712181998417,None,,,,,,,,,,,,,,,,,,,,,,,,,,,,,,,,,,,,,,,,,,,,,,,,,,,,,,,,,home,43,1,silent,old,white,744.3719634991139,None,y,744.3719634991139,None,"['y', 'return']","[4.659962500445545, 6.964053800329566]",744.3719634991139,None,,,76YD,001,2023_May_05_1157,ExactRep-v3-final,2021.2.3,59.96519596317314,
,,,,,,,,,,,,1,0,1,0,,,,,,,,,,,,,,,,,,,,,,,,,,,,,,,,,,,,,,,,,,,,,,,,,758.9287985991687,None,,,,,,,,,,,,,,,,,,,,,,,,,,,,,,,,,,,,,,,,,,,,,,,,,,,,,,,,,science,209,2,sing,new,red,751.8740819999948,None,n,751.8740819999948,None,"['n', 'return']","[6.141617599874735, 7.021910100243986]",751.8740819999948,None,,,76YD,001,2023_May_05_1157,ExactRep-v3-final,2021.2.3,59.96519596317314,
,,,,,,,,,,,,2,0,2,0,,,,,,,,,,,,,,,,,,,,,,,,,,,,,,,,,,,,,,,,,,,,,,,,,761.2144173998386,None,,,,,,,,,,,,,,,,,,,,,,,,,,,,,,,,,,,,,,,,,,,,,,,,,,,,,,,,,board,58,3,silent,old,white,759.4359224997461,None,y,759.4359224997461,None,"['y', 'return']","[1.2040917994454503, 1.731928599998355]",759.4359224997461,None,,,76YD,001,2023_May_05_1157,ExactRep-v3-final,2021.2.3,59.96519596317314,
,,,,,,,,,,,,3,0,3,0,,,,,,,,,,,,,,,,,,,,,,,,,,,,,,,,,,,,,,,,,,,,,,,,,763.5169202992693,None,,,,,,,,,,,,,,,,,,,,,,,,,,,,,,,,,,,,,,,,,,,,,,,,,,,,,,,,,series,223,4,sing,new,red,761.7261188998818,None,n,761.7261188998818,None,"['n', 'return']","[1.097775800153613, 1.7456868002191186]",761.7261188998818,None,,,76YD,001,2023_May_05_1157,ExactRep-v3-final,2021.2.3,59.96519596317314,
,,,,,,,,,,,,4,0,4,0,,,,,,,,,,,,,,,,,,,,,,,,,,,,,,,,,,,,,,,,,,,,,,,,,765.719127099961,None,,,,,,,,,,,,,,,,,,,,,,,,,,,,,,,,,,,,,,,,,,,,,,,,,,,,,,,,,fur,231,5,sing,new,red,764.0256914999336,None,n,764.0256914999336,None,"['n', 'return']","[1.086136200465262, 1.6461216006428003]",764.0256914999336,None,,,76YD,001,2023_May_05_1157,ExactRep-v3-final,2021.2.3,59.96519596317314,
,,,,,,,,,,,,5,0,5,0,,,,,,,,,,,,,,,,,,,,,,,,,,,,,,,,,,,,,,,,,,,,,,,,,767.8877181997523,None,,,,,,,,,,,,,,,,,,,,,,,,,,,,,,,,,,,,,,,,,,,,,,,,,,,,,,,,,meeting,48,6,silent,old,white,766.2270095990971,None,y,766.2270095990971,None,"['y', 'return']","[1.0447754003107548, 1.6207868000492454]",766.2270095990971,None,,,76YD,001,2023_May_05_1157,ExactRep-v3-final,2021.2.3,59.96519596317314,
,,,,,,,,,,,,6,0,6,0,,,,,,,,,,,,,,,,,,,,,,,,,,,,,,,,,,,,,,,,,,,,,,,,,770.4236139999703,None,,,,,,,,,,,,,,,,,,,,,,,,,,,,,,,,,,,,,,,,,,,,,,,,,,,,,,,,,student,67,7,silent,old,white,768.4001645995304,None,y,768.4001645995304,None,"['y', 'return']","[1.479610400274396, 1.9756911005824804]",768.4001645995304,None,,,76YD,001,2023_May_05_1157,ExactRep-v3-final,2021.2.3,59.96519596317314,
,,,,,,,,,,,,7,0,7,0,,,,,,,,,,,,,,,,,,,,,,,,,,,,,,,,,,,,,,,,,,,,,,,,,773.343432999216,None,,,,,,,,,,,,,,,,,,,,,,,,,,,,,,,,,,,,,,,,,,,,,,,,,,,,,,,,,judge,204,8,aloud,new,blue,770.9363343995064,None,n,770.9363343995064,None,"['n', 'return']","[1.911638599820435, 2.3754821997135878]",770.9363343995064,None,,,76YD,001,2023_May_05_1157,ExactRep-v3-final,2021.2.3,59.96519596317314,
,,,,,,,,,,,,8,0,8,0,,,,,,,,,,,,,,,,,,,,,,,,,,,,,,,,,,,,,,,,,,,,,,,,,775.8123333994299,None,,,,,,,,,,,,,,,,,,,,,,,,,,,,,,,,,,,,,,,,,,,,,,,,,,,,,,,,,blossom,49,9,silent,old,white,773.8497683992609,None,y,773.8497683992609,None,"['y', 'return']","[1.3981060003861785, 1.917969400063157]",773.8497683992609,None,,,76YD,001,2023_May_05_1157,ExactRep-v3-final,2021.2.3,59.96519596317314,
,,,,,,,,,,,,9,0,9,0,,,,,,,,,,,,,,,,,,,,,,,,,,,,,,,,,,,,,,,,,,,,,,,,,778.2814632998779,None,,,,,,,,,,,,,,,,,,,,,,,,,,,,,,,,,,,,,,,,,,,,,,,,,,,,,,,,,season,98,10,aloud,old,blue,776.3140113996342,None,y,776.3140113996342,None,"['y', 'return']","[1.4617919996380806, 1.933767800219357]",776.3140113996342,None,,,76YD,001,2023_May_05_1157,ExactRep-v3-final,2021.2.3,59.96519596317314,
,,,,,,,,,,,,10,0,10,0,,,,,,,,,,,,,,,,,,,,,,,,,,,,,,,,,,,,,,,,,,,,,,,,,780.4502925993875,None,,,,,,,,,,,,,,,,,,,,,,,,,,,,,,,,,,,,,,,,,,,,,,,,,,,,,,,,,product,86,11,aloud,old,blue,778.7913988996297,None,y,778.7913988996297,None,"['y', 'return']","[1.0885932007804513, 1.616405799984932]",778.7913988996297,None,,,76YD,001,2023_May_05_1157,ExactRep-v3-final,2021.2.3,59.96519596317314,
,,,,,,,,,,,,11,0,11,0,,,,,,,,,,,,,,,,,,,,,,,,,,,,,,,,,,,,,,,,,,,,,,,,,782.4858890995383,None,,,,,,,,,,,,,,,,,,,,,,,,,,,,,,,,,,,,,,,,,,,,,,,,,,,,,,,,,humour,109,12,aloud,old,blue,780.9602357000113,None,y,780.9602357000113,None,"['y', 'return']","[1.02359430026263, 1.4796513998880982]",780.9602357000113,None,,,76YD,001,2023_May_05_1157,ExactRep-v3-final,2021.2.3,59.96519596317314,
,,,,,,,,,,,,12,0,12,0,,,,,,,,,,,,,,,,,,,,,,,,,,,,,,,,,,,,,,,,,,,,,,,,,784.5211178995669,None,,,,,,,,,,,,,,,,,,,,,,,,,,,,,,,,,,,,,,,,,,,,,,,,,,,,,,,,,length,175,13,sing,new,red,782.9950543995947,None,n,782.9950543995947,None,"['n', 'return']","[1.0210157996043563, 1.4928476000204682]",782.9950543995947,None,,,76YD,001,2023_May_05_1157,ExactRep-v3-final,2021.2.3,59.96519596317314,
,,,,,,,,,,,,13,0,13,0,,,,,,,,,,,,,,,,,,,,,,,,,,,,,,,,,,,,,,,,,,,,,,,,,786.6732577998191,None,,,,,,,,,,,,,,,,,,,,,,,,,,,,,,,,,,,,,,,,,,,,,,,,,,,,,,,,,journal,20,14,sing,old,red,785.0353473993018,None,y,785.0353473993018,None,"['y', 'return']","[1.204632599838078, 1.6044816998764873]",785.0353473993018,None,,,76YD,001,2023_May_05_1157,ExactRep-v3-final,2021.2.3,59.96519596317314,
,,,,,,,,,,,,14,0,14,0,,,,,,,,,,,,,,,,,,,,,,,,,,,,,,,,,,,,,,,,,,,,,,,,,789.2259680991992,None,,,,,,,,,,,,,,,,,,,,,,,,,,,,,,,,,,,,,,,,,,,,,,,,,,,,,,,,,method,227,15,sing,new,red,787.1864164993167,None,y,787.1864164993167,None,"['y', 'return']","[1.6053588008508086, 2.005506600253284]",787.1864164993167,None,,,76YD,001,2023_May_05_1157,ExactRep-v3-final,2021.2.3,59.96519596317314,
,,,,,,,,,,,,15,0,15,0,,,,,,,,,,,,,,,,,,,,,,,,,,,,,,,,,,,,,,,,,,,,,,,,,790.9619693998247,None,,,,,,,,,,,,,,,,,,,,,,,,,,,,,,,,,,,,,,,,,,,,,,,,,,,,,,,,,vessel,145,16,silent,new,white,789.7354936990887,None,n,789.7354936990887,None,"['n', 'return']","[0.8483761008828878, 1.1924007004126906]",789.7354936990887,None,,,76YD,001,2023_May_05_1157,ExactRep-v3-final,2021.2.3,59.96519596317314,
,,,,,,,,,,,,16,0,16,0,,,,,,,,,,,,,,,,,,,,,,,,,,,,,,,,,,,,,,,,,,,,,,,,,792.7792856991291,None,,,,,,,,,,,,,,,,,,,,,,,,,,,,,,,,,,,,,,,,,,,,,,,,,,,,,,,,,justice,186,17,aloud,new,blue,791.4669854994863,None,n,791.4669854994863,None,"['n', 'return']","[0.852815099991858, 1.2768870992586017]",791.4669854994863,None,,,76YD,001,2023_May_05_1157,ExactRep-v3-final,2021.2.3,59.96519596317314,
,,,,,,,,,,,,17,0,17,0,,,,,,,,,,,,,,,,,,,,,,,,,,,,,,,,,,,,,,,,,,,,,,,,,794.4976718993858,None,,,,,,,,,,,,,,,,,,,,,,,,,,,,,,,,,,,,,,,,,,,,,,,,,,,,,,,,,opinion,198,18,aloud,new,blue,793.2892093993723,None,n,793.2892093993723,None,"['n', 'return']","[0.8066691998392344, 1.1746787000447512]",793.2892093993723,None,,,76YD,001,2023_May_05_1157,ExactRep-v3-final,2021.2.3,59.96519596317314,
,,,,,,,,,,,,18,0,18,0,,,,,,,,,,,,,,,,,,,,,,,,,,,,,,,,,,,,,,,,,,,,,,,,,796.4675879999995,None,,,,,,,,,,,,,,,,,,,,,,,,,,,,,,,,,,,,,,,,,,,,,,,,,,,,,,,,,girl,71,19,silent,old,white,795.0089884996414,None,y,795.0089884996414,None,"['y', 'return']","[1.0388439996168017, 1.4149478999897838]",795.0089884996414,None,,,76YD,001,2023_May_05_1157,ExactRep-v3-final,2021.2.3,59.96519596317314,
,,,,,,,,,,,,19,0,19,0,,,,,,,,,,,,,,,,,,,,,,,,,,,,,,,,,,,,,,,,,,,,,,,,,798.1513964999467,None,,,,,,,,,,,,,,,,,,,,,,,,,,,,,,,,,,,,,,,,,,,,,,,,,,,,,,,,,river,50,20,silent,old,white,796.9758450994268,None,y,796.9758450994268,None,"['y', 'return']","[0.8159745000302792, 1.1359912008047104]",796.9758450994268,None,,,76YD,001,2023_May_05_1157,ExactRep-v3-final,2021.2.3,59.96519596317314,
,,,,,,,,,,,,20,0,20,0,,,,,,,,,,,,,,,,,,,,,,,,,,,,,,,,,,,,,,,,,,,,,,,,,800.0367727996781,None,,,,,,,,,,,,,,,,,,,,,,,,,,,,,,,,,,,,,,,,,,,,,,,,,,,,,,,,,wheat,206,21,aloud,new,blue,798.6554414993152,None,n,798.6554414993152,None,"['n', 'return']","[0.9362762998789549, 1.3364099003374577]",798.6554414993152,None,,,76YD,001,2023_May_05_1157,ExactRep-v3-final,2021.2.3,59.96519596317314,
,,,,,,,,,,,,21,0,21,0,,,,,,,,,,,,,,,,,,,,,,,,,,,,,,,,,,,,,,,,,,,,,,,,,801.8550354996696,None,,,,,,,,,,,,,,,,,,,,,,,,,,,,,,,,,,,,,,,,,,,,,,,,,,,,,,,,,poet,77,22,silent,old,white,800.5481047993526,None,y,800.5481047993526,None,"['y', 'return']","[0.9877217998728156, 1.267744599841535]",800.5481047993526,None,,,76YD,001,2023_May_05_1157,ExactRep-v3-final,2021.2.3,59.96519596317314,
,,,,,,,,,,,,22,0,22,0,,,,,,,,,,,,,,,,,,,,,,,,,,,,,,,,,,,,,,,,,,,,,,,,,803.6902804998681,None,,,,,,,,,,,,,,,,,,,,,,,,,,,,,,,,,,,,,,,,,,,,,,,,,,,,,,,,,truth,215,23,sing,new,red,802.3648717999458,None,n,802.3648717999458,None,"['n', 'return']","[0.9068213002756238, 1.282935000024736]",802.3648717999458,None,,,76YD,001,2023_May_05_1157,ExactRep-v3-final,2021.2.3,59.96519596317314,
,,,,,,,,,,,,23,0,23,0,,,,,,,,,,,,,,,,,,,,,,,,,,,,,,,,,,,,,,,,,,,,,,,,,805.4085913999006,None,,,,,,,,,,,,,,,,,,,,,,,,,,,,,,,,,,,,,,,,,,,,,,,,,,,,,,,,,devil,221,24,sing,new,red,804.1984338993207,None,n,804.1984338993207,None,"['n', 'return']","[0.8413297003135085, 1.1773192007094622]",804.1984338993207,None,,,76YD,001,2023_May_05_1157,ExactRep-v3-final,2021.2.3,59.96519596317314,
,,,,,,,,,,,,24,0,24,0,,,,,,,,,,,,,,,,,,,,,,,,,,,,,,,,,,,,,,,,,,,,,,,,,807.1604300998151,None,,,,,,,,,,,,,,,,,,,,,,,,,,,,,,,,,,,,,,,,,,,,,,,,,,,,,,,,,safety,22,25,sing,old,red,805.9160615997389,None,y,805.9160615997389,None,"['y', 'return']","[0.9080803003162146, 1.2117136996239424]",805.9160615997389,None,,,76YD,001,2023_May_05_1157,ExactRep-v3-final,2021.2.3,59.96519596317314,
,,,,,,,,,,,,25,0,25,0,,,,,,,,,,,,,,,,,,,,,,,,,,,,,,,,,,,,,,,,,,,,,,,,,808.9456909997389,None,,,,,,,,,,,,,,,,,,,,,,,,,,,,,,,,,,,,,,,,,,,,,,,,,,,,,,,,,flesh,140,26,silent,new,white,807.6717936992645,None,n,807.6717936992645,None,"['n', 'return']","[0.8881180994212627, 1.2399595994502306]",807.6717936992645,None,,,76YD,001,2023_May_05_1157,ExactRep-v3-final,2021.2.3,59.96519596317314,
,,,,,,,,,,,,26,0,26,0,,,,,,,,,,,,,,,,,,,,,,,,,,,,,,,,,,,,,,,,,,,,,,,,,810.7306560995057,None,,,,,,,,,,,,,,,,,,,,,,,,,,,,,,,,,,,,,,,,,,,,,,,,,,,,,,,,,pole,201,27,sing,new,red,809.4485911997035,None,n,809.4485911997035,None,"['n', 'return']","[0.9192920001223683, 1.247137000784278]",809.4485911997035,None,,,76YD,001,2023_May_05_1157,ExactRep-v3-final,2021.2.3,59.96519596317314,
,,,,,,,,,,,,27,0,27,0,,,,,,,,,,,,,,,,,,,,,,,,,,,,,,,,,,,,,,,,,,,,,,,,,812.5991821996868,None,,,,,,,,,,,,,,,,,,,,,,,,,,,,,,,,,,,,,,,,,,,,,,,,,,,,,,,,,paper,112,28,aloud,old,blue,811.2414489993826,None,y,811.2414489993826,None,"['y', 'return']","[0.9504803000018001, 1.310411600396037]",811.2414489993826,None,,,76YD,001,2023_May_05_1157,ExactRep-v3-final,2021.2.3,59.96519596317314,
,,,,,,,,,,,,28,0,28,0,,,,,,,,,,,,,,,,,,,,,,,,,,,,,,,,,,,,,,,,,,,,,,,,,814.3010595999658,None,,,,,,,,,,,,,,,,,,,,,,,,,,,,,,,,,,,,,,,,,,,,,,,,,,,,,,,,,square,214,29,aloud,new,blue,813.116224899888,None,n,813.116224899888,None,"['n', 'return']","[0.7955845994874835, 1.1477093994617462]",813.116224899888,None,,,76YD,001,2023_May_05_1157,ExactRep-v3-final,2021.2.3,59.96519596317314,
,,,,,,,,,,,,29,0,29,0,,,,,,,,,,,,,,,,,,,,,,,,,,,,,,,,,,,,,,,,,,,,,,,,,816.2529850993305,None,,,,,,,,,,,,,,,,,,,,,,,,,,,,,,,,,,,,,,,,,,,,,,,,,,,,,,,,,winter,101,30,aloud,old,blue,814.8091929992661,None,y,814.8091929992661,None,"['y', 'return']","[1.078749899752438, 1.3986667999997735]",814.8091929992661,None,,,76YD,001,2023_May_05_1157,ExactRep-v3-final,2021.2.3,59.96519596317314,
,,,,,,,,,,,,30,0,30,0,,,,,,,,,,,,,,,,,,,,,,,,,,,,,,,,,,,,,,,,,,,,,,,,,818.2048666998744,None,,,,,,,,,,,,,,,,,,,,,,,,,,,,,,,,,,,,,,,,,,,,,,,,,,,,,,,,,silence,152,31,silent,new,white,816.7609003996477,None,y,816.7609003996477,None,"['y', 'return']","[1.062915800139308, 1.4069067994132638]",816.7609003996477,None,,,76YD,001,2023_May_05_1157,ExactRep-v3-final,2021.2.3,59.96519596317314,
,,,,,,,,,,,,31,0,31,0,,,,,,,,,,,,,,,,,,,,,,,,,,,,,,,,,,,,,,,,,,,,,,,,,819.8898122999817,None,,,,,,,,,,,,,,,,,,,,,,,,,,,,,,,,,,,,,,,,,,,,,,,,,,,,,,,,,wine,1,32,sing,old,red,818.7138317991048,None,y,818.7138317991048,None,"['y', 'return']","[0.8621608000248671, 1.1340736001729965]",818.7138317991048,None,,,76YD,001,2023_May_05_1157,ExactRep-v3-final,2021.2.3,59.96519596317314,
,,,,,,,,,,,,32,0,32,0,,,,,,,,,,,,,,,,,,,,,,,,,,,,,,,,,,,,,,,,,,,,,,,,,821.8584712995216,None,,,,,,,,,,,,,,,,,,,,,,,,,,,,,,,,,,,,,,,,,,,,,,,,,,,,,,,,,power,150,33,silent,new,white,820.4077472994104,None,y,820.4077472994104,None,"['y', 'return']","[1.1442618994042277, 1.4162957994267344]",820.4077472994104,None,,,76YD,001,2023_May_05_1157,ExactRep-v3-final,2021.2.3,59.96519596317314,
,,,,,,,,,,,,33,0,33,0,,,,,,,,,,,,,,,,,,,,,,,,,,,,,,,,,,,,,,,,,,,,,,,,,823.6603988995776,None,,,,,,,,,,,,,,,,,,,,,,,,,,,,,,,,,,,,,,,,,,,,,,,,,,,,,,,,,village,210,34,aloud,new,blue,822.3666724991053,None,n,822.3666724991053,None,"['n', 'return']","[0.9291639002040029, 1.2571358000859618]",822.3666724991053,None,,,76YD,001,2023_May_05_1157,ExactRep-v3-final,2021.2.3,59.96519596317314,
,,,,,,,,,,,,34,0,34,0,,,,,,,,,,,,,,,,,,,,,,,,,,,,,,,,,,,,,,,,,,,,,,,,,825.2451690994203,None,,,,,,,,,,,,,,,,,,,,,,,,,,,,,,,,,,,,,,,,,,,,,,,,,,,,,,,,,lord,85,35,aloud,old,blue,824.173198199831,None,y,824.173198199831,None,"['y', 'return']","[0.7307013999670744, 1.0266380002722144]",824.173198199831,None,,,76YD,001,2023_May_05_1157,ExactRep-v3-final,2021.2.3,59.96519596317314,
,,,,,,,,,,,,35,0,35,0,,,,,,,,,,,,,,,,,,,,,,,,,,,,,,,,,,,,,,,,,,,,,,,,,826.9303430998698,None,,,,,,,,,,,,,,,,,,,,,,,,,,,,,,,,,,,,,,,,,,,,,,,,,,,,,,,,,street,107,36,aloud,old,blue,825.752555899322,None,y,825.752555899322,None,"['y', 'return']","[0.8792554000392556, 1.1353144999593496]",825.752555899322,None,,,76YD,001,2023_May_05_1157,ExactRep-v3-final,2021.2.3,59.96519596317314,
,,,,,,,,,,,,36,0,36,0,,,,,,,,,,,,,,,,,,,,,,,,,,,,,,,,,,,,,,,,,,,,,,,,,828.932256099768,None,,,,,,,,,,,,,,,,,,,,,,,,,,,,,,,,,,,,,,,,,,,,,,,,,,,,,,,,,animal,196,37,aloud,new,blue,827.4368376992643,None,n,827.4368376992643,None,"['n', 'return']","[0.8511498998850584, 1.4590242998674512]",827.4368376992643,None,,,76YD,001,2023_May_05_1157,ExactRep-v3-final,2021.2.3,59.96519596317314,
,,,,,,,,,,,,37,0,37,0,,,,,,,,,,,,,,,,,,,,,,,,,,,,,,,,,,,,,,,,,,,,,,,,,830.8007506998256,None,,,,,,,,,,,,,,,,,,,,,,,,,,,,,,,,,,,,,,,,,,,,,,,,,,,,,,,,,charm,17,38,sing,old,red,829.4410426998511,None,y,829.4410426998511,None,"['y', 'return']","[0.9987900005653501, 1.3267123000696301]",829.4410426998511,None,,,76YD,001,2023_May_05_1157,ExactRep-v3-final,2021.2.3,59.96519596317314,
,,,,,,,,,,,,38,0,38,0,,,,,,,,,,,,,,,,,,,,,,,,,,,,,,,,,,,,,,,,,,,,,,,,,832.6025996999815,None,,,,,,,,,,,,,,,,,,,,,,,,,,,,,,,,,,,,,,,,,,,,,,,,,,,,,,,,,advice,164,39,aloud,new,blue,831.3084686994553,None,n,831.3084686994553,None,"['n', 'return']","[0.9072359995916486, 1.259255399927497]",831.3084686994553,None,,,76YD,001,2023_May_05_1157,ExactRep-v3-final,2021.2.3,59.96519596317314,
,,,,,,,,,,,,39,0,39,0,,,,,,,,,,,,,,,,,,,,,,,,,,,,,,,,,,,,,,,,,,,,,,,,,834.6713086999953,None,,,,,,,,,,,,,,,,,,,,,,,,,,,,,,,,,,,,,,,,,,,,,,,,,,,,,,,,,health,222,40,aloud,new,blue,833.1160667994991,None,n,833.1160667994991,None,"['n', 'return']","[1.1559392996132374, 1.5157017996534705]",833.1160667994991,None,,,76YD,001,2023_May_05_1157,ExactRep-v3-final,2021.2.3,59.96519596317314,
,,,,,,,,,,,,40,0,40,0,,,,,,,,,,,,,,,,,,,,,,,,,,,,,,,,,,,,,,,,,,,,,,,,,836.4231655998155,None,,,,,,,,,,,,,,,,,,,,,,,,,,,,,,,,,,,,,,,,,,,,,,,,,,,,,,,,,army,29,41,sing,old,red,835.1743869995698,None,y,835.1743869995698,None,"['y', 'return']","[0.8734502997249365, 1.2014523996040225]",835.1743869995698,None,,,76YD,001,2023_May_05_1157,ExactRep-v3-final,2021.2.3,59.96519596317314,
,,,,,,,,,,,,41,0,41,0,,,,,,,,,,,,,,,,,,,,,,,,,,,,,,,,,,,,,,,,,,,,,,,,,838.1247136993334,None,,,,,,,,,,,,,,,,,,,,,,,,,,,,,,,,,,,,,,,,,,,,,,,,,,,,,,,,,amount,38,42,sing,old,red,836.9356344994158,None,y,836.9356344994158,None,"['y', 'return']","[0.8322252007201314, 1.1441633002832532]",836.9356344994158,None,,,76YD,001,2023_May_05_1157,ExactRep-v3-final,2021.2.3,59.96519596317314,
,,,,,,,,,,,,42,0,42,0,,,,,,,,,,,,,,,,,,,,,,,,,,,,,,,,,,,,,,,,,,,,,,,,,839.8597735995427,None,,,,,,,,,,,,,,,,,,,,,,,,,,,,,,,,,,,,,,,,,,,,,,,,,,,,,,,,,pride,69,43,silent,old,white,838.6386247994378,None,y,838.6386247994378,None,"['y', 'return']","[0.8731730999425054, 1.1852432005107403]",838.6386247994378,None,,,76YD,001,2023_May_05_1157,ExactRep-v3-final,2021.2.3,59.96519596317314,
,,,,,,,,,,,,43,0,43,0,,,,,,,,,,,,,,,,,,,,,,,,,,,,,,,,,,,,,,,,,,,,,,,,,841.5280768992379,None,,,,,,,,,,,,,,,,,,,,,,,,,,,,,,,,,,,,,,,,,,,,,,,,,,,,,,,,,body,55,44,silent,old,white,840.3702462995425,None,y,840.3702462995425,None,"['y', 'return']","[0.7655836995691061, 1.1257663993164897]",840.3702462995425,None,,,76YD,001,2023_May_05_1157,ExactRep-v3-final,2021.2.3,59.96519596317314,
,,,,,,,,,,,,44,0,44,0,,,,,,,,,,,,,,,,,,,,,,,,,,,,,,,,,,,,,,,,,,,,,,,,,843.363225499168,None,,,,,,,,,,,,,,,,,,,,,,,,,,,,,,,,,,,,,,,,,,,,,,,,,,,,,,,,,dream,81,45,aloud,old,blue,842.0364949991927,None,y,842.0364949991927,None,"['y', 'return']","[0.9474729998037219, 1.2915051998570561]",842.0364949991927,None,,,76YD,001,2023_May_05_1157,ExactRep-v3-final,2021.2.3,59.96519596317314,
,,,,,,,,,,,,45,0,45,0,,,,,,,,,,,,,,,,,,,,,,,,,,,,,,,,,,,,,,,,,,,,,,,,,845.0985592994839,None,,,,,,,,,,,,,,,,,,,,,,,,,,,,,,,,,,,,,,,,,,,,,,,,,,,,,,,,,blood,5,46,sing,old,red,843.8662404995412,None,y,843.8662404995412,None,"['y', 'return']","[0.8537236005067825, 1.1895870007574558]",843.8662404995412,None,,,76YD,001,2023_May_05_1157,ExactRep-v3-final,2021.2.3,59.96519596317314,
,,,,,,,,,,,,46,0,46,0,,,,,,,,,,,,,,,,,,,,,,,,,,,,,,,,,,,,,,,,,,,,,,,,,846.8667239993811,None,,,,,,,,,,,,,,,,,,,,,,,,,,,,,,,,,,,,,,,,,,,,,,,,,,,,,,,,,flood,118,47,aloud,old,blue,845.606784099713,None,y,845.606784099713,None,"['y', 'return']","[0.8970568003132939, 1.21704369969666]",845.606784099713,None,,,76YD,001,2023_May_05_1157,ExactRep-v3-final,2021.2.3,59.96519596317314,
,,,,,,,,,,,,47,0,47,0,,,,,,,,,,,,,,,,,,,,,,,,,,,,,,,,,,,,,,,,,,,,,,,,,848.4516178993508,None,,,,,,,,,,,,,,,,,,,,,,,,,,,,,,,,,,,,,,,,,,,,,,,,,,,,,,,,,meadow,23,48,sing,old,red,847.3778973994777,None,y,847.3778973994777,None,"['y', 'return']","[0.7180505990982056, 1.0381453996524215]",847.3778973994777,None,,,76YD,001,2023_May_05_1157,ExactRep-v3-final,2021.2.3,59.96519596317314,
,,,,,,,,,,,,48,0,48,0,,,,,,,,,,,,,,,,,,,,,,,,,,,,,,,,,,,,,,,,,,,,,,,,,850.5370600000024,None,,,,,,,,,,,,,,,,,,,,,,,,,,,,,,,,,,,,,,,,,,,,,,,,,,,,,,,,,history,184,49,aloud,new,blue,848.9588585998863,None,n,848.9588585998863,None,"['n', 'return']","[1.249006800353527, 1.537012199871242]",848.9588585998863,None,,,76YD,001,2023_May_05_1157,ExactRep-v3-final,2021.2.3,59.96519596317314,
,,,,,,,,,,,,49,0,49,0,,,,,,,,,,,,,,,,,,,,,,,,,,,,,,,,,,,,,,,,,,,,,,,,,852.2721138997003,None,,,,,,,,,,,,,,,,,,,,,,,,,,,,,,,,,,,,,,,,,,,,,,,,,,,,,,,,,law,161,50,sing,new,red,851.0398365994915,None,y,851.0398365994915,None,"['y', 'return']","[0.8879416007548571, 1.192090000025928]",851.0398365994915,None,,,76YD,001,2023_May_05_1157,ExactRep-v3-final,2021.2.3,59.96519596317314,
,,,,,,,,,,,,50,0,50,0,,,,,,,,,,,,,,,,,,,,,,,,,,,,,,,,,,,,,,,,,,,,,,,,,853.9905799999833,None,,,,,,,,,,,,,,,,,,,,,,,,,,,,,,,,,,,,,,,,,,,,,,,,,,,,,,,,,fact,64,51,silent,old,white,852.7868145992979,None,n,852.7868145992979,None,"['n', 'return']","[0.8450602004304528, 1.165073400363326]",852.7868145992979,None,,,76YD,001,2023_May_05_1157,ExactRep-v3-final,2021.2.3,59.96519596317314,
,,,,,,,,,,,,51,0,51,0,,,,,,,,,,,,,,,,,,,,,,,,,,,,,,,,,,,,,,,,,,,,,,,,,856.0592397991568,None,,,,,,,,,,,,,,,,,,,,,,,,,,,,,,,,,,,,,,,,,,,,,,,,,,,,,,,,,event,218,52,aloud,new,blue,854.4988869996741,None,n,854.4988869996741,None,"['n', 'return']","[0.9249689001590014, 1.525058500468731]",854.4988869996741,None,,,76YD,001,2023_May_05_1157,ExactRep-v3-final,2021.2.3,59.96519596317314,
,,,,,,,,,,,,52,0,52,0,,,,,,,,,,,,,,,,,,,,,,,,,,,,,,,,,,,,,,,,,,,,,,,,,857.9278771998361,None,,,,,,,,,,,,,,,,,,,,,,,,,,,,,,,,,,,,,,,,,,,,,,,,,,,,,,,,,party,192,53,aloud,new,blue,856.5693461997434,None,n,856.5693461997434,None,"['n', 'return']","[0.9186281999573112, 1.310623800382018]",856.5693461997434,None,,,76YD,001,2023_May_05_1157,ExactRep-v3-final,2021.2.3,59.96519596317314,
,,,,,,,,,,,,53,0,53,0,,,,,,,,,,,,,,,,,,,,,,,,,,,,,,,,,,,,,,,,,,,,,,,,,860.2300662994385,None,,,,,,,,,,,,,,,,,,,,,,,,,,,,,,,,,,,,,,,,,,,,,,,,,,,,,,,,,maiden,40,54,silent,old,white,858.4374363999814,None,y,858.4374363999814,None,"['y', 'return']","[1.442553799599409, 1.7464268999174237]",858.4374363999814,None,,,76YD,001,2023_May_05_1157,ExactRep-v3-final,2021.2.3,59.96519596317314,
,,,,,,,,,,,,54,0,54,0,,,,,,,,,,,,,,,,,,,,,,,,,,,,,,,,,,,,,,,,,,,,,,,,,861.9151697997004,None,,,,,,,,,,,,,,,,,,,,,,,,,,,,,,,,,,,,,,,,,,,,,,,,,,,,,,,,,cabin,100,55,aloud,old,blue,860.7422835994512,None,y,860.7422835994512,None,"['y', 'return']","[0.8256726004183292, 1.1295541003346443]",860.7422835994512,None,,,76YD,001,2023_May_05_1157,ExactRep-v3-final,2021.2.3,59.96519596317314,
,,,,,,,,,,,,55,0,55,0,,,,,,,,,,,,,,,,,,,,,,,,,,,,,,,,,,,,,,,,,,,,,,,,,863.6502829995006,None,,,,,,,,,,,,,,,,,,,,,,,,,,,,,,,,,,,,,,,,,,,,,,,,,,,,,,,,,moment,18,56,sing,old,red,862.4272504998371,None,y,862.4272504998371,None,"['y', 'return']","[0.8766545001417398, 1.188659899868071]",862.4272504998371,None,,,76YD,001,2023_May_05_1157,ExactRep-v3-final,2021.2.3,59.96519596317314,
,,,,,,,,,,,,56,0,56,0,,,,,,,,,,,,,,,,,,,,,,,,,,,,,,,,,,,,,,,,,,,,,,,,,865.6188087994233,None,,,,,,,,,,,,,,,,,,,,,,,,,,,,,,,,,,,,,,,,,,,,,,,,,,,,,,,,,mind,169,57,sing,new,red,864.1575636994094,None,n,864.1575636994094,None,"['n', 'return']","[1.034158800728619, 1.426277399994433]",864.1575636994094,None,,,76YD,001,2023_May_05_1157,ExactRep-v3-final,2021.2.3,59.96519596317314,
,,,,,,,,,,,,57,0,57,0,,,,,,,,,,,,,,,,,,,,,,,,,,,,,,,,,,,,,,,,,,,,,,,,,867.4205982992426,None,,,,,,,,,,,,,,,,,,,,,,,,,,,,,,,,,,,,,,,,,,,,,,,,,,,,,,,,,arm,154,58,silent,new,white,866.1264474997297,None,n,866.1264474997297,None,"['n', 'return']","[0.9134555999189615, 1.2494318997487426]",866.1264474997297,None,,,76YD,001,2023_May_05_1157,ExactRep-v3-final,2021.2.3,59.96519596317314,
,,,,,,,,,,,,58,0,58,0,,,,,,,,,,,,,,,,,,,,,,,,,,,,,,,,,,,,,,,,,,,,,,,,,869.2558244997635,None,,,,,,,,,,,,,,,,,,,,,,,,,,,,,,,,,,,,,,,,,,,,,,,,,,,,,,,,,spirit,111,59,aloud,old,blue,867.92203819938,None,y,867.92203819938,None,"['y', 'return']","[0.9419064000248909, 1.2938625998795033]",867.92203819938,None,,,76YD,001,2023_May_05_1157,ExactRep-v3-final,2021.2.3,59.96519596317314,
,,,,,,,,,,,,59,0,59,0,,,,,,,,,,,,,,,,,,,,,,,,,,,,,,,,,,,,,,,,,,,,,,,,,871.2079389998689,None,,,,,,,,,,,,,,,,,,,,,,,,,,,,,,,,,,,,,,,,,,,,,,,,,,,,,,,,,prayer,178,60,aloud,new,blue,869.764053799212,None,n,869.764053799212,None,"['n', 'return']","[0.9878136003389955, 1.411837199702859]",869.764053799212,None,,,76YD,001,2023_May_05_1157,ExactRep-v3-final,2021.2.3,59.96519596317314,
,,,,,,,,,,,,60,0,60,0,,,,,,,,,,,,,,,,,,,,,,,,,,,,,,,,,,,,,,,,,,,,,,,,,873.3767421999946,None,,,,,,,,,,,,,,,,,,,,,,,,,,,,,,,,,,,,,,,,,,,,,,,,,,,,,,,,,corner,228,61,aloud,new,blue,871.717083399184,None,y,871.717083399184,None,"['y', 'return']","[1.3228834001347423, 1.6267106998711824]",871.717083399184,None,,,76YD,001,2023_May_05_1157,ExactRep-v3-final,2021.2.3,59.96519596317314,
,,,,,,,,,,,,61,0,61,0,,,,,,,,,,,,,,,,,,,,,,,,,,,,,,,,,,,,,,,,,,,,,,,,,875.8791409991682,None,,,,,,,,,,,,,,,,,,,,,,,,,,,,,,,,,,,,,,,,,,,,,,,,,,,,,,,,,tree,128,62,silent,new,white,873.8865228993818,None,y,873.8865228993818,None,"['y', 'return']","[1.5456367991864681, 1.9533944996073842]",873.8865228993818,None,,,76YD,001,2023_May_05_1157,ExactRep-v3-final,2021.2.3,59.96519596317314,
,,,,,,,,,,,,62,0,62,0,,,,,,,,,,,,,,,,,,,,,,,,,,,,,,,,,,,,,,,,,,,,,,,,,877.8143468992785,None,,,,,,,,,,,,,,,,,,,,,,,,,,,,,,,,,,,,,,,,,,,,,,,,,,,,,,,,,cost,37,63,sing,old,red,876.3862162996083,None,n,876.3862162996083,None,"['n', 'return']","[1.069705500267446, 1.3816721001639962]",876.3862162996083,None,,,76YD,001,2023_May_05_1157,ExactRep-v3-final,2021.2.3,59.96519596317314,
,,,,,,,,,,,,63,0,63,0,,,,,,,,,,,,,,,,,,,,,,,,,,,,,,,,,,,,,,,,,,,,,,,,,880.3168320991099,None,,,,,,,,,,,,,,,,,,,,,,,,,,,,,,,,,,,,,,,,,,,,,,,,,,,,,,,,,crime,125,64,silent,new,white,878.3302061995491,None,n,878.3302061995491,None,"['n', 'return']","[1.6056629000231624, 1.9497518995776772]",878.3302061995491,None,,,76YD,001,2023_May_05_1157,ExactRep-v3-final,2021.2.3,59.96519596317314,
,,,,,,,,,,,,64,0,64,0,,,,,,,,,,,,,,,,,,,,,,,,,,,,,,,,,,,,,,,,,,,,,,,,,882.3355884999037,None,,,,,,,,,,,,,,,,,,,,,,,,,,,,,,,,,,,,,,,,,,,,,,,,,,,,,,,,,queen,211,65,sing,new,red,880.8259117994457,None,n,880.8259117994457,None,"['n', 'return']","[1.1980531001463532, 1.4780413005501032]",880.8259117994457,None,,,76YD,001,2023_May_05_1157,ExactRep-v3-final,2021.2.3,59.96519596317314,
,,,,,,,,,,,,65,0,65,0,,,,,,,,,,,,,,,,,,,,,,,,,,,,,,,,,,,,,,,,,,,,,,,,,884.4543153997511,None,,,,,,,,,,,,,,,,,,,,,,,,,,,,,,,,,,,,,,,,,,,,,,,,,,,,,,,,,love,160,66,aloud,new,blue,882.843158999458,None,n,882.843158999458,None,"['n', 'return']","[1.24465490039438, 1.56478470005095]",882.843158999458,None,,,76YD,001,2023_May_05_1157,ExactRep-v3-final,2021.2.3,59.96519596317314,
,,,,,,,,,,,,66,0,66,0,,,,,,,,,,,,,,,,,,,,,,,,,,,,,,,,,,,,,,,,,,,,,,,,,887.8243368994445,None,,,,,,,,,,,,,,,,,,,,,,,,,,,,,,,,,,,,,,,,,,,,,,,,,,,,,,,,,life,134,67,silent,new,white,884.963367599994,None,n,884.963367599994,None,"['n', 'return']","[2.4847087003290653, 2.820464400574565]",884.963367599994,None,,,76YD,001,2023_May_05_1157,ExactRep-v3-final,2021.2.3,59.96519596317314,
,,,,,,,,,,,,67,0,67,0,,,,,,,,,,,,,,,,,,,,,,,,,,,,,,,,,,,,,,,,,,,,,,,,,889.5928560998291,None,,,,,,,,,,,,,,,,,,,,,,,,,,,,,,,,,,,,,,,,,,,,,,,,,,,,,,,,,honour,87,68,aloud,old,blue,888.3337068995461,None,y,888.3337068995461,None,"['y', 'return']","[0.8421994997188449, 1.2260731002315879]",888.3337068995461,None,,,76YD,001,2023_May_05_1157,ExactRep-v3-final,2021.2.3,59.96519596317314,
,,,,,,,,,,,,68,0,68,0,,,,,,,,,,,,,,,,,,,,,,,,,,,,,,,,,,,,,,,,,,,,,,,,,891.5280423993245,None,,,,,,,,,,,,,,,,,,,,,,,,,,,,,,,,,,,,,,,,,,,,,,,,,,,,,,,,,storm,219,69,sing,new,red,890.1017307993025,None,n,890.1017307993025,None,"['n', 'return']","[1.0103048998862505, 1.3782031005248427]",890.1017307993025,None,,,76YD,001,2023_May_05_1157,ExactRep-v3-final,2021.2.3,59.96519596317314,
,,,,,,,,,,,,69,0,69,0,,,,,,,,,,,,,,,,,,,,,,,,,,,,,,,,,,,,,,,,,,,,,,,,,893.3632148997858,None,,,,,,,,,,,,,,,,,,,,,,,,,,,,,,,,,,,,,,,,,,,,,,,,,,,,,,,,,shoes,59,70,silent,old,white,892.0452254991978,None,n,892.0452254991978,None,"['n', 'return']","[0.8908243998885155, 1.2746230997145176]",892.0452254991978,None,,,76YD,001,2023_May_05_1157,ExactRep-v3-final,2021.2.3,59.96519596317314,
,,,,,,,,,,,,70,0,70,0,,,,,,,,,,,,,,,,,,,,,,,,,,,,,,,,,,,,,,,,,,,,,,,,,895.3502778997645,None,,,,,,,,,,,,,,,,,,,,,,,,,,,,,,,,,,,,,,,,,,,,,,,,,,,,,,,,,teacher,230,71,aloud,new,blue,893.8717041993514,None,n,893.8717041993514,None,"['n', 'return']","[1.0001664999872446, 1.4322964996099472]",893.8717041993514,None,,,76YD,001,2023_May_05_1157,ExactRep-v3-final,2021.2.3,59.96519596317314,
,,,,,,,,,,,,71,0,71,0,,,,,,,,,,,,,,,,,,,,,,,,,,,,,,,,,,,,,,,,,,,,,,,,,897.0837419992313,None,,,,,,,,,,,,,,,,,,,,,,,,,,,,,,,,,,,,,,,,,,,,,,,,,,,,,,,,,bottle,14,72,sing,old,red,895.8565839994699,None,y,895.8565839994699,None,"['y', 'return']","[0.847350399941206, 1.1832916997373104]",895.8565839994699,None,,,76YD,001,2023_May_05_1157,ExactRep-v3-final,2021.2.3,59.96519596317314,
,,,,,,,,,,,,72,0,72,0,,,,,,,,,,,,,,,,,,,,,,,,,,,,,,,,,,,,,,,,,,,,,,,,,899.4193393997848,None,,,,,,,,,,,,,,,,,,,,,,,,,,,,,,,,,,,,,,,,,,,,,,,,,,,,,,,,,soul,141,73,silent,new,white,897.5944074997678,None,n,897.5944074997678,None,"['n', 'return']","[1.365506500005722, 1.7814261997118592]",897.5944074997678,None,,,76YD,001,2023_May_05_1157,ExactRep-v3-final,2021.2.3,59.96519596317314,
,,,,,,,,,,,,73,0,73,0,,,,,,,,,,,,,,,,,,,,,,,,,,,,,,,,,,,,,,,,,,,,,,,,,901.3713101996109,None,,,,,,,,,,,,,,,,,,,,,,,,,,,,,,,,,,,,,,,,,,,,,,,,,,,,,,,,,fault,238,74,aloud,new,blue,899.9233195995912,None,y,899.9233195995912,None,"['y', 'return']","[1.1086903000250459, 1.40469709970057]",899.9233195995912,None,,,76YD,001,2023_May_05_1157,ExactRep-v3-final,2021.2.3,59.96519596317314,
,,,,,,,,,,,,74,0,74,0,,,,,,,,,,,,,,,,,,,,,,,,,,,,,,,,,,,,,,,,,,,,,,,,,903.2397634992376,None,,,,,,,,,,,,,,,,,,,,,,,,,,,,,,,,,,,,,,,,,,,,,,,,,,,,,,,,,stone,24,75,sing,old,red,901.8852377999574,None,y,901.8852377999574,None,"['y', 'return']","[1.0027075996622443, 1.3067227993160486]",901.8852377999574,None,,,76YD,001,2023_May_05_1157,ExactRep-v3-final,2021.2.3,59.96519596317314,
,,,,,,,,,,,,75,0,75,0,,,,,,,,,,,,,,,,,,,,,,,,,,,,,,,,,,,,,,,,,,,,,,,,,905.6421576999128,None,,,,,,,,,,,,,,,,,,,,,,,,,,,,,,,,,,,,,,,,,,,,,,,,,,,,,,,,,chance,11,76,sing,old,red,903.7479921998456,None,n,903.7479921998456,None,"['n', 'return']","[1.531971899792552, 1.8598742000758648]",903.7479921998456,None,,,76YD,001,2023_May_05_1157,ExactRep-v3-final,2021.2.3,59.96519596317314,
,,,,,,,,,,,,76,0,76,0,,,,,,,,,,,,,,,,,,,,,,,,,,,,,,,,,,,,,,,,,,,,,,,,,907.393934099935,None,,,,,,,,,,,,,,,,,,,,,,,,,,,,,,,,,,,,,,,,,,,,,,,,,,,,,,,,,murder,80,77,aloud,old,blue,906.1512141991407,None,y,906.1512141991407,None,"['y', 'return']","[0.8727408004924655, 1.2006230000406504]",906.1512141991407,None,,,76YD,001,2023_May_05_1157,ExactRep-v3-final,2021.2.3,59.96519596317314,
,,,,,,,,,,,,77,0,77,0,,,,,,,,,,,,,,,,,,,,,,,,,,,,,,,,,,,,,,,,,,,,,,,,,909.512739399448,None,,,,,,,,,,,,,,,,,,,,,,,,,,,,,,,,,,,,,,,,,,,,,,,,,,,,,,,,,fun,94,78,aloud,old,blue,907.9043529992923,None,y,907.9043529992923,None,"['y', 'return']","[1.2316988995298743, 1.5676515996456146]",907.9043529992923,None,,,76YD,001,2023_May_05_1157,ExactRep-v3-final,2021.2.3,59.96519596317314,
,,,,,,,,,,,,78,0,78,0,,,,,,,,,,,,,,,,,,,,,,,,,,,,,,,,,,,,,,,,,,,,,,,,,912.0653562992811,None,,,,,,,,,,,,,,,,,,,,,,,,,,,,,,,,,,,,,,,,,,,,,,,,,,,,,,,,,clock,47,79,silent,old,white,910.0286891991273,None,y,910.0286891991273,None,"['y', 'return']","[1.6512414002791047, 1.9952808003872633]",910.0286891991273,None,,,76YD,001,2023_May_05_1157,ExactRep-v3-final,2021.2.3,59.96519596317314,
,,,,,,,,,,,,79,0,79,0,,,,,,,,,,,,,,,,,,,,,,,,,,,,,,,,,,,,,,,,,,,,,,,,,914.4343653991818,None,,,,,,,,,,,,,,,,,,,,,,,,,,,,,,,,,,,,,,,,,,,,,,,,,,,,,,,,,coast,137,80,silent,new,white,912.5776104992256,None,n,912.5776104992256,None,"['n', 'return']","[1.4862784994766116, 1.8222242994233966]",912.5776104992256,None,,,76YD,001,2023_May_05_1157,ExactRep-v3-final,2021.2.3,59.96519596317314,
,,,,,,,,,,,,80,0,80,0,,,,,,,,,,,,,,,,,,,,,,,,,,,,,,,,,,,,,,,,,,,,,,,,,916.2360886000097,None,,,,,,,,,,,,,,,,,,,,,,,,,,,,,,,,,,,,,,,,,,,,,,,,,,,,,,,,,virtue,60,81,silent,old,white,914.9453367991373,None,y,914.9453367991373,None,"['y', 'return']","[0.8546106005087495, 1.2465320006012917]",914.9453367991373,None,,,76YD,001,2023_May_05_1157,ExactRep-v3-final,2021.2.3,59.96519596317314,
,,,,,,,,,,,,81,0,81,0,,,,,,,,,,,,,,,,,,,,,,,,,,,,,,,,,,,,,,,,,,,,,,,,,918.4383006999269,None,,,,,,,,,,,,,,,,,,,,,,,,,,,,,,,,,,,,,,,,,,,,,,,,,,,,,,,,,heaven,171,82,sing,new,red,916.7460462991148,None,n,916.7460462991148,None,"['n', 'return']","[1.285886600613594, 1.6540299002081156]",916.7460462991148,None,,,76YD,001,2023_May_05_1157,ExactRep-v3-final,2021.2.3,59.96519596317314,
,,,,,,,,,,,,82,0,82,0,,,,,,,,,,,,,,,,,,,,,,,,,,,,,,,,,,,,,,,,,,,,,,,,,920.3903203997761,None,,,,,,,,,,,,,,,,,,,,,,,,,,,,,,,,,,,,,,,,,,,,,,,,,,,,,,,,,hall,144,83,silent,new,white,918.9524417994544,None,n,918.9524417994544,None,"['n', 'return']","[1.0554781006649137, 1.3995128003880382]",918.9524417994544,None,,,76YD,001,2023_May_05_1157,ExactRep-v3-final,2021.2.3,59.96519596317314,
,,,,,,,,,,,,83,0,83,0,,,,,,,,,,,,,,,,,,,,,,,,,,,,,,,,,,,,,,,,,,,,,,,,,922.1755636995658,None,,,,,,,,,,,,,,,,,,,,,,,,,,,,,,,,,,,,,,,,,,,,,,,,,,,,,,,,,corn,92,84,aloud,old,blue,920.8989296993241,None,y,920.8989296993241,None,"['y', 'return']","[0.9250659998506308, 1.2370706992223859]",920.8989296993241,None,,,76YD,001,2023_May_05_1157,ExactRep-v3-final,2021.2.3,59.96519596317314,
,,,,,,,,,,,,84,0,84,0,,,,,,,,,,,,,,,,,,,,,,,,,,,,,,,,,,,,,,,,,,,,,,,,,924.130425799638,None,,,,,,,,,,,,,,,,,,,,,,,,,,,,,,,,,,,,,,,,,,,,,,,,,,,,,,,,,door,224,85,aloud,new,blue,922.6868396997452,None,n,922.6868396997452,None,"['n', 'return']","[1.0650855004787445, 1.401167900301516]",922.6868396997452,None,,,76YD,001,2023_May_05_1157,ExactRep-v3-final,2021.2.3,59.96519596317314,
,,,,,,,,,,,,85,0,85,0,,,,,,,,,,,,,,,,,,,,,,,,,,,,,,,,,,,,,,,,,,,,,,,,,926.5799374999478,None,,,,,,,,,,,,,,,,,,,,,,,,,,,,,,,,,,,,,,,,,,,,,,,,,,,,,,,,,woods,56,86,silent,old,white,924.6545348996297,None,y,924.6545348996297,None,"['y', 'return']","[1.5533100999891758, 1.8813255997374654]",924.6545348996297,None,,,76YD,001,2023_May_05_1157,ExactRep-v3-final,2021.2.3,59.96519596317314,
,,,,,,,,,,,,86,0,86,0,,,,,,,,,,,,,,,,,,,,,,,,,,,,,,,,,,,,,,,,,,,,,,,,,928.3505314998329,None,,,,,,,,,,,,,,,,,,,,,,,,,,,,,,,,,,,,,,,,,,,,,,,,,,,,,,,,,ocean,173,87,sing,new,red,927.080421499908,None,y,927.080421499908,None,"['y', 'return']","[0.8715168992057443, 1.2234319997951388]",927.080421499908,None,,,76YD,001,2023_May_05_1157,ExactRep-v3-final,2021.2.3,59.96519596317314,
,,,,,,,,,,,,87,0,87,0,,,,,,,,,,,,,,,,,,,,,,,,,,,,,,,,,,,,,,,,,,,,,,,,,930.0833532996476,None,,,,,,,,,,,,,,,,,,,,,,,,,,,,,,,,,,,,,,,,,,,,,,,,,,,,,,,,,passion,105,88,aloud,old,blue,928.8778879996389,None,y,928.8778879996389,None,"['y', 'return']","[0.8340239003300667, 1.1701571000739932]",928.8778879996389,None,,,76YD,001,2023_May_05_1157,ExactRep-v3-final,2021.2.3,59.96519596317314,
,,,,,,,,,,,,88,0,88,0,,,,,,,,,,,,,,,,,,,,,,,,,,,,,,,,,,,,,,,,,,,,,,,,,932.3524469994009,None,,,,,,,,,,,,,,,,,,,,,,,,,,,,,,,,,,,,,,,,,,,,,,,,,,,,,,,,,diamond,180,89,aloud,new,blue,930.5932969991118,None,n,930.5932969991118,None,"['n', 'return']","[1.382743800058961, 1.7186727998778224]",930.5932969991118,None,,,76YD,001,2023_May_05_1157,ExactRep-v3-final,2021.2.3,59.96519596317314,
,,,,,,,,,,,,89,0,89,0,,,,,,,,,,,,,,,,,,,,,,,,,,,,,,,,,,,,,,,,,,,,,,,,,934.3043783996254,None,,,,,,,,,,,,,,,,,,,,,,,,,,,,,,,,,,,,,,,,,,,,,,,,,,,,,,,,,idea,220,90,aloud,new,blue,932.8623312991112,None,n,932.8623312991112,None,"['n', 'return']","[1.0656864000484347, 1.4097634991630912]",932.8623312991112,None,,,76YD,001,2023_May_05_1157,ExactRep-v3-final,2021.2.3,59.96519596317314,
,,,,,,,,,,,,90,0,90,0,,,,,,,,,,,,,,,,,,,,,,,,,,,,,,,,,,,,,,,,,,,,,,,,,936.089352699928,None,,,,,,,,,,,,,,,,,,,,,,,,,,,,,,,,,,,,,,,,,,,,,,,,,,,,,,,,,potato,82,91,aloud,old,blue,934.8180034998804,None,y,934.8180034998804,None,"['y', 'return']","[0.9259721003472805, 1.2379412995651364]",934.8180034998804,None,,,76YD,001,2023_May_05_1157,ExactRep-v3-final,2021.2.3,59.96519596317314,
,,,,,,,,,,,,91,0,91,0,,,,,,,,,,,,,,,,,,,,,,,,,,,,,,,,,,,,,,,,,,,,,,,,,937.7911433996633,None,,,,,,,,,,,,,,,,,,,,,,,,,,,,,,,,,,,,,,,,,,,,,,,,,,,,,,,,,brain,13,92,sing,old,red,936.5987432999536,None,y,936.5987432999536,None,"['y', 'return']","[0.8251352002844214, 1.1452094996348023]",936.5987432999536,None,,,76YD,001,2023_May_05_1157,ExactRep-v3-final,2021.2.3,59.96519596317314,
,,,,,,,,,,,,92,0,92,0,,,,,,,,,,,,,,,,,,,,,,,,,,,,,,,,,,,,,,,,,,,,,,,,,939.5429453998804,None,,,,,,,,,,,,,,,,,,,,,,,,,,,,,,,,,,,,,,,,,,,,,,,,,,,,,,,,,window,79,93,sing,old,red,938.2983155995607,None,y,938.2983155995607,None,"['y', 'return']","[0.7496130997315049, 1.197669900022447]",938.2983155995607,None,,,76YD,001,2023_May_05_1157,ExactRep-v3-final,2021.2.3,59.96519596317314,
,,,,,,,,,,,,93,0,93,0,,,,,,,,,,,,,,,,,,,,,,,,,,,,,,,,,,,,,,,,,,,,,,,,,941.2110568992794,None,,,,,,,,,,,,,,,,,,,,,,,,,,,,,,,,,,,,,,,,,,,,,,,,,,,,,,,,,officer,6,94,sing,old,red,940.0511021995917,None,y,940.0511021995917,None,"['y', 'return']","[0.780855500139296, 1.1169299995526671]",940.0511021995917,None,,,76YD,001,2023_May_05_1157,ExactRep-v3-final,2021.2.3,59.96519596317314,
,,,,,,,,,,,,94,0,94,0,,,,,,,,,,,,,,,,,,,,,,,,,,,,,,,,,,,,,,,,,,,,,,,,,943.997257899493,None,,,,,,,,,,,,,,,,,,,,,,,,,,,,,,,,,,,,,,,,,,,,,,,,,,,,,,,,,sugar,9,95,sing,old,red,941.720950299874,None,y,941.720950299874,None,"['y', 'return']","[1.9270530994981527, 2.231042199768126]",941.720950299874,None,,,76YD,001,2023_May_05_1157,ExactRep-v3-final,2021.2.3,59.96519596317314,
,,,,,,,,,,,,95,0,95,0,,,,,,,,,,,,,,,,,,,,,,,,,,,,,,,,,,,,,,,,,,,,,,,,,946.7333273999393,None,,,,,,,,,,,,,,,,,,,,,,,,,,,,,,,,,,,,,,,,,,,,,,,,,,,,,,,,,vision,124,96,silent,new,white,944.506830599159,None,n,944.506830599159,None,"['n', 'return']","[1.8292143000289798, 2.1891518998891115]",944.506830599159,None,,,76YD,001,2023_May_05_1157,ExactRep-v3-final,2021.2.3,59.96519596317314,
,,,,,,,,,,,,96,0,96,0,,,,,,,,,,,,,,,,,,,,,,,,,,,,,,,,,,,,,,,,,,,,,,,,,948.5684269992635,None,,,,,,,,,,,,,,,,,,,,,,,,,,,,,,,,,,,,,,,,,,,,,,,,,,,,,,,,,bowl,179,97,sing,new,red,947.2442469997332,None,n,947.2442469997332,None,"['n', 'return']","[0.8197124004364014, 1.2837418001145124]",947.2442469997332,None,,,76YD,001,2023_May_05_1157,ExactRep-v3-final,2021.2.3,59.96519596317314,
,,,,,,,,,,,,97,0,97,0,,,,,,,,,,,,,,,,,,,,,,,,,,,,,,,,,,,,,,,,,,,,,,,,,950.2868061996996,None,,,,,,,,,,,,,,,,,,,,,,,,,,,,,,,,,,,,,,,,,,,,,,,,,,,,,,,,,cottage,97,98,aloud,old,blue,949.0763438995928,None,y,949.0763438995928,None,"['y', 'return']","[0.8676116997376084, 1.1636447003111243]",949.0763438995928,None,,,76YD,001,2023_May_05_1157,ExactRep-v3-final,2021.2.3,59.96519596317314,
,,,,,,,,,,,,98,0,98,0,,,,,,,,,,,,,,,,,,,,,,,,,,,,,,,,,,,,,,,,,,,,,,,,,952.1553968992084,None,,,,,,,,,,,,,,,,,,,,,,,,,,,,,,,,,,,,,,,,,,,,,,,,,,,,,,,,,boy,147,99,silent,new,white,950.7897165995091,None,n,950.7897165995091,None,"['n', 'return']","[1.0663274005055428, 1.3304595006629825]",950.7897165995091,None,,,76YD,001,2023_May_05_1157,ExactRep-v3-final,2021.2.3,59.96519596317314,
,,,,,,,,,,,,99,0,99,0,,,,,,,,,,,,,,,,,,,,,,,,,,,,,,,,,,,,,,,,,,,,,,,,,954.0573222991079,None,,,,,,,,,,,,,,,,,,,,,,,,,,,,,,,,,,,,,,,,,,,,,,,,,,,,,,,,,lake,187,100,sing,new,red,952.6620133994147,None,n,952.6620133994147,None,"['n', 'return']","[1.0819357996806502, 1.354021199978888]",952.6620133994147,None,,,76YD,001,2023_May_05_1157,ExactRep-v3-final,2021.2.3,59.96519596317314,
,,,,,,,,,,,,100,0,100,0,,,,,,,,,,,,,,,,,,,,,,,,,,,,,,,,,,,,,,,,,,,,,,,,,956.0456715999171,None,,,,,,,,,,,,,,,,,,,,,,,,,,,,,,,,,,,,,,,,,,,,,,,,,,,,,,,,,lip,183,101,sing,new,red,954.5632157996297,None,n,954.5632157996297,None,"['n', 'return']","[1.068740800023079, 1.4366194000467658]",954.5632157996297,None,,,76YD,001,2023_May_05_1157,ExactRep-v3-final,2021.2.3,59.96519596317314,
,,,,,,,,,,,,101,0,101,0,,,,,,,,,,,,,,,,,,,,,,,,,,,,,,,,,,,,,,,,,,,,,,,,,957.7777036996558,None,,,,,,,,,,,,,,,,,,,,,,,,,,,,,,,,,,,,,,,,,,,,,,,,,,,,,,,,,memory,12,102,sing,old,red,956.5766078997403,None,y,956.5766078997403,None,"['y', 'return']","[0.8155028996989131, 1.1673293998464942]",956.5766078997403,None,,,76YD,001,2023_May_05_1157,ExactRep-v3-final,2021.2.3,59.96519596317314,
,,,,,,,,,,,,102,0,102,0,,,,,,,,,,,,,,,,,,,,,,,,,,,,,,,,,,,,,,,,,,,,,,,,,959.5129086999223,None,,,,,,,,,,,,,,,,,,,,,,,,,,,,,,,,,,,,,,,,,,,,,,,,,,,,,,,,,palace,3,103,sing,old,red,958.2831674991176,None,y,958.2831674991176,None,"['y', 'return']","[0.8527694996446371, 1.1888685999438167]",958.2831674991176,None,,,76YD,001,2023_May_05_1157,ExactRep-v3-final,2021.2.3,59.96519596317314,
,,,,,,,,,,,,103,0,103,0,,,,,,,,,,,,,,,,,,,,,,,,,,,,,,,,,,,,,,,,,,,,,,,,,961.3147153994069,None,,,,,,,,,,,,,,,,,,,,,,,,,,,,,,,,,,,,,,,,,,,,,,,,,,,,,,,,,woman,28,104,sing,old,red,960.0223487997428,None,y,960.0223487997428,None,"['y', 'return']","[0.8656363002955914, 1.257595400325954]",960.0223487997428,None,,,76YD,001,2023_May_05_1157,ExactRep-v3-final,2021.2.3,59.96519596317314,
,,,,,,,,,,,,104,0,104,0,,,,,,,,,,,,,,,,,,,,,,,,,,,,,,,,,,,,,,,,,,,,,,,,,963.4165896996856,None,,,,,,,,,,,,,,,,,,,,,,,,,,,,,,,,,,,,,,,,,,,,,,,,,,,,,,,,,machine,41,105,silent,old,white,961.8241954995319,None,y,961.8241954995319,None,"['y', 'return']","[1.215692000463605, 1.5517889000475407]",961.8241954995319,None,,,76YD,001,2023_May_05_1157,ExactRep-v3-final,2021.2.3,59.96519596317314,
,,,,,,,,,,,,105,0,105,0,,,,,,,,,,,,,,,,,,,,,,,,,,,,,,,,,,,,,,,,,,,,,,,,,965.2350834999233,None,,,,,,,,,,,,,,,,,,,,,,,,,,,,,,,,,,,,,,,,,,,,,,,,,,,,,,,,,colony,88,106,aloud,old,blue,963.9294311990961,None,y,963.9294311990961,None,"['y', 'return']","[0.9186109993606806, 1.2625455996021628]",963.9294311990961,None,,,76YD,001,2023_May_05_1157,ExactRep-v3-final,2021.2.3,59.96519596317314,
,,,,,,,,,,,,106,0,106,0,,,,,,,,,,,,,,,,,,,,,,,,,,,,,,,,,,,,,,,,,,,,,,,,,967.5708911996335,None,,,,,,,,,,,,,,,,,,,,,,,,,,,,,,,,,,,,,,,,,,,,,,,,,,,,,,,,,picture,32,107,sing,old,red,965.7517419997603,None,y,965.7517419997603,None,"['y', 'return']","[1.440221800468862, 1.7763106999918818]",965.7517419997603,None,,,76YD,001,2023_May_05_1157,ExactRep-v3-final,2021.2.3,59.96519596317314,
,,,,,,,,,,,,107,0,107,0,,,,,,,,,,,,,,,,,,,,,,,,,,,,,,,,,,,,,,,,,,,,,,,,,972.7093164995313,None,,,,,,,,,,,,,,,,,,,,,,,,,,,,,,,,,,,,,,,,,,,,,,,,,,,,,,,,,beast,76,108,silent,old,white,968.0848774993792,None,y,968.0848774993792,None,"['n', 'backspace', 'y', 'return']","[1.443096799775958, 2.899069200269878, 4.251069599762559, 4.579104599542916]",968.0848774993792,None,,,76YD,001,2023_May_05_1157,ExactRep-v3-final,2021.2.3,59.96519596317314,
,,,,,,,,,,,,108,0,108,0,,,,,,,,,,,,,,,,,,,,,,,,,,,,,,,,,,,,,,,,,,,,,,,,,974.6113406997174,None,,,,,,,,,,,,,,,,,,,,,,,,,,,,,,,,,,,,,,,,,,,,,,,,,,,,,,,,,world,131,109,silent,new,white,973.2188757993281,None,n,973.2188757993281,None,"['n', 'return']","[1.013099499978125, 1.349111800082028]",973.2188757993281,None,,,76YD,001,2023_May_05_1157,ExactRep-v3-final,2021.2.3,59.96519596317314,
,,,,,,,,,,,,109,0,109,0,,,,,,,,,,,,,,,,,,,,,,,,,,,,,,,,,,,,,,,,,,,,,,,,,977.8644940992817,None,,,,,,,,,,,,,,,,,,,,,,,,,,,,,,,,,,,,,,,,,,,,,,,,,,,,,,,,,butter,78,110,silent,old,white,975.1174725992605,None,n,975.1174725992605,None,"['y', 'backspace', 'n', 'return']","[1.050572800450027, 1.9945662999525666, 2.4024964002892375, 2.7065588999539614]",975.1174725992605,None,,,76YD,001,2023_May_05_1157,ExactRep-v3-final,2021.2.3,59.96519596317314,
,,,,,,,,,,,,110,0,110,0,,,,,,,,,,,,,,,,,,,,,,,,,,,,,,,,,,,,,,,,,,,,,,,,,979.8997986000031,None,,,,,,,,,,,,,,,,,,,,,,,,,,,,,,,,,,,,,,,,,,,,,,,,,,,,,,,,,water,89,111,aloud,old,blue,978.3743447996676,None,n,978.3743447996676,None,"['n', 'return']","[1.1697704000398517, 1.4896805007010698]",978.3743447996676,None,,,76YD,001,2023_May_05_1157,ExactRep-v3-final,2021.2.3,59.96519596317314,
,,,,,,,,,,,,111,0,111,0,,,,,,,,,,,,,,,,,,,,,,,,,,,,,,,,,,,,,,,,,,,,,,,,,981.6182010993361,None,,,,,,,,,,,,,,,,,,,,,,,,,,,,,,,,,,,,,,,,,,,,,,,,,,,,,,,,,city,26,112,sing,old,red,980.4073403999209,None,y,980.4073403999209,None,"['y', 'return']","[0.840816299431026, 1.1766497995704412]",980.4073403999209,None,,,76YD,001,2023_May_05_1157,ExactRep-v3-final,2021.2.3,59.96519596317314,
,,,,,,,,,,,,112,0,112,0,,,,,,,,,,,,,,,,,,,,,,,,,,,,,,,,,,,,,,,,,,,,,,,,,984.0372986998409,None,,,,,,,,,,,,,,,,,,,,,,,,,,,,,,,,,,,,,,,,,,,,,,,,,,,,,,,,,chief,46,113,silent,old,white,982.125001299195,None,y,982.125001299195,None,"['y', 'return']","[1.1311723003163934, 1.8749801004305482]",982.125001299195,None,,,76YD,001,2023_May_05_1157,ExactRep-v3-final,2021.2.3,59.96519596317314,
,,,,,,,,,,,,113,0,113,0,,,,,,,,,,,,,,,,,,,,,,,,,,,,,,,,,,,,,,,,,,,,,,,,,985.8558194991201,None,,,,,,,,,,,,,,,,,,,,,,,,,,,,,,,,,,,,,,,,,,,,,,,,,,,,,,,,,dollar,102,114,aloud,old,blue,984.5444856993854,None,y,984.5444856993854,None,"['y', 'return']","[0.895507799461484, 1.2795496992766857]",984.5444856993854,None,,,76YD,001,2023_May_05_1157,ExactRep-v3-final,2021.2.3,59.96519596317314,
,,,,,,,,,,,,114,0,114,0,,,,,,,,,,,,,,,,,,,,,,,,,,,,,,,,,,,,,,,,,,,,,,,,,987.7075634999201,None,,,,,,,,,,,,,,,,,,,,,,,,,,,,,,,,,,,,,,,,,,,,,,,,,,,,,,,,,anger,90,115,aloud,old,blue,986.3646898996085,None,y,986.3646898996085,None,"['y', 'return']","[0.9312686994671822, 1.2992560993880033]",986.3646898996085,None,,,76YD,001,2023_May_05_1157,ExactRep-v3-final,2021.2.3,59.96519596317314,
,,,,,,,,,,,,115,0,115,0,,,,,,,,,,,,,,,,,,,,,,,,,,,,,,,,,,,,,,,,,,,,,,,,,990.3269981993362,None,,,,,,,,,,,,,,,,,,,,,,,,,,,,,,,,,,,,,,,,,,,,,,,,,,,,,,,,,horse,104,116,aloud,old,blue,988.2205195995048,None,y,988.2205195995048,None,"['y', 'return']","[1.6674740007147193, 2.0596106005832553]",988.2205195995048,None,,,76YD,001,2023_May_05_1157,ExactRep-v3-final,2021.2.3,59.96519596317314,
,,,,,,,,,,,,116,0,116,0,,,,,,,,,,,,,,,,,,,,,,,,,,,,,,,,,,,,,,,,,,,,,,,,,992.797251499258,None,,,,,,,,,,,,,,,,,,,,,,,,,,,,,,,,,,,,,,,,,,,,,,,,,,,,,,,,,wife,83,117,aloud,old,blue,990.8384857997298,None,y,990.8384857997298,None,"['y', 'return']","[1.625539000146091, 1.92153549939394]",990.8384857997298,None,,,76YD,001,2023_May_05_1157,ExactRep-v3-final,2021.2.3,59.96519596317314,
,,,,,,,,,,,,117,0,117,0,,,,,,,,,,,,,,,,,,,,,,,,,,,,,,,,,,,,,,,,,,,,,,,,,994.8648181995377,None,,,,,,,,,,,,,,,,,,,,,,,,,,,,,,,,,,,,,,,,,,,,,,,,,,,,,,,,,shock,235,118,sing,new,red,993.3059475999326,None,n,993.3059475999326,None,"['n', 'return']","[1.0461036004126072, 1.5180685007944703]",993.3059475999326,None,,,76YD,001,2023_May_05_1157,ExactRep-v3-final,2021.2.3,59.96519596317314,
,,,,,,,,,,,,118,0,118,0,,,,,,,,,,,,,,,,,,,,,,,,,,,,,,,,,,,,,,,,,,,,,,,,,996.5830994993448,None,,,,,,,,,,,,,,,,,,,,,,,,,,,,,,,,,,,,,,,,,,,,,,,,,,,,,,,,,boulder,113,119,aloud,old,blue,995.3741982998326,None,y,995.3741982998326,None,"['y', 'return']","[0.8577284002676606, 1.16180759947747]",995.3741982998326,None,,,76YD,001,2023_May_05_1157,ExactRep-v3-final,2021.2.3,59.96519596317314,
,,,,,,,,,,,,119,0,119,0,,,,,,,,,,,,,,,,,,,,,,,,,,,,,,,,,,,,,,,,,,,,,,,,,998.2014654995874,None,,,,,,,,,,,,,,,,,,,,,,,,,,,,,,,,,,,,,,,,,,,,,,,,,,,,,,,,,rock,96,120,aloud,old,blue,997.093011399731,None,y,997.093011399731,None,"['y', 'return']","[0.7870359998196363, 1.0750364996492863]",997.093011399731,None,,,76YD,001,2023_May_05_1157,ExactRep-v3-final,2021.2.3,59.96519596317314,
,,,,,,,,,,,,120,0,120,0,,,,,,,,,,,,,,,,,,,,,,,,,,,,,,,,,,,,,,,,,,,,,,,,,999.8864883994684,None,,,,,,,,,,,,,,,,,,,,,,,,,,,,,,,,,,,,,,,,,,,,,,,,,,,,,,,,,coffee,63,121,silent,old,white,998.711476999335,None,n,998.711476999335,None,"['n', 'return']","[0.8405280001461506, 1.1285683996975422]",998.711476999335,None,,,76YD,001,2023_May_05_1157,ExactRep-v3-final,2021.2.3,59.96519596317314,
,,,,,,,,,,,,121,0,121,0,,,,,,,,,,,,,,,,,,,,,,,,,,,,,,,,,,,,,,,,,,,,,,,,,1001.53829749953,None,,,,,,,,,,,,,,,,,,,,,,,,,,,,,,,,,,,,,,,,,,,,,,,,,,,,,,,,,master,193,122,sing,new,red,1000.3995782993734,None,n,1000.3995782993734,None,"['n', 'return']","[0.80843670014292, 1.1043600998818874]",1000.3995782993734,None,,,76YD,001,2023_May_05_1157,ExactRep-v3-final,2021.2.3,59.96519596317314,
,,,,,,,,,,,,122,0,122,0,,,,,,,,,,,,,,,,,,,,,,,,,,,,,,,,,,,,,,,,,,,,,,,,,1003.3067504996434,None,,,,,,,,,,,,,,,,,,,,,,,,,,,,,,,,,,,,,,,,,,,,,,,,,,,,,,,,,string,15,123,sing,old,red,1002.0518009997904,None,y,1002.0518009997904,None,"['y', 'return']","[0.9002793002873659, 1.2201689006760716]",1002.0518009997904,None,,,76YD,001,2023_May_05_1157,ExactRep-v3-final,2021.2.3,59.96519596317314,
,,,,,,,,,,,,123,0,123,0,,,,,,,,,,,,,,,,,,,,,,,,,,,,,,,,,,,,,,,,,,,,,,,,,1005.1916949991137,None,,,,,,,,,,,,,,,,,,,,,,,,,,,,,,,,,,,,,,,,,,,,,,,,,,,,,,,,,grief,142,124,silent,new,white,1003.8132606996223,None,y,1003.8132606996223,None,"['y', 'return']","[1.0506743993610144, 1.3467776998877525]",1003.8132606996223,None,,,76YD,001,2023_May_05_1157,ExactRep-v3-final,2021.2.3,59.96519596317314,
,,,,,,,,,,,,124,0,124,0,,,,,,,,,,,,,,,,,,,,,,,,,,,,,,,,,,,,,,,,,,,,,,,,,1006.9434619992971,None,,,,,,,,,,,,,,,,,,,,,,,,,,,,,,,,,,,,,,,,,,,,,,,,,,,,,,,,,person,203,125,sing,new,red,1005.6965744998306,None,n,1005.6965744998306,None,"['n', 'return']","[0.8714242000132799, 1.1994470991194248]",1005.6965744998306,None,,,76YD,001,2023_May_05_1157,ExactRep-v3-final,2021.2.3,59.96519596317314,
,,,,,,,,,,,,125,0,125,0,,,,,,,,,,,,,,,,,,,,,,,,,,,,,,,,,,,,,,,,,,,,,,,,,1011.2812749994919,None,,,,,,,,,,,,,,,,,,,,,,,,,,,,,,,,,,,,,,,,,,,,,,,,,,,,,,,,,death,200,126,aloud,new,blue,1007.4475449994206,None,n,1007.4475449994206,None,"['n', 'return']","[3.4405720001086593, 3.800683599896729]",1007.4475449994206,None,,,76YD,001,2023_May_05_1157,ExactRep-v3-final,2021.2.3,59.96519596317314,
,,,,,,,,,,,,126,0,126,0,,,,,,,,,,,,,,,,,,,,,,,,,,,,,,,,,,,,,,,,,,,,,,,,,1012.8827199991792,None,,,,,,,,,,,,,,,,,,,,,,,,,,,,,,,,,,,,,,,,,,,,,,,,,,,,,,,,,time,52,127,silent,old,white,1011.7911522993818,None,n,1011.7911522993818,None,"['n', 'return']","[0.7768449001014233, 1.0567864999175072]",1011.7911522993818,None,,,76YD,001,2023_May_05_1157,ExactRep-v3-final,2021.2.3,59.96519596317314,
,,,,,,,,,,,,127,0,127,0,,,,,,,,,,,,,,,,,,,,,,,,,,,,,,,,,,,,,,,,,,,,,,,,,1014.4341687997803,None,,,,,,,,,,,,,,,,,,,,,,,,,,,,,,,,,,,,,,,,,,,,,,,,,,,,,,,,,fate,99,128,aloud,old,blue,1013.3927652994171,None,y,1013.3927652994171,None,"['y', 'return']","[0.7195494994521141, 0.9992733001708984]",1013.3927652994171,None,,,76YD,001,2023_May_05_1157,ExactRep-v3-final,2021.2.3,59.96519596317314,
,,,,,,,,,,,,128,0,128,0,,,,,,,,,,,,,,,,,,,,,,,,,,,,,,,,,,,,,,,,,,,,,,,,,1016.259735699743,None,,,,,,,,,,,,,,,,,,,,,,,,,,,,,,,,,,,,,,,,,,,,,,,,,,,,,,,,,cotton,158,129,silent,new,white,1014.9440835993737,None,n,1014.9440835993737,None,"['n', 'return']","[0.9361866004765034, 1.2558011002838612]",1014.9440835993737,None,,,76YD,001,2023_May_05_1157,ExactRep-v3-final,2021.2.3,59.96519596317314,
,,,,,,,,,,,,129,0,129,0,,,,,,,,,,,,,,,,,,,,,,,,,,,,,,,,,,,,,,,,,,,,,,,,,1019.172513699159,None,,,,,,,,,,,,,,,,,,,,,,,,,,,,,,,,,,,,,,,,,,,,,,,,,,,,,,,,,circle,4,130,sing,old,red,1016.7849288992584,None,y,1016.7849288992584,None,"['y', 'return']","[2.0552292997017503, 2.3511171992868185]",1016.7849288992584,None,,,76YD,001,2023_May_05_1157,ExactRep-v3-final,2021.2.3,59.96519596317314,
,,,,,,,,,,,,130,0,130,0,,,,,,,,,,,,,,,,,,,,,,,,,,,,,,,,,,,,,,,,,,,,,,,,,1021.908335599117,None,,,,,,,,,,,,,,,,,,,,,,,,,,,,,,,,,,,,,,,,,,,,,,,,,,,,,,,,,thought,176,131,aloud,new,blue,1019.6818683994934,None,n,1019.6818683994934,None,"['n', 'return']","[1.8704074993729591, 2.190308299846947]",1019.6818683994934,None,,,76YD,001,2023_May_05_1157,ExactRep-v3-final,2021.2.3,59.96519596317314,
,,,,,,,,,,,,131,0,131,0,,,,,,,,,,,,,,,,,,,,,,,,,,,,,,,,,,,,,,,,,,,,,,,,,1023.5600541997701,None,,,,,,,,,,,,,,,,,,,,,,,,,,,,,,,,,,,,,,,,,,,,,,,,,,,,,,,,,dress,121,132,silent,new,white,1022.4195524994284,None,n,1022.4195524994284,None,"['n', 'return']","[0.8124851994216442, 1.1004924001172185]",1022.4195524994284,None,,,76YD,001,2023_May_05_1157,ExactRep-v3-final,2021.2.3,59.96519596317314,
