trials_fam.thisRepN,trials_fam.thisTrialN,trials_fam.thisN,trials_fam.thisIndex,trials_prc.thisRepN,trials_prc.thisTrialN,trials_prc.thisN,trials_prc.thisIndex,StudyLoop.thisRepN,StudyLoop.thisTrialN,StudyLoop.thisN,StudyLoop.thisIndex,TestLoop.thisRepN,TestLoop.thisTrialN,TestLoop.thisN,TestLoop.thisIndex,text_colortest.started,text_colortest.stopped,key_colortest.keys,key_colortest.rt,key_colortest.started,key_colortest.stopped,textCondition.started,textCondition.stopped,keyCondition.keys,keyCondition.rt,keyCondition.started,keyCondition.stopped,Condition_between,Condition_counterbal,keyWelcome.keys,keyWelcome.rt,keyWelcome.started,keyWelcome.stopped,welcome_a.started,welcome_a.stopped,welcome_b.started,welcome_b.stopped,welcome_c.started,welcome_c.stopped,welcome_d.started,welcome_d.stopped,welcome_e.started,welcome_e.stopped,welcome_f.started,welcome_f.stopped,key_resp_fam_inst.keys,key_resp_fam_inst.rt,key_resp_fam_inst.started,key_resp_fam_inst.stopped,fam_a.started,fam_a.stopped,fam_b.started,fam_b.stopped,fam_c.started,fam_c.stopped,fam_d.started,fam_d.stopped,fam_e.started,fam_e.stopped,fam_f.started,fam_f.stopped,text_famil.started,text_famil.stopped,textBlank500.started,textBlank500.stopped,key_resp_prc_inst.keys,key_resp_prc_inst.rt,key_resp_prc_inst.started,key_resp_prc_inst.stopped,prac_a.started,prac_a.stopped,prac_b.started,prac_b.stopped,prac_c.started,prac_c.stopped,prac_d.started,prac_d.stopped,prac_e.started,prac_e.stopped,prac_f.started,prac_f.stopped,text_prc_trial.started,text_prc_trial.stopped,key_resp_study_inst.keys,key_resp_study_inst.rt,key_resp_study_inst.started,key_resp_study_inst.stopped,crit_a.started,crit_a.stopped,crit_b.started,crit_b.stopped,crit_c.started,crit_c.stopped,crit_d.started,crit_d.stopped,crit_e.started,crit_e.stopped,crit_f.started,crit_f.stopped,study_word,study_num,study_order,study_type,word_color,textStudy.started,textStudy.stopped,keyStudy.keys,keyStudy.started,keyStudy.stopped,post_study.started,post_study.stopped,key_resp_post_study.keys,key_resp_post_study.rt,key_resp_post_study.started,key_resp_post_study.stopped,test_inst.started,test_inst.stopped,key_resp_test_inst.keys,key_resp_test_inst.rt,key_resp_test_inst.started,key_resp_test_inst.stopped,test_word,test_num,test_order,test_condition,old_new_test,word_color_test,textConf.started,textConf.stopped,Participant Response,textInput.started,textInput.stopped,keyResp.keys,keyResp.rt,keyResp.started,keyResp.stopped,textEnd.started,textEnd.stopped,participant,session,date,expName,psychopyVersion,frameRate,
,,,,,,,,,,,,,,,,20.297154099680483,None,y,13.733591299504042,20.297154099680483,None,,,,,,,,,,,,,,,,,,,,,,,,,,,,,,,,,,,,,,,,,,,,,,,,,,,,,,,,,,,,,,,,,,,,,,,,,,,,,,,,,,,,,,,,,,,,,,,,,,,,,,,,,,,,,,,,,,,,,,77YE,001,2023_May_05_1219,ExactRep-v3-final,2021.2.3,59.92365720958213,
,,,,,,,,,,,,,,,,,,,,,,34.051223799586296,None,e,0.29129770025610924,34.051223799586296,None,,,,,,,,,,,,,,,,,,,,,,,,,,,,,,,,,,,,,,,,,,,,,,,,,,,,,,,,,,,,,,,,,,,,,,,,,,,,,,,,,,,,,,,,,,,,,,,,,,,,,,,,,,,,,,,,77YE,001,2023_May_05_1219,ExactRep-v3-final,2021.2.3,59.92365720958213,
,,,,,,,,,,,,,,,,,,,,,,,,,,,,colorfoils,e,space,2880.4718319000676,44.47341129928827,None,,,,,,,,,,,,,,,,,,,,,,,,,,,,,,,,,,,,,,,,,,,,,,,,,,,,,,,,,,,,,,,,,,,,,,,,,,,,,,,,,,,,,,,,,,,,,,,,,,,,,,,,,,77YE,001,2023_May_05_1219,ExactRep-v3-final,2021.2.3,59.92365720958213,
,,,,,,,,,,,,,,,,,,,,,,,,,,,,,,,,,,34.552790800109506,None,34.552790800109506,None,34.552790800109506,None,34.552790800109506,None,34.552790800109506,None,34.552790800109506,None,space,14.009641399607062,2935.167547999881,None,,,,,,,,,,,,,,,,,,,,,,,,,,,,,,,,,,,,,,,,,,,,,,,,,,,,,,,,,,,,,,,,,,,,,,,,,,,,,,,,,,,,,,,,,,77YE,001,2023_May_05_1219,ExactRep-v3-final,2021.2.3,59.92365720958213,
0,0,0,0,,,,,,,,,,,,,,,,,,,,,,,,,,,,,,,,,,,,,,,,,,,,,,,2925.168499100022,None,2925.168499100022,None,2925.168499100022,None,2925.168499100022,None,2925.168499100022,None,2925.168499100022,None,2949.2595521993935,None,2951.268230199814,None,,,,,,,,,,,,,,,,,,,,,,,,,,,,,,,,,,,,,,,,,,,,,,,,,,,,,,,,,,,,,,,,,,,,,,,,,,77YE,001,2023_May_05_1219,ExactRep-v3-final,2021.2.3,59.92365720958213,
1,0,1,0,,,,,,,,,,,,,,,,,,,,,,,,,,,,,,,,,,,,,,,,,,,,,,,,,,,,,,,,,,,2951.7848915001377,None,2953.7874839995056,None,,,,,,,,,,,,,,,,,,,,,,,,,,,,,,,,,,,,,,,,,,,,,,,,,,,,,,,,,,,,,,,,,,,,,,,,,,77YE,001,2023_May_05_1219,ExactRep-v3-final,2021.2.3,59.92365720958213,
2,0,2,0,,,,,,,,,,,,,,,,,,,,,,,,,,,,,,,,,,,,,,,,,,,,,,,,,,,,,,,,,,,2954.295963199809,None,2956.3067854000255,None,,,,,,,,,,,,,,,,,,,,,,,,,,,,,,,,,,,,,,,,,,,,,,,,,,,,,,,,,,,,,,,,,,,,,,,,,,77YE,001,2023_May_05_1219,ExactRep-v3-final,2021.2.3,59.92365720958213,
3,0,3,0,,,,,,,,,,,,,,,,,,,,,,,,,,,,,,,,,,,,,,,,,,,,,,,,,,,,,,,,,,,2956.813603599556,None,2958.8257968993858,None,,,,,,,,,,,,,,,,,,,,,,,,,,,,,,,,,,,,,,,,,,,,,,,,,,,,,,,,,,,,,,,,,,,,,,,,,,77YE,001,2023_May_05_1219,ExactRep-v3-final,2021.2.3,59.92365720958213,
4,0,4,0,,,,,,,,,,,,,,,,,,,,,,,,,,,,,,,,,,,,,,,,,,,,,,,,,,,,,,,,,,,2959.326336699538,None,2961.3284387998283,None,,,,,,,,,,,,,,,,,,,,,,,,,,,,,,,,,,,,,,,,,,,,,,,,,,,,,,,,,,,,,,,,,,,,,,,,,,77YE,001,2023_May_05_1219,ExactRep-v3-final,2021.2.3,59.92365720958213,
5,0,5,0,,,,,,,,,,,,,,,,,,,,,,,,,,,,,,,,,,,,,,,,,,,,,,,,,,,,,,,,,,,2961.835308900103,None,2963.847550199367,None,,,,,,,,,,,,,,,,,,,,,,,,,,,,,,,,,,,,,,,,,,,,,,,,,,,,,,,,,,,,,,,,,,,,,,,,,,77YE,001,2023_May_05_1219,ExactRep-v3-final,2021.2.3,59.92365720958213,
6,0,6,0,,,,,,,,,,,,,,,,,,,,,,,,,,,,,,,,,,,,,,,,,,,,,,,,,,,,,,,,,,,2964.3510282998905,None,2966.3500098995864,None,,,,,,,,,,,,,,,,,,,,,,,,,,,,,,,,,,,,,,,,,,,,,,,,,,,,,,,,,,,,,,,,,,,,,,,,,,77YE,001,2023_May_05_1219,ExactRep-v3-final,2021.2.3,59.92365720958213,
7,0,7,0,,,,,,,,,,,,,,,,,,,,,,,,,,,,,,,,,,,,,,,,,,,,,,,,,,,,,,,,,,,2966.8541914001107,None,2968.869055199437,None,,,,,,,,,,,,,,,,,,,,,,,,,,,,,,,,,,,,,,,,,,,,,,,,,,,,,,,,,,,,,,,,,,,,,,,,,,77YE,001,2023_May_05_1219,ExactRep-v3-final,2021.2.3,59.92365720958213,
8,0,8,0,,,,,,,,,,,,,,,,,,,,,,,,,,,,,,,,,,,,,,,,,,,,,,,,,,,,,,,,,,,2969.37145639956,None,2971.371670300141,None,,,,,,,,,,,,,,,,,,,,,,,,,,,,,,,,,,,,,,,,,,,,,,,,,,,,,,,,,,,,,,,,,,,,,,,,,,77YE,001,2023_May_05_1219,ExactRep-v3-final,2021.2.3,59.92365720958213,
9,0,9,0,,,,,,,,,,,,,,,,,,,,,,,,,,,,,,,,,,,,,,,,,,,,,,,,,,,,,,,,,,,2971.8740110993385,None,2973.8741357000545,None,,,,,,,,,,,,,,,,,,,,,,,,,,,,,,,,,,,,,,,,,,,,,,,,,,,,,,,,,,,,,,,,,,,,,,,,,,77YE,001,2023_May_05_1219,ExactRep-v3-final,2021.2.3,59.92365720958213,
10,0,10,0,,,,,,,,,,,,,,,,,,,,,,,,,,,,,,,,,,,,,,,,,,,,,,,,,,,,,,,,,,,2974.3747873995453,None,2976.37665640004,None,,,,,,,,,,,,,,,,,,,,,,,,,,,,,,,,,,,,,,,,,,,,,,,,,,,,,,,,,,,,,,,,,,,,,,,,,,77YE,001,2023_May_05_1219,ExactRep-v3-final,2021.2.3,59.92365720958213,
11,0,11,0,,,,,,,,,,,,,,,,,,,,,,,,,,,,,,,,,,,,,,,,,,,,,,,,,,,,,,,,,,,2976.886959299445,None,2978.8956737993285,None,,,,,,,,,,,,,,,,,,,,,,,,,,,,,,,,,,,,,,,,,,,,,,,,,,,,,,,,,,,,,,,,,,,,,,,,,,77YE,001,2023_May_05_1219,ExactRep-v3-final,2021.2.3,59.92365720958213,
12,0,12,0,,,,,,,,,,,,,,,,,,,,,,,,,,,,,,,,,,,,,,,,,,,,,,,,,,,,,,,,,,,2979.396323199384,None,2981.3983891997486,None,,,,,,,,,,,,,,,,,,,,,,,,,,,,,,,,,,,,,,,,,,,,,,,,,,,,,,,,,,,,,,,,,,,,,,,,,,77YE,001,2023_May_05_1219,ExactRep-v3-final,2021.2.3,59.92365720958213,
13,0,13,0,,,,,,,,,,,,,,,,,,,,,,,,,,,,,,,,,,,,,,,,,,,,,,,,,,,,,,,,,,,2981.9051831001416,None,2983.917547999881,None,,,,,,,,,,,,,,,,,,,,,,,,,,,,,,,,,,,,,,,,,,,,,,,,,,,,,,,,,,,,,,,,,,,,,,,,,,77YE,001,2023_May_05_1219,ExactRep-v3-final,2021.2.3,59.92365720958213,
14,0,14,0,,,,,,,,,,,,,,,,,,,,,,,,,,,,,,,,,,,,,,,,,,,,,,,,,,,,,,,,,,,2984.4181188000366,None,2986.4201706992462,None,,,,,,,,,,,,,,,,,,,,,,,,,,,,,,,,,,,,,,,,,,,,,,,,,,,,,,,,,,,,,,,,,,,,,,,,,,77YE,001,2023_May_05_1219,ExactRep-v3-final,2021.2.3,59.92365720958213,
,,,,,,,,,,,,,,,,,,,,,,,,,,,,,,,,,,,,,,,,,,,,,,,,,,,,,,,,,,,,,,,,,,space,13.809802600182593,2997.0719550000504,None,,,,,,,,,,,,,,,,,,,,,,,,,,,,,,,,,,,,,,,,,,,,,,,,,,,,,,,,,,,,,,,,,,,,,,77YE,001,2023_May_05_1219,ExactRep-v3-final,2021.2.3,59.92365720958213,
,,,,0,0,0,0,,,,,,,,,,,,,,,,,,,,,,,,,,,,,,,,,,,,,,,,,,,,,,,,,,,,,,,,,3012.9631263995543,None,,,,,2987.0968771995977,None,2987.0968771995977,None,2987.0968771995977,None,2987.0968771995977,None,2987.0968771995977,None,2987.0968771995977,None,3010.9513145992532,None,,,,,,,,,,,,,,,,,,,,,,,,,,,,,,,,,,,,,,,,,,,,,,,,,,,,,,,,77YE,001,2023_May_05_1219,ExactRep-v3-final,2021.2.3,59.92365720958213,
,,,,1,0,1,0,,,,,,,,,,,,,,,,,,,,,,,,,,,,,,,,,,,,,,,,,,,,,,,,,,,,,,,,,3015.465971599333,None,,,,,,,,,,,,,,,,,3013.463625399396,None,,,,,,,,,,,,,,,,,,,,,,,,,,,,,,,,,,,,,,,,,,,,,,,,,,,,,,,,77YE,001,2023_May_05_1219,ExactRep-v3-final,2021.2.3,59.92365720958213,
,,,,2,0,2,0,,,,,,,,,,,,,,,,,,,,,,,,,,,,,,,,,,,,,,,,,,,,,,,,,,,,,,,,,3017.9680669996887,None,,,,,,,,,,,,,,,,,3015.9663701001555,None,,,,,,,,,,,,,,,,,,,,,,,,,,,,,,,,,,,,,,,,,,,,,,,,,,,,,,,,77YE,001,2023_May_05_1219,ExactRep-v3-final,2021.2.3,59.92365720958213,
,,,,3,0,3,0,,,,,,,,,,,,,,,,,,,,,,,,,,,,,,,,,,,,,,,,,,,,,,,,,,,,,,,,,3020.4707973999903,None,,,,,,,,,,,,,,,,,3018.468834299594,None,,,,,,,,,,,,,,,,,,,,,,,,,,,,,,,,,,,,,,,,,,,,,,,,,,,,,,,,77YE,001,2023_May_05_1219,ExactRep-v3-final,2021.2.3,59.92365720958213,
,,,,4,0,4,0,,,,,,,,,,,,,,,,,,,,,,,,,,,,,,,,,,,,,,,,,,,,,,,,,,,,,,,,,3022.9732301998883,None,,,,,,,,,,,,,,,,,3020.971184999682,None,,,,,,,,,,,,,,,,,,,,,,,,,,,,,,,,,,,,,,,,,,,,,,,,,,,,,,,,77YE,001,2023_May_05_1219,ExactRep-v3-final,2021.2.3,59.92365720958213,
,,,,5,0,5,0,,,,,,,,,,,,,,,,,,,,,,,,,,,,,,,,,,,,,,,,,,,,,,,,,,,,,,,,,3025.4754938995466,None,,,,,,,,,,,,,,,,,3023.473794099875,None,,,,,,,,,,,,,,,,,,,,,,,,,,,,,,,,,,,,,,,,,,,,,,,,,,,,,,,,77YE,001,2023_May_05_1219,ExactRep-v3-final,2021.2.3,59.92365720958213,
,,,,6,0,6,0,,,,,,,,,,,,,,,,,,,,,,,,,,,,,,,,,,,,,,,,,,,,,,,,,,,,,,,,,3027.9783381996676,None,,,,,,,,,,,,,,,,,3025.976397799328,None,,,,,,,,,,,,,,,,,,,,,,,,,,,,,,,,,,,,,,,,,,,,,,,,,,,,,,,,77YE,001,2023_May_05_1219,ExactRep-v3-final,2021.2.3,59.92365720958213,
,,,,7,0,7,0,,,,,,,,,,,,,,,,,,,,,,,,,,,,,,,,,,,,,,,,,,,,,,,,,,,,,,,,,3030.480784099549,None,,,,,,,,,,,,,,,,,3028.478849899955,None,,,,,,,,,,,,,,,,,,,,,,,,,,,,,,,,,,,,,,,,,,,,,,,,,,,,,,,,77YE,001,2023_May_05_1219,ExactRep-v3-final,2021.2.3,59.92365720958213,
,,,,8,0,8,0,,,,,,,,,,,,,,,,,,,,,,,,,,,,,,,,,,,,,,,,,,,,,,,,,,,,,,,,,3032.983290099539,None,,,,,,,,,,,,,,,,,3030.981127699837,None,,,,,,,,,,,,,,,,,,,,,,,,,,,,,,,,,,,,,,,,,,,,,,,,,,,,,,,,77YE,001,2023_May_05_1219,ExactRep-v3-final,2021.2.3,59.92365720958213,
,,,,9,0,9,0,,,,,,,,,,,,,,,,,,,,,,,,,,,,,,,,,,,,,,,,,,,,,,,,,,,,,,,,,3035.485707299784,None,,,,,,,,,,,,,,,,,3033.483814800158,None,,,,,,,,,,,,,,,,,,,,,,,,,,,,,,,,,,,,,,,,,,,,,,,,,,,,,,,,77YE,001,2023_May_05_1219,ExactRep-v3-final,2021.2.3,59.92365720958213,
,,,,10,0,10,0,,,,,,,,,,,,,,,,,,,,,,,,,,,,,,,,,,,,,,,,,,,,,,,,,,,,,,,,,3037.988318799995,None,,,,,,,,,,,,,,,,,3035.9863104000688,None,,,,,,,,,,,,,,,,,,,,,,,,,,,,,,,,,,,,,,,,,,,,,,,,,,,,,,,,77YE,001,2023_May_05_1219,ExactRep-v3-final,2021.2.3,59.92365720958213,
,,,,11,0,11,0,,,,,,,,,,,,,,,,,,,,,,,,,,,,,,,,,,,,,,,,,,,,,,,,,,,,,,,,,3040.4907538993284,None,,,,,,,,,,,,,,,,,3038.488688199781,None,,,,,,,,,,,,,,,,,,,,,,,,,,,,,,,,,,,,,,,,,,,,,,,,,,,,,,,,77YE,001,2023_May_05_1219,ExactRep-v3-final,2021.2.3,59.92365720958213,
,,,,12,0,12,0,,,,,,,,,,,,,,,,,,,,,,,,,,,,,,,,,,,,,,,,,,,,,,,,,,,,,,,,,3042.9932450000197,None,,,,,,,,,,,,,,,,,3040.991307700053,None,,,,,,,,,,,,,,,,,,,,,,,,,,,,,,,,,,,,,,,,,,,,,,,,,,,,,,,,77YE,001,2023_May_05_1219,ExactRep-v3-final,2021.2.3,59.92365720958213,
,,,,13,0,13,0,,,,,,,,,,,,,,,,,,,,,,,,,,,,,,,,,,,,,,,,,,,,,,,,,,,,,,,,,3045.495996600017,None,,,,,,,,,,,,,,,,,3043.4939513998106,None,,,,,,,,,,,,,,,,,,,,,,,,,,,,,,,,,,,,,,,,,,,,,,,,,,,,,,,,77YE,001,2023_May_05_1219,ExactRep-v3-final,2021.2.3,59.92365720958213,
,,,,14,0,14,0,,,,,,,,,,,,,,,,,,,,,,,,,,,,,,,,,,,,,,,,,,,,,,,,,,,,,,,,,3047.9981983993202,None,,,,,,,,,,,,,,,,,3045.9963462995365,None,,,,,,,,,,,,,,,,,,,,,,,,,,,,,,,,,,,,,,,,,,,,,,,,,,,,,,,,77YE,001,2023_May_05_1219,ExactRep-v3-final,2021.2.3,59.92365720958213,
,,,,,,,,,,,,,,,,,,,,,,,,,,,,,,,,,,,,,,,,,,,,,,,,,,,,,,,,,,,,,,,,,,,,,,,,,,,,,,,,,,,,space,21.149748999625444,3058.6036410992965,None,,,,,,,,,,,,,,,,,,,,,,,,,,,,,,,,,,,,,,,,,,,,,,,,,,,,77YE,001,2023_May_05_1219,ExactRep-v3-final,2021.2.3,59.92365720958213,
,,,,,,,,0,0,0,0,,,,,,,,,,,,,,,,,,,,,,,,,,,,,,,,,,,,,,,,,,,,,,,,,,,,,3081.83225459978,None,,,,,,,,,,,,,,,,,,,,,,,3048.645155799575,None,3048.645155799575,None,3048.645155799575,None,3048.645155799575,None,3048.645155799575,None,3048.645155799575,None,book,8,1,sing,blue,3079.82716299966,None,None,3079.82716299966,None,,,,,,,,,,,,,,,,,,,,,,,,,,,,,,77YE,001,2023_May_05_1219,ExactRep-v3-final,2021.2.3,59.92365720958213,
,,,,,,,,1,0,1,0,,,,,,,,,,,,,,,,,,,,,,,,,,,,,,,,,,,,,,,,,,,,,,,,,,,,,3084.351502799429,None,,,,,,,,,,,,,,,,,,,,,,,,,,,,,,,,,,,star,71,2,silent,red,3082.3514823997393,None,None,3082.3514823997393,None,,,,,,,,,,,,,,,,,,,,,,,,,,,,,,77YE,001,2023_May_05_1219,ExactRep-v3-final,2021.2.3,59.92365720958213,
,,,,,,,,2,0,2,0,,,,,,,,,,,,,,,,,,,,,,,,,,,,,,,,,,,,,,,,,,,,,,,,,,,,,3086.8538434999064,None,,,,,,,,,,,,,,,,,,,,,,,,,,,,,,,,,,,dream,19,3,sing,blue,3084.8527723001316,None,None,3084.8527723001316,None,,,,,,,,,,,,,,,,,,,,,,,,,,,,,,77YE,001,2023_May_05_1219,ExactRep-v3-final,2021.2.3,59.92365720958213,
,,,,,,,,3,0,3,0,,,,,,,,,,,,,,,,,,,,,,,,,,,,,,,,,,,,,,,,,,,,,,,,,,,,,3089.373049499467,None,,,,,,,,,,,,,,,,,,,,,,,,,,,,,,,,,,,person,82,4,aloud,white,3087.3624287992716,None,None,3087.3624287992716,None,,,,,,,,,,,,,,,,,,,,,,,,,,,,,,77YE,001,2023_May_05_1219,ExactRep-v3-final,2021.2.3,59.92365720958213,
,,,,,,,,4,0,4,0,,,,,,,,,,,,,,,,,,,,,,,,,,,,,,,,,,,,,,,,,,,,,,,,,,,,,3091.875586300157,None,,,,,,,,,,,,,,,,,,,,,,,,,,,,,,,,,,,breast,117,5,aloud,white,3089.874391200021,None,None,3089.874391200021,None,,,,,,,,,,,,,,,,,,,,,,,,,,,,,,77YE,001,2023_May_05_1219,ExactRep-v3-final,2021.2.3,59.92365720958213,
,,,,,,,,5,0,5,0,,,,,,,,,,,,,,,,,,,,,,,,,,,,,,,,,,,,,,,,,,,,,,,,,,,,,3094.394587099552,None,,,,,,,,,,,,,,,,,,,,,,,,,,,,,,,,,,,seat,26,6,sing,blue,3092.3794863997027,None,None,3092.3794863997027,None,,,,,,,,,,,,,,,,,,,,,,,,,,,,,,77YE,001,2023_May_05_1219,ExactRep-v3-final,2021.2.3,59.92365720958213,
,,,,,,,,6,0,6,0,,,,,,,,,,,,,,,,,,,,,,,,,,,,,,,,,,,,,,,,,,,,,,,,,,,,,3096.913650999777,None,,,,,,,,,,,,,,,,,,,,,,,,,,,,,,,,,,,market,73,7,silent,red,3094.9012233996764,None,None,3094.9012233996764,None,,,,,,,,,,,,,,,,,,,,,,,,,,,,,,77YE,001,2023_May_05_1219,ExactRep-v3-final,2021.2.3,59.92365720958213,
,,,,,,,,7,0,7,0,,,,,,,,,,,,,,,,,,,,,,,,,,,,,,,,,,,,,,,,,,,,,,,,,,,,,3099.4330787993968,None,,,,,,,,,,,,,,,,,,,,,,,,,,,,,,,,,,,season,36,8,sing,blue,3097.4229210997,None,None,3097.4229210997,None,,,,,,,,,,,,,,,,,,,,,,,,,,,,,,77YE,001,2023_May_05_1219,ExactRep-v3-final,2021.2.3,59.92365720958213,
,,,,,,,,8,0,8,0,,,,,,,,,,,,,,,,,,,,,,,,,,,,,,,,,,,,,,,,,,,,,,,,,,,,,3101.9355771997944,None,,,,,,,,,,,,,,,,,,,,,,,,,,,,,,,,,,,dollar,21,9,sing,blue,3099.9334333995357,None,None,3099.9334333995357,None,,,,,,,,,,,,,,,,,,,,,,,,,,,,,,77YE,001,2023_May_05_1219,ExactRep-v3-final,2021.2.3,59.92365720958213,
,,,,,,,,9,0,9,0,,,,,,,,,,,,,,,,,,,,,,,,,,,,,,,,,,,,,,,,,,,,,,,,,,,,,3104.4547365996987,None,,,,,,,,,,,,,,,,,,,,,,,,,,,,,,,,,,,square,97,10,aloud,white,3102.4444578001276,None,None,3102.4444578001276,None,,,,,,,,,,,,,,,,,,,,,,,,,,,,,,77YE,001,2023_May_05_1219,ExactRep-v3-final,2021.2.3,59.92365720958213,
,,,,,,,,10,0,10,0,,,,,,,,,,,,,,,,,,,,,,,,,,,,,,,,,,,,,,,,,,,,,,,,,,,,,3106.9739795001224,None,,,,,,,,,,,,,,,,,,,,,,,,,,,,,,,,,,,weapon,58,11,silent,red,3104.9595412993804,None,None,3104.9595412993804,None,,,,,,,,,,,,,,,,,,,,,,,,,,,,,,77YE,001,2023_May_05_1219,ExactRep-v3-final,2021.2.3,59.92365720958213,
,,,,,,,,11,0,11,0,,,,,,,,,,,,,,,,,,,,,,,,,,,,,,,,,,,,,,,,,,,,,,,,,,,,,3109.4772801995277,None,,,,,,,,,,,,,,,,,,,,,,,,,,,,,,,,,,,metal,38,12,sing,blue,3107.4746598992497,None,None,3107.4746598992497,None,,,,,,,,,,,,,,,,,,,,,,,,,,,,,,77YE,001,2023_May_05_1219,ExactRep-v3-final,2021.2.3,59.92365720958213,
,,,,,,,,12,0,12,0,,,,,,,,,,,,,,,,,,,,,,,,,,,,,,,,,,,,,,,,,,,,,,,,,,,,,3111.9789277995005,None,,,,,,,,,,,,,,,,,,,,,,,,,,,,,,,,,,,money,3,13,sing,blue,3109.9775152998045,None,None,3109.9775152998045,None,,,,,,,,,,,,,,,,,,,,,,,,,,,,,,77YE,001,2023_May_05_1219,ExactRep-v3-final,2021.2.3,59.92365720958213,
,,,,,,,,13,0,13,0,,,,,,,,,,,,,,,,,,,,,,,,,,,,,,,,,,,,,,,,,,,,,,,,,,,,,3114.4814425995573,None,,,,,,,,,,,,,,,,,,,,,,,,,,,,,,,,,,,fire,86,14,aloud,white,3112.48185659945,None,None,3112.48185659945,None,,,,,,,,,,,,,,,,,,,,,,,,,,,,,,77YE,001,2023_May_05_1219,ExactRep-v3-final,2021.2.3,59.92365720958213,
,,,,,,,,14,0,14,0,,,,,,,,,,,,,,,,,,,,,,,,,,,,,,,,,,,,,,,,,,,,,,,,,,,,,3116.983834299259,None,,,,,,,,,,,,,,,,,,,,,,,,,,,,,,,,,,,maiden,25,15,sing,blue,3114.9818027000874,None,None,3114.9818027000874,None,,,,,,,,,,,,,,,,,,,,,,,,,,,,,,77YE,001,2023_May_05_1219,ExactRep-v3-final,2021.2.3,59.92365720958213,
,,,,,,,,15,0,15,0,,,,,,,,,,,,,,,,,,,,,,,,,,,,,,,,,,,,,,,,,,,,,,,,,,,,,3119.5029941992834,None,,,,,,,,,,,,,,,,,,,,,,,,,,,,,,,,,,,teacher,39,16,silent,red,3117.487766799517,None,None,3117.487766799517,None,,,,,,,,,,,,,,,,,,,,,,,,,,,,,,77YE,001,2023_May_05_1219,ExactRep-v3-final,2021.2.3,59.92365720958213,
,,,,,,,,16,0,16,0,,,,,,,,,,,,,,,,,,,,,,,,,,,,,,,,,,,,,,,,,,,,,,,,,,,,,3122.022478199564,None,,,,,,,,,,,,,,,,,,,,,,,,,,,,,,,,,,,valley,108,17,aloud,white,3120.0178611995652,None,None,3120.0178611995652,None,,,,,,,,,,,,,,,,,,,,,,,,,,,,,,77YE,001,2023_May_05_1219,ExactRep-v3-final,2021.2.3,59.92365720958213,
,,,,,,,,17,0,17,0,,,,,,,,,,,,,,,,,,,,,,,,,,,,,,,,,,,,,,,,,,,,,,,,,,,,,3124.541372199543,None,,,,,,,,,,,,,,,,,,,,,,,,,,,,,,,,,,,salary,102,18,aloud,white,3122.5257187001407,None,None,3122.5257187001407,None,,,,,,,,,,,,,,,,,,,,,,,,,,,,,,77YE,001,2023_May_05_1219,ExactRep-v3-final,2021.2.3,59.92365720958213,
,,,,,,,,18,0,18,0,,,,,,,,,,,,,,,,,,,,,,,,,,,,,,,,,,,,,,,,,,,,,,,,,,,,,3127.0440186997876,None,,,,,,,,,,,,,,,,,,,,,,,,,,,,,,,,,,,tool,40,19,silent,red,3125.041687499732,None,None,3125.041687499732,None,,,,,,,,,,,,,,,,,,,,,,,,,,,,,,77YE,001,2023_May_05_1219,ExactRep-v3-final,2021.2.3,59.92365720958213,
,,,,,,,,19,0,19,0,,,,,,,,,,,,,,,,,,,,,,,,,,,,,,,,,,,,,,,,,,,,,,,,,,,,,3129.5632215999067,None,,,,,,,,,,,,,,,,,,,,,,,,,,,,,,,,,,,toy,47,20,silent,red,3127.553479099646,None,None,3127.553479099646,None,,,,,,,,,,,,,,,,,,,,,,,,,,,,,,77YE,001,2023_May_05_1219,ExactRep-v3-final,2021.2.3,59.92365720958213,
,,,,,,,,20,0,20,0,,,,,,,,,,,,,,,,,,,,,,,,,,,,,,,,,,,,,,,,,,,,,,,,,,,,,3132.065685099922,None,,,,,,,,,,,,,,,,,,,,,,,,,,,,,,,,,,,shock,75,21,silent,red,3130.0646238001063,None,None,3130.0646238001063,None,,,,,,,,,,,,,,,,,,,,,,,,,,,,,,77YE,001,2023_May_05_1219,ExactRep-v3-final,2021.2.3,59.92365720958213,
,,,,,,,,21,0,21,0,,,,,,,,,,,,,,,,,,,,,,,,,,,,,,,,,,,,,,,,,,,,,,,,,,,,,3134.568056399934,None,,,,,,,,,,,,,,,,,,,,,,,,,,,,,,,,,,,camp,69,22,silent,red,3132.5689797997475,None,None,3132.5689797997475,None,,,,,,,,,,,,,,,,,,,,,,,,,,,,,,77YE,001,2023_May_05_1219,ExactRep-v3-final,2021.2.3,59.92365720958213,
,,,,,,,,22,0,22,0,,,,,,,,,,,,,,,,,,,,,,,,,,,,,,,,,,,,,,,,,,,,,,,,,,,,,3137.087238899432,None,,,,,,,,,,,,,,,,,,,,,,,,,,,,,,,,,,,ship,87,23,aloud,white,3135.0745895998552,None,None,3135.0745895998552,None,,,,,,,,,,,,,,,,,,,,,,,,,,,,,,77YE,001,2023_May_05_1219,ExactRep-v3-final,2021.2.3,59.92365720958213,
,,,,,,,,23,0,23,0,,,,,,,,,,,,,,,,,,,,,,,,,,,,,,,,,,,,,,,,,,,,,,,,,,,,,3139.606622999534,None,,,,,,,,,,,,,,,,,,,,,,,,,,,,,,,,,,,silence,13,24,sing,blue,3137.59391269926,None,None,3137.59391269926,None,,,,,,,,,,,,,,,,,,,,,,,,,,,,,,77YE,001,2023_May_05_1219,ExactRep-v3-final,2021.2.3,59.92365720958213,
,,,,,,,,24,0,24,0,,,,,,,,,,,,,,,,,,,,,,,,,,,,,,,,,,,,,,,,,,,,,,,,,,,,,3142.1259650997818,None,,,,,,,,,,,,,,,,,,,,,,,,,,,,,,,,,,,chief,5,25,sing,blue,3140.115588599816,None,None,3140.115588599816,None,,,,,,,,,,,,,,,,,,,,,,,,,,,,,,77YE,001,2023_May_05_1219,ExactRep-v3-final,2021.2.3,59.92365720958213,
,,,,,,,,25,0,25,0,,,,,,,,,,,,,,,,,,,,,,,,,,,,,,,,,,,,,,,,,,,,,,,,,,,,,3144.628258999437,None,,,,,,,,,,,,,,,,,,,,,,,,,,,,,,,,,,,hope,81,26,aloud,white,3142.6263747001067,None,None,3142.6263747001067,None,,,,,,,,,,,,,,,,,,,,,,,,,,,,,,77YE,001,2023_May_05_1219,ExactRep-v3-final,2021.2.3,59.92365720958213,
,,,,,,,,26,0,26,0,,,,,,,,,,,,,,,,,,,,,,,,,,,,,,,,,,,,,,,,,,,,,,,,,,,,,3147.130815499462,None,,,,,,,,,,,,,,,,,,,,,,,,,,,,,,,,,,,lip,0,27,sing,blue,3145.131153899245,None,None,3145.131153899245,None,,,,,,,,,,,,,,,,,,,,,,,,,,,,,,77YE,001,2023_May_05_1219,ExactRep-v3-final,2021.2.3,59.92365720958213,
,,,,,,,,27,0,27,0,,,,,,,,,,,,,,,,,,,,,,,,,,,,,,,,,,,,,,,,,,,,,,,,,,,,,3149.649855799973,None,,,,,,,,,,,,,,,,,,,,,,,,,,,,,,,,,,,house,51,28,silent,red,3147.636314199306,None,None,3147.636314199306,None,,,,,,,,,,,,,,,,,,,,,,,,,,,,,,77YE,001,2023_May_05_1219,ExactRep-v3-final,2021.2.3,59.92365720958213,
,,,,,,,,28,0,28,0,,,,,,,,,,,,,,,,,,,,,,,,,,,,,,,,,,,,,,,,,,,,,,,,,,,,,3152.1691459994763,None,,,,,,,,,,,,,,,,,,,,,,,,,,,,,,,,,,,owner,62,29,silent,red,3150.1538301995024,None,None,3150.1538301995024,None,,,,,,,,,,,,,,,,,,,,,,,,,,,,,,77YE,001,2023_May_05_1219,ExactRep-v3-final,2021.2.3,59.92365720958213,
,,,,,,,,29,0,29,0,,,,,,,,,,,,,,,,,,,,,,,,,,,,,,,,,,,,,,,,,,,,,,,,,,,,,3154.6714110998437,None,,,,,,,,,,,,,,,,,,,,,,,,,,,,,,,,,,,fate,76,30,silent,red,3152.670909599401,None,None,3152.670909599401,None,,,,,,,,,,,,,,,,,,,,,,,,,,,,,,77YE,001,2023_May_05_1219,ExactRep-v3-final,2021.2.3,59.92365720958213,
,,,,,,,,30,0,30,0,,,,,,,,,,,,,,,,,,,,,,,,,,,,,,,,,,,,,,,,,,,,,,,,,,,,,3157.1906225997955,None,,,,,,,,,,,,,,,,,,,,,,,,,,,,,,,,,,,steam,24,31,sing,blue,3155.1777248000726,None,None,3155.1777248000726,None,,,,,,,,,,,,,,,,,,,,,,,,,,,,,,77YE,001,2023_May_05_1219,ExactRep-v3-final,2021.2.3,59.92365720958213,
,,,,,,,,31,0,31,0,,,,,,,,,,,,,,,,,,,,,,,,,,,,,,,,,,,,,,,,,,,,,,,,,,,,,3159.7100029001012,None,,,,,,,,,,,,,,,,,,,,,,,,,,,,,,,,,,,car,14,32,sing,blue,3157.6967230001464,None,None,3157.6967230001464,None,,,,,,,,,,,,,,,,,,,,,,,,,,,,,,77YE,001,2023_May_05_1219,ExactRep-v3-final,2021.2.3,59.92365720958213,
,,,,,,,,32,0,32,0,,,,,,,,,,,,,,,,,,,,,,,,,,,,,,,,,,,,,,,,,,,,,,,,,,,,,3162.212495699525,None,,,,,,,,,,,,,,,,,,,,,,,,,,,,,,,,,,,disease,95,33,aloud,white,3160.2105577997863,None,None,3160.2105577997863,None,,,,,,,,,,,,,,,,,,,,,,,,,,,,,,77YE,001,2023_May_05_1219,ExactRep-v3-final,2021.2.3,59.92365720958213,
,,,,,,,,33,0,33,0,,,,,,,,,,,,,,,,,,,,,,,,,,,,,,,,,,,,,,,,,,,,,,,,,,,,,3164.7151679992676,None,,,,,,,,,,,,,,,,,,,,,,,,,,,,,,,,,,,length,85,34,aloud,white,3162.716183600016,None,None,3162.716183600016,None,,,,,,,,,,,,,,,,,,,,,,,,,,,,,,77YE,001,2023_May_05_1219,ExactRep-v3-final,2021.2.3,59.92365720958213,
,,,,,,,,34,0,34,0,,,,,,,,,,,,,,,,,,,,,,,,,,,,,,,,,,,,,,,,,,,,,,,,,,,,,3167.2341773994267,None,,,,,,,,,,,,,,,,,,,,,,,,,,,,,,,,,,,child,103,35,aloud,white,3165.225792599842,None,None,3165.225792599842,None,,,,,,,,,,,,,,,,,,,,,,,,,,,,,,77YE,001,2023_May_05_1219,ExactRep-v3-final,2021.2.3,59.92365720958213,
,,,,,,,,35,0,35,0,,,,,,,,,,,,,,,,,,,,,,,,,,,,,,,,,,,,,,,,,,,,,,,,,,,,,3169.7531845001504,None,,,,,,,,,,,,,,,,,,,,,,,,,,,,,,,,,,,method,44,36,silent,red,3167.7384405992925,None,None,3167.7384405992925,None,,,,,,,,,,,,,,,,,,,,,,,,,,,,,,77YE,001,2023_May_05_1219,ExactRep-v3-final,2021.2.3,59.92365720958213,
,,,,,,,,36,0,36,0,,,,,,,,,,,,,,,,,,,,,,,,,,,,,,,,,,,,,,,,,,,,,,,,,,,,,3172.2724340995774,None,,,,,,,,,,,,,,,,,,,,,,,,,,,,,,,,,,,flower,65,37,silent,red,3170.259030999616,None,None,3170.259030999616,None,,,,,,,,,,,,,,,,,,,,,,,,,,,,,,77YE,001,2023_May_05_1219,ExactRep-v3-final,2021.2.3,59.92365720958213,
,,,,,,,,37,0,37,0,,,,,,,,,,,,,,,,,,,,,,,,,,,,,,,,,,,,,,,,,,,,,,,,,,,,,3174.7748500993475,None,,,,,,,,,,,,,,,,,,,,,,,,,,,,,,,,,,,city,116,38,aloud,white,3172.77292319946,None,None,3172.77292319946,None,,,,,,,,,,,,,,,,,,,,,,,,,,,,,,77YE,001,2023_May_05_1219,ExactRep-v3-final,2021.2.3,59.92365720958213,
,,,,,,,,38,0,38,0,,,,,,,,,,,,,,,,,,,,,,,,,,,,,,,,,,,,,,,,,,,,,,,,,,,,,3177.2941137999296,None,,,,,,,,,,,,,,,,,,,,,,,,,,,,,,,,,,,dawn,31,39,sing,blue,3175.280017199926,None,None,3175.280017199926,None,,,,,,,,,,,,,,,,,,,,,,,,,,,,,,77YE,001,2023_May_05_1219,ExactRep-v3-final,2021.2.3,59.92365720958213,
,,,,,,,,39,0,39,0,,,,,,,,,,,,,,,,,,,,,,,,,,,,,,,,,,,,,,,,,,,,,,,,,,,,,3179.7967656999826,None,,,,,,,,,,,,,,,,,,,,,,,,,,,,,,,,,,,anger,49,40,silent,red,3177.7974805999547,None,None,3177.7974805999547,None,,,,,,,,,,,,,,,,,,,,,,,,,,,,,,77YE,001,2023_May_05_1219,ExactRep-v3-final,2021.2.3,59.92365720958213,
,,,,,,,,40,0,40,0,,,,,,,,,,,,,,,,,,,,,,,,,,,,,,,,,,,,,,,,,,,,,,,,,,,,,3182.299266899936,None,,,,,,,,,,,,,,,,,,,,,,,,,,,,,,,,,,,nail,22,41,sing,blue,3180.2997322995216,None,None,3180.2997322995216,None,,,,,,,,,,,,,,,,,,,,,,,,,,,,,,77YE,001,2023_May_05_1219,ExactRep-v3-final,2021.2.3,59.92365720958213,
,,,,,,,,41,0,41,0,,,,,,,,,,,,,,,,,,,,,,,,,,,,,,,,,,,,,,,,,,,,,,,,,,,,,3184.8182282997295,None,,,,,,,,,,,,,,,,,,,,,,,,,,,,,,,,,,,custom,41,42,silent,red,3182.8051077993587,None,None,3182.8051077993587,None,,,,,,,,,,,,,,,,,,,,,,,,,,,,,,77YE,001,2023_May_05_1219,ExactRep-v3-final,2021.2.3,59.92365720958213,
,,,,,,,,42,0,42,0,,,,,,,,,,,,,,,,,,,,,,,,,,,,,,,,,,,,,,,,,,,,,,,,,,,,,3187.3210202995688,None,,,,,,,,,,,,,,,,,,,,,,,,,,,,,,,,,,,grief,56,43,silent,red,3185.320743800141,None,None,3185.320743800141,None,,,,,,,,,,,,,,,,,,,,,,,,,,,,,,77YE,001,2023_May_05_1219,ExactRep-v3-final,2021.2.3,59.92365720958213,
,,,,,,,,43,0,43,0,,,,,,,,,,,,,,,,,,,,,,,,,,,,,,,,,,,,,,,,,,,,,,,,,,,,,3189.8399805994704,None,,,,,,,,,,,,,,,,,,,,,,,,,,,,,,,,,,,love,113,44,aloud,white,3187.8251388994977,None,None,3187.8251388994977,None,,,,,,,,,,,,,,,,,,,,,,,,,,,,,,77YE,001,2023_May_05_1219,ExactRep-v3-final,2021.2.3,59.92365720958213,
,,,,,,,,44,0,44,0,,,,,,,,,,,,,,,,,,,,,,,,,,,,,,,,,,,,,,,,,,,,,,,,,,,,,3192.342448699288,None,,,,,,,,,,,,,,,,,,,,,,,,,,,,,,,,,,,rod,90,45,aloud,white,3190.3432003995404,None,None,3190.3432003995404,None,,,,,,,,,,,,,,,,,,,,,,,,,,,,,,77YE,001,2023_May_05_1219,ExactRep-v3-final,2021.2.3,59.92365720958213,
,,,,,,,,45,0,45,0,,,,,,,,,,,,,,,,,,,,,,,,,,,,,,,,,,,,,,,,,,,,,,,,,,,,,3194.861873799935,None,,,,,,,,,,,,,,,,,,,,,,,,,,,,,,,,,,,blossom,96,46,aloud,white,3192.8510665996,None,None,3192.8510665996,None,,,,,,,,,,,,,,,,,,,,,,,,,,,,,,77YE,001,2023_May_05_1219,ExactRep-v3-final,2021.2.3,59.92365720958213,
,,,,,,,,46,0,46,0,,,,,,,,,,,,,,,,,,,,,,,,,,,,,,,,,,,,,,,,,,,,,,,,,,,,,3197.380861999467,None,,,,,,,,,,,,,,,,,,,,,,,,,,,,,,,,,,,hide,52,47,silent,red,3195.3683905992657,None,None,3195.3683905992657,None,,,,,,,,,,,,,,,,,,,,,,,,,,,,,,77YE,001,2023_May_05_1219,ExactRep-v3-final,2021.2.3,59.92365720958213,
,,,,,,,,47,0,47,0,,,,,,,,,,,,,,,,,,,,,,,,,,,,,,,,,,,,,,,,,,,,,,,,,,,,,3199.8999927993864,None,,,,,,,,,,,,,,,,,,,,,,,,,,,,,,,,,,,avenue,105,48,aloud,white,3197.8854339998215,None,None,3197.8854339998215,None,,,,,,,,,,,,,,,,,,,,,,,,,,,,,,77YE,001,2023_May_05_1219,ExactRep-v3-final,2021.2.3,59.92365720958213,
,,,,,,,,48,0,48,0,,,,,,,,,,,,,,,,,,,,,,,,,,,,,,,,,,,,,,,,,,,,,,,,,,,,,3202.4025162998587,None,,,,,,,,,,,,,,,,,,,,,,,,,,,,,,,,,,,doll,70,49,silent,red,3200.4007791997865,None,None,3200.4007791997865,None,,,,,,,,,,,,,,,,,,,,,,,,,,,,,,77YE,001,2023_May_05_1219,ExactRep-v3-final,2021.2.3,59.92365720958213,
,,,,,,,,49,0,49,0,,,,,,,,,,,,,,,,,,,,,,,,,,,,,,,,,,,,,,,,,,,,,,,,,,,,,3204.9218815993518,None,,,,,,,,,,,,,,,,,,,,,,,,,,,,,,,,,,,pupil,80,50,aloud,white,3202.912437199615,None,None,3202.912437199615,None,,,,,,,,,,,,,,,,,,,,,,,,,,,,,,77YE,001,2023_May_05_1219,ExactRep-v3-final,2021.2.3,59.92365720958213,
,,,,,,,,50,0,50,0,,,,,,,,,,,,,,,,,,,,,,,,,,,,,,,,,,,,,,,,,,,,,,,,,,,,,3207.424446099438,None,,,,,,,,,,,,,,,,,,,,,,,,,,,,,,,,,,,present,106,51,aloud,white,3205.4224006999284,None,None,3205.4224006999284,None,,,,,,,,,,,,,,,,,,,,,,,,,,,,,,77YE,001,2023_May_05_1219,ExactRep-v3-final,2021.2.3,59.92365720958213,
,,,,,,,,51,0,51,0,,,,,,,,,,,,,,,,,,,,,,,,,,,,,,,,,,,,,,,,,,,,,,,,,,,,,3209.9436339996755,None,,,,,,,,,,,,,,,,,,,,,,,,,,,,,,,,,,,pole,28,52,sing,blue,3207.9295267993584,None,None,3207.9295267993584,None,,,,,,,,,,,,,,,,,,,,,,,,,,,,,,77YE,001,2023_May_05_1219,ExactRep-v3-final,2021.2.3,59.92365720958213,
,,,,,,,,52,0,52,0,,,,,,,,,,,,,,,,,,,,,,,,,,,,,,,,,,,,,,,,,,,,,,,,,,,,,3212.4628109000623,None,,,,,,,,,,,,,,,,,,,,,,,,,,,,,,,,,,,rock,1,53,sing,blue,3210.4472146993503,None,None,3210.4472146993503,None,,,,,,,,,,,,,,,,,,,,,,,,,,,,,,77YE,001,2023_May_05_1219,ExactRep-v3-final,2021.2.3,59.92365720958213,
,,,,,,,,53,0,53,0,,,,,,,,,,,,,,,,,,,,,,,,,,,,,,,,,,,,,,,,,,,,,,,,,,,,,3214.9653089996427,None,,,,,,,,,,,,,,,,,,,,,,,,,,,,,,,,,,,ability,48,54,silent,red,3212.9648559000343,None,None,3212.9648559000343,None,,,,,,,,,,,,,,,,,,,,,,,,,,,,,,77YE,001,2023_May_05_1219,ExactRep-v3-final,2021.2.3,59.92365720958213,
,,,,,,,,54,0,54,0,,,,,,,,,,,,,,,,,,,,,,,,,,,,,,,,,,,,,,,,,,,,,,,,,,,,,3217.4676508996636,None,,,,,,,,,,,,,,,,,,,,,,,,,,,,,,,,,,,master,23,55,sing,blue,3215.4687465997413,None,None,3215.4687465997413,None,,,,,,,,,,,,,,,,,,,,,,,,,,,,,,77YE,001,2023_May_05_1219,ExactRep-v3-final,2021.2.3,59.92365720958213,
,,,,,,,,55,0,55,0,,,,,,,,,,,,,,,,,,,,,,,,,,,,,,,,,,,,,,,,,,,,,,,,,,,,,3219.9866787996143,None,,,,,,,,,,,,,,,,,,,,,,,,,,,,,,,,,,,cattle,104,56,aloud,white,3217.9746848000214,None,None,3217.9746848000214,None,,,,,,,,,,,,,,,,,,,,,,,,,,,,,,77YE,001,2023_May_05_1219,ExactRep-v3-final,2021.2.3,59.92365720958213,
,,,,,,,,56,0,56,0,,,,,,,,,,,,,,,,,,,,,,,,,,,,,,,,,,,,,,,,,,,,,,,,,,,,,3222.5060115000233,None,,,,,,,,,,,,,,,,,,,,,,,,,,,,,,,,,,,bar,29,57,sing,blue,3220.4934291997924,None,None,3220.4934291997924,None,,,,,,,,,,,,,,,,,,,,,,,,,,,,,,77YE,001,2023_May_05_1219,ExactRep-v3-final,2021.2.3,59.92365720958213,
,,,,,,,,57,0,57,0,,,,,,,,,,,,,,,,,,,,,,,,,,,,,,,,,,,,,,,,,,,,,,,,,,,,,3225.008373999968,None,,,,,,,,,,,,,,,,,,,,,,,,,,,,,,,,,,,door,42,58,silent,red,3223.006471099332,None,None,3223.006471099332,None,,,,,,,,,,,,,,,,,,,,,,,,,,,,,,77YE,001,2023_May_05_1219,ExactRep-v3-final,2021.2.3,59.92365720958213,
,,,,,,,,58,0,58,0,,,,,,,,,,,,,,,,,,,,,,,,,,,,,,,,,,,,,,,,,,,,,,,,,,,,,3227.527711299248,None,,,,,,,,,,,,,,,,,,,,,,,,,,,,,,,,,,,colony,27,59,sing,blue,3225.514809399843,None,None,3225.514809399843,None,,,,,,,,,,,,,,,,,,,,,,,,,,,,,,77YE,001,2023_May_05_1219,ExactRep-v3-final,2021.2.3,59.92365720958213,
,,,,,,,,59,0,59,0,,,,,,,,,,,,,,,,,,,,,,,,,,,,,,,,,,,,,,,,,,,,,,,,,,,,,3230.0300873992965,None,,,,,,,,,,,,,,,,,,,,,,,,,,,,,,,,,,,string,12,60,sing,blue,3228.028240399435,None,None,3228.028240399435,None,,,,,,,,,,,,,,,,,,,,,,,,,,,,,,77YE,001,2023_May_05_1219,ExactRep-v3-final,2021.2.3,59.92365720958213,
,,,,,,,,60,0,60,0,,,,,,,,,,,,,,,,,,,,,,,,,,,,,,,,,,,,,,,,,,,,,,,,,,,,,3232.5493636997417,None,,,,,,,,,,,,,,,,,,,,,,,,,,,,,,,,,,,mother,114,61,aloud,white,3230.5409934995696,None,None,3230.5409934995696,None,,,,,,,,,,,,,,,,,,,,,,,,,,,,,,77YE,001,2023_May_05_1219,ExactRep-v3-final,2021.2.3,59.92365720958213,
,,,,,,,,61,0,61,0,,,,,,,,,,,,,,,,,,,,,,,,,,,,,,,,,,,,,,,,,,,,,,,,,,,,,3235.0685314992443,None,,,,,,,,,,,,,,,,,,,,,,,,,,,,,,,,,,,troops,101,62,aloud,white,3233.0585356997326,None,None,3233.0585356997326,None,,,,,,,,,,,,,,,,,,,,,,,,,,,,,,77YE,001,2023_May_05_1219,ExactRep-v3-final,2021.2.3,59.92365720958213,
,,,,,,,,62,0,62,0,,,,,,,,,,,,,,,,,,,,,,,,,,,,,,,,,,,,,,,,,,,,,,,,,,,,,3237.5879742996767,None,,,,,,,,,,,,,,,,,,,,,,,,,,,,,,,,,,,victory,98,63,aloud,white,3235.5731370998546,None,None,3235.5731370998546,None,,,,,,,,,,,,,,,,,,,,,,,,,,,,,,77YE,001,2023_May_05_1219,ExactRep-v3-final,2021.2.3,59.92365720958213,
,,,,,,,,63,0,63,0,,,,,,,,,,,,,,,,,,,,,,,,,,,,,,,,,,,,,,,,,,,,,,,,,,,,,3240.1070344001055,None,,,,,,,,,,,,,,,,,,,,,,,,,,,,,,,,,,,wheat,78,64,silent,red,3238.09258009959,None,None,3238.09258009959,None,,,,,,,,,,,,,,,,,,,,,,,,,,,,,,77YE,001,2023_May_05_1219,ExactRep-v3-final,2021.2.3,59.92365720958213,
,,,,,,,,64,0,64,0,,,,,,,,,,,,,,,,,,,,,,,,,,,,,,,,,,,,,,,,,,,,,,,,,,,,,3242.6260874997824,None,,,,,,,,,,,,,,,,,,,,,,,,,,,,,,,,,,,forest,72,65,silent,red,3240.616472799331,None,None,3240.616472799331,None,,,,,,,,,,,,,,,,,,,,,,,,,,,,,,77YE,001,2023_May_05_1219,ExactRep-v3-final,2021.2.3,59.92365720958213,
,,,,,,,,65,0,65,0,,,,,,,,,,,,,,,,,,,,,,,,,,,,,,,,,,,,,,,,,,,,,,,,,,,,,3245.12850139942,None,,,,,,,,,,,,,,,,,,,,,,,,,,,,,,,,,,,gold,115,66,aloud,white,3243.126596699469,None,None,3243.126596699469,None,,,,,,,,,,,,,,,,,,,,,,,,,,,,,,77YE,001,2023_May_05_1219,ExactRep-v3-final,2021.2.3,59.92365720958213,
,,,,,,,,66,0,66,0,,,,,,,,,,,,,,,,,,,,,,,,,,,,,,,,,,,,,,,,,,,,,,,,,,,,,3247.6311110993847,None,,,,,,,,,,,,,,,,,,,,,,,,,,,,,,,,,,,moment,100,67,aloud,white,3245.6290924996138,None,None,3245.6290924996138,None,,,,,,,,,,,,,,,,,,,,,,,,,,,,,,77YE,001,2023_May_05_1219,ExactRep-v3-final,2021.2.3,59.92365720958213,
,,,,,,,,67,0,67,0,,,,,,,,,,,,,,,,,,,,,,,,,,,,,,,,,,,,,,,,,,,,,,,,,,,,,3250.1337600992993,None,,,,,,,,,,,,,,,,,,,,,,,,,,,,,,,,,,,mercy,83,68,aloud,white,3248.1317372992635,None,None,3248.1317372992635,None,,,,,,,,,,,,,,,,,,,,,,,,,,,,,,77YE,001,2023_May_05_1219,ExactRep-v3-final,2021.2.3,59.92365720958213,
,,,,,,,,68,0,68,0,,,,,,,,,,,,,,,,,,,,,,,,,,,,,,,,,,,,,,,,,,,,,,,,,,,,,3252.6363033996895,None,,,,,,,,,,,,,,,,,,,,,,,,,,,,,,,,,,,cabin,15,69,sing,blue,3250.635939399712,None,None,3250.635939399712,None,,,,,,,,,,,,,,,,,,,,,,,,,,,,,,77YE,001,2023_May_05_1219,ExactRep-v3-final,2021.2.3,59.92365720958213,
,,,,,,,,69,0,69,0,,,,,,,,,,,,,,,,,,,,,,,,,,,,,,,,,,,,,,,,,,,,,,,,,,,,,3255.155244300142,None,,,,,,,,,,,,,,,,,,,,,,,,,,,,,,,,,,,hour,60,70,silent,red,3253.14018029999,None,None,3253.14018029999,None,,,,,,,,,,,,,,,,,,,,,,,,,,,,,,77YE,001,2023_May_05_1219,ExactRep-v3-final,2021.2.3,59.92365720958213,
,,,,,,,,70,0,70,0,,,,,,,,,,,,,,,,,,,,,,,,,,,,,,,,,,,,,,,,,,,,,,,,,,,,,3257.657839599997,None,,,,,,,,,,,,,,,,,,,,,,,,,,,,,,,,,,,corn,110,71,aloud,white,3255.655860999599,None,None,3255.655860999599,None,,,,,,,,,,,,,,,,,,,,,,,,,,,,,,77YE,001,2023_May_05_1219,ExactRep-v3-final,2021.2.3,59.92365720958213,
,,,,,,,,71,0,71,0,,,,,,,,,,,,,,,,,,,,,,,,,,,,,,,,,,,,,,,,,,,,,,,,,,,,,3260.1769620999694,None,,,,,,,,,,,,,,,,,,,,,,,,,,,,,,,,,,,volume,33,72,sing,blue,3258.169711499475,None,None,3258.169711499475,None,,,,,,,,,,,,,,,,,,,,,,,,,,,,,,77YE,001,2023_May_05_1219,ExactRep-v3-final,2021.2.3,59.92365720958213,
,,,,,,,,72,0,72,0,,,,,,,,,,,,,,,,,,,,,,,,,,,,,,,,,,,,,,,,,,,,,,,,,,,,,3262.6961984997615,None,,,,,,,,,,,,,,,,,,,,,,,,,,,,,,,,,,,lake,118,73,aloud,white,3260.6831752993166,None,None,3260.6831752993166,None,,,,,,,,,,,,,,,,,,,,,,,,,,,,,,77YE,001,2023_May_05_1219,ExactRep-v3-final,2021.2.3,59.92365720958213,
,,,,,,,,73,0,73,0,,,,,,,,,,,,,,,,,,,,,,,,,,,,,,,,,,,,,,,,,,,,,,,,,,,,,3265.215566399507,None,,,,,,,,,,,,,,,,,,,,,,,,,,,,,,,,,,,machine,32,74,sing,blue,3263.2001991998404,None,None,3263.2001991998404,None,,,,,,,,,,,,,,,,,,,,,,,,,,,,,,77YE,001,2023_May_05_1219,ExactRep-v3-final,2021.2.3,59.92365720958213,
,,,,,,,,74,0,74,0,,,,,,,,,,,,,,,,,,,,,,,,,,,,,,,,,,,,,,,,,,,,,,,,,,,,,3267.734404299408,None,,,,,,,,,,,,,,,,,,,,,,,,,,,,,,,,,,,apple,34,75,sing,blue,3265.7206894997507,None,None,3265.7206894997507,None,,,,,,,,,,,,,,,,,,,,,,,,,,,,,,77YE,001,2023_May_05_1219,ExactRep-v3-final,2021.2.3,59.92365720958213,
,,,,,,,,75,0,75,0,,,,,,,,,,,,,,,,,,,,,,,,,,,,,,,,,,,,,,,,,,,,,,,,,,,,,3270.253780500032,None,,,,,,,,,,,,,,,,,,,,,,,,,,,,,,,,,,,cash,4,76,sing,blue,3268.2381638996303,None,None,3268.2381638996303,None,,,,,,,,,,,,,,,,,,,,,,,,,,,,,,77YE,001,2023_May_05_1219,ExactRep-v3-final,2021.2.3,59.92365720958213,
,,,,,,,,76,0,76,0,,,,,,,,,,,,,,,,,,,,,,,,,,,,,,,,,,,,,,,,,,,,,,,,,,,,,3272.7564284000546,None,,,,,,,,,,,,,,,,,,,,,,,,,,,,,,,,,,,street,20,77,sing,blue,3270.7554148994386,None,None,3270.7554148994386,None,,,,,,,,,,,,,,,,,,,,,,,,,,,,,,77YE,001,2023_May_05_1219,ExactRep-v3-final,2021.2.3,59.92365720958213,
,,,,,,,,77,0,77,0,,,,,,,,,,,,,,,,,,,,,,,,,,,,,,,,,,,,,,,,,,,,,,,,,,,,,3275.2588721998036,None,,,,,,,,,,,,,,,,,,,,,,,,,,,,,,,,,,,fortune,17,78,sing,blue,3273.256725899875,None,None,3273.256725899875,None,,,,,,,,,,,,,,,,,,,,,,,,,,,,,,77YE,001,2023_May_05_1219,ExactRep-v3-final,2021.2.3,59.92365720958213,
,,,,,,,,78,0,78,0,,,,,,,,,,,,,,,,,,,,,,,,,,,,,,,,,,,,,,,,,,,,,,,,,,,,,3277.761365699582,None,,,,,,,,,,,,,,,,,,,,,,,,,,,,,,,,,,,insect,7,79,sing,blue,3275.7597083998844,None,None,3275.7597083998844,None,,,,,,,,,,,,,,,,,,,,,,,,,,,,,,77YE,001,2023_May_05_1219,ExactRep-v3-final,2021.2.3,59.92365720958213,
,,,,,,,,79,0,79,0,,,,,,,,,,,,,,,,,,,,,,,,,,,,,,,,,,,,,,,,,,,,,,,,,,,,,3280.2639004001394,None,,,,,,,,,,,,,,,,,,,,,,,,,,,,,,,,,,,thought,119,80,aloud,white,3278.2635215995833,None,None,3278.2635215995833,None,,,,,,,,,,,,,,,,,,,,,,,,,,,,,,77YE,001,2023_May_05_1219,ExactRep-v3-final,2021.2.3,59.92365720958213,
,,,,,,,,80,0,80,0,,,,,,,,,,,,,,,,,,,,,,,,,,,,,,,,,,,,,,,,,,,,,,,,,,,,,3282.782954099588,None,,,,,,,,,,,,,,,,,,,,,,,,,,,,,,,,,,,flesh,74,81,silent,red,3280.7703277999535,None,None,3280.7703277999535,None,,,,,,,,,,,,,,,,,,,,,,,,,,,,,,77YE,001,2023_May_05_1219,ExactRep-v3-final,2021.2.3,59.92365720958213,
,,,,,,,,81,0,81,0,,,,,,,,,,,,,,,,,,,,,,,,,,,,,,,,,,,,,,,,,,,,,,,,,,,,,3285.2854274995625,None,,,,,,,,,,,,,,,,,,,,,,,,,,,,,,,,,,,speech,68,82,silent,red,3283.2834255993366,None,None,3283.2834255993366,None,,,,,,,,,,,,,,,,,,,,,,,,,,,,,,77YE,001,2023_May_05_1219,ExactRep-v3-final,2021.2.3,59.92365720958213,
,,,,,,,,82,0,82,0,,,,,,,,,,,,,,,,,,,,,,,,,,,,,,,,,,,,,,,,,,,,,,,,,,,,,3287.8048832993954,None,,,,,,,,,,,,,,,,,,,,,,,,,,,,,,,,,,,moral,109,83,aloud,white,3285.7957890992984,None,None,3285.7957890992984,None,,,,,,,,,,,,,,,,,,,,,,,,,,,,,,77YE,001,2023_May_05_1219,ExactRep-v3-final,2021.2.3,59.92365720958213,
,,,,,,,,83,0,83,0,,,,,,,,,,,,,,,,,,,,,,,,,,,,,,,,,,,,,,,,,,,,,,,,,,,,,3290.3074108995497,None,,,,,,,,,,,,,,,,,,,,,,,,,,,,,,,,,,,time,94,84,aloud,white,3288.30729999952,None,None,3288.30729999952,None,,,,,,,,,,,,,,,,,,,,,,,,,,,,,,77YE,001,2023_May_05_1219,ExactRep-v3-final,2021.2.3,59.92365720958213,
,,,,,,,,84,0,84,0,,,,,,,,,,,,,,,,,,,,,,,,,,,,,,,,,,,,,,,,,,,,,,,,,,,,,3292.8264619000256,None,,,,,,,,,,,,,,,,,,,,,,,,,,,,,,,,,,,green,18,85,sing,blue,3290.8150614993647,None,None,3290.8150614993647,None,,,,,,,,,,,,,,,,,,,,,,,,,,,,,,77YE,001,2023_May_05_1219,ExactRep-v3-final,2021.2.3,59.92365720958213,
,,,,,,,,85,0,85,0,,,,,,,,,,,,,,,,,,,,,,,,,,,,,,,,,,,,,,,,,,,,,,,,,,,,,3295.345655899495,None,,,,,,,,,,,,,,,,,,,,,,,,,,,,,,,,,,,heaven,61,86,silent,red,3293.3315452998504,None,None,3293.3315452998504,None,,,,,,,,,,,,,,,,,,,,,,,,,,,,,,77YE,001,2023_May_05_1219,ExactRep-v3-final,2021.2.3,59.92365720958213,
,,,,,,,,86,0,86,0,,,,,,,,,,,,,,,,,,,,,,,,,,,,,,,,,,,,,,,,,,,,,,,,,,,,,3297.8647110993043,None,,,,,,,,,,,,,,,,,,,,,,,,,,,,,,,,,,,student,45,87,silent,red,3295.855459500104,None,None,3295.855459500104,None,,,,,,,,,,,,,,,,,,,,,,,,,,,,,,77YE,001,2023_May_05_1219,ExactRep-v3-final,2021.2.3,59.92365720958213,
,,,,,,,,87,0,87,0,,,,,,,,,,,,,,,,,,,,,,,,,,,,,,,,,,,,,,,,,,,,,,,,,,,,,3300.3840389996767,None,,,,,,,,,,,,,,,,,,,,,,,,,,,,,,,,,,,storm,50,88,silent,red,3298.3743855999783,None,None,3298.3743855999783,None,,,,,,,,,,,,,,,,,,,,,,,,,,,,,,77YE,001,2023_May_05_1219,ExactRep-v3-final,2021.2.3,59.92365720958213,
,,,,,,,,88,0,88,0,,,,,,,,,,,,,,,,,,,,,,,,,,,,,,,,,,,,,,,,,,,,,,,,,,,,,3302.8865978000686,None,,,,,,,,,,,,,,,,,,,,,,,,,,,,,,,,,,,water,11,89,sing,blue,3300.8866298999637,None,None,3300.8866298999637,None,,,,,,,,,,,,,,,,,,,,,,,,,,,,,,77YE,001,2023_May_05_1219,ExactRep-v3-final,2021.2.3,59.92365720958213,
,,,,,,,,89,0,89,0,,,,,,,,,,,,,,,,,,,,,,,,,,,,,,,,,,,,,,,,,,,,,,,,,,,,,3305.406089499593,None,,,,,,,,,,,,,,,,,,,,,,,,,,,,,,,,,,,series,88,90,aloud,white,3303.3904446000233,None,None,3303.3904446000233,None,,,,,,,,,,,,,,,,,,,,,,,,,,,,,,77YE,001,2023_May_05_1219,ExactRep-v3-final,2021.2.3,59.92365720958213,
,,,,,,,,90,0,90,0,,,,,,,,,,,,,,,,,,,,,,,,,,,,,,,,,,,,,,,,,,,,,,,,,,,,,3307.9082071995363,None,,,,,,,,,,,,,,,,,,,,,,,,,,,,,,,,,,,law,92,91,aloud,white,3305.906473699957,None,None,3305.906473699957,None,,,,,,,,,,,,,,,,,,,,,,,,,,,,,,77YE,001,2023_May_05_1219,ExactRep-v3-final,2021.2.3,59.92365720958213,
,,,,,,,,91,0,91,0,,,,,,,,,,,,,,,,,,,,,,,,,,,,,,,,,,,,,,,,,,,,,,,,,,,,,3310.410743799992,None,,,,,,,,,,,,,,,,,,,,,,,,,,,,,,,,,,,clock,10,92,sing,blue,3308.41073029954,None,None,3308.41073029954,None,,,,,,,,,,,,,,,,,,,,,,,,,,,,,,77YE,001,2023_May_05_1219,ExactRep-v3-final,2021.2.3,59.92365720958213,
,,,,,,,,92,0,92,0,,,,,,,,,,,,,,,,,,,,,,,,,,,,,,,,,,,,,,,,,,,,,,,,,,,,,3312.9298882996663,None,,,,,,,,,,,,,,,,,,,,,,,,,,,,,,,,,,,coffee,30,93,sing,blue,3310.9143260000274,None,None,3310.9143260000274,None,,,,,,,,,,,,,,,,,,,,,,,,,,,,,,77YE,001,2023_May_05_1219,ExactRep-v3-final,2021.2.3,59.92365720958213,
,,,,,,,,93,0,93,0,,,,,,,,,,,,,,,,,,,,,,,,,,,,,,,,,,,,,,,,,,,,,,,,,,,,,3315.449086899869,None,,,,,,,,,,,,,,,,,,,,,,,,,,,,,,,,,,,answer,6,94,sing,blue,3313.4338777000085,None,None,3313.4338777000085,None,,,,,,,,,,,,,,,,,,,,,,,,,,,,,,77YE,001,2023_May_05_1219,ExactRep-v3-final,2021.2.3,59.92365720958213,
,,,,,,,,94,0,94,0,,,,,,,,,,,,,,,,,,,,,,,,,,,,,,,,,,,,,,,,,,,,,,,,,,,,,3317.968302999623,None,,,,,,,,,,,,,,,,,,,,,,,,,,,,,,,,,,,mind,77,95,silent,red,3315.9570431001484,None,None,3315.9570431001484,None,,,,,,,,,,,,,,,,,,,,,,,,,,,,,,77YE,001,2023_May_05_1219,ExactRep-v3-final,2021.2.3,59.92365720958213,
,,,,,,,,95,0,95,0,,,,,,,,,,,,,,,,,,,,,,,,,,,,,,,,,,,,,,,,,,,,,,,,,,,,,3320.4708569999784,None,,,,,,,,,,,,,,,,,,,,,,,,,,,,,,,,,,,humour,55,96,silent,red,3318.4701366992667,None,None,3318.4701366992667,None,,,,,,,,,,,,,,,,,,,,,,,,,,,,,,77YE,001,2023_May_05_1219,ExactRep-v3-final,2021.2.3,59.92365720958213,
,,,,,,,,96,0,96,0,,,,,,,,,,,,,,,,,,,,,,,,,,,,,,,,,,,,,,,,,,,,,,,,,,,,,3322.989827199839,None,,,,,,,,,,,,,,,,,,,,,,,,,,,,,,,,,,,bottle,79,97,sing,blue,3320.974499399774,None,None,3320.974499399774,None,,,,,,,,,,,,,,,,,,,,,,,,,,,,,,77YE,001,2023_May_05_1219,ExactRep-v3-final,2021.2.3,59.92365720958213,
,,,,,,,,97,0,97,0,,,,,,,,,,,,,,,,,,,,,,,,,,,,,,,,,,,,,,,,,,,,,,,,,,,,,3325.492297399789,None,,,,,,,,,,,,,,,,,,,,,,,,,,,,,,,,,,,devil,2,98,sing,blue,3323.490401399322,None,None,3323.490401399322,None,,,,,,,,,,,,,,,,,,,,,,,,,,,,,,77YE,001,2023_May_05_1219,ExactRep-v3-final,2021.2.3,59.92365720958213,
,,,,,,,,98,0,98,0,,,,,,,,,,,,,,,,,,,,,,,,,,,,,,,,,,,,,,,,,,,,,,,,,,,,,3327.9950048001483,None,,,,,,,,,,,,,,,,,,,,,,,,,,,,,,,,,,,priest,93,99,aloud,white,3325.9959800001234,None,None,3325.9959800001234,None,,,,,,,,,,,,,,,,,,,,,,,,,,,,,,77YE,001,2023_May_05_1219,ExactRep-v3-final,2021.2.3,59.92365720958213,
,,,,,,,,99,0,99,0,,,,,,,,,,,,,,,,,,,,,,,,,,,,,,,,,,,,,,,,,,,,,,,,,,,,,3330.5142158996314,None,,,,,,,,,,,,,,,,,,,,,,,,,,,,,,,,,,,iron,43,100,silent,red,3328.5016423994675,None,None,3328.5016423994675,None,,,,,,,,,,,,,,,,,,,,,,,,,,,,,,77YE,001,2023_May_05_1219,ExactRep-v3-final,2021.2.3,59.92365720958213,
,,,,,,,,100,0,100,0,,,,,,,,,,,,,,,,,,,,,,,,,,,,,,,,,,,,,,,,,,,,,,,,,,,,,3333.033370600082,None,,,,,,,,,,,,,,,,,,,,,,,,,,,,,,,,,,,chair,64,101,silent,red,3331.020717599429,None,None,3331.020717599429,None,,,,,,,,,,,,,,,,,,,,,,,,,,,,,,77YE,001,2023_May_05_1219,ExactRep-v3-final,2021.2.3,59.92365720958213,
,,,,,,,,101,0,101,0,,,,,,,,,,,,,,,,,,,,,,,,,,,,,,,,,,,,,,,,,,,,,,,,,,,,,3335.5358708994463,None,,,,,,,,,,,,,,,,,,,,,,,,,,,,,,,,,,,slave,46,102,silent,red,3333.5366861000657,None,None,3333.5366861000657,None,,,,,,,,,,,,,,,,,,,,,,,,,,,,,,77YE,001,2023_May_05_1219,ExactRep-v3-final,2021.2.3,59.92365720958213,
,,,,,,,,102,0,102,0,,,,,,,,,,,,,,,,,,,,,,,,,,,,,,,,,,,,,,,,,,,,,,,,,,,,,3338.0551034994423,None,,,,,,,,,,,,,,,,,,,,,,,,,,,,,,,,,,,engine,67,103,silent,red,3336.040733099915,None,None,3336.040733099915,None,,,,,,,,,,,,,,,,,,,,,,,,,,,,,,77YE,001,2023_May_05_1219,ExactRep-v3-final,2021.2.3,59.92365720958213,
,,,,,,,,103,0,103,0,,,,,,,,,,,,,,,,,,,,,,,,,,,,,,,,,,,,,,,,,,,,,,,,,,,,,3340.574225000106,None,,,,,,,,,,,,,,,,,,,,,,,,,,,,,,,,,,,murder,16,104,sing,blue,3338.5627111997455,None,None,3338.5627111997455,None,,,,,,,,,,,,,,,,,,,,,,,,,,,,,,77YE,001,2023_May_05_1219,ExactRep-v3-final,2021.2.3,59.92365720958213,
,,,,,,,,104,0,104,0,,,,,,,,,,,,,,,,,,,,,,,,,,,,,,,,,,,,,,,,,,,,,,,,,,,,,3343.076715399511,None,,,,,,,,,,,,,,,,,,,,,,,,,,,,,,,,,,,cost,111,105,aloud,white,3341.076987799257,None,None,3341.076987799257,None,,,,,,,,,,,,,,,,,,,,,,,,,,,,,,77YE,001,2023_May_05_1219,ExactRep-v3-final,2021.2.3,59.92365720958213,
,,,,,,,,105,0,105,0,,,,,,,,,,,,,,,,,,,,,,,,,,,,,,,,,,,,,,,,,,,,,,,,,,,,,3345.5791959995404,None,,,,,,,,,,,,,,,,,,,,,,,,,,,,,,,,,,,world,107,106,aloud,white,3343.578919299878,None,None,3343.578919299878,None,,,,,,,,,,,,,,,,,,,,,,,,,,,,,,77YE,001,2023_May_05_1219,ExactRep-v3-final,2021.2.3,59.92365720958213,
,,,,,,,,106,0,106,0,,,,,,,,,,,,,,,,,,,,,,,,,,,,,,,,,,,,,,,,,,,,,,,,,,,,,3348.081584999338,None,,,,,,,,,,,,,,,,,,,,,,,,,,,,,,,,,,,circle,89,107,aloud,white,3346.0814443994313,None,None,3346.0814443994313,None,,,,,,,,,,,,,,,,,,,,,,,,,,,,,,77YE,001,2023_May_05_1219,ExactRep-v3-final,2021.2.3,59.92365720958213,
,,,,,,,,107,0,107,0,,,,,,,,,,,,,,,,,,,,,,,,,,,,,,,,,,,,,,,,,,,,,,,,,,,,,3350.6007276000455,None,,,,,,,,,,,,,,,,,,,,,,,,,,,,,,,,,,,life,37,108,sing,blue,3348.586971499957,None,None,3348.586971499957,None,,,,,,,,,,,,,,,,,,,,,,,,,,,,,,77YE,001,2023_May_05_1219,ExactRep-v3-final,2021.2.3,59.92365720958213,
,,,,,,,,108,0,108,0,,,,,,,,,,,,,,,,,,,,,,,,,,,,,,,,,,,,,,,,,,,,,,,,,,,,,3353.1200676998124,None,,,,,,,,,,,,,,,,,,,,,,,,,,,,,,,,,,,cottage,54,109,silent,red,3351.1118260994554,None,None,3351.1118260994554,None,,,,,,,,,,,,,,,,,,,,,,,,,,,,,,77YE,001,2023_May_05_1219,ExactRep-v3-final,2021.2.3,59.92365720958213,
,,,,,,,,109,0,109,0,,,,,,,,,,,,,,,,,,,,,,,,,,,,,,,,,,,,,,,,,,,,,,,,,,,,,3355.622566299513,None,,,,,,,,,,,,,,,,,,,,,,,,,,,,,,,,,,,justice,66,110,silent,red,3353.6233800994232,None,None,3353.6233800994232,None,,,,,,,,,,,,,,,,,,,,,,,,,,,,,,77YE,001,2023_May_05_1219,ExactRep-v3-final,2021.2.3,59.92365720958213,
,,,,,,,,110,0,110,0,,,,,,,,,,,,,,,,,,,,,,,,,,,,,,,,,,,,,,,,,,,,,,,,,,,,,3358.125086899847,None,,,,,,,,,,,,,,,,,,,,,,,,,,,,,,,,,,,boy,63,111,silent,red,3356.123331800103,None,None,3356.123331800103,None,,,,,,,,,,,,,,,,,,,,,,,,,,,,,,77YE,001,2023_May_05_1219,ExactRep-v3-final,2021.2.3,59.92365720958213,
,,,,,,,,111,0,111,0,,,,,,,,,,,,,,,,,,,,,,,,,,,,,,,,,,,,,,,,,,,,,,,,,,,,,3360.6443363996223,None,,,,,,,,,,,,,,,,,,,,,,,,,,,,,,,,,,,home,9,112,sing,blue,3358.6289666993544,None,None,3358.6289666993544,None,,,,,,,,,,,,,,,,,,,,,,,,,,,,,,77YE,001,2023_May_05_1219,ExactRep-v3-final,2021.2.3,59.92365720958213,
,,,,,,,,112,0,112,0,,,,,,,,,,,,,,,,,,,,,,,,,,,,,,,,,,,,,,,,,,,,,,,,,,,,,3363.163473499939,None,,,,,,,,,,,,,,,,,,,,,,,,,,,,,,,,,,,friend,91,113,aloud,white,3361.1480241995305,None,None,3361.1480241995305,None,,,,,,,,,,,,,,,,,,,,,,,,,,,,,,77YE,001,2023_May_05_1219,ExactRep-v3-final,2021.2.3,59.92365720958213,
,,,,,,,,113,0,113,0,,,,,,,,,,,,,,,,,,,,,,,,,,,,,,,,,,,,,,,,,,,,,,,,,,,,,3365.6658715000376,None,,,,,,,,,,,,,,,,,,,,,,,,,,,,,,,,,,,wine,53,114,silent,red,3363.663892599754,None,None,3363.663892599754,None,,,,,,,,,,,,,,,,,,,,,,,,,,,,,,77YE,001,2023_May_05_1219,ExactRep-v3-final,2021.2.3,59.92365720958213,
,,,,,,,,114,0,114,0,,,,,,,,,,,,,,,,,,,,,,,,,,,,,,,,,,,,,,,,,,,,,,,,,,,,,3368.1685376996174,None,,,,,,,,,,,,,,,,,,,,,,,,,,,,,,,,,,,potato,84,115,aloud,white,3366.1665244996548,None,None,3366.1665244996548,None,,,,,,,,,,,,,,,,,,,,,,,,,,,,,,77YE,001,2023_May_05_1219,ExactRep-v3-final,2021.2.3,59.92365720958213,
,,,,,,,,115,0,115,0,,,,,,,,,,,,,,,,,,,,,,,,,,,,,,,,,,,,,,,,,,,,,,,,,,,,,3370.6876225993037,None,,,,,,,,,,,,,,,,,,,,,,,,,,,,,,,,,,,garden,99,116,aloud,white,3368.672298499383,None,None,3368.672298499383,None,,,,,,,,,,,,,,,,,,,,,,,,,,,,,,77YE,001,2023_May_05_1219,ExactRep-v3-final,2021.2.3,59.92365720958213,
,,,,,,,,116,0,116,0,,,,,,,,,,,,,,,,,,,,,,,,,,,,,,,,,,,,,,,,,,,,,,,,,,,,,3373.2068192996085,None,,,,,,,,,,,,,,,,,,,,,,,,,,,,,,,,,,,horse,59,117,silent,red,3371.196932000108,None,None,3371.196932000108,None,,,,,,,,,,,,,,,,,,,,,,,,,,,,,,77YE,001,2023_May_05_1219,ExactRep-v3-final,2021.2.3,59.92365720958213,
,,,,,,,,117,0,117,0,,,,,,,,,,,,,,,,,,,,,,,,,,,,,,,,,,,,,,,,,,,,,,,,,,,,,3375.7092431001365,None,,,,,,,,,,,,,,,,,,,,,,,,,,,,,,,,,,,death,112,118,aloud,white,3373.7100668000057,None,None,3373.7100668000057,None,,,,,,,,,,,,,,,,,,,,,,,,,,,,,,77YE,001,2023_May_05_1219,ExactRep-v3-final,2021.2.3,59.92365720958213,
,,,,,,,,118,0,118,0,,,,,,,,,,,,,,,,,,,,,,,,,,,,,,,,,,,,,,,,,,,,,,,,,,,,,3378.2118957992643,None,,,,,,,,,,,,,,,,,,,,,,,,,,,,,,,,,,,cat,57,119,silent,red,3376.2123261997476,None,None,3376.2123261997476,None,,,,,,,,,,,,,,,,,,,,,,,,,,,,,,77YE,001,2023_May_05_1219,ExactRep-v3-final,2021.2.3,59.92365720958213,
,,,,,,,,119,0,119,0,,,,,,,,,,,,,,,,,,,,,,,,,,,,,,,,,,,,,,,,,,,,,,,,,,,,,3380.71437469963,None,,,,,,,,,,,,,,,,,,,,,,,,,,,,,,,,,,,poet,35,120,sing,blue,3378.7152234995738,None,None,3378.7152234995738,None,,,,,,,,,,,,,,,,,,,,,,,,,,,,,,77YE,001,2023_May_05_1219,ExactRep-v3-final,2021.2.3,59.92365720958213,
,,,,,,,,,,,,,,,,,,,,,,,,,,,,,,,,,,,,,,,,,,,,,,,,,,,,,,,,,,,,,,,,,,,,,,,,,,,,,,,,,,,,,,,,,,,,,,,,,,,,,,,,,,,,,,3381.216329199262,None,space,0.49759980011731386,3391.192786499858,None,,,,,,,,,,,,,,,,,,,,,,,,77YE,001,2023_May_05_1219,ExactRep-v3-final,2021.2.3,59.92365720958213,
,,,,,,,,,,,,,,,,,,,,,,,,,,,,,,,,,,,,,,,,,,,,,,,,,,,,,,,,,,,,,,,,,,,,,,,,,,,,,,,,,,,,,,,,,,,,,,,,,,,,,,,,,,,,,,,,,,,,3391.7105323998258,None,space,26.075130400247872,3401.6868198998272,None,,,,,,,,,,,,,,,,,,77YE,001,2023_May_05_1219,ExactRep-v3-final,2021.2.3,59.92365720958213,
,,,,,,,,,,,,0,0,0,0,,,,,,,,,,,,,,,,,,,,,,,,,,,,,,,,,,,,,,,,,,,,,,,,,3434.6847882997245,None,,,,,,,,,,,,,,,,,,,,,,,,,,,,,,,,,,,,,,,,,,,,,,,,,,,,,,,,,tree,149,1,silent,new,red,3428.291312299669,None,n,3428.291312299669,None,"['n', 'return']","[4.06260700058192, 6.350353100337088]",3428.291312299669,None,,,77YE,001,2023_May_05_1219,ExactRep-v3-final,2021.2.3,59.92365720958213,
,,,,,,,,,,,,1,0,1,0,,,,,,,,,,,,,,,,,,,,,,,,,,,,,,,,,,,,,,,,,,,,,,,,,3444.361330999993,None,,,,,,,,,,,,,,,,,,,,,,,,,,,,,,,,,,,,,,,,,,,,,,,,,,,,,,,,,person,82,2,aloud,old,white,3435.193021699786,None,n,3435.193021699786,None,"['n', 'return']","[7.912734500132501, 9.136664300225675]",3435.193021699786,None,,,77YE,001,2023_May_05_1219,ExactRep-v3-final,2021.2.3,59.92365720958213,
,,,,,,,,,,,,2,0,2,0,,,,,,,,,,,,,,,,,,,,,,,,,,,,,,,,,,,,,,,,,,,,,,,,,3448.4988032998517,None,,,,,,,,,,,,,,,,,,,,,,,,,,,,,,,,,,,,,,,,,,,,,,,,,,,,,,,,,answer,6,3,sing,old,blue,3444.8712423993275,None,y,3444.8712423993275,None,"['y', 'return']","[2.6424954999238253, 3.5865748999640346]",3444.8712423993275,None,,,77YE,001,2023_May_05_1219,ExactRep-v3-final,2021.2.3,59.92365720958213,
,,,,,,,,,,,,3,0,3,0,,,,,,,,,,,,,,,,,,,,,,,,,,,,,,,,,,,,,,,,,,,,,,,,,3451.8185823997483,None,,,,,,,,,,,,,,,,,,,,,,,,,,,,,,,,,,,,,,,,,,,,,,,,,,,,,,,,,shock,75,4,silent,old,red,3449.008014500141,None,y,3449.008014500141,None,"['y', 'return']","[2.0097860004752874, 2.777678799815476]",3449.008014500141,None,,,77YE,001,2023_May_05_1219,ExactRep-v3-final,2021.2.3,59.92365720958213,
,,,,,,,,,,,,4,0,4,0,,,,,,,,,,,,,,,,,,,,,,,,,,,,,,,,,,,,,,,,,,,,,,,,,3454.9061169000342,None,,,,,,,,,,,,,,,,,,,,,,,,,,,,,,,,,,,,,,,,,,,,,,,,,,,,,,,,,thought,119,5,aloud,old,white,3452.335727199912,None,n,3452.335727199912,None,"['n', 'return']","[1.7940627001225948, 2.5300701996311545]",3452.335727199912,None,,,77YE,001,2023_May_05_1219,ExactRep-v3-final,2021.2.3,59.92365720958213,
,,,,,,,,,,,,5,0,5,0,,,,,,,,,,,,,,,,,,,,,,,,,,,,,,,,,,,,,,,,,,,,,,,,,3457.724575699307,None,,,,,,,,,,,,,,,,,,,,,,,,,,,,,,,,,,,,,,,,,,,,,,,,,,,,,,,,,square,97,6,aloud,old,white,3455.417374099605,None,n,3455.417374099605,None,"['n', 'return']","[1.6565781002864242, 2.264406000263989]",3455.417374099605,None,,,77YE,001,2023_May_05_1219,ExactRep-v3-final,2021.2.3,59.92365720958213,
,,,,,,,,,,,,6,0,6,0,,,,,,,,,,,,,,,,,,,,,,,,,,,,,,,,,,,,,,,,,,,,,,,,,3462.5293942000717,None,,,,,,,,,,,,,,,,,,,,,,,,,,,,,,,,,,,,,,,,,,,,,,,,,,,,,,,,,pupil,80,7,aloud,old,white,3458.2348211994395,None,y,3458.2348211994395,None,"['y', 'return']","[3.3511405996978283, 4.246954299509525]",3458.2348211994395,None,,,77YE,001,2023_May_05_1219,ExactRep-v3-final,2021.2.3,59.92365720958213,
,,,,,,,,,,,,7,0,7,0,,,,,,,,,,,,,,,,,,,,,,,,,,,,,,,,,,,,,,,,,,,,,,,,,3465.632394899614,None,,,,,,,,,,,,,,,,,,,,,,,,,,,,,,,,,,,,,,,,,,,,,,,,,,,,,,,,,water,11,8,sing,old,blue,3463.039033900015,None,y,3463.039033900015,None,"['y', 'return']","[1.6827130001038313, 2.5466966005042195]",3463.039033900015,None,,,77YE,001,2023_May_05_1219,ExactRep-v3-final,2021.2.3,59.92365720958213,
,,,,,,,,,,,,8,0,8,0,,,,,,,,,,,,,,,,,,,,,,,,,,,,,,,,,,,,,,,,,,,,,,,,,3468.1851689992473,None,,,,,,,,,,,,,,,,,,,,,,,,,,,,,,,,,,,,,,,,,,,,,,,,,,,,,,,,,teacher,39,9,silent,old,red,3466.14728000015,None,n,3466.14728000015,None,"['n', 'return']","[1.414500500075519, 1.9905360005795956]",3466.14728000015,None,,,77YE,001,2023_May_05_1219,ExactRep-v3-final,2021.2.3,59.92365720958213,
,,,,,,,,,,,,9,0,9,0,,,,,,,,,,,,,,,,,,,,,,,,,,,,,,,,,,,,,,,,,,,,,,,,,3470.7375032994896,None,,,,,,,,,,,,,,,,,,,,,,,,,,,,,,,,,,,,,,,,,,,,,,,,,,,,,,,,,moment,100,10,aloud,old,white,3468.699932700023,None,n,3468.699932700023,None,"['n', 'return']","[1.3977760998532176, 1.9897544998675585]",3468.699932700023,None,,,77YE,001,2023_May_05_1219,ExactRep-v3-final,2021.2.3,59.92365720958213,
,,,,,,,,,,,,10,0,10,0,,,,,,,,,,,,,,,,,,,,,,,,,,,,,,,,,,,,,,,,,,,,,,,,,3473.990907399915,None,,,,,,,,,,,,,,,,,,,,,,,,,,,,,,,,,,,,,,,,,,,,,,,,,,,,,,,,,money,3,11,sing,old,blue,3471.248425600119,None,y,3471.248425600119,None,"['y', 'return']","[1.8412866005674005, 2.697388700209558]",3471.248425600119,None,,,77YE,001,2023_May_05_1219,ExactRep-v3-final,2021.2.3,59.92365720958213,
,,,,,,,,,,,,11,0,11,0,,,,,,,,,,,,,,,,,,,,,,,,,,,,,,,,,,,,,,,,,,,,,,,,,3477.4942561993375,None,,,,,,,,,,,,,,,,,,,,,,,,,,,,,,,,,,,,,,,,,,,,,,,,,,,,,,,,,safety,217,12,sing,new,blue,3474.500829500146,None,n,3474.500829500146,None,"['n', 'return']","[2.2289410000666976, 2.956980099901557]",3474.500829500146,None,,,77YE,001,2023_May_05_1219,ExactRep-v3-final,2021.2.3,59.92365720958213,
,,,,,,,,,,,,12,0,12,0,,,,,,,,,,,,,,,,,,,,,,,,,,,,,,,,,,,,,,,,,,,,,,,,,3480.781025200151,None,,,,,,,,,,,,,,,,,,,,,,,,,,,,,,,,,,,,,,,,,,,,,,,,,,,,,,,,,silence,13,13,sing,old,blue,3478.0117999995127,None,y,3478.0117999995127,None,"['y', 'return']","[1.8781079007312655, 2.734130199998617]",3478.0117999995127,None,,,77YE,001,2023_May_05_1219,ExactRep-v3-final,2021.2.3,59.92365720958213,
,,,,,,,,,,,,13,0,13,0,,,,,,,,,,,,,,,,,,,,,,,,,,,,,,,,,,,,,,,,,,,,,,,,,3483.4668974997476,None,,,,,,,,,,,,,,,,,,,,,,,,,,,,,,,,,,,,,,,,,,,,,,,,,,,,,,,,,doctor,180,14,aloud,new,white,3481.288938499987,None,n,3481.288938499987,None,"['n', 'return']","[1.45697579998523, 2.1449405001476407]",3481.288938499987,None,,,77YE,001,2023_May_05_1219,ExactRep-v3-final,2021.2.3,59.92365720958213,
,,,,,,,,,,,,14,0,14,0,,,,,,,,,,,,,,,,,,,,,,,,,,,,,,,,,,,,,,,,,,,,,,,,,3488.4718969995156,None,,,,,,,,,,,,,,,,,,,,,,,,,,,,,,,,,,,,,,,,,,,,,,,,,,,,,,,,,passion,197,15,sing,new,blue,3483.977685799822,None,n,3483.977685799822,None,"['n', 'return']","[3.464191200211644, 4.456125000491738]",3483.977685799822,None,,,77YE,001,2023_May_05_1219,ExactRep-v3-final,2021.2.3,59.92365720958213,
,,,,,,,,,,,,15,0,15,0,,,,,,,,,,,,,,,,,,,,,,,,,,,,,,,,,,,,,,,,,,,,,,,,,3491.308316299692,None,,,,,,,,,,,,,,,,,,,,,,,,,,,,,,,,,,,,,,,,,,,,,,,,,,,,,,,,,prayer,196,16,aloud,new,white,3488.980249299668,None,n,3488.980249299668,None,"['n', 'return']","[1.6055517997592688, 2.2856088001281023]",3488.980249299668,None,,,77YE,001,2023_May_05_1219,ExactRep-v3-final,2021.2.3,59.92365720958213,
,,,,,,,,,,,,16,0,16,0,,,,,,,,,,,,,,,,,,,,,,,,,,,,,,,,,,,,,,,,,,,,,,,,,3494.2277174992487,None,,,,,,,,,,,,,,,,,,,,,,,,,,,,,,,,,,,,,,,,,,,,,,,,,,,,,,,,,brain,213,17,sing,new,blue,3491.8151450995356,None,n,3491.8151450995356,None,"['n', 'return']","[1.5866408003494143, 2.3787773000076413]",3491.8151450995356,None,,,77YE,001,2023_May_05_1219,ExactRep-v3-final,2021.2.3,59.92365720958213,
,,,,,,,,,,,,17,0,17,0,,,,,,,,,,,,,,,,,,,,,,,,,,,,,,,,,,,,,,,,,,,,,,,,,3498.815546100028,None,,,,,,,,,,,,,,,,,,,,,,,,,,,,,,,,,,,,,,,,,,,,,,,,,,,,,,,,,doll,70,18,silent,old,red,3494.734930999577,None,y,3494.734930999577,None,"['y', 'return']","[3.0908621000126004, 4.034868499264121]",3494.734930999577,None,,,77YE,001,2023_May_05_1219,ExactRep-v3-final,2021.2.3,59.92365720958213,
,,,,,,,,,,,,18,0,18,0,,,,,,,,,,,,,,,,,,,,,,,,,,,,,,,,,,,,,,,,,,,,,,,,,3501.5517778992653,None,,,,,,,,,,,,,,,,,,,,,,,,,,,,,,,,,,,,,,,,,,,,,,,,,,,,,,,,,picture,227,19,sing,new,blue,3499.3281851001084,None,n,3499.3281851001084,None,"['n', 'return']","[1.7136360006406903, 2.185632700100541]",3499.3281851001084,None,,,77YE,001,2023_May_05_1219,ExactRep-v3-final,2021.2.3,59.92365720958213,
,,,,,,,,,,,,19,0,19,0,,,,,,,,,,,,,,,,,,,,,,,,,,,,,,,,,,,,,,,,,,,,,,,,,3504.137555799447,None,,,,,,,,,,,,,,,,,,,,,,,,,,,,,,,,,,,,,,,,,,,,,,,,,,,,,,,,,meadow,194,20,aloud,new,white,3502.0636542998254,None,n,3502.0636542998254,None,"['n', 'return']","[1.3301702998578548, 2.0262667005881667]",3502.0636542998254,None,,,77YE,001,2023_May_05_1219,ExactRep-v3-final,2021.2.3,59.92365720958213,
,,,,,,,,,,,,20,0,20,0,,,,,,,,,,,,,,,,,,,,,,,,,,,,,,,,,,,,,,,,,,,,,,,,,3506.389948999509,None,,,,,,,,,,,,,,,,,,,,,,,,,,,,,,,,,,,,,,,,,,,,,,,,,,,,,,,,,coast,174,21,aloud,new,white,3504.6459010997787,None,n,3504.6459010997787,None,"['n', 'return']","[1.1961644999682903, 1.707977999933064]",3504.6459010997787,None,,,77YE,001,2023_May_05_1219,ExactRep-v3-final,2021.2.3,59.92365720958213,
,,,,,,,,,,,,21,0,21,0,,,,,,,,,,,,,,,,,,,,,,,,,,,,,,,,,,,,,,,,,,,,,,,,,3508.859021999873,None,,,,,,,,,,,,,,,,,,,,,,,,,,,,,,,,,,,,,,,,,,,,,,,,,,,,,,,,,effort,193,22,sing,new,blue,3506.898677099496,None,n,3506.898677099496,None,"['n', 'return']","[1.17508830036968, 1.9273300003260374]",3506.898677099496,None,,,77YE,001,2023_May_05_1219,ExactRep-v3-final,2021.2.3,59.92365720958213,
,,,,,,,,,,,,22,0,22,0,,,,,,,,,,,,,,,,,,,,,,,,,,,,,,,,,,,,,,,,,,,,,,,,,3511.661860600114,None,,,,,,,,,,,,,,,,,,,,,,,,,,,,,,,,,,,,,,,,,,,,,,,,,,,,,,,,,cost,111,23,aloud,old,white,3509.369063399732,None,n,3509.369063399732,None,"['n', 'return']","[1.7847484992817044, 2.2487939996644855]",3509.369063399732,None,,,77YE,001,2023_May_05_1219,ExactRep-v3-final,2021.2.3,59.92365720958213,
,,,,,,,,,,,,23,0,23,0,,,,,,,,,,,,,,,,,,,,,,,,,,,,,,,,,,,,,,,,,,,,,,,,,3514.31441359967,None,,,,,,,,,,,,,,,,,,,,,,,,,,,,,,,,,,,,,,,,,,,,,,,,,,,,,,,,,cat,57,24,silent,old,red,3512.163664699532,None,y,3512.163664699532,None,"['y', 'return']","[1.3582314997911453, 2.1181176993995905]",3512.163664699532,None,,,77YE,001,2023_May_05_1219,ExactRep-v3-final,2021.2.3,59.92365720958213,
,,,,,,,,,,,,24,0,24,0,,,,,,,,,,,,,,,,,,,,,,,,,,,,,,,,,,,,,,,,,,,,,,,,,3517.050577099435,None,,,,,,,,,,,,,,,,,,,,,,,,,,,,,,,,,,,,,,,,,,,,,,,,,,,,,,,,,wine,53,25,silent,old,red,3514.823702099733,None,y,3514.823702099733,None,"['y', 'return']","[1.2821003003045917, 2.1861851001158357]",3514.823702099733,None,,,77YE,001,2023_May_05_1219,ExactRep-v3-final,2021.2.3,59.92365720958213,
,,,,,,,,,,,,25,0,25,0,,,,,,,,,,,,,,,,,,,,,,,,,,,,,,,,,,,,,,,,,,,,,,,,,3519.80330219958,None,,,,,,,,,,,,,,,,,,,,,,,,,,,,,,,,,,,,,,,,,,,,,,,,,,,,,,,,,dream,19,26,sing,old,blue,3517.551002900116,None,y,3517.551002900116,None,"['y', 'return']","[1.1869456004351377, 2.2108348002657294]",3517.551002900116,None,,,77YE,001,2023_May_05_1219,ExactRep-v3-final,2021.2.3,59.92365720958213,
,,,,,,,,,,,,26,0,26,0,,,,,,,,,,,,,,,,,,,,,,,,,,,,,,,,,,,,,,,,,,,,,,,,,3522.85635469947,None,,,,,,,,,,,,,,,,,,,,,,,,,,,,,,,,,,,,,,,,,,,,,,,,,,,,,,,,,fortune,17,27,sing,old,blue,3520.3150156997144,None,y,3520.3150156997144,None,"['y', 'return']","[1.6948380004614592, 2.5030209003016353]",3520.3150156997144,None,,,77YE,001,2023_May_05_1219,ExactRep-v3-final,2021.2.3,59.92365720958213,
,,,,,,,,,,,,27,0,27,0,,,,,,,,,,,,,,,,,,,,,,,,,,,,,,,,,,,,,,,,,,,,,,,,,3526.3098023999482,None,,,,,,,,,,,,,,,,,,,,,,,,,,,,,,,,,,,,,,,,,,,,,,,,,,,,,,,,,length,85,28,aloud,old,white,3523.3691956996918,None,y,3523.3691956996918,None,"['y', 'return']","[2.088616100139916, 2.904643800109625]",3523.3691956996918,None,,,77YE,001,2023_May_05_1219,ExactRep-v3-final,2021.2.3,59.92365720958213,
,,,,,,,,,,,,28,0,28,0,,,,,,,,,,,,,,,,,,,,,,,,,,,,,,,,,,,,,,,,,,,,,,,,,3528.9290191996843,None,,,,,,,,,,,,,,,,,,,,,,,,,,,,,,,,,,,,,,,,,,,,,,,,,,,,,,,,,cottage,54,29,silent,old,red,3526.818197200075,None,n,3526.818197200075,None,"['n', 'return']","[1.3676474001258612, 2.0717270001769066]",3526.818197200075,None,,,77YE,001,2023_May_05_1219,ExactRep-v3-final,2021.2.3,59.92365720958213,
,,,,,,,,,,,,29,0,29,0,,,,,,,,,,,,,,,,,,,,,,,,,,,,,,,,,,,,,,,,,,,,,,,,,3533.166749499738,None,,,,,,,,,,,,,,,,,,,,,,,,,,,,,,,,,,,,,,,,,,,,,,,,,,,,,,,,,butter,143,30,silent,new,red,3529.4396629994735,None,y,3529.4396629994735,None,"['y', 'return']","[2.842268199659884, 3.6902396995574236]",3529.4396629994735,None,,,77YE,001,2023_May_05_1219,ExactRep-v3-final,2021.2.3,59.92365720958213,
,,,,,,,,,,,,30,0,30,0,,,,,,,,,,,,,,,,,,,,,,,,,,,,,,,,,,,,,,,,,,,,,,,,,3536.1362411994487,None,,,,,,,,,,,,,,,,,,,,,,,,,,,,,,,,,,,,,,,,,,,,,,,,,,,,,,,,,horse,59,31,silent,old,red,3533.672554399818,None,y,3533.672554399818,None,"['y', 'return']","[1.5135562997311354, 2.42532379925251]",3533.672554399818,None,,,77YE,001,2023_May_05_1219,ExactRep-v3-final,2021.2.3,59.92365720958213,
,,,,,,,,,,,,31,0,31,0,,,,,,,,,,,,,,,,,,,,,,,,,,,,,,,,,,,,,,,,,,,,,,,,,3538.605460899882,None,,,,,,,,,,,,,,,,,,,,,,,,,,,,,,,,,,,,,,,,,,,,,,,,,,,,,,,,,queen,157,32,silent,new,red,3536.646295099519,None,n,3536.646295099519,None,"['n', 'return']","[1.1558770993724465, 1.915515499189496]",3536.646295099519,None,,,77YE,001,2023_May_05_1219,ExactRep-v3-final,2021.2.3,59.92365720958213,
,,,,,,,,,,,,32,0,32,0,,,,,,,,,,,,,,,,,,,,,,,,,,,,,,,,,,,,,,,,,,,,,,,,,3541.441587699577,None,,,,,,,,,,,,,,,,,,,,,,,,,,,,,,,,,,,,,,,,,,,,,,,,,,,,,,,,,shoes,207,33,sing,new,blue,3539.1145409997553,None,n,3539.1145409997553,None,"['n', 'return']","[1.3592854999005795, 2.2873279005289078]",3539.1145409997553,None,,,77YE,001,2023_May_05_1219,ExactRep-v3-final,2021.2.3,59.92365720958213,
,,,,,,,,,,,,33,0,33,0,,,,,,,,,,,,,,,,,,,,,,,,,,,,,,,,,,,,,,,,,,,,,,,,,3544.644963399507,None,,,,,,,,,,,,,,,,,,,,,,,,,,,,,,,,,,,,,,,,,,,,,,,,,,,,,,,,,moral,109,34,aloud,old,white,3541.951054999605,None,y,3541.951054999605,None,"['y', 'return']","[1.9630333995446563, 2.6588081996887922]",3541.951054999605,None,,,77YE,001,2023_May_05_1219,ExactRep-v3-final,2021.2.3,59.92365720958213,
,,,,,,,,,,,,34,0,34,0,,,,,,,,,,,,,,,,,,,,,,,,,,,,,,,,,,,,,,,,,,,,,,,,,3547.117022300139,None,,,,,,,,,,,,,,,,,,,,,,,,,,,,,,,,,,,,,,,,,,,,,,,,,,,,,,,,,child,103,35,aloud,old,white,3545.154815699905,None,n,3545.154815699905,None,"['n', 'return']","[1.1510472996160388, 1.919060599990189]",3545.154815699905,None,,,77YE,001,2023_May_05_1219,ExactRep-v3-final,2021.2.3,59.92365720958213,
,,,,,,,,,,,,35,0,35,0,,,,,,,,,,,,,,,,,,,,,,,,,,,,,,,,,,,,,,,,,,,,,,,,,3549.95016539935,None,,,,,,,,,,,,,,,,,,,,,,,,,,,,,,,,,,,,,,,,,,,,,,,,,,,,,,,,,potato,84,36,aloud,old,white,3547.638572999276,None,y,3547.638572999276,None,"['y', 'return']","[1.3235249994322658, 2.2754699997603893]",3547.638572999276,None,,,77YE,001,2023_May_05_1219,ExactRep-v3-final,2021.2.3,59.92365720958213,
,,,,,,,,,,,,36,0,36,0,,,,,,,,,,,,,,,,,,,,,,,,,,,,,,,,,,,,,,,,,,,,,,,,,3552.4193305000663,None,,,,,,,,,,,,,,,,,,,,,,,,,,,,,,,,,,,,,,,,,,,,,,,,,,,,,,,,,forest,72,37,silent,old,red,3550.4519026000053,None,n,3550.4519026000053,None,"['n', 'return']","[1.198259700089693, 1.9259933000430465]",3550.4519026000053,None,,,77YE,001,2023_May_05_1219,ExactRep-v3-final,2021.2.3,59.92365720958213,
,,,,,,,,,,,,37,0,37,0,,,,,,,,,,,,,,,,,,,,,,,,,,,,,,,,,,,,,,,,,,,,,,,,,3555.4073687996715,None,,,,,,,,,,,,,,,,,,,,,,,,,,,,,,,,,,,,,,,,,,,,,,,,,,,,,,,,,dress,230,38,aloud,new,white,3552.930345200002,None,n,3552.930345200002,None,"['n', 'return']","[1.3756326995790005, 2.431552099995315]",3552.930345200002,None,,,77YE,001,2023_May_05_1219,ExactRep-v3-final,2021.2.3,59.92365720958213,
,,,,,,,,,,,,38,0,38,0,,,,,,,,,,,,,,,,,,,,,,,,,,,,,,,,,,,,,,,,,,,,,,,,,3558.275033299811,None,,,,,,,,,,,,,,,,,,,,,,,,,,,,,,,,,,,,,,,,,,,,,,,,,,,,,,,,,pride,239,39,sing,new,blue,3555.9280674997717,None,n,3555.9280674997717,None,"['n', 'return']","[1.6660516001284122, 2.3058155002072453]",3555.9280674997717,None,,,77YE,001,2023_May_05_1219,ExactRep-v3-final,2021.2.3,59.92365720958213,
,,,,,,,,,,,,39,0,39,0,,,,,,,,,,,,,,,,,,,,,,,,,,,,,,,,,,,,,,,,,,,,,,,,,3560.877776999958,None,,,,,,,,,,,,,,,,,,,,,,,,,,,,,,,,,,,,,,,,,,,,,,,,,,,,,,,,,college,188,40,aloud,new,white,3558.787480599247,None,n,3558.787480599247,None,"['n', 'return']","[1.4144970001652837, 2.0464174998924136]",3558.787480599247,None,,,77YE,001,2023_May_05_1219,ExactRep-v3-final,2021.2.3,59.92365720958213,
,,,,,,,,,,,,40,0,40,0,,,,,,,,,,,,,,,,,,,,,,,,,,,,,,,,,,,,,,,,,,,,,,,,,3563.446953599341,None,,,,,,,,,,,,,,,,,,,,,,,,,,,,,,,,,,,,,,,,,,,,,,,,,,,,,,,,,fact,231,41,sing,new,blue,3561.3846330996603,None,n,3561.3846330996603,None,"['n', 'return']","[1.2172499001026154, 2.0252831000834703]",3561.3846330996603,None,,,77YE,001,2023_May_05_1219,ExactRep-v3-final,2021.2.3,59.92365720958213,
,,,,,,,,,,,,41,0,41,0,,,,,,,,,,,,,,,,,,,,,,,,,,,,,,,,,,,,,,,,,,,,,,,,,3566.099529599771,None,,,,,,,,,,,,,,,,,,,,,,,,,,,,,,,,,,,,,,,,,,,,,,,,,,,,,,,,,corn,110,42,aloud,old,white,3563.9584082998335,None,y,3563.9584082998335,None,"['y', 'return']","[1.4594195997342467, 2.107482699677348]",3563.9584082998335,None,,,77YE,001,2023_May_05_1219,ExactRep-v3-final,2021.2.3,59.92365720958213,
,,,,,,,,,,,,42,0,42,0,,,,,,,,,,,,,,,,,,,,,,,,,,,,,,,,,,,,,,,,,,,,,,,,,3570.9211617996916,None,,,,,,,,,,,,,,,,,,,,,,,,,,,,,,,,,,,,,,,,,,,,,,,,,,,,,,,,,cabin,15,43,sing,old,blue,3566.6078475993127,None,y,3566.6078475993127,None,"['return', 'y', 'return']","[2.1381051996722817, 3.2180052995681763, 4.274091999977827]",3566.6078475993127,None,,,77YE,001,2023_May_05_1219,ExactRep-v3-final,2021.2.3,59.92365720958213,
,,,,,,,,,,,,43,0,43,0,,,,,,,,,,,,,,,,,,,,,,,,,,,,,,,,,,,,,,,,,,,,,,,,,3573.373466500081,None,,,,,,,,,,,,,,,,,,,,,,,,,,,,,,,,,,,,,,,,,,,,,,,,,,,,,,,,,bird,234,44,aloud,new,white,3571.434120999649,None,n,3571.434120999649,None,"['n', 'return']","[1.2637889003381133, 1.903778400272131]",3571.434120999649,None,,,77YE,001,2023_May_05_1219,ExactRep-v3-final,2021.2.3,59.92365720958213,
,,,,,,,,,,,,44,0,44,0,,,,,,,,,,,,,,,,,,,,,,,,,,,,,,,,,,,,,,,,,,,,,,,,,3576.860287499614,None,,,,,,,,,,,,,,,,,,,,,,,,,,,,,,,,,,,,,,,,,,,,,,,,,,,,,,,,,engine,67,45,silent,old,red,3573.8832529997453,None,y,3573.8832529997453,None,"['y', 'return']","[2.1826414996758103, 2.934682199731469]",3573.8832529997453,None,,,77YE,001,2023_May_05_1219,ExactRep-v3-final,2021.2.3,59.92365720958213,
,,,,,,,,,,,,45,0,45,0,,,,,,,,,,,,,,,,,,,,,,,,,,,,,,,,,,,,,,,,,,,,,,,,,3579.5465417001396,None,,,,,,,,,,,,,,,,,,,,,,,,,,,,,,,,,,,,,,,,,,,,,,,,,,,,,,,,,ability,48,46,silent,old,red,3577.3672054996714,None,n,3577.3672054996714,None,"['n', 'return']","[1.4987712996080518, 2.1387105993926525]",3577.3672054996714,None,,,77YE,001,2023_May_05_1219,ExactRep-v3-final,2021.2.3,59.92365720958213,
,,,,,,,,,,,,46,0,46,0,,,,,,,,,,,,,,,,,,,,,,,,,,,,,,,,,,,,,,,,,,,,,,,,,3582.3490214999765,None,,,,,,,,,,,,,,,,,,,,,,,,,,,,,,,,,,,,,,,,,,,,,,,,,,,,,,,,,temple,142,47,silent,new,red,3580.0552714997903,None,n,3580.0552714997903,None,"['n', 'return']","[1.6987623991444707, 2.2506675999611616]",3580.0552714997903,None,,,77YE,001,2023_May_05_1219,ExactRep-v3-final,2021.2.3,59.92365720958213,
,,,,,,,,,,,,47,0,47,0,,,,,,,,,,,,,,,,,,,,,,,,,,,,,,,,,,,,,,,,,,,,,,,,,3584.6514179995283,None,,,,,,,,,,,,,,,,,,,,,,,,,,,,,,,,,,,,,,,,,,,,,,,,,,,,,,,,,lad,202,48,aloud,new,white,3582.8548746993765,None,n,3582.8548746993765,None,"['n', 'return']","[1.203180800192058, 1.7550588995218277]",3582.8548746993765,None,,,77YE,001,2023_May_05_1219,ExactRep-v3-final,2021.2.3,59.92365720958213,
,,,,,,,,,,,,48,0,48,0,,,,,,,,,,,,,,,,,,,,,,,,,,,,,,,,,,,,,,,,,,,,,,,,,3587.8212372995913,None,,,,,,,,,,,,,,,,,,,,,,,,,,,,,,,,,,,,,,,,,,,,,,,,,,,,,,,,,fur,154,49,silent,new,red,3585.154861900024,None,n,3585.154861900024,None,"['n', 'return']","[1.5911201005801558, 2.631291700527072]",3585.154861900024,None,,,77YE,001,2023_May_05_1219,ExactRep-v3-final,2021.2.3,59.92365720958213,
,,,,,,,,,,,,49,0,49,0,,,,,,,,,,,,,,,,,,,,,,,,,,,,,,,,,,,,,,,,,,,,,,,,,3590.740667999722,None,,,,,,,,,,,,,,,,,,,,,,,,,,,,,,,,,,,,,,,,,,,,,,,,,,,,,,,,,woods,156,50,silent,new,red,3588.3300855001435,None,n,3588.3300855001435,None,"['n', 'return']","[1.5998688992112875, 2.3678032997995615]",3588.3300855001435,None,,,77YE,001,2023_May_05_1219,ExactRep-v3-final,2021.2.3,59.92365720958213,
,,,,,,,,,,,,50,0,50,0,,,,,,,,,,,,,,,,,,,,,,,,,,,,,,,,,,,,,,,,,,,,,,,,,3593.8606212995946,None,,,,,,,,,,,,,,,,,,,,,,,,,,,,,,,,,,,,,,,,,,,,,,,,,,,,,,,,,paper,129,51,silent,new,red,3591.255420600064,None,n,3591.255420600064,None,"['n', 'return']","[1.8425947995856404, 2.5705065997317433]",3591.255420600064,None,,,77YE,001,2023_May_05_1219,ExactRep-v3-final,2021.2.3,59.92365720958213,
,,,,,,,,,,,,51,0,51,0,,,,,,,,,,,,,,,,,,,,,,,,,,,,,,,,,,,,,,,,,,,,,,,,,3597.114050999284,None,,,,,,,,,,,,,,,,,,,,,,,,,,,,,,,,,,,,,,,,,,,,,,,,,,,,,,,,,flag,130,52,silent,new,red,3594.378750800155,None,n,3594.378750800155,None,"['n', 'return']","[1.8552850000560284, 2.695176700130105]",3594.378750800155,None,,,77YE,001,2023_May_05_1219,ExactRep-v3-final,2021.2.3,59.92365720958213,
,,,,,,,,,,,,52,0,52,0,,,,,,,,,,,,,,,,,,,,,,,,,,,,,,,,,,,,,,,,,,,,,,,,,3601.0845005996525,None,,,,,,,,,,,,,,,,,,,,,,,,,,,,,,,,,,,,,,,,,,,,,,,,,,,,,,,,,fire,86,53,aloud,old,white,3597.625378499739,None,n,3597.625378499739,None,"['n', 'return']","[2.888590100221336, 3.4165415996685624]",3597.625378499739,None,,,77YE,001,2023_May_05_1219,ExactRep-v3-final,2021.2.3,59.92365720958213,
,,,,,,,,,,,,53,0,53,0,,,,,,,,,,,,,,,,,,,,,,,,,,,,,,,,,,,,,,,,,,,,,,,,,3604.1376746995375,None,,,,,,,,,,,,,,,,,,,,,,,,,,,,,,,,,,,,,,,,,,,,,,,,,,,,,,,,,soil,185,54,sing,new,blue,3601.5945493998006,None,n,3601.5945493998006,None,"['n', 'return']","[1.703399800695479, 2.511400100775063]",3601.5945493998006,None,,,77YE,001,2023_May_05_1219,ExactRep-v3-final,2021.2.3,59.92365720958213,
,,,,,,,,,,,,54,0,54,0,,,,,,,,,,,,,,,,,,,,,,,,,,,,,,,,,,,,,,,,,,,,,,,,,3606.7068032994866,None,,,,,,,,,,,,,,,,,,,,,,,,,,,,,,,,,,,,,,,,,,,,,,,,,,,,,,,,,month,153,55,silent,new,red,3604.6456410996616,None,n,3604.6456410996616,None,"['n', 'return']","[1.4362848000600934, 2.0281760999932885]",3604.6456410996616,None,,,77YE,001,2023_May_05_1219,ExactRep-v3-final,2021.2.3,59.92365720958213,
,,,,,,,,,,,,55,0,55,0,,,,,,,,,,,,,,,,,,,,,,,,,,,,,,,,,,,,,,,,,,,,,,,,,3609.3094081999734,None,,,,,,,,,,,,,,,,,,,,,,,,,,,,,,,,,,,,,,,,,,,,,,,,,,,,,,,,,breast,117,56,aloud,old,white,3607.219643100165,None,y,3607.219643100165,None,"['y', 'return']","[1.3344916999340057, 2.0544599005952477]",3607.219643100165,None,,,77YE,001,2023_May_05_1219,ExactRep-v3-final,2021.2.3,59.92365720958213,
,,,,,,,,,,,,56,0,56,0,,,,,,,,,,,,,,,,,,,,,,,,,,,,,,,,,,,,,,,,,,,,,,,,,3611.9788172999397,None,,,,,,,,,,,,,,,,,,,,,,,,,,,,,,,,,,,,,,,,,,,,,,,,,,,,,,,,,weapon,58,57,silent,old,red,3609.816427799873,None,n,3609.816427799873,None,"['n', 'return']","[1.5617787996307015, 2.1296544997021556]",3609.816427799873,None,,,77YE,001,2023_May_05_1219,ExactRep-v3-final,2021.2.3,59.92365720958213,
,,,,,,,,,,,,57,0,57,0,,,,,,,,,,,,,,,,,,,,,,,,,,,,,,,,,,,,,,,,,,,,,,,,,3614.5480343000963,None,,,,,,,,,,,,,,,,,,,,,,,,,,,,,,,,,,,,,,,,,,,,,,,,,,,,,,,,,journal,216,58,aloud,new,white,3612.4916859995574,None,n,3612.4916859995574,None,"['n', 'return']","[1.3906319998204708, 2.014287599362433]",3612.4916859995574,None,,,77YE,001,2023_May_05_1219,ExactRep-v3-final,2021.2.3,59.92365720958213,
,,,,,,,,,,,,58,0,58,0,,,,,,,,,,,,,,,,,,,,,,,,,,,,,,,,,,,,,,,,,,,,,,,,,3617.0671502994373,None,,,,,,,,,,,,,,,,,,,,,,,,,,,,,,,,,,,,,,,,,,,,,,,,,,,,,,,,,girl,208,59,aloud,new,white,3615.0483703995124,None,n,3615.0483703995124,None,"['n', 'return']","[1.3377749994397163, 1.9775634994730353]",3615.0483703995124,None,,,77YE,001,2023_May_05_1219,ExactRep-v3-final,2021.2.3,59.92365720958213,
,,,,,,,,,,,,59,0,59,0,,,,,,,,,,,,,,,,,,,,,,,,,,,,,,,,,,,,,,,,,,,,,,,,,3619.8200135994703,None,,,,,,,,,,,,,,,,,,,,,,,,,,,,,,,,,,,,,,,,,,,,,,,,,,,,,,,,,officer,169,60,sing,new,blue,3617.5756396995857,None,n,3617.5756396995857,None,"['n', 'return']","[1.5464604003354907, 2.2023585997521877]",3617.5756396995857,None,,,77YE,001,2023_May_05_1219,ExactRep-v3-final,2021.2.3,59.92365720958213,
,,,,,,,,,,,,60,0,60,0,,,,,,,,,,,,,,,,,,,,,,,,,,,,,,,,,,,,,,,,,,,,,,,,,3622.956540099345,None,,,,,,,,,,,,,,,,,,,,,,,,,,,,,,,,,,,,,,,,,,,,,,,,,,,,,,,,,house,51,61,silent,old,red,3620.332656200044,None,n,3620.332656200044,None,"['n', 'return']","[1.9175807004794478, 2.5893606999889016]",3620.332656200044,None,,,77YE,001,2023_May_05_1219,ExactRep-v3-final,2021.2.3,59.92365720958213,
,,,,,,,,,,,,61,0,61,0,,,,,,,,,,,,,,,,,,,,,,,,,,,,,,,,,,,,,,,,,,,,,,,,,3625.1753573995084,None,,,,,,,,,,,,,,,,,,,,,,,,,,,,,,,,,,,,,,,,,,,,,,,,,,,,,,,,,hotel,131,62,silent,new,red,3623.466659099795,None,n,3623.466659099795,None,"['n', 'return']","[1.0152906002476811, 1.6633299002423882]",3623.466659099795,None,,,77YE,001,2023_May_05_1219,ExactRep-v3-final,2021.2.3,59.92365720958213,
,,,,,,,,,,,,62,0,62,0,,,,,,,,,,,,,,,,,,,,,,,,,,,,,,,,,,,,,,,,,,,,,,,,,3627.7777686994523,None,,,,,,,,,,,,,,,,,,,,,,,,,,,,,,,,,,,,,,,,,,,,,,,,,,,,,,,,,form,152,63,silent,new,red,3625.695999099873,None,n,3625.695999099873,None,"['n', 'return']","[1.250114199705422, 2.0340293999761343]",3625.695999099873,None,,,77YE,001,2023_May_05_1219,ExactRep-v3-final,2021.2.3,59.92365720958213,
,,,,,,,,,,,,63,0,63,0,,,,,,,,,,,,,,,,,,,,,,,,,,,,,,,,,,,,,,,,,,,,,,,,,3633.1498990999535,None,,,,,,,,,,,,,,,,,,,,,,,,,,,,,,,,,,,,,,,,,,,,,,,,,,,,,,,,,earth,181,64,sing,new,blue,3628.2867489000782,None,n,3628.2867489000782,None,"['n', 'return']","[4.323206699453294, 4.819179099984467]",3628.2867489000782,None,,,77YE,001,2023_May_05_1219,ExactRep-v3-final,2021.2.3,59.92365720958213,
,,,,,,,,,,,,64,0,64,0,,,,,,,,,,,,,,,,,,,,,,,,,,,,,,,,,,,,,,,,,,,,,,,,,3635.802548799664,None,,,,,,,,,,,,,,,,,,,,,,,,,,,,,,,,,,,,,,,,,,,,,,,,,,,,,,,,,valley,108,65,aloud,old,white,3633.6591954994947,None,y,3633.6591954994947,None,"['y', 'return']","[1.4468437004834414, 2.1027944004163146]",3633.6591954994947,None,,,77YE,001,2023_May_05_1219,ExactRep-v3-final,2021.2.3,59.92365720958213,
,,,,,,,,,,,,65,0,65,0,,,,,,,,,,,,,,,,,,,,,,,,,,,,,,,,,,,,,,,,,,,,,,,,,3638.638927599415,None,,,,,,,,,,,,,,,,,,,,,,,,,,,,,,,,,,,,,,,,,,,,,,,,,,,,,,,,,mother,114,66,aloud,old,white,3636.3142064996064,None,n,3636.3142064996064,None,"['n', 'return']","[1.5839609997346997, 2.2879192996770144]",3636.3142064996064,None,,,77YE,001,2023_May_05_1219,ExactRep-v3-final,2021.2.3,59.92365720958213,
,,,,,,,,,,,,66,0,66,0,,,,,,,,,,,,,,,,,,,,,,,,,,,,,,,,,,,,,,,,,,,,,,,,,3641.7918643001467,None,,,,,,,,,,,,,,,,,,,,,,,,,,,,,,,,,,,,,,,,,,,,,,,,,,,,,,,,,street,20,67,sing,old,blue,3639.1466338997707,None,y,3639.1466338997707,None,"['y', 'return']","[1.271328100003302, 2.599488199688494]",3639.1466338997707,None,,,77YE,001,2023_May_05_1219,ExactRep-v3-final,2021.2.3,59.92365720958213,
,,,,,,,,,,,,67,0,67,0,,,,,,,,,,,,,,,,,,,,,,,,,,,,,,,,,,,,,,,,,,,,,,,,,3644.4111728994176,None,,,,,,,,,,,,,,,,,,,,,,,,,,,,,,,,,,,,,,,,,,,,,,,,,,,,,,,,,market,73,68,silent,old,red,3642.301059599966,None,n,3642.301059599966,None,"['n', 'return']","[1.3410767996683717, 2.068918399512768]",3642.301059599966,None,,,77YE,001,2023_May_05_1219,ExactRep-v3-final,2021.2.3,59.92365720958213,
,,,,,,,,,,,,68,0,68,0,,,,,,,,,,,,,,,,,,,,,,,,,,,,,,,,,,,,,,,,,,,,,,,,,3647.4475483996794,None,,,,,,,,,,,,,,,,,,,,,,,,,,,,,,,,,,,,,,,,,,,,,,,,,,,,,,,,,village,175,69,sing,new,blue,3644.920678999275,None,y,3644.920678999275,None,"['y', 'return']","[1.8332108007743955, 2.4812846006825566]",3644.920678999275,None,,,77YE,001,2023_May_05_1219,ExactRep-v3-final,2021.2.3,59.92365720958213,
,,,,,,,,,,,,69,0,69,0,,,,,,,,,,,,,,,,,,,,,,,,,,,,,,,,,,,,,,,,,,,,,,,,,3650.2337764995173,None,,,,,,,,,,,,,,,,,,,,,,,,,,,,,,,,,,,,,,,,,,,,,,,,,,,,,,,,,murder,16,70,sing,old,blue,3647.948143299669,None,y,3647.948143299669,None,"['y', 'return']","[1.317816199734807, 2.2377901999279857]",3647.948143299669,None,,,77YE,001,2023_May_05_1219,ExactRep-v3-final,2021.2.3,59.92365720958213,
,,,,,,,,,,,,70,0,70,0,,,,,,,,,,,,,,,,,,,,,,,,,,,,,,,,,,,,,,,,,,,,,,,,,3652.903025499545,None,,,,,,,,,,,,,,,,,,,,,,,,,,,,,,,,,,,,,,,,,,,,,,,,,,,,,,,,,truth,139,71,silent,new,red,3650.7454862995073,None,n,3650.7454862995073,None,"['n', 'return']","[1.2563865995034575, 2.120536499656737]",3650.7454862995073,None,,,77YE,001,2023_May_05_1219,ExactRep-v3-final,2021.2.3,59.92365720958213,
,,,,,,,,,,,,71,0,71,0,,,,,,,,,,,,,,,,,,,,,,,,,,,,,,,,,,,,,,,,,,,,,,,,,3655.338767199777,None,,,,,,,,,,,,,,,,,,,,,,,,,,,,,,,,,,,,,,,,,,,,,,,,,,,,,,,,,woman,165,72,sing,new,blue,3653.4102734001353,None,n,3653.4102734001353,None,"['n', 'return']","[1.3037674995139241, 1.8877908000722528]",3653.4102734001353,None,,,77YE,001,2023_May_05_1219,ExactRep-v3-final,2021.2.3,59.92365720958213,
,,,,,,,,,,,,72,0,72,0,,,,,,,,,,,,,,,,,,,,,,,,,,,,,,,,,,,,,,,,,,,,,,,,,3658.37513579987,None,,,,,,,,,,,,,,,,,,,,,,,,,,,,,,,,,,,,,,,,,,,,,,,,,,,,,,,,,product,204,73,aloud,new,white,3655.8512877998874,None,n,3655.8512877998874,None,"['n', 'return']","[1.8707742998376489, 2.478612099774182]",3655.8512877998874,None,,,77YE,001,2023_May_05_1219,ExactRep-v3-final,2021.2.3,59.92365720958213,
,,,,,,,,,,,,73,0,73,0,,,,,,,,,,,,,,,,,,,,,,,,,,,,,,,,,,,,,,,,,,,,,,,,,3661.0065736994147,None,,,,,,,,,,,,,,,,,,,,,,,,,,,,,,,,,,,,,,,,,,,,,,,,,,,,,,,,,colony,27,74,sing,old,blue,3658.88479869999,None,y,3658.88479869999,None,"['y', 'return']","[1.461148800328374, 2.069201899692416]",3658.88479869999,None,,,77YE,001,2023_May_05_1219,ExactRep-v3-final,2021.2.3,59.92365720958213,
,,,,,,,,,,,,74,0,74,0,,,,,,,,,,,,,,,,,,,,,,,,,,,,,,,,,,,,,,,,,,,,,,,,,3663.3467686995864,None,,,,,,,,,,,,,,,,,,,,,,,,,,,,,,,,,,,,,,,,,,,,,,,,,,,,,,,,,chief,5,75,sing,old,blue,3661.5271878996864,None,y,3661.5271878996864,None,"['y', 'return']","[1.1627922002226114, 1.7866986002773046]",3661.5271878996864,None,,,77YE,001,2023_May_05_1219,ExactRep-v3-final,2021.2.3,59.92365720958213,
,,,,,,,,,,,,75,0,75,0,,,,,,,,,,,,,,,,,,,,,,,,,,,,,,,,,,,,,,,,,,,,,,,,,3665.732685999945,None,,,,,,,,,,,,,,,,,,,,,,,,,,,,,,,,,,,,,,,,,,,,,,,,,,,,,,,,,skin,155,76,silent,new,red,3663.855747499503,None,n,3663.855747499503,None,"['n', 'return']","[1.2345666997134686, 1.842323999851942]",3663.855747499503,None,,,77YE,001,2023_May_05_1219,ExactRep-v3-final,2021.2.3,59.92365720958213,
,,,,,,,,,,,,76,0,76,0,,,,,,,,,,,,,,,,,,,,,,,,,,,,,,,,,,,,,,,,,,,,,,,,,3668.1015334995463,None,,,,,,,,,,,,,,,,,,,,,,,,,,,,,,,,,,,,,,,,,,,,,,,,,,,,,,,,,tool,40,77,silent,old,red,3666.2408813992515,None,y,3666.2408813992515,None,"['y', 'return']","[1.3052142998203635, 1.8252817997708917]",3666.2408813992515,None,,,77YE,001,2023_May_05_1219,ExactRep-v3-final,2021.2.3,59.92365720958213,
,,,,,,,,,,,,77,0,77,0,,,,,,,,,,,,,,,,,,,,,,,,,,,,,,,,,,,,,,,,,,,,,,,,,3671.3548153992742,None,,,,,,,,,,,,,,,,,,,,,,,,,,,,,,,,,,,,,,,,,,,,,,,,,,,,,,,,,board,158,78,silent,new,red,3668.6108131995425,None,n,3668.6108131995425,None,"['n', 'return']","[1.9912630999460816, 2.7031821999698877]",3668.6108131995425,None,,,77YE,001,2023_May_05_1219,ExactRep-v3-final,2021.2.3,59.92365720958213,
,,,,,,,,,,,,78,0,78,0,,,,,,,,,,,,,,,,,,,,,,,,,,,,,,,,,,,,,,,,,,,,,,,,,3673.8906701998785,None,,,,,,,,,,,,,,,,,,,,,,,,,,,,,,,,,,,,,,,,,,,,,,,,,,,,,,,,,lake,118,79,aloud,old,white,3671.866336300038,None,y,3671.866336300038,None,"['y', 'return']","[1.33564340043813, 1.983678000047803]",3671.866336300038,None,,,77YE,001,2023_May_05_1219,ExactRep-v3-final,2021.2.3,59.92365720958213,
,,,,,,,,,,,,79,0,79,0,,,,,,,,,,,,,,,,,,,,,,,,,,,,,,,,,,,,,,,,,,,,,,,,,3677.8612893000245,None,,,,,,,,,,,,,,,,,,,,,,,,,,,,,,,,,,,,,,,,,,,,,,,,,,,,,,,,,trouble,173,80,sing,new,blue,3674.402157999575,None,n,3674.402157999575,None,"['n', 'return']","[2.855886399745941, 3.4158565998077393]",3674.402157999575,None,,,77YE,001,2023_May_05_1219,ExactRep-v3-final,2021.2.3,59.92365720958213,
,,,,,,,,,,,,80,0,80,0,,,,,,,,,,,,,,,,,,,,,,,,,,,,,,,,,,,,,,,,,,,,,,,,,3680.363957799971,None,,,,,,,,,,,,,,,,,,,,,,,,,,,,,,,,,,,,,,,,,,,,,,,,,,,,,,,,,bar,29,81,sing,old,blue,3678.371506999247,None,y,3678.371506999247,None,"['y', 'return']","[1.3107075998559594, 1.9584662998095155]",3678.371506999247,None,,,77YE,001,2023_May_05_1219,ExactRep-v3-final,2021.2.3,59.92365720958213,
,,,,,,,,,,,,81,0,81,0,,,,,,,,,,,,,,,,,,,,,,,,,,,,,,,,,,,,,,,,,,,,,,,,,3684.0508089996874,None,,,,,,,,,,,,,,,,,,,,,,,,,,,,,,,,,,,,,,,,,,,,,,,,,,,,,,,,,virtue,182,82,aloud,new,white,3680.8780535999686,None,y,3680.8780535999686,None,"['y', 'return']","[2.604019899852574, 3.139982999302447]",3680.8780535999686,None,,,77YE,001,2023_May_05_1219,ExactRep-v3-final,2021.2.3,59.92365720958213,
,,,,,,,,,,,,82,0,82,0,,,,,,,,,,,,,,,,,,,,,,,,,,,,,,,,,,,,,,,,,,,,,,,,,3686.5868497993797,None,,,,,,,,,,,,,,,,,,,,,,,,,,,,,,,,,,,,,,,,,,,,,,,,,,,,,,,,,bowl,123,83,silent,new,red,3684.5613544993103,None,n,3684.5613544993103,None,"['n', 'return']","[1.392790799960494, 1.9925607005134225]",3684.5613544993103,None,,,77YE,001,2023_May_05_1219,ExactRep-v3-final,2021.2.3,59.92365720958213,
,,,,,,,,,,,,83,0,83,0,,,,,,,,,,,,,,,,,,,,,,,,,,,,,,,,,,,,,,,,,,,,,,,,,3689.139254199341,None,,,,,,,,,,,,,,,,,,,,,,,,,,,,,,,,,,,,,,,,,,,,,,,,,,,,,,,,,lip,0,84,sing,old,blue,3687.0886717000976,None,y,3687.0886717000976,None,"['y', 'return']","[1.337401800788939, 2.0174088003113866]",3687.0886717000976,None,,,77YE,001,2023_May_05_1219,ExactRep-v3-final,2021.2.3,59.92365720958213,
,,,,,,,,,,,,84,0,84,0,,,,,,,,,,,,,,,,,,,,,,,,,,,,,,,,,,,,,,,,,,,,,,,,,3692.6094429995865,None,,,,,,,,,,,,,,,,,,,,,,,,,,,,,,,,,,,,,,,,,,,,,,,,,,,,,,,,,book,8,85,sing,old,blue,3689.6533669997007,None,n,3689.6533669997007,None,"['n', 'return']","[2.396623999811709, 2.916647099889815]",3689.6533669997007,None,,,77YE,001,2023_May_05_1219,ExactRep-v3-final,2021.2.3,59.92365720958213,
,,,,,,,,,,,,85,0,85,0,,,,,,,,,,,,,,,,,,,,,,,,,,,,,,,,,,,,,,,,,,,,,,,,,3694.8618818996474,None,,,,,,,,,,,,,,,,,,,,,,,,,,,,,,,,,,,,,,,,,,,,,,,,,,,,,,,,,palace,128,86,silent,new,red,3693.1201921999454,None,n,3693.1201921999454,None,"['n', 'return']","[1.0899728005751967, 1.697852499783039]",3693.1201921999454,None,,,77YE,001,2023_May_05_1219,ExactRep-v3-final,2021.2.3,59.92365720958213,
,,,,,,,,,,,,86,0,86,0,,,,,,,,,,,,,,,,,,,,,,,,,,,,,,,,,,,,,,,,,,,,,,,,,3697.314086499624,None,,,,,,,,,,,,,,,,,,,,,,,,,,,,,,,,,,,,,,,,,,,,,,,,,,,,,,,,,coffee,30,87,sing,old,blue,3695.364326099865,None,y,3695.364326099865,None,"['y', 'return']","[1.3018244998529553, 1.9098247000947595]",3695.364326099865,None,,,77YE,001,2023_May_05_1219,ExactRep-v3-final,2021.2.3,59.92365720958213,
,,,,,,,,,,,,87,0,87,0,,,,,,,,,,,,,,,,,,,,,,,,,,,,,,,,,,,,,,,,,,,,,,,,,3699.9166872994974,None,,,,,,,,,,,,,,,,,,,,,,,,,,,,,,,,,,,,,,,,,,,,,,,,,,,,,,,,,toy,47,88,silent,old,red,3697.8235933994874,None,y,3697.8235933994874,None,"['y', 'return']","[1.5065081994980574, 2.058422399684787]",3697.8235933994874,None,,,77YE,001,2023_May_05_1219,ExactRep-v3-final,2021.2.3,59.92365720958213,
,,,,,,,,,,,,88,0,88,0,,,,,,,,,,,,,,,,,,,,,,,,,,,,,,,,,,,,,,,,,,,,,,,,,3703.420183999464,None,,,,,,,,,,,,,,,,,,,,,,,,,,,,,,,,,,,,,,,,,,,,,,,,,,,,,,,,,blossom,96,89,aloud,old,white,3700.4339843001217,None,y,3700.4339843001217,None,"['y', 'return']","[2.080270799808204, 2.9440620001405478]",3700.4339843001217,None,,,77YE,001,2023_May_05_1219,ExactRep-v3-final,2021.2.3,59.92365720958213,
,,,,,,,,,,,,89,0,89,0,,,,,,,,,,,,,,,,,,,,,,,,,,,,,,,,,,,,,,,,,,,,,,,,,3705.9895117999986,None,,,,,,,,,,,,,,,,,,,,,,,,,,,,,,,,,,,,,,,,,,,,,,,,,,,,,,,,,anger,49,90,silent,old,red,3703.9327500993386,None,n,3703.9327500993386,None,"['n', 'return']","[1.333521100692451, 2.0133092999458313]",3703.9327500993386,None,,,77YE,001,2023_May_05_1219,ExactRep-v3-final,2021.2.3,59.92365720958213,
,,,,,,,,,,,,90,0,90,0,,,,,,,,,,,,,,,,,,,,,,,,,,,,,,,,,,,,,,,,,,,,,,,,,3713.5804353998974,None,,,,,,,,,,,,,,,,,,,,,,,,,,,,,,,,,,,,,,,,,,,,,,,,,,,,,,,,,cattle,104,91,aloud,old,white,3706.49933499936,None,n,3706.49933499936,None,"['y', 'backspace', 'n', 'return']","[3.5266464995220304, 5.407000499777496, 6.454855299554765, 7.046667899936438]",3706.49933499936,None,,,77YE,001,2023_May_05_1219,ExactRep-v3-final,2021.2.3,59.92365720958213,
,,,,,,,,,,,,91,0,91,0,,,,,,,,,,,,,,,,,,,,,,,,,,,,,,,,,,,,,,,,,,,,,,,,,3717.0172099992633,None,,,,,,,,,,,,,,,,,,,,,,,,,,,,,,,,,,,,,,,,,,,,,,,,,,,,,,,,,pole,28,92,sing,old,blue,3714.088035499677,None,y,3714.088035499677,None,"['y', 'return']","[2.3460988998413086, 2.8900319999083877]",3714.088035499677,None,,,77YE,001,2023_May_05_1219,ExactRep-v3-final,2021.2.3,59.92365720958213,
,,,,,,,,,,,,92,0,92,0,,,,,,,,,,,,,,,,,,,,,,,,,,,,,,,,,,,,,,,,,,,,,,,,,3719.4695643000305,None,,,,,,,,,,,,,,,,,,,,,,,,,,,,,,,,,,,,,,,,,,,,,,,,,,,,,,,,,ocean,238,93,aloud,new,white,3717.5326434001327,None,n,3717.5326434001327,None,"['n', 'return']","[1.2775082997977734, 1.9013700000941753]",3717.5326434001327,None,,,77YE,001,2023_May_05_1219,ExactRep-v3-final,2021.2.3,59.92365720958213,
,,,,,,,,,,,,93,0,93,0,,,,,,,,,,,,,,,,,,,,,,,,,,,,,,,,,,,,,,,,,,,,,,,,,3722.7728616995737,None,,,,,,,,,,,,,,,,,,,,,,,,,,,,,,,,,,,,,,,,,,,,,,,,,,,,,,,,,student,45,94,silent,old,red,3719.979554899968,None,y,3719.979554899968,None,"['y', 'return']","[2.2144954996183515, 2.7584263999015093]",3719.979554899968,None,,,77YE,001,2023_May_05_1219,ExactRep-v3-final,2021.2.3,59.92365720958213,
,,,,,,,,,,,,94,0,94,0,,,,,,,,,,,,,,,,,,,,,,,,,,,,,,,,,,,,,,,,,,,,,,,,,3726.6101823998615,None,,,,,,,,,,,,,,,,,,,,,,,,,,,,,,,,,,,,,,,,,,,,,,,,,,,,,,,,,dawn,31,95,sing,old,blue,3723.2883126996458,None,y,3723.2883126996458,None,"['y', 'return']","[2.665673900395632, 3.273693300783634]",3723.2883126996458,None,,,77YE,001,2023_May_05_1219,ExactRep-v3-final,2021.2.3,59.92365720958213,
,,,,,,,,,,,,95,0,95,0,,,,,,,,,,,,,,,,,,,,,,,,,,,,,,,,,,,,,,,,,,,,,,,,,3729.82994509954,None,,,,,,,,,,,,,,,,,,,,,,,,,,,,,,,,,,,,,,,,,,,,,,,,,,,,,,,,,grief,56,96,silent,old,red,3727.1170173995197,None,y,3727.1170173995197,None,"['y', 'return']","[1.7570298993960023, 2.677034099586308]",3727.1170173995197,None,,,77YE,001,2023_May_05_1219,ExactRep-v3-final,2021.2.3,59.92365720958213,
,,,,,,,,,,,,96,0,96,0,,,,,,,,,,,,,,,,,,,,,,,,,,,,,,,,,,,,,,,,,,,,,,,,,3732.883058699779,None,,,,,,,,,,,,,,,,,,,,,,,,,,,,,,,,,,,,,,,,,,,,,,,,,,,,,,,,,method,44,97,silent,old,red,3730.338577499613,None,n,3730.338577499613,None,"['n', 'return']","[2.0076451003551483, 2.5114779006689787]",3730.338577499613,None,,,77YE,001,2023_May_05_1219,ExactRep-v3-final,2021.2.3,59.92365720958213,
,,,,,,,,,,,,97,0,97,0,,,,,,,,,,,,,,,,,,,,,,,,,,,,,,,,,,,,,,,,,,,,,,,,,3735.6858016997576,None,,,,,,,,,,,,,,,,,,,,,,,,,,,,,,,,,,,,,,,,,,,,,,,,,,,,,,,,,heaven,61,98,silent,old,red,3733.3944087000564,None,y,3733.3944087000564,None,"['y', 'return']","[1.7196306996047497, 2.2475927993655205]",3733.3944087000564,None,,,77YE,001,2023_May_05_1219,ExactRep-v3-final,2021.2.3,59.92365720958213,
,,,,,,,,,,,,98,0,98,0,,,,,,,,,,,,,,,,,,,,,,,,,,,,,,,,,,,,,,,,,,,,,,,,,3739.689777499996,None,,,,,,,,,,,,,,,,,,,,,,,,,,,,,,,,,,,,,,,,,,,,,,,,,,,,,,,,,gold,115,99,aloud,old,white,3736.1941764000803,None,n,3736.1941764000803,None,"['n', 'return']","[2.816009799949825, 3.463946799747646]",3736.1941764000803,None,,,77YE,001,2023_May_05_1219,ExactRep-v3-final,2021.2.3,59.92365720958213,
,,,,,,,,,,,,99,0,99,0,,,,,,,,,,,,,,,,,,,,,,,,,,,,,,,,,,,,,,,,,,,,,,,,,3742.4092336995527,None,,,,,,,,,,,,,,,,,,,,,,,,,,,,,,,,,,,,,,,,,,,,,,,,,,,,,,,,,chance,172,100,aloud,new,white,3740.1929027996957,None,y,3740.1929027996957,None,"['y', 'return']","[1.5694611994549632, 2.1692281998693943]",3740.1929027996957,None,,,77YE,001,2023_May_05_1219,ExactRep-v3-final,2021.2.3,59.92365720958213,
,,,,,,,,,,,,100,0,100,0,,,,,,,,,,,,,,,,,,,,,,,,,,,,,,,,,,,,,,,,,,,,,,,,,3745.195443299599,None,,,,,,,,,,,,,,,,,,,,,,,,,,,,,,,,,,,,,,,,,,,,,,,,,,,,,,,,,fault,132,101,silent,new,red,3742.9154829001054,None,n,3742.9154829001054,None,"['n', 'return']","[1.470774699933827, 2.2386362003162503]",3742.9154829001054,None,,,77YE,001,2023_May_05_1219,ExactRep-v3-final,2021.2.3,59.92365720958213,
,,,,,,,,,,,,101,0,101,0,,,,,,,,,,,,,,,,,,,,,,,,,,,,,,,,,,,,,,,,,,,,,,,,,3749.0491492999718,None,,,,,,,,,,,,,,,,,,,,,,,,,,,,,,,,,,,,,,,,,,,,,,,,,,,,,,,,,dollar,21,102,sing,old,blue,3745.705906299874,None,y,3745.705906299874,None,"['y', 'return']","[2.688405900262296, 3.304235100746155]",3745.705906299874,None,,,77YE,001,2023_May_05_1219,ExactRep-v3-final,2021.2.3,59.92365720958213,
,,,,,,,,,,,,102,0,102,0,,,,,,,,,,,,,,,,,,,,,,,,,,,,,,,,,,,,,,,,,,,,,,,,,3752.385810500011,None,,,,,,,,,,,,,,,,,,,,,,,,,,,,,,,,,,,,,,,,,,,,,,,,,,,,,,,,,iron,43,103,silent,old,red,3749.5648047998548,None,y,3749.5648047998548,None,"['y', 'return']","[2.1495469994843006, 2.7812588000670075]",3749.5648047998548,None,,,77YE,001,2023_May_05_1219,ExactRep-v3-final,2021.2.3,59.92365720958213,
,,,,,,,,,,,,103,0,103,0,,,,,,,,,,,,,,,,,,,,,,,,,,,,,,,,,,,,,,,,,,,,,,,,,3755.3888890994713,None,,,,,,,,,,,,,,,,,,,,,,,,,,,,,,,,,,,,,,,,,,,,,,,,,,,,,,,,,present,106,104,aloud,old,white,3752.895356799476,None,y,3752.895356799476,None,"['y', 'return']","[1.682689099572599, 2.4586140997707844]",3752.895356799476,None,,,77YE,001,2023_May_05_1219,ExactRep-v3-final,2021.2.3,59.92365720958213,
,,,,,,,,,,,,104,0,104,0,,,,,,,,,,,,,,,,,,,,,,,,,,,,,,,,,,,,,,,,,,,,,,,,,3759.225982199423,None,,,,,,,,,,,,,,,,,,,,,,,,,,,,,,,,,,,,,,,,,,,,,,,,,,,,,,,,,life,37,105,sing,old,blue,3755.900335500017,None,y,3755.900335500017,None,"['y', 'return']","[2.47793130017817, 3.277912400662899]",3755.900335500017,None,,,77YE,001,2023_May_05_1219,ExactRep-v3-final,2021.2.3,59.92365720958213,
,,,,,,,,,,,,105,0,105,0,,,,,,,,,,,,,,,,,,,,,,,,,,,,,,,,,,,,,,,,,,,,,,,,,3761.5616677999496,None,,,,,,,,,,,,,,,,,,,,,,,,,,,,,,,,,,,,,,,,,,,,,,,,,,,,,,,,,ticket,150,106,silent,new,red,3759.737000499852,None,n,3759.737000499852,None,"['n', 'return']","[1.2011994002386928, 1.7931139003485441]",3759.737000499852,None,,,77YE,001,2023_May_05_1219,ExactRep-v3-final,2021.2.3,59.92365720958213,
,,,,,,,,,,,,106,0,106,0,,,,,,,,,,,,,,,,,,,,,,,,,,,,,,,,,,,,,,,,,,,,,,,,,3764.798463099636,None,,,,,,,,,,,,,,,,,,,,,,,,,,,,,,,,,,,,,,,,,,,,,,,,,,,,,,,,,owner,62,107,silent,old,red,3762.071483099833,None,n,3762.071483099833,None,"['n', 'return']","[2.1066562002524734, 2.690609199926257]",3762.071483099833,None,,,77YE,001,2023_May_05_1219,ExactRep-v3-final,2021.2.3,59.92365720958213,
,,,,,,,,,,,,107,0,107,0,,,,,,,,,,,,,,,,,,,,,,,,,,,,,,,,,,,,,,,,,,,,,,,,,3767.0003854995593,None,,,,,,,,,,,,,,,,,,,,,,,,,,,,,,,,,,,,,,,,,,,,,,,,,,,,,,,,,king,127,108,silent,new,red,3765.310379299335,None,n,3765.310379299335,None,"['n', 'return']","[0.9796388996765018, 1.6518160998821259]",3765.310379299335,None,,,77YE,001,2023_May_05_1219,ExactRep-v3-final,2021.2.3,59.92365720958213,
,,,,,,,,,,,,108,0,108,0,,,,,,,,,,,,,,,,,,,,,,,,,,,,,,,,,,,,,,,,,,,,,,,,,3769.3361016996205,None,,,,,,,,,,,,,,,,,,,,,,,,,,,,,,,,,,,,,,,,,,,,,,,,,,,,,,,,,poet,35,109,sing,old,blue,3767.5107305999845,None,y,3767.5107305999845,None,"['y', 'return']","[1.0276215998455882, 1.7875121999531984]",3767.5107305999845,None,,,77YE,001,2023_May_05_1219,ExactRep-v3-final,2021.2.3,59.92365720958213,
,,,,,,,,,,,,109,0,109,0,,,,,,,,,,,,,,,,,,,,,,,,,,,,,,,,,,,,,,,,,,,,,,,,,3772.439207700081,None,,,,,,,,,,,,,,,,,,,,,,,,,,,,,,,,,,,,,,,,,,,,,,,,,,,,,,,,,green,18,110,sing,old,blue,3769.845662499778,None,y,3769.845662499778,None,"['y', 'return']","[2.012437299825251, 2.556374599225819]",3769.845662499778,None,,,77YE,001,2023_May_05_1219,ExactRep-v3-final,2021.2.3,59.92365720958213,
,,,,,,,,,,,,110,0,110,0,,,,,,,,,,,,,,,,,,,,,,,,,,,,,,,,,,,,,,,,,,,,,,,,,3775.275382399559,None,,,,,,,,,,,,,,,,,,,,,,,,,,,,,,,,,,,,,,,,,,,,,,,,,,,,,,,,,letter,147,111,silent,new,red,3772.947152699344,None,y,3772.947152699344,None,"['y', 'return']","[1.6631823992356658, 2.2869630996137857]",3772.947152699344,None,,,77YE,001,2023_May_05_1219,ExactRep-v3-final,2021.2.3,59.92365720958213,
,,,,,,,,,,,,111,0,111,0,,,,,,,,,,,,,,,,,,,,,,,,,,,,,,,,,,,,,,,,,,,,,,,,,3777.4609532998875,None,,,,,,,,,,,,,,,,,,,,,,,,,,,,,,,,,,,,,,,,,,,,,,,,,,,,,,,,,prison,121,112,silent,new,red,3775.785180299543,None,n,3775.785180299543,None,"['n', 'return']","[1.0889465007930994, 1.6408518003299832]",3775.785180299543,None,,,77YE,001,2023_May_05_1219,ExactRep-v3-final,2021.2.3,59.92365720958213,
,,,,,,,,,,,,112,0,112,0,,,,,,,,,,,,,,,,,,,,,,,,,,,,,,,,,,,,,,,,,,,,,,,,,3781.7652781996876,None,,,,,,,,,,,,,,,,,,,,,,,,,,,,,,,,,,,,,,,,,,,,,,,,,,,,,,,,,freedom,212,113,aloud,new,white,3777.966714899987,None,y,3777.966714899987,None,"['y', 'return']","[3.1314987996593118, 3.7553583001717925]",3777.966714899987,None,,,77YE,001,2023_May_05_1219,ExactRep-v3-final,2021.2.3,59.92365720958213,
,,,,,,,,,,,,113,0,113,0,,,,,,,,,,,,,,,,,,,,,,,,,,,,,,,,,,,,,,,,,,,,,,,,,3783.9872042993084,None,,,,,,,,,,,,,,,,,,,,,,,,,,,,,,,,,,,,,,,,,,,,,,,,,,,,,,,,,deed,226,114,aloud,new,white,3782.2659168001264,None,n,3782.2659168001264,None,"['n', 'return']","[1.1281874999403954, 1.672273000702262]",3782.2659168001264,None,,,77YE,001,2023_May_05_1219,ExactRep-v3-final,2021.2.3,59.92365720958213,
,,,,,,,,,,,,114,0,114,0,,,,,,,,,,,,,,,,,,,,,,,,,,,,,,,,,,,,,,,,,,,,,,,,,3786.7369120996445,None,,,,,,,,,,,,,,,,,,,,,,,,,,,,,,,,,,,,,,,,,,,,,,,,,,,,,,,,,quality,171,115,sing,new,blue,3784.5026692999527,None,n,3784.5026692999527,None,"['n', 'return']","[1.6354183005169034, 2.195489000529051]",3784.5026692999527,None,,,77YE,001,2023_May_05_1219,ExactRep-v3-final,2021.2.3,59.92365720958213,
,,,,,,,,,,,,115,0,115,0,,,,,,,,,,,,,,,,,,,,,,,,,,,,,,,,,,,,,,,,,,,,,,,,,3789.1058532996103,None,,,,,,,,,,,,,,,,,,,,,,,,,,,,,,,,,,,,,,,,,,,,,,,,,,,,,,,,,opinion,160,116,aloud,new,white,3787.240623199381,None,n,3787.240623199381,None,"['n', 'return']","[1.2176556997001171, 1.8255072999745607]",3787.240623199381,None,,,77YE,001,2023_May_05_1219,ExactRep-v3-final,2021.2.3,59.92365720958213,
,,,,,,,,,,,,116,0,116,0,,,,,,,,,,,,,,,,,,,,,,,,,,,,,,,,,,,,,,,,,,,,,,,,,3791.2748213000596,None,,,,,,,,,,,,,,,,,,,,,,,,,,,,,,,,,,,,,,,,,,,,,,,,,,,,,,,,,seat,26,117,sing,old,blue,3789.6186492992565,None,y,3789.6186492992565,None,"['y', 'return']","[1.0636684000492096, 1.6234534997493029]",3789.6186492992565,None,,,77YE,001,2023_May_05_1219,ExactRep-v3-final,2021.2.3,59.92365720958213,
,,,,,,,,,,,,117,0,117,0,,,,,,,,,,,,,,,,,,,,,,,,,,,,,,,,,,,,,,,,,,,,,,,,,3794.1109143998474,None,,,,,,,,,,,,,,,,,,,,,,,,,,,,,,,,,,,,,,,,,,,,,,,,,,,,,,,,,plain,167,118,sing,new,blue,3791.783005800098,None,n,3791.783005800098,None,"['n', 'return']","[1.7151171993464231, 2.2911233995109797]",3791.783005800098,None,,,77YE,001,2023_May_05_1219,ExactRep-v3-final,2021.2.3,59.92365720958213,
,,,,,,,,,,,,118,0,118,0,,,,,,,,,,,,,,,,,,,,,,,,,,,,,,,,,,,,,,,,,,,,,,,,,3798.9657819001004,None,,,,,,,,,,,,,,,,,,,,,,,,,,,,,,,,,,,,,,,,,,,,,,,,,,,,,,,,,event,223,119,sing,new,blue,3794.621025700122,None,n,3794.621025700122,None,"['return', 'n', 'return']","[2.501073700375855, 3.556938000023365, 4.3090907000005245]",3794.621025700122,None,,,77YE,001,2023_May_05_1219,ExactRep-v3-final,2021.2.3,59.92365720958213,
,,,,,,,,,,,,119,0,119,0,,,,,,,,,,,,,,,,,,,,,,,,,,,,,,,,,,,,,,,,,,,,,,,,,3801.5184231996536,None,,,,,,,,,,,,,,,,,,,,,,,,,,,,,,,,,,,,,,,,,,,,,,,,,,,,,,,,,author,125,120,silent,new,red,3799.4764441996813,None,n,3799.4764441996813,None,"['n', 'return']","[1.3256769003346562, 1.9976907996460795]",3799.4764441996813,None,,,77YE,001,2023_May_05_1219,ExactRep-v3-final,2021.2.3,59.92365720958213,
,,,,,,,,,,,,120,0,120,0,,,,,,,,,,,,,,,,,,,,,,,,,,,,,,,,,,,,,,,,,,,,,,,,,3803.570564999245,None,,,,,,,,,,,,,,,,,,,,,,,,,,,,,,,,,,,,,,,,,,,,,,,,,,,,,,,,,lord,137,121,silent,new,red,3802.0280415993184,None,n,3802.0280415993184,None,"['n', 'return']","[0.8781297001987696, 1.5100862002000213]",3802.0280415993184,None,,,77YE,001,2023_May_05_1219,ExactRep-v3-final,2021.2.3,59.92365720958213,
,,,,,,,,,,,,121,0,121,0,,,,,,,,,,,,,,,,,,,,,,,,,,,,,,,,,,,,,,,,,,,,,,,,,3806.7068809000775,None,,,,,,,,,,,,,,,,,,,,,,,,,,,,,,,,,,,,,,,,,,,,,,,,,,,,,,,,,mind,77,122,silent,old,red,3804.0775299994275,None,n,3804.0775299994275,None,"['n', 'return']","[1.9487752998247743, 2.588722700253129]",3804.0775299994275,None,,,77YE,001,2023_May_05_1219,ExactRep-v3-final,2021.2.3,59.92365720958213,
,,,,,,,,,,,,122,0,122,0,,,,,,,,,,,,,,,,,,,,,,,,,,,,,,,,,,,,,,,,,,,,,,,,,3809.5764162996784,None,,,,,,,,,,,,,,,,,,,,,,,,,,,,,,,,,,,,,,,,,,,,,,,,,,,,,,,,,priest,93,123,aloud,old,white,3807.217069399543,None,y,3807.217069399543,None,"['y', 'return']","[1.7211215002462268, 2.3212075997143984]",3807.217069399543,None,,,77YE,001,2023_May_05_1219,ExactRep-v3-final,2021.2.3,59.92365720958213,
,,,,,,,,,,,,123,0,123,0,,,,,,,,,,,,,,,,,,,,,,,,,,,,,,,,,,,,,,,,,,,,,,,,,3815.599085699767,None,,,,,,,,,,,,,,,,,,,,,,,,,,,,,,,,,,,,,,,,,,,,,,,,,,,,,,,,,shadow,184,124,aloud,new,white,3810.0856817001477,None,n,3810.0856817001477,None,"['y', 'backspace', 'n', 'return']","[1.7567580007016659, 3.2206471003592014, 4.740494600497186, 5.468489900231361]",3810.0856817001477,None,,,77YE,001,2023_May_05_1219,ExactRep-v3-final,2021.2.3,59.92365720958213,
,,,,,,,,,,,,124,0,124,0,,,,,,,,,,,,,,,,,,,,,,,,,,,,,,,,,,,,,,,,,,,,,,,,,3821.7219567000866,None,,,,,,,,,,,,,,,,,,,,,,,,,,,,,,,,,,,,,,,,,,,,,,,,,,,,,,,,,victory,98,125,aloud,old,white,3816.112036500126,None,n,3816.112036500126,None,"['n', 'return']","[4.778113400563598, 5.562205299735069]",3816.112036500126,None,,,77YE,001,2023_May_05_1219,ExactRep-v3-final,2021.2.3,59.92365720958213,
,,,,,,,,,,,,125,0,125,0,,,,,,,,,,,,,,,,,,,,,,,,,,,,,,,,,,,,,,,,,,,,,,,,,3824.3077473994344,None,,,,,,,,,,,,,,,,,,,,,,,,,,,,,,,,,,,,,,,,,,,,,,,,,,,,,,,,,advice,203,126,sing,new,blue,3822.234129499644,None,n,3822.234129499644,None,"['n', 'return']","[1.5200452003628016, 2.0400191005319357]",3822.234129499644,None,,,77YE,001,2023_May_05_1219,ExactRep-v3-final,2021.2.3,59.92365720958213,
,,,,,,,,,,,,126,0,126,0,,,,,,,,,,,,,,,,,,,,,,,,,,,,,,,,,,,,,,,,,,,,,,,,,3826.977078699507,None,,,,,,,,,,,,,,,,,,,,,,,,,,,,,,,,,,,,,,,,,,,,,,,,,,,,,,,,,history,166,127,aloud,new,white,3824.8167920997366,None,y,3824.8167920997366,None,"['y', 'return']","[1.4333699997514486, 2.1134059000760317]",3824.8167920997366,None,,,77YE,001,2023_May_05_1219,ExactRep-v3-final,2021.2.3,59.92365720958213,
,,,,,,,,,,,,127,0,127,0,,,,,,,,,,,,,,,,,,,,,,,,,,,,,,,,,,,,,,,,,,,,,,,,,3829.9469331996515,None,,,,,,,,,,,,,,,,,,,,,,,,,,,,,,,,,,,,,,,,,,,,,,,,,,,,,,,,,glory,237,128,sing,new,blue,3827.477386499755,None,y,3827.477386499755,None,"['y', 'return']","[1.7650715997442603, 2.428903999738395]",3827.477386499755,None,,,77YE,001,2023_May_05_1219,ExactRep-v3-final,2021.2.3,59.92365720958213,
,,,,,,,,,,,,128,0,128,0,,,,,,,,,,,,,,,,,,,,,,,,,,,,,,,,,,,,,,,,,,,,,,,,,3832.215644800104,None,,,,,,,,,,,,,,,,,,,,,,,,,,,,,,,,,,,,,,,,,,,,,,,,,,,,,,,,,shore,162,129,aloud,new,white,3830.4562475997955,None,n,3830.4562475997955,None,"['n', 'return']","[1.1939061004668474, 1.7220432003960013]",3830.4562475997955,None,,,77YE,001,2023_May_05_1219,ExactRep-v3-final,2021.2.3,59.92365720958213,
,,,,,,,,,,,,129,0,129,0,,,,,,,,,,,,,,,,,,,,,,,,,,,,,,,,,,,,,,,,,,,,,,,,,3834.4677125001326,None,,,,,,,,,,,,,,,,,,,,,,,,,,,,,,,,,,,,,,,,,,,,,,,,,,,,,,,,,vision,218,130,aloud,new,white,3832.719937699847,None,n,3832.719937699847,None,"['n', 'return']","[1.1381892999634147, 1.7142699994146824]",3832.719937699847,None,,,77YE,001,2023_May_05_1219,ExactRep-v3-final,2021.2.3,59.92365720958213,
