trials_fam.thisRepN,trials_fam.thisTrialN,trials_fam.thisN,trials_fam.thisIndex,trials_prc.thisRepN,trials_prc.thisTrialN,trials_prc.thisN,trials_prc.thisIndex,StudyLoop.thisRepN,StudyLoop.thisTrialN,StudyLoop.thisN,StudyLoop.thisIndex,TestLoop.thisRepN,TestLoop.thisTrialN,TestLoop.thisN,TestLoop.thisIndex,text_colortest.started,text_colortest.stopped,key_colortest.keys,key_colortest.rt,key_colortest.started,key_colortest.stopped,textCondition.started,textCondition.stopped,keyCondition.keys,keyCondition.rt,keyCondition.started,keyCondition.stopped,Condition_between,Condition_counterbal,keyWelcome.keys,keyWelcome.rt,keyWelcome.started,keyWelcome.stopped,welcome_a.started,welcome_a.stopped,welcome_b.started,welcome_b.stopped,welcome_c.started,welcome_c.stopped,welcome_d.started,welcome_d.stopped,welcome_e.started,welcome_e.stopped,welcome_f.started,welcome_f.stopped,key_resp_fam_inst.keys,key_resp_fam_inst.rt,key_resp_fam_inst.started,key_resp_fam_inst.stopped,fam_a.started,fam_a.stopped,fam_b.started,fam_b.stopped,fam_c.started,fam_c.stopped,fam_d.started,fam_d.stopped,fam_e.started,fam_e.stopped,fam_f.started,fam_f.stopped,text_famil.started,text_famil.stopped,textBlank500.started,textBlank500.stopped,key_resp_prc_inst.keys,key_resp_prc_inst.rt,key_resp_prc_inst.started,key_resp_prc_inst.stopped,prac_a.started,prac_a.stopped,prac_b.started,prac_b.stopped,prac_c.started,prac_c.stopped,prac_d.started,prac_d.stopped,prac_e.started,prac_e.stopped,prac_f.started,prac_f.stopped,text_prc_trial.started,text_prc_trial.stopped,key_resp_study_inst.keys,key_resp_study_inst.rt,key_resp_study_inst.started,key_resp_study_inst.stopped,crit_a.started,crit_a.stopped,crit_b.started,crit_b.stopped,crit_c.started,crit_c.stopped,crit_d.started,crit_d.stopped,crit_e.started,crit_e.stopped,crit_f.started,crit_f.stopped,study_word,study_num,study_order,study_type,word_color,textStudy.started,textStudy.stopped,keyStudy.keys,keyStudy.started,keyStudy.stopped,post_study.started,post_study.stopped,key_resp_post_study.keys,key_resp_post_study.rt,key_resp_post_study.started,key_resp_post_study.stopped,test_inst.started,test_inst.stopped,key_resp_test_inst.keys,key_resp_test_inst.rt,key_resp_test_inst.started,key_resp_test_inst.stopped,test_word,test_num,test_order,test_condition,old_new_test,word_color_test,textConf.started,textConf.stopped,Participant Response,textInput.started,textInput.stopped,keyResp.keys,keyResp.rt,keyResp.started,keyResp.stopped,textEnd.started,textEnd.stopped,participant,session,date,expName,psychopyVersion,frameRate,
,,,,,,,,,,,,,,,,24.14847279999998,None,y,22.87186029999998,24.14847279999998,None,,,,,,,,,,,,,,,,,,,,,,,,,,,,,,,,,,,,,,,,,,,,,,,,,,,,,,,,,,,,,,,,,,,,,,,,,,,,,,,,,,,,,,,,,,,,,,,,,,,,,,,,,,,,,,,,,,,,,,78YF,001,2023_Aug_23_1656,ExactRep-v3-final,2021.2.3,59.955956354455985,
,,,,,,,,,,,,,,,,,,,,,,47.04373220000002,None,f,0.46461329999999634,47.04373220000002,None,,,,,,,,,,,,,,,,,,,,,,,,,,,,,,,,,,,,,,,,,,,,,,,,,,,,,,,,,,,,,,,,,,,,,,,,,,,,,,,,,,,,,,,,,,,,,,,,,,,,,,,,,,,,,,,,78YF,001,2023_Aug_23_1656,ExactRep-v3-final,2021.2.3,59.955956354455985,
,,,,,,,,,,,,,,,,,,,,,,,,,,,,colorfoils,f,space,445.3368801,57.67513079999998,None,,,,,,,,,,,,,,,,,,,,,,,,,,,,,,,,,,,,,,,,,,,,,,,,,,,,,,,,,,,,,,,,,,,,,,,,,,,,,,,,,,,,,,,,,,,,,,,,,,,,,,,,,,78YF,001,2023_Aug_23_1656,ExactRep-v3-final,2021.2.3,59.955956354455985,
,,,,,,,,,,,,,,,,,,,,,,,,,,,,,,,,,,47.73040279999998,None,47.73040279999998,None,47.73040279999998,None,47.73040279999998,None,47.73040279999998,None,47.73040279999998,None,space,16.822346599999946,513.1819353000001,None,,,,,,,,,,,,,,,,,,,,,,,,,,,,,,,,,,,,,,,,,,,,,,,,,,,,,,,,,,,,,,,,,,,,,,,,,,,,,,,,,,,,,,,,,,78YF,001,2023_Aug_23_1656,ExactRep-v3-final,2021.2.3,59.955956354455985,
0,0,0,0,,,,,,,,,,,,,,,,,,,,,,,,,,,,,,,,,,,,,,,,,,,,,,,503.2159853,None,503.2159853,None,503.2159853,None,503.2159853,None,503.2159853,None,503.2159853,None,530.1081592,None,532.0945896000001,None,,,,,,,,,,,,,,,,,,,,,,,,,,,,,,,,,,,,,,,,,,,,,,,,,,,,,,,,,,,,,,,,,,,,,,,,,,78YF,001,2023_Aug_23_1656,ExactRep-v3-final,2021.2.3,59.955956354455985,
1,0,1,0,,,,,,,,,,,,,,,,,,,,,,,,,,,,,,,,,,,,,,,,,,,,,,,,,,,,,,,,,,,532.5951585,None,534.5972383000001,None,,,,,,,,,,,,,,,,,,,,,,,,,,,,,,,,,,,,,,,,,,,,,,,,,,,,,,,,,,,,,,,,,,,,,,,,,,78YF,001,2023_Aug_23_1656,ExactRep-v3-final,2021.2.3,59.955956354455985,
2,0,2,0,,,,,,,,,,,,,,,,,,,,,,,,,,,,,,,,,,,,,,,,,,,,,,,,,,,,,,,,,,,535.0988357000001,None,537.0993328,None,,,,,,,,,,,,,,,,,,,,,,,,,,,,,,,,,,,,,,,,,,,,,,,,,,,,,,,,,,,,,,,,,,,,,,,,,,78YF,001,2023_Aug_23_1656,ExactRep-v3-final,2021.2.3,59.955956354455985,
3,0,3,0,,,,,,,,,,,,,,,,,,,,,,,,,,,,,,,,,,,,,,,,,,,,,,,,,,,,,,,,,,,537.6095717000001,None,539.6189331999999,None,,,,,,,,,,,,,,,,,,,,,,,,,,,,,,,,,,,,,,,,,,,,,,,,,,,,,,,,,,,,,,,,,,,,,,,,,,78YF,001,2023_Aug_23_1656,ExactRep-v3-final,2021.2.3,59.955956354455985,
4,0,4,0,,,,,,,,,,,,,,,,,,,,,,,,,,,,,,,,,,,,,,,,,,,,,,,,,,,,,,,,,,,540.1195765,None,542.1211312,None,,,,,,,,,,,,,,,,,,,,,,,,,,,,,,,,,,,,,,,,,,,,,,,,,,,,,,,,,,,,,,,,,,,,,,,,,,78YF,001,2023_Aug_23_1656,ExactRep-v3-final,2021.2.3,59.955956354455985,
5,0,5,0,,,,,,,,,,,,,,,,,,,,,,,,,,,,,,,,,,,,,,,,,,,,,,,,,,,,,,,,,,,542.62168,None,544.6237689,None,,,,,,,,,,,,,,,,,,,,,,,,,,,,,,,,,,,,,,,,,,,,,,,,,,,,,,,,,,,,,,,,,,,,,,,,,,78YF,001,2023_Aug_23_1656,ExactRep-v3-final,2021.2.3,59.955956354455985,
6,0,6,0,,,,,,,,,,,,,,,,,,,,,,,,,,,,,,,,,,,,,,,,,,,,,,,,,,,,,,,,,,,545.1238883000001,None,547.1269236999999,None,,,,,,,,,,,,,,,,,,,,,,,,,,,,,,,,,,,,,,,,,,,,,,,,,,,,,,,,,,,,,,,,,,,,,,,,,,78YF,001,2023_Aug_23_1656,ExactRep-v3-final,2021.2.3,59.955956354455985,
7,0,7,0,,,,,,,,,,,,,,,,,,,,,,,,,,,,,,,,,,,,,,,,,,,,,,,,,,,,,,,,,,,547.6271033,None,549.6288750000001,None,,,,,,,,,,,,,,,,,,,,,,,,,,,,,,,,,,,,,,,,,,,,,,,,,,,,,,,,,,,,,,,,,,,,,,,,,,78YF,001,2023_Aug_23_1656,ExactRep-v3-final,2021.2.3,59.955956354455985,
8,0,8,0,,,,,,,,,,,,,,,,,,,,,,,,,,,,,,,,,,,,,,,,,,,,,,,,,,,,,,,,,,,550.1293293000001,None,552.1314097,None,,,,,,,,,,,,,,,,,,,,,,,,,,,,,,,,,,,,,,,,,,,,,,,,,,,,,,,,,,,,,,,,,,,,,,,,,,78YF,001,2023_Aug_23_1656,ExactRep-v3-final,2021.2.3,59.955956354455985,
9,0,9,0,,,,,,,,,,,,,,,,,,,,,,,,,,,,,,,,,,,,,,,,,,,,,,,,,,,,,,,,,,,552.6320702999999,None,554.6336008000001,None,,,,,,,,,,,,,,,,,,,,,,,,,,,,,,,,,,,,,,,,,,,,,,,,,,,,,,,,,,,,,,,,,,,,,,,,,,78YF,001,2023_Aug_23_1656,ExactRep-v3-final,2021.2.3,59.955956354455985,
10,0,10,0,,,,,,,,,,,,,,,,,,,,,,,,,,,,,,,,,,,,,,,,,,,,,,,,,,,,,,,,,,,555.1345762999999,None,557.1360473,None,,,,,,,,,,,,,,,,,,,,,,,,,,,,,,,,,,,,,,,,,,,,,,,,,,,,,,,,,,,,,,,,,,,,,,,,,,78YF,001,2023_Aug_23_1656,ExactRep-v3-final,2021.2.3,59.955956354455985,
11,0,11,0,,,,,,,,,,,,,,,,,,,,,,,,,,,,,,,,,,,,,,,,,,,,,,,,,,,,,,,,,,,557.6372176,None,559.638837,None,,,,,,,,,,,,,,,,,,,,,,,,,,,,,,,,,,,,,,,,,,,,,,,,,,,,,,,,,,,,,,,,,,,,,,,,,,78YF,001,2023_Aug_23_1656,ExactRep-v3-final,2021.2.3,59.955956354455985,
12,0,12,0,,,,,,,,,,,,,,,,,,,,,,,,,,,,,,,,,,,,,,,,,,,,,,,,,,,,,,,,,,,560.138948,None,562.1412439999999,None,,,,,,,,,,,,,,,,,,,,,,,,,,,,,,,,,,,,,,,,,,,,,,,,,,,,,,,,,,,,,,,,,,,,,,,,,,78YF,001,2023_Aug_23_1656,ExactRep-v3-final,2021.2.3,59.955956354455985,
13,0,13,0,,,,,,,,,,,,,,,,,,,,,,,,,,,,,,,,,,,,,,,,,,,,,,,,,,,,,,,,,,,562.6419424999999,None,564.6440282000001,None,,,,,,,,,,,,,,,,,,,,,,,,,,,,,,,,,,,,,,,,,,,,,,,,,,,,,,,,,,,,,,,,,,,,,,,,,,78YF,001,2023_Aug_23_1656,ExactRep-v3-final,2021.2.3,59.955956354455985,
14,0,14,0,,,,,,,,,,,,,,,,,,,,,,,,,,,,,,,,,,,,,,,,,,,,,,,,,,,,,,,,,,,565.1444002000001,None,567.1461839000001,None,,,,,,,,,,,,,,,,,,,,,,,,,,,,,,,,,,,,,,,,,,,,,,,,,,,,,,,,,,,,,,,,,,,,,,,,,,78YF,001,2023_Aug_23_1656,ExactRep-v3-final,2021.2.3,59.955956354455985,
,,,,,,,,,,,,,,,,,,,,,,,,,,,,,,,,,,,,,,,,,,,,,,,,,,,,,,,,,,,,,,,,,,space,19.72157660000005,577.7384291000001,None,,,,,,,,,,,,,,,,,,,,,,,,,,,,,,,,,,,,,,,,,,,,,,,,,,,,,,,,,,,,,,,,,,,,,,78YF,001,2023_Aug_23_1656,ExactRep-v3-final,2021.2.3,59.955956354455985,
,,,,0,0,0,0,,,,,,,,,,,,,,,,,,,,,,,,,,,,,,,,,,,,,,,,,,,,,,,,,,,,,,,,,599.5618102000001,None,,,,,567.7917961999999,None,567.7917961999999,None,567.7917961999999,None,567.7917961999999,None,567.7917961999999,None,567.7917961999999,None,597.5517328000001,None,,,,,,,,,,,,,,,,,,,,,,,,,,,,,,,,,,,,,,,,,,,,,,,,,,,,,,,,78YF,001,2023_Aug_23_1656,ExactRep-v3-final,2021.2.3,59.955956354455985,
,,,,1,0,1,0,,,,,,,,,,,,,,,,,,,,,,,,,,,,,,,,,,,,,,,,,,,,,,,,,,,,,,,,,602.0646502,None,,,,,,,,,,,,,,,,,600.0624561,None,,,,,,,,,,,,,,,,,,,,,,,,,,,,,,,,,,,,,,,,,,,,,,,,,,,,,,,,78YF,001,2023_Aug_23_1656,ExactRep-v3-final,2021.2.3,59.955956354455985,
,,,,2,0,2,0,,,,,,,,,,,,,,,,,,,,,,,,,,,,,,,,,,,,,,,,,,,,,,,,,,,,,,,,,604.5666231,None,,,,,,,,,,,,,,,,,602.5650602000001,None,,,,,,,,,,,,,,,,,,,,,,,,,,,,,,,,,,,,,,,,,,,,,,,,,,,,,,,,78YF,001,2023_Aug_23_1656,ExactRep-v3-final,2021.2.3,59.955956354455985,
,,,,3,0,3,0,,,,,,,,,,,,,,,,,,,,,,,,,,,,,,,,,,,,,,,,,,,,,,,,,,,,,,,,,607.069205,None,,,,,,,,,,,,,,,,,605.0676549,None,,,,,,,,,,,,,,,,,,,,,,,,,,,,,,,,,,,,,,,,,,,,,,,,,,,,,,,,78YF,001,2023_Aug_23_1656,ExactRep-v3-final,2021.2.3,59.955956354455985,
,,,,4,0,4,0,,,,,,,,,,,,,,,,,,,,,,,,,,,,,,,,,,,,,,,,,,,,,,,,,,,,,,,,,609.5721550000001,None,,,,,,,,,,,,,,,,,607.5700711,None,,,,,,,,,,,,,,,,,,,,,,,,,,,,,,,,,,,,,,,,,,,,,,,,,,,,,,,,78YF,001,2023_Aug_23_1656,ExactRep-v3-final,2021.2.3,59.955956354455985,
,,,,5,0,5,0,,,,,,,,,,,,,,,,,,,,,,,,,,,,,,,,,,,,,,,,,,,,,,,,,,,,,,,,,612.0743015999999,None,,,,,,,,,,,,,,,,,610.0722576999999,None,,,,,,,,,,,,,,,,,,,,,,,,,,,,,,,,,,,,,,,,,,,,,,,,,,,,,,,,78YF,001,2023_Aug_23_1656,ExactRep-v3-final,2021.2.3,59.955956354455985,
,,,,6,0,6,0,,,,,,,,,,,,,,,,,,,,,,,,,,,,,,,,,,,,,,,,,,,,,,,,,,,,,,,,,614.5771507,None,,,,,,,,,,,,,,,,,612.5747524000001,None,,,,,,,,,,,,,,,,,,,,,,,,,,,,,,,,,,,,,,,,,,,,,,,,,,,,,,,,78YF,001,2023_Aug_23_1656,ExactRep-v3-final,2021.2.3,59.955956354455985,
,,,,7,0,7,0,,,,,,,,,,,,,,,,,,,,,,,,,,,,,,,,,,,,,,,,,,,,,,,,,,,,,,,,,617.0792360999999,None,,,,,,,,,,,,,,,,,615.0774615,None,,,,,,,,,,,,,,,,,,,,,,,,,,,,,,,,,,,,,,,,,,,,,,,,,,,,,,,,78YF,001,2023_Aug_23_1656,ExactRep-v3-final,2021.2.3,59.955956354455985,
,,,,8,0,8,0,,,,,,,,,,,,,,,,,,,,,,,,,,,,,,,,,,,,,,,,,,,,,,,,,,,,,,,,,619.5818010999999,None,,,,,,,,,,,,,,,,,617.5797267999999,None,,,,,,,,,,,,,,,,,,,,,,,,,,,,,,,,,,,,,,,,,,,,,,,,,,,,,,,,78YF,001,2023_Aug_23_1656,ExactRep-v3-final,2021.2.3,59.955956354455985,
,,,,9,0,9,0,,,,,,,,,,,,,,,,,,,,,,,,,,,,,,,,,,,,,,,,,,,,,,,,,,,,,,,,,622.0845729,None,,,,,,,,,,,,,,,,,620.0824416999999,None,,,,,,,,,,,,,,,,,,,,,,,,,,,,,,,,,,,,,,,,,,,,,,,,,,,,,,,,78YF,001,2023_Aug_23_1656,ExactRep-v3-final,2021.2.3,59.955956354455985,
,,,,10,0,10,0,,,,,,,,,,,,,,,,,,,,,,,,,,,,,,,,,,,,,,,,,,,,,,,,,,,,,,,,,624.5868521,None,,,,,,,,,,,,,,,,,622.5853278,None,,,,,,,,,,,,,,,,,,,,,,,,,,,,,,,,,,,,,,,,,,,,,,,,,,,,,,,,78YF,001,2023_Aug_23_1656,ExactRep-v3-final,2021.2.3,59.955956354455985,
,,,,11,0,11,0,,,,,,,,,,,,,,,,,,,,,,,,,,,,,,,,,,,,,,,,,,,,,,,,,,,,,,,,,627.0896061000001,None,,,,,,,,,,,,,,,,,625.0873864,None,,,,,,,,,,,,,,,,,,,,,,,,,,,,,,,,,,,,,,,,,,,,,,,,,,,,,,,,78YF,001,2023_Aug_23_1656,ExactRep-v3-final,2021.2.3,59.955956354455985,
,,,,12,0,12,0,,,,,,,,,,,,,,,,,,,,,,,,,,,,,,,,,,,,,,,,,,,,,,,,,,,,,,,,,629.5919570000001,None,,,,,,,,,,,,,,,,,627.5901718,None,,,,,,,,,,,,,,,,,,,,,,,,,,,,,,,,,,,,,,,,,,,,,,,,,,,,,,,,78YF,001,2023_Aug_23_1656,ExactRep-v3-final,2021.2.3,59.955956354455985,
,,,,13,0,13,0,,,,,,,,,,,,,,,,,,,,,,,,,,,,,,,,,,,,,,,,,,,,,,,,,,,,,,,,,632.0946922,None,,,,,,,,,,,,,,,,,630.0922625999999,None,,,,,,,,,,,,,,,,,,,,,,,,,,,,,,,,,,,,,,,,,,,,,,,,,,,,,,,,78YF,001,2023_Aug_23_1656,ExactRep-v3-final,2021.2.3,59.955956354455985,
,,,,14,0,14,0,,,,,,,,,,,,,,,,,,,,,,,,,,,,,,,,,,,,,,,,,,,,,,,,,,,,,,,,,634.5970631,None,,,,,,,,,,,,,,,,,632.5952950000001,None,,,,,,,,,,,,,,,,,,,,,,,,,,,,,,,,,,,,,,,,,,,,,,,,,,,,,,,,78YF,001,2023_Aug_23_1656,ExactRep-v3-final,2021.2.3,59.955956354455985,
,,,,,,,,,,,,,,,,,,,,,,,,,,,,,,,,,,,,,,,,,,,,,,,,,,,,,,,,,,,,,,,,,,,,,,,,,,,,,,,,,,,,space,19.32369369999992,645.2242656999999,None,,,,,,,,,,,,,,,,,,,,,,,,,,,,,,,,,,,,,,,,,,,,,,,,,,,,78YF,001,2023_Aug_23_1656,ExactRep-v3-final,2021.2.3,59.955956354455985,
,,,,,,,,0,0,0,0,,,,,,,,,,,,,,,,,,,,,,,,,,,,,,,,,,,,,,,,,,,,,,,,,,,,,666.6790132000001,None,,,,,,,,,,,,,,,,,,,,,,,635.2416506,None,635.2416506,None,635.2416506,None,635.2416506,None,635.2416506,None,635.2416506,None,pipe,70,1,silent,blue,664.6647478,None,None,664.6647478,None,,,,,,,,,,,,,,,,,,,,,,,,,,,,,,78YF,001,2023_Aug_23_1656,ExactRep-v3-final,2021.2.3,59.955956354455985,
,,,,,,,,1,0,1,0,,,,,,,,,,,,,,,,,,,,,,,,,,,,,,,,,,,,,,,,,,,,,,,,,,,,,669.1815544000001,None,,,,,,,,,,,,,,,,,,,,,,,,,,,,,,,,,,,series,20,2,sing,red,667.1815515000001,None,None,667.1815515000001,None,,,,,,,,,,,,,,,,,,,,,,,,,,,,,,78YF,001,2023_Aug_23_1656,ExactRep-v3-final,2021.2.3,59.955956354455985,
,,,,,,,,2,0,2,0,,,,,,,,,,,,,,,,,,,,,,,,,,,,,,,,,,,,,,,,,,,,,,,,,,,,,671.7008512,None,,,,,,,,,,,,,,,,,,,,,,,,,,,,,,,,,,,silence,93,3,aloud,white,669.6875439999999,None,None,669.6875439999999,None,,,,,,,,,,,,,,,,,,,,,,,,,,,,,,78YF,001,2023_Aug_23_1656,ExactRep-v3-final,2021.2.3,59.955956354455985,
,,,,,,,,3,0,3,0,,,,,,,,,,,,,,,,,,,,,,,,,,,,,,,,,,,,,,,,,,,,,,,,,,,,,674.2032876000001,None,,,,,,,,,,,,,,,,,,,,,,,,,,,,,,,,,,,corn,4,4,sing,red,672.2011640000001,None,None,672.2011640000001,None,,,,,,,,,,,,,,,,,,,,,,,,,,,,,,78YF,001,2023_Aug_23_1656,ExactRep-v3-final,2021.2.3,59.955956354455985,
,,,,,,,,4,0,4,0,,,,,,,,,,,,,,,,,,,,,,,,,,,,,,,,,,,,,,,,,,,,,,,,,,,,,676.7054094,None,,,,,,,,,,,,,,,,,,,,,,,,,,,,,,,,,,,slave,13,5,sing,red,674.705453,None,None,674.705453,None,,,,,,,,,,,,,,,,,,,,,,,,,,,,,,78YF,001,2023_Aug_23_1656,ExactRep-v3-final,2021.2.3,59.955956354455985,
,,,,,,,,5,0,5,0,,,,,,,,,,,,,,,,,,,,,,,,,,,,,,,,,,,,,,,,,,,,,,,,,,,,,679.2086995,None,,,,,,,,,,,,,,,,,,,,,,,,,,,,,,,,,,,skin,7,6,sing,red,677.2066044000001,None,None,677.2066044000001,None,,,,,,,,,,,,,,,,,,,,,,,,,,,,,,78YF,001,2023_Aug_23_1656,ExactRep-v3-final,2021.2.3,59.955956354455985,
,,,,,,,,6,0,6,0,,,,,,,,,,,,,,,,,,,,,,,,,,,,,,,,,,,,,,,,,,,,,,,,,,,,,681.7109754,None,,,,,,,,,,,,,,,,,,,,,,,,,,,,,,,,,,,master,63,7,silent,blue,679.7085664000001,None,None,679.7085664000001,None,,,,,,,,,,,,,,,,,,,,,,,,,,,,,,78YF,001,2023_Aug_23_1656,ExactRep-v3-final,2021.2.3,59.955956354455985,
,,,,,,,,7,0,7,0,,,,,,,,,,,,,,,,,,,,,,,,,,,,,,,,,,,,,,,,,,,,,,,,,,,,,684.2130827999999,None,,,,,,,,,,,,,,,,,,,,,,,,,,,,,,,,,,,star,92,8,aloud,white,682.2114698,None,None,682.2114698,None,,,,,,,,,,,,,,,,,,,,,,,,,,,,,,78YF,001,2023_Aug_23_1656,ExactRep-v3-final,2021.2.3,59.955956354455985,
,,,,,,,,8,0,8,0,,,,,,,,,,,,,,,,,,,,,,,,,,,,,,,,,,,,,,,,,,,,,,,,,,,,,686.7154038000001,None,,,,,,,,,,,,,,,,,,,,,,,,,,,,,,,,,,,safety,12,9,sing,red,684.7134131,None,None,684.7134131,None,,,,,,,,,,,,,,,,,,,,,,,,,,,,,,78YF,001,2023_Aug_23_1656,ExactRep-v3-final,2021.2.3,59.955956354455985,
,,,,,,,,9,0,9,0,,,,,,,,,,,,,,,,,,,,,,,,,,,,,,,,,,,,,,,,,,,,,,,,,,,,,689.2182660000001,None,,,,,,,,,,,,,,,,,,,,,,,,,,,,,,,,,,,iron,115,10,aloud,white,687.2159784999999,None,None,687.2159784999999,None,,,,,,,,,,,,,,,,,,,,,,,,,,,,,,78YF,001,2023_Aug_23_1656,ExactRep-v3-final,2021.2.3,59.955956354455985,
,,,,,,,,10,0,10,0,,,,,,,,,,,,,,,,,,,,,,,,,,,,,,,,,,,,,,,,,,,,,,,,,,,,,691.7204388,None,,,,,,,,,,,,,,,,,,,,,,,,,,,,,,,,,,,flesh,42,11,silent,blue,689.7208561,None,None,689.7208561,None,,,,,,,,,,,,,,,,,,,,,,,,,,,,,,78YF,001,2023_Aug_23_1656,ExactRep-v3-final,2021.2.3,59.955956354455985,
,,,,,,,,11,0,11,0,,,,,,,,,,,,,,,,,,,,,,,,,,,,,,,,,,,,,,,,,,,,,,,,,,,,,694.2231311,None,,,,,,,,,,,,,,,,,,,,,,,,,,,,,,,,,,,toy,49,12,silent,blue,692.2217321,None,None,692.2217321,None,,,,,,,,,,,,,,,,,,,,,,,,,,,,,,78YF,001,2023_Aug_23_1656,ExactRep-v3-final,2021.2.3,59.955956354455985,
,,,,,,,,12,0,12,0,,,,,,,,,,,,,,,,,,,,,,,,,,,,,,,,,,,,,,,,,,,,,,,,,,,,,696.7256011,None,,,,,,,,,,,,,,,,,,,,,,,,,,,,,,,,,,,street,35,13,sing,red,694.7239558000001,None,None,694.7239558000001,None,,,,,,,,,,,,,,,,,,,,,,,,,,,,,,78YF,001,2023_Aug_23_1656,ExactRep-v3-final,2021.2.3,59.955956354455985,
,,,,,,,,13,0,13,0,,,,,,,,,,,,,,,,,,,,,,,,,,,,,,,,,,,,,,,,,,,,,,,,,,,,,699.2282161999999,None,,,,,,,,,,,,,,,,,,,,,,,,,,,,,,,,,,,speech,40,14,silent,blue,697.2262128,None,None,697.2262128,None,,,,,,,,,,,,,,,,,,,,,,,,,,,,,,78YF,001,2023_Aug_23_1656,ExactRep-v3-final,2021.2.3,59.955956354455985,
,,,,,,,,14,0,14,0,,,,,,,,,,,,,,,,,,,,,,,,,,,,,,,,,,,,,,,,,,,,,,,,,,,,,701.7303950999999,None,,,,,,,,,,,,,,,,,,,,,,,,,,,,,,,,,,,mother,94,15,aloud,white,699.7286991999999,None,None,699.7286991999999,None,,,,,,,,,,,,,,,,,,,,,,,,,,,,,,78YF,001,2023_Aug_23_1656,ExactRep-v3-final,2021.2.3,59.955956354455985,
,,,,,,,,15,0,15,0,,,,,,,,,,,,,,,,,,,,,,,,,,,,,,,,,,,,,,,,,,,,,,,,,,,,,704.2332507000001,None,,,,,,,,,,,,,,,,,,,,,,,,,,,,,,,,,,,quality,71,16,silent,blue,702.2318643000001,None,None,702.2318643000001,None,,,,,,,,,,,,,,,,,,,,,,,,,,,,,,78YF,001,2023_Aug_23_1656,ExactRep-v3-final,2021.2.3,59.955956354455985,
,,,,,,,,16,0,16,0,,,,,,,,,,,,,,,,,,,,,,,,,,,,,,,,,,,,,,,,,,,,,,,,,,,,,706.7356486000001,None,,,,,,,,,,,,,,,,,,,,,,,,,,,,,,,,,,,circle,105,17,aloud,white,704.7336201999999,None,None,704.7336201999999,None,,,,,,,,,,,,,,,,,,,,,,,,,,,,,,78YF,001,2023_Aug_23_1656,ExactRep-v3-final,2021.2.3,59.955956354455985,
,,,,,,,,17,0,17,0,,,,,,,,,,,,,,,,,,,,,,,,,,,,,,,,,,,,,,,,,,,,,,,,,,,,,709.2381054,None,,,,,,,,,,,,,,,,,,,,,,,,,,,,,,,,,,,hall,69,18,silent,blue,707.2360639000001,None,None,707.2360639000001,None,,,,,,,,,,,,,,,,,,,,,,,,,,,,,,78YF,001,2023_Aug_23_1656,ExactRep-v3-final,2021.2.3,59.955956354455985,
,,,,,,,,18,0,18,0,,,,,,,,,,,,,,,,,,,,,,,,,,,,,,,,,,,,,,,,,,,,,,,,,,,,,711.7404859999999,None,,,,,,,,,,,,,,,,,,,,,,,,,,,,,,,,,,,coffee,50,19,silent,blue,709.7385749,None,None,709.7385749,None,,,,,,,,,,,,,,,,,,,,,,,,,,,,,,78YF,001,2023_Aug_23_1656,ExactRep-v3-final,2021.2.3,59.955956354455985,
,,,,,,,,19,0,19,0,,,,,,,,,,,,,,,,,,,,,,,,,,,,,,,,,,,,,,,,,,,,,,,,,,,,,714.2438185000001,None,,,,,,,,,,,,,,,,,,,,,,,,,,,,,,,,,,,green,77,20,silent,blue,712.2412566999999,None,None,712.2412566999999,None,,,,,,,,,,,,,,,,,,,,,,,,,,,,,,78YF,001,2023_Aug_23_1656,ExactRep-v3-final,2021.2.3,59.955956354455985,
,,,,,,,,20,0,20,0,,,,,,,,,,,,,,,,,,,,,,,,,,,,,,,,,,,,,,,,,,,,,,,,,,,,,716.7458469999999,None,,,,,,,,,,,,,,,,,,,,,,,,,,,,,,,,,,,heaven,5,21,sing,red,714.7438248999999,None,None,714.7438248999999,None,,,,,,,,,,,,,,,,,,,,,,,,,,,,,,78YF,001,2023_Aug_23_1656,ExactRep-v3-final,2021.2.3,59.955956354455985,
,,,,,,,,21,0,21,0,,,,,,,,,,,,,,,,,,,,,,,,,,,,,,,,,,,,,,,,,,,,,,,,,,,,,719.2482278,None,,,,,,,,,,,,,,,,,,,,,,,,,,,,,,,,,,,spirit,31,22,sing,red,717.24638,None,None,717.24638,None,,,,,,,,,,,,,,,,,,,,,,,,,,,,,,78YF,001,2023_Aug_23_1656,ExactRep-v3-final,2021.2.3,59.955956354455985,
,,,,,,,,22,0,22,0,,,,,,,,,,,,,,,,,,,,,,,,,,,,,,,,,,,,,,,,,,,,,,,,,,,,,721.7505702999999,None,,,,,,,,,,,,,,,,,,,,,,,,,,,,,,,,,,,shock,68,23,silent,blue,719.7488607,None,None,719.7488607,None,,,,,,,,,,,,,,,,,,,,,,,,,,,,,,78YF,001,2023_Aug_23_1656,ExactRep-v3-final,2021.2.3,59.955956354455985,
,,,,,,,,23,0,23,0,,,,,,,,,,,,,,,,,,,,,,,,,,,,,,,,,,,,,,,,,,,,,,,,,,,,,724.2532073,None,,,,,,,,,,,,,,,,,,,,,,,,,,,,,,,,,,,pride,48,24,silent,blue,722.2510772999999,None,None,722.2510772999999,None,,,,,,,,,,,,,,,,,,,,,,,,,,,,,,78YF,001,2023_Aug_23_1656,ExactRep-v3-final,2021.2.3,59.955956354455985,
,,,,,,,,24,0,24,0,,,,,,,,,,,,,,,,,,,,,,,,,,,,,,,,,,,,,,,,,,,,,,,,,,,,,726.755525,None,,,,,,,,,,,,,,,,,,,,,,,,,,,,,,,,,,,lake,56,25,silent,blue,724.7540514999998,None,None,724.7540514999998,None,,,,,,,,,,,,,,,,,,,,,,,,,,,,,,78YF,001,2023_Aug_23_1656,ExactRep-v3-final,2021.2.3,59.955956354455985,
,,,,,,,,25,0,25,0,,,,,,,,,,,,,,,,,,,,,,,,,,,,,,,,,,,,,,,,,,,,,,,,,,,,,729.2581459999999,None,,,,,,,,,,,,,,,,,,,,,,,,,,,,,,,,,,,book,17,26,sing,red,727.2560759,None,None,727.2560759,None,,,,,,,,,,,,,,,,,,,,,,,,,,,,,,78YF,001,2023_Aug_23_1656,ExactRep-v3-final,2021.2.3,59.955956354455985,
,,,,,,,,26,0,26,0,,,,,,,,,,,,,,,,,,,,,,,,,,,,,,,,,,,,,,,,,,,,,,,,,,,,,731.7609124,None,,,,,,,,,,,,,,,,,,,,,,,,,,,,,,,,,,,doll,96,27,aloud,white,729.7585650999999,None,None,729.7585650999999,None,,,,,,,,,,,,,,,,,,,,,,,,,,,,,,78YF,001,2023_Aug_23_1656,ExactRep-v3-final,2021.2.3,59.955956354455985,
,,,,,,,,27,0,27,0,,,,,,,,,,,,,,,,,,,,,,,,,,,,,,,,,,,,,,,,,,,,,,,,,,,,,734.2632604,None,,,,,,,,,,,,,,,,,,,,,,,,,,,,,,,,,,,priest,89,28,aloud,white,732.2612763,None,None,732.2612763,None,,,,,,,,,,,,,,,,,,,,,,,,,,,,,,78YF,001,2023_Aug_23_1656,ExactRep-v3-final,2021.2.3,59.955956354455985,
,,,,,,,,28,0,28,0,,,,,,,,,,,,,,,,,,,,,,,,,,,,,,,,,,,,,,,,,,,,,,,,,,,,,736.765555,None,,,,,,,,,,,,,,,,,,,,,,,,,,,,,,,,,,,child,26,29,sing,red,734.7638379999999,None,None,734.7638379999999,None,,,,,,,,,,,,,,,,,,,,,,,,,,,,,,78YF,001,2023_Aug_23_1656,ExactRep-v3-final,2021.2.3,59.955956354455985,
,,,,,,,,29,0,29,0,,,,,,,,,,,,,,,,,,,,,,,,,,,,,,,,,,,,,,,,,,,,,,,,,,,,,739.2679066999999,None,,,,,,,,,,,,,,,,,,,,,,,,,,,,,,,,,,,owner,45,30,silent,blue,737.2679231,None,None,737.2679231,None,,,,,,,,,,,,,,,,,,,,,,,,,,,,,,78YF,001,2023_Aug_23_1656,ExactRep-v3-final,2021.2.3,59.955956354455985,
,,,,,,,,30,0,30,0,,,,,,,,,,,,,,,,,,,,,,,,,,,,,,,,,,,,,,,,,,,,,,,,,,,,,741.770845,None,,,,,,,,,,,,,,,,,,,,,,,,,,,,,,,,,,,camp,10,31,sing,red,739.7688226999999,None,None,739.7688226999999,None,,,,,,,,,,,,,,,,,,,,,,,,,,,,,,78YF,001,2023_Aug_23_1656,ExactRep-v3-final,2021.2.3,59.955956354455985,
,,,,,,,,31,0,31,0,,,,,,,,,,,,,,,,,,,,,,,,,,,,,,,,,,,,,,,,,,,,,,,,,,,,,744.2730016,None,,,,,,,,,,,,,,,,,,,,,,,,,,,,,,,,,,,blossom,28,32,sing,red,742.2712463,None,None,742.2712463,None,,,,,,,,,,,,,,,,,,,,,,,,,,,,,,78YF,001,2023_Aug_23_1656,ExactRep-v3-final,2021.2.3,59.955956354455985,
,,,,,,,,32,0,32,0,,,,,,,,,,,,,,,,,,,,,,,,,,,,,,,,,,,,,,,,,,,,,,,,,,,,,746.7755626999999,None,,,,,,,,,,,,,,,,,,,,,,,,,,,,,,,,,,,journal,79,33,sing,red,744.7737187999999,None,None,744.7737187999999,None,,,,,,,,,,,,,,,,,,,,,,,,,,,,,,78YF,001,2023_Aug_23_1656,ExactRep-v3-final,2021.2.3,59.955956354455985,
,,,,,,,,33,0,33,0,,,,,,,,,,,,,,,,,,,,,,,,,,,,,,,,,,,,,,,,,,,,,,,,,,,,,749.2781238999999,None,,,,,,,,,,,,,,,,,,,,,,,,,,,,,,,,,,,river,109,34,aloud,white,747.2788003999999,None,None,747.2788003999999,None,,,,,,,,,,,,,,,,,,,,,,,,,,,,,,78YF,001,2023_Aug_23_1656,ExactRep-v3-final,2021.2.3,59.955956354455985,
,,,,,,,,34,0,34,0,,,,,,,,,,,,,,,,,,,,,,,,,,,,,,,,,,,,,,,,,,,,,,,,,,,,,751.7808637999999,None,,,,,,,,,,,,,,,,,,,,,,,,,,,,,,,,,,,bird,44,35,silent,blue,749.778544,None,None,749.778544,None,,,,,,,,,,,,,,,,,,,,,,,,,,,,,,78YF,001,2023_Aug_23_1656,ExactRep-v3-final,2021.2.3,59.955956354455985,
,,,,,,,,35,0,35,0,,,,,,,,,,,,,,,,,,,,,,,,,,,,,,,,,,,,,,,,,,,,,,,,,,,,,754.2830016,None,,,,,,,,,,,,,,,,,,,,,,,,,,,,,,,,,,,history,18,36,sing,red,752.2815459999999,None,None,752.2815459999999,None,,,,,,,,,,,,,,,,,,,,,,,,,,,,,,78YF,001,2023_Aug_23_1656,ExactRep-v3-final,2021.2.3,59.955956354455985,
,,,,,,,,36,0,36,0,,,,,,,,,,,,,,,,,,,,,,,,,,,,,,,,,,,,,,,,,,,,,,,,,,,,,756.7857245999999,None,,,,,,,,,,,,,,,,,,,,,,,,,,,,,,,,,,,pupil,61,37,silent,blue,754.7835519999999,None,None,754.7835519999999,None,,,,,,,,,,,,,,,,,,,,,,,,,,,,,,78YF,001,2023_Aug_23_1656,ExactRep-v3-final,2021.2.3,59.955956354455985,
,,,,,,,,37,0,37,0,,,,,,,,,,,,,,,,,,,,,,,,,,,,,,,,,,,,,,,,,,,,,,,,,,,,,759.2880063,None,,,,,,,,,,,,,,,,,,,,,,,,,,,,,,,,,,,prison,82,38,aloud,white,757.2863766,None,None,757.2863766,None,,,,,,,,,,,,,,,,,,,,,,,,,,,,,,78YF,001,2023_Aug_23_1656,ExactRep-v3-final,2021.2.3,59.955956354455985,
,,,,,,,,38,0,38,0,,,,,,,,,,,,,,,,,,,,,,,,,,,,,,,,,,,,,,,,,,,,,,,,,,,,,761.7908098999999,None,,,,,,,,,,,,,,,,,,,,,,,,,,,,,,,,,,,humour,65,39,silent,blue,759.789055,None,None,759.789055,None,,,,,,,,,,,,,,,,,,,,,,,,,,,,,,78YF,001,2023_Aug_23_1656,ExactRep-v3-final,2021.2.3,59.955956354455985,
,,,,,,,,39,0,39,0,,,,,,,,,,,,,,,,,,,,,,,,,,,,,,,,,,,,,,,,,,,,,,,,,,,,,764.2932587,None,,,,,,,,,,,,,,,,,,,,,,,,,,,,,,,,,,,dust,90,40,aloud,white,762.2912268,None,None,762.2912268,None,,,,,,,,,,,,,,,,,,,,,,,,,,,,,,78YF,001,2023_Aug_23_1656,ExactRep-v3-final,2021.2.3,59.955956354455985,
,,,,,,,,40,0,40,0,,,,,,,,,,,,,,,,,,,,,,,,,,,,,,,,,,,,,,,,,,,,,,,,,,,,,766.8123355,None,,,,,,,,,,,,,,,,,,,,,,,,,,,,,,,,,,,power,117,41,aloud,white,764.7982494999999,None,None,764.7982494999999,None,,,,,,,,,,,,,,,,,,,,,,,,,,,,,,78YF,001,2023_Aug_23_1656,ExactRep-v3-final,2021.2.3,59.955956354455985,
,,,,,,,,41,0,41,0,,,,,,,,,,,,,,,,,,,,,,,,,,,,,,,,,,,,,,,,,,,,,,,,,,,,,769.3148065999999,None,,,,,,,,,,,,,,,,,,,,,,,,,,,,,,,,,,,bar,85,42,aloud,white,767.312987,None,None,767.312987,None,,,,,,,,,,,,,,,,,,,,,,,,,,,,,,78YF,001,2023_Aug_23_1656,ExactRep-v3-final,2021.2.3,59.955956354455985,
,,,,,,,,42,0,42,0,,,,,,,,,,,,,,,,,,,,,,,,,,,,,,,,,,,,,,,,,,,,,,,,,,,,,771.8173108999999,None,,,,,,,,,,,,,,,,,,,,,,,,,,,,,,,,,,,deed,87,43,aloud,white,769.8152799,None,None,769.8152799,None,,,,,,,,,,,,,,,,,,,,,,,,,,,,,,78YF,001,2023_Aug_23_1656,ExactRep-v3-final,2021.2.3,59.955956354455985,
,,,,,,,,43,0,43,0,,,,,,,,,,,,,,,,,,,,,,,,,,,,,,,,,,,,,,,,,,,,,,,,,,,,,774.3201475999999,None,,,,,,,,,,,,,,,,,,,,,,,,,,,,,,,,,,,answer,118,44,aloud,white,772.3179143,None,None,772.3179143,None,,,,,,,,,,,,,,,,,,,,,,,,,,,,,,78YF,001,2023_Aug_23_1656,ExactRep-v3-final,2021.2.3,59.955956354455985,
,,,,,,,,44,0,44,0,,,,,,,,,,,,,,,,,,,,,,,,,,,,,,,,,,,,,,,,,,,,,,,,,,,,,776.8223926000001,None,,,,,,,,,,,,,,,,,,,,,,,,,,,,,,,,,,,sky,88,45,aloud,white,774.8203102999998,None,None,774.8203102999998,None,,,,,,,,,,,,,,,,,,,,,,,,,,,,,,78YF,001,2023_Aug_23_1656,ExactRep-v3-final,2021.2.3,59.955956354455985,
,,,,,,,,45,0,45,0,,,,,,,,,,,,,,,,,,,,,,,,,,,,,,,,,,,,,,,,,,,,,,,,,,,,,779.3249085999998,None,,,,,,,,,,,,,,,,,,,,,,,,,,,,,,,,,,,rock,9,46,sing,red,777.3230937999999,None,None,777.3230937999999,None,,,,,,,,,,,,,,,,,,,,,,,,,,,,,,78YF,001,2023_Aug_23_1656,ExactRep-v3-final,2021.2.3,59.955956354455985,
,,,,,,,,46,0,46,0,,,,,,,,,,,,,,,,,,,,,,,,,,,,,,,,,,,,,,,,,,,,,,,,,,,,,781.8274005999999,None,,,,,,,,,,,,,,,,,,,,,,,,,,,,,,,,,,,door,39,47,silent,blue,779.8256239,None,None,779.8256239,None,,,,,,,,,,,,,,,,,,,,,,,,,,,,,,78YF,001,2023_Aug_23_1656,ExactRep-v3-final,2021.2.3,59.955956354455985,
,,,,,,,,47,0,47,0,,,,,,,,,,,,,,,,,,,,,,,,,,,,,,,,,,,,,,,,,,,,,,,,,,,,,784.329872,None,,,,,,,,,,,,,,,,,,,,,,,,,,,,,,,,,,,weapon,86,48,aloud,white,782.327898,None,None,782.327898,None,,,,,,,,,,,,,,,,,,,,,,,,,,,,,,78YF,001,2023_Aug_23_1656,ExactRep-v3-final,2021.2.3,59.955956354455985,
,,,,,,,,48,0,48,0,,,,,,,,,,,,,,,,,,,,,,,,,,,,,,,,,,,,,,,,,,,,,,,,,,,,,786.8322082,None,,,,,,,,,,,,,,,,,,,,,,,,,,,,,,,,,,,tree,99,49,aloud,white,784.8302391,None,None,784.8302391,None,,,,,,,,,,,,,,,,,,,,,,,,,,,,,,78YF,001,2023_Aug_23_1656,ExactRep-v3-final,2021.2.3,59.955956354455985,
,,,,,,,,49,0,49,0,,,,,,,,,,,,,,,,,,,,,,,,,,,,,,,,,,,,,,,,,,,,,,,,,,,,,789.3352061,None,,,,,,,,,,,,,,,,,,,,,,,,,,,,,,,,,,,mind,111,50,aloud,white,787.3329555999999,None,None,787.3329555999999,None,,,,,,,,,,,,,,,,,,,,,,,,,,,,,,78YF,001,2023_Aug_23_1656,ExactRep-v3-final,2021.2.3,59.955956354455985,
,,,,,,,,50,0,50,0,,,,,,,,,,,,,,,,,,,,,,,,,,,,,,,,,,,,,,,,,,,,,,,,,,,,,791.8371121,None,,,,,,,,,,,,,,,,,,,,,,,,,,,,,,,,,,,king,21,51,sing,red,789.8352525999999,None,None,789.8352525999999,None,,,,,,,,,,,,,,,,,,,,,,,,,,,,,,78YF,001,2023_Aug_23_1656,ExactRep-v3-final,2021.2.3,59.955956354455985,
,,,,,,,,51,0,51,0,,,,,,,,,,,,,,,,,,,,,,,,,,,,,,,,,,,,,,,,,,,,,,,,,,,,,794.3397551999999,None,,,,,,,,,,,,,,,,,,,,,,,,,,,,,,,,,,,murder,22,52,sing,red,792.3379490999998,None,None,792.3379490999998,None,,,,,,,,,,,,,,,,,,,,,,,,,,,,,,78YF,001,2023_Aug_23_1656,ExactRep-v3-final,2021.2.3,59.955956354455985,
,,,,,,,,52,0,52,0,,,,,,,,,,,,,,,,,,,,,,,,,,,,,,,,,,,,,,,,,,,,,,,,,,,,,796.8421426999998,None,,,,,,,,,,,,,,,,,,,,,,,,,,,,,,,,,,,corner,27,53,sing,red,794.8405610999998,None,None,794.8405610999998,None,,,,,,,,,,,,,,,,,,,,,,,,,,,,,,78YF,001,2023_Aug_23_1656,ExactRep-v3-final,2021.2.3,59.955956354455985,
,,,,,,,,53,0,53,0,,,,,,,,,,,,,,,,,,,,,,,,,,,,,,,,,,,,,,,,,,,,,,,,,,,,,799.3446253,None,,,,,,,,,,,,,,,,,,,,,,,,,,,,,,,,,,,meadow,103,54,aloud,white,797.3425679,None,None,797.3425679,None,,,,,,,,,,,,,,,,,,,,,,,,,,,,,,78YF,001,2023_Aug_23_1656,ExactRep-v3-final,2021.2.3,59.955956354455985,
,,,,,,,,54,0,54,0,,,,,,,,,,,,,,,,,,,,,,,,,,,,,,,,,,,,,,,,,,,,,,,,,,,,,801.8476171,None,,,,,,,,,,,,,,,,,,,,,,,,,,,,,,,,,,,cottage,95,55,aloud,white,799.8452977,None,None,799.8452977,None,,,,,,,,,,,,,,,,,,,,,,,,,,,,,,78YF,001,2023_Aug_23_1656,ExactRep-v3-final,2021.2.3,59.955956354455985,
,,,,,,,,55,0,55,0,,,,,,,,,,,,,,,,,,,,,,,,,,,,,,,,,,,,,,,,,,,,,,,,,,,,,804.3498382999999,None,,,,,,,,,,,,,,,,,,,,,,,,,,,,,,,,,,,victory,53,56,silent,blue,802.3505432,None,None,802.3505432,None,,,,,,,,,,,,,,,,,,,,,,,,,,,,,,78YF,001,2023_Aug_23_1656,ExactRep-v3-final,2021.2.3,59.955956354455985,
,,,,,,,,56,0,56,0,,,,,,,,,,,,,,,,,,,,,,,,,,,,,,,,,,,,,,,,,,,,,,,,,,,,,806.8524321,None,,,,,,,,,,,,,,,,,,,,,,,,,,,,,,,,,,,party,1,57,sing,red,804.8503793999998,None,None,804.8503793999998,None,,,,,,,,,,,,,,,,,,,,,,,,,,,,,,78YF,001,2023_Aug_23_1656,ExactRep-v3-final,2021.2.3,59.955956354455985,
,,,,,,,,57,0,57,0,,,,,,,,,,,,,,,,,,,,,,,,,,,,,,,,,,,,,,,,,,,,,,,,,,,,,809.3549842,None,,,,,,,,,,,,,,,,,,,,,,,,,,,,,,,,,,,justice,24,58,sing,red,807.3529713,None,None,807.3529713,None,,,,,,,,,,,,,,,,,,,,,,,,,,,,,,78YF,001,2023_Aug_23_1656,ExactRep-v3-final,2021.2.3,59.955956354455985,
,,,,,,,,58,0,58,0,,,,,,,,,,,,,,,,,,,,,,,,,,,,,,,,,,,,,,,,,,,,,,,,,,,,,811.8571623999999,None,,,,,,,,,,,,,,,,,,,,,,,,,,,,,,,,,,,woods,80,59,aloud,white,809.8554807,None,None,809.8554807,None,,,,,,,,,,,,,,,,,,,,,,,,,,,,,,78YF,001,2023_Aug_23_1656,ExactRep-v3-final,2021.2.3,59.955956354455985,
,,,,,,,,59,0,59,0,,,,,,,,,,,,,,,,,,,,,,,,,,,,,,,,,,,,,,,,,,,,,,,,,,,,,814.3597891,None,,,,,,,,,,,,,,,,,,,,,,,,,,,,,,,,,,,cattle,25,60,sing,red,812.3578861999999,None,None,812.3578861999999,None,,,,,,,,,,,,,,,,,,,,,,,,,,,,,,78YF,001,2023_Aug_23_1656,ExactRep-v3-final,2021.2.3,59.955956354455985,
,,,,,,,,60,0,60,0,,,,,,,,,,,,,,,,,,,,,,,,,,,,,,,,,,,,,,,,,,,,,,,,,,,,,816.8622843999999,None,,,,,,,,,,,,,,,,,,,,,,,,,,,,,,,,,,,custom,78,61,silent,blue,814.8604381,None,None,814.8604381,None,,,,,,,,,,,,,,,,,,,,,,,,,,,,,,78YF,001,2023_Aug_23_1656,ExactRep-v3-final,2021.2.3,59.955956354455985,
,,,,,,,,61,0,61,0,,,,,,,,,,,,,,,,,,,,,,,,,,,,,,,,,,,,,,,,,,,,,,,,,,,,,819.3647294999998,None,,,,,,,,,,,,,,,,,,,,,,,,,,,,,,,,,,,plant,119,62,aloud,white,817.3626597,None,None,817.3626597,None,,,,,,,,,,,,,,,,,,,,,,,,,,,,,,78YF,001,2023_Aug_23_1656,ExactRep-v3-final,2021.2.3,59.955956354455985,
,,,,,,,,62,0,62,0,,,,,,,,,,,,,,,,,,,,,,,,,,,,,,,,,,,,,,,,,,,,,,,,,,,,,821.8673342,None,,,,,,,,,,,,,,,,,,,,,,,,,,,,,,,,,,,style,91,63,aloud,white,819.8653273,None,None,819.8653273,None,,,,,,,,,,,,,,,,,,,,,,,,,,,,,,78YF,001,2023_Aug_23_1656,ExactRep-v3-final,2021.2.3,59.955956354455985,
,,,,,,,,63,0,63,0,,,,,,,,,,,,,,,,,,,,,,,,,,,,,,,,,,,,,,,,,,,,,,,,,,,,,824.3701816,None,,,,,,,,,,,,,,,,,,,,,,,,,,,,,,,,,,,steam,104,64,aloud,white,822.3677482,None,None,822.3677482,None,,,,,,,,,,,,,,,,,,,,,,,,,,,,,,78YF,001,2023_Aug_23_1656,ExactRep-v3-final,2021.2.3,59.955956354455985,
,,,,,,,,64,0,64,0,,,,,,,,,,,,,,,,,,,,,,,,,,,,,,,,,,,,,,,,,,,,,,,,,,,,,826.8725723,None,,,,,,,,,,,,,,,,,,,,,,,,,,,,,,,,,,,charm,32,65,sing,red,824.8703481,None,None,824.8703481,None,,,,,,,,,,,,,,,,,,,,,,,,,,,,,,78YF,001,2023_Aug_23_1656,ExactRep-v3-final,2021.2.3,59.955956354455985,
,,,,,,,,65,0,65,0,,,,,,,,,,,,,,,,,,,,,,,,,,,,,,,,,,,,,,,,,,,,,,,,,,,,,829.3747059999998,None,,,,,,,,,,,,,,,,,,,,,,,,,,,,,,,,,,,home,57,66,silent,blue,827.3727959,None,None,827.3727959,None,,,,,,,,,,,,,,,,,,,,,,,,,,,,,,78YF,001,2023_Aug_23_1656,ExactRep-v3-final,2021.2.3,59.955956354455985,
,,,,,,,,66,0,66,0,,,,,,,,,,,,,,,,,,,,,,,,,,,,,,,,,,,,,,,,,,,,,,,,,,,,,831.8773504999999,None,,,,,,,,,,,,,,,,,,,,,,,,,,,,,,,,,,,friend,23,67,sing,red,829.8753873,None,None,829.8753873,None,,,,,,,,,,,,,,,,,,,,,,,,,,,,,,78YF,001,2023_Aug_23_1656,ExactRep-v3-final,2021.2.3,59.955956354455985,
,,,,,,,,67,0,67,0,,,,,,,,,,,,,,,,,,,,,,,,,,,,,,,,,,,,,,,,,,,,,,,,,,,,,834.3799259999998,None,,,,,,,,,,,,,,,,,,,,,,,,,,,,,,,,,,,month,66,68,silent,blue,832.3779053999999,None,None,832.3779053999999,None,,,,,,,,,,,,,,,,,,,,,,,,,,,,,,78YF,001,2023_Aug_23_1656,ExactRep-v3-final,2021.2.3,59.955956354455985,
,,,,,,,,68,0,68,0,,,,,,,,,,,,,,,,,,,,,,,,,,,,,,,,,,,,,,,,,,,,,,,,,,,,,836.8823290999999,None,,,,,,,,,,,,,,,,,,,,,,,,,,,,,,,,,,,table,6,69,sing,red,834.8804906999999,None,None,834.8804906999999,None,,,,,,,,,,,,,,,,,,,,,,,,,,,,,,78YF,001,2023_Aug_23_1656,ExactRep-v3-final,2021.2.3,59.955956354455985,
,,,,,,,,69,0,69,0,,,,,,,,,,,,,,,,,,,,,,,,,,,,,,,,,,,,,,,,,,,,,,,,,,,,,839.3849410999999,None,,,,,,,,,,,,,,,,,,,,,,,,,,,,,,,,,,,soul,11,70,sing,red,837.3827256,None,None,837.3827256,None,,,,,,,,,,,,,,,,,,,,,,,,,,,,,,78YF,001,2023_Aug_23_1656,ExactRep-v3-final,2021.2.3,59.955956354455985,
,,,,,,,,70,0,70,0,,,,,,,,,,,,,,,,,,,,,,,,,,,,,,,,,,,,,,,,,,,,,,,,,,,,,841.8873494,None,,,,,,,,,,,,,,,,,,,,,,,,,,,,,,,,,,,cash,0,71,sing,red,839.8852030999999,None,None,839.8852030999999,None,,,,,,,,,,,,,,,,,,,,,,,,,,,,,,78YF,001,2023_Aug_23_1656,ExactRep-v3-final,2021.2.3,59.955956354455985,
,,,,,,,,71,0,71,0,,,,,,,,,,,,,,,,,,,,,,,,,,,,,,,,,,,,,,,,,,,,,,,,,,,,,844.3897416,None,,,,,,,,,,,,,,,,,,,,,,,,,,,,,,,,,,,cost,114,72,aloud,white,842.3880081,None,None,842.3880081,None,,,,,,,,,,,,,,,,,,,,,,,,,,,,,,78YF,001,2023_Aug_23_1656,ExactRep-v3-final,2021.2.3,59.955956354455985,
,,,,,,,,72,0,72,0,,,,,,,,,,,,,,,,,,,,,,,,,,,,,,,,,,,,,,,,,,,,,,,,,,,,,846.8925440999999,None,,,,,,,,,,,,,,,,,,,,,,,,,,,,,,,,,,,freedom,30,73,sing,red,844.890322,None,None,844.890322,None,,,,,,,,,,,,,,,,,,,,,,,,,,,,,,78YF,001,2023_Aug_23_1656,ExactRep-v3-final,2021.2.3,59.955956354455985,
,,,,,,,,73,0,73,0,,,,,,,,,,,,,,,,,,,,,,,,,,,,,,,,,,,,,,,,,,,,,,,,,,,,,849.3947991999999,None,,,,,,,,,,,,,,,,,,,,,,,,,,,,,,,,,,,brain,107,74,aloud,white,847.3929375,None,None,847.3929375,None,,,,,,,,,,,,,,,,,,,,,,,,,,,,,,78YF,001,2023_Aug_23_1656,ExactRep-v3-final,2021.2.3,59.955956354455985,
,,,,,,,,74,0,74,0,,,,,,,,,,,,,,,,,,,,,,,,,,,,,,,,,,,,,,,,,,,,,,,,,,,,,851.8975094,None,,,,,,,,,,,,,,,,,,,,,,,,,,,,,,,,,,,lord,60,75,silent,blue,849.895372,None,None,849.895372,None,,,,,,,,,,,,,,,,,,,,,,,,,,,,,,78YF,001,2023_Aug_23_1656,ExactRep-v3-final,2021.2.3,59.955956354455985,
,,,,,,,,75,0,75,0,,,,,,,,,,,,,,,,,,,,,,,,,,,,,,,,,,,,,,,,,,,,,,,,,,,,,854.399793,None,,,,,,,,,,,,,,,,,,,,,,,,,,,,,,,,,,,ticket,43,76,silent,blue,852.3977858999999,None,None,852.3977858999999,None,,,,,,,,,,,,,,,,,,,,,,,,,,,,,,78YF,001,2023_Aug_23_1656,ExactRep-v3-final,2021.2.3,59.955956354455985,
,,,,,,,,76,0,76,0,,,,,,,,,,,,,,,,,,,,,,,,,,,,,,,,,,,,,,,,,,,,,,,,,,,,,856.9022453999999,None,,,,,,,,,,,,,,,,,,,,,,,,,,,,,,,,,,,method,38,77,sing,red,854.9004769000001,None,None,854.9004769000001,None,,,,,,,,,,,,,,,,,,,,,,,,,,,,,,78YF,001,2023_Aug_23_1656,ExactRep-v3-final,2021.2.3,59.955956354455985,
,,,,,,,,77,0,77,0,,,,,,,,,,,,,,,,,,,,,,,,,,,,,,,,,,,,,,,,,,,,,,,,,,,,,859.4047765,None,,,,,,,,,,,,,,,,,,,,,,,,,,,,,,,,,,,city,112,78,aloud,white,857.4033075999998,None,None,857.4033075999998,None,,,,,,,,,,,,,,,,,,,,,,,,,,,,,,78YF,001,2023_Aug_23_1656,ExactRep-v3-final,2021.2.3,59.955956354455985,
,,,,,,,,78,0,78,0,,,,,,,,,,,,,,,,,,,,,,,,,,,,,,,,,,,,,,,,,,,,,,,,,,,,,861.9074281999999,None,,,,,,,,,,,,,,,,,,,,,,,,,,,,,,,,,,,artist,64,79,silent,blue,859.90546,None,None,859.90546,None,,,,,,,,,,,,,,,,,,,,,,,,,,,,,,78YF,001,2023_Aug_23_1656,ExactRep-v3-final,2021.2.3,59.955956354455985,
,,,,,,,,79,0,79,0,,,,,,,,,,,,,,,,,,,,,,,,,,,,,,,,,,,,,,,,,,,,,,,,,,,,,864.4098537999998,None,,,,,,,,,,,,,,,,,,,,,,,,,,,,,,,,,,,health,55,80,silent,blue,862.4078245999999,None,None,862.4078245999999,None,,,,,,,,,,,,,,,,,,,,,,,,,,,,,,78YF,001,2023_Aug_23_1656,ExactRep-v3-final,2021.2.3,59.955956354455985,
,,,,,,,,80,0,80,0,,,,,,,,,,,,,,,,,,,,,,,,,,,,,,,,,,,,,,,,,,,,,,,,,,,,,866.9121765999998,None,,,,,,,,,,,,,,,,,,,,,,,,,,,,,,,,,,,prayer,67,81,silent,blue,864.9102542999999,None,None,864.9102542999999,None,,,,,,,,,,,,,,,,,,,,,,,,,,,,,,78YF,001,2023_Aug_23_1656,ExactRep-v3-final,2021.2.3,59.955956354455985,
,,,,,,,,81,0,81,0,,,,,,,,,,,,,,,,,,,,,,,,,,,,,,,,,,,,,,,,,,,,,,,,,,,,,869.4149047999999,None,,,,,,,,,,,,,,,,,,,,,,,,,,,,,,,,,,,doctor,34,82,sing,red,867.4128831,None,None,867.4128831,None,,,,,,,,,,,,,,,,,,,,,,,,,,,,,,78YF,001,2023_Aug_23_1656,ExactRep-v3-final,2021.2.3,59.955956354455985,
,,,,,,,,82,0,82,0,,,,,,,,,,,,,,,,,,,,,,,,,,,,,,,,,,,,,,,,,,,,,,,,,,,,,871.9172002999999,None,,,,,,,,,,,,,,,,,,,,,,,,,,,,,,,,,,,chief,58,83,silent,blue,869.9159342999999,None,None,869.9159342999999,None,,,,,,,,,,,,,,,,,,,,,,,,,,,,,,78YF,001,2023_Aug_23_1656,ExactRep-v3-final,2021.2.3,59.955956354455985,
,,,,,,,,83,0,83,0,,,,,,,,,,,,,,,,,,,,,,,,,,,,,,,,,,,,,,,,,,,,,,,,,,,,,874.4197113,None,,,,,,,,,,,,,,,,,,,,,,,,,,,,,,,,,,,maiden,37,84,sing,red,872.4182237,None,None,872.4182237,None,,,,,,,,,,,,,,,,,,,,,,,,,,,,,,78YF,001,2023_Aug_23_1656,ExactRep-v3-final,2021.2.3,59.955956354455985,
,,,,,,,,84,0,84,0,,,,,,,,,,,,,,,,,,,,,,,,,,,,,,,,,,,,,,,,,,,,,,,,,,,,,876.9223391,None,,,,,,,,,,,,,,,,,,,,,,,,,,,,,,,,,,,fire,76,85,silent,blue,874.9201367999999,None,None,874.9201367999999,None,,,,,,,,,,,,,,,,,,,,,,,,,,,,,,78YF,001,2023_Aug_23_1656,ExactRep-v3-final,2021.2.3,59.955956354455985,
,,,,,,,,85,0,85,0,,,,,,,,,,,,,,,,,,,,,,,,,,,,,,,,,,,,,,,,,,,,,,,,,,,,,879.424927,None,,,,,,,,,,,,,,,,,,,,,,,,,,,,,,,,,,,form,8,86,sing,red,877.4229089999999,None,None,877.4229089999999,None,,,,,,,,,,,,,,,,,,,,,,,,,,,,,,78YF,001,2023_Aug_23_1656,ExactRep-v3-final,2021.2.3,59.955956354455985,
,,,,,,,,86,0,86,0,,,,,,,,,,,,,,,,,,,,,,,,,,,,,,,,,,,,,,,,,,,,,,,,,,,,,881.9271887999998,None,,,,,,,,,,,,,,,,,,,,,,,,,,,,,,,,,,,dress,83,87,aloud,white,879.9254088999999,None,None,879.9254088999999,None,,,,,,,,,,,,,,,,,,,,,,,,,,,,,,78YF,001,2023_Aug_23_1656,ExactRep-v3-final,2021.2.3,59.955956354455985,
,,,,,,,,87,0,87,0,,,,,,,,,,,,,,,,,,,,,,,,,,,,,,,,,,,,,,,,,,,,,,,,,,,,,884.4297999,None,,,,,,,,,,,,,,,,,,,,,,,,,,,,,,,,,,,poet,75,88,silent,blue,882.4278257999999,None,None,882.4278257999999,None,,,,,,,,,,,,,,,,,,,,,,,,,,,,,,78YF,001,2023_Aug_23_1656,ExactRep-v3-final,2021.2.3,59.955956354455985,
,,,,,,,,88,0,88,0,,,,,,,,,,,,,,,,,,,,,,,,,,,,,,,,,,,,,,,,,,,,,,,,,,,,,886.9326778,None,,,,,,,,,,,,,,,,,,,,,,,,,,,,,,,,,,,time,51,89,silent,blue,884.9307615999999,None,None,884.9307615999999,None,,,,,,,,,,,,,,,,,,,,,,,,,,,,,,78YF,001,2023_Aug_23_1656,ExactRep-v3-final,2021.2.3,59.955956354455985,
,,,,,,,,89,0,89,0,,,,,,,,,,,,,,,,,,,,,,,,,,,,,,,,,,,,,,,,,,,,,,,,,,,,,889.4348673,None,,,,,,,,,,,,,,,,,,,,,,,,,,,,,,,,,,,string,19,90,sing,red,887.433248,None,None,887.433248,None,,,,,,,,,,,,,,,,,,,,,,,,,,,,,,78YF,001,2023_Aug_23_1656,ExactRep-v3-final,2021.2.3,59.955956354455985,
,,,,,,,,90,0,90,0,,,,,,,,,,,,,,,,,,,,,,,,,,,,,,,,,,,,,,,,,,,,,,,,,,,,,891.9372274,None,,,,,,,,,,,,,,,,,,,,,,,,,,,,,,,,,,,flower,101,91,aloud,white,889.9353397999998,None,None,889.9353397999998,None,,,,,,,,,,,,,,,,,,,,,,,,,,,,,,78YF,001,2023_Aug_23_1656,ExactRep-v3-final,2021.2.3,59.955956354455985,
,,,,,,,,91,0,91,0,,,,,,,,,,,,,,,,,,,,,,,,,,,,,,,,,,,,,,,,,,,,,,,,,,,,,894.4400553,None,,,,,,,,,,,,,,,,,,,,,,,,,,,,,,,,,,,money,15,92,sing,red,892.4379182999999,None,None,892.4379182999999,None,,,,,,,,,,,,,,,,,,,,,,,,,,,,,,78YF,001,2023_Aug_23_1656,ExactRep-v3-final,2021.2.3,59.955956354455985,
,,,,,,,,92,0,92,0,,,,,,,,,,,,,,,,,,,,,,,,,,,,,,,,,,,,,,,,,,,,,,,,,,,,,896.9422643,None,,,,,,,,,,,,,,,,,,,,,,,,,,,,,,,,,,,product,108,93,aloud,white,894.9404059999999,None,None,894.9404059999999,None,,,,,,,,,,,,,,,,,,,,,,,,,,,,,,78YF,001,2023_Aug_23_1656,ExactRep-v3-final,2021.2.3,59.955956354455985,
,,,,,,,,93,0,93,0,,,,,,,,,,,,,,,,,,,,,,,,,,,,,,,,,,,,,,,,,,,,,,,,,,,,,899.4470297,None,,,,,,,,,,,,,,,,,,,,,,,,,,,,,,,,,,,butter,54,94,silent,blue,897.442949,None,None,897.442949,None,,,,,,,,,,,,,,,,,,,,,,,,,,,,,,78YF,001,2023_Aug_23_1656,ExactRep-v3-final,2021.2.3,59.955956354455985,
,,,,,,,,94,0,94,0,,,,,,,,,,,,,,,,,,,,,,,,,,,,,,,,,,,,,,,,,,,,,,,,,,,,,901.9640727999999,None,,,,,,,,,,,,,,,,,,,,,,,,,,,,,,,,,,,length,73,95,silent,blue,899.9619356999999,None,None,899.9619356999999,None,,,,,,,,,,,,,,,,,,,,,,,,,,,,,,78YF,001,2023_Aug_23_1656,ExactRep-v3-final,2021.2.3,59.955956354455985,
,,,,,,,,95,0,95,0,,,,,,,,,,,,,,,,,,,,,,,,,,,,,,,,,,,,,,,,,,,,,,,,,,,,,904.4663977999999,None,,,,,,,,,,,,,,,,,,,,,,,,,,,,,,,,,,,lad,52,96,silent,blue,902.4652948,None,None,902.4652948,None,,,,,,,,,,,,,,,,,,,,,,,,,,,,,,78YF,001,2023_Aug_23_1656,ExactRep-v3-final,2021.2.3,59.955956354455985,
,,,,,,,,96,0,96,0,,,,,,,,,,,,,,,,,,,,,,,,,,,,,,,,,,,,,,,,,,,,,,,,,,,,,906.9688538999999,None,,,,,,,,,,,,,,,,,,,,,,,,,,,,,,,,,,,ability,3,97,sing,red,904.9668729999999,None,None,904.9668729999999,None,,,,,,,,,,,,,,,,,,,,,,,,,,,,,,78YF,001,2023_Aug_23_1656,ExactRep-v3-final,2021.2.3,59.955956354455985,
,,,,,,,,97,0,97,0,,,,,,,,,,,,,,,,,,,,,,,,,,,,,,,,,,,,,,,,,,,,,,,,,,,,,909.4712927999999,None,,,,,,,,,,,,,,,,,,,,,,,,,,,,,,,,,,,moral,59,98,silent,blue,907.4696458999999,None,None,907.4696458999999,None,,,,,,,,,,,,,,,,,,,,,,,,,,,,,,78YF,001,2023_Aug_23_1656,ExactRep-v3-final,2021.2.3,59.955956354455985,
,,,,,,,,98,0,98,0,,,,,,,,,,,,,,,,,,,,,,,,,,,,,,,,,,,,,,,,,,,,,,,,,,,,,911.9739605,None,,,,,,,,,,,,,,,,,,,,,,,,,,,,,,,,,,,avenue,97,99,aloud,white,909.9719605999999,None,None,909.9719605999999,None,,,,,,,,,,,,,,,,,,,,,,,,,,,,,,78YF,001,2023_Aug_23_1656,ExactRep-v3-final,2021.2.3,59.955956354455985,
,,,,,,,,99,0,99,0,,,,,,,,,,,,,,,,,,,,,,,,,,,,,,,,,,,,,,,,,,,,,,,,,,,,,914.4765352,None,,,,,,,,,,,,,,,,,,,,,,,,,,,,,,,,,,,dawn,84,100,aloud,white,912.4747351999999,None,None,912.4747351999999,None,,,,,,,,,,,,,,,,,,,,,,,,,,,,,,78YF,001,2023_Aug_23_1656,ExactRep-v3-final,2021.2.3,59.955956354455985,
,,,,,,,,100,0,100,0,,,,,,,,,,,,,,,,,,,,,,,,,,,,,,,,,,,,,,,,,,,,,,,,,,,,,916.9788243,None,,,,,,,,,,,,,,,,,,,,,,,,,,,,,,,,,,,coin,81,101,aloud,white,914.9771103,None,None,914.9771103,None,,,,,,,,,,,,,,,,,,,,,,,,,,,,,,78YF,001,2023_Aug_23_1656,ExactRep-v3-final,2021.2.3,59.955956354455985,
,,,,,,,,101,0,101,0,,,,,,,,,,,,,,,,,,,,,,,,,,,,,,,,,,,,,,,,,,,,,,,,,,,,,919.4813534999998,None,,,,,,,,,,,,,,,,,,,,,,,,,,,,,,,,,,,woman,116,102,aloud,white,917.4797922999999,None,None,917.4797922999999,None,,,,,,,,,,,,,,,,,,,,,,,,,,,,,,78YF,001,2023_Aug_23_1656,ExactRep-v3-final,2021.2.3,59.955956354455985,
,,,,,,,,102,0,102,0,,,,,,,,,,,,,,,,,,,,,,,,,,,,,,,,,,,,,,,,,,,,,,,,,,,,,921.9840128999999,None,,,,,,,,,,,,,,,,,,,,,,,,,,,,,,,,,,,advice,74,103,silent,blue,919.9822138,None,None,919.9822138,None,,,,,,,,,,,,,,,,,,,,,,,,,,,,,,78YF,001,2023_Aug_23_1656,ExactRep-v3-final,2021.2.3,59.955956354455985,
,,,,,,,,103,0,103,0,,,,,,,,,,,,,,,,,,,,,,,,,,,,,,,,,,,,,,,,,,,,,,,,,,,,,924.4865348999999,None,,,,,,,,,,,,,,,,,,,,,,,,,,,,,,,,,,,truth,100,104,aloud,white,922.4847636,None,None,922.4847636,None,,,,,,,,,,,,,,,,,,,,,,,,,,,,,,78YF,001,2023_Aug_23_1656,ExactRep-v3-final,2021.2.3,59.955956354455985,
,,,,,,,,104,0,104,0,,,,,,,,,,,,,,,,,,,,,,,,,,,,,,,,,,,,,,,,,,,,,,,,,,,,,926.9891694,None,,,,,,,,,,,,,,,,,,,,,,,,,,,,,,,,,,,life,98,105,aloud,white,924.9872765,None,None,924.9872765,None,,,,,,,,,,,,,,,,,,,,,,,,,,,,,,78YF,001,2023_Aug_23_1656,ExactRep-v3-final,2021.2.3,59.955956354455985,
,,,,,,,,105,0,105,0,,,,,,,,,,,,,,,,,,,,,,,,,,,,,,,,,,,,,,,,,,,,,,,,,,,,,929.4913557999998,None,,,,,,,,,,,,,,,,,,,,,,,,,,,,,,,,,,,vision,102,106,aloud,white,927.4894488,None,None,927.4894488,None,,,,,,,,,,,,,,,,,,,,,,,,,,,,,,78YF,001,2023_Aug_23_1656,ExactRep-v3-final,2021.2.3,59.955956354455985,
,,,,,,,,106,0,106,0,,,,,,,,,,,,,,,,,,,,,,,,,,,,,,,,,,,,,,,,,,,,,,,,,,,,,931.9938855999999,None,,,,,,,,,,,,,,,,,,,,,,,,,,,,,,,,,,,wine,106,107,aloud,white,929.9919150999999,None,None,929.9919150999999,None,,,,,,,,,,,,,,,,,,,,,,,,,,,,,,78YF,001,2023_Aug_23_1656,ExactRep-v3-final,2021.2.3,59.955956354455985,
,,,,,,,,107,0,107,0,,,,,,,,,,,,,,,,,,,,,,,,,,,,,,,,,,,,,,,,,,,,,,,,,,,,,934.4967096,None,,,,,,,,,,,,,,,,,,,,,,,,,,,,,,,,,,,breast,16,108,sing,red,932.4947482999999,None,None,932.4947482999999,None,,,,,,,,,,,,,,,,,,,,,,,,,,,,,,78YF,001,2023_Aug_23_1656,ExactRep-v3-final,2021.2.3,59.955956354455985,
,,,,,,,,108,0,108,0,,,,,,,,,,,,,,,,,,,,,,,,,,,,,,,,,,,,,,,,,,,,,,,,,,,,,936.9990977,None,,,,,,,,,,,,,,,,,,,,,,,,,,,,,,,,,,,window,33,109,sing,red,934.9984778999999,None,None,934.9984778999999,None,,,,,,,,,,,,,,,,,,,,,,,,,,,,,,78YF,001,2023_Aug_23_1656,ExactRep-v3-final,2021.2.3,59.955956354455985,
,,,,,,,,109,0,109,0,,,,,,,,,,,,,,,,,,,,,,,,,,,,,,,,,,,,,,,,,,,,,,,,,,,,,939.5014506999999,None,,,,,,,,,,,,,,,,,,,,,,,,,,,,,,,,,,,ship,2,110,sing,red,937.4993913999999,None,None,937.4993913999999,None,,,,,,,,,,,,,,,,,,,,,,,,,,,,,,78YF,001,2023_Aug_23_1656,ExactRep-v3-final,2021.2.3,59.955956354455985,
,,,,,,,,110,0,110,0,,,,,,,,,,,,,,,,,,,,,,,,,,,,,,,,,,,,,,,,,,,,,,,,,,,,,942.0040864,None,,,,,,,,,,,,,,,,,,,,,,,,,,,,,,,,,,,army,110,111,aloud,white,940.0022448,None,None,940.0022448,None,,,,,,,,,,,,,,,,,,,,,,,,,,,,,,78YF,001,2023_Aug_23_1656,ExactRep-v3-final,2021.2.3,59.955956354455985,
,,,,,,,,111,0,111,0,,,,,,,,,,,,,,,,,,,,,,,,,,,,,,,,,,,,,,,,,,,,,,,,,,,,,944.5063963999999,None,,,,,,,,,,,,,,,,,,,,,,,,,,,,,,,,,,,letter,46,112,silent,blue,942.5044269999999,None,None,942.5044269999999,None,,,,,,,,,,,,,,,,,,,,,,,,,,,,,,78YF,001,2023_Aug_23_1656,ExactRep-v3-final,2021.2.3,59.955956354455985,
,,,,,,,,112,0,112,0,,,,,,,,,,,,,,,,,,,,,,,,,,,,,,,,,,,,,,,,,,,,,,,,,,,,,947.0090390999999,None,,,,,,,,,,,,,,,,,,,,,,,,,,,,,,,,,,,shadow,29,113,sing,red,945.0070513999999,None,None,945.0070513999999,None,,,,,,,,,,,,,,,,,,,,,,,,,,,,,,78YF,001,2023_Aug_23_1656,ExactRep-v3-final,2021.2.3,59.955956354455985,
,,,,,,,,113,0,113,0,,,,,,,,,,,,,,,,,,,,,,,,,,,,,,,,,,,,,,,,,,,,,,,,,,,,,949.5116019,None,,,,,,,,,,,,,,,,,,,,,,,,,,,,,,,,,,,palace,62,114,silent,blue,947.5094643,None,None,947.5094643,None,,,,,,,,,,,,,,,,,,,,,,,,,,,,,,78YF,001,2023_Aug_23_1656,ExactRep-v3-final,2021.2.3,59.955956354455985,
,,,,,,,,114,0,114,0,,,,,,,,,,,,,,,,,,,,,,,,,,,,,,,,,,,,,,,,,,,,,,,,,,,,,952.0138526999999,None,,,,,,,,,,,,,,,,,,,,,,,,,,,,,,,,,,,death,14,115,sing,red,950.0120924,None,None,950.0120924,None,,,,,,,,,,,,,,,,,,,,,,,,,,,,,,78YF,001,2023_Aug_23_1656,ExactRep-v3-final,2021.2.3,59.955956354455985,
,,,,,,,,115,0,115,0,,,,,,,,,,,,,,,,,,,,,,,,,,,,,,,,,,,,,,,,,,,,,,,,,,,,,954.5166784999999,None,,,,,,,,,,,,,,,,,,,,,,,,,,,,,,,,,,,insect,36,116,sing,red,952.5149945999999,None,None,952.5149945999999,None,,,,,,,,,,,,,,,,,,,,,,,,,,,,,,78YF,001,2023_Aug_23_1656,ExactRep-v3-final,2021.2.3,59.955956354455985,
,,,,,,,,116,0,116,0,,,,,,,,,,,,,,,,,,,,,,,,,,,,,,,,,,,,,,,,,,,,,,,,,,,,,957.0187306999999,None,,,,,,,,,,,,,,,,,,,,,,,,,,,,,,,,,,,beast,47,117,silent,blue,955.0173491999999,None,None,955.0173491999999,None,,,,,,,,,,,,,,,,,,,,,,,,,,,,,,78YF,001,2023_Aug_23_1656,ExactRep-v3-final,2021.2.3,59.955956354455985,
,,,,,,,,117,0,117,0,,,,,,,,,,,,,,,,,,,,,,,,,,,,,,,,,,,,,,,,,,,,,,,,,,,,,959.5215410999999,None,,,,,,,,,,,,,,,,,,,,,,,,,,,,,,,,,,,shore,113,118,aloud,white,957.5195223999999,None,None,957.5195223999999,None,,,,,,,,,,,,,,,,,,,,,,,,,,,,,,78YF,001,2023_Aug_23_1656,ExactRep-v3-final,2021.2.3,59.955956354455985,
,,,,,,,,118,0,118,0,,,,,,,,,,,,,,,,,,,,,,,,,,,,,,,,,,,,,,,,,,,,,,,,,,,,,962.0240833999999,None,,,,,,,,,,,,,,,,,,,,,,,,,,,,,,,,,,,shame,72,119,silent,blue,960.0219142999999,None,None,960.0219142999999,None,,,,,,,,,,,,,,,,,,,,,,,,,,,,,,78YF,001,2023_Aug_23_1656,ExactRep-v3-final,2021.2.3,59.955956354455985,
,,,,,,,,119,0,119,0,,,,,,,,,,,,,,,,,,,,,,,,,,,,,,,,,,,,,,,,,,,,,,,,,,,,,964.5268036999998,None,,,,,,,,,,,,,,,,,,,,,,,,,,,,,,,,,,,grief,41,120,silent,blue,962.5245229,None,None,962.5245229,None,,,,,,,,,,,,,,,,,,,,,,,,,,,,,,78YF,001,2023_Aug_23_1656,ExactRep-v3-final,2021.2.3,59.955956354455985,
,,,,,,,,,,,,,,,,,,,,,,,,,,,,,,,,,,,,,,,,,,,,,,,,,,,,,,,,,,,,,,,,,,,,,,,,,,,,,,,,,,,,,,,,,,,,,,,,,,,,,,,,,,,,,,965.0286850999998,None,space,3.74324630000001,975.0047408,None,,,,,,,,,,,,,,,,,,,,,,,,78YF,001,2023_Aug_23_1656,ExactRep-v3-final,2021.2.3,59.955956354455985,
,,,,,,,,,,,,,,,,,,,,,,,,,,,,,,,,,,,,,,,,,,,,,,,,,,,,,,,,,,,,,,,,,,,,,,,,,,,,,,,,,,,,,,,,,,,,,,,,,,,,,,,,,,,,,,,,,,,,978.7755554,None,space,30.172131499999978,988.7516209,None,,,,,,,,,,,,,,,,,,78YF,001,2023_Aug_23_1656,ExactRep-v3-final,2021.2.3,59.955956354455985,
,,,,,,,,,,,,0,0,0,0,,,,,,,,,,,,,,,,,,,,,,,,,,,,,,,,,,,,,,,,,,,,,,,,,1027.0462397,None,,,,,,,,,,,,,,,,,,,,,,,,,,,,,,,,,,,,,,,,,,,,,,,,,,,,,,,,,book,17,1,sing,old,red,1019.454827,None,n,1019.454827,None,"['n', 'return']","[4.117303300000003, 7.548998299999994]",1019.454827,None,,,78YF,001,2023_Aug_23_1656,ExactRep-v3-final,2021.2.3,59.955956354455985,
,,,,,,,,,,,,1,0,1,0,,,,,,,,,,,,,,,,,,,,,,,,,,,,,,,,,,,,,,,,,,,,,,,,,1049.5945769999998,None,,,,,,,,,,,,,,,,,,,,,,,,,,,,,,,,,,,,,,,,,,,,,,,,,,,,,,,,,board,140,2,silent,new,blue,1027.5620245,None,n,1027.5620245,None,"['n', 'backspace', 'n', 'backspace', 'n', 'return']","[11.193747199999962, 12.345741500000031, 15.601700199999868, 17.121736499999997, 20.969737099999975, 21.993726599999945]",1027.5620245,None,,,78YF,001,2023_Aug_23_1656,ExactRep-v3-final,2021.2.3,59.955956354455985,
,,,,,,,,,,,,2,0,2,0,,,,,,,,,,,,,,,,,,,,,,,,,,,,,,,,,,,,,,,,,,,,,,,,,1054.0156706999999,None,,,,,,,,,,,,,,,,,,,,,,,,,,,,,,,,,,,,,,,,,,,,,,,,,,,,,,,,,owner,45,3,silent,old,blue,1050.0952166,None,y,1050.0952166,None,"['y', 'return']","[2.6045884999998634, 3.884730300000001]",1050.0952166,None,,,78YF,001,2023_Aug_23_1656,ExactRep-v3-final,2021.2.3,59.955956354455985,
,,,,,,,,,,,,3,0,3,0,,,,,,,,,,,,,,,,,,,,,,,,,,,,,,,,,,,,,,,,,,,,,,,,,1057.9375639,None,,,,,,,,,,,,,,,,,,,,,,,,,,,,,,,,,,,,,,,,,,,,,,,,,,,,,,,,,money,15,4,sing,old,red,1054.5172329,None,y,1054.5172329,None,"['y', 'return']","[2.5346547999999984, 3.374535000000151]",1054.5172329,None,,,78YF,001,2023_Aug_23_1656,ExactRep-v3-final,2021.2.3,59.955956354455985,
,,,,,,,,,,,,4,0,4,0,,,,,,,,,,,,,,,,,,,,,,,,,,,,,,,,,,,,,,,,,,,,,,,,,1060.5554516,None,,,,,,,,,,,,,,,,,,,,,,,,,,,,,,,,,,,,,,,,,,,,,,,,,,,,,,,,,machine,173,5,sing,new,red,1058.4369572,None,n,1058.4369572,None,"['n', 'return']","[1.5348888999999417, 2.0788133000000926]",1058.4369572,None,,,78YF,001,2023_Aug_23_1656,ExactRep-v3-final,2021.2.3,59.955956354455985,
,,,,,,,,,,,,5,0,5,0,,,,,,,,,,,,,,,,,,,,,,,,,,,,,,,,,,,,,,,,,,,,,,,,,1064.1429552,None,,,,,,,,,,,,,,,,,,,,,,,,,,,,,,,,,,,,,,,,,,,,,,,,,,,,,,,,,corn,4,6,sing,old,red,1061.0582525,None,n,1061.0582525,None,"['n', 'return']","[2.385543299999881, 3.0415206000000126]",1061.0582525,None,,,78YF,001,2023_Aug_23_1656,ExactRep-v3-final,2021.2.3,59.955956354455985,
,,,,,,,,,,,,6,0,6,0,,,,,,,,,,,,,,,,,,,,,,,,,,,,,,,,,,,,,,,,,,,,,,,,,1069.7984743,None,,,,,,,,,,,,,,,,,,,,,,,,,,,,,,,,,,,,,,,,,,,,,,,,,,,,,,,,,coin,81,7,aloud,old,white,1064.6477998,None,y,1064.6477998,None,"['y', 'return']","[4.035943400000178, 5.116025700000137]",1064.6477998,None,,,78YF,001,2023_Aug_23_1656,ExactRep-v3-final,2021.2.3,59.955956354455985,
,,,,,,,,,,,,7,0,7,0,,,,,,,,,,,,,,,,,,,,,,,,,,,,,,,,,,,,,,,,,,,,,,,,,1072.2864009999998,None,,,,,,,,,,,,,,,,,,,,,,,,,,,,,,,,,,,,,,,,,,,,,,,,,,,,,,,,,anger,235,8,sing,new,red,1070.2987894,None,n,1070.2987894,None,"['n', 'return']","[1.3851746000000276, 1.9369834999999966]",1070.2987894,None,,,78YF,001,2023_Aug_23_1656,ExactRep-v3-final,2021.2.3,59.955956354455985,
,,,,,,,,,,,,8,0,8,0,,,,,,,,,,,,,,,,,,,,,,,,,,,,,,,,,,,,,,,,,,,,,,,,,1074.9365352,None,,,,,,,,,,,,,,,,,,,,,,,,,,,,,,,,,,,,,,,,,,,,,,,,,,,,,,,,,air,202,9,aloud,new,white,1072.8027502999998,None,n,1072.8027502999998,None,"['n', 'return']","[1.1930023999998411, 2.08904849999999]",1072.8027502999998,None,,,78YF,001,2023_Aug_23_1656,ExactRep-v3-final,2021.2.3,59.955956354455985,
,,,,,,,,,,,,9,0,9,0,,,,,,,,,,,,,,,,,,,,,,,,,,,,,,,,,,,,,,,,,,,,,,,,,1078.3084434,None,,,,,,,,,,,,,,,,,,,,,,,,,,,,,,,,,,,,,,,,,,,,,,,,,,,,,,,,,teacher,210,10,aloud,new,white,1075.4372196,None,n,1075.4372196,None,"['n', 'return']","[1.9825155999999424, 2.8225148999999874]",1075.4372196,None,,,78YF,001,2023_Aug_23_1656,ExactRep-v3-final,2021.2.3,59.955956354455985,
,,,,,,,,,,,,10,0,10,0,,,,,,,,,,,,,,,,,,,,,,,,,,,,,,,,,,,,,,,,,,,,,,,,,1081.0592827,None,,,,,,,,,,,,,,,,,,,,,,,,,,,,,,,,,,,,,,,,,,,,,,,,,,,,,,,,,palace,62,11,silent,old,blue,1078.8255347,None,n,1078.8255347,None,"['n', 'return']","[1.3864220000000387, 2.19454769999993]",1078.8255347,None,,,78YF,001,2023_Aug_23_1656,ExactRep-v3-final,2021.2.3,59.955956354455985,
,,,,,,,,,,,,11,0,11,0,,,,,,,,,,,,,,,,,,,,,,,,,,,,,,,,,,,,,,,,,,,,,,,,,1083.0115332999999,None,,,,,,,,,,,,,,,,,,,,,,,,,,,,,,,,,,,,,,,,,,,,,,,,,,,,,,,,,science,162,12,aloud,new,white,1081.5601093999999,None,n,1081.5601093999999,None,"['n', 'return']","[1.0196295999999165, 1.4116827999998804]",1081.5601093999999,None,,,78YF,001,2023_Aug_23_1656,ExactRep-v3-final,2021.2.3,59.955956354455985,
,,,,,,,,,,,,12,0,12,0,,,,,,,,,,,,,,,,,,,,,,,,,,,,,,,,,,,,,,,,,,,,,,,,,1085.3806588,None,,,,,,,,,,,,,,,,,,,,,,,,,,,,,,,,,,,,,,,,,,,,,,,,,,,,,,,,,storm,203,13,sing,new,red,1083.5120286,None,n,1083.5120286,None,"['n', 'return']","[1.355706199999986, 1.8280566000000817]",1083.5120286,None,,,78YF,001,2023_Aug_23_1656,ExactRep-v3-final,2021.2.3,59.955956354455985,
,,,,,,,,,,,,13,0,13,0,,,,,,,,,,,,,,,,,,,,,,,,,,,,,,,,,,,,,,,,,,,,,,,,,1087.5683448,None,,,,,,,,,,,,,,,,,,,,,,,,,,,,,,,,,,,,,,,,,,,,,,,,,,,,,,,,,answer,118,14,aloud,old,white,1085.8850528,None,y,1085.8850528,None,"['y', 'return']","[1.2066875999998956, 1.6467834999998558]",1085.8850528,None,,,78YF,001,2023_Aug_23_1656,ExactRep-v3-final,2021.2.3,59.955956354455985,
,,,,,,,,,,,,14,0,14,0,,,,,,,,,,,,,,,,,,,,,,,,,,,,,,,,,,,,,,,,,,,,,,,,,1089.8369969,None,,,,,,,,,,,,,,,,,,,,,,,,,,,,,,,,,,,,,,,,,,,,,,,,,,,,,,,,,grief,41,15,silent,old,blue,1088.0833697,None,n,1088.0833697,None,"['n', 'return']","[1.2564980000001924, 1.7124705000001086]",1088.0833697,None,,,78YF,001,2023_Aug_23_1656,ExactRep-v3-final,2021.2.3,59.955956354455985,
,,,,,,,,,,,,15,0,15,0,,,,,,,,,,,,,,,,,,,,,,,,,,,,,,,,,,,,,,,,,,,,,,,,,1091.9222407,None,,,,,,,,,,,,,,,,,,,,,,,,,,,,,,,,,,,,,,,,,,,,,,,,,,,,,,,,,bottle,151,16,silent,new,blue,1090.3543497,None,n,1090.3543497,None,"['n', 'return']","[1.1374190999999882, 1.5294152000001304]",1090.3543497,None,,,78YF,001,2023_Aug_23_1656,ExactRep-v3-final,2021.2.3,59.955956354455985,
,,,,,,,,,,,,16,0,16,0,,,,,,,,,,,,,,,,,,,,,,,,,,,,,,,,,,,,,,,,,,,,,,,,,1094.0725883999999,None,,,,,,,,,,,,,,,,,,,,,,,,,,,,,,,,,,,,,,,,,,,,,,,,,,,,,,,,,library,206,17,aloud,new,white,1092.4398131,None,n,1092.4398131,None,"['n', 'return']","[1.1239775999999893, 1.5879892999998901]",1092.4398131,None,,,78YF,001,2023_Aug_23_1656,ExactRep-v3-final,2021.2.3,59.955956354455985,
,,,,,,,,,,,,17,0,17,0,,,,,,,,,,,,,,,,,,,,,,,,,,,,,,,,,,,,,,,,,,,,,,,,,1096.0910063,None,,,,,,,,,,,,,,,,,,,,,,,,,,,,,,,,,,,,,,,,,,,,,,,,,,,,,,,,,kiss,229,18,sing,new,red,1094.5742347999999,None,n,1094.5742347999999,None,"['n', 'return']","[0.9895692000000054, 1.4774978000000374]",1094.5742347999999,None,,,78YF,001,2023_Aug_23_1656,ExactRep-v3-final,2021.2.3,59.955956354455985,
,,,,,,,,,,,,18,0,18,0,,,,,,,,,,,,,,,,,,,,,,,,,,,,,,,,,,,,,,,,,,,,,,,,,1098.2281557,None,,,,,,,,,,,,,,,,,,,,,,,,,,,,,,,,,,,,,,,,,,,,,,,,,,,,,,,,,tool,170,19,aloud,new,white,1096.5916972999999,None,n,1096.5916972999999,None,"['n', 'return']","[1.124063200000137, 1.5960841000000983]",1096.5916972999999,None,,,78YF,001,2023_Aug_23_1656,ExactRep-v3-final,2021.2.3,59.955956354455985,
,,,,,,,,,,,,19,0,19,0,,,,,,,,,,,,,,,,,,,,,,,,,,,,,,,,,,,,,,,,,,,,,,,,,1100.1619813999998,None,,,,,,,,,,,,,,,,,,,,,,,,,,,,,,,,,,,,,,,,,,,,,,,,,,,,,,,,,rod,169,20,sing,new,red,1098.7438645,None,n,1098.7438645,None,"['n', 'return']","[0.9721093000000565, 1.3719200000000455]",1098.7438645,None,,,78YF,001,2023_Aug_23_1656,ExactRep-v3-final,2021.2.3,59.955956354455985,
,,,,,,,,,,,,20,0,20,0,,,,,,,,,,,,,,,,,,,,,,,,,,,,,,,,,,,,,,,,,,,,,,,,,1104.0321649999998,None,,,,,,,,,,,,,,,,,,,,,,,,,,,,,,,,,,,,,,,,,,,,,,,,,,,,,,,,,form,8,21,sing,old,red,1100.6624933,None,n,1100.6624933,None,"['n', 'return']","[2.9333484000001135, 3.3335242000000562]",1100.6624933,None,,,78YF,001,2023_Aug_23_1656,ExactRep-v3-final,2021.2.3,59.955956354455985,
,,,,,,,,,,,,21,0,21,0,,,,,,,,,,,,,,,,,,,,,,,,,,,,,,,,,,,,,,,,,,,,,,,,,1106.3679309,None,,,,,,,,,,,,,,,,,,,,,,,,,,,,,,,,,,,,,,,,,,,,,,,,,,,,,,,,,cottage,95,22,aloud,old,white,1104.5339778,None,n,1104.5339778,None,"['n', 'return']","[1.2138829000000442, 1.797920799999929]",1104.5339778,None,,,78YF,001,2023_Aug_23_1656,ExactRep-v3-final,2021.2.3,59.955956354455985,
,,,,,,,,,,,,22,0,22,0,,,,,,,,,,,,,,,,,,,,,,,,,,,,,,,,,,,,,,,,,,,,,,,,,1108.453565,None,,,,,,,,,,,,,,,,,,,,,,,,,,,,,,,,,,,,,,,,,,,,,,,,,,,,,,,,,horse,128,23,silent,new,blue,1106.8713071,None,n,1106.8713071,None,"['n', 'return']","[1.0847332999999253, 1.5404820999999629]",1106.8713071,None,,,78YF,001,2023_Aug_23_1656,ExactRep-v3-final,2021.2.3,59.955956354455985,
,,,,,,,,,,,,23,0,23,0,,,,,,,,,,,,,,,,,,,,,,,,,,,,,,,,,,,,,,,,,,,,,,,,,1110.7919709,None,,,,,,,,,,,,,,,,,,,,,,,,,,,,,,,,,,,,,,,,,,,,,,,,,,,,,,,,,plant,119,24,aloud,old,white,1108.9544035,None,n,1108.9544035,None,"['n', 'return']","[1.305429600000025, 1.793619499999977]",1108.9544035,None,,,78YF,001,2023_Aug_23_1656,ExactRep-v3-final,2021.2.3,59.955956354455985,
,,,,,,,,,,,,24,0,24,0,,,,,,,,,,,,,,,,,,,,,,,,,,,,,,,,,,,,,,,,,,,,,,,,,1114.326122,None,,,,,,,,,,,,,,,,,,,,,,,,,,,,,,,,,,,,,,,,,,,,,,,,,,,,,,,,,camp,10,25,sing,old,red,1111.3090614999999,None,n,1111.3090614999999,None,"['n', 'return']","[2.5506814000000304, 2.982711800000061]",1111.3090614999999,None,,,78YF,001,2023_Aug_23_1656,ExactRep-v3-final,2021.2.3,59.955956354455985,
,,,,,,,,,,,,25,0,25,0,,,,,,,,,,,,,,,,,,,,,,,,,,,,,,,,,,,,,,,,,,,,,,,,,1116.5281813,None,,,,,,,,,,,,,,,,,,,,,,,,,,,,,,,,,,,,,,,,,,,,,,,,,,,,,,,,,world,232,26,aloud,new,white,1114.8281907,None,n,1114.8281907,None,"['n', 'return']","[1.183548200000132, 1.6555349000000206]",1114.8281907,None,,,78YF,001,2023_Aug_23_1656,ExactRep-v3-final,2021.2.3,59.955956354455985,
,,,,,,,,,,,,26,0,26,0,,,,,,,,,,,,,,,,,,,,,,,,,,,,,,,,,,,,,,,,,,,,,,,,,1118.6470579,None,,,,,,,,,,,,,,,,,,,,,,,,,,,,,,,,,,,,,,,,,,,,,,,,,,,,,,,,,market,227,27,sing,new,red,1117.0289565,None,n,1117.0289565,None,"['n', 'return']","[1.1668743999998696, 1.582804299999907]",1117.0289565,None,,,78YF,001,2023_Aug_23_1656,ExactRep-v3-final,2021.2.3,59.955956354455985,
,,,,,,,,,,,,27,0,27,0,,,,,,,,,,,,,,,,,,,,,,,,,,,,,,,,,,,,,,,,,,,,,,,,,1120.9992588999999,None,,,,,,,,,,,,,,,,,,,,,,,,,,,,,,,,,,,,,,,,,,,,,,,,,,,,,,,,,mind,111,28,aloud,old,white,1119.1478746,None,n,1119.1478746,None,"['n', 'return']","[1.3198228999999628, 1.8078761000001577]",1119.1478746,None,,,78YF,001,2023_Aug_23_1656,ExactRep-v3-final,2021.2.3,59.955956354455985,
,,,,,,,,,,,,28,0,28,0,,,,,,,,,,,,,,,,,,,,,,,,,,,,,,,,,,,,,,,,,,,,,,,,,1124.636288,None,,,,,,,,,,,,,,,,,,,,,,,,,,,,,,,,,,,,,,,,,,,,,,,,,,,,,,,,,method,38,29,sing,old,red,1121.5010792,None,y,1121.5010792,None,"['y', 'return']","[1.7026874999999109, 3.1028718999998546]",1121.5010792,None,,,78YF,001,2023_Aug_23_1656,ExactRep-v3-final,2021.2.3,59.955956354455985,
,,,,,,,,,,,,29,0,29,0,,,,,,,,,,,,,,,,,,,,,,,,,,,,,,,,,,,,,,,,,,,,,,,,,1127.0386211,None,,,,,,,,,,,,,,,,,,,,,,,,,,,,,,,,,,,,,,,,,,,,,,,,,,,,,,,,,student,121,30,silent,new,blue,1125.138548,None,n,1125.138548,None,"['n', 'return']","[1.4572332999998707, 1.8572798000000148]",1125.138548,None,,,78YF,001,2023_Aug_23_1656,ExactRep-v3-final,2021.2.3,59.955956354455985,
,,,,,,,,,,,,30,0,30,0,,,,,,,,,,,,,,,,,,,,,,,,,,,,,,,,,,,,,,,,,,,,,,,,,1128.9405227,None,,,,,,,,,,,,,,,,,,,,,,,,,,,,,,,,,,,,,,,,,,,,,,,,,,,,,,,,,village,189,31,sing,new,red,1127.5458704,None,n,1127.5458704,None,"['n', 'return']","[0.9539253000000372, 1.3618763000001763]",1127.5458704,None,,,78YF,001,2023_Aug_23_1656,ExactRep-v3-final,2021.2.3,59.955956354455985,
,,,,,,,,,,,,31,0,31,0,,,,,,,,,,,,,,,,,,,,,,,,,,,,,,,,,,,,,,,,,,,,,,,,,1130.7761794,None,,,,,,,,,,,,,,,,,,,,,,,,,,,,,,,,,,,,,,,,,,,,,,,,,,,,,,,,,effort,165,32,sing,new,red,1129.4409606,None,n,1129.4409606,None,"['n', 'return']","[0.8508299000000079, 1.2987895000001117]",1129.4409606,None,,,78YF,001,2023_Aug_23_1656,ExactRep-v3-final,2021.2.3,59.955956354455985,
,,,,,,,,,,,,32,0,32,0,,,,,,,,,,,,,,,,,,,,,,,,,,,,,,,,,,,,,,,,,,,,,,,,,1132.5620452,None,,,,,,,,,,,,,,,,,,,,,,,,,,,,,,,,,,,,,,,,,,,,,,,,,,,,,,,,,month,66,33,silent,old,blue,1131.2761326,None,n,1131.2761326,None,"['n', 'return']","[0.8315966000000117, 1.2476565000001756]",1131.2761326,None,,,78YF,001,2023_Aug_23_1656,ExactRep-v3-final,2021.2.3,59.955956354455985,
,,,,,,,,,,,,33,0,33,0,,,,,,,,,,,,,,,,,,,,,,,,,,,,,,,,,,,,,,,,,,,,,,,,,1134.4644243999999,None,,,,,,,,,,,,,,,,,,,,,,,,,,,,,,,,,,,,,,,,,,,,,,,,,,,,,,,,,soil,152,34,silent,new,blue,1133.0613675,None,n,1133.0613675,None,"['n', 'return']","[0.9744379999999637, 1.3584255000000667]",1133.0613675,None,,,78YF,001,2023_Aug_23_1656,ExactRep-v3-final,2021.2.3,59.955956354455985,
,,,,,,,,,,,,34,0,34,0,,,,,,,,,,,,,,,,,,,,,,,,,,,,,,,,,,,,,,,,,,,,,,,,,1136.3654072,None,,,,,,,,,,,,,,,,,,,,,,,,,,,,,,,,,,,,,,,,,,,,,,,,,,,,,,,,,valley,171,35,sing,new,red,1134.9801287,None,n,1134.9801287,None,"['n', 'return']","[0.8876295000000027, 1.343732300000056]",1134.9801287,None,,,78YF,001,2023_Aug_23_1656,ExactRep-v3-final,2021.2.3,59.955956354455985,
,,,,,,,,,,,,35,0,35,0,,,,,,,,,,,,,,,,,,,,,,,,,,,,,,,,,,,,,,,,,,,,,,,,,1138.5680989999998,None,,,,,,,,,,,,,,,,,,,,,,,,,,,,,,,,,,,,,,,,,,,,,,,,,,,,,,,,,body,220,36,aloud,new,white,1136.8661507,None,n,1136.8661507,None,"['n', 'return']","[1.1936129999999139, 1.6575940999998693]",1136.8661507,None,,,78YF,001,2023_Aug_23_1656,ExactRep-v3-final,2021.2.3,59.955956354455985,
,,,,,,,,,,,,36,0,36,0,,,,,,,,,,,,,,,,,,,,,,,,,,,,,,,,,,,,,,,,,,,,,,,,,1141.423368,None,,,,,,,,,,,,,,,,,,,,,,,,,,,,,,,,,,,,,,,,,,,,,,,,,,,,,,,,,king,21,37,sing,old,red,1139.0675300999999,None,y,1139.0675300999999,None,"['y', 'return']","[1.8403897999999117, 2.3122593000000506]",1139.0675300999999,None,,,78YF,001,2023_Aug_23_1656,ExactRep-v3-final,2021.2.3,59.955956354455985,
,,,,,,,,,,,,37,0,37,0,,,,,,,,,,,,,,,,,,,,,,,,,,,,,,,,,,,,,,,,,,,,,,,,,1144.445182,None,,,,,,,,,,,,,,,,,,,,,,,,,,,,,,,,,,,,,,,,,,,,,,,,,,,,,,,,,wheat,139,38,silent,new,blue,1141.9387239,None,n,1141.9387239,None,"['n', 'return']","[2.02503999999999, 2.457020099999909]",1141.9387239,None,,,78YF,001,2023_Aug_23_1656,ExactRep-v3-final,2021.2.3,59.955956354455985,
,,,,,,,,,,,,38,0,38,0,,,,,,,,,,,,,,,,,,,,,,,,,,,,,,,,,,,,,,,,,,,,,,,,,1146.4966024999999,None,,,,,,,,,,,,,,,,,,,,,,,,,,,,,,,,,,,,,,,,,,,,,,,,,,,,,,,,,sky,88,39,aloud,old,white,1144.9598477,None,y,1144.9598477,None,"['y', 'return']","[1.059974400000101, 1.483999199999971]",1144.9598477,None,,,78YF,001,2023_Aug_23_1656,ExactRep-v3-final,2021.2.3,59.955956354455985,
,,,,,,,,,,,,39,0,39,0,,,,,,,,,,,,,,,,,,,,,,,,,,,,,,,,,,,,,,,,,,,,,,,,,1148.5768831999999,None,,,,,,,,,,,,,,,,,,,,,,,,,,,,,,,,,,,,,,,,,,,,,,,,,,,,,,,,,deed,87,40,aloud,old,white,1147.0085278,None,y,1147.0085278,None,"['y', 'return']","[0.9952189000000544, 1.5313747000000149]",1147.0085278,None,,,78YF,001,2023_Aug_23_1656,ExactRep-v3-final,2021.2.3,59.955956354455985,
,,,,,,,,,,,,40,0,40,0,,,,,,,,,,,,,,,,,,,,,,,,,,,,,,,,,,,,,,,,,,,,,,,,,1150.7628599,None,,,,,,,,,,,,,,,,,,,,,,,,,,,,,,,,,,,,,,,,,,,,,,,,,,,,,,,,,poet,75,41,silent,old,blue,1149.0774052,None,n,1149.0774052,None,"['n', 'return']","[1.158411200000046, 1.6464224999999715]",1149.0774052,None,,,78YF,001,2023_Aug_23_1656,ExactRep-v3-final,2021.2.3,59.955956354455985,
,,,,,,,,,,,,41,0,41,0,,,,,,,,,,,,,,,,,,,,,,,,,,,,,,,,,,,,,,,,,,,,,,,,,1153.1333399,None,,,,,,,,,,,,,,,,,,,,,,,,,,,,,,,,,,,,,,,,,,,,,,,,,,,,,,,,,flag,180,42,aloud,new,white,1151.2631919,None,n,1151.2631919,None,"['n', 'return']","[1.4285485999998855, 1.8285693999998784]",1151.2631919,None,,,78YF,001,2023_Aug_23_1656,ExactRep-v3-final,2021.2.3,59.955956354455985,
,,,,,,,,,,,,42,0,42,0,,,,,,,,,,,,,,,,,,,,,,,,,,,,,,,,,,,,,,,,,,,,,,,,,1154.9167579,None,,,,,,,,,,,,,,,,,,,,,,,,,,,,,,,,,,,,,,,,,,,,,,,,,,,,,,,,,shock,68,43,silent,old,blue,1153.6487078,None,n,1153.6487078,None,"['n', 'return']","[0.7950875000001361, 1.2351998999999978]",1153.6487078,None,,,78YF,001,2023_Aug_23_1656,ExactRep-v3-final,2021.2.3,59.955956354455985,
,,,,,,,,,,,,43,0,43,0,,,,,,,,,,,,,,,,,,,,,,,,,,,,,,,,,,,,,,,,,,,,,,,,,1156.7518189,None,,,,,,,,,,,,,,,,,,,,,,,,,,,,,,,,,,,,,,,,,,,,,,,,,,,,,,,,,hope,219,44,sing,new,red,1155.4171321,None,n,1155.4171321,None,"['n', 'return']","[0.7627138000000286, 1.2987051000000065]",1155.4171321,None,,,78YF,001,2023_Aug_23_1656,ExactRep-v3-final,2021.2.3,59.955956354455985,
,,,,,,,,,,,,44,0,44,0,,,,,,,,,,,,,,,,,,,,,,,,,,,,,,,,,,,,,,,,,,,,,,,,,1160.6271934,None,,,,,,,,,,,,,,,,,,,,,,,,,,,,,,,,,,,,,,,,,,,,,,,,,,,,,,,,,silence,93,45,aloud,old,white,1157.252463,None,n,1157.252463,None,"['n', 'return']","[2.9112883999998758, 3.327393099999881]",1157.252463,None,,,78YF,001,2023_Aug_23_1656,ExactRep-v3-final,2021.2.3,59.955956354455985,
,,,,,,,,,,,,45,0,45,0,,,,,,,,,,,,,,,,,,,,,,,,,,,,,,,,,,,,,,,,,,,,,,,,,1162.9409269999999,None,,,,,,,,,,,,,,,,,,,,,,,,,,,,,,,,,,,,,,,,,,,,,,,,,,,,,,,,,ship,2,46,sing,old,red,1161.1417411,None,y,1161.1417411,None,"['y', 'return']","[1.246007800000143, 1.7580261000000519]",1161.1417411,None,,,78YF,001,2023_Aug_23_1656,ExactRep-v3-final,2021.2.3,59.955956354455985,
,,,,,,,,,,,,46,0,46,0,,,,,,,,,,,,,,,,,,,,,,,,,,,,,,,,,,,,,,,,,,,,,,,,,1166.0139301,None,,,,,,,,,,,,,,,,,,,,,,,,,,,,,,,,,,,,,,,,,,,,,,,,,,,,,,,,,murder,22,47,sing,old,red,1163.4426139,None,y,1163.4426139,None,"['y', 'return']","[1.0811800000001313, 2.5213119000000006]",1163.4426139,None,,,78YF,001,2023_Aug_23_1656,ExactRep-v3-final,2021.2.3,59.955956354455985,
,,,,,,,,,,,,47,0,47,0,,,,,,,,,,,,,,,,,,,,,,,,,,,,,,,,,,,,,,,,,,,,,,,,,1168.1798585,None,,,,,,,,,,,,,,,,,,,,,,,,,,,,,,,,,,,,,,,,,,,,,,,,,,,,,,,,,meadow,103,48,aloud,old,white,1166.5294497,None,y,1166.5294497,None,"['y', 'return']","[1.042341800000031, 1.6025210999998762]",1166.5294497,None,,,78YF,001,2023_Aug_23_1656,ExactRep-v3-final,2021.2.3,59.955956354455985,
,,,,,,,,,,,,48,0,48,0,,,,,,,,,,,,,,,,,,,,,,,,,,,,,,,,,,,,,,,,,,,,,,,,,1170.1648450999999,None,,,,,,,,,,,,,,,,,,,,,,,,,,,,,,,,,,,,,,,,,,,,,,,,,,,,,,,,,lake,56,49,silent,old,blue,1168.6850465,None,n,1168.6850465,None,"['n', 'return']","[1.006667100000186, 1.4467561999999816]",1168.6850465,None,,,78YF,001,2023_Aug_23_1656,ExactRep-v3-final,2021.2.3,59.955956354455985,
,,,,,,,,,,,,49,0,49,0,,,,,,,,,,,,,,,,,,,,,,,,,,,,,,,,,,,,,,,,,,,,,,,,,1172.1182061,None,,,,,,,,,,,,,,,,,,,,,,,,,,,,,,,,,,,,,,,,,,,,,,,,,,,,,,,,,iron,115,50,aloud,old,white,1170.6754332,None,n,1170.6754332,None,"['n', 'return']","[0.9603462000000036, 1.4084706999999526]",1170.6754332,None,,,78YF,001,2023_Aug_23_1656,ExactRep-v3-final,2021.2.3,59.955956354455985,
,,,,,,,,,,,,50,0,50,0,,,,,,,,,,,,,,,,,,,,,,,,,,,,,,,,,,,,,,,,,,,,,,,,,1174.1229845999999,None,,,,,,,,,,,,,,,,,,,,,,,,,,,,,,,,,,,,,,,,,,,,,,,,,,,,,,,,,engine,132,51,silent,new,blue,1172.6182061,None,n,1172.6182061,None,"['n', 'return']","[1.0496725000000424, 1.465550900000153]",1172.6182061,None,,,78YF,001,2023_Aug_23_1656,ExactRep-v3-final,2021.2.3,59.955956354455985,
,,,,,,,,,,,,51,0,51,0,,,,,,,,,,,,,,,,,,,,,,,,,,,,,,,,,,,,,,,,,,,,,,,,,1176.3253381,None,,,,,,,,,,,,,,,,,,,,,,,,,,,,,,,,,,,,,,,,,,,,,,,,,,,,,,,,,product,108,52,aloud,old,white,1174.6365153,None,y,1174.6365153,None,"['y', 'return']","[1.1273298000000977, 1.6475520000001325]",1174.6365153,None,,,78YF,001,2023_Aug_23_1656,ExactRep-v3-final,2021.2.3,59.955956354455985,
,,,,,,,,,,,,52,0,52,0,,,,,,,,,,,,,,,,,,,,,,,,,,,,,,,,,,,,,,,,,,,,,,,,,1178.2067342,None,,,,,,,,,,,,,,,,,,,,,,,,,,,,,,,,,,,,,,,,,,,,,,,,,,,,,,,,,wine,106,53,aloud,old,white,1176.8384706,None,y,1176.8384706,None,"['y', 'return']","[0.9255121999999574, 1.333272500000021]",1176.8384706,None,,,78YF,001,2023_Aug_23_1656,ExactRep-v3-final,2021.2.3,59.955956354455985,
,,,,,,,,,,,,53,0,53,0,,,,,,,,,,,,,,,,,,,,,,,,,,,,,,,,,,,,,,,,,,,,,,,,,1180.1104466,None,,,,,,,,,,,,,,,,,,,,,,,,,,,,,,,,,,,,,,,,,,,,,,,,,,,,,,,,,gift,129,54,silent,new,blue,1178.7073249999999,None,n,1178.7073249999999,None,"['n', 'return']","[0.9444957999999133, 1.3683998999999858]",1178.7073249999999,None,,,78YF,001,2023_Aug_23_1656,ExactRep-v3-final,2021.2.3,59.955956354455985,
,,,,,,,,,,,,54,0,54,0,,,,,,,,,,,,,,,,,,,,,,,,,,,,,,,,,,,,,,,,,,,,,,,,,1182.711548,None,,,,,,,,,,,,,,,,,,,,,,,,,,,,,,,,,,,,,,,,,,,,,,,,,,,,,,,,,bar,85,55,aloud,old,white,1180.6253959,None,n,1180.6253959,None,"['n', 'return']","[0.9546307999999044, 2.0424350999999206]",1180.6253959,None,,,78YF,001,2023_Aug_23_1656,ExactRep-v3-final,2021.2.3,59.955956354455985,
,,,,,,,,,,,,55,0,55,0,,,,,,,,,,,,,,,,,,,,,,,,,,,,,,,,,,,,,,,,,,,,,,,,,1184.782317,None,,,,,,,,,,,,,,,,,,,,,,,,,,,,,,,,,,,,,,,,,,,,,,,,,,,,,,,,,ticket,43,56,silent,old,blue,1183.212531,None,y,1183.212531,None,"['y', 'return']","[1.1592900000000554, 1.5275295999999798]",1183.212531,None,,,78YF,001,2023_Aug_23_1656,ExactRep-v3-final,2021.2.3,59.955956354455985,
,,,,,,,,,,,,56,0,56,0,,,,,,,,,,,,,,,,,,,,,,,,,,,,,,,,,,,,,,,,,,,,,,,,,1186.6670428,None,,,,,,,,,,,,,,,,,,,,,,,,,,,,,,,,,,,,,,,,,,,,,,,,,,,,,,,,,string,19,57,sing,old,red,1185.2972173,None,y,1185.2972173,None,"['y', 'return']","[0.9224990000000162, 1.3305998000000727]",1185.2972173,None,,,78YF,001,2023_Aug_23_1656,ExactRep-v3-final,2021.2.3,59.955956354455985,
,,,,,,,,,,,,57,0,57,0,,,,,,,,,,,,,,,,,,,,,,,,,,,,,,,,,,,,,,,,,,,,,,,,,1188.5543,None,,,,,,,,,,,,,,,,,,,,,,,,,,,,,,,,,,,,,,,,,,,,,,,,,,,,,,,,,shore,113,58,aloud,old,white,1187.1840929999998,None,y,1187.1840929999998,None,"['y', 'return']","[0.8756443999998282, 1.3237093000000186]",1187.1840929999998,None,,,78YF,001,2023_Aug_23_1656,ExactRep-v3-final,2021.2.3,59.955956354455985,
,,,,,,,,,,,,58,0,58,0,,,,,,,,,,,,,,,,,,,,,,,,,,,,,,,,,,,,,,,,,,,,,,,,,1190.7558989,None,,,,,,,,,,,,,,,,,,,,,,,,,,,,,,,,,,,,,,,,,,,,,,,,,,,,,,,,,time,51,59,silent,old,blue,1189.0673098,None,n,1189.0673098,None,"['n', 'return']","[1.1444184999998015, 1.6404055999998945]",1189.0673098,None,,,78YF,001,2023_Aug_23_1656,ExactRep-v3-final,2021.2.3,59.955956354455985,
,,,,,,,,,,,,59,0,59,0,,,,,,,,,,,,,,,,,,,,,,,,,,,,,,,,,,,,,,,,,,,,,,,,,1192.6902033,None,,,,,,,,,,,,,,,,,,,,,,,,,,,,,,,,,,,,,,,,,,,,,,,,,,,,,,,,,flood,124,60,silent,new,blue,1191.2697779,None,n,1191.2697779,None,"['n', 'return']","[0.998212599999988, 1.3820894000000408]",1191.2697779,None,,,78YF,001,2023_Aug_23_1656,ExactRep-v3-final,2021.2.3,59.955956354455985,
,,,,,,,,,,,,60,0,60,0,,,,,,,,,,,,,,,,,,,,,,,,,,,,,,,,,,,,,,,,,,,,,,,,,1194.5396735,None,,,,,,,,,,,,,,,,,,,,,,,,,,,,,,,,,,,,,,,,,,,,,,,,,,,,,,,,,volume,122,61,silent,new,blue,1193.2073054,None,n,1193.2073054,None,"['n', 'return']","[0.876482200000055, 1.2924671000000671]",1193.2073054,None,,,78YF,001,2023_Aug_23_1656,ExactRep-v3-final,2021.2.3,59.955956354455985,
,,,,,,,,,,,,61,0,61,0,,,,,,,,,,,,,,,,,,,,,,,,,,,,,,,,,,,,,,,,,,,,,,,,,1196.2969962,None,,,,,,,,,,,,,,,,,,,,,,,,,,,,,,,,,,,,,,,,,,,,,,,,,,,,,,,,,forest,120,62,silent,new,blue,1195.0429484,None,n,1195.0429484,None,"['n', 'return']","[0.8248716000000513, 1.2007915000001503]",1195.0429484,None,,,78YF,001,2023_Aug_23_1656,ExactRep-v3-final,2021.2.3,59.955956354455985,
,,,,,,,,,,,,62,0,62,0,,,,,,,,,,,,,,,,,,,,,,,,,,,,,,,,,,,,,,,,,,,,,,,,,1198.4602527,None,,,,,,,,,,,,,,,,,,,,,,,,,,,,,,,,,,,,,,,,,,,,,,,,,,,,,,,,,quality,71,63,silent,old,blue,1196.8084597,None,n,1196.8084597,None,"['n', 'return']","[1.211277999999993, 1.6193783999999596]",1196.8084597,None,,,78YF,001,2023_Aug_23_1656,ExactRep-v3-final,2021.2.3,59.955956354455985,
,,,,,,,,,,,,63,0,63,0,,,,,,,,,,,,,,,,,,,,,,,,,,,,,,,,,,,,,,,,,,,,,,,,,1200.3012569999999,None,,,,,,,,,,,,,,,,,,,,,,,,,,,,,,,,,,,,,,,,,,,,,,,,,,,,,,,,,custom,78,64,silent,old,blue,1198.9614788,None,n,1198.9614788,None,"['n', 'return']","[0.8743481999999858, 1.290264800000159]",1198.9614788,None,,,78YF,001,2023_Aug_23_1656,ExactRep-v3-final,2021.2.3,59.955956354455985,
,,,,,,,,,,,,64,0,64,0,,,,,,,,,,,,,,,,,,,,,,,,,,,,,,,,,,,,,,,,,,,,,,,,,1202.7143549999998,None,,,,,,,,,,,,,,,,,,,,,,,,,,,,,,,,,,,,,,,,,,,,,,,,,,,,,,,,,nail,126,65,silent,new,blue,1200.8125627,None,n,1200.8125627,None,"['n', 'return']","[1.4951778999998169, 1.8552702999998019]",1200.8125627,None,,,78YF,001,2023_Aug_23_1656,ExactRep-v3-final,2021.2.3,59.955956354455985,
,,,,,,,,,,,,65,0,65,0,,,,,,,,,,,,,,,,,,,,,,,,,,,,,,,,,,,,,,,,,,,,,,,,,1204.6172105,None,,,,,,,,,,,,,,,,,,,,,,,,,,,,,,,,,,,,,,,,,,,,,,,,,,,,,,,,,clock,181,66,sing,new,red,1203.2192997,None,n,1203.2192997,None,"['n', 'return']","[1.0004550999999537, 1.3606970000000729]",1203.2192997,None,,,78YF,001,2023_Aug_23_1656,ExactRep-v3-final,2021.2.3,59.955956354455985,
,,,,,,,,,,,,66,0,66,0,,,,,,,,,,,,,,,,,,,,,,,,,,,,,,,,,,,,,,,,,,,,,,,,,1206.5405214,None,,,,,,,,,,,,,,,,,,,,,,,,,,,,,,,,,,,,,,,,,,,,,,,,,,,,,,,,,city,112,67,aloud,old,white,1205.1171717,None,n,1205.1171717,None,"['n', 'return']","[1.030574999999999, 1.3745433999999932]",1205.1171717,None,,,78YF,001,2023_Aug_23_1656,ExactRep-v3-final,2021.2.3,59.955956354455985,
,,,,,,,,,,,,67,0,67,0,,,,,,,,,,,,,,,,,,,,,,,,,,,,,,,,,,,,,,,,,,,,,,,,,1208.4204879,None,,,,,,,,,,,,,,,,,,,,,,,,,,,,,,,,,,,,,,,,,,,,,,,,,,,,,,,,,thought,146,68,silent,new,blue,1207.0518984999999,None,n,1207.0518984999999,None,"['n', 'return']","[0.8640731000000414, 1.3358367999999246]",1207.0518984999999,None,,,78YF,001,2023_Aug_23_1656,ExactRep-v3-final,2021.2.3,59.955956354455985,
,,,,,,,,,,,,68,0,68,0,,,,,,,,,,,,,,,,,,,,,,,,,,,,,,,,,,,,,,,,,,,,,,,,,1210.0052487,None,,,,,,,,,,,,,,,,,,,,,,,,,,,,,,,,,,,,,,,,,,,,,,,,,,,,,,,,,doll,96,69,aloud,old,white,1208.9206116999999,None,n,1208.9206116999999,None,"['n', 'return']","[0.6991491999999653, 1.0511761000000206]",1208.9206116999999,None,,,78YF,001,2023_Aug_23_1656,ExactRep-v3-final,2021.2.3,59.955956354455985,
,,,,,,,,,,,,69,0,69,0,,,,,,,,,,,,,,,,,,,,,,,,,,,,,,,,,,,,,,,,,,,,,,,,,1211.7233469999999,None,,,,,,,,,,,,,,,,,,,,,,,,,,,,,,,,,,,,,,,,,,,,,,,,,,,,,,,,,fact,127,70,silent,new,blue,1210.5054178,None,n,1210.5054178,None,"['n', 'return']","[0.7702525999998215, 1.1863302999997813]",1210.5054178,None,,,78YF,001,2023_Aug_23_1656,ExactRep-v3-final,2021.2.3,59.955956354455985,
,,,,,,,,,,,,70,0,70,0,,,,,,,,,,,,,,,,,,,,,,,,,,,,,,,,,,,,,,,,,,,,,,,,,1215.1277347999999,None,,,,,,,,,,,,,,,,,,,,,,,,,,,,,,,,,,,,,,,,,,,,,,,,,,,,,,,,,devil,138,71,silent,new,blue,1212.2236871999999,None,n,1212.2236871999999,None,"['n', 'return']","[2.540053299999954, 2.8601017000000866]",1212.2236871999999,None,,,78YF,001,2023_Aug_23_1656,ExactRep-v3-final,2021.2.3,59.955956354455985,
,,,,,,,,,,,,71,0,71,0,,,,,,,,,,,,,,,,,,,,,,,,,,,,,,,,,,,,,,,,,,,,,,,,,1217.112271,None,,,,,,,,,,,,,,,,,,,,,,,,,,,,,,,,,,,,,,,,,,,,,,,,,,,,,,,,,coffee,50,72,silent,old,blue,1215.6291621,None,n,1215.6291621,None,"['n', 'return']","[1.1026804999999058, 1.4465677999999116]",1215.6291621,None,,,78YF,001,2023_Aug_23_1656,ExactRep-v3-final,2021.2.3,59.955956354455985,
,,,,,,,,,,,,72,0,72,0,,,,,,,,,,,,,,,,,,,,,,,,,,,,,,,,,,,,,,,,,,,,,,,,,1219.3660862,None,,,,,,,,,,,,,,,,,,,,,,,,,,,,,,,,,,,,,,,,,,,,,,,,,,,,,,,,,lord,60,73,silent,old,blue,1217.6122650999998,None,y,1217.6122650999998,None,"['y', 'return']","[1.3516836999999668, 1.711492200000066]",1217.6122650999998,None,,,78YF,001,2023_Aug_23_1656,ExactRep-v3-final,2021.2.3,59.955956354455985,
,,,,,,,,,,,,73,0,73,0,,,,,,,,,,,,,,,,,,,,,,,,,,,,,,,,,,,,,,,,,,,,,,,,,1221.3996671999998,None,,,,,,,,,,,,,,,,,,,,,,,,,,,,,,,,,,,,,,,,,,,,,,,,,,,,,,,,,metal,131,74,silent,new,blue,1219.8824303,None,n,1219.8824303,None,"['n', 'return']","[1.1613259999999173, 1.4813144999998258]",1219.8824303,None,,,78YF,001,2023_Aug_23_1656,ExactRep-v3-final,2021.2.3,59.955956354455985,
,,,,,,,,,,,,74,0,74,0,,,,,,,,,,,,,,,,,,,,,,,,,,,,,,,,,,,,,,,,,,,,,,,,,1223.2181365,None,,,,,,,,,,,,,,,,,,,,,,,,,,,,,,,,,,,,,,,,,,,,,,,,,,,,,,,,,sea,199,75,sing,new,red,1221.9002727,None,n,1221.9002727,None,"['n', 'return']","[0.9516561000000365, 1.2795160000000578]",1221.9002727,None,,,78YF,001,2023_Aug_23_1656,ExactRep-v3-final,2021.2.3,59.955956354455985,
,,,,,,,,,,,,75,0,75,0,,,,,,,,,,,,,,,,,,,,,,,,,,,,,,,,,,,,,,,,,,,,,,,,,1225.0892938,None,,,,,,,,,,,,,,,,,,,,,,,,,,,,,,,,,,,,,,,,,,,,,,,,,,,,,,,,,dress,83,76,aloud,old,white,1223.7245246999998,None,n,1223.7245246999998,None,"['n', 'return']","[0.8551841999999397, 1.319613200000049]",1223.7245246999998,None,,,78YF,001,2023_Aug_23_1656,ExactRep-v3-final,2021.2.3,59.955956354455985,
,,,,,,,,,,,,76,0,76,0,,,,,,,,,,,,,,,,,,,,,,,,,,,,,,,,,,,,,,,,,,,,,,,,,1227.358561,None,,,,,,,,,,,,,,,,,,,,,,,,,,,,,,,,,,,,,,,,,,,,,,,,,,,,,,,,,power,117,77,aloud,old,white,1225.6038807,None,n,1225.6038807,None,"['n', 'return']","[0.8639219000001503, 1.7118914000000132]",1225.6038807,None,,,78YF,001,2023_Aug_23_1656,ExactRep-v3-final,2021.2.3,59.955956354455985,
,,,,,,,,,,,,77,0,77,0,,,,,,,,,,,,,,,,,,,,,,,,,,,,,,,,,,,,,,,,,,,,,,,,,1229.5242983,None,,,,,,,,,,,,,,,,,,,,,,,,,,,,,,,,,,,,,,,,,,,,,,,,,,,,,,,,,glory,136,78,silent,new,blue,1227.872823,None,n,1227.872823,None,"['n', 'return']","[1.1708502999999837, 1.6188924000000497]",1227.872823,None,,,78YF,001,2023_Aug_23_1656,ExactRep-v3-final,2021.2.3,59.955956354455985,
,,,,,,,,,,,,78,0,78,0,,,,,,,,,,,,,,,,,,,,,,,,,,,,,,,,,,,,,,,,,,,,,,,,,1231.5098603,None,,,,,,,,,,,,,,,,,,,,,,,,,,,,,,,,,,,,,,,,,,,,,,,,,,,,,,,,,mother,94,79,aloud,old,white,1230.0272303,None,y,1230.0272303,None,"['y', 'return']","[1.0564930999998978, 1.440488399999822]",1230.0272303,None,,,78YF,001,2023_Aug_23_1656,ExactRep-v3-final,2021.2.3,59.955956354455985,
,,,,,,,,,,,,79,0,79,0,,,,,,,,,,,,,,,,,,,,,,,,,,,,,,,,,,,,,,,,,,,,,,,,,1233.6117335,None,,,,,,,,,,,,,,,,,,,,,,,,,,,,,,,,,,,,,,,,,,,,,,,,,,,,,,,,,beast,47,80,silent,old,blue,1232.0103712999999,None,y,1232.0103712999999,None,"['y', 'return']","[1.1533850999999231, 1.5694194999998672]",1232.0103712999999,None,,,78YF,001,2023_Aug_23_1656,ExactRep-v3-final,2021.2.3,59.955956354455985,
,,,,,,,,,,,,80,0,80,0,,,,,,,,,,,,,,,,,,,,,,,,,,,,,,,,,,,,,,,,,,,,,,,,,1235.613832,None,,,,,,,,,,,,,,,,,,,,,,,,,,,,,,,,,,,,,,,,,,,,,,,,,,,,,,,,,leader,149,81,silent,new,blue,1234.1125897,None,n,1234.1125897,None,"['n', 'return']","[1.1071377999999186, 1.4671589999998105]",1234.1125897,None,,,78YF,001,2023_Aug_23_1656,ExactRep-v3-final,2021.2.3,59.955956354455985,
,,,,,,,,,,,,81,0,81,0,,,,,,,,,,,,,,,,,,,,,,,,,,,,,,,,,,,,,,,,,,,,,,,,,1237.3824087,None,,,,,,,,,,,,,,,,,,,,,,,,,,,,,,,,,,,,,,,,,,,,,,,,,,,,,,,,,maiden,37,82,sing,old,red,1236.1177073,None,y,1236.1177073,None,"['y', 'return']","[0.8860464000001684, 1.2220047000000704]",1236.1177073,None,,,78YF,001,2023_Aug_23_1656,ExactRep-v3-final,2021.2.3,59.955956354455985,
,,,,,,,,,,,,82,0,82,0,,,,,,,,,,,,,,,,,,,,,,,,,,,,,,,,,,,,,,,,,,,,,,,,,1239.301462,None,,,,,,,,,,,,,,,,,,,,,,,,,,,,,,,,,,,,,,,,,,,,,,,,,,,,,,,,,car,148,83,silent,new,blue,1237.8905469,None,n,1237.8905469,None,"['n', 'return']","[1.049204599999939, 1.3691791000001103]",1237.8905469,None,,,78YF,001,2023_Aug_23_1656,ExactRep-v3-final,2021.2.3,59.955956354455985,
,,,,,,,,,,,,83,0,83,0,,,,,,,,,,,,,,,,,,,,,,,,,,,,,,,,,,,,,,,,,,,,,,,,,1241.3866017999999,None,,,,,,,,,,,,,,,,,,,,,,,,,,,,,,,,,,,,,,,,,,,,,,,,,,,,,,,,,door,39,84,silent,old,blue,1239.8014021,None,n,1239.8014021,None,"['n', 'return']","[1.226399800000081, 1.5383821000000353]",1239.8014021,None,,,78YF,001,2023_Aug_23_1656,ExactRep-v3-final,2021.2.3,59.955956354455985,
,,,,,,,,,,,,84,0,84,0,,,,,,,,,,,,,,,,,,,,,,,,,,,,,,,,,,,,,,,,,,,,,,,,,1243.3739857,None,,,,,,,,,,,,,,,,,,,,,,,,,,,,,,,,,,,,,,,,,,,,,,,,,,,,,,,,,opinion,209,85,sing,new,red,1241.8877875,None,n,1241.8877875,None,"['n', 'return']","[1.1080667000001085, 1.4359153000000333]",1241.8877875,None,,,78YF,001,2023_Aug_23_1656,ExactRep-v3-final,2021.2.3,59.955956354455985,
,,,,,,,,,,,,85,0,85,0,,,,,,,,,,,,,,,,,,,,,,,,,,,,,,,,,,,,,,,,,,,,,,,,,1246.7084584,None,,,,,,,,,,,,,,,,,,,,,,,,,,,,,,,,,,,,,,,,,,,,,,,,,,,,,,,,,grass,150,86,silent,new,blue,1243.888817,None,n,1243.888817,None,"['n', 'return']","[0.8670118000000002, 2.7869075999999495]",1243.888817,None,,,78YF,001,2023_Aug_23_1656,ExactRep-v3-final,2021.2.3,59.955956354455985,
,,,,,,,,,,,,86,0,86,0,,,,,,,,,,,,,,,,,,,,,,,,,,,,,,,,,,,,,,,,,,,,,,,,,1248.3933545999998,None,,,,,,,,,,,,,,,,,,,,,,,,,,,,,,,,,,,,,,,,,,,,,,,,,,,,,,,,,virtue,204,87,aloud,new,white,1247.2144978,None,n,1247.2144978,None,"['n', 'return']","[0.757272999999941, 1.1331734999998844]",1247.2144978,None,,,78YF,001,2023_Aug_23_1656,ExactRep-v3-final,2021.2.3,59.955956354455985,
,,,,,,,,,,,,87,0,87,0,,,,,,,,,,,,,,,,,,,,,,,,,,,,,,,,,,,,,,,,,,,,,,,,,1250.4121796,None,,,,,,,,,,,,,,,,,,,,,,,,,,,,,,,,,,,,,,,,,,,,,,,,,,,,,,,,,fate,184,88,aloud,new,white,1248.8954101,None,n,1248.8954101,None,"['n', 'return']","[1.124520099999927, 1.4765471999999136]",1248.8954101,None,,,78YF,001,2023_Aug_23_1656,ExactRep-v3-final,2021.2.3,59.955956354455985,
,,,,,,,,,,,,88,0,88,0,,,,,,,,,,,,,,,,,,,,,,,,,,,,,,,,,,,,,,,,,,,,,,,,,1252.2984769,None,,,,,,,,,,,,,,,,,,,,,,,,,,,,,,,,,,,,,,,,,,,,,,,,,,,,,,,,,lip,187,89,sing,new,red,1250.9136793999999,None,n,1250.9136793999999,None,"['n', 'return']","[0.8980388999998468, 1.3380206999997881]",1250.9136793999999,None,,,78YF,001,2023_Aug_23_1656,ExactRep-v3-final,2021.2.3,59.955956354455985,
,,,,,,,,,,,,89,0,89,0,,,,,,,,,,,,,,,,,,,,,,,,,,,,,,,,,,,,,,,,,,,,,,,,,1254.0991296,None,,,,,,,,,,,,,,,,,,,,,,,,,,,,,,,,,,,,,,,,,,,,,,,,,,,,,,,,,animal,221,90,sing,new,red,1252.7975887999999,None,n,1252.7975887999999,None,"['n', 'return']","[0.7581506000001355, 1.2703330000001642]",1252.7975887999999,None,,,78YF,001,2023_Aug_23_1656,ExactRep-v3-final,2021.2.3,59.955956354455985,
,,,,,,,,,,,,90,0,90,0,,,,,,,,,,,,,,,,,,,,,,,,,,,,,,,,,,,,,,,,,,,,,,,,,1258.0194869,None,,,,,,,,,,,,,,,,,,,,,,,,,,,,,,,,,,,,,,,,,,,,,,,,,,,,,,,,,style,91,91,aloud,old,white,1254.5994934,None,y,1254.5994934,None,"['n', 'backspace', 'y', 'return']","[0.9323124000000007, 2.4762256999999863, 2.89229760000012, 3.372211200000038]",1254.5994934,None,,,78YF,001,2023_Aug_23_1656,ExactRep-v3-final,2021.2.3,59.955956354455985,
,,,,,,,,,,,,91,0,91,0,,,,,,,,,,,,,,,,,,,,,,,,,,,,,,,,,,,,,,,,,,,,,,,,,1259.9886322,None,,,,,,,,,,,,,,,,,,,,,,,,,,,,,,,,,,,,,,,,,,,,,,,,,,,,,,,,,street,35,92,sing,old,red,1258.5201964,None,n,1258.5201964,None,"['n', 'return']","[1.07556610000006, 1.435503400000016]",1258.5201964,None,,,78YF,001,2023_Aug_23_1656,ExactRep-v3-final,2021.2.3,59.955956354455985,
,,,,,,,,,,,,92,0,92,0,,,,,,,,,,,,,,,,,,,,,,,,,,,,,,,,,,,,,,,,,,,,,,,,,1261.7398507999999,None,,,,,,,,,,,,,,,,,,,,,,,,,,,,,,,,,,,,,,,,,,,,,,,,,,,,,,,,,pipe,70,93,silent,old,blue,1260.4908123,None,n,1260.4908123,None,"['n', 'return']","[0.7611724999999296, 1.20092180000006]",1260.4908123,None,,,78YF,001,2023_Aug_23_1656,ExactRep-v3-final,2021.2.3,59.955956354455985,
,,,,,,,,,,,,93,0,93,0,,,,,,,,,,,,,,,,,,,,,,,,,,,,,,,,,,,,,,,,,,,,,,,,,1263.6085428,None,,,,,,,,,,,,,,,,,,,,,,,,,,,,,,,,,,,,,,,,,,,,,,,,,,,,,,,,,hide,172,94,aloud,new,white,1262.2410654999999,None,n,1262.2410654999999,None,"['n', 'return']","[0.8426111000001129, 1.322642900000119]",1262.2410654999999,None,,,78YF,001,2023_Aug_23_1656,ExactRep-v3-final,2021.2.3,59.955956354455985,
,,,,,,,,,,,,94,0,94,0,,,,,,,,,,,,,,,,,,,,,,,,,,,,,,,,,,,,,,,,,,,,,,,,,1265.24359,None,,,,,,,,,,,,,,,,,,,,,,,,,,,,,,,,,,,,,,,,,,,,,,,,,,,,,,,,,event,215,95,sing,new,red,1264.1090421,None,n,1264.1090421,None,"['n', 'return']","[0.7907865999998194, 1.0871305999999095]",1264.1090421,None,,,78YF,001,2023_Aug_23_1656,ExactRep-v3-final,2021.2.3,59.955956354455985,
,,,,,,,,,,,,95,0,95,0,,,,,,,,,,,,,,,,,,,,,,,,,,,,,,,,,,,,,,,,,,,,,,,,,1267.5649317999998,None,,,,,,,,,,,,,,,,,,,,,,,,,,,,,,,,,,,,,,,,,,,,,,,,,,,,,,,,,chance,147,96,silent,new,blue,1265.7463593999998,None,n,1265.7463593999998,None,"['n', 'return']","[1.3614198999998735, 1.7693552999999156]",1265.7463593999998,None,,,78YF,001,2023_Aug_23_1656,ExactRep-v3-final,2021.2.3,59.955956354455985,
,,,,,,,,,,,,96,0,96,0,,,,,,,,,,,,,,,,,,,,,,,,,,,,,,,,,,,,,,,,,,,,,,,,,1269.6312100999999,None,,,,,,,,,,,,,,,,,,,,,,,,,,,,,,,,,,,,,,,,,,,,,,,,,,,,,,,,,letter,46,97,silent,old,blue,1268.0795474,None,n,1268.0795474,None,"['n', 'return']","[1.076174900000069, 1.5162749000000986]",1268.0795474,None,,,78YF,001,2023_Aug_23_1656,ExactRep-v3-final,2021.2.3,59.955956354455985,
,,,,,,,,,,,,97,0,97,0,,,,,,,,,,,,,,,,,,,,,,,,,,,,,,,,,,,,,,,,,,,,,,,,,1271.5165703999999,None,,,,,,,,,,,,,,,,,,,,,,,,,,,,,,,,,,,,,,,,,,,,,,,,,,,,,,,,,plain,163,98,sing,new,red,1270.1320789,None,n,1270.1320789,None,"['n', 'return']","[0.9196016000000782, 1.351679200000035]",1270.1320789,None,,,78YF,001,2023_Aug_23_1656,ExactRep-v3-final,2021.2.3,59.955956354455985,
,,,,,,,,,,,,98,0,98,0,,,,,,,,,,,,,,,,,,,,,,,,,,,,,,,,,,,,,,,,,,,,,,,,,1273.4682973,None,,,,,,,,,,,,,,,,,,,,,,,,,,,,,,,,,,,,,,,,,,,,,,,,,,,,,,,,,dollar,223,99,sing,new,red,1272.0187631,None,n,1272.0187631,None,"['n', 'return']","[1.0730594999999994, 1.417019400000072]",1272.0187631,None,,,78YF,001,2023_Aug_23_1656,ExactRep-v3-final,2021.2.3,59.955956354455985,
,,,,,,,,,,,,99,0,99,0,,,,,,,,,,,,,,,,,,,,,,,,,,,,,,,,,,,,,,,,,,,,,,,,,1275.5203616,None,,,,,,,,,,,,,,,,,,,,,,,,,,,,,,,,,,,,,,,,,,,,,,,,,,,,,,,,,pride,48,100,silent,old,blue,1273.9694935,None,n,1273.9694935,None,"['n', 'return']","[1.1781965999998647, 1.506159599999819]",1273.9694935,None,,,78YF,001,2023_Aug_23_1656,ExactRep-v3-final,2021.2.3,59.955956354455985,
,,,,,,,,,,,,100,0,100,0,,,,,,,,,,,,,,,,,,,,,,,,,,,,,,,,,,,,,,,,,,,,,,,,,1277.256888,None,,,,,,,,,,,,,,,,,,,,,,,,,,,,,,,,,,,,,,,,,,,,,,,,,,,,,,,,,honour,183,101,sing,new,red,1276.0252174,None,n,1276.0252174,None,"['n', 'return']","[0.8344741999999314, 1.1946325000001252]",1276.0252174,None,,,78YF,001,2023_Aug_23_1656,ExactRep-v3-final,2021.2.3,59.955956354455985,
,,,,,,,,,,,,101,0,101,0,,,,,,,,,,,,,,,,,,,,,,,,,,,,,,,,,,,,,,,,,,,,,,,,,1279.1973974,None,,,,,,,,,,,,,,,,,,,,,,,,,,,,,,,,,,,,,,,,,,,,,,,,,,,,,,,,,freedom,30,102,sing,old,red,1277.7727052,None,y,1277.7727052,None,"['y', 'return']","[1.0631191999998464, 1.383020600000009]",1277.7727052,None,,,78YF,001,2023_Aug_23_1656,ExactRep-v3-final,2021.2.3,59.955956354455985,
,,,,,,,,,,,,102,0,102,0,,,,,,,,,,,,,,,,,,,,,,,,,,,,,,,,,,,,,,,,,,,,,,,,,1281.6930568999999,None,,,,,,,,,,,,,,,,,,,,,,,,,,,,,,,,,,,,,,,,,,,,,,,,,,,,,,,,,girl,179,103,sing,new,red,1279.7081941,None,n,1279.7081941,None,"['n', 'return']","[1.1355913999998393, 1.9515762999999424]",1279.7081941,None,,,78YF,001,2023_Aug_23_1656,ExactRep-v3-final,2021.2.3,59.955956354455985,
,,,,,,,,,,,,103,0,103,0,,,,,,,,,,,,,,,,,,,,,,,,,,,,,,,,,,,,,,,,,,,,,,,,,1283.3801165,None,,,,,,,,,,,,,,,,,,,,,,,,,,,,,,,,,,,,,,,,,,,,,,,,,,,,,,,,,colony,145,104,silent,new,blue,1282.1938914999998,None,n,1282.1938914999998,None,"['n', 'return']","[0.8260289000002103, 1.14578500000016]",1282.1938914999998,None,,,78YF,001,2023_Aug_23_1656,ExactRep-v3-final,2021.2.3,59.955956354455985,
,,,,,,,,,,,,104,0,104,0,,,,,,,,,,,,,,,,,,,,,,,,,,,,,,,,,,,,,,,,,,,,,,,,,1285.4971495,None,,,,,,,,,,,,,,,,,,,,,,,,,,,,,,,,,,,,,,,,,,,,,,,,,,,,,,,,,arm,156,105,silent,new,blue,1283.895334,None,n,1283.895334,None,"['n', 'return']","[1.1963791000000583, 1.5643795000000864]",1283.895334,None,,,78YF,001,2023_Aug_23_1656,ExactRep-v3-final,2021.2.3,59.955956354455985,
,,,,,,,,,,,,105,0,105,0,,,,,,,,,,,,,,,,,,,,,,,,,,,,,,,,,,,,,,,,,,,,,,,,,1287.2654854,None,,,,,,,,,,,,,,,,,,,,,,,,,,,,,,,,,,,,,,,,,,,,,,,,,,,,,,,,,apple,195,106,sing,new,red,1285.9972828999998,None,n,1285.9972828999998,None,"['n', 'return']","[0.8384204999999838, 1.230418200000031]",1285.9972828999998,None,,,78YF,001,2023_Aug_23_1656,ExactRep-v3-final,2021.2.3,59.955956354455985,
,,,,,,,,,,,,106,0,106,0,,,,,,,,,,,,,,,,,,,,,,,,,,,,,,,,,,,,,,,,,,,,,,,,,1289.0671304999998,None,,,,,,,,,,,,,,,,,,,,,,,,,,,,,,,,,,,,,,,,,,,,,,,,,,,,,,,,,heaven,5,107,sing,old,red,1287.7689814999999,None,y,1287.7689814999999,None,"['y', 'return']","[0.8907047000000148, 1.2509946000000127]",1287.7689814999999,None,,,78YF,001,2023_Aug_23_1656,ExactRep-v3-final,2021.2.3,59.955956354455985,
,,,,,,,,,,,,107,0,107,0,,,,,,,,,,,,,,,,,,,,,,,,,,,,,,,,,,,,,,,,,,,,,,,,,1291.2397294,None,,,,,,,,,,,,,,,,,,,,,,,,,,,,,,,,,,,,,,,,,,,,,,,,,,,,,,,,,cash,0,108,sing,old,red,1289.5676471,None,n,1289.5676471,None,"['n', 'return']","[1.3320123000000876, 1.6360529000000952]",1289.5676471,None,,,78YF,001,2023_Aug_23_1656,ExactRep-v3-final,2021.2.3,59.955956354455985,
,,,,,,,,,,,,108,0,108,0,,,,,,,,,,,,,,,,,,,,,,,,,,,,,,,,,,,,,,,,,,,,,,,,,1293.1903665,None,,,,,,,,,,,,,,,,,,,,,,,,,,,,,,,,,,,,,,,,,,,,,,,,,,,,,,,,,pole,178,109,aloud,new,white,1291.7536438,None,n,1291.7536438,None,"['n', 'return']","[0.9780336000001171, 1.386150300000054]",1291.7536438,None,,,78YF,001,2023_Aug_23_1656,ExactRep-v3-final,2021.2.3,59.955956354455985,
,,,,,,,,,,,,109,0,109,0,,,,,,,,,,,,,,,,,,,,,,,,,,,,,,,,,,,,,,,,,,,,,,,,,1294.9236064,None,,,,,,,,,,,,,,,,,,,,,,,,,,,,,,,,,,,,,,,,,,,,,,,,,,,,,,,,,fur,236,110,aloud,new,white,1293.7049802,None,n,1293.7049802,None,"['n', 'return']","[0.770836700000018, 1.178739600000199]",1293.7049802,None,,,78YF,001,2023_Aug_23_1656,ExactRep-v3-final,2021.2.3,59.955956354455985,
,,,,,,,,,,,,110,0,110,0,,,,,,,,,,,,,,,,,,,,,,,,,,,,,,,,,,,,,,,,,,,,,,,,,1296.6413799,None,,,,,,,,,,,,,,,,,,,,,,,,,,,,,,,,,,,,,,,,,,,,,,,,,,,,,,,,,salary,123,111,silent,new,blue,1295.4237579,None,n,1295.4237579,None,"['n', 'return']","[0.7959451000001536, 1.1799600000001647]",1295.4237579,None,,,78YF,001,2023_Aug_23_1656,ExactRep-v3-final,2021.2.3,59.955956354455985,
,,,,,,,,,,,,111,0,111,0,,,,,,,,,,,,,,,,,,,,,,,,,,,,,,,,,,,,,,,,,,,,,,,,,1298.5101002,None,,,,,,,,,,,,,,,,,,,,,,,,,,,,,,,,,,,,,,,,,,,,,,,,,,,,,,,,,college,238,112,aloud,new,white,1297.1437895,None,n,1297.1437895,None,"['n', 'return']","[0.9961501000000226, 1.323924100000113]",1297.1437895,None,,,78YF,001,2023_Aug_23_1656,ExactRep-v3-final,2021.2.3,59.955956354455985,
,,,,,,,,,,,,112,0,112,0,,,,,,,,,,,,,,,,,,,,,,,,,,,,,,,,,,,,,,,,,,,,,,,,,1300.4453545,None,,,,,,,,,,,,,,,,,,,,,,,,,,,,,,,,,,,,,,,,,,,,,,,,,,,,,,,,,duty,212,113,aloud,new,white,1299.0115352999999,None,n,1299.0115352999999,None,"['n', 'return']","[1.0563273000000208, 1.3922595999999885]",1299.0115352999999,None,,,78YF,001,2023_Aug_23_1656,ExactRep-v3-final,2021.2.3,59.955956354455985,
,,,,,,,,,,,,113,0,113,0,,,,,,,,,,,,,,,,,,,,,,,,,,,,,,,,,,,,,,,,,,,,,,,,,1302.3640688,None,,,,,,,,,,,,,,,,,,,,,,,,,,,,,,,,,,,,,,,,,,,,,,,,,,,,,,,,,lad,52,114,silent,old,blue,1300.9501016,None,y,1300.9501016,None,"['y', 'return']","[0.9495862999999645, 1.3736148000000412]",1300.9501016,None,,,78YF,001,2023_Aug_23_1656,ExactRep-v3-final,2021.2.3,59.955956354455985,
,,,,,,,,,,,,114,0,114,0,,,,,,,,,,,,,,,,,,,,,,,,,,,,,,,,,,,,,,,,,,,,,,,,,1304.4491176,None,,,,,,,,,,,,,,,,,,,,,,,,,,,,,,,,,,,,,,,,,,,,,,,,,,,,,,,,,excuse,155,115,silent,new,blue,1302.8691122999999,None,n,1302.8691122999999,None,"['n', 'return']","[0.9666122999999516, 1.5426195000000007]",1302.8691122999999,None,,,78YF,001,2023_Aug_23_1656,ExactRep-v3-final,2021.2.3,59.955956354455985,
,,,,,,,,,,,,115,0,115,0,,,,,,,,,,,,,,,,,,,,,,,,,,,,,,,,,,,,,,,,,,,,,,,,,1308.3699252,None,,,,,,,,,,,,,,,,,,,,,,,,,,,,,,,,,,,,,,,,,,,,,,,,,,,,,,,,,fire,76,116,silent,old,blue,1304.9505660999998,None,n,1304.9505660999998,None,"['n', 'return']","[2.5811526999998478, 3.3731430999998793]",1304.9505660999998,None,,,78YF,001,2023_Aug_23_1656,ExactRep-v3-final,2021.2.3,59.955956354455985,
,,,,,,,,,,,,116,0,116,0,,,,,,,,,,,,,,,,,,,,,,,,,,,,,,,,,,,,,,,,,,,,,,,,,1310.4437841,None,,,,,,,,,,,,,,,,,,,,,,,,,,,,,,,,,,,,,,,,,,,,,,,,,,,,,,,,,woods,80,117,aloud,old,white,1308.8805938,None,n,1308.8805938,None,"['n', 'return']","[1.0190894999998363, 1.5153585000000476]",1308.8805938,None,,,78YF,001,2023_Aug_23_1656,ExactRep-v3-final,2021.2.3,59.955956354455985,
,,,,,,,,,,,,117,0,117,0,,,,,,,,,,,,,,,,,,,,,,,,,,,,,,,,,,,,,,,,,,,,,,,,,1312.3274893,None,,,,,,,,,,,,,,,,,,,,,,,,,,,,,,,,,,,,,,,,,,,,,,,,,,,,,,,,,green,77,118,silent,old,blue,1310.9559795,None,n,1310.9559795,None,"['n', 'return']","[0.8318096999998943, 1.3276897999999164]",1310.9559795,None,,,78YF,001,2023_Aug_23_1656,ExactRep-v3-final,2021.2.3,59.955956354455985,
,,,,,,,,,,,,118,0,118,0,,,,,,,,,,,,,,,,,,,,,,,,,,,,,,,,,,,,,,,,,,,,,,,,,1314.3132256,None,,,,,,,,,,,,,,,,,,,,,,,,,,,,,,,,,,,,,,,,,,,,,,,,,,,,,,,,,cost,114,119,aloud,old,white,1312.8426779,None,n,1312.8426779,None,"['n', 'return']","[1.0249939000000268, 1.4331088999999793]",1312.8426779,None,,,78YF,001,2023_Aug_23_1656,ExactRep-v3-final,2021.2.3,59.955956354455985,
,,,,,,,,,,,,119,0,119,0,,,,,,,,,,,,,,,,,,,,,,,,,,,,,,,,,,,,,,,,,,,,,,,,,1316.0606328,None,,,,,,,,,,,,,,,,,,,,,,,,,,,,,,,,,,,,,,,,,,,,,,,,,,,,,,,,,cabin,133,120,silent,new,blue,1314.8277994999999,None,n,1314.8277994999999,None,"['n', 'return']","[0.8638988999998674, 1.2000066999999035]",1314.8277994999999,None,,,78YF,001,2023_Aug_23_1656,ExactRep-v3-final,2021.2.3,59.955956354455985,
,,,,,,,,,,,,120,0,120,0,,,,,,,,,,,,,,,,,,,,,,,,,,,,,,,,,,,,,,,,,,,,,,,,,1317.8291358,None,,,,,,,,,,,,,,,,,,,,,,,,,,,,,,,,,,,,,,,,,,,,,,,,,,,,,,,,,advice,74,121,silent,old,blue,1316.5624734,None,n,1316.5624734,None,"['n', 'return']","[0.8812035999999352, 1.233469100000093]",1316.5624734,None,,,78YF,001,2023_Aug_23_1656,ExactRep-v3-final,2021.2.3,59.955956354455985,
,,,,,,,,,,,,121,0,121,0,,,,,,,,,,,,,,,,,,,,,,,,,,,,,,,,,,,,,,,,,,,,,,,,,1319.4974605999998,None,,,,,,,,,,,,,,,,,,,,,,,,,,,,,,,,,,,,,,,,,,,,,,,,,,,,,,,,,butter,54,122,silent,old,blue,1318.3313143999999,None,n,1318.3313143999999,None,"['n', 'return']","[0.7683501999999862, 1.128366700000015]",1318.3313143999999,None,,,78YF,001,2023_Aug_23_1656,ExactRep-v3-final,2021.2.3,59.955956354455985,
,,,,,,,,,,,,122,0,122,0,,,,,,,,,,,,,,,,,,,,,,,,,,,,,,,,,,,,,,,,,,,,,,,,,1321.1323814999998,None,,,,,,,,,,,,,,,,,,,,,,,,,,,,,,,,,,,,,,,,,,,,,,,,,,,,,,,,,love,159,123,silent,new,blue,1319.9982377,None,n,1319.9982377,None,"['n', 'return']","[0.7095022999999401, 1.0854380999999194]",1319.9982377,None,,,78YF,001,2023_Aug_23_1656,ExactRep-v3-final,2021.2.3,59.955956354455985,
,,,,,,,,,,,,123,0,123,0,,,,,,,,,,,,,,,,,,,,,,,,,,,,,,,,,,,,,,,,,,,,,,,,,1322.917679,None,,,,,,,,,,,,,,,,,,,,,,,,,,,,,,,,,,,,,,,,,,,,,,,,,,,,,,,,,water,186,124,aloud,new,white,1321.6355604999999,None,n,1321.6355604999999,None,"['n', 'return']","[0.8880927000000156, 1.248233700000128]",1321.6355604999999,None,,,78YF,001,2023_Aug_23_1656,ExactRep-v3-final,2021.2.3,59.955956354455985,
,,,,,,,,,,,,124,0,124,0,,,,,,,,,,,,,,,,,,,,,,,,,,,,,,,,,,,,,,,,,,,,,,,,,1324.9028967,None,,,,,,,,,,,,,,,,,,,,,,,,,,,,,,,,,,,,,,,,,,,,,,,,,,,,,,,,,prayer,67,125,silent,old,blue,1323.4220704,None,n,1323.4220704,None,"['n', 'return']","[1.0376225999998496, 1.4455838999999742]",1323.4220704,None,,,78YF,001,2023_Aug_23_1656,ExactRep-v3-final,2021.2.3,59.955956354455985,
,,,,,,,,,,,,125,0,125,0,,,,,,,,,,,,,,,,,,,,,,,,,,,,,,,,,,,,,,,,,,,,,,,,,1326.6712816,None,,,,,,,,,,,,,,,,,,,,,,,,,,,,,,,,,,,,,,,,,,,,,,,,,,,,,,,,,bird,44,126,silent,old,blue,1325.4050571,None,n,1325.4050571,None,"['n', 'return']","[0.8226486999999452, 1.2226440999997976]",1325.4050571,None,,,78YF,001,2023_Aug_23_1656,ExactRep-v3-final,2021.2.3,59.955956354455985,
,,,,,,,,,,,,126,0,126,0,,,,,,,,,,,,,,,,,,,,,,,,,,,,,,,,,,,,,,,,,,,,,,,,,1329.9078187,None,,,,,,,,,,,,,,,,,,,,,,,,,,,,,,,,,,,,,,,,,,,,,,,,,,,,,,,,,paper,237,127,sing,new,red,1327.1722794999998,None,n,1327.1722794999998,None,"['n', 'return']","[2.1513654999998835, 2.7034744999998566]",1327.1722794999998,None,,,78YF,001,2023_Aug_23_1656,ExactRep-v3-final,2021.2.3,59.955956354455985,
,,,,,,,,,,,,127,0,127,0,,,,,,,,,,,,,,,,,,,,,,,,,,,,,,,,,,,,,,,,,,,,,,,,,1331.6597052,None,,,,,,,,,,,,,,,,,,,,,,,,,,,,,,,,,,,,,,,,,,,,,,,,,,,,,,,,,seat,192,128,aloud,new,white,1330.4084251,None,n,1330.4084251,None,"['n', 'return']","[0.8592536999999538, 1.219273899999962]",1330.4084251,None,,,78YF,001,2023_Aug_23_1656,ExactRep-v3-final,2021.2.3,59.955956354455985,
,,,,,,,,,,,,128,0,128,0,,,,,,,,,,,,,,,,,,,,,,,,,,,,,,,,,,,,,,,,,,,,,,,,,1334.3789990999999,None,,,,,,,,,,,,,,,,,,,,,,,,,,,,,,,,,,,,,,,,,,,,,,,,,,,,,,,,,cotton,214,129,aloud,new,white,1332.1616056,None,n,1332.1616056,None,"['n', 'return']","[0.8900602999999592, 2.178079900000057]",1332.1616056,None,,,78YF,001,2023_Aug_23_1656,ExactRep-v3-final,2021.2.3,59.955956354455985,
,,,,,,,,,,,,129,0,129,0,,,,,,,,,,,,,,,,,,,,,,,,,,,,,,,,,,,,,,,,,,,,,,,,,1341.0078793999999,None,,,,,,,,,,,,,,,,,,,,,,,,,,,,,,,,,,,,,,,,,,,,,,,,,,,,,,,,,moral,59,130,silent,old,blue,1334.8795742,None,n,1334.8795742,None,"['y', 'backspace', 'n', 'return']","[1.1801591999999346, 4.676113399999849, 5.132152299999916, 6.076142799999843]",1334.8795742,None,,,78YF,001,2023_Aug_23_1656,ExactRep-v3-final,2021.2.3,59.955956354455985,
,,,,,,,,,,,,130,0,130,0,,,,,,,,,,,,,,,,,,,,,,,,,,,,,,,,,,,,,,,,,,,,,,,,,1346.9281905,None,,,,,,,,,,,,,,,,,,,,,,,,,,,,,,,,,,,,,,,,,,,,,,,,,,,,,,,,,judge,177,131,sing,new,red,1341.5207762,None,n,1341.5207762,None,"['n', 'return']","[4.515012099999922, 5.3709565999999995]",1341.5207762,None,,,78YF,001,2023_Aug_23_1656,ExactRep-v3-final,2021.2.3,59.955956354455985,
,,,,,,,,,,,,131,0,131,0,,,,,,,,,,,,,,,,,,,,,,,,,,,,,,,,,,,,,,,,,,,,,,,,,1350.0950202,None,,,,,,,,,,,,,,,,,,,,,,,,,,,,,,,,,,,,,,,,,,,,,,,,,,,,,,,,,hour,190,132,aloud,new,white,1347.4419492,None,n,1347.4419492,None,"['n', 'return']","[2.001756599999908, 2.617721000000074]",1347.4419492,None,,,78YF,001,2023_Aug_23_1656,ExactRep-v3-final,2021.2.3,59.955956354455985,
,,,,,,,,,,,,132,0,132,0,,,,,,,,,,,,,,,,,,,,,,,,,,,,,,,,,,,,,,,,,,,,,,,,,1354.5827487,None,,,,,,,,,,,,,,,,,,,,,,,,,,,,,,,,,,,,,,,,,,,,,,,,,,,,,,,,,wife,161,133,sing,new,red,1350.5970221,None,n,1350.5970221,None,"['n', 'return']","[3.5507164000000557, 3.95068040000001]",1350.5970221,None,,,78YF,001,2023_Aug_23_1656,ExactRep-v3-final,2021.2.3,59.955956354455985,
,,,,,,,,,,,,133,0,133,0,,,,,,,,,,,,,,,,,,,,,,,,,,,,,,,,,,,,,,,,,,,,,,,,,1356.7012676,None,,,,,,,,,,,,,,,,,,,,,,,,,,,,,,,,,,,,,,,,,,,,,,,,,,,,,,,,,woman,116,134,aloud,old,white,1355.0850702999999,None,y,1355.0850702999999,None,"['y', 'return']","[1.1745888999998897, 1.5826448999998775]",1355.0850702999999,None,,,78YF,001,2023_Aug_23_1656,ExactRep-v3-final,2021.2.3,59.955956354455985,
,,,,,,,,,,,,134,0,134,0,,,,,,,,,,,,,,,,,,,,,,,,,,,,,,,,,,,,,,,,,,,,,,,,,1358.7533293,None,,,,,,,,,,,,,,,,,,,,,,,,,,,,,,,,,,,,,,,,,,,,,,,,,,,,,,,,,law,197,135,sing,new,red,1357.2036954999999,None,n,1357.2036954999999,None,"['n', 'return']","[1.080007599999817, 1.5120354999999108]",1357.2036954999999,None,,,78YF,001,2023_Aug_23_1656,ExactRep-v3-final,2021.2.3,59.955956354455985,
,,,,,,,,,,,,135,0,135,0,,,,,,,,,,,,,,,,,,,,,,,,,,,,,,,,,,,,,,,,,,,,,,,,,1360.7053624999999,None,,,,,,,,,,,,,,,,,,,,,,,,,,,,,,,,,,,,,,,,,,,,,,,,,,,,,,,,,amount,211,136,sing,new,red,1359.2587732,None,n,1359.2587732,None,"['n', 'return']","[1.02494919999981, 1.4009086999999454]",1359.2587732,None,,,78YF,001,2023_Aug_23_1656,ExactRep-v3-final,2021.2.3,59.955956354455985,
,,,,,,,,,,,,136,0,136,0,,,,,,,,,,,,,,,,,,,,,,,,,,,,,,,,,,,,,,,,,,,,,,,,,1362.6238297999998,None,,,,,,,,,,,,,,,,,,,,,,,,,,,,,,,,,,,,,,,,,,,,,,,,,,,,,,,,,dawn,84,137,aloud,old,white,1361.2062196,None,y,1361.2062196,None,"['y', 'return']","[1.0694244999999682, 1.3734644999999546]",1361.2062196,None,,,78YF,001,2023_Aug_23_1656,ExactRep-v3-final,2021.2.3,59.955956354455985,
,,,,,,,,,,,,137,0,137,0,,,,,,,,,,,,,,,,,,,,,,,,,,,,,,,,,,,,,,,,,,,,,,,,,1364.626708,None,,,,,,,,,,,,,,,,,,,,,,,,,,,,,,,,,,,,,,,,,,,,,,,,,,,,,,,,,river,109,138,aloud,old,white,1363.1246558999999,None,n,1363.1246558999999,None,"['n', 'return']","[1.046985100000029, 1.4550526000000445]",1363.1246558999999,None,,,78YF,001,2023_Aug_23_1656,ExactRep-v3-final,2021.2.3,59.955956354455985,
,,,,,,,,,,,,138,0,138,0,,,,,,,,,,,,,,,,,,,,,,,,,,,,,,,,,,,,,,,,,,,,,,,,,1366.7634461999999,None,,,,,,,,,,,,,,,,,,,,,,,,,,,,,,,,,,,,,,,,,,,,,,,,,,,,,,,,,friend,23,139,sing,old,red,1365.1299494,None,n,1365.1299494,None,"['n', 'return']","[1.2576825999999528, 1.5857206000000588]",1365.1299494,None,,,78YF,001,2023_Aug_23_1656,ExactRep-v3-final,2021.2.3,59.955956354455985,
,,,,,,,,,,,,139,0,139,0,,,,,,,,,,,,,,,,,,,,,,,,,,,,,,,,,,,,,,,,,,,,,,,,,1373.8017736,None,,,,,,,,,,,,,,,,,,,,,,,,,,,,,,,,,,,,,,,,,,,,,,,,,,,,,,,,,ability,3,140,sing,old,red,1367.2785552999999,None,n,1367.2785552999999,None,"['n', 'return']","[2.669181799999933, 6.477114100000108]",1367.2785552999999,None,,,78YF,001,2023_Aug_23_1656,ExactRep-v3-final,2021.2.3,59.955956354455985,
