trials_fam.thisRepN,trials_fam.thisTrialN,trials_fam.thisN,trials_fam.thisIndex,trials_prc.thisRepN,trials_prc.thisTrialN,trials_prc.thisN,trials_prc.thisIndex,StudyLoop.thisRepN,StudyLoop.thisTrialN,StudyLoop.thisN,StudyLoop.thisIndex,TestLoop.thisRepN,TestLoop.thisTrialN,TestLoop.thisN,TestLoop.thisIndex,text_colortest.started,text_colortest.stopped,key_colortest.keys,key_colortest.rt,key_colortest.started,key_colortest.stopped,textCondition.started,textCondition.stopped,keyCondition.keys,keyCondition.rt,keyCondition.started,keyCondition.stopped,Condition_between,Condition_counterbal,keyWelcome.keys,keyWelcome.rt,keyWelcome.started,keyWelcome.stopped,welcome_a.started,welcome_a.stopped,welcome_b.started,welcome_b.stopped,welcome_c.started,welcome_c.stopped,welcome_d.started,welcome_d.stopped,welcome_e.started,welcome_e.stopped,welcome_f.started,welcome_f.stopped,key_resp_fam_inst.keys,key_resp_fam_inst.rt,key_resp_fam_inst.started,key_resp_fam_inst.stopped,fam_a.started,fam_a.stopped,fam_b.started,fam_b.stopped,fam_c.started,fam_c.stopped,fam_d.started,fam_d.stopped,fam_e.started,fam_e.stopped,fam_f.started,fam_f.stopped,text_famil.started,text_famil.stopped,textBlank500.started,textBlank500.stopped,key_resp_prc_inst.keys,key_resp_prc_inst.rt,key_resp_prc_inst.started,key_resp_prc_inst.stopped,prac_a.started,prac_a.stopped,prac_b.started,prac_b.stopped,prac_c.started,prac_c.stopped,prac_d.started,prac_d.stopped,prac_e.started,prac_e.stopped,prac_f.started,prac_f.stopped,text_prc_trial.started,text_prc_trial.stopped,key_resp_study_inst.keys,key_resp_study_inst.rt,key_resp_study_inst.started,key_resp_study_inst.stopped,crit_a.started,crit_a.stopped,crit_b.started,crit_b.stopped,crit_c.started,crit_c.stopped,crit_d.started,crit_d.stopped,crit_e.started,crit_e.stopped,crit_f.started,crit_f.stopped,study_word,study_num,study_order,study_type,word_color,textStudy.started,textStudy.stopped,keyStudy.keys,keyStudy.started,keyStudy.stopped,post_study.started,post_study.stopped,key_resp_post_study.keys,key_resp_post_study.rt,key_resp_post_study.started,key_resp_post_study.stopped,test_inst.started,test_inst.stopped,key_resp_test_inst.keys,key_resp_test_inst.rt,key_resp_test_inst.started,key_resp_test_inst.stopped,test_word,test_num,test_order,test_condition,old_new_test,word_color_test,textConf.started,textConf.stopped,Participant Response,textInput.started,textInput.stopped,keyResp.keys,keyResp.rt,keyResp.started,keyResp.stopped,textEnd.started,textEnd.stopped,participant,session,date,expName,psychopyVersion,frameRate,
,,,,,,,,,,,,,,,,64.11313849999988,None,n,0.9974961999996594,64.11313849999988,None,,,,,,,,,,,,,,,,,,,,,,,,,,,,,,,,,,,,,,,,,,,,,,,,,,,,,,,,,,,,,,,,,,,,,,,,,,,,,,,,,,,,,,,,,,,,,,,,,,,,,,,,,,,,,,,,,,,,,,79NA,001,2023_Aug_23_1726,ExactRep-v3-final,2021.2.3,59.96605921050437,
,,,,,,,,,,,,,,,,,,,,,,65.14141259999997,None,a,0.6251812000000427,65.14141259999997,None,,,,,,,,,,,,,,,,,,,,,,,,,,,,,,,,,,,,,,,,,,,,,,,,,,,,,,,,,,,,,,,,,,,,,,,,,,,,,,,,,,,,,,,,,,,,,,,,,,,,,,,,,,,,,,,,79NA,001,2023_Aug_23_1726,ExactRep-v3-final,2021.2.3,59.96605921050437,
,,,,,,,,,,,,,,,,,,,,,,,,,,,,whitefoils,a,space,95.56409940000003,75.87459020000006,None,,,,,,,,,,,,,,,,,,,,,,,,,,,,,,,,,,,,,,,,,,,,,,,,,,,,,,,,,,,,,,,,,,,,,,,,,,,,,,,,,,,,,,,,,,,,,,,,,,,,,,,,,,79NA,001,2023_Aug_23_1726,ExactRep-v3-final,2021.2.3,59.96605921050437,
,,,,,,,,,,,,,,,,,,,,,,,,,,,,,,,,,,65.96871869999995,None,65.96871869999995,None,65.96871869999995,None,65.96871869999995,None,65.96871869999995,None,65.96871869999995,None,space,22.764920200000233,181.65799629999992,None,,,,,,,,,,,,,,,,,,,,,,,,,,,,,,,,,,,,,,,,,,,,,,,,,,,,,,,,,,,,,,,,,,,,,,,,,,,,,,,,,,,,,,,,,,79NA,001,2023_Aug_23_1726,ExactRep-v3-final,2021.2.3,59.96605921050437,
0,0,0,0,,,,,,,,,,,,,,,,,,,,,,,,,,,,,,,,,,,,,,,,,,,,,,,171.74467670000013,None,171.74467670000013,None,171.74467670000013,None,171.74467670000013,None,171.74467670000013,None,171.74467670000013,None,204.52333700000008,None,206.51715149999973,None,,,,,,,,,,,,,,,,,,,,,,,,,,,,,,,,,,,,,,,,,,,,,,,,,,,,,,,,,,,,,,,,,,,,,,,,,,79NA,001,2023_Aug_23_1726,ExactRep-v3-final,2021.2.3,59.96605921050437,
1,0,1,0,,,,,,,,,,,,,,,,,,,,,,,,,,,,,,,,,,,,,,,,,,,,,,,,,,,,,,,,,,,207.0187063999997,None,209.01996809999991,None,,,,,,,,,,,,,,,,,,,,,,,,,,,,,,,,,,,,,,,,,,,,,,,,,,,,,,,,,,,,,,,,,,,,,,,,,,79NA,001,2023_Aug_23_1726,ExactRep-v3-final,2021.2.3,59.96605921050437,
2,0,2,0,,,,,,,,,,,,,,,,,,,,,,,,,,,,,,,,,,,,,,,,,,,,,,,,,,,,,,,,,,,209.52368509999997,None,211.53873739999972,None,,,,,,,,,,,,,,,,,,,,,,,,,,,,,,,,,,,,,,,,,,,,,,,,,,,,,,,,,,,,,,,,,,,,,,,,,,79NA,001,2023_Aug_23_1726,ExactRep-v3-final,2021.2.3,59.96605921050437,
3,0,3,0,,,,,,,,,,,,,,,,,,,,,,,,,,,,,,,,,,,,,,,,,,,,,,,,,,,,,,,,,,,212.03926189999993,None,214.0418792999999,None,,,,,,,,,,,,,,,,,,,,,,,,,,,,,,,,,,,,,,,,,,,,,,,,,,,,,,,,,,,,,,,,,,,,,,,,,,79NA,001,2023_Aug_23_1726,ExactRep-v3-final,2021.2.3,59.96605921050437,
4,0,4,0,,,,,,,,,,,,,,,,,,,,,,,,,,,,,,,,,,,,,,,,,,,,,,,,,,,,,,,,,,,214.54190040000003,None,216.54378029999998,None,,,,,,,,,,,,,,,,,,,,,,,,,,,,,,,,,,,,,,,,,,,,,,,,,,,,,,,,,,,,,,,,,,,,,,,,,,79NA,001,2023_Aug_23_1726,ExactRep-v3-final,2021.2.3,59.96605921050437,
5,0,5,0,,,,,,,,,,,,,,,,,,,,,,,,,,,,,,,,,,,,,,,,,,,,,,,,,,,,,,,,,,,217.04424299999982,None,219.04632319999973,None,,,,,,,,,,,,,,,,,,,,,,,,,,,,,,,,,,,,,,,,,,,,,,,,,,,,,,,,,,,,,,,,,,,,,,,,,,79NA,001,2023_Aug_23_1726,ExactRep-v3-final,2021.2.3,59.96605921050437,
6,0,6,0,,,,,,,,,,,,,,,,,,,,,,,,,,,,,,,,,,,,,,,,,,,,,,,,,,,,,,,,,,,219.54838029999974,None,221.54869980000012,None,,,,,,,,,,,,,,,,,,,,,,,,,,,,,,,,,,,,,,,,,,,,,,,,,,,,,,,,,,,,,,,,,,,,,,,,,,79NA,001,2023_Aug_23_1726,ExactRep-v3-final,2021.2.3,59.96605921050437,
7,0,7,0,,,,,,,,,,,,,,,,,,,,,,,,,,,,,,,,,,,,,,,,,,,,,,,,,,,,,,,,,,,222.04945850000013,None,224.05119579999973,None,,,,,,,,,,,,,,,,,,,,,,,,,,,,,,,,,,,,,,,,,,,,,,,,,,,,,,,,,,,,,,,,,,,,,,,,,,79NA,001,2023_Aug_23_1726,ExactRep-v3-final,2021.2.3,59.96605921050437,
8,0,8,0,,,,,,,,,,,,,,,,,,,,,,,,,,,,,,,,,,,,,,,,,,,,,,,,,,,,,,,,,,,224.5523017999999,None,226.55416509999986,None,,,,,,,,,,,,,,,,,,,,,,,,,,,,,,,,,,,,,,,,,,,,,,,,,,,,,,,,,,,,,,,,,,,,,,,,,,79NA,001,2023_Aug_23_1726,ExactRep-v3-final,2021.2.3,59.96605921050437,
9,0,9,0,,,,,,,,,,,,,,,,,,,,,,,,,,,,,,,,,,,,,,,,,,,,,,,,,,,,,,,,,,,227.05424889999995,None,229.0562119000001,None,,,,,,,,,,,,,,,,,,,,,,,,,,,,,,,,,,,,,,,,,,,,,,,,,,,,,,,,,,,,,,,,,,,,,,,,,,79NA,001,2023_Aug_23_1726,ExactRep-v3-final,2021.2.3,59.96605921050437,
10,0,10,0,,,,,,,,,,,,,,,,,,,,,,,,,,,,,,,,,,,,,,,,,,,,,,,,,,,,,,,,,,,229.55694409999978,None,231.55911500000002,None,,,,,,,,,,,,,,,,,,,,,,,,,,,,,,,,,,,,,,,,,,,,,,,,,,,,,,,,,,,,,,,,,,,,,,,,,,79NA,001,2023_Aug_23_1726,ExactRep-v3-final,2021.2.3,59.96605921050437,
11,0,11,0,,,,,,,,,,,,,,,,,,,,,,,,,,,,,,,,,,,,,,,,,,,,,,,,,,,,,,,,,,,232.05941679999978,None,234.06156909999982,None,,,,,,,,,,,,,,,,,,,,,,,,,,,,,,,,,,,,,,,,,,,,,,,,,,,,,,,,,,,,,,,,,,,,,,,,,,79NA,001,2023_Aug_23_1726,ExactRep-v3-final,2021.2.3,59.96605921050437,
12,0,12,0,,,,,,,,,,,,,,,,,,,,,,,,,,,,,,,,,,,,,,,,,,,,,,,,,,,,,,,,,,,234.56153989999984,None,236.56391780000013,None,,,,,,,,,,,,,,,,,,,,,,,,,,,,,,,,,,,,,,,,,,,,,,,,,,,,,,,,,,,,,,,,,,,,,,,,,,79NA,001,2023_Aug_23_1726,ExactRep-v3-final,2021.2.3,59.96605921050437,
13,0,13,0,,,,,,,,,,,,,,,,,,,,,,,,,,,,,,,,,,,,,,,,,,,,,,,,,,,,,,,,,,,237.06890870000007,None,239.08305429999973,None,,,,,,,,,,,,,,,,,,,,,,,,,,,,,,,,,,,,,,,,,,,,,,,,,,,,,,,,,,,,,,,,,,,,,,,,,,79NA,001,2023_Aug_23_1726,ExactRep-v3-final,2021.2.3,59.96605921050437,
14,0,14,0,,,,,,,,,,,,,,,,,,,,,,,,,,,,,,,,,,,,,,,,,,,,,,,,,,,,,,,,,,,239.58340700000008,None,241.58570499999996,None,,,,,,,,,,,,,,,,,,,,,,,,,,,,,,,,,,,,,,,,,,,,,,,,,,,,,,,,,,,,,,,,,,,,,,,,,,79NA,001,2023_Aug_23_1726,ExactRep-v3-final,2021.2.3,59.96605921050437,
,,,,,,,,,,,,,,,,,,,,,,,,,,,,,,,,,,,,,,,,,,,,,,,,,,,,,,,,,,,,,,,,,,space,19.647711900000104,252.2152433000001,None,,,,,,,,,,,,,,,,,,,,,,,,,,,,,,,,,,,,,,,,,,,,,,,,,,,,,,,,,,,,,,,,,,,,,,79NA,001,2023_Aug_23_1726,ExactRep-v3-final,2021.2.3,59.96605921050437,
,,,,0,0,0,0,,,,,,,,,,,,,,,,,,,,,,,,,,,,,,,,,,,,,,,,,,,,,,,,,,,,,,,,,273.93491970000014,None,,,,,242.22681999999986,None,242.22681999999986,None,242.22681999999986,None,242.22681999999986,None,242.22681999999986,None,242.22681999999986,None,271.9291662999999,None,,,,,,,,,,,,,,,,,,,,,,,,,,,,,,,,,,,,,,,,,,,,,,,,,,,,,,,,79NA,001,2023_Aug_23_1726,ExactRep-v3-final,2021.2.3,59.96605921050437,
,,,,1,0,1,0,,,,,,,,,,,,,,,,,,,,,,,,,,,,,,,,,,,,,,,,,,,,,,,,,,,,,,,,,276.4372043999997,None,,,,,,,,,,,,,,,,,274.4350516999998,None,,,,,,,,,,,,,,,,,,,,,,,,,,,,,,,,,,,,,,,,,,,,,,,,,,,,,,,,79NA,001,2023_Aug_23_1726,ExactRep-v3-final,2021.2.3,59.96605921050437,
,,,,2,0,2,0,,,,,,,,,,,,,,,,,,,,,,,,,,,,,,,,,,,,,,,,,,,,,,,,,,,,,,,,,278.93953329999977,None,,,,,,,,,,,,,,,,,276.93764999999985,None,,,,,,,,,,,,,,,,,,,,,,,,,,,,,,,,,,,,,,,,,,,,,,,,,,,,,,,,79NA,001,2023_Aug_23_1726,ExactRep-v3-final,2021.2.3,59.96605921050437,
,,,,3,0,3,0,,,,,,,,,,,,,,,,,,,,,,,,,,,,,,,,,,,,,,,,,,,,,,,,,,,,,,,,,281.4423477,None,,,,,,,,,,,,,,,,,279.43995689999974,None,,,,,,,,,,,,,,,,,,,,,,,,,,,,,,,,,,,,,,,,,,,,,,,,,,,,,,,,79NA,001,2023_Aug_23_1726,ExactRep-v3-final,2021.2.3,59.96605921050437,
,,,,4,0,4,0,,,,,,,,,,,,,,,,,,,,,,,,,,,,,,,,,,,,,,,,,,,,,,,,,,,,,,,,,283.94441259999985,None,,,,,,,,,,,,,,,,,281.94275179999977,None,,,,,,,,,,,,,,,,,,,,,,,,,,,,,,,,,,,,,,,,,,,,,,,,,,,,,,,,79NA,001,2023_Aug_23_1726,ExactRep-v3-final,2021.2.3,59.96605921050437,
,,,,5,0,5,0,,,,,,,,,,,,,,,,,,,,,,,,,,,,,,,,,,,,,,,,,,,,,,,,,,,,,,,,,286.44689689999996,None,,,,,,,,,,,,,,,,,284.44498139999996,None,,,,,,,,,,,,,,,,,,,,,,,,,,,,,,,,,,,,,,,,,,,,,,,,,,,,,,,,79NA,001,2023_Aug_23_1726,ExactRep-v3-final,2021.2.3,59.96605921050437,
,,,,6,0,6,0,,,,,,,,,,,,,,,,,,,,,,,,,,,,,,,,,,,,,,,,,,,,,,,,,,,,,,,,,288.94968119999976,None,,,,,,,,,,,,,,,,,286.9476440999997,None,,,,,,,,,,,,,,,,,,,,,,,,,,,,,,,,,,,,,,,,,,,,,,,,,,,,,,,,79NA,001,2023_Aug_23_1726,ExactRep-v3-final,2021.2.3,59.96605921050437,
,,,,7,0,7,0,,,,,,,,,,,,,,,,,,,,,,,,,,,,,,,,,,,,,,,,,,,,,,,,,,,,,,,,,291.4520757,None,,,,,,,,,,,,,,,,,289.4502315999998,None,,,,,,,,,,,,,,,,,,,,,,,,,,,,,,,,,,,,,,,,,,,,,,,,,,,,,,,,79NA,001,2023_Aug_23_1726,ExactRep-v3-final,2021.2.3,59.96605921050437,
,,,,8,0,8,0,,,,,,,,,,,,,,,,,,,,,,,,,,,,,,,,,,,,,,,,,,,,,,,,,,,,,,,,,293.95451379999986,None,,,,,,,,,,,,,,,,,291.9524243999999,None,,,,,,,,,,,,,,,,,,,,,,,,,,,,,,,,,,,,,,,,,,,,,,,,,,,,,,,,79NA,001,2023_Aug_23_1726,ExactRep-v3-final,2021.2.3,59.96605921050437,
,,,,9,0,9,0,,,,,,,,,,,,,,,,,,,,,,,,,,,,,,,,,,,,,,,,,,,,,,,,,,,,,,,,,296.45671779999975,None,,,,,,,,,,,,,,,,,294.4554367999999,None,,,,,,,,,,,,,,,,,,,,,,,,,,,,,,,,,,,,,,,,,,,,,,,,,,,,,,,,79NA,001,2023_Aug_23_1726,ExactRep-v3-final,2021.2.3,59.96605921050437,
,,,,10,0,10,0,,,,,,,,,,,,,,,,,,,,,,,,,,,,,,,,,,,,,,,,,,,,,,,,,,,,,,,,,298.9595773000001,None,,,,,,,,,,,,,,,,,296.9579865999999,None,,,,,,,,,,,,,,,,,,,,,,,,,,,,,,,,,,,,,,,,,,,,,,,,,,,,,,,,79NA,001,2023_Aug_23_1726,ExactRep-v3-final,2021.2.3,59.96605921050437,
,,,,11,0,11,0,,,,,,,,,,,,,,,,,,,,,,,,,,,,,,,,,,,,,,,,,,,,,,,,,,,,,,,,,301.46187139999984,None,,,,,,,,,,,,,,,,,299.4602123999998,None,,,,,,,,,,,,,,,,,,,,,,,,,,,,,,,,,,,,,,,,,,,,,,,,,,,,,,,,79NA,001,2023_Aug_23_1726,ExactRep-v3-final,2021.2.3,59.96605921050437,
,,,,12,0,12,0,,,,,,,,,,,,,,,,,,,,,,,,,,,,,,,,,,,,,,,,,,,,,,,,,,,,,,,,,303.9648594999999,None,,,,,,,,,,,,,,,,,301.9627848,None,,,,,,,,,,,,,,,,,,,,,,,,,,,,,,,,,,,,,,,,,,,,,,,,,,,,,,,,79NA,001,2023_Aug_23_1726,ExactRep-v3-final,2021.2.3,59.96605921050437,
,,,,13,0,13,0,,,,,,,,,,,,,,,,,,,,,,,,,,,,,,,,,,,,,,,,,,,,,,,,,,,,,,,,,306.4669684999999,None,,,,,,,,,,,,,,,,,304.4651746999998,None,,,,,,,,,,,,,,,,,,,,,,,,,,,,,,,,,,,,,,,,,,,,,,,,,,,,,,,,79NA,001,2023_Aug_23_1726,ExactRep-v3-final,2021.2.3,59.96605921050437,
,,,,14,0,14,0,,,,,,,,,,,,,,,,,,,,,,,,,,,,,,,,,,,,,,,,,,,,,,,,,,,,,,,,,308.9695842000001,None,,,,,,,,,,,,,,,,,306.96749629999977,None,,,,,,,,,,,,,,,,,,,,,,,,,,,,,,,,,,,,,,,,,,,,,,,,,,,,,,,,79NA,001,2023_Aug_23_1726,ExactRep-v3-final,2021.2.3,59.96605921050437,
,,,,,,,,,,,,,,,,,,,,,,,,,,,,,,,,,,,,,,,,,,,,,,,,,,,,,,,,,,,,,,,,,,,,,,,,,,,,,,,,,,,,space,19.49421829999983,319.57629450000013,None,,,,,,,,,,,,,,,,,,,,,,,,,,,,,,,,,,,,,,,,,,,,,,,,,,,,79NA,001,2023_Aug_23_1726,ExactRep-v3-final,2021.2.3,59.96605921050437,
,,,,,,,,0,0,0,0,,,,,,,,,,,,,,,,,,,,,,,,,,,,,,,,,,,,,,,,,,,,,,,,,,,,,341.2187120999997,None,,,,,,,,,,,,,,,,,,,,,,,309.6152431999999,None,309.6152431999999,None,309.6152431999999,None,309.6152431999999,None,309.6152431999999,None,309.6152431999999,None,grief,84,1,aloud,red,339.20639029999984,None,None,339.20639029999984,None,,,,,,,,,,,,,,,,,,,,,,,,,,,,,,79NA,001,2023_Aug_23_1726,ExactRep-v3-final,2021.2.3,59.96605921050437,
,,,,,,,,1,0,1,0,,,,,,,,,,,,,,,,,,,,,,,,,,,,,,,,,,,,,,,,,,,,,,,,,,,,,343.72087469999997,None,,,,,,,,,,,,,,,,,,,,,,,,,,,,,,,,,,,letter,7,2,sing,white,341.7185860999998,None,None,341.7185860999998,None,,,,,,,,,,,,,,,,,,,,,,,,,,,,,,79NA,001,2023_Aug_23_1726,ExactRep-v3-final,2021.2.3,59.96605921050437,
,,,,,,,,2,0,2,0,,,,,,,,,,,,,,,,,,,,,,,,,,,,,,,,,,,,,,,,,,,,,,,,,,,,,346.2233689999998,None,,,,,,,,,,,,,,,,,,,,,,,,,,,,,,,,,,,fate,66,3,silent,blue,344.22140820000004,None,None,344.22140820000004,None,,,,,,,,,,,,,,,,,,,,,,,,,,,,,,79NA,001,2023_Aug_23_1726,ExactRep-v3-final,2021.2.3,59.96605921050437,
,,,,,,,,3,0,3,0,,,,,,,,,,,,,,,,,,,,,,,,,,,,,,,,,,,,,,,,,,,,,,,,,,,,,348.72605620000013,None,,,,,,,,,,,,,,,,,,,,,,,,,,,,,,,,,,,butter,29,4,sing,white,346.7240848000001,None,None,346.7240848000001,None,,,,,,,,,,,,,,,,,,,,,,,,,,,,,,79NA,001,2023_Aug_23_1726,ExactRep-v3-final,2021.2.3,59.96605921050437,
,,,,,,,,4,0,4,0,,,,,,,,,,,,,,,,,,,,,,,,,,,,,,,,,,,,,,,,,,,,,,,,,,,,,351.22817140000006,None,,,,,,,,,,,,,,,,,,,,,,,,,,,,,,,,,,,dust,82,5,aloud,red,349.22858270000006,None,None,349.22858270000006,None,,,,,,,,,,,,,,,,,,,,,,,,,,,,,,79NA,001,2023_Aug_23_1726,ExactRep-v3-final,2021.2.3,59.96605921050437,
,,,,,,,,5,0,5,0,,,,,,,,,,,,,,,,,,,,,,,,,,,,,,,,,,,,,,,,,,,,,,,,,,,,,353.73100799999975,None,,,,,,,,,,,,,,,,,,,,,,,,,,,,,,,,,,,anger,31,6,sing,white,351.72888569999986,None,None,351.72888569999986,None,,,,,,,,,,,,,,,,,,,,,,,,,,,,,,79NA,001,2023_Aug_23_1726,ExactRep-v3-final,2021.2.3,59.96605921050437,
,,,,,,,,6,0,6,0,,,,,,,,,,,,,,,,,,,,,,,,,,,,,,,,,,,,,,,,,,,,,,,,,,,,,356.23366609999994,None,,,,,,,,,,,,,,,,,,,,,,,,,,,,,,,,,,,house,65,7,silent,blue,354.2323643,None,None,354.2323643,None,,,,,,,,,,,,,,,,,,,,,,,,,,,,,,79NA,001,2023_Aug_23_1726,ExactRep-v3-final,2021.2.3,59.96605921050437,
,,,,,,,,7,0,7,0,,,,,,,,,,,,,,,,,,,,,,,,,,,,,,,,,,,,,,,,,,,,,,,,,,,,,358.7360324000001,None,,,,,,,,,,,,,,,,,,,,,,,,,,,,,,,,,,,window,45,8,silent,blue,356.7349599999998,None,None,356.7349599999998,None,,,,,,,,,,,,,,,,,,,,,,,,,,,,,,79NA,001,2023_Aug_23_1726,ExactRep-v3-final,2021.2.3,59.96605921050437,
,,,,,,,,8,0,8,0,,,,,,,,,,,,,,,,,,,,,,,,,,,,,,,,,,,,,,,,,,,,,,,,,,,,,361.2382109,None,,,,,,,,,,,,,,,,,,,,,,,,,,,,,,,,,,,wheat,8,9,sing,white,359.23634809999976,None,None,359.23634809999976,None,,,,,,,,,,,,,,,,,,,,,,,,,,,,,,79NA,001,2023_Aug_23_1726,ExactRep-v3-final,2021.2.3,59.96605921050437,
,,,,,,,,9,0,9,0,,,,,,,,,,,,,,,,,,,,,,,,,,,,,,,,,,,,,,,,,,,,,,,,,,,,,363.7577553000001,None,,,,,,,,,,,,,,,,,,,,,,,,,,,,,,,,,,,shock,54,10,silent,blue,361.7446689999997,None,None,361.7446689999997,None,,,,,,,,,,,,,,,,,,,,,,,,,,,,,,79NA,001,2023_Aug_23_1726,ExactRep-v3-final,2021.2.3,59.96605921050437,
,,,,,,,,10,0,10,0,,,,,,,,,,,,,,,,,,,,,,,,,,,,,,,,,,,,,,,,,,,,,,,,,,,,,366.26027350000004,None,,,,,,,,,,,,,,,,,,,,,,,,,,,,,,,,,,,water,96,11,aloud,red,364.25813659999994,None,None,364.25813659999994,None,,,,,,,,,,,,,,,,,,,,,,,,,,,,,,79NA,001,2023_Aug_23_1726,ExactRep-v3-final,2021.2.3,59.96605921050437,
,,,,,,,,11,0,11,0,,,,,,,,,,,,,,,,,,,,,,,,,,,,,,,,,,,,,,,,,,,,,,,,,,,,,368.7626977,None,,,,,,,,,,,,,,,,,,,,,,,,,,,,,,,,,,,paper,11,12,sing,white,366.76049779999994,None,None,366.76049779999994,None,,,,,,,,,,,,,,,,,,,,,,,,,,,,,,79NA,001,2023_Aug_23_1726,ExactRep-v3-final,2021.2.3,59.96605921050437,
,,,,,,,,12,0,12,0,,,,,,,,,,,,,,,,,,,,,,,,,,,,,,,,,,,,,,,,,,,,,,,,,,,,,371.2650811999997,None,,,,,,,,,,,,,,,,,,,,,,,,,,,,,,,,,,,justice,38,13,sing,white,369.265535,None,None,369.265535,None,,,,,,,,,,,,,,,,,,,,,,,,,,,,,,79NA,001,2023_Aug_23_1726,ExactRep-v3-final,2021.2.3,59.96605921050437,
,,,,,,,,13,0,13,0,,,,,,,,,,,,,,,,,,,,,,,,,,,,,,,,,,,,,,,,,,,,,,,,,,,,,373.76767549999977,None,,,,,,,,,,,,,,,,,,,,,,,,,,,,,,,,,,,rod,90,14,aloud,red,371.7655212999998,None,None,371.7655212999998,None,,,,,,,,,,,,,,,,,,,,,,,,,,,,,,79NA,001,2023_Aug_23_1726,ExactRep-v3-final,2021.2.3,59.96605921050437,
,,,,,,,,14,0,14,0,,,,,,,,,,,,,,,,,,,,,,,,,,,,,,,,,,,,,,,,,,,,,,,,,,,,,376.2700205000001,None,,,,,,,,,,,,,,,,,,,,,,,,,,,,,,,,,,,devil,15,15,sing,white,374.2692624000001,None,None,374.2692624000001,None,,,,,,,,,,,,,,,,,,,,,,,,,,,,,,79NA,001,2023_Aug_23_1726,ExactRep-v3-final,2021.2.3,59.96605921050437,
,,,,,,,,15,0,15,0,,,,,,,,,,,,,,,,,,,,,,,,,,,,,,,,,,,,,,,,,,,,,,,,,,,,,378.7723812999998,None,,,,,,,,,,,,,,,,,,,,,,,,,,,,,,,,,,,pride,102,16,aloud,red,376.77066539999987,None,None,376.77066539999987,None,,,,,,,,,,,,,,,,,,,,,,,,,,,,,,79NA,001,2023_Aug_23_1726,ExactRep-v3-final,2021.2.3,59.96605921050437,
,,,,,,,,16,0,16,0,,,,,,,,,,,,,,,,,,,,,,,,,,,,,,,,,,,,,,,,,,,,,,,,,,,,,381.27552209999976,None,,,,,,,,,,,,,,,,,,,,,,,,,,,,,,,,,,,book,73,17,silent,blue,379.27379699999983,None,None,379.27379699999983,None,,,,,,,,,,,,,,,,,,,,,,,,,,,,,,79NA,001,2023_Aug_23_1726,ExactRep-v3-final,2021.2.3,59.96605921050437,
,,,,,,,,17,0,17,0,,,,,,,,,,,,,,,,,,,,,,,,,,,,,,,,,,,,,,,,,,,,,,,,,,,,,383.77763909999976,None,,,,,,,,,,,,,,,,,,,,,,,,,,,,,,,,,,,hotel,74,18,silent,blue,381.7757438999997,None,None,381.7757438999997,None,,,,,,,,,,,,,,,,,,,,,,,,,,,,,,79NA,001,2023_Aug_23_1726,ExactRep-v3-final,2021.2.3,59.96605921050437,
,,,,,,,,18,0,18,0,,,,,,,,,,,,,,,,,,,,,,,,,,,,,,,,,,,,,,,,,,,,,,,,,,,,,386.2799291000001,None,,,,,,,,,,,,,,,,,,,,,,,,,,,,,,,,,,,length,105,19,aloud,red,384.27805850000004,None,None,384.27805850000004,None,,,,,,,,,,,,,,,,,,,,,,,,,,,,,,79NA,001,2023_Aug_23_1726,ExactRep-v3-final,2021.2.3,59.96605921050437,
,,,,,,,,19,0,19,0,,,,,,,,,,,,,,,,,,,,,,,,,,,,,,,,,,,,,,,,,,,,,,,,,,,,,388.7828937999998,None,,,,,,,,,,,,,,,,,,,,,,,,,,,,,,,,,,,tree,2,20,sing,white,386.78059600000006,None,None,386.78059600000006,None,,,,,,,,,,,,,,,,,,,,,,,,,,,,,,79NA,001,2023_Aug_23_1726,ExactRep-v3-final,2021.2.3,59.96605921050437,
,,,,,,,,20,0,20,0,,,,,,,,,,,,,,,,,,,,,,,,,,,,,,,,,,,,,,,,,,,,,,,,,,,,,391.2850512,None,,,,,,,,,,,,,,,,,,,,,,,,,,,,,,,,,,,student,89,21,aloud,red,389.28305,None,None,389.28305,None,,,,,,,,,,,,,,,,,,,,,,,,,,,,,,79NA,001,2023_Aug_23_1726,ExactRep-v3-final,2021.2.3,59.96605921050437,
,,,,,,,,21,0,21,0,,,,,,,,,,,,,,,,,,,,,,,,,,,,,,,,,,,,,,,,,,,,,,,,,,,,,393.78821930000004,None,,,,,,,,,,,,,,,,,,,,,,,,,,,,,,,,,,,lake,100,22,aloud,red,391.78562569999985,None,None,391.78562569999985,None,,,,,,,,,,,,,,,,,,,,,,,,,,,,,,79NA,001,2023_Aug_23_1726,ExactRep-v3-final,2021.2.3,59.96605921050437,
,,,,,,,,22,0,22,0,,,,,,,,,,,,,,,,,,,,,,,,,,,,,,,,,,,,,,,,,,,,,,,,,,,,,396.2902868000001,None,,,,,,,,,,,,,,,,,,,,,,,,,,,,,,,,,,,gold,112,23,aloud,red,394.2881303999998,None,None,394.2881303999998,None,,,,,,,,,,,,,,,,,,,,,,,,,,,,,,79NA,001,2023_Aug_23_1726,ExactRep-v3-final,2021.2.3,59.96605921050437,
,,,,,,,,23,0,23,0,,,,,,,,,,,,,,,,,,,,,,,,,,,,,,,,,,,,,,,,,,,,,,,,,,,,,398.7925720999997,None,,,,,,,,,,,,,,,,,,,,,,,,,,,,,,,,,,,chair,109,24,aloud,red,396.7906865,None,None,396.7906865,None,,,,,,,,,,,,,,,,,,,,,,,,,,,,,,79NA,001,2023_Aug_23_1726,ExactRep-v3-final,2021.2.3,59.96605921050437,
,,,,,,,,24,0,24,0,,,,,,,,,,,,,,,,,,,,,,,,,,,,,,,,,,,,,,,,,,,,,,,,,,,,,401.29501089999985,None,,,,,,,,,,,,,,,,,,,,,,,,,,,,,,,,,,,duty,18,25,sing,white,399.2930464000001,None,None,399.2930464000001,None,,,,,,,,,,,,,,,,,,,,,,,,,,,,,,79NA,001,2023_Aug_23_1726,ExactRep-v3-final,2021.2.3,59.96605921050437,
,,,,,,,,25,0,25,0,,,,,,,,,,,,,,,,,,,,,,,,,,,,,,,,,,,,,,,,,,,,,,,,,,,,,403.81412839999984,None,,,,,,,,,,,,,,,,,,,,,,,,,,,,,,,,,,,excuse,107,26,aloud,red,401.79985669999996,None,None,401.79985669999996,None,,,,,,,,,,,,,,,,,,,,,,,,,,,,,,79NA,001,2023_Aug_23_1726,ExactRep-v3-final,2021.2.3,59.96605921050437,
,,,,,,,,26,0,26,0,,,,,,,,,,,,,,,,,,,,,,,,,,,,,,,,,,,,,,,,,,,,,,,,,,,,,406.3171873000001,None,,,,,,,,,,,,,,,,,,,,,,,,,,,,,,,,,,,temple,57,27,silent,blue,404.31491819999974,None,None,404.31491819999974,None,,,,,,,,,,,,,,,,,,,,,,,,,,,,,,79NA,001,2023_Aug_23_1726,ExactRep-v3-final,2021.2.3,59.96605921050437,
,,,,,,,,27,0,27,0,,,,,,,,,,,,,,,,,,,,,,,,,,,,,,,,,,,,,,,,,,,,,,,,,,,,,408.8194819999999,None,,,,,,,,,,,,,,,,,,,,,,,,,,,,,,,,,,,hide,71,28,silent,blue,406.8171182000001,None,None,406.8171182000001,None,,,,,,,,,,,,,,,,,,,,,,,,,,,,,,79NA,001,2023_Aug_23_1726,ExactRep-v3-final,2021.2.3,59.96605921050437,
,,,,,,,,28,0,28,0,,,,,,,,,,,,,,,,,,,,,,,,,,,,,,,,,,,,,,,,,,,,,,,,,,,,,411.32191209999974,None,,,,,,,,,,,,,,,,,,,,,,,,,,,,,,,,,,,plain,92,29,aloud,red,409.3200105000001,None,None,409.3200105000001,None,,,,,,,,,,,,,,,,,,,,,,,,,,,,,,79NA,001,2023_Aug_23_1726,ExactRep-v3-final,2021.2.3,59.96605921050437,
,,,,,,,,29,0,29,0,,,,,,,,,,,,,,,,,,,,,,,,,,,,,,,,,,,,,,,,,,,,,,,,,,,,,413.8243692000001,None,,,,,,,,,,,,,,,,,,,,,,,,,,,,,,,,,,,metal,64,30,silent,blue,411.8222396000001,None,None,411.8222396000001,None,,,,,,,,,,,,,,,,,,,,,,,,,,,,,,79NA,001,2023_Aug_23_1726,ExactRep-v3-final,2021.2.3,59.96605921050437,
,,,,,,,,30,0,30,0,,,,,,,,,,,,,,,,,,,,,,,,,,,,,,,,,,,,,,,,,,,,,,,,,,,,,416.3268737999997,None,,,,,,,,,,,,,,,,,,,,,,,,,,,,,,,,,,,flood,95,31,aloud,red,414.32494700000007,None,None,414.32494700000007,None,,,,,,,,,,,,,,,,,,,,,,,,,,,,,,79NA,001,2023_Aug_23_1726,ExactRep-v3-final,2021.2.3,59.96605921050437,
,,,,,,,,31,0,31,0,,,,,,,,,,,,,,,,,,,,,,,,,,,,,,,,,,,,,,,,,,,,,,,,,,,,,418.8290721999997,None,,,,,,,,,,,,,,,,,,,,,,,,,,,,,,,,,,,skin,43,32,silent,blue,416.82725900000014,None,None,416.82725900000014,None,,,,,,,,,,,,,,,,,,,,,,,,,,,,,,79NA,001,2023_Aug_23_1726,ExactRep-v3-final,2021.2.3,59.96605921050437,
,,,,,,,,32,0,32,0,,,,,,,,,,,,,,,,,,,,,,,,,,,,,,,,,,,,,,,,,,,,,,,,,,,,,421.3481022000001,None,,,,,,,,,,,,,,,,,,,,,,,,,,,,,,,,,,,lord,114,33,aloud,red,419.33264740000004,None,None,419.33264740000004,None,,,,,,,,,,,,,,,,,,,,,,,,,,,,,,79NA,001,2023_Aug_23_1726,ExactRep-v3-final,2021.2.3,59.96605921050437,
,,,,,,,,33,0,33,0,,,,,,,,,,,,,,,,,,,,,,,,,,,,,,,,,,,,,,,,,,,,,,,,,,,,,423.85101510000004,None,,,,,,,,,,,,,,,,,,,,,,,,,,,,,,,,,,,speech,19,34,sing,white,421.8494566999998,None,None,421.8494566999998,None,,,,,,,,,,,,,,,,,,,,,,,,,,,,,,79NA,001,2023_Aug_23_1726,ExactRep-v3-final,2021.2.3,59.96605921050437,
,,,,,,,,34,0,34,0,,,,,,,,,,,,,,,,,,,,,,,,,,,,,,,,,,,,,,,,,,,,,,,,,,,,,426.35353320000013,None,,,,,,,,,,,,,,,,,,,,,,,,,,,,,,,,,,,steam,97,35,aloud,red,424.35132569999996,None,None,424.35132569999996,None,,,,,,,,,,,,,,,,,,,,,,,,,,,,,,79NA,001,2023_Aug_23_1726,ExactRep-v3-final,2021.2.3,59.96605921050437,
,,,,,,,,35,0,35,0,,,,,,,,,,,,,,,,,,,,,,,,,,,,,,,,,,,,,,,,,,,,,,,,,,,,,428.85636609999983,None,,,,,,,,,,,,,,,,,,,,,,,,,,,,,,,,,,,power,88,36,aloud,red,426.8537298000001,None,None,426.8537298000001,None,,,,,,,,,,,,,,,,,,,,,,,,,,,,,,79NA,001,2023_Aug_23_1726,ExactRep-v3-final,2021.2.3,59.96605921050437,
,,,,,,,,36,0,36,0,,,,,,,,,,,,,,,,,,,,,,,,,,,,,,,,,,,,,,,,,,,,,,,,,,,,,431.3586637999997,None,,,,,,,,,,,,,,,,,,,,,,,,,,,,,,,,,,,vessel,17,37,sing,white,429.35654969999996,None,None,429.35654969999996,None,,,,,,,,,,,,,,,,,,,,,,,,,,,,,,79NA,001,2023_Aug_23_1726,ExactRep-v3-final,2021.2.3,59.96605921050437,
,,,,,,,,37,0,37,0,,,,,,,,,,,,,,,,,,,,,,,,,,,,,,,,,,,,,,,,,,,,,,,,,,,,,433.8607248999997,None,,,,,,,,,,,,,,,,,,,,,,,,,,,,,,,,,,,engine,4,38,sing,white,431.85886059999984,None,None,431.85886059999984,None,,,,,,,,,,,,,,,,,,,,,,,,,,,,,,79NA,001,2023_Aug_23_1726,ExactRep-v3-final,2021.2.3,59.96605921050437,
,,,,,,,,38,0,38,0,,,,,,,,,,,,,,,,,,,,,,,,,,,,,,,,,,,,,,,,,,,,,,,,,,,,,436.3635312000001,None,,,,,,,,,,,,,,,,,,,,,,,,,,,,,,,,,,,pupil,118,39,aloud,red,434.36128759999974,None,None,434.36128759999974,None,,,,,,,,,,,,,,,,,,,,,,,,,,,,,,79NA,001,2023_Aug_23_1726,ExactRep-v3-final,2021.2.3,59.96605921050437,
,,,,,,,,39,0,39,0,,,,,,,,,,,,,,,,,,,,,,,,,,,,,,,,,,,,,,,,,,,,,,,,,,,,,438.86579559999973,None,,,,,,,,,,,,,,,,,,,,,,,,,,,,,,,,,,,meadow,35,40,sing,white,436.86403999999993,None,None,436.86403999999993,None,,,,,,,,,,,,,,,,,,,,,,,,,,,,,,79NA,001,2023_Aug_23_1726,ExactRep-v3-final,2021.2.3,59.96605921050437,
,,,,,,,,40,0,40,0,,,,,,,,,,,,,,,,,,,,,,,,,,,,,,,,,,,,,,,,,,,,,,,,,,,,,441.3686303999998,None,,,,,,,,,,,,,,,,,,,,,,,,,,,,,,,,,,,fur,32,41,sing,white,439.367303,None,None,439.367303,None,,,,,,,,,,,,,,,,,,,,,,,,,,,,,,79NA,001,2023_Aug_23_1726,ExactRep-v3-final,2021.2.3,59.96605921050437,
,,,,,,,,41,0,41,0,,,,,,,,,,,,,,,,,,,,,,,,,,,,,,,,,,,,,,,,,,,,,,,,,,,,,443.8873848999997,None,,,,,,,,,,,,,,,,,,,,,,,,,,,,,,,,,,,science,115,42,aloud,red,441.87351949999993,None,None,441.87351949999993,None,,,,,,,,,,,,,,,,,,,,,,,,,,,,,,79NA,001,2023_Aug_23_1726,ExactRep-v3-final,2021.2.3,59.96605921050437,
,,,,,,,,42,0,42,0,,,,,,,,,,,,,,,,,,,,,,,,,,,,,,,,,,,,,,,,,,,,,,,,,,,,,446.3904001000001,None,,,,,,,,,,,,,,,,,,,,,,,,,,,,,,,,,,,coast,93,43,aloud,red,444.38801569999987,None,None,444.38801569999987,None,,,,,,,,,,,,,,,,,,,,,,,,,,,,,,79NA,001,2023_Aug_23_1726,ExactRep-v3-final,2021.2.3,59.96605921050437,
,,,,,,,,43,0,43,0,,,,,,,,,,,,,,,,,,,,,,,,,,,,,,,,,,,,,,,,,,,,,,,,,,,,,448.8930912000001,None,,,,,,,,,,,,,,,,,,,,,,,,,,,,,,,,,,,advice,34,44,sing,white,446.89045499999975,None,None,446.89045499999975,None,,,,,,,,,,,,,,,,,,,,,,,,,,,,,,79NA,001,2023_Aug_23_1726,ExactRep-v3-final,2021.2.3,59.96605921050437,
,,,,,,,,44,0,44,0,,,,,,,,,,,,,,,,,,,,,,,,,,,,,,,,,,,,,,,,,,,,,,,,,,,,,451.39514929999996,None,,,,,,,,,,,,,,,,,,,,,,,,,,,,,,,,,,,honour,25,45,sing,white,449.39349859999993,None,None,449.39349859999993,None,,,,,,,,,,,,,,,,,,,,,,,,,,,,,,79NA,001,2023_Aug_23_1726,ExactRep-v3-final,2021.2.3,59.96605921050437,
,,,,,,,,45,0,45,0,,,,,,,,,,,,,,,,,,,,,,,,,,,,,,,,,,,,,,,,,,,,,,,,,,,,,453.8975925999998,None,,,,,,,,,,,,,,,,,,,,,,,,,,,,,,,,,,,shoes,12,46,sing,white,451.89562350000006,None,None,451.89562350000006,None,,,,,,,,,,,,,,,,,,,,,,,,,,,,,,79NA,001,2023_Aug_23_1726,ExactRep-v3-final,2021.2.3,59.96605921050437,
,,,,,,,,46,0,46,0,,,,,,,,,,,,,,,,,,,,,,,,,,,,,,,,,,,,,,,,,,,,,,,,,,,,,456.40023930000007,None,,,,,,,,,,,,,,,,,,,,,,,,,,,,,,,,,,,meeting,16,47,sing,white,454.4001462000001,None,None,454.4001462000001,None,,,,,,,,,,,,,,,,,,,,,,,,,,,,,,79NA,001,2023_Aug_23_1726,ExactRep-v3-final,2021.2.3,59.96605921050437,
,,,,,,,,47,0,47,0,,,,,,,,,,,,,,,,,,,,,,,,,,,,,,,,,,,,,,,,,,,,,,,,,,,,,458.90247629999976,None,,,,,,,,,,,,,,,,,,,,,,,,,,,,,,,,,,,wine,47,48,silent,blue,456.9003975999999,None,None,456.9003975999999,None,,,,,,,,,,,,,,,,,,,,,,,,,,,,,,79NA,001,2023_Aug_23_1726,ExactRep-v3-final,2021.2.3,59.96605921050437,
,,,,,,,,48,0,48,0,,,,,,,,,,,,,,,,,,,,,,,,,,,,,,,,,,,,,,,,,,,,,,,,,,,,,461.4052191999999,None,,,,,,,,,,,,,,,,,,,,,,,,,,,,,,,,,,,fact,56,49,silent,blue,459.4028843000001,None,None,459.4028843000001,None,,,,,,,,,,,,,,,,,,,,,,,,,,,,,,79NA,001,2023_Aug_23_1726,ExactRep-v3-final,2021.2.3,59.96605921050437,
,,,,,,,,49,0,49,0,,,,,,,,,,,,,,,,,,,,,,,,,,,,,,,,,,,,,,,,,,,,,,,,,,,,,463.9075647999998,None,,,,,,,,,,,,,,,,,,,,,,,,,,,,,,,,,,,factory,81,50,aloud,red,461.9055545000001,None,None,461.9055545000001,None,,,,,,,,,,,,,,,,,,,,,,,,,,,,,,79NA,001,2023_Aug_23_1726,ExactRep-v3-final,2021.2.3,59.96605921050437,
,,,,,,,,50,0,50,0,,,,,,,,,,,,,,,,,,,,,,,,,,,,,,,,,,,,,,,,,,,,,,,,,,,,,466.4102281999999,None,,,,,,,,,,,,,,,,,,,,,,,,,,,,,,,,,,,storm,78,51,silent,blue,464.4079716000001,None,None,464.4079716000001,None,,,,,,,,,,,,,,,,,,,,,,,,,,,,,,79NA,001,2023_Aug_23_1726,ExactRep-v3-final,2021.2.3,59.96605921050437,
,,,,,,,,51,0,51,0,,,,,,,,,,,,,,,,,,,,,,,,,,,,,,,,,,,,,,,,,,,,,,,,,,,,,468.9125495999997,None,,,,,,,,,,,,,,,,,,,,,,,,,,,,,,,,,,,effort,98,52,aloud,red,466.9106515999997,None,None,466.9106515999997,None,,,,,,,,,,,,,,,,,,,,,,,,,,,,,,79NA,001,2023_Aug_23_1726,ExactRep-v3-final,2021.2.3,59.96605921050437,
,,,,,,,,52,0,52,0,,,,,,,,,,,,,,,,,,,,,,,,,,,,,,,,,,,,,,,,,,,,,,,,,,,,,471.4154491999998,None,,,,,,,,,,,,,,,,,,,,,,,,,,,,,,,,,,,palace,22,53,sing,white,469.413094,None,None,469.413094,None,,,,,,,,,,,,,,,,,,,,,,,,,,,,,,79NA,001,2023_Aug_23_1726,ExactRep-v3-final,2021.2.3,59.96605921050437,
,,,,,,,,53,0,53,0,,,,,,,,,,,,,,,,,,,,,,,,,,,,,,,,,,,,,,,,,,,,,,,,,,,,,473.9175207999997,None,,,,,,,,,,,,,,,,,,,,,,,,,,,,,,,,,,,memory,36,54,sing,white,471.91566299999977,None,None,471.91566299999977,None,,,,,,,,,,,,,,,,,,,,,,,,,,,,,,79NA,001,2023_Aug_23_1726,ExactRep-v3-final,2021.2.3,59.96605921050437,
,,,,,,,,54,0,54,0,,,,,,,,,,,,,,,,,,,,,,,,,,,,,,,,,,,,,,,,,,,,,,,,,,,,,476.41998749999993,None,,,,,,,,,,,,,,,,,,,,,,,,,,,,,,,,,,,earth,113,55,aloud,red,474.4181190999998,None,None,474.4181190999998,None,,,,,,,,,,,,,,,,,,,,,,,,,,,,,,79NA,001,2023_Aug_23_1726,ExactRep-v3-final,2021.2.3,59.96605921050437,
,,,,,,,,55,0,55,0,,,,,,,,,,,,,,,,,,,,,,,,,,,,,,,,,,,,,,,,,,,,,,,,,,,,,478.92260970000007,None,,,,,,,,,,,,,,,,,,,,,,,,,,,,,,,,,,,prayer,40,56,silent,blue,476.9208315000001,None,None,476.9208315000001,None,,,,,,,,,,,,,,,,,,,,,,,,,,,,,,79NA,001,2023_Aug_23_1726,ExactRep-v3-final,2021.2.3,59.96605921050437,
,,,,,,,,56,0,56,0,,,,,,,,,,,,,,,,,,,,,,,,,,,,,,,,,,,,,,,,,,,,,,,,,,,,,481.4251495999997,None,,,,,,,,,,,,,,,,,,,,,,,,,,,,,,,,,,,product,76,57,silent,blue,479.4230580999997,None,None,479.4230580999997,None,,,,,,,,,,,,,,,,,,,,,,,,,,,,,,79NA,001,2023_Aug_23_1726,ExactRep-v3-final,2021.2.3,59.96605921050437,
,,,,,,,,57,0,57,0,,,,,,,,,,,,,,,,,,,,,,,,,,,,,,,,,,,,,,,,,,,,,,,,,,,,,483.92785129999993,None,,,,,,,,,,,,,,,,,,,,,,,,,,,,,,,,,,,dress,116,58,aloud,red,481.9255869999997,None,None,481.9255869999997,None,,,,,,,,,,,,,,,,,,,,,,,,,,,,,,79NA,001,2023_Aug_23_1726,ExactRep-v3-final,2021.2.3,59.96605921050437,
,,,,,,,,58,0,58,0,,,,,,,,,,,,,,,,,,,,,,,,,,,,,,,,,,,,,,,,,,,,,,,,,,,,,486.4302167000001,None,,,,,,,,,,,,,,,,,,,,,,,,,,,,,,,,,,,clock,3,59,sing,white,484.4279228999999,None,None,484.4279228999999,None,,,,,,,,,,,,,,,,,,,,,,,,,,,,,,79NA,001,2023_Aug_23_1726,ExactRep-v3-final,2021.2.3,59.96605921050437,
,,,,,,,,59,0,59,0,,,,,,,,,,,,,,,,,,,,,,,,,,,,,,,,,,,,,,,,,,,,,,,,,,,,,488.93336899999986,None,,,,,,,,,,,,,,,,,,,,,,,,,,,,,,,,,,,artist,24,60,sing,white,486.9305331999999,None,None,486.9305331999999,None,,,,,,,,,,,,,,,,,,,,,,,,,,,,,,79NA,001,2023_Aug_23_1726,ExactRep-v3-final,2021.2.3,59.96605921050437,
,,,,,,,,60,0,60,0,,,,,,,,,,,,,,,,,,,,,,,,,,,,,,,,,,,,,,,,,,,,,,,,,,,,,491.435113,None,,,,,,,,,,,,,,,,,,,,,,,,,,,,,,,,,,,vision,110,61,aloud,red,489.4330335999998,None,None,489.4330335999998,None,,,,,,,,,,,,,,,,,,,,,,,,,,,,,,79NA,001,2023_Aug_23_1726,ExactRep-v3-final,2021.2.3,59.96605921050437,
,,,,,,,,61,0,61,0,,,,,,,,,,,,,,,,,,,,,,,,,,,,,,,,,,,,,,,,,,,,,,,,,,,,,493.9377836999997,None,,,,,,,,,,,,,,,,,,,,,,,,,,,,,,,,,,,table,49,62,silent,blue,491.9357602,None,None,491.9357602,None,,,,,,,,,,,,,,,,,,,,,,,,,,,,,,79NA,001,2023_Aug_23_1726,ExactRep-v3-final,2021.2.3,59.96605921050437,
,,,,,,,,62,0,62,0,,,,,,,,,,,,,,,,,,,,,,,,,,,,,,,,,,,,,,,,,,,,,,,,,,,,,496.44012399999974,None,,,,,,,,,,,,,,,,,,,,,,,,,,,,,,,,,,,idea,87,63,aloud,red,494.4378898,None,None,494.4378898,None,,,,,,,,,,,,,,,,,,,,,,,,,,,,,,79NA,001,2023_Aug_23_1726,ExactRep-v3-final,2021.2.3,59.96605921050437,
,,,,,,,,63,0,63,0,,,,,,,,,,,,,,,,,,,,,,,,,,,,,,,,,,,,,,,,,,,,,,,,,,,,,498.94289979999985,None,,,,,,,,,,,,,,,,,,,,,,,,,,,,,,,,,,,opinion,27,64,sing,white,496.94058399999994,None,None,496.94058399999994,None,,,,,,,,,,,,,,,,,,,,,,,,,,,,,,79NA,001,2023_Aug_23_1726,ExactRep-v3-final,2021.2.3,59.96605921050437,
,,,,,,,,64,0,64,0,,,,,,,,,,,,,,,,,,,,,,,,,,,,,,,,,,,,,,,,,,,,,,,,,,,,,501.4452044999998,None,,,,,,,,,,,,,,,,,,,,,,,,,,,,,,,,,,,queen,67,65,silent,blue,499.44513879999977,None,None,499.44513879999977,None,,,,,,,,,,,,,,,,,,,,,,,,,,,,,,79NA,001,2023_Aug_23_1726,ExactRep-v3-final,2021.2.3,59.96605921050437,
,,,,,,,,65,0,65,0,,,,,,,,,,,,,,,,,,,,,,,,,,,,,,,,,,,,,,,,,,,,,,,,,,,,,503.9475440000001,None,,,,,,,,,,,,,,,,,,,,,,,,,,,,,,,,,,,toy,13,66,sing,white,501.9462561,None,None,501.9462561,None,,,,,,,,,,,,,,,,,,,,,,,,,,,,,,79NA,001,2023_Aug_23_1726,ExactRep-v3-final,2021.2.3,59.96605921050437,
,,,,,,,,66,0,66,0,,,,,,,,,,,,,,,,,,,,,,,,,,,,,,,,,,,,,,,,,,,,,,,,,,,,,506.4500054,None,,,,,,,,,,,,,,,,,,,,,,,,,,,,,,,,,,,ocean,39,67,silent,blue,504.4481055000001,None,None,504.4481055000001,None,,,,,,,,,,,,,,,,,,,,,,,,,,,,,,79NA,001,2023_Aug_23_1726,ExactRep-v3-final,2021.2.3,59.96605921050437,
,,,,,,,,67,0,67,0,,,,,,,,,,,,,,,,,,,,,,,,,,,,,,,,,,,,,,,,,,,,,,,,,,,,,508.9525103000001,None,,,,,,,,,,,,,,,,,,,,,,,,,,,,,,,,,,,lad,70,68,silent,blue,506.9504592999997,None,None,506.9504592999997,None,,,,,,,,,,,,,,,,,,,,,,,,,,,,,,79NA,001,2023_Aug_23_1726,ExactRep-v3-final,2021.2.3,59.96605921050437,
,,,,,,,,68,0,68,0,,,,,,,,,,,,,,,,,,,,,,,,,,,,,,,,,,,,,,,,,,,,,,,,,,,,,511.45542369999976,None,,,,,,,,,,,,,,,,,,,,,,,,,,,,,,,,,,,plant,41,69,silent,blue,509.45319419999987,None,None,509.45319419999987,None,,,,,,,,,,,,,,,,,,,,,,,,,,,,,,79NA,001,2023_Aug_23_1726,ExactRep-v3-final,2021.2.3,59.96605921050437,
,,,,,,,,69,0,69,0,,,,,,,,,,,,,,,,,,,,,,,,,,,,,,,,,,,,,,,,,,,,,,,,,,,,,513.9575940999998,None,,,,,,,,,,,,,,,,,,,,,,,,,,,,,,,,,,,boulder,14,70,sing,white,511.95570739999994,None,None,511.95570739999994,None,,,,,,,,,,,,,,,,,,,,,,,,,,,,,,79NA,001,2023_Aug_23_1726,ExactRep-v3-final,2021.2.3,59.96605921050437,
,,,,,,,,70,0,70,0,,,,,,,,,,,,,,,,,,,,,,,,,,,,,,,,,,,,,,,,,,,,,,,,,,,,,516.4599783999997,None,,,,,,,,,,,,,,,,,,,,,,,,,,,,,,,,,,,author,101,71,aloud,red,514.4580658,None,None,514.4580658,None,,,,,,,,,,,,,,,,,,,,,,,,,,,,,,79NA,001,2023_Aug_23_1726,ExactRep-v3-final,2021.2.3,59.96605921050437,
,,,,,,,,71,0,71,0,,,,,,,,,,,,,,,,,,,,,,,,,,,,,,,,,,,,,,,,,,,,,,,,,,,,,518.9625799,None,,,,,,,,,,,,,,,,,,,,,,,,,,,,,,,,,,,home,26,72,sing,white,516.9605953999999,None,None,516.9605953999999,None,,,,,,,,,,,,,,,,,,,,,,,,,,,,,,79NA,001,2023_Aug_23_1726,ExactRep-v3-final,2021.2.3,59.96605921050437,
,,,,,,,,72,0,72,0,,,,,,,,,,,,,,,,,,,,,,,,,,,,,,,,,,,,,,,,,,,,,,,,,,,,,521.4819548,None,,,,,,,,,,,,,,,,,,,,,,,,,,,,,,,,,,,hope,68,73,silent,blue,519.4729133999999,None,None,519.4729133999999,None,,,,,,,,,,,,,,,,,,,,,,,,,,,,,,79NA,001,2023_Aug_23_1726,ExactRep-v3-final,2021.2.3,59.96605921050437,
,,,,,,,,73,0,73,0,,,,,,,,,,,,,,,,,,,,,,,,,,,,,,,,,,,,,,,,,,,,,,,,,,,,,523.9844777999997,None,,,,,,,,,,,,,,,,,,,,,,,,,,,,,,,,,,,chance,108,74,aloud,red,521.9820758000001,None,None,521.9820758000001,None,,,,,,,,,,,,,,,,,,,,,,,,,,,,,,79NA,001,2023_Aug_23_1726,ExactRep-v3-final,2021.2.3,59.96605921050437,
,,,,,,,,74,0,74,0,,,,,,,,,,,,,,,,,,,,,,,,,,,,,,,,,,,,,,,,,,,,,,,,,,,,,526.4863937,None,,,,,,,,,,,,,,,,,,,,,,,,,,,,,,,,,,,teacher,51,75,silent,blue,524.4844801999998,None,None,524.4844801999998,None,,,,,,,,,,,,,,,,,,,,,,,,,,,,,,79NA,001,2023_Aug_23_1726,ExactRep-v3-final,2021.2.3,59.96605921050437,
,,,,,,,,75,0,75,0,,,,,,,,,,,,,,,,,,,,,,,,,,,,,,,,,,,,,,,,,,,,,,,,,,,,,528.9891554999999,None,,,,,,,,,,,,,,,,,,,,,,,,,,,,,,,,,,,breast,48,76,silent,blue,526.9870984999998,None,None,526.9870984999998,None,,,,,,,,,,,,,,,,,,,,,,,,,,,,,,79NA,001,2023_Aug_23_1726,ExactRep-v3-final,2021.2.3,59.96605921050437,
,,,,,,,,76,0,76,0,,,,,,,,,,,,,,,,,,,,,,,,,,,,,,,,,,,,,,,,,,,,,,,,,,,,,531.4916439999997,None,,,,,,,,,,,,,,,,,,,,,,,,,,,,,,,,,,,truth,58,77,silent,blue,529.4898524999999,None,None,529.4898524999999,None,,,,,,,,,,,,,,,,,,,,,,,,,,,,,,79NA,001,2023_Aug_23_1726,ExactRep-v3-final,2021.2.3,59.96605921050437,
,,,,,,,,77,0,77,0,,,,,,,,,,,,,,,,,,,,,,,,,,,,,,,,,,,,,,,,,,,,,,,,,,,,,533.9941660999998,None,,,,,,,,,,,,,,,,,,,,,,,,,,,,,,,,,,,ticket,9,78,sing,white,531.9921954000001,None,None,531.9921954000001,None,,,,,,,,,,,,,,,,,,,,,,,,,,,,,,79NA,001,2023_Aug_23_1726,ExactRep-v3-final,2021.2.3,59.96605921050437,
,,,,,,,,78,0,78,0,,,,,,,,,,,,,,,,,,,,,,,,,,,,,,,,,,,,,,,,,,,,,,,,,,,,,536.4967959,None,,,,,,,,,,,,,,,,,,,,,,,,,,,,,,,,,,,death,59,79,silent,blue,534.4949174999997,None,None,534.4949174999997,None,,,,,,,,,,,,,,,,,,,,,,,,,,,,,,79NA,001,2023_Aug_23_1726,ExactRep-v3-final,2021.2.3,59.96605921050437,
,,,,,,,,79,0,79,0,,,,,,,,,,,,,,,,,,,,,,,,,,,,,,,,,,,,,,,,,,,,,,,,,,,,,538.9992274000001,None,,,,,,,,,,,,,,,,,,,,,,,,,,,,,,,,,,,insect,111,80,aloud,red,536.9971519000001,None,None,536.9971519000001,None,,,,,,,,,,,,,,,,,,,,,,,,,,,,,,79NA,001,2023_Aug_23_1726,ExactRep-v3-final,2021.2.3,59.96605921050437,
,,,,,,,,80,0,80,0,,,,,,,,,,,,,,,,,,,,,,,,,,,,,,,,,,,,,,,,,,,,,,,,,,,,,541.5020666,None,,,,,,,,,,,,,,,,,,,,,,,,,,,,,,,,,,,person,99,81,aloud,red,539.4997370000001,None,None,539.4997370000001,None,,,,,,,,,,,,,,,,,,,,,,,,,,,,,,79NA,001,2023_Aug_23_1726,ExactRep-v3-final,2021.2.3,59.96605921050437,
,,,,,,,,81,0,81,0,,,,,,,,,,,,,,,,,,,,,,,,,,,,,,,,,,,,,,,,,,,,,,,,,,,,,544.0042900999997,None,,,,,,,,,,,,,,,,,,,,,,,,,,,,,,,,,,,answer,103,82,aloud,red,542.0036095999999,None,None,542.0036095999999,None,,,,,,,,,,,,,,,,,,,,,,,,,,,,,,79NA,001,2023_Aug_23_1726,ExactRep-v3-final,2021.2.3,59.96605921050437,
,,,,,,,,82,0,82,0,,,,,,,,,,,,,,,,,,,,,,,,,,,,,,,,,,,,,,,,,,,,,,,,,,,,,546.5066941,None,,,,,,,,,,,,,,,,,,,,,,,,,,,,,,,,,,,kiss,79,83,sing,white,544.5049764999999,None,None,544.5049764999999,None,,,,,,,,,,,,,,,,,,,,,,,,,,,,,,79NA,001,2023_Aug_23_1726,ExactRep-v3-final,2021.2.3,59.96605921050437,
,,,,,,,,83,0,83,0,,,,,,,,,,,,,,,,,,,,,,,,,,,,,,,,,,,,,,,,,,,,,,,,,,,,,549.0092086999998,None,,,,,,,,,,,,,,,,,,,,,,,,,,,,,,,,,,,crime,80,84,aloud,red,547.0070688000001,None,None,547.0070688000001,None,,,,,,,,,,,,,,,,,,,,,,,,,,,,,,79NA,001,2023_Aug_23_1726,ExactRep-v3-final,2021.2.3,59.96605921050437,
,,,,,,,,84,0,84,0,,,,,,,,,,,,,,,,,,,,,,,,,,,,,,,,,,,,,,,,,,,,,,,,,,,,,551.5119366999998,None,,,,,,,,,,,,,,,,,,,,,,,,,,,,,,,,,,,star,0,85,sing,white,549.5101212,None,None,549.5101212,None,,,,,,,,,,,,,,,,,,,,,,,,,,,,,,79NA,001,2023_Aug_23_1726,ExactRep-v3-final,2021.2.3,59.96605921050437,
,,,,,,,,85,0,85,0,,,,,,,,,,,,,,,,,,,,,,,,,,,,,,,,,,,,,,,,,,,,,,,,,,,,,554.0141011000001,None,,,,,,,,,,,,,,,,,,,,,,,,,,,,,,,,,,,thought,42,86,silent,blue,552.0122643999998,None,None,552.0122643999998,None,,,,,,,,,,,,,,,,,,,,,,,,,,,,,,79NA,001,2023_Aug_23_1726,ExactRep-v3-final,2021.2.3,59.96605921050437,
,,,,,,,,86,0,86,0,,,,,,,,,,,,,,,,,,,,,,,,,,,,,,,,,,,,,,,,,,,,,,,,,,,,,556.5163822,None,,,,,,,,,,,,,,,,,,,,,,,,,,,,,,,,,,,season,62,87,silent,blue,554.5148092,None,None,554.5148092,None,,,,,,,,,,,,,,,,,,,,,,,,,,,,,,79NA,001,2023_Aug_23_1726,ExactRep-v3-final,2021.2.3,59.96605921050437,
,,,,,,,,87,0,87,0,,,,,,,,,,,,,,,,,,,,,,,,,,,,,,,,,,,,,,,,,,,,,,,,,,,,,559.0191153999999,None,,,,,,,,,,,,,,,,,,,,,,,,,,,,,,,,,,,theory,20,88,sing,white,557.0173589000001,None,None,557.0173589000001,None,,,,,,,,,,,,,,,,,,,,,,,,,,,,,,79NA,001,2023_Aug_23_1726,ExactRep-v3-final,2021.2.3,59.96605921050437,
,,,,,,,,88,0,88,0,,,,,,,,,,,,,,,,,,,,,,,,,,,,,,,,,,,,,,,,,,,,,,,,,,,,,561.5220286999997,None,,,,,,,,,,,,,,,,,,,,,,,,,,,,,,,,,,,owner,55,89,silent,blue,559.5201895999999,None,None,559.5201895999999,None,,,,,,,,,,,,,,,,,,,,,,,,,,,,,,79NA,001,2023_Aug_23_1726,ExactRep-v3-final,2021.2.3,59.96605921050437,
,,,,,,,,89,0,89,0,,,,,,,,,,,,,,,,,,,,,,,,,,,,,,,,,,,,,,,,,,,,,,,,,,,,,564.0242128,None,,,,,,,,,,,,,,,,,,,,,,,,,,,,,,,,,,,lip,77,90,silent,blue,562.0225411000001,None,None,562.0225411000001,None,,,,,,,,,,,,,,,,,,,,,,,,,,,,,,79NA,001,2023_Aug_23_1726,ExactRep-v3-final,2021.2.3,59.96605921050437,
,,,,,,,,90,0,90,0,,,,,,,,,,,,,,,,,,,,,,,,,,,,,,,,,,,,,,,,,,,,,,,,,,,,,566.5268225999998,None,,,,,,,,,,,,,,,,,,,,,,,,,,,,,,,,,,,form,72,91,silent,blue,564.5250234999999,None,None,564.5250234999999,None,,,,,,,,,,,,,,,,,,,,,,,,,,,,,,79NA,001,2023_Aug_23_1726,ExactRep-v3-final,2021.2.3,59.96605921050437,
,,,,,,,,91,0,91,0,,,,,,,,,,,,,,,,,,,,,,,,,,,,,,,,,,,,,,,,,,,,,,,,,,,,,569.0295354,None,,,,,,,,,,,,,,,,,,,,,,,,,,,,,,,,,,,friend,60,92,silent,blue,567.0271619999999,None,None,567.0271619999999,None,,,,,,,,,,,,,,,,,,,,,,,,,,,,,,79NA,001,2023_Aug_23_1726,ExactRep-v3-final,2021.2.3,59.96605921050437,
,,,,,,,,92,0,92,0,,,,,,,,,,,,,,,,,,,,,,,,,,,,,,,,,,,,,,,,,,,,,,,,,,,,,571.5318520000001,None,,,,,,,,,,,,,,,,,,,,,,,,,,,,,,,,,,,air,91,93,aloud,red,569.5298603000001,None,None,569.5298603000001,None,,,,,,,,,,,,,,,,,,,,,,,,,,,,,,79NA,001,2023_Aug_23_1726,ExactRep-v3-final,2021.2.3,59.96605921050437,
,,,,,,,,93,0,93,0,,,,,,,,,,,,,,,,,,,,,,,,,,,,,,,,,,,,,,,,,,,,,,,,,,,,,574.0341681,None,,,,,,,,,,,,,,,,,,,,,,,,,,,,,,,,,,,murder,28,94,sing,white,572.0326775999997,None,None,572.0326775999997,None,,,,,,,,,,,,,,,,,,,,,,,,,,,,,,79NA,001,2023_Aug_23_1726,ExactRep-v3-final,2021.2.3,59.96605921050437,
,,,,,,,,94,0,94,0,,,,,,,,,,,,,,,,,,,,,,,,,,,,,,,,,,,,,,,,,,,,,,,,,,,,,576.5367984999998,None,,,,,,,,,,,,,,,,,,,,,,,,,,,,,,,,,,,quality,30,95,sing,white,574.5367821,None,None,574.5367821,None,,,,,,,,,,,,,,,,,,,,,,,,,,,,,,79NA,001,2023_Aug_23_1726,ExactRep-v3-final,2021.2.3,59.96605921050437,
,,,,,,,,95,0,95,0,,,,,,,,,,,,,,,,,,,,,,,,,,,,,,,,,,,,,,,,,,,,,,,,,,,,,579.0391541999998,None,,,,,,,,,,,,,,,,,,,,,,,,,,,,,,,,,,,trouble,85,96,aloud,red,577.0382340000001,None,None,577.0382340000001,None,,,,,,,,,,,,,,,,,,,,,,,,,,,,,,79NA,001,2023_Aug_23_1726,ExactRep-v3-final,2021.2.3,59.96605921050437,
,,,,,,,,96,0,96,0,,,,,,,,,,,,,,,,,,,,,,,,,,,,,,,,,,,,,,,,,,,,,,,,,,,,,581.5417920999998,None,,,,,,,,,,,,,,,,,,,,,,,,,,,,,,,,,,,journal,94,97,aloud,red,579.5396437999998,None,None,579.5396437999998,None,,,,,,,,,,,,,,,,,,,,,,,,,,,,,,79NA,001,2023_Aug_23_1726,ExactRep-v3-final,2021.2.3,59.96605921050437,
,,,,,,,,97,0,97,0,,,,,,,,,,,,,,,,,,,,,,,,,,,,,,,,,,,,,,,,,,,,,,,,,,,,,584.0444704000001,None,,,,,,,,,,,,,,,,,,,,,,,,,,,,,,,,,,,fun,75,98,silent,blue,582.0421753,None,None,582.0421753,None,,,,,,,,,,,,,,,,,,,,,,,,,,,,,,79NA,001,2023_Aug_23_1726,ExactRep-v3-final,2021.2.3,59.96605921050437,
,,,,,,,,98,0,98,0,,,,,,,,,,,,,,,,,,,,,,,,,,,,,,,,,,,,,,,,,,,,,,,,,,,,,586.5463587999998,None,,,,,,,,,,,,,,,,,,,,,,,,,,,,,,,,,,,slave,44,99,silent,blue,584.544856,None,None,584.544856,None,,,,,,,,,,,,,,,,,,,,,,,,,,,,,,79NA,001,2023_Aug_23_1726,ExactRep-v3-final,2021.2.3,59.96605921050437,
,,,,,,,,99,0,99,0,,,,,,,,,,,,,,,,,,,,,,,,,,,,,,,,,,,,,,,,,,,,,,,,,,,,,589.0660269999998,None,,,,,,,,,,,,,,,,,,,,,,,,,,,,,,,,,,,love,119,100,aloud,red,587.0524201999997,None,None,587.0524201999997,None,,,,,,,,,,,,,,,,,,,,,,,,,,,,,,79NA,001,2023_Aug_23_1726,ExactRep-v3-final,2021.2.3,59.96605921050437,
,,,,,,,,100,0,100,0,,,,,,,,,,,,,,,,,,,,,,,,,,,,,,,,,,,,,,,,,,,,,,,,,,,,,591.5683917000001,None,,,,,,,,,,,,,,,,,,,,,,,,,,,,,,,,,,,disease,33,101,sing,white,589.5666256999998,None,None,589.5666256999998,None,,,,,,,,,,,,,,,,,,,,,,,,,,,,,,79NA,001,2023_Aug_23_1726,ExactRep-v3-final,2021.2.3,59.96605921050437,
,,,,,,,,101,0,101,0,,,,,,,,,,,,,,,,,,,,,,,,,,,,,,,,,,,,,,,,,,,,,,,,,,,,,594.0707747000001,None,,,,,,,,,,,,,,,,,,,,,,,,,,,,,,,,,,,animal,37,102,sing,white,592.0692119,None,None,592.0692119,None,,,,,,,,,,,,,,,,,,,,,,,,,,,,,,79NA,001,2023_Aug_23_1726,ExactRep-v3-final,2021.2.3,59.96605921050437,
,,,,,,,,102,0,102,0,,,,,,,,,,,,,,,,,,,,,,,,,,,,,,,,,,,,,,,,,,,,,,,,,,,,,596.5733809999997,None,,,,,,,,,,,,,,,,,,,,,,,,,,,,,,,,,,,pipe,117,103,aloud,red,594.5713151,None,None,594.5713151,None,,,,,,,,,,,,,,,,,,,,,,,,,,,,,,79NA,001,2023_Aug_23_1726,ExactRep-v3-final,2021.2.3,59.96605921050437,
,,,,,,,,103,0,103,0,,,,,,,,,,,,,,,,,,,,,,,,,,,,,,,,,,,,,,,,,,,,,,,,,,,,,599.0761484,None,,,,,,,,,,,,,,,,,,,,,,,,,,,,,,,,,,,board,5,104,sing,white,597.0741499999999,None,None,597.0741499999999,None,,,,,,,,,,,,,,,,,,,,,,,,,,,,,,79NA,001,2023_Aug_23_1726,ExactRep-v3-final,2021.2.3,59.96605921050437,
,,,,,,,,104,0,104,0,,,,,,,,,,,,,,,,,,,,,,,,,,,,,,,,,,,,,,,,,,,,,,,,,,,,,601.5787796,None,,,,,,,,,,,,,,,,,,,,,,,,,,,,,,,,,,,mother,61,105,silent,blue,599.5762372999998,None,None,599.5762372999998,None,,,,,,,,,,,,,,,,,,,,,,,,,,,,,,79NA,001,2023_Aug_23_1726,ExactRep-v3-final,2021.2.3,59.96605921050437,
,,,,,,,,105,0,105,0,,,,,,,,,,,,,,,,,,,,,,,,,,,,,,,,,,,,,,,,,,,,,,,,,,,,,604.0811341999997,None,,,,,,,,,,,,,,,,,,,,,,,,,,,,,,,,,,,cattle,106,106,aloud,red,602.0790465,None,None,602.0790465,None,,,,,,,,,,,,,,,,,,,,,,,,,,,,,,79NA,001,2023_Aug_23_1726,ExactRep-v3-final,2021.2.3,59.96605921050437,
,,,,,,,,106,0,106,0,,,,,,,,,,,,,,,,,,,,,,,,,,,,,,,,,,,,,,,,,,,,,,,,,,,,,606.5835179000001,None,,,,,,,,,,,,,,,,,,,,,,,,,,,,,,,,,,,coffee,10,107,sing,white,604.5813463,None,None,604.5813463,None,,,,,,,,,,,,,,,,,,,,,,,,,,,,,,79NA,001,2023_Aug_23_1726,ExactRep-v3-final,2021.2.3,59.96605921050437,
,,,,,,,,107,0,107,0,,,,,,,,,,,,,,,,,,,,,,,,,,,,,,,,,,,,,,,,,,,,,,,,,,,,,609.0858361,None,,,,,,,,,,,,,,,,,,,,,,,,,,,,,,,,,,,iron,69,108,silent,blue,607.0839916999998,None,None,607.0839916999998,None,,,,,,,,,,,,,,,,,,,,,,,,,,,,,,79NA,001,2023_Aug_23_1726,ExactRep-v3-final,2021.2.3,59.96605921050437,
,,,,,,,,108,0,108,0,,,,,,,,,,,,,,,,,,,,,,,,,,,,,,,,,,,,,,,,,,,,,,,,,,,,,611.5886301999999,None,,,,,,,,,,,,,,,,,,,,,,,,,,,,,,,,,,,soil,104,109,aloud,red,609.5864729,None,None,609.5864729,None,,,,,,,,,,,,,,,,,,,,,,,,,,,,,,79NA,001,2023_Aug_23_1726,ExactRep-v3-final,2021.2.3,59.96605921050437,
,,,,,,,,109,0,109,0,,,,,,,,,,,,,,,,,,,,,,,,,,,,,,,,,,,,,,,,,,,,,,,,,,,,,614.0907275,None,,,,,,,,,,,,,,,,,,,,,,,,,,,,,,,,,,,forest,6,110,sing,white,612.0888574999999,None,None,612.0888574999999,None,,,,,,,,,,,,,,,,,,,,,,,,,,,,,,79NA,001,2023_Aug_23_1726,ExactRep-v3-final,2021.2.3,59.96605921050437,
,,,,,,,,110,0,110,0,,,,,,,,,,,,,,,,,,,,,,,,,,,,,,,,,,,,,,,,,,,,,,,,,,,,,616.5934769,None,,,,,,,,,,,,,,,,,,,,,,,,,,,,,,,,,,,bird,21,111,sing,white,614.5915769999997,None,None,614.5915769999997,None,,,,,,,,,,,,,,,,,,,,,,,,,,,,,,79NA,001,2023_Aug_23_1726,ExactRep-v3-final,2021.2.3,59.96605921050437,
,,,,,,,,111,0,111,0,,,,,,,,,,,,,,,,,,,,,,,,,,,,,,,,,,,,,,,,,,,,,,,,,,,,,619.0958427,None,,,,,,,,,,,,,,,,,,,,,,,,,,,,,,,,,,,method,53,112,silent,blue,617.0936849,None,None,617.0936849,None,,,,,,,,,,,,,,,,,,,,,,,,,,,,,,79NA,001,2023_Aug_23_1726,ExactRep-v3-final,2021.2.3,59.96605921050437,
,,,,,,,,112,0,112,0,,,,,,,,,,,,,,,,,,,,,,,,,,,,,,,,,,,,,,,,,,,,,,,,,,,,,621.5984659000001,None,,,,,,,,,,,,,,,,,,,,,,,,,,,,,,,,,,,origin,46,113,silent,blue,619.5965323,None,None,619.5965323,None,,,,,,,,,,,,,,,,,,,,,,,,,,,,,,79NA,001,2023_Aug_23_1726,ExactRep-v3-final,2021.2.3,59.96605921050437,
,,,,,,,,113,0,113,0,,,,,,,,,,,,,,,,,,,,,,,,,,,,,,,,,,,,,,,,,,,,,,,,,,,,,624.1009623,None,,,,,,,,,,,,,,,,,,,,,,,,,,,,,,,,,,,diamond,23,114,sing,white,622.0987491999999,None,None,622.0987491999999,None,,,,,,,,,,,,,,,,,,,,,,,,,,,,,,79NA,001,2023_Aug_23_1726,ExactRep-v3-final,2021.2.3,59.96605921050437,
,,,,,,,,114,0,114,0,,,,,,,,,,,,,,,,,,,,,,,,,,,,,,,,,,,,,,,,,,,,,,,,,,,,,626.6037060999997,None,,,,,,,,,,,,,,,,,,,,,,,,,,,,,,,,,,,flower,63,115,silent,blue,624.6014135999999,None,None,624.6014135999999,None,,,,,,,,,,,,,,,,,,,,,,,,,,,,,,79NA,001,2023_Aug_23_1726,ExactRep-v3-final,2021.2.3,59.96605921050437,
,,,,,,,,115,0,115,0,,,,,,,,,,,,,,,,,,,,,,,,,,,,,,,,,,,,,,,,,,,,,,,,,,,,,629.1059123999999,None,,,,,,,,,,,,,,,,,,,,,,,,,,,,,,,,,,,doctor,1,116,sing,white,627.1040512999998,None,None,627.1040512999998,None,,,,,,,,,,,,,,,,,,,,,,,,,,,,,,79NA,001,2023_Aug_23_1726,ExactRep-v3-final,2021.2.3,59.96605921050437,
,,,,,,,,116,0,116,0,,,,,,,,,,,,,,,,,,,,,,,,,,,,,,,,,,,,,,,,,,,,,,,,,,,,,631.6085109999999,None,,,,,,,,,,,,,,,,,,,,,,,,,,,,,,,,,,,horse,52,117,silent,blue,629.6062720999998,None,None,629.6062720999998,None,,,,,,,,,,,,,,,,,,,,,,,,,,,,,,79NA,001,2023_Aug_23_1726,ExactRep-v3-final,2021.2.3,59.96605921050437,
,,,,,,,,117,0,117,0,,,,,,,,,,,,,,,,,,,,,,,,,,,,,,,,,,,,,,,,,,,,,,,,,,,,,634.1108759999997,None,,,,,,,,,,,,,,,,,,,,,,,,,,,,,,,,,,,ship,83,118,aloud,red,632.1090549999999,None,None,632.1090549999999,None,,,,,,,,,,,,,,,,,,,,,,,,,,,,,,79NA,001,2023_Aug_23_1726,ExactRep-v3-final,2021.2.3,59.96605921050437,
,,,,,,,,118,0,118,0,,,,,,,,,,,,,,,,,,,,,,,,,,,,,,,,,,,,,,,,,,,,,,,,,,,,,636.6136072999998,None,,,,,,,,,,,,,,,,,,,,,,,,,,,,,,,,,,,army,50,119,silent,blue,634.6117024,None,None,634.6117024,None,,,,,,,,,,,,,,,,,,,,,,,,,,,,,,79NA,001,2023_Aug_23_1726,ExactRep-v3-final,2021.2.3,59.96605921050437,
,,,,,,,,119,0,119,0,,,,,,,,,,,,,,,,,,,,,,,,,,,,,,,,,,,,,,,,,,,,,,,,,,,,,639.1161397999999,None,,,,,,,,,,,,,,,,,,,,,,,,,,,,,,,,,,,bowl,86,120,aloud,red,637.1137902,None,None,637.1137902,None,,,,,,,,,,,,,,,,,,,,,,,,,,,,,,79NA,001,2023_Aug_23_1726,ExactRep-v3-final,2021.2.3,59.96605921050437,
,,,,,,,,,,,,,,,,,,,,,,,,,,,,,,,,,,,,,,,,,,,,,,,,,,,,,,,,,,,,,,,,,,,,,,,,,,,,,,,,,,,,,,,,,,,,,,,,,,,,,,,,,,,,,,639.6180199999999,None,space,1.9238718000001427,649.5945262,None,,,,,,,,,,,,,,,,,,,,,,,,79NA,001,2023_Aug_23_1726,ExactRep-v3-final,2021.2.3,59.96605921050437,
,,,,,,,,,,,,,,,,,,,,,,,,,,,,,,,,,,,,,,,,,,,,,,,,,,,,,,,,,,,,,,,,,,,,,,,,,,,,,,,,,,,,,,,,,,,,,,,,,,,,,,,,,,,,,,,,,,,,651.5468267000001,None,space,29.515529400000105,661.5228164999999,None,,,,,,,,,,,,,,,,,,79NA,001,2023_Aug_23_1726,ExactRep-v3-final,2021.2.3,59.96605921050437,
,,,,,,,,,,,,0,0,0,0,,,,,,,,,,,,,,,,,,,,,,,,,,,,,,,,,,,,,,,,,,,,,,,,,695.3236956000001,None,,,,,,,,,,,,,,,,,,,,,,,,,,,,,,,,,,,,,,,,,,,,,,,,,,,,,,,,,leader,184,1,aloud,new,yellow,691.5731645000001,None,n,691.5731645000001,None,"['n', 'return']","[3.0252008000002206, 3.7134036000002197]",691.5731645000001,None,,,79NA,001,2023_Aug_23_1726,ExactRep-v3-final,2021.2.3,59.96605921050437,
,,,,,,,,,,,,1,0,1,0,,,,,,,,,,,,,,,,,,,,,,,,,,,,,,,,,,,,,,,,,,,,,,,,,705.7332726999998,None,,,,,,,,,,,,,,,,,,,,,,,,,,,,,,,,,,,,,,,,,,,,,,,,,,,,,,,,,vision,110,2,aloud,old,yellow,695.839074,None,n,695.839074,None,"['n', 'return']","[9.351246799999899, 9.847311900000022]",695.839074,None,,,79NA,001,2023_Aug_23_1726,ExactRep-v3-final,2021.2.3,59.96605921050437,
,,,,,,,,,,,,2,0,2,0,,,,,,,,,,,,,,,,,,,,,,,,,,,,,,,,,,,,,,,,,,,,,,,,,708.2017249,None,,,,,,,,,,,,,,,,,,,,,,,,,,,,,,,,,,,,,,,,,,,,,,,,,,,,,,,,,answer,103,3,aloud,old,yellow,706.2345676,None,n,706.2345676,None,"['n', 'return']","[1.507755399999951, 1.9238123000000087]",706.2345676,None,,,79NA,001,2023_Aug_23_1726,ExactRep-v3-final,2021.2.3,59.96605921050437,
,,,,,,,,,,,,3,0,3,0,,,,,,,,,,,,,,,,,,,,,,,,,,,,,,,,,,,,,,,,,,,,,,,,,710.4393040999998,None,,,,,,,,,,,,,,,,,,,,,,,,,,,,,,,,,,,,,,,,,,,,,,,,,,,,,,,,,shore,128,4,silent,new,yellow,708.7020846999999,None,n,708.7020846999999,None,"['n', 'return']","[1.2802567999997336, 1.6962247999999818]",708.7020846999999,None,,,79NA,001,2023_Aug_23_1726,ExactRep-v3-final,2021.2.3,59.96605921050437,
,,,,,,,,,,,,4,0,4,0,,,,,,,,,,,,,,,,,,,,,,,,,,,,,,,,,,,,,,,,,,,,,,,,,712.6570041,None,,,,,,,,,,,,,,,,,,,,,,,,,,,,,,,,,,,,,,,,,,,,,,,,,,,,,,,,,murder,28,5,sing,old,yellow,710.9544388999998,None,y,710.9544388999998,None,"['y', 'return']","[1.268150799999603, 1.6679888999997274]",710.9544388999998,None,,,79NA,001,2023_Aug_23_1726,ExactRep-v3-final,2021.2.3,59.96605921050437,
,,,,,,,,,,,,5,0,5,0,,,,,,,,,,,,,,,,,,,,,,,,,,,,,,,,,,,,,,,,,,,,,,,,,714.5935097000001,None,,,,,,,,,,,,,,,,,,,,,,,,,,,,,,,,,,,,,,,,,,,,,,,,,,,,,,,,,air,91,6,aloud,old,yellow,713.1571703,None,y,713.1571703,None,"['y', 'return']","[1.0333153999999922, 1.4012567999998282]",713.1571703,None,,,79NA,001,2023_Aug_23_1726,ExactRep-v3-final,2021.2.3,59.96605921050437,
,,,,,,,,,,,,6,0,6,0,,,,,,,,,,,,,,,,,,,,,,,,,,,,,,,,,,,,,,,,,,,,,,,,,718.2123459999998,None,,,,,,,,,,,,,,,,,,,,,,,,,,,,,,,,,,,,,,,,,,,,,,,,,,,,,,,,,trouble,85,7,aloud,old,yellow,715.1113425999997,None,n,715.1113425999997,None,"['n', 'return']","[2.75908279999976, 3.0550195999999232]",715.1113425999997,None,,,79NA,001,2023_Aug_23_1726,ExactRep-v3-final,2021.2.3,59.96605921050437,
,,,,,,,,,,,,7,0,7,0,,,,,,,,,,,,,,,,,,,,,,,,,,,,,,,,,,,,,,,,,,,,,,,,,720.1527550999999,None,,,,,,,,,,,,,,,,,,,,,,,,,,,,,,,,,,,,,,,,,,,,,,,,,,,,,,,,,green,149,8,silent,new,yellow,718.7172860000001,None,n,718.7172860000001,None,"['n', 'return']","[1.0810420999996495, 1.3930811999998696]",718.7172860000001,None,,,79NA,001,2023_Aug_23_1726,ExactRep-v3-final,2021.2.3,59.96605921050437,
,,,,,,,,,,,,8,0,8,0,,,,,,,,,,,,,,,,,,,,,,,,,,,,,,,,,,,,,,,,,,,,,,,,,722.0161488999997,None,,,,,,,,,,,,,,,,,,,,,,,,,,,,,,,,,,,,,,,,,,,,,,,,,,,,,,,,,city,207,9,sing,new,yellow,720.6641049,None,n,720.6641049,None,"['n', 'return']","[1.0222690999999031, 1.3104355000000396]",720.6641049,None,,,79NA,001,2023_Aug_23_1726,ExactRep-v3-final,2021.2.3,59.96605921050437,
,,,,,,,,,,,,9,0,9,0,,,,,,,,,,,,,,,,,,,,,,,,,,,,,,,,,,,,,,,,,,,,,,,,,724.2345986,None,,,,,,,,,,,,,,,,,,,,,,,,,,,,,,,,,,,,,,,,,,,,,,,,,,,,,,,,,tree,2,10,sing,old,yellow,722.5174036999997,None,y,722.5174036999997,None,"['y', 'return']","[1.3451740000000427, 1.6729210999997122]",722.5174036999997,None,,,79NA,001,2023_Aug_23_1726,ExactRep-v3-final,2021.2.3,59.96605921050437,
,,,,,,,,,,,,10,0,10,0,,,,,,,,,,,,,,,,,,,,,,,,,,,,,,,,,,,,,,,,,,,,,,,,,726.1057913,None,,,,,,,,,,,,,,,,,,,,,,,,,,,,,,,,,,,,,,,,,,,,,,,,,,,,,,,,,journal,94,11,aloud,old,yellow,724.7359498000001,None,y,724.7359498000001,None,"['y', 'return']","[1.0224402999997437, 1.3264252999997552]",724.7359498000001,None,,,79NA,001,2023_Aug_23_1726,ExactRep-v3-final,2021.2.3,59.96605921050437,
,,,,,,,,,,,,11,0,11,0,,,,,,,,,,,,,,,,,,,,,,,,,,,,,,,,,,,,,,,,,,,,,,,,,728.1245049999998,None,,,,,,,,,,,,,,,,,,,,,,,,,,,,,,,,,,,,,,,,,,,,,,,,,,,,,,,,,vessel,17,12,sing,old,yellow,726.6200445999998,None,y,726.6200445999998,None,"['y', 'return']","[1.1542782999999872, 1.4663515000002008]",726.6200445999998,None,,,79NA,001,2023_Aug_23_1726,ExactRep-v3-final,2021.2.3,59.96605921050437,
,,,,,,,,,,,,12,0,12,0,,,,,,,,,,,,,,,,,,,,,,,,,,,,,,,,,,,,,,,,,,,,,,,,,730.4116638,None,,,,,,,,,,,,,,,,,,,,,,,,,,,,,,,,,,,,,,,,,,,,,,,,,,,,,,,,,fact,56,13,silent,old,yellow,728.639212,None,n,728.639212,None,"['n', 'return']","[1.1991376000000855, 1.735220500000196]",728.639212,None,,,79NA,001,2023_Aug_23_1726,ExactRep-v3-final,2021.2.3,59.96605921050437,
,,,,,,,,,,,,13,0,13,0,,,,,,,,,,,,,,,,,,,,,,,,,,,,,,,,,,,,,,,,,,,,,,,,,734.5277934999999,None,,,,,,,,,,,,,,,,,,,,,,,,,,,,,,,,,,,,,,,,,,,,,,,,,,,,,,,,,advice,34,14,sing,old,yellow,730.9241806,None,n,730.9241806,None,"['n', 'return']","[3.2741891999999098, 3.5622348000001693]",730.9241806,None,,,79NA,001,2023_Aug_23_1726,ExactRep-v3-final,2021.2.3,59.96605921050437,
,,,,,,,,,,,,14,0,14,0,,,,,,,,,,,,,,,,,,,,,,,,,,,,,,,,,,,,,,,,,,,,,,,,,736.4466890999997,None,,,,,,,,,,,,,,,,,,,,,,,,,,,,,,,,,,,,,,,,,,,,,,,,,,,,,,,,,weapon,205,15,sing,new,yellow,735.0303779999999,None,n,735.0303779999999,None,"['n', 'return']","[1.0079230999999709, 1.3679721999997128]",735.0303779999999,None,,,79NA,001,2023_Aug_23_1726,ExactRep-v3-final,2021.2.3,59.96605921050437,
,,,,,,,,,,,,15,0,15,0,,,,,,,,,,,,,,,,,,,,,,,,,,,,,,,,,,,,,,,,,,,,,,,,,739.7020736999998,None,,,,,,,,,,,,,,,,,,,,,,,,,,,,,,,,,,,,,,,,,,,,,,,,,,,,,,,,,factory,81,16,aloud,old,yellow,736.9479928000001,None,y,736.9479928000001,None,"['y', 'return']","[2.2743427999998858, 2.7063272999998844]",736.9479928000001,None,,,79NA,001,2023_Aug_23_1726,ExactRep-v3-final,2021.2.3,59.96605921050437,
,,,,,,,,,,,,16,0,16,0,,,,,,,,,,,,,,,,,,,,,,,,,,,,,,,,,,,,,,,,,,,,,,,,,741.9352412999997,None,,,,,,,,,,,,,,,,,,,,,,,,,,,,,,,,,,,,,,,,,,,,,,,,,,,,,,,,,hope,68,17,silent,old,yellow,740.2170216999998,None,n,740.2170216999998,None,"['n', 'return']","[1.3413633000000118, 1.6773896999998215]",740.2170216999998,None,,,79NA,001,2023_Aug_23_1726,ExactRep-v3-final,2021.2.3,59.96605921050437,
,,,,,,,,,,,,17,0,17,0,,,,,,,,,,,,,,,,,,,,,,,,,,,,,,,,,,,,,,,,,,,,,,,,,743.8875487,None,,,,,,,,,,,,,,,,,,,,,,,,,,,,,,,,,,,,,,,,,,,,,,,,,,,,,,,,,chair,109,18,aloud,old,yellow,742.4357814999998,None,n,742.4357814999998,None,"['n', 'return']","[1.0906162999999651, 1.410588899999766]",742.4357814999998,None,,,79NA,001,2023_Aug_23_1726,ExactRep-v3-final,2021.2.3,59.96605921050437,
,,,,,,,,,,,,18,0,18,0,,,,,,,,,,,,,,,,,,,,,,,,,,,,,,,,,,,,,,,,,,,,,,,,,745.9088512999997,None,,,,,,,,,,,,,,,,,,,,,,,,,,,,,,,,,,,,,,,,,,,,,,,,,,,,,,,,,disease,33,19,sing,old,yellow,744.387886,None,y,744.387886,None,"['y', 'return']","[1.1624901000000136, 1.4744698999998036]",744.387886,None,,,79NA,001,2023_Aug_23_1726,ExactRep-v3-final,2021.2.3,59.96605921050437,
,,,,,,,,,,,,19,0,19,0,,,,,,,,,,,,,,,,,,,,,,,,,,,,,,,,,,,,,,,,,,,,,,,,,747.8913223999998,None,,,,,,,,,,,,,,,,,,,,,,,,,,,,,,,,,,,,,,,,,,,,,,,,,,,,,,,,,clock,3,20,sing,old,yellow,746.426011,None,n,746.426011,None,"['n', 'return']","[1.1323434000000816, 1.4203155999998671]",746.426011,None,,,79NA,001,2023_Aug_23_1726,ExactRep-v3-final,2021.2.3,59.96605921050437,
,,,,,,,,,,,,20,0,20,0,,,,,,,,,,,,,,,,,,,,,,,,,,,,,,,,,,,,,,,,,,,,,,,,,749.8121403999999,None,,,,,,,,,,,,,,,,,,,,,,,,,,,,,,,,,,,,,,,,,,,,,,,,,,,,,,,,,rock,221,21,sing,new,yellow,748.3957723999997,None,n,748.3957723999997,None,"['n', 'return']","[1.0747486000000208, 1.3705314999997427]",748.3957723999997,None,,,79NA,001,2023_Aug_23_1726,ExactRep-v3-final,2021.2.3,59.96605921050437,
,,,,,,,,,,,,21,0,21,0,,,,,,,,,,,,,,,,,,,,,,,,,,,,,,,,,,,,,,,,,,,,,,,,,751.7621971999997,None,,,,,,,,,,,,,,,,,,,,,,,,,,,,,,,,,,,,,,,,,,,,,,,,,,,,,,,,,butter,29,22,sing,old,yellow,750.3272207999998,None,y,750.3272207999998,None,"['y', 'return']","[1.1271347000001697, 1.3992922000002181]",750.3272207999998,None,,,79NA,001,2023_Aug_23_1726,ExactRep-v3-final,2021.2.3,59.96605921050437,
,,,,,,,,,,,,22,0,22,0,,,,,,,,,,,,,,,,,,,,,,,,,,,,,,,,,,,,,,,,,,,,,,,,,753.8998922000001,None,,,,,,,,,,,,,,,,,,,,,,,,,,,,,,,,,,,,,,,,,,,,,,,,,,,,,,,,,law,211,23,sing,new,yellow,752.3226842999998,None,n,752.3226842999998,None,"['n', 'return']","[1.2596490000000813, 1.5396772999997665]",752.3226842999998,None,,,79NA,001,2023_Aug_23_1726,ExactRep-v3-final,2021.2.3,59.96605921050437,
,,,,,,,,,,,,23,0,23,0,,,,,,,,,,,,,,,,,,,,,,,,,,,,,,,,,,,,,,,,,,,,,,,,,755.9992029999999,None,,,,,,,,,,,,,,,,,,,,,,,,,,,,,,,,,,,,,,,,,,,,,,,,,,,,,,,,,doll,194,24,aloud,new,yellow,754.4145797000001,None,n,754.4145797000001,None,"['n', 'return']","[1.2397885000000315, 1.5437643999998727]",754.4145797000001,None,,,79NA,001,2023_Aug_23_1726,ExactRep-v3-final,2021.2.3,59.96605921050437,
,,,,,,,,,,,,24,0,24,0,,,,,,,,,,,,,,,,,,,,,,,,,,,,,,,,,,,,,,,,,,,,,,,,,758.0178499999997,None,,,,,,,,,,,,,,,,,,,,,,,,,,,,,,,,,,,,,,,,,,,,,,,,,,,,,,,,,circle,134,25,silent,new,yellow,756.4996843999998,None,n,756.4996843999998,None,"['n', 'return']","[1.1226423000002796, 1.483025699999871]",756.4996843999998,None,,,79NA,001,2023_Aug_23_1726,ExactRep-v3-final,2021.2.3,59.96605921050437,
,,,,,,,,,,,,25,0,25,0,,,,,,,,,,,,,,,,,,,,,,,,,,,,,,,,,,,,,,,,,,,,,,,,,760.0739401000001,None,,,,,,,,,,,,,,,,,,,,,,,,,,,,,,,,,,,,,,,,,,,,,,,,,,,,,,,,,soul,174,26,aloud,new,yellow,758.5189421,None,y,758.5189421,None,"['y', 'return']","[1.1836853999998311, 1.5113957999997183]",758.5189421,None,,,79NA,001,2023_Aug_23_1726,ExactRep-v3-final,2021.2.3,59.96605921050437,
,,,,,,,,,,,,26,0,26,0,,,,,,,,,,,,,,,,,,,,,,,,,,,,,,,,,,,,,,,,,,,,,,,,,761.9051758,None,,,,,,,,,,,,,,,,,,,,,,,,,,,,,,,,,,,,,,,,,,,,,,,,,,,,,,,,,hotel,74,27,silent,old,yellow,760.5872371,None,y,760.5872371,None,"['y', 'return']","[0.9231224000000111, 1.2831481000002896]",760.5872371,None,,,79NA,001,2023_Aug_23_1726,ExactRep-v3-final,2021.2.3,59.96605921050437,
,,,,,,,,,,,,27,0,27,0,,,,,,,,,,,,,,,,,,,,,,,,,,,,,,,,,,,,,,,,,,,,,,,,,764.2076320000001,None,,,,,,,,,,,,,,,,,,,,,,,,,,,,,,,,,,,,,,,,,,,,,,,,,,,,,,,,,shoes,12,28,sing,old,yellow,762.4060362,None,y,762.4060362,None,"['y', 'return']","[1.432347800000116, 1.7684834000001501]",762.4060362,None,,,79NA,001,2023_Aug_23_1726,ExactRep-v3-final,2021.2.3,59.96605921050437,
,,,,,,,,,,,,28,0,28,0,,,,,,,,,,,,,,,,,,,,,,,,,,,,,,,,,,,,,,,,,,,,,,,,,766.2265717999999,None,,,,,,,,,,,,,,,,,,,,,,,,,,,,,,,,,,,,,,,,,,,,,,,,,,,,,,,,,troops,154,29,silent,new,yellow,764.7094311000001,None,n,764.7094311000001,None,"['n', 'return']","[1.1691409000000021, 1.4729829999996582]",764.7094311000001,None,,,79NA,001,2023_Aug_23_1726,ExactRep-v3-final,2021.2.3,59.96605921050437,
,,,,,,,,,,,,29,0,29,0,,,,,,,,,,,,,,,,,,,,,,,,,,,,,,,,,,,,,,,,,,,,,,,,,769.2793121999998,None,,,,,,,,,,,,,,,,,,,,,,,,,,,,,,,,,,,,,,,,,,,,,,,,,,,,,,,,,humour,148,30,silent,new,yellow,766.7292238999999,None,y,766.7292238999999,None,"['y', 'return']","[1.565180699999928, 2.50910470000008]",766.7292238999999,None,,,79NA,001,2023_Aug_23_1726,ExactRep-v3-final,2021.2.3,59.96605921050437,
,,,,,,,,,,,,30,0,30,0,,,,,,,,,,,,,,,,,,,,,,,,,,,,,,,,,,,,,,,,,,,,,,,,,771.9322072999998,None,,,,,,,,,,,,,,,,,,,,,,,,,,,,,,,,,,,,,,,,,,,,,,,,,,,,,,,,,cotton,199,31,sing,new,yellow,769.7825696,None,n,769.7825696,None,"['n', 'return']","[1.7917742999998154, 2.1037547999999333]",769.7825696,None,,,79NA,001,2023_Aug_23_1726,ExactRep-v3-final,2021.2.3,59.96605921050437,
,,,,,,,,,,,,31,0,31,0,,,,,,,,,,,,,,,,,,,,,,,,,,,,,,,,,,,,,,,,,,,,,,,,,773.6834629999998,None,,,,,,,,,,,,,,,,,,,,,,,,,,,,,,,,,,,,,,,,,,,,,,,,,,,,,,,,,nail,187,32,sing,new,yellow,772.4330783,None,n,772.4330783,None,"['n', 'return']","[0.9093121000000792, 1.2132617000002028]",772.4330783,None,,,79NA,001,2023_Aug_23_1726,ExactRep-v3-final,2021.2.3,59.96605921050437,
,,,,,,,,,,,,32,0,32,0,,,,,,,,,,,,,,,,,,,,,,,,,,,,,,,,,,,,,,,,,,,,,,,,,775.4352645999998,None,,,,,,,,,,,,,,,,,,,,,,,,,,,,,,,,,,,,,,,,,,,,,,,,,,,,,,,,,woman,126,33,silent,new,yellow,774.1862533999997,None,n,774.1862533999997,None,"['n', 'return']","[0.9240801000000829, 1.2120644000001448]",774.1862533999997,None,,,79NA,001,2023_Aug_23_1726,ExactRep-v3-final,2021.2.3,59.96605921050437,
,,,,,,,,,,,,33,0,33,0,,,,,,,,,,,,,,,,,,,,,,,,,,,,,,,,,,,,,,,,,,,,,,,,,777.4551314,None,,,,,,,,,,,,,,,,,,,,,,,,,,,,,,,,,,,,,,,,,,,,,,,,,,,,,,,,,custom,160,34,aloud,new,yellow,775.9377240999997,None,n,775.9377240999997,None,"['n', 'return']","[1.180754099999831, 1.4687242999998489]",775.9377240999997,None,,,79NA,001,2023_Aug_23_1726,ExactRep-v3-final,2021.2.3,59.96605921050437,
,,,,,,,,,,,,34,0,34,0,,,,,,,,,,,,,,,,,,,,,,,,,,,,,,,,,,,,,,,,,,,,,,,,,779.7909478000001,None,,,,,,,,,,,,,,,,,,,,,,,,,,,,,,,,,,,,,,,,,,,,,,,,,,,,,,,,,meadow,35,35,sing,old,yellow,777.9565748999999,None,y,777.9565748999999,None,"['y', 'return']","[1.4737735999997312, 1.793846300000041]",777.9565748999999,None,,,79NA,001,2023_Aug_23_1726,ExactRep-v3-final,2021.2.3,59.96605921050437,
,,,,,,,,,,,,35,0,35,0,,,,,,,,,,,,,,,,,,,,,,,,,,,,,,,,,,,,,,,,,,,,,,,,,783.3941178999999,None,,,,,,,,,,,,,,,,,,,,,,,,,,,,,,,,,,,,,,,,,,,,,,,,,,,,,,,,,anger,31,36,sing,old,yellow,780.2900761000001,None,y,780.2900761000001,None,"['y', 'return']","[2.596293500000229, 3.068243600000187]",780.2900761000001,None,,,79NA,001,2023_Aug_23_1726,ExactRep-v3-final,2021.2.3,59.96605921050437,
,,,,,,,,,,,,36,0,36,0,,,,,,,,,,,,,,,,,,,,,,,,,,,,,,,,,,,,,,,,,,,,,,,,,785.3484051999999,None,,,,,,,,,,,,,,,,,,,,,,,,,,,,,,,,,,,,,,,,,,,,,,,,,,,,,,,,,bar,179,37,sing,new,yellow,783.8941749,None,n,783.8941749,None,"['n', 'return']","[1.1603440000003502, 1.4082091000000219]",783.8941749,None,,,79NA,001,2023_Aug_23_1726,ExactRep-v3-final,2021.2.3,59.96605921050437,
,,,,,,,,,,,,37,0,37,0,,,,,,,,,,,,,,,,,,,,,,,,,,,,,,,,,,,,,,,,,,,,,,,,,787.0303423999999,None,,,,,,,,,,,,,,,,,,,,,,,,,,,,,,,,,,,,,,,,,,,,,,,,,,,,,,,,,apple,217,38,sing,new,yellow,785.8627430000001,None,n,785.8627430000001,None,"['n', 'return']","[0.89563440000029, 1.1275863000000754]",785.8627430000001,None,,,79NA,001,2023_Aug_23_1726,ExactRep-v3-final,2021.2.3,59.96605921050437,
,,,,,,,,,,,,38,0,38,0,,,,,,,,,,,,,,,,,,,,,,,,,,,,,,,,,,,,,,,,,,,,,,,,,788.8193762000001,None,,,,,,,,,,,,,,,,,,,,,,,,,,,,,,,,,,,,,,,,,,,,,,,,,,,,,,,,,girl,172,39,aloud,new,yellow,787.5339107,None,n,787.5339107,None,"['n', 'return']","[0.9683752999999342, 1.2405767000000196]",787.5339107,None,,,79NA,001,2023_Aug_23_1726,ExactRep-v3-final,2021.2.3,59.96605921050437,
,,,,,,,,,,,,39,0,39,0,,,,,,,,,,,,,,,,,,,,,,,,,,,,,,,,,,,,,,,,,,,,,,,,,791.3515558999998,None,,,,,,,,,,,,,,,,,,,,,,,,,,,,,,,,,,,,,,,,,,,,,,,,,,,,,,,,,market,138,40,silent,new,yellow,789.3340696999999,None,n,789.3340696999999,None,"['n', 'return']","[1.0884235999997145, 1.976291499999661]",789.3340696999999,None,,,79NA,001,2023_Aug_23_1726,ExactRep-v3-final,2021.2.3,59.96605921050437,
,,,,,,,,,,,,40,0,40,0,,,,,,,,,,,,,,,,,,,,,,,,,,,,,,,,,,,,,,,,,,,,,,,,,793.8374463999999,None,,,,,,,,,,,,,,,,,,,,,,,,,,,,,,,,,,,,,,,,,,,,,,,,,,,,,,,,,sky,185,41,sing,new,yellow,791.8516973999999,None,n,791.8516973999999,None,"['n', 'return']","[1.522597499999847, 1.9466364999998405]",791.8516973999999,None,,,79NA,001,2023_Aug_23_1726,ExactRep-v3-final,2021.2.3,59.96605921050437,
,,,,,,,,,,,,41,0,41,0,,,,,,,,,,,,,,,,,,,,,,,,,,,,,,,,,,,,,,,,,,,,,,,,,796.6265220999999,None,,,,,,,,,,,,,,,,,,,,,,,,,,,,,,,,,,,,,,,,,,,,,,,,,,,,,,,,,river,150,42,silent,new,yellow,794.3388354999997,None,n,794.3388354999997,None,"['n', 'return']","[1.83552920000011, 2.2515041999999994]",794.3388354999997,None,,,79NA,001,2023_Aug_23_1726,ExactRep-v3-final,2021.2.3,59.96605921050437,
,,,,,,,,,,,,42,0,42,0,,,,,,,,,,,,,,,,,,,,,,,,,,,,,,,,,,,,,,,,,,,,,,,,,799.3258606999998,None,,,,,,,,,,,,,,,,,,,,,,,,,,,,,,,,,,,,,,,,,,,,,,,,,,,,,,,,,thought,42,43,silent,old,yellow,797.1428972999997,None,n,797.1428972999997,None,"['n', 'return']","[1.5354784999999538, 2.1355256000001646]",797.1428972999997,None,,,79NA,001,2023_Aug_23_1726,ExactRep-v3-final,2021.2.3,59.96605921050437,
,,,,,,,,,,,,43,0,43,0,,,,,,,,,,,,,,,,,,,,,,,,,,,,,,,,,,,,,,,,,,,,,,,,,804.2829526999999,None,,,,,,,,,,,,,,,,,,,,,,,,,,,,,,,,,,,,,,,,,,,,,,,,,,,,,,,,,bird,21,44,sing,old,yellow,799.8290582999998,None,y,799.8290582999998,None,"['y', 'return']","[4.025521900000058, 4.409643299999971]",799.8290582999998,None,,,79NA,001,2023_Aug_23_1726,ExactRep-v3-final,2021.2.3,59.96605921050437,
,,,,,,,,,,,,44,0,44,0,,,,,,,,,,,,,,,,,,,,,,,,,,,,,,,,,,,,,,,,,,,,,,,,,806.9171198999998,None,,,,,,,,,,,,,,,,,,,,,,,,,,,,,,,,,,,,,,,,,,,,,,,,,,,,,,,,,plain,92,45,aloud,old,yellow,804.7979519,None,y,804.7979519,None,"['y', 'return']","[1.7124460999998519, 2.080354299999726]",804.7979519,None,,,79NA,001,2023_Aug_23_1726,ExactRep-v3-final,2021.2.3,59.96605921050437,
,,,,,,,,,,,,45,0,45,0,,,,,,,,,,,,,,,,,,,,,,,,,,,,,,,,,,,,,,,,,,,,,,,,,808.7709532999997,None,,,,,,,,,,,,,,,,,,,,,,,,,,,,,,,,,,,,,,,,,,,,,,,,,,,,,,,,,blossom,132,46,silent,new,yellow,807.4191013999998,None,n,807.4191013999998,None,"['n', 'return']","[0.9712113999999019, 1.315213599999879]",807.4191013999998,None,,,79NA,001,2023_Aug_23_1726,ExactRep-v3-final,2021.2.3,59.96605921050437,
,,,,,,,,,,,,46,0,46,0,,,,,,,,,,,,,,,,,,,,,,,,,,,,,,,,,,,,,,,,,,,,,,,,,810.6556130999998,None,,,,,,,,,,,,,,,,,,,,,,,,,,,,,,,,,,,,,,,,,,,,,,,,,,,,,,,,,wheat,8,47,sing,old,yellow,809.2904122999998,None,y,809.2904122999998,None,"['y', 'return']","[1.0039151000000857, 1.3239195999999538]",809.2904122999998,None,,,79NA,001,2023_Aug_23_1726,ExactRep-v3-final,2021.2.3,59.96605921050437,
,,,,,,,,,,,,47,0,47,0,,,,,,,,,,,,,,,,,,,,,,,,,,,,,,,,,,,,,,,,,,,,,,,,,812.5391197999998,None,,,,,,,,,,,,,,,,,,,,,,,,,,,,,,,,,,,,,,,,,,,,,,,,,,,,,,,,,quality,30,48,sing,old,yellow,811.1719878999997,None,y,811.1719878999997,None,"['y', 'return']","[1.0022921999998289, 1.3312080999999125]",811.1719878999997,None,,,79NA,001,2023_Aug_23_1726,ExactRep-v3-final,2021.2.3,59.96605921050437,
,,,,,,,,,,,,48,0,48,0,,,,,,,,,,,,,,,,,,,,,,,,,,,,,,,,,,,,,,,,,,,,,,,,,814.5260813999998,None,,,,,,,,,,,,,,,,,,,,,,,,,,,,,,,,,,,,,,,,,,,,,,,,,,,,,,,,,toy,13,49,sing,old,yellow,813.0399342000001,None,y,813.0399342000001,None,"['y', 'return']","[1.1184057000000394, 1.4464609999999993]",813.0399342000001,None,,,79NA,001,2023_Aug_23_1726,ExactRep-v3-final,2021.2.3,59.96605921050437,
,,,,,,,,,,,,49,0,49,0,,,,,,,,,,,,,,,,,,,,,,,,,,,,,,,,,,,,,,,,,,,,,,,,,817.2116373999997,None,,,,,,,,,,,,,,,,,,,,,,,,,,,,,,,,,,,,,,,,,,,,,,,,,,,,,,,,,flesh,147,50,silent,new,yellow,815.0436045000001,None,y,815.0436045000001,None,"['y', 'return']","[1.034735400000045, 2.1227739999999358]",815.0436045000001,None,,,79NA,001,2023_Aug_23_1726,ExactRep-v3-final,2021.2.3,59.96605921050437,
,,,,,,,,,,,,50,0,50,0,,,,,,,,,,,,,,,,,,,,,,,,,,,,,,,,,,,,,,,,,,,,,,,,,820.8810976,None,,,,,,,,,,,,,,,,,,,,,,,,,,,,,,,,,,,,,,,,,,,,,,,,,,,,,,,,,origin,46,51,silent,old,yellow,817.7128456,None,n,817.7128456,None,"['n', 'return']","[2.837489699999878, 3.125461399999949]",817.7128456,None,,,79NA,001,2023_Aug_23_1726,ExactRep-v3-final,2021.2.3,59.96605921050437,
,,,,,,,,,,,,51,0,51,0,,,,,,,,,,,,,,,,,,,,,,,,,,,,,,,,,,,,,,,,,,,,,,,,,822.8674063999997,None,,,,,,,,,,,,,,,,,,,,,,,,,,,,,,,,,,,,,,,,,,,,,,,,,,,,,,,,,forest,6,52,sing,old,yellow,821.3836256,None,y,821.3836256,None,"['y', 'return']","[1.1429654999997183, 1.4467784999997093]",821.3836256,None,,,79NA,001,2023_Aug_23_1726,ExactRep-v3-final,2021.2.3,59.96605921050437,
,,,,,,,,,,,,52,0,52,0,,,,,,,,,,,,,,,,,,,,,,,,,,,,,,,,,,,,,,,,,,,,,,,,,824.8515180999998,None,,,,,,,,,,,,,,,,,,,,,,,,,,,,,,,,,,,,,,,,,,,,,,,,,,,,,,,,,bottle,140,53,silent,new,yellow,823.3690014999997,None,n,823.3690014999997,None,"['n', 'return']","[1.125339300000178, 1.4456767000001491]",823.3690014999997,None,,,79NA,001,2023_Aug_23_1726,ExactRep-v3-final,2021.2.3,59.96605921050437,
,,,,,,,,,,,,53,0,53,0,,,,,,,,,,,,,,,,,,,,,,,,,,,,,,,,,,,,,,,,,,,,,,,,,826.8200638999997,None,,,,,,,,,,,,,,,,,,,,,,,,,,,,,,,,,,,,,,,,,,,,,,,,,,,,,,,,,coffee,10,54,sing,old,yellow,825.3594442999997,None,y,825.3594442999997,None,"['y', 'return']","[1.1668733999999858, 1.4149292000001878]",825.3594442999997,None,,,79NA,001,2023_Aug_23_1726,ExactRep-v3-final,2021.2.3,59.96605921050437,
,,,,,,,,,,,,54,0,54,0,,,,,,,,,,,,,,,,,,,,,,,,,,,,,,,,,,,,,,,,,,,,,,,,,830.5570892999999,None,,,,,,,,,,,,,,,,,,,,,,,,,,,,,,,,,,,,,,,,,,,,,,,,,,,,,,,,,table,49,55,silent,old,yellow,827.3204784999998,None,y,827.3204784999998,None,"['y', 'return']","[2.9418173999997634, 3.1898323000000346]",827.3204784999998,None,,,79NA,001,2023_Aug_23_1726,ExactRep-v3-final,2021.2.3,59.96605921050437,
,,,,,,,,,,,,55,0,55,0,,,,,,,,,,,,,,,,,,,,,,,,,,,,,,,,,,,,,,,,,,,,,,,,,832.4088047,None,,,,,,,,,,,,,,,,,,,,,,,,,,,,,,,,,,,,,,,,,,,,,,,,,,,,,,,,,horse,52,56,silent,old,yellow,831.0573770000001,None,n,831.0573770000001,None,"['n', 'return']","[0.9969204000003629, 1.3088967000003322]",831.0573770000001,None,,,79NA,001,2023_Aug_23_1726,ExactRep-v3-final,2021.2.3,59.96605921050437,
,,,,,,,,,,,,56,0,56,0,,,,,,,,,,,,,,,,,,,,,,,,,,,,,,,,,,,,,,,,,,,,,,,,,834.4613749999999,None,,,,,,,,,,,,,,,,,,,,,,,,,,,,,,,,,,,,,,,,,,,,,,,,,,,,,,,,,avenue,137,57,silent,new,yellow,832.9135673000001,None,n,832.9135673000001,None,"['n', 'return']","[1.1967169000004105, 1.5007487000002584]",832.9135673000001,None,,,79NA,001,2023_Aug_23_1726,ExactRep-v3-final,2021.2.3,59.96605921050437,
,,,,,,,,,,,,57,0,57,0,,,,,,,,,,,,,,,,,,,,,,,,,,,,,,,,,,,,,,,,,,,,,,,,,836.4296326999997,None,,,,,,,,,,,,,,,,,,,,,,,,,,,,,,,,,,,,,,,,,,,,,,,,,,,,,,,,,door,162,58,aloud,new,yellow,834.963186,None,n,834.963186,None,"['n', 'return']","[1.0991389000000709, 1.4191510000000562]",834.963186,None,,,79NA,001,2023_Aug_23_1726,ExactRep-v3-final,2021.2.3,59.96605921050437,
,,,,,,,,,,,,58,0,58,0,,,,,,,,,,,,,,,,,,,,,,,,,,,,,,,,,,,,,,,,,,,,,,,,,838.1869867999999,None,,,,,,,,,,,,,,,,,,,,,,,,,,,,,,,,,,,,,,,,,,,,,,,,,,,,,,,,,soil,104,59,aloud,old,yellow,836.9302957,None,y,836.9302957,None,"['y', 'return']","[0.8920577999997477, 1.212241400000039]",836.9302957,None,,,79NA,001,2023_Aug_23_1726,ExactRep-v3-final,2021.2.3,59.96605921050437,
,,,,,,,,,,,,59,0,59,0,,,,,,,,,,,,,,,,,,,,,,,,,,,,,,,,,,,,,,,,,,,,,,,,,840.1502704,None,,,,,,,,,,,,,,,,,,,,,,,,,,,,,,,,,,,,,,,,,,,,,,,,,,,,,,,,,arm,131,60,silent,new,yellow,838.7003838999999,None,n,838.7003838999999,None,"['n', 'return']","[1.0419216000000233, 1.402020900000025]",838.7003838999999,None,,,79NA,001,2023_Aug_23_1726,ExactRep-v3-final,2021.2.3,59.96605921050437,
,,,,,,,,,,,,60,0,60,0,,,,,,,,,,,,,,,,,,,,,,,,,,,,,,,,,,,,,,,,,,,,,,,,,844.2042262999998,None,,,,,,,,,,,,,,,,,,,,,,,,,,,,,,,,,,,,,,,,,,,,,,,,,,,,,,,,,ability,195,61,sing,new,yellow,840.6579590000001,None,n,840.6579590000001,None,"['n', 'return']","[3.140396800000417, 3.5083738000002995]",840.6579590000001,None,,,79NA,001,2023_Aug_23_1726,ExactRep-v3-final,2021.2.3,59.96605921050437,
,,,,,,,,,,,,61,0,61,0,,,,,,,,,,,,,,,,,,,,,,,,,,,,,,,,,,,,,,,,,,,,,,,,,846.0725137,None,,,,,,,,,,,,,,,,,,,,,,,,,,,,,,,,,,,,,,,,,,,,,,,,,,,,,,,,,ticket,9,62,sing,old,yellow,844.7085818999999,None,n,844.7085818999999,None,"['n', 'return']","[0.9938801000002968, 1.3297441000004255]",844.7085818999999,None,,,79NA,001,2023_Aug_23_1726,ExactRep-v3-final,2021.2.3,59.96605921050437,
,,,,,,,,,,,,62,0,62,0,,,,,,,,,,,,,,,,,,,,,,,,,,,,,,,,,,,,,,,,,,,,,,,,,848.0423889999997,None,,,,,,,,,,,,,,,,,,,,,,,,,,,,,,,,,,,,,,,,,,,,,,,,,,,,,,,,,stone,120,63,silent,new,yellow,846.5756917999997,None,n,846.5756917999997,None,"['n', 'return']","[1.0946350999997776, 1.4306271999998899]",846.5756917999997,None,,,79NA,001,2023_Aug_23_1726,ExactRep-v3-final,2021.2.3,59.96605921050437,
,,,,,,,,,,,,63,0,63,0,,,,,,,,,,,,,,,,,,,,,,,,,,,,,,,,,,,,,,,,,,,,,,,,,850.0304532,None,,,,,,,,,,,,,,,,,,,,,,,,,,,,,,,,,,,,,,,,,,,,,,,,,,,,,,,,,crime,80,64,aloud,old,yellow,848.5442023,None,y,848.5442023,None,"['y', 'return']","[1.1501145000001998, 1.4380925000000389]",848.5442023,None,,,79NA,001,2023_Aug_23_1726,ExactRep-v3-final,2021.2.3,59.96605921050437,
,,,,,,,,,,,,64,0,64,0,,,,,,,,,,,,,,,,,,,,,,,,,,,,,,,,,,,,,,,,,,,,,,,,,852.0473072,None,,,,,,,,,,,,,,,,,,,,,,,,,,,,,,,,,,,,,,,,,,,,,,,,,,,,,,,,,cottage,216,65,aloud,new,yellow,850.5435490999998,None,n,850.5435490999998,None,"['n', 'return']","[1.1587806000002274, 1.4548098999998729]",850.5435490999998,None,,,79NA,001,2023_Aug_23_1726,ExactRep-v3-final,2021.2.3,59.96605921050437,
,,,,,,,,,,,,65,0,65,0,,,,,,,,,,,,,,,,,,,,,,,,,,,,,,,,,,,,,,,,,,,,,,,,,853.9986421999997,None,,,,,,,,,,,,,,,,,,,,,,,,,,,,,,,,,,,,,,,,,,,,,,,,,,,,,,,,,present,121,66,silent,new,yellow,852.5626927999997,None,n,852.5626927999997,None,"['n', 'return']","[1.0916297000003397, 1.387648700000227]",852.5626927999997,None,,,79NA,001,2023_Aug_23_1726,ExactRep-v3-final,2021.2.3,59.96605921050437,
,,,,,,,,,,,,66,0,66,0,,,,,,,,,,,,,,,,,,,,,,,,,,,,,,,,,,,,,,,,,,,,,,,,,855.9673134999998,None,,,,,,,,,,,,,,,,,,,,,,,,,,,,,,,,,,,,,,,,,,,,,,,,,,,,,,,,,lad,70,67,silent,old,yellow,854.4976628999998,None,n,854.4976628999998,None,"['n', 'return']","[1.1405776000001424, 1.4206827000002704]",854.4976628999998,None,,,79NA,001,2023_Aug_23_1726,ExactRep-v3-final,2021.2.3,59.96605921050437,
,,,,,,,,,,,,67,0,67,0,,,,,,,,,,,,,,,,,,,,,,,,,,,,,,,,,,,,,,,,,,,,,,,,,862.8734255999998,None,,,,,,,,,,,,,,,,,,,,,,,,,,,,,,,,,,,,,,,,,,,,,,,,,,,,,,,,,flood,95,68,aloud,old,yellow,856.4831577,None,n,856.4831577,None,"['y', 'backspace', 'n', 'return']","[1.8431396999999379, 5.163145900000018, 5.635166900000058, 6.355200599999989]",856.4831577,None,,,79NA,001,2023_Aug_23_1726,ExactRep-v3-final,2021.2.3,59.96605921050437,
,,,,,,,,,,,,68,0,68,0,,,,,,,,,,,,,,,,,,,,,,,,,,,,,,,,,,,,,,,,,,,,,,,,,867.9633921,None,,,,,,,,,,,,,,,,,,,,,,,,,,,,,,,,,,,,,,,,,,,,,,,,,,,,,,,,,style,165,69,sing,new,yellow,863.3731481,None,n,863.3731481,None,"['n', 'return']","[4.257147299999815, 4.553166400000009]",863.3731481,None,,,79NA,001,2023_Aug_23_1726,ExactRep-v3-final,2021.2.3,59.96605921050437,
,,,,,,,,,,,,69,0,69,0,,,,,,,,,,,,,,,,,,,,,,,,,,,,,,,,,,,,,,,,,,,,,,,,,870.1800097999999,None,,,,,,,,,,,,,,,,,,,,,,,,,,,,,,,,,,,,,,,,,,,,,,,,,,,,,,,,,moral,136,70,silent,new,yellow,868.4824115000001,None,n,868.4824115000001,None,"['n', 'return']","[1.3238914000003206, 1.6518849000003684]",868.4824115000001,None,,,79NA,001,2023_Aug_23_1726,ExactRep-v3-final,2021.2.3,59.96605921050437,
,,,,,,,,,,,,70,0,70,0,,,,,,,,,,,,,,,,,,,,,,,,,,,,,,,,,,,,,,,,,,,,,,,,,872.1654586,None,,,,,,,,,,,,,,,,,,,,,,,,,,,,,,,,,,,,,,,,,,,,,,,,,,,,,,,,,truth,58,71,silent,old,yellow,870.6827798999998,None,n,870.6827798999998,None,"['n', 'return']","[1.0837931999999455, 1.4435699999999088]",870.6827798999998,None,,,79NA,001,2023_Aug_23_1726,ExactRep-v3-final,2021.2.3,59.96605921050437,
,,,,,,,,,,,,71,0,71,0,,,,,,,,,,,,,,,,,,,,,,,,,,,,,,,,,,,,,,,,,,,,,,,,,878.505118,None,,,,,,,,,,,,,,,,,,,,,,,,,,,,,,,,,,,,,,,,,,,,,,,,,,,,,,,,,world,122,72,silent,new,yellow,872.6658659999998,None,n,872.6658659999998,None,"['y', 'backspace', 'n', 'return']","[4.268429799999922, 5.188527700000122, 5.492399899999782, 5.8045853999997234]",872.6658659999998,None,,,79NA,001,2023_Aug_23_1726,ExactRep-v3-final,2021.2.3,59.96605921050437,
,,,,,,,,,,,,72,0,72,0,,,,,,,,,,,,,,,,,,,,,,,,,,,,,,,,,,,,,,,,,,,,,,,,,880.5093661999999,None,,,,,,,,,,,,,,,,,,,,,,,,,,,,,,,,,,,,,,,,,,,,,,,,,,,,,,,,,dust,82,73,aloud,old,yellow,879.0103859999999,None,n,879.0103859999999,None,"['n', 'return']","[1.2199040000000423, 1.4599396000003253]",879.0103859999999,None,,,79NA,001,2023_Aug_23_1726,ExactRep-v3-final,2021.2.3,59.96605921050437,
,,,,,,,,,,,,73,0,73,0,,,,,,,,,,,,,,,,,,,,,,,,,,,,,,,,,,,,,,,,,,,,,,,,,882.5926267999998,None,,,,,,,,,,,,,,,,,,,,,,,,,,,,,,,,,,,,,,,,,,,,,,,,,,,,,,,,,picture,158,74,silent,new,yellow,881.0243949999999,None,n,881.0243949999999,None,"['n', 'return']","[1.1899240999996437, 1.533932299999833]",881.0243949999999,None,,,79NA,001,2023_Aug_23_1726,ExactRep-v3-final,2021.2.3,59.96605921050437,
,,,,,,,,,,,,74,0,74,0,,,,,,,,,,,,,,,,,,,,,,,,,,,,,,,,,,,,,,,,,,,,,,,,,885.0114269000001,None,,,,,,,,,,,,,,,,,,,,,,,,,,,,,,,,,,,,,,,,,,,,,,,,,,,,,,,,,teacher,51,75,silent,old,yellow,883.0960357999998,None,y,883.0960357999998,None,"['y', 'return']","[1.6302765999998883, 1.870234800000162]",883.0960357999998,None,,,79NA,001,2023_Aug_23_1726,ExactRep-v3-final,2021.2.3,59.96605921050437,
,,,,,,,,,,,,75,0,75,0,,,,,,,,,,,,,,,,,,,,,,,,,,,,,,,,,,,,,,,,,,,,,,,,,888.2980604999998,None,,,,,,,,,,,,,,,,,,,,,,,,,,,,,,,,,,,,,,,,,,,,,,,,,,,,,,,,,ocean,39,76,silent,old,yellow,885.5128547999998,None,n,885.5128547999998,None,"['n', 'return']","[1.2294436000001951, 2.7414718999998513]",885.5128547999998,None,,,79NA,001,2023_Aug_23_1726,ExactRep-v3-final,2021.2.3,59.96605921050437,
,,,,,,,,,,,,76,0,76,0,,,,,,,,,,,,,,,,,,,,,,,,,,,,,,,,,,,,,,,,,,,,,,,,,890.8725196999999,None,,,,,,,,,,,,,,,,,,,,,,,,,,,,,,,,,,,,,,,,,,,,,,,,,,,,,,,,,child,153,77,silent,new,yellow,888.8096359000001,None,n,888.8096359000001,None,"['n', 'return']","[1.5567386000002443, 2.012668500000018]",888.8096359000001,None,,,79NA,001,2023_Aug_23_1726,ExactRep-v3-final,2021.2.3,59.96605921050437,
,,,,,,,,,,,,77,0,77,0,,,,,,,,,,,,,,,,,,,,,,,,,,,,,,,,,,,,,,,,,,,,,,,,,893.4869448999998,None,,,,,,,,,,,,,,,,,,,,,,,,,,,,,,,,,,,,,,,,,,,,,,,,,,,,,,,,,cost,192,78,aloud,new,yellow,891.3914455999998,None,n,891.3914455999998,None,"['n', 'return']","[1.574859099999685, 2.062859899999694]",891.3914455999998,None,,,79NA,001,2023_Aug_23_1726,ExactRep-v3-final,2021.2.3,59.96605921050437,
,,,,,,,,,,,,78,0,78,0,,,,,,,,,,,,,,,,,,,,,,,,,,,,,,,,,,,,,,,,,,,,,,,,,895.5888854999998,None,,,,,,,,,,,,,,,,,,,,,,,,,,,,,,,,,,,,,,,,,,,,,,,,,,,,,,,,,event,155,79,silent,new,yellow,893.9870275999997,None,n,893.9870275999997,None,"['n', 'return']","[1.1393173000001298, 1.5553654000000279]",893.9870275999997,None,,,79NA,001,2023_Aug_23_1726,ExactRep-v3-final,2021.2.3,59.96605921050437,
,,,,,,,,,,,,79,0,79,0,,,,,,,,,,,,,,,,,,,,,,,,,,,,,,,,,,,,,,,,,,,,,,,,,897.7575732,None,,,,,,,,,,,,,,,,,,,,,,,,,,,,,,,,,,,,,,,,,,,,,,,,,,,,,,,,,justice,38,80,sing,old,yellow,896.0891068000001,None,y,896.0891068000001,None,"['y', 'return']","[1.2532163999999284, 1.6292145000002165]",896.0891068000001,None,,,79NA,001,2023_Aug_23_1726,ExactRep-v3-final,2021.2.3,59.96605921050437,
,,,,,,,,,,,,80,0,80,0,,,,,,,,,,,,,,,,,,,,,,,,,,,,,,,,,,,,,,,,,,,,,,,,,900.6102931999999,None,,,,,,,,,,,,,,,,,,,,,,,,,,,,,,,,,,,,,,,,,,,,,,,,,,,,,,,,,freedom,228,81,aloud,new,yellow,898.2622999999999,None,n,898.2622999999999,None,"['n', 'return']","[1.9681588999997075, 2.304013599999962]",898.2622999999999,None,,,79NA,001,2023_Aug_23_1726,ExactRep-v3-final,2021.2.3,59.96605921050437,
,,,,,,,,,,,,81,0,81,0,,,,,,,,,,,,,,,,,,,,,,,,,,,,,,,,,,,,,,,,,,,,,,,,,902.6623347,None,,,,,,,,,,,,,,,,,,,,,,,,,,,,,,,,,,,,,,,,,,,,,,,,,,,,,,,,,month,235,82,sing,new,yellow,901.1107023,None,n,901.1107023,None,"['n', 'return']","[1.079648399999769, 1.5195980999997118]",901.1107023,None,,,79NA,001,2023_Aug_23_1726,ExactRep-v3-final,2021.2.3,59.96605921050437,
,,,,,,,,,,,,82,0,82,0,,,,,,,,,,,,,,,,,,,,,,,,,,,,,,,,,,,,,,,,,,,,,,,,,905.4026177000001,None,,,,,,,,,,,,,,,,,,,,,,,,,,,,,,,,,,,,,,,,,,,,,,,,,,,,,,,,,pupil,118,83,aloud,old,yellow,903.1655935999997,None,y,903.1655935999997,None,"['y', 'return']","[1.8806825000001481, 2.1847614000002977]",903.1655935999997,None,,,79NA,001,2023_Aug_23_1726,ExactRep-v3-final,2021.2.3,59.96605921050437,
,,,,,,,,,,,,83,0,83,0,,,,,,,,,,,,,,,,,,,,,,,,,,,,,,,,,,,,,,,,,,,,,,,,,908.3198234000001,None,,,,,,,,,,,,,,,,,,,,,,,,,,,,,,,,,,,,,,,,,,,,,,,,,,,,,,,,,church,209,84,sing,new,yellow,905.9159049999998,None,y,905.9159049999998,None,"['y', 'return']","[2.0665406999996776, 2.362421699999686]",905.9159049999998,None,,,79NA,001,2023_Aug_23_1726,ExactRep-v3-final,2021.2.3,59.96605921050437,
,,,,,,,,,,,,84,0,84,0,,,,,,,,,,,,,,,,,,,,,,,,,,,,,,,,,,,,,,,,,,,,,,,,,911.0231112000001,None,,,,,,,,,,,,,,,,,,,,,,,,,,,,,,,,,,,,,,,,,,,,,,,,,,,,,,,,,method,53,85,silent,old,yellow,908.8368050999998,None,n,908.8368050999998,None,"['n', 'return']","[1.809508199999982, 2.1374880999997004]",908.8368050999998,None,,,79NA,001,2023_Aug_23_1726,ExactRep-v3-final,2021.2.3,59.96605921050437,
,,,,,,,,,,,,85,0,85,0,,,,,,,,,,,,,,,,,,,,,,,,,,,,,,,,,,,,,,,,,,,,,,,,,913.4237921999998,None,,,,,,,,,,,,,,,,,,,,,,,,,,,,,,,,,,,,,,,,,,,,,,,,,,,,,,,,,heaven,202,86,aloud,new,yellow,911.5414339999998,None,n,911.5414339999998,None,"['n', 'return']","[1.0889016999999512, 1.8488518999997723]",911.5414339999998,None,,,79NA,001,2023_Aug_23_1726,ExactRep-v3-final,2021.2.3,59.96605921050437,
,,,,,,,,,,,,86,0,86,0,,,,,,,,,,,,,,,,,,,,,,,,,,,,,,,,,,,,,,,,,,,,,,,,,916.0599242999997,None,,,,,,,,,,,,,,,,,,,,,,,,,,,,,,,,,,,,,,,,,,,,,,,,,,,,,,,,,beast,143,87,silent,new,yellow,913.9255370999999,None,n,913.9255370999999,None,"['n', 'return']","[1.77679900000021, 2.096755700000358]",913.9255370999999,None,,,79NA,001,2023_Aug_23_1726,ExactRep-v3-final,2021.2.3,59.96605921050437,
,,,,,,,,,,,,87,0,87,0,,,,,,,,,,,,,,,,,,,,,,,,,,,,,,,,,,,,,,,,,,,,,,,,,919.913348,None,,,,,,,,,,,,,,,,,,,,,,,,,,,,,,,,,,,,,,,,,,,,,,,,,,,,,,,,,coin,197,88,sing,new,yellow,916.5607931,None,n,916.5607931,None,"['n', 'return']","[3.005483599999934, 3.30947789999982]",916.5607931,None,,,79NA,001,2023_Aug_23_1726,ExactRep-v3-final,2021.2.3,59.96605921050437,
,,,,,,,,,,,,88,0,88,0,,,,,,,,,,,,,,,,,,,,,,,,,,,,,,,,,,,,,,,,,,,,,,,,,922.2152157,None,,,,,,,,,,,,,,,,,,,,,,,,,,,,,,,,,,,,,,,,,,,,,,,,,,,,,,,,,fur,32,89,sing,old,yellow,920.4136172999997,None,y,920.4136172999997,None,"['y', 'return']","[1.3526366999999482, 1.76872800000001]",920.4136172999997,None,,,79NA,001,2023_Aug_23_1726,ExactRep-v3-final,2021.2.3,59.96605921050437,
,,,,,,,,,,,,89,0,89,0,,,,,,,,,,,,,,,,,,,,,,,,,,,,,,,,,,,,,,,,,,,,,,,,,924.9179423999999,None,,,,,,,,,,,,,,,,,,,,,,,,,,,,,,,,,,,,,,,,,,,,,,,,,,,,,,,,,string,188,90,aloud,new,yellow,922.7157506999997,None,n,922.7157506999997,None,"['n', 'return']","[1.7305132000001322, 2.154546400000072]",922.7157506999997,None,,,79NA,001,2023_Aug_23_1726,ExactRep-v3-final,2021.2.3,59.96605921050437,
,,,,,,,,,,,,90,0,90,0,,,,,,,,,,,,,,,,,,,,,,,,,,,,,,,,,,,,,,,,,,,,,,,,,927.2723102999998,None,,,,,,,,,,,,,,,,,,,,,,,,,,,,,,,,,,,,,,,,,,,,,,,,,,,,,,,,,dress,116,91,aloud,old,yellow,925.4217014000001,None,y,925.4217014000001,None,"['y', 'return']","[1.4486407000003965, 1.808607700000266]",925.4217014000001,None,,,79NA,001,2023_Aug_23_1726,ExactRep-v3-final,2021.2.3,59.96605921050437,
,,,,,,,,,,,,91,0,91,0,,,,,,,,,,,,,,,,,,,,,,,,,,,,,,,,,,,,,,,,,,,,,,,,,929.1229568999997,None,,,,,,,,,,,,,,,,,,,,,,,,,,,,,,,,,,,,,,,,,,,,,,,,,,,,,,,,,dawn,183,92,sing,new,yellow,927.7915226,None,n,927.7915226,None,"['n', 'return']","[0.990820800000165, 1.2868901000001642]",927.7915226,None,,,79NA,001,2023_Aug_23_1726,ExactRep-v3-final,2021.2.3,59.96605921050437,
,,,,,,,,,,,,92,0,92,0,,,,,,,,,,,,,,,,,,,,,,,,,,,,,,,,,,,,,,,,,,,,,,,,,931.1575923,None,,,,,,,,,,,,,,,,,,,,,,,,,,,,,,,,,,,,,,,,,,,,,,,,,,,,,,,,,mercy,229,93,sing,new,yellow,929.6272940999997,None,n,929.6272940999997,None,"['n', 'return']","[1.1150511000000733, 1.4909942000003866]",929.6272940999997,None,,,79NA,001,2023_Aug_23_1726,ExactRep-v3-final,2021.2.3,59.96605921050437,
,,,,,,,,,,,,93,0,93,0,,,,,,,,,,,,,,,,,,,,,,,,,,,,,,,,,,,,,,,,,,,,,,,,,936.1961216,None,,,,,,,,,,,,,,,,,,,,,,,,,,,,,,,,,,,,,,,,,,,,,,,,,,,,,,,,,lake,100,94,aloud,old,yellow,931.6603365000001,None,n,931.6603365000001,None,"['y', 'backspace', 'n', 'return']","[1.5619507999999769, 3.8180521000003864, 4.186076299999968, 4.490402000000358]",931.6603365000001,None,,,79NA,001,2023_Aug_23_1726,ExactRep-v3-final,2021.2.3,59.96605921050437,
,,,,,,,,,,,,94,0,94,0,,,,,,,,,,,,,,,,,,,,,,,,,,,,,,,,,,,,,,,,,,,,,,,,,938.2311857999998,None,,,,,,,,,,,,,,,,,,,,,,,,,,,,,,,,,,,,,,,,,,,,,,,,,,,,,,,,,money,210,95,aloud,new,yellow,936.7011607,None,n,936.7011607,None,"['n', 'return']","[1.1530822999998236, 1.4971852999997282]",936.7011607,None,,,79NA,001,2023_Aug_23_1726,ExactRep-v3-final,2021.2.3,59.96605921050437,
,,,,,,,,,,,,95,0,95,0,,,,,,,,,,,,,,,,,,,,,,,,,,,,,,,,,,,,,,,,,,,,,,,,,940.4170448999998,None,,,,,,,,,,,,,,,,,,,,,,,,,,,,,,,,,,,,,,,,,,,,,,,,,,,,,,,,,volume,215,96,sing,new,yellow,938.7373841999997,None,n,938.7373841999997,None,"['n', 'return']","[1.1728342000001248, 1.6368600999999217]",938.7373841999997,None,,,79NA,001,2023_Aug_23_1726,ExactRep-v3-final,2021.2.3,59.96605921050437,
,,,,,,,,,,,,96,0,96,0,,,,,,,,,,,,,,,,,,,,,,,,,,,,,,,,,,,,,,,,,,,,,,,,,942.8693708999999,None,,,,,,,,,,,,,,,,,,,,,,,,,,,,,,,,,,,,,,,,,,,,,,,,,,,,,,,,,excuse,107,97,aloud,old,yellow,940.9174211,None,n,940.9174211,None,"['n', 'return']","[1.6008521999997356, 1.9129149000000325]",940.9174211,None,,,79NA,001,2023_Aug_23_1726,ExactRep-v3-final,2021.2.3,59.96605921050437,
,,,,,,,,,,,,97,0,97,0,,,,,,,,,,,,,,,,,,,,,,,,,,,,,,,,,,,,,,,,,,,,,,,,,945.3412220999999,None,,,,,,,,,,,,,,,,,,,,,,,,,,,,,,,,,,,,,,,,,,,,,,,,,,,,,,,,,dream,212,98,aloud,new,yellow,943.3706280000001,None,y,943.3706280000001,None,"['y', 'return']","[1.6196385999996892, 1.9316391999996085]",943.3706280000001,None,,,79NA,001,2023_Aug_23_1726,ExactRep-v3-final,2021.2.3,59.96605921050437,
,,,,,,,,,,,,98,0,98,0,,,,,,,,,,,,,,,,,,,,,,,,,,,,,,,,,,,,,,,,,,,,,,,,,949.8599405,None,,,,,,,,,,,,,,,,,,,,,,,,,,,,,,,,,,,,,,,,,,,,,,,,,,,,,,,,,water,96,99,aloud,old,yellow,945.8556727,None,y,945.8556727,None,"['y', 'return']","[3.6785604000001513, 3.9585708999998133]",945.8556727,None,,,79NA,001,2023_Aug_23_1726,ExactRep-v3-final,2021.2.3,59.96605921050437,
,,,,,,,,,,,,99,0,99,0,,,,,,,,,,,,,,,,,,,,,,,,,,,,,,,,,,,,,,,,,,,,,,,,,951.7613391999998,None,,,,,,,,,,,,,,,,,,,,,,,,,,,,,,,,,,,,,,,,,,,,,,,,,,,,,,,,,silence,206,100,aloud,new,yellow,950.36087,None,n,950.36087,None,"['n', 'return']","[1.0773855000002186, 1.365428100000372]",950.36087,None,,,79NA,001,2023_Aug_23_1726,ExactRep-v3-final,2021.2.3,59.96605921050437,
,,,,,,,,,,,,100,0,100,0,,,,,,,,,,,,,,,,,,,,,,,,,,,,,,,,,,,,,,,,,,,,,,,,,953.7315064,None,,,,,,,,,,,,,,,,,,,,,,,,,,,,,,,,,,,,,,,,,,,,,,,,,,,,,,,,,earth,113,101,aloud,old,yellow,952.2620059999999,None,y,952.2620059999999,None,"['y', 'return']","[1.0722239000001537, 1.4242693999999574]",952.2620059999999,None,,,79NA,001,2023_Aug_23_1726,ExactRep-v3-final,2021.2.3,59.96605921050437,
,,,,,,,,,,,,101,0,101,0,,,,,,,,,,,,,,,,,,,,,,,,,,,,,,,,,,,,,,,,,,,,,,,,,955.5986684,None,,,,,,,,,,,,,,,,,,,,,,,,,,,,,,,,,,,,,,,,,,,,,,,,,,,,,,,,,meat,186,102,aloud,new,yellow,954.2306639999997,None,n,954.2306639999997,None,"['n', 'return']","[1.031625399999939, 1.327679800000169]",954.2306639999997,None,,,79NA,001,2023_Aug_23_1726,ExactRep-v3-final,2021.2.3,59.96605921050437,
,,,,,,,,,,,,102,0,102,0,,,,,,,,,,,,,,,,,,,,,,,,,,,,,,,,,,,,,,,,,,,,,,,,,957.7342472999999,None,,,,,,,,,,,,,,,,,,,,,,,,,,,,,,,,,,,,,,,,,,,,,,,,,,,,,,,,,engine,4,103,sing,old,yellow,956.103944,None,y,956.103944,None,"['y', 'return']","[1.2463318999998592, 1.5904500000001462]",956.103944,None,,,79NA,001,2023_Aug_23_1726,ExactRep-v3-final,2021.2.3,59.96605921050437,
,,,,,,,,,,,,103,0,103,0,,,,,,,,,,,,,,,,,,,,,,,,,,,,,,,,,,,,,,,,,,,,,,,,,959.6859481000001,None,,,,,,,,,,,,,,,,,,,,,,,,,,,,,,,,,,,,,,,,,,,,,,,,,,,,,,,,,artist,24,104,sing,old,yellow,958.2346954,None,y,958.2346954,None,"['y', 'return']","[1.0515835000001061, 1.4115778000000319]",958.2346954,None,,,79NA,001,2023_Aug_23_1726,ExactRep-v3-final,2021.2.3,59.96605921050437,
,,,,,,,,,,,,104,0,104,0,,,,,,,,,,,,,,,,,,,,,,,,,,,,,,,,,,,,,,,,,,,,,,,,,961.9051288999999,None,,,,,,,,,,,,,,,,,,,,,,,,,,,,,,,,,,,,,,,,,,,,,,,,,,,,,,,,,health,129,105,silent,new,yellow,960.2012722,None,n,960.2012722,None,"['n', 'return']","[1.3410221999997702, 1.669096300000092]",960.2012722,None,,,79NA,001,2023_Aug_23_1726,ExactRep-v3-final,2021.2.3,59.96605921050437,
,,,,,,,,,,,,105,0,105,0,,,,,,,,,,,,,,,,,,,,,,,,,,,,,,,,,,,,,,,,,,,,,,,,,963.6234924,None,,,,,,,,,,,,,,,,,,,,,,,,,,,,,,,,,,,,,,,,,,,,,,,,,,,,,,,,,king,176,106,aloud,new,yellow,962.4054685000001,None,n,962.4054685000001,None,"['n', 'return']","[0.9047913999997945, 1.1768839999999727]",962.4054685000001,None,,,79NA,001,2023_Aug_23_1726,ExactRep-v3-final,2021.2.3,59.96605921050437,
,,,,,,,,,,,,106,0,106,0,,,,,,,,,,,,,,,,,,,,,,,,,,,,,,,,,,,,,,,,,,,,,,,,,965.5750684,None,,,,,,,,,,,,,,,,,,,,,,,,,,,,,,,,,,,,,,,,,,,,,,,,,,,,,,,,,house,65,107,silent,old,yellow,964.1283248,None,n,964.1283248,None,"['n', 'return']","[1.134172800000215, 1.4063897000000907]",964.1283248,None,,,79NA,001,2023_Aug_23_1726,ExactRep-v3-final,2021.2.3,59.96605921050437,
,,,,,,,,,,,,107,0,107,0,,,,,,,,,,,,,,,,,,,,,,,,,,,,,,,,,,,,,,,,,,,,,,,,,969.1787820999998,None,,,,,,,,,,,,,,,,,,,,,,,,,,,,,,,,,,,,,,,,,,,,,,,,,,,,,,,,,opinion,27,108,sing,old,yellow,966.0757555999999,None,n,966.0757555999999,None,"['n', 'return']","[2.7945176999996875, 3.0665633999997226]",966.0757555999999,None,,,79NA,001,2023_Aug_23_1726,ExactRep-v3-final,2021.2.3,59.96605921050437,
,,,,,,,,,,,,108,0,108,0,,,,,,,,,,,,,,,,,,,,,,,,,,,,,,,,,,,,,,,,,,,,,,,,,970.8305950999998,None,,,,,,,,,,,,,,,,,,,,,,,,,,,,,,,,,,,,,,,,,,,,,,,,,,,,,,,,,dollar,123,109,silent,new,yellow,969.6815102999999,None,n,969.6815102999999,None,"['n', 'return']","[0.8291046999997889, 1.1087918999996873]",969.6815102999999,None,,,79NA,001,2023_Aug_23_1726,ExactRep-v3-final,2021.2.3,59.96605921050437,
,,,,,,,,,,,,109,0,109,0,,,,,,,,,,,,,,,,,,,,,,,,,,,,,,,,,,,,,,,,,,,,,,,,,972.7823599999997,None,,,,,,,,,,,,,,,,,,,,,,,,,,,,,,,,,,,,,,,,,,,,,,,,,,,,,,,,,board,5,110,sing,old,yellow,971.3336297000001,None,n,971.3336297000001,None,"['n', 'return']","[1.1366628000000674, 1.400926900000286]",971.3336297000001,None,,,79NA,001,2023_Aug_23_1726,ExactRep-v3-final,2021.2.3,59.96605921050437,
,,,,,,,,,,,,110,0,110,0,,,,,,,,,,,,,,,,,,,,,,,,,,,,,,,,,,,,,,,,,,,,,,,,,974.734563,None,,,,,,,,,,,,,,,,,,,,,,,,,,,,,,,,,,,,,,,,,,,,,,,,,,,,,,,,,lip,77,111,silent,old,yellow,973.2836288999997,None,n,973.2836288999997,None,"['n', 'return']","[1.1066497000001618, 1.4026450999999724]",973.2836288999997,None,,,79NA,001,2023_Aug_23_1726,ExactRep-v3-final,2021.2.3,59.96605921050437,
,,,,,,,,,,,,111,0,111,0,,,,,,,,,,,,,,,,,,,,,,,,,,,,,,,,,,,,,,,,,,,,,,,,,976.6363154999999,None,,,,,,,,,,,,,,,,,,,,,,,,,,,,,,,,,,,,,,,,,,,,,,,,,,,,,,,,,temple,57,112,silent,old,yellow,975.2382322999997,None,y,975.2382322999997,None,"['y', 'return']","[1.0400556999998116, 1.3519953999998506]",975.2382322999997,None,,,79NA,001,2023_Aug_23_1726,ExactRep-v3-final,2021.2.3,59.96605921050437,
,,,,,,,,,,,,112,0,112,0,,,,,,,,,,,,,,,,,,,,,,,,,,,,,,,,,,,,,,,,,,,,,,,,,979.1053813999997,None,,,,,,,,,,,,,,,,,,,,,,,,,,,,,,,,,,,,,,,,,,,,,,,,,,,,,,,,,seat,164,113,aloud,new,yellow,977.1370346999997,None,y,977.1370346999997,None,"['y', 'return']","[1.6212012999999388, 1.9252784000000247]",977.1370346999997,None,,,79NA,001,2023_Aug_23_1726,ExactRep-v3-final,2021.2.3,59.96605921050437,
,,,,,,,,,,,,113,0,113,0,,,,,,,,,,,,,,,,,,,,,,,,,,,,,,,,,,,,,,,,,,,,,,,,,981.9081590999999,None,,,,,,,,,,,,,,,,,,,,,,,,,,,,,,,,,,,,,,,,,,,,,,,,,,,,,,,,,body,234,114,aloud,new,yellow,979.6098165999997,None,n,979.6098165999997,None,"['n', 'return']","[2.0044056000001547, 2.260457700000188]",979.6098165999997,None,,,79NA,001,2023_Aug_23_1726,ExactRep-v3-final,2021.2.3,59.96605921050437,
,,,,,,,,,,,,114,0,114,0,,,,,,,,,,,,,,,,,,,,,,,,,,,,,,,,,,,,,,,,,,,,,,,,,983.7099705999999,None,,,,,,,,,,,,,,,,,,,,,,,,,,,,,,,,,,,,,,,,,,,,,,,,,,,,,,,,,boy,208,115,aloud,new,yellow,982.4094964000001,None,n,982.4094964000001,None,"['n', 'return']","[0.9727570000000014, 1.2687756999998783]",982.4094964000001,None,,,79NA,001,2023_Aug_23_1726,ExactRep-v3-final,2021.2.3,59.96605921050437,
,,,,,,,,,,,,115,0,115,0,,,,,,,,,,,,,,,,,,,,,,,,,,,,,,,,,,,,,,,,,,,,,,,,,985.5786296000001,None,,,,,,,,,,,,,,,,,,,,,,,,,,,,,,,,,,,,,,,,,,,,,,,,,,,,,,,,,sea,157,116,silent,new,yellow,984.2105653999997,None,n,984.2105653999997,None,"['n', 'return']","[1.01968880000004, 1.3237242000000151]",984.2105653999997,None,,,79NA,001,2023_Aug_23_1726,ExactRep-v3-final,2021.2.3,59.96605921050437,
,,,,,,,,,,,,116,0,116,0,,,,,,,,,,,,,,,,,,,,,,,,,,,,,,,,,,,,,,,,,,,,,,,,,987.6695872,None,,,,,,,,,,,,,,,,,,,,,,,,,,,,,,,,,,,,,,,,,,,,,,,,,,,,,,,,,library,161,117,sing,new,yellow,986.0825436999999,None,y,986.0825436999999,None,"['y', 'return']","[1.1957568000002539, 1.547740700000304]",986.0825436999999,None,,,79NA,001,2023_Aug_23_1726,ExactRep-v3-final,2021.2.3,59.96605921050437,
,,,,,,,,,,,,117,0,117,0,,,,,,,,,,,,,,,,,,,,,,,,,,,,,,,,,,,,,,,,,,,,,,,,,989.5829011000001,None,,,,,,,,,,,,,,,,,,,,,,,,,,,,,,,,,,,,,,,,,,,,,,,,,,,,,,,,,pride,102,118,aloud,old,yellow,988.1814423000001,None,y,988.1814423000001,None,"['y', 'return']","[1.0568252000002758, 1.3608741000002738]",988.1814423000001,None,,,79NA,001,2023_Aug_23_1726,ExactRep-v3-final,2021.2.3,59.96605921050437,
,,,,,,,,,,,,118,0,118,0,,,,,,,,,,,,,,,,,,,,,,,,,,,,,,,,,,,,,,,,,,,,,,,,,992.5856365,None,,,,,,,,,,,,,,,,,,,,,,,,,,,,,,,,,,,,,,,,,,,,,,,,,,,,,,,,,hall,220,119,aloud,new,yellow,990.0830117999999,None,n,990.0830117999999,None,"['n', 'return']","[2.1553946999997606, 2.4672912000000906]",990.0830117999999,None,,,79NA,001,2023_Aug_23_1726,ExactRep-v3-final,2021.2.3,59.96605921050437,
,,,,,,,,,,,,119,0,119,0,,,,,,,,,,,,,,,,,,,,,,,,,,,,,,,,,,,,,,,,,,,,,,,,,994.5724154999998,None,,,,,,,,,,,,,,,,,,,,,,,,,,,,,,,,,,,,,,,,,,,,,,,,,,,,,,,,,coast,93,120,aloud,old,yellow,993.0860629999997,None,y,993.0860629999997,None,"['y', 'return']","[1.0323026999999456, 1.4401789000003191]",993.0860629999997,None,,,79NA,001,2023_Aug_23_1726,ExactRep-v3-final,2021.2.3,59.96605921050437,
,,,,,,,,,,,,120,0,120,0,,,,,,,,,,,,,,,,,,,,,,,,,,,,,,,,,,,,,,,,,,,,,,,,,997.3236206000001,None,,,,,,,,,,,,,,,,,,,,,,,,,,,,,,,,,,,,,,,,,,,,,,,,,,,,,,,,,friend,60,121,silent,old,yellow,995.0722258000001,None,n,995.0722258000001,None,"['n', 'return']","[1.8940015000002859, 2.206032700000378]",995.0722258000001,None,,,79NA,001,2023_Aug_23_1726,ExactRep-v3-final,2021.2.3,59.96605921050437,
,,,,,,,,,,,,121,0,121,0,,,,,,,,,,,,,,,,,,,,,,,,,,,,,,,,,,,,,,,,,,,,,,,,,999.158848,None,,,,,,,,,,,,,,,,,,,,,,,,,,,,,,,,,,,,,,,,,,,,,,,,,,,,,,,,,lord,114,122,aloud,old,yellow,997.8252168999998,None,y,997.8252168999998,None,"['y', 'return']","[0.9491407000000436, 1.2930957000003218]",997.8252168999998,None,,,79NA,001,2023_Aug_23_1726,ExactRep-v3-final,2021.2.3,59.96605921050437,
,,,,,,,,,,,,122,0,122,0,,,,,,,,,,,,,,,,,,,,,,,,,,,,,,,,,,,,,,,,,,,,,,,,,1001.6481693999999,None,,,,,,,,,,,,,,,,,,,,,,,,,,,,,,,,,,,,,,,,,,,,,,,,,,,,,,,,,power,88,123,aloud,old,yellow,999.6609920999999,None,n,999.6609920999999,None,"['n', 'return']","[1.689299299999675, 1.9373536999996759]",999.6609920999999,None,,,79NA,001,2023_Aug_23_1726,ExactRep-v3-final,2021.2.3,59.96605921050437,
,,,,,,,,,,,,123,0,123,0,,,,,,,,,,,,,,,,,,,,,,,,,,,,,,,,,,,,,,,,,,,,,,,,,1003.864298,None,,,,,,,,,,,,,,,,,,,,,,,,,,,,,,,,,,,,,,,,,,,,,,,,,,,,,,,,,effort,98,124,aloud,old,yellow,1002.1616303999999,None,n,1002.1616303999999,None,"['n', 'return']","[1.3486053000001448, 1.668686600000001]",1002.1616303999999,None,,,79NA,001,2023_Aug_23_1726,ExactRep-v3-final,2021.2.3,59.96605921050437,
,,,,,,,,,,,,124,0,124,0,,,,,,,,,,,,,,,,,,,,,,,,,,,,,,,,,,,,,,,,,,,,,,,,,1005.7494698999999,None,,,,,,,,,,,,,,,,,,,,,,,,,,,,,,,,,,,,,,,,,,,,,,,,,,,,,,,,,passion,230,125,aloud,new,yellow,1004.3667191999998,None,n,1004.3667191999998,None,"['n', 'return']","[1.0715320999997857, 1.3438068000000385]",1004.3667191999998,None,,,79NA,001,2023_Aug_23_1726,ExactRep-v3-final,2021.2.3,59.96605921050437,
,,,,,,,,,,,,125,0,125,0,,,,,,,,,,,,,,,,,,,,,,,,,,,,,,,,,,,,,,,,,,,,,,,,,1007.5358547000001,None,,,,,,,,,,,,,,,,,,,,,,,,,,,,,,,,,,,,,,,,,,,,,,,,,,,,,,,,,letter,7,126,sing,old,yellow,1006.2505059,None,y,1006.2505059,None,"['y', 'return']","[0.9557353999998668, 1.2517276999997193]",1006.2505059,None,,,79NA,001,2023_Aug_23_1726,ExactRep-v3-final,2021.2.3,59.96605921050437,
,,,,,,,,,,,,126,0,126,0,,,,,,,,,,,,,,,,,,,,,,,,,,,,,,,,,,,,,,,,,,,,,,,,,1009.6924574,None,,,,,,,,,,,,,,,,,,,,,,,,,,,,,,,,,,,,,,,,,,,,,,,,,,,,,,,,,cash,127,127,silent,new,yellow,1008.0509158999998,None,n,1008.0509158999998,None,"['n', 'return']","[1.3233890999999858, 1.5872922999997172]",1008.0509158999998,None,,,79NA,001,2023_Aug_23_1726,ExactRep-v3-final,2021.2.3,59.96605921050437,
,,,,,,,,,,,,127,0,127,0,,,,,,,,,,,,,,,,,,,,,,,,,,,,,,,,,,,,,,,,,,,,,,,,,1011.6572873,None,,,,,,,,,,,,,,,,,,,,,,,,,,,,,,,,,,,,,,,,,,,,,,,,,,,,,,,,,time,145,128,silent,new,yellow,1010.2064654000001,None,n,1010.2064654000001,None,"['n', 'return']","[1.1198188000003029, 1.3997822999999698]",1010.2064654000001,None,,,79NA,001,2023_Aug_23_1726,ExactRep-v3-final,2021.2.3,59.96605921050437,
,,,,,,,,,,,,128,0,128,0,,,,,,,,,,,,,,,,,,,,,,,,,,,,,,,,,,,,,,,,,,,,,,,,,1013.6285915999997,None,,,,,,,,,,,,,,,,,,,,,,,,,,,,,,,,,,,,,,,,,,,,,,,,,,,,,,,,,meeting,16,129,sing,old,yellow,1012.1720863999999,None,n,1012.1720863999999,None,"['n', 'return']","[1.0262013999999908, 1.4181730999998763]",1012.1720863999999,None,,,79NA,001,2023_Aug_23_1726,ExactRep-v3-final,2021.2.3,59.96605921050437,
,,,,,,,,,,,,129,0,129,0,,,,,,,,,,,,,,,,,,,,,,,,,,,,,,,,,,,,,,,,,,,,,,,,,1018.5615617999997,None,,,,,,,,,,,,,,,,,,,,,,,,,,,,,,,,,,,,,,,,,,,,,,,,,,,,,,,,,life,151,130,silent,new,yellow,1014.1403099999998,None,n,1014.1403099999998,None,"['n', 'return']","[4.057945899999595, 4.378063499999826]",1014.1403099999998,None,,,79NA,001,2023_Aug_23_1726,ExactRep-v3-final,2021.2.3,59.96605921050437,
,,,,,,,,,,,,130,0,130,0,,,,,,,,,,,,,,,,,,,,,,,,,,,,,,,,,,,,,,,,,,,,,,,,,1021.1170698999999,None,,,,,,,,,,,,,,,,,,,,,,,,,,,,,,,,,,,,,,,,,,,,,,,,,,,,,,,,,fortune,180,131,aloud,new,yellow,1019.0639747999999,None,n,1019.0639747999999,None,"['n', 'return']","[1.694453799999792, 2.0062658000001647]",1019.0639747999999,None,,,79NA,001,2023_Aug_23_1726,ExactRep-v3-final,2021.2.3,59.96605921050437,
,,,,,,,,,,,,131,0,131,0,,,,,,,,,,,,,,,,,,,,,,,,,,,,,,,,,,,,,,,,,,,,,,,,,1023.4841815999998,None,,,,,,,,,,,,,,,,,,,,,,,,,,,,,,,,,,,,,,,,,,,,,,,,,,,,,,,,,person,99,132,aloud,old,yellow,1021.6323222000001,None,n,1021.6323222000001,None,"['n', 'return']","[1.453908400000273, 1.8061219000001074]",1021.6323222000001,None,,,79NA,001,2023_Aug_23_1726,ExactRep-v3-final,2021.2.3,59.96605921050437,
,,,,,,,,,,,,132,0,132,0,,,,,,,,,,,,,,,,,,,,,,,,,,,,,,,,,,,,,,,,,,,,,,,,,1025.4877007999999,None,,,,,,,,,,,,,,,,,,,,,,,,,,,,,,,,,,,,,,,,,,,,,,,,,,,,,,,,,safety,182,133,aloud,new,yellow,1023.9956594999999,None,n,1023.9956594999999,None,"['n', 'return']","[1.106559400000151, 1.4585823000002165]",1023.9956594999999,None,,,79NA,001,2023_Aug_23_1726,ExactRep-v3-final,2021.2.3,59.96605921050437,
,,,,,,,,,,,,133,0,133,0,,,,,,,,,,,,,,,,,,,,,,,,,,,,,,,,,,,,,,,,,,,,,,,,,1028.0209037999998,None,,,,,,,,,,,,,,,,,,,,,,,,,,,,,,,,,,,,,,,,,,,,,,,,,,,,,,,,,cabin,146,134,silent,new,yellow,1026.002375,None,y,1026.002375,None,"['y', 'return']","[1.5958949000000757, 1.9801549999997405]",1026.002375,None,,,79NA,001,2023_Aug_23_1726,ExactRep-v3-final,2021.2.3,59.96605921050437,
