trials_fam.thisRepN,trials_fam.thisTrialN,trials_fam.thisN,trials_fam.thisIndex,trials_prc.thisRepN,trials_prc.thisTrialN,trials_prc.thisN,trials_prc.thisIndex,StudyLoop.thisRepN,StudyLoop.thisTrialN,StudyLoop.thisN,StudyLoop.thisIndex,TestLoop.thisRepN,TestLoop.thisTrialN,TestLoop.thisN,TestLoop.thisIndex,text_colortest.started,text_colortest.stopped,key_colortest.keys,key_colortest.rt,key_colortest.started,key_colortest.stopped,textCondition.started,textCondition.stopped,keyCondition.keys,keyCondition.rt,keyCondition.started,keyCondition.stopped,Condition_between,Condition_counterbal,keyWelcome.keys,keyWelcome.rt,keyWelcome.started,keyWelcome.stopped,welcome_a.started,welcome_a.stopped,welcome_b.started,welcome_b.stopped,welcome_c.started,welcome_c.stopped,welcome_d.started,welcome_d.stopped,welcome_e.started,welcome_e.stopped,welcome_f.started,welcome_f.stopped,key_resp_fam_inst.keys,key_resp_fam_inst.rt,key_resp_fam_inst.started,key_resp_fam_inst.stopped,fam_a.started,fam_a.stopped,fam_b.started,fam_b.stopped,fam_c.started,fam_c.stopped,fam_d.started,fam_d.stopped,fam_e.started,fam_e.stopped,fam_f.started,fam_f.stopped,text_famil.started,text_famil.stopped,textBlank500.started,textBlank500.stopped,key_resp_prc_inst.keys,key_resp_prc_inst.rt,key_resp_prc_inst.started,key_resp_prc_inst.stopped,prac_a.started,prac_a.stopped,prac_b.started,prac_b.stopped,prac_c.started,prac_c.stopped,prac_d.started,prac_d.stopped,prac_e.started,prac_e.stopped,prac_f.started,prac_f.stopped,text_prc_trial.started,text_prc_trial.stopped,key_resp_study_inst.keys,key_resp_study_inst.rt,key_resp_study_inst.started,key_resp_study_inst.stopped,crit_a.started,crit_a.stopped,crit_b.started,crit_b.stopped,crit_c.started,crit_c.stopped,crit_d.started,crit_d.stopped,crit_e.started,crit_e.stopped,crit_f.started,crit_f.stopped,study_word,study_num,study_order,study_type,word_color,textStudy.started,textStudy.stopped,keyStudy.keys,keyStudy.started,keyStudy.stopped,post_study.started,post_study.stopped,key_resp_post_study.keys,key_resp_post_study.rt,key_resp_post_study.started,key_resp_post_study.stopped,test_inst.started,test_inst.stopped,key_resp_test_inst.keys,key_resp_test_inst.rt,key_resp_test_inst.started,key_resp_test_inst.stopped,test_word,test_num,test_order,test_condition,old_new_test,word_color_test,textConf.started,textConf.stopped,Participant Response,textInput.started,textInput.stopped,keyResp.keys,keyResp.rt,keyResp.started,keyResp.stopped,textEnd.started,textEnd.stopped,participant,session,date,expName,psychopyVersion,frameRate,
,,,,,,,,,,,,,,,,16.78923340002075,None,n,2.3784592000301927,16.78923340002075,None,,,,,,,,,,,,,,,,,,,,,,,,,,,,,,,,,,,,,,,,,,,,,,,,,,,,,,,,,,,,,,,,,,,,,,,,,,,,,,,,,,,,,,,,,,,,,,,,,,,,,,,,,,,,,,,,,,,,,,7,001,2023_Feb_01_1103,ExactRep-v3-final,2021.2.3,59.93137857925608,
,,,,,,,,,,,,,,,,,,,,,,19.196411900105886,None,a,0.7551309999544173,19.196411900105886,None,,,,,,,,,,,,,,,,,,,,,,,,,,,,,,,,,,,,,,,,,,,,,,,,,,,,,,,,,,,,,,,,,,,,,,,,,,,,,,,,,,,,,,,,,,,,,,,,,,,,,,,,,,,,,,,,7,001,2023_Feb_01_1103,ExactRep-v3-final,2021.2.3,59.93137857925608,
,,,,,,,,,,,,,,,,,,,,,,,,,,,,whitefoils,a,space,312.1471433000406,30.100436500040814,None,,,,,,,,,,,,,,,,,,,,,,,,,,,,,,,,,,,,,,,,,,,,,,,,,,,,,,,,,,,,,,,,,,,,,,,,,,,,,,,,,,,,,,,,,,,,,,,,,,,,,,,,,,7,001,2023_Feb_01_1103,ExactRep-v3-final,2021.2.3,59.93137857925608,
,,,,,,,,,,,,,,,,,,,,,,,,,,,,,,,,,,20.1303153000772,None,20.1303153000772,None,20.1303153000772,None,20.1303153000772,None,20.1303153000772,None,20.1303153000772,None,space,21.14225150004495,352.3852609000169,None,,,,,,,,,,,,,,,,,,,,,,,,,,,,,,,,,,,,,,,,,,,,,,,,,,,,,,,,,,,,,,,,,,,,,,,,,,,,,,,,,,,,,,,,,,7,001,2023_Feb_01_1103,ExactRep-v3-final,2021.2.3,59.93137857925608,
0,0,0,0,,,,,,,,,,,,,,,,,,,,,,,,,,,,,,,,,,,,,,,,,,,,,,,342.4060188001022,None,342.4060188001022,None,342.4060188001022,None,342.4060188001022,None,342.4060188001022,None,342.4060188001022,None,373.63551610009745,None,375.6357503000181,None,,,,,,,,,,,,,,,,,,,,,,,,,,,,,,,,,,,,,,,,,,,,,,,,,,,,,,,,,,,,,,,,,,,,,,,,,,7,001,2023_Feb_01_1103,ExactRep-v3-final,2021.2.3,59.93137857925608,
1,0,1,0,,,,,,,,,,,,,,,,,,,,,,,,,,,,,,,,,,,,,,,,,,,,,,,,,,,,,,,,,,,376.1444823000347,None,378.15498079999816,None,,,,,,,,,,,,,,,,,,,,,,,,,,,,,,,,,,,,,,,,,,,,,,,,,,,,,,,,,,,,,,,,,,,,,,,,,,7,001,2023_Feb_01_1103,ExactRep-v3-final,2021.2.3,59.93137857925608,
2,0,2,0,,,,,,,,,,,,,,,,,,,,,,,,,,,,,,,,,,,,,,,,,,,,,,,,,,,,,,,,,,,378.66341820009984,None,380.6743472000817,None,,,,,,,,,,,,,,,,,,,,,,,,,,,,,,,,,,,,,,,,,,,,,,,,,,,,,,,,,,,,,,,,,,,,,,,,,,7,001,2023_Feb_01_1103,ExactRep-v3-final,2021.2.3,59.93137857925608,
3,0,3,0,,,,,,,,,,,,,,,,,,,,,,,,,,,,,,,,,,,,,,,,,,,,,,,,,,,,,,,,,,,381.18103150010575,None,383.1933328000596,None,,,,,,,,,,,,,,,,,,,,,,,,,,,,,,,,,,,,,,,,,,,,,,,,,,,,,,,,,,,,,,,,,,,,,,,,,,7,001,2023_Feb_01_1103,ExactRep-v3-final,2021.2.3,59.93137857925608,
4,0,4,0,,,,,,,,,,,,,,,,,,,,,,,,,,,,,,,,,,,,,,,,,,,,,,,,,,,,,,,,,,,383.6940064000664,None,385.69539880007505,None,,,,,,,,,,,,,,,,,,,,,,,,,,,,,,,,,,,,,,,,,,,,,,,,,,,,,,,,,,,,,,,,,,,,,,,,,,7,001,2023_Feb_01_1103,ExactRep-v3-final,2021.2.3,59.93137857925608,
5,0,5,0,,,,,,,,,,,,,,,,,,,,,,,,,,,,,,,,,,,,,,,,,,,,,,,,,,,,,,,,,,,386.1990110001061,None,388.19811310002115,None,,,,,,,,,,,,,,,,,,,,,,,,,,,,,,,,,,,,,,,,,,,,,,,,,,,,,,,,,,,,,,,,,,,,,,,,,,7,001,2023_Feb_01_1103,ExactRep-v3-final,2021.2.3,59.93137857925608,
6,0,6,0,,,,,,,,,,,,,,,,,,,,,,,,,,,,,,,,,,,,,,,,,,,,,,,,,,,,,,,,,,,388.6987546000164,None,390.7008133000927,None,,,,,,,,,,,,,,,,,,,,,,,,,,,,,,,,,,,,,,,,,,,,,,,,,,,,,,,,,,,,,,,,,,,,,,,,,,7,001,2023_Feb_01_1103,ExactRep-v3-final,2021.2.3,59.93137857925608,
7,0,7,0,,,,,,,,,,,,,,,,,,,,,,,,,,,,,,,,,,,,,,,,,,,,,,,,,,,,,,,,,,,391.20323640003335,None,393.2033258000156,None,,,,,,,,,,,,,,,,,,,,,,,,,,,,,,,,,,,,,,,,,,,,,,,,,,,,,,,,,,,,,,,,,,,,,,,,,,7,001,2023_Feb_01_1103,ExactRep-v3-final,2021.2.3,59.93137857925608,
8,0,8,0,,,,,,,,,,,,,,,,,,,,,,,,,,,,,,,,,,,,,,,,,,,,,,,,,,,,,,,,,,,393.70384080009535,None,395.7058086000616,None,,,,,,,,,,,,,,,,,,,,,,,,,,,,,,,,,,,,,,,,,,,,,,,,,,,,,,,,,,,,,,,,,,,,,,,,,,7,001,2023_Feb_01_1103,ExactRep-v3-final,2021.2.3,59.93137857925608,
9,0,9,0,,,,,,,,,,,,,,,,,,,,,,,,,,,,,,,,,,,,,,,,,,,,,,,,,,,,,,,,,,,396.2063433000585,None,398.2084146999987,None,,,,,,,,,,,,,,,,,,,,,,,,,,,,,,,,,,,,,,,,,,,,,,,,,,,,,,,,,,,,,,,,,,,,,,,,,,7,001,2023_Feb_01_1103,ExactRep-v3-final,2021.2.3,59.93137857925608,
10,0,10,0,,,,,,,,,,,,,,,,,,,,,,,,,,,,,,,,,,,,,,,,,,,,,,,,,,,,,,,,,,,398.7136179000372,None,400.7272882000543,None,,,,,,,,,,,,,,,,,,,,,,,,,,,,,,,,,,,,,,,,,,,,,,,,,,,,,,,,,,,,,,,,,,,,,,,,,,7,001,2023_Feb_01_1103,ExactRep-v3-final,2021.2.3,59.93137857925608,
11,0,11,0,,,,,,,,,,,,,,,,,,,,,,,,,,,,,,,,,,,,,,,,,,,,,,,,,,,,,,,,,,,401.23446570010856,None,403.2468097000383,None,,,,,,,,,,,,,,,,,,,,,,,,,,,,,,,,,,,,,,,,,,,,,,,,,,,,,,,,,,,,,,,,,,,,,,,,,,7,001,2023_Feb_01_1103,ExactRep-v3-final,2021.2.3,59.93137857925608,
12,0,12,0,,,,,,,,,,,,,,,,,,,,,,,,,,,,,,,,,,,,,,,,,,,,,,,,,,,,,,,,,,,403.7472528000362,None,405.74933440005407,None,,,,,,,,,,,,,,,,,,,,,,,,,,,,,,,,,,,,,,,,,,,,,,,,,,,,,,,,,,,,,,,,,,,,,,,,,,7,001,2023_Feb_01_1103,ExactRep-v3-final,2021.2.3,59.93137857925608,
13,0,13,0,,,,,,,,,,,,,,,,,,,,,,,,,,,,,,,,,,,,,,,,,,,,,,,,,,,,,,,,,,,406.2591939000413,None,408.26800979999825,None,,,,,,,,,,,,,,,,,,,,,,,,,,,,,,,,,,,,,,,,,,,,,,,,,,,,,,,,,,,,,,,,,,,,,,,,,,7,001,2023_Feb_01_1103,ExactRep-v3-final,2021.2.3,59.93137857925608,
14,0,14,0,,,,,,,,,,,,,,,,,,,,,,,,,,,,,,,,,,,,,,,,,,,,,,,,,,,,,,,,,,,408.768995200051,None,410.77084000001196,None,,,,,,,,,,,,,,,,,,,,,,,,,,,,,,,,,,,,,,,,,,,,,,,,,,,,,,,,,,,,,,,,,,,,,,,,,,7,001,2023_Feb_01_1103,ExactRep-v3-final,2021.2.3,59.93137857925608,
,,,,,,,,,,,,,,,,,,,,,,,,,,,,,,,,,,,,,,,,,,,,,,,,,,,,,,,,,,,,,,,,,,space,18.258088000002317,421.39761440001894,None,,,,,,,,,,,,,,,,,,,,,,,,,,,,,,,,,,,,,,,,,,,,,,,,,,,,,,,,,,,,,,,,,,,,,,7,001,2023_Feb_01_1103,ExactRep-v3-final,2021.2.3,59.93137857925608,
,,,,0,0,0,0,,,,,,,,,,,,,,,,,,,,,,,,,,,,,,,,,,,,,,,,,,,,,,,,,,,,,,,,,441.7183084000135,None,,,,,411.4433097000001,None,411.4433097000001,None,411.4433097000001,None,411.4433097000001,None,411.4433097000001,None,411.4433097000001,None,439.7145773000084,None,,,,,,,,,,,,,,,,,,,,,,,,,,,,,,,,,,,,,,,,,,,,,,,,,,,,,,,,7,001,2023_Feb_01_1103,ExactRep-v3-final,2021.2.3,59.93137857925608,
,,,,1,0,1,0,,,,,,,,,,,,,,,,,,,,,,,,,,,,,,,,,,,,,,,,,,,,,,,,,,,,,,,,,444.22080750006717,None,,,,,,,,,,,,,,,,,442.21903570008,None,,,,,,,,,,,,,,,,,,,,,,,,,,,,,,,,,,,,,,,,,,,,,,,,,,,,,,,,7,001,2023_Feb_01_1103,ExactRep-v3-final,2021.2.3,59.93137857925608,
,,,,2,0,2,0,,,,,,,,,,,,,,,,,,,,,,,,,,,,,,,,,,,,,,,,,,,,,,,,,,,,,,,,,446.7236195000587,None,,,,,,,,,,,,,,,,,444.7212472000392,None,,,,,,,,,,,,,,,,,,,,,,,,,,,,,,,,,,,,,,,,,,,,,,,,,,,,,,,,7,001,2023_Feb_01_1103,ExactRep-v3-final,2021.2.3,59.93137857925608,
,,,,3,0,3,0,,,,,,,,,,,,,,,,,,,,,,,,,,,,,,,,,,,,,,,,,,,,,,,,,,,,,,,,,449.2260666000657,None,,,,,,,,,,,,,,,,,447.22402140009217,None,,,,,,,,,,,,,,,,,,,,,,,,,,,,,,,,,,,,,,,,,,,,,,,,,,,,,,,,7,001,2023_Feb_01_1103,ExactRep-v3-final,2021.2.3,59.93137857925608,
,,,,4,0,4,0,,,,,,,,,,,,,,,,,,,,,,,,,,,,,,,,,,,,,,,,,,,,,,,,,,,,,,,,,451.72847830003593,None,,,,,,,,,,,,,,,,,449.7263103000587,None,,,,,,,,,,,,,,,,,,,,,,,,,,,,,,,,,,,,,,,,,,,,,,,,,,,,,,,,7,001,2023_Feb_01_1103,ExactRep-v3-final,2021.2.3,59.93137857925608,
,,,,5,0,5,0,,,,,,,,,,,,,,,,,,,,,,,,,,,,,,,,,,,,,,,,,,,,,,,,,,,,,,,,,454.2309621000895,None,,,,,,,,,,,,,,,,,452.22897350008134,None,,,,,,,,,,,,,,,,,,,,,,,,,,,,,,,,,,,,,,,,,,,,,,,,,,,,,,,,7,001,2023_Feb_01_1103,ExactRep-v3-final,2021.2.3,59.93137857925608,
,,,,6,0,6,0,,,,,,,,,,,,,,,,,,,,,,,,,,,,,,,,,,,,,,,,,,,,,,,,,,,,,,,,,456.73327530000824,None,,,,,,,,,,,,,,,,,454.7314661000855,None,,,,,,,,,,,,,,,,,,,,,,,,,,,,,,,,,,,,,,,,,,,,,,,,,,,,,,,,7,001,2023_Feb_01_1103,ExactRep-v3-final,2021.2.3,59.93137857925608,
,,,,7,0,7,0,,,,,,,,,,,,,,,,,,,,,,,,,,,,,,,,,,,,,,,,,,,,,,,,,,,,,,,,,459.235772700049,None,,,,,,,,,,,,,,,,,457.23406110005453,None,,,,,,,,,,,,,,,,,,,,,,,,,,,,,,,,,,,,,,,,,,,,,,,,,,,,,,,,7,001,2023_Feb_01_1103,ExactRep-v3-final,2021.2.3,59.93137857925608,
,,,,8,0,8,0,,,,,,,,,,,,,,,,,,,,,,,,,,,,,,,,,,,,,,,,,,,,,,,,,,,,,,,,,461.7386352000758,None,,,,,,,,,,,,,,,,,459.7365556000732,None,,,,,,,,,,,,,,,,,,,,,,,,,,,,,,,,,,,,,,,,,,,,,,,,,,,,,,,,7,001,2023_Feb_01_1103,ExactRep-v3-final,2021.2.3,59.93137857925608,
,,,,9,0,9,0,,,,,,,,,,,,,,,,,,,,,,,,,,,,,,,,,,,,,,,,,,,,,,,,,,,,,,,,,464.24107510002796,None,,,,,,,,,,,,,,,,,462.23894400009885,None,,,,,,,,,,,,,,,,,,,,,,,,,,,,,,,,,,,,,,,,,,,,,,,,,,,,,,,,7,001,2023_Feb_01_1103,ExactRep-v3-final,2021.2.3,59.93137857925608,
,,,,10,0,10,0,,,,,,,,,,,,,,,,,,,,,,,,,,,,,,,,,,,,,,,,,,,,,,,,,,,,,,,,,466.74357360007707,None,,,,,,,,,,,,,,,,,464.7415179000236,None,,,,,,,,,,,,,,,,,,,,,,,,,,,,,,,,,,,,,,,,,,,,,,,,,,,,,,,,7,001,2023_Feb_01_1103,ExactRep-v3-final,2021.2.3,59.93137857925608,
,,,,11,0,11,0,,,,,,,,,,,,,,,,,,,,,,,,,,,,,,,,,,,,,,,,,,,,,,,,,,,,,,,,,469.2459822000237,None,,,,,,,,,,,,,,,,,467.2439564000815,None,,,,,,,,,,,,,,,,,,,,,,,,,,,,,,,,,,,,,,,,,,,,,,,,,,,,,,,,7,001,2023_Feb_01_1103,ExactRep-v3-final,2021.2.3,59.93137857925608,
,,,,12,0,12,0,,,,,,,,,,,,,,,,,,,,,,,,,,,,,,,,,,,,,,,,,,,,,,,,,,,,,,,,,471.74861050001346,None,,,,,,,,,,,,,,,,,469.7464372999966,None,,,,,,,,,,,,,,,,,,,,,,,,,,,,,,,,,,,,,,,,,,,,,,,,,,,,,,,,7,001,2023_Feb_01_1103,ExactRep-v3-final,2021.2.3,59.93137857925608,
,,,,13,0,13,0,,,,,,,,,,,,,,,,,,,,,,,,,,,,,,,,,,,,,,,,,,,,,,,,,,,,,,,,,474.2509335000068,None,,,,,,,,,,,,,,,,,472.24901570007205,None,,,,,,,,,,,,,,,,,,,,,,,,,,,,,,,,,,,,,,,,,,,,,,,,,,,,,,,,7,001,2023_Feb_01_1103,ExactRep-v3-final,2021.2.3,59.93137857925608,
,,,,14,0,14,0,,,,,,,,,,,,,,,,,,,,,,,,,,,,,,,,,,,,,,,,,,,,,,,,,,,,,,,,,476.75344850006513,None,,,,,,,,,,,,,,,,,474.7515262000961,None,,,,,,,,,,,,,,,,,,,,,,,,,,,,,,,,,,,,,,,,,,,,,,,,,,,,,,,,7,001,2023_Feb_01_1103,ExactRep-v3-final,2021.2.3,59.93137857925608,
,,,,,,,,,,,,,,,,,,,,,,,,,,,,,,,,,,,,,,,,,,,,,,,,,,,,,,,,,,,,,,,,,,,,,,,,,,,,,,,,,,,,space,30.73246960004326,487.35507900000084,None,,,,,,,,,,,,,,,,,,,,,,,,,,,,,,,,,,,,,,,,,,,,,,,,,,,,7,001,2023_Feb_01_1103,ExactRep-v3-final,2021.2.3,59.93137857925608,
,,,,,,,,0,0,0,0,,,,,,,,,,,,,,,,,,,,,,,,,,,,,,,,,,,,,,,,,,,,,,,,,,,,,520.2163522000192,None,,,,,,,,,,,,,,,,,,,,,,,477.4153813000303,None,477.4153813000303,None,477.4153813000303,None,477.4153813000303,None,477.4153813000303,None,477.4153813000303,None,murder,19,1,sing,white,518.2021370000439,None,None,518.2021370000439,None,,,,,,,,,,,,,,,,,,,,,,,,,,,,,,7,001,2023_Feb_01_1103,ExactRep-v3-final,2021.2.3,59.93137857925608,
,,,,,,,,1,0,1,0,,,,,,,,,,,,,,,,,,,,,,,,,,,,,,,,,,,,,,,,,,,,,,,,,,,,,522.7160357000539,None,,,,,,,,,,,,,,,,,,,,,,,,,,,,,,,,,,,woman,114,2,aloud,red,520.7164706001058,None,None,520.7164706001058,None,,,,,,,,,,,,,,,,,,,,,,,,,,,,,,7,001,2023_Feb_01_1103,ExactRep-v3-final,2021.2.3,59.93137857925608,
,,,,,,,,2,0,2,0,,,,,,,,,,,,,,,,,,,,,,,,,,,,,,,,,,,,,,,,,,,,,,,,,,,,,525.2185739000561,None,,,,,,,,,,,,,,,,,,,,,,,,,,,,,,,,,,,bar,74,3,silent,blue,523.21653840004,None,None,523.21653840004,None,,,,,,,,,,,,,,,,,,,,,,,,,,,,,,7,001,2023_Feb_01_1103,ExactRep-v3-final,2021.2.3,59.93137857925608,
,,,,,,,,3,0,3,0,,,,,,,,,,,,,,,,,,,,,,,,,,,,,,,,,,,,,,,,,,,,,,,,,,,,,527.7377109000226,None,,,,,,,,,,,,,,,,,,,,,,,,,,,,,,,,,,,ocean,32,4,sing,white,525.7239776001079,None,None,525.7239776001079,None,,,,,,,,,,,,,,,,,,,,,,,,,,,,,,7,001,2023_Feb_01_1103,ExactRep-v3-final,2021.2.3,59.93137857925608,
,,,,,,,,4,0,4,0,,,,,,,,,,,,,,,,,,,,,,,,,,,,,,,,,,,,,,,,,,,,,,,,,,,,,530.2403024000814,None,,,,,,,,,,,,,,,,,,,,,,,,,,,,,,,,,,,water,45,5,silent,blue,528.2381630000891,None,None,528.2381630000891,None,,,,,,,,,,,,,,,,,,,,,,,,,,,,,,7,001,2023_Feb_01_1103,ExactRep-v3-final,2021.2.3,59.93137857925608,
,,,,,,,,5,0,5,0,,,,,,,,,,,,,,,,,,,,,,,,,,,,,,,,,,,,,,,,,,,,,,,,,,,,,532.7594765000977,None,,,,,,,,,,,,,,,,,,,,,,,,,,,,,,,,,,,opinion,12,6,sing,white,530.7478737001074,None,None,530.7478737001074,None,,,,,,,,,,,,,,,,,,,,,,,,,,,,,,7,001,2023_Feb_01_1103,ExactRep-v3-final,2021.2.3,59.93137857925608,
,,,,,,,,6,0,6,0,,,,,,,,,,,,,,,,,,,,,,,,,,,,,,,,,,,,,,,,,,,,,,,,,,,,,535.261859600083,None,,,,,,,,,,,,,,,,,,,,,,,,,,,,,,,,,,,library,65,7,silent,blue,533.2620179000078,None,None,533.2620179000078,None,,,,,,,,,,,,,,,,,,,,,,,,,,,,,,7,001,2023_Feb_01_1103,ExactRep-v3-final,2021.2.3,59.93137857925608,
,,,,,,,,7,0,7,0,,,,,,,,,,,,,,,,,,,,,,,,,,,,,,,,,,,,,,,,,,,,,,,,,,,,,537.7644731000764,None,,,,,,,,,,,,,,,,,,,,,,,,,,,,,,,,,,,coast,10,8,sing,white,535.7635705000721,None,None,535.7635705000721,None,,,,,,,,,,,,,,,,,,,,,,,,,,,,,,7,001,2023_Feb_01_1103,ExactRep-v3-final,2021.2.3,59.93137857925608,
,,,,,,,,8,0,8,0,,,,,,,,,,,,,,,,,,,,,,,,,,,,,,,,,,,,,,,,,,,,,,,,,,,,,540.2669116000179,None,,,,,,,,,,,,,,,,,,,,,,,,,,,,,,,,,,,metal,70,9,silent,blue,538.2668627999956,None,None,538.2668627999956,None,,,,,,,,,,,,,,,,,,,,,,,,,,,,,,7,001,2023_Feb_01_1103,ExactRep-v3-final,2021.2.3,59.93137857925608,
,,,,,,,,9,0,9,0,,,,,,,,,,,,,,,,,,,,,,,,,,,,,,,,,,,,,,,,,,,,,,,,,,,,,542.7693444000324,None,,,,,,,,,,,,,,,,,,,,,,,,,,,,,,,,,,,cotton,20,10,sing,white,540.7690381000284,None,None,540.7690381000284,None,,,,,,,,,,,,,,,,,,,,,,,,,,,,,,7,001,2023_Feb_01_1103,ExactRep-v3-final,2021.2.3,59.93137857925608,
,,,,,,,,10,0,10,0,,,,,,,,,,,,,,,,,,,,,,,,,,,,,,,,,,,,,,,,,,,,,,,,,,,,,545.2886214000173,None,,,,,,,,,,,,,,,,,,,,,,,,,,,,,,,,,,,meadow,50,11,silent,blue,543.2795087000122,None,None,543.2795087000122,None,,,,,,,,,,,,,,,,,,,,,,,,,,,,,,7,001,2023_Feb_01_1103,ExactRep-v3-final,2021.2.3,59.93137857925608,
,,,,,,,,11,0,11,0,,,,,,,,,,,,,,,,,,,,,,,,,,,,,,,,,,,,,,,,,,,,,,,,,,,,,547.7911325000459,None,,,,,,,,,,,,,,,,,,,,,,,,,,,,,,,,,,,amount,100,12,aloud,red,545.7905898001045,None,None,545.7905898001045,None,,,,,,,,,,,,,,,,,,,,,,,,,,,,,,7,001,2023_Feb_01_1103,ExactRep-v3-final,2021.2.3,59.93137857925608,
,,,,,,,,12,0,12,0,,,,,,,,,,,,,,,,,,,,,,,,,,,,,,,,,,,,,,,,,,,,,,,,,,,,,550.3103381000692,None,,,,,,,,,,,,,,,,,,,,,,,,,,,,,,,,,,,priest,119,13,aloud,red,548.2947050000075,None,None,548.2947050000075,None,,,,,,,,,,,,,,,,,,,,,,,,,,,,,,7,001,2023_Feb_01_1103,ExactRep-v3-final,2021.2.3,59.93137857925608,
,,,,,,,,13,0,13,0,,,,,,,,,,,,,,,,,,,,,,,,,,,,,,,,,,,,,,,,,,,,,,,,,,,,,552.8128009000793,None,,,,,,,,,,,,,,,,,,,,,,,,,,,,,,,,,,,spirit,49,14,silent,blue,550.812511300086,None,None,550.812511300086,None,,,,,,,,,,,,,,,,,,,,,,,,,,,,,,7,001,2023_Feb_01_1103,ExactRep-v3-final,2021.2.3,59.93137857925608,
,,,,,,,,14,0,14,0,,,,,,,,,,,,,,,,,,,,,,,,,,,,,,,,,,,,,,,,,,,,,,,,,,,,,555.3320267000236,None,,,,,,,,,,,,,,,,,,,,,,,,,,,,,,,,,,,dawn,101,15,aloud,red,553.318577600061,None,None,553.318577600061,None,,,,,,,,,,,,,,,,,,,,,,,,,,,,,,7,001,2023_Feb_01_1103,ExactRep-v3-final,2021.2.3,59.93137857925608,
,,,,,,,,15,0,15,0,,,,,,,,,,,,,,,,,,,,,,,,,,,,,,,,,,,,,,,,,,,,,,,,,,,,,557.8345041000284,None,,,,,,,,,,,,,,,,,,,,,,,,,,,,,,,,,,,engine,48,16,silent,blue,555.8324254000327,None,None,555.8324254000327,None,,,,,,,,,,,,,,,,,,,,,,,,,,,,,,7,001,2023_Feb_01_1103,ExactRep-v3-final,2021.2.3,59.93137857925608,
,,,,,,,,16,0,16,0,,,,,,,,,,,,,,,,,,,,,,,,,,,,,,,,,,,,,,,,,,,,,,,,,,,,,560.3367865000619,None,,,,,,,,,,,,,,,,,,,,,,,,,,,,,,,,,,,passion,90,17,aloud,red,558.3347887001,None,None,558.3347887001,None,,,,,,,,,,,,,,,,,,,,,,,,,,,,,,7,001,2023_Feb_01_1103,ExactRep-v3-final,2021.2.3,59.93137857925608,
,,,,,,,,17,0,17,0,,,,,,,,,,,,,,,,,,,,,,,,,,,,,,,,,,,,,,,,,,,,,,,,,,,,,562.8561576000648,None,,,,,,,,,,,,,,,,,,,,,,,,,,,,,,,,,,,lip,37,18,sing,white,560.8450921000913,None,None,560.8450921000913,None,,,,,,,,,,,,,,,,,,,,,,,,,,,,,,7,001,2023_Feb_01_1103,ExactRep-v3-final,2021.2.3,59.93137857925608,
,,,,,,,,18,0,18,0,,,,,,,,,,,,,,,,,,,,,,,,,,,,,,,,,,,,,,,,,,,,,,,,,,,,,565.3586721000029,None,,,,,,,,,,,,,,,,,,,,,,,,,,,,,,,,,,,cash,26,19,sing,white,563.3571184000466,None,None,563.3571184000466,None,,,,,,,,,,,,,,,,,,,,,,,,,,,,,,7,001,2023_Feb_01_1103,ExactRep-v3-final,2021.2.3,59.93137857925608,
,,,,,,,,19,0,19,0,,,,,,,,,,,,,,,,,,,,,,,,,,,,,,,,,,,,,,,,,,,,,,,,,,,,,567.8609508000081,None,,,,,,,,,,,,,,,,,,,,,,,,,,,,,,,,,,,green,5,20,sing,white,565.8591138001066,None,None,565.8591138001066,None,,,,,,,,,,,,,,,,,,,,,,,,,,,,,,7,001,2023_Feb_01_1103,ExactRep-v3-final,2021.2.3,59.93137857925608,
,,,,,,,,20,0,20,0,,,,,,,,,,,,,,,,,,,,,,,,,,,,,,,,,,,,,,,,,,,,,,,,,,,,,570.3803185001016,None,,,,,,,,,,,,,,,,,,,,,,,,,,,,,,,,,,,quality,11,21,sing,white,568.3672387000406,None,None,568.3672387000406,None,,,,,,,,,,,,,,,,,,,,,,,,,,,,,,7,001,2023_Feb_01_1103,ExactRep-v3-final,2021.2.3,59.93137857925608,
,,,,,,,,21,0,21,0,,,,,,,,,,,,,,,,,,,,,,,,,,,,,,,,,,,,,,,,,,,,,,,,,,,,,572.8994348000269,None,,,,,,,,,,,,,,,,,,,,,,,,,,,,,,,,,,,volume,8,22,sing,white,570.8842921000905,None,None,570.8842921000905,None,,,,,,,,,,,,,,,,,,,,,,,,,,,,,,7,001,2023_Feb_01_1103,ExactRep-v3-final,2021.2.3,59.93137857925608,
,,,,,,,,22,0,22,0,,,,,,,,,,,,,,,,,,,,,,,,,,,,,,,,,,,,,,,,,,,,,,,,,,,,,575.4188477999996,None,,,,,,,,,,,,,,,,,,,,,,,,,,,,,,,,,,,woods,46,23,silent,blue,573.4105169000104,None,None,573.4105169000104,None,,,,,,,,,,,,,,,,,,,,,,,,,,,,,,7,001,2023_Feb_01_1103,ExactRep-v3-final,2021.2.3,59.93137857925608,
,,,,,,,,23,0,23,0,,,,,,,,,,,,,,,,,,,,,,,,,,,,,,,,,,,,,,,,,,,,,,,,,,,,,577.9210911000846,None,,,,,,,,,,,,,,,,,,,,,,,,,,,,,,,,,,,camp,62,24,silent,blue,575.9191883000312,None,None,575.9191883000312,None,,,,,,,,,,,,,,,,,,,,,,,,,,,,,,7,001,2023_Feb_01_1103,ExactRep-v3-final,2021.2.3,59.93137857925608,
,,,,,,,,24,0,24,0,,,,,,,,,,,,,,,,,,,,,,,,,,,,,,,,,,,,,,,,,,,,,,,,,,,,,580.4413831999991,None,,,,,,,,,,,,,,,,,,,,,,,,,,,,,,,,,,,ticket,41,25,silent,blue,578.4301214000443,None,None,578.4301214000443,None,,,,,,,,,,,,,,,,,,,,,,,,,,,,,,7,001,2023_Feb_01_1103,ExactRep-v3-final,2021.2.3,59.93137857925608,
,,,,,,,,25,0,25,0,,,,,,,,,,,,,,,,,,,,,,,,,,,,,,,,,,,,,,,,,,,,,,,,,,,,,582.9428792000981,None,,,,,,,,,,,,,,,,,,,,,,,,,,,,,,,,,,,table,88,26,aloud,red,580.9426878000377,None,None,580.9426878000377,None,,,,,,,,,,,,,,,,,,,,,,,,,,,,,,7,001,2023_Feb_01_1103,ExactRep-v3-final,2021.2.3,59.93137857925608,
,,,,,,,,26,0,26,0,,,,,,,,,,,,,,,,,,,,,,,,,,,,,,,,,,,,,,,,,,,,,,,,,,,,,585.4454493999947,None,,,,,,,,,,,,,,,,,,,,,,,,,,,,,,,,,,,seat,111,27,aloud,red,583.4454595000716,None,None,583.4454595000716,None,,,,,,,,,,,,,,,,,,,,,,,,,,,,,,7,001,2023_Feb_01_1103,ExactRep-v3-final,2021.2.3,59.93137857925608,
,,,,,,,,27,0,27,0,,,,,,,,,,,,,,,,,,,,,,,,,,,,,,,,,,,,,,,,,,,,,,,,,,,,,587.9479263999965,None,,,,,,,,,,,,,,,,,,,,,,,,,,,,,,,,,,,boulder,59,28,silent,blue,585.9467191000003,None,None,585.9467191000003,None,,,,,,,,,,,,,,,,,,,,,,,,,,,,,,7,001,2023_Feb_01_1103,ExactRep-v3-final,2021.2.3,59.93137857925608,
,,,,,,,,28,0,28,0,,,,,,,,,,,,,,,,,,,,,,,,,,,,,,,,,,,,,,,,,,,,,,,,,,,,,590.4504160000943,None,,,,,,,,,,,,,,,,,,,,,,,,,,,,,,,,,,,picture,38,29,sing,white,588.4486183000263,None,None,588.4486183000263,None,,,,,,,,,,,,,,,,,,,,,,,,,,,,,,7,001,2023_Feb_01_1103,ExactRep-v3-final,2021.2.3,59.93137857925608,
,,,,,,,,29,0,29,0,,,,,,,,,,,,,,,,,,,,,,,,,,,,,,,,,,,,,,,,,,,,,,,,,,,,,592.9693608999951,None,,,,,,,,,,,,,,,,,,,,,,,,,,,,,,,,,,,string,110,30,aloud,red,590.9541367000202,None,None,590.9541367000202,None,,,,,,,,,,,,,,,,,,,,,,,,,,,,,,7,001,2023_Feb_01_1103,ExactRep-v3-final,2021.2.3,59.93137857925608,
,,,,,,,,30,0,30,0,,,,,,,,,,,,,,,,,,,,,,,,,,,,,,,,,,,,,,,,,,,,,,,,,,,,,595.4720253000269,None,,,,,,,,,,,,,,,,,,,,,,,,,,,,,,,,,,,star,79,31,sing,white,593.4701249001082,None,None,593.4701249001082,None,,,,,,,,,,,,,,,,,,,,,,,,,,,,,,7,001,2023_Feb_01_1103,ExactRep-v3-final,2021.2.3,59.93137857925608,
,,,,,,,,31,0,31,0,,,,,,,,,,,,,,,,,,,,,,,,,,,,,,,,,,,,,,,,,,,,,,,,,,,,,597.9745464000152,None,,,,,,,,,,,,,,,,,,,,,,,,,,,,,,,,,,,memory,83,32,aloud,red,595.975151300081,None,None,595.975151300081,None,,,,,,,,,,,,,,,,,,,,,,,,,,,,,,7,001,2023_Feb_01_1103,ExactRep-v3-final,2021.2.3,59.93137857925608,
,,,,,,,,32,0,32,0,,,,,,,,,,,,,,,,,,,,,,,,,,,,,,,,,,,,,,,,,,,,,,,,,,,,,600.4769444999984,None,,,,,,,,,,,,,,,,,,,,,,,,,,,,,,,,,,,kiss,77,33,silent,blue,598.4766337000765,None,None,598.4766337000765,None,,,,,,,,,,,,,,,,,,,,,,,,,,,,,,7,001,2023_Feb_01_1103,ExactRep-v3-final,2021.2.3,59.93137857925608,
,,,,,,,,33,0,33,0,,,,,,,,,,,,,,,,,,,,,,,,,,,,,,,,,,,,,,,,,,,,,,,,,,,,,602.9962716000155,None,,,,,,,,,,,,,,,,,,,,,,,,,,,,,,,,,,,series,109,34,aloud,red,600.9870852000313,None,None,600.9870852000313,None,,,,,,,,,,,,,,,,,,,,,,,,,,,,,,7,001,2023_Feb_01_1103,ExactRep-v3-final,2021.2.3,59.93137857925608,
,,,,,,,,34,0,34,0,,,,,,,,,,,,,,,,,,,,,,,,,,,,,,,,,,,,,,,,,,,,,,,,,,,,,605.5154410999967,None,,,,,,,,,,,,,,,,,,,,,,,,,,,,,,,,,,,temple,28,35,sing,white,603.5013773000101,None,None,603.5013773000101,None,,,,,,,,,,,,,,,,,,,,,,,,,,,,,,7,001,2023_Feb_01_1103,ExactRep-v3-final,2021.2.3,59.93137857925608,
,,,,,,,,35,0,35,0,,,,,,,,,,,,,,,,,,,,,,,,,,,,,,,,,,,,,,,,,,,,,,,,,,,,,608.017777100089,None,,,,,,,,,,,,,,,,,,,,,,,,,,,,,,,,,,,window,36,36,sing,white,606.018695200095,None,None,606.018695200095,None,,,,,,,,,,,,,,,,,,,,,,,,,,,,,,7,001,2023_Feb_01_1103,ExactRep-v3-final,2021.2.3,59.93137857925608,
,,,,,,,,36,0,36,0,,,,,,,,,,,,,,,,,,,,,,,,,,,,,,,,,,,,,,,,,,,,,,,,,,,,,610.5204708999954,None,,,,,,,,,,,,,,,,,,,,,,,,,,,,,,,,,,,toy,116,37,aloud,red,608.5206505000824,None,None,608.5206505000824,None,,,,,,,,,,,,,,,,,,,,,,,,,,,,,,7,001,2023_Feb_01_1103,ExactRep-v3-final,2021.2.3,59.93137857925608,
,,,,,,,,37,0,37,0,,,,,,,,,,,,,,,,,,,,,,,,,,,,,,,,,,,,,,,,,,,,,,,,,,,,,613.0229891000781,None,,,,,,,,,,,,,,,,,,,,,,,,,,,,,,,,,,,time,57,38,silent,blue,611.0224838000722,None,None,611.0224838000722,None,,,,,,,,,,,,,,,,,,,,,,,,,,,,,,7,001,2023_Feb_01_1103,ExactRep-v3-final,2021.2.3,59.93137857925608,
,,,,,,,,38,0,38,0,,,,,,,,,,,,,,,,,,,,,,,,,,,,,,,,,,,,,,,,,,,,,,,,,,,,,615.5255283000879,None,,,,,,,,,,,,,,,,,,,,,,,,,,,,,,,,,,,house,84,39,aloud,red,613.5234924000688,None,None,613.5234924000688,None,,,,,,,,,,,,,,,,,,,,,,,,,,,,,,7,001,2023_Feb_01_1103,ExactRep-v3-final,2021.2.3,59.93137857925608,
,,,,,,,,39,0,39,0,,,,,,,,,,,,,,,,,,,,,,,,,,,,,,,,,,,,,,,,,,,,,,,,,,,,,618.04509280005,None,,,,,,,,,,,,,,,,,,,,,,,,,,,,,,,,,,,blossom,9,40,sing,white,616.0356712000212,None,None,616.0356712000212,None,,,,,,,,,,,,,,,,,,,,,,,,,,,,,,7,001,2023_Feb_01_1103,ExactRep-v3-final,2021.2.3,59.93137857925608,
,,,,,,,,40,0,40,0,,,,,,,,,,,,,,,,,,,,,,,,,,,,,,,,,,,,,,,,,,,,,,,,,,,,,620.5637954000849,None,,,,,,,,,,,,,,,,,,,,,,,,,,,,,,,,,,,safety,95,41,aloud,red,618.5483712001005,None,None,618.5483712001005,None,,,,,,,,,,,,,,,,,,,,,,,,,,,,,,7,001,2023_Feb_01_1103,ExactRep-v3-final,2021.2.3,59.93137857925608,
,,,,,,,,41,0,41,0,,,,,,,,,,,,,,,,,,,,,,,,,,,,,,,,,,,,,,,,,,,,,,,,,,,,,623.082978200051,None,,,,,,,,,,,,,,,,,,,,,,,,,,,,,,,,,,,leader,106,42,aloud,red,621.0738301000092,None,None,621.0738301000092,None,,,,,,,,,,,,,,,,,,,,,,,,,,,,,,7,001,2023_Feb_01_1103,ExactRep-v3-final,2021.2.3,59.93137857925608,
,,,,,,,,42,0,42,0,,,,,,,,,,,,,,,,,,,,,,,,,,,,,,,,,,,,,,,,,,,,,,,,,,,,,625.5854702000506,None,,,,,,,,,,,,,,,,,,,,,,,,,,,,,,,,,,,honour,39,43,silent,blue,623.5845086000627,None,None,623.5845086000627,None,,,,,,,,,,,,,,,,,,,,,,,,,,,,,,7,001,2023_Feb_01_1103,ExactRep-v3-final,2021.2.3,59.93137857925608,
,,,,,,,,43,0,43,0,,,,,,,,,,,,,,,,,,,,,,,,,,,,,,,,,,,,,,,,,,,,,,,,,,,,,628.0910086000804,None,,,,,,,,,,,,,,,,,,,,,,,,,,,,,,,,,,,shock,34,44,sing,white,626.0877678000834,None,None,626.0877678000834,None,,,,,,,,,,,,,,,,,,,,,,,,,,,,,,7,001,2023_Feb_01_1103,ExactRep-v3-final,2021.2.3,59.93137857925608,
,,,,,,,,44,0,44,0,,,,,,,,,,,,,,,,,,,,,,,,,,,,,,,,,,,,,,,,,,,,,,,,,,,,,630.6071833000751,None,,,,,,,,,,,,,,,,,,,,,,,,,,,,,,,,,,,vessel,60,45,silent,blue,628.6049699001014,None,None,628.6049699001014,None,,,,,,,,,,,,,,,,,,,,,,,,,,,,,,7,001,2023_Feb_01_1103,ExactRep-v3-final,2021.2.3,59.93137857925608,
,,,,,,,,45,0,45,0,,,,,,,,,,,,,,,,,,,,,,,,,,,,,,,,,,,,,,,,,,,,,,,,,,,,,633.1262123000342,None,,,,,,,,,,,,,,,,,,,,,,,,,,,,,,,,,,,air,55,46,silent,blue,631.1162366000935,None,None,631.1162366000935,None,,,,,,,,,,,,,,,,,,,,,,,,,,,,,,7,001,2023_Feb_01_1103,ExactRep-v3-final,2021.2.3,59.93137857925608,
,,,,,,,,46,0,46,0,,,,,,,,,,,,,,,,,,,,,,,,,,,,,,,,,,,,,,,,,,,,,,,,,,,,,635.6288269000361,None,,,,,,,,,,,,,,,,,,,,,,,,,,,,,,,,,,,apple,21,47,sing,white,633.6268568000523,None,None,633.6268568000523,None,,,,,,,,,,,,,,,,,,,,,,,,,,,,,,7,001,2023_Feb_01_1103,ExactRep-v3-final,2021.2.3,59.93137857925608,
,,,,,,,,47,0,47,0,,,,,,,,,,,,,,,,,,,,,,,,,,,,,,,,,,,,,,,,,,,,,,,,,,,,,638.148013100028,None,,,,,,,,,,,,,,,,,,,,,,,,,,,,,,,,,,,event,92,48,aloud,red,636.1399425000418,None,None,636.1399425000418,None,,,,,,,,,,,,,,,,,,,,,,,,,,,,,,7,001,2023_Feb_01_1103,ExactRep-v3-final,2021.2.3,59.93137857925608,
,,,,,,,,48,0,48,0,,,,,,,,,,,,,,,,,,,,,,,,,,,,,,,,,,,,,,,,,,,,,,,,,,,,,640.6503838000353,None,,,,,,,,,,,,,,,,,,,,,,,,,,,,,,,,,,,earth,43,49,silent,blue,638.6484977001091,None,None,638.6484977001091,None,,,,,,,,,,,,,,,,,,,,,,,,,,,,,,7,001,2023_Feb_01_1103,ExactRep-v3-final,2021.2.3,59.93137857925608,
,,,,,,,,49,0,49,0,,,,,,,,,,,,,,,,,,,,,,,,,,,,,,,,,,,,,,,,,,,,,,,,,,,,,643.1697027001064,None,,,,,,,,,,,,,,,,,,,,,,,,,,,,,,,,,,,origin,54,50,silent,blue,641.1615525000961,None,None,641.1615525000961,None,,,,,,,,,,,,,,,,,,,,,,,,,,,,,,7,001,2023_Feb_01_1103,ExactRep-v3-final,2021.2.3,59.93137857925608,
,,,,,,,,50,0,50,0,,,,,,,,,,,,,,,,,,,,,,,,,,,,,,,,,,,,,,,,,,,,,,,,,,,,,645.6722406001063,None,,,,,,,,,,,,,,,,,,,,,,,,,,,,,,,,,,,tree,2,51,sing,white,643.670204800088,None,None,643.670204800088,None,,,,,,,,,,,,,,,,,,,,,,,,,,,,,,7,001,2023_Feb_01_1103,ExactRep-v3-final,2021.2.3,59.93137857925608,
,,,,,,,,51,0,51,0,,,,,,,,,,,,,,,,,,,,,,,,,,,,,,,,,,,,,,,,,,,,,,,,,,,,,648.1747779001016,None,,,,,,,,,,,,,,,,,,,,,,,,,,,,,,,,,,,street,85,52,aloud,red,646.175755900098,None,None,646.175755900098,None,,,,,,,,,,,,,,,,,,,,,,,,,,,,,,7,001,2023_Feb_01_1103,ExactRep-v3-final,2021.2.3,59.93137857925608,
,,,,,,,,52,0,52,0,,,,,,,,,,,,,,,,,,,,,,,,,,,,,,,,,,,,,,,,,,,,,,,,,,,,,650.6939078000141,None,,,,,,,,,,,,,,,,,,,,,,,,,,,,,,,,,,,machine,115,53,aloud,red,648.682512300089,None,None,648.682512300089,None,,,,,,,,,,,,,,,,,,,,,,,,,,,,,,7,001,2023_Feb_01_1103,ExactRep-v3-final,2021.2.3,59.93137857925608,
,,,,,,,,53,0,53,0,,,,,,,,,,,,,,,,,,,,,,,,,,,,,,,,,,,,,,,,,,,,,,,,,,,,,653.2131404000102,None,,,,,,,,,,,,,,,,,,,,,,,,,,,,,,,,,,,boy,0,54,sing,white,651.2030926001025,None,None,651.2030926001025,None,,,,,,,,,,,,,,,,,,,,,,,,,,,,,,7,001,2023_Feb_01_1103,ExactRep-v3-final,2021.2.3,59.93137857925608,
,,,,,,,,54,0,54,0,,,,,,,,,,,,,,,,,,,,,,,,,,,,,,,,,,,,,,,,,,,,,,,,,,,,,655.7322475000983,None,,,,,,,,,,,,,,,,,,,,,,,,,,,,,,,,,,,church,51,55,silent,blue,653.7189091000473,None,None,653.7189091000473,None,,,,,,,,,,,,,,,,,,,,,,,,,,,,,,7,001,2023_Feb_01_1103,ExactRep-v3-final,2021.2.3,59.93137857925608,
,,,,,,,,55,0,55,0,,,,,,,,,,,,,,,,,,,,,,,,,,,,,,,,,,,,,,,,,,,,,,,,,,,,,658.2513378000585,None,,,,,,,,,,,,,,,,,,,,,,,,,,,,,,,,,,,chief,63,56,silent,blue,656.236041600001,None,None,656.236041600001,None,,,,,,,,,,,,,,,,,,,,,,,,,,,,,,7,001,2023_Feb_01_1103,ExactRep-v3-final,2021.2.3,59.93137857925608,
,,,,,,,,56,0,56,0,,,,,,,,,,,,,,,,,,,,,,,,,,,,,,,,,,,,,,,,,,,,,,,,,,,,,660.770634500077,None,,,,,,,,,,,,,,,,,,,,,,,,,,,,,,,,,,,silence,53,57,silent,blue,658.7615902000107,None,None,658.7615902000107,None,,,,,,,,,,,,,,,,,,,,,,,,,,,,,,7,001,2023_Feb_01_1103,ExactRep-v3-final,2021.2.3,59.93137857925608,
,,,,,,,,57,0,57,0,,,,,,,,,,,,,,,,,,,,,,,,,,,,,,,,,,,,,,,,,,,,,,,,,,,,,663.2732050000923,None,,,,,,,,,,,,,,,,,,,,,,,,,,,,,,,,,,,bottle,91,58,aloud,red,661.273978900048,None,None,661.273978900048,None,,,,,,,,,,,,,,,,,,,,,,,,,,,,,,7,001,2023_Feb_01_1103,ExactRep-v3-final,2021.2.3,59.93137857925608,
,,,,,,,,58,0,58,0,,,,,,,,,,,,,,,,,,,,,,,,,,,,,,,,,,,,,,,,,,,,,,,,,,,,,665.7755775999976,None,,,,,,,,,,,,,,,,,,,,,,,,,,,,,,,,,,,animal,104,59,aloud,red,663.7760158000747,None,None,663.7760158000747,None,,,,,,,,,,,,,,,,,,,,,,,,,,,,,,7,001,2023_Feb_01_1103,ExactRep-v3-final,2021.2.3,59.93137857925608,
,,,,,,,,59,0,59,0,,,,,,,,,,,,,,,,,,,,,,,,,,,,,,,,,,,,,,,,,,,,,,,,,,,,,668.2948475000449,None,,,,,,,,,,,,,,,,,,,,,,,,,,,,,,,,,,,poet,67,60,silent,blue,666.2825400000438,None,None,666.2825400000438,None,,,,,,,,,,,,,,,,,,,,,,,,,,,,,,7,001,2023_Feb_01_1103,ExactRep-v3-final,2021.2.3,59.93137857925608,
,,,,,,,,60,0,60,0,,,,,,,,,,,,,,,,,,,,,,,,,,,,,,,,,,,,,,,,,,,,,,,,,,,,,670.7972673000768,None,,,,,,,,,,,,,,,,,,,,,,,,,,,,,,,,,,,lord,22,61,sing,white,668.7977176000131,None,None,668.7977176000131,None,,,,,,,,,,,,,,,,,,,,,,,,,,,,,,7,001,2023_Feb_01_1103,ExactRep-v3-final,2021.2.3,59.93137857925608,
,,,,,,,,61,0,61,0,,,,,,,,,,,,,,,,,,,,,,,,,,,,,,,,,,,,,,,,,,,,,,,,,,,,,673.2999511000235,None,,,,,,,,,,,,,,,,,,,,,,,,,,,,,,,,,,,advice,64,62,silent,blue,671.3005756000057,None,None,671.3005756000057,None,,,,,,,,,,,,,,,,,,,,,,,,,,,,,,7,001,2023_Feb_01_1103,ExactRep-v3-final,2021.2.3,59.93137857925608,
,,,,,,,,62,0,62,0,,,,,,,,,,,,,,,,,,,,,,,,,,,,,,,,,,,,,,,,,,,,,,,,,,,,,675.8188141999999,None,,,,,,,,,,,,,,,,,,,,,,,,,,,,,,,,,,,humour,25,63,sing,white,673.8045983000193,None,None,673.8045983000193,None,,,,,,,,,,,,,,,,,,,,,,,,,,,,,,7,001,2023_Feb_01_1103,ExactRep-v3-final,2021.2.3,59.93137857925608,
,,,,,,,,63,0,63,0,,,,,,,,,,,,,,,,,,,,,,,,,,,,,,,,,,,,,,,,,,,,,,,,,,,,,678.3382874000818,None,,,,,,,,,,,,,,,,,,,,,,,,,,,,,,,,,,,flower,31,64,sing,white,676.3275433999952,None,None,676.3275433999952,None,,,,,,,,,,,,,,,,,,,,,,,,,,,,,,7,001,2023_Feb_01_1103,ExactRep-v3-final,2021.2.3,59.93137857925608,
,,,,,,,,64,0,64,0,,,,,,,,,,,,,,,,,,,,,,,,,,,,,,,,,,,,,,,,,,,,,,,,,,,,,680.8478816000279,None,,,,,,,,,,,,,,,,,,,,,,,,,,,,,,,,,,,clock,24,65,sing,white,678.8412248000968,None,None,678.8412248000968,None,,,,,,,,,,,,,,,,,,,,,,,,,,,,,,7,001,2023_Feb_01_1103,ExactRep-v3-final,2021.2.3,59.93137857925608,
,,,,,,,,65,0,65,0,,,,,,,,,,,,,,,,,,,,,,,,,,,,,,,,,,,,,,,,,,,,,,,,,,,,,683.3765946000349,None,,,,,,,,,,,,,,,,,,,,,,,,,,,,,,,,,,,trouble,4,66,sing,white,681.3651850000024,None,None,681.3651850000024,None,,,,,,,,,,,,,,,,,,,,,,,,,,,,,,7,001,2023_Feb_01_1103,ExactRep-v3-final,2021.2.3,59.93137857925608,
,,,,,,,,66,0,66,0,,,,,,,,,,,,,,,,,,,,,,,,,,,,,,,,,,,,,,,,,,,,,,,,,,,,,685.8790505001089,None,,,,,,,,,,,,,,,,,,,,,,,,,,,,,,,,,,,grief,107,67,aloud,red,683.8779983000131,None,None,683.8779983000131,None,,,,,,,,,,,,,,,,,,,,,,,,,,,,,,7,001,2023_Feb_01_1103,ExactRep-v3-final,2021.2.3,59.93137857925608,
,,,,,,,,67,0,67,0,,,,,,,,,,,,,,,,,,,,,,,,,,,,,,,,,,,,,,,,,,,,,,,,,,,,,688.3815500000492,None,,,,,,,,,,,,,,,,,,,,,,,,,,,,,,,,,,,breast,30,68,sing,white,686.3814244000241,None,None,686.3814244000241,None,,,,,,,,,,,,,,,,,,,,,,,,,,,,,,7,001,2023_Feb_01_1103,ExactRep-v3-final,2021.2.3,59.93137857925608,
,,,,,,,,68,0,68,0,,,,,,,,,,,,,,,,,,,,,,,,,,,,,,,,,,,,,,,,,,,,,,,,,,,,,690.9007191000273,None,,,,,,,,,,,,,,,,,,,,,,,,,,,,,,,,,,,judge,69,69,silent,blue,688.8910591000458,None,None,688.8910591000458,None,,,,,,,,,,,,,,,,,,,,,,,,,,,,,,7,001,2023_Feb_01_1103,ExactRep-v3-final,2021.2.3,59.93137857925608,
,,,,,,,,69,0,69,0,,,,,,,,,,,,,,,,,,,,,,,,,,,,,,,,,,,,,,,,,,,,,,,,,,,,,693.419978100108,None,,,,,,,,,,,,,,,,,,,,,,,,,,,,,,,,,,,answer,82,70,aloud,red,691.4048766000196,None,None,691.4048766000196,None,,,,,,,,,,,,,,,,,,,,,,,,,,,,,,7,001,2023_Feb_01_1103,ExactRep-v3-final,2021.2.3,59.93137857925608,
,,,,,,,,70,0,70,0,,,,,,,,,,,,,,,,,,,,,,,,,,,,,,,,,,,,,,,,,,,,,,,,,,,,,695.9391319000861,None,,,,,,,,,,,,,,,,,,,,,,,,,,,,,,,,,,,thought,44,71,silent,blue,693.9259917000309,None,None,693.9259917000309,None,,,,,,,,,,,,,,,,,,,,,,,,,,,,,,7,001,2023_Feb_01_1103,ExactRep-v3-final,2021.2.3,59.93137857925608,
,,,,,,,,71,0,71,0,,,,,,,,,,,,,,,,,,,,,,,,,,,,,,,,,,,,,,,,,,,,,,,,,,,,,698.4582695000572,None,,,,,,,,,,,,,,,,,,,,,,,,,,,,,,,,,,,death,97,72,aloud,red,696.4430658000056,None,None,696.4430658000056,None,,,,,,,,,,,,,,,,,,,,,,,,,,,,,,7,001,2023_Feb_01_1103,ExactRep-v3-final,2021.2.3,59.93137857925608,
,,,,,,,,72,0,72,0,,,,,,,,,,,,,,,,,,,,,,,,,,,,,,,,,,,,,,,,,,,,,,,,,,,,,700.9608357000398,None,,,,,,,,,,,,,,,,,,,,,,,,,,,,,,,,,,,form,33,73,sing,white,698.9587749000639,None,None,698.9587749000639,None,,,,,,,,,,,,,,,,,,,,,,,,,,,,,,7,001,2023_Feb_01_1103,ExactRep-v3-final,2021.2.3,59.93137857925608,
,,,,,,,,73,0,73,0,,,,,,,,,,,,,,,,,,,,,,,,,,,,,,,,,,,,,,,,,,,,,,,,,,,,,703.4632512000389,None,,,,,,,,,,,,,,,,,,,,,,,,,,,,,,,,,,,artist,102,74,aloud,red,701.4631464000558,None,None,701.4631464000558,None,,,,,,,,,,,,,,,,,,,,,,,,,,,,,,7,001,2023_Feb_01_1103,ExactRep-v3-final,2021.2.3,59.93137857925608,
,,,,,,,,74,0,74,0,,,,,,,,,,,,,,,,,,,,,,,,,,,,,,,,,,,,,,,,,,,,,,,,,,,,,705.982430000091,None,,,,,,,,,,,,,,,,,,,,,,,,,,,,,,,,,,,fortune,13,75,sing,white,703.9707922000671,None,None,703.9707922000671,None,,,,,,,,,,,,,,,,,,,,,,,,,,,,,,7,001,2023_Feb_01_1103,ExactRep-v3-final,2021.2.3,59.93137857925608,
,,,,,,,,75,0,75,0,,,,,,,,,,,,,,,,,,,,,,,,,,,,,,,,,,,,,,,,,,,,,,,,,,,,,708.5016558000352,None,,,,,,,,,,,,,,,,,,,,,,,,,,,,,,,,,,,shoes,108,76,aloud,red,706.4923713000026,None,None,706.4923713000026,None,,,,,,,,,,,,,,,,,,,,,,,,,,,,,,7,001,2023_Feb_01_1103,ExactRep-v3-final,2021.2.3,59.93137857925608,
,,,,,,,,76,0,76,0,,,,,,,,,,,,,,,,,,,,,,,,,,,,,,,,,,,,,,,,,,,,,,,,,,,,,711.020917100017,None,,,,,,,,,,,,,,,,,,,,,,,,,,,,,,,,,,,master,58,77,silent,blue,709.0083721000701,None,None,709.0083721000701,None,,,,,,,,,,,,,,,,,,,,,,,,,,,,,,7,001,2023_Feb_01_1103,ExactRep-v3-final,2021.2.3,59.93137857925608,
,,,,,,,,77,0,77,0,,,,,,,,,,,,,,,,,,,,,,,,,,,,,,,,,,,,,,,,,,,,,,,,,,,,,713.5400102999993,None,,,,,,,,,,,,,,,,,,,,,,,,,,,,,,,,,,,coffee,72,78,silent,blue,711.5248193000443,None,None,711.5248193000443,None,,,,,,,,,,,,,,,,,,,,,,,,,,,,,,7,001,2023_Feb_01_1103,ExactRep-v3-final,2021.2.3,59.93137857925608,
,,,,,,,,78,0,78,0,,,,,,,,,,,,,,,,,,,,,,,,,,,,,,,,,,,,,,,,,,,,,,,,,,,,,716.042478700052,None,,,,,,,,,,,,,,,,,,,,,,,,,,,,,,,,,,,market,17,79,sing,white,714.0420945000369,None,None,714.0420945000369,None,,,,,,,,,,,,,,,,,,,,,,,,,,,,,,7,001,2023_Feb_01_1103,ExactRep-v3-final,2021.2.3,59.93137857925608,
,,,,,,,,79,0,79,0,,,,,,,,,,,,,,,,,,,,,,,,,,,,,,,,,,,,,,,,,,,,,,,,,,,,,718.5616687000729,None,,,,,,,,,,,,,,,,,,,,,,,,,,,,,,,,,,,hide,61,80,silent,blue,716.5536987000378,None,None,716.5536987000378,None,,,,,,,,,,,,,,,,,,,,,,,,,,,,,,7,001,2023_Feb_01_1103,ExactRep-v3-final,2021.2.3,59.93137857925608,
,,,,,,,,80,0,80,0,,,,,,,,,,,,,,,,,,,,,,,,,,,,,,,,,,,,,,,,,,,,,,,,,,,,,721.0642018000362,None,,,,,,,,,,,,,,,,,,,,,,,,,,,,,,,,,,,cost,96,81,aloud,red,719.0621915000957,None,None,719.0621915000957,None,,,,,,,,,,,,,,,,,,,,,,,,,,,,,,7,001,2023_Feb_01_1103,ExactRep-v3-final,2021.2.3,59.93137857925608,
,,,,,,,,81,0,81,0,,,,,,,,,,,,,,,,,,,,,,,,,,,,,,,,,,,,,,,,,,,,,,,,,,,,,723.5833233000012,None,,,,,,,,,,,,,,,,,,,,,,,,,,,,,,,,,,,doll,93,82,aloud,red,721.573439000058,None,None,721.573439000058,None,,,,,,,,,,,,,,,,,,,,,,,,,,,,,,7,001,2023_Feb_01_1103,ExactRep-v3-final,2021.2.3,59.93137857925608,
,,,,,,,,82,0,82,0,,,,,,,,,,,,,,,,,,,,,,,,,,,,,,,,,,,,,,,,,,,,,,,,,,,,,726.102570899995,None,,,,,,,,,,,,,,,,,,,,,,,,,,,,,,,,,,,anger,73,83,silent,blue,724.0943701000651,None,None,724.0943701000651,None,,,,,,,,,,,,,,,,,,,,,,,,,,,,,,7,001,2023_Feb_01_1103,ExactRep-v3-final,2021.2.3,59.93137857925608,
,,,,,,,,83,0,83,0,,,,,,,,,,,,,,,,,,,,,,,,,,,,,,,,,,,,,,,,,,,,,,,,,,,,,728.6050375000341,None,,,,,,,,,,,,,,,,,,,,,,,,,,,,,,,,,,,chair,105,84,aloud,red,726.6030852000695,None,None,726.6030852000695,None,,,,,,,,,,,,,,,,,,,,,,,,,,,,,,7,001,2023_Feb_01_1103,ExactRep-v3-final,2021.2.3,59.93137857925608,
,,,,,,,,84,0,84,0,,,,,,,,,,,,,,,,,,,,,,,,,,,,,,,,,,,,,,,,,,,,,,,,,,,,,731.1242581000552,None,,,,,,,,,,,,,,,,,,,,,,,,,,,,,,,,,,,tool,94,85,aloud,red,729.114088500035,None,None,729.114088500035,None,,,,,,,,,,,,,,,,,,,,,,,,,,,,,,7,001,2023_Feb_01_1103,ExactRep-v3-final,2021.2.3,59.93137857925608,
,,,,,,,,85,0,85,0,,,,,,,,,,,,,,,,,,,,,,,,,,,,,,,,,,,,,,,,,,,,,,,,,,,,,733.6267984000733,None,,,,,,,,,,,,,,,,,,,,,,,,,,,,,,,,,,,river,71,86,silent,blue,731.6258869000012,None,None,731.6258869000012,None,,,,,,,,,,,,,,,,,,,,,,,,,,,,,,7,001,2023_Feb_01_1103,ExactRep-v3-final,2021.2.3,59.93137857925608,
,,,,,,,,86,0,86,0,,,,,,,,,,,,,,,,,,,,,,,,,,,,,,,,,,,,,,,,,,,,,,,,,,,,,736.1303965999978,None,,,,,,,,,,,,,,,,,,,,,,,,,,,,,,,,,,,speech,75,87,silent,blue,734.1304174000397,None,None,734.1304174000397,None,,,,,,,,,,,,,,,,,,,,,,,,,,,,,,7,001,2023_Feb_01_1103,ExactRep-v3-final,2021.2.3,59.93137857925608,
,,,,,,,,87,0,87,0,,,,,,,,,,,,,,,,,,,,,,,,,,,,,,,,,,,,,,,,,,,,,,,,,,,,,738.6484300000593,None,,,,,,,,,,,,,,,,,,,,,,,,,,,,,,,,,,,cattle,27,88,sing,white,736.6390621000901,None,None,736.6390621000901,None,,,,,,,,,,,,,,,,,,,,,,,,,,,,,,7,001,2023_Feb_01_1103,ExactRep-v3-final,2021.2.3,59.93137857925608,
,,,,,,,,88,0,88,0,,,,,,,,,,,,,,,,,,,,,,,,,,,,,,,,,,,,,,,,,,,,,,,,,,,,,741.1508720000274,None,,,,,,,,,,,,,,,,,,,,,,,,,,,,,,,,,,,devil,118,89,aloud,red,739.1488956999965,None,None,739.1488956999965,None,,,,,,,,,,,,,,,,,,,,,,,,,,,,,,7,001,2023_Feb_01_1103,ExactRep-v3-final,2021.2.3,59.93137857925608,
,,,,,,,,89,0,89,0,,,,,,,,,,,,,,,,,,,,,,,,,,,,,,,,,,,,,,,,,,,,,,,,,,,,,743.6534503001021,None,,,,,,,,,,,,,,,,,,,,,,,,,,,,,,,,,,,dust,78,90,silent,blue,741.6529499000171,None,None,741.6529499000171,None,,,,,,,,,,,,,,,,,,,,,,,,,,,,,,7,001,2023_Feb_01_1103,ExactRep-v3-final,2021.2.3,59.93137857925608,
,,,,,,,,90,0,90,0,,,,,,,,,,,,,,,,,,,,,,,,,,,,,,,,,,,,,,,,,,,,,,,,,,,,,746.1728822001023,None,,,,,,,,,,,,,,,,,,,,,,,,,,,,,,,,,,,life,76,91,silent,blue,744.1634144000709,None,None,744.1634144000709,None,,,,,,,,,,,,,,,,,,,,,,,,,,,,,,7,001,2023_Feb_01_1103,ExactRep-v3-final,2021.2.3,59.93137857925608,
,,,,,,,,91,0,91,0,,,,,,,,,,,,,,,,,,,,,,,,,,,,,,,,,,,,,,,,,,,,,,,,,,,,,748.6917835000204,None,,,,,,,,,,,,,,,,,,,,,,,,,,,,,,,,,,,grass,15,92,sing,white,746.6834851000458,None,None,746.6834851000458,None,,,,,,,,,,,,,,,,,,,,,,,,,,,,,,7,001,2023_Feb_01_1103,ExactRep-v3-final,2021.2.3,59.93137857925608,
,,,,,,,,92,0,92,0,,,,,,,,,,,,,,,,,,,,,,,,,,,,,,,,,,,,,,,,,,,,,,,,,,,,,751.1942919000285,None,,,,,,,,,,,,,,,,,,,,,,,,,,,,,,,,,,,prayer,113,93,aloud,red,749.192107000039,None,None,749.192107000039,None,,,,,,,,,,,,,,,,,,,,,,,,,,,,,,7,001,2023_Feb_01_1103,ExactRep-v3-final,2021.2.3,59.93137857925608,
,,,,,,,,93,0,93,0,,,,,,,,,,,,,,,,,,,,,,,,,,,,,,,,,,,,,,,,,,,,,,,,,,,,,753.6968480000505,None,,,,,,,,,,,,,,,,,,,,,,,,,,,,,,,,,,,cottage,81,94,aloud,red,751.6948061001021,None,None,751.6948061001021,None,,,,,,,,,,,,,,,,,,,,,,,,,,,,,,7,001,2023_Feb_01_1103,ExactRep-v3-final,2021.2.3,59.93137857925608,
,,,,,,,,94,0,94,0,,,,,,,,,,,,,,,,,,,,,,,,,,,,,,,,,,,,,,,,,,,,,,,,,,,,,756.2159794000909,None,,,,,,,,,,,,,,,,,,,,,,,,,,,,,,,,,,,diamond,1,95,sing,white,754.2047191000311,None,None,754.2047191000311,None,,,,,,,,,,,,,,,,,,,,,,,,,,,,,,7,001,2023_Feb_01_1103,ExactRep-v3-final,2021.2.3,59.93137857925608,
,,,,,,,,95,0,95,0,,,,,,,,,,,,,,,,,,,,,,,,,,,,,,,,,,,,,,,,,,,,,,,,,,,,,758.7351769000525,None,,,,,,,,,,,,,,,,,,,,,,,,,,,,,,,,,,,moment,86,96,aloud,red,756.7206209000433,None,None,756.7206209000433,None,,,,,,,,,,,,,,,,,,,,,,,,,,,,,,7,001,2023_Feb_01_1103,ExactRep-v3-final,2021.2.3,59.93137857925608,
,,,,,,,,96,0,96,0,,,,,,,,,,,,,,,,,,,,,,,,,,,,,,,,,,,,,,,,,,,,,,,,,,,,,761.2376129000913,None,,,,,,,,,,,,,,,,,,,,,,,,,,,,,,,,,,,body,99,97,aloud,red,759.2360344000626,None,None,759.2360344000626,None,,,,,,,,,,,,,,,,,,,,,,,,,,,,,,7,001,2023_Feb_01_1103,ExactRep-v3-final,2021.2.3,59.93137857925608,
,,,,,,,,97,0,97,0,,,,,,,,,,,,,,,,,,,,,,,,,,,,,,,,,,,,,,,,,,,,,,,,,,,,,763.740182000096,None,,,,,,,,,,,,,,,,,,,,,,,,,,,,,,,,,,,stone,3,98,sing,white,761.7403043000959,None,None,761.7403043000959,None,,,,,,,,,,,,,,,,,,,,,,,,,,,,,,7,001,2023_Feb_01_1103,ExactRep-v3-final,2021.2.3,59.93137857925608,
,,,,,,,,98,0,98,0,,,,,,,,,,,,,,,,,,,,,,,,,,,,,,,,,,,,,,,,,,,,,,,,,,,,,766.2427121000364,None,,,,,,,,,,,,,,,,,,,,,,,,,,,,,,,,,,,ship,16,99,sing,white,764.2426316000056,None,None,764.2426316000056,None,,,,,,,,,,,,,,,,,,,,,,,,,,,,,,7,001,2023_Feb_01_1103,ExactRep-v3-final,2021.2.3,59.93137857925608,
,,,,,,,,99,0,99,0,,,,,,,,,,,,,,,,,,,,,,,,,,,,,,,,,,,,,,,,,,,,,,,,,,,,,768.7624560000841,None,,,,,,,,,,,,,,,,,,,,,,,,,,,,,,,,,,,village,112,100,aloud,red,766.7466652001021,None,None,766.7466652001021,None,,,,,,,,,,,,,,,,,,,,,,,,,,,,,,7,001,2023_Feb_01_1103,ExactRep-v3-final,2021.2.3,59.93137857925608,
,,,,,,,,100,0,100,0,,,,,,,,,,,,,,,,,,,,,,,,,,,,,,,,,,,,,,,,,,,,,,,,,,,,,771.2640732000582,None,,,,,,,,,,,,,,,,,,,,,,,,,,,,,,,,,,,sky,89,101,aloud,red,769.2622814000351,None,None,769.2622814000351,None,,,,,,,,,,,,,,,,,,,,,,,,,,,,,,7,001,2023_Feb_01_1103,ExactRep-v3-final,2021.2.3,59.93137857925608,
,,,,,,,,101,0,101,0,,,,,,,,,,,,,,,,,,,,,,,,,,,,,,,,,,,,,,,,,,,,,,,,,,,,,773.7836455000797,None,,,,,,,,,,,,,,,,,,,,,,,,,,,,,,,,,,,paper,80,102,aloud,red,771.7679651000071,None,None,771.7679651000071,None,,,,,,,,,,,,,,,,,,,,,,,,,,,,,,7,001,2023_Feb_01_1103,ExactRep-v3-final,2021.2.3,59.93137857925608,
,,,,,,,,102,0,102,0,,,,,,,,,,,,,,,,,,,,,,,,,,,,,,,,,,,,,,,,,,,,,,,,,,,,,776.2860586000606,None,,,,,,,,,,,,,,,,,,,,,,,,,,,,,,,,,,,length,42,103,silent,blue,774.2850966000697,None,None,774.2850966000697,None,,,,,,,,,,,,,,,,,,,,,,,,,,,,,,7,001,2023_Feb_01_1103,ExactRep-v3-final,2021.2.3,59.93137857925608,
,,,,,,,,103,0,103,0,,,,,,,,,,,,,,,,,,,,,,,,,,,,,,,,,,,,,,,,,,,,,,,,,,,,,778.7886572000571,None,,,,,,,,,,,,,,,,,,,,,,,,,,,,,,,,,,,wine,66,104,silent,blue,776.7865127000259,None,None,776.7865127000259,None,,,,,,,,,,,,,,,,,,,,,,,,,,,,,,7,001,2023_Feb_01_1103,ExactRep-v3-final,2021.2.3,59.93137857925608,
,,,,,,,,104,0,104,0,,,,,,,,,,,,,,,,,,,,,,,,,,,,,,,,,,,,,,,,,,,,,,,,,,,,,781.3077563000843,None,,,,,,,,,,,,,,,,,,,,,,,,,,,,,,,,,,,season,52,105,silent,blue,779.2966807000339,None,None,779.2966807000339,None,,,,,,,,,,,,,,,,,,,,,,,,,,,,,,7,001,2023_Feb_01_1103,ExactRep-v3-final,2021.2.3,59.93137857925608,
,,,,,,,,105,0,105,0,,,,,,,,,,,,,,,,,,,,,,,,,,,,,,,,,,,,,,,,,,,,,,,,,,,,,783.8103269001003,None,,,,,,,,,,,,,,,,,,,,,,,,,,,,,,,,,,,troops,14,106,sing,white,781.8082863000454,None,None,781.8082863000454,None,,,,,,,,,,,,,,,,,,,,,,,,,,,,,,7,001,2023_Feb_01_1103,ExactRep-v3-final,2021.2.3,59.93137857925608,
,,,,,,,,106,0,106,0,,,,,,,,,,,,,,,,,,,,,,,,,,,,,,,,,,,,,,,,,,,,,,,,,,,,,786.3294827000936,None,,,,,,,,,,,,,,,,,,,,,,,,,,,,,,,,,,,weapon,35,107,sing,white,784.3213228000095,None,None,784.3213228000095,None,,,,,,,,,,,,,,,,,,,,,,,,,,,,,,7,001,2023_Feb_01_1103,ExactRep-v3-final,2021.2.3,59.93137857925608,
,,,,,,,,107,0,107,0,,,,,,,,,,,,,,,,,,,,,,,,,,,,,,,,,,,,,,,,,,,,,,,,,,,,,788.8319664000301,None,,,,,,,,,,,,,,,,,,,,,,,,,,,,,,,,,,,month,29,108,sing,white,786.8299932000227,None,None,786.8299932000227,None,,,,,,,,,,,,,,,,,,,,,,,,,,,,,,7,001,2023_Feb_01_1103,ExactRep-v3-final,2021.2.3,59.93137857925608,
,,,,,,,,108,0,108,0,,,,,,,,,,,,,,,,,,,,,,,,,,,,,,,,,,,,,,,,,,,,,,,,,,,,,791.3510852000909,None,,,,,,,,,,,,,,,,,,,,,,,,,,,,,,,,,,,glory,68,109,silent,blue,789.3375456000213,None,None,789.3375456000213,None,,,,,,,,,,,,,,,,,,,,,,,,,,,,,,7,001,2023_Feb_01_1103,ExactRep-v3-final,2021.2.3,59.93137857925608,
,,,,,,,,109,0,109,0,,,,,,,,,,,,,,,,,,,,,,,,,,,,,,,,,,,,,,,,,,,,,,,,,,,,,793.8584944000468,None,,,,,,,,,,,,,,,,,,,,,,,,,,,,,,,,,,,blood,56,110,silent,blue,791.8516205000924,None,None,791.8516205000924,None,,,,,,,,,,,,,,,,,,,,,,,,,,,,,,7,001,2023_Feb_01_1103,ExactRep-v3-final,2021.2.3,59.93137857925608,
,,,,,,,,110,0,110,0,,,,,,,,,,,,,,,,,,,,,,,,,,,,,,,,,,,,,,,,,,,,,,,,,,,,,796.3728231000714,None,,,,,,,,,,,,,,,,,,,,,,,,,,,,,,,,,,,arm,98,111,aloud,red,794.3706099000992,None,None,794.3706099000992,None,,,,,,,,,,,,,,,,,,,,,,,,,,,,,,7,001,2023_Feb_01_1103,ExactRep-v3-final,2021.2.3,59.93137857925608,
,,,,,,,,111,0,111,0,,,,,,,,,,,,,,,,,,,,,,,,,,,,,,,,,,,,,,,,,,,,,,,,,,,,,798.8934369001072,None,,,,,,,,,,,,,,,,,,,,,,,,,,,,,,,,,,,colony,117,112,aloud,red,796.8853274000576,None,None,796.8853274000576,None,,,,,,,,,,,,,,,,,,,,,,,,,,,,,,7,001,2023_Feb_01_1103,ExactRep-v3-final,2021.2.3,59.93137857925608,
,,,,,,,,112,0,112,0,,,,,,,,,,,,,,,,,,,,,,,,,,,,,,,,,,,,,,,,,,,,,,,,,,,,,801.4109994000755,None,,,,,,,,,,,,,,,,,,,,,,,,,,,,,,,,,,,wheat,7,113,sing,white,799.4034422000404,None,None,799.4034422000404,None,,,,,,,,,,,,,,,,,,,,,,,,,,,,,,7,001,2023_Feb_01_1103,ExactRep-v3-final,2021.2.3,59.93137857925608,
,,,,,,,,113,0,113,0,,,,,,,,,,,,,,,,,,,,,,,,,,,,,,,,,,,,,,,,,,,,,,,,,,,,,803.9304476000834,None,,,,,,,,,,,,,,,,,,,,,,,,,,,,,,,,,,,sea,18,114,sing,white,801.9156554000219,None,None,801.9156554000219,None,,,,,,,,,,,,,,,,,,,,,,,,,,,,,,7,001,2023_Feb_01_1103,ExactRep-v3-final,2021.2.3,59.93137857925608,
,,,,,,,,114,0,114,0,,,,,,,,,,,,,,,,,,,,,,,,,,,,,,,,,,,,,,,,,,,,,,,,,,,,,806.4492868999951,None,,,,,,,,,,,,,,,,,,,,,,,,,,,,,,,,,,,fact,40,115,silent,blue,804.4394567999989,None,None,804.4394567999989,None,,,,,,,,,,,,,,,,,,,,,,,,,,,,,,7,001,2023_Feb_01_1103,ExactRep-v3-final,2021.2.3,59.93137857925608,
,,,,,,,,115,0,115,0,,,,,,,,,,,,,,,,,,,,,,,,,,,,,,,,,,,,,,,,,,,,,,,,,,,,,808.9521700000623,None,,,,,,,,,,,,,,,,,,,,,,,,,,,,,,,,,,,queen,103,116,aloud,red,806.9500394000206,None,None,806.9500394000206,None,,,,,,,,,,,,,,,,,,,,,,,,,,,,,,7,001,2023_Feb_01_1103,ExactRep-v3-final,2021.2.3,59.93137857925608,
,,,,,,,,116,0,116,0,,,,,,,,,,,,,,,,,,,,,,,,,,,,,,,,,,,,,,,,,,,,,,,,,,,,,811.4712292000186,None,,,,,,,,,,,,,,,,,,,,,,,,,,,,,,,,,,,girl,47,117,silent,blue,809.4558432000922,None,None,809.4558432000922,None,,,,,,,,,,,,,,,,,,,,,,,,,,,,,,7,001,2023_Feb_01_1103,ExactRep-v3-final,2021.2.3,59.93137857925608,
,,,,,,,,117,0,117,0,,,,,,,,,,,,,,,,,,,,,,,,,,,,,,,,,,,,,,,,,,,,,,,,,,,,,813.9904558000853,None,,,,,,,,,,,,,,,,,,,,,,,,,,,,,,,,,,,history,6,118,sing,white,811.979955600109,None,None,811.979955600109,None,,,,,,,,,,,,,,,,,,,,,,,,,,,,,,7,001,2023_Feb_01_1103,ExactRep-v3-final,2021.2.3,59.93137857925608,
,,,,,,,,118,0,118,0,,,,,,,,,,,,,,,,,,,,,,,,,,,,,,,,,,,,,,,,,,,,,,,,,,,,,816.492667100043,None,,,,,,,,,,,,,,,,,,,,,,,,,,,,,,,,,,,valley,87,119,aloud,red,814.491236000089,None,None,814.491236000089,None,,,,,,,,,,,,,,,,,,,,,,,,,,,,,,7,001,2023_Feb_01_1103,ExactRep-v3-final,2021.2.3,59.93137857925608,
,,,,,,,,119,0,119,0,,,,,,,,,,,,,,,,,,,,,,,,,,,,,,,,,,,,,,,,,,,,,,,,,,,,,818.9955131000606,None,,,,,,,,,,,,,,,,,,,,,,,,,,,,,,,,,,,lake,23,120,sing,white,816.9933359000133,None,None,816.9933359000133,None,,,,,,,,,,,,,,,,,,,,,,,,,,,,,,7,001,2023_Feb_01_1103,ExactRep-v3-final,2021.2.3,59.93137857925608,
,,,,,,,,,,,,,,,,,,,,,,,,,,,,,,,,,,,,,,,,,,,,,,,,,,,,,,,,,,,,,,,,,,,,,,,,,,,,,,,,,,,,,,,,,,,,,,,,,,,,,,,,,,,,,,819.4975775000639,None,space,5.358022999949753,829.4738288000226,None,,,,,,,,,,,,,,,,,,,,,,,,7,001,2023_Feb_01_1103,ExactRep-v3-final,2021.2.3,59.93137857925608,
,,,,,,,,,,,,,,,,,,,,,,,,,,,,,,,,,,,,,,,,,,,,,,,,,,,,,,,,,,,,,,,,,,,,,,,,,,,,,,,,,,,,,,,,,,,,,,,,,,,,,,,,,,,,,,,,,,,,834.8630840000696,None,space,32.93634250003379,844.8393481000094,None,,,,,,,,,,,,,,,,,,7,001,2023_Feb_01_1103,ExactRep-v3-final,2021.2.3,59.93137857925608,
,,,,,,,,,,,,0,0,0,0,,,,,,,,,,,,,,,,,,,,,,,,,,,,,,,,,,,,,,,,,,,,,,,,,882.4755250000162,None,,,,,,,,,,,,,,,,,,,,,,,,,,,,,,,,,,,,,,,,,,,,,,,,,,,,,,,,,party,204,1,aloud,new,yellow,878.3145967000164,None,n,878.3145967000164,None,"['n', 'return']","[2.5572579000145197, 4.125056500080973]",878.3145967000164,None,,,7,001,2023_Feb_01_1103,ExactRep-v3-final,2021.2.3,59.93137857925608,
,,,,,,,,,,,,1,0,1,0,,,,,,,,,,,,,,,,,,,,,,,,,,,,,,,,,,,,,,,,,,,,,,,,,890.7671616000589,None,,,,,,,,,,,,,,,,,,,,,,,,,,,,,,,,,,,,,,,,,,,,,,,,,,,,,,,,,fate,195,2,sing,new,yellow,882.9868234000169,None,y,882.9868234000169,None,"['y', 'return']","[7.572699000011198, 7.748769099940546]",882.9868234000169,None,,,7,001,2023_Feb_01_1103,ExactRep-v3-final,2021.2.3,59.93137857925608,
,,,,,,,,,,,,2,0,2,0,,,,,,,,,,,,,,,,,,,,,,,,,,,,,,,,,,,,,,,,,,,,,,,,,893.4876174000092,None,,,,,,,,,,,,,,,,,,,,,,,,,,,,,,,,,,,,,,,,,,,,,,,,,,,,,,,,,engine,48,3,silent,old,yellow,891.2749564000405,None,n,891.2749564000405,None,"['n', 'return']","[1.3806171000469476, 2.1646039000479504]",891.2749564000405,None,,,7,001,2023_Feb_01_1103,ExactRep-v3-final,2021.2.3,59.93137857925608,
,,,,,,,,,,,,3,0,3,0,,,,,,,,,,,,,,,,,,,,,,,,,,,,,,,,,,,,,,,,,,,,,,,,,895.1726058000932,None,,,,,,,,,,,,,,,,,,,,,,,,,,,,,,,,,,,,,,,,,,,,,,,,,,,,,,,,,rod,123,4,silent,new,yellow,893.9970246000448,None,n,893.9970246000448,None,"['n', 'return']","[0.9304731000447646, 1.1385845000622794]",893.9970246000448,None,,,7,001,2023_Feb_01_1103,ExactRep-v3-final,2021.2.3,59.93137857925608,
,,,,,,,,,,,,4,0,4,0,,,,,,,,,,,,,,,,,,,,,,,,,,,,,,,,,,,,,,,,,,,,,,,,,896.9732051000465,None,,,,,,,,,,,,,,,,,,,,,,,,,,,,,,,,,,,,,,,,,,,,,,,,,,,,,,,,,meadow,50,5,silent,old,yellow,895.6828856000211,None,n,895.6828856000211,None,"['n', 'return']","[1.0607147000264376, 1.2527108000358567]",895.6828856000211,None,,,7,001,2023_Feb_01_1103,ExactRep-v3-final,2021.2.3,59.93137857925608,
,,,,,,,,,,,,5,0,5,0,,,,,,,,,,,,,,,,,,,,,,,,,,,,,,,,,,,,,,,,,,,,,,,,,899.742820500047,None,,,,,,,,,,,,,,,,,,,,,,,,,,,,,,,,,,,,,,,,,,,,,,,,,,,,,,,,,style,163,6,sing,new,yellow,897.4820659999968,None,n,897.4820659999968,None,"['n', 'return']","[1.909638800076209, 2.221539800055325]",897.4820659999968,None,,,7,001,2023_Feb_01_1103,ExactRep-v3-final,2021.2.3,59.93137857925608,
,,,,,,,,,,,,6,0,6,0,,,,,,,,,,,,,,,,,,,,,,,,,,,,,,,,,,,,,,,,,,,,,,,,,901.7281063999981,None,,,,,,,,,,,,,,,,,,,,,,,,,,,,,,,,,,,,,,,,,,,,,,,,,,,,,,,,,garden,239,7,sing,new,yellow,900.2535645000171,None,y,900.2535645000171,None,"['y', 'return']","[1.2259661999996752, 1.4339711000211537]",900.2535645000171,None,,,7,001,2023_Feb_01_1103,ExactRep-v3-final,2021.2.3,59.93137857925608,
,,,,,,,,,,,,7,0,7,0,,,,,,,,,,,,,,,,,,,,,,,,,,,,,,,,,,,,,,,,,,,,,,,,,903.4464249000885,None,,,,,,,,,,,,,,,,,,,,,,,,,,,,,,,,,,,,,,,,,,,,,,,,,,,,,,,,,world,217,8,sing,new,yellow,902.2391593001084,None,y,902.2391593001084,None,"['y', 'return']","[1.0005762000801042, 1.1684340999927372]",902.2391593001084,None,,,7,001,2023_Feb_01_1103,ExactRep-v3-final,2021.2.3,59.93137857925608,
,,,,,,,,,,,,8,0,8,0,,,,,,,,,,,,,,,,,,,,,,,,,,,,,,,,,,,,,,,,,,,,,,,,,905.064703800017,None,,,,,,,,,,,,,,,,,,,,,,,,,,,,,,,,,,,,,,,,,,,,,,,,,,,,,,,,,master,58,9,silent,old,yellow,903.9593987000408,None,y,903.9593987000408,None,"['y', 'return']","[0.9362401999533176, 1.0721955000190064]",903.9593987000408,None,,,7,001,2023_Feb_01_1103,ExactRep-v3-final,2021.2.3,59.93137857925608,
,,,,,,,,,,,,9,0,9,0,,,,,,,,,,,,,,,,,,,,,,,,,,,,,,,,,,,,,,,,,,,,,,,,,907.9842822001083,None,,,,,,,,,,,,,,,,,,,,,,,,,,,,,,,,,,,,,,,,,,,,,,,,,,,,,,,,,gift,211,10,sing,new,yellow,905.5794946000678,None,y,905.5794946000678,None,"['y', 'return']","[2.2120330999605358, 2.37201220006682]",905.5794946000678,None,,,7,001,2023_Feb_01_1103,ExactRep-v3-final,2021.2.3,59.93137857925608,
,,,,,,,,,,,,10,0,10,0,,,,,,,,,,,,,,,,,,,,,,,,,,,,,,,,,,,,,,,,,,,,,,,,,913.4565628001001,None,,,,,,,,,,,,,,,,,,,,,,,,,,,,,,,,,,,,,,,,,,,,,,,,,,,,,,,,,dream,143,11,silent,new,yellow,908.4956005000276,None,y,908.4956005000276,None,"['y', 'return']","[4.759943900047801, 4.91997310006991]",908.4956005000276,None,,,7,001,2023_Feb_01_1103,ExactRep-v3-final,2021.2.3,59.93137857925608,
,,,,,,,,,,,,11,0,11,0,,,,,,,,,,,,,,,,,,,,,,,,,,,,,,,,,,,,,,,,,,,,,,,,,915.6586427000584,None,,,,,,,,,,,,,,,,,,,,,,,,,,,,,,,,,,,,,,,,,,,,,,,,,,,,,,,,,answer,82,12,aloud,old,yellow,913.9680418000789,None,y,913.9680418000789,None,"['y', 'return']","[1.5035047000274062, 1.6473965999903157]",913.9680418000789,None,,,7,001,2023_Feb_01_1103,ExactRep-v3-final,2021.2.3,59.93137857925608,
,,,,,,,,,,,,12,0,12,0,,,,,,,,,,,,,,,,,,,,,,,,,,,,,,,,,,,,,,,,,,,,,,,,,917.2436426000204,None,,,,,,,,,,,,,,,,,,,,,,,,,,,,,,,,,,,,,,,,,,,,,,,,,,,,,,,,,coast,10,13,sing,old,yellow,916.1713037000736,None,y,916.1713037000736,None,"['y', 'return']","[0.9084315999643877, 1.0363157999236137]",916.1713037000736,None,,,7,001,2023_Feb_01_1103,ExactRep-v3-final,2021.2.3,59.93137857925608,
,,,,,,,,,,,,13,0,13,0,,,,,,,,,,,,,,,,,,,,,,,,,,,,,,,,,,,,,,,,,,,,,,,,,918.7454461000161,None,,,,,,,,,,,,,,,,,,,,,,,,,,,,,,,,,,,,,,,,,,,,,,,,,,,,,,,,,mind,132,14,silent,new,yellow,917.7611835000571,None,y,917.7611835000571,None,"['y', 'return']","[0.8224160999525338, 0.9504508000100031]",917.7611835000571,None,,,7,001,2023_Feb_01_1103,ExactRep-v3-final,2021.2.3,59.93137857925608,
,,,,,,,,,,,,14,0,14,0,,,,,,,,,,,,,,,,,,,,,,,,,,,,,,,,,,,,,,,,,,,,,,,,,920.3135506000835,None,,,,,,,,,,,,,,,,,,,,,,,,,,,,,,,,,,,,,,,,,,,,,,,,,,,,,,,,,woman,114,15,aloud,old,yellow,919.2567204000661,None,y,919.2567204000661,None,"['y', 'return']","[0.8708644999423996, 1.0148679999401793]",919.2567204000661,None,,,7,001,2023_Feb_01_1103,ExactRep-v3-final,2021.2.3,59.93137857925608,
,,,,,,,,,,,,15,0,15,0,,,,,,,,,,,,,,,,,,,,,,,,,,,,,,,,,,,,,,,,,,,,,,,,,922.0319286000449,None,,,,,,,,,,,,,,,,,,,,,,,,,,,,,,,,,,,,,,,,,,,,,,,,,,,,,,,,,ship,16,16,sing,old,yellow,920.8237011000747,None,y,920.8237011000747,None,"['y', 'return']","[1.0638409000821412, 1.1759422000031918]",920.8237011000747,None,,,7,001,2023_Feb_01_1103,ExactRep-v3-final,2021.2.3,59.93137857925608,
,,,,,,,,,,,,16,0,16,0,,,,,,,,,,,,,,,,,,,,,,,,,,,,,,,,,,,,,,,,,,,,,,,,,923.7167126000859,None,,,,,,,,,,,,,,,,,,,,,,,,,,,,,,,,,,,,,,,,,,,,,,,,,,,,,,,,,slave,151,17,silent,new,yellow,922.5427246000618,None,n,922.5427246000618,None,"['n', 'return']","[0.9528155999723822, 1.1288287999341264]",922.5427246000618,None,,,7,001,2023_Feb_01_1103,ExactRep-v3-final,2021.2.3,59.93137857925608,
,,,,,,,,,,,,17,0,17,0,,,,,,,,,,,,,,,,,,,,,,,,,,,,,,,,,,,,,,,,,,,,,,,,,925.535405300092,None,,,,,,,,,,,,,,,,,,,,,,,,,,,,,,,,,,,,,,,,,,,,,,,,,,,,,,,,,thought,44,18,silent,old,yellow,924.2249229000881,None,y,924.2249229000881,None,"['y', 'return']","[1.1426086999708787, 1.2625973999965936]",924.2249229000881,None,,,7,001,2023_Feb_01_1103,ExactRep-v3-final,2021.2.3,59.93137857925608,
,,,,,,,,,,,,18,0,18,0,,,,,,,,,,,,,,,,,,,,,,,,,,,,,,,,,,,,,,,,,,,,,,,,,927.5038902000524,None,,,,,,,,,,,,,,,,,,,,,,,,,,,,,,,,,,,,,,,,,,,,,,,,,,,,,,,,,power,120,19,silent,new,yellow,926.044982100022,None,n,926.044982100022,None,"['n', 'return']","[1.09054250002373, 1.4106404000194743]",926.044982100022,None,,,7,001,2023_Feb_01_1103,ExactRep-v3-final,2021.2.3,59.93137857925608,
,,,,,,,,,,,,19,0,19,0,,,,,,,,,,,,,,,,,,,,,,,,,,,,,,,,,,,,,,,,,,,,,,,,,929.4557369000977,None,,,,,,,,,,,,,,,,,,,,,,,,,,,,,,,,,,,,,,,,,,,,,,,,,,,,,,,,,king,176,20,aloud,new,yellow,928.0160195000935,None,n,928.0160195000935,None,"['n', 'return']","[1.2315229000523686, 1.391614800086245]",928.0160195000935,None,,,7,001,2023_Feb_01_1103,ExactRep-v3-final,2021.2.3,59.93137857925608,
,,,,,,,,,,,,20,0,20,0,,,,,,,,,,,,,,,,,,,,,,,,,,,,,,,,,,,,,,,,,,,,,,,,,931.4410587000893,None,,,,,,,,,,,,,,,,,,,,,,,,,,,,,,,,,,,,,,,,,,,,,,,,,,,,,,,,,skin,223,21,sing,new,yellow,929.9647671000566,None,n,929.9647671000566,None,"['n', 'return']","[1.242762599955313, 1.4347990999231115]",929.9647671000566,None,,,7,001,2023_Feb_01_1103,ExactRep-v3-final,2021.2.3,59.93137857925608,
,,,,,,,,,,,,21,0,21,0,,,,,,,,,,,,,,,,,,,,,,,,,,,,,,,,,,,,,,,,,,,,,,,,,933.8767966000596,None,,,,,,,,,,,,,,,,,,,,,,,,,,,,,,,,,,,,,,,,,,,,,,,,,,,,,,,,,metal,70,22,silent,old,yellow,931.9513562000357,None,y,931.9513562000357,None,"['y', 'return']","[1.7361900999676436, 1.88023550005164]",931.9513562000357,None,,,7,001,2023_Feb_01_1103,ExactRep-v3-final,2021.2.3,59.93137857925608,
,,,,,,,,,,,,22,0,22,0,,,,,,,,,,,,,,,,,,,,,,,,,,,,,,,,,,,,,,,,,,,,,,,,,935.4284075000323,None,,,,,,,,,,,,,,,,,,,,,,,,,,,,,,,,,,,,,,,,,,,,,,,,,,,,,,,,,clock,24,23,sing,old,yellow,934.3900040000444,None,y,934.3900040000444,None,"['y', 'return']","[0.8895795999560505, 1.001581099932082]",934.3900040000444,None,,,7,001,2023_Feb_01_1103,ExactRep-v3-final,2021.2.3,59.93137857925608,
,,,,,,,,,,,,23,0,23,0,,,,,,,,,,,,,,,,,,,,,,,,,,,,,,,,,,,,,,,,,,,,,,,,,936.9995115000056,None,,,,,,,,,,,,,,,,,,,,,,,,,,,,,,,,,,,,,,,,,,,,,,,,,,,,,,,,,sea,18,24,sing,old,yellow,935.9415129000554,None,y,935.9415129000554,None,"['y', 'return']","[0.8980490999529138, 1.0100704999640584]",935.9415129000554,None,,,7,001,2023_Feb_01_1103,ExactRep-v3-final,2021.2.3,59.93137857925608,
,,,,,,,,,,,,24,0,24,0,,,,,,,,,,,,,,,,,,,,,,,,,,,,,,,,,,,,,,,,,,,,,,,,,938.614899200038,None,,,,,,,,,,,,,,,,,,,,,,,,,,,,,,,,,,,,,,,,,,,,,,,,,,,,,,,,,car,230,25,aloud,new,yellow,937.5233687000582,None,y,937.5233687000582,None,"['y', 'return']","[0.9323394000530243, 1.0442409999668598]",937.5233687000582,None,,,7,001,2023_Feb_01_1103,ExactRep-v3-final,2021.2.3,59.93137857925608,
,,,,,,,,,,,,25,0,25,0,,,,,,,,,,,,,,,,,,,,,,,,,,,,,,,,,,,,,,,,,,,,,,,,,940.3332816000329,None,,,,,,,,,,,,,,,,,,,,,,,,,,,,,,,,,,,,,,,,,,,,,,,,,,,,,,,,,effort,161,26,sing,new,yellow,939.1259267000714,None,n,939.1259267000714,None,"['n', 'return']","[1.0496810999466106, 1.1619285999331623]",939.1259267000714,None,,,7,001,2023_Feb_01_1103,ExactRep-v3-final,2021.2.3,59.93137857925608,
,,,,,,,,,,,,26,0,26,0,,,,,,,,,,,,,,,,,,,,,,,,,,,,,,,,,,,,,,,,,,,,,,,,,941.9013272000011,None,,,,,,,,,,,,,,,,,,,,,,,,,,,,,,,,,,,,,,,,,,,,,,,,,,,,,,,,,money,170,27,aloud,new,yellow,940.8450161000947,None,y,940.8450161000947,None,"['y', 'return']","[0.9147198999999091, 1.0106610999209806]",940.8450161000947,None,,,7,001,2023_Feb_01_1103,ExactRep-v3-final,2021.2.3,59.93137857925608,
,,,,,,,,,,,,27,0,27,0,,,,,,,,,,,,,,,,,,,,,,,,,,,,,,,,,,,,,,,,,,,,,,,,,943.3863774000201,None,,,,,,,,,,,,,,,,,,,,,,,,,,,,,,,,,,,,,,,,,,,,,,,,,,,,,,,,,death,97,28,aloud,old,yellow,942.4150979000842,None,y,942.4150979000842,None,"['y', 'return']","[0.8245455999858677, 0.9284148999722674]",942.4150979000842,None,,,7,001,2023_Feb_01_1103,ExactRep-v3-final,2021.2.3,59.93137857925608,
,,,,,,,,,,,,28,0,28,0,,,,,,,,,,,,,,,,,,,,,,,,,,,,,,,,,,,,,,,,,,,,,,,,,945.0051646000938,None,,,,,,,,,,,,,,,,,,,,,,,,,,,,,,,,,,,,,,,,,,,,,,,,,,,,,,,,,woods,46,29,silent,old,yellow,943.8971180000808,None,y,943.8971180000808,None,"['y', 'return']","[0.9664948000572622, 1.0625217000488192]",943.8971180000808,None,,,7,001,2023_Feb_01_1103,ExactRep-v3-final,2021.2.3,59.93137857925608,
,,,,,,,,,,,,29,0,29,0,,,,,,,,,,,,,,,,,,,,,,,,,,,,,,,,,,,,,,,,,,,,,,,,,946.6073061000789,None,,,,,,,,,,,,,,,,,,,,,,,,,,,,,,,,,,,,,,,,,,,,,,,,,,,,,,,,,idea,216,30,aloud,new,yellow,945.5063085000729,None,y,945.5063085000729,None,"['y', 'return']","[0.9412417000858113, 1.0612589000957087]",945.5063085000729,None,,,7,001,2023_Feb_01_1103,ExactRep-v3-final,2021.2.3,59.93137857925608,
,,,,,,,,,,,,30,0,30,0,,,,,,,,,,,,,,,,,,,,,,,,,,,,,,,,,,,,,,,,,,,,,,,,,956.2825995000312,None,,,,,,,,,,,,,,,,,,,,,,,,,,,,,,,,,,,,,,,,,,,,,,,,,,,,,,,,,anger,73,31,silent,old,yellow,947.1185096000554,None,y,947.1185096000554,None,"['y', 'return']","[8.969050999963656, 9.12105379998684]",947.1185096000554,None,,,7,001,2023_Feb_01_1103,ExactRep-v3-final,2021.2.3,59.93137857925608,
,,,,,,,,,,,,31,0,31,0,,,,,,,,,,,,,,,,,,,,,,,,,,,,,,,,,,,,,,,,,,,,,,,,,958.2845258000307,None,,,,,,,,,,,,,,,,,,,,,,,,,,,,,,,,,,,,,,,,,,,,,,,,,,,,,,,,,boulder,59,32,silent,old,yellow,956.7935523000779,None,n,956.7935523000779,None,"['n', 'return']","[1.2941996000008658, 1.44613370008301]",956.7935523000779,None,,,7,001,2023_Feb_01_1103,ExactRep-v3-final,2021.2.3,59.93137857925608,
,,,,,,,,,,,,32,0,32,0,,,,,,,,,,,,,,,,,,,,,,,,,,,,,,,,,,,,,,,,,,,,,,,,,961.7890917001059,None,,,,,,,,,,,,,,,,,,,,,,,,,,,,,,,,,,,,,,,,,,,,,,,,,,,,,,,,,flesh,236,33,aloud,new,yellow,958.796894100029,None,n,958.796894100029,None,"['n', 'return']","[2.818676399998367, 2.9466212999541312]",958.796894100029,None,,,7,001,2023_Feb_01_1103,ExactRep-v3-final,2021.2.3,59.93137857925608,
,,,,,,,,,,,,33,0,33,0,,,,,,,,,,,,,,,,,,,,,,,,,,,,,,,,,,,,,,,,,,,,,,,,,963.4563546000281,None,,,,,,,,,,,,,,,,,,,,,,,,,,,,,,,,,,,,,,,,,,,,,,,,,,,,,,,,,river,71,34,silent,old,yellow,962.2977841000538,None,y,962.2977841000538,None,"['y', 'return']","[1.0137113999808207, 1.1176830999320373]",962.2977841000538,None,,,7,001,2023_Feb_01_1103,ExactRep-v3-final,2021.2.3,59.93137857925608,
,,,,,,,,,,,,34,0,34,0,,,,,,,,,,,,,,,,,,,,,,,,,,,,,,,,,,,,,,,,,,,,,,,,,969.4123582000611,None,,,,,,,,,,,,,,,,,,,,,,,,,,,,,,,,,,,,,,,,,,,,,,,,,,,,,,,,,window,36,35,sing,old,yellow,963.9661257000407,None,n,963.9661257000407,None,"['n', 'return']","[5.2496112999506295, 5.401562000042759]",963.9661257000407,None,,,7,001,2023_Feb_01_1103,ExactRep-v3-final,2021.2.3,59.93137857925608,
,,,,,,,,,,,,35,0,35,0,,,,,,,,,,,,,,,,,,,,,,,,,,,,,,,,,,,,,,,,,,,,,,,,,971.247330000042,None,,,,,,,,,,,,,,,,,,,,,,,,,,,,,,,,,,,,,,,,,,,,,,,,,,,,,,,,,duty,229,36,sing,new,yellow,969.921660299995,None,n,969.921660299995,None,"['n', 'return']","[1.117884200066328, 1.2859808000503108]",969.921660299995,None,,,7,001,2023_Feb_01_1103,ExactRep-v3-final,2021.2.3,59.93137857925608,
,,,,,,,,,,,,36,0,36,0,,,,,,,,,,,,,,,,,,,,,,,,,,,,,,,,,,,,,,,,,,,,,,,,,977.4705531001091,None,,,,,,,,,,,,,,,,,,,,,,,,,,,,,,,,,,,,,,,,,,,,,,,,,,,,,,,,,vessel,60,37,silent,old,yellow,971.7480732999975,None,y,971.7480732999975,None,"['y', 'return']","[5.555503800045699, 5.6835482000606135]",971.7480732999975,None,,,7,001,2023_Feb_01_1103,ExactRep-v3-final,2021.2.3,59.93137857925608,
,,,,,,,,,,,,37,0,37,0,,,,,,,,,,,,,,,,,,,,,,,,,,,,,,,,,,,,,,,,,,,,,,,,,979.0553445999976,None,,,,,,,,,,,,,,,,,,,,,,,,,,,,,,,,,,,,,,,,,,,,,,,,,,,,,,,,,green,5,38,sing,old,yellow,977.97978100006,None,y,977.97978100006,None,"['y', 'return']","[0.9237961999606341, 1.0358173999702558]",977.97978100006,None,,,7,001,2023_Feb_01_1103,ExactRep-v3-final,2021.2.3,59.93137857925608,
,,,,,,,,,,,,38,0,38,0,,,,,,,,,,,,,,,,,,,,,,,,,,,,,,,,,,,,,,,,,,,,,,,,,980.857100400026,None,,,,,,,,,,,,,,,,,,,,,,,,,,,,,,,,,,,,,,,,,,,,,,,,,,,,,,,,,pupil,164,39,aloud,new,yellow,979.5619764000876,None,y,979.5619764000876,None,"['y', 'return']","[1.141608899924904, 1.2536211999831721]",979.5619764000876,None,,,7,001,2023_Feb_01_1103,ExactRep-v3-final,2021.2.3,59.93137857925608,
,,,,,,,,,,,,39,0,39,0,,,,,,,,,,,,,,,,,,,,,,,,,,,,,,,,,,,,,,,,,,,,,,,,,982.558805000037,None,,,,,,,,,,,,,,,,,,,,,,,,,,,,,,,,,,,,,,,,,,,,,,,,,,,,,,,,,plant,233,40,sing,new,yellow,981.3687776000006,None,y,981.3687776000006,None,"['y', 'return']","[1.0307788999052718, 1.1428167999256402]",981.3687776000006,None,,,7,001,2023_Feb_01_1103,ExactRep-v3-final,2021.2.3,59.93137857925608,
,,,,,,,,,,,,40,0,40,0,,,,,,,,,,,,,,,,,,,,,,,,,,,,,,,,,,,,,,,,,,,,,,,,,984.260301600094,None,,,,,,,,,,,,,,,,,,,,,,,,,,,,,,,,,,,,,,,,,,,,,,,,,,,,,,,,,coin,144,41,silent,new,yellow,983.0673485000152,None,n,983.0673485000152,None,"['n', 'return']","[1.0202039000578225, 1.1482109000207856]",983.0673485000152,None,,,7,001,2023_Feb_01_1103,ExactRep-v3-final,2021.2.3,59.93137857925608,
,,,,,,,,,,,,41,0,41,0,,,,,,,,,,,,,,,,,,,,,,,,,,,,,,,,,,,,,,,,,,,,,,,,,985.8620762000792,None,,,,,,,,,,,,,,,,,,,,,,,,,,,,,,,,,,,,,,,,,,,,,,,,,,,,,,,,,blossom,9,42,sing,old,yellow,984.7686299000634,None,n,984.7686299000634,None,"['n', 'return']","[0.8869772999314591, 1.0469615999609232]",984.7686299000634,None,,,7,001,2023_Feb_01_1103,ExactRep-v3-final,2021.2.3,59.93137857925608,
,,,,,,,,,,,,42,0,42,0,,,,,,,,,,,,,,,,,,,,,,,,,,,,,,,,,,,,,,,,,,,,,,,,,987.4970727000618,None,,,,,,,,,,,,,,,,,,,,,,,,,,,,,,,,,,,,,,,,,,,,,,,,,,,,,,,,,square,150,43,silent,new,yellow,986.3701298000524,None,n,986.3701298000524,None,"['n', 'return']","[0.9493879999499768, 1.0934355999343097]",986.3701298000524,None,,,7,001,2023_Feb_01_1103,ExactRep-v3-final,2021.2.3,59.93137857925608,
,,,,,,,,,,,,43,0,43,0,,,,,,,,,,,,,,,,,,,,,,,,,,,,,,,,,,,,,,,,,,,,,,,,,993.5197552000172,None,,,,,,,,,,,,,,,,,,,,,,,,,,,,,,,,,,,,,,,,,,,,,,,,,,,,,,,,,humour,25,44,sing,old,yellow,988.0064511999954,None,y,988.0064511999954,None,"['return', 'y', 'return']","[1.4650334999896586, 5.321261600009166, 5.465207900037058]",988.0064511999954,None,,,7,001,2023_Feb_01_1103,ExactRep-v3-final,2021.2.3,59.93137857925608,
,,,,,,,,,,,,44,0,44,0,,,,,,,,,,,,,,,,,,,,,,,,,,,,,,,,,,,,,,,,,,,,,,,,,999.5424278000137,None,,,,,,,,,,,,,,,,,,,,,,,,,,,,,,,,,,,,,,,,,,,,,,,,,,,,,,,,,tool,94,45,aloud,old,yellow,994.0283257000847,None,y,994.0283257000847,None,"['y', 'return']","[5.371366899926215, 5.467329100007191]",994.0283257000847,None,,,7,001,2023_Feb_01_1103,ExactRep-v3-final,2021.2.3,59.93137857925608,
,,,,,,,,,,,,45,0,45,0,,,,,,,,,,,,,,,,,,,,,,,,,,,,,,,,,,,,,,,,,,,,,,,,,1001.1940815000562,None,,,,,,,,,,,,,,,,,,,,,,,,,,,,,,,,,,,,,,,,,,,,,,,,,,,,,,,,,prayer,113,46,aloud,old,yellow,1000.0618102001026,None,y,1000.0618102001026,None,"['y', 'return']","[0.9858294000150636, 1.0898220000090078]",1000.0618102001026,None,,,7,001,2023_Feb_01_1103,ExactRep-v3-final,2021.2.3,59.93137857925608,
,,,,,,,,,,,,46,0,46,0,,,,,,,,,,,,,,,,,,,,,,,,,,,,,,,,,,,,,,,,,,,,,,,,,1003.1126678000437,None,,,,,,,,,,,,,,,,,,,,,,,,,,,,,,,,,,,,,,,,,,,,,,,,,,,,,,,,,lord,22,47,sing,old,yellow,1001.7021214000415,None,y,1001.7021214000415,None,"['y', 'return']","[1.281552299973555, 1.3774996999418363]",1001.7021214000415,None,,,7,001,2023_Feb_01_1103,ExactRep-v3-final,2021.2.3,59.93137857925608,
,,,,,,,,,,,,47,0,47,0,,,,,,,,,,,,,,,,,,,,,,,,,,,,,,,,,,,,,,,,,,,,,,,,,1004.9489364000037,None,,,,,,,,,,,,,,,,,,,,,,,,,,,,,,,,,,,,,,,,,,,,,,,,,,,,,,,,,cost,96,48,aloud,old,yellow,1003.6256004000315,None,n,1003.6256004000315,None,"['n', 'return']","[1.1741311999503523, 1.2860924999695271]",1003.6256004000315,None,,,7,001,2023_Feb_01_1103,ExactRep-v3-final,2021.2.3,59.93137857925608,
,,,,,,,,,,,,48,0,48,0,,,,,,,,,,,,,,,,,,,,,,,,,,,,,,,,,,,,,,,,,,,,,,,,,1007.8006858000299,None,,,,,,,,,,,,,,,,,,,,,,,,,,,,,,,,,,,,,,,,,,,,,,,,,,,,,,,,,shore,147,49,silent,new,yellow,1005.4585522999987,None,n,1005.4585522999987,None,"['n', 'return']","[2.108882199972868, 2.301039000041783]",1005.4585522999987,None,,,7,001,2023_Feb_01_1103,ExactRep-v3-final,2021.2.3,59.93137857925608,
,,,,,,,,,,,,49,0,49,0,,,,,,,,,,,,,,,,,,,,,,,,,,,,,,,,,,,,,,,,,,,,,,,,,1011.370931200101,None,,,,,,,,,,,,,,,,,,,,,,,,,,,,,,,,,,,,,,,,,,,,,,,,,,,,,,,,,street,85,50,aloud,old,yellow,1008.3035976000829,None,y,1008.3035976000829,None,"['y', 'return']","[2.9201493000146, 3.0320979000534862]",1008.3035976000829,None,,,7,001,2023_Feb_01_1103,ExactRep-v3-final,2021.2.3,59.93137857925608,
,,,,,,,,,,,,50,0,50,0,,,,,,,,,,,,,,,,,,,,,,,,,,,,,,,,,,,,,,,,,,,,,,,,,1017.944536200026,None,,,,,,,,,,,,,,,,,,,,,,,,,,,,,,,,,,,,,,,,,,,,,,,,,,,,,,,,,library,65,51,silent,old,yellow,1011.8801673999988,None,n,1011.8801673999988,None,"['n', 'return']","[5.847420600010082, 6.0314216000260785]",1011.8801673999988,None,,,7,001,2023_Feb_01_1103,ExactRep-v3-final,2021.2.3,59.93137857925608,
,,,,,,,,,,,,51,0,51,0,,,,,,,,,,,,,,,,,,,,,,,,,,,,,,,,,,,,,,,,,,,,,,,,,1023.3831449000863,None,,,,,,,,,,,,,,,,,,,,,,,,,,,,,,,,,,,,,,,,,,,,,,,,,,,,,,,,,method,157,52,silent,new,yellow,1018.4535827001091,None,n,1018.4535827001091,None,"['n', 'return']","[4.7300455999793485, 4.890012599993497]",1018.4535827001091,None,,,7,001,2023_Feb_01_1103,ExactRep-v3-final,2021.2.3,59.93137857925608,
,,,,,,,,,,,,52,0,52,0,,,,,,,,,,,,,,,,,,,,,,,,,,,,,,,,,,,,,,,,,,,,,,,,,1025.6043950000312,None,,,,,,,,,,,,,,,,,,,,,,,,,,,,,,,,,,,,,,,,,,,,,,,,,,,,,,,,,bird,136,53,silent,new,yellow,1023.903160899994,None,y,1023.903160899994,None,"['y', 'return']","[1.5284837000072002, 1.664440399967134]",1023.903160899994,None,,,7,001,2023_Feb_01_1103,ExactRep-v3-final,2021.2.3,59.93137857925608,
,,,,,,,,,,,,53,0,53,0,,,,,,,,,,,,,,,,,,,,,,,,,,,,,,,,,,,,,,,,,,,,,,,,,1031.7244975001086,None,,,,,,,,,,,,,,,,,,,,,,,,,,,,,,,,,,,,,,,,,,,,,,,,,,,,,,,,,freedom,234,54,aloud,new,yellow,1026.1187737000873,None,y,1026.1187737000873,None,"['y', 'return']","[5.400851000100374, 5.568846100009978]",1026.1187737000873,None,,,7,001,2023_Feb_01_1103,ExactRep-v3-final,2021.2.3,59.93137857925608,
,,,,,,,,,,,,54,0,54,0,,,,,,,,,,,,,,,,,,,,,,,,,,,,,,,,,,,,,,,,,,,,,,,,,1038.8817338000517,None,,,,,,,,,,,,,,,,,,,,,,,,,,,,,,,,,,,,,,,,,,,,,,,,,,,,,,,,,soil,198,55,aloud,new,yellow,1032.2334326000419,None,y,1032.2334326000419,None,"['y', 'return']","[6.470152999972925, 6.6061324999900535]",1032.2334326000419,None,,,7,001,2023_Feb_01_1103,ExactRep-v3-final,2021.2.3,59.93137857925608,
,,,,,,,,,,,,55,0,55,0,,,,,,,,,,,,,,,,,,,,,,,,,,,,,,,,,,,,,,,,,,,,,,,,,1043.970175400027,None,,,,,,,,,,,,,,,,,,,,,,,,,,,,,,,,,,,,,,,,,,,,,,,,,,,,,,,,,truth,129,56,silent,new,yellow,1039.3914928000886,None,y,1039.3914928000886,None,"['y', 'return']","[4.368040399975143, 4.536183699965477]",1039.3914928000886,None,,,7,001,2023_Feb_01_1103,ExactRep-v3-final,2021.2.3,59.93137857925608,
,,,,,,,,,,,,56,0,56,0,,,,,,,,,,,,,,,,,,,,,,,,,,,,,,,,,,,,,,,,,,,,,,,,,1047.5737659001024,None,,,,,,,,,,,,,,,,,,,,,,,,,,,,,,,,,,,,,,,,,,,,,,,,,,,,,,,,,flood,171,57,sing,new,yellow,1044.4796908000717,None,y,1044.4796908000717,None,"['y', 'return']","[2.911902099964209, 3.055913700023666]",1044.4796908000717,None,,,7,001,2023_Feb_01_1103,ExactRep-v3-final,2021.2.3,59.93137857925608,
,,,,,,,,,,,,57,0,57,0,,,,,,,,,,,,,,,,,,,,,,,,,,,,,,,,,,,,,,,,,,,,,,,,,1049.5590715000872,None,,,,,,,,,,,,,,,,,,,,,,,,,,,,,,,,,,,,,,,,,,,,,,,,,,,,,,,,,deed,141,58,silent,new,yellow,1048.0834783000173,None,n,1048.0834783000173,None,"['n', 'return']","[1.172245500027202, 1.4281323000323027]",1048.0834783000173,None,,,7,001,2023_Feb_01_1103,ExactRep-v3-final,2021.2.3,59.93137857925608,
,,,,,,,,,,,,58,0,58,0,,,,,,,,,,,,,,,,,,,,,,,,,,,,,,,,,,,,,,,,,,,,,,,,,1051.4109211000614,None,,,,,,,,,,,,,,,,,,,,,,,,,,,,,,,,,,,,,,,,,,,,,,,,,,,,,,,,,dollar,235,59,sing,new,yellow,1050.0667002000846,None,y,1050.0667002000846,None,"['y', 'return']","[1.1730033000931144, 1.3089531000005081]",1050.0667002000846,None,,,7,001,2023_Feb_01_1103,ExactRep-v3-final,2021.2.3,59.93137857925608,
,,,,,,,,,,,,59,0,59,0,,,,,,,,,,,,,,,,,,,,,,,,,,,,,,,,,,,,,,,,,,,,,,,,,1053.2294088000199,None,,,,,,,,,,,,,,,,,,,,,,,,,,,,,,,,,,,,,,,,,,,,,,,,,,,,,,,,,fur,238,60,aloud,new,yellow,1051.9229429000989,None,n,1051.9229429000989,None,"['n', 'return']","[1.0526944999583066, 1.260721700033173]",1051.9229429000989,None,,,7,001,2023_Feb_01_1103,ExactRep-v3-final,2021.2.3,59.93137857925608,
,,,,,,,,,,,,60,0,60,0,,,,,,,,,,,,,,,,,,,,,,,,,,,,,,,,,,,,,,,,,,,,,,,,,1055.698587300023,None,,,,,,,,,,,,,,,,,,,,,,,,,,,,,,,,,,,,,,,,,,,,,,,,,,,,,,,,,student,153,61,silent,new,yellow,1053.7388998999959,None,y,1053.7388998999959,None,"['y', 'return']","[1.7246512999990955, 1.9246626000385731]",1053.7388998999959,None,,,7,001,2023_Feb_01_1103,ExactRep-v3-final,2021.2.3,59.93137857925608,
,,,,,,,,,,,,61,0,61,0,,,,,,,,,,,,,,,,,,,,,,,,,,,,,,,,,,,,,,,,,,,,,,,,,1058.484643700067,None,,,,,,,,,,,,,,,,,,,,,,,,,,,,,,,,,,,,,,,,,,,,,,,,,,,,,,,,,pride,197,62,sing,new,yellow,1056.209316499997,None,y,1056.209316499997,None,"['y', 'return']","[1.9744187000906095, 2.2383060000138357]",1056.209316499997,None,,,7,001,2023_Feb_01_1103,ExactRep-v3-final,2021.2.3,59.93137857925608,
,,,,,,,,,,,,62,0,62,0,,,,,,,,,,,,,,,,,,,,,,,,,,,,,,,,,,,,,,,,,,,,,,,,,1060.3865507000592,None,,,,,,,,,,,,,,,,,,,,,,,,,,,,,,,,,,,,,,,,,,,,,,,,,,,,,,,,,circle,222,63,aloud,new,yellow,1058.9968383000232,None,n,1058.9968383000232,None,"['n', 'return']","[1.1466413999442011, 1.3466594000346959]",1058.9968383000232,None,,,7,001,2023_Feb_01_1103,ExactRep-v3-final,2021.2.3,59.93137857925608,
,,,,,,,,,,,,63,0,63,0,,,,,,,,,,,,,,,,,,,,,,,,,,,,,,,,,,,,,,,,,,,,,,,,,1063.9567893000785,None,,,,,,,,,,,,,,,,,,,,,,,,,,,,,,,,,,,,,,,,,,,,,,,,,,,,,,,,,present,194,64,aloud,new,yellow,1060.8980596000329,None,n,1060.8980596000329,None,"['n', 'return']","[2.813534599961713, 3.021545000025071]",1060.8980596000329,None,,,7,001,2023_Feb_01_1103,ExactRep-v3-final,2021.2.3,59.93137857925608,
,,,,,,,,,,,,64,0,64,0,,,,,,,,,,,,,,,,,,,,,,,,,,,,,,,,,,,,,,,,,,,,,,,,,1065.8753812001087,None,,,,,,,,,,,,,,,,,,,,,,,,,,,,,,,,,,,,,,,,,,,,,,,,,,,,,,,,,priest,119,65,aloud,old,yellow,1064.464721400058,None,y,1064.464721400058,None,"['y', 'return']","[1.190913000027649, 1.374907800112851]",1064.464721400058,None,,,7,001,2023_Feb_01_1103,ExactRep-v3-final,2021.2.3,59.93137857925608,
,,,,,,,,,,,,65,0,65,0,,,,,,,,,,,,,,,,,,,,,,,,,,,,,,,,,,,,,,,,,,,,,,,,,1070.4633017000742,None,,,,,,,,,,,,,,,,,,,,,,,,,,,,,,,,,,,,,,,,,,,,,,,,,,,,,,,,,friend,128,66,silent,new,yellow,1066.3851645000977,None,y,1066.3851645000977,None,"['y', 'return']","[3.910362399998121, 4.046452899929136]",1066.3851645000977,None,,,7,001,2023_Feb_01_1103,ExactRep-v3-final,2021.2.3,59.93137857925608,
,,,,,,,,,,,,66,0,66,0,,,,,,,,,,,,,,,,,,,,,,,,,,,,,,,,,,,,,,,,,,,,,,,,,1072.8489890000783,None,,,,,,,,,,,,,,,,,,,,,,,,,,,,,,,,,,,,,,,,,,,,,,,,,,,,,,,,,forest,237,67,sing,new,yellow,1070.9714898000238,None,y,1070.9714898000238,None,"['y', 'return']","[1.7082440999802202, 1.8441492000129074]",1070.9714898000238,None,,,7,001,2023_Feb_01_1103,ExactRep-v3-final,2021.2.3,59.93137857925608,
,,,,,,,,,,,,67,0,67,0,,,,,,,,,,,,,,,,,,,,,,,,,,,,,,,,,,,,,,,,,,,,,,,,,1077.920749300043,None,,,,,,,,,,,,,,,,,,,,,,,,,,,,,,,,,,,,,,,,,,,,,,,,,,,,,,,,,origin,54,68,silent,old,yellow,1073.3579767000629,None,y,1073.3579767000629,None,"['y', 'return']","[4.385727599961683, 4.521745399921201]",1073.3579767000629,None,,,7,001,2023_Feb_01_1103,ExactRep-v3-final,2021.2.3,59.93137857925608,
,,,,,,,,,,,,68,0,68,0,,,,,,,,,,,,,,,,,,,,,,,,,,,,,,,,,,,,,,,,,,,,,,,,,1079.6736343000084,None,,,,,,,,,,,,,,,,,,,,,,,,,,,,,,,,,,,,,,,,,,,,,,,,,,,,,,,,,girl,47,69,silent,old,yellow,1078.4320010000374,None,y,1078.4320010000374,None,"['y', 'return']","[1.0315859999973327, 1.1996354999719188]",1078.4320010000374,None,,,7,001,2023_Feb_01_1103,ExactRep-v3-final,2021.2.3,59.93137857925608,
,,,,,,,,,,,,69,0,69,0,,,,,,,,,,,,,,,,,,,,,,,,,,,,,,,,,,,,,,,,,,,,,,,,,1081.50770680001,None,,,,,,,,,,,,,,,,,,,,,,,,,,,,,,,,,,,,,,,,,,,,,,,,,,,,,,,,,flower,31,70,sing,old,yellow,1080.18081540009,None,y,1080.18081540009,None,"['y', 'return']","[1.1466864999383688, 1.2826820999616757]",1080.18081540009,None,,,7,001,2023_Feb_01_1103,ExactRep-v3-final,2021.2.3,59.93137857925608,
,,,,,,,,,,,,70,0,70,0,,,,,,,,,,,,,,,,,,,,,,,,,,,,,,,,,,,,,,,,,,,,,,,,,1084.2937829000875,None,,,,,,,,,,,,,,,,,,,,,,,,,,,,,,,,,,,,,,,,,,,,,,,,,,,,,,,,,brain,225,71,sing,new,yellow,1082.0120226000436,None,n,1082.0120226000436,None,"['n', 'return']","[2.035650600097142, 2.2356004000175744]",1082.0120226000436,None,,,7,001,2023_Feb_01_1103,ExactRep-v3-final,2021.2.3,59.93137857925608,
,,,,,,,,,,,,71,0,71,0,,,,,,,,,,,,,,,,,,,,,,,,,,,,,,,,,,,,,,,,,,,,,,,,,1090.0495007000864,None,,,,,,,,,,,,,,,,,,,,,,,,,,,,,,,,,,,,,,,,,,,,,,,,,,,,,,,,,storm,231,72,sing,new,yellow,1084.8006371000083,None,y,1084.8006371000083,None,"['y', 'return']","[5.030936400056817, 5.206852300092578]",1084.8006371000083,None,,,7,001,2023_Feb_01_1103,ExactRep-v3-final,2021.2.3,59.93137857925608,
,,,,,,,,,,,,72,0,72,0,,,,,,,,,,,,,,,,,,,,,,,,,,,,,,,,,,,,,,,,,,,,,,,,,1092.3351182000479,None,,,,,,,,,,,,,,,,,,,,,,,,,,,,,,,,,,,,,,,,,,,,,,,,,,,,,,,,,weapon,35,73,sing,old,yellow,1090.5547024999978,None,n,1090.5547024999978,None,"['n', 'return']","[1.5568952999310568, 1.7408881000010297]",1090.5547024999978,None,,,7,001,2023_Feb_01_1103,ExactRep-v3-final,2021.2.3,59.93137857925608,
,,,,,,,,,,,,73,0,73,0,,,,,,,,,,,,,,,,,,,,,,,,,,,,,,,,,,,,,,,,,,,,,,,,,1094.704202700057,None,,,,,,,,,,,,,,,,,,,,,,,,,,,,,,,,,,,,,,,,,,,,,,,,,,,,,,,,,maiden,227,74,sing,new,yellow,1092.8449556000996,None,n,1092.8449556000996,None,"['n', 'return']","[1.5867850999347866, 1.8266598999034613]",1092.8449556000996,None,,,7,001,2023_Feb_01_1103,ExactRep-v3-final,2021.2.3,59.93137857925608,
,,,,,,,,,,,,74,0,74,0,,,,,,,,,,,,,,,,,,,,,,,,,,,,,,,,,,,,,,,,,,,,,,,,,1103.7965816000942,None,,,,,,,,,,,,,,,,,,,,,,,,,,,,,,,,,,,,,,,,,,,,,,,,,,,,,,,,,theory,177,75,sing,new,yellow,1095.2149665000616,None,n,1095.2149665000616,None,"['n', 'return']","[8.320747699937783, 8.544710199930705]",1095.2149665000616,None,,,7,001,2023_Feb_01_1103,ExactRep-v3-final,2021.2.3,59.93137857925608,
,,,,,,,,,,,,75,0,75,0,,,,,,,,,,,,,,,,,,,,,,,,,,,,,,,,,,,,,,,,,,,,,,,,,1106.0488391000545,None,,,,,,,,,,,,,,,,,,,,,,,,,,,,,,,,,,,,,,,,,,,,,,,,,,,,,,,,,troops,14,76,sing,old,yellow,1104.3063431000337,None,n,1104.3063431000337,None,"['n', 'return']","[1.4453117999946699, 1.709267899976112]",1104.3063431000337,None,,,7,001,2023_Feb_01_1103,ExactRep-v3-final,2021.2.3,59.93137857925608,
,,,,,,,,,,,,76,0,76,0,,,,,,,,,,,,,,,,,,,,,,,,,,,,,,,,,,,,,,,,,,,,,,,,,1110.0527810000349,None,,,,,,,,,,,,,,,,,,,,,,,,,,,,,,,,,,,,,,,,,,,,,,,,,,,,,,,,,virtue,131,77,silent,new,yellow,1106.5568143000128,None,y,1106.5568143000128,None,"['y', 'return']","[3.283088200027123, 3.45085859997198]",1106.5568143000128,None,,,7,001,2023_Feb_01_1103,ExactRep-v3-final,2021.2.3,59.93137857925608,
,,,,,,,,,,,,77,0,77,0,,,,,,,,,,,,,,,,,,,,,,,,,,,,,,,,,,,,,,,,,,,,,,,,,1112.521973200026,None,,,,,,,,,,,,,,,,,,,,,,,,,,,,,,,,,,,,,,,,,,,,,,,,,,,,,,,,,heaven,175,78,sing,new,yellow,1110.5621087000472,None,n,1110.5621087000472,None,"['n', 'return']","[1.7255696000065655, 1.9254830999998376]",1110.5621087000472,None,,,7,001,2023_Feb_01_1103,ExactRep-v3-final,2021.2.3,59.93137857925608,
,,,,,,,,,,,,78,0,78,0,,,,,,,,,,,,,,,,,,,,,,,,,,,,,,,,,,,,,,,,,,,,,,,,,1114.9744584000437,None,,,,,,,,,,,,,,,,,,,,,,,,,,,,,,,,,,,,,,,,,,,,,,,,,,,,,,,,,wine,66,79,silent,old,yellow,1113.0309796000365,None,y,1113.0309796000365,None,"['y', 'return']","[1.6008184000384063, 1.9046943000284955]",1113.0309796000365,None,,,7,001,2023_Feb_01_1103,ExactRep-v3-final,2021.2.3,59.93137857925608,
,,,,,,,,,,,,79,0,79,0,,,,,,,,,,,,,,,,,,,,,,,,,,,,,,,,,,,,,,,,,,,,,,,,,1125.7018110000063,None,,,,,,,,,,,,,,,,,,,,,,,,,,,,,,,,,,,,,,,,,,,,,,,,,,,,,,,,,doctor,146,80,silent,new,yellow,1115.4842015000759,None,n,1115.4842015000759,None,"['n', 'return']","[10.019421699922532, 10.179464399931021]",1115.4842015000759,None,,,7,001,2023_Feb_01_1103,ExactRep-v3-final,2021.2.3,59.93137857925608,
,,,,,,,,,,,,80,0,80,0,,,,,,,,,,,,,,,,,,,,,,,,,,,,,,,,,,,,,,,,,,,,,,,,,1127.6716431000968,None,,,,,,,,,,,,,,,,,,,,,,,,,,,,,,,,,,,,,,,,,,,,,,,,,,,,,,,,,trouble,4,81,sing,old,yellow,1126.215674300096,None,y,1126.215674300096,None,"['y', 'return']","[1.1760208000196144, 1.407951100030914]",1126.215674300096,None,,,7,001,2023_Feb_01_1103,ExactRep-v3-final,2021.2.3,59.93137857925608,
,,,,,,,,,,,,81,0,81,0,,,,,,,,,,,,,,,,,,,,,,,,,,,,,,,,,,,,,,,,,,,,,,,,,1131.0906405000715,None,,,,,,,,,,,,,,,,,,,,,,,,,,,,,,,,,,,,,,,,,,,,,,,,,,,,,,,,,army,191,82,sing,new,yellow,1128.1809069000883,None,y,1128.1809069000883,None,"['y', 'return']","[2.6507502999156713, 2.874685899936594]",1128.1809069000883,None,,,7,001,2023_Feb_01_1103,ExactRep-v3-final,2021.2.3,59.93137857925608,
,,,,,,,,,,,,82,0,82,0,,,,,,,,,,,,,,,,,,,,,,,,,,,,,,,,,,,,,,,,,,,,,,,,,1133.2260058000684,None,,,,,,,,,,,,,,,,,,,,,,,,,,,,,,,,,,,,,,,,,,,,,,,,,,,,,,,,,prison,200,83,aloud,new,yellow,1131.601559700095,None,y,1131.601559700095,None,"['y', 'return']","[1.3100769000593573, 1.5820703000063077]",1131.601559700095,None,,,7,001,2023_Feb_01_1103,ExactRep-v3-final,2021.2.3,59.93137857925608,
,,,,,,,,,,,,83,0,83,0,,,,,,,,,,,,,,,,,,,,,,,,,,,,,,,,,,,,,,,,,,,,,,,,,1153.0793432000792,None,,,,,,,,,,,,,,,,,,,,,,,,,,,,,,,,,,,,,,,,,,,,,,,,,,,,,,,,,poet,67,84,silent,old,yellow,1133.735973300063,None,n,1133.735973300063,None,"['n', 'return']","[18.96764779998921, 19.311661200015806]",1133.735973300063,None,,,7,001,2023_Feb_01_1103,ExactRep-v3-final,2021.2.3,59.93137857925608,
,,,,,,,,,,,,84,0,84,0,,,,,,,,,,,,,,,,,,,,,,,,,,,,,,,,,,,,,,,,,,,,,,,,,1165.825269700028,None,,,,,,,,,,,,,,,,,,,,,,,,,,,,,,,,,,,,,,,,,,,,,,,,,,,,,,,,,teacher,201,85,sing,new,yellow,1153.5930937000085,None,n,1153.5930937000085,None,"['n', 'return']","[11.870484699960798, 12.190552799962461]",1153.5930937000085,None,,,7,001,2023_Feb_01_1103,ExactRep-v3-final,2021.2.3,59.93137857925608,
,,,,,,,,,,,,85,0,85,0,,,,,,,,,,,,,,,,,,,,,,,,,,,,,,,,,,,,,,,,,,,,,,,,,1172.7988953000167,None,,,,,,,,,,,,,,,,,,,,,,,,,,,,,,,,,,,,,,,,,,,,,,,,,,,,,,,,,queen,103,86,aloud,old,yellow,1166.3350510000018,None,y,1166.3350510000018,None,"['y', 'return']","[6.120704400003888, 6.416606200044043]",1166.3350510000018,None,,,7,001,2023_Feb_01_1103,ExactRep-v3-final,2021.2.3,59.93137857925608,
,,,,,,,,,,,,86,0,86,0,,,,,,,,,,,,,,,,,,,,,,,,,,,,,,,,,,,,,,,,,,,,,,,,,1182.9923950000666,None,,,,,,,,,,,,,,,,,,,,,,,,,,,,,,,,,,,,,,,,,,,,,,,,,,,,,,,,,fault,192,87,aloud,new,yellow,1173.3043989000143,None,n,1173.3043989000143,None,"['n', 'return']","[8.143492199946195, 9.655165700009093]",1173.3043989000143,None,,,7,001,2023_Feb_01_1103,ExactRep-v3-final,2021.2.3,59.93137857925608,
,,,,,,,,,,,,87,0,87,0,,,,,,,,,,,,,,,,,,,,,,,,,,,,,,,,,,,,,,,,,,,,,,,,,1184.8609281000681,None,,,,,,,,,,,,,,,,,,,,,,,,,,,,,,,,,,,,,,,,,,,,,,,,,,,,,,,,,winter,174,88,aloud,new,yellow,1183.5043229000876,None,y,1183.5043229000876,None,"['y', 'return']","[1.0793801000108942, 1.3112487000180408]",1183.5043229000876,None,,,7,001,2023_Feb_01_1103,ExactRep-v3-final,2021.2.3,59.93137857925608,
,,,,,,,,,,,,88,0,88,0,,,,,,,,,,,,,,,,,,,,,,,,,,,,,,,,,,,,,,,,,,,,,,,,,1186.9129783000099,None,,,,,,,,,,,,,,,,,,,,,,,,,,,,,,,,,,,,,,,,,,,,,,,,,,,,,,,,,bar,74,89,silent,old,yellow,1185.3647602000274,None,y,1185.3647602000274,None,"['y', 'return']","[1.2748915000120178, 1.5148477000184357]",1185.3647602000274,None,,,7,001,2023_Feb_01_1103,ExactRep-v3-final,2021.2.3,59.93137857925608,
,,,,,,,,,,,,89,0,89,0,,,,,,,,,,,,,,,,,,,,,,,,,,,,,,,,,,,,,,,,,,,,,,,,,1188.6811981000938,None,,,,,,,,,,,,,,,,,,,,,,,,,,,,,,,,,,,,,,,,,,,,,,,,,,,,,,,,,paper,80,90,aloud,old,yellow,1187.413967700093,None,y,1187.413967700093,None,"['y', 'return']","[0.993531700107269, 1.22554710006807]",1187.413967700093,None,,,7,001,2023_Feb_01_1103,ExactRep-v3-final,2021.2.3,59.93137857925608,
,,,,,,,,,,,,90,0,90,0,,,,,,,,,,,,,,,,,,,,,,,,,,,,,,,,,,,,,,,,,,,,,,,,,1199.6256676000776,None,,,,,,,,,,,,,,,,,,,,,,,,,,,,,,,,,,,,,,,,,,,,,,,,,,,,,,,,,spirit,49,91,silent,old,yellow,1189.1819080000278,None,y,1189.1819080000278,None,"['y', 'return']","[10.217786699999124, 10.4096758000087]",1189.1819080000278,None,,,7,001,2023_Feb_01_1103,ExactRep-v3-final,2021.2.3,59.93137857925608,
,,,,,,,,,,,,91,0,91,0,,,,,,,,,,,,,,,,,,,,,,,,,,,,,,,,,,,,,,,,,,,,,,,,,1201.8278895000694,None,,,,,,,,,,,,,,,,,,,,,,,,,,,,,,,,,,,,,,,,,,,,,,,,,,,,,,,,,wife,181,92,sing,new,yellow,1200.1370721000712,None,n,1200.1370721000712,None,"['n', 'return']","[1.4625112999929115, 1.646482800017111]",1200.1370721000712,None,,,7,001,2023_Feb_01_1103,ExactRep-v3-final,2021.2.3,59.93137857925608,
,,,,,,,,,,,,92,0,92,0,,,,,,,,,,,,,,,,,,,,,,,,,,,,,,,,,,,,,,,,,,,,,,,,,1204.096825000015,None,,,,,,,,,,,,,,,,,,,,,,,,,,,,,,,,,,,,,,,,,,,,,,,,,,,,,,,,,air,55,93,silent,old,yellow,1202.335164200049,None,n,1202.335164200049,None,"['n', 'return']","[1.4803548000054434, 1.7204972000326961]",1202.335164200049,None,,,7,001,2023_Feb_01_1103,ExactRep-v3-final,2021.2.3,59.93137857925608,
,,,,,,,,,,,,93,0,93,0,,,,,,,,,,,,,,,,,,,,,,,,,,,,,,,,,,,,,,,,,,,,,,,,,1205.898607900017,None,,,,,,,,,,,,,,,,,,,,,,,,,,,,,,,,,,,,,,,,,,,,,,,,,,,,,,,,,advice,64,94,silent,old,yellow,1204.6090591000393,None,n,1204.6090591000393,None,"['n', 'return']","[1.0545231000287458, 1.2547704000025988]",1204.6090591000393,None,,,7,001,2023_Feb_01_1103,ExactRep-v3-final,2021.2.3,59.93137857925608,
,,,,,,,,,,,,94,0,94,0,,,,,,,,,,,,,,,,,,,,,,,,,,,,,,,,,,,,,,,,,,,,,,,,,1208.8182403000537,None,,,,,,,,,,,,,,,,,,,,,,,,,,,,,,,,,,,,,,,,,,,,,,,,,,,,,,,,,length,42,95,silent,old,yellow,1206.4067886000266,None,n,1206.4067886000266,None,"['n', 'return']","[2.0810980000533164, 2.3688288000412285]",1206.4067886000266,None,,,7,001,2023_Feb_01_1103,ExactRep-v3-final,2021.2.3,59.93137857925608,
,,,,,,,,,,,,95,0,95,0,,,,,,,,,,,,,,,,,,,,,,,,,,,,,,,,,,,,,,,,,,,,,,,,,1212.688737400109,None,,,,,,,,,,,,,,,,,,,,,,,,,,,,,,,,,,,,,,,,,,,,,,,,,,,,,,,,,officer,130,96,silent,new,yellow,1209.3264102000976,None,n,1209.3264102000976,None,"['n', 'return']","[3.1451189999934286, 3.321188599918969]",1209.3264102000976,None,,,7,001,2023_Feb_01_1103,ExactRep-v3-final,2021.2.3,59.93137857925608,
,,,,,,,,,,,,96,0,96,0,,,,,,,,,,,,,,,,,,,,,,,,,,,,,,,,,,,,,,,,,,,,,,,,,1215.5916425000178,None,,,,,,,,,,,,,,,,,,,,,,,,,,,,,,,,,,,,,,,,,,,,,,,,,,,,,,,,,picture,38,97,sing,old,yellow,1213.198475500103,None,y,1213.198475500103,None,"['y', 'return']","[2.0731694999849424, 2.3531577000394464]",1213.198475500103,None,,,7,001,2023_Feb_01_1103,ExactRep-v3-final,2021.2.3,59.93137857925608,
,,,,,,,,,,,,97,0,97,0,,,,,,,,,,,,,,,,,,,,,,,,,,,,,,,,,,,,,,,,,,,,,,,,,1217.5769565000664,None,,,,,,,,,,,,,,,,,,,,,,,,,,,,,,,,,,,,,,,,,,,,,,,,,,,,,,,,,chance,127,98,silent,new,yellow,1216.1038342000684,None,n,1216.1038342000684,None,"['n', 'return']","[1.1597887999378145, 1.4397339998977259]",1216.1038342000684,None,,,7,001,2023_Feb_01_1103,ExactRep-v3-final,2021.2.3,59.93137857925608,
,,,,,,,,,,,,98,0,98,0,,,,,,,,,,,,,,,,,,,,,,,,,,,,,,,,,,,,,,,,,,,,,,,,,1220.9803499000845,None,,,,,,,,,,,,,,,,,,,,,,,,,,,,,,,,,,,,,,,,,,,,,,,,,,,,,,,,,shoes,108,99,aloud,old,yellow,1218.086358700064,None,n,1218.086358700064,None,"['n', 'return']","[2.6732814999995753, 2.849265099968761]",1218.086358700064,None,,,7,001,2023_Feb_01_1103,ExactRep-v3-final,2021.2.3,59.93137857925608,
,,,,,,,,,,,,99,0,99,0,,,,,,,,,,,,,,,,,,,,,,,,,,,,,,,,,,,,,,,,,,,,,,,,,1224.3670714000473,None,,,,,,,,,,,,,,,,,,,,,,,,,,,,,,,,,,,,,,,,,,,,,,,,,,,,,,,,,fun,228,100,aloud,new,yellow,1221.4893313000211,None,n,1221.4893313000211,None,"['n', 'return']","[2.6702489000745118, 2.8382600999902934]",1221.4893313000211,None,,,7,001,2023_Feb_01_1103,ExactRep-v3-final,2021.2.3,59.93137857925608,
,,,,,,,,,,,,100,0,100,0,,,,,,,,,,,,,,,,,,,,,,,,,,,,,,,,,,,,,,,,,,,,,,,,,1230.7067407000577,None,,,,,,,,,,,,,,,,,,,,,,,,,,,,,,,,,,,,,,,,,,,,,,,,,,,,,,,,,lip,37,101,sing,old,yellow,1224.892058800091,None,n,1224.892058800091,None,"['n', 'return']","[5.595768900006078, 5.779513299930841]",1224.892058800091,None,,,7,001,2023_Feb_01_1103,ExactRep-v3-final,2021.2.3,59.93137857925608,
,,,,,,,,,,,,101,0,101,0,,,,,,,,,,,,,,,,,,,,,,,,,,,,,,,,,,,,,,,,,,,,,,,,,1234.0267189000733,None,,,,,,,,,,,,,,,,,,,,,,,,,,,,,,,,,,,,,,,,,,,,,,,,,,,,,,,,,safety,95,102,aloud,old,yellow,1231.2105392999947,None,y,1231.2105392999947,None,"['y', 'return']","[2.581284899963066, 2.7810294999508187]",1231.2105392999947,None,,,7,001,2023_Feb_01_1103,ExactRep-v3-final,2021.2.3,59.93137857925608,
,,,,,,,,,,,,102,0,102,0,,,,,,,,,,,,,,,,,,,,,,,,,,,,,,,,,,,,,,,,,,,,,,,,,1247.1398477000184,None,,,,,,,,,,,,,,,,,,,,,,,,,,,,,,,,,,,,,,,,,,,,,,,,,,,,,,,,,moment,86,103,aloud,old,yellow,1234.5380359000992,None,y,1234.5380359000992,None,"['y', 'return']","[7.877720599994063, 12.55759310000576]",1234.5380359000992,None,,,7,001,2023_Feb_01_1103,ExactRep-v3-final,2021.2.3,59.93137857925608,
,,,,,,,,,,,,103,0,103,0,,,,,,,,,,,,,,,,,,,,,,,,,,,,,,,,,,,,,,,,,,,,,,,,,1249.0917891000863,None,,,,,,,,,,,,,,,,,,,,,,,,,,,,,,,,,,,,,,,,,,,,,,,,,,,,,,,,,sky,89,104,aloud,old,yellow,1247.6412445000606,None,y,1247.6412445000606,None,"['y', 'return']","[1.190442599938251, 1.4063243999844417]",1247.6412445000606,None,,,7,001,2023_Feb_01_1103,ExactRep-v3-final,2021.2.3,59.93137857925608,
,,,,,,,,,,,,104,0,104,0,,,,,,,,,,,,,,,,,,,,,,,,,,,,,,,,,,,,,,,,,,,,,,,,,1250.9436069000512,None,,,,,,,,,,,,,,,,,,,,,,,,,,,,,,,,,,,,,,,,,,,,,,,,,,,,,,,,,colony,117,105,aloud,old,yellow,1249.605565700098,None,y,1249.605565700098,None,"['y', 'return']","[1.0660245000617579, 1.2981073000701144]",1249.605565700098,None,,,7,001,2023_Feb_01_1103,ExactRep-v3-final,2021.2.3,59.93137857925608,
,,,,,,,,,,,,105,0,105,0,,,,,,,,,,,,,,,,,,,,,,,,,,,,,,,,,,,,,,,,,,,,,,,,,1252.6286300000502,None,,,,,,,,,,,,,,,,,,,,,,,,,,,,,,,,,,,,,,,,,,,,,,,,,,,,,,,,,chair,105,106,aloud,old,yellow,1251.4514430999989,None,y,1251.4514430999989,None,"['y', 'return']","[0.9642005000496283, 1.1402599000139162]",1251.4514430999989,None,,,7,001,2023_Feb_01_1103,ExactRep-v3-final,2021.2.3,59.93137857925608,
,,,,,,,,,,,,106,0,106,0,,,,,,,,,,,,,,,,,,,,,,,,,,,,,,,,,,,,,,,,,,,,,,,,,1254.3470285000512,None,,,,,,,,,,,,,,,,,,,,,,,,,,,,,,,,,,,,,,,,,,,,,,,,,,,,,,,,,market,17,107,sing,old,yellow,1253.137137300102,None,y,1253.137137300102,None,"['y', 'return']","[0.9824367000255734, 1.1745865000411868]",1253.137137300102,None,,,7,001,2023_Feb_01_1103,ExactRep-v3-final,2021.2.3,59.93137857925608,
,,,,,,,,,,,,107,0,107,0,,,,,,,,,,,,,,,,,,,,,,,,,,,,,,,,,,,,,,,,,,,,,,,,,1258.9182913000695,None,,,,,,,,,,,,,,,,,,,,,,,,,,,,,,,,,,,,,,,,,,,,,,,,,,,,,,,,,camp,62,108,silent,old,yellow,1254.8647150000324,None,y,1254.8647150000324,None,"['y', 'return']","[3.838846599915996, 4.00705349992495]",1254.8647150000324,None,,,7,001,2023_Feb_01_1103,ExactRep-v3-final,2021.2.3,59.93137857925608,
,,,,,,,,,,,,108,0,108,0,,,,,,,,,,,,,,,,,,,,,,,,,,,,,,,,,,,,,,,,,,,,,,,,,1261.9379384000786,None,,,,,,,,,,,,,,,,,,,,,,,,,,,,,,,,,,,,,,,,,,,,,,,,,,,,,,,,,amount,100,109,aloud,old,yellow,1259.4261200000765,None,y,1259.4261200000765,None,"['y', 'return']","[2.261512600001879, 2.4774281999561936]",1259.4261200000765,None,,,7,001,2023_Feb_01_1103,ExactRep-v3-final,2021.2.3,59.93137857925608,
,,,,,,,,,,,,109,0,109,0,,,,,,,,,,,,,,,,,,,,,,,,,,,,,,,,,,,,,,,,,,,,,,,,,1264.0733979000943,None,,,,,,,,,,,,,,,,,,,,,,,,,,,,,,,,,,,,,,,,,,,,,,,,,,,,,,,,,ability,213,110,sing,new,yellow,1262.4517929001013,None,n,1262.4517929001013,None,"['n', 'return']","[1.3478488000109792, 1.579881599987857]",1262.4517929001013,None,,,7,001,2023_Feb_01_1103,ExactRep-v3-final,2021.2.3,59.93137857925608,
,,,,,,,,,,,,110,0,110,0,,,,,,,,,,,,,,,,,,,,,,,,,,,,,,,,,,,,,,,,,,,,,,,,,1265.9252760000527,None,,,,,,,,,,,,,,,,,,,,,,,,,,,,,,,,,,,,,,,,,,,,,,,,,,,,,,,,,dust,78,111,silent,old,yellow,1264.5815721000545,None,n,1264.5815721000545,None,"['n', 'return']","[1.1060735000064597, 1.2980844000121579]",1264.5815721000545,None,,,7,001,2023_Feb_01_1103,ExactRep-v3-final,2021.2.3,59.93137857925608,
,,,,,,,,,,,,111,0,111,0,,,,,,,,,,,,,,,,,,,,,,,,,,,,,,,,,,,,,,,,,,,,,,,,,1267.7437421000795,None,,,,,,,,,,,,,,,,,,,,,,,,,,,,,,,,,,,,,,,,,,,,,,,,,,,,,,,,,house,84,112,aloud,old,yellow,1266.4335448000347,None,n,1266.4335448000347,None,"['n', 'return']","[1.030063800048083, 1.2700467000249773]",1266.4335448000347,None,,,7,001,2023_Feb_01_1103,ExactRep-v3-final,2021.2.3,59.93137857925608,
,,,,,,,,,,,,112,0,112,0,,,,,,,,,,,,,,,,,,,,,,,,,,,,,,,,,,,,,,,,,,,,,,,,,1269.6956900000805,None,,,,,,,,,,,,,,,,,,,,,,,,,,,,,,,,,,,,,,,,,,,,,,,,,,,,,,,,,table,88,113,aloud,old,yellow,1268.255588100059,None,y,1268.255588100059,None,"['y', 'return']","[1.1680042000953108, 1.392193700070493]",1268.255588100059,None,,,7,001,2023_Feb_01_1103,ExactRep-v3-final,2021.2.3,59.93137857925608,
,,,,,,,,,,,,113,0,113,0,,,,,,,,,,,,,,,,,,,,,,,,,,,,,,,,,,,,,,,,,,,,,,,,,1272.3983685000567,None,,,,,,,,,,,,,,,,,,,,,,,,,,,,,,,,,,,,,,,,,,,,,,,,,,,,,,,,,college,185,114,sing,new,yellow,1270.2050223000115,None,n,1270.2050223000115,None,"['n', 'return']","[1.9146441000048071, 2.1546201000455767]",1270.2050223000115,None,,,7,001,2023_Feb_01_1103,ExactRep-v3-final,2021.2.3,59.93137857925608,
,,,,,,,,,,,,114,0,114,0,,,,,,,,,,,,,,,,,,,,,,,,,,,,,,,,,,,,,,,,,,,,,,,,,1277.5202028000494,None,,,,,,,,,,,,,,,,,,,,,,,,,,,,,,,,,,,,,,,,,,,,,,,,,,,,,,,,,shame,166,115,aloud,new,yellow,1272.9213758000406,None,n,1272.9213758000406,None,"['n', 'return']","[4.294238900067285, 4.566396699985489]",1272.9213758000406,None,,,7,001,2023_Feb_01_1103,ExactRep-v3-final,2021.2.3,59.93137857925608,
,,,,,,,,,,,,115,0,115,0,,,,,,,,,,,,,,,,,,,,,,,,,,,,,,,,,,,,,,,,,,,,,,,,,1280.0560399000533,None,,,,,,,,,,,,,,,,,,,,,,,,,,,,,,,,,,,,,,,,,,,,,,,,,,,,,,,,,chief,63,116,silent,old,yellow,1278.0298295000102,None,y,1278.0298295000102,None,"['y', 'return']","[1.7298432000679895, 1.9938381999963894]",1278.0298295000102,None,,,7,001,2023_Feb_01_1103,ExactRep-v3-final,2021.2.3,59.93137857925608,
,,,,,,,,,,,,116,0,116,0,,,,,,,,,,,,,,,,,,,,,,,,,,,,,,,,,,,,,,,,,,,,,,,,,1282.0413708999986,None,,,,,,,,,,,,,,,,,,,,,,,,,,,,,,,,,,,,,,,,,,,,,,,,,,,,,,,,,cabin,215,117,sing,new,yellow,1280.5653022000333,None,y,1280.5653022000333,None,"['y', 'return']","[1.194284399971366, 1.4343227000208572]",1280.5653022000333,None,,,7,001,2023_Feb_01_1103,ExactRep-v3-final,2021.2.3,59.93137857925608,
,,,,,,,,,,,,117,0,117,0,,,,,,,,,,,,,,,,,,,,,,,,,,,,,,,,,,,,,,,,,,,,,,,,,1295.3880288000219,None,,,,,,,,,,,,,,,,,,,,,,,,,,,,,,,,,,,,,,,,,,,,,,,,,,,,,,,,,owner,138,118,silent,new,yellow,1282.5491077000042,None,y,1282.5491077000042,None,"['y', 'return']","[12.602491700090468, 12.794474499998614]",1282.5491077000042,None,,,7,001,2023_Feb_01_1103,ExactRep-v3-final,2021.2.3,59.93137857925608,
,,,,,,,,,,,,118,0,118,0,,,,,,,,,,,,,,,,,,,,,,,,,,,,,,,,,,,,,,,,,,,,,,,,,1301.143878400093,None,,,,,,,,,,,,,,,,,,,,,,,,,,,,,,,,,,,,,,,,,,,,,,,,,,,,,,,,,fact,40,119,silent,old,yellow,1295.8964076000266,None,n,1295.8964076000266,None,"['n', 'return']","[4.983207999961451, 5.2072030999697745]",1295.8964076000266,None,,,7,001,2023_Feb_01_1103,ExactRep-v3-final,2021.2.3,59.93137857925608,
,,,,,,,,,,,,119,0,119,0,,,,,,,,,,,,,,,,,,,,,,,,,,,,,,,,,,,,,,,,,,,,,,,,,1312.7887469000416,None,,,,,,,,,,,,,,,,,,,,,,,,,,,,,,,,,,,,,,,,,,,,,,,,,,,,,,,,,disease,209,120,sing,new,yellow,1301.6529294000939,None,n,1301.6529294000939,None,"['n', 'y', 'return']","[6.082684200024232, 10.922674600034952, 11.09070589998737]",1301.6529294000939,None,,,7,001,2023_Feb_01_1103,ExactRep-v3-final,2021.2.3,59.93137857925608,
,,,,,,,,,,,,120,0,120,0,,,,,,,,,,,,,,,,,,,,,,,,,,,,,,,,,,,,,,,,,,,,,,,,,1318.7613844000734,None,,,,,,,,,,,,,,,,,,,,,,,,,,,,,,,,,,,,,,,,,,,,,,,,,,,,,,,,,stone,3,121,sing,old,yellow,1313.3009398001013,None,n,1313.3009398001013,None,"['n', 'return']","[5.234872700064443, 5.418699600035325]",1313.3009398001013,None,,,7,001,2023_Feb_01_1103,ExactRep-v3-final,2021.2.3,59.93137857925608,
,,,,,,,,,,,,121,0,121,0,,,,,,,,,,,,,,,,,,,,,,,,,,,,,,,,,,,,,,,,,,,,,,,,,1320.7310167000396,None,,,,,,,,,,,,,,,,,,,,,,,,,,,,,,,,,,,,,,,,,,,,,,,,,,,,,,,,,corn,232,122,aloud,new,yellow,1319.2785375000676,None,n,1319.2785375000676,None,"['n', 'return']","[1.1211198000237346, 1.4090685999253765]",1319.2785375000676,None,,,7,001,2023_Feb_01_1103,ExactRep-v3-final,2021.2.3,59.93137857925608,
,,,,,,,,,,,,122,0,122,0,,,,,,,,,,,,,,,,,,,,,,,,,,,,,,,,,,,,,,,,,,,,,,,,,1325.1345180000644,None,,,,,,,,,,,,,,,,,,,,,,,,,,,,,,,,,,,,,,,,,,,,,,,,,,,,,,,,,boy,0,123,sing,old,yellow,1321.2410122000147,None,n,1321.2410122000147,None,"['n', 'return']","[3.198619900038466, 3.854647600091994]",1321.2410122000147,None,,,7,001,2023_Feb_01_1103,ExactRep-v3-final,2021.2.3,59.93137857925608,
,,,,,,,,,,,,123,0,123,0,,,,,,,,,,,,,,,,,,,,,,,,,,,,,,,,,,,,,,,,,,,,,,,,,1327.7203421000158,None,,,,,,,,,,,,,,,,,,,,,,,,,,,,,,,,,,,,,,,,,,,,,,,,,,,,,,,,,horse,149,124,silent,new,yellow,1325.6434196000919,None,n,1325.6434196000919,None,"['n', 'return']","[1.7082936000078917, 2.044177799951285]",1325.6434196000919,None,,,7,001,2023_Feb_01_1103,ExactRep-v3-final,2021.2.3,59.93137857925608,
,,,,,,,,,,,,124,0,124,0,,,,,,,,,,,,,,,,,,,,,,,,,,,,,,,,,,,,,,,,,,,,,,,,,1331.2915807000827,None,,,,,,,,,,,,,,,,,,,,,,,,,,,,,,,,,,,,,,,,,,,,,,,,,,,,,,,,,breast,30,125,sing,old,yellow,1328.231844700058,None,y,1328.231844700058,None,"['y', 'return']","[2.5038025999674574, 3.015952300047502]",1328.231844700058,None,,,7,001,2023_Feb_01_1103,ExactRep-v3-final,2021.2.3,59.93137857925608,
,,,,,,,,,,,,125,0,125,0,,,,,,,,,,,,,,,,,,,,,,,,,,,,,,,,,,,,,,,,,,,,,,,,,1352.6452895000111,None,,,,,,,,,,,,,,,,,,,,,,,,,,,,,,,,,,,,,,,,,,,,,,,,,,,,,,,,,hide,61,126,silent,old,yellow,1331.7967865000246,None,y,1331.7967865000246,None,"['n', 'backspace', 'y', 'return']","[14.154798000003211, 19.42688529996667, 20.018908699974418, 20.802903500036336]",1331.7967865000246,None,,,7,001,2023_Feb_01_1103,ExactRep-v3-final,2021.2.3,59.93137857925608,
,,,,,,,,,,,,126,0,126,0,,,,,,,,,,,,,,,,,,,,,,,,,,,,,,,,,,,,,,,,,,,,,,,,,1354.8140730001032,None,,,,,,,,,,,,,,,,,,,,,,,,,,,,,,,,,,,,,,,,,,,,,,,,,,,,,,,,,fortune,13,127,sing,old,yellow,1353.1552949000616,None,y,1353.1552949000616,None,"['y', 'return']","[1.300399100058712, 1.6123901000246406]",1353.1552949000616,None,,,7,001,2023_Feb_01_1103,ExactRep-v3-final,2021.2.3,59.93137857925608,
,,,,,,,,,,,,127,0,127,0,,,,,,,,,,,,,,,,,,,,,,,,,,,,,,,,,,,,,,,,,,,,,,,,,1356.5825068000704,None,,,,,,,,,,,,,,,,,,,,,,,,,,,,,,,,,,,,,,,,,,,,,,,,,,,,,,,,,ocean,32,128,sing,old,yellow,1355.3288423001068,None,y,1355.3288423001068,None,"['y', 'return']","[0.9347901000874117, 1.2147825000574812]",1355.3288423001068,None,,,7,001,2023_Feb_01_1103,ExactRep-v3-final,2021.2.3,59.93137857925608,
,,,,,,,,,,,,128,0,128,0,,,,,,,,,,,,,,,,,,,,,,,,,,,,,,,,,,,,,,,,,,,,,,,,,1359.8692111000419,None,,,,,,,,,,,,,,,,,,,,,,,,,,,,,,,,,,,,,,,,,,,,,,,,,,,,,,,,,valley,87,129,aloud,old,yellow,1357.0952194000129,None,n,1357.0952194000129,None,"['n', 'return']","[1.2244221000000834, 2.7364068999886513]",1357.0952194000129,None,,,7,001,2023_Feb_01_1103,ExactRep-v3-final,2021.2.3,59.93137857925608,
,,,,,,,,,,,,129,0,129,0,,,,,,,,,,,,,,,,,,,,,,,,,,,,,,,,,,,,,,,,,,,,,,,,,1362.121369300061,None,,,,,,,,,,,,,,,,,,,,,,,,,,,,,,,,,,,,,,,,,,,,,,,,,,,,,,,,,steam,173,130,sing,new,yellow,1360.3773723000195,None,n,1360.3773723000195,None,"['n', 'return']","[1.4303928000153974, 1.7022769000614062]",1360.3773723000195,None,,,7,001,2023_Feb_01_1103,ExactRep-v3-final,2021.2.3,59.93137857925608,
,,,,,,,,,,,,130,0,130,0,,,,,,,,,,,,,,,,,,,,,,,,,,,,,,,,,,,,,,,,,,,,,,,,,1364.3736105000135,None,,,,,,,,,,,,,,,,,,,,,,,,,,,,,,,,,,,,,,,,,,,,,,,,,,,,,,,,,mother,152,131,silent,new,yellow,1362.6281915000873,None,y,1362.6281915000873,None,"['y', 'return']","[1.4354830000083894, 1.6995573999593034]",1362.6281915000873,None,,,7,001,2023_Feb_01_1103,ExactRep-v3-final,2021.2.3,59.93137857925608,
,,,,,,,,,,,,131,0,131,0,,,,,,,,,,,,,,,,,,,,,,,,,,,,,,,,,,,,,,,,,,,,,,,,,1366.3758857001085,None,,,,,,,,,,,,,,,,,,,,,,,,,,,,,,,,,,,,,,,,,,,,,,,,,,,,,,,,,apple,21,132,sing,old,yellow,1364.8831965000136,None,y,1364.8831965000136,None,"['y', 'return']","[1.236446800059639, 1.444487200002186]",1364.8831965000136,None,,,7,001,2023_Feb_01_1103,ExactRep-v3-final,2021.2.3,59.93137857925608,
,,,,,,,,,,,,132,0,132,0,,,,,,,,,,,,,,,,,,,,,,,,,,,,,,,,,,,,,,,,,,,,,,,,,1368.2608703000005,None,,,,,,,,,,,,,,,,,,,,,,,,,,,,,,,,,,,,,,,,,,,,,,,,,,,,,,,,,machine,115,133,aloud,old,yellow,1366.8837421000935,None,y,1366.8837421000935,None,"['y', 'return']","[1.019910299917683, 1.3319741999730468]",1366.8837421000935,None,,,7,001,2023_Feb_01_1103,ExactRep-v3-final,2021.2.3,59.93137857925608,
