trials_fam.thisRepN,trials_fam.thisTrialN,trials_fam.thisN,trials_fam.thisIndex,trials_prc.thisRepN,trials_prc.thisTrialN,trials_prc.thisN,trials_prc.thisIndex,StudyLoop.thisRepN,StudyLoop.thisTrialN,StudyLoop.thisN,StudyLoop.thisIndex,TestLoop.thisRepN,TestLoop.thisTrialN,TestLoop.thisN,TestLoop.thisIndex,text_colortest.started,text_colortest.stopped,key_colortest.keys,key_colortest.rt,key_colortest.started,key_colortest.stopped,textCondition.started,textCondition.stopped,keyCondition.keys,keyCondition.rt,keyCondition.started,keyCondition.stopped,Condition_between,Condition_counterbal,keyWelcome.keys,keyWelcome.rt,keyWelcome.started,keyWelcome.stopped,welcome_a.started,welcome_a.stopped,welcome_b.started,welcome_b.stopped,welcome_c.started,welcome_c.stopped,welcome_d.started,welcome_d.stopped,welcome_e.started,welcome_e.stopped,welcome_f.started,welcome_f.stopped,key_resp_fam_inst.keys,key_resp_fam_inst.rt,key_resp_fam_inst.started,key_resp_fam_inst.stopped,fam_a.started,fam_a.stopped,fam_b.started,fam_b.stopped,fam_c.started,fam_c.stopped,fam_d.started,fam_d.stopped,fam_e.started,fam_e.stopped,fam_f.started,fam_f.stopped,text_famil.started,text_famil.stopped,textBlank500.started,textBlank500.stopped,key_resp_prc_inst.keys,key_resp_prc_inst.rt,key_resp_prc_inst.started,key_resp_prc_inst.stopped,prac_a.started,prac_a.stopped,prac_b.started,prac_b.stopped,prac_c.started,prac_c.stopped,prac_d.started,prac_d.stopped,prac_e.started,prac_e.stopped,prac_f.started,prac_f.stopped,text_prc_trial.started,text_prc_trial.stopped,key_resp_study_inst.keys,key_resp_study_inst.rt,key_resp_study_inst.started,key_resp_study_inst.stopped,crit_a.started,crit_a.stopped,crit_b.started,crit_b.stopped,crit_c.started,crit_c.stopped,crit_d.started,crit_d.stopped,crit_e.started,crit_e.stopped,crit_f.started,crit_f.stopped,study_word,study_num,study_order,study_type,word_color,textStudy.started,textStudy.stopped,keyStudy.keys,keyStudy.started,keyStudy.stopped,post_study.started,post_study.stopped,key_resp_post_study.keys,key_resp_post_study.rt,key_resp_post_study.started,key_resp_post_study.stopped,test_inst.started,test_inst.stopped,key_resp_test_inst.keys,key_resp_test_inst.rt,key_resp_test_inst.started,key_resp_test_inst.stopped,test_word,test_num,test_order,test_condition,old_new_test,word_color_test,textConf.started,textConf.stopped,Participant Response,textInput.started,textInput.stopped,keyResp.keys,keyResp.rt,keyResp.started,keyResp.stopped,textEnd.started,textEnd.stopped,participant,session,date,expName,psychopyVersion,frameRate,
,,,,,,,,,,,,,,,,118.97596050001448,None,n,1.7233295000041835,118.97596050001448,None,,,,,,,,,,,,,,,,,,,,,,,,,,,,,,,,,,,,,,,,,,,,,,,,,,,,,,,,,,,,,,,,,,,,,,,,,,,,,,,,,,,,,,,,,,,,,,,,,,,,,,,,,,,,,,,,,,,,,,80NB,001,2023_Aug_28_1651,ExactRep-v3-final,2021.2.3,59.96386577856653,
,,,,,,,,,,,,,,,,,,,,,,120.71788960002596,None,b,1.0211997999576852,120.71788960002596,None,,,,,,,,,,,,,,,,,,,,,,,,,,,,,,,,,,,,,,,,,,,,,,,,,,,,,,,,,,,,,,,,,,,,,,,,,,,,,,,,,,,,,,,,,,,,,,,,,,,,,,,,,,,,,,,,80NB,001,2023_Aug_28_1651,ExactRep-v3-final,2021.2.3,59.96386577856653,
,,,,,,,,,,,,,,,,,,,,,,,,,,,,whitefoils,b,space,488.07225770002697,131.8825918000075,None,,,,,,,,,,,,,,,,,,,,,,,,,,,,,,,,,,,,,,,,,,,,,,,,,,,,,,,,,,,,,,,,,,,,,,,,,,,,,,,,,,,,,,,,,,,,,,,,,,,,,,,,,,80NB,001,2023_Aug_28_1651,ExactRep-v3-final,2021.2.3,59.96386577856653,
,,,,,,,,,,,,,,,,,,,,,,,,,,,,,,,,,,121.91973900003359,None,121.91973900003359,None,121.91973900003359,None,121.91973900003359,None,121.91973900003359,None,121.91973900003359,None,space,17.75152990000788,630.1792436999967,None,,,,,,,,,,,,,,,,,,,,,,,,,,,,,,,,,,,,,,,,,,,,,,,,,,,,,,,,,,,,,,,,,,,,,,,,,,,,,,,,,,,,,,,,,,80NB,001,2023_Aug_28_1651,ExactRep-v3-final,2021.2.3,59.96386577856653,
0,0,0,0,,,,,,,,,,,,,,,,,,,,,,,,,,,,,,,,,,,,,,,,,,,,,,,620.2017971000168,None,620.2017971000168,None,620.2017971000168,None,620.2017971000168,None,620.2017971000168,None,620.2017971000168,None,648.0337896000128,None,650.0294134000433,None,,,,,,,,,,,,,,,,,,,,,,,,,,,,,,,,,,,,,,,,,,,,,,,,,,,,,,,,,,,,,,,,,,,,,,,,,,80NB,001,2023_Aug_28_1651,ExactRep-v3-final,2021.2.3,59.96386577856653,
1,0,1,0,,,,,,,,,,,,,,,,,,,,,,,,,,,,,,,,,,,,,,,,,,,,,,,,,,,,,,,,,,,650.5377295000362,None,652.5488884000224,None,,,,,,,,,,,,,,,,,,,,,,,,,,,,,,,,,,,,,,,,,,,,,,,,,,,,,,,,,,,,,,,,,,,,,,,,,,80NB,001,2023_Aug_28_1651,ExactRep-v3-final,2021.2.3,59.96386577856653,
2,0,2,0,,,,,,,,,,,,,,,,,,,,,,,,,,,,,,,,,,,,,,,,,,,,,,,,,,,,,,,,,,,653.0499809000175,None,655.0511170999962,None,,,,,,,,,,,,,,,,,,,,,,,,,,,,,,,,,,,,,,,,,,,,,,,,,,,,,,,,,,,,,,,,,,,,,,,,,,80NB,001,2023_Aug_28_1651,ExactRep-v3-final,2021.2.3,59.96386577856653,
3,0,3,0,,,,,,,,,,,,,,,,,,,,,,,,,,,,,,,,,,,,,,,,,,,,,,,,,,,,,,,,,,,655.5534962000092,None,657.5538563000155,None,,,,,,,,,,,,,,,,,,,,,,,,,,,,,,,,,,,,,,,,,,,,,,,,,,,,,,,,,,,,,,,,,,,,,,,,,,80NB,001,2023_Aug_28_1651,ExactRep-v3-final,2021.2.3,59.96386577856653,
4,0,4,0,,,,,,,,,,,,,,,,,,,,,,,,,,,,,,,,,,,,,,,,,,,,,,,,,,,,,,,,,,,658.0542248000274,None,660.056153600046,None,,,,,,,,,,,,,,,,,,,,,,,,,,,,,,,,,,,,,,,,,,,,,,,,,,,,,,,,,,,,,,,,,,,,,,,,,,80NB,001,2023_Aug_28_1651,ExactRep-v3-final,2021.2.3,59.96386577856653,
5,0,5,0,,,,,,,,,,,,,,,,,,,,,,,,,,,,,,,,,,,,,,,,,,,,,,,,,,,,,,,,,,,660.5630643999903,None,662.5754753000219,None,,,,,,,,,,,,,,,,,,,,,,,,,,,,,,,,,,,,,,,,,,,,,,,,,,,,,,,,,,,,,,,,,,,,,,,,,,80NB,001,2023_Aug_28_1651,ExactRep-v3-final,2021.2.3,59.96386577856653,
6,0,6,0,,,,,,,,,,,,,,,,,,,,,,,,,,,,,,,,,,,,,,,,,,,,,,,,,,,,,,,,,,,663.0759764999966,None,665.0784480000148,None,,,,,,,,,,,,,,,,,,,,,,,,,,,,,,,,,,,,,,,,,,,,,,,,,,,,,,,,,,,,,,,,,,,,,,,,,,80NB,001,2023_Aug_28_1651,ExactRep-v3-final,2021.2.3,59.96386577856653,
7,0,7,0,,,,,,,,,,,,,,,,,,,,,,,,,,,,,,,,,,,,,,,,,,,,,,,,,,,,,,,,,,,665.5807347000227,None,667.5806788000045,None,,,,,,,,,,,,,,,,,,,,,,,,,,,,,,,,,,,,,,,,,,,,,,,,,,,,,,,,,,,,,,,,,,,,,,,,,,80NB,001,2023_Aug_28_1651,ExactRep-v3-final,2021.2.3,59.96386577856653,
8,0,8,0,,,,,,,,,,,,,,,,,,,,,,,,,,,,,,,,,,,,,,,,,,,,,,,,,,,,,,,,,,,668.0810290999943,None,670.0836230000132,None,,,,,,,,,,,,,,,,,,,,,,,,,,,,,,,,,,,,,,,,,,,,,,,,,,,,,,,,,,,,,,,,,,,,,,,,,,80NB,001,2023_Aug_28_1651,ExactRep-v3-final,2021.2.3,59.96386577856653,
9,0,9,0,,,,,,,,,,,,,,,,,,,,,,,,,,,,,,,,,,,,,,,,,,,,,,,,,,,,,,,,,,,670.5846755999955,None,672.5855257000076,None,,,,,,,,,,,,,,,,,,,,,,,,,,,,,,,,,,,,,,,,,,,,,,,,,,,,,,,,,,,,,,,,,,,,,,,,,,80NB,001,2023_Aug_28_1651,ExactRep-v3-final,2021.2.3,59.96386577856653,
10,0,10,0,,,,,,,,,,,,,,,,,,,,,,,,,,,,,,,,,,,,,,,,,,,,,,,,,,,,,,,,,,,673.0863920000265,None,675.0884630000219,None,,,,,,,,,,,,,,,,,,,,,,,,,,,,,,,,,,,,,,,,,,,,,,,,,,,,,,,,,,,,,,,,,,,,,,,,,,80NB,001,2023_Aug_28_1651,ExactRep-v3-final,2021.2.3,59.96386577856653,
11,0,11,0,,,,,,,,,,,,,,,,,,,,,,,,,,,,,,,,,,,,,,,,,,,,,,,,,,,,,,,,,,,675.5889080000343,None,677.5908017000183,None,,,,,,,,,,,,,,,,,,,,,,,,,,,,,,,,,,,,,,,,,,,,,,,,,,,,,,,,,,,,,,,,,,,,,,,,,,80NB,001,2023_Aug_28_1651,ExactRep-v3-final,2021.2.3,59.96386577856653,
12,0,12,0,,,,,,,,,,,,,,,,,,,,,,,,,,,,,,,,,,,,,,,,,,,,,,,,,,,,,,,,,,,678.0929778999998,None,680.0927768000402,None,,,,,,,,,,,,,,,,,,,,,,,,,,,,,,,,,,,,,,,,,,,,,,,,,,,,,,,,,,,,,,,,,,,,,,,,,,80NB,001,2023_Aug_28_1651,ExactRep-v3-final,2021.2.3,59.96386577856653,
13,0,13,0,,,,,,,,,,,,,,,,,,,,,,,,,,,,,,,,,,,,,,,,,,,,,,,,,,,,,,,,,,,680.5976632999955,None,682.613317600044,None,,,,,,,,,,,,,,,,,,,,,,,,,,,,,,,,,,,,,,,,,,,,,,,,,,,,,,,,,,,,,,,,,,,,,,,,,,80NB,001,2023_Aug_28_1651,ExactRep-v3-final,2021.2.3,59.96386577856653,
14,0,14,0,,,,,,,,,,,,,,,,,,,,,,,,,,,,,,,,,,,,,,,,,,,,,,,,,,,,,,,,,,,683.1127982000471,None,685.1147532000323,None,,,,,,,,,,,,,,,,,,,,,,,,,,,,,,,,,,,,,,,,,,,,,,,,,,,,,,,,,,,,,,,,,,,,,,,,,,80NB,001,2023_Aug_28_1651,ExactRep-v3-final,2021.2.3,59.96386577856653,
,,,,,,,,,,,,,,,,,,,,,,,,,,,,,,,,,,,,,,,,,,,,,,,,,,,,,,,,,,,,,,,,,,space,14.882995299994946,695.7761317000259,None,,,,,,,,,,,,,,,,,,,,,,,,,,,,,,,,,,,,,,,,,,,,,,,,,,,,,,,,,,,,,,,,,,,,,,80NB,001,2023_Aug_28_1651,ExactRep-v3-final,2021.2.3,59.96386577856653,
,,,,0,0,0,0,,,,,,,,,,,,,,,,,,,,,,,,,,,,,,,,,,,,,,,,,,,,,,,,,,,,,,,,,712.7257638000301,None,,,,,685.7737264000461,None,685.7737264000461,None,685.7737264000461,None,685.7737264000461,None,685.7737264000461,None,685.7737264000461,None,710.7232232000097,None,,,,,,,,,,,,,,,,,,,,,,,,,,,,,,,,,,,,,,,,,,,,,,,,,,,,,,,,80NB,001,2023_Aug_28_1651,ExactRep-v3-final,2021.2.3,59.96386577856653,
,,,,1,0,1,0,,,,,,,,,,,,,,,,,,,,,,,,,,,,,,,,,,,,,,,,,,,,,,,,,,,,,,,,,715.2283120999928,None,,,,,,,,,,,,,,,,,713.22649000003,None,,,,,,,,,,,,,,,,,,,,,,,,,,,,,,,,,,,,,,,,,,,,,,,,,,,,,,,,80NB,001,2023_Aug_28_1651,ExactRep-v3-final,2021.2.3,59.96386577856653,
,,,,2,0,2,0,,,,,,,,,,,,,,,,,,,,,,,,,,,,,,,,,,,,,,,,,,,,,,,,,,,,,,,,,717.7308994000196,None,,,,,,,,,,,,,,,,,715.7289225000422,None,,,,,,,,,,,,,,,,,,,,,,,,,,,,,,,,,,,,,,,,,,,,,,,,,,,,,,,,80NB,001,2023_Aug_28_1651,ExactRep-v3-final,2021.2.3,59.96386577856653,
,,,,3,0,3,0,,,,,,,,,,,,,,,,,,,,,,,,,,,,,,,,,,,,,,,,,,,,,,,,,,,,,,,,,720.2332776000258,None,,,,,,,,,,,,,,,,,718.2311650000047,None,,,,,,,,,,,,,,,,,,,,,,,,,,,,,,,,,,,,,,,,,,,,,,,,,,,,,,,,80NB,001,2023_Aug_28_1651,ExactRep-v3-final,2021.2.3,59.96386577856653,
,,,,4,0,4,0,,,,,,,,,,,,,,,,,,,,,,,,,,,,,,,,,,,,,,,,,,,,,,,,,,,,,,,,,722.7368908000062,None,,,,,,,,,,,,,,,,,720.7339151999913,None,,,,,,,,,,,,,,,,,,,,,,,,,,,,,,,,,,,,,,,,,,,,,,,,,,,,,,,,80NB,001,2023_Aug_28_1651,ExactRep-v3-final,2021.2.3,59.96386577856653,
,,,,5,0,5,0,,,,,,,,,,,,,,,,,,,,,,,,,,,,,,,,,,,,,,,,,,,,,,,,,,,,,,,,,725.2378728000331,None,,,,,,,,,,,,,,,,,723.2362136000302,None,,,,,,,,,,,,,,,,,,,,,,,,,,,,,,,,,,,,,,,,,,,,,,,,,,,,,,,,80NB,001,2023_Aug_28_1651,ExactRep-v3-final,2021.2.3,59.96386577856653,
,,,,6,0,6,0,,,,,,,,,,,,,,,,,,,,,,,,,,,,,,,,,,,,,,,,,,,,,,,,,,,,,,,,,727.7417301000096,None,,,,,,,,,,,,,,,,,725.7387559000053,None,,,,,,,,,,,,,,,,,,,,,,,,,,,,,,,,,,,,,,,,,,,,,,,,,,,,,,,,80NB,001,2023_Aug_28_1651,ExactRep-v3-final,2021.2.3,59.96386577856653,
,,,,7,0,7,0,,,,,,,,,,,,,,,,,,,,,,,,,,,,,,,,,,,,,,,,,,,,,,,,,,,,,,,,,730.2436417000135,None,,,,,,,,,,,,,,,,,728.2409732000087,None,,,,,,,,,,,,,,,,,,,,,,,,,,,,,,,,,,,,,,,,,,,,,,,,,,,,,,,,80NB,001,2023_Aug_28_1651,ExactRep-v3-final,2021.2.3,59.96386577856653,
,,,,8,0,8,0,,,,,,,,,,,,,,,,,,,,,,,,,,,,,,,,,,,,,,,,,,,,,,,,,,,,,,,,,732.7456991000217,None,,,,,,,,,,,,,,,,,730.7437679000432,None,,,,,,,,,,,,,,,,,,,,,,,,,,,,,,,,,,,,,,,,,,,,,,,,,,,,,,,,80NB,001,2023_Aug_28_1651,ExactRep-v3-final,2021.2.3,59.96386577856653,
,,,,9,0,9,0,,,,,,,,,,,,,,,,,,,,,,,,,,,,,,,,,,,,,,,,,,,,,,,,,,,,,,,,,735.2483775000437,None,,,,,,,,,,,,,,,,,733.2463741000392,None,,,,,,,,,,,,,,,,,,,,,,,,,,,,,,,,,,,,,,,,,,,,,,,,,,,,,,,,80NB,001,2023_Aug_28_1651,ExactRep-v3-final,2021.2.3,59.96386577856653,
,,,,10,0,10,0,,,,,,,,,,,,,,,,,,,,,,,,,,,,,,,,,,,,,,,,,,,,,,,,,,,,,,,,,737.7509821000276,None,,,,,,,,,,,,,,,,,735.7488249000162,None,,,,,,,,,,,,,,,,,,,,,,,,,,,,,,,,,,,,,,,,,,,,,,,,,,,,,,,,80NB,001,2023_Aug_28_1651,ExactRep-v3-final,2021.2.3,59.96386577856653,
,,,,11,0,11,0,,,,,,,,,,,,,,,,,,,,,,,,,,,,,,,,,,,,,,,,,,,,,,,,,,,,,,,,,740.2527565000346,None,,,,,,,,,,,,,,,,,738.2509354000213,None,,,,,,,,,,,,,,,,,,,,,,,,,,,,,,,,,,,,,,,,,,,,,,,,,,,,,,,,80NB,001,2023_Aug_28_1651,ExactRep-v3-final,2021.2.3,59.96386577856653,
,,,,12,0,12,0,,,,,,,,,,,,,,,,,,,,,,,,,,,,,,,,,,,,,,,,,,,,,,,,,,,,,,,,,742.7559847999946,None,,,,,,,,,,,,,,,,,740.7539056999958,None,,,,,,,,,,,,,,,,,,,,,,,,,,,,,,,,,,,,,,,,,,,,,,,,,,,,,,,,80NB,001,2023_Aug_28_1651,ExactRep-v3-final,2021.2.3,59.96386577856653,
,,,,13,0,13,0,,,,,,,,,,,,,,,,,,,,,,,,,,,,,,,,,,,,,,,,,,,,,,,,,,,,,,,,,745.2581053000176,None,,,,,,,,,,,,,,,,,743.2562869000249,None,,,,,,,,,,,,,,,,,,,,,,,,,,,,,,,,,,,,,,,,,,,,,,,,,,,,,,,,80NB,001,2023_Aug_28_1651,ExactRep-v3-final,2021.2.3,59.96386577856653,
,,,,14,0,14,0,,,,,,,,,,,,,,,,,,,,,,,,,,,,,,,,,,,,,,,,,,,,,,,,,,,,,,,,,747.7771068000002,None,,,,,,,,,,,,,,,,,745.7616935000406,None,,,,,,,,,,,,,,,,,,,,,,,,,,,,,,,,,,,,,,,,,,,,,,,,,,,,,,,,80NB,001,2023_Aug_28_1651,ExactRep-v3-final,2021.2.3,59.96386577856653,
,,,,,,,,,,,,,,,,,,,,,,,,,,,,,,,,,,,,,,,,,,,,,,,,,,,,,,,,,,,,,,,,,,,,,,,,,,,,,,,,,,,,space,34.25861010001972,758.4481800000067,None,,,,,,,,,,,,,,,,,,,,,,,,,,,,,,,,,,,,,,,,,,,,,,,,,,,,80NB,001,2023_Aug_28_1651,ExactRep-v3-final,2021.2.3,59.96386577856653,
,,,,,,,,0,0,0,0,,,,,,,,,,,,,,,,,,,,,,,,,,,,,,,,,,,,,,,,,,,,,,,,,,,,,794.8074249000056,None,,,,,,,,,,,,,,,,,,,,,,,748.4944844000274,None,748.4944844000274,None,748.4944844000274,None,748.4944844000274,None,748.4944844000274,None,748.4944844000274,None,chief,9,1,sing,blue,792.7989816000336,None,None,792.7989816000336,None,,,,,,,,,,,,,,,,,,,,,,,,,,,,,,80NB,001,2023_Aug_28_1651,ExactRep-v3-final,2021.2.3,59.96386577856653,
,,,,,,,,1,0,1,0,,,,,,,,,,,,,,,,,,,,,,,,,,,,,,,,,,,,,,,,,,,,,,,,,,,,,797.3267545000417,None,,,,,,,,,,,,,,,,,,,,,,,,,,,,,,,,,,,master,108,2,aloud,red,795.3281344000134,None,None,795.3281344000134,None,,,,,,,,,,,,,,,,,,,,,,,,,,,,,,80NB,001,2023_Aug_28_1651,ExactRep-v3-final,2021.2.3,59.96386577856653,
,,,,,,,,2,0,2,0,,,,,,,,,,,,,,,,,,,,,,,,,,,,,,,,,,,,,,,,,,,,,,,,,,,,,799.8297836999991,None,,,,,,,,,,,,,,,,,,,,,,,,,,,,,,,,,,,blossom,19,3,sing,blue,797.8272122000344,None,None,797.8272122000344,None,,,,,,,,,,,,,,,,,,,,,,,,,,,,,,80NB,001,2023_Aug_28_1651,ExactRep-v3-final,2021.2.3,59.96386577856653,
,,,,,,,,3,0,3,0,,,,,,,,,,,,,,,,,,,,,,,,,,,,,,,,,,,,,,,,,,,,,,,,,,,,,802.3344643000164,None,,,,,,,,,,,,,,,,,,,,,,,,,,,,,,,,,,,apple,119,4,aloud,red,800.3319902000367,None,None,800.3319902000367,None,,,,,,,,,,,,,,,,,,,,,,,,,,,,,,80NB,001,2023_Aug_28_1651,ExactRep-v3-final,2021.2.3,59.96386577856653,
,,,,,,,,4,0,4,0,,,,,,,,,,,,,,,,,,,,,,,,,,,,,,,,,,,,,,,,,,,,,,,,,,,,,804.8511107999948,None,,,,,,,,,,,,,,,,,,,,,,,,,,,,,,,,,,,library,53,5,silent,white,802.8488916000351,None,None,802.8488916000351,None,,,,,,,,,,,,,,,,,,,,,,,,,,,,,,80NB,001,2023_Aug_28_1651,ExactRep-v3-final,2021.2.3,59.96386577856653,
,,,,,,,,5,0,5,0,,,,,,,,,,,,,,,,,,,,,,,,,,,,,,,,,,,,,,,,,,,,,,,,,,,,,807.3537568000029,None,,,,,,,,,,,,,,,,,,,,,,,,,,,,,,,,,,,owner,59,6,silent,white,805.3528312999988,None,None,805.3528312999988,None,,,,,,,,,,,,,,,,,,,,,,,,,,,,,,80NB,001,2023_Aug_28_1651,ExactRep-v3-final,2021.2.3,59.96386577856653,
,,,,,,,,6,0,6,0,,,,,,,,,,,,,,,,,,,,,,,,,,,,,,,,,,,,,,,,,,,,,,,,,,,,,809.8567376999999,None,,,,,,,,,,,,,,,,,,,,,,,,,,,,,,,,,,,hope,61,7,silent,white,807.8542713000206,None,None,807.8542713000206,None,,,,,,,,,,,,,,,,,,,,,,,,,,,,,,80NB,001,2023_Aug_28_1651,ExactRep-v3-final,2021.2.3,59.96386577856653,
,,,,,,,,7,0,7,0,,,,,,,,,,,,,,,,,,,,,,,,,,,,,,,,,,,,,,,,,,,,,,,,,,,,,812.3582429999951,None,,,,,,,,,,,,,,,,,,,,,,,,,,,,,,,,,,,fortune,84,8,aloud,red,810.3583053000038,None,None,810.3583053000038,None,,,,,,,,,,,,,,,,,,,,,,,,,,,,,,80NB,001,2023_Aug_28_1651,ExactRep-v3-final,2021.2.3,59.96386577856653,
,,,,,,,,8,0,8,0,,,,,,,,,,,,,,,,,,,,,,,,,,,,,,,,,,,,,,,,,,,,,,,,,,,,,814.8606924000196,None,,,,,,,,,,,,,,,,,,,,,,,,,,,,,,,,,,,vision,4,9,sing,blue,812.8607663000003,None,None,812.8607663000003,None,,,,,,,,,,,,,,,,,,,,,,,,,,,,,,80NB,001,2023_Aug_28_1651,ExactRep-v3-final,2021.2.3,59.96386577856653,
,,,,,,,,9,0,9,0,,,,,,,,,,,,,,,,,,,,,,,,,,,,,,,,,,,,,,,,,,,,,,,,,,,,,817.3634645999991,None,,,,,,,,,,,,,,,,,,,,,,,,,,,,,,,,,,,answer,68,10,silent,white,815.3639527999912,None,None,815.3639527999912,None,,,,,,,,,,,,,,,,,,,,,,,,,,,,,,80NB,001,2023_Aug_28_1651,ExactRep-v3-final,2021.2.3,59.96386577856653,
,,,,,,,,10,0,10,0,,,,,,,,,,,,,,,,,,,,,,,,,,,,,,,,,,,,,,,,,,,,,,,,,,,,,819.8659268000047,None,,,,,,,,,,,,,,,,,,,,,,,,,,,,,,,,,,,troops,34,11,sing,blue,817.8639833999914,None,None,817.8639833999914,None,,,,,,,,,,,,,,,,,,,,,,,,,,,,,,80NB,001,2023_Aug_28_1651,ExactRep-v3-final,2021.2.3,59.96386577856653,
,,,,,,,,11,0,11,0,,,,,,,,,,,,,,,,,,,,,,,,,,,,,,,,,,,,,,,,,,,,,,,,,,,,,822.3689565000241,None,,,,,,,,,,,,,,,,,,,,,,,,,,,,,,,,,,,prison,75,12,silent,white,820.3667703000247,None,None,820.3667703000247,None,,,,,,,,,,,,,,,,,,,,,,,,,,,,,,80NB,001,2023_Aug_28_1651,ExactRep-v3-final,2021.2.3,59.96386577856653,
,,,,,,,,12,0,12,0,,,,,,,,,,,,,,,,,,,,,,,,,,,,,,,,,,,,,,,,,,,,,,,,,,,,,824.8710669000284,None,,,,,,,,,,,,,,,,,,,,,,,,,,,,,,,,,,,health,13,13,sing,blue,822.8691318000201,None,None,822.8691318000201,None,,,,,,,,,,,,,,,,,,,,,,,,,,,,,,80NB,001,2023_Aug_28_1651,ExactRep-v3-final,2021.2.3,59.96386577856653,
,,,,,,,,13,0,13,0,,,,,,,,,,,,,,,,,,,,,,,,,,,,,,,,,,,,,,,,,,,,,,,,,,,,,827.3903275000048,None,,,,,,,,,,,,,,,,,,,,,,,,,,,,,,,,,,,boy,20,14,sing,blue,825.3755735000013,None,None,825.3755735000013,None,,,,,,,,,,,,,,,,,,,,,,,,,,,,,,80NB,001,2023_Aug_28_1651,ExactRep-v3-final,2021.2.3,59.96386577856653,
,,,,,,,,14,0,14,0,,,,,,,,,,,,,,,,,,,,,,,,,,,,,,,,,,,,,,,,,,,,,,,,,,,,,829.8923475000192,None,,,,,,,,,,,,,,,,,,,,,,,,,,,,,,,,,,,water,44,15,silent,white,827.8907341000158,None,None,827.8907341000158,None,,,,,,,,,,,,,,,,,,,,,,,,,,,,,,80NB,001,2023_Aug_28_1651,ExactRep-v3-final,2021.2.3,59.96386577856653,
,,,,,,,,15,0,15,0,,,,,,,,,,,,,,,,,,,,,,,,,,,,,,,,,,,,,,,,,,,,,,,,,,,,,832.4146048999974,None,,,,,,,,,,,,,,,,,,,,,,,,,,,,,,,,,,,virtue,55,16,silent,white,830.3982642000192,None,None,830.3982642000192,None,,,,,,,,,,,,,,,,,,,,,,,,,,,,,,80NB,001,2023_Aug_28_1651,ExactRep-v3-final,2021.2.3,59.96386577856653,
,,,,,,,,16,0,16,0,,,,,,,,,,,,,,,,,,,,,,,,,,,,,,,,,,,,,,,,,,,,,,,,,,,,,834.9141280000331,None,,,,,,,,,,,,,,,,,,,,,,,,,,,,,,,,,,,pupil,109,17,aloud,red,832.9122955999919,None,None,832.9122955999919,None,,,,,,,,,,,,,,,,,,,,,,,,,,,,,,80NB,001,2023_Aug_28_1651,ExactRep-v3-final,2021.2.3,59.96386577856653,
,,,,,,,,17,0,17,0,,,,,,,,,,,,,,,,,,,,,,,,,,,,,,,,,,,,,,,,,,,,,,,,,,,,,837.4333655000082,None,,,,,,,,,,,,,,,,,,,,,,,,,,,,,,,,,,,moral,27,18,sing,blue,835.4213949000114,None,None,835.4213949000114,None,,,,,,,,,,,,,,,,,,,,,,,,,,,,,,80NB,001,2023_Aug_28_1651,ExactRep-v3-final,2021.2.3,59.96386577856653,
,,,,,,,,18,0,18,0,,,,,,,,,,,,,,,,,,,,,,,,,,,,,,,,,,,,,,,,,,,,,,,,,,,,,839.9359312000452,None,,,,,,,,,,,,,,,,,,,,,,,,,,,,,,,,,,,shore,2,19,sing,blue,837.9339031000272,None,None,837.9339031000272,None,,,,,,,,,,,,,,,,,,,,,,,,,,,,,,80NB,001,2023_Aug_28_1651,ExactRep-v3-final,2021.2.3,59.96386577856653,
,,,,,,,,19,0,19,0,,,,,,,,,,,,,,,,,,,,,,,,,,,,,,,,,,,,,,,,,,,,,,,,,,,,,842.4551936000353,None,,,,,,,,,,,,,,,,,,,,,,,,,,,,,,,,,,,artist,12,20,sing,blue,840.4428512000013,None,None,840.4428512000013,None,,,,,,,,,,,,,,,,,,,,,,,,,,,,,,80NB,001,2023_Aug_28_1651,ExactRep-v3-final,2021.2.3,59.96386577856653,
,,,,,,,,20,0,20,0,,,,,,,,,,,,,,,,,,,,,,,,,,,,,,,,,,,,,,,,,,,,,,,,,,,,,844.9582295000437,None,,,,,,,,,,,,,,,,,,,,,,,,,,,,,,,,,,,pole,103,21,aloud,red,842.9568136000307,None,None,842.9568136000307,None,,,,,,,,,,,,,,,,,,,,,,,,,,,,,,80NB,001,2023_Aug_28_1651,ExactRep-v3-final,2021.2.3,59.96386577856653,
,,,,,,,,21,0,21,0,,,,,,,,,,,,,,,,,,,,,,,,,,,,,,,,,,,,,,,,,,,,,,,,,,,,,847.4598527000053,None,,,,,,,,,,,,,,,,,,,,,,,,,,,,,,,,,,,idea,82,22,aloud,red,845.4584972000448,None,None,845.4584972000448,None,,,,,,,,,,,,,,,,,,,,,,,,,,,,,,80NB,001,2023_Aug_28_1651,ExactRep-v3-final,2021.2.3,59.96386577856653,
,,,,,,,,22,0,22,0,,,,,,,,,,,,,,,,,,,,,,,,,,,,,,,,,,,,,,,,,,,,,,,,,,,,,849.9626428000047,None,,,,,,,,,,,,,,,,,,,,,,,,,,,,,,,,,,,tree,58,23,silent,white,847.9604029000038,None,None,847.9604029000038,None,,,,,,,,,,,,,,,,,,,,,,,,,,,,,,80NB,001,2023_Aug_28_1651,ExactRep-v3-final,2021.2.3,59.96386577856653,
,,,,,,,,23,0,23,0,,,,,,,,,,,,,,,,,,,,,,,,,,,,,,,,,,,,,,,,,,,,,,,,,,,,,852.4651100999909,None,,,,,,,,,,,,,,,,,,,,,,,,,,,,,,,,,,,cabin,48,24,silent,white,850.4637000000221,None,None,850.4637000000221,None,,,,,,,,,,,,,,,,,,,,,,,,,,,,,,80NB,001,2023_Aug_28_1651,ExactRep-v3-final,2021.2.3,59.96386577856653,
,,,,,,,,24,0,24,0,,,,,,,,,,,,,,,,,,,,,,,,,,,,,,,,,,,,,,,,,,,,,,,,,,,,,854.9677678000298,None,,,,,,,,,,,,,,,,,,,,,,,,,,,,,,,,,,,blood,14,25,sing,blue,852.9654601000366,None,None,852.9654601000366,None,,,,,,,,,,,,,,,,,,,,,,,,,,,,,,80NB,001,2023_Aug_28_1651,ExactRep-v3-final,2021.2.3,59.96386577856653,
,,,,,,,,25,0,25,0,,,,,,,,,,,,,,,,,,,,,,,,,,,,,,,,,,,,,,,,,,,,,,,,,,,,,857.4868506999919,None,,,,,,,,,,,,,,,,,,,,,,,,,,,,,,,,,,,heaven,105,26,aloud,red,855.4774591000169,None,None,855.4774591000169,None,,,,,,,,,,,,,,,,,,,,,,,,,,,,,,80NB,001,2023_Aug_28_1651,ExactRep-v3-final,2021.2.3,59.96386577856653,
,,,,,,,,26,0,26,0,,,,,,,,,,,,,,,,,,,,,,,,,,,,,,,,,,,,,,,,,,,,,,,,,,,,,859.9921114000026,None,,,,,,,,,,,,,,,,,,,,,,,,,,,,,,,,,,,market,73,27,silent,white,857.98801130004,None,None,857.98801130004,None,,,,,,,,,,,,,,,,,,,,,,,,,,,,,,80NB,001,2023_Aug_28_1651,ExactRep-v3-final,2021.2.3,59.96386577856653,
,,,,,,,,27,0,27,0,,,,,,,,,,,,,,,,,,,,,,,,,,,,,,,,,,,,,,,,,,,,,,,,,,,,,862.5083236999926,None,,,,,,,,,,,,,,,,,,,,,,,,,,,,,,,,,,,plain,18,28,sing,blue,860.4964137999923,None,None,860.4964137999923,None,,,,,,,,,,,,,,,,,,,,,,,,,,,,,,80NB,001,2023_Aug_28_1651,ExactRep-v3-final,2021.2.3,59.96386577856653,
,,,,,,,,28,0,28,0,,,,,,,,,,,,,,,,,,,,,,,,,,,,,,,,,,,,,,,,,,,,,,,,,,,,,865.0109632000094,None,,,,,,,,,,,,,,,,,,,,,,,,,,,,,,,,,,,arm,46,29,silent,white,863.0091388000292,None,None,863.0091388000292,None,,,,,,,,,,,,,,,,,,,,,,,,,,,,,,80NB,001,2023_Aug_28_1651,ExactRep-v3-final,2021.2.3,59.96386577856653,
,,,,,,,,29,0,29,0,,,,,,,,,,,,,,,,,,,,,,,,,,,,,,,,,,,,,,,,,,,,,,,,,,,,,867.5137606000062,None,,,,,,,,,,,,,,,,,,,,,,,,,,,,,,,,,,,leader,1,30,sing,blue,865.511270500021,None,None,865.511270500021,None,,,,,,,,,,,,,,,,,,,,,,,,,,,,,,80NB,001,2023_Aug_28_1651,ExactRep-v3-final,2021.2.3,59.96386577856653,
,,,,,,,,30,0,30,0,,,,,,,,,,,,,,,,,,,,,,,,,,,,,,,,,,,,,,,,,,,,,,,,,,,,,870.0157004999928,None,,,,,,,,,,,,,,,,,,,,,,,,,,,,,,,,,,,letter,78,31,silent,white,868.0140547000337,None,None,868.0140547000337,None,,,,,,,,,,,,,,,,,,,,,,,,,,,,,,80NB,001,2023_Aug_28_1651,ExactRep-v3-final,2021.2.3,59.96386577856653,
,,,,,,,,31,0,31,0,,,,,,,,,,,,,,,,,,,,,,,,,,,,,,,,,,,,,,,,,,,,,,,,,,,,,872.5353636000073,None,,,,,,,,,,,,,,,,,,,,,,,,,,,,,,,,,,,wheat,23,32,sing,blue,870.5200087000267,None,None,870.5200087000267,None,,,,,,,,,,,,,,,,,,,,,,,,,,,,,,80NB,001,2023_Aug_28_1651,ExactRep-v3-final,2021.2.3,59.96386577856653,
,,,,,,,,32,0,32,0,,,,,,,,,,,,,,,,,,,,,,,,,,,,,,,,,,,,,,,,,,,,,,,,,,,,,875.0372883999953,None,,,,,,,,,,,,,,,,,,,,,,,,,,,,,,,,,,,hotel,100,33,aloud,red,873.0355694000027,None,None,873.0355694000027,None,,,,,,,,,,,,,,,,,,,,,,,,,,,,,,80NB,001,2023_Aug_28_1651,ExactRep-v3-final,2021.2.3,59.96386577856653,
,,,,,,,,33,0,33,0,,,,,,,,,,,,,,,,,,,,,,,,,,,,,,,,,,,,,,,,,,,,,,,,,,,,,877.5452297000447,None,,,,,,,,,,,,,,,,,,,,,,,,,,,,,,,,,,,camp,118,34,aloud,red,875.5380890000379,None,None,875.5380890000379,None,,,,,,,,,,,,,,,,,,,,,,,,,,,,,,80NB,001,2023_Aug_28_1651,ExactRep-v3-final,2021.2.3,59.96386577856653,
,,,,,,,,34,0,34,0,,,,,,,,,,,,,,,,,,,,,,,,,,,,,,,,,,,,,,,,,,,,,,,,,,,,,880.0593777000322,None,,,,,,,,,,,,,,,,,,,,,,,,,,,,,,,,,,,board,79,35,sing,blue,878.0570707000443,None,None,878.0570707000443,None,,,,,,,,,,,,,,,,,,,,,,,,,,,,,,80NB,001,2023_Aug_28_1651,ExactRep-v3-final,2021.2.3,59.96386577856653,
,,,,,,,,35,0,35,0,,,,,,,,,,,,,,,,,,,,,,,,,,,,,,,,,,,,,,,,,,,,,,,,,,,,,882.578341800021,None,,,,,,,,,,,,,,,,,,,,,,,,,,,,,,,,,,,star,66,36,silent,white,880.5712676999974,None,None,880.5712676999974,None,,,,,,,,,,,,,,,,,,,,,,,,,,,,,,80NB,001,2023_Aug_28_1651,ExactRep-v3-final,2021.2.3,59.96386577856653,
,,,,,,,,36,0,36,0,,,,,,,,,,,,,,,,,,,,,,,,,,,,,,,,,,,,,,,,,,,,,,,,,,,,,885.0812999000191,None,,,,,,,,,,,,,,,,,,,,,,,,,,,,,,,,,,,fur,101,37,aloud,red,883.0792843000381,None,None,883.0792843000381,None,,,,,,,,,,,,,,,,,,,,,,,,,,,,,,80NB,001,2023_Aug_28_1651,ExactRep-v3-final,2021.2.3,59.96386577856653,
,,,,,,,,37,0,37,0,,,,,,,,,,,,,,,,,,,,,,,,,,,,,,,,,,,,,,,,,,,,,,,,,,,,,887.6002810000209,None,,,,,,,,,,,,,,,,,,,,,,,,,,,,,,,,,,,dust,76,38,silent,white,885.5923890999984,None,None,885.5923890999984,None,,,,,,,,,,,,,,,,,,,,,,,,,,,,,,80NB,001,2023_Aug_28_1651,ExactRep-v3-final,2021.2.3,59.96386577856653,
,,,,,,,,38,0,38,0,,,,,,,,,,,,,,,,,,,,,,,,,,,,,,,,,,,,,,,,,,,,,,,,,,,,,890.1026505000191,None,,,,,,,,,,,,,,,,,,,,,,,,,,,,,,,,,,,coast,88,39,aloud,red,888.1006322000176,None,None,888.1006322000176,None,,,,,,,,,,,,,,,,,,,,,,,,,,,,,,80NB,001,2023_Aug_28_1651,ExactRep-v3-final,2021.2.3,59.96386577856653,
,,,,,,,,39,0,39,0,,,,,,,,,,,,,,,,,,,,,,,,,,,,,,,,,,,,,,,,,,,,,,,,,,,,,892.60549300001,None,,,,,,,,,,,,,,,,,,,,,,,,,,,,,,,,,,,avenue,47,40,silent,white,890.6034496999928,None,None,890.6034496999928,None,,,,,,,,,,,,,,,,,,,,,,,,,,,,,,80NB,001,2023_Aug_28_1651,ExactRep-v3-final,2021.2.3,59.96386577856653,
,,,,,,,,40,0,40,0,,,,,,,,,,,,,,,,,,,,,,,,,,,,,,,,,,,,,,,,,,,,,,,,,,,,,895.1075801000115,None,,,,,,,,,,,,,,,,,,,,,,,,,,,,,,,,,,,time,7,41,sing,blue,893.1061832000269,None,None,893.1061832000269,None,,,,,,,,,,,,,,,,,,,,,,,,,,,,,,80NB,001,2023_Aug_28_1651,ExactRep-v3-final,2021.2.3,59.96386577856653,
,,,,,,,,41,0,41,0,,,,,,,,,,,,,,,,,,,,,,,,,,,,,,,,,,,,,,,,,,,,,,,,,,,,,897.6282053000177,None,,,,,,,,,,,,,,,,,,,,,,,,,,,,,,,,,,,cost,72,42,silent,white,895.6160094999941,None,None,895.6160094999941,None,,,,,,,,,,,,,,,,,,,,,,,,,,,,,,80NB,001,2023_Aug_28_1651,ExactRep-v3-final,2021.2.3,59.96386577856653,
,,,,,,,,42,0,42,0,,,,,,,,,,,,,,,,,,,,,,,,,,,,,,,,,,,,,,,,,,,,,,,,,,,,,900.1291880999925,None,,,,,,,,,,,,,,,,,,,,,,,,,,,,,,,,,,,seat,52,43,silent,white,898.1273363000364,None,None,898.1273363000364,None,,,,,,,,,,,,,,,,,,,,,,,,,,,,,,80NB,001,2023_Aug_28_1651,ExactRep-v3-final,2021.2.3,59.96386577856653,
,,,,,,,,43,0,43,0,,,,,,,,,,,,,,,,,,,,,,,,,,,,,,,,,,,,,,,,,,,,,,,,,,,,,902.6487152000191,None,,,,,,,,,,,,,,,,,,,,,,,,,,,,,,,,,,,meeting,63,44,silent,white,900.6418167999946,None,None,900.6418167999946,None,,,,,,,,,,,,,,,,,,,,,,,,,,,,,,80NB,001,2023_Aug_28_1651,ExactRep-v3-final,2021.2.3,59.96386577856653,
,,,,,,,,44,0,44,0,,,,,,,,,,,,,,,,,,,,,,,,,,,,,,,,,,,,,,,,,,,,,,,,,,,,,905.1508277000394,None,,,,,,,,,,,,,,,,,,,,,,,,,,,,,,,,,,,vessel,56,45,silent,white,903.1491011000471,None,None,903.1491011000471,None,,,,,,,,,,,,,,,,,,,,,,,,,,,,,,80NB,001,2023_Aug_28_1651,ExactRep-v3-final,2021.2.3,59.96386577856653,
,,,,,,,,45,0,45,0,,,,,,,,,,,,,,,,,,,,,,,,,,,,,,,,,,,,,,,,,,,,,,,,,,,,,907.6537058000104,None,,,,,,,,,,,,,,,,,,,,,,,,,,,,,,,,,,,form,37,46,sing,blue,905.6518343000207,None,None,905.6518343000207,None,,,,,,,,,,,,,,,,,,,,,,,,,,,,,,80NB,001,2023_Aug_28_1651,ExactRep-v3-final,2021.2.3,59.96386577856653,
,,,,,,,,46,0,46,0,,,,,,,,,,,,,,,,,,,,,,,,,,,,,,,,,,,,,,,,,,,,,,,,,,,,,910.1561067000148,None,,,,,,,,,,,,,,,,,,,,,,,,,,,,,,,,,,,pride,28,47,sing,blue,908.1563660000102,None,None,908.1563660000102,None,,,,,,,,,,,,,,,,,,,,,,,,,,,,,,80NB,001,2023_Aug_28_1651,ExactRep-v3-final,2021.2.3,59.96386577856653,
,,,,,,,,47,0,47,0,,,,,,,,,,,,,,,,,,,,,,,,,,,,,,,,,,,,,,,,,,,,,,,,,,,,,912.6583357999916,None,,,,,,,,,,,,,,,,,,,,,,,,,,,,,,,,,,,street,95,48,aloud,red,910.6570670999936,None,None,910.6570670999936,None,,,,,,,,,,,,,,,,,,,,,,,,,,,,,,80NB,001,2023_Aug_28_1651,ExactRep-v3-final,2021.2.3,59.96386577856653,
,,,,,,,,48,0,48,0,,,,,,,,,,,,,,,,,,,,,,,,,,,,,,,,,,,,,,,,,,,,,,,,,,,,,915.161021900014,None,,,,,,,,,,,,,,,,,,,,,,,,,,,,,,,,,,,flag,30,49,sing,blue,913.158924599993,None,None,913.158924599993,None,,,,,,,,,,,,,,,,,,,,,,,,,,,,,,80NB,001,2023_Aug_28_1651,ExactRep-v3-final,2021.2.3,59.96386577856653,
,,,,,,,,49,0,49,0,,,,,,,,,,,,,,,,,,,,,,,,,,,,,,,,,,,,,,,,,,,,,,,,,,,,,917.6800106000155,None,,,,,,,,,,,,,,,,,,,,,,,,,,,,,,,,,,,money,54,50,silent,white,915.6730340000358,None,None,915.6730340000358,None,,,,,,,,,,,,,,,,,,,,,,,,,,,,,,80NB,001,2023_Aug_28_1651,ExactRep-v3-final,2021.2.3,59.96386577856653,
,,,,,,,,50,0,50,0,,,,,,,,,,,,,,,,,,,,,,,,,,,,,,,,,,,,,,,,,,,,,,,,,,,,,920.1833506000112,None,,,,,,,,,,,,,,,,,,,,,,,,,,,,,,,,,,,coin,116,51,aloud,red,918.1806554000359,None,None,918.1806554000359,None,,,,,,,,,,,,,,,,,,,,,,,,,,,,,,80NB,001,2023_Aug_28_1651,ExactRep-v3-final,2021.2.3,59.96386577856653,
,,,,,,,,51,0,51,0,,,,,,,,,,,,,,,,,,,,,,,,,,,,,,,,,,,,,,,,,,,,,,,,,,,,,922.7022926000063,None,,,,,,,,,,,,,,,,,,,,,,,,,,,,,,,,,,,judge,0,52,sing,blue,920.6958429000224,None,None,920.6958429000224,None,,,,,,,,,,,,,,,,,,,,,,,,,,,,,,80NB,001,2023_Aug_28_1651,ExactRep-v3-final,2021.2.3,59.96386577856653,
,,,,,,,,52,0,52,0,,,,,,,,,,,,,,,,,,,,,,,,,,,,,,,,,,,,,,,,,,,,,,,,,,,,,925.2213877000031,None,,,,,,,,,,,,,,,,,,,,,,,,,,,,,,,,,,,colony,29,53,sing,blue,923.2149204000016,None,None,923.2149204000016,None,,,,,,,,,,,,,,,,,,,,,,,,,,,,,,80NB,001,2023_Aug_28_1651,ExactRep-v3-final,2021.2.3,59.96386577856653,
,,,,,,,,53,0,53,0,,,,,,,,,,,,,,,,,,,,,,,,,,,,,,,,,,,,,,,,,,,,,,,,,,,,,927.7239608000382,None,,,,,,,,,,,,,,,,,,,,,,,,,,,,,,,,,,,breast,31,54,sing,blue,925.7242567000212,None,None,925.7242567000212,None,,,,,,,,,,,,,,,,,,,,,,,,,,,,,,80NB,001,2023_Aug_28_1651,ExactRep-v3-final,2021.2.3,59.96386577856653,
,,,,,,,,54,0,54,0,,,,,,,,,,,,,,,,,,,,,,,,,,,,,,,,,,,,,,,,,,,,,,,,,,,,,930.236028400017,None,,,,,,,,,,,,,,,,,,,,,,,,,,,,,,,,,,,grief,62,55,silent,white,928.2279065000475,None,None,928.2279065000475,None,,,,,,,,,,,,,,,,,,,,,,,,,,,,,,80NB,001,2023_Aug_28_1651,ExactRep-v3-final,2021.2.3,59.96386577856653,
,,,,,,,,55,0,55,0,,,,,,,,,,,,,,,,,,,,,,,,,,,,,,,,,,,,,,,,,,,,,,,,,,,,,932.7466729000444,None,,,,,,,,,,,,,,,,,,,,,,,,,,,,,,,,,,,air,70,56,silent,white,930.7435562000028,None,None,930.7435562000028,None,,,,,,,,,,,,,,,,,,,,,,,,,,,,,,80NB,001,2023_Aug_28_1651,ExactRep-v3-final,2021.2.3,59.96386577856653,
,,,,,,,,56,0,56,0,,,,,,,,,,,,,,,,,,,,,,,,,,,,,,,,,,,,,,,,,,,,,,,,,,,,,935.2485372000374,None,,,,,,,,,,,,,,,,,,,,,,,,,,,,,,,,,,,world,51,57,silent,white,933.245945200033,None,None,933.245945200033,None,,,,,,,,,,,,,,,,,,,,,,,,,,,,,,80NB,001,2023_Aug_28_1651,ExactRep-v3-final,2021.2.3,59.96386577856653,
,,,,,,,,57,0,57,0,,,,,,,,,,,,,,,,,,,,,,,,,,,,,,,,,,,,,,,,,,,,,,,,,,,,,937.7681780999992,None,,,,,,,,,,,,,,,,,,,,,,,,,,,,,,,,,,,ability,96,58,aloud,red,935.7525594000472,None,None,935.7525594000472,None,,,,,,,,,,,,,,,,,,,,,,,,,,,,,,80NB,001,2023_Aug_28_1651,ExactRep-v3-final,2021.2.3,59.96386577856653,
,,,,,,,,58,0,58,0,,,,,,,,,,,,,,,,,,,,,,,,,,,,,,,,,,,,,,,,,,,,,,,,,,,,,940.2873476000386,None,,,,,,,,,,,,,,,,,,,,,,,,,,,,,,,,,,,boulder,112,59,aloud,red,938.2714814000065,None,None,938.2714814000065,None,,,,,,,,,,,,,,,,,,,,,,,,,,,,,,80NB,001,2023_Aug_28_1651,ExactRep-v3-final,2021.2.3,59.96386577856653,
,,,,,,,,59,0,59,0,,,,,,,,,,,,,,,,,,,,,,,,,,,,,,,,,,,,,,,,,,,,,,,,,,,,,942.7889951000107,None,,,,,,,,,,,,,,,,,,,,,,,,,,,,,,,,,,,priest,110,60,aloud,red,940.7867566000205,None,None,940.7867566000205,None,,,,,,,,,,,,,,,,,,,,,,,,,,,,,,80NB,001,2023_Aug_28_1651,ExactRep-v3-final,2021.2.3,59.96386577856653,
,,,,,,,,60,0,60,0,,,,,,,,,,,,,,,,,,,,,,,,,,,,,,,,,,,,,,,,,,,,,,,,,,,,,945.3082296000211,None,,,,,,,,,,,,,,,,,,,,,,,,,,,,,,,,,,,amount,106,61,aloud,red,943.2929150999989,None,None,943.2929150999989,None,,,,,,,,,,,,,,,,,,,,,,,,,,,,,,80NB,001,2023_Aug_28_1651,ExactRep-v3-final,2021.2.3,59.96386577856653,
,,,,,,,,61,0,61,0,,,,,,,,,,,,,,,,,,,,,,,,,,,,,,,,,,,,,,,,,,,,,,,,,,,,,947.8099910000456,None,,,,,,,,,,,,,,,,,,,,,,,,,,,,,,,,,,,potato,57,62,silent,white,945.8082541000331,None,None,945.8082541000331,None,,,,,,,,,,,,,,,,,,,,,,,,,,,,,,80NB,001,2023_Aug_28_1651,ExactRep-v3-final,2021.2.3,59.96386577856653,
,,,,,,,,62,0,62,0,,,,,,,,,,,,,,,,,,,,,,,,,,,,,,,,,,,,,,,,,,,,,,,,,,,,,950.3132106999983,None,,,,,,,,,,,,,,,,,,,,,,,,,,,,,,,,,,,body,5,63,sing,blue,948.3113236000063,None,None,948.3113236000063,None,,,,,,,,,,,,,,,,,,,,,,,,,,,,,,80NB,001,2023_Aug_28_1651,ExactRep-v3-final,2021.2.3,59.96386577856653,
,,,,,,,,63,0,63,0,,,,,,,,,,,,,,,,,,,,,,,,,,,,,,,,,,,,,,,,,,,,,,,,,,,,,952.815511599998,None,,,,,,,,,,,,,,,,,,,,,,,,,,,,,,,,,,,love,3,64,sing,blue,950.8154802999925,None,None,950.8154802999925,None,,,,,,,,,,,,,,,,,,,,,,,,,,,,,,80NB,001,2023_Aug_28_1651,ExactRep-v3-final,2021.2.3,59.96386577856653,
,,,,,,,,64,0,64,0,,,,,,,,,,,,,,,,,,,,,,,,,,,,,,,,,,,,,,,,,,,,,,,,,,,,,955.3178103000391,None,,,,,,,,,,,,,,,,,,,,,,,,,,,,,,,,,,,officer,93,65,aloud,red,953.3183308000444,None,None,953.3183308000444,None,,,,,,,,,,,,,,,,,,,,,,,,,,,,,,80NB,001,2023_Aug_28_1651,ExactRep-v3-final,2021.2.3,59.96386577856653,
,,,,,,,,65,0,65,0,,,,,,,,,,,,,,,,,,,,,,,,,,,,,,,,,,,,,,,,,,,,,,,,,,,,,957.8370542000048,None,,,,,,,,,,,,,,,,,,,,,,,,,,,,,,,,,,,origin,10,66,sing,blue,955.8224772000103,None,None,955.8224772000103,None,,,,,,,,,,,,,,,,,,,,,,,,,,,,,,80NB,001,2023_Aug_28_1651,ExactRep-v3-final,2021.2.3,59.96386577856653,
,,,,,,,,66,0,66,0,,,,,,,,,,,,,,,,,,,,,,,,,,,,,,,,,,,,,,,,,,,,,,,,,,,,,960.3396725000348,None,,,,,,,,,,,,,,,,,,,,,,,,,,,,,,,,,,,insect,39,67,silent,white,958.3402590000187,None,None,958.3402590000187,None,,,,,,,,,,,,,,,,,,,,,,,,,,,,,,80NB,001,2023_Aug_28_1651,ExactRep-v3-final,2021.2.3,59.96386577856653,
,,,,,,,,67,0,67,0,,,,,,,,,,,,,,,,,,,,,,,,,,,,,,,,,,,,,,,,,,,,,,,,,,,,,962.858929500042,None,,,,,,,,,,,,,,,,,,,,,,,,,,,,,,,,,,,circle,60,68,silent,white,960.8509428999969,None,None,960.8509428999969,None,,,,,,,,,,,,,,,,,,,,,,,,,,,,,,80NB,001,2023_Aug_28_1651,ExactRep-v3-final,2021.2.3,59.96386577856653,
,,,,,,,,68,0,68,0,,,,,,,,,,,,,,,,,,,,,,,,,,,,,,,,,,,,,,,,,,,,,,,,,,,,,965.3781552000437,None,,,,,,,,,,,,,,,,,,,,,,,,,,,,,,,,,,,ship,40,69,silent,white,963.3647692000377,None,None,963.3647692000377,None,,,,,,,,,,,,,,,,,,,,,,,,,,,,,,80NB,001,2023_Aug_28_1651,ExactRep-v3-final,2021.2.3,59.96386577856653,
,,,,,,,,69,0,69,0,,,,,,,,,,,,,,,,,,,,,,,,,,,,,,,,,,,,,,,,,,,,,,,,,,,,,967.897209000017,None,,,,,,,,,,,,,,,,,,,,,,,,,,,,,,,,,,,journal,42,70,silent,white,965.8868650000077,None,None,965.8868650000077,None,,,,,,,,,,,,,,,,,,,,,,,,,,,,,,80NB,001,2023_Aug_28_1651,ExactRep-v3-final,2021.2.3,59.96386577856653,
,,,,,,,,70,0,70,0,,,,,,,,,,,,,,,,,,,,,,,,,,,,,,,,,,,,,,,,,,,,,,,,,,,,,970.3998322000261,None,,,,,,,,,,,,,,,,,,,,,,,,,,,,,,,,,,,factory,45,71,silent,white,968.39843380003,None,None,968.39843380003,None,,,,,,,,,,,,,,,,,,,,,,,,,,,,,,80NB,001,2023_Aug_28_1651,ExactRep-v3-final,2021.2.3,59.96386577856653,
,,,,,,,,71,0,71,0,,,,,,,,,,,,,,,,,,,,,,,,,,,,,,,,,,,,,,,,,,,,,,,,,,,,,972.9025103000458,None,,,,,,,,,,,,,,,,,,,,,,,,,,,,,,,,,,,fun,49,72,silent,white,970.9003281000187,None,None,970.9003281000187,None,,,,,,,,,,,,,,,,,,,,,,,,,,,,,,80NB,001,2023_Aug_28_1651,ExactRep-v3-final,2021.2.3,59.96386577856653,
,,,,,,,,72,0,72,0,,,,,,,,,,,,,,,,,,,,,,,,,,,,,,,,,,,,,,,,,,,,,,,,,,,,,975.4215941000148,None,,,,,,,,,,,,,,,,,,,,,,,,,,,,,,,,,,,fate,11,73,sing,blue,973.4066318999976,None,None,973.4066318999976,None,,,,,,,,,,,,,,,,,,,,,,,,,,,,,,80NB,001,2023_Aug_28_1651,ExactRep-v3-final,2021.2.3,59.96386577856653,
,,,,,,,,73,0,73,0,,,,,,,,,,,,,,,,,,,,,,,,,,,,,,,,,,,,,,,,,,,,,,,,,,,,,977.9236633999972,None,,,,,,,,,,,,,,,,,,,,,,,,,,,,,,,,,,,plant,83,74,aloud,red,975.9243869000347,None,None,975.9243869000347,None,,,,,,,,,,,,,,,,,,,,,,,,,,,,,,80NB,001,2023_Aug_28_1651,ExactRep-v3-final,2021.2.3,59.96386577856653,
,,,,,,,,74,0,74,0,,,,,,,,,,,,,,,,,,,,,,,,,,,,,,,,,,,,,,,,,,,,,,,,,,,,,980.4262672000332,None,,,,,,,,,,,,,,,,,,,,,,,,,,,,,,,,,,,garden,15,75,sing,blue,978.4245633000392,None,None,978.4245633000392,None,,,,,,,,,,,,,,,,,,,,,,,,,,,,,,80NB,001,2023_Aug_28_1651,ExactRep-v3-final,2021.2.3,59.96386577856653,
,,,,,,,,75,0,75,0,,,,,,,,,,,,,,,,,,,,,,,,,,,,,,,,,,,,,,,,,,,,,,,,,,,,,982.9287452000426,None,,,,,,,,,,,,,,,,,,,,,,,,,,,,,,,,,,,product,26,76,sing,blue,980.9280793000362,None,None,980.9280793000362,None,,,,,,,,,,,,,,,,,,,,,,,,,,,,,,80NB,001,2023_Aug_28_1651,ExactRep-v3-final,2021.2.3,59.96386577856653,
,,,,,,,,76,0,76,0,,,,,,,,,,,,,,,,,,,,,,,,,,,,,,,,,,,,,,,,,,,,,,,,,,,,,985.4313548000064,None,,,,,,,,,,,,,,,,,,,,,,,,,,,,,,,,,,,machine,104,77,aloud,red,983.4300947000156,None,None,983.4300947000156,None,,,,,,,,,,,,,,,,,,,,,,,,,,,,,,80NB,001,2023_Aug_28_1651,ExactRep-v3-final,2021.2.3,59.96386577856653,
,,,,,,,,77,0,77,0,,,,,,,,,,,,,,,,,,,,,,,,,,,,,,,,,,,,,,,,,,,,,,,,,,,,,987.934284500021,None,,,,,,,,,,,,,,,,,,,,,,,,,,,,,,,,,,,person,99,78,aloud,red,985.9325195000274,None,None,985.9325195000274,None,,,,,,,,,,,,,,,,,,,,,,,,,,,,,,80NB,001,2023_Aug_28_1651,ExactRep-v3-final,2021.2.3,59.96386577856653,
,,,,,,,,78,0,78,0,,,,,,,,,,,,,,,,,,,,,,,,,,,,,,,,,,,,,,,,,,,,,,,,,,,,,990.4533027000143,None,,,,,,,,,,,,,,,,,,,,,,,,,,,,,,,,,,,memory,89,79,aloud,red,988.439368500025,None,None,988.439368500025,None,,,,,,,,,,,,,,,,,,,,,,,,,,,,,,80NB,001,2023_Aug_28_1651,ExactRep-v3-final,2021.2.3,59.96386577856653,
,,,,,,,,79,0,79,0,,,,,,,,,,,,,,,,,,,,,,,,,,,,,,,,,,,,,,,,,,,,,,,,,,,,,992.972188600048,None,,,,,,,,,,,,,,,,,,,,,,,,,,,,,,,,,,,series,22,80,sing,blue,990.9596003000042,None,None,990.9596003000042,None,,,,,,,,,,,,,,,,,,,,,,,,,,,,,,80NB,001,2023_Aug_28_1651,ExactRep-v3-final,2021.2.3,59.96386577856653,
,,,,,,,,80,0,80,0,,,,,,,,,,,,,,,,,,,,,,,,,,,,,,,,,,,,,,,,,,,,,,,,,,,,,995.4752190000145,None,,,,,,,,,,,,,,,,,,,,,,,,,,,,,,,,,,,hall,69,81,silent,white,993.4730395000079,None,None,993.4730395000079,None,,,,,,,,,,,,,,,,,,,,,,,,,,,,,,80NB,001,2023_Aug_28_1651,ExactRep-v3-final,2021.2.3,59.96386577856653,
,,,,,,,,81,0,81,0,,,,,,,,,,,,,,,,,,,,,,,,,,,,,,,,,,,,,,,,,,,,,,,,,,,,,997.9938027000171,None,,,,,,,,,,,,,,,,,,,,,,,,,,,,,,,,,,,method,81,82,aloud,red,995.9828511000378,None,None,995.9828511000378,None,,,,,,,,,,,,,,,,,,,,,,,,,,,,,,80NB,001,2023_Aug_28_1651,ExactRep-v3-final,2021.2.3,59.96386577856653,
,,,,,,,,82,0,82,0,,,,,,,,,,,,,,,,,,,,,,,,,,,,,,,,,,,,,,,,,,,,,,,,,,,,,1000.4963735000347,None,,,,,,,,,,,,,,,,,,,,,,,,,,,,,,,,,,,cat,50,83,silent,white,998.4943010000279,None,None,998.4943010000279,None,,,,,,,,,,,,,,,,,,,,,,,,,,,,,,80NB,001,2023_Aug_28_1651,ExactRep-v3-final,2021.2.3,59.96386577856653,
,,,,,,,,83,0,83,0,,,,,,,,,,,,,,,,,,,,,,,,,,,,,,,,,,,,,,,,,,,,,,,,,,,,,1002.9987831000471,None,,,,,,,,,,,,,,,,,,,,,,,,,,,,,,,,,,,season,97,84,aloud,red,1000.9967890999978,None,None,1000.9967890999978,None,,,,,,,,,,,,,,,,,,,,,,,,,,,,,,80NB,001,2023_Aug_28_1651,ExactRep-v3-final,2021.2.3,59.96386577856653,
,,,,,,,,84,0,84,0,,,,,,,,,,,,,,,,,,,,,,,,,,,,,,,,,,,,,,,,,,,,,,,,,,,,,1005.5216428000131,None,,,,,,,,,,,,,,,,,,,,,,,,,,,,,,,,,,,pipe,32,85,sing,blue,1003.5038542000111,None,None,1003.5038542000111,None,,,,,,,,,,,,,,,,,,,,,,,,,,,,,,80NB,001,2023_Aug_28_1651,ExactRep-v3-final,2021.2.3,59.96386577856653,
,,,,,,,,85,0,85,0,,,,,,,,,,,,,,,,,,,,,,,,,,,,,,,,,,,,,,,,,,,,,,,,,,,,,1008.0375036000041,None,,,,,,,,,,,,,,,,,,,,,,,,,,,,,,,,,,,window,85,86,aloud,red,1006.0257512000389,None,None,1006.0257512000389,None,,,,,,,,,,,,,,,,,,,,,,,,,,,,,,80NB,001,2023_Aug_28_1651,ExactRep-v3-final,2021.2.3,59.96386577856653,
,,,,,,,,86,0,86,0,,,,,,,,,,,,,,,,,,,,,,,,,,,,,,,,,,,,,,,,,,,,,,,,,,,,,1010.5399453000282,None,,,,,,,,,,,,,,,,,,,,,,,,,,,,,,,,,,,passion,94,87,aloud,red,1008.5403865000117,None,None,1008.5403865000117,None,,,,,,,,,,,,,,,,,,,,,,,,,,,,,,80NB,001,2023_Aug_28_1651,ExactRep-v3-final,2021.2.3,59.96386577856653,
,,,,,,,,87,0,87,0,,,,,,,,,,,,,,,,,,,,,,,,,,,,,,,,,,,,,,,,,,,,,,,,,,,,,1013.0592290000059,None,,,,,,,,,,,,,,,,,,,,,,,,,,,,,,,,,,,green,38,88,sing,blue,1011.043936400034,None,None,1011.043936400034,None,,,,,,,,,,,,,,,,,,,,,,,,,,,,,,80NB,001,2023_Aug_28_1651,ExactRep-v3-final,2021.2.3,59.96386577856653,
,,,,,,,,88,0,88,0,,,,,,,,,,,,,,,,,,,,,,,,,,,,,,,,,,,,,,,,,,,,,,,,,,,,,1015.5783962000278,None,,,,,,,,,,,,,,,,,,,,,,,,,,,,,,,,,,,salary,90,89,aloud,red,1013.5634650000138,None,None,1013.5634650000138,None,,,,,,,,,,,,,,,,,,,,,,,,,,,,,,80NB,001,2023_Aug_28_1651,ExactRep-v3-final,2021.2.3,59.96386577856653,
,,,,,,,,89,0,89,0,,,,,,,,,,,,,,,,,,,,,,,,,,,,,,,,,,,,,,,,,,,,,,,,,,,,,1018.0806775999954,None,,,,,,,,,,,,,,,,,,,,,,,,,,,,,,,,,,,dream,80,90,aloud,red,1016.0782918000477,None,None,1016.0782918000477,None,,,,,,,,,,,,,,,,,,,,,,,,,,,,,,80NB,001,2023_Aug_28_1651,ExactRep-v3-final,2021.2.3,59.96386577856653,
,,,,,,,,90,0,90,0,,,,,,,,,,,,,,,,,,,,,,,,,,,,,,,,,,,,,,,,,,,,,,,,,,,,,1020.5830477999989,None,,,,,,,,,,,,,,,,,,,,,,,,,,,,,,,,,,,door,74,91,silent,white,1018.5812810999923,None,None,1018.5812810999923,None,,,,,,,,,,,,,,,,,,,,,,,,,,,,,,80NB,001,2023_Aug_28_1651,ExactRep-v3-final,2021.2.3,59.96386577856653,
,,,,,,,,91,0,91,0,,,,,,,,,,,,,,,,,,,,,,,,,,,,,,,,,,,,,,,,,,,,,,,,,,,,,1023.0856439000345,None,,,,,,,,,,,,,,,,,,,,,,,,,,,,,,,,,,,glory,33,92,sing,blue,1021.0858180000214,None,None,1021.0858180000214,None,,,,,,,,,,,,,,,,,,,,,,,,,,,,,,80NB,001,2023_Aug_28_1651,ExactRep-v3-final,2021.2.3,59.96386577856653,
,,,,,,,,92,0,92,0,,,,,,,,,,,,,,,,,,,,,,,,,,,,,,,,,,,,,,,,,,,,,,,,,,,,,1025.58816069999,None,,,,,,,,,,,,,,,,,,,,,,,,,,,,,,,,,,,thought,102,93,aloud,red,1023.5881851000013,None,None,1023.5881851000013,None,,,,,,,,,,,,,,,,,,,,,,,,,,,,,,80NB,001,2023_Aug_28_1651,ExactRep-v3-final,2021.2.3,59.96386577856653,
,,,,,,,,93,0,93,0,,,,,,,,,,,,,,,,,,,,,,,,,,,,,,,,,,,,,,,,,,,,,,,,,,,,,1028.090745399997,None,,,,,,,,,,,,,,,,,,,,,,,,,,,,,,,,,,,volume,77,94,silent,white,1026.0906977000413,None,None,1026.0906977000413,None,,,,,,,,,,,,,,,,,,,,,,,,,,,,,,80NB,001,2023_Aug_28_1651,ExactRep-v3-final,2021.2.3,59.96386577856653,
,,,,,,,,94,0,94,0,,,,,,,,,,,,,,,,,,,,,,,,,,,,,,,,,,,,,,,,,,,,,,,,,,,,,1030.5932403000188,None,,,,,,,,,,,,,,,,,,,,,,,,,,,,,,,,,,,woods,25,95,sing,blue,1028.5931926000048,None,None,1028.5931926000048,None,,,,,,,,,,,,,,,,,,,,,,,,,,,,,,80NB,001,2023_Aug_28_1651,ExactRep-v3-final,2021.2.3,59.96386577856653,
,,,,,,,,95,0,95,0,,,,,,,,,,,,,,,,,,,,,,,,,,,,,,,,,,,,,,,,,,,,,,,,,,,,,1033.095633000019,None,,,,,,,,,,,,,,,,,,,,,,,,,,,,,,,,,,,ocean,71,96,silent,white,1031.095849400037,None,None,1031.095849400037,None,,,,,,,,,,,,,,,,,,,,,,,,,,,,,,80NB,001,2023_Aug_28_1651,ExactRep-v3-final,2021.2.3,59.96386577856653,
,,,,,,,,96,0,96,0,,,,,,,,,,,,,,,,,,,,,,,,,,,,,,,,,,,,,,,,,,,,,,,,,,,,,1035.6151160000009,None,,,,,,,,,,,,,,,,,,,,,,,,,,,,,,,,,,,square,107,97,aloud,red,1033.60100710002,None,None,1033.60100710002,None,,,,,,,,,,,,,,,,,,,,,,,,,,,,,,80NB,001,2023_Aug_28_1651,ExactRep-v3-final,2021.2.3,59.96386577856653,
,,,,,,,,97,0,97,0,,,,,,,,,,,,,,,,,,,,,,,,,,,,,,,,,,,,,,,,,,,,,,,,,,,,,1038.1174335000105,None,,,,,,,,,,,,,,,,,,,,,,,,,,,,,,,,,,,ticket,41,98,silent,white,1036.1153807000373,None,None,1036.1153807000373,None,,,,,,,,,,,,,,,,,,,,,,,,,,,,,,80NB,001,2023_Aug_28_1651,ExactRep-v3-final,2021.2.3,59.96386577856653,
,,,,,,,,98,0,98,0,,,,,,,,,,,,,,,,,,,,,,,,,,,,,,,,,,,,,,,,,,,,,,,,,,,,,1040.6366616000305,None,,,,,,,,,,,,,,,,,,,,,,,,,,,,,,,,,,,beast,87,99,aloud,red,1038.6210528000374,None,None,1038.6210528000374,None,,,,,,,,,,,,,,,,,,,,,,,,,,,,,,80NB,001,2023_Aug_28_1651,ExactRep-v3-final,2021.2.3,59.96386577856653,
,,,,,,,,99,0,99,0,,,,,,,,,,,,,,,,,,,,,,,,,,,,,,,,,,,,,,,,,,,,,,,,,,,,,1043.139245200029,None,,,,,,,,,,,,,,,,,,,,,,,,,,,,,,,,,,,meat,24,100,sing,blue,1041.1402491999906,None,None,1041.1402491999906,None,,,,,,,,,,,,,,,,,,,,,,,,,,,,,,80NB,001,2023_Aug_28_1651,ExactRep-v3-final,2021.2.3,59.96386577856653,
,,,,,,,,100,0,100,0,,,,,,,,,,,,,,,,,,,,,,,,,,,,,,,,,,,,,,,,,,,,,,,,,,,,,1045.6580975000397,None,,,,,,,,,,,,,,,,,,,,,,,,,,,,,,,,,,,month,86,101,aloud,red,1043.6433254000149,None,None,1043.6433254000149,None,,,,,,,,,,,,,,,,,,,,,,,,,,,,,,80NB,001,2023_Aug_28_1651,ExactRep-v3-final,2021.2.3,59.96386577856653,
,,,,,,,,101,0,101,0,,,,,,,,,,,,,,,,,,,,,,,,,,,,,,,,,,,,,,,,,,,,,,,,,,,,,1048.1777883000323,None,,,,,,,,,,,,,,,,,,,,,,,,,,,,,,,,,,,child,35,102,sing,blue,1046.1693524000002,None,None,1046.1693524000002,None,,,,,,,,,,,,,,,,,,,,,,,,,,,,,,80NB,001,2023_Aug_28_1651,ExactRep-v3-final,2021.2.3,59.96386577856653,
,,,,,,,,102,0,102,0,,,,,,,,,,,,,,,,,,,,,,,,,,,,,,,,,,,,,,,,,,,,,,,,,,,,,1050.6800518000382,None,,,,,,,,,,,,,,,,,,,,,,,,,,,,,,,,,,,teacher,16,103,sing,blue,1048.6784886000096,None,None,1048.6784886000096,None,,,,,,,,,,,,,,,,,,,,,,,,,,,,,,80NB,001,2023_Aug_28_1651,ExactRep-v3-final,2021.2.3,59.96386577856653,
,,,,,,,,103,0,103,0,,,,,,,,,,,,,,,,,,,,,,,,,,,,,,,,,,,,,,,,,,,,,,,,,,,,,1053.1990817000042,None,,,,,,,,,,,,,,,,,,,,,,,,,,,,,,,,,,,mercy,111,104,aloud,red,1051.185142100032,None,None,1051.185142100032,None,,,,,,,,,,,,,,,,,,,,,,,,,,,,,,80NB,001,2023_Aug_28_1651,ExactRep-v3-final,2021.2.3,59.96386577856653,
,,,,,,,,104,0,104,0,,,,,,,,,,,,,,,,,,,,,,,,,,,,,,,,,,,,,,,,,,,,,,,,,,,,,1055.7016578000039,None,,,,,,,,,,,,,,,,,,,,,,,,,,,,,,,,,,,table,8,105,sing,blue,1053.6994798000087,None,None,1053.6994798000087,None,,,,,,,,,,,,,,,,,,,,,,,,,,,,,,80NB,001,2023_Aug_28_1651,ExactRep-v3-final,2021.2.3,59.96386577856653,
,,,,,,,,105,0,105,0,,,,,,,,,,,,,,,,,,,,,,,,,,,,,,,,,,,,,,,,,,,,,,,,,,,,,1058.2041390000377,None,,,,,,,,,,,,,,,,,,,,,,,,,,,,,,,,,,,hide,43,106,silent,white,1056.20224459999,None,None,1056.20224459999,None,,,,,,,,,,,,,,,,,,,,,,,,,,,,,,80NB,001,2023_Aug_28_1651,ExactRep-v3-final,2021.2.3,59.96386577856653,
,,,,,,,,106,0,106,0,,,,,,,,,,,,,,,,,,,,,,,,,,,,,,,,,,,,,,,,,,,,,,,,,,,,,1060.7100486000418,None,,,,,,,,,,,,,,,,,,,,,,,,,,,,,,,,,,,murder,92,107,aloud,red,1058.7053983000224,None,None,1058.7053983000224,None,,,,,,,,,,,,,,,,,,,,,,,,,,,,,,80NB,001,2023_Aug_28_1651,ExactRep-v3-final,2021.2.3,59.96386577856653,
,,,,,,,,107,0,107,0,,,,,,,,,,,,,,,,,,,,,,,,,,,,,,,,,,,,,,,,,,,,,,,,,,,,,1063.2256100000232,None,,,,,,,,,,,,,,,,,,,,,,,,,,,,,,,,,,,sky,64,108,silent,white,1061.223998600035,None,None,1061.223998600035,None,,,,,,,,,,,,,,,,,,,,,,,,,,,,,,80NB,001,2023_Aug_28_1651,ExactRep-v3-final,2021.2.3,59.96386577856653,
,,,,,,,,108,0,108,0,,,,,,,,,,,,,,,,,,,,,,,,,,,,,,,,,,,,,,,,,,,,,,,,,,,,,1065.728486600041,None,,,,,,,,,,,,,,,,,,,,,,,,,,,,,,,,,,,disease,91,109,aloud,red,1063.7268209000467,None,None,1063.7268209000467,None,,,,,,,,,,,,,,,,,,,,,,,,,,,,,,80NB,001,2023_Aug_28_1651,ExactRep-v3-final,2021.2.3,59.96386577856653,
,,,,,,,,109,0,109,0,,,,,,,,,,,,,,,,,,,,,,,,,,,,,,,,,,,,,,,,,,,,,,,,,,,,,1068.2473320999998,None,,,,,,,,,,,,,,,,,,,,,,,,,,,,,,,,,,,river,6,110,sing,blue,1066.2336647000047,None,None,1066.2336647000047,None,,,,,,,,,,,,,,,,,,,,,,,,,,,,,,80NB,001,2023_Aug_28_1651,ExactRep-v3-final,2021.2.3,59.96386577856653,
,,,,,,,,110,0,110,0,,,,,,,,,,,,,,,,,,,,,,,,,,,,,,,,,,,,,,,,,,,,,,,,,,,,,1070.750248700031,None,,,,,,,,,,,,,,,,,,,,,,,,,,,,,,,,,,,flesh,114,111,aloud,red,1068.7479033000418,None,None,1068.7479033000418,None,,,,,,,,,,,,,,,,,,,,,,,,,,,,,,80NB,001,2023_Aug_28_1651,ExactRep-v3-final,2021.2.3,59.96386577856653,
,,,,,,,,111,0,111,0,,,,,,,,,,,,,,,,,,,,,,,,,,,,,,,,,,,,,,,,,,,,,,,,,,,,,1073.2693080000463,None,,,,,,,,,,,,,,,,,,,,,,,,,,,,,,,,,,,effort,67,112,silent,white,1071.2540157000185,None,None,1071.2540157000185,None,,,,,,,,,,,,,,,,,,,,,,,,,,,,,,80NB,001,2023_Aug_28_1651,ExactRep-v3-final,2021.2.3,59.96386577856653,
,,,,,,,,112,0,112,0,,,,,,,,,,,,,,,,,,,,,,,,,,,,,,,,,,,,,,,,,,,,,,,,,,,,,1075.7718082999927,None,,,,,,,,,,,,,,,,,,,,,,,,,,,,,,,,,,,tool,117,113,aloud,red,1073.7718631000025,None,None,1073.7718631000025,None,,,,,,,,,,,,,,,,,,,,,,,,,,,,,,80NB,001,2023_Aug_28_1651,ExactRep-v3-final,2021.2.3,59.96386577856653,
,,,,,,,,113,0,113,0,,,,,,,,,,,,,,,,,,,,,,,,,,,,,,,,,,,,,,,,,,,,,,,,,,,,,1078.2907618000172,None,,,,,,,,,,,,,,,,,,,,,,,,,,,,,,,,,,,doctor,36,114,sing,blue,1076.276232800039,None,None,1076.276232800039,None,,,,,,,,,,,,,,,,,,,,,,,,,,,,,,80NB,001,2023_Aug_28_1651,ExactRep-v3-final,2021.2.3,59.96386577856653,
,,,,,,,,114,0,114,0,,,,,,,,,,,,,,,,,,,,,,,,,,,,,,,,,,,,,,,,,,,,,,,,,,,,,1080.7934816000052,None,,,,,,,,,,,,,,,,,,,,,,,,,,,,,,,,,,,brain,17,115,sing,blue,1078.7937744000228,None,None,1078.7937744000228,None,,,,,,,,,,,,,,,,,,,,,,,,,,,,,,80NB,001,2023_Aug_28_1651,ExactRep-v3-final,2021.2.3,59.96386577856653,
,,,,,,,,115,0,115,0,,,,,,,,,,,,,,,,,,,,,,,,,,,,,,,,,,,,,,,,,,,,,,,,,,,,,1083.3123722000164,None,,,,,,,,,,,,,,,,,,,,,,,,,,,,,,,,,,,present,115,116,aloud,red,1081.2978389000054,None,None,1081.2978389000054,None,,,,,,,,,,,,,,,,,,,,,,,,,,,,,,80NB,001,2023_Aug_28_1651,ExactRep-v3-final,2021.2.3,59.96386577856653,
,,,,,,,,116,0,116,0,,,,,,,,,,,,,,,,,,,,,,,,,,,,,,,,,,,,,,,,,,,,,,,,,,,,,1085.815246400016,None,,,,,,,,,,,,,,,,,,,,,,,,,,,,,,,,,,,palace,65,117,silent,white,1083.8128111000406,None,None,1083.8128111000406,None,,,,,,,,,,,,,,,,,,,,,,,,,,,,,,80NB,001,2023_Aug_28_1651,ExactRep-v3-final,2021.2.3,59.96386577856653,
,,,,,,,,117,0,117,0,,,,,,,,,,,,,,,,,,,,,,,,,,,,,,,,,,,,,,,,,,,,,,,,,,,,,1088.334354199993,None,,,,,,,,,,,,,,,,,,,,,,,,,,,,,,,,,,,wine,21,118,sing,blue,1086.3226876000408,None,None,1086.3226876000408,None,,,,,,,,,,,,,,,,,,,,,,,,,,,,,,80NB,001,2023_Aug_28_1651,ExactRep-v3-final,2021.2.3,59.96386577856653,
,,,,,,,,118,0,118,0,,,,,,,,,,,,,,,,,,,,,,,,,,,,,,,,,,,,,,,,,,,,,,,,,,,,,1090.8366589000216,None,,,,,,,,,,,,,,,,,,,,,,,,,,,,,,,,,,,speech,113,119,aloud,red,1088.8373531000107,None,None,1088.8373531000107,None,,,,,,,,,,,,,,,,,,,,,,,,,,,,,,80NB,001,2023_Aug_28_1651,ExactRep-v3-final,2021.2.3,59.96386577856653,
,,,,,,,,119,0,119,0,,,,,,,,,,,,,,,,,,,,,,,,,,,,,,,,,,,,,,,,,,,,,,,,,,,,,1093.3390463000396,None,,,,,,,,,,,,,,,,,,,,,,,,,,,,,,,,,,,college,98,120,aloud,red,1091.3371647000313,None,None,1091.3371647000313,None,,,,,,,,,,,,,,,,,,,,,,,,,,,,,,80NB,001,2023_Aug_28_1651,ExactRep-v3-final,2021.2.3,59.96386577856653,
,,,,,,,,,,,,,,,,,,,,,,,,,,,,,,,,,,,,,,,,,,,,,,,,,,,,,,,,,,,,,,,,,,,,,,,,,,,,,,,,,,,,,,,,,,,,,,,,,,,,,,,,,,,,,,1093.8396465000114,None,space,1.1698201000108384,1103.8173535999958,None,,,,,,,,,,,,,,,,,,,,,,,,80NB,001,2023_Aug_28_1651,ExactRep-v3-final,2021.2.3,59.96386577856653,
,,,,,,,,,,,,,,,,,,,,,,,,,,,,,,,,,,,,,,,,,,,,,,,,,,,,,,,,,,,,,,,,,,,,,,,,,,,,,,,,,,,,,,,,,,,,,,,,,,,,,,,,,,,,,,,,,,,,1105.0189473000355,None,space,25.48785139998654,1114.9951944000204,None,,,,,,,,,,,,,,,,,,80NB,001,2023_Aug_28_1651,ExactRep-v3-final,2021.2.3,59.96386577856653,
,,,,,,,,,,,,0,0,0,0,,,,,,,,,,,,,,,,,,,,,,,,,,,,,,,,,,,,,,,,,,,,,,,,,1148.979697200004,None,,,,,,,,,,,,,,,,,,,,,,,,,,,,,,,,,,,,,,,,,,,,,,,,,,,,,,,,,vision,4,1,sing,old,yellow,1141.013648000022,None,y,1141.013648000022,None,"['y', 'return']","[2.3170665000216104, 7.9170256000361405]",1141.013648000022,None,,,80NB,001,2023_Aug_28_1651,ExactRep-v3-final,2021.2.3,59.96386577856653,
,,,,,,,,,,,,1,0,1,0,,,,,,,,,,,,,,,,,,,,,,,,,,,,,,,,,,,,,,,,,,,,,,,,,1161.6087476999965,None,,,,,,,,,,,,,,,,,,,,,,,,,,,,,,,,,,,,,,,,,,,,,,,,,,,,,,,,,mind,214,2,aloud,new,yellow,1149.5107935999986,None,y,1149.5107935999986,None,"['y', 'return']","[10.867816300014965, 12.059840900008567]",1149.5107935999986,None,,,80NB,001,2023_Aug_28_1651,ExactRep-v3-final,2021.2.3,59.96386577856653,
,,,,,,,,,,,,2,0,2,0,,,,,,,,,,,,,,,,,,,,,,,,,,,,,,,,,,,,,,,,,,,,,,,,,1164.4789844999905,None,,,,,,,,,,,,,,,,,,,,,,,,,,,,,,,,,,,,,,,,,,,,,,,,,,,,,,,,,glory,33,3,sing,old,yellow,1162.1167480000295,None,n,1162.1167480000295,None,"['n', 'return']","[1.5019054999575019, 2.318226000003051]",1162.1167480000295,None,,,80NB,001,2023_Aug_28_1651,ExactRep-v3-final,2021.2.3,59.96386577856653,
,,,,,,,,,,,,3,0,3,0,,,,,,,,,,,,,,,,,,,,,,,,,,,,,,,,,,,,,,,,,,,,,,,,,1167.514544500038,None,,,,,,,,,,,,,,,,,,,,,,,,,,,,,,,,,,,,,,,,,,,,,,,,,,,,,,,,,health,13,4,sing,old,yellow,1164.9952699000132,None,n,1164.9952699000132,None,"['n', 'return']","[1.5034932999988087, 2.4794780999654904]",1164.9952699000132,None,,,80NB,001,2023_Aug_28_1651,ExactRep-v3-final,2021.2.3,59.96386577856653,
,,,,,,,,,,,,4,0,4,0,,,,,,,,,,,,,,,,,,,,,,,,,,,,,,,,,,,,,,,,,,,,,,,,,1170.185734700004,None,,,,,,,,,,,,,,,,,,,,,,,,,,,,,,,,,,,,,,,,,,,,,,,,,,,,,,,,,amount,106,5,aloud,old,yellow,1168.0156301000388,None,n,1168.0156301000388,None,"['n', 'return']","[1.3790198999922723, 2.1314289000001736]",1168.0156301000388,None,,,80NB,001,2023_Aug_28_1651,ExactRep-v3-final,2021.2.3,59.96386577856653,
,,,,,,,,,,,,5,0,5,0,,,,,,,,,,,,,,,,,,,,,,,,,,,,,,,,,,,,,,,,,,,,,,,,,1173.0034051000257,None,,,,,,,,,,,,,,,,,,,,,,,,,,,,,,,,,,,,,,,,,,,,,,,,,,,,,,,,,sky,64,6,silent,old,yellow,1170.7105928999954,None,n,1170.7105928999954,None,"['n', 'return']","[1.6600773999816738, 2.2520889000152238]",1170.7105928999954,None,,,80NB,001,2023_Aug_28_1651,ExactRep-v3-final,2021.2.3,59.96386577856653,
,,,,,,,,,,,,6,0,6,0,,,,,,,,,,,,,,,,,,,,,,,,,,,,,,,,,,,,,,,,,,,,,,,,,1175.443158900016,None,,,,,,,,,,,,,,,,,,,,,,,,,,,,,,,,,,,,,,,,,,,,,,,,,,,,,,,,,avenue,47,7,silent,old,yellow,1173.5238956999965,None,n,1173.5238956999965,None,"['n', 'return']","[1.502699600008782, 1.8706955999950878]",1173.5238956999965,None,,,80NB,001,2023_Aug_28_1651,ExactRep-v3-final,2021.2.3,59.96386577856653,
,,,,,,,,,,,,7,0,7,0,,,,,,,,,,,,,,,,,,,,,,,,,,,,,,,,,,,,,,,,,,,,,,,,,1178.2590036000474,None,,,,,,,,,,,,,,,,,,,,,,,,,,,,,,,,,,,,,,,,,,,,,,,,,,,,,,,,,coffee,206,8,aloud,new,yellow,1175.9676827000221,None,n,1175.9676827000221,None,"['n', 'return']","[1.8429366000345908, 2.242886600026395]",1175.9676827000221,None,,,80NB,001,2023_Aug_28_1651,ExactRep-v3-final,2021.2.3,59.96386577856653,
,,,,,,,,,,,,8,0,8,0,,,,,,,,,,,,,,,,,,,,,,,,,,,,,,,,,,,,,,,,,,,,,,,,,1180.2941170000122,None,,,,,,,,,,,,,,,,,,,,,,,,,,,,,,,,,,,,,,,,,,,,,,,,,,,,,,,,,market,73,9,silent,old,yellow,1178.7669938000035,None,y,1178.7669938000035,None,"['y', 'return']","[1.140060400008224, 1.49195170000894]",1178.7669938000035,None,,,80NB,001,2023_Aug_28_1651,ExactRep-v3-final,2021.2.3,59.96386577856653,
,,,,,,,,,,,,9,0,9,0,,,,,,,,,,,,,,,,,,,,,,,,,,,,,,,,,,,,,,,,,,,,,,,,,1182.1780100000324,None,,,,,,,,,,,,,,,,,,,,,,,,,,,,,,,,,,,,,,,,,,,,,,,,,,,,,,,,,money,54,10,silent,old,yellow,1180.8113881000318,None,y,1180.8113881000318,None,"['y', 'return']","[0.8475404999917373, 1.3192755000200123]",1180.8113881000318,None,,,80NB,001,2023_Aug_28_1651,ExactRep-v3-final,2021.2.3,59.96386577856653,
,,,,,,,,,,,,10,0,10,0,,,,,,,,,,,,,,,,,,,,,,,,,,,,,,,,,,,,,,,,,,,,,,,,,1184.1480302000418,None,,,,,,,,,,,,,,,,,,,,,,,,,,,,,,,,,,,,,,,,,,,,,,,,,,,,,,,,,bowl,224,11,aloud,new,yellow,1182.6833521000226,None,n,1182.6833521000226,None,"['n', 'return']","[1.039413400052581, 1.4313491000211798]",1182.6833521000226,None,,,80NB,001,2023_Aug_28_1651,ExactRep-v3-final,2021.2.3,59.96386577856653,
,,,,,,,,,,,,11,0,11,0,,,,,,,,,,,,,,,,,,,,,,,,,,,,,,,,,,,,,,,,,,,,,,,,,1186.467016700015,None,,,,,,,,,,,,,,,,,,,,,,,,,,,,,,,,,,,,,,,,,,,,,,,,,,,,,,,,,shame,202,12,aloud,new,yellow,1184.6655948000262,None,n,1184.6655948000262,None,"['n', 'return']","[1.3130385000258684, 1.7531047000084072]",1184.6655948000262,None,,,80NB,001,2023_Aug_28_1651,ExactRep-v3-final,2021.2.3,59.96386577856653,
,,,,,,,,,,,,12,0,12,0,,,,,,,,,,,,,,,,,,,,,,,,,,,,,,,,,,,,,,,,,,,,,,,,,1188.5188500999939,None,,,,,,,,,,,,,,,,,,,,,,,,,,,,,,,,,,,,,,,,,,,,,,,,,,,,,,,,,sea,127,13,silent,new,yellow,1186.9831832000054,None,n,1186.9831832000054,None,"['n', 'return']","[1.075504899956286, 1.491429599991534]",1186.9831832000054,None,,,80NB,001,2023_Aug_28_1651,ExactRep-v3-final,2021.2.3,59.96386577856653,
,,,,,,,,,,,,13,0,13,0,,,,,,,,,,,,,,,,,,,,,,,,,,,,,,,,,,,,,,,,,,,,,,,,,1190.6377615000238,None,,,,,,,,,,,,,,,,,,,,,,,,,,,,,,,,,,,,,,,,,,,,,,,,,,,,,,,,,hour,187,14,sing,new,yellow,1189.019391400041,None,n,1189.019391400041,None,"['n', 'return']","[1.1672936999821104, 1.5753277000039816]",1189.019391400041,None,,,80NB,001,2023_Aug_28_1651,ExactRep-v3-final,2021.2.3,59.96386577856653,
,,,,,,,,,,,,14,0,14,0,,,,,,,,,,,,,,,,,,,,,,,,,,,,,,,,,,,,,,,,,,,,,,,,,1192.4727876000106,None,,,,,,,,,,,,,,,,,,,,,,,,,,,,,,,,,,,,,,,,,,,,,,,,,,,,,,,,,garden,15,15,sing,old,yellow,1191.155162900046,None,y,1191.155162900046,None,"['y', 'return']","[0.7036021999665536, 1.2794969999813475]",1191.155162900046,None,,,80NB,001,2023_Aug_28_1651,ExactRep-v3-final,2021.2.3,59.96386577856653,
,,,,,,,,,,,,15,0,15,0,,,,,,,,,,,,,,,,,,,,,,,,,,,,,,,,,,,,,,,,,,,,,,,,,1194.2080828000326,None,,,,,,,,,,,,,,,,,,,,,,,,,,,,,,,,,,,,,,,,,,,,,,,,,,,,,,,,,flesh,114,16,aloud,old,yellow,1192.9738471000455,None,y,1192.9738471000455,None,"['y', 'return']","[0.7728628999902867, 1.1888057999894954]",1192.9738471000455,None,,,80NB,001,2023_Aug_28_1651,ExactRep-v3-final,2021.2.3,59.96386577856653,
,,,,,,,,,,,,16,0,16,0,,,,,,,,,,,,,,,,,,,,,,,,,,,,,,,,,,,,,,,,,,,,,,,,,1196.1100387000479,None,,,,,,,,,,,,,,,,,,,,,,,,,,,,,,,,,,,,,,,,,,,,,,,,,,,,,,,,,meat,24,17,sing,old,yellow,1194.7245240000193,None,y,1194.7245240000193,None,"['y', 'return']","[0.8942434000200592, 1.3503540999954566]",1194.7245240000193,None,,,80NB,001,2023_Aug_28_1651,ExactRep-v3-final,2021.2.3,59.96386577856653,
,,,,,,,,,,,,17,0,17,0,,,,,,,,,,,,,,,,,,,,,,,,,,,,,,,,,,,,,,,,,,,,,,,,,1198.045259400038,None,,,,,,,,,,,,,,,,,,,,,,,,,,,,,,,,,,,,,,,,,,,,,,,,,,,,,,,,,girl,172,18,aloud,new,yellow,1196.616889099998,None,n,1196.616889099998,None,"['n', 'return']","[1.0097856000065804, 1.385869099991396]",1196.616889099998,None,,,80NB,001,2023_Aug_28_1651,ExactRep-v3-final,2021.2.3,59.96386577856653,
,,,,,,,,,,,,18,0,18,0,,,,,,,,,,,,,,,,,,,,,,,,,,,,,,,,,,,,,,,,,,,,,,,,,1200.6815608000034,None,,,,,,,,,,,,,,,,,,,,,,,,,,,,,,,,,,,,,,,,,,,,,,,,,,,,,,,,,sugar,144,19,silent,new,yellow,1198.5745775999967,None,n,1198.5745775999967,None,"['n', 'return']","[1.6363343000411987, 2.0681054000160657]",1198.5745775999967,None,,,80NB,001,2023_Aug_28_1651,ExactRep-v3-final,2021.2.3,59.96386577856653,
,,,,,,,,,,,,19,0,19,0,,,,,,,,,,,,,,,,,,,,,,,,,,,,,,,,,,,,,,,,,,,,,,,,,1202.4150953000062,None,,,,,,,,,,,,,,,,,,,,,,,,,,,,,,,,,,,,,,,,,,,,,,,,,,,,,,,,,speech,113,20,aloud,old,yellow,1201.2036369999987,None,y,1201.2036369999987,None,"['y', 'return']","[0.7190348000149243, 1.1669043999863788]",1201.2036369999987,None,,,80NB,001,2023_Aug_28_1651,ExactRep-v3-final,2021.2.3,59.96386577856653,
,,,,,,,,,,,,20,0,20,0,,,,,,,,,,,,,,,,,,,,,,,,,,,,,,,,,,,,,,,,,,,,,,,,,1204.551630300004,None,,,,,,,,,,,,,,,,,,,,,,,,,,,,,,,,,,,,,,,,,,,,,,,,,,,,,,,,,army,220,21,aloud,new,yellow,1202.9335690000444,None,n,1202.9335690000444,None,"['n', 'return']","[1.1410950000281446, 1.573056599998381]",1202.9335690000444,None,,,80NB,001,2023_Aug_28_1651,ExactRep-v3-final,2021.2.3,59.96386577856653,
,,,,,,,,,,,,21,0,21,0,,,,,,,,,,,,,,,,,,,,,,,,,,,,,,,,,,,,,,,,,,,,,,,,,1206.3201346000424,None,,,,,,,,,,,,,,,,,,,,,,,,,,,,,,,,,,,,,,,,,,,,,,,,,,,,,,,,,woman,184,22,aloud,new,yellow,1205.0525578000234,None,y,1205.0525578000234,None,"['y', 'return']","[0.7821724000386894, 1.2220580999855883]",1205.0525578000234,None,,,80NB,001,2023_Aug_28_1651,ExactRep-v3-final,2021.2.3,59.96386577856653,
,,,,,,,,,,,,22,0,22,0,,,,,,,,,,,,,,,,,,,,,,,,,,,,,,,,,,,,,,,,,,,,,,,,,1208.4045794000267,None,,,,,,,,,,,,,,,,,,,,,,,,,,,,,,,,,,,,,,,,,,,,,,,,,,,,,,,,,hide,43,23,silent,old,yellow,1206.828509700019,None,n,1206.828509700019,None,"['n', 'return']","[0.9181868999730796, 1.5421865999815054]",1206.828509700019,None,,,80NB,001,2023_Aug_28_1651,ExactRep-v3-final,2021.2.3,59.96386577856653,
,,,,,,,,,,,,23,0,23,0,,,,,,,,,,,,,,,,,,,,,,,,,,,,,,,,,,,,,,,,,,,,,,,,,1211.0589539000066,None,,,,,,,,,,,,,,,,,,,,,,,,,,,,,,,,,,,,,,,,,,,,,,,,,,,,,,,,,prison,75,24,silent,old,yellow,1208.9065744000254,None,n,1208.9065744000254,None,"['n', 'return']","[1.4642852999968454, 2.1121250999858603]",1208.9065744000254,None,,,80NB,001,2023_Aug_28_1651,ExactRep-v3-final,2021.2.3,59.96386577856653,
,,,,,,,,,,,,24,0,24,0,,,,,,,,,,,,,,,,,,,,,,,,,,,,,,,,,,,,,,,,,,,,,,,,,1213.1438361000037,None,,,,,,,,,,,,,,,,,,,,,,,,,,,,,,,,,,,,,,,,,,,,,,,,,,,,,,,,,tool,117,25,aloud,old,yellow,1211.5749632000225,None,y,1211.5749632000225,None,"['y', 'return']","[0.8837072000023909, 1.5238236000295728]",1211.5749632000225,None,,,80NB,001,2023_Aug_28_1651,ExactRep-v3-final,2021.2.3,59.96386577856653,
,,,,,,,,,,,,25,0,25,0,,,,,,,,,,,,,,,,,,,,,,,,,,,,,,,,,,,,,,,,,,,,,,,,,1215.5292702000006,None,,,,,,,,,,,,,,,,,,,,,,,,,,,,,,,,,,,,,,,,,,,,,,,,,,,,,,,,,picture,147,26,silent,new,yellow,1213.6603295000386,None,y,1213.6603295000386,None,"['y', 'return']","[1.4463185999775305, 1.8303756999666803]",1213.6603295000386,None,,,80NB,001,2023_Aug_28_1651,ExactRep-v3-final,2021.2.3,59.96386577856653,
,,,,,,,,,,,,26,0,26,0,,,,,,,,,,,,,,,,,,,,,,,,,,,,,,,,,,,,,,,,,,,,,,,,,1217.8488977000234,None,,,,,,,,,,,,,,,,,,,,,,,,,,,,,,,,,,,,,,,,,,,,,,,,,,,,,,,,,vessel,56,27,silent,old,yellow,1216.0416235000012,None,n,1216.0416235000012,None,"['n', 'return']","[1.248991800006479, 1.7609642999595962]",1216.0416235000012,None,,,80NB,001,2023_Aug_28_1651,ExactRep-v3-final,2021.2.3,59.96386577856653,
,,,,,,,,,,,,27,0,27,0,,,,,,,,,,,,,,,,,,,,,,,,,,,,,,,,,,,,,,,,,,,,,,,,,1219.9859822000144,None,,,,,,,,,,,,,,,,,,,,,,,,,,,,,,,,,,,,,,,,,,,,,,,,,,,,,,,,,rod,239,28,sing,new,yellow,1218.3648069000337,None,n,1218.3648069000337,None,"['n', 'return']","[1.0299103999859653, 1.5737903999979608]",1218.3648069000337,None,,,80NB,001,2023_Aug_28_1651,ExactRep-v3-final,2021.2.3,59.96386577856653,
,,,,,,,,,,,,28,0,28,0,,,,,,,,,,,,,,,,,,,,,,,,,,,,,,,,,,,,,,,,,,,,,,,,,1222.1690019000089,None,,,,,,,,,,,,,,,,,,,,,,,,,,,,,,,,,,,,,,,,,,,,,,,,,,,,,,,,,earth,124,29,silent,new,yellow,1220.508333900012,None,n,1220.508333900012,None,"['n', 'return']","[1.0863998999702744, 1.6142922999570146]",1220.508333900012,None,,,80NB,001,2023_Aug_28_1651,ExactRep-v3-final,2021.2.3,59.96386577856653,
,,,,,,,,,,,,29,0,29,0,,,,,,,,,,,,,,,,,,,,,,,,,,,,,,,,,,,,,,,,,,,,,,,,,1224.2880900000455,None,,,,,,,,,,,,,,,,,,,,,,,,,,,,,,,,,,,,,,,,,,,,,,,,,,,,,,,,,virtue,55,30,silent,old,yellow,1222.671093400044,None,n,1222.671093400044,None,"['n', 'return']","[1.091703600017354, 1.5715430999989621]",1222.671093400044,None,,,80NB,001,2023_Aug_28_1651,ExactRep-v3-final,2021.2.3,59.96386577856653,
,,,,,,,,,,,,30,0,30,0,,,,,,,,,,,,,,,,,,,,,,,,,,,,,,,,,,,,,,,,,,,,,,,,,1226.0797804000322,None,,,,,,,,,,,,,,,,,,,,,,,,,,,,,,,,,,,,,,,,,,,,,,,,,,,,,,,,,insect,39,31,silent,old,yellow,1224.7965263000224,None,y,1224.7965263000224,None,"['y', 'return']","[0.7582840000395663, 1.2300442000268959]",1224.7965263000224,None,,,80NB,001,2023_Aug_28_1651,ExactRep-v3-final,2021.2.3,59.96386577856653,
,,,,,,,,,,,,31,0,31,0,,,,,,,,,,,,,,,,,,,,,,,,,,,,,,,,,,,,,,,,,,,,,,,,,1229.1266229000175,None,,,,,,,,,,,,,,,,,,,,,,,,,,,,,,,,,,,,,,,,,,,,,,,,,,,,,,,,,car,183,32,sing,new,yellow,1226.5922010000213,None,y,1226.5922010000213,None,"['y', 'return']","[1.5783901999820955, 2.4905267999856733]",1226.5922010000213,None,,,80NB,001,2023_Aug_28_1651,ExactRep-v3-final,2021.2.3,59.96386577856653,
,,,,,,,,,,,,32,0,32,0,,,,,,,,,,,,,,,,,,,,,,,,,,,,,,,,,,,,,,,,,,,,,,,,,1231.778712600004,None,,,,,,,,,,,,,,,,,,,,,,,,,,,,,,,,,,,,,,,,,,,,,,,,,,,,,,,,,storm,222,33,aloud,new,yellow,1229.6564868999994,None,n,1229.6564868999994,None,"['n', 'return']","[1.554036699992139, 2.082149699970614]",1229.6564868999994,None,,,80NB,001,2023_Aug_28_1651,ExactRep-v3-final,2021.2.3,59.96386577856653,
,,,,,,,,,,,,33,0,33,0,,,,,,,,,,,,,,,,,,,,,,,,,,,,,,,,,,,,,,,,,,,,,,,,,1235.0654115999932,None,,,,,,,,,,,,,,,,,,,,,,,,,,,,,,,,,,,,,,,,,,,,,,,,,,,,,,,,,dollar,179,34,sing,new,yellow,1232.2829666000325,None,n,1232.2829666000325,None,"['n', 'return']","[1.7516077000182122, 2.7436937000020407]",1232.2829666000325,None,,,80NB,001,2023_Aug_28_1651,ExactRep-v3-final,2021.2.3,59.96386577856653,
,,,,,,,,,,,,34,0,34,0,,,,,,,,,,,,,,,,,,,,,,,,,,,,,,,,,,,,,,,,,,,,,,,,,1237.4177030000137,None,,,,,,,,,,,,,,,,,,,,,,,,,,,,,,,,,,,,,,,,,,,,,,,,,,,,,,,,,fur,101,35,aloud,old,yellow,1235.5663995000068,None,y,1235.5663995000068,None,"['y', 'return']","[1.284326000022702, 1.8042619000189006]",1235.5663995000068,None,,,80NB,001,2023_Aug_28_1651,ExactRep-v3-final,2021.2.3,59.96386577856653,
,,,,,,,,,,,,35,0,35,0,,,,,,,,,,,,,,,,,,,,,,,,,,,,,,,,,,,,,,,,,,,,,,,,,1240.1700167999952,None,,,,,,,,,,,,,,,,,,,,,,,,,,,,,,,,,,,,,,,,,,,,,,,,,,,,,,,,,master,108,36,aloud,old,yellow,1237.9186940999934,None,y,1237.9186940999934,None,"['y', 'return']","[1.4279498999821953, 2.2121149000013247]",1237.9186940999934,None,,,80NB,001,2023_Aug_28_1651,ExactRep-v3-final,2021.2.3,59.96386577856653,
,,,,,,,,,,,,36,0,36,0,,,,,,,,,,,,,,,,,,,,,,,,,,,,,,,,,,,,,,,,,,,,,,,,,1242.839978700038,None,,,,,,,,,,,,,,,,,,,,,,,,,,,,,,,,,,,,,,,,,,,,,,,,,,,,,,,,,shore,2,37,sing,old,yellow,1240.676919599995,None,y,1240.676919599995,None,"['y', 'return']","[1.5339742000214756, 2.1261086000013165]",1240.676919599995,None,,,80NB,001,2023_Aug_28_1651,ExactRep-v3-final,2021.2.3,59.96386577856653,
,,,,,,,,,,,,37,0,37,0,,,,,,,,,,,,,,,,,,,,,,,,,,,,,,,,,,,,,,,,,,,,,,,,,1244.8417476000031,None,,,,,,,,,,,,,,,,,,,,,,,,,,,,,,,,,,,,,,,,,,,,,,,,,,,,,,,,,house,131,38,silent,new,yellow,1243.370861500036,None,n,1243.370861500036,None,"['n', 'return']","[0.8876998000196181, 1.4318070000153966]",1243.370861500036,None,,,80NB,001,2023_Aug_28_1651,ExactRep-v3-final,2021.2.3,59.96386577856653,
,,,,,,,,,,,,38,0,38,0,,,,,,,,,,,,,,,,,,,,,,,,,,,,,,,,,,,,,,,,,,,,,,,,,1247.0606513000093,None,,,,,,,,,,,,,,,,,,,,,,,,,,,,,,,,,,,,,,,,,,,,,,,,,,,,,,,,,lake,175,39,sing,new,yellow,1245.342842300015,None,n,1245.342842300015,None,"['n', 'return']","[1.107846500002779, 1.6837591000366956]",1245.342842300015,None,,,80NB,001,2023_Aug_28_1651,ExactRep-v3-final,2021.2.3,59.96386577856653,
,,,,,,,,,,,,39,0,39,0,,,,,,,,,,,,,,,,,,,,,,,,,,,,,,,,,,,,,,,,,,,,,,,,,1249.2966290999902,None,,,,,,,,,,,,,,,,,,,,,,,,,,,,,,,,,,,,,,,,,,,,,,,,,,,,,,,,,window,85,40,aloud,old,yellow,1247.5748470000108,None,y,1247.5748470000108,None,"['y', 'return']","[1.2198905000113882, 1.6837502000271343]",1247.5748470000108,None,,,80NB,001,2023_Aug_28_1651,ExactRep-v3-final,2021.2.3,59.96386577856653,
,,,,,,,,,,,,40,0,40,0,,,,,,,,,,,,,,,,,,,,,,,,,,,,,,,,,,,,,,,,,,,,,,,,,1251.5319905999932,None,,,,,,,,,,,,,,,,,,,,,,,,,,,,,,,,,,,,,,,,,,,,,,,,,,,,,,,,,metal,194,41,aloud,new,yellow,1249.7983893000055,None,n,1249.7983893000055,None,"['n', 'return']","[1.2602533000172116, 1.7002508000005037]",1249.7983893000055,None,,,80NB,001,2023_Aug_28_1651,ExactRep-v3-final,2021.2.3,59.96386577856653,
,,,,,,,,,,,,41,0,41,0,,,,,,,,,,,,,,,,,,,,,,,,,,,,,,,,,,,,,,,,,,,,,,,,,1254.5850482000387,None,,,,,,,,,,,,,,,,,,,,,,,,,,,,,,,,,,,,,,,,,,,,,,,,,,,,,,,,,queen,193,42,sing,new,yellow,1252.056953100022,None,n,1252.056953100022,None,"['n', 'return']","[1.441904400009662, 2.4817022000206634]",1252.056953100022,None,,,80NB,001,2023_Aug_28_1651,ExactRep-v3-final,2021.2.3,59.96386577856653,
,,,,,,,,,,,,42,0,42,0,,,,,,,,,,,,,,,,,,,,,,,,,,,,,,,,,,,,,,,,,,,,,,,,,1256.7208648000378,None,,,,,,,,,,,,,,,,,,,,,,,,,,,,,,,,,,,,,,,,,,,,,,,,,,,,,,,,,theory,190,43,aloud,new,yellow,1255.1019519999973,None,n,1255.1019519999973,None,"['n', 'return']","[0.9566766999778338, 1.572671799978707]",1255.1019519999973,None,,,80NB,001,2023_Aug_28_1651,ExactRep-v3-final,2021.2.3,59.96386577856653,
,,,,,,,,,,,,43,0,43,0,,,,,,,,,,,,,,,,,,,,,,,,,,,,,,,,,,,,,,,,,,,,,,,,,1258.5058081000461,None,,,,,,,,,,,,,,,,,,,,,,,,,,,,,,,,,,,,,,,,,,,,,,,,,,,,,,,,,world,51,44,silent,old,yellow,1257.2375813000253,None,y,1257.2375813000253,None,"['y', 'return']","[0.8050145999877714, 1.2291707000113092]",1257.2375813000253,None,,,80NB,001,2023_Aug_28_1651,ExactRep-v3-final,2021.2.3,59.96386577856653,
,,,,,,,,,,,,44,0,44,0,,,,,,,,,,,,,,,,,,,,,,,,,,,,,,,,,,,,,,,,,,,,,,,,,1260.8754901000066,None,,,,,,,,,,,,,,,,,,,,,,,,,,,,,,,,,,,,,,,,,,,,,,,,,,,,,,,,,ocean,71,45,silent,old,yellow,1259.022750300006,None,n,1259.022750300006,None,"['n', 'return']","[1.323855399969034, 1.8039797999663278]",1259.022750300006,None,,,80NB,001,2023_Aug_28_1651,ExactRep-v3-final,2021.2.3,59.96386577856653,
,,,,,,,,,,,,45,0,45,0,,,,,,,,,,,,,,,,,,,,,,,,,,,,,,,,,,,,,,,,,,,,,,,,,1262.8600488000084,None,,,,,,,,,,,,,,,,,,,,,,,,,,,,,,,,,,,,,,,,,,,,,,,,,,,,,,,,,spirit,176,46,aloud,new,yellow,1261.3905712999986,None,n,1261.3905712999986,None,"['n', 'return']","[0.9882384999655187, 1.4361132999765687]",1261.3905712999986,None,,,80NB,001,2023_Aug_28_1651,ExactRep-v3-final,2021.2.3,59.96386577856653,
,,,,,,,,,,,,46,0,46,0,,,,,,,,,,,,,,,,,,,,,,,,,,,,,,,,,,,,,,,,,,,,,,,,,1265.7800989000243,None,,,,,,,,,,,,,,,,,,,,,,,,,,,,,,,,,,,,,,,,,,,,,,,,,,,,,,,,,friend,146,47,silent,new,yellow,1263.3692444000044,None,y,1263.3692444000044,None,"['y', 'return']","[2.0013772000093013, 2.3614621000015177]",1263.3692444000044,None,,,80NB,001,2023_Aug_28_1651,ExactRep-v3-final,2021.2.3,59.96386577856653,
,,,,,,,,,,,,47,0,47,0,,,,,,,,,,,,,,,,,,,,,,,,,,,,,,,,,,,,,,,,,,,,,,,,,1267.5480204999913,None,,,,,,,,,,,,,,,,,,,,,,,,,,,,,,,,,,,,,,,,,,,,,,,,,,,,,,,,,crime,169,48,sing,new,yellow,1266.2967991000041,None,n,1266.2967991000041,None,"['n', 'return']","[0.9538627999718301, 1.2018884999561124]",1266.2967991000041,None,,,80NB,001,2023_Aug_28_1651,ExactRep-v3-final,2021.2.3,59.96386577856653,
,,,,,,,,,,,,48,0,48,0,,,,,,,,,,,,,,,,,,,,,,,,,,,,,,,,,,,,,,,,,,,,,,,,,1269.6666893000365,None,,,,,,,,,,,,,,,,,,,,,,,,,,,,,,,,,,,,,,,,,,,,,,,,,,,,,,,,,breast,31,49,sing,old,yellow,1268.0591949000373,None,y,1268.0591949000373,None,"['y', 'return']","[1.1113633000059053, 1.5594609000254422]",1268.0591949000373,None,,,80NB,001,2023_Aug_28_1651,ExactRep-v3-final,2021.2.3,59.96386577856653,
,,,,,,,,,,,,49,0,49,0,,,,,,,,,,,,,,,,,,,,,,,,,,,,,,,,,,,,,,,,,,,,,,,,,1272.0026672999957,None,,,,,,,,,,,,,,,,,,,,,,,,,,,,,,,,,,,,,,,,,,,,,,,,,,,,,,,,,gold,132,50,silent,new,yellow,1270.184420900012,None,n,1270.184420900012,None,"['n', 'return']","[1.2261996999732219, 1.778253099997528]",1270.184420900012,None,,,80NB,001,2023_Aug_28_1651,ExactRep-v3-final,2021.2.3,59.96386577856653,
,,,,,,,,,,,,50,0,50,0,,,,,,,,,,,,,,,,,,,,,,,,,,,,,,,,,,,,,,,,,,,,,,,,,1275.5228093999904,None,,,,,,,,,,,,,,,,,,,,,,,,,,,,,,,,,,,,,,,,,,,,,,,,,,,,,,,,,factory,45,51,silent,old,yellow,1272.5199608000112,None,n,1272.5199608000112,None,"['n', 'return']","[2.3627089000074193, 2.9627141999662854]",1272.5199608000112,None,,,80NB,001,2023_Aug_28_1651,ExactRep-v3-final,2021.2.3,59.96386577856653,
,,,,,,,,,,,,51,0,51,0,,,,,,,,,,,,,,,,,,,,,,,,,,,,,,,,,,,,,,,,,,,,,,,,,1277.6080316000152,None,,,,,,,,,,,,,,,,,,,,,,,,,,,,,,,,,,,,,,,,,,,,,,,,,,,,,,,,,valley,121,52,silent,new,yellow,1276.0388165000477,None,n,1276.0388165000477,None,"['n', 'return']","[1.1639419000130147, 1.5238321999786422]",1276.0388165000477,None,,,80NB,001,2023_Aug_28_1651,ExactRep-v3-final,2021.2.3,59.96386577856653,
,,,,,,,,,,,,52,0,52,0,,,,,,,,,,,,,,,,,,,,,,,,,,,,,,,,,,,,,,,,,,,,,,,,,1280.4949577000225,None,,,,,,,,,,,,,,,,,,,,,,,,,,,,,,,,,,,,,,,,,,,,,,,,,,,,,,,,,paper,151,53,silent,new,yellow,1278.1377052000025,None,n,1278.1377052000025,None,"['n', 'return']","[1.9449246999574825, 2.3130842999671586]",1278.1377052000025,None,,,80NB,001,2023_Aug_28_1651,ExactRep-v3-final,2021.2.3,59.96386577856653,
,,,,,,,,,,,,53,0,53,0,,,,,,,,,,,,,,,,,,,,,,,,,,,,,,,,,,,,,,,,,,,,,,,,,1282.513032100047,None,,,,,,,,,,,,,,,,,,,,,,,,,,,,,,,,,,,,,,,,,,,,,,,,,,,,,,,,,cotton,205,54,sing,new,yellow,1281.011788600008,None,n,1281.011788600008,None,"['n', 'return']","[1.071025200013537, 1.4627822000184096]",1281.011788600008,None,,,80NB,001,2023_Aug_28_1651,ExactRep-v3-final,2021.2.3,59.96386577856653,
,,,,,,,,,,,,54,0,54,0,,,,,,,,,,,,,,,,,,,,,,,,,,,,,,,,,,,,,,,,,,,,,,,,,1285.299081700039,None,,,,,,,,,,,,,,,,,,,,,,,,,,,,,,,,,,,,,,,,,,,,,,,,,,,,,,,,,cost,72,55,silent,old,yellow,1283.0309233000153,None,y,1283.0309233000153,None,"['y', 'return']","[1.8757975000189617, 2.227749000012409]",1283.0309233000153,None,,,80NB,001,2023_Aug_28_1651,ExactRep-v3-final,2021.2.3,59.96386577856653,
,,,,,,,,,,,,55,0,55,0,,,,,,,,,,,,,,,,,,,,,,,,,,,,,,,,,,,,,,,,,,,,,,,,,1287.0160172000178,None,,,,,,,,,,,,,,,,,,,,,,,,,,,,,,,,,,,,,,,,,,,,,,,,,,,,,,,,,event,152,56,silent,new,yellow,1285.8165665999986,None,y,1285.8165665999986,None,"['y', 'return']","[0.7221052999957465, 1.1540267000091262]",1285.8165665999986,None,,,80NB,001,2023_Aug_28_1651,ExactRep-v3-final,2021.2.3,59.96386577856653,
,,,,,,,,,,,,56,0,56,0,,,,,,,,,,,,,,,,,,,,,,,,,,,,,,,,,,,,,,,,,,,,,,,,,1289.052952500002,None,,,,,,,,,,,,,,,,,,,,,,,,,,,,,,,,,,,,,,,,,,,,,,,,,,,,,,,,,flag,30,57,sing,old,yellow,1287.5320756,None,n,1287.5320756,None,"['n', 'return']","[1.1744689000188373, 1.4865373999928124]",1287.5320756,None,,,80NB,001,2023_Aug_28_1651,ExactRep-v3-final,2021.2.3,59.96386577856653,
,,,,,,,,,,,,57,0,57,0,,,,,,,,,,,,,,,,,,,,,,,,,,,,,,,,,,,,,,,,,,,,,,,,,1291.1545427000383,None,,,,,,,,,,,,,,,,,,,,,,,,,,,,,,,,,,,,,,,,,,,,,,,,,,,,,,,,,iron,211,58,sing,new,yellow,1289.5706012000446,None,n,1289.5706012000446,None,"['n', 'return']","[0.8805098999873735, 1.5360789999831468]",1289.5706012000446,None,,,80NB,001,2023_Aug_28_1651,ExactRep-v3-final,2021.2.3,59.96386577856653,
,,,,,,,,,,,,58,0,58,0,,,,,,,,,,,,,,,,,,,,,,,,,,,,,,,,,,,,,,,,,,,,,,,,,1293.1394030000083,None,,,,,,,,,,,,,,,,,,,,,,,,,,,,,,,,,,,,,,,,,,,,,,,,,,,,,,,,,humour,167,59,sing,new,yellow,1291.656046900025,None,n,1291.656046900025,None,"['n', 'return']","[0.986540200014133, 1.4426825999980792]",1291.656046900025,None,,,80NB,001,2023_Aug_28_1651,ExactRep-v3-final,2021.2.3,59.96386577856653,
,,,,,,,,,,,,59,0,59,0,,,,,,,,,,,,,,,,,,,,,,,,,,,,,,,,,,,,,,,,,,,,,,,,,1294.958002200001,None,,,,,,,,,,,,,,,,,,,,,,,,,,,,,,,,,,,,,,,,,,,,,,,,,,,,,,,,,chief,9,60,sing,old,yellow,1293.6508979999926,None,y,1293.6508979999926,None,"['y', 'return']","[0.8319486000109464, 1.2638095000293106]",1293.6508979999926,None,,,80NB,001,2023_Aug_28_1651,ExactRep-v3-final,2021.2.3,59.96386577856653,
,,,,,,,,,,,,60,0,60,0,,,,,,,,,,,,,,,,,,,,,,,,,,,,,,,,,,,,,,,,,,,,,,,,,1296.9437743000453,None,,,,,,,,,,,,,,,,,,,,,,,,,,,,,,,,,,,,,,,,,,,,,,,,,,,,,,,,,mercy,111,61,aloud,old,yellow,1295.4595471000066,None,y,1295.4595471000066,None,"['y', 'return']","[0.9590546000399627, 1.4474837000016123]",1295.4595471000066,None,,,80NB,001,2023_Aug_28_1651,ExactRep-v3-final,2021.2.3,59.96386577856653,
,,,,,,,,,,,,61,0,61,0,,,,,,,,,,,,,,,,,,,,,,,,,,,,,,,,,,,,,,,,,,,,,,,,,1298.7961092000478,None,,,,,,,,,,,,,,,,,,,,,,,,,,,,,,,,,,,,,,,,,,,,,,,,,,,,,,,,,body,5,62,sing,old,yellow,1297.4542625000468,None,y,1297.4542625000468,None,"['y', 'return']","[0.9243260000366718, 1.300327200035099]",1297.4542625000468,None,,,80NB,001,2023_Aug_28_1651,ExactRep-v3-final,2021.2.3,59.96386577856653,
,,,,,,,,,,,,62,0,62,0,,,,,,,,,,,,,,,,,,,,,,,,,,,,,,,,,,,,,,,,,,,,,,,,,1300.6810898000258,None,,,,,,,,,,,,,,,,,,,,,,,,,,,,,,,,,,,,,,,,,,,,,,,,,,,,,,,,,slave,237,63,sing,new,yellow,1299.3137547000078,None,n,1299.3137547000078,None,"['n', 'return']","[0.7608603999833576, 1.3208434999687597]",1299.3137547000078,None,,,80NB,001,2023_Aug_28_1651,ExactRep-v3-final,2021.2.3,59.96386577856653,
,,,,,,,,,,,,63,0,63,0,,,,,,,,,,,,,,,,,,,,,,,,,,,,,,,,,,,,,,,,,,,,,,,,,1302.8994865000132,None,,,,,,,,,,,,,,,,,,,,,,,,,,,,,,,,,,,,,,,,,,,,,,,,,,,,,,,,,letter,78,64,silent,old,yellow,1301.1943327999907,None,y,1301.1943327999907,None,"['y', 'return']","[1.2562694000080228, 1.6563079000334255]",1301.1943327999907,None,,,80NB,001,2023_Aug_28_1651,ExactRep-v3-final,2021.2.3,59.96386577856653,
,,,,,,,,,,,,64,0,64,0,,,,,,,,,,,,,,,,,,,,,,,,,,,,,,,,,,,,,,,,,,,,,,,,,1304.8187340000295,None,,,,,,,,,,,,,,,,,,,,,,,,,,,,,,,,,,,,,,,,,,,,,,,,,,,,,,,,,forest,122,65,silent,new,yellow,1303.4096879000426,None,n,1303.4096879000426,None,"['n', 'return']","[0.9449249999597669, 1.3689789999625646]",1303.4096879000426,None,,,80NB,001,2023_Aug_28_1651,ExactRep-v3-final,2021.2.3,59.96386577856653,
,,,,,,,,,,,,65,0,65,0,,,,,,,,,,,,,,,,,,,,,,,,,,,,,,,,,,,,,,,,,,,,,,,,,1307.0540810000384,None,,,,,,,,,,,,,,,,,,,,,,,,,,,,,,,,,,,,,,,,,,,,,,,,,,,,,,,,,custom,227,66,sing,new,yellow,1305.320282200002,None,n,1305.320282200002,None,"['n', 'return']","[1.1542807000223547, 1.6903959000483155]",1305.320282200002,None,,,80NB,001,2023_Aug_28_1651,ExactRep-v3-final,2021.2.3,59.96386577856653,
,,,,,,,,,,,,66,0,66,0,,,,,,,,,,,,,,,,,,,,,,,,,,,,,,,,,,,,,,,,,,,,,,,,,1308.9725376000279,None,,,,,,,,,,,,,,,,,,,,,,,,,,,,,,,,,,,,,,,,,,,,,,,,,,,,,,,,,animal,134,67,silent,new,yellow,1307.571804600011,None,y,1307.571804600011,None,"['y', 'return']","[0.9108118999865837, 1.3589144999859855]",1307.571804600011,None,,,80NB,001,2023_Aug_28_1651,ExactRep-v3-final,2021.2.3,59.96386577856653,
,,,,,,,,,,,,67,0,67,0,,,,,,,,,,,,,,,,,,,,,,,,,,,,,,,,,,,,,,,,,,,,,,,,,1310.8240718000452,None,,,,,,,,,,,,,,,,,,,,,,,,,,,,,,,,,,,,,,,,,,,,,,,,,,,,,,,,,grass,189,68,sing,new,yellow,1309.4739297000342,None,y,1309.4739297000342,None,"['y', 'return']","[0.7847862999769859, 1.3126401000190526]",1309.4739297000342,None,,,80NB,001,2023_Aug_28_1651,ExactRep-v3-final,2021.2.3,59.96386577856653,
,,,,,,,,,,,,68,0,68,0,,,,,,,,,,,,,,,,,,,,,,,,,,,,,,,,,,,,,,,,,,,,,,,,,1312.776359200012,None,,,,,,,,,,,,,,,,,,,,,,,,,,,,,,,,,,,,,,,,,,,,,,,,,,,,,,,,,length,161,69,sing,new,yellow,1311.3254605000257,None,y,1311.3254605000257,None,"['y', 'return']","[0.9812309999833815, 1.4051443000207655]",1311.3254605000257,None,,,80NB,001,2023_Aug_28_1651,ExactRep-v3-final,2021.2.3,59.96386577856653,
,,,,,,,,,,,,69,0,69,0,,,,,,,,,,,,,,,,,,,,,,,,,,,,,,,,,,,,,,,,,,,,,,,,,1314.7787164000329,None,,,,,,,,,,,,,,,,,,,,,,,,,,,,,,,,,,,,,,,,,,,,,,,,,,,,,,,,,flower,128,70,silent,new,yellow,1313.2770811000373,None,n,1313.2770811000373,None,"['n', 'return']","[0.9734867000370286, 1.4615634000510909]",1313.2770811000373,None,,,80NB,001,2023_Aug_28_1651,ExactRep-v3-final,2021.2.3,59.96386577856653,
,,,,,,,,,,,,70,0,70,0,,,,,,,,,,,,,,,,,,,,,,,,,,,,,,,,,,,,,,,,,,,,,,,,,1317.281072700047,None,,,,,,,,,,,,,,,,,,,,,,,,,,,,,,,,,,,,,,,,,,,,,,,,,,,,,,,,,corn,149,71,silent,new,yellow,1315.2943975999951,None,y,1315.2943975999951,None,"['y', 'return']","[1.4844433999969624, 1.9482532999827527]",1315.2943975999951,None,,,80NB,001,2023_Aug_28_1651,ExactRep-v3-final,2021.2.3,59.96386577856653,
,,,,,,,,,,,,71,0,71,0,,,,,,,,,,,,,,,,,,,,,,,,,,,,,,,,,,,,,,,,,,,,,,,,,1319.5499427000177,None,,,,,,,,,,,,,,,,,,,,,,,,,,,,,,,,,,,,,,,,,,,,,,,,,,,,,,,,,skin,160,72,aloud,new,yellow,1317.8005974999978,None,y,1317.8005974999978,None,"['y', 'return']","[1.2340238000033423, 1.7061697999597527]",1317.8005974999978,None,,,80NB,001,2023_Aug_28_1651,ExactRep-v3-final,2021.2.3,59.96386577856653,
,,,,,,,,,,,,72,0,72,0,,,,,,,,,,,,,,,,,,,,,,,,,,,,,,,,,,,,,,,,,,,,,,,,,1321.6197430000175,None,,,,,,,,,,,,,,,,,,,,,,,,,,,,,,,,,,,,,,,,,,,,,,,,,,,,,,,,,fortune,84,73,aloud,old,yellow,1320.066001500003,None,y,1320.066001500003,None,"['y', 'return']","[1.0966199999675155, 1.5127251999801956]",1320.066001500003,None,,,80NB,001,2023_Aug_28_1651,ExactRep-v3-final,2021.2.3,59.96386577856653,
,,,,,,,,,,,,73,0,73,0,,,,,,,,,,,,,,,,,,,,,,,,,,,,,,,,,,,,,,,,,,,,,,,,,1327.1409858000115,None,,,,,,,,,,,,,,,,,,,,,,,,,,,,,,,,,,,,,,,,,,,,,,,,,,,,,,,,,winter,234,74,aloud,new,yellow,1322.1465676000225,None,n,1322.1465676000225,None,"['y', 'backspace', 'n', 'return']","[1.0320366999949329, 3.568169599981047, 4.000055600015912, 4.952084599994123]",1322.1465676000225,None,,,80NB,001,2023_Aug_28_1651,ExactRep-v3-final,2021.2.3,59.96386577856653,
,,,,,,,,,,,,74,0,74,0,,,,,,,,,,,,,,,,,,,,,,,,,,,,,,,,,,,,,,,,,,,,,,,,,1330.143732400029,None,,,,,,,,,,,,,,,,,,,,,,,,,,,,,,,,,,,,,,,,,,,,,,,,,,,,,,,,,street,95,75,aloud,old,yellow,1327.6495159000042,None,y,1327.6495159000042,None,"['y', 'return']","[1.7211304000229575, 2.4491018999833614]",1327.6495159000042,None,,,80NB,001,2023_Aug_28_1651,ExactRep-v3-final,2021.2.3,59.96386577856653,
,,,,,,,,,,,,75,0,75,0,,,,,,,,,,,,,,,,,,,,,,,,,,,,,,,,,,,,,,,,,,,,,,,,,1332.9467916000285,None,,,,,,,,,,,,,,,,,,,,,,,,,,,,,,,,,,,,,,,,,,,,,,,,,,,,,,,,,pipe,32,76,sing,old,yellow,1330.6522625000216,None,n,1330.6522625000216,None,"['n', 'return']","[1.8064907000516541, 2.2543371000210755]",1330.6522625000216,None,,,80NB,001,2023_Aug_28_1651,ExactRep-v3-final,2021.2.3,59.96386577856653,
,,,,,,,,,,,,76,0,76,0,,,,,,,,,,,,,,,,,,,,,,,,,,,,,,,,,,,,,,,,,,,,,,,,,1335.349051200028,None,,,,,,,,,,,,,,,,,,,,,,,,,,,,,,,,,,,,,,,,,,,,,,,,,,,,,,,,,salary,90,77,aloud,old,yellow,1333.4669376999955,None,n,1333.4669376999955,None,"['n', 'return']","[1.4397320999996737, 1.839713399996981]",1333.4669376999955,None,,,80NB,001,2023_Aug_28_1651,ExactRep-v3-final,2021.2.3,59.96386577856653,
,,,,,,,,,,,,77,0,77,0,,,,,,,,,,,,,,,,,,,,,,,,,,,,,,,,,,,,,,,,,,,,,,,,,1338.2685625000158,None,,,,,,,,,,,,,,,,,,,,,,,,,,,,,,,,,,,,,,,,,,,,,,,,,,,,,,,,,water,44,78,silent,old,yellow,1335.8586424000096,None,y,1335.8586424000096,None,"['y', 'return']","[1.936045299982652, 2.3681095999781974]",1335.8586424000096,None,,,80NB,001,2023_Aug_28_1651,ExactRep-v3-final,2021.2.3,59.96386577856653,
,,,,,,,,,,,,78,0,78,0,,,,,,,,,,,,,,,,,,,,,,,,,,,,,,,,,,,,,,,,,,,,,,,,,1340.1702741000336,None,,,,,,,,,,,,,,,,,,,,,,,,,,,,,,,,,,,,,,,,,,,,,,,,,,,,,,,,,horse,178,79,aloud,new,yellow,1338.7729532000376,None,n,1338.7729532000376,None,"['n', 'return']","[0.9577260999940336, 1.349687999987509]",1338.7729532000376,None,,,80NB,001,2023_Aug_28_1651,ExactRep-v3-final,2021.2.3,59.96386577856653,
,,,,,,,,,,,,79,0,79,0,,,,,,,,,,,,,,,,,,,,,,,,,,,,,,,,,,,,,,,,,,,,,,,,,1342.3225807000417,None,,,,,,,,,,,,,,,,,,,,,,,,,,,,,,,,,,,,,,,,,,,,,,,,,,,,,,,,,victory,192,80,aloud,new,yellow,1340.67344470002,None,n,1340.67344470002,None,"['n', 'return']","[1.1851707000168972, 1.6091737000388093]",1340.67344470002,None,,,80NB,001,2023_Aug_28_1651,ExactRep-v3-final,2021.2.3,59.96386577856653,
,,,,,,,,,,,,80,0,80,0,,,,,,,,,,,,,,,,,,,,,,,,,,,,,,,,,,,,,,,,,,,,,,,,,1344.4747610000195,None,,,,,,,,,,,,,,,,,,,,,,,,,,,,,,,,,,,,,,,,,,,,,,,,,,,,,,,,,chance,142,81,silent,new,yellow,1342.8392754000379,None,n,1342.8392754000379,None,"['n', 'return']","[1.1316190999932587, 1.5874313000240363]",1342.8392754000379,None,,,80NB,001,2023_Aug_28_1651,ExactRep-v3-final,2021.2.3,59.96386577856653,
,,,,,,,,,,,,81,0,81,0,,,,,,,,,,,,,,,,,,,,,,,,,,,,,,,,,,,,,,,,,,,,,,,,,1347.6619141999981,None,,,,,,,,,,,,,,,,,,,,,,,,,,,,,,,,,,,,,,,,,,,,,,,,,,,,,,,,,advice,182,82,aloud,new,yellow,1344.9858406000421,None,y,1344.9858406000421,None,"['y', 'return']","[0.7127163999830373, 2.6408502999693155]",1344.9858406000421,None,,,80NB,001,2023_Aug_28_1651,ExactRep-v3-final,2021.2.3,59.96386577856653,
,,,,,,,,,,,,82,0,82,0,,,,,,,,,,,,,,,,,,,,,,,,,,,,,,,,,,,,,,,,,,,,,,,,,1349.7303915999946,None,,,,,,,,,,,,,,,,,,,,,,,,,,,,,,,,,,,,,,,,,,,,,,,,,,,,,,,,,journal,42,83,silent,old,yellow,1348.1791797000333,None,n,1348.1791797000333,None,"['n', 'return']","[1.1514154000324197, 1.5035176000092179]",1348.1791797000333,None,,,80NB,001,2023_Aug_28_1651,ExactRep-v3-final,2021.2.3,59.96386577856653,
,,,,,,,,,,,,83,0,83,0,,,,,,,,,,,,,,,,,,,,,,,,,,,,,,,,,,,,,,,,,,,,,,,,,1351.9325111000217,None,,,,,,,,,,,,,,,,,,,,,,,,,,,,,,,,,,,,,,,,,,,,,,,,,,,,,,,,,troops,34,84,sing,old,yellow,1350.2480107000447,None,n,1350.2480107000447,None,"['n', 'return']","[1.186623600020539, 1.6506337000173517]",1350.2480107000447,None,,,80NB,001,2023_Aug_28_1651,ExactRep-v3-final,2021.2.3,59.96386577856653,
,,,,,,,,,,,,84,0,84,0,,,,,,,,,,,,,,,,,,,,,,,,,,,,,,,,,,,,,,,,,,,,,,,,,1354.0175948000397,None,,,,,,,,,,,,,,,,,,,,,,,,,,,,,,,,,,,,,,,,,,,,,,,,,,,,,,,,,disease,91,85,aloud,old,yellow,1352.4483469999977,None,y,1352.4483469999977,None,"['y', 'return']","[1.098864900006447, 1.5302614999818616]",1352.4483469999977,None,,,80NB,001,2023_Aug_28_1651,ExactRep-v3-final,2021.2.3,59.96386577856653,
,,,,,,,,,,,,85,0,85,0,,,,,,,,,,,,,,,,,,,,,,,,,,,,,,,,,,,,,,,,,,,,,,,,,1356.8884537999984,None,,,,,,,,,,,,,,,,,,,,,,,,,,,,,,,,,,,,,,,,,,,,,,,,,,,,,,,,,palace,65,86,silent,old,yellow,1354.5346623000223,None,y,1354.5346623000223,None,"['return', 'y', 'return']","[1.2279688999988139, 1.8919899000320584, 2.3079790000338107]",1354.5346623000223,None,,,80NB,001,2023_Aug_28_1651,ExactRep-v3-final,2021.2.3,59.96386577856653,
,,,,,,,,,,,,86,0,86,0,,,,,,,,,,,,,,,,,,,,,,,,,,,,,,,,,,,,,,,,,,,,,,,,,1359.4730886000325,None,,,,,,,,,,,,,,,,,,,,,,,,,,,,,,,,,,,,,,,,,,,,,,,,,,,,,,,,,camp,118,87,aloud,old,yellow,1357.4047870000359,None,y,1357.4047870000359,None,"['return', 'y', 'return']","[0.9978073000092991, 1.5099077000049874, 2.029756299976725]",1357.4047870000359,None,,,80NB,001,2023_Aug_28_1651,ExactRep-v3-final,2021.2.3,59.96386577856653,
,,,,,,,,,,,,87,0,87,0,,,,,,,,,,,,,,,,,,,,,,,,,,,,,,,,,,,,,,,,,,,,,,,,,1362.6426447000122,None,,,,,,,,,,,,,,,,,,,,,,,,,,,,,,,,,,,,,,,,,,,,,,,,,,,,,,,,,plain,18,88,sing,old,yellow,1359.9986369000399,None,y,1359.9986369000399,None,"['y', 'return']","[2.22790229995735, 2.603979499952402]",1359.9986369000399,None,,,80NB,001,2023_Aug_28_1651,ExactRep-v3-final,2021.2.3,59.96386577856653,
,,,,,,,,,,,,88,0,88,0,,,,,,,,,,,,,,,,,,,,,,,,,,,,,,,,,,,,,,,,,,,,,,,,,1365.2134837000049,None,,,,,,,,,,,,,,,,,,,,,,,,,,,,,,,,,,,,,,,,,,,,,,,,,,,,,,,,,beast,87,89,aloud,old,yellow,1363.1473501000437,None,y,1363.1473501000437,None,"['y', 'return']","[1.6232890000101179, 2.015297500009183]",1363.1473501000437,None,,,80NB,001,2023_Aug_28_1651,ExactRep-v3-final,2021.2.3,59.96386577856653,
,,,,,,,,,,,,89,0,89,0,,,,,,,,,,,,,,,,,,,,,,,,,,,,,,,,,,,,,,,,,,,,,,,,,1367.2477883000392,None,,,,,,,,,,,,,,,,,,,,,,,,,,,,,,,,,,,,,,,,,,,,,,,,,,,,,,,,,pole,103,90,aloud,old,yellow,1365.7309305000235,None,y,1365.7309305000235,None,"['y', 'return']","[1.1036239000386558, 1.4798925000359304]",1365.7309305000235,None,,,80NB,001,2023_Aug_28_1651,ExactRep-v3-final,2021.2.3,59.96386577856653,
,,,,,,,,,,,,90,0,90,0,,,,,,,,,,,,,,,,,,,,,,,,,,,,,,,,,,,,,,,,,,,,,,,,,1369.1168782000314,None,,,,,,,,,,,,,,,,,,,,,,,,,,,,,,,,,,,,,,,,,,,,,,,,,,,,,,,,,air,70,91,silent,old,yellow,1367.763929400011,None,n,1367.763929400011,None,"['n', 'return']","[0.9506417000084184, 1.31071210000664]",1367.763929400011,None,,,80NB,001,2023_Aug_28_1651,ExactRep-v3-final,2021.2.3,59.96386577856653,
,,,,,,,,,,,,91,0,91,0,,,,,,,,,,,,,,,,,,,,,,,,,,,,,,,,,,,,,,,,,,,,,,,,,1371.2346596000134,None,,,,,,,,,,,,,,,,,,,,,,,,,,,,,,,,,,,,,,,,,,,,,,,,,,,,,,,,,effort,67,92,silent,old,yellow,1369.6336930000107,None,n,1369.6336930000107,None,"['n', 'return']","[1.2008005999960005, 1.5609304999816231]",1369.6336930000107,None,,,80NB,001,2023_Aug_28_1651,ExactRep-v3-final,2021.2.3,59.96386577856653,
,,,,,,,,,,,,92,0,92,0,,,,,,,,,,,,,,,,,,,,,,,,,,,,,,,,,,,,,,,,,,,,,,,,,1373.2031327000004,None,,,,,,,,,,,,,,,,,,,,,,,,,,,,,,,,,,,,,,,,,,,,,,,,,,,,,,,,,soul,150,93,silent,new,yellow,1371.7356220000074,None,n,1371.7356220000074,None,"['n', 'return']","[1.0430880000349134, 1.434971000009682]",1371.7356220000074,None,,,80NB,001,2023_Aug_28_1651,ExactRep-v3-final,2021.2.3,59.96386577856653,
,,,,,,,,,,,,93,0,93,0,,,,,,,,,,,,,,,,,,,,,,,,,,,,,,,,,,,,,,,,,,,,,,,,,1377.441420499992,None,,,,,,,,,,,,,,,,,,,,,,,,,,,,,,,,,,,,,,,,,,,,,,,,,,,,,,,,,board,79,94,sing,old,yellow,1373.7087904000073,None,n,1373.7087904000073,None,"['n', 'return']","[3.045964599994477, 3.685850100009702]",1373.7087904000073,None,,,80NB,001,2023_Aug_28_1651,ExactRep-v3-final,2021.2.3,59.96386577856653,
,,,,,,,,,,,,94,0,94,0,,,,,,,,,,,,,,,,,,,,,,,,,,,,,,,,,,,,,,,,,,,,,,,,,1380.360119400022,None,,,,,,,,,,,,,,,,,,,,,,,,,,,,,,,,,,,,,,,,,,,,,,,,,,,,,,,,,butter,223,95,sing,new,yellow,1377.9526617000229,None,y,1377.9526617000229,None,"['y', 'return']","[1.409911099995952, 2.361881200049538]",1377.9526617000229,None,,,80NB,001,2023_Aug_28_1651,ExactRep-v3-final,2021.2.3,59.96386577856653,
,,,,,,,,,,,,95,0,95,0,,,,,,,,,,,,,,,,,,,,,,,,,,,,,,,,,,,,,,,,,,,,,,,,,1382.9965616000118,None,,,,,,,,,,,,,,,,,,,,,,,,,,,,,,,,,,,,,,,,,,,,,,,,,,,,,,,,,church,129,96,silent,new,yellow,1380.8684555999935,None,n,1380.8684555999935,None,"['n', 'return']","[1.6461670999997295, 2.086144000000786]",1380.8684555999935,None,,,80NB,001,2023_Aug_28_1651,ExactRep-v3-final,2021.2.3,59.96386577856653,
,,,,,,,,,,,,96,0,96,0,,,,,,,,,,,,,,,,,,,,,,,,,,,,,,,,,,,,,,,,,,,,,,,,,1385.3322149000014,None,,,,,,,,,,,,,,,,,,,,,,,,,,,,,,,,,,,,,,,,,,,,,,,,,,,,,,,,,party,145,97,silent,new,yellow,1383.5053386000218,None,n,1383.5053386000218,None,"['n', 'return']","[1.2972778999828734, 1.777335499995388]",1383.5053386000218,None,,,80NB,001,2023_Aug_28_1651,ExactRep-v3-final,2021.2.3,59.96386577856653,
,,,,,,,,,,,,97,0,97,0,,,,,,,,,,,,,,,,,,,,,,,,,,,,,,,,,,,,,,,,,,,,,,,,,1387.4676452000276,None,,,,,,,,,,,,,,,,,,,,,,,,,,,,,,,,,,,,,,,,,,,,,,,,,,,,,,,,,tree,58,98,silent,old,yellow,1385.8378576000105,None,y,1385.8378576000105,None,"['y', 'return']","[1.1567394000012428, 1.5807494000182487]",1385.8378576000105,None,,,80NB,001,2023_Aug_28_1651,ExactRep-v3-final,2021.2.3,59.96386577856653,
,,,,,,,,,,,,98,0,98,0,,,,,,,,,,,,,,,,,,,,,,,,,,,,,,,,,,,,,,,,,,,,,,,,,1389.252717800031,None,,,,,,,,,,,,,,,,,,,,,,,,,,,,,,,,,,,,,,,,,,,,,,,,,,,,,,,,,cat,50,99,silent,old,yellow,1387.9716952000163,None,n,1387.9716952000163,None,"['n', 'return']","[0.8469209000468254, 1.2389799000229686]",1387.9716952000163,None,,,80NB,001,2023_Aug_28_1651,ExactRep-v3-final,2021.2.3,59.96386577856653,
,,,,,,,,,,,,99,0,99,0,,,,,,,,,,,,,,,,,,,,,,,,,,,,,,,,,,,,,,,,,,,,,,,,,1391.872630400001,None,,,,,,,,,,,,,,,,,,,,,,,,,,,,,,,,,,,,,,,,,,,,,,,,,,,,,,,,,time,7,100,sing,old,yellow,1389.7536156999995,None,n,1389.7536156999995,None,"['n', 'return']","[1.033123200002592, 2.072954999981448]",1389.7536156999995,None,,,80NB,001,2023_Aug_28_1651,ExactRep-v3-final,2021.2.3,59.96386577856653,
,,,,,,,,,,,,100,0,100,0,,,,,,,,,,,,,,,,,,,,,,,,,,,,,,,,,,,,,,,,,,,,,,,,,1393.6243051000056,None,,,,,,,,,,,,,,,,,,,,,,,,,,,,,,,,,,,,,,,,,,,,,,,,,,,,,,,,,machine,104,101,aloud,old,yellow,1392.3963875999907,None,n,1392.3963875999907,None,"['n', 'return']","[0.7904259000206366, 1.18213889998151]",1392.3963875999907,None,,,80NB,001,2023_Aug_28_1651,ExactRep-v3-final,2021.2.3,59.96386577856653,
,,,,,,,,,,,,101,0,101,0,,,,,,,,,,,,,,,,,,,,,,,,,,,,,,,,,,,,,,,,,,,,,,,,,1400.3137311000028,None,,,,,,,,,,,,,,,,,,,,,,,,,,,,,,,,,,,,,,,,,,,,,,,,,,,,,,,,,meeting,63,102,silent,old,yellow,1394.1493451000424,None,y,1394.1493451000424,None,"['n', 'backspace', 'y', 'return']","[0.9012449999572709, 3.733224599971436, 5.749293399974704, 6.125256399973296]",1394.1493451000424,None,,,80NB,001,2023_Aug_28_1651,ExactRep-v3-final,2021.2.3,59.96386577856653,
,,,,,,,,,,,,102,0,102,0,,,,,,,,,,,,,,,,,,,,,,,,,,,,,,,,,,,,,,,,,,,,,,,,,1403.2837247000425,None,,,,,,,,,,,,,,,,,,,,,,,,,,,,,,,,,,,,,,,,,,,,,,,,,,,,,,,,,justice,230,103,aloud,new,yellow,1400.8154716000427,None,n,1400.8154716000427,None,"['n', 'return']","[2.051117199996952, 2.419115199998487]",1400.8154716000427,None,,,80NB,001,2023_Aug_28_1651,ExactRep-v3-final,2021.2.3,59.96386577856653,
,,,,,,,,,,,,103,0,103,0,,,,,,,,,,,,,,,,,,,,,,,,,,,,,,,,,,,,,,,,,,,,,,,,,1405.954060500022,None,,,,,,,,,,,,,,,,,,,,,,,,,,,,,,,,,,,,,,,,,,,,,,,,,,,,,,,,,pupil,109,104,aloud,old,yellow,1403.7913532000384,None,n,1403.7913532000384,None,"['n', 'return']","[1.507440100016538, 2.1152372000506148]",1403.7913532000384,None,,,80NB,001,2023_Aug_28_1651,ExactRep-v3-final,2021.2.3,59.96386577856653,
,,,,,,,,,,,,104,0,104,0,,,,,,,,,,,,,,,,,,,,,,,,,,,,,,,,,,,,,,,,,,,,,,,,,1407.9882901000092,None,,,,,,,,,,,,,,,,,,,,,,,,,,,,,,,,,,,,,,,,,,,,,,,,,,,,,,,,,toy,148,105,silent,new,yellow,1406.4775557999965,None,n,1406.4775557999965,None,"['n', 'return']","[0.9889890000340529, 1.4770673000020906]",1406.4775557999965,None,,,80NB,001,2023_Aug_28_1651,ExactRep-v3-final,2021.2.3,59.96386577856653,
,,,,,,,,,,,,105,0,105,0,,,,,,,,,,,,,,,,,,,,,,,,,,,,,,,,,,,,,,,,,,,,,,,,,1411.3417309999932,None,,,,,,,,,,,,,,,,,,,,,,,,,,,,,,,,,,,,,,,,,,,,,,,,,,,,,,,,,cattle,126,106,silent,new,yellow,1408.5057500000112,None,y,1408.5057500000112,None,"['y', 'return']","[2.4807950999820605, 2.8008891999488696]",1408.5057500000112,None,,,80NB,001,2023_Aug_28_1651,ExactRep-v3-final,2021.2.3,59.96386577856653,
,,,,,,,,,,,,106,0,106,0,,,,,,,,,,,,,,,,,,,,,,,,,,,,,,,,,,,,,,,,,,,,,,,,,1413.178529100027,None,,,,,,,,,,,,,,,,,,,,,,,,,,,,,,,,,,,,,,,,,,,,,,,,,,,,,,,,,diamond,217,107,sing,new,yellow,1411.8668553000316,None,n,1411.8668553000316,None,"['n', 'return']","[0.7997506000101566, 1.2716162000433542]",1411.8668553000316,None,,,80NB,001,2023_Aug_28_1651,ExactRep-v3-final,2021.2.3,59.96386577856653,
,,,,,,,,,,,,107,0,107,0,,,,,,,,,,,,,,,,,,,,,,,,,,,,,,,,,,,,,,,,,,,,,,,,,1415.396018700034,None,,,,,,,,,,,,,,,,,,,,,,,,,,,,,,,,,,,,,,,,,,,,,,,,,,,,,,,,,fire,120,108,silent,new,yellow,1413.70697140001,None,n,1413.70697140001,None,"['n', 'return']","[1.151958599977661, 1.6476732000010088]",1413.70697140001,None,,,80NB,001,2023_Aug_28_1651,ExactRep-v3-final,2021.2.3,59.96386577856653,
,,,,,,,,,,,,108,0,108,0,,,,,,,,,,,,,,,,,,,,,,,,,,,,,,,,,,,,,,,,,,,,,,,,,1418.1316285000066,None,,,,,,,,,,,,,,,,,,,,,,,,,,,,,,,,,,,,,,,,,,,,,,,,,,,,,,,,,home,229,109,sing,new,yellow,1415.9211465000408,None,y,1415.9211465000408,None,"['y', 'return']","[1.7534124000230804, 2.1614120000158437]",1415.9211465000408,None,,,80NB,001,2023_Aug_28_1651,ExactRep-v3-final,2021.2.3,59.96386577856653,
,,,,,,,,,,,,109,0,109,0,,,,,,,,,,,,,,,,,,,,,,,,,,,,,,,,,,,,,,,,,,,,,,,,,1419.9577085000346,None,,,,,,,,,,,,,,,,,,,,,,,,,,,,,,,,,,,,,,,,,,,,,,,,,,,,,,,,,dream,80,110,aloud,old,yellow,1418.639547800005,None,n,1418.639547800005,None,"['n', 'return']","[0.7630934999906458, 1.2511222999892198]",1418.639547800005,None,,,80NB,001,2023_Aug_28_1651,ExactRep-v3-final,2021.2.3,59.96386577856653,
,,,,,,,,,,,,110,0,110,0,,,,,,,,,,,,,,,,,,,,,,,,,,,,,,,,,,,,,,,,,,,,,,,,,1421.8716108000372,None,,,,,,,,,,,,,,,,,,,,,,,,,,,,,,,,,,,,,,,,,,,,,,,,,,,,,,,,,lad,168,111,aloud,new,yellow,1420.4890094000148,None,n,1420.4890094000148,None,"['n', 'return']","[0.8896127000334673, 1.345552500046324]",1420.4890094000148,None,,,80NB,001,2023_Aug_28_1651,ExactRep-v3-final,2021.2.3,59.96386577856653,
,,,,,,,,,,,,111,0,111,0,,,,,,,,,,,,,,,,,,,,,,,,,,,,,,,,,,,,,,,,,,,,,,,,,1429.9937822000356,None,,,,,,,,,,,,,,,,,,,,,,,,,,,,,,,,,,,,,,,,,,,,,,,,,,,,,,,,,dust,76,112,silent,old,yellow,1422.3854531000252,None,y,1422.3854531000252,None,"['y', 'return']","[7.121119900024496, 7.569126699992921]",1422.3854531000252,None,,,80NB,001,2023_Aug_28_1651,ExactRep-v3-final,2021.2.3,59.96386577856653,
,,,,,,,,,,,,112,0,112,0,,,,,,,,,,,,,,,,,,,,,,,,,,,,,,,,,,,,,,,,,,,,,,,,,1432.0126516000018,None,,,,,,,,,,,,,,,,,,,,,,,,,,,,,,,,,,,,,,,,,,,,,,,,,,,,,,,,,cabin,48,113,silent,old,yellow,1430.5207984000444,None,y,1430.5207984000444,None,"['y', 'return']","[0.9617311000474729, 1.4419015000457875]",1430.5207984000444,None,,,80NB,001,2023_Aug_28_1651,ExactRep-v3-final,2021.2.3,59.96386577856653,
,,,,,,,,,,,,113,0,113,0,,,,,,,,,,,,,,,,,,,,,,,,,,,,,,,,,,,,,,,,,,,,,,,,,1434.1646853000275,None,,,,,,,,,,,,,,,,,,,,,,,,,,,,,,,,,,,,,,,,,,,,,,,,,,,,,,,,,star,66,114,silent,old,yellow,1432.5430918000056,None,n,1432.5430918000056,None,"['n', 'return']","[1.219592500012368, 1.579594900016673]",1432.5430918000056,None,,,80NB,001,2023_Aug_28_1651,ExactRep-v3-final,2021.2.3,59.96386577856653,
,,,,,,,,,,,,114,0,114,0,,,,,,,,,,,,,,,,,,,,,,,,,,,,,,,,,,,,,,,,,,,,,,,,,1437.701584400027,None,,,,,,,,,,,,,,,,,,,,,,,,,,,,,,,,,,,,,,,,,,,,,,,,,,,,,,,,,book,226,115,aloud,new,yellow,1434.6858614000375,None,y,1434.6858614000375,None,"['y', 'return']","[2.692785700026434, 2.9807702000252903]",1434.6858614000375,None,,,80NB,001,2023_Aug_28_1651,ExactRep-v3-final,2021.2.3,59.96386577856653,
,,,,,,,,,,,,115,0,115,0,,,,,,,,,,,,,,,,,,,,,,,,,,,,,,,,,,,,,,,,,,,,,,,,,1439.4366044999915,None,,,,,,,,,,,,,,,,,,,,,,,,,,,,,,,,,,,,,,,,,,,,,,,,,,,,,,,,,apple,119,116,aloud,old,yellow,1438.2187952999957,None,n,1438.2187952999957,None,"['n', 'return']","[0.791790499992203, 1.1837918999954127]",1438.2187952999957,None,,,80NB,001,2023_Aug_28_1651,ExactRep-v3-final,2021.2.3,59.96386577856653,
,,,,,,,,,,,,116,0,116,0,,,,,,,,,,,,,,,,,,,,,,,,,,,,,,,,,,,,,,,,,,,,,,,,,1441.6387385000126,None,,,,,,,,,,,,,,,,,,,,,,,,,,,,,,,,,,,,,,,,,,,,,,,,,,,,,,,,,doll,162,117,aloud,new,yellow,1439.9535791000235,None,n,1439.9535791000235,None,"['n', 'return']","[1.0812004000181332, 1.641029599995818]",1439.9535791000235,None,,,80NB,001,2023_Aug_28_1651,ExactRep-v3-final,2021.2.3,59.96386577856653,
,,,,,,,,,,,,117,0,117,0,,,,,,,,,,,,,,,,,,,,,,,,,,,,,,,,,,,,,,,,,,,,,,,,,1443.39017530001,None,,,,,,,,,,,,,,,,,,,,,,,,,,,,,,,,,,,,,,,,,,,,,,,,,,,,,,,,,law,198,118,aloud,new,yellow,1442.1464604000212,None,n,1442.1464604000212,None,"['n', 'return']","[0.752138499985449, 1.2083487999625504]",1442.1464604000212,None,,,80NB,001,2023_Aug_28_1651,ExactRep-v3-final,2021.2.3,59.96386577856653,
,,,,,,,,,,,,118,0,118,0,,,,,,,,,,,,,,,,,,,,,,,,,,,,,,,,,,,,,,,,,,,,,,,,,1445.3757562999963,None,,,,,,,,,,,,,,,,,,,,,,,,,,,,,,,,,,,,,,,,,,,,,,,,,,,,,,,,,poet,165,119,sing,new,yellow,1443.9004172999994,None,n,1443.9004172999994,None,"['n', 'return']","[1.0462170000537299, 1.4302776000113226]",1443.9004172999994,None,,,80NB,001,2023_Aug_28_1651,ExactRep-v3-final,2021.2.3,59.96386577856653,
,,,,,,,,,,,,119,0,119,0,,,,,,,,,,,,,,,,,,,,,,,,,,,,,,,,,,,,,,,,,,,,,,,,,1447.1275712000206,None,,,,,,,,,,,,,,,,,,,,,,,,,,,,,,,,,,,,,,,,,,,,,,,,,,,,,,,,,devil,199,120,sing,new,yellow,1445.8815099000349,None,n,1445.8815099000349,None,"['n', 'return']","[0.8011744000250474, 1.2093294000369497]",1445.8815099000349,None,,,80NB,001,2023_Aug_28_1651,ExactRep-v3-final,2021.2.3,59.96386577856653,
,,,,,,,,,,,,120,0,120,0,,,,,,,,,,,,,,,,,,,,,,,,,,,,,,,,,,,,,,,,,,,,,,,,,1448.995911200007,None,,,,,,,,,,,,,,,,,,,,,,,,,,,,,,,,,,,,,,,,,,,,,,,,,,,,,,,,,boulder,112,121,aloud,old,yellow,1447.6447705000173,None,y,1447.6447705000173,None,"['y', 'return']","[0.8938893000013195, 1.3097787000006065]",1447.6447705000173,None,,,80NB,001,2023_Aug_28_1651,ExactRep-v3-final,2021.2.3,59.96386577856653,
,,,,,,,,,,,,121,0,121,0,,,,,,,,,,,,,,,,,,,,,,,,,,,,,,,,,,,,,,,,,,,,,,,,,1450.9315067999996,None,,,,,,,,,,,,,,,,,,,,,,,,,,,,,,,,,,,,,,,,,,,,,,,,,,,,,,,,,colony,29,122,sing,old,yellow,1449.5256211000378,None,y,1449.5256211000378,None,"['y', 'return']","[0.9810053000110202, 1.3572534999693744]",1449.5256211000378,None,,,80NB,001,2023_Aug_28_1651,ExactRep-v3-final,2021.2.3,59.96386577856653,
,,,,,,,,,,,,122,0,122,0,,,,,,,,,,,,,,,,,,,,,,,,,,,,,,,,,,,,,,,,,,,,,,,,,1452.6499712000368,None,,,,,,,,,,,,,,,,,,,,,,,,,,,,,,,,,,,,,,,,,,,,,,,,,,,,,,,,,pride,28,123,sing,old,yellow,1451.4486081000068,None,y,1451.4486081000068,None,"['y', 'return']","[0.8019860999775119, 1.162059299997054]",1451.4486081000068,None,,,80NB,001,2023_Aug_28_1651,ExactRep-v3-final,2021.2.3,59.96386577856653,
,,,,,,,,,,,,123,0,123,0,,,,,,,,,,,,,,,,,,,,,,,,,,,,,,,,,,,,,,,,,,,,,,,,,1454.518086199998,None,,,,,,,,,,,,,,,,,,,,,,,,,,,,,,,,,,,,,,,,,,,,,,,,,,,,,,,,,moment,228,124,aloud,new,yellow,1453.1661797999986,None,n,1453.1661797999986,None,"['n', 'return']","[0.8843554999912158, 1.3084548999904655]",1453.1661797999986,None,,,80NB,001,2023_Aug_28_1651,ExactRep-v3-final,2021.2.3,59.96386577856653,
,,,,,,,,,,,,124,0,124,0,,,,,,,,,,,,,,,,,,,,,,,,,,,,,,,,,,,,,,,,,,,,,,,,,1457.187294800009,None,,,,,,,,,,,,,,,,,,,,,,,,,,,,,,,,,,,,,,,,,,,,,,,,,,,,,,,,,teacher,16,125,sing,old,yellow,1455.0197820000467,None,y,1455.0197820000467,None,"['y', 'return']","[1.7347806000034325, 2.118839200004004]",1455.0197820000467,None,,,80NB,001,2023_Aug_28_1651,ExactRep-v3-final,2021.2.3,59.96386577856653,
,,,,,,,,,,,,125,0,125,0,,,,,,,,,,,,,,,,,,,,,,,,,,,,,,,,,,,,,,,,,,,,,,,,,1459.5368110000272,None,,,,,,,,,,,,,,,,,,,,,,,,,,,,,,,,,,,,,,,,,,,,,,,,,,,,,,,,,fault,155,126,silent,new,yellow,1457.6912855000119,None,n,1457.6912855000119,None,"['n', 'return']","[0.9912877999595366, 1.783311799983494]",1457.6912855000119,None,,,80NB,001,2023_Aug_28_1651,ExactRep-v3-final,2021.2.3,59.96386577856653,
,,,,,,,,,,,,126,0,126,0,,,,,,,,,,,,,,,,,,,,,,,,,,,,,,,,,,,,,,,,,,,,,,,,,1461.442234600021,None,,,,,,,,,,,,,,,,,,,,,,,,,,,,,,,,,,,,,,,,,,,,,,,,,,,,,,,,,woods,25,127,sing,old,yellow,1460.0396102000377,None,y,1460.0396102000377,None,"['y', 'return']","[1.0349478999851272, 1.346878599957563]",1460.0396102000377,None,,,80NB,001,2023_Aug_28_1651,ExactRep-v3-final,2021.2.3,59.96386577856653,
,,,,,,,,,,,,127,0,127,0,,,,,,,,,,,,,,,,,,,,,,,,,,,,,,,,,,,,,,,,,,,,,,,,,1463.810444600007,None,,,,,,,,,,,,,,,,,,,,,,,,,,,,,,,,,,,,,,,,,,,,,,,,,,,,,,,,,library,53,128,silent,old,yellow,1461.96914510004,None,n,1461.96914510004,None,"['n', 'return']","[1.1134827000205405, 1.7934423999977298]",1461.96914510004,None,,,80NB,001,2023_Aug_28_1651,ExactRep-v3-final,2021.2.3,59.96386577856653,
,,,,,,,,,,,,128,0,128,0,,,,,,,,,,,,,,,,,,,,,,,,,,,,,,,,,,,,,,,,,,,,,,,,,1467.247690899996,None,,,,,,,,,,,,,,,,,,,,,,,,,,,,,,,,,,,,,,,,,,,,,,,,,,,,,,,,,month,86,129,aloud,old,yellow,1464.3118861000403,None,n,1464.3118861000403,None,"['n', 'return']","[0.9706369999912567, 2.890656700008549]",1464.3118861000403,None,,,80NB,001,2023_Aug_28_1651,ExactRep-v3-final,2021.2.3,59.96386577856653,
,,,,,,,,,,,,129,0,129,0,,,,,,,,,,,,,,,,,,,,,,,,,,,,,,,,,,,,,,,,,,,,,,,,,1470.951151300047,None,,,,,,,,,,,,,,,,,,,,,,,,,,,,,,,,,,,,,,,,,,,,,,,,,,,,,,,,,owner,59,130,silent,old,yellow,1467.763891300012,None,n,1467.763891300012,None,"['n', 'return']","[1.3028395000146702, 3.150667199981399]",1467.763891300012,None,,,80NB,001,2023_Aug_28_1651,ExactRep-v3-final,2021.2.3,59.96386577856653,
