trials_fam.thisRepN,trials_fam.thisTrialN,trials_fam.thisN,trials_fam.thisIndex,trials_prc.thisRepN,trials_prc.thisTrialN,trials_prc.thisN,trials_prc.thisIndex,StudyLoop.thisRepN,StudyLoop.thisTrialN,StudyLoop.thisN,StudyLoop.thisIndex,TestLoop.thisRepN,TestLoop.thisTrialN,TestLoop.thisN,TestLoop.thisIndex,text_colortest.started,text_colortest.stopped,key_colortest.keys,key_colortest.rt,key_colortest.started,key_colortest.stopped,textCondition.started,textCondition.stopped,keyCondition.keys,keyCondition.rt,keyCondition.started,keyCondition.stopped,Condition_between,Condition_counterbal,keyWelcome.keys,keyWelcome.rt,keyWelcome.started,keyWelcome.stopped,welcome_a.started,welcome_a.stopped,welcome_b.started,welcome_b.stopped,welcome_c.started,welcome_c.stopped,welcome_d.started,welcome_d.stopped,welcome_e.started,welcome_e.stopped,welcome_f.started,welcome_f.stopped,key_resp_fam_inst.keys,key_resp_fam_inst.rt,key_resp_fam_inst.started,key_resp_fam_inst.stopped,fam_a.started,fam_a.stopped,fam_b.started,fam_b.stopped,fam_c.started,fam_c.stopped,fam_d.started,fam_d.stopped,fam_e.started,fam_e.stopped,fam_f.started,fam_f.stopped,text_famil.started,text_famil.stopped,textBlank500.started,textBlank500.stopped,key_resp_prc_inst.keys,key_resp_prc_inst.rt,key_resp_prc_inst.started,key_resp_prc_inst.stopped,prac_a.started,prac_a.stopped,prac_b.started,prac_b.stopped,prac_c.started,prac_c.stopped,prac_d.started,prac_d.stopped,prac_e.started,prac_e.stopped,prac_f.started,prac_f.stopped,text_prc_trial.started,text_prc_trial.stopped,key_resp_study_inst.keys,key_resp_study_inst.rt,key_resp_study_inst.started,key_resp_study_inst.stopped,crit_a.started,crit_a.stopped,crit_b.started,crit_b.stopped,crit_c.started,crit_c.stopped,crit_d.started,crit_d.stopped,crit_e.started,crit_e.stopped,crit_f.started,crit_f.stopped,study_word,study_num,study_order,study_type,word_color,textStudy.started,textStudy.stopped,keyStudy.keys,keyStudy.started,keyStudy.stopped,post_study.started,post_study.stopped,key_resp_post_study.keys,key_resp_post_study.rt,key_resp_post_study.started,key_resp_post_study.stopped,test_inst.started,test_inst.stopped,key_resp_test_inst.keys,key_resp_test_inst.rt,key_resp_test_inst.started,key_resp_test_inst.stopped,test_word,test_num,test_order,test_condition,old_new_test,word_color_test,textConf.started,textConf.stopped,Participant Response,textInput.started,textInput.stopped,keyResp.keys,keyResp.rt,keyResp.started,keyResp.stopped,textEnd.started,textEnd.stopped,participant,session,date,expName,psychopyVersion,frameRate,
,,,,,,,,,,,,,,,,54.73023310001008,None,n,100.58094680000795,54.73023310001008,None,,,,,,,,,,,,,,,,,,,,,,,,,,,,,,,,,,,,,,,,,,,,,,,,,,,,,,,,,,,,,,,,,,,,,,,,,,,,,,,,,,,,,,,,,,,,,,,,,,,,,,,,,,,,,,,,,,,,,,81NC,001,2023_Aug_28_1720,ExactRep-v3-final,2021.2.3,59.955884466301605,
,,,,,,,,,,,,,,,,,,,,,,155.34193910000613,None,c,1.0812060000025667,155.34193910000613,None,,,,,,,,,,,,,,,,,,,,,,,,,,,,,,,,,,,,,,,,,,,,,,,,,,,,,,,,,,,,,,,,,,,,,,,,,,,,,,,,,,,,,,,,,,,,,,,,,,,,,,,,,,,,,,,,81NC,001,2023_Aug_28_1720,ExactRep-v3-final,2021.2.3,59.955884466301605,
,,,,,,,,,,,,,,,,,,,,,,,,,,,,whitefoils,c,space,2080.418402499985,166.5802696000319,None,,,,,,,,,,,,,,,,,,,,,,,,,,,,,,,,,,,,,,,,,,,,,,,,,,,,,,,,,,,,,,,,,,,,,,,,,,,,,,,,,,,,,,,,,,,,,,,,,,,,,,,,,,81NC,001,2023_Aug_28_1720,ExactRep-v3-final,2021.2.3,59.955884466301605,
,,,,,,,,,,,,,,,,,,,,,,,,,,,,,,,,,,156.67199930001516,None,156.67199930001516,None,156.67199930001516,None,156.67199930001516,None,156.67199930001516,None,156.67199930001516,None,space,17.768209300003946,2257.2306610000087,None,,,,,,,,,,,,,,,,,,,,,,,,,,,,,,,,,,,,,,,,,,,,,,,,,,,,,,,,,,,,,,,,,,,,,,,,,,,,,,,,,,,,,,,,,,81NC,001,2023_Aug_28_1720,ExactRep-v3-final,2021.2.3,59.955884466301605,
0,0,0,0,,,,,,,,,,,,,,,,,,,,,,,,,,,,,,,,,,,,,,,,,,,,,,,2247.2631984000327,None,2247.2631984000327,None,2247.2631984000327,None,2247.2631984000327,None,2247.2631984000327,None,2247.2631984000327,None,2275.0858979000477,None,2277.077459000051,None,,,,,,,,,,,,,,,,,,,,,,,,,,,,,,,,,,,,,,,,,,,,,,,,,,,,,,,,,,,,,,,,,,,,,,,,,,81NC,001,2023_Aug_28_1720,ExactRep-v3-final,2021.2.3,59.955884466301605,
1,0,1,0,,,,,,,,,,,,,,,,,,,,,,,,,,,,,,,,,,,,,,,,,,,,,,,,,,,,,,,,,,,2277.5968571000267,None,2279.596982100047,None,,,,,,,,,,,,,,,,,,,,,,,,,,,,,,,,,,,,,,,,,,,,,,,,,,,,,,,,,,,,,,,,,,,,,,,,,,81NC,001,2023_Aug_28_1720,ExactRep-v3-final,2021.2.3,59.955884466301605,
2,0,2,0,,,,,,,,,,,,,,,,,,,,,,,,,,,,,,,,,,,,,,,,,,,,,,,,,,,,,,,,,,,2280.097730700043,None,2282.0991816000314,None,,,,,,,,,,,,,,,,,,,,,,,,,,,,,,,,,,,,,,,,,,,,,,,,,,,,,,,,,,,,,,,,,,,,,,,,,,81NC,001,2023_Aug_28_1720,ExactRep-v3-final,2021.2.3,59.955884466301605,
3,0,3,0,,,,,,,,,,,,,,,,,,,,,,,,,,,,,,,,,,,,,,,,,,,,,,,,,,,,,,,,,,,2282.6063281000243,None,2284.6186579000205,None,,,,,,,,,,,,,,,,,,,,,,,,,,,,,,,,,,,,,,,,,,,,,,,,,,,,,,,,,,,,,,,,,,,,,,,,,,81NC,001,2023_Aug_28_1720,ExactRep-v3-final,2021.2.3,59.955884466301605,
4,0,4,0,,,,,,,,,,,,,,,,,,,,,,,,,,,,,,,,,,,,,,,,,,,,,,,,,,,,,,,,,,,2285.122668600001,None,2287.1374425000395,None,,,,,,,,,,,,,,,,,,,,,,,,,,,,,,,,,,,,,,,,,,,,,,,,,,,,,,,,,,,,,,,,,,,,,,,,,,81NC,001,2023_Aug_28_1720,ExactRep-v3-final,2021.2.3,59.955884466301605,
5,0,5,0,,,,,,,,,,,,,,,,,,,,,,,,,,,,,,,,,,,,,,,,,,,,,,,,,,,,,,,,,,,2287.6379588000127,None,2289.64013970003,None,,,,,,,,,,,,,,,,,,,,,,,,,,,,,,,,,,,,,,,,,,,,,,,,,,,,,,,,,,,,,,,,,,,,,,,,,,81NC,001,2023_Aug_28_1720,ExactRep-v3-final,2021.2.3,59.955884466301605,
6,0,6,0,,,,,,,,,,,,,,,,,,,,,,,,,,,,,,,,,,,,,,,,,,,,,,,,,,,,,,,,,,,2290.142655100033,None,2292.142760500021,None,,,,,,,,,,,,,,,,,,,,,,,,,,,,,,,,,,,,,,,,,,,,,,,,,,,,,,,,,,,,,,,,,,,,,,,,,,81NC,001,2023_Aug_28_1720,ExactRep-v3-final,2021.2.3,59.955884466301605,
7,0,7,0,,,,,,,,,,,,,,,,,,,,,,,,,,,,,,,,,,,,,,,,,,,,,,,,,,,,,,,,,,,2292.643167500035,None,2294.645441300003,None,,,,,,,,,,,,,,,,,,,,,,,,,,,,,,,,,,,,,,,,,,,,,,,,,,,,,,,,,,,,,,,,,,,,,,,,,,81NC,001,2023_Aug_28_1720,ExactRep-v3-final,2021.2.3,59.955884466301605,
8,0,8,0,,,,,,,,,,,,,,,,,,,,,,,,,,,,,,,,,,,,,,,,,,,,,,,,,,,,,,,,,,,2295.149770500022,None,2297.1643595000496,None,,,,,,,,,,,,,,,,,,,,,,,,,,,,,,,,,,,,,,,,,,,,,,,,,,,,,,,,,,,,,,,,,,,,,,,,,,81NC,001,2023_Aug_28_1720,ExactRep-v3-final,2021.2.3,59.955884466301605,
9,0,9,0,,,,,,,,,,,,,,,,,,,,,,,,,,,,,,,,,,,,,,,,,,,,,,,,,,,,,,,,,,,2297.664336500049,None,2299.6668577000382,None,,,,,,,,,,,,,,,,,,,,,,,,,,,,,,,,,,,,,,,,,,,,,,,,,,,,,,,,,,,,,,,,,,,,,,,,,,81NC,001,2023_Aug_28_1720,ExactRep-v3-final,2021.2.3,59.955884466301605,
10,0,10,0,,,,,,,,,,,,,,,,,,,,,,,,,,,,,,,,,,,,,,,,,,,,,,,,,,,,,,,,,,,2300.1702919000527,None,2302.169489699998,None,,,,,,,,,,,,,,,,,,,,,,,,,,,,,,,,,,,,,,,,,,,,,,,,,,,,,,,,,,,,,,,,,,,,,,,,,,81NC,001,2023_Aug_28_1720,ExactRep-v3-final,2021.2.3,59.955884466301605,
11,0,11,0,,,,,,,,,,,,,,,,,,,,,,,,,,,,,,,,,,,,,,,,,,,,,,,,,,,,,,,,,,,2302.6727340000216,None,2304.688293000043,None,,,,,,,,,,,,,,,,,,,,,,,,,,,,,,,,,,,,,,,,,,,,,,,,,,,,,,,,,,,,,,,,,,,,,,,,,,81NC,001,2023_Aug_28_1720,ExactRep-v3-final,2021.2.3,59.955884466301605,
12,0,12,0,,,,,,,,,,,,,,,,,,,,,,,,,,,,,,,,,,,,,,,,,,,,,,,,,,,,,,,,,,,2305.1891736000543,None,2307.191111400025,None,,,,,,,,,,,,,,,,,,,,,,,,,,,,,,,,,,,,,,,,,,,,,,,,,,,,,,,,,,,,,,,,,,,,,,,,,,81NC,001,2023_Aug_28_1720,ExactRep-v3-final,2021.2.3,59.955884466301605,
13,0,13,0,,,,,,,,,,,,,,,,,,,,,,,,,,,,,,,,,,,,,,,,,,,,,,,,,,,,,,,,,,,2307.6917718000477,None,2309.6932901000255,None,,,,,,,,,,,,,,,,,,,,,,,,,,,,,,,,,,,,,,,,,,,,,,,,,,,,,,,,,,,,,,,,,,,,,,,,,,81NC,001,2023_Aug_28_1720,ExactRep-v3-final,2021.2.3,59.955884466301605,
14,0,14,0,,,,,,,,,,,,,,,,,,,,,,,,,,,,,,,,,,,,,,,,,,,,,,,,,,,,,,,,,,,2310.1949384000036,None,2312.1961438000435,None,,,,,,,,,,,,,,,,,,,,,,,,,,,,,,,,,,,,,,,,,,,,,,,,,,,,,,,,,,,,,,,,,,,,,,,,,,81NC,001,2023_Aug_28_1720,ExactRep-v3-final,2021.2.3,59.955884466301605,
,,,,,,,,,,,,,,,,,,,,,,,,,,,,,,,,,,,,,,,,,,,,,,,,,,,,,,,,,,,,,,,,,,space,15.662472900003195,2322.8318675000337,None,,,,,,,,,,,,,,,,,,,,,,,,,,,,,,,,,,,,,,,,,,,,,,,,,,,,,,,,,,,,,,,,,,,,,,81NC,001,2023_Aug_28_1720,ExactRep-v3-final,2021.2.3,59.955884466301605,
,,,,0,0,0,0,,,,,,,,,,,,,,,,,,,,,,,,,,,,,,,,,,,,,,,,,,,,,,,,,,,,,,,,,2340.6075387000456,None,,,,,2312.8623117000097,None,2312.8623117000097,None,2312.8623117000097,None,2312.8623117000097,None,2312.8623117000097,None,2312.8623117000097,None,2338.600622400001,None,,,,,,,,,,,,,,,,,,,,,,,,,,,,,,,,,,,,,,,,,,,,,,,,,,,,,,,,81NC,001,2023_Aug_28_1720,ExactRep-v3-final,2021.2.3,59.955884466301605,
,,,,1,0,1,0,,,,,,,,,,,,,,,,,,,,,,,,,,,,,,,,,,,,,,,,,,,,,,,,,,,,,,,,,2343.1100339000113,None,,,,,,,,,,,,,,,,,2341.10881460004,None,,,,,,,,,,,,,,,,,,,,,,,,,,,,,,,,,,,,,,,,,,,,,,,,,,,,,,,,81NC,001,2023_Aug_28_1720,ExactRep-v3-final,2021.2.3,59.955884466301605,
,,,,2,0,2,0,,,,,,,,,,,,,,,,,,,,,,,,,,,,,,,,,,,,,,,,,,,,,,,,,,,,,,,,,2345.612685,None,,,,,,,,,,,,,,,,,2343.6119217000087,None,,,,,,,,,,,,,,,,,,,,,,,,,,,,,,,,,,,,,,,,,,,,,,,,,,,,,,,,81NC,001,2023_Aug_28_1720,ExactRep-v3-final,2021.2.3,59.955884466301605,
,,,,3,0,3,0,,,,,,,,,,,,,,,,,,,,,,,,,,,,,,,,,,,,,,,,,,,,,,,,,,,,,,,,,2348.1149420000147,None,,,,,,,,,,,,,,,,,2346.1133959,None,,,,,,,,,,,,,,,,,,,,,,,,,,,,,,,,,,,,,,,,,,,,,,,,,,,,,,,,81NC,001,2023_Aug_28_1720,ExactRep-v3-final,2021.2.3,59.955884466301605,
,,,,4,0,4,0,,,,,,,,,,,,,,,,,,,,,,,,,,,,,,,,,,,,,,,,,,,,,,,,,,,,,,,,,2350.6178765000077,None,,,,,,,,,,,,,,,,,2348.6157772000297,None,,,,,,,,,,,,,,,,,,,,,,,,,,,,,,,,,,,,,,,,,,,,,,,,,,,,,,,,81NC,001,2023_Aug_28_1720,ExactRep-v3-final,2021.2.3,59.955884466301605,
,,,,5,0,5,0,,,,,,,,,,,,,,,,,,,,,,,,,,,,,,,,,,,,,,,,,,,,,,,,,,,,,,,,,2353.120344499999,None,,,,,,,,,,,,,,,,,2351.1184528000304,None,,,,,,,,,,,,,,,,,,,,,,,,,,,,,,,,,,,,,,,,,,,,,,,,,,,,,,,,81NC,001,2023_Aug_28_1720,ExactRep-v3-final,2021.2.3,59.955884466301605,
,,,,6,0,6,0,,,,,,,,,,,,,,,,,,,,,,,,,,,,,,,,,,,,,,,,,,,,,,,,,,,,,,,,,2355.6234679000336,None,,,,,,,,,,,,,,,,,2353.6210913000396,None,,,,,,,,,,,,,,,,,,,,,,,,,,,,,,,,,,,,,,,,,,,,,,,,,,,,,,,,81NC,001,2023_Aug_28_1720,ExactRep-v3-final,2021.2.3,59.955884466301605,
,,,,7,0,7,0,,,,,,,,,,,,,,,,,,,,,,,,,,,,,,,,,,,,,,,,,,,,,,,,,,,,,,,,,2358.125029900053,None,,,,,,,,,,,,,,,,,2356.1233636000543,None,,,,,,,,,,,,,,,,,,,,,,,,,,,,,,,,,,,,,,,,,,,,,,,,,,,,,,,,81NC,001,2023_Aug_28_1720,ExactRep-v3-final,2021.2.3,59.955884466301605,
,,,,8,0,8,0,,,,,,,,,,,,,,,,,,,,,,,,,,,,,,,,,,,,,,,,,,,,,,,,,,,,,,,,,2360.627698000055,None,,,,,,,,,,,,,,,,,2358.625632200041,None,,,,,,,,,,,,,,,,,,,,,,,,,,,,,,,,,,,,,,,,,,,,,,,,,,,,,,,,81NC,001,2023_Aug_28_1720,ExactRep-v3-final,2021.2.3,59.955884466301605,
,,,,9,0,9,0,,,,,,,,,,,,,,,,,,,,,,,,,,,,,,,,,,,,,,,,,,,,,,,,,,,,,,,,,2363.130328900006,None,,,,,,,,,,,,,,,,,2361.128324899997,None,,,,,,,,,,,,,,,,,,,,,,,,,,,,,,,,,,,,,,,,,,,,,,,,,,,,,,,,81NC,001,2023_Aug_28_1720,ExactRep-v3-final,2021.2.3,59.955884466301605,
,,,,10,0,10,0,,,,,,,,,,,,,,,,,,,,,,,,,,,,,,,,,,,,,,,,,,,,,,,,,,,,,,,,,2365.63248640002,None,,,,,,,,,,,,,,,,,2363.6323524000472,None,,,,,,,,,,,,,,,,,,,,,,,,,,,,,,,,,,,,,,,,,,,,,,,,,,,,,,,,81NC,001,2023_Aug_28_1720,ExactRep-v3-final,2021.2.3,59.955884466301605,
,,,,11,0,11,0,,,,,,,,,,,,,,,,,,,,,,,,,,,,,,,,,,,,,,,,,,,,,,,,,,,,,,,,,2368.135381100001,None,,,,,,,,,,,,,,,,,2366.1330991000286,None,,,,,,,,,,,,,,,,,,,,,,,,,,,,,,,,,,,,,,,,,,,,,,,,,,,,,,,,81NC,001,2023_Aug_28_1720,ExactRep-v3-final,2021.2.3,59.955884466301605,
,,,,12,0,12,0,,,,,,,,,,,,,,,,,,,,,,,,,,,,,,,,,,,,,,,,,,,,,,,,,,,,,,,,,2370.6374786000233,None,,,,,,,,,,,,,,,,,2368.635971600015,None,,,,,,,,,,,,,,,,,,,,,,,,,,,,,,,,,,,,,,,,,,,,,,,,,,,,,,,,81NC,001,2023_Aug_28_1720,ExactRep-v3-final,2021.2.3,59.955884466301605,
,,,,13,0,13,0,,,,,,,,,,,,,,,,,,,,,,,,,,,,,,,,,,,,,,,,,,,,,,,,,,,,,,,,,2373.140462500043,None,,,,,,,,,,,,,,,,,2371.13851280004,None,,,,,,,,,,,,,,,,,,,,,,,,,,,,,,,,,,,,,,,,,,,,,,,,,,,,,,,,81NC,001,2023_Aug_28_1720,ExactRep-v3-final,2021.2.3,59.955884466301605,
,,,,14,0,14,0,,,,,,,,,,,,,,,,,,,,,,,,,,,,,,,,,,,,,,,,,,,,,,,,,,,,,,,,,2375.6429815000156,None,,,,,,,,,,,,,,,,,2373.6408617999987,None,,,,,,,,,,,,,,,,,,,,,,,,,,,,,,,,,,,,,,,,,,,,,,,,,,,,,,,,81NC,001,2023_Aug_28_1720,ExactRep-v3-final,2021.2.3,59.955884466301605,
,,,,,,,,,,,,,,,,,,,,,,,,,,,,,,,,,,,,,,,,,,,,,,,,,,,,,,,,,,,,,,,,,,,,,,,,,,,,,,,,,,,,space,18.622872599982657,2386.327817900048,None,,,,,,,,,,,,,,,,,,,,,,,,,,,,,,,,,,,,,,,,,,,,,,,,,,,,81NC,001,2023_Aug_28_1720,ExactRep-v3-final,2021.2.3,59.955884466301605,
,,,,,,,,0,0,0,0,,,,,,,,,,,,,,,,,,,,,,,,,,,,,,,,,,,,,,,,,,,,,,,,,,,,,2407.024102399999,None,,,,,,,,,,,,,,,,,,,,,,,2376.3354471000494,None,2376.3354471000494,None,2376.3354471000494,None,2376.3354471000494,None,2376.3354471000494,None,2376.3354471000494,None,passion,60,1,silent,red,2405.022749099997,None,None,2405.022749099997,None,,,,,,,,,,,,,,,,,,,,,,,,,,,,,,81NC,001,2023_Aug_28_1720,ExactRep-v3-final,2021.2.3,59.955884466301605,
,,,,,,,,1,0,1,0,,,,,,,,,,,,,,,,,,,,,,,,,,,,,,,,,,,,,,,,,,,,,,,,,,,,,2409.5452655000263,None,,,,,,,,,,,,,,,,,,,,,,,,,,,,,,,,,,,trouble,63,2,silent,red,2407.5321603000048,None,None,2407.5321603000048,None,,,,,,,,,,,,,,,,,,,,,,,,,,,,,,81NC,001,2023_Aug_28_1720,ExactRep-v3-final,2021.2.3,59.955884466301605,
,,,,,,,,2,0,2,0,,,,,,,,,,,,,,,,,,,,,,,,,,,,,,,,,,,,,,,,,,,,,,,,,,,,,2412.06238030002,None,,,,,,,,,,,,,,,,,,,,,,,,,,,,,,,,,,,mother,79,3,sing,white,2410.0634403000004,None,None,2410.0634403000004,None,,,,,,,,,,,,,,,,,,,,,,,,,,,,,,81NC,001,2023_Aug_28_1720,ExactRep-v3-final,2021.2.3,59.955884466301605,
,,,,,,,,3,0,3,0,,,,,,,,,,,,,,,,,,,,,,,,,,,,,,,,,,,,,,,,,,,,,,,,,,,,,2414.5820818000357,None,,,,,,,,,,,,,,,,,,,,,,,,,,,,,,,,,,,law,45,4,silent,red,2412.5672509000287,None,None,2412.5672509000287,None,,,,,,,,,,,,,,,,,,,,,,,,,,,,,,81NC,001,2023_Aug_28_1720,ExactRep-v3-final,2021.2.3,59.955884466301605,
,,,,,,,,4,0,4,0,,,,,,,,,,,,,,,,,,,,,,,,,,,,,,,,,,,,,,,,,,,,,,,,,,,,,2417.100906000007,None,,,,,,,,,,,,,,,,,,,,,,,,,,,,,,,,,,,circle,93,5,aloud,blue,2415.086974100035,None,None,2415.086974100035,None,,,,,,,,,,,,,,,,,,,,,,,,,,,,,,81NC,001,2023_Aug_28_1720,ExactRep-v3-final,2021.2.3,59.955884466301605,
,,,,,,,,5,0,5,0,,,,,,,,,,,,,,,,,,,,,,,,,,,,,,,,,,,,,,,,,,,,,,,,,,,,,2419.603079600027,None,,,,,,,,,,,,,,,,,,,,,,,,,,,,,,,,,,,death,44,6,silent,red,2417.601108700037,None,None,2417.601108700037,None,,,,,,,,,,,,,,,,,,,,,,,,,,,,,,81NC,001,2023_Aug_28_1720,ExactRep-v3-final,2021.2.3,59.955884466301605,
,,,,,,,,6,0,6,0,,,,,,,,,,,,,,,,,,,,,,,,,,,,,,,,,,,,,,,,,,,,,,,,,,,,,2422.1058696000255,None,,,,,,,,,,,,,,,,,,,,,,,,,,,,,,,,,,,event,47,7,silent,red,2420.105755400029,None,None,2420.105755400029,None,,,,,,,,,,,,,,,,,,,,,,,,,,,,,,81NC,001,2023_Aug_28_1720,ExactRep-v3-final,2021.2.3,59.955884466301605,
,,,,,,,,7,0,7,0,,,,,,,,,,,,,,,,,,,,,,,,,,,,,,,,,,,,,,,,,,,,,,,,,,,,,2424.608281200053,None,,,,,,,,,,,,,,,,,,,,,,,,,,,,,,,,,,,method,104,8,aloud,blue,2422.606641100021,None,None,2422.606641100021,None,,,,,,,,,,,,,,,,,,,,,,,,,,,,,,81NC,001,2023_Aug_28_1720,ExactRep-v3-final,2021.2.3,59.955884466301605,
,,,,,,,,8,0,8,0,,,,,,,,,,,,,,,,,,,,,,,,,,,,,,,,,,,,,,,,,,,,,,,,,,,,,2427.1110766000347,None,,,,,,,,,,,,,,,,,,,,,,,,,,,,,,,,,,,opinion,108,9,aloud,blue,2425.1090917999973,None,None,2425.1090917999973,None,,,,,,,,,,,,,,,,,,,,,,,,,,,,,,81NC,001,2023_Aug_28_1720,ExactRep-v3-final,2021.2.3,59.955884466301605,
,,,,,,,,9,0,9,0,,,,,,,,,,,,,,,,,,,,,,,,,,,,,,,,,,,,,,,,,,,,,,,,,,,,,2429.6293237000355,None,,,,,,,,,,,,,,,,,,,,,,,,,,,,,,,,,,,grass,15,10,sing,white,2427.613929400046,None,None,2427.613929400046,None,,,,,,,,,,,,,,,,,,,,,,,,,,,,,,81NC,001,2023_Aug_28_1720,ExactRep-v3-final,2021.2.3,59.955884466301605,
,,,,,,,,10,0,10,0,,,,,,,,,,,,,,,,,,,,,,,,,,,,,,,,,,,,,,,,,,,,,,,,,,,,,2432.1322193000233,None,,,,,,,,,,,,,,,,,,,,,,,,,,,,,,,,,,,deed,36,11,sing,white,2430.130080400035,None,None,2430.130080400035,None,,,,,,,,,,,,,,,,,,,,,,,,,,,,,,81NC,001,2023_Aug_28_1720,ExactRep-v3-final,2021.2.3,59.955884466301605,
,,,,,,,,11,0,11,0,,,,,,,,,,,,,,,,,,,,,,,,,,,,,,,,,,,,,,,,,,,,,,,,,,,,,2434.655225800001,None,,,,,,,,,,,,,,,,,,,,,,,,,,,,,,,,,,,sea,24,12,sing,white,2432.64417090005,None,None,2432.64417090005,None,,,,,,,,,,,,,,,,,,,,,,,,,,,,,,81NC,001,2023_Aug_28_1720,ExactRep-v3-final,2021.2.3,59.955884466301605,
,,,,,,,,12,0,12,0,,,,,,,,,,,,,,,,,,,,,,,,,,,,,,,,,,,,,,,,,,,,,,,,,,,,,2437.1711546000442,None,,,,,,,,,,,,,,,,,,,,,,,,,,,,,,,,,,,grief,58,13,silent,red,2435.1615071000415,None,None,2435.1615071000415,None,,,,,,,,,,,,,,,,,,,,,,,,,,,,,,81NC,001,2023_Aug_28_1720,ExactRep-v3-final,2021.2.3,59.955884466301605,
,,,,,,,,13,0,13,0,,,,,,,,,,,,,,,,,,,,,,,,,,,,,,,,,,,,,,,,,,,,,,,,,,,,,2439.673432200041,None,,,,,,,,,,,,,,,,,,,,,,,,,,,,,,,,,,,coast,21,14,sing,white,2437.6737976000295,None,None,2437.6737976000295,None,,,,,,,,,,,,,,,,,,,,,,,,,,,,,,81NC,001,2023_Aug_28_1720,ExactRep-v3-final,2021.2.3,59.955884466301605,
,,,,,,,,14,0,14,0,,,,,,,,,,,,,,,,,,,,,,,,,,,,,,,,,,,,,,,,,,,,,,,,,,,,,2442.193257600011,None,,,,,,,,,,,,,,,,,,,,,,,,,,,,,,,,,,,volume,109,15,aloud,blue,2440.176962300029,None,None,2440.176962300029,None,,,,,,,,,,,,,,,,,,,,,,,,,,,,,,81NC,001,2023_Aug_28_1720,ExactRep-v3-final,2021.2.3,59.955884466301605,
,,,,,,,,15,0,15,0,,,,,,,,,,,,,,,,,,,,,,,,,,,,,,,,,,,,,,,,,,,,,,,,,,,,,2444.6948452000506,None,,,,,,,,,,,,,,,,,,,,,,,,,,,,,,,,,,,prison,106,16,aloud,blue,2442.6951374000055,None,None,2442.6951374000055,None,,,,,,,,,,,,,,,,,,,,,,,,,,,,,,81NC,001,2023_Aug_28_1720,ExactRep-v3-final,2021.2.3,59.955884466301605,
,,,,,,,,16,0,16,0,,,,,,,,,,,,,,,,,,,,,,,,,,,,,,,,,,,,,,,,,,,,,,,,,,,,,2447.2152387000388,None,,,,,,,,,,,,,,,,,,,,,,,,,,,,,,,,,,,leader,100,17,aloud,blue,2445.2006196000148,None,None,2445.2006196000148,None,,,,,,,,,,,,,,,,,,,,,,,,,,,,,,81NC,001,2023_Aug_28_1720,ExactRep-v3-final,2021.2.3,59.955884466301605,
,,,,,,,,17,0,17,0,,,,,,,,,,,,,,,,,,,,,,,,,,,,,,,,,,,,,,,,,,,,,,,,,,,,,2449.733487300051,None,,,,,,,,,,,,,,,,,,,,,,,,,,,,,,,,,,,author,82,18,aloud,blue,2447.724262500007,None,None,2447.724262500007,None,,,,,,,,,,,,,,,,,,,,,,,,,,,,,,81NC,001,2023_Aug_28_1720,ExactRep-v3-final,2021.2.3,59.955884466301605,
,,,,,,,,18,0,18,0,,,,,,,,,,,,,,,,,,,,,,,,,,,,,,,,,,,,,,,,,,,,,,,,,,,,,2452.252697900054,None,,,,,,,,,,,,,,,,,,,,,,,,,,,,,,,,,,,shore,70,19,silent,red,2450.239529500017,None,None,2450.239529500017,None,,,,,,,,,,,,,,,,,,,,,,,,,,,,,,81NC,001,2023_Aug_28_1720,ExactRep-v3-final,2021.2.3,59.955884466301605,
,,,,,,,,19,0,19,0,,,,,,,,,,,,,,,,,,,,,,,,,,,,,,,,,,,,,,,,,,,,,,,,,,,,,2454.754911100026,None,,,,,,,,,,,,,,,,,,,,,,,,,,,,,,,,,,,student,27,20,sing,white,2452.7527386000147,None,None,2452.7527386000147,None,,,,,,,,,,,,,,,,,,,,,,,,,,,,,,81NC,001,2023_Aug_28_1720,ExactRep-v3-final,2021.2.3,59.955884466301605,
,,,,,,,,20,0,20,0,,,,,,,,,,,,,,,,,,,,,,,,,,,,,,,,,,,,,,,,,,,,,,,,,,,,,2457.274305100029,None,,,,,,,,,,,,,,,,,,,,,,,,,,,,,,,,,,,journal,98,21,aloud,blue,2455.273162199999,None,None,2455.273162199999,None,,,,,,,,,,,,,,,,,,,,,,,,,,,,,,81NC,001,2023_Aug_28_1720,ExactRep-v3-final,2021.2.3,59.955884466301605,
,,,,,,,,21,0,21,0,,,,,,,,,,,,,,,,,,,,,,,,,,,,,,,,,,,,,,,,,,,,,,,,,,,,,2459.7764973000158,None,,,,,,,,,,,,,,,,,,,,,,,,,,,,,,,,,,,temple,78,22,silent,red,2457.775199400028,None,None,2457.775199400028,None,,,,,,,,,,,,,,,,,,,,,,,,,,,,,,81NC,001,2023_Aug_28_1720,ExactRep-v3-final,2021.2.3,59.955884466301605,
,,,,,,,,22,0,22,0,,,,,,,,,,,,,,,,,,,,,,,,,,,,,,,,,,,,,,,,,,,,,,,,,,,,,2462.2795729000354,None,,,,,,,,,,,,,,,,,,,,,,,,,,,,,,,,,,,soul,54,23,silent,red,2460.277416600031,None,None,2460.277416600031,None,,,,,,,,,,,,,,,,,,,,,,,,,,,,,,81NC,001,2023_Aug_28_1720,ExactRep-v3-final,2021.2.3,59.955884466301605,
,,,,,,,,23,0,23,0,,,,,,,,,,,,,,,,,,,,,,,,,,,,,,,,,,,,,,,,,,,,,,,,,,,,,2464.7984628000413,None,,,,,,,,,,,,,,,,,,,,,,,,,,,,,,,,,,,breast,6,24,sing,white,2462.7843564000214,None,None,2462.7843564000214,None,,,,,,,,,,,,,,,,,,,,,,,,,,,,,,81NC,001,2023_Aug_28_1720,ExactRep-v3-final,2021.2.3,59.955884466301605,
,,,,,,,,24,0,24,0,,,,,,,,,,,,,,,,,,,,,,,,,,,,,,,,,,,,,,,,,,,,,,,,,,,,,2467.3010541000403,None,,,,,,,,,,,,,,,,,,,,,,,,,,,,,,,,,,,speech,111,25,aloud,blue,2465.300895799999,None,None,2465.300895799999,None,,,,,,,,,,,,,,,,,,,,,,,,,,,,,,81NC,001,2023_Aug_28_1720,ExactRep-v3-final,2021.2.3,59.955884466301605,
,,,,,,,,25,0,25,0,,,,,,,,,,,,,,,,,,,,,,,,,,,,,,,,,,,,,,,,,,,,,,,,,,,,,2469.8201750000007,None,,,,,,,,,,,,,,,,,,,,,,,,,,,,,,,,,,,maiden,66,26,silent,red,2467.8139173000236,None,None,2467.8139173000236,None,,,,,,,,,,,,,,,,,,,,,,,,,,,,,,81NC,001,2023_Aug_28_1720,ExactRep-v3-final,2021.2.3,59.955884466301605,
,,,,,,,,26,0,26,0,,,,,,,,,,,,,,,,,,,,,,,,,,,,,,,,,,,,,,,,,,,,,,,,,,,,,2472.3227499000495,None,,,,,,,,,,,,,,,,,,,,,,,,,,,,,,,,,,,insect,26,27,sing,white,2470.3230984000256,None,None,2470.3230984000256,None,,,,,,,,,,,,,,,,,,,,,,,,,,,,,,81NC,001,2023_Aug_28_1720,ExactRep-v3-final,2021.2.3,59.955884466301605,
,,,,,,,,27,0,27,0,,,,,,,,,,,,,,,,,,,,,,,,,,,,,,,,,,,,,,,,,,,,,,,,,,,,,2474.841709600005,None,,,,,,,,,,,,,,,,,,,,,,,,,,,,,,,,,,,blood,52,28,silent,red,2472.8271080999984,None,None,2472.8271080999984,None,,,,,,,,,,,,,,,,,,,,,,,,,,,,,,81NC,001,2023_Aug_28_1720,ExactRep-v3-final,2021.2.3,59.955884466301605,
,,,,,,,,28,0,28,0,,,,,,,,,,,,,,,,,,,,,,,,,,,,,,,,,,,,,,,,,,,,,,,,,,,,,2477.3442523000413,None,,,,,,,,,,,,,,,,,,,,,,,,,,,,,,,,,,,thought,118,29,aloud,blue,2475.3431003000005,None,None,2475.3431003000005,None,,,,,,,,,,,,,,,,,,,,,,,,,,,,,,81NC,001,2023_Aug_28_1720,ExactRep-v3-final,2021.2.3,59.955884466301605,
,,,,,,,,29,0,29,0,,,,,,,,,,,,,,,,,,,,,,,,,,,,,,,,,,,,,,,,,,,,,,,,,,,,,2479.8495234000147,None,,,,,,,,,,,,,,,,,,,,,,,,,,,,,,,,,,,prayer,84,30,aloud,blue,2477.846787300019,None,None,2477.846787300019,None,,,,,,,,,,,,,,,,,,,,,,,,,,,,,,81NC,001,2023_Aug_28_1720,ExactRep-v3-final,2021.2.3,59.955884466301605,
,,,,,,,,30,0,30,0,,,,,,,,,,,,,,,,,,,,,,,,,,,,,,,,,,,,,,,,,,,,,,,,,,,,,2482.3658793000504,None,,,,,,,,,,,,,,,,,,,,,,,,,,,,,,,,,,,steam,62,31,silent,red,2480.365955400048,None,None,2480.365955400048,None,,,,,,,,,,,,,,,,,,,,,,,,,,,,,,81NC,001,2023_Aug_28_1720,ExactRep-v3-final,2021.2.3,59.955884466301605,
,,,,,,,,31,0,31,0,,,,,,,,,,,,,,,,,,,,,,,,,,,,,,,,,,,,,,,,,,,,,,,,,,,,,2484.8685721000074,None,,,,,,,,,,,,,,,,,,,,,,,,,,,,,,,,,,,gift,53,32,silent,red,2482.8686268000165,None,None,2482.8686268000165,None,,,,,,,,,,,,,,,,,,,,,,,,,,,,,,81NC,001,2023_Aug_28_1720,ExactRep-v3-final,2021.2.3,59.955884466301605,
,,,,,,,,32,0,32,0,,,,,,,,,,,,,,,,,,,,,,,,,,,,,,,,,,,,,,,,,,,,,,,,,,,,,2487.387681699998,None,,,,,,,,,,,,,,,,,,,,,,,,,,,,,,,,,,,origin,22,33,sing,white,2485.380560200021,None,None,2485.380560200021,None,,,,,,,,,,,,,,,,,,,,,,,,,,,,,,81NC,001,2023_Aug_28_1720,ExactRep-v3-final,2021.2.3,59.955884466301605,
,,,,,,,,33,0,33,0,,,,,,,,,,,,,,,,,,,,,,,,,,,,,,,,,,,,,,,,,,,,,,,,,,,,,2489.890241300047,None,,,,,,,,,,,,,,,,,,,,,,,,,,,,,,,,,,,troops,72,34,silent,red,2487.890614200034,None,None,2487.890614200034,None,,,,,,,,,,,,,,,,,,,,,,,,,,,,,,81NC,001,2023_Aug_28_1720,ExactRep-v3-final,2021.2.3,59.955884466301605,
,,,,,,,,34,0,34,0,,,,,,,,,,,,,,,,,,,,,,,,,,,,,,,,,,,,,,,,,,,,,,,,,,,,,2492.392407700012,None,,,,,,,,,,,,,,,,,,,,,,,,,,,,,,,,,,,village,48,35,silent,red,2490.3907309000497,None,None,2490.3907309000497,None,,,,,,,,,,,,,,,,,,,,,,,,,,,,,,81NC,001,2023_Aug_28_1720,ExactRep-v3-final,2021.2.3,59.955884466301605,
,,,,,,,,35,0,35,0,,,,,,,,,,,,,,,,,,,,,,,,,,,,,,,,,,,,,,,,,,,,,,,,,,,,,2494.9116364000365,None,,,,,,,,,,,,,,,,,,,,,,,,,,,,,,,,,,,dress,94,36,aloud,blue,2492.897037000046,None,None,2492.897037000046,None,,,,,,,,,,,,,,,,,,,,,,,,,,,,,,81NC,001,2023_Aug_28_1720,ExactRep-v3-final,2021.2.3,59.955884466301605,
,,,,,,,,36,0,36,0,,,,,,,,,,,,,,,,,,,,,,,,,,,,,,,,,,,,,,,,,,,,,,,,,,,,,2497.431020400021,None,,,,,,,,,,,,,,,,,,,,,,,,,,,,,,,,,,,sky,65,37,silent,red,2495.4290669000475,None,None,2495.4290669000475,None,,,,,,,,,,,,,,,,,,,,,,,,,,,,,,81NC,001,2023_Aug_28_1720,ExactRep-v3-final,2021.2.3,59.955884466301605,
,,,,,,,,37,0,37,0,,,,,,,,,,,,,,,,,,,,,,,,,,,,,,,,,,,,,,,,,,,,,,,,,,,,,2499.9334371000296,None,,,,,,,,,,,,,,,,,,,,,,,,,,,,,,,,,,,beast,90,38,aloud,blue,2497.9320491000544,None,None,2497.9320491000544,None,,,,,,,,,,,,,,,,,,,,,,,,,,,,,,81NC,001,2023_Aug_28_1720,ExactRep-v3-final,2021.2.3,59.955884466301605,
,,,,,,,,38,0,38,0,,,,,,,,,,,,,,,,,,,,,,,,,,,,,,,,,,,,,,,,,,,,,,,,,,,,,2502.4529380000313,None,,,,,,,,,,,,,,,,,,,,,,,,,,,,,,,,,,,form,112,39,aloud,blue,2500.4454702000367,None,None,2500.4454702000367,None,,,,,,,,,,,,,,,,,,,,,,,,,,,,,,81NC,001,2023_Aug_28_1720,ExactRep-v3-final,2021.2.3,59.955884466301605,
,,,,,,,,39,0,39,0,,,,,,,,,,,,,,,,,,,,,,,,,,,,,,,,,,,,,,,,,,,,,,,,,,,,,2504.9719861000194,None,,,,,,,,,,,,,,,,,,,,,,,,,,,,,,,,,,,skin,110,40,aloud,blue,2502.9580247999984,None,None,2502.9580247999984,None,,,,,,,,,,,,,,,,,,,,,,,,,,,,,,81NC,001,2023_Aug_28_1720,ExactRep-v3-final,2021.2.3,59.955884466301605,
,,,,,,,,40,0,40,0,,,,,,,,,,,,,,,,,,,,,,,,,,,,,,,,,,,,,,,,,,,,,,,,,,,,,2507.490943700017,None,,,,,,,,,,,,,,,,,,,,,,,,,,,,,,,,,,,city,116,41,aloud,blue,2505.4752658000216,None,None,2505.4752658000216,None,,,,,,,,,,,,,,,,,,,,,,,,,,,,,,81NC,001,2023_Aug_28_1720,ExactRep-v3-final,2021.2.3,59.955884466301605,
,,,,,,,,41,0,41,0,,,,,,,,,,,,,,,,,,,,,,,,,,,,,,,,,,,,,,,,,,,,,,,,,,,,,2510.010335900006,None,,,,,,,,,,,,,,,,,,,,,,,,,,,,,,,,,,,king,32,42,sing,white,2507.996541700035,None,None,2507.996541700035,None,,,,,,,,,,,,,,,,,,,,,,,,,,,,,,81NC,001,2023_Aug_28_1720,ExactRep-v3-final,2021.2.3,59.955884466301605,
,,,,,,,,42,0,42,0,,,,,,,,,,,,,,,,,,,,,,,,,,,,,,,,,,,,,,,,,,,,,,,,,,,,,2512.5125880000414,None,,,,,,,,,,,,,,,,,,,,,,,,,,,,,,,,,,,month,4,43,sing,white,2510.5133692000527,None,None,2510.5133692000527,None,,,,,,,,,,,,,,,,,,,,,,,,,,,,,,81NC,001,2023_Aug_28_1720,ExactRep-v3-final,2021.2.3,59.955884466301605,
,,,,,,,,43,0,43,0,,,,,,,,,,,,,,,,,,,,,,,,,,,,,,,,,,,,,,,,,,,,,,,,,,,,,2515.0320377000025,None,,,,,,,,,,,,,,,,,,,,,,,,,,,,,,,,,,,answer,107,44,aloud,blue,2513.027082400047,None,None,2513.027082400047,None,,,,,,,,,,,,,,,,,,,,,,,,,,,,,,81NC,001,2023_Aug_28_1720,ExactRep-v3-final,2021.2.3,59.955884466301605,
,,,,,,,,44,0,44,0,,,,,,,,,,,,,,,,,,,,,,,,,,,,,,,,,,,,,,,,,,,,,,,,,,,,,2517.552087100048,None,,,,,,,,,,,,,,,,,,,,,,,,,,,,,,,,,,,cotton,92,45,aloud,blue,2515.543406700017,None,None,2515.543406700017,None,,,,,,,,,,,,,,,,,,,,,,,,,,,,,,81NC,001,2023_Aug_28_1720,ExactRep-v3-final,2021.2.3,59.955884466301605,
,,,,,,,,45,0,45,0,,,,,,,,,,,,,,,,,,,,,,,,,,,,,,,,,,,,,,,,,,,,,,,,,,,,,2520.0703899000073,None,,,,,,,,,,,,,,,,,,,,,,,,,,,,,,,,,,,street,49,46,silent,red,2518.0632235000376,None,None,2518.0632235000376,None,,,,,,,,,,,,,,,,,,,,,,,,,,,,,,81NC,001,2023_Aug_28_1720,ExactRep-v3-final,2021.2.3,59.955884466301605,
,,,,,,,,46,0,46,0,,,,,,,,,,,,,,,,,,,,,,,,,,,,,,,,,,,,,,,,,,,,,,,,,,,,,2522.5892341000144,None,,,,,,,,,,,,,,,,,,,,,,,,,,,,,,,,,,,cash,3,47,sing,white,2520.57529290003,None,None,2520.57529290003,None,,,,,,,,,,,,,,,,,,,,,,,,,,,,,,81NC,001,2023_Aug_28_1720,ExactRep-v3-final,2021.2.3,59.955884466301605,
,,,,,,,,47,0,47,0,,,,,,,,,,,,,,,,,,,,,,,,,,,,,,,,,,,,,,,,,,,,,,,,,,,,,2525.0917447000393,None,,,,,,,,,,,,,,,,,,,,,,,,,,,,,,,,,,,window,119,48,aloud,blue,2523.0896970000467,None,None,2523.0896970000467,None,,,,,,,,,,,,,,,,,,,,,,,,,,,,,,81NC,001,2023_Aug_28_1720,ExactRep-v3-final,2021.2.3,59.955884466301605,
,,,,,,,,48,0,48,0,,,,,,,,,,,,,,,,,,,,,,,,,,,,,,,,,,,,,,,,,,,,,,,,,,,,,2527.5946446000016,None,,,,,,,,,,,,,,,,,,,,,,,,,,,,,,,,,,,disease,41,49,silent,red,2525.5931189000257,None,None,2525.5931189000257,None,,,,,,,,,,,,,,,,,,,,,,,,,,,,,,81NC,001,2023_Aug_28_1720,ExactRep-v3-final,2021.2.3,59.955884466301605,
,,,,,,,,49,0,49,0,,,,,,,,,,,,,,,,,,,,,,,,,,,,,,,,,,,,,,,,,,,,,,,,,,,,,2530.113753600046,None,,,,,,,,,,,,,,,,,,,,,,,,,,,,,,,,,,,money,0,50,sing,white,2528.099779400043,None,None,2528.099779400043,None,,,,,,,,,,,,,,,,,,,,,,,,,,,,,,81NC,001,2023_Aug_28_1720,ExactRep-v3-final,2021.2.3,59.955884466301605,
,,,,,,,,50,0,50,0,,,,,,,,,,,,,,,,,,,,,,,,,,,,,,,,,,,,,,,,,,,,,,,,,,,,,2532.6162859000033,None,,,,,,,,,,,,,,,,,,,,,,,,,,,,,,,,,,,pride,35,51,sing,white,2530.6168076000176,None,None,2530.6168076000176,None,,,,,,,,,,,,,,,,,,,,,,,,,,,,,,81NC,001,2023_Aug_28_1720,ExactRep-v3-final,2021.2.3,59.955884466301605,
,,,,,,,,51,0,51,0,,,,,,,,,,,,,,,,,,,,,,,,,,,,,,,,,,,,,,,,,,,,,,,,,,,,,2535.1354812000063,None,,,,,,,,,,,,,,,,,,,,,,,,,,,,,,,,,,,idea,89,52,aloud,blue,2533.1235690000467,None,None,2533.1235690000467,None,,,,,,,,,,,,,,,,,,,,,,,,,,,,,,81NC,001,2023_Aug_28_1720,ExactRep-v3-final,2021.2.3,59.955884466301605,
,,,,,,,,52,0,52,0,,,,,,,,,,,,,,,,,,,,,,,,,,,,,,,,,,,,,,,,,,,,,,,,,,,,,2537.638170600054,None,,,,,,,,,,,,,,,,,,,,,,,,,,,,,,,,,,,history,10,53,sing,white,2535.63727570005,None,None,2535.63727570005,None,,,,,,,,,,,,,,,,,,,,,,,,,,,,,,81NC,001,2023_Aug_28_1720,ExactRep-v3-final,2021.2.3,59.955884466301605,
,,,,,,,,53,0,53,0,,,,,,,,,,,,,,,,,,,,,,,,,,,,,,,,,,,,,,,,,,,,,,,,,,,,,2540.1402356000035,None,,,,,,,,,,,,,,,,,,,,,,,,,,,,,,,,,,,home,55,54,silent,red,2538.140489400015,None,None,2538.140489400015,None,,,,,,,,,,,,,,,,,,,,,,,,,,,,,,81NC,001,2023_Aug_28_1720,ExactRep-v3-final,2021.2.3,59.955884466301605,
,,,,,,,,54,0,54,0,,,,,,,,,,,,,,,,,,,,,,,,,,,,,,,,,,,,,,,,,,,,,,,,,,,,,2542.642701500037,None,,,,,,,,,,,,,,,,,,,,,,,,,,,,,,,,,,,garden,105,55,aloud,blue,2540.64213620004,None,None,2540.64213620004,None,,,,,,,,,,,,,,,,,,,,,,,,,,,,,,81NC,001,2023_Aug_28_1720,ExactRep-v3-final,2021.2.3,59.955884466301605,
,,,,,,,,55,0,55,0,,,,,,,,,,,,,,,,,,,,,,,,,,,,,,,,,,,,,,,,,,,,,,,,,,,,,2545.145350400009,None,,,,,,,,,,,,,,,,,,,,,,,,,,,,,,,,,,,army,95,56,aloud,blue,2543.1452406000462,None,None,2543.1452406000462,None,,,,,,,,,,,,,,,,,,,,,,,,,,,,,,81NC,001,2023_Aug_28_1720,ExactRep-v3-final,2021.2.3,59.955884466301605,
,,,,,,,,56,0,56,0,,,,,,,,,,,,,,,,,,,,,,,,,,,,,,,,,,,,,,,,,,,,,,,,,,,,,2547.6476361000095,None,,,,,,,,,,,,,,,,,,,,,,,,,,,,,,,,,,,fur,19,57,sing,white,2545.646047200018,None,None,2545.646047200018,None,,,,,,,,,,,,,,,,,,,,,,,,,,,,,,81NC,001,2023_Aug_28_1720,ExactRep-v3-final,2021.2.3,59.955884466301605,
,,,,,,,,57,0,57,0,,,,,,,,,,,,,,,,,,,,,,,,,,,,,,,,,,,,,,,,,,,,,,,,,,,,,2550.150313900027,None,,,,,,,,,,,,,,,,,,,,,,,,,,,,,,,,,,,flesh,59,58,silent,red,2548.1485649000388,None,None,2548.1485649000388,None,,,,,,,,,,,,,,,,,,,,,,,,,,,,,,81NC,001,2023_Aug_28_1720,ExactRep-v3-final,2021.2.3,59.955884466301605,
,,,,,,,,58,0,58,0,,,,,,,,,,,,,,,,,,,,,,,,,,,,,,,,,,,,,,,,,,,,,,,,,,,,,2552.6525377000216,None,,,,,,,,,,,,,,,,,,,,,,,,,,,,,,,,,,,library,12,59,sing,white,2550.651517600054,None,None,2550.651517600054,None,,,,,,,,,,,,,,,,,,,,,,,,,,,,,,81NC,001,2023_Aug_28_1720,ExactRep-v3-final,2021.2.3,59.955884466301605,
,,,,,,,,59,0,59,0,,,,,,,,,,,,,,,,,,,,,,,,,,,,,,,,,,,,,,,,,,,,,,,,,,,,,2555.1552579000127,None,,,,,,,,,,,,,,,,,,,,,,,,,,,,,,,,,,,metal,17,60,sing,white,2553.1535123000504,None,None,2553.1535123000504,None,,,,,,,,,,,,,,,,,,,,,,,,,,,,,,81NC,001,2023_Aug_28_1720,ExactRep-v3-final,2021.2.3,59.955884466301605,
,,,,,,,,60,0,60,0,,,,,,,,,,,,,,,,,,,,,,,,,,,,,,,,,,,,,,,,,,,,,,,,,,,,,2557.6576367000234,None,,,,,,,,,,,,,,,,,,,,,,,,,,,,,,,,,,,lad,61,61,silent,red,2555.655744900054,None,None,2555.655744900054,None,,,,,,,,,,,,,,,,,,,,,,,,,,,,,,81NC,001,2023_Aug_28_1720,ExactRep-v3-final,2021.2.3,59.955884466301605,
,,,,,,,,61,0,61,0,,,,,,,,,,,,,,,,,,,,,,,,,,,,,,,,,,,,,,,,,,,,,,,,,,,,,2560.1604319000035,None,,,,,,,,,,,,,,,,,,,,,,,,,,,,,,,,,,,factory,16,62,sing,white,2558.1585037000477,None,None,2558.1585037000477,None,,,,,,,,,,,,,,,,,,,,,,,,,,,,,,81NC,001,2023_Aug_28_1720,ExactRep-v3-final,2021.2.3,59.955884466301605,
,,,,,,,,62,0,62,0,,,,,,,,,,,,,,,,,,,,,,,,,,,,,,,,,,,,,,,,,,,,,,,,,,,,,2562.679593800043,None,,,,,,,,,,,,,,,,,,,,,,,,,,,,,,,,,,,doctor,39,63,silent,red,2560.6642738000373,None,None,2560.6642738000373,None,,,,,,,,,,,,,,,,,,,,,,,,,,,,,,81NC,001,2023_Aug_28_1720,ExactRep-v3-final,2021.2.3,59.955884466301605,
,,,,,,,,63,0,63,0,,,,,,,,,,,,,,,,,,,,,,,,,,,,,,,,,,,,,,,,,,,,,,,,,,,,,2565.1818036000477,None,,,,,,,,,,,,,,,,,,,,,,,,,,,,,,,,,,,officer,67,64,silent,red,2563.1825398000074,None,None,2563.1825398000074,None,,,,,,,,,,,,,,,,,,,,,,,,,,,,,,81NC,001,2023_Aug_28_1720,ExactRep-v3-final,2021.2.3,59.955884466301605,
,,,,,,,,64,0,64,0,,,,,,,,,,,,,,,,,,,,,,,,,,,,,,,,,,,,,,,,,,,,,,,,,,,,,2567.7013340000412,None,,,,,,,,,,,,,,,,,,,,,,,,,,,,,,,,,,,toy,9,65,sing,white,2565.686339900014,None,None,2565.686339900014,None,,,,,,,,,,,,,,,,,,,,,,,,,,,,,,81NC,001,2023_Aug_28_1720,ExactRep-v3-final,2021.2.3,59.955884466301605,
,,,,,,,,65,0,65,0,,,,,,,,,,,,,,,,,,,,,,,,,,,,,,,,,,,,,,,,,,,,,,,,,,,,,2570.203835500055,None,,,,,,,,,,,,,,,,,,,,,,,,,,,,,,,,,,,valley,114,66,aloud,blue,2568.2044287000317,None,None,2568.2044287000317,None,,,,,,,,,,,,,,,,,,,,,,,,,,,,,,81NC,001,2023_Aug_28_1720,ExactRep-v3-final,2021.2.3,59.955884466301605,
,,,,,,,,66,0,66,0,,,,,,,,,,,,,,,,,,,,,,,,,,,,,,,,,,,,,,,,,,,,,,,,,,,,,2572.706289599999,None,,,,,,,,,,,,,,,,,,,,,,,,,,,,,,,,,,,rod,74,67,silent,red,2570.7066840000334,None,None,2570.7066840000334,None,,,,,,,,,,,,,,,,,,,,,,,,,,,,,,81NC,001,2023_Aug_28_1720,ExactRep-v3-final,2021.2.3,59.955884466301605,
,,,,,,,,67,0,67,0,,,,,,,,,,,,,,,,,,,,,,,,,,,,,,,,,,,,,,,,,,,,,,,,,,,,,2575.20879210002,None,,,,,,,,,,,,,,,,,,,,,,,,,,,,,,,,,,,salary,33,68,sing,white,2573.2090070000268,None,None,2573.2090070000268,None,,,,,,,,,,,,,,,,,,,,,,,,,,,,,,81NC,001,2023_Aug_28_1720,ExactRep-v3-final,2021.2.3,59.955884466301605,
,,,,,,,,68,0,68,0,,,,,,,,,,,,,,,,,,,,,,,,,,,,,,,,,,,,,,,,,,,,,,,,,,,,,2577.7276521000313,None,,,,,,,,,,,,,,,,,,,,,,,,,,,,,,,,,,,church,42,69,silent,red,2575.7242595000425,None,None,2575.7242595000425,None,,,,,,,,,,,,,,,,,,,,,,,,,,,,,,81NC,001,2023_Aug_28_1720,ExactRep-v3-final,2021.2.3,59.955884466301605,
,,,,,,,,69,0,69,0,,,,,,,,,,,,,,,,,,,,,,,,,,,,,,,,,,,,,,,,,,,,,,,,,,,,,2580.2304602000513,None,,,,,,,,,,,,,,,,,,,,,,,,,,,,,,,,,,,bottle,18,70,sing,white,2578.2282848000177,None,None,2578.2282848000177,None,,,,,,,,,,,,,,,,,,,,,,,,,,,,,,81NC,001,2023_Aug_28_1720,ExactRep-v3-final,2021.2.3,59.955884466301605,
,,,,,,,,70,0,70,0,,,,,,,,,,,,,,,,,,,,,,,,,,,,,,,,,,,,,,,,,,,,,,,,,,,,,2582.749267600011,None,,,,,,,,,,,,,,,,,,,,,,,,,,,,,,,,,,,star,113,71,aloud,blue,2580.734644800017,None,None,2580.734644800017,None,,,,,,,,,,,,,,,,,,,,,,,,,,,,,,81NC,001,2023_Aug_28_1720,ExactRep-v3-final,2021.2.3,59.955884466301605,
,,,,,,,,71,0,71,0,,,,,,,,,,,,,,,,,,,,,,,,,,,,,,,,,,,,,,,,,,,,,,,,,,,,,2585.251844500017,None,,,,,,,,,,,,,,,,,,,,,,,,,,,,,,,,,,,world,68,72,silent,red,2583.2503419000423,None,None,2583.2503419000423,None,,,,,,,,,,,,,,,,,,,,,,,,,,,,,,81NC,001,2023_Aug_28_1720,ExactRep-v3-final,2021.2.3,59.955884466301605,
,,,,,,,,72,0,72,0,,,,,,,,,,,,,,,,,,,,,,,,,,,,,,,,,,,,,,,,,,,,,,,,,,,,,2587.7542657000013,None,,,,,,,,,,,,,,,,,,,,,,,,,,,,,,,,,,,artist,7,73,sing,white,2585.7533442000276,None,None,2585.7533442000276,None,,,,,,,,,,,,,,,,,,,,,,,,,,,,,,81NC,001,2023_Aug_28_1720,ExactRep-v3-final,2021.2.3,59.955884466301605,
,,,,,,,,73,0,73,0,,,,,,,,,,,,,,,,,,,,,,,,,,,,,,,,,,,,,,,,,,,,,,,,,,,,,2590.257036600029,None,,,,,,,,,,,,,,,,,,,,,,,,,,,,,,,,,,,hotel,31,74,sing,white,2588.255349400046,None,None,2588.255349400046,None,,,,,,,,,,,,,,,,,,,,,,,,,,,,,,81NC,001,2023_Aug_28_1720,ExactRep-v3-final,2021.2.3,59.955884466301605,
,,,,,,,,74,0,74,0,,,,,,,,,,,,,,,,,,,,,,,,,,,,,,,,,,,,,,,,,,,,,,,,,,,,,2592.7596647000173,None,,,,,,,,,,,,,,,,,,,,,,,,,,,,,,,,,,,custom,87,75,aloud,blue,2590.759571100003,None,None,2590.759571100003,None,,,,,,,,,,,,,,,,,,,,,,,,,,,,,,81NC,001,2023_Aug_28_1720,ExactRep-v3-final,2021.2.3,59.955884466301605,
,,,,,,,,75,0,75,0,,,,,,,,,,,,,,,,,,,,,,,,,,,,,,,,,,,,,,,,,,,,,,,,,,,,,2595.278707300022,None,,,,,,,,,,,,,,,,,,,,,,,,,,,,,,,,,,,devil,88,76,aloud,blue,2593.263634400035,None,None,2593.263634400035,None,,,,,,,,,,,,,,,,,,,,,,,,,,,,,,81NC,001,2023_Aug_28_1720,ExactRep-v3-final,2021.2.3,59.955884466301605,
,,,,,,,,76,0,76,0,,,,,,,,,,,,,,,,,,,,,,,,,,,,,,,,,,,,,,,,,,,,,,,,,,,,,2597.7811554000364,None,,,,,,,,,,,,,,,,,,,,,,,,,,,,,,,,,,,pupil,81,77,aloud,blue,2595.781113300007,None,None,2595.781113300007,None,,,,,,,,,,,,,,,,,,,,,,,,,,,,,,81NC,001,2023_Aug_28_1720,ExactRep-v3-final,2021.2.3,59.955884466301605,
,,,,,,,,77,0,77,0,,,,,,,,,,,,,,,,,,,,,,,,,,,,,,,,,,,,,,,,,,,,,,,,,,,,,2600.283867800026,None,,,,,,,,,,,,,,,,,,,,,,,,,,,,,,,,,,,door,30,78,sing,white,2598.2836907000165,None,None,2598.2836907000165,None,,,,,,,,,,,,,,,,,,,,,,,,,,,,,,81NC,001,2023_Aug_28_1720,ExactRep-v3-final,2021.2.3,59.955884466301605,
,,,,,,,,78,0,78,0,,,,,,,,,,,,,,,,,,,,,,,,,,,,,,,,,,,,,,,,,,,,,,,,,,,,,2602.803022100008,None,,,,,,,,,,,,,,,,,,,,,,,,,,,,,,,,,,,party,117,79,aloud,blue,2600.7879253000137,None,None,2600.7879253000137,None,,,,,,,,,,,,,,,,,,,,,,,,,,,,,,81NC,001,2023_Aug_28_1720,ExactRep-v3-final,2021.2.3,59.955884466301605,
,,,,,,,,79,0,79,0,,,,,,,,,,,,,,,,,,,,,,,,,,,,,,,,,,,,,,,,,,,,,,,,,,,,,2605.3057348,None,,,,,,,,,,,,,,,,,,,,,,,,,,,,,,,,,,,poet,20,80,sing,white,2603.306548500026,None,None,2603.306548500026,None,,,,,,,,,,,,,,,,,,,,,,,,,,,,,,81NC,001,2023_Aug_28_1720,ExactRep-v3-final,2021.2.3,59.955884466301605,
,,,,,,,,80,0,80,0,,,,,,,,,,,,,,,,,,,,,,,,,,,,,,,,,,,,,,,,,,,,,,,,,,,,,2607.808016600029,None,,,,,,,,,,,,,,,,,,,,,,,,,,,,,,,,,,,ship,115,81,aloud,blue,2605.8081163000315,None,None,2605.8081163000315,None,,,,,,,,,,,,,,,,,,,,,,,,,,,,,,81NC,001,2023_Aug_28_1720,ExactRep-v3-final,2021.2.3,59.955884466301605,
,,,,,,,,81,0,81,0,,,,,,,,,,,,,,,,,,,,,,,,,,,,,,,,,,,,,,,,,,,,,,,,,,,,,2610.3272585000377,None,,,,,,,,,,,,,,,,,,,,,,,,,,,,,,,,,,,book,38,82,sing,white,2608.3122910000384,None,None,2608.3122910000384,None,,,,,,,,,,,,,,,,,,,,,,,,,,,,,,81NC,001,2023_Aug_28_1720,ExactRep-v3-final,2021.2.3,59.955884466301605,
,,,,,,,,82,0,82,0,,,,,,,,,,,,,,,,,,,,,,,,,,,,,,,,,,,,,,,,,,,,,,,,,,,,,2612.830068100011,None,,,,,,,,,,,,,,,,,,,,,,,,,,,,,,,,,,,brain,51,83,silent,red,2610.8276283000014,None,None,2610.8276283000014,None,,,,,,,,,,,,,,,,,,,,,,,,,,,,,,81NC,001,2023_Aug_28_1720,ExactRep-v3-final,2021.2.3,59.955884466301605,
,,,,,,,,83,0,83,0,,,,,,,,,,,,,,,,,,,,,,,,,,,,,,,,,,,,,,,,,,,,,,,,,,,,,2615.3319732000236,None,,,,,,,,,,,,,,,,,,,,,,,,,,,,,,,,,,,corner,96,84,aloud,blue,2613.330653300043,None,None,2613.330653300043,None,,,,,,,,,,,,,,,,,,,,,,,,,,,,,,81NC,001,2023_Aug_28_1720,ExactRep-v3-final,2021.2.3,59.955884466301605,
,,,,,,,,84,0,84,0,,,,,,,,,,,,,,,,,,,,,,,,,,,,,,,,,,,,,,,,,,,,,,,,,,,,,2617.834757500037,None,,,,,,,,,,,,,,,,,,,,,,,,,,,,,,,,,,,plain,83,85,aloud,blue,2615.833148000005,None,None,2615.833148000005,None,,,,,,,,,,,,,,,,,,,,,,,,,,,,,,81NC,001,2023_Aug_28_1720,ExactRep-v3-final,2021.2.3,59.955884466301605,
,,,,,,,,85,0,85,0,,,,,,,,,,,,,,,,,,,,,,,,,,,,,,,,,,,,,,,,,,,,,,,,,,,,,2620.3538669000263,None,,,,,,,,,,,,,,,,,,,,,,,,,,,,,,,,,,,honour,50,86,silent,red,2618.338856400049,None,None,2618.338856400049,None,,,,,,,,,,,,,,,,,,,,,,,,,,,,,,81NC,001,2023_Aug_28_1720,ExactRep-v3-final,2021.2.3,59.955884466301605,
,,,,,,,,86,0,86,0,,,,,,,,,,,,,,,,,,,,,,,,,,,,,,,,,,,,,,,,,,,,,,,,,,,,,2622.8565252000117,None,,,,,,,,,,,,,,,,,,,,,,,,,,,,,,,,,,,corn,101,87,aloud,blue,2620.85609320004,None,None,2620.85609320004,None,,,,,,,,,,,,,,,,,,,,,,,,,,,,,,81NC,001,2023_Aug_28_1720,ExactRep-v3-final,2021.2.3,59.955884466301605,
,,,,,,,,87,0,87,0,,,,,,,,,,,,,,,,,,,,,,,,,,,,,,,,,,,,,,,,,,,,,,,,,,,,,2625.3753062000033,None,,,,,,,,,,,,,,,,,,,,,,,,,,,,,,,,,,,flood,77,88,silent,red,2623.3624047000194,None,None,2623.3624047000194,None,,,,,,,,,,,,,,,,,,,,,,,,,,,,,,81NC,001,2023_Aug_28_1720,ExactRep-v3-final,2021.2.3,59.955884466301605,
,,,,,,,,88,0,88,0,,,,,,,,,,,,,,,,,,,,,,,,,,,,,,,,,,,,,,,,,,,,,,,,,,,,,2627.8780239000334,None,,,,,,,,,,,,,,,,,,,,,,,,,,,,,,,,,,,heaven,23,89,sing,white,2625.8760315000545,None,None,2625.8760315000545,None,,,,,,,,,,,,,,,,,,,,,,,,,,,,,,81NC,001,2023_Aug_28_1720,ExactRep-v3-final,2021.2.3,59.955884466301605,
,,,,,,,,89,0,89,0,,,,,,,,,,,,,,,,,,,,,,,,,,,,,,,,,,,,,,,,,,,,,,,,,,,,,2630.3969303000486,None,,,,,,,,,,,,,,,,,,,,,,,,,,,,,,,,,,,humour,99,90,aloud,blue,2628.3820410000044,None,None,2628.3820410000044,None,,,,,,,,,,,,,,,,,,,,,,,,,,,,,,81NC,001,2023_Aug_28_1720,ExactRep-v3-final,2021.2.3,59.955884466301605,
,,,,,,,,90,0,90,0,,,,,,,,,,,,,,,,,,,,,,,,,,,,,,,,,,,,,,,,,,,,,,,,,,,,,2632.899721200054,None,,,,,,,,,,,,,,,,,,,,,,,,,,,,,,,,,,,virtue,40,91,silent,red,2630.8974488000385,None,None,2630.8974488000385,None,,,,,,,,,,,,,,,,,,,,,,,,,,,,,,81NC,001,2023_Aug_28_1720,ExactRep-v3-final,2021.2.3,59.955884466301605,
,,,,,,,,91,0,91,0,,,,,,,,,,,,,,,,,,,,,,,,,,,,,,,,,,,,,,,,,,,,,,,,,,,,,2635.4186933000456,None,,,,,,,,,,,,,,,,,,,,,,,,,,,,,,,,,,,river,64,92,silent,red,2633.403672900051,None,None,2633.403672900051,None,,,,,,,,,,,,,,,,,,,,,,,,,,,,,,81NC,001,2023_Aug_28_1720,ExactRep-v3-final,2021.2.3,59.955884466301605,
,,,,,,,,92,0,92,0,,,,,,,,,,,,,,,,,,,,,,,,,,,,,,,,,,,,,,,,,,,,,,,,,,,,,2637.9215441000415,None,,,,,,,,,,,,,,,,,,,,,,,,,,,,,,,,,,,paper,102,93,aloud,blue,2635.9218795000343,None,None,2635.9218795000343,None,,,,,,,,,,,,,,,,,,,,,,,,,,,,,,81NC,001,2023_Aug_28_1720,ExactRep-v3-final,2021.2.3,59.955884466301605,
,,,,,,,,93,0,93,0,,,,,,,,,,,,,,,,,,,,,,,,,,,,,,,,,,,,,,,,,,,,,,,,,,,,,2640.423602199997,None,,,,,,,,,,,,,,,,,,,,,,,,,,,,,,,,,,,girl,56,94,silent,red,2638.424224700022,None,None,2638.424224700022,None,,,,,,,,,,,,,,,,,,,,,,,,,,,,,,81NC,001,2023_Aug_28_1720,ExactRep-v3-final,2021.2.3,59.955884466301605,
,,,,,,,,94,0,94,0,,,,,,,,,,,,,,,,,,,,,,,,,,,,,,,,,,,,,,,,,,,,,,,,,,,,,2642.9415978000034,None,,,,,,,,,,,,,,,,,,,,,,,,,,,,,,,,,,,health,46,95,silent,red,2640.9292832000065,None,None,2640.9292832000065,None,,,,,,,,,,,,,,,,,,,,,,,,,,,,,,81NC,001,2023_Aug_28_1720,ExactRep-v3-final,2021.2.3,59.955884466301605,
,,,,,,,,95,0,95,0,,,,,,,,,,,,,,,,,,,,,,,,,,,,,,,,,,,,,,,,,,,,,,,,,,,,,2645.462294900033,None,,,,,,,,,,,,,,,,,,,,,,,,,,,,,,,,,,,plant,11,96,sing,white,2643.447050100018,None,None,2643.447050100018,None,,,,,,,,,,,,,,,,,,,,,,,,,,,,,,81NC,001,2023_Aug_28_1720,ExactRep-v3-final,2021.2.3,59.955884466301605,
,,,,,,,,96,0,96,0,,,,,,,,,,,,,,,,,,,,,,,,,,,,,,,,,,,,,,,,,,,,,,,,,,,,,2647.964747400023,None,,,,,,,,,,,,,,,,,,,,,,,,,,,,,,,,,,,market,80,97,aloud,blue,2645.9655053000315,None,None,2645.9655053000315,None,,,,,,,,,,,,,,,,,,,,,,,,,,,,,,81NC,001,2023_Aug_28_1720,ExactRep-v3-final,2021.2.3,59.955884466301605,
,,,,,,,,97,0,97,0,,,,,,,,,,,,,,,,,,,,,,,,,,,,,,,,,,,,,,,,,,,,,,,,,,,,,2650.46727990004,None,,,,,,,,,,,,,,,,,,,,,,,,,,,,,,,,,,,storm,75,98,silent,red,2648.4678894000244,None,None,2648.4678894000244,None,,,,,,,,,,,,,,,,,,,,,,,,,,,,,,81NC,001,2023_Aug_28_1720,ExactRep-v3-final,2021.2.3,59.955884466301605,
,,,,,,,,98,0,98,0,,,,,,,,,,,,,,,,,,,,,,,,,,,,,,,,,,,,,,,,,,,,,,,,,,,,,2652.9861649000086,None,,,,,,,,,,,,,,,,,,,,,,,,,,,,,,,,,,,flag,85,99,aloud,blue,2650.972132100025,None,None,2650.972132100025,None,,,,,,,,,,,,,,,,,,,,,,,,,,,,,,81NC,001,2023_Aug_28_1720,ExactRep-v3-final,2021.2.3,59.955884466301605,
,,,,,,,,99,0,99,0,,,,,,,,,,,,,,,,,,,,,,,,,,,,,,,,,,,,,,,,,,,,,,,,,,,,,2655.505339000025,None,,,,,,,,,,,,,,,,,,,,,,,,,,,,,,,,,,,dream,37,100,sing,white,2653.4897821000195,None,None,2653.4897821000195,None,,,,,,,,,,,,,,,,,,,,,,,,,,,,,,81NC,001,2023_Aug_28_1720,ExactRep-v3-final,2021.2.3,59.955884466301605,
,,,,,,,,100,0,100,0,,,,,,,,,,,,,,,,,,,,,,,,,,,,,,,,,,,,,,,,,,,,,,,,,,,,,2658.0253609000356,None,,,,,,,,,,,,,,,,,,,,,,,,,,,,,,,,,,,bowl,28,101,sing,white,2656.013530199998,None,None,2656.013530199998,None,,,,,,,,,,,,,,,,,,,,,,,,,,,,,,81NC,001,2023_Aug_28_1720,ExactRep-v3-final,2021.2.3,59.955884466301605,
,,,,,,,,101,0,101,0,,,,,,,,,,,,,,,,,,,,,,,,,,,,,,,,,,,,,,,,,,,,,,,,,,,,,2660.527200900018,None,,,,,,,,,,,,,,,,,,,,,,,,,,,,,,,,,,,teacher,8,102,sing,white,2658.526367100014,None,None,2658.526367100014,None,,,,,,,,,,,,,,,,,,,,,,,,,,,,,,81NC,001,2023_Aug_28_1720,ExactRep-v3-final,2021.2.3,59.955884466301605,
,,,,,,,,102,0,102,0,,,,,,,,,,,,,,,,,,,,,,,,,,,,,,,,,,,,,,,,,,,,,,,,,,,,,2663.029161900049,None,,,,,,,,,,,,,,,,,,,,,,,,,,,,,,,,,,,pole,25,103,sing,white,2661.0275920000277,None,None,2661.0275920000277,None,,,,,,,,,,,,,,,,,,,,,,,,,,,,,,81NC,001,2023_Aug_28_1720,ExactRep-v3-final,2021.2.3,59.955884466301605,
,,,,,,,,103,0,103,0,,,,,,,,,,,,,,,,,,,,,,,,,,,,,,,,,,,,,,,,,,,,,,,,,,,,,2665.532016900019,None,,,,,,,,,,,,,,,,,,,,,,,,,,,,,,,,,,,boulder,76,104,silent,red,2663.5304432000266,None,None,2663.5304432000266,None,,,,,,,,,,,,,,,,,,,,,,,,,,,,,,81NC,001,2023_Aug_28_1720,ExactRep-v3-final,2021.2.3,59.955884466301605,
,,,,,,,,104,0,104,0,,,,,,,,,,,,,,,,,,,,,,,,,,,,,,,,,,,,,,,,,,,,,,,,,,,,,2668.034821500012,None,,,,,,,,,,,,,,,,,,,,,,,,,,,,,,,,,,,wheat,34,105,sing,white,2666.032270000025,None,None,2666.032270000025,None,,,,,,,,,,,,,,,,,,,,,,,,,,,,,,81NC,001,2023_Aug_28_1720,ExactRep-v3-final,2021.2.3,59.955884466301605,
,,,,,,,,105,0,105,0,,,,,,,,,,,,,,,,,,,,,,,,,,,,,,,,,,,,,,,,,,,,,,,,,,,,,2670.5540446000523,None,,,,,,,,,,,,,,,,,,,,,,,,,,,,,,,,,,,pipe,73,106,silent,red,2668.5391485000146,None,None,2668.5391485000146,None,,,,,,,,,,,,,,,,,,,,,,,,,,,,,,81NC,001,2023_Aug_28_1720,ExactRep-v3-final,2021.2.3,59.955884466301605,
,,,,,,,,106,0,106,0,,,,,,,,,,,,,,,,,,,,,,,,,,,,,,,,,,,,,,,,,,,,,,,,,,,,,2673.0561715000076,None,,,,,,,,,,,,,,,,,,,,,,,,,,,,,,,,,,,clock,69,107,silent,red,2671.056723900023,None,None,2671.056723900023,None,,,,,,,,,,,,,,,,,,,,,,,,,,,,,,81NC,001,2023_Aug_28_1720,ExactRep-v3-final,2021.2.3,59.955884466301605,
,,,,,,,,107,0,107,0,,,,,,,,,,,,,,,,,,,,,,,,,,,,,,,,,,,,,,,,,,,,,,,,,,,,,2675.5586949000135,None,,,,,,,,,,,,,,,,,,,,,,,,,,,,,,,,,,,charm,1,108,sing,white,2673.559611600009,None,None,2673.559611600009,None,,,,,,,,,,,,,,,,,,,,,,,,,,,,,,81NC,001,2023_Aug_28_1720,ExactRep-v3-final,2021.2.3,59.955884466301605,
,,,,,,,,108,0,108,0,,,,,,,,,,,,,,,,,,,,,,,,,,,,,,,,,,,,,,,,,,,,,,,,,,,,,2678.0611643000157,None,,,,,,,,,,,,,,,,,,,,,,,,,,,,,,,,,,,letter,43,109,silent,red,2676.059747200052,None,None,2676.059747200052,None,,,,,,,,,,,,,,,,,,,,,,,,,,,,,,81NC,001,2023_Aug_28_1720,ExactRep-v3-final,2021.2.3,59.955884466301605,
,,,,,,,,109,0,109,0,,,,,,,,,,,,,,,,,,,,,,,,,,,,,,,,,,,,,,,,,,,,,,,,,,,,,2680.5637002000003,None,,,,,,,,,,,,,,,,,,,,,,,,,,,,,,,,,,,meat,86,110,aloud,blue,2678.562732100021,None,None,2678.562732100021,None,,,,,,,,,,,,,,,,,,,,,,,,,,,,,,81NC,001,2023_Aug_28_1720,ExactRep-v3-final,2021.2.3,59.955884466301605,
,,,,,,,,110,0,110,0,,,,,,,,,,,,,,,,,,,,,,,,,,,,,,,,,,,,,,,,,,,,,,,,,,,,,2683.0661598000443,None,,,,,,,,,,,,,,,,,,,,,,,,,,,,,,,,,,,mercy,103,111,aloud,blue,2681.0645933000487,None,None,2681.0645933000487,None,,,,,,,,,,,,,,,,,,,,,,,,,,,,,,81NC,001,2023_Aug_28_1720,ExactRep-v3-final,2021.2.3,59.955884466301605,
,,,,,,,,111,0,111,0,,,,,,,,,,,,,,,,,,,,,,,,,,,,,,,,,,,,,,,,,,,,,,,,,,,,,2685.5690355999977,None,,,,,,,,,,,,,,,,,,,,,,,,,,,,,,,,,,,crime,14,112,sing,white,2683.567213900038,None,None,2683.567213900038,None,,,,,,,,,,,,,,,,,,,,,,,,,,,,,,81NC,001,2023_Aug_28_1720,ExactRep-v3-final,2021.2.3,59.955884466301605,
,,,,,,,,112,0,112,0,,,,,,,,,,,,,,,,,,,,,,,,,,,,,,,,,,,,,,,,,,,,,,,,,,,,,2688.088161200052,None,,,,,,,,,,,,,,,,,,,,,,,,,,,,,,,,,,,flower,5,113,sing,white,2686.0727465000236,None,None,2686.0727465000236,None,,,,,,,,,,,,,,,,,,,,,,,,,,,,,,81NC,001,2023_Aug_28_1720,ExactRep-v3-final,2021.2.3,59.955884466301605,
,,,,,,,,113,0,113,0,,,,,,,,,,,,,,,,,,,,,,,,,,,,,,,,,,,,,,,,,,,,,,,,,,,,,2690.5908356000436,None,,,,,,,,,,,,,,,,,,,,,,,,,,,,,,,,,,,slave,29,114,sing,white,2688.591351500014,None,None,2688.591351500014,None,,,,,,,,,,,,,,,,,,,,,,,,,,,,,,81NC,001,2023_Aug_28_1720,ExactRep-v3-final,2021.2.3,59.955884466301605,
,,,,,,,,114,0,114,0,,,,,,,,,,,,,,,,,,,,,,,,,,,,,,,,,,,,,,,,,,,,,,,,,,,,,2693.1096520000137,None,,,,,,,,,,,,,,,,,,,,,,,,,,,,,,,,,,,avenue,13,115,sing,white,2691.09446750005,None,None,2691.09446750005,None,,,,,,,,,,,,,,,,,,,,,,,,,,,,,,81NC,001,2023_Aug_28_1720,ExactRep-v3-final,2021.2.3,59.955884466301605,
,,,,,,,,115,0,115,0,,,,,,,,,,,,,,,,,,,,,,,,,,,,,,,,,,,,,,,,,,,,,,,,,,,,,2695.6120483000414,None,,,,,,,,,,,,,,,,,,,,,,,,,,,,,,,,,,,mind,71,116,silent,red,2693.6104957000352,None,None,2693.6104957000352,None,,,,,,,,,,,,,,,,,,,,,,,,,,,,,,81NC,001,2023_Aug_28_1720,ExactRep-v3-final,2021.2.3,59.955884466301605,
,,,,,,,,116,0,116,0,,,,,,,,,,,,,,,,,,,,,,,,,,,,,,,,,,,,,,,,,,,,,,,,,,,,,2698.1315519000054,None,,,,,,,,,,,,,,,,,,,,,,,,,,,,,,,,,,,chance,57,117,silent,red,2696.12082510005,None,None,2696.12082510005,None,,,,,,,,,,,,,,,,,,,,,,,,,,,,,,81NC,001,2023_Aug_28_1720,ExactRep-v3-final,2021.2.3,59.955884466301605,
,,,,,,,,117,0,117,0,,,,,,,,,,,,,,,,,,,,,,,,,,,,,,,,,,,,,,,,,,,,,,,,,,,,,2700.650707300054,None,,,,,,,,,,,,,,,,,,,,,,,,,,,,,,,,,,,winter,91,118,aloud,blue,2698.6395319000003,None,None,2698.6395319000003,None,,,,,,,,,,,,,,,,,,,,,,,,,,,,,,81NC,001,2023_Aug_28_1720,ExactRep-v3-final,2021.2.3,59.955884466301605,
,,,,,,,,118,0,118,0,,,,,,,,,,,,,,,,,,,,,,,,,,,,,,,,,,,,,,,,,,,,,,,,,,,,,2703.169696900004,None,,,,,,,,,,,,,,,,,,,,,,,,,,,,,,,,,,,doll,2,119,sing,white,2701.1581423000316,None,None,2701.1581423000316,None,,,,,,,,,,,,,,,,,,,,,,,,,,,,,,81NC,001,2023_Aug_28_1720,ExactRep-v3-final,2021.2.3,59.955884466301605,
,,,,,,,,119,0,119,0,,,,,,,,,,,,,,,,,,,,,,,,,,,,,,,,,,,,,,,,,,,,,,,,,,,,,2705.6725396000547,None,,,,,,,,,,,,,,,,,,,,,,,,,,,,,,,,,,,earth,97,120,aloud,blue,2703.6700363000273,None,None,2703.6700363000273,None,,,,,,,,,,,,,,,,,,,,,,,,,,,,,,81NC,001,2023_Aug_28_1720,ExactRep-v3-final,2021.2.3,59.955884466301605,
,,,,,,,,,,,,,,,,,,,,,,,,,,,,,,,,,,,,,,,,,,,,,,,,,,,,,,,,,,,,,,,,,,,,,,,,,,,,,,,,,,,,,,,,,,,,,,,,,,,,,,,,,,,,,,2706.174124000012,None,space,1.6963168000220321,2716.150369000039,None,,,,,,,,,,,,,,,,,,,,,,,,81NC,001,2023_Aug_28_1720,ExactRep-v3-final,2021.2.3,59.955884466301605,
,,,,,,,,,,,,,,,,,,,,,,,,,,,,,,,,,,,,,,,,,,,,,,,,,,,,,,,,,,,,,,,,,,,,,,,,,,,,,,,,,,,,,,,,,,,,,,,,,,,,,,,,,,,,,,,,,,,,2717.8695479000453,None,space,38.03363750001881,2727.8449900000123,None,,,,,,,,,,,,,,,,,,81NC,001,2023_Aug_28_1720,ExactRep-v3-final,2021.2.3,59.955884466301605,
,,,,,,,,,,,,0,0,0,0,,,,,,,,,,,,,,,,,,,,,,,,,,,,,,,,,,,,,,,,,,,,,,,,,2783.7686385000125,None,,,,,,,,,,,,,,,,,,,,,,,,,,,,,,,,,,,,,,,,,,,,,,,,,,,,,,,,,vessel,130,1,silent,new,yellow,2766.4090719000087,None,y,2766.4090719000087,None,"['y', 'return']","[8.109363700030372, 17.31719080003677]",2766.4090719000087,None,,,81NC,001,2023_Aug_28_1720,ExactRep-v3-final,2021.2.3,59.955884466301605,
,,,,,,,,,,,,1,0,1,0,,,,,,,,,,,,,,,,,,,,,,,,,,,,,,,,,,,,,,,,,,,,,,,,,2795.6458196000312,None,,,,,,,,,,,,,,,,,,,,,,,,,,,,,,,,,,,,,,,,,,,,,,,,,,,,,,,,,nail,143,2,silent,new,yellow,2784.284825800045,None,n,2784.284825800045,None,"['n', 'return']","[9.761396599991713, 11.313599599990994]",2784.284825800045,None,,,81NC,001,2023_Aug_28_1720,ExactRep-v3-final,2021.2.3,59.955884466301605,
,,,,,,,,,,,,2,0,2,0,,,,,,,,,,,,,,,,,,,,,,,,,,,,,,,,,,,,,,,,,,,,,,,,,2798.4663223000243,None,,,,,,,,,,,,,,,,,,,,,,,,,,,,,,,,,,,,,,,,,,,,,,,,,,,,,,,,,series,183,3,sing,new,yellow,2796.148277100001,None,n,2796.148277100001,None,"['n', 'return']","[1.4501323999720626, 2.273966999957338]",2796.148277100001,None,,,81NC,001,2023_Aug_28_1720,ExactRep-v3-final,2021.2.3,59.955884466301605,
,,,,,,,,,,,,3,0,3,0,,,,,,,,,,,,,,,,,,,,,,,,,,,,,,,,,,,,,,,,,,,,,,,,,2801.502721800003,None,,,,,,,,,,,,,,,,,,,,,,,,,,,,,,,,,,,,,,,,,,,,,,,,,,,,,,,,,time,124,4,silent,new,yellow,2798.9672029000358,None,n,2798.9672029000358,None,"['n', 'return']","[1.9190098000108264, 2.4950496000237763]",2798.9672029000358,None,,,81NC,001,2023_Aug_28_1720,ExactRep-v3-final,2021.2.3,59.955884466301605,
,,,,,,,,,,,,4,0,4,0,,,,,,,,,,,,,,,,,,,,,,,,,,,,,,,,,,,,,,,,,,,,,,,,,2804.0715199999977,None,,,,,,,,,,,,,,,,,,,,,,,,,,,,,,,,,,,,,,,,,,,,,,,,,,,,,,,,,person,225,5,sing,new,yellow,2802.0148116000346,None,n,2802.0148116000346,None,"['n', 'return']","[1.4394199999514967, 2.00740429997677]",2802.0148116000346,None,,,81NC,001,2023_Aug_28_1720,ExactRep-v3-final,2021.2.3,59.955884466301605,
,,,,,,,,,,,,5,0,5,0,,,,,,,,,,,,,,,,,,,,,,,,,,,,,,,,,,,,,,,,,,,,,,,,,2806.624591300031,None,,,,,,,,,,,,,,,,,,,,,,,,,,,,,,,,,,,,,,,,,,,,,,,,,,,,,,,,,vision,146,6,silent,new,yellow,2804.5729941000463,None,n,2804.5729941000463,None,"['n', 'return']","[1.4654445999767631, 2.0092941999901086]",2804.5729941000463,None,,,81NC,001,2023_Aug_28_1720,ExactRep-v3-final,2021.2.3,59.955884466301605,
,,,,,,,,,,,,6,0,6,0,,,,,,,,,,,,,,,,,,,,,,,,,,,,,,,,,,,,,,,,,,,,,,,,,2809.844278900011,None,,,,,,,,,,,,,,,,,,,,,,,,,,,,,,,,,,,,,,,,,,,,,,,,,,,,,,,,,temple,78,7,silent,old,yellow,2807.155520200031,None,y,2807.155520200031,None,"['y', 'return']","[2.0586729000206105, 2.6426405000383966]",2807.155520200031,None,,,81NC,001,2023_Aug_28_1720,ExactRep-v3-final,2021.2.3,59.955884466301605,
,,,,,,,,,,,,7,0,7,0,,,,,,,,,,,,,,,,,,,,,,,,,,,,,,,,,,,,,,,,,,,,,,,,,2812.5637749000452,None,,,,,,,,,,,,,,,,,,,,,,,,,,,,,,,,,,,,,,,,,,,,,,,,,,,,,,,,,student,27,8,sing,old,yellow,2810.345600700006,None,y,2810.345600700006,None,"['y', 'return']","[1.6046854000305757, 2.1726072000456043]",2810.345600700006,None,,,81NC,001,2023_Aug_28_1720,ExactRep-v3-final,2021.2.3,59.955884466301605,
,,,,,,,,,,,,8,0,8,0,,,,,,,,,,,,,,,,,,,,,,,,,,,,,,,,,,,,,,,,,,,,,,,,,2815.032924500003,None,,,,,,,,,,,,,,,,,,,,,,,,,,,,,,,,,,,,,,,,,,,,,,,,,,,,,,,,,meat,86,9,aloud,old,yellow,2813.0647421000176,None,y,2813.0647421000176,None,"['y', 'return']","[1.3734968000208028, 1.925504200044088]",2813.0647421000176,None,,,81NC,001,2023_Aug_28_1720,ExactRep-v3-final,2021.2.3,59.955884466301605,
,,,,,,,,,,,,9,0,9,0,,,,,,,,,,,,,,,,,,,,,,,,,,,,,,,,,,,,,,,,,,,,,,,,,2819.4372798000113,None,,,,,,,,,,,,,,,,,,,,,,,,,,,,,,,,,,,,,,,,,,,,,,,,,,,,,,,,,steam,62,10,silent,old,yellow,2815.5397844000254,None,y,2815.5397844000254,None,"['y', 'return']","[2.9703957999590784, 3.858479199989233]",2815.5397844000254,None,,,81NC,001,2023_Aug_28_1720,ExactRep-v3-final,2021.2.3,59.955884466301605,
,,,,,,,,,,,,10,0,10,0,,,,,,,,,,,,,,,,,,,,,,,,,,,,,,,,,,,,,,,,,,,,,,,,,2822.4237268000143,None,,,,,,,,,,,,,,,,,,,,,,,,,,,,,,,,,,,,,,,,,,,,,,,,,,,,,,,,,rod,74,11,silent,old,yellow,2819.9615217000246,None,n,2819.9615217000246,None,"['n', 'return']","[1.9087371000205167, 2.412796900025569]",2819.9615217000246,None,,,81NC,001,2023_Aug_28_1720,ExactRep-v3-final,2021.2.3,59.955884466301605,
,,,,,,,,,,,,11,0,11,0,,,,,,,,,,,,,,,,,,,,,,,,,,,,,,,,,,,,,,,,,,,,,,,,,2824.542674800032,None,,,,,,,,,,,,,,,,,,,,,,,,,,,,,,,,,,,,,,,,,,,,,,,,,,,,,,,,,chief,174,12,aloud,new,yellow,2822.9397497000173,None,n,2822.9397497000173,None,"['n', 'return']","[1.058521600032691, 1.5624844999983907]",2822.9397497000173,None,,,81NC,001,2023_Aug_28_1720,ExactRep-v3-final,2021.2.3,59.955884466301605,
,,,,,,,,,,,,12,0,12,0,,,,,,,,,,,,,,,,,,,,,,,,,,,,,,,,,,,,,,,,,,,,,,,,,2826.728196900047,None,,,,,,,,,,,,,,,,,,,,,,,,,,,,,,,,,,,,,,,,,,,,,,,,,,,,,,,,,cost,196,13,aloud,new,yellow,2825.058604400023,None,n,2825.058604400023,None,"['n', 'return']","[1.1320525000337511, 1.6355136000202037]",2825.058604400023,None,,,81NC,001,2023_Aug_28_1720,ExactRep-v3-final,2021.2.3,59.955884466301605,
,,,,,,,,,,,,13,0,13,0,,,,,,,,,,,,,,,,,,,,,,,,,,,,,,,,,,,,,,,,,,,,,,,,,2830.1812859000056,None,,,,,,,,,,,,,,,,,,,,,,,,,,,,,,,,,,,,,,,,,,,,,,,,,,,,,,,,,answer,107,14,aloud,old,yellow,2827.2441390000167,None,y,2827.2441390000167,None,"['y', 'return']","[2.3221504000248387, 2.8981201000278816]",2827.2441390000167,None,,,81NC,001,2023_Aug_28_1720,ExactRep-v3-final,2021.2.3,59.955884466301605,
,,,,,,,,,,,,14,0,14,0,,,,,,,,,,,,,,,,,,,,,,,,,,,,,,,,,,,,,,,,,,,,,,,,,2832.60060590005,None,,,,,,,,,,,,,,,,,,,,,,,,,,,,,,,,,,,,,,,,,,,,,,,,,,,,,,,,,wheat,34,15,sing,old,yellow,2830.6984662000323,None,n,2830.6984662000323,None,"['n', 'return']","[1.3717401000321843, 1.8677530999993905]",2830.6984662000323,None,,,81NC,001,2023_Aug_28_1720,ExactRep-v3-final,2021.2.3,59.955884466301605,
,,,,,,,,,,,,15,0,15,0,,,,,,,,,,,,,,,,,,,,,,,,,,,,,,,,,,,,,,,,,,,,,,,,,2834.869310900045,None,,,,,,,,,,,,,,,,,,,,,,,,,,,,,,,,,,,,,,,,,,,,,,,,,,,,,,,,,sugar,127,16,silent,new,yellow,2833.1082872000406,None,n,2833.1082872000406,None,"['n', 'return']","[1.1540145000326447, 1.713935700012371]",2833.1082872000406,None,,,81NC,001,2023_Aug_28_1720,ExactRep-v3-final,2021.2.3,59.955884466301605,
,,,,,,,,,,,,16,0,16,0,,,,,,,,,,,,,,,,,,,,,,,,,,,,,,,,,,,,,,,,,,,,,,,,,2836.971631100052,None,,,,,,,,,,,,,,,,,,,,,,,,,,,,,,,,,,,,,,,,,,,,,,,,,,,,,,,,,lad,61,17,silent,old,yellow,2835.386528300005,None,n,2835.386528300005,None,"['n', 'return']","[1.051822999957949, 1.539654399966821]",2835.386528300005,None,,,81NC,001,2023_Aug_28_1720,ExactRep-v3-final,2021.2.3,59.955884466301605,
,,,,,,,,,,,,17,0,17,0,,,,,,,,,,,,,,,,,,,,,,,,,,,,,,,,,,,,,,,,,,,,,,,,,2839.2073376000044,None,,,,,,,,,,,,,,,,,,,,,,,,,,,,,,,,,,,,,,,,,,,,,,,,,,,,,,,,,author,82,18,aloud,old,yellow,2837.4895385000273,None,n,2837.4895385000273,None,"['n', 'return']","[1.1248131000320427, 1.6687967000179924]",2837.4895385000273,None,,,81NC,001,2023_Aug_28_1720,ExactRep-v3-final,2021.2.3,59.955884466301605,
,,,,,,,,,,,,18,0,18,0,,,,,,,,,,,,,,,,,,,,,,,,,,,,,,,,,,,,,,,,,,,,,,,,,2841.9433857999975,None,,,,,,,,,,,,,,,,,,,,,,,,,,,,,,,,,,,,,,,,,,,,,,,,,,,,,,,,,child,132,19,silent,new,yellow,2839.724364200025,None,y,2839.724364200025,None,"['y', 'return']","[1.6098350000102073, 2.1698913000291213]",2839.724364200025,None,,,81NC,001,2023_Aug_28_1720,ExactRep-v3-final,2021.2.3,59.955884466301605,
,,,,,,,,,,,,19,0,19,0,,,,,,,,,,,,,,,,,,,,,,,,,,,,,,,,,,,,,,,,,,,,,,,,,2844.362061600026,None,,,,,,,,,,,,,,,,,,,,,,,,,,,,,,,,,,,,,,,,,,,,,,,,,,,,,,,,,salary,33,20,sing,old,yellow,2842.4602779000415,None,y,2842.4602779000415,None,"['y', 'return']","[1.2899144000257365, 1.8661018999991938]",2842.4602779000415,None,,,81NC,001,2023_Aug_28_1720,ExactRep-v3-final,2021.2.3,59.955884466301605,
,,,,,,,,,,,,20,0,20,0,,,,,,,,,,,,,,,,,,,,,,,,,,,,,,,,,,,,,,,,,,,,,,,,,2846.713803999999,None,,,,,,,,,,,,,,,,,,,,,,,,,,,,,,,,,,,,,,,,,,,,,,,,,,,,,,,,,toy,9,21,sing,old,yellow,2844.878071000043,None,y,2844.878071000043,None,"['y', 'return']","[1.200375099957455, 1.7920906000072137]",2844.878071000043,None,,,81NC,001,2023_Aug_28_1720,ExactRep-v3-final,2021.2.3,59.955884466301605,
,,,,,,,,,,,,21,0,21,0,,,,,,,,,,,,,,,,,,,,,,,,,,,,,,,,,,,,,,,,,,,,,,,,,2849.1168922000215,None,,,,,,,,,,,,,,,,,,,,,,,,,,,,,,,,,,,,,,,,,,,,,,,,,,,,,,,,,corner,96,22,aloud,old,yellow,2847.227245100017,None,n,2847.227245100017,None,"['n', 'return']","[1.3469321000156924, 1.84291150001809]",2847.227245100017,None,,,81NC,001,2023_Aug_28_1720,ExactRep-v3-final,2021.2.3,59.955884466301605,
,,,,,,,,,,,,22,0,22,0,,,,,,,,,,,,,,,,,,,,,,,,,,,,,,,,,,,,,,,,,,,,,,,,,2851.3357706000097,None,,,,,,,,,,,,,,,,,,,,,,,,,,,,,,,,,,,,,,,,,,,,,,,,,,,,,,,,,cash,3,23,sing,old,yellow,2849.6355271000066,None,y,2849.6355271000066,None,"['y', 'return']","[1.106678899959661, 1.6507812999770977]",2849.6355271000066,None,,,81NC,001,2023_Aug_28_1720,ExactRep-v3-final,2021.2.3,59.955884466301605,
,,,,,,,,,,,,23,0,23,0,,,,,,,,,,,,,,,,,,,,,,,,,,,,,,,,,,,,,,,,,,,,,,,,,2853.7050310000195,None,,,,,,,,,,,,,,,,,,,,,,,,,,,,,,,,,,,,,,,,,,,,,,,,,,,,,,,,,wife,172,24,aloud,new,yellow,2851.8557063000044,None,n,2851.8557063000044,None,"['n', 'return']","[1.262456199969165, 1.8064944999641739]",2851.8557063000044,None,,,81NC,001,2023_Aug_28_1720,ExactRep-v3-final,2021.2.3,59.955884466301605,
,,,,,,,,,,,,24,0,24,0,,,,,,,,,,,,,,,,,,,,,,,,,,,,,,,,,,,,,,,,,,,,,,,,,2856.074496300018,None,,,,,,,,,,,,,,,,,,,,,,,,,,,,,,,,,,,,,,,,,,,,,,,,,,,,,,,,,circle,93,25,aloud,old,yellow,2854.222410400049,None,n,2854.222410400049,None,"['n', 'return']","[1.2798310000216588, 1.8078715999727137]",2854.222410400049,None,,,81NC,001,2023_Aug_28_1720,ExactRep-v3-final,2021.2.3,59.955884466301605,
,,,,,,,,,,,,25,0,25,0,,,,,,,,,,,,,,,,,,,,,,,,,,,,,,,,,,,,,,,,,,,,,,,,,2858.2763856000383,None,,,,,,,,,,,,,,,,,,,,,,,,,,,,,,,,,,,,,,,,,,,,,,,,,,,,,,,,,blossom,162,26,aloud,new,yellow,2856.5975076000323,None,n,2856.5975076000323,None,"['n', 'return']","[1.1447973999893293, 1.6326516999979503]",2856.5975076000323,None,,,81NC,001,2023_Aug_28_1720,ExactRep-v3-final,2021.2.3,59.955884466301605,
,,,,,,,,,,,,26,0,26,0,,,,,,,,,,,,,,,,,,,,,,,,,,,,,,,,,,,,,,,,,,,,,,,,,2861.7132120000315,None,,,,,,,,,,,,,,,,,,,,,,,,,,,,,,,,,,,,,,,,,,,,,,,,,,,,,,,,,city,116,27,aloud,old,yellow,2858.792535900022,None,n,2858.792535900022,None,"['n', 'return']","[2.357589600025676, 2.8856625000480562]",2858.792535900022,None,,,81NC,001,2023_Aug_28_1720,ExactRep-v3-final,2021.2.3,59.955884466301605,
,,,,,,,,,,,,27,0,27,0,,,,,,,,,,,,,,,,,,,,,,,,,,,,,,,,,,,,,,,,,,,,,,,,,2863.8316545000416,None,,,,,,,,,,,,,,,,,,,,,,,,,,,,,,,,,,,,,,,,,,,,,,,,,,,,,,,,,lord,180,28,aloud,new,yellow,2862.2292911999975,None,n,2862.2292911999975,None,"['n', 'return']","[1.0570338999968953, 1.5609474999946542]",2862.2292911999975,None,,,81NC,001,2023_Aug_28_1720,ExactRep-v3-final,2021.2.3,59.955884466301605,
,,,,,,,,,,,,28,0,28,0,,,,,,,,,,,,,,,,,,,,,,,,,,,,,,,,,,,,,,,,,,,,,,,,,2866.1675116000115,None,,,,,,,,,,,,,,,,,,,,,,,,,,,,,,,,,,,,,,,,,,,,,,,,,,,,,,,,,cottage,238,29,aloud,new,yellow,2864.3488364000223,None,n,2864.3488364000223,None,"['n', 'return']","[1.2977489000186324, 1.78538340004161]",2864.3488364000223,None,,,81NC,001,2023_Aug_28_1720,ExactRep-v3-final,2021.2.3,59.955884466301605,
,,,,,,,,,,,,29,0,29,0,,,,,,,,,,,,,,,,,,,,,,,,,,,,,,,,,,,,,,,,,,,,,,,,,2869.4542154000374,None,,,,,,,,,,,,,,,,,,,,,,,,,,,,,,,,,,,,,,,,,,,,,,,,,,,,,,,,,opinion,108,30,aloud,old,yellow,2866.6753833999974,None,n,2866.6753833999974,None,"['n', 'return']","[2.1708010000293143, 2.7308441000059247]",2866.6753833999974,None,,,81NC,001,2023_Aug_28_1720,ExactRep-v3-final,2021.2.3,59.955884466301605,
,,,,,,,,,,,,30,0,30,0,,,,,,,,,,,,,,,,,,,,,,,,,,,,,,,,,,,,,,,,,,,,,,,,,2871.606138000032,None,,,,,,,,,,,,,,,,,,,,,,,,,,,,,,,,,,,,,,,,,,,,,,,,,,,,,,,,,soul,54,31,silent,old,yellow,2869.974943600013,None,n,2869.974943600013,None,"['n', 'return']","[1.0955225999932736, 1.583250500028953]",2869.974943600013,None,,,81NC,001,2023_Aug_28_1720,ExactRep-v3-final,2021.2.3,59.955884466301605,
,,,,,,,,,,,,31,0,31,0,,,,,,,,,,,,,,,,,,,,,,,,,,,,,,,,,,,,,,,,,,,,,,,,,2873.7581274000113,None,,,,,,,,,,,,,,,,,,,,,,,,,,,,,,,,,,,,,,,,,,,,,,,,,,,,,,,,,heaven,23,32,sing,old,yellow,2872.1071105000447,None,y,2872.1071105000447,None,"['y', 'return']","[1.0751768999616615, 1.6031076000072062]",2872.1071105000447,None,,,81NC,001,2023_Aug_28_1720,ExactRep-v3-final,2021.2.3,59.955884466301605,
,,,,,,,,,,,,32,0,32,0,,,,,,,,,,,,,,,,,,,,,,,,,,,,,,,,,,,,,,,,,,,,,,,,,2876.3608031000476,None,,,,,,,,,,,,,,,,,,,,,,,,,,,,,,,,,,,,,,,,,,,,,,,,,,,,,,,,,law,45,33,silent,old,yellow,2874.2750405000406,None,n,2874.2750405000406,None,"['n', 'return']","[1.5551763999974355, 2.0511602999758907]",2874.2750405000406,None,,,81NC,001,2023_Aug_28_1720,ExactRep-v3-final,2021.2.3,59.955884466301605,
,,,,,,,,,,,,33,0,33,0,,,,,,,,,,,,,,,,,,,,,,,,,,,,,,,,,,,,,,,,,,,,,,,,,2879.0803584000096,None,,,,,,,,,,,,,,,,,,,,,,,,,,,,,,,,,,,,,,,,,,,,,,,,,,,,,,,,,tree,182,34,aloud,new,yellow,2876.8646093000425,None,n,2876.8646093000425,None,"['n', 'return']","[1.6619179000263102, 2.1735835000290535]",2876.8646093000425,None,,,81NC,001,2023_Aug_28_1720,ExactRep-v3-final,2021.2.3,59.955884466301605,
,,,,,,,,,,,,34,0,34,0,,,,,,,,,,,,,,,,,,,,,,,,,,,,,,,,,,,,,,,,,,,,,,,,,2882.150549300015,None,,,,,,,,,,,,,,,,,,,,,,,,,,,,,,,,,,,,,,,,,,,,,,,,,,,,,,,,,earth,97,35,aloud,old,yellow,2879.6116428000387,None,n,2879.6116428000387,None,"['n', 'return']","[2.0106844999827445, 2.498533000005409]",2879.6116428000387,None,,,81NC,001,2023_Aug_28_1720,ExactRep-v3-final,2021.2.3,59.955884466301605,
,,,,,,,,,,,,35,0,35,0,,,,,,,,,,,,,,,,,,,,,,,,,,,,,,,,,,,,,,,,,,,,,,,,,2884.4692158000544,None,,,,,,,,,,,,,,,,,,,,,,,,,,,,,,,,,,,,,,,,,,,,,,,,,,,,,,,,,present,141,36,silent,new,yellow,2882.667181500001,None,y,2882.667181500001,None,"['y', 'return']","[1.2270101999747567, 1.7630622999859042]",2882.667181500001,None,,,81NC,001,2023_Aug_28_1720,ExactRep-v3-final,2021.2.3,59.955884466301605,
,,,,,,,,,,,,36,0,36,0,,,,,,,,,,,,,,,,,,,,,,,,,,,,,,,,,,,,,,,,,,,,,,,,,2886.7384773000376,None,,,,,,,,,,,,,,,,,,,,,,,,,,,,,,,,,,,,,,,,,,,,,,,,,,,,,,,,,colony,135,37,silent,new,yellow,2884.987108100031,None,y,2884.987108100031,None,"['y', 'return']","[1.1390117999981157, 1.7152524000266567]",2884.987108100031,None,,,81NC,001,2023_Aug_28_1720,ExactRep-v3-final,2021.2.3,59.955884466301605,
,,,,,,,,,,,,37,0,37,0,,,,,,,,,,,,,,,,,,,,,,,,,,,,,,,,,,,,,,,,,,,,,,,,,2889.023588400043,None,,,,,,,,,,,,,,,,,,,,,,,,,,,,,,,,,,,,,,,,,,,,,,,,,,,,,,,,,woman,171,38,sing,new,yellow,2887.254111200047,None,y,2887.254111200047,None,"['y', 'return']","[1.1121902000159025, 1.7200915000285022]",2887.254111200047,None,,,81NC,001,2023_Aug_28_1720,ExactRep-v3-final,2021.2.3,59.955884466301605,
,,,,,,,,,,,,38,0,38,0,,,,,,,,,,,,,,,,,,,,,,,,,,,,,,,,,,,,,,,,,,,,,,,,,2891.5426662000245,None,,,,,,,,,,,,,,,,,,,,,,,,,,,,,,,,,,,,,,,,,,,,,,,,,,,,,,,,,seat,158,39,silent,new,yellow,2889.5400792,None,n,2889.5400792,None,"['n', 'return']","[1.514080000051763, 1.954159900022205]",2889.5400792,None,,,81NC,001,2023_Aug_28_1720,ExactRep-v3-final,2021.2.3,59.955884466301605,
,,,,,,,,,,,,39,0,39,0,,,,,,,,,,,,,,,,,,,,,,,,,,,,,,,,,,,,,,,,,,,,,,,,,2893.594686800032,None,,,,,,,,,,,,,,,,,,,,,,,,,,,,,,,,,,,,,,,,,,,,,,,,,,,,,,,,,clock,69,40,silent,old,yellow,2892.0605963999988,None,n,2892.0605963999988,None,"['n', 'return']","[1.01755679998314, 1.497612899984233]",2892.0605963999988,None,,,81NC,001,2023_Aug_28_1720,ExactRep-v3-final,2021.2.3,59.955884466301605,
,,,,,,,,,,,,40,0,40,0,,,,,,,,,,,,,,,,,,,,,,,,,,,,,,,,,,,,,,,,,,,,,,,,,2895.8794486999977,None,,,,,,,,,,,,,,,,,,,,,,,,,,,,,,,,,,,,,,,,,,,,,,,,,,,,,,,,,weapon,164,41,aloud,new,yellow,2894.095534300024,None,n,2894.095534300024,None,"['n', 'return']","[1.1426632999791764, 1.742591199988965]",2894.095534300024,None,,,81NC,001,2023_Aug_28_1720,ExactRep-v3-final,2021.2.3,59.955884466301605,
,,,,,,,,,,,,41,0,41,0,,,,,,,,,,,,,,,,,,,,,,,,,,,,,,,,,,,,,,,,,,,,,,,,,2912.5802578000003,None,,,,,,,,,,,,,,,,,,,,,,,,,,,,,,,,,,,,,,,,,,,,,,,,,,,,,,,,,fire,186,42,aloud,new,yellow,2896.3812166000134,None,y,2896.3812166000134,None,"['n', 'backspace', 'y', 'return']","[0.9129819000372663, 13.456946399994195, 14.681139299995266, 16.152948100003414]",2896.3812166000134,None,,,81NC,001,2023_Aug_28_1720,ExactRep-v3-final,2021.2.3,59.955884466301605,
,,,,,,,,,,,,42,0,42,0,,,,,,,,,,,,,,,,,,,,,,,,,,,,,,,,,,,,,,,,,,,,,,,,,2914.7157822000445,None,,,,,,,,,,,,,,,,,,,,,,,,,,,,,,,,,,,,,,,,,,,,,,,,,,,,,,,,,event,47,43,silent,old,yellow,2913.081119300041,None,y,2913.081119300041,None,"['y', 'return']","[1.1091050999821164, 1.5971674000029452]",2913.081119300041,None,,,81NC,001,2023_Aug_28_1720,ExactRep-v3-final,2021.2.3,59.955884466301605,
,,,,,,,,,,,,43,0,43,0,,,,,,,,,,,,,,,,,,,,,,,,,,,,,,,,,,,,,,,,,,,,,,,,,2918.069302100048,None,,,,,,,,,,,,,,,,,,,,,,,,,,,,,,,,,,,,,,,,,,,,,,,,,,,,,,,,,shadow,163,44,sing,new,yellow,2915.216392500035,None,n,2915.216392500035,None,"['n', 'return']","[2.3498986000195146, 2.80586249998305]",2915.216392500035,None,,,81NC,001,2023_Aug_28_1720,ExactRep-v3-final,2021.2.3,59.955884466301605,
,,,,,,,,,,,,44,0,44,0,,,,,,,,,,,,,,,,,,,,,,,,,,,,,,,,,,,,,,,,,,,,,,,,,2920.722128000052,None,,,,,,,,,,,,,,,,,,,,,,,,,,,,,,,,,,,,,,,,,,,,,,,,,,,,,,,,,skin,110,45,aloud,old,yellow,2918.587248200027,None,y,2918.587248200027,None,"['y', 'return']","[1.586953199992422, 2.099155800009612]",2918.587248200027,None,,,81NC,001,2023_Aug_28_1720,ExactRep-v3-final,2021.2.3,59.955884466301605,
,,,,,,,,,,,,45,0,45,0,,,,,,,,,,,,,,,,,,,,,,,,,,,,,,,,,,,,,,,,,,,,,,,,,2922.940671200049,None,,,,,,,,,,,,,,,,,,,,,,,,,,,,,,,,,,,,,,,,,,,,,,,,,,,,,,,,,friend,161,46,sing,new,yellow,2921.2385457000346,None,y,2921.2385457000346,None,"['y', 'return']","[1.127639000013005, 1.6556600000476465]",2921.2385457000346,None,,,81NC,001,2023_Aug_28_1720,ExactRep-v3-final,2021.2.3,59.955884466301605,
,,,,,,,,,,,,46,0,46,0,,,,,,,,,,,,,,,,,,,,,,,,,,,,,,,,,,,,,,,,,,,,,,,,,2925.093208800012,None,,,,,,,,,,,,,,,,,,,,,,,,,,,,,,,,,,,,,,,,,,,,,,,,,,,,,,,,,master,150,47,silent,new,yellow,2923.4466179000447,None,n,2923.4466179000447,None,"['n', 'return']","[1.1596472000237554, 1.599598100001458]",2923.4466179000447,None,,,81NC,001,2023_Aug_28_1720,ExactRep-v3-final,2021.2.3,59.955884466301605,
,,,,,,,,,,,,47,0,47,0,,,,,,,,,,,,,,,,,,,,,,,,,,,,,,,,,,,,,,,,,,,,,,,,,2927.228259399999,None,,,,,,,,,,,,,,,,,,,,,,,,,,,,,,,,,,,,,,,,,,,,,,,,,,,,,,,,,volume,109,48,aloud,old,yellow,2925.610419200035,None,y,2925.610419200035,None,"['y', 'return']","[1.0678575999918394, 1.5797343000303954]",2925.610419200035,None,,,81NC,001,2023_Aug_28_1720,ExactRep-v3-final,2021.2.3,59.955884466301605,
,,,,,,,,,,,,48,0,48,0,,,,,,,,,,,,,,,,,,,,,,,,,,,,,,,,,,,,,,,,,,,,,,,,,2929.347362300032,None,,,,,,,,,,,,,,,,,,,,,,,,,,,,,,,,,,,,,,,,,,,,,,,,,,,,,,,,,fault,154,49,silent,new,yellow,2927.729465100041,None,n,2927.729465100041,None,"['n', 'return']","[1.0848523000022396, 1.5727064000093378]",2927.729465100041,None,,,81NC,001,2023_Aug_28_1720,ExactRep-v3-final,2021.2.3,59.955884466301605,
,,,,,,,,,,,,49,0,49,0,,,,,,,,,,,,,,,,,,,,,,,,,,,,,,,,,,,,,,,,,,,,,,,,,2933.5675900000497,None,,,,,,,,,,,,,,,,,,,,,,,,,,,,,,,,,,,,,,,,,,,,,,,,,,,,,,,,,party,117,50,aloud,old,yellow,2929.863556299999,None,y,2929.863556299999,None,"['y', 'return']","[3.206644099962432, 3.670714100007899]",2929.863556299999,None,,,81NC,001,2023_Aug_28_1720,ExactRep-v3-final,2021.2.3,59.955884466301605,
,,,,,,,,,,,,50,0,50,0,,,,,,,,,,,,,,,,,,,,,,,,,,,,,,,,,,,,,,,,,,,,,,,,,2937.5722919000546,None,,,,,,,,,,,,,,,,,,,,,,,,,,,,,,,,,,,,,,,,,,,,,,,,,,,,,,,,,glory,170,51,aloud,new,yellow,2934.0689579000464,None,n,2934.0689579000464,None,"['n', 'return']","[3.0174929999629967, 3.4653264000080526]",2934.0689579000464,None,,,81NC,001,2023_Aug_28_1720,ExactRep-v3-final,2021.2.3,59.955884466301605,
,,,,,,,,,,,,51,0,51,0,,,,,,,,,,,,,,,,,,,,,,,,,,,,,,,,,,,,,,,,,,,,,,,,,2939.741431100003,None,,,,,,,,,,,,,,,,,,,,,,,,,,,,,,,,,,,,,,,,,,,,,,,,,,,,,,,,,lake,214,52,aloud,new,yellow,2938.090087999997,None,y,2938.090087999997,None,"['y', 'return']","[1.0921337999752723, 1.612030699965544]",2938.090087999997,None,,,81NC,001,2023_Aug_28_1720,ExactRep-v3-final,2021.2.3,59.955884466301605,
,,,,,,,,,,,,52,0,52,0,,,,,,,,,,,,,,,,,,,,,,,,,,,,,,,,,,,,,,,,,,,,,,,,,2941.7263982000295,None,,,,,,,,,,,,,,,,,,,,,,,,,,,,,,,,,,,,,,,,,,,,,,,,,,,,,,,,,door,30,53,sing,old,yellow,2940.2534102000063,None,y,2940.2534102000063,None,"['y', 'return']","[0.9448338000220247, 1.4248129000188783]",2940.2534102000063,None,,,81NC,001,2023_Aug_28_1720,ExactRep-v3-final,2021.2.3,59.955884466301605,
,,,,,,,,,,,,53,0,53,0,,,,,,,,,,,,,,,,,,,,,,,,,,,,,,,,,,,,,,,,,,,,,,,,,2944.3444843000034,None,,,,,,,,,,,,,,,,,,,,,,,,,,,,,,,,,,,,,,,,,,,,,,,,,,,,,,,,,king,32,54,sing,old,yellow,2942.250985300052,None,y,2942.250985300052,None,"['y', 'return']","[1.5711957999737933, 2.0514270999701694]",2942.250985300052,None,,,81NC,001,2023_Aug_28_1720,ExactRep-v3-final,2021.2.3,59.955884466301605,
,,,,,,,,,,,,54,0,54,0,,,,,,,,,,,,,,,,,,,,,,,,,,,,,,,,,,,,,,,,,,,,,,,,,2946.4644611999975,None,,,,,,,,,,,,,,,,,,,,,,,,,,,,,,,,,,,,,,,,,,,,,,,,,,,,,,,,,flood,77,55,silent,old,yellow,2944.8470672999974,None,y,2944.8470672999974,None,"['y', 'return']","[1.1431150999851525, 1.583168699988164]",2944.8470672999974,None,,,81NC,001,2023_Aug_28_1720,ExactRep-v3-final,2021.2.3,59.955884466301605,
,,,,,,,,,,,,55,0,55,0,,,,,,,,,,,,,,,,,,,,,,,,,,,,,,,,,,,,,,,,,,,,,,,,,2948.7496314000455,None,,,,,,,,,,,,,,,,,,,,,,,,,,,,,,,,,,,,,,,,,,,,,,,,,,,,,,,,,excuse,122,56,silent,new,yellow,2946.98059000005,None,n,2946.98059000005,None,"['n', 'return']","[1.2895060000009835, 1.721596099960152]",2946.98059000005,None,,,81NC,001,2023_Aug_28_1720,ExactRep-v3-final,2021.2.3,59.955884466301605,
,,,,,,,,,,,,56,0,56,0,,,,,,,,,,,,,,,,,,,,,,,,,,,,,,,,,,,,,,,,,,,,,,,,,2951.002340200008,None,,,,,,,,,,,,,,,,,,,,,,,,,,,,,,,,,,,,,,,,,,,,,,,,,,,,,,,,,library,12,57,sing,old,yellow,2949.2544849000406,None,y,2949.2544849000406,None,"['y', 'return']","[1.199810600024648, 1.7120619000052102]",2949.2544849000406,None,,,81NC,001,2023_Aug_28_1720,ExactRep-v3-final,2021.2.3,59.955884466301605,
,,,,,,,,,,,,57,0,57,0,,,,,,,,,,,,,,,,,,,,,,,,,,,,,,,,,,,,,,,,,,,,,,,,,2953.755439200031,None,,,,,,,,,,,,,,,,,,,,,,,,,,,,,,,,,,,,,,,,,,,,,,,,,,,,,,,,,method,104,58,aloud,old,yellow,2951.5192047000164,None,y,2951.5192047000164,None,"['y', 'return']","[1.6869836000259966, 2.1992684000288136]",2951.5192047000164,None,,,81NC,001,2023_Aug_28_1720,ExactRep-v3-final,2021.2.3,59.955884466301605,
,,,,,,,,,,,,58,0,58,0,,,,,,,,,,,,,,,,,,,,,,,,,,,,,,,,,,,,,,,,,,,,,,,,,2955.9902119000326,None,,,,,,,,,,,,,,,,,,,,,,,,,,,,,,,,,,,,,,,,,,,,,,,,,,,,,,,,,journal,98,59,aloud,old,yellow,2954.2723606000072,None,y,2954.2723606000072,None,"['y', 'return']","[1.1897913999855518, 1.6698281999561004]",2954.2723606000072,None,,,81NC,001,2023_Aug_28_1720,ExactRep-v3-final,2021.2.3,59.955884466301605,
,,,,,,,,,,,,59,0,59,0,,,,,,,,,,,,,,,,,,,,,,,,,,,,,,,,,,,,,,,,,,,,,,,,,2959.861551000038,None,,,,,,,,,,,,,,,,,,,,,,,,,,,,,,,,,,,,,,,,,,,,,,,,,,,,,,,,,winter,91,60,aloud,old,yellow,2956.491170100053,None,n,2956.491170100053,None,"['n', 'return']","[2.8830291999620385, 3.3230313999811187]",2956.491170100053,None,,,81NC,001,2023_Aug_28_1720,ExactRep-v3-final,2021.2.3,59.955884466301605,
,,,,,,,,,,,,60,0,60,0,,,,,,,,,,,,,,,,,,,,,,,,,,,,,,,,,,,,,,,,,,,,,,,,,2962.113369700033,None,,,,,,,,,,,,,,,,,,,,,,,,,,,,,,,,,,,,,,,,,,,,,,,,,,,,,,,,,rock,195,61,sing,new,yellow,2960.378305900027,None,n,2960.378305900027,None,"['n', 'return']","[1.2840691999881528, 1.6918923000339419]",2960.378305900027,None,,,81NC,001,2023_Aug_28_1720,ExactRep-v3-final,2021.2.3,59.955884466301605,
,,,,,,,,,,,,61,0,61,0,,,,,,,,,,,,,,,,,,,,,,,,,,,,,,,,,,,,,,,,,,,,,,,,,2964.148554900021,None,,,,,,,,,,,,,,,,,,,,,,,,,,,,,,,,,,,,,,,,,,,,,,,,,,,,,,,,,shame,226,62,aloud,new,yellow,2962.6266826000065,None,n,2962.6266826000065,None,"['n', 'return']","[0.9715544999926351, 1.4835403999895789]",2962.6266826000065,None,,,81NC,001,2023_Aug_28_1720,ExactRep-v3-final,2021.2.3,59.955884466301605,
,,,,,,,,,,,,62,0,62,0,,,,,,,,,,,,,,,,,,,,,,,,,,,,,,,,,,,,,,,,,,,,,,,,,2966.2495721000014,None,,,,,,,,,,,,,,,,,,,,,,,,,,,,,,,,,,,,,,,,,,,,,,,,,,,,,,,,,memory,185,63,sing,new,yellow,2964.664531800023,None,y,2964.664531800023,None,"['y', 'return']","[1.0456292000017129, 1.5416153999976814]",2964.664531800023,None,,,81NC,001,2023_Aug_28_1720,ExactRep-v3-final,2021.2.3,59.955884466301605,
,,,,,,,,,,,,63,0,63,0,,,,,,,,,,,,,,,,,,,,,,,,,,,,,,,,,,,,,,,,,,,,,,,,,2968.7871435999987,None,,,,,,,,,,,,,,,,,,,,,,,,,,,,,,,,,,,,,,,,,,,,,,,,,,,,,,,,,apple,236,64,aloud,new,yellow,2966.7514703000197,None,n,2966.7514703000197,None,"['n', 'return']","[1.5107019999995828, 1.9987223999924026]",2966.7514703000197,None,,,81NC,001,2023_Aug_28_1720,ExactRep-v3-final,2021.2.3,59.955884466301605,
,,,,,,,,,,,,64,0,64,0,,,,,,,,,,,,,,,,,,,,,,,,,,,,,,,,,,,,,,,,,,,,,,,,,2970.755307900021,None,,,,,,,,,,,,,,,,,,,,,,,,,,,,,,,,,,,,,,,,,,,,,,,,,,,,,,,,,stone,152,65,silent,new,yellow,2969.310930800042,None,n,2969.310930800042,None,"['n', 'return']","[0.9353002000134438, 1.4074436000082642]",2969.310930800042,None,,,81NC,001,2023_Aug_28_1720,ExactRep-v3-final,2021.2.3,59.955884466301605,
,,,,,,,,,,,,65,0,65,0,,,,,,,,,,,,,,,,,,,,,,,,,,,,,,,,,,,,,,,,,,,,,,,,,2973.023823400028,None,,,,,,,,,,,,,,,,,,,,,,,,,,,,,,,,,,,,,,,,,,,,,,,,,,,,,,,,,kiss,229,66,sing,new,yellow,2971.268951700011,None,n,2971.268951700011,None,"['n', 'return']","[1.0571173999924213, 1.7212443999596871]",2971.268951700011,None,,,81NC,001,2023_Aug_28_1720,ExactRep-v3-final,2021.2.3,59.955884466301605,
,,,,,,,,,,,,66,0,66,0,,,,,,,,,,,,,,,,,,,,,,,,,,,,,,,,,,,,,,,,,,,,,,,,,2975.7935375000234,None,,,,,,,,,,,,,,,,,,,,,,,,,,,,,,,,,,,,,,,,,,,,,,,,,,,,,,,,,shore,70,67,silent,old,yellow,2973.5307973000454,None,n,2973.5307973000454,None,"['n', 'return']","[1.7234306000173092, 2.2194489000248723]",2973.5307973000454,None,,,81NC,001,2023_Aug_28_1720,ExactRep-v3-final,2021.2.3,59.955884466301605,
,,,,,,,,,,,,67,0,67,0,,,,,,,,,,,,,,,,,,,,,,,,,,,,,,,,,,,,,,,,,,,,,,,,,2977.8793738000095,None,,,,,,,,,,,,,,,,,,,,,,,,,,,,,,,,,,,,,,,,,,,,,,,,,,,,,,,,,hide,219,68,sing,new,yellow,2976.3005645000376,None,n,2976.3005645000376,None,"['n', 'return']","[1.0655420999974012, 1.52964330004761]",2976.3005645000376,None,,,81NC,001,2023_Aug_28_1720,ExactRep-v3-final,2021.2.3,59.955884466301605,
,,,,,,,,,,,,68,0,68,0,,,,,,,,,,,,,,,,,,,,,,,,,,,,,,,,,,,,,,,,,,,,,,,,,2981.147503300046,None,,,,,,,,,,,,,,,,,,,,,,,,,,,,,,,,,,,,,,,,,,,,,,,,,,,,,,,,,dust,165,69,sing,new,yellow,2978.395341299998,None,n,2978.395341299998,None,"['n', 'return']","[2.2268327999627218, 2.7068350999616086]",2978.395341299998,None,,,81NC,001,2023_Aug_28_1720,ExactRep-v3-final,2021.2.3,59.955884466301605,
,,,,,,,,,,,,69,0,69,0,,,,,,,,,,,,,,,,,,,,,,,,,,,,,,,,,,,,,,,,,,,,,,,,,2983.567902700044,None,,,,,,,,,,,,,,,,,,,,,,,,,,,,,,,,,,,,,,,,,,,,,,,,,,,,,,,,,humour,99,70,aloud,old,yellow,2981.649084200035,None,y,2981.649084200035,None,"['y', 'return']","[1.389016100030858, 1.885094500030391]",2981.649084200035,None,,,81NC,001,2023_Aug_28_1720,ExactRep-v3-final,2021.2.3,59.955884466301605,
,,,,,,,,,,,,70,0,70,0,,,,,,,,,,,,,,,,,,,,,,,,,,,,,,,,,,,,,,,,,,,,,,,,,2986.621238300053,None,,,,,,,,,,,,,,,,,,,,,,,,,,,,,,,,,,,,,,,,,,,,,,,,,,,,,,,,,dollar,138,71,silent,new,yellow,2984.096092700027,None,y,2984.096092700027,None,"['y', 'return']","[1.9899922999902628, 2.4862119000172243]",2984.096092700027,None,,,81NC,001,2023_Aug_28_1720,ExactRep-v3-final,2021.2.3,59.955884466301605,
,,,,,,,,,,,,71,0,71,0,,,,,,,,,,,,,,,,,,,,,,,,,,,,,,,,,,,,,,,,,,,,,,,,,2989.5571693000384,None,,,,,,,,,,,,,,,,,,,,,,,,,,,,,,,,,,,,,,,,,,,,,,,,,,,,,,,,,troops,72,72,silent,old,yellow,2987.1493993000477,None,y,2987.1493993000477,None,"['y', 'return']","[1.8727150000049733, 2.3688704999512993]",2987.1493993000477,None,,,81NC,001,2023_Aug_28_1720,ExactRep-v3-final,2021.2.3,59.955884466301605,
,,,,,,,,,,,,72,0,72,0,,,,,,,,,,,,,,,,,,,,,,,,,,,,,,,,,,,,,,,,,,,,,,,,,2991.8263852000237,None,,,,,,,,,,,,,,,,,,,,,,,,,,,,,,,,,,,,,,,,,,,,,,,,,,,,,,,,,doll,2,73,sing,old,yellow,2990.0733993000467,None,y,2990.0733993000467,None,"['y', 'return']","[1.2207840000046417, 1.7088497999939136]",2990.0733993000467,None,,,81NC,001,2023_Aug_28_1720,ExactRep-v3-final,2021.2.3,59.955884466301605,
,,,,,,,,,,,,73,0,73,0,,,,,,,,,,,,,,,,,,,,,,,,,,,,,,,,,,,,,,,,,,,,,,,,,2993.9281213000068,None,,,,,,,,,,,,,,,,,,,,,,,,,,,,,,,,,,,,,,,,,,,,,,,,,,,,,,,,,plant,11,74,sing,old,yellow,2992.343716100033,None,n,2992.343716100033,None,"['n', 'return']","[1.1424581999890506, 1.5504342000349425]",2992.343716100033,None,,,81NC,001,2023_Aug_28_1720,ExactRep-v3-final,2021.2.3,59.955884466301605,
,,,,,,,,,,,,74,0,74,0,,,,,,,,,,,,,,,,,,,,,,,,,,,,,,,,,,,,,,,,,,,,,,,,,2996.1473348000436,None,,,,,,,,,,,,,,,,,,,,,,,,,,,,,,,,,,,,,,,,,,,,,,,,,,,,,,,,,horse,222,75,aloud,new,yellow,2994.429495999997,None,y,2994.429495999997,None,"['y', 'return']","[1.2326992999878712, 1.6727637999574654]",2994.429495999997,None,,,81NC,001,2023_Aug_28_1720,ExactRep-v3-final,2021.2.3,59.955884466301605,
,,,,,,,,,,,,75,0,75,0,,,,,,,,,,,,,,,,,,,,,,,,,,,,,,,,,,,,,,,,,,,,,,,,,2998.232724500005,None,,,,,,,,,,,,,,,,,,,,,,,,,,,,,,,,,,,,,,,,,,,,,,,,,,,,,,,,,fact,140,76,silent,new,yellow,2996.6691853000084,None,n,2996.6691853000084,None,"['n', 'return']","[1.1370552000007592, 1.5290123999584466]",2996.6691853000084,None,,,81NC,001,2023_Aug_28_1720,ExactRep-v3-final,2021.2.3,59.955884466301605,
,,,,,,,,,,,,76,0,76,0,,,,,,,,,,,,,,,,,,,,,,,,,,,,,,,,,,,,,,,,,,,,,,,,,3000.4683420000365,None,,,,,,,,,,,,,,,,,,,,,,,,,,,,,,,,,,,,,,,,,,,,,,,,,,,,,,,,,ship,115,77,aloud,old,yellow,2998.75430900004,None,y,2998.75430900004,None,"['y', 'return']","[1.2119689999963157, 1.6677904999814928]",2998.75430900004,None,,,81NC,001,2023_Aug_28_1720,ExactRep-v3-final,2021.2.3,59.955884466301605,
,,,,,,,,,,,,77,0,77,0,,,,,,,,,,,,,,,,,,,,,,,,,,,,,,,,,,,,,,,,,,,,,,,,,3002.5035416000173,None,,,,,,,,,,,,,,,,,,,,,,,,,,,,,,,,,,,,,,,,,,,,,,,,,,,,,,,,,crime,14,78,sing,old,yellow,3000.972685600049,None,y,3000.972685600049,None,"['y', 'return']","[1.041586700011976, 1.4975248000118881]",3000.972685600049,None,,,81NC,001,2023_Aug_28_1720,ExactRep-v3-final,2021.2.3,59.955884466301605,
,,,,,,,,,,,,78,0,78,0,,,,,,,,,,,,,,,,,,,,,,,,,,,,,,,,,,,,,,,,,,,,,,,,,3008.659620700055,None,,,,,,,,,,,,,,,,,,,,,,,,,,,,,,,,,,,,,,,,,,,,,,,,,,,,,,,,,hotel,31,79,sing,old,yellow,3003.008372000011,None,y,3003.008372000011,None,"['y', 'return']","[4.525827899982687, 5.605816999974195]",3003.008372000011,None,,,81NC,001,2023_Aug_28_1720,ExactRep-v3-final,2021.2.3,59.955884466301605,
,,,,,,,,,,,,79,0,79,0,,,,,,,,,,,,,,,,,,,,,,,,,,,,,,,,,,,,,,,,,,,,,,,,,3011.6950119000394,None,,,,,,,,,,,,,,,,,,,,,,,,,,,,,,,,,,,,,,,,,,,,,,,,,,,,,,,,,iron,197,80,sing,new,yellow,3009.1641452000476,None,y,3009.1641452000476,None,"['y', 'return']","[1.9859454999677837, 2.490084899996873]",3009.1641452000476,None,,,81NC,001,2023_Aug_28_1720,ExactRep-v3-final,2021.2.3,59.955884466301605,
,,,,,,,,,,,,80,0,80,0,,,,,,,,,,,,,,,,,,,,,,,,,,,,,,,,,,,,,,,,,,,,,,,,,3014.3643307000166,None,,,,,,,,,,,,,,,,,,,,,,,,,,,,,,,,,,,,,,,,,,,,,,,,,,,,,,,,,dress,94,81,aloud,old,yellow,3012.203740100027,None,y,3012.203740100027,None,"['y', 'return']","[1.41045889997622, 2.1144570999895222]",3012.203740100027,None,,,81NC,001,2023_Aug_28_1720,ExactRep-v3-final,2021.2.3,59.955884466301605,
,,,,,,,,,,,,81,0,81,0,,,,,,,,,,,,,,,,,,,,,,,,,,,,,,,,,,,,,,,,,,,,,,,,,3016.3668980000075,None,,,,,,,,,,,,,,,,,,,,,,,,,,,,,,,,,,,,,,,,,,,,,,,,,,,,,,,,,paper,102,82,aloud,old,yellow,3014.8664885000326,None,y,3014.8664885000326,None,"['y', 'return']","[0.9876091000041924, 1.467848000000231]",3014.8664885000326,None,,,81NC,001,2023_Aug_28_1720,ExactRep-v3-final,2021.2.3,59.955884466301605,
,,,,,,,,,,,,82,0,82,0,,,,,,,,,,,,,,,,,,,,,,,,,,,,,,,,,,,,,,,,,,,,,,,,,3019.253160400025,None,,,,,,,,,,,,,,,,,,,,,,,,,,,,,,,,,,,,,,,,,,,,,,,,,,,,,,,,,air,200,83,aloud,new,yellow,3016.8742686000187,None,n,3016.8742686000187,None,"['n', 'return']","[1.8999014999717474, 2.331921099976171]",3016.8742686000187,None,,,81NC,001,2023_Aug_28_1720,ExactRep-v3-final,2021.2.3,59.955884466301605,
,,,,,,,,,,,,83,0,83,0,,,,,,,,,,,,,,,,,,,,,,,,,,,,,,,,,,,,,,,,,,,,,,,,,3022.62356810004,None,,,,,,,,,,,,,,,,,,,,,,,,,,,,,,,,,,,,,,,,,,,,,,,,,,,,,,,,,money,0,84,sing,old,yellow,3019.754314300022,None,y,3019.754314300022,None,"['y', 'return']","[2.3719106999924406, 2.8358729000319727]",3019.754314300022,None,,,81NC,001,2023_Aug_28_1720,ExactRep-v3-final,2021.2.3,59.955884466301605,
,,,,,,,,,,,,84,0,84,0,,,,,,,,,,,,,,,,,,,,,,,,,,,,,,,,,,,,,,,,,,,,,,,,,3024.909324200009,None,,,,,,,,,,,,,,,,,,,,,,,,,,,,,,,,,,,,,,,,,,,,,,,,,,,,,,,,,arm,166,85,aloud,new,yellow,3023.1344099999988,None,n,3023.1344099999988,None,"['n', 'return']","[1.343770699982997, 1.7277566000120714]",3023.1344099999988,None,,,81NC,001,2023_Aug_28_1720,ExactRep-v3-final,2021.2.3,59.955884466301605,
,,,,,,,,,,,,85,0,85,0,,,,,,,,,,,,,,,,,,,,,,,,,,,,,,,,,,,,,,,,,,,,,,,,,3026.760190800007,None,,,,,,,,,,,,,,,,,,,,,,,,,,,,,,,,,,,,,,,,,,,,,,,,,,,,,,,,,style,209,86,sing,new,yellow,3025.423175200005,None,n,3025.423175200005,None,"['n', 'return']","[0.9190104999579489, 1.3030470999656245]",3025.423175200005,None,,,81NC,001,2023_Aug_28_1720,ExactRep-v3-final,2021.2.3,59.955884466301605,
,,,,,,,,,,,,86,0,86,0,,,,,,,,,,,,,,,,,,,,,,,,,,,,,,,,,,,,,,,,,,,,,,,,,3029.3973254000302,None,,,,,,,,,,,,,,,,,,,,,,,,,,,,,,,,,,,,,,,,,,,,,,,,,,,,,,,,,product,177,87,sing,new,yellow,3027.262680200045,None,n,3027.262680200045,None,"['n', 'return']","[1.695373099995777, 2.0954927999991924]",3027.262680200045,None,,,81NC,001,2023_Aug_28_1720,ExactRep-v3-final,2021.2.3,59.955884466301605,
,,,,,,,,,,,,87,0,87,0,,,,,,,,,,,,,,,,,,,,,,,,,,,,,,,,,,,,,,,,,,,,,,,,,3031.499329800019,None,,,,,,,,,,,,,,,,,,,,,,,,,,,,,,,,,,,,,,,,,,,,,,,,,,,,,,,,,trouble,63,88,silent,old,yellow,3029.9154471000074,None,n,3029.9154471000074,None,"['n', 'return']","[1.1226977000478655, 1.5386100000469014]",3029.9154471000074,None,,,81NC,001,2023_Aug_28_1720,ExactRep-v3-final,2021.2.3,59.955884466301605,
,,,,,,,,,,,,88,0,88,0,,,,,,,,,,,,,,,,,,,,,,,,,,,,,,,,,,,,,,,,,,,,,,,,,3033.5849046000512,None,,,,,,,,,,,,,,,,,,,,,,,,,,,,,,,,,,,,,,,,,,,,,,,,,,,,,,,,,shock,134,89,silent,new,yellow,3032.030001200037,None,n,3032.030001200037,None,"['n', 'return']","[0.9601790999877267, 1.5201814000029117]",3032.030001200037,None,,,81NC,001,2023_Aug_28_1720,ExactRep-v3-final,2021.2.3,59.955884466301605,
,,,,,,,,,,,,89,0,89,0,,,,,,,,,,,,,,,,,,,,,,,,,,,,,,,,,,,,,,,,,,,,,,,,,3036.1360643000226,None,,,,,,,,,,,,,,,,,,,,,,,,,,,,,,,,,,,,,,,,,,,,,,,,,,,,,,,,,forest,208,90,aloud,new,yellow,3034.095853900013,None,n,3034.095853900013,None,"['n', 'return']","[1.6142815999919549, 2.0062895999872126]",3034.095853900013,None,,,81NC,001,2023_Aug_28_1720,ExactRep-v3-final,2021.2.3,59.955884466301605,
,,,,,,,,,,,,90,0,90,0,,,,,,,,,,,,,,,,,,,,,,,,,,,,,,,,,,,,,,,,,,,,,,,,,3038.6895576000097,None,,,,,,,,,,,,,,,,,,,,,,,,,,,,,,,,,,,,,,,,,,,,,,,,,,,,,,,,,cotton,92,91,aloud,old,yellow,3036.6378052000073,None,y,3036.6378052000073,None,"['y', 'return']","[1.528337899944745, 2.016601199982688]",3036.6378052000073,None,,,81NC,001,2023_Aug_28_1720,ExactRep-v3-final,2021.2.3,59.955884466301605,
,,,,,,,,,,,,91,0,91,0,,,,,,,,,,,,,,,,,,,,,,,,,,,,,,,,,,,,,,,,,,,,,,,,,3041.6761917000404,None,,,,,,,,,,,,,,,,,,,,,,,,,,,,,,,,,,,,,,,,,,,,,,,,,,,,,,,,,moral,181,92,sing,new,yellow,3039.190354500024,None,n,3039.190354500024,None,"['n', 'return']","[1.9117855000076815, 2.447818999993615]",3039.190354500024,None,,,81NC,001,2023_Aug_28_1720,ExactRep-v3-final,2021.2.3,59.955884466301605,
,,,,,,,,,,,,92,0,92,0,,,,,,,,,,,,,,,,,,,,,,,,,,,,,,,,,,,,,,,,,,,,,,,,,3044.228520900011,None,,,,,,,,,,,,,,,,,,,,,,,,,,,,,,,,,,,,,,,,,,,,,,,,,,,,,,,,,palace,233,93,sing,new,yellow,3042.199070600036,None,n,3042.199070600036,None,"['n', 'return']","[1.4711016999790445, 1.9911163999931887]",3042.199070600036,None,,,81NC,001,2023_Aug_28_1720,ExactRep-v3-final,2021.2.3,59.955884466301605,
,,,,,,,,,,,,93,0,93,0,,,,,,,,,,,,,,,,,,,,,,,,,,,,,,,,,,,,,,,,,,,,,,,,,3047.648637800012,None,,,,,,,,,,,,,,,,,,,,,,,,,,,,,,,,,,,,,,,,,,,,,,,,,,,,,,,,,dream,37,94,sing,old,yellow,3044.7540560000343,None,y,3044.7540560000343,None,"['y', 'return']","[2.3243856000481173, 2.852166299999226]",3044.7540560000343,None,,,81NC,001,2023_Aug_28_1720,ExactRep-v3-final,2021.2.3,59.955884466301605,
,,,,,,,,,,,,94,0,94,0,,,,,,,,,,,,,,,,,,,,,,,,,,,,,,,,,,,,,,,,,,,,,,,,,3049.9840577000286,None,,,,,,,,,,,,,,,,,,,,,,,,,,,,,,,,,,,,,,,,,,,,,,,,,,,,,,,,,freedom,215,95,sing,new,yellow,3048.1724622000474,None,y,3048.1724622000474,None,"['y', 'return']","[1.2815964000183158, 1.769667299988214]",3048.1724622000474,None,,,81NC,001,2023_Aug_28_1720,ExactRep-v3-final,2021.2.3,59.955884466301605,
,,,,,,,,,,,,95,0,95,0,,,,,,,,,,,,,,,,,,,,,,,,,,,,,,,,,,,,,,,,,,,,,,,,,3052.2704269000096,None,,,,,,,,,,,,,,,,,,,,,,,,,,,,,,,,,,,,,,,,,,,,,,,,,,,,,,,,,bar,184,96,aloud,new,yellow,3050.4853348000324,None,n,3050.4853348000324,None,"['n', 'return']","[1.3129244999727234, 1.736860600009095]",3050.4853348000324,None,,,81NC,001,2023_Aug_28_1720,ExactRep-v3-final,2021.2.3,59.955884466301605,
,,,,,,,,,,,,96,0,96,0,,,,,,,,,,,,,,,,,,,,,,,,,,,,,,,,,,,,,,,,,,,,,,,,,3054.5554155000136,None,,,,,,,,,,,,,,,,,,,,,,,,,,,,,,,,,,,,,,,,,,,,,,,,,,,,,,,,,army,95,97,aloud,old,yellow,3052.7994384000194,None,n,3052.7994384000194,None,"['n', 'return']","[1.2226905999705195, 1.7192039000219665]",3052.7994384000194,None,,,81NC,001,2023_Aug_28_1720,ExactRep-v3-final,2021.2.3,59.955884466301605,
,,,,,,,,,,,,97,0,97,0,,,,,,,,,,,,,,,,,,,,,,,,,,,,,,,,,,,,,,,,,,,,,,,,,3056.841433399997,None,,,,,,,,,,,,,,,,,,,,,,,,,,,,,,,,,,,,,,,,,,,,,,,,,,,,,,,,,month,4,98,sing,old,yellow,3055.073458800034,None,y,3055.073458800034,None,"['y', 'return']","[1.252751799998805, 1.7327504000277258]",3055.073458800034,None,,,81NC,001,2023_Aug_28_1720,ExactRep-v3-final,2021.2.3,59.955884466301605,
,,,,,,,,,,,,98,0,98,0,,,,,,,,,,,,,,,,,,,,,,,,,,,,,,,,,,,,,,,,,,,,,,,,,3059.6106212000013,None,,,,,,,,,,,,,,,,,,,,,,,,,,,,,,,,,,,,,,,,,,,,,,,,,,,,,,,,,victory,189,99,sing,new,yellow,3057.3692473000265,None,n,3057.3692473000265,None,"['n', 'return']","[1.7648684000014327, 2.2048809999832883]",3057.3692473000265,None,,,81NC,001,2023_Aug_28_1720,ExactRep-v3-final,2021.2.3,59.955884466301605,
,,,,,,,,,,,,99,0,99,0,,,,,,,,,,,,,,,,,,,,,,,,,,,,,,,,,,,,,,,,,,,,,,,,,3062.7804429000244,None,,,,,,,,,,,,,,,,,,,,,,,,,,,,,,,,,,,,,,,,,,,,,,,,,,,,,,,,,dawn,178,100,aloud,new,yellow,3060.128299800039,None,n,3060.128299800039,None,"['n', 'return']","[1.197898400016129, 2.6058632999775]",3060.128299800039,None,,,81NC,001,2023_Aug_28_1720,ExactRep-v3-final,2021.2.3,59.955884466301605,
,,,,,,,,,,,,100,0,100,0,,,,,,,,,,,,,,,,,,,,,,,,,,,,,,,,,,,,,,,,,,,,,,,,,3065.2662875000387,None,,,,,,,,,,,,,,,,,,,,,,,,,,,,,,,,,,,,,,,,,,,,,,,,,,,,,,,,,sky,65,101,silent,old,yellow,3063.2979993000044,None,y,3063.2979993000044,None,"['y', 'return']","[1.4361374999862164, 1.9322727999533527]",3063.2979993000044,None,,,81NC,001,2023_Aug_28_1720,ExactRep-v3-final,2021.2.3,59.955884466301605,
,,,,,,,,,,,,101,0,101,0,,,,,,,,,,,,,,,,,,,,,,,,,,,,,,,,,,,,,,,,,,,,,,,,,3067.451741500001,None,,,,,,,,,,,,,,,,,,,,,,,,,,,,,,,,,,,,,,,,,,,,,,,,,,,,,,,,,bowl,28,102,sing,old,yellow,3065.7827659000177,None,y,3065.7827659000177,None,"['y', 'return']","[1.1834021999966353, 1.6317756000207737]",3065.7827659000177,None,,,81NC,001,2023_Aug_28_1720,ExactRep-v3-final,2021.2.3,59.955884466301605,
,,,,,,,,,,,,102,0,102,0,,,,,,,,,,,,,,,,,,,,,,,,,,,,,,,,,,,,,,,,,,,,,,,,,3070.222104100045,None,,,,,,,,,,,,,,,,,,,,,,,,,,,,,,,,,,,,,,,,,,,,,,,,,,,,,,,,,sea,24,103,sing,old,yellow,3067.967579999997,None,y,3067.967579999997,None,"['y', 'return']","[1.7184687000117265, 2.206549599999562]",3067.967579999997,None,,,81NC,001,2023_Aug_28_1720,ExactRep-v3-final,2021.2.3,59.955884466301605,
,,,,,,,,,,,,103,0,103,0,,,,,,,,,,,,,,,,,,,,,,,,,,,,,,,,,,,,,,,,,,,,,,,,,3073.2739914000267,None,,,,,,,,,,,,,,,,,,,,,,,,,,,,,,,,,,,,,,,,,,,,,,,,,,,,,,,,,idea,89,104,aloud,old,yellow,3070.7374324999982,None,y,3070.7374324999982,None,"['y', 'return']","[2.0447141000186093, 2.5008354000165127]",3070.7374324999982,None,,,81NC,001,2023_Aug_28_1720,ExactRep-v3-final,2021.2.3,59.955884466301605,
,,,,,,,,,,,,104,0,104,0,,,,,,,,,,,,,,,,,,,,,,,,,,,,,,,,,,,,,,,,,,,,,,,,,3078.412650000013,None,,,,,,,,,,,,,,,,,,,,,,,,,,,,,,,,,,,,,,,,,,,,,,,,,,,,,,,,,river,64,105,silent,old,yellow,3073.7778469000477,None,y,3073.7778469000477,None,"['y', 'return']","[4.068224799993914, 4.596311200002674]",3073.7778469000477,None,,,81NC,001,2023_Aug_28_1720,ExactRep-v3-final,2021.2.3,59.955884466301605,
,,,,,,,,,,,,105,0,105,0,,,,,,,,,,,,,,,,,,,,,,,,,,,,,,,,,,,,,,,,,,,,,,,,,3081.2679646000033,None,,,,,,,,,,,,,,,,,,,,,,,,,,,,,,,,,,,,,,,,,,,,,,,,,,,,,,,,,cabin,227,106,sing,new,yellow,3078.9219439000008,None,n,3078.9219439000008,None,"['n', 'return']","[1.8362097999779508, 2.3084038000088185]",3078.9219439000008,None,,,81NC,001,2023_Aug_28_1720,ExactRep-v3-final,2021.2.3,59.955884466301605,
,,,,,,,,,,,,106,0,106,0,,,,,,,,,,,,,,,,,,,,,,,,,,,,,,,,,,,,,,,,,,,,,,,,,3083.501276499999,None,,,,,,,,,,,,,,,,,,,,,,,,,,,,,,,,,,,,,,,,,,,,,,,,,,,,,,,,,health,46,107,silent,old,yellow,3081.7855555000133,None,n,3081.7855555000133,None,"['n', 'return']","[1.172671799955424, 1.6685987999662757]",3081.7855555000133,None,,,81NC,001,2023_Aug_28_1720,ExactRep-v3-final,2021.2.3,59.955884466301605,
,,,,,,,,,,,,107,0,107,0,,,,,,,,,,,,,,,,,,,,,,,,,,,,,,,,,,,,,,,,,,,,,,,,,3085.9201171000022,None,,,,,,,,,,,,,,,,,,,,,,,,,,,,,,,,,,,,,,,,,,,,,,,,,,,,,,,,,poet,20,108,sing,old,yellow,3084.0176049,None,y,3084.0176049,None,"['y', 'return']","[1.3565833999891765, 1.8687056999769993]",3084.0176049,None,,,81NC,001,2023_Aug_28_1720,ExactRep-v3-final,2021.2.3,59.955884466301605,
,,,,,,,,,,,,108,0,108,0,,,,,,,,,,,,,,,,,,,,,,,,,,,,,,,,,,,,,,,,,,,,,,,,,3088.122184600041,None,,,,,,,,,,,,,,,,,,,,,,,,,,,,,,,,,,,,,,,,,,,,,,,,,,,,,,,,,pupil,81,109,aloud,old,yellow,3086.425242300029,None,y,3086.425242300029,None,"['y', 'return']","[1.2048819999909028, 1.660897699999623]",3086.425242300029,None,,,81NC,001,2023_Aug_28_1720,ExactRep-v3-final,2021.2.3,59.955884466301605,
,,,,,,,,,,,,109,0,109,0,,,,,,,,,,,,,,,,,,,,,,,,,,,,,,,,,,,,,,,,,,,,,,,,,3092.0261140000075,None,,,,,,,,,,,,,,,,,,,,,,,,,,,,,,,,,,,,,,,,,,,,,,,,,,,,,,,,,plain,83,110,aloud,old,yellow,3088.6231573999976,None,n,3088.6231573999976,None,"['n', 'return']","[2.3109734999598004, 3.36709630000405]",3088.6231573999976,None,,,81NC,001,2023_Aug_28_1720,ExactRep-v3-final,2021.2.3,59.955884466301605,
,,,,,,,,,,,,110,0,110,0,,,,,,,,,,,,,,,,,,,,,,,,,,,,,,,,,,,,,,,,,,,,,,,,,3094.9291233000113,None,,,,,,,,,,,,,,,,,,,,,,,,,,,,,,,,,,,,,,,,,,,,,,,,,,,,,,,,,body,217,111,sing,new,yellow,3092.5325501000043,None,y,3092.5325501000043,None,"['y', 'return']","[1.857734800025355, 2.3535672000143677]",3092.5325501000043,None,,,81NC,001,2023_Aug_28_1720,ExactRep-v3-final,2021.2.3,59.955884466301605,
,,,,,,,,,,,,111,0,111,0,,,,,,,,,,,,,,,,,,,,,,,,,,,,,,,,,,,,,,,,,,,,,,,,,3097.2314975000336,None,,,,,,,,,,,,,,,,,,,,,,,,,,,,,,,,,,,,,,,,,,,,,,,,,,,,,,,,,chair,173,112,sing,new,yellow,3095.457716700039,None,y,3095.457716700039,None,"['y', 'return']","[1.2603538999683224, 1.740391900006216]",3095.457716700039,None,,,81NC,001,2023_Aug_28_1720,ExactRep-v3-final,2021.2.3,59.955884466301605,
,,,,,,,,,,,,112,0,112,0,,,,,,,,,,,,,,,,,,,,,,,,,,,,,,,,,,,,,,,,,,,,,,,,,3101.467964600015,None,,,,,,,,,,,,,,,,,,,,,,,,,,,,,,,,,,,,,,,,,,,,,,,,,,,,,,,,,brain,51,113,silent,old,yellow,3097.7494746000157,None,n,3097.7494746000157,None,"['n', 'return']","[3.2493181999889202, 3.6806490999879315]",3097.7494746000157,None,,,81NC,001,2023_Aug_28_1720,ExactRep-v3-final,2021.2.3,59.955884466301605,
,,,,,,,,,,,,113,0,113,0,,,,,,,,,,,,,,,,,,,,,,,,,,,,,,,,,,,,,,,,,,,,,,,,,3104.2052644000505,None,,,,,,,,,,,,,,,,,,,,,,,,,,,,,,,,,,,,,,,,,,,,,,,,,,,,,,,,,ticket,153,114,silent,new,yellow,3101.9796129000024,None,n,3101.9796129000024,None,"['n', 'return']","[1.7550197000382468, 2.178547699993942]",3101.9796129000024,None,,,81NC,001,2023_Aug_28_1720,ExactRep-v3-final,2021.2.3,59.955884466301605,
,,,,,,,,,,,,114,0,114,0,,,,,,,,,,,,,,,,,,,,,,,,,,,,,,,,,,,,,,,,,,,,,,,,,3106.524258200021,None,,,,,,,,,,,,,,,,,,,,,,,,,,,,,,,,,,,,,,,,,,,,,,,,,,,,,,,,,bird,131,115,silent,new,yellow,3104.721546600049,None,y,3104.721546600049,None,"['y', 'return']","[1.2845933000207879, 1.7566102999844588]",3104.721546600049,None,,,81NC,001,2023_Aug_28_1720,ExactRep-v3-final,2021.2.3,59.955884466301605,
,,,,,,,,,,,,115,0,115,0,,,,,,,,,,,,,,,,,,,,,,,,,,,,,,,,,,,,,,,,,,,,,,,,,3108.9433108000085,None,,,,,,,,,,,,,,,,,,,,,,,,,,,,,,,,,,,,,,,,,,,,,,,,,,,,,,,,,table,194,116,aloud,new,yellow,3107.0309410000336,None,y,3107.0309410000336,None,"['y', 'return']","[1.383217200054787, 1.87117009999929]",3107.0309410000336,None,,,81NC,001,2023_Aug_28_1720,ExactRep-v3-final,2021.2.3,59.955884466301605,
,,,,,,,,,,,,116,0,116,0,,,,,,,,,,,,,,,,,,,,,,,,,,,,,,,,,,,,,,,,,,,,,,,,,3111.279170300055,None,,,,,,,,,,,,,,,,,,,,,,,,,,,,,,,,,,,,,,,,,,,,,,,,,,,,,,,,,maiden,66,117,silent,old,yellow,3109.4611217000056,None,n,3109.4611217000056,None,"['n', 'return']","[1.3290322999819182, 1.769045599969104]",3109.4611217000056,None,,,81NC,001,2023_Aug_28_1720,ExactRep-v3-final,2021.2.3,59.955884466301605,
,,,,,,,,,,,,117,0,117,0,,,,,,,,,,,,,,,,,,,,,,,,,,,,,,,,,,,,,,,,,,,,,,,,,3113.6315809000516,None,,,,,,,,,,,,,,,,,,,,,,,,,,,,,,,,,,,,,,,,,,,,,,,,,,,,,,,,,disease,41,118,silent,old,yellow,3111.8032349999994,None,n,3111.8032349999994,None,"['n', 'return']","[1.299035800038837, 1.7789086000411771]",3111.8032349999994,None,,,81NC,001,2023_Aug_28_1720,ExactRep-v3-final,2021.2.3,59.955884466301605,
,,,,,,,,,,,,118,0,118,0,,,,,,,,,,,,,,,,,,,,,,,,,,,,,,,,,,,,,,,,,,,,,,,,,3115.749305000005,None,,,,,,,,,,,,,,,,,,,,,,,,,,,,,,,,,,,,,,,,,,,,,,,,,,,,,,,,,square,206,119,aloud,new,yellow,3114.1524096000358,None,n,3114.1524096000358,None,"['n', 'return']","[1.0857746000401676, 1.549793900048826]",3114.1524096000358,None,,,81NC,001,2023_Aug_28_1720,ExactRep-v3-final,2021.2.3,59.955884466301605,
,,,,,,,,,,,,119,0,119,0,,,,,,,,,,,,,,,,,,,,,,,,,,,,,,,,,,,,,,,,,,,,,,,,,3118.2524130000384,None,,,,,,,,,,,,,,,,,,,,,,,,,,,,,,,,,,,,,,,,,,,,,,,,,,,,,,,,,speech,111,120,aloud,old,yellow,3116.2514530000044,None,n,3116.2514530000044,None,"['n', 'return']","[1.5066603000159375, 1.954588300024625]",3116.2514530000044,None,,,81NC,001,2023_Aug_28_1720,ExactRep-v3-final,2021.2.3,59.955884466301605,
,,,,,,,,,,,,120,0,120,0,,,,,,,,,,,,,,,,,,,,,,,,,,,,,,,,,,,,,,,,,,,,,,,,,3120.504587800009,None,,,,,,,,,,,,,,,,,,,,,,,,,,,,,,,,,,,,,,,,,,,,,,,,,,,,,,,,,history,10,121,sing,old,yellow,3118.7602400000324,None,n,3118.7602400000324,None,"['n', 'return']","[1.2538589000469074, 1.7018806000123732]",3118.7602400000324,None,,,81NC,001,2023_Aug_28_1720,ExactRep-v3-final,2021.2.3,59.955884466301605,
,,,,,,,,,,,,121,0,121,0,,,,,,,,,,,,,,,,,,,,,,,,,,,,,,,,,,,,,,,,,,,,,,,,,3123.941189300036,None,,,,,,,,,,,,,,,,,,,,,,,,,,,,,,,,,,,,,,,,,,,,,,,,,,,,,,,,,garden,105,122,aloud,old,yellow,3121.0057200000156,None,n,3121.0057200000156,None,"['n', 'return']","[2.3604039000347257, 2.8884859000099823]",3121.0057200000156,None,,,81NC,001,2023_Aug_28_1720,ExactRep-v3-final,2021.2.3,59.955884466301605,
,,,,,,,,,,,,122,0,122,0,,,,,,,,,,,,,,,,,,,,,,,,,,,,,,,,,,,,,,,,,,,,,,,,,3126.593014800048,None,,,,,,,,,,,,,,,,,,,,,,,,,,,,,,,,,,,,,,,,,,,,,,,,,,,,,,,,,grass,15,123,sing,old,yellow,3124.4422845000518,None,y,3124.4422845000518,None,"['y', 'return']","[1.6438233999651857, 2.115957800007891]",3124.4422845000518,None,,,81NC,001,2023_Aug_28_1720,ExactRep-v3-final,2021.2.3,59.955884466301605,
,,,,,,,,,,,,123,0,123,0,,,,,,,,,,,,,,,,,,,,,,,,,,,,,,,,,,,,,,,,,,,,,,,,,3129.796942600049,None,,,,,,,,,,,,,,,,,,,,,,,,,,,,,,,,,,,,,,,,,,,,,,,,,,,,,,,,,doctor,39,124,silent,old,yellow,3127.1031431000447,None,y,3127.1031431000447,None,"['y', 'return']","[2.134952599997632, 2.6469483000109904]",3127.1031431000447,None,,,81NC,001,2023_Aug_28_1720,ExactRep-v3-final,2021.2.3,59.955884466301605,
,,,,,,,,,,,,124,0,124,0,,,,,,,,,,,,,,,,,,,,,,,,,,,,,,,,,,,,,,,,,,,,,,,,,3133.784577800019,None,,,,,,,,,,,,,,,,,,,,,,,,,,,,,,,,,,,,,,,,,,,,,,,,,,,,,,,,,hall,151,125,silent,new,yellow,3130.31255480001,None,n,3130.31255480001,None,"['n', 'return']","[2.853426300047431, 3.4295244000386447]",3130.31255480001,None,,,81NC,001,2023_Aug_28_1720,ExactRep-v3-final,2021.2.3,59.955884466301605,
,,,,,,,,,,,,125,0,125,0,,,,,,,,,,,,,,,,,,,,,,,,,,,,,,,,,,,,,,,,,,,,,,,,,3136.2704903000267,None,,,,,,,,,,,,,,,,,,,,,,,,,,,,,,,,,,,,,,,,,,,,,,,,,,,,,,,,,beast,90,126,aloud,old,yellow,3134.301625700027,None,y,3134.301625700027,None,"['y', 'return']","[1.368538900045678, 1.9205241000163369]",3134.301625700027,None,,,81NC,001,2023_Aug_28_1720,ExactRep-v3-final,2021.2.3,59.955884466301605,
,,,,,,,,,,,,126,0,126,0,,,,,,,,,,,,,,,,,,,,,,,,,,,,,,,,,,,,,,,,,,,,,,,,,3139.040090400027,None,,,,,,,,,,,,,,,,,,,,,,,,,,,,,,,,,,,,,,,,,,,,,,,,,,,,,,,,,water,123,127,silent,new,yellow,3136.802502000006,None,n,3136.802502000006,None,"['n', 'return']","[1.7395999999716878, 2.2035097999614663]",3136.802502000006,None,,,81NC,001,2023_Aug_28_1720,ExactRep-v3-final,2021.2.3,59.955884466301605,
,,,,,,,,,,,,127,0,127,0,,,,,,,,,,,,,,,,,,,,,,,,,,,,,,,,,,,,,,,,,,,,,,,,,3146.8134295000345,None,,,,,,,,,,,,,,,,,,,,,,,,,,,,,,,,,,,,,,,,,,,,,,,,,,,,,,,,,machine,157,128,silent,new,yellow,3139.557275100029,None,n,3139.557275100029,None,"['n', 'return']","[6.536984000005759, 7.208930200024042]",3139.557275100029,None,,,81NC,001,2023_Aug_28_1720,ExactRep-v3-final,2021.2.3,59.955884466301605,
,,,,,,,,,,,,128,0,128,0,,,,,,,,,,,,,,,,,,,,,,,,,,,,,,,,,,,,,,,,,,,,,,,,,3150.7034900000435,None,,,,,,,,,,,,,,,,,,,,,,,,,,,,,,,,,,,,,,,,,,,,,,,,,,,,,,,,,moment,231,129,sing,new,yellow,3147.3285012000124,None,y,3147.3285012000124,None,"['y', 'return']","[2.8296288000419736, 3.325657900015358]",3147.3285012000124,None,,,81NC,001,2023_Aug_28_1720,ExactRep-v3-final,2021.2.3,59.955884466301605,
