trials_fam.thisRepN,trials_fam.thisTrialN,trials_fam.thisN,trials_fam.thisIndex,trials_prc.thisRepN,trials_prc.thisTrialN,trials_prc.thisN,trials_prc.thisIndex,StudyLoop.thisRepN,StudyLoop.thisTrialN,StudyLoop.thisN,StudyLoop.thisIndex,TestLoop.thisRepN,TestLoop.thisTrialN,TestLoop.thisN,TestLoop.thisIndex,text_colortest.started,text_colortest.stopped,key_colortest.keys,key_colortest.rt,key_colortest.started,key_colortest.stopped,textCondition.started,textCondition.stopped,keyCondition.keys,keyCondition.rt,keyCondition.started,keyCondition.stopped,Condition_between,Condition_counterbal,keyWelcome.keys,keyWelcome.rt,keyWelcome.started,keyWelcome.stopped,welcome_a.started,welcome_a.stopped,welcome_b.started,welcome_b.stopped,welcome_c.started,welcome_c.stopped,welcome_d.started,welcome_d.stopped,welcome_e.started,welcome_e.stopped,welcome_f.started,welcome_f.stopped,key_resp_fam_inst.keys,key_resp_fam_inst.rt,key_resp_fam_inst.started,key_resp_fam_inst.stopped,fam_a.started,fam_a.stopped,fam_b.started,fam_b.stopped,fam_c.started,fam_c.stopped,fam_d.started,fam_d.stopped,fam_e.started,fam_e.stopped,fam_f.started,fam_f.stopped,text_famil.started,text_famil.stopped,textBlank500.started,textBlank500.stopped,key_resp_prc_inst.keys,key_resp_prc_inst.rt,key_resp_prc_inst.started,key_resp_prc_inst.stopped,prac_a.started,prac_a.stopped,prac_b.started,prac_b.stopped,prac_c.started,prac_c.stopped,prac_d.started,prac_d.stopped,prac_e.started,prac_e.stopped,prac_f.started,prac_f.stopped,text_prc_trial.started,text_prc_trial.stopped,key_resp_study_inst.keys,key_resp_study_inst.rt,key_resp_study_inst.started,key_resp_study_inst.stopped,crit_a.started,crit_a.stopped,crit_b.started,crit_b.stopped,crit_c.started,crit_c.stopped,crit_d.started,crit_d.stopped,crit_e.started,crit_e.stopped,crit_f.started,crit_f.stopped,study_word,study_num,study_order,study_type,word_color,textStudy.started,textStudy.stopped,keyStudy.keys,keyStudy.started,keyStudy.stopped,post_study.started,post_study.stopped,key_resp_post_study.keys,key_resp_post_study.rt,key_resp_post_study.started,key_resp_post_study.stopped,test_inst.started,test_inst.stopped,key_resp_test_inst.keys,key_resp_test_inst.rt,key_resp_test_inst.started,key_resp_test_inst.stopped,test_word,test_num,test_order,test_condition,old_new_test,word_color_test,textConf.started,textConf.stopped,Participant Response,textInput.started,textInput.stopped,keyResp.keys,keyResp.rt,keyResp.started,keyResp.stopped,textEnd.started,textEnd.stopped,participant,session,date,expName,psychopyVersion,frameRate,
,,,,,,,,,,,,,,,,54.92343000002438,None,n,39.197227799973916,54.92343000002438,None,,,,,,,,,,,,,,,,,,,,,,,,,,,,,,,,,,,,,,,,,,,,,,,,,,,,,,,,,,,,,,,,,,,,,,,,,,,,,,,,,,,,,,,,,,,,,,,,,,,,,,,,,,,,,,,,,,,,,,82ND,001,2023_Aug_28_1821,ExactRep-v3-final,2021.2.3,60.101499415438504,
,,,,,,,,,,,,,,,,,,,,,,94.13840530003654,None,d,0.6940873999847099,94.13840530003654,None,,,,,,,,,,,,,,,,,,,,,,,,,,,,,,,,,,,,,,,,,,,,,,,,,,,,,,,,,,,,,,,,,,,,,,,,,,,,,,,,,,,,,,,,,,,,,,,,,,,,,,,,,,,,,,,,82ND,001,2023_Aug_28_1821,ExactRep-v3-final,2021.2.3,60.101499415438504,
,,,,,,,,,,,,,,,,,,,,,,,,,,,,whitefoils,d,space,225.56500310002593,104.99528400000418,None,,,,,,,,,,,,,,,,,,,,,,,,,,,,,,,,,,,,,,,,,,,,,,,,,,,,,,,,,,,,,,,,,,,,,,,,,,,,,,,,,,,,,,,,,,,,,,,,,,,,,,,,,,82ND,001,2023_Aug_28_1821,ExactRep-v3-final,2021.2.3,60.101499415438504,
,,,,,,,,,,,,,,,,,,,,,,,,,,,,,,,,,,95.04564600001322,None,95.04564600001322,None,95.04564600001322,None,95.04564600001322,None,95.04564600001322,None,95.04564600001322,None,space,20.736466699978337,340.7918009000132,None,,,,,,,,,,,,,,,,,,,,,,,,,,,,,,,,,,,,,,,,,,,,,,,,,,,,,,,,,,,,,,,,,,,,,,,,,,,,,,,,,,,,,,,,,,82ND,001,2023_Aug_28_1821,ExactRep-v3-final,2021.2.3,60.101499415438504,
0,0,0,0,,,,,,,,,,,,,,,,,,,,,,,,,,,,,,,,,,,,,,,,,,,,,,,330.8081813000026,None,330.8081813000026,None,330.8081813000026,None,330.8081813000026,None,330.8081813000026,None,330.8081813000026,None,361.63507620000746,None,363.6403330999892,None,,,,,,,,,,,,,,,,,,,,,,,,,,,,,,,,,,,,,,,,,,,,,,,,,,,,,,,,,,,,,,,,,,,,,,,,,,82ND,001,2023_Aug_28_1821,ExactRep-v3-final,2021.2.3,60.101499415438504,
1,0,1,0,,,,,,,,,,,,,,,,,,,,,,,,,,,,,,,,,,,,,,,,,,,,,,,,,,,,,,,,,,,364.1564427000121,None,366.1598672000109,None,,,,,,,,,,,,,,,,,,,,,,,,,,,,,,,,,,,,,,,,,,,,,,,,,,,,,,,,,,,,,,,,,,,,,,,,,,82ND,001,2023_Aug_28_1821,ExactRep-v3-final,2021.2.3,60.101499415438504,
2,0,2,0,,,,,,,,,,,,,,,,,,,,,,,,,,,,,,,,,,,,,,,,,,,,,,,,,,,,,,,,,,,366.67254060000414,None,368.6791052999906,None,,,,,,,,,,,,,,,,,,,,,,,,,,,,,,,,,,,,,,,,,,,,,,,,,,,,,,,,,,,,,,,,,,,,,,,,,,82ND,001,2023_Aug_28_1821,ExactRep-v3-final,2021.2.3,60.101499415438504,
3,0,3,0,,,,,,,,,,,,,,,,,,,,,,,,,,,,,,,,,,,,,,,,,,,,,,,,,,,,,,,,,,,369.17967089999,None,371.1814699000097,None,,,,,,,,,,,,,,,,,,,,,,,,,,,,,,,,,,,,,,,,,,,,,,,,,,,,,,,,,,,,,,,,,,,,,,,,,,82ND,001,2023_Aug_28_1821,ExactRep-v3-final,2021.2.3,60.101499415438504,
4,0,4,0,,,,,,,,,,,,,,,,,,,,,,,,,,,,,,,,,,,,,,,,,,,,,,,,,,,,,,,,,,,371.6853484000312,None,373.7008679000428,None,,,,,,,,,,,,,,,,,,,,,,,,,,,,,,,,,,,,,,,,,,,,,,,,,,,,,,,,,,,,,,,,,,,,,,,,,,82ND,001,2023_Aug_28_1821,ExactRep-v3-final,2021.2.3,60.101499415438504,
5,0,5,0,,,,,,,,,,,,,,,,,,,,,,,,,,,,,,,,,,,,,,,,,,,,,,,,,,,,,,,,,,,374.2032084999955,None,376.2033498000237,None,,,,,,,,,,,,,,,,,,,,,,,,,,,,,,,,,,,,,,,,,,,,,,,,,,,,,,,,,,,,,,,,,,,,,,,,,,82ND,001,2023_Aug_28_1821,ExactRep-v3-final,2021.2.3,60.101499415438504,
6,0,6,0,,,,,,,,,,,,,,,,,,,,,,,,,,,,,,,,,,,,,,,,,,,,,,,,,,,,,,,,,,,376.70761949999724,None,378.7224387000315,None,,,,,,,,,,,,,,,,,,,,,,,,,,,,,,,,,,,,,,,,,,,,,,,,,,,,,,,,,,,,,,,,,,,,,,,,,,82ND,001,2023_Aug_28_1821,ExactRep-v3-final,2021.2.3,60.101499415438504,
7,0,7,0,,,,,,,,,,,,,,,,,,,,,,,,,,,,,,,,,,,,,,,,,,,,,,,,,,,,,,,,,,,379.22271280002315,None,381.2247589000035,None,,,,,,,,,,,,,,,,,,,,,,,,,,,,,,,,,,,,,,,,,,,,,,,,,,,,,,,,,,,,,,,,,,,,,,,,,,82ND,001,2023_Aug_28_1821,ExactRep-v3-final,2021.2.3,60.101499415438504,
8,0,8,0,,,,,,,,,,,,,,,,,,,,,,,,,,,,,,,,,,,,,,,,,,,,,,,,,,,,,,,,,,,381.72551250003744,None,383.7271053000004,None,,,,,,,,,,,,,,,,,,,,,,,,,,,,,,,,,,,,,,,,,,,,,,,,,,,,,,,,,,,,,,,,,,,,,,,,,,82ND,001,2023_Aug_28_1821,ExactRep-v3-final,2021.2.3,60.101499415438504,
9,0,9,0,,,,,,,,,,,,,,,,,,,,,,,,,,,,,,,,,,,,,,,,,,,,,,,,,,,,,,,,,,,384.2327808000264,None,386.2463328000158,None,,,,,,,,,,,,,,,,,,,,,,,,,,,,,,,,,,,,,,,,,,,,,,,,,,,,,,,,,,,,,,,,,,,,,,,,,,82ND,001,2023_Aug_28_1821,ExactRep-v3-final,2021.2.3,60.101499415438504,
10,0,10,0,,,,,,,,,,,,,,,,,,,,,,,,,,,,,,,,,,,,,,,,,,,,,,,,,,,,,,,,,,,386.75349530001404,None,388.7655888000154,None,,,,,,,,,,,,,,,,,,,,,,,,,,,,,,,,,,,,,,,,,,,,,,,,,,,,,,,,,,,,,,,,,,,,,,,,,,82ND,001,2023_Aug_28_1821,ExactRep-v3-final,2021.2.3,60.101499415438504,
11,0,11,0,,,,,,,,,,,,,,,,,,,,,,,,,,,,,,,,,,,,,,,,,,,,,,,,,,,,,,,,,,,389.25003739999374,None,391.25171810004395,None,,,,,,,,,,,,,,,,,,,,,,,,,,,,,,,,,,,,,,,,,,,,,,,,,,,,,,,,,,,,,,,,,,,,,,,,,,82ND,001,2023_Aug_28_1821,ExactRep-v3-final,2021.2.3,60.101499415438504,
12,0,12,0,,,,,,,,,,,,,,,,,,,,,,,,,,,,,,,,,,,,,,,,,,,,,,,,,,,,,,,,,,,391.75962790002814,None,393.77084439998725,None,,,,,,,,,,,,,,,,,,,,,,,,,,,,,,,,,,,,,,,,,,,,,,,,,,,,,,,,,,,,,,,,,,,,,,,,,,82ND,001,2023_Aug_28_1821,ExactRep-v3-final,2021.2.3,60.101499415438504,
13,0,13,0,,,,,,,,,,,,,,,,,,,,,,,,,,,,,,,,,,,,,,,,,,,,,,,,,,,,,,,,,,,394.27138980000746,None,396.27339680003934,None,,,,,,,,,,,,,,,,,,,,,,,,,,,,,,,,,,,,,,,,,,,,,,,,,,,,,,,,,,,,,,,,,,,,,,,,,,82ND,001,2023_Aug_28_1821,ExactRep-v3-final,2021.2.3,60.101499415438504,
14,0,14,0,,,,,,,,,,,,,,,,,,,,,,,,,,,,,,,,,,,,,,,,,,,,,,,,,,,,,,,,,,,396.7852544999914,None,398.79311660001986,None,,,,,,,,,,,,,,,,,,,,,,,,,,,,,,,,,,,,,,,,,,,,,,,,,,,,,,,,,,,,,,,,,,,,,,,,,,82ND,001,2023_Aug_28_1821,ExactRep-v3-final,2021.2.3,60.101499415438504,
,,,,,,,,,,,,,,,,,,,,,,,,,,,,,,,,,,,,,,,,,,,,,,,,,,,,,,,,,,,,,,,,,,space,17.909310599963646,409.4269495999906,None,,,,,,,,,,,,,,,,,,,,,,,,,,,,,,,,,,,,,,,,,,,,,,,,,,,,,,,,,,,,,,,,,,,,,,82ND,001,2023_Aug_28_1821,ExactRep-v3-final,2021.2.3,60.101499415438504,
,,,,0,0,0,0,,,,,,,,,,,,,,,,,,,,,,,,,,,,,,,,,,,,,,,,,,,,,,,,,,,,,,,,,429.43952850002097,None,,,,,399.42983870004537,None,399.42983870004537,None,399.42983870004537,None,399.42983870004537,None,399.42983870004537,None,399.42983870004537,None,427.4283426000038,None,,,,,,,,,,,,,,,,,,,,,,,,,,,,,,,,,,,,,,,,,,,,,,,,,,,,,,,,82ND,001,2023_Aug_28_1821,ExactRep-v3-final,2021.2.3,60.101499415438504,
,,,,1,0,1,0,,,,,,,,,,,,,,,,,,,,,,,,,,,,,,,,,,,,,,,,,,,,,,,,,,,,,,,,,431.94200139999157,None,,,,,,,,,,,,,,,,,429.94018289999804,None,,,,,,,,,,,,,,,,,,,,,,,,,,,,,,,,,,,,,,,,,,,,,,,,,,,,,,,,82ND,001,2023_Aug_28_1821,ExactRep-v3-final,2021.2.3,60.101499415438504,
,,,,2,0,2,0,,,,,,,,,,,,,,,,,,,,,,,,,,,,,,,,,,,,,,,,,,,,,,,,,,,,,,,,,434.4448660000344,None,,,,,,,,,,,,,,,,,432.44332740001846,None,,,,,,,,,,,,,,,,,,,,,,,,,,,,,,,,,,,,,,,,,,,,,,,,,,,,,,,,82ND,001,2023_Aug_28_1821,ExactRep-v3-final,2021.2.3,60.101499415438504,
,,,,3,0,3,0,,,,,,,,,,,,,,,,,,,,,,,,,,,,,,,,,,,,,,,,,,,,,,,,,,,,,,,,,436.94734360004077,None,,,,,,,,,,,,,,,,,434.9454620000324,None,,,,,,,,,,,,,,,,,,,,,,,,,,,,,,,,,,,,,,,,,,,,,,,,,,,,,,,,82ND,001,2023_Aug_28_1821,ExactRep-v3-final,2021.2.3,60.101499415438504,
,,,,4,0,4,0,,,,,,,,,,,,,,,,,,,,,,,,,,,,,,,,,,,,,,,,,,,,,,,,,,,,,,,,,439.4500024000299,None,,,,,,,,,,,,,,,,,437.4478843000252,None,,,,,,,,,,,,,,,,,,,,,,,,,,,,,,,,,,,,,,,,,,,,,,,,,,,,,,,,82ND,001,2023_Aug_28_1821,ExactRep-v3-final,2021.2.3,60.101499415438504,
,,,,5,0,5,0,,,,,,,,,,,,,,,,,,,,,,,,,,,,,,,,,,,,,,,,,,,,,,,,,,,,,,,,,441.9520002999925,None,,,,,,,,,,,,,,,,,439.9502866000403,None,,,,,,,,,,,,,,,,,,,,,,,,,,,,,,,,,,,,,,,,,,,,,,,,,,,,,,,,82ND,001,2023_Aug_28_1821,ExactRep-v3-final,2021.2.3,60.101499415438504,
,,,,6,0,6,0,,,,,,,,,,,,,,,,,,,,,,,,,,,,,,,,,,,,,,,,,,,,,,,,,,,,,,,,,444.4544460999896,None,,,,,,,,,,,,,,,,,442.4524764000089,None,,,,,,,,,,,,,,,,,,,,,,,,,,,,,,,,,,,,,,,,,,,,,,,,,,,,,,,,82ND,001,2023_Aug_28_1821,ExactRep-v3-final,2021.2.3,60.101499415438504,
,,,,7,0,7,0,,,,,,,,,,,,,,,,,,,,,,,,,,,,,,,,,,,,,,,,,,,,,,,,,,,,,,,,,446.9573514999938,None,,,,,,,,,,,,,,,,,444.9553795999964,None,,,,,,,,,,,,,,,,,,,,,,,,,,,,,,,,,,,,,,,,,,,,,,,,,,,,,,,,82ND,001,2023_Aug_28_1821,ExactRep-v3-final,2021.2.3,60.101499415438504,
,,,,8,0,8,0,,,,,,,,,,,,,,,,,,,,,,,,,,,,,,,,,,,,,,,,,,,,,,,,,,,,,,,,,449.45991650002543,None,,,,,,,,,,,,,,,,,447.45794520003255,None,,,,,,,,,,,,,,,,,,,,,,,,,,,,,,,,,,,,,,,,,,,,,,,,,,,,,,,,82ND,001,2023_Aug_28_1821,ExactRep-v3-final,2021.2.3,60.101499415438504,
,,,,9,0,9,0,,,,,,,,,,,,,,,,,,,,,,,,,,,,,,,,,,,,,,,,,,,,,,,,,,,,,,,,,451.9624285000027,None,,,,,,,,,,,,,,,,,449.96053199999733,None,,,,,,,,,,,,,,,,,,,,,,,,,,,,,,,,,,,,,,,,,,,,,,,,,,,,,,,,82ND,001,2023_Aug_28_1821,ExactRep-v3-final,2021.2.3,60.101499415438504,
,,,,10,0,10,0,,,,,,,,,,,,,,,,,,,,,,,,,,,,,,,,,,,,,,,,,,,,,,,,,,,,,,,,,454.4648589999997,None,,,,,,,,,,,,,,,,,452.46305970003596,None,,,,,,,,,,,,,,,,,,,,,,,,,,,,,,,,,,,,,,,,,,,,,,,,,,,,,,,,82ND,001,2023_Aug_28_1821,ExactRep-v3-final,2021.2.3,60.101499415438504,
,,,,11,0,11,0,,,,,,,,,,,,,,,,,,,,,,,,,,,,,,,,,,,,,,,,,,,,,,,,,,,,,,,,,456.9673499999917,None,,,,,,,,,,,,,,,,,454.9653490000055,None,,,,,,,,,,,,,,,,,,,,,,,,,,,,,,,,,,,,,,,,,,,,,,,,,,,,,,,,82ND,001,2023_Aug_28_1821,ExactRep-v3-final,2021.2.3,60.101499415438504,
,,,,12,0,12,0,,,,,,,,,,,,,,,,,,,,,,,,,,,,,,,,,,,,,,,,,,,,,,,,,,,,,,,,,459.46936819999246,None,,,,,,,,,,,,,,,,,457.4677406999981,None,,,,,,,,,,,,,,,,,,,,,,,,,,,,,,,,,,,,,,,,,,,,,,,,,,,,,,,,82ND,001,2023_Aug_28_1821,ExactRep-v3-final,2021.2.3,60.101499415438504,
,,,,13,0,13,0,,,,,,,,,,,,,,,,,,,,,,,,,,,,,,,,,,,,,,,,,,,,,,,,,,,,,,,,,461.97214720002376,None,,,,,,,,,,,,,,,,,459.97035170003073,None,,,,,,,,,,,,,,,,,,,,,,,,,,,,,,,,,,,,,,,,,,,,,,,,,,,,,,,,82ND,001,2023_Aug_28_1821,ExactRep-v3-final,2021.2.3,60.101499415438504,
,,,,14,0,14,0,,,,,,,,,,,,,,,,,,,,,,,,,,,,,,,,,,,,,,,,,,,,,,,,,,,,,,,,,464.4748683000216,None,,,,,,,,,,,,,,,,,462.47265640000114,None,,,,,,,,,,,,,,,,,,,,,,,,,,,,,,,,,,,,,,,,,,,,,,,,,,,,,,,,82ND,001,2023_Aug_28_1821,ExactRep-v3-final,2021.2.3,60.101499415438504,
,,,,,,,,,,,,,,,,,,,,,,,,,,,,,,,,,,,,,,,,,,,,,,,,,,,,,,,,,,,,,,,,,,,,,,,,,,,,,,,,,,,,space,31.679807899985462,475.1124237999902,None,,,,,,,,,,,,,,,,,,,,,,,,,,,,,,,,,,,,,,,,,,,,,,,,,,,,82ND,001,2023_Aug_28_1821,ExactRep-v3-final,2021.2.3,60.101499415438504,
,,,,,,,,0,0,0,0,,,,,,,,,,,,,,,,,,,,,,,,,,,,,,,,,,,,,,,,,,,,,,,,,,,,,508.88551630004076,None,,,,,,,,,,,,,,,,,,,,,,,465.1603677000385,None,465.1603677000385,None,465.1603677000385,None,465.1603677000385,None,465.1603677000385,None,465.1603677000385,None,bar,103,1,aloud,blue,506.8787014000118,None,None,506.8787014000118,None,,,,,,,,,,,,,,,,,,,,,,,,,,,,,,82ND,001,2023_Aug_28_1821,ExactRep-v3-final,2021.2.3,60.101499415438504,
,,,,,,,,1,0,1,0,,,,,,,,,,,,,,,,,,,,,,,,,,,,,,,,,,,,,,,,,,,,,,,,,,,,,511.40468330000294,None,,,,,,,,,,,,,,,,,,,,,,,,,,,,,,,,,,,cattle,50,2,silent,white,509.39613450004254,None,None,509.39613450004254,None,,,,,,,,,,,,,,,,,,,,,,,,,,,,,,82ND,001,2023_Aug_28_1821,ExactRep-v3-final,2021.2.3,60.101499415438504,
,,,,,,,,2,0,2,0,,,,,,,,,,,,,,,,,,,,,,,,,,,,,,,,,,,,,,,,,,,,,,,,,,,,,513.9241860000184,None,,,,,,,,,,,,,,,,,,,,,,,,,,,,,,,,,,,library,15,3,sing,red,511.91281579999486,None,None,511.91281579999486,None,,,,,,,,,,,,,,,,,,,,,,,,,,,,,,82ND,001,2023_Aug_28_1821,ExactRep-v3-final,2021.2.3,60.101499415438504,
,,,,,,,,3,0,3,0,,,,,,,,,,,,,,,,,,,,,,,,,,,,,,,,,,,,,,,,,,,,,,,,,,,,,516.4266390000121,None,,,,,,,,,,,,,,,,,,,,,,,,,,,,,,,,,,,love,108,4,aloud,blue,514.4247190000024,None,None,514.4247190000024,None,,,,,,,,,,,,,,,,,,,,,,,,,,,,,,82ND,001,2023_Aug_28_1821,ExactRep-v3-final,2021.2.3,60.101499415438504,
,,,,,,,,4,0,4,0,,,,,,,,,,,,,,,,,,,,,,,,,,,,,,,,,,,,,,,,,,,,,,,,,,,,,518.945628800022,None,,,,,,,,,,,,,,,,,,,,,,,,,,,,,,,,,,,artist,114,5,aloud,blue,516.9324091000017,None,None,516.9324091000017,None,,,,,,,,,,,,,,,,,,,,,,,,,,,,,,82ND,001,2023_Aug_28_1821,ExactRep-v3-final,2021.2.3,60.101499415438504,
,,,,,,,,5,0,5,0,,,,,,,,,,,,,,,,,,,,,,,,,,,,,,,,,,,,,,,,,,,,,,,,,,,,,521.4482228000415,None,,,,,,,,,,,,,,,,,,,,,,,,,,,,,,,,,,,board,26,6,sing,red,519.4489524000091,None,None,519.4489524000091,None,,,,,,,,,,,,,,,,,,,,,,,,,,,,,,82ND,001,2023_Aug_28_1821,ExactRep-v3-final,2021.2.3,60.101499415438504,
,,,,,,,,6,0,6,0,,,,,,,,,,,,,,,,,,,,,,,,,,,,,,,,,,,,,,,,,,,,,,,,,,,,,523.9674358000048,None,,,,,,,,,,,,,,,,,,,,,,,,,,,,,,,,,,,answer,5,7,sing,red,521.9623151000123,None,None,521.9623151000123,None,,,,,,,,,,,,,,,,,,,,,,,,,,,,,,82ND,001,2023_Aug_28_1821,ExactRep-v3-final,2021.2.3,60.101499415438504,
,,,,,,,,7,0,7,0,,,,,,,,,,,,,,,,,,,,,,,,,,,,,,,,,,,,,,,,,,,,,,,,,,,,,526.4868890999933,None,,,,,,,,,,,,,,,,,,,,,,,,,,,,,,,,,,,hope,33,8,sing,red,524.4738692000392,None,None,524.4738692000392,None,,,,,,,,,,,,,,,,,,,,,,,,,,,,,,82ND,001,2023_Aug_28_1821,ExactRep-v3-final,2021.2.3,60.101499415438504,
,,,,,,,,8,0,8,0,,,,,,,,,,,,,,,,,,,,,,,,,,,,,,,,,,,,,,,,,,,,,,,,,,,,,529.0055896000122,None,,,,,,,,,,,,,,,,,,,,,,,,,,,,,,,,,,,horse,2,9,sing,red,526.9900723000173,None,None,526.9900723000173,None,,,,,,,,,,,,,,,,,,,,,,,,,,,,,,82ND,001,2023_Aug_28_1821,ExactRep-v3-final,2021.2.3,60.101499415438504,
,,,,,,,,9,0,9,0,,,,,,,,,,,,,,,,,,,,,,,,,,,,,,,,,,,,,,,,,,,,,,,,,,,,,531.5084983000415,None,,,,,,,,,,,,,,,,,,,,,,,,,,,,,,,,,,,wife,117,10,aloud,blue,529.507004700019,None,None,529.507004700019,None,,,,,,,,,,,,,,,,,,,,,,,,,,,,,,82ND,001,2023_Aug_28_1821,ExactRep-v3-final,2021.2.3,60.101499415438504,
,,,,,,,,10,0,10,0,,,,,,,,,,,,,,,,,,,,,,,,,,,,,,,,,,,,,,,,,,,,,,,,,,,,,534.027259399998,None,,,,,,,,,,,,,,,,,,,,,,,,,,,,,,,,,,,murder,6,11,sing,red,532.0237910000142,None,None,532.0237910000142,None,,,,,,,,,,,,,,,,,,,,,,,,,,,,,,82ND,001,2023_Aug_28_1821,ExactRep-v3-final,2021.2.3,60.101499415438504,
,,,,,,,,11,0,11,0,,,,,,,,,,,,,,,,,,,,,,,,,,,,,,,,,,,,,,,,,,,,,,,,,,,,,536.5463288000319,None,,,,,,,,,,,,,,,,,,,,,,,,,,,,,,,,,,,flower,93,12,aloud,blue,534.5319745999877,None,None,534.5319745999877,None,,,,,,,,,,,,,,,,,,,,,,,,,,,,,,82ND,001,2023_Aug_28_1821,ExactRep-v3-final,2021.2.3,60.101499415438504,
,,,,,,,,12,0,12,0,,,,,,,,,,,,,,,,,,,,,,,,,,,,,,,,,,,,,,,,,,,,,,,,,,,,,539.0661100000143,None,,,,,,,,,,,,,,,,,,,,,,,,,,,,,,,,,,,anger,27,13,sing,red,537.0593849000288,None,None,537.0593849000288,None,,,,,,,,,,,,,,,,,,,,,,,,,,,,,,82ND,001,2023_Aug_28_1821,ExactRep-v3-final,2021.2.3,60.101499415438504,
,,,,,,,,13,0,13,0,,,,,,,,,,,,,,,,,,,,,,,,,,,,,,,,,,,,,,,,,,,,,,,,,,,,,541.568115400034,None,,,,,,,,,,,,,,,,,,,,,,,,,,,,,,,,,,,queen,86,14,aloud,blue,539.5665922000189,None,None,539.5665922000189,None,,,,,,,,,,,,,,,,,,,,,,,,,,,,,,82ND,001,2023_Aug_28_1821,ExactRep-v3-final,2021.2.3,60.101499415438504,
,,,,,,,,14,0,14,0,,,,,,,,,,,,,,,,,,,,,,,,,,,,,,,,,,,,,,,,,,,,,,,,,,,,,544.0874884999939,None,,,,,,,,,,,,,,,,,,,,,,,,,,,,,,,,,,,sky,31,15,sing,red,542.0834478000179,None,None,542.0834478000179,None,,,,,,,,,,,,,,,,,,,,,,,,,,,,,,82ND,001,2023_Aug_28_1821,ExactRep-v3-final,2021.2.3,60.101499415438504,
,,,,,,,,15,0,15,0,,,,,,,,,,,,,,,,,,,,,,,,,,,,,,,,,,,,,,,,,,,,,,,,,,,,,546.5900172000402,None,,,,,,,,,,,,,,,,,,,,,,,,,,,,,,,,,,,maiden,20,16,sing,red,544.5899257000419,None,None,544.5899257000419,None,,,,,,,,,,,,,,,,,,,,,,,,,,,,,,82ND,001,2023_Aug_28_1821,ExactRep-v3-final,2021.2.3,60.101499415438504,
,,,,,,,,16,0,16,0,,,,,,,,,,,,,,,,,,,,,,,,,,,,,,,,,,,,,,,,,,,,,,,,,,,,,549.0926862999913,None,,,,,,,,,,,,,,,,,,,,,,,,,,,,,,,,,,,safety,56,17,silent,white,547.0926020999905,None,None,547.0926020999905,None,,,,,,,,,,,,,,,,,,,,,,,,,,,,,,82ND,001,2023_Aug_28_1821,ExactRep-v3-final,2021.2.3,60.101499415438504,
,,,,,,,,17,0,17,0,,,,,,,,,,,,,,,,,,,,,,,,,,,,,,,,,,,,,,,,,,,,,,,,,,,,,551.6117029000307,None,,,,,,,,,,,,,,,,,,,,,,,,,,,,,,,,,,,salary,38,18,sing,red,549.5974717999925,None,None,549.5974717999925,None,,,,,,,,,,,,,,,,,,,,,,,,,,,,,,82ND,001,2023_Aug_28_1821,ExactRep-v3-final,2021.2.3,60.101499415438504,
,,,,,,,,18,0,18,0,,,,,,,,,,,,,,,,,,,,,,,,,,,,,,,,,,,,,,,,,,,,,,,,,,,,,554.1311643000226,None,,,,,,,,,,,,,,,,,,,,,,,,,,,,,,,,,,,money,112,19,aloud,blue,552.1282586000161,None,None,552.1282586000161,None,,,,,,,,,,,,,,,,,,,,,,,,,,,,,,82ND,001,2023_Aug_28_1821,ExactRep-v3-final,2021.2.3,60.101499415438504,
,,,,,,,,19,0,19,0,,,,,,,,,,,,,,,,,,,,,,,,,,,,,,,,,,,,,,,,,,,,,,,,,,,,,556.6332512000226,None,,,,,,,,,,,,,,,,,,,,,,,,,,,,,,,,,,,victory,98,20,aloud,blue,554.6317112999968,None,None,554.6317112999968,None,,,,,,,,,,,,,,,,,,,,,,,,,,,,,,82ND,001,2023_Aug_28_1821,ExactRep-v3-final,2021.2.3,60.101499415438504,
,,,,,,,,20,0,20,0,,,,,,,,,,,,,,,,,,,,,,,,,,,,,,,,,,,,,,,,,,,,,,,,,,,,,559.1358459999901,None,,,,,,,,,,,,,,,,,,,,,,,,,,,,,,,,,,,iron,7,21,sing,red,557.1365166000323,None,None,557.1365166000323,None,,,,,,,,,,,,,,,,,,,,,,,,,,,,,,82ND,001,2023_Aug_28_1821,ExactRep-v3-final,2021.2.3,60.101499415438504,
,,,,,,,,21,0,21,0,,,,,,,,,,,,,,,,,,,,,,,,,,,,,,,,,,,,,,,,,,,,,,,,,,,,,561.6385869000223,None,,,,,,,,,,,,,,,,,,,,,,,,,,,,,,,,,,,paper,63,22,silent,white,559.6385712000192,None,None,559.6385712000192,None,,,,,,,,,,,,,,,,,,,,,,,,,,,,,,82ND,001,2023_Aug_28_1821,ExactRep-v3-final,2021.2.3,60.101499415438504,
,,,,,,,,22,0,22,0,,,,,,,,,,,,,,,,,,,,,,,,,,,,,,,,,,,,,,,,,,,,,,,,,,,,,564.157354200026,None,,,,,,,,,,,,,,,,,,,,,,,,,,,,,,,,,,,flesh,79,23,sing,red,562.1427952999948,None,None,562.1427952999948,None,,,,,,,,,,,,,,,,,,,,,,,,,,,,,,82ND,001,2023_Aug_28_1821,ExactRep-v3-final,2021.2.3,60.101499415438504,
,,,,,,,,23,0,23,0,,,,,,,,,,,,,,,,,,,,,,,,,,,,,,,,,,,,,,,,,,,,,,,,,,,,,566.6627475999994,None,,,,,,,,,,,,,,,,,,,,,,,,,,,,,,,,,,,sugar,25,24,sing,red,564.6578567000106,None,None,564.6578567000106,None,,,,,,,,,,,,,,,,,,,,,,,,,,,,,,82ND,001,2023_Aug_28_1821,ExactRep-v3-final,2021.2.3,60.101499415438504,
,,,,,,,,24,0,24,0,,,,,,,,,,,,,,,,,,,,,,,,,,,,,,,,,,,,,,,,,,,,,,,,,,,,,569.1795365000144,None,,,,,,,,,,,,,,,,,,,,,,,,,,,,,,,,,,,house,49,25,silent,white,567.1801323000109,None,None,567.1801323000109,None,,,,,,,,,,,,,,,,,,,,,,,,,,,,,,82ND,001,2023_Aug_28_1821,ExactRep-v3-final,2021.2.3,60.101499415438504,
,,,,,,,,25,0,25,0,,,,,,,,,,,,,,,,,,,,,,,,,,,,,,,,,,,,,,,,,,,,,,,,,,,,,571.698624600016,None,,,,,,,,,,,,,,,,,,,,,,,,,,,,,,,,,,,child,10,26,sing,red,569.6897818000289,None,None,569.6897818000289,None,,,,,,,,,,,,,,,,,,,,,,,,,,,,,,82ND,001,2023_Aug_28_1821,ExactRep-v3-final,2021.2.3,60.101499415438504,
,,,,,,,,26,0,26,0,,,,,,,,,,,,,,,,,,,,,,,,,,,,,,,,,,,,,,,,,,,,,,,,,,,,,574.2011089000152,None,,,,,,,,,,,,,,,,,,,,,,,,,,,,,,,,,,,nail,66,27,silent,white,572.2018206000212,None,None,572.2018206000212,None,,,,,,,,,,,,,,,,,,,,,,,,,,,,,,82ND,001,2023_Aug_28_1821,ExactRep-v3-final,2021.2.3,60.101499415438504,
,,,,,,,,27,0,27,0,,,,,,,,,,,,,,,,,,,,,,,,,,,,,,,,,,,,,,,,,,,,,,,,,,,,,576.719911799999,None,,,,,,,,,,,,,,,,,,,,,,,,,,,,,,,,,,,coast,94,28,aloud,blue,574.7060708000208,None,None,574.7060708000208,None,,,,,,,,,,,,,,,,,,,,,,,,,,,,,,82ND,001,2023_Aug_28_1821,ExactRep-v3-final,2021.2.3,60.101499415438504,
,,,,,,,,28,0,28,0,,,,,,,,,,,,,,,,,,,,,,,,,,,,,,,,,,,,,,,,,,,,,,,,,,,,,579.2224865999888,None,,,,,,,,,,,,,,,,,,,,,,,,,,,,,,,,,,,forest,61,29,silent,white,577.2208716000314,None,None,577.2208716000314,None,,,,,,,,,,,,,,,,,,,,,,,,,,,,,,82ND,001,2023_Aug_28_1821,ExactRep-v3-final,2021.2.3,60.101499415438504,
,,,,,,,,29,0,29,0,,,,,,,,,,,,,,,,,,,,,,,,,,,,,,,,,,,,,,,,,,,,,,,,,,,,,581.7251605000347,None,,,,,,,,,,,,,,,,,,,,,,,,,,,,,,,,,,,garden,84,30,aloud,blue,579.7251647000085,None,None,579.7251647000085,None,,,,,,,,,,,,,,,,,,,,,,,,,,,,,,82ND,001,2023_Aug_28_1821,ExactRep-v3-final,2021.2.3,60.101499415438504,
,,,,,,,,30,0,30,0,,,,,,,,,,,,,,,,,,,,,,,,,,,,,,,,,,,,,,,,,,,,,,,,,,,,,584.244480399997,None,,,,,,,,,,,,,,,,,,,,,,,,,,,,,,,,,,,world,65,31,silent,white,582.230269599997,None,None,582.230269599997,None,,,,,,,,,,,,,,,,,,,,,,,,,,,,,,82ND,001,2023_Aug_28_1821,ExactRep-v3-final,2021.2.3,60.101499415438504,
,,,,,,,,31,0,31,0,,,,,,,,,,,,,,,,,,,,,,,,,,,,,,,,,,,,,,,,,,,,,,,,,,,,,586.7469469000353,None,,,,,,,,,,,,,,,,,,,,,,,,,,,,,,,,,,,doll,19,32,sing,red,584.7478096000268,None,None,584.7478096000268,None,,,,,,,,,,,,,,,,,,,,,,,,,,,,,,82ND,001,2023_Aug_28_1821,ExactRep-v3-final,2021.2.3,60.101499415438504,
,,,,,,,,32,0,32,0,,,,,,,,,,,,,,,,,,,,,,,,,,,,,,,,,,,,,,,,,,,,,,,,,,,,,589.2661428000429,None,,,,,,,,,,,,,,,,,,,,,,,,,,,,,,,,,,,judge,77,33,silent,white,587.2566999000264,None,None,587.2566999000264,None,,,,,,,,,,,,,,,,,,,,,,,,,,,,,,82ND,001,2023_Aug_28_1821,ExactRep-v3-final,2021.2.3,60.101499415438504,
,,,,,,,,33,0,33,0,,,,,,,,,,,,,,,,,,,,,,,,,,,,,,,,,,,,,,,,,,,,,,,,,,,,,591.785298700037,None,,,,,,,,,,,,,,,,,,,,,,,,,,,,,,,,,,,month,100,34,aloud,blue,589.7719761999906,None,None,589.7719761999906,None,,,,,,,,,,,,,,,,,,,,,,,,,,,,,,82ND,001,2023_Aug_28_1821,ExactRep-v3-final,2021.2.3,60.101499415438504,
,,,,,,,,34,0,34,0,,,,,,,,,,,,,,,,,,,,,,,,,,,,,,,,,,,,,,,,,,,,,,,,,,,,,594.2877303000423,None,,,,,,,,,,,,,,,,,,,,,,,,,,,,,,,,,,,fortune,46,35,silent,white,592.2876097999979,None,None,592.2876097999979,None,,,,,,,,,,,,,,,,,,,,,,,,,,,,,,82ND,001,2023_Aug_28_1821,ExactRep-v3-final,2021.2.3,60.101499415438504,
,,,,,,,,35,0,35,0,,,,,,,,,,,,,,,,,,,,,,,,,,,,,,,,,,,,,,,,,,,,,,,,,,,,,596.7916775000049,None,,,,,,,,,,,,,,,,,,,,,,,,,,,,,,,,,,,disease,60,36,silent,white,594.7902967000264,None,None,594.7902967000264,None,,,,,,,,,,,,,,,,,,,,,,,,,,,,,,82ND,001,2023_Aug_28_1821,ExactRep-v3-final,2021.2.3,60.101499415438504,
,,,,,,,,36,0,36,0,,,,,,,,,,,,,,,,,,,,,,,,,,,,,,,,,,,,,,,,,,,,,,,,,,,,,599.3095182999969,None,,,,,,,,,,,,,,,,,,,,,,,,,,,,,,,,,,,series,116,37,aloud,blue,597.2944477000274,None,None,597.2944477000274,None,,,,,,,,,,,,,,,,,,,,,,,,,,,,,,82ND,001,2023_Aug_28_1821,ExactRep-v3-final,2021.2.3,60.101499415438504,
,,,,,,,,37,0,37,0,,,,,,,,,,,,,,,,,,,,,,,,,,,,,,,,,,,,,,,,,,,,,,,,,,,,,601.8287419000408,None,,,,,,,,,,,,,,,,,,,,,,,,,,,,,,,,,,,mother,87,38,aloud,blue,599.8254843000323,None,None,599.8254843000323,None,,,,,,,,,,,,,,,,,,,,,,,,,,,,,,82ND,001,2023_Aug_28_1821,ExactRep-v3-final,2021.2.3,60.101499415438504,
,,,,,,,,38,0,38,0,,,,,,,,,,,,,,,,,,,,,,,,,,,,,,,,,,,,,,,,,,,,,,,,,,,,,604.3477636000025,None,,,,,,,,,,,,,,,,,,,,,,,,,,,,,,,,,,,quality,78,39,silent,white,602.333094200003,None,None,602.333094200003,None,,,,,,,,,,,,,,,,,,,,,,,,,,,,,,82ND,001,2023_Aug_28_1821,ExactRep-v3-final,2021.2.3,60.101499415438504,
,,,,,,,,39,0,39,0,,,,,,,,,,,,,,,,,,,,,,,,,,,,,,,,,,,,,,,,,,,,,,,,,,,,,606.8503117000218,None,,,,,,,,,,,,,,,,,,,,,,,,,,,,,,,,,,,dress,72,40,silent,white,604.8480101000168,None,None,604.8480101000168,None,,,,,,,,,,,,,,,,,,,,,,,,,,,,,,82ND,001,2023_Aug_28_1821,ExactRep-v3-final,2021.2.3,60.101499415438504,
,,,,,,,,40,0,40,0,,,,,,,,,,,,,,,,,,,,,,,,,,,,,,,,,,,,,,,,,,,,,,,,,,,,,609.369183200004,None,,,,,,,,,,,,,,,,,,,,,,,,,,,,,,,,,,,shadow,55,41,silent,white,607.3542800000287,None,None,607.3542800000287,None,,,,,,,,,,,,,,,,,,,,,,,,,,,,,,82ND,001,2023_Aug_28_1821,ExactRep-v3-final,2021.2.3,60.101499415438504,
,,,,,,,,41,0,41,0,,,,,,,,,,,,,,,,,,,,,,,,,,,,,,,,,,,,,,,,,,,,,,,,,,,,,611.8715486000292,None,,,,,,,,,,,,,,,,,,,,,,,,,,,,,,,,,,,fact,81,42,aloud,blue,609.8696829000255,None,None,609.8696829000255,None,,,,,,,,,,,,,,,,,,,,,,,,,,,,,,82ND,001,2023_Aug_28_1821,ExactRep-v3-final,2021.2.3,60.101499415438504,
,,,,,,,,42,0,42,0,,,,,,,,,,,,,,,,,,,,,,,,,,,,,,,,,,,,,,,,,,,,,,,,,,,,,614.3742757000146,None,,,,,,,,,,,,,,,,,,,,,,,,,,,,,,,,,,,seat,37,43,sing,red,612.3726148999995,None,None,612.3726148999995,None,,,,,,,,,,,,,,,,,,,,,,,,,,,,,,82ND,001,2023_Aug_28_1821,ExactRep-v3-final,2021.2.3,60.101499415438504,
,,,,,,,,43,0,43,0,,,,,,,,,,,,,,,,,,,,,,,,,,,,,,,,,,,,,,,,,,,,,,,,,,,,,616.8767844000249,None,,,,,,,,,,,,,,,,,,,,,,,,,,,,,,,,,,,prayer,107,44,aloud,blue,614.876785200031,None,None,614.876785200031,None,,,,,,,,,,,,,,,,,,,,,,,,,,,,,,82ND,001,2023_Aug_28_1821,ExactRep-v3-final,2021.2.3,60.101499415438504,
,,,,,,,,44,0,44,0,,,,,,,,,,,,,,,,,,,,,,,,,,,,,,,,,,,,,,,,,,,,,,,,,,,,,619.3794160000398,None,,,,,,,,,,,,,,,,,,,,,,,,,,,,,,,,,,,bowl,29,45,sing,red,617.3793226000271,None,None,617.3793226000271,None,,,,,,,,,,,,,,,,,,,,,,,,,,,,,,82ND,001,2023_Aug_28_1821,ExactRep-v3-final,2021.2.3,60.101499415438504,
,,,,,,,,45,0,45,0,,,,,,,,,,,,,,,,,,,,,,,,,,,,,,,,,,,,,,,,,,,,,,,,,,,,,621.9020688000019,None,,,,,,,,,,,,,,,,,,,,,,,,,,,,,,,,,,,book,16,46,sing,red,619.8852015000302,None,None,619.8852015000302,None,,,,,,,,,,,,,,,,,,,,,,,,,,,,,,82ND,001,2023_Aug_28_1821,ExactRep-v3-final,2021.2.3,60.101499415438504,
,,,,,,,,46,0,46,0,,,,,,,,,,,,,,,,,,,,,,,,,,,,,,,,,,,,,,,,,,,,,,,,,,,,,624.400924400019,None,,,,,,,,,,,,,,,,,,,,,,,,,,,,,,,,,,,fur,106,47,aloud,blue,622.3993627000018,None,None,622.3993627000018,None,,,,,,,,,,,,,,,,,,,,,,,,,,,,,,82ND,001,2023_Aug_28_1821,ExactRep-v3-final,2021.2.3,60.101499415438504,
,,,,,,,,47,0,47,0,,,,,,,,,,,,,,,,,,,,,,,,,,,,,,,,,,,,,,,,,,,,,,,,,,,,,626.9033371999976,None,,,,,,,,,,,,,,,,,,,,,,,,,,,,,,,,,,,mind,21,48,sing,red,624.9019898000406,None,None,624.9019898000406,None,,,,,,,,,,,,,,,,,,,,,,,,,,,,,,82ND,001,2023_Aug_28_1821,ExactRep-v3-final,2021.2.3,60.101499415438504,
,,,,,,,,48,0,48,0,,,,,,,,,,,,,,,,,,,,,,,,,,,,,,,,,,,,,,,,,,,,,,,,,,,,,629.4228317000088,None,,,,,,,,,,,,,,,,,,,,,,,,,,,,,,,,,,,shame,53,49,silent,white,627.4090782999992,None,None,627.4090782999992,None,,,,,,,,,,,,,,,,,,,,,,,,,,,,,,82ND,001,2023_Aug_28_1821,ExactRep-v3-final,2021.2.3,60.101499415438504,
,,,,,,,,49,0,49,0,,,,,,,,,,,,,,,,,,,,,,,,,,,,,,,,,,,,,,,,,,,,,,,,,,,,,631.9419286000193,None,,,,,,,,,,,,,,,,,,,,,,,,,,,,,,,,,,,thought,14,50,sing,red,629.9390230000135,None,None,629.9390230000135,None,,,,,,,,,,,,,,,,,,,,,,,,,,,,,,82ND,001,2023_Aug_28_1821,ExactRep-v3-final,2021.2.3,60.101499415438504,
,,,,,,,,50,0,50,0,,,,,,,,,,,,,,,,,,,,,,,,,,,,,,,,,,,,,,,,,,,,,,,,,,,,,634.4609090000158,None,,,,,,,,,,,,,,,,,,,,,,,,,,,,,,,,,,,heaven,52,51,silent,white,632.4497633000137,None,None,632.4497633000137,None,,,,,,,,,,,,,,,,,,,,,,,,,,,,,,82ND,001,2023_Aug_28_1821,ExactRep-v3-final,2021.2.3,60.101499415438504,
,,,,,,,,51,0,51,0,,,,,,,,,,,,,,,,,,,,,,,,,,,,,,,,,,,,,,,,,,,,,,,,,,,,,636.9644811000326,None,,,,,,,,,,,,,,,,,,,,,,,,,,,,,,,,,,,flag,41,52,silent,white,634.9613713000435,None,None,634.9613713000435,None,,,,,,,,,,,,,,,,,,,,,,,,,,,,,,82ND,001,2023_Aug_28_1821,ExactRep-v3-final,2021.2.3,60.101499415438504,
,,,,,,,,52,0,52,0,,,,,,,,,,,,,,,,,,,,,,,,,,,,,,,,,,,,,,,,,,,,,,,,,,,,,639.4662256000447,None,,,,,,,,,,,,,,,,,,,,,,,,,,,,,,,,,,,window,91,53,aloud,blue,637.467033700028,None,None,637.467033700028,None,,,,,,,,,,,,,,,,,,,,,,,,,,,,,,82ND,001,2023_Aug_28_1821,ExactRep-v3-final,2021.2.3,60.101499415438504,
,,,,,,,,53,0,53,0,,,,,,,,,,,,,,,,,,,,,,,,,,,,,,,,,,,,,,,,,,,,,,,,,,,,,641.9852974000387,None,,,,,,,,,,,,,,,,,,,,,,,,,,,,,,,,,,,death,0,54,sing,red,639.970364000008,None,None,639.970364000008,None,,,,,,,,,,,,,,,,,,,,,,,,,,,,,,82ND,001,2023_Aug_28_1821,ExactRep-v3-final,2021.2.3,60.101499415438504,
,,,,,,,,54,0,54,0,,,,,,,,,,,,,,,,,,,,,,,,,,,,,,,,,,,,,,,,,,,,,,,,,,,,,644.4877823000425,None,,,,,,,,,,,,,,,,,,,,,,,,,,,,,,,,,,,fate,80,55,aloud,blue,642.4878605999984,None,None,642.4878605999984,None,,,,,,,,,,,,,,,,,,,,,,,,,,,,,,82ND,001,2023_Aug_28_1821,ExactRep-v3-final,2021.2.3,60.101499415438504,
,,,,,,,,55,0,55,0,,,,,,,,,,,,,,,,,,,,,,,,,,,,,,,,,,,,,,,,,,,,,,,,,,,,,646.990056700015,None,,,,,,,,,,,,,,,,,,,,,,,,,,,,,,,,,,,mercy,48,56,silent,white,644.9889175000135,None,None,644.9889175000135,None,,,,,,,,,,,,,,,,,,,,,,,,,,,,,,82ND,001,2023_Aug_28_1821,ExactRep-v3-final,2021.2.3,60.101499415438504,
,,,,,,,,56,0,56,0,,,,,,,,,,,,,,,,,,,,,,,,,,,,,,,,,,,,,,,,,,,,,,,,,,,,,649.4931783000357,None,,,,,,,,,,,,,,,,,,,,,,,,,,,,,,,,,,,stone,39,57,silent,white,647.4910871000029,None,None,647.4910871000029,None,,,,,,,,,,,,,,,,,,,,,,,,,,,,,,82ND,001,2023_Aug_28_1821,ExactRep-v3-final,2021.2.3,60.101499415438504,
,,,,,,,,57,0,57,0,,,,,,,,,,,,,,,,,,,,,,,,,,,,,,,,,,,,,,,,,,,,,,,,,,,,,651.9952136999927,None,,,,,,,,,,,,,,,,,,,,,,,,,,,,,,,,,,,bird,85,58,aloud,blue,649.9953453000053,None,None,649.9953453000053,None,,,,,,,,,,,,,,,,,,,,,,,,,,,,,,82ND,001,2023_Aug_28_1821,ExactRep-v3-final,2021.2.3,60.101499415438504,
,,,,,,,,58,0,58,0,,,,,,,,,,,,,,,,,,,,,,,,,,,,,,,,,,,,,,,,,,,,,,,,,,,,,654.4975901000435,None,,,,,,,,,,,,,,,,,,,,,,,,,,,,,,,,,,,law,64,59,silent,white,652.4957811000058,None,None,652.4957811000058,None,,,,,,,,,,,,,,,,,,,,,,,,,,,,,,82ND,001,2023_Aug_28_1821,ExactRep-v3-final,2021.2.3,60.101499415438504,
,,,,,,,,59,0,59,0,,,,,,,,,,,,,,,,,,,,,,,,,,,,,,,,,,,,,,,,,,,,,,,,,,,,,657.0169386999914,None,,,,,,,,,,,,,,,,,,,,,,,,,,,,,,,,,,,meadow,9,60,sing,red,655.0147330000182,None,None,655.0147330000182,None,,,,,,,,,,,,,,,,,,,,,,,,,,,,,,82ND,001,2023_Aug_28_1821,ExactRep-v3-final,2021.2.3,60.101499415438504,
,,,,,,,,60,0,60,0,,,,,,,,,,,,,,,,,,,,,,,,,,,,,,,,,,,,,,,,,,,,,,,,,,,,,659.5195294000441,None,,,,,,,,,,,,,,,,,,,,,,,,,,,,,,,,,,,fault,101,61,aloud,blue,657.5194510000292,None,None,657.5194510000292,None,,,,,,,,,,,,,,,,,,,,,,,,,,,,,,82ND,001,2023_Aug_28_1821,ExactRep-v3-final,2021.2.3,60.101499415438504,
,,,,,,,,61,0,61,0,,,,,,,,,,,,,,,,,,,,,,,,,,,,,,,,,,,,,,,,,,,,,,,,,,,,,662.0385161000304,None,,,,,,,,,,,,,,,,,,,,,,,,,,,,,,,,,,,glory,118,62,aloud,blue,660.0244525999879,None,None,660.0244525999879,None,,,,,,,,,,,,,,,,,,,,,,,,,,,,,,82ND,001,2023_Aug_28_1821,ExactRep-v3-final,2021.2.3,60.101499415438504,
,,,,,,,,62,0,62,0,,,,,,,,,,,,,,,,,,,,,,,,,,,,,,,,,,,,,,,,,,,,,,,,,,,,,664.5578232000116,None,,,,,,,,,,,,,,,,,,,,,,,,,,,,,,,,,,,method,99,63,aloud,blue,662.5452931000036,None,None,662.5452931000036,None,,,,,,,,,,,,,,,,,,,,,,,,,,,,,,82ND,001,2023_Aug_28_1821,ExactRep-v3-final,2021.2.3,60.101499415438504,
,,,,,,,,63,0,63,0,,,,,,,,,,,,,,,,,,,,,,,,,,,,,,,,,,,,,,,,,,,,,,,,,,,,,667.0604398000287,None,,,,,,,,,,,,,,,,,,,,,,,,,,,,,,,,,,,pupil,12,64,sing,red,665.0608810000122,None,None,665.0608810000122,None,,,,,,,,,,,,,,,,,,,,,,,,,,,,,,82ND,001,2023_Aug_28_1821,ExactRep-v3-final,2021.2.3,60.101499415438504,
,,,,,,,,64,0,64,0,,,,,,,,,,,,,,,,,,,,,,,,,,,,,,,,,,,,,,,,,,,,,,,,,,,,,669.5792262000032,None,,,,,,,,,,,,,,,,,,,,,,,,,,,,,,,,,,,boulder,32,65,sing,red,667.5645184000023,None,None,667.5645184000023,None,,,,,,,,,,,,,,,,,,,,,,,,,,,,,,82ND,001,2023_Aug_28_1821,ExactRep-v3-final,2021.2.3,60.101499415438504,
,,,,,,,,65,0,65,0,,,,,,,,,,,,,,,,,,,,,,,,,,,,,,,,,,,,,,,,,,,,,,,,,,,,,672.0992154999985,None,,,,,,,,,,,,,,,,,,,,,,,,,,,,,,,,,,,storm,68,66,silent,white,670.0856736000278,None,None,670.0856736000278,None,,,,,,,,,,,,,,,,,,,,,,,,,,,,,,82ND,001,2023_Aug_28_1821,ExactRep-v3-final,2021.2.3,60.101499415438504,
,,,,,,,,66,0,66,0,,,,,,,,,,,,,,,,,,,,,,,,,,,,,,,,,,,,,,,,,,,,,,,,,,,,,674.6011190999998,None,,,,,,,,,,,,,,,,,,,,,,,,,,,,,,,,,,,cost,57,67,silent,white,672.6001764000393,None,None,672.6001764000393,None,,,,,,,,,,,,,,,,,,,,,,,,,,,,,,82ND,001,2023_Aug_28_1821,ExactRep-v3-final,2021.2.3,60.101499415438504,
,,,,,,,,67,0,67,0,,,,,,,,,,,,,,,,,,,,,,,,,,,,,,,,,,,,,,,,,,,,,,,,,,,,,677.1034471000312,None,,,,,,,,,,,,,,,,,,,,,,,,,,,,,,,,,,,effort,44,68,silent,white,675.1024277000106,None,None,675.1024277000106,None,,,,,,,,,,,,,,,,,,,,,,,,,,,,,,82ND,001,2023_Aug_28_1821,ExactRep-v3-final,2021.2.3,60.101499415438504,
,,,,,,,,68,0,68,0,,,,,,,,,,,,,,,,,,,,,,,,,,,,,,,,,,,,,,,,,,,,,,,,,,,,,679.6228432999924,None,,,,,,,,,,,,,,,,,,,,,,,,,,,,,,,,,,,moment,88,69,aloud,blue,677.6094939000322,None,None,677.6094939000322,None,,,,,,,,,,,,,,,,,,,,,,,,,,,,,,82ND,001,2023_Aug_28_1821,ExactRep-v3-final,2021.2.3,60.101499415438504,
,,,,,,,,69,0,69,0,,,,,,,,,,,,,,,,,,,,,,,,,,,,,,,,,,,,,,,,,,,,,,,,,,,,,682.12532739999,None,,,,,,,,,,,,,,,,,,,,,,,,,,,,,,,,,,,shock,59,70,silent,white,680.1259818000253,None,None,680.1259818000253,None,,,,,,,,,,,,,,,,,,,,,,,,,,,,,,82ND,001,2023_Aug_28_1821,ExactRep-v3-final,2021.2.3,60.101499415438504,
,,,,,,,,70,0,70,0,,,,,,,,,,,,,,,,,,,,,,,,,,,,,,,,,,,,,,,,,,,,,,,,,,,,,684.6277253000299,None,,,,,,,,,,,,,,,,,,,,,,,,,,,,,,,,,,,cotton,113,71,aloud,blue,682.6278422999894,None,None,682.6278422999894,None,,,,,,,,,,,,,,,,,,,,,,,,,,,,,,82ND,001,2023_Aug_28_1821,ExactRep-v3-final,2021.2.3,60.101499415438504,
,,,,,,,,71,0,71,0,,,,,,,,,,,,,,,,,,,,,,,,,,,,,,,,,,,,,,,,,,,,,,,,,,,,,687.1301594999968,None,,,,,,,,,,,,,,,,,,,,,,,,,,,,,,,,,,,author,40,72,silent,white,685.1286602999899,None,None,685.1286602999899,None,,,,,,,,,,,,,,,,,,,,,,,,,,,,,,82ND,001,2023_Aug_28_1821,ExactRep-v3-final,2021.2.3,60.101499415438504,
,,,,,,,,72,0,72,0,,,,,,,,,,,,,,,,,,,,,,,,,,,,,,,,,,,,,,,,,,,,,,,,,,,,,689.6495923000039,None,,,,,,,,,,,,,,,,,,,,,,,,,,,,,,,,,,,slave,109,73,aloud,blue,687.6437276999932,None,None,687.6437276999932,None,,,,,,,,,,,,,,,,,,,,,,,,,,,,,,82ND,001,2023_Aug_28_1821,ExactRep-v3-final,2021.2.3,60.101499415438504,
,,,,,,,,73,0,73,0,,,,,,,,,,,,,,,,,,,,,,,,,,,,,,,,,,,,,,,,,,,,,,,,,,,,,692.1688577000168,None,,,,,,,,,,,,,,,,,,,,,,,,,,,,,,,,,,,meeting,22,74,sing,red,690.1546009000158,None,None,690.1546009000158,None,,,,,,,,,,,,,,,,,,,,,,,,,,,,,,82ND,001,2023_Aug_28_1821,ExactRep-v3-final,2021.2.3,60.101499415438504,
,,,,,,,,74,0,74,0,,,,,,,,,,,,,,,,,,,,,,,,,,,,,,,,,,,,,,,,,,,,,,,,,,,,,694.6714171000058,None,,,,,,,,,,,,,,,,,,,,,,,,,,,,,,,,,,,event,89,75,aloud,blue,692.6718698000186,None,None,692.6718698000186,None,,,,,,,,,,,,,,,,,,,,,,,,,,,,,,82ND,001,2023_Aug_28_1821,ExactRep-v3-final,2021.2.3,60.101499415438504,
,,,,,,,,75,0,75,0,,,,,,,,,,,,,,,,,,,,,,,,,,,,,,,,,,,,,,,,,,,,,,,,,,,,,697.1904772000271,None,,,,,,,,,,,,,,,,,,,,,,,,,,,,,,,,,,,tree,42,76,silent,white,695.1753535000025,None,None,695.1753535000025,None,,,,,,,,,,,,,,,,,,,,,,,,,,,,,,82ND,001,2023_Aug_28_1821,ExactRep-v3-final,2021.2.3,60.101499415438504,
,,,,,,,,76,0,76,0,,,,,,,,,,,,,,,,,,,,,,,,,,,,,,,,,,,,,,,,,,,,,,,,,,,,,699.7102097999887,None,,,,,,,,,,,,,,,,,,,,,,,,,,,,,,,,,,,plant,110,77,aloud,blue,697.7034016000107,None,None,697.7034016000107,None,,,,,,,,,,,,,,,,,,,,,,,,,,,,,,82ND,001,2023_Aug_28_1821,ExactRep-v3-final,2021.2.3,60.101499415438504,
,,,,,,,,77,0,77,0,,,,,,,,,,,,,,,,,,,,,,,,,,,,,,,,,,,,,,,,,,,,,,,,,,,,,702.2289843999897,None,,,,,,,,,,,,,,,,,,,,,,,,,,,,,,,,,,,advice,67,78,silent,white,700.2218689000001,None,None,700.2218689000001,None,,,,,,,,,,,,,,,,,,,,,,,,,,,,,,82ND,001,2023_Aug_28_1821,ExactRep-v3-final,2021.2.3,60.101499415438504,
,,,,,,,,78,0,78,0,,,,,,,,,,,,,,,,,,,,,,,,,,,,,,,,,,,,,,,,,,,,,,,,,,,,,704.7314787000068,None,,,,,,,,,,,,,,,,,,,,,,,,,,,,,,,,,,,rock,3,79,sing,red,702.7315800000215,None,None,702.7315800000215,None,,,,,,,,,,,,,,,,,,,,,,,,,,,,,,82ND,001,2023_Aug_28_1821,ExactRep-v3-final,2021.2.3,60.101499415438504,
,,,,,,,,79,0,79,0,,,,,,,,,,,,,,,,,,,,,,,,,,,,,,,,,,,,,,,,,,,,,,,,,,,,,707.2502641000319,None,,,,,,,,,,,,,,,,,,,,,,,,,,,,,,,,,,,science,36,80,sing,red,705.2364498000243,None,None,705.2364498000243,None,,,,,,,,,,,,,,,,,,,,,,,,,,,,,,82ND,001,2023_Aug_28_1821,ExactRep-v3-final,2021.2.3,60.101499415438504,
,,,,,,,,80,0,80,0,,,,,,,,,,,,,,,,,,,,,,,,,,,,,,,,,,,,,,,,,,,,,,,,,,,,,709.7694558000076,None,,,,,,,,,,,,,,,,,,,,,,,,,,,,,,,,,,,person,90,81,aloud,blue,707.7609994999948,None,None,707.7609994999948,None,,,,,,,,,,,,,,,,,,,,,,,,,,,,,,82ND,001,2023_Aug_28_1821,ExactRep-v3-final,2021.2.3,60.101499415438504,
,,,,,,,,81,0,81,0,,,,,,,,,,,,,,,,,,,,,,,,,,,,,,,,,,,,,,,,,,,,,,,,,,,,,712.2886468000361,None,,,,,,,,,,,,,,,,,,,,,,,,,,,,,,,,,,,doctor,17,82,sing,red,710.2740958000068,None,None,710.2740958000068,None,,,,,,,,,,,,,,,,,,,,,,,,,,,,,,82ND,001,2023_Aug_28_1821,ExactRep-v3-final,2021.2.3,60.101499415438504,
,,,,,,,,82,0,82,0,,,,,,,,,,,,,,,,,,,,,,,,,,,,,,,,,,,,,,,,,,,,,,,,,,,,,714.7914441000321,None,,,,,,,,,,,,,,,,,,,,,,,,,,,,,,,,,,,passion,58,83,silent,white,712.7891324000084,None,None,712.7891324000084,None,,,,,,,,,,,,,,,,,,,,,,,,,,,,,,82ND,001,2023_Aug_28_1821,ExactRep-v3-final,2021.2.3,60.101499415438504,
,,,,,,,,83,0,83,0,,,,,,,,,,,,,,,,,,,,,,,,,,,,,,,,,,,,,,,,,,,,,,,,,,,,,717.3105454000179,None,,,,,,,,,,,,,,,,,,,,,,,,,,,,,,,,,,,string,96,84,aloud,blue,715.2950645000092,None,None,715.2950645000092,None,,,,,,,,,,,,,,,,,,,,,,,,,,,,,,82ND,001,2023_Aug_28_1821,ExactRep-v3-final,2021.2.3,60.101499415438504,
,,,,,,,,84,0,84,0,,,,,,,,,,,,,,,,,,,,,,,,,,,,,,,,,,,,,,,,,,,,,,,,,,,,,719.8129052000004,None,,,,,,,,,,,,,,,,,,,,,,,,,,,,,,,,,,,friend,51,85,silent,white,717.8119806000032,None,None,717.8119806000032,None,,,,,,,,,,,,,,,,,,,,,,,,,,,,,,82ND,001,2023_Aug_28_1821,ExactRep-v3-final,2021.2.3,60.101499415438504,
,,,,,,,,85,0,85,0,,,,,,,,,,,,,,,,,,,,,,,,,,,,,,,,,,,,,,,,,,,,,,,,,,,,,722.3323052999913,None,,,,,,,,,,,,,,,,,,,,,,,,,,,,,,,,,,,memory,70,86,silent,white,720.3287659999914,None,None,720.3287659999914,None,,,,,,,,,,,,,,,,,,,,,,,,,,,,,,82ND,001,2023_Aug_28_1821,ExactRep-v3-final,2021.2.3,60.101499415438504,
,,,,,,,,86,0,86,0,,,,,,,,,,,,,,,,,,,,,,,,,,,,,,,,,,,,,,,,,,,,,,,,,,,,,724.8352069000248,None,,,,,,,,,,,,,,,,,,,,,,,,,,,,,,,,,,,grass,105,87,aloud,blue,722.8332661000313,None,None,722.8332661000313,None,,,,,,,,,,,,,,,,,,,,,,,,,,,,,,82ND,001,2023_Aug_28_1821,ExactRep-v3-final,2021.2.3,60.101499415438504,
,,,,,,,,87,0,87,0,,,,,,,,,,,,,,,,,,,,,,,,,,,,,,,,,,,,,,,,,,,,,,,,,,,,,727.3540710000088,None,,,,,,,,,,,,,,,,,,,,,,,,,,,,,,,,,,,season,62,88,silent,white,725.3410220000078,None,None,725.3410220000078,None,,,,,,,,,,,,,,,,,,,,,,,,,,,,,,82ND,001,2023_Aug_28_1821,ExactRep-v3-final,2021.2.3,60.101499415438504,
,,,,,,,,88,0,88,0,,,,,,,,,,,,,,,,,,,,,,,,,,,,,,,,,,,,,,,,,,,,,,,,,,,,,729.8733150000335,None,,,,,,,,,,,,,,,,,,,,,,,,,,,,,,,,,,,steam,54,89,silent,white,727.8583080000244,None,None,727.8583080000244,None,,,,,,,,,,,,,,,,,,,,,,,,,,,,,,82ND,001,2023_Aug_28_1821,ExactRep-v3-final,2021.2.3,60.101499415438504,
,,,,,,,,89,0,89,0,,,,,,,,,,,,,,,,,,,,,,,,,,,,,,,,,,,,,,,,,,,,,,,,,,,,,732.3751084000105,None,,,,,,,,,,,,,,,,,,,,,,,,,,,,,,,,,,,health,75,90,silent,white,730.3733900000225,None,None,730.3733900000225,None,,,,,,,,,,,,,,,,,,,,,,,,,,,,,,82ND,001,2023_Aug_28_1821,ExactRep-v3-final,2021.2.3,60.101499415438504,
,,,,,,,,90,0,90,0,,,,,,,,,,,,,,,,,,,,,,,,,,,,,,,,,,,,,,,,,,,,,,,,,,,,,734.8781722999993,None,,,,,,,,,,,,,,,,,,,,,,,,,,,,,,,,,,,picture,115,91,aloud,blue,732.8783761000377,None,None,732.8783761000377,None,,,,,,,,,,,,,,,,,,,,,,,,,,,,,,82ND,001,2023_Aug_28_1821,ExactRep-v3-final,2021.2.3,60.101499415438504,
,,,,,,,,91,0,91,0,,,,,,,,,,,,,,,,,,,,,,,,,,,,,,,,,,,,,,,,,,,,,,,,,,,,,737.3973969999934,None,,,,,,,,,,,,,,,,,,,,,,,,,,,,,,,,,,,square,43,92,silent,white,735.3831393000437,None,None,735.3831393000437,None,,,,,,,,,,,,,,,,,,,,,,,,,,,,,,82ND,001,2023_Aug_28_1821,ExactRep-v3-final,2021.2.3,60.101499415438504,
,,,,,,,,92,0,92,0,,,,,,,,,,,,,,,,,,,,,,,,,,,,,,,,,,,,,,,,,,,,,,,,,,,,,739.9164935000008,None,,,,,,,,,,,,,,,,,,,,,,,,,,,,,,,,,,,college,18,93,sing,red,737.9078581000213,None,None,737.9078581000213,None,,,,,,,,,,,,,,,,,,,,,,,,,,,,,,82ND,001,2023_Aug_28_1821,ExactRep-v3-final,2021.2.3,60.101499415438504,
,,,,,,,,93,0,93,0,,,,,,,,,,,,,,,,,,,,,,,,,,,,,,,,,,,,,,,,,,,,,,,,,,,,,742.4190986999893,None,,,,,,,,,,,,,,,,,,,,,,,,,,,,,,,,,,,engine,83,94,aloud,blue,740.4197856000392,None,None,740.4197856000392,None,,,,,,,,,,,,,,,,,,,,,,,,,,,,,,82ND,001,2023_Aug_28_1821,ExactRep-v3-final,2021.2.3,60.101499415438504,
,,,,,,,,94,0,94,0,,,,,,,,,,,,,,,,,,,,,,,,,,,,,,,,,,,,,,,,,,,,,,,,,,,,,744.9379026000388,None,,,,,,,,,,,,,,,,,,,,,,,,,,,,,,,,,,,virtue,97,95,aloud,blue,742.9227378999931,None,None,742.9227378999931,None,,,,,,,,,,,,,,,,,,,,,,,,,,,,,,82ND,001,2023_Aug_28_1821,ExactRep-v3-final,2021.2.3,60.101499415438504,
,,,,,,,,95,0,95,0,,,,,,,,,,,,,,,,,,,,,,,,,,,,,,,,,,,,,,,,,,,,,,,,,,,,,747.4407919000369,None,,,,,,,,,,,,,,,,,,,,,,,,,,,,,,,,,,,door,76,96,silent,white,745.4383626999916,None,None,745.4383626999916,None,,,,,,,,,,,,,,,,,,,,,,,,,,,,,,82ND,001,2023_Aug_28_1821,ExactRep-v3-final,2021.2.3,60.101499415438504,
,,,,,,,,96,0,96,0,,,,,,,,,,,,,,,,,,,,,,,,,,,,,,,,,,,,,,,,,,,,,,,,,,,,,749.9600034999894,None,,,,,,,,,,,,,,,,,,,,,,,,,,,,,,,,,,,cat,69,97,silent,white,747.9453076000209,None,None,747.9453076000209,None,,,,,,,,,,,,,,,,,,,,,,,,,,,,,,82ND,001,2023_Aug_28_1821,ExactRep-v3-final,2021.2.3,60.101499415438504,
,,,,,,,,97,0,97,0,,,,,,,,,,,,,,,,,,,,,,,,,,,,,,,,,,,,,,,,,,,,,,,,,,,,,752.4788883000147,None,,,,,,,,,,,,,,,,,,,,,,,,,,,,,,,,,,,priest,111,98,aloud,blue,750.4735113999923,None,None,750.4735113999923,None,,,,,,,,,,,,,,,,,,,,,,,,,,,,,,82ND,001,2023_Aug_28_1821,ExactRep-v3-final,2021.2.3,60.101499415438504,
,,,,,,,,98,0,98,0,,,,,,,,,,,,,,,,,,,,,,,,,,,,,,,,,,,,,,,,,,,,,,,,,,,,,754.9814433000283,None,,,,,,,,,,,,,,,,,,,,,,,,,,,,,,,,,,,hour,35,99,sing,red,752.9799388000392,None,None,752.9799388000392,None,,,,,,,,,,,,,,,,,,,,,,,,,,,,,,82ND,001,2023_Aug_28_1821,ExactRep-v3-final,2021.2.3,60.101499415438504,
,,,,,,,,99,0,99,0,,,,,,,,,,,,,,,,,,,,,,,,,,,,,,,,,,,,,,,,,,,,,,,,,,,,,757.4838233999908,None,,,,,,,,,,,,,,,,,,,,,,,,,,,,,,,,,,,apple,30,100,sing,red,755.4837846000446,None,None,755.4837846000446,None,,,,,,,,,,,,,,,,,,,,,,,,,,,,,,82ND,001,2023_Aug_28_1821,ExactRep-v3-final,2021.2.3,60.101499415438504,
,,,,,,,,100,0,100,0,,,,,,,,,,,,,,,,,,,,,,,,,,,,,,,,,,,,,,,,,,,,,,,,,,,,,759.9871670000139,None,,,,,,,,,,,,,,,,,,,,,,,,,,,,,,,,,,,bottle,8,101,sing,red,757.984457899991,None,None,757.984457899991,None,,,,,,,,,,,,,,,,,,,,,,,,,,,,,,82ND,001,2023_Aug_28_1821,ExactRep-v3-final,2021.2.3,60.101499415438504,
,,,,,,,,101,0,101,0,,,,,,,,,,,,,,,,,,,,,,,,,,,,,,,,,,,,,,,,,,,,,,,,,,,,,762.5071522000362,None,,,,,,,,,,,,,,,,,,,,,,,,,,,,,,,,,,,valley,71,102,silent,white,760.4906172000337,None,None,760.4906172000337,None,,,,,,,,,,,,,,,,,,,,,,,,,,,,,,82ND,001,2023_Aug_28_1821,ExactRep-v3-final,2021.2.3,60.101499415438504,
,,,,,,,,102,0,102,0,,,,,,,,,,,,,,,,,,,,,,,,,,,,,,,,,,,,,,,,,,,,,,,,,,,,,765.0249189999886,None,,,,,,,,,,,,,,,,,,,,,,,,,,,,,,,,,,,arm,92,103,aloud,blue,763.0164877999923,None,None,763.0164877999923,None,,,,,,,,,,,,,,,,,,,,,,,,,,,,,,82ND,001,2023_Aug_28_1821,ExactRep-v3-final,2021.2.3,60.101499415438504,
,,,,,,,,103,0,103,0,,,,,,,,,,,,,,,,,,,,,,,,,,,,,,,,,,,,,,,,,,,,,,,,,,,,,767.529134100012,None,,,,,,,,,,,,,,,,,,,,,,,,,,,,,,,,,,,temple,104,104,aloud,blue,765.5290795000037,None,None,765.5290795000037,None,,,,,,,,,,,,,,,,,,,,,,,,,,,,,,82ND,001,2023_Aug_28_1821,ExactRep-v3-final,2021.2.3,60.101499415438504,
,,,,,,,,104,0,104,0,,,,,,,,,,,,,,,,,,,,,,,,,,,,,,,,,,,,,,,,,,,,,,,,,,,,,770.0470912000164,None,,,,,,,,,,,,,,,,,,,,,,,,,,,,,,,,,,,gift,4,105,sing,red,768.0471771000302,None,None,768.0471771000302,None,,,,,,,,,,,,,,,,,,,,,,,,,,,,,,82ND,001,2023_Aug_28_1821,ExactRep-v3-final,2021.2.3,60.101499415438504,
,,,,,,,,105,0,105,0,,,,,,,,,,,,,,,,,,,,,,,,,,,,,,,,,,,,,,,,,,,,,,,,,,,,,772.565840299998,None,,,,,,,,,,,,,,,,,,,,,,,,,,,,,,,,,,,volume,11,106,sing,red,770.5523361000232,None,None,770.5523361000232,None,,,,,,,,,,,,,,,,,,,,,,,,,,,,,,82ND,001,2023_Aug_28_1821,ExactRep-v3-final,2021.2.3,60.101499415438504,
,,,,,,,,106,0,106,0,,,,,,,,,,,,,,,,,,,,,,,,,,,,,,,,,,,,,,,,,,,,,,,,,,,,,775.0684527000412,None,,,,,,,,,,,,,,,,,,,,,,,,,,,,,,,,,,,troops,74,107,silent,white,773.0680660000071,None,None,773.0680660000071,None,,,,,,,,,,,,,,,,,,,,,,,,,,,,,,82ND,001,2023_Aug_28_1821,ExactRep-v3-final,2021.2.3,60.101499415438504,
,,,,,,,,107,0,107,0,,,,,,,,,,,,,,,,,,,,,,,,,,,,,,,,,,,,,,,,,,,,,,,,,,,,,777.5714235000196,None,,,,,,,,,,,,,,,,,,,,,,,,,,,,,,,,,,,breast,34,108,sing,red,775.5695627999958,None,None,775.5695627999958,None,,,,,,,,,,,,,,,,,,,,,,,,,,,,,,82ND,001,2023_Aug_28_1821,ExactRep-v3-final,2021.2.3,60.101499415438504,
,,,,,,,,108,0,108,0,,,,,,,,,,,,,,,,,,,,,,,,,,,,,,,,,,,,,,,,,,,,,,,,,,,,,780.0734592000372,None,,,,,,,,,,,,,,,,,,,,,,,,,,,,,,,,,,,spirit,73,109,silent,white,778.071442000044,None,None,778.071442000044,None,,,,,,,,,,,,,,,,,,,,,,,,,,,,,,82ND,001,2023_Aug_28_1821,ExactRep-v3-final,2021.2.3,60.101499415438504,
,,,,,,,,109,0,109,0,,,,,,,,,,,,,,,,,,,,,,,,,,,,,,,,,,,,,,,,,,,,,,,,,,,,,782.5938405999914,None,,,,,,,,,,,,,,,,,,,,,,,,,,,,,,,,,,,dollar,45,110,silent,white,780.5775966999936,None,None,780.5775966999936,None,,,,,,,,,,,,,,,,,,,,,,,,,,,,,,82ND,001,2023_Aug_28_1821,ExactRep-v3-final,2021.2.3,60.101499415438504,
,,,,,,,,110,0,110,0,,,,,,,,,,,,,,,,,,,,,,,,,,,,,,,,,,,,,,,,,,,,,,,,,,,,,785.1125991000445,None,,,,,,,,,,,,,,,,,,,,,,,,,,,,,,,,,,,weapon,119,111,aloud,blue,783.0964709999971,None,None,783.0964709999971,None,,,,,,,,,,,,,,,,,,,,,,,,,,,,,,82ND,001,2023_Aug_28_1821,ExactRep-v3-final,2021.2.3,60.101499415438504,
,,,,,,,,111,0,111,0,,,,,,,,,,,,,,,,,,,,,,,,,,,,,,,,,,,,,,,,,,,,,,,,,,,,,787.6301928000175,None,,,,,,,,,,,,,,,,,,,,,,,,,,,,,,,,,,,lake,23,112,sing,red,785.6151106000179,None,None,785.6151106000179,None,,,,,,,,,,,,,,,,,,,,,,,,,,,,,,82ND,001,2023_Aug_28_1821,ExactRep-v3-final,2021.2.3,60.101499415438504,
,,,,,,,,112,0,112,0,,,,,,,,,,,,,,,,,,,,,,,,,,,,,,,,,,,,,,,,,,,,,,,,,,,,,790.1334332000115,None,,,,,,,,,,,,,,,,,,,,,,,,,,,,,,,,,,,fire,28,113,sing,red,788.1342896000133,None,None,788.1342896000133,None,,,,,,,,,,,,,,,,,,,,,,,,,,,,,,82ND,001,2023_Aug_28_1821,ExactRep-v3-final,2021.2.3,60.101499415438504,
,,,,,,,,113,0,113,0,,,,,,,,,,,,,,,,,,,,,,,,,,,,,,,,,,,,,,,,,,,,,,,,,,,,,792.6526141000213,None,,,,,,,,,,,,,,,,,,,,,,,,,,,,,,,,,,,factory,95,114,aloud,blue,790.6385546000092,None,None,790.6385546000092,None,,,,,,,,,,,,,,,,,,,,,,,,,,,,,,82ND,001,2023_Aug_28_1821,ExactRep-v3-final,2021.2.3,60.101499415438504,
,,,,,,,,114,0,114,0,,,,,,,,,,,,,,,,,,,,,,,,,,,,,,,,,,,,,,,,,,,,,,,,,,,,,795.171498300042,None,,,,,,,,,,,,,,,,,,,,,,,,,,,,,,,,,,,excuse,13,115,sing,red,793.1638994000386,None,None,793.1638994000386,None,,,,,,,,,,,,,,,,,,,,,,,,,,,,,,82ND,001,2023_Aug_28_1821,ExactRep-v3-final,2021.2.3,60.101499415438504,
,,,,,,,,115,0,115,0,,,,,,,,,,,,,,,,,,,,,,,,,,,,,,,,,,,,,,,,,,,,,,,,,,,,,797.6742363999947,None,,,,,,,,,,,,,,,,,,,,,,,,,,,,,,,,,,,city,1,116,sing,red,795.6734003000311,None,None,795.6734003000311,None,,,,,,,,,,,,,,,,,,,,,,,,,,,,,,82ND,001,2023_Aug_28_1821,ExactRep-v3-final,2021.2.3,60.101499415438504,
,,,,,,,,116,0,116,0,,,,,,,,,,,,,,,,,,,,,,,,,,,,,,,,,,,,,,,,,,,,,,,,,,,,,800.1765199000365,None,,,,,,,,,,,,,,,,,,,,,,,,,,,,,,,,,,,toy,47,117,silent,white,798.1774621999939,None,None,798.1774621999939,None,,,,,,,,,,,,,,,,,,,,,,,,,,,,,,82ND,001,2023_Aug_28_1821,ExactRep-v3-final,2021.2.3,60.101499415438504,
,,,,,,,,117,0,117,0,,,,,,,,,,,,,,,,,,,,,,,,,,,,,,,,,,,,,,,,,,,,,,,,,,,,,802.6793736999971,None,,,,,,,,,,,,,,,,,,,,,,,,,,,,,,,,,,,officer,82,118,aloud,blue,800.6794846000266,None,None,800.6794846000266,None,,,,,,,,,,,,,,,,,,,,,,,,,,,,,,82ND,001,2023_Aug_28_1821,ExactRep-v3-final,2021.2.3,60.101499415438504,
,,,,,,,,118,0,118,0,,,,,,,,,,,,,,,,,,,,,,,,,,,,,,,,,,,,,,,,,,,,,,,,,,,,,805.1985273000319,None,,,,,,,,,,,,,,,,,,,,,,,,,,,,,,,,,,,hall,102,119,aloud,blue,803.1835296000354,None,None,803.1835296000354,None,,,,,,,,,,,,,,,,,,,,,,,,,,,,,,82ND,001,2023_Aug_28_1821,ExactRep-v3-final,2021.2.3,60.101499415438504,
,,,,,,,,119,0,119,0,,,,,,,,,,,,,,,,,,,,,,,,,,,,,,,,,,,,,,,,,,,,,,,,,,,,,807.7005981000257,None,,,,,,,,,,,,,,,,,,,,,,,,,,,,,,,,,,,king,24,120,sing,red,805.6991675000172,None,None,805.6991675000172,None,,,,,,,,,,,,,,,,,,,,,,,,,,,,,,82ND,001,2023_Aug_28_1821,ExactRep-v3-final,2021.2.3,60.101499415438504,
,,,,,,,,,,,,,,,,,,,,,,,,,,,,,,,,,,,,,,,,,,,,,,,,,,,,,,,,,,,,,,,,,,,,,,,,,,,,,,,,,,,,,,,,,,,,,,,,,,,,,,,,,,,,,,808.2019466999918,None,space,9.581601099984255,818.1788644000189,None,,,,,,,,,,,,,,,,,,,,,,,,82ND,001,2023_Aug_28_1821,ExactRep-v3-final,2021.2.3,60.101499415438504,
,,,,,,,,,,,,,,,,,,,,,,,,,,,,,,,,,,,,,,,,,,,,,,,,,,,,,,,,,,,,,,,,,,,,,,,,,,,,,,,,,,,,,,,,,,,,,,,,,,,,,,,,,,,,,,,,,,,,827.7888074000366,None,space,29.067342999973334,837.7650859000278,None,,,,,,,,,,,,,,,,,,82ND,001,2023_Aug_28_1821,ExactRep-v3-final,2021.2.3,60.101499415438504,
,,,,,,,,,,,,0,0,0,0,,,,,,,,,,,,,,,,,,,,,,,,,,,,,,,,,,,,,,,,,,,,,,,,,873.3846871000133,None,,,,,,,,,,,,,,,,,,,,,,,,,,,,,,,,,,,,,,,,,,,,,,,,,,,,,,,,,pupil,12,1,sing,old,yellow,867.3715509999893,None,y,867.3715509999893,None,"['y', 'return']","[4.132595899980515, 5.972565800009761]",867.3715509999893,None,,,82ND,001,2023_Aug_28_1821,ExactRep-v3-final,2021.2.3,60.101499415438504,
,,,,,,,,,,,,1,0,1,0,,,,,,,,,,,,,,,,,,,,,,,,,,,,,,,,,,,,,,,,,,,,,,,,,883.8451472999877,None,,,,,,,,,,,,,,,,,,,,,,,,,,,,,,,,,,,,,,,,,,,,,,,,,,,,,,,,,insect,196,2,aloud,new,yellow,873.9093518000445,None,n,873.9093518000445,None,"['n', 'return']","[9.42679409997072, 9.890734699962195]",873.9093518000445,None,,,82ND,001,2023_Aug_28_1821,ExactRep-v3-final,2021.2.3,60.101499415438504,
,,,,,,,,,,,,2,0,2,0,,,,,,,,,,,,,,,,,,,,,,,,,,,,,,,,,,,,,,,,,,,,,,,,,887.1151705000084,None,,,,,,,,,,,,,,,,,,,,,,,,,,,,,,,,,,,,,,,,,,,,,,,,,,,,,,,,,car,224,3,aloud,new,yellow,884.3614332000143,None,n,884.3614332000143,None,"['n', 'return']","[2.326633499993477, 2.710753899998963]",884.3614332000143,None,,,82ND,001,2023_Aug_28_1821,ExactRep-v3-final,2021.2.3,60.101499415438504,
,,,,,,,,,,,,3,0,3,0,,,,,,,,,,,,,,,,,,,,,,,,,,,,,,,,,,,,,,,,,,,,,,,,,889.2336402999936,None,,,,,,,,,,,,,,,,,,,,,,,,,,,,,,,,,,,,,,,,,,,,,,,,,,,,,,,,,coin,134,4,silent,new,yellow,887.6357231000438,None,n,887.6357231000438,None,"['n', 'return']","[1.2285721999942325, 1.5563894000370055]",887.6357231000438,None,,,82ND,001,2023_Aug_28_1821,ExactRep-v3-final,2021.2.3,60.101499415438504,
,,,,,,,,,,,,4,0,4,0,,,,,,,,,,,,,,,,,,,,,,,,,,,,,,,,,,,,,,,,,,,,,,,,,892.3874432000448,None,,,,,,,,,,,,,,,,,,,,,,,,,,,,,,,,,,,,,,,,,,,,,,,,,,,,,,,,,boy,193,5,sing,new,yellow,889.7511661000317,None,n,889.7511661000317,None,"['n', 'return']","[2.32899270002963, 2.6009678000118583]",889.7511661000317,None,,,82ND,001,2023_Aug_28_1821,ExactRep-v3-final,2021.2.3,60.101499415438504,
,,,,,,,,,,,,5,0,5,0,,,,,,,,,,,,,,,,,,,,,,,,,,,,,,,,,,,,,,,,,,,,,,,,,894.6879503999953,None,,,,,,,,,,,,,,,,,,,,,,,,,,,,,,,,,,,,,,,,,,,,,,,,,,,,,,,,,blossom,135,6,silent,new,yellow,892.9046848000144,None,n,892.9046848000144,None,"['n', 'return']","[1.447862300032284, 1.7434577000094578]",892.9046848000144,None,,,82ND,001,2023_Aug_28_1821,ExactRep-v3-final,2021.2.3,60.101499415438504,
,,,,,,,,,,,,6,0,6,0,,,,,,,,,,,,,,,,,,,,,,,,,,,,,,,,,,,,,,,,,,,,,,,,,898.0590964000439,None,,,,,,,,,,,,,,,,,,,,,,,,,,,,,,,,,,,,,,,,,,,,,,,,,,,,,,,,,custom,184,7,aloud,new,yellow,895.1910742000327,None,y,895.1910742000327,None,"['y', 'return']","[2.52113259996986, 2.825088699988555]",895.1910742000327,None,,,82ND,001,2023_Aug_28_1821,ExactRep-v3-final,2021.2.3,60.101499415438504,
,,,,,,,,,,,,7,0,7,0,,,,,,,,,,,,,,,,,,,,,,,,,,,,,,,,,,,,,,,,,,,,,,,,,902.5976516000228,None,,,,,,,,,,,,,,,,,,,,,,,,,,,,,,,,,,,,,,,,,,,,,,,,,,,,,,,,,wheat,195,8,sing,new,yellow,898.5832743000356,None,n,898.5832743000356,None,"['n', 'return']","[3.5848662999924272, 3.9770995000144467]",898.5832743000356,None,,,82ND,001,2023_Aug_28_1821,ExactRep-v3-final,2021.2.3,60.101499415438504,
,,,,,,,,,,,,8,0,8,0,,,,,,,,,,,,,,,,,,,,,,,,,,,,,,,,,,,,,,,,,,,,,,,,,904.9162478999933,None,,,,,,,,,,,,,,,,,,,,,,,,,,,,,,,,,,,,,,,,,,,,,,,,,,,,,,,,,dress,72,9,silent,old,yellow,903.121575600002,None,n,903.121575600002,None,"['n', 'return']","[1.438509300001897, 1.7505140000139363]",903.121575600002,None,,,82ND,001,2023_Aug_28_1821,ExactRep-v3-final,2021.2.3,60.101499415438504,
,,,,,,,,,,,,9,0,9,0,,,,,,,,,,,,,,,,,,,,,,,,,,,,,,,,,,,,,,,,,,,,,,,,,906.9178932000068,None,,,,,,,,,,,,,,,,,,,,,,,,,,,,,,,,,,,,,,,,,,,,,,,,,,,,,,,,,volume,11,10,sing,old,yellow,905.4317228000145,None,y,905.4317228000145,None,"['y', 'return']","[1.0643083999748342, 1.4483016000012867]",905.4317228000145,None,,,82ND,001,2023_Aug_28_1821,ExactRep-v3-final,2021.2.3,60.101499415438504,
,,,,,,,,,,,,10,0,10,0,,,,,,,,,,,,,,,,,,,,,,,,,,,,,,,,,,,,,,,,,,,,,,,,,908.6861471000011,None,,,,,,,,,,,,,,,,,,,,,,,,,,,,,,,,,,,,,,,,,,,,,,,,,,,,,,,,,horse,2,11,sing,old,yellow,907.4266256000265,None,y,907.4266256000265,None,"['y', 'return']","[0.8776707999641076, 1.2214257000014186]",907.4266256000265,None,,,82ND,001,2023_Aug_28_1821,ExactRep-v3-final,2021.2.3,60.101499415438504,
,,,,,,,,,,,,11,0,11,0,,,,,,,,,,,,,,,,,,,,,,,,,,,,,,,,,,,,,,,,,,,,,,,,,910.7384711999912,None,,,,,,,,,,,,,,,,,,,,,,,,,,,,,,,,,,,,,,,,,,,,,,,,,,,,,,,,,shore,155,12,silent,new,yellow,909.1872594000306,None,n,909.1872594000306,None,"['n', 'return']","[1.164881799952127, 1.5088408999727108]",909.1872594000306,None,,,82ND,001,2023_Aug_28_1821,ExactRep-v3-final,2021.2.3,60.101499415438504,
,,,,,,,,,,,,12,0,12,0,,,,,,,,,,,,,,,,,,,,,,,,,,,,,,,,,,,,,,,,,,,,,,,,,912.5402568000136,None,,,,,,,,,,,,,,,,,,,,,,,,,,,,,,,,,,,,,,,,,,,,,,,,,,,,,,,,,fortune,46,13,silent,old,yellow,911.2392936000251,None,y,911.2392936000251,None,"['y', 'return']","[0.9208262999891303, 1.2648264999734238]",911.2392936000251,None,,,82ND,001,2023_Aug_28_1821,ExactRep-v3-final,2021.2.3,60.101499415438504,
,,,,,,,,,,,,13,0,13,0,,,,,,,,,,,,,,,,,,,,,,,,,,,,,,,,,,,,,,,,,,,,,,,,,916.3777007000172,None,,,,,,,,,,,,,,,,,,,,,,,,,,,,,,,,,,,,,,,,,,,,,,,,,,,,,,,,,dollar,45,14,silent,old,yellow,913.0564210000448,None,y,913.0564210000448,None,"['y', 'return']","[2.9757110999780707, 3.279759800003376]",913.0564210000448,None,,,82ND,001,2023_Aug_28_1821,ExactRep-v3-final,2021.2.3,60.101499415438504,
,,,,,,,,,,,,14,0,14,0,,,,,,,,,,,,,,,,,,,,,,,,,,,,,,,,,,,,,,,,,,,,,,,,,918.0456568000372,None,,,,,,,,,,,,,,,,,,,,,,,,,,,,,,,,,,,,,,,,,,,,,,,,,,,,,,,,,fate,80,15,aloud,old,yellow,916.8868700999883,None,y,916.8868700999883,None,"['y', 'return']","[0.8091476000263356, 1.1131297000101767]",916.8868700999883,None,,,82ND,001,2023_Aug_28_1821,ExactRep-v3-final,2021.2.3,60.101499415438504,
,,,,,,,,,,,,15,0,15,0,,,,,,,,,,,,,,,,,,,,,,,,,,,,,,,,,,,,,,,,,,,,,,,,,921.2821086000185,None,,,,,,,,,,,,,,,,,,,,,,,,,,,,,,,,,,,,,,,,,,,,,,,,,,,,,,,,,flower,93,16,aloud,old,yellow,918.5530066000065,None,y,918.5530066000065,None,"['y', 'return']","[2.447124199999962, 2.6950914000044577]",918.5530066000065,None,,,82ND,001,2023_Aug_28_1821,ExactRep-v3-final,2021.2.3,60.101499415438504,
,,,,,,,,,,,,16,0,16,0,,,,,,,,,,,,,,,,,,,,,,,,,,,,,,,,,,,,,,,,,,,,,,,,,931.5261241000262,None,,,,,,,,,,,,,,,,,,,,,,,,,,,,,,,,,,,,,,,,,,,,,,,,,,,,,,,,,love,108,17,aloud,old,yellow,921.7893710000208,None,y,921.7893710000208,None,"['n', 'y', 'backspace', 'y', 'return']","[1.4268149000126868, 3.9789218999794684, 5.346924000012223, 9.386683300021105, 9.690686299989466]",921.7893710000208,None,,,82ND,001,2023_Aug_28_1821,ExactRep-v3-final,2021.2.3,60.101499415438504,
,,,,,,,,,,,,17,0,17,0,,,,,,,,,,,,,,,,,,,,,,,,,,,,,,,,,,,,,,,,,,,,,,,,,933.3107276000082,None,,,,,,,,,,,,,,,,,,,,,,,,,,,,,,,,,,,,,,,,,,,,,,,,,,,,,,,,,chance,185,18,sing,new,yellow,932.0342386999982,None,n,932.0342386999982,None,"['n', 'return']","[0.9739485000027344, 1.2378679999965243]",932.0342386999982,None,,,82ND,001,2023_Aug_28_1821,ExactRep-v3-final,2021.2.3,60.101499415438504,
,,,,,,,,,,,,18,0,18,0,,,,,,,,,,,,,,,,,,,,,,,,,,,,,,,,,,,,,,,,,,,,,,,,,935.1299487000215,None,,,,,,,,,,,,,,,,,,,,,,,,,,,,,,,,,,,,,,,,,,,,,,,,,,,,,,,,,health,75,19,silent,old,yellow,933.8236623000121,None,y,933.8236623000121,None,"['y', 'return']","[0.9843835000065155, 1.2565621999674477]",933.8236623000121,None,,,82ND,001,2023_Aug_28_1821,ExactRep-v3-final,2021.2.3,60.101499415438504,
,,,,,,,,,,,,19,0,19,0,,,,,,,,,,,,,,,,,,,,,,,,,,,,,,,,,,,,,,,,,,,,,,,,,939.6835370000335,None,,,,,,,,,,,,,,,,,,,,,,,,,,,,,,,,,,,,,,,,,,,,,,,,,,,,,,,,,metal,191,20,sing,new,yellow,935.6498670000001,None,y,935.6498670000001,None,"['y', 'return']","[3.7583204999682494, 3.9902109999675304]",935.6498670000001,None,,,82ND,001,2023_Aug_28_1821,ExactRep-v3-final,2021.2.3,60.101499415438504,
,,,,,,,,,,,,20,0,20,0,,,,,,,,,,,,,,,,,,,,,,,,,,,,,,,,,,,,,,,,,,,,,,,,,941.4361063000397,None,,,,,,,,,,,,,,,,,,,,,,,,,,,,,,,,,,,,,,,,,,,,,,,,,,,,,,,,,master,162,21,aloud,new,yellow,940.185246100009,None,n,940.185246100009,None,"['n', 'return']","[0.8868596000247635, 1.2151240999810398]",940.185246100009,None,,,82ND,001,2023_Aug_28_1821,ExactRep-v3-final,2021.2.3,60.101499415438504,
,,,,,,,,,,,,21,0,21,0,,,,,,,,,,,,,,,,,,,,,,,,,,,,,,,,,,,,,,,,,,,,,,,,,943.0042650999967,None,,,,,,,,,,,,,,,,,,,,,,,,,,,,,,,,,,,,,,,,,,,,,,,,,,,,,,,,,priest,111,22,aloud,old,yellow,941.9550529000117,None,y,941.9550529000117,None,"['y', 'return']","[0.7570447999751195, 1.0133186999591999]",941.9550529000117,None,,,82ND,001,2023_Aug_28_1821,ExactRep-v3-final,2021.2.3,60.101499415438504,
,,,,,,,,,,,,22,0,22,0,,,,,,,,,,,,,,,,,,,,,,,,,,,,,,,,,,,,,,,,,,,,,,,,,944.9561563000316,None,,,,,,,,,,,,,,,,,,,,,,,,,,,,,,,,,,,,,,,,,,,,,,,,,,,,,,,,,corn,141,23,silent,new,yellow,943.5203887000098,None,n,943.5203887000098,None,"['n', 'return']","[0.9277019000146538, 1.3999447000096552]",943.5203887000098,None,,,82ND,001,2023_Aug_28_1821,ExactRep-v3-final,2021.2.3,60.101499415438504,
,,,,,,,,,,,,23,0,23,0,,,,,,,,,,,,,,,,,,,,,,,,,,,,,,,,,,,,,,,,,,,,,,,,,948.2086684000096,None,,,,,,,,,,,,,,,,,,,,,,,,,,,,,,,,,,,,,,,,,,,,,,,,,,,,,,,,,plant,110,24,aloud,old,yellow,945.479022100044,None,y,945.479022100044,None,"['y', 'return']","[2.185097499983385, 2.69705720001366]",945.479022100044,None,,,82ND,001,2023_Aug_28_1821,ExactRep-v3-final,2021.2.3,60.101499415438504,
,,,,,,,,,,,,24,0,24,0,,,,,,,,,,,,,,,,,,,,,,,,,,,,,,,,,,,,,,,,,,,,,,,,,951.4790803000215,None,,,,,,,,,,,,,,,,,,,,,,,,,,,,,,,,,,,,,,,,,,,,,,,,,,,,,,,,,tool,237,25,sing,new,yellow,948.7100752000115,None,y,948.7100752000115,None,"['y', 'return']","[2.377996199997142, 2.722028299991507]",948.7100752000115,None,,,82ND,001,2023_Aug_28_1821,ExactRep-v3-final,2021.2.3,60.101499415438504,
,,,,,,,,,,,,25,0,25,0,,,,,,,,,,,,,,,,,,,,,,,,,,,,,,,,,,,,,,,,,,,,,,,,,954.4821391000296,None,,,,,,,,,,,,,,,,,,,,,,,,,,,,,,,,,,,,,,,,,,,,,,,,,,,,,,,,,person,90,26,aloud,old,yellow,951.9964245000156,None,n,951.9964245000156,None,"['n', 'return']","[2.1956423000083305, 2.451692400034517]",951.9964245000156,None,,,82ND,001,2023_Aug_28_1821,ExactRep-v3-final,2021.2.3,60.101499415438504,
,,,,,,,,,,,,26,0,26,0,,,,,,,,,,,,,,,,,,,,,,,,,,,,,,,,,,,,,,,,,,,,,,,,,956.0501691999962,None,,,,,,,,,,,,,,,,,,,,,,,,,,,,,,,,,,,,,,,,,,,,,,,,,,,,,,,,,flesh,79,27,sing,old,yellow,954.988952899992,None,y,954.988952899992,None,"['y', 'return']","[0.6671497999923304, 1.0270776000106707]",954.988952899992,None,,,82ND,001,2023_Aug_28_1821,ExactRep-v3-final,2021.2.3,60.101499415438504,
,,,,,,,,,,,,27,0,27,0,,,,,,,,,,,,,,,,,,,,,,,,,,,,,,,,,,,,,,,,,,,,,,,,,966.4274718000088,None,,,,,,,,,,,,,,,,,,,,,,,,,,,,,,,,,,,,,,,,,,,,,,,,,,,,,,,,,wife,117,28,aloud,old,yellow,956.556416700012,None,n,956.556416700012,None,"['n', 'return']","[9.491693800024223, 9.835882399987895]",956.556416700012,None,,,82ND,001,2023_Aug_28_1821,ExactRep-v3-final,2021.2.3,60.101499415438504,
,,,,,,,,,,,,28,0,28,0,,,,,,,,,,,,,,,,,,,,,,,,,,,,,,,,,,,,,,,,,,,,,,,,,968.229126500024,None,,,,,,,,,,,,,,,,,,,,,,,,,,,,,,,,,,,,,,,,,,,,,,,,,,,,,,,,,college,18,29,sing,old,yellow,966.9429792999872,None,y,966.9429792999872,None,"['y', 'return']","[0.9372690999880433, 1.241098900034558]",966.9429792999872,None,,,82ND,001,2023_Aug_28_1821,ExactRep-v3-final,2021.2.3,60.101499415438504,
,,,,,,,,,,,,29,0,29,0,,,,,,,,,,,,,,,,,,,,,,,,,,,,,,,,,,,,,,,,,,,,,,,,,972.0509936999879,None,,,,,,,,,,,,,,,,,,,,,,,,,,,,,,,,,,,,,,,,,,,,,,,,,,,,,,,,,freedom,221,30,sing,new,yellow,968.7386815000209,None,n,968.7386815000209,None,"['n', 'return']","[2.965305600024294, 3.2693748000310734]",968.7386815000209,None,,,82ND,001,2023_Aug_28_1821,ExactRep-v3-final,2021.2.3,60.101499415438504,
,,,,,,,,,,,,30,0,30,0,,,,,,,,,,,,,,,,,,,,,,,,,,,,,,,,,,,,,,,,,,,,,,,,,973.9847865999909,None,,,,,,,,,,,,,,,,,,,,,,,,,,,,,,,,,,,,,,,,,,,,,,,,,,,,,,,,,fun,153,31,silent,new,yellow,972.5672214000369,None,n,972.5672214000369,None,"['n', 'return']","[1.0650958999758586, 1.3688635000144131]",972.5672214000369,None,,,82ND,001,2023_Aug_28_1821,ExactRep-v3-final,2021.2.3,60.101499415438504,
,,,,,,,,,,,,31,0,31,0,,,,,,,,,,,,,,,,,,,,,,,,,,,,,,,,,,,,,,,,,,,,,,,,,976.0702388000209,None,,,,,,,,,,,,,,,,,,,,,,,,,,,,,,,,,,,,,,,,,,,,,,,,,,,,,,,,,cottage,215,32,sing,new,yellow,974.4924610000453,None,n,974.4924610000453,None,"['n', 'return']","[1.2356799999834038, 1.5315771999885328]",974.4924610000453,None,,,82ND,001,2023_Aug_28_1821,ExactRep-v3-final,2021.2.3,60.101499415438504,
,,,,,,,,,,,,32,0,32,0,,,,,,,,,,,,,,,,,,,,,,,,,,,,,,,,,,,,,,,,,,,,,,,,,978.1890379000106,None,,,,,,,,,,,,,,,,,,,,,,,,,,,,,,,,,,,,,,,,,,,,,,,,,,,,,,,,,chair,140,33,silent,new,yellow,976.5872010000166,None,n,976.5872010000166,None,"['n', 'return']","[1.2928901999839582, 1.5568627000320703]",976.5872010000166,None,,,82ND,001,2023_Aug_28_1821,ExactRep-v3-final,2021.2.3,60.101499415438504,
,,,,,,,,,,,,33,0,33,0,,,,,,,,,,,,,,,,,,,,,,,,,,,,,,,,,,,,,,,,,,,,,,,,,982.0762096000253,None,,,,,,,,,,,,,,,,,,,,,,,,,,,,,,,,,,,,,,,,,,,,,,,,,,,,,,,,,seat,37,34,sing,old,yellow,978.690090499993,None,y,978.690090499993,None,"['y', 'return']","[3.0539814000367187, 3.3421524000004865]",978.690090499993,None,,,82ND,001,2023_Aug_28_1821,ExactRep-v3-final,2021.2.3,60.101499415438504,
,,,,,,,,,,,,34,0,34,0,,,,,,,,,,,,,,,,,,,,,,,,,,,,,,,,,,,,,,,,,,,,,,,,,984.0615664999932,None,,,,,,,,,,,,,,,,,,,,,,,,,,,,,,,,,,,,,,,,,,,,,,,,,,,,,,,,,charm,213,35,sing,new,yellow,982.5900728999986,None,n,982.5900728999986,None,"['n', 'return']","[1.114001800015103, 1.4343678000150248]",982.5900728999986,None,,,82ND,001,2023_Aug_28_1821,ExactRep-v3-final,2021.2.3,60.101499415438504,
,,,,,,,,,,,,35,0,35,0,,,,,,,,,,,,,,,,,,,,,,,,,,,,,,,,,,,,,,,,,,,,,,,,,985.5641236000229,None,,,,,,,,,,,,,,,,,,,,,,,,,,,,,,,,,,,,,,,,,,,,,,,,,,,,,,,,,cat,69,36,silent,old,yellow,984.5780008000438,None,y,984.5780008000438,None,"['y', 'return']","[0.7339999999967404, 0.9420353000168689]",984.5780008000438,None,,,82ND,001,2023_Aug_28_1821,ExactRep-v3-final,2021.2.3,60.101499415438504,
,,,,,,,,,,,,36,0,36,0,,,,,,,,,,,,,,,,,,,,,,,,,,,,,,,,,,,,,,,,,,,,,,,,,987.1653408000129,None,,,,,,,,,,,,,,,,,,,,,,,,,,,,,,,,,,,,,,,,,,,,,,,,,,,,,,,,,shadow,55,37,silent,old,yellow,986.083423700009,None,y,986.083423700009,None,"['y', 'return']","[0.8366841000388376, 1.0449092000490054]",986.083423700009,None,,,82ND,001,2023_Aug_28_1821,ExactRep-v3-final,2021.2.3,60.101499415438504,
,,,,,,,,,,,,37,0,37,0,,,,,,,,,,,,,,,,,,,,,,,,,,,,,,,,,,,,,,,,,,,,,,,,,988.9501262000413,None,,,,,,,,,,,,,,,,,,,,,,,,,,,,,,,,,,,,,,,,,,,,,,,,,,,,,,,,,ability,154,38,silent,new,yellow,987.6824705000035,None,n,987.6824705000035,None,"['n', 'return']","[0.9656394999474287, 1.2296220999560319]",987.6824705000035,None,,,82ND,001,2023_Aug_28_1821,ExactRep-v3-final,2021.2.3,60.101499415438504,
,,,,,,,,,,,,38,0,38,0,,,,,,,,,,,,,,,,,,,,,,,,,,,,,,,,,,,,,,,,,,,,,,,,,990.6681387000135,None,,,,,,,,,,,,,,,,,,,,,,,,,,,,,,,,,,,,,,,,,,,,,,,,,,,,,,,,,dawn,130,39,silent,new,yellow,989.4575215000077,None,n,989.4575215000077,None,"['n', 'return']","[0.9906002000207081, 1.1746430000057444]",989.4575215000077,None,,,82ND,001,2023_Aug_28_1821,ExactRep-v3-final,2021.2.3,60.101499415438504,
,,,,,,,,,,,,39,0,39,0,,,,,,,,,,,,,,,,,,,,,,,,,,,,,,,,,,,,,,,,,,,,,,,,,992.1703262000228,None,,,,,,,,,,,,,,,,,,,,,,,,,,,,,,,,,,,,,,,,,,,,,,,,,,,,,,,,,memory,70,40,silent,old,yellow,991.1695851000259,None,y,991.1695851000259,None,"['y', 'return']","[0.7264873000094667, 0.9664688999764621]",991.1695851000259,None,,,82ND,001,2023_Aug_28_1821,ExactRep-v3-final,2021.2.3,60.101499415438504,
,,,,,,,,,,,,40,0,40,0,,,,,,,,,,,,,,,,,,,,,,,,,,,,,,,,,,,,,,,,,,,,,,,,,994.2385322999908,None,,,,,,,,,,,,,,,,,,,,,,,,,,,,,,,,,,,,,,,,,,,,,,,,,,,,,,,,,heaven,52,41,silent,old,yellow,992.7001227000146,None,y,992.7001227000146,None,"['y', 'return']","[1.2758917000028305, 1.4919661000021733]",992.7001227000146,None,,,82ND,001,2023_Aug_28_1821,ExactRep-v3-final,2021.2.3,60.101499415438504,
,,,,,,,,,,,,41,0,41,0,,,,,,,,,,,,,,,,,,,,,,,,,,,,,,,,,,,,,,,,,,,,,,,,,996.2913393999916,None,,,,,,,,,,,,,,,,,,,,,,,,,,,,,,,,,,,,,,,,,,,,,,,,,,,,,,,,,friend,51,42,silent,old,yellow,994.7449675000389,None,n,994.7449675000389,None,"['n', 'return']","[1.2710783999646083, 1.5031103999936022]",994.7449675000389,None,,,82ND,001,2023_Aug_28_1821,ExactRep-v3-final,2021.2.3,60.101499415438504,
,,,,,,,,,,,,42,0,42,0,,,,,,,,,,,,,,,,,,,,,,,,,,,,,,,,,,,,,,,,,,,,,,,,,998.0591997000156,None,,,,,,,,,,,,,,,,,,,,,,,,,,,,,,,,,,,,,,,,,,,,,,,,,,,,,,,,,palace,125,43,silent,new,yellow,996.8171085999929,None,n,996.8171085999929,None,"['n', 'return']","[0.9829421000322327, 1.1989951000432484]",996.8171085999929,None,,,82ND,001,2023_Aug_28_1821,ExactRep-v3-final,2021.2.3,60.101499415438504,
,,,,,,,,,,,,43,0,43,0,,,,,,,,,,,,,,,,,,,,,,,,,,,,,,,,,,,,,,,,,,,,,,,,,999.6606369999936,None,,,,,,,,,,,,,,,,,,,,,,,,,,,,,,,,,,,,,,,,,,,,,,,,,,,,,,,,,engine,83,44,aloud,old,yellow,998.569229900022,None,y,998.569229900022,None,"['y', 'return']","[0.8469170000171289, 1.0550827999832109]",998.569229900022,None,,,82ND,001,2023_Aug_28_1821,ExactRep-v3-final,2021.2.3,60.101499415438504,
,,,,,,,,,,,,44,0,44,0,,,,,,,,,,,,,,,,,,,,,,,,,,,,,,,,,,,,,,,,,,,,,,,,,1001.7634178000153,None,,,,,,,,,,,,,,,,,,,,,,,,,,,,,,,,,,,,,,,,,,,,,,,,,,,,,,,,,soul,208,45,aloud,new,yellow,1000.1683023000369,None,y,1000.1683023000369,None,"['y', 'return']","[1.383758999989368, 1.551812699995935]",1000.1683023000369,None,,,82ND,001,2023_Aug_28_1821,ExactRep-v3-final,2021.2.3,60.101499415438504,
,,,,,,,,,,,,45,0,45,0,,,,,,,,,,,,,,,,,,,,,,,,,,,,,,,,,,,,,,,,,,,,,,,,,1004.7323829000234,None,,,,,,,,,,,,,,,,,,,,,,,,,,,,,,,,,,,,,,,,,,,,,,,,,,,,,,,,,month,100,46,aloud,old,yellow,1002.2809522000025,None,y,1002.2809522000025,None,"['y', 'return']","[2.199282699963078, 2.4070947999716736]",1002.2809522000025,None,,,82ND,001,2023_Aug_28_1821,ExactRep-v3-final,2021.2.3,60.101499415438504,
,,,,,,,,,,,,46,0,46,0,,,,,,,,,,,,,,,,,,,,,,,,,,,,,,,,,,,,,,,,,,,,,,,,,1006.3505854000105,None,,,,,,,,,,,,,,,,,,,,,,,,,,,,,,,,,,,,,,,,,,,,,,,,,,,,,,,,,party,163,47,sing,new,yellow,1005.2498750000377,None,n,1005.2498750000377,None,"['n', 'return']","[0.7822860999731347, 1.0622511000256054]",1005.2498750000377,None,,,82ND,001,2023_Aug_28_1821,ExactRep-v3-final,2021.2.3,60.101499415438504,
,,,,,,,,,,,,47,0,47,0,,,,,,,,,,,,,,,,,,,,,,,,,,,,,,,,,,,,,,,,,,,,,,,,,1007.9022436999949,None,,,,,,,,,,,,,,,,,,,,,,,,,,,,,,,,,,,,,,,,,,,,,,,,,,,,,,,,,bowl,29,48,sing,old,yellow,1006.8671272000065,None,n,1006.8671272000065,None,"['n', 'return']","[0.7569363999646157, 0.9968866999843158]",1006.8671272000065,None,,,82ND,001,2023_Aug_28_1821,ExactRep-v3-final,2021.2.3,60.101499415438504,
,,,,,,,,,,,,48,0,48,0,,,,,,,,,,,,,,,,,,,,,,,,,,,,,,,,,,,,,,,,,,,,,,,,,1010.0044811000116,None,,,,,,,,,,,,,,,,,,,,,,,,,,,,,,,,,,,,,,,,,,,,,,,,,,,,,,,,,doctor,17,49,sing,old,yellow,1008.4183595000068,None,n,1008.4183595000068,None,"['n', 'return']","[1.1337630999623798, 1.5418410999700427]",1008.4183595000068,None,,,82ND,001,2023_Aug_28_1821,ExactRep-v3-final,2021.2.3,60.101499415438504,
,,,,,,,,,,,,49,0,49,0,,,,,,,,,,,,,,,,,,,,,,,,,,,,,,,,,,,,,,,,,,,,,,,,,1011.5891244999948,None,,,,,,,,,,,,,,,,,,,,,,,,,,,,,,,,,,,,,,,,,,,,,,,,,,,,,,,,,circle,198,50,aloud,new,yellow,1010.5278769000433,None,n,1010.5278769000433,None,"['n', 'return']","[0.8642177999718115, 1.024649099970702]",1010.5278769000433,None,,,82ND,001,2023_Aug_28_1821,ExactRep-v3-final,2021.2.3,60.101499415438504,
,,,,,,,,,,,,50,0,50,0,,,,,,,,,,,,,,,,,,,,,,,,,,,,,,,,,,,,,,,,,,,,,,,,,1013.1242004000233,None,,,,,,,,,,,,,,,,,,,,,,,,,,,,,,,,,,,,,,,,,,,,,,,,,,,,,,,,,troops,74,51,silent,old,yellow,1012.1054572000285,None,y,1012.1054572000285,None,"['y', 'return']","[0.8225377000053413, 0.982771800016053]",1012.1054572000285,None,,,82ND,001,2023_Aug_28_1821,ExactRep-v3-final,2021.2.3,60.101499415438504,
,,,,,,,,,,,,51,0,51,0,,,,,,,,,,,,,,,,,,,,,,,,,,,,,,,,,,,,,,,,,,,,,,,,,1015.2594889000175,None,,,,,,,,,,,,,,,,,,,,,,,,,,,,,,,,,,,,,,,,,,,,,,,,,,,,,,,,,ticket,128,52,silent,new,yellow,1013.642026800022,None,n,1013.642026800022,None,"['n', 'return']","[1.3981346000218764, 1.5822515999898314]",1013.642026800022,None,,,82ND,001,2023_Aug_28_1821,ExactRep-v3-final,2021.2.3,60.101499415438504,
,,,,,,,,,,,,52,0,52,0,,,,,,,,,,,,,,,,,,,,,,,,,,,,,,,,,,,,,,,,,,,,,,,,,1016.8112387000001,None,,,,,,,,,,,,,,,,,,,,,,,,,,,,,,,,,,,,,,,,,,,,,,,,,,,,,,,,,window,91,53,aloud,old,yellow,1015.7773647000431,None,y,1015.7773647000431,None,"['y', 'return']","[0.7827232999843545, 0.998772699967958]",1015.7773647000431,None,,,82ND,001,2023_Aug_28_1821,ExactRep-v3-final,2021.2.3,60.101499415438504,
,,,,,,,,,,,,53,0,53,0,,,,,,,,,,,,,,,,,,,,,,,,,,,,,,,,,,,,,,,,,,,,,,,,,1018.296106200025,None,,,,,,,,,,,,,,,,,,,,,,,,,,,,,,,,,,,,,,,,,,,,,,,,,,,,,,,,,grass,105,54,aloud,old,yellow,1017.3275930000236,None,y,1017.3275930000236,None,"['y', 'return']","[0.6564489000011235, 0.9205434999894351]",1017.3275930000236,None,,,82ND,001,2023_Aug_28_1821,ExactRep-v3-final,2021.2.3,60.101499415438504,
,,,,,,,,,,,,54,0,54,0,,,,,,,,,,,,,,,,,,,,,,,,,,,,,,,,,,,,,,,,,,,,,,,,,1020.3810969000333,None,,,,,,,,,,,,,,,,,,,,,,,,,,,,,,,,,,,,,,,,,,,,,,,,,,,,,,,,,grief,157,55,silent,new,yellow,1018.813055900042,None,n,1018.813055900042,None,"['n', 'return']","[0.9071027999743819, 1.522978900000453]",1018.813055900042,None,,,82ND,001,2023_Aug_28_1821,ExactRep-v3-final,2021.2.3,60.101499415438504,
,,,,,,,,,,,,55,0,55,0,,,,,,,,,,,,,,,,,,,,,,,,,,,,,,,,,,,,,,,,,,,,,,,,,1022.1332251999993,None,,,,,,,,,,,,,,,,,,,,,,,,,,,,,,,,,,,,,,,,,,,,,,,,,,,,,,,,,shoes,214,56,aloud,new,yellow,1020.901385300036,None,n,1020.901385300036,None,"['n', 'return']","[0.8907096999464557, 1.1948208999820054]",1020.901385300036,None,,,82ND,001,2023_Aug_28_1821,ExactRep-v3-final,2021.2.3,60.101499415438504,
,,,,,,,,,,,,56,0,56,0,,,,,,,,,,,,,,,,,,,,,,,,,,,,,,,,,,,,,,,,,,,,,,,,,1028.2389758999925,None,,,,,,,,,,,,,,,,,,,,,,,,,,,,,,,,,,,,,,,,,,,,,,,,,,,,,,,,,crime,180,57,aloud,new,yellow,1022.6515160000417,None,n,1022.6515160000417,None,"['backspace', 'backspace', 'backspace', 'n', 'return']","[1.8605798999778926, 2.7885883999988437, 3.3886016000178643, 5.2924620999838226, 5.548575300024822]",1022.6515160000417,None,,,82ND,001,2023_Aug_28_1821,ExactRep-v3-final,2021.2.3,60.101499415438504,
,,,,,,,,,,,,57,0,57,0,,,,,,,,,,,,,,,,,,,,,,,,,,,,,,,,,,,,,,,,,,,,,,,,,1031.4421212000307,None,,,,,,,,,,,,,,,,,,,,,,,,,,,,,,,,,,,,,,,,,,,,,,,,,,,,,,,,,form,120,58,silent,new,yellow,1028.7403955000336,None,n,1028.7403955000336,None,"['n', 'return']","[2.443645799998194, 2.667646899993997]",1028.7403955000336,None,,,82ND,001,2023_Aug_28_1821,ExactRep-v3-final,2021.2.3,60.101499415438504,
,,,,,,,,,,,,58,0,58,0,,,,,,,,,,,,,,,,,,,,,,,,,,,,,,,,,,,,,,,,,,,,,,,,,1033.1441844000365,None,,,,,,,,,,,,,,,,,,,,,,,,,,,,,,,,,,,,,,,,,,,,,,,,,,,,,,,,,hotel,168,59,aloud,new,yellow,1031.943178799993,None,n,1031.943178799993,None,"['n', 'return']","[0.928814200044144, 1.160909400030505]",1031.943178799993,None,,,82ND,001,2023_Aug_28_1821,ExactRep-v3-final,2021.2.3,60.101499415438504,
,,,,,,,,,,,,59,0,59,0,,,,,,,,,,,,,,,,,,,,,,,,,,,,,,,,,,,,,,,,,,,,,,,,,1034.962519099994,None,,,,,,,,,,,,,,,,,,,,,,,,,,,,,,,,,,,,,,,,,,,,,,,,,,,,,,,,,mercy,48,60,silent,old,yellow,1033.661454999994,None,n,1033.661454999994,None,"['n', 'return']","[1.050715199962724, 1.2585344999679364]",1033.661454999994,None,,,82ND,001,2023_Aug_28_1821,ExactRep-v3-final,2021.2.3,60.101499415438504,
,,,,,,,,,,,,60,0,60,0,,,,,,,,,,,,,,,,,,,,,,,,,,,,,,,,,,,,,,,,,,,,,,,,,1037.965495500015,None,,,,,,,,,,,,,,,,,,,,,,,,,,,,,,,,,,,,,,,,,,,,,,,,,,,,,,,,,leader,225,61,sing,new,yellow,1035.47861749999,None,n,1035.47861749999,None,"['n', 'return']","[2.0414749999763444, 2.441373499983456]",1035.47861749999,None,,,82ND,001,2023_Aug_28_1821,ExactRep-v3-final,2021.2.3,60.101499415438504,
,,,,,,,,,,,,61,0,61,0,,,,,,,,,,,,,,,,,,,,,,,,,,,,,,,,,,,,,,,,,,,,,,,,,1041.8015827999916,None,,,,,,,,,,,,,,,,,,,,,,,,,,,,,,,,,,,,,,,,,,,,,,,,,,,,,,,,,street,152,62,silent,new,yellow,1038.4734487000387,None,y,1038.4734487000387,None,"['y', 'return']","[3.0945365999941714, 3.2946890000021085]",1038.4734487000387,None,,,82ND,001,2023_Aug_28_1821,ExactRep-v3-final,2021.2.3,60.101499415438504,
,,,,,,,,,,,,62,0,62,0,,,,,,,,,,,,,,,,,,,,,,,,,,,,,,,,,,,,,,,,,,,,,,,,,1043.404170099995,None,,,,,,,,,,,,,,,,,,,,,,,,,,,,,,,,,,,,,,,,,,,,,,,,,,,,,,,,,prayer,107,63,aloud,old,yellow,1042.303394699993,None,y,1042.303394699993,None,"['y', 'return']","[0.7846269000438042, 1.0646769999875687]",1042.303394699993,None,,,82ND,001,2023_Aug_28_1821,ExactRep-v3-final,2021.2.3,60.101499415438504,
,,,,,,,,,,,,63,0,63,0,,,,,,,,,,,,,,,,,,,,,,,,,,,,,,,,,,,,,,,,,,,,,,,,,1045.505885599996,None,,,,,,,,,,,,,,,,,,,,,,,,,,,,,,,,,,,,,,,,,,,,,,,,,,,,,,,,,vessel,230,64,aloud,new,yellow,1043.9214899000362,None,n,1043.9214899000362,None,"['n', 'return']","[1.3585370000218973, 1.5424550999887288]",1043.9214899000362,None,,,82ND,001,2023_Aug_28_1821,ExactRep-v3-final,2021.2.3,60.101499415438504,
,,,,,,,,,,,,64,0,64,0,,,,,,,,,,,,,,,,,,,,,,,,,,,,,,,,,,,,,,,,,,,,,,,,,1047.2251397999935,None,,,,,,,,,,,,,,,,,,,,,,,,,,,,,,,,,,,,,,,,,,,,,,,,,,,,,,,,,duty,236,65,aloud,new,yellow,1046.0072135000373,None,n,1046.0072135000373,None,"['n', 'return']","[0.9688359000138007, 1.1688833000371233]",1046.0072135000373,None,,,82ND,001,2023_Aug_28_1821,ExactRep-v3-final,2021.2.3,60.101499415438504,
,,,,,,,,,,,,65,0,65,0,,,,,,,,,,,,,,,,,,,,,,,,,,,,,,,,,,,,,,,,,,,,,,,,,1048.8764252000256,None,,,,,,,,,,,,,,,,,,,,,,,,,,,,,,,,,,,,,,,,,,,,,,,,,,,,,,,,,lip,211,66,sing,new,yellow,1047.7422537000384,None,n,1047.7422537000384,None,"['n', 'return']","[0.8659114000038244, 1.097817700006999]",1047.7422537000384,None,,,82ND,001,2023_Aug_28_1821,ExactRep-v3-final,2021.2.3,60.101499415438504,
,,,,,,,,,,,,66,0,66,0,,,,,,,,,,,,,,,,,,,,,,,,,,,,,,,,,,,,,,,,,,,,,,,,,1050.4946321999887,None,,,,,,,,,,,,,,,,,,,,,,,,,,,,,,,,,,,,,,,,,,,,,,,,,,,,,,,,,plain,227,67,sing,new,yellow,1049.3937998000183,None,n,1049.3937998000183,None,"['n', 'return']","[0.8702577000367455, 1.0542721000383608]",1049.3937998000183,None,,,82ND,001,2023_Aug_28_1821,ExactRep-v3-final,2021.2.3,60.101499415438504,
,,,,,,,,,,,,67,0,67,0,,,,,,,,,,,,,,,,,,,,,,,,,,,,,,,,,,,,,,,,,,,,,,,,,1052.2464425000362,None,,,,,,,,,,,,,,,,,,,,,,,,,,,,,,,,,,,,,,,,,,,,,,,,,,,,,,,,,dust,173,68,sing,new,yellow,1050.9952815000433,None,n,1050.9952815000433,None,"['n', 'return']","[0.7809945000335574, 1.2047200000379235]",1050.9952815000433,None,,,82ND,001,2023_Aug_28_1821,ExactRep-v3-final,2021.2.3,60.101499415438504,
,,,,,,,,,,,,68,0,68,0,,,,,,,,,,,,,,,,,,,,,,,,,,,,,,,,,,,,,,,,,,,,,,,,,1053.8636680000345,None,,,,,,,,,,,,,,,,,,,,,,,,,,,,,,,,,,,,,,,,,,,,,,,,,,,,,,,,,money,112,69,aloud,old,yellow,1052.750847999996,None,y,1052.750847999996,None,"['y', 'return']","[0.7853214000351727, 1.0652465000166558]",1052.750847999996,None,,,82ND,001,2023_Aug_28_1821,ExactRep-v3-final,2021.2.3,60.101499415438504,
,,,,,,,,,,,,69,0,69,0,,,,,,,,,,,,,,,,,,,,,,,,,,,,,,,,,,,,,,,,,,,,,,,,,1056.3670386000304,None,,,,,,,,,,,,,,,,,,,,,,,,,,,,,,,,,,,,,,,,,,,,,,,,,,,,,,,,,blood,156,70,silent,new,yellow,1054.3759146000375,None,n,1054.3759146000375,None,"['n', 'return']","[1.6961481000180356, 1.9441565000452101]",1054.3759146000375,None,,,82ND,001,2023_Aug_28_1821,ExactRep-v3-final,2021.2.3,60.101499415438504,
,,,,,,,,,,,,70,0,70,0,,,,,,,,,,,,,,,,,,,,,,,,,,,,,,,,,,,,,,,,,,,,,,,,,1057.785109199991,None,,,,,,,,,,,,,,,,,,,,,,,,,,,,,,,,,,,,,,,,,,,,,,,,,,,,,,,,,sky,31,71,sing,old,yellow,1056.8720097999903,None,y,1056.8720097999903,None,"['y', 'return']","[0.6961020999588072, 0.8721150999772362]",1056.8720097999903,None,,,82ND,001,2023_Aug_28_1821,ExactRep-v3-final,2021.2.3,60.101499415438504,
,,,,,,,,,,,,71,0,71,0,,,,,,,,,,,,,,,,,,,,,,,,,,,,,,,,,,,,,,,,,,,,,,,,,1059.3535430000047,None,,,,,,,,,,,,,,,,,,,,,,,,,,,,,,,,,,,,,,,,,,,,,,,,,,,,,,,,,woods,172,72,aloud,new,yellow,1058.293495799997,None,n,1058.293495799997,None,"['n', 'return']","[0.8186666000401601, 1.0266617000452243]",1058.293495799997,None,,,82ND,001,2023_Aug_28_1821,ExactRep-v3-final,2021.2.3,60.101499415438504,
,,,,,,,,,,,,72,0,72,0,,,,,,,,,,,,,,,,,,,,,,,,,,,,,,,,,,,,,,,,,,,,,,,,,1062.4565816000104,None,,,,,,,,,,,,,,,,,,,,,,,,,,,,,,,,,,,,,,,,,,,,,,,,,,,,,,,,,anger,27,73,sing,old,yellow,1059.8601714000106,None,y,1059.8601714000106,None,"['y', 'return']","[2.3478463999927044, 2.5558920000330545]",1059.8601714000106,None,,,82ND,001,2023_Aug_28_1821,ExactRep-v3-final,2021.2.3,60.101499415438504,
,,,,,,,,,,,,73,0,73,0,,,,,,,,,,,,,,,,,,,,,,,,,,,,,,,,,,,,,,,,,,,,,,,,,1064.3421092000208,None,,,,,,,,,,,,,,,,,,,,,,,,,,,,,,,,,,,,,,,,,,,,,,,,,,,,,,,,,justice,177,74,sing,new,yellow,1062.980050400016,None,n,1062.980050400016,None,"['n', 'return']","[1.1480887000216171, 1.3159517000312917]",1062.980050400016,None,,,82ND,001,2023_Aug_28_1821,ExactRep-v3-final,2021.2.3,60.101499415438504,
,,,,,,,,,,,,74,0,74,0,,,,,,,,,,,,,,,,,,,,,,,,,,,,,,,,,,,,,,,,,,,,,,,,,1066.7940551000065,None,,,,,,,,,,,,,,,,,,,,,,,,,,,,,,,,,,,,,,,,,,,,,,,,,,,,,,,,,table,206,75,aloud,new,yellow,1064.861277899996,None,n,1064.861277899996,None,"['n', 'return']","[1.7229029999580234, 1.8987700999714434]",1064.861277899996,None,,,82ND,001,2023_Aug_28_1821,ExactRep-v3-final,2021.2.3,60.101499415438504,
,,,,,,,,,,,,75,0,75,0,,,,,,,,,,,,,,,,,,,,,,,,,,,,,,,,,,,,,,,,,,,,,,,,,1068.562655000016,None,,,,,,,,,,,,,,,,,,,,,,,,,,,,,,,,,,,,,,,,,,,,,,,,,,,,,,,,,ship,239,76,sing,new,yellow,1067.2951230999897,None,n,1067.2951230999897,None,"['n', 'return']","[0.9048647000454366, 1.2329230000032112]",1067.2951230999897,None,,,82ND,001,2023_Aug_28_1821,ExactRep-v3-final,2021.2.3,60.101499415438504,
,,,,,,,,,,,,76,0,76,0,,,,,,,,,,,,,,,,,,,,,,,,,,,,,,,,,,,,,,,,,,,,,,,,,1070.1304596000118,None,,,,,,,,,,,,,,,,,,,,,,,,,,,,,,,,,,,,,,,,,,,,,,,,,,,,,,,,,truth,167,77,sing,new,yellow,1069.0634486000054,None,n,1069.0634486000054,None,"['n', 'return']","[0.8086204000283033, 1.0326695999829099]",1069.0634486000054,None,,,82ND,001,2023_Aug_28_1821,ExactRep-v3-final,2021.2.3,60.101499415438504,
,,,,,,,,,,,,77,0,77,0,,,,,,,,,,,,,,,,,,,,,,,,,,,,,,,,,,,,,,,,,,,,,,,,,1072.016186200024,None,,,,,,,,,,,,,,,,,,,,,,,,,,,,,,,,,,,,,,,,,,,,,,,,,,,,,,,,,power,190,78,aloud,new,yellow,1070.6404660000117,None,n,1070.6404660000117,None,"['n', 'return']","[0.7997489999979734, 1.3356324000051245]",1070.6404660000117,None,,,82ND,001,2023_Aug_28_1821,ExactRep-v3-final,2021.2.3,60.101499415438504,
,,,,,,,,,,,,78,0,78,0,,,,,,,,,,,,,,,,,,,,,,,,,,,,,,,,,,,,,,,,,,,,,,,,,1073.7853642000118,None,,,,,,,,,,,,,,,,,,,,,,,,,,,,,,,,,,,,,,,,,,,,,,,,,,,,,,,,,product,158,79,silent,new,yellow,1072.5212789000361,None,n,1072.5212789000361,None,"['n', 'return']","[1.0068450000253506, 1.2227835000376217]",1072.5212789000361,None,,,82ND,001,2023_Aug_28_1821,ExactRep-v3-final,2021.2.3,60.101499415438504,
,,,,,,,,,,,,79,0,79,0,,,,,,,,,,,,,,,,,,,,,,,,,,,,,,,,,,,,,,,,,,,,,,,,,1075.3533545000246,None,,,,,,,,,,,,,,,,,,,,,,,,,,,,,,,,,,,,,,,,,,,,,,,,,,,,,,,,,meat,137,80,silent,new,yellow,1074.3025078999926,None,n,1074.3025078999926,None,"['n', 'return']","[0.7374895999673754, 1.0015342999831773]",1074.3025078999926,None,,,82ND,001,2023_Aug_28_1821,ExactRep-v3-final,2021.2.3,60.101499415438504,
,,,,,,,,,,,,80,0,80,0,,,,,,,,,,,,,,,,,,,,,,,,,,,,,,,,,,,,,,,,,,,,,,,,,1077.3550884000142,None,,,,,,,,,,,,,,,,,,,,,,,,,,,,,,,,,,,,,,,,,,,,,,,,,,,,,,,,,kiss,232,81,aloud,new,yellow,1075.874184300017,None,n,1075.874184300017,None,"['n', 'return']","[0.7179293000372127, 1.4458424000185914]",1075.874184300017,None,,,82ND,001,2023_Aug_28_1821,ExactRep-v3-final,2021.2.3,60.101499415438504,
,,,,,,,,,,,,81,0,81,0,,,,,,,,,,,,,,,,,,,,,,,,,,,,,,,,,,,,,,,,,,,,,,,,,1081.7090833000257,None,,,,,,,,,,,,,,,,,,,,,,,,,,,,,,,,,,,,,,,,,,,,,,,,,,,,,,,,,journal,222,82,aloud,new,yellow,1077.8727086000144,None,n,1077.8727086000144,None,"['n', 'return']","[3.615364600031171, 3.791260300029535]",1077.8727086000144,None,,,82ND,001,2023_Aug_28_1821,ExactRep-v3-final,2021.2.3,60.101499415438504,
,,,,,,,,,,,,82,0,82,0,,,,,,,,,,,,,,,,,,,,,,,,,,,,,,,,,,,,,,,,,,,,,,,,,1083.8613849999965,None,,,,,,,,,,,,,,,,,,,,,,,,,,,,,,,,,,,,,,,,,,,,,,,,,,,,,,,,,victory,98,83,aloud,old,yellow,1082.2272001000238,None,y,1082.2272001000238,None,"['y', 'return']","[1.3889636000385508, 1.5887630000361241]",1082.2272001000238,None,,,82ND,001,2023_Aug_28_1821,ExactRep-v3-final,2021.2.3,60.101499415438504,
,,,,,,,,,,,,83,0,83,0,,,,,,,,,,,,,,,,,,,,,,,,,,,,,,,,,,,,,,,,,,,,,,,,,1085.6800068000448,None,,,,,,,,,,,,,,,,,,,,,,,,,,,,,,,,,,,,,,,,,,,,,,,,,,,,,,,,,meeting,22,84,sing,old,yellow,1084.380925800011,None,n,1084.380925800011,None,"['n', 'return']","[1.0190181999932975, 1.25110469997162]",1084.380925800011,None,,,82ND,001,2023_Aug_28_1821,ExactRep-v3-final,2021.2.3,60.101499415438504,
,,,,,,,,,,,,84,0,84,0,,,,,,,,,,,,,,,,,,,,,,,,,,,,,,,,,,,,,,,,,,,,,,,,,1087.6485041000415,None,,,,,,,,,,,,,,,,,,,,,,,,,,,,,,,,,,,,,,,,,,,,,,,,,,,,,,,,,time,219,85,sing,new,yellow,1086.2092562000034,None,n,1086.2092562000034,None,"['n', 'return']","[1.1587645999970846, 1.3987587000010535]",1086.2092562000034,None,,,82ND,001,2023_Aug_28_1821,ExactRep-v3-final,2021.2.3,60.101499415438504,
,,,,,,,,,,,,85,0,85,0,,,,,,,,,,,,,,,,,,,,,,,,,,,,,,,,,,,,,,,,,,,,,,,,,1089.167134599993,None,,,,,,,,,,,,,,,,,,,,,,,,,,,,,,,,,,,,,,,,,,,,,,,,,,,,,,,,,slave,109,86,aloud,old,yellow,1088.16455700004,None,y,1088.16455700004,None,"['y', 'return']","[0.7874611999723129, 0.9635523000033572]",1088.16455700004,None,,,82ND,001,2023_Aug_28_1821,ExactRep-v3-final,2021.2.3,60.101499415438504,
,,,,,,,,,,,,86,0,86,0,,,,,,,,,,,,,,,,,,,,,,,,,,,,,,,,,,,,,,,,,,,,,,,,,1091.4850410000072,None,,,,,,,,,,,,,,,,,,,,,,,,,,,,,,,,,,,,,,,,,,,,,,,,,,,,,,,,,green,174,87,aloud,new,yellow,1089.6841713000322,None,y,1089.6841713000322,None,"['y', 'return']","[1.4759035999886692, 1.7642791999969631]",1089.6841713000322,None,,,82ND,001,2023_Aug_28_1821,ExactRep-v3-final,2021.2.3,60.101499415438504,
,,,,,,,,,,,,87,0,87,0,,,,,,,,,,,,,,,,,,,,,,,,,,,,,,,,,,,,,,,,,,,,,,,,,1093.2212568999967,None,,,,,,,,,,,,,,,,,,,,,,,,,,,,,,,,,,,,,,,,,,,,,,,,,,,,,,,,,pipe,210,88,aloud,new,yellow,1091.9872903000214,None,n,1091.9872903000214,None,"['n', 'return']","[0.9247325999895111, 1.188720399979502]",1091.9872903000214,None,,,82ND,001,2023_Aug_28_1821,ExactRep-v3-final,2021.2.3,60.101499415438504,
,,,,,,,,,,,,88,0,88,0,,,,,,,,,,,,,,,,,,,,,,,,,,,,,,,,,,,,,,,,,,,,,,,,,1094.7723640000331,None,,,,,,,,,,,,,,,,,,,,,,,,,,,,,,,,,,,,,,,,,,,,,,,,,,,,,,,,,bottle,8,89,sing,old,yellow,1093.738215600024,None,y,1093.738215600024,None,"['y', 'return']","[0.7737999000237323, 0.9978229000116698]",1093.738215600024,None,,,82ND,001,2023_Aug_28_1821,ExactRep-v3-final,2021.2.3,60.101499415438504,
,,,,,,,,,,,,89,0,89,0,,,,,,,,,,,,,,,,,,,,,,,,,,,,,,,,,,,,,,,,,,,,,,,,,1097.124535800016,None,,,,,,,,,,,,,,,,,,,,,,,,,,,,,,,,,,,,,,,,,,,,,,,,,,,,,,,,,owner,133,90,silent,new,yellow,1095.2896579999942,None,n,1095.2896579999942,None,"['n', 'return']","[1.518469400005415, 1.7984782999847084]",1095.2896579999942,None,,,82ND,001,2023_Aug_28_1821,ExactRep-v3-final,2021.2.3,60.101499415438504,
,,,,,,,,,,,,90,0,90,0,,,,,,,,,,,,,,,,,,,,,,,,,,,,,,,,,,,,,,,,,,,,,,,,,1099.2433740000124,None,,,,,,,,,,,,,,,,,,,,,,,,,,,,,,,,,,,,,,,,,,,,,,,,,,,,,,,,,forest,61,91,silent,old,yellow,1097.642145299993,None,y,1097.642145299993,None,"['y', 'return']","[1.2699348999885842, 1.5660423999652267]",1097.642145299993,None,,,82ND,001,2023_Aug_28_1821,ExactRep-v3-final,2021.2.3,60.101499415438504,
,,,,,,,,,,,,91,0,91,0,,,,,,,,,,,,,,,,,,,,,,,,,,,,,,,,,,,,,,,,,,,,,,,,,1100.912026600039,None,,,,,,,,,,,,,,,,,,,,,,,,,,,,,,,,,,,,,,,,,,,,,,,,,,,,,,,,,valley,71,92,silent,old,yellow,1099.761315700016,None,n,1099.761315700016,None,"['n', 'return']","[0.8468987999949604, 1.1027903000358492]",1099.761315700016,None,,,82ND,001,2023_Aug_28_1821,ExactRep-v3-final,2021.2.3,60.101499415438504,
,,,,,,,,,,,,92,0,92,0,,,,,,,,,,,,,,,,,,,,,,,,,,,,,,,,,,,,,,,,,,,,,,,,,1103.080175900017,None,,,,,,,,,,,,,,,,,,,,,,,,,,,,,,,,,,,,,,,,,,,,,,,,,,,,,,,,,book,16,93,sing,old,yellow,1101.429233300034,None,y,1101.429233300034,None,"['y', 'return']","[1.306761900021229, 1.6029122999752872]",1101.429233300034,None,,,82ND,001,2023_Aug_28_1821,ExactRep-v3-final,2021.2.3,60.101499415438504,
,,,,,,,,,,,,93,0,93,0,,,,,,,,,,,,,,,,,,,,,,,,,,,,,,,,,,,,,,,,,,,,,,,,,1105.3823697000043,None,,,,,,,,,,,,,,,,,,,,,,,,,,,,,,,,,,,,,,,,,,,,,,,,,,,,,,,,,storm,68,94,silent,old,yellow,1103.582453800016,None,n,1103.582453800016,None,"['n', 'return']","[1.5138526000082493, 1.7535461999941617]",1103.582453800016,None,,,82ND,001,2023_Aug_28_1821,ExactRep-v3-final,2021.2.3,60.101499415438504,
,,,,,,,,,,,,94,0,94,0,,,,,,,,,,,,,,,,,,,,,,,,,,,,,,,,,,,,,,,,,,,,,,,,,1107.0011526999879,None,,,,,,,,,,,,,,,,,,,,,,,,,,,,,,,,,,,,,,,,,,,,,,,,,,,,,,,,,silence,124,95,silent,new,yellow,1105.897052699991,None,n,1105.897052699991,None,"['n', 'return']","[0.8629660000442527, 1.063006900018081]",1105.897052699991,None,,,82ND,001,2023_Aug_28_1821,ExactRep-v3-final,2021.2.3,60.101499415438504,
,,,,,,,,,,,,95,0,95,0,,,,,,,,,,,,,,,,,,,,,,,,,,,,,,,,,,,,,,,,,,,,,,,,,1108.970362299995,None,,,,,,,,,,,,,,,,,,,,,,,,,,,,,,,,,,,,,,,,,,,,,,,,,,,,,,,,,garden,84,96,aloud,old,yellow,1107.5082153000403,None,n,1107.5082153000403,None,"['n', 'return']","[1.2358110000495799, 1.4278418000321835]",1107.5082153000403,None,,,82ND,001,2023_Aug_28_1821,ExactRep-v3-final,2021.2.3,60.101499415438504,
,,,,,,,,,,,,96,0,96,0,,,,,,,,,,,,,,,,,,,,,,,,,,,,,,,,,,,,,,,,,,,,,,,,,1110.7214979000273,None,,,,,,,,,,,,,,,,,,,,,,,,,,,,,,,,,,,,,,,,,,,,,,,,,,,,,,,,,butter,223,97,sing,new,yellow,1109.4871795999934,None,n,1109.4871795999934,None,"['n', 'return']","[1.0489741999772377, 1.200885800004471]",1109.4871795999934,None,,,82ND,001,2023_Aug_28_1821,ExactRep-v3-final,2021.2.3,60.101499415438504,
,,,,,,,,,,,,97,0,97,0,,,,,,,,,,,,,,,,,,,,,,,,,,,,,,,,,,,,,,,,,,,,,,,,,1112.6900152000017,None,,,,,,,,,,,,,,,,,,,,,,,,,,,,,,,,,,,,,,,,,,,,,,,,,,,,,,,,,vision,205,98,sing,new,yellow,1111.2361545999884,None,n,1111.2361545999884,None,"['n', 'return']","[1.203914200013969, 1.4198422000044957]",1111.2361545999884,None,,,82ND,001,2023_Aug_28_1821,ExactRep-v3-final,2021.2.3,60.101499415438504,
,,,,,,,,,,,,98,0,98,0,,,,,,,,,,,,,,,,,,,,,,,,,,,,,,,,,,,,,,,,,,,,,,,,,1114.4421048000222,None,,,,,,,,,,,,,,,,,,,,,,,,,,,,,,,,,,,,,,,,,,,,,,,,,,,,,,,,,trouble,132,99,silent,new,yellow,1113.191402400029,None,n,1113.191402400029,None,"['n', 'return']","[1.0086086999508552, 1.2086731999879703]",1113.191402400029,None,,,82ND,001,2023_Aug_28_1821,ExactRep-v3-final,2021.2.3,60.101499415438504,
,,,,,,,,,,,,99,0,99,0,,,,,,,,,,,,,,,,,,,,,,,,,,,,,,,,,,,,,,,,,,,,,,,,,1115.8765067000058,None,,,,,,,,,,,,,,,,,,,,,,,,,,,,,,,,,,,,,,,,,,,,,,,,,,,,,,,,,mother,87,100,aloud,old,yellow,1114.9540191999986,None,y,1114.9540191999986,None,"['y', 'return']","[0.6620062000001781, 0.8779564999858849]",1114.9540191999986,None,,,82ND,001,2023_Aug_28_1821,ExactRep-v3-final,2021.2.3,60.101499415438504,
,,,,,,,,,,,,100,0,100,0,,,,,,,,,,,,,,,,,,,,,,,,,,,,,,,,,,,,,,,,,,,,,,,,,1117.628366000019,None,,,,,,,,,,,,,,,,,,,,,,,,,,,,,,,,,,,,,,,,,,,,,,,,,,,,,,,,,steam,54,101,silent,old,yellow,1116.412919400027,None,y,1116.412919400027,None,"['y', 'return']","[0.9150769000407308, 1.1790732000372373]",1116.412919400027,None,,,82ND,001,2023_Aug_28_1821,ExactRep-v3-final,2021.2.3,60.101499415438504,
,,,,,,,,,,,,101,0,101,0,,,,,,,,,,,,,,,,,,,,,,,,,,,,,,,,,,,,,,,,,,,,,,,,,1120.2993963999907,None,,,,,,,,,,,,,,,,,,,,,,,,,,,,,,,,,,,,,,,,,,,,,,,,,,,,,,,,,bar,103,102,aloud,old,yellow,1118.1357525000349,None,y,1118.1357525000349,None,"['y', 'return']","[1.9123523999587633, 2.120277499954682]",1118.1357525000349,None,,,82ND,001,2023_Aug_28_1821,ExactRep-v3-final,2021.2.3,60.101499415438504,
,,,,,,,,,,,,102,0,102,0,,,,,,,,,,,,,,,,,,,,,,,,,,,,,,,,,,,,,,,,,,,,,,,,,1122.0995163000189,None,,,,,,,,,,,,,,,,,,,,,,,,,,,,,,,,,,,,,,,,,,,,,,,,,,,,,,,,,string,96,103,aloud,old,yellow,1120.8154592000064,None,n,1120.8154592000064,None,"['n', 'return']","[1.0406024999683723, 1.24882689997321]",1120.8154592000064,None,,,82ND,001,2023_Aug_28_1821,ExactRep-v3-final,2021.2.3,60.101499415438504,
,,,,,,,,,,,,103,0,103,0,,,,,,,,,,,,,,,,,,,,,,,,,,,,,,,,,,,,,,,,,,,,,,,,,1123.6509750999976,None,,,,,,,,,,,,,,,,,,,,,,,,,,,,,,,,,,,,,,,,,,,,,,,,,,,,,,,,,style,122,104,silent,new,yellow,1122.625646600034,None,n,1122.625646600034,None,"['n', 'return']","[0.8144448000239208, 0.9824023999972269]",1122.625646600034,None,,,82ND,001,2023_Aug_28_1821,ExactRep-v3-final,2021.2.3,60.101499415438504,
,,,,,,,,,,,,104,0,104,0,,,,,,,,,,,,,,,,,,,,,,,,,,,,,,,,,,,,,,,,,,,,,,,,,1125.1525370000163,None,,,,,,,,,,,,,,,,,,,,,,,,,,,,,,,,,,,,,,,,,,,,,,,,,,,,,,,,,cattle,50,105,silent,old,yellow,1124.1610380000202,None,y,1124.1610380000202,None,"['y', 'return']","[0.7349625999922864, 0.9510649000294507]",1124.1610380000202,None,,,82ND,001,2023_Aug_28_1821,ExactRep-v3-final,2021.2.3,60.101499415438504,
,,,,,,,,,,,,105,0,105,0,,,,,,,,,,,,,,,,,,,,,,,,,,,,,,,,,,,,,,,,,,,,,,,,,1126.8215458000195,None,,,,,,,,,,,,,,,,,,,,,,,,,,,,,,,,,,,,,,,,,,,,,,,,,,,,,,,,,sugar,25,106,sing,old,yellow,1125.668902000005,None,y,1125.668902000005,None,"['y', 'return']","[0.9231616999604739, 1.1153582999831997]",1125.668902000005,None,,,82ND,001,2023_Aug_28_1821,ExactRep-v3-final,2021.2.3,60.101499415438504,
,,,,,,,,,,,,106,0,106,0,,,,,,,,,,,,,,,,,,,,,,,,,,,,,,,,,,,,,,,,,,,,,,,,,1128.4561048999894,None,,,,,,,,,,,,,,,,,,,,,,,,,,,,,,,,,,,,,,,,,,,,,,,,,,,,,,,,,stone,39,107,silent,old,yellow,1127.3380456999876,None,n,1127.3380456999876,None,"['n', 'return']","[0.8859468000009656, 1.078079600003548]",1127.3380456999876,None,,,82ND,001,2023_Aug_28_1821,ExactRep-v3-final,2021.2.3,60.101499415438504,
,,,,,,,,,,,,107,0,107,0,,,,,,,,,,,,,,,,,,,,,,,,,,,,,,,,,,,,,,,,,,,,,,,,,1130.3409605000052,None,,,,,,,,,,,,,,,,,,,,,,,,,,,,,,,,,,,,,,,,,,,,,,,,,,,,,,,,,coffee,220,108,aloud,new,yellow,1128.9815997999976,None,n,1128.9815997999976,None,"['n', 'return']","[1.130435300001409, 1.3227932000299916]",1128.9815997999976,None,,,82ND,001,2023_Aug_28_1821,ExactRep-v3-final,2021.2.3,60.101499415438504,
,,,,,,,,,,,,108,0,108,0,,,,,,,,,,,,,,,,,,,,,,,,,,,,,,,,,,,,,,,,,,,,,,,,,1132.026136600005,None,,,,,,,,,,,,,,,,,,,,,,,,,,,,,,,,,,,,,,,,,,,,,,,,,,,,,,,,,artist,114,109,aloud,old,yellow,1130.8420379000017,None,y,1130.8420379000017,None,"['y', 'return']","[0.8460746000055224, 1.1420770999975502]",1130.8420379000017,None,,,82ND,001,2023_Aug_28_1821,ExactRep-v3-final,2021.2.3,60.101499415438504,
,,,,,,,,,,,,109,0,109,0,,,,,,,,,,,,,,,,,,,,,,,,,,,,,,,,,,,,,,,,,,,,,,,,,1133.5612195000285,None,,,,,,,,,,,,,,,,,,,,,,,,,,,,,,,,,,,,,,,,,,,,,,,,,,,,,,,,,gift,4,110,sing,old,yellow,1132.5527545000077,None,y,1132.5527545000077,None,"['y', 'return']","[0.7754669000278227, 0.9672768000164069]",1132.5527545000077,None,,,82ND,001,2023_Aug_28_1821,ExactRep-v3-final,2021.2.3,60.101499415438504,
,,,,,,,,,,,,110,0,110,0,,,,,,,,,,,,,,,,,,,,,,,,,,,,,,,,,,,,,,,,,,,,,,,,,1134.9963625000091,None,,,,,,,,,,,,,,,,,,,,,,,,,,,,,,,,,,,,,,,,,,,,,,,,,,,,,,,,,season,62,111,silent,old,yellow,1134.0775474000257,None,y,1134.0775474000257,None,"['y', 'return']","[0.6984117000247352, 0.8828940999810584]",1134.0775474000257,None,,,82ND,001,2023_Aug_28_1821,ExactRep-v3-final,2021.2.3,60.101499415438504,
,,,,,,,,,,,,111,0,111,0,,,,,,,,,,,,,,,,,,,,,,,,,,,,,,,,,,,,,,,,,,,,,,,,,1136.4156194000388,None,,,,,,,,,,,,,,,,,,,,,,,,,,,,,,,,,,,,,,,,,,,,,,,,,,,,,,,,,city,1,112,sing,old,yellow,1135.5133502000244,None,y,1135.5133502000244,None,"['y', 'return']","[0.6627021000022069, 0.8625665999716148]",1135.5133502000244,None,,,82ND,001,2023_Aug_28_1821,ExactRep-v3-final,2021.2.3,60.101499415438504,
,,,,,,,,,,,,112,0,112,0,,,,,,,,,,,,,,,,,,,,,,,,,,,,,,,,,,,,,,,,,,,,,,,,,1138.0319370999932,None,,,,,,,,,,,,,,,,,,,,,,,,,,,,,,,,,,,,,,,,,,,,,,,,,,,,,,,,,wine,126,113,silent,new,yellow,1136.9300559000112,None,n,1136.9300559000112,None,"['n', 'return']","[0.814003000035882, 1.0540406000218354]",1136.9300559000112,None,,,82ND,001,2023_Aug_28_1821,ExactRep-v3-final,2021.2.3,60.101499415438504,
,,,,,,,,,,,,113,0,113,0,,,,,,,,,,,,,,,,,,,,,,,,,,,,,,,,,,,,,,,,,,,,,,,,,1140.7512209000415,None,,,,,,,,,,,,,,,,,,,,,,,,,,,,,,,,,,,,,,,,,,,,,,,,,,,,,,,,,law,64,114,silent,old,yellow,1138.5364756000345,None,n,1138.5364756000345,None,"['n', 'return']","[1.871559499995783, 2.1675627999939024]",1138.5364756000345,None,,,82ND,001,2023_Aug_28_1821,ExactRep-v3-final,2021.2.3,60.101499415438504,
,,,,,,,,,,,,114,0,114,0,,,,,,,,,,,,,,,,,,,,,,,,,,,,,,,,,,,,,,,,,,,,,,,,,1144.6902311000158,None,,,,,,,,,,,,,,,,,,,,,,,,,,,,,,,,,,,,,,,,,,,,,,,,,,,,,,,,,home,169,115,sing,new,yellow,1141.252876500017,None,y,1141.252876500017,None,"['y', 'return']","[3.1871842999826185, 3.387223300000187]",1141.252876500017,None,,,82ND,001,2023_Aug_28_1821,ExactRep-v3-final,2021.2.3,60.101499415438504,
,,,,,,,,,,,,115,0,115,0,,,,,,,,,,,,,,,,,,,,,,,,,,,,,,,,,,,,,,,,,,,,,,,,,1146.3070175999892,None,,,,,,,,,,,,,,,,,,,,,,,,,,,,,,,,,,,,,,,,,,,,,,,,,,,,,,,,,flood,165,116,sing,new,yellow,1145.214526500029,None,n,1145.214526500029,None,"['n', 'return']","[0.8894702999969013, 1.0576721000252292]",1145.214526500029,None,,,82ND,001,2023_Aug_28_1821,ExactRep-v3-final,2021.2.3,60.101499415438504,
,,,,,,,,,,,,116,0,116,0,,,,,,,,,,,,,,,,,,,,,,,,,,,,,,,,,,,,,,,,,,,,,,,,,1147.9252487000194,None,,,,,,,,,,,,,,,,,,,,,,,,,,,,,,,,,,,,,,,,,,,,,,,,,,,,,,,,,house,49,117,silent,old,yellow,1146.8247515000403,None,y,1146.8247515000403,None,"['y', 'return']","[0.6793134000035934, 1.0552771000075154]",1146.8247515000403,None,,,82ND,001,2023_Aug_28_1821,ExactRep-v3-final,2021.2.3,60.101499415438504,
,,,,,,,,,,,,117,0,117,0,,,,,,,,,,,,,,,,,,,,,,,,,,,,,,,,,,,,,,,,,,,,,,,,,1150.8280362000223,None,,,,,,,,,,,,,,,,,,,,,,,,,,,,,,,,,,,,,,,,,,,,,,,,,,,,,,,,,doll,19,118,sing,old,yellow,1148.4314311000053,None,n,1148.4314311000053,None,"['n', 'return']","[2.1846185000031255, 2.360612000047695]",1148.4314311000053,None,,,82ND,001,2023_Aug_28_1821,ExactRep-v3-final,2021.2.3,60.101499415438504,
,,,,,,,,,,,,118,0,118,0,,,,,,,,,,,,,,,,,,,,,,,,,,,,,,,,,,,,,,,,,,,,,,,,,1152.480106800038,None,,,,,,,,,,,,,,,,,,,,,,,,,,,,,,,,,,,,,,,,,,,,,,,,,,,,,,,,,honour,192,119,aloud,new,yellow,1151.32907050004,None,n,1151.32907050004,None,"['n', 'return']","[0.8550069000339136, 1.102952700050082]",1151.32907050004,None,,,82ND,001,2023_Aug_28_1821,ExactRep-v3-final,2021.2.3,60.101499415438504,
,,,,,,,,,,,,119,0,119,0,,,,,,,,,,,,,,,,,,,,,,,,,,,,,,,,,,,,,,,,,,,,,,,,,1154.1480569000123,None,,,,,,,,,,,,,,,,,,,,,,,,,,,,,,,,,,,,,,,,,,,,,,,,,,,,,,,,,water,212,120,aloud,new,yellow,1152.996438400005,None,n,1152.996438400005,None,"['n', 'return']","[0.8116551999701187, 1.1075397999957204]",1152.996438400005,None,,,82ND,001,2023_Aug_28_1821,ExactRep-v3-final,2021.2.3,60.101499415438504,
,,,,,,,,,,,,120,0,120,0,,,,,,,,,,,,,,,,,,,,,,,,,,,,,,,,,,,,,,,,,,,,,,,,,1155.6502585000126,None,,,,,,,,,,,,,,,,,,,,,,,,,,,,,,,,,,,,,,,,,,,,,,,,,,,,,,,,,animal,170,121,aloud,new,yellow,1154.6568169000093,None,n,1154.6568169000093,None,"['n', 'return']","[0.735257400025148, 0.9513287000008859]",1154.6568169000093,None,,,82ND,001,2023_Aug_28_1821,ExactRep-v3-final,2021.2.3,60.101499415438504,
,,,,,,,,,,,,121,0,121,0,,,,,,,,,,,,,,,,,,,,,,,,,,,,,,,,,,,,,,,,,,,,,,,,,1157.0844696999993,None,,,,,,,,,,,,,,,,,,,,,,,,,,,,,,,,,,,,,,,,,,,,,,,,,,,,,,,,,series,116,122,aloud,old,yellow,1156.1672065000166,None,y,1156.1672065000166,None,"['y', 'return']","[0.6808087000390515, 0.8728480000281706]",1156.1672065000166,None,,,82ND,001,2023_Aug_28_1821,ExactRep-v3-final,2021.2.3,60.101499415438504,
,,,,,,,,,,,,122,0,122,0,,,,,,,,,,,,,,,,,,,,,,,,,,,,,,,,,,,,,,,,,,,,,,,,,1158.636001900013,None,,,,,,,,,,,,,,,,,,,,,,,,,,,,,,,,,,,,,,,,,,,,,,,,,,,,,,,,,colony,183,123,sing,new,yellow,1157.5891132000252,None,n,1157.5891132000252,None,"['n', 'return']","[0.7309017999796197, 1.0110392000060529]",1157.5891132000252,None,,,82ND,001,2023_Aug_28_1821,ExactRep-v3-final,2021.2.3,60.101499415438504,
,,,,,,,,,,,,123,0,123,0,,,,,,,,,,,,,,,,,,,,,,,,,,,,,,,,,,,,,,,,,,,,,,,,,1159.971324400045,None,,,,,,,,,,,,,,,,,,,,,,,,,,,,,,,,,,,,,,,,,,,,,,,,,,,,,,,,,glory,118,124,aloud,old,yellow,1159.1438233000226,None,y,1159.1438233000226,None,"['y', 'return']","[0.6082693000207655, 0.7921562000410631]",1159.1438233000226,None,,,82ND,001,2023_Aug_28_1821,ExactRep-v3-final,2021.2.3,60.101499415438504,
,,,,,,,,,,,,124,0,124,0,,,,,,,,,,,,,,,,,,,,,,,,,,,,,,,,,,,,,,,,,,,,,,,,,1161.3890181999886,None,,,,,,,,,,,,,,,,,,,,,,,,,,,,,,,,,,,,,,,,,,,,,,,,,,,,,,,,,arm,92,125,aloud,old,yellow,1160.4880791000323,None,n,1160.4880791000323,None,"['n', 'return']","[0.6639654000173323, 0.8558486999827437]",1160.4880791000323,None,,,82ND,001,2023_Aug_28_1821,ExactRep-v3-final,2021.2.3,60.101499415438504,
,,,,,,,,,,,,125,0,125,0,,,,,,,,,,,,,,,,,,,,,,,,,,,,,,,,,,,,,,,,,,,,,,,,,1163.8580131999915,None,,,,,,,,,,,,,,,,,,,,,,,,,,,,,,,,,,,,,,,,,,,,,,,,,,,,,,,,,gold,229,126,sing,new,yellow,1161.9081252000178,None,n,1161.9081252000178,None,"['n', 'return']","[1.7480876999907196, 1.915965199994389]",1161.9081252000178,None,,,82ND,001,2023_Aug_28_1821,ExactRep-v3-final,2021.2.3,60.101499415438504,
,,,,,,,,,,,,126,0,126,0,,,,,,,,,,,,,,,,,,,,,,,,,,,,,,,,,,,,,,,,,,,,,,,,,1165.393024399993,None,,,,,,,,,,,,,,,,,,,,,,,,,,,,,,,,,,,,,,,,,,,,,,,,,,,,,,,,,hope,33,127,sing,old,yellow,1164.3831517000217,None,y,1164.3831517000217,None,"['y', 'return']","[0.8090318000176921, 0.9688687000307254]",1164.3831517000217,None,,,82ND,001,2023_Aug_28_1821,ExactRep-v3-final,2021.2.3,60.101499415438504,
,,,,,,,,,,,,127,0,127,0,,,,,,,,,,,,,,,,,,,,,,,,,,,,,,,,,,,,,,,,,,,,,,,,,1169.4634730000398,None,,,,,,,,,,,,,,,,,,,,,,,,,,,,,,,,,,,,,,,,,,,,,,,,,,,,,,,,,tree,42,128,silent,old,yellow,1165.9138325999957,None,n,1165.9138325999957,None,"['n', 'return']","[3.2381337999831885, 3.5022252000053413]",1165.9138325999957,None,,,82ND,001,2023_Aug_28_1821,ExactRep-v3-final,2021.2.3,60.101499415438504,
,,,,,,,,,,,,128,0,128,0,,,,,,,,,,,,,,,,,,,,,,,,,,,,,,,,,,,,,,,,,,,,,,,,,1170.964187400008,None,,,,,,,,,,,,,,,,,,,,,,,,,,,,,,,,,,,,,,,,,,,,,,,,,,,,,,,,,prison,178,129,aloud,new,yellow,1169.981045500026,None,n,1169.981045500026,None,"['n', 'return']","[0.7949521000264212, 0.9389181000296958]",1169.981045500026,None,,,82ND,001,2023_Aug_28_1821,ExactRep-v3-final,2021.2.3,60.101499415438504,
,,,,,,,,,,,,129,0,129,0,,,,,,,,,,,,,,,,,,,,,,,,,,,,,,,,,,,,,,,,,,,,,,,,,1172.4831705000252,None,,,,,,,,,,,,,,,,,,,,,,,,,,,,,,,,,,,,,,,,,,,,,,,,,,,,,,,,,idea,194,130,aloud,new,yellow,1171.4707463000086,None,y,1171.4707463000086,None,"['y', 'return']","[0.8571721000480466, 0.9692619000561535]",1171.4707463000086,None,,,82ND,001,2023_Aug_28_1821,ExactRep-v3-final,2021.2.3,60.101499415438504,
