trials_fam.thisRepN,trials_fam.thisTrialN,trials_fam.thisN,trials_fam.thisIndex,trials_prc.thisRepN,trials_prc.thisTrialN,trials_prc.thisN,trials_prc.thisIndex,StudyLoop.thisRepN,StudyLoop.thisTrialN,StudyLoop.thisN,StudyLoop.thisIndex,TestLoop.thisRepN,TestLoop.thisTrialN,TestLoop.thisN,TestLoop.thisIndex,text_colortest.started,text_colortest.stopped,key_colortest.keys,key_colortest.rt,key_colortest.started,key_colortest.stopped,textCondition.started,textCondition.stopped,keyCondition.keys,keyCondition.rt,keyCondition.started,keyCondition.stopped,Condition_between,Condition_counterbal,keyWelcome.keys,keyWelcome.rt,keyWelcome.started,keyWelcome.stopped,welcome_a.started,welcome_a.stopped,welcome_b.started,welcome_b.stopped,welcome_c.started,welcome_c.stopped,welcome_d.started,welcome_d.stopped,welcome_e.started,welcome_e.stopped,welcome_f.started,welcome_f.stopped,key_resp_fam_inst.keys,key_resp_fam_inst.rt,key_resp_fam_inst.started,key_resp_fam_inst.stopped,fam_a.started,fam_a.stopped,fam_b.started,fam_b.stopped,fam_c.started,fam_c.stopped,fam_d.started,fam_d.stopped,fam_e.started,fam_e.stopped,fam_f.started,fam_f.stopped,text_famil.started,text_famil.stopped,textBlank500.started,textBlank500.stopped,key_resp_prc_inst.keys,key_resp_prc_inst.rt,key_resp_prc_inst.started,key_resp_prc_inst.stopped,prac_a.started,prac_a.stopped,prac_b.started,prac_b.stopped,prac_c.started,prac_c.stopped,prac_d.started,prac_d.stopped,prac_e.started,prac_e.stopped,prac_f.started,prac_f.stopped,text_prc_trial.started,text_prc_trial.stopped,key_resp_study_inst.keys,key_resp_study_inst.rt,key_resp_study_inst.started,key_resp_study_inst.stopped,crit_a.started,crit_a.stopped,crit_b.started,crit_b.stopped,crit_c.started,crit_c.stopped,crit_d.started,crit_d.stopped,crit_e.started,crit_e.stopped,crit_f.started,crit_f.stopped,study_word,study_num,study_order,study_type,word_color,textStudy.started,textStudy.stopped,keyStudy.keys,keyStudy.started,keyStudy.stopped,post_study.started,post_study.stopped,key_resp_post_study.keys,key_resp_post_study.rt,key_resp_post_study.started,key_resp_post_study.stopped,test_inst.started,test_inst.stopped,key_resp_test_inst.keys,key_resp_test_inst.rt,key_resp_test_inst.started,key_resp_test_inst.stopped,test_word,test_num,test_order,test_condition,old_new_test,word_color_test,textConf.started,textConf.stopped,Participant Response,textInput.started,textInput.stopped,keyResp.keys,keyResp.rt,keyResp.started,keyResp.stopped,textEnd.started,textEnd.stopped,participant,session,date,expName,psychopyVersion,frameRate,
,,,,,,,,,,,,,,,,94.68487140000798,None,n,5.384871900023427,94.68487140000798,None,,,,,,,,,,,,,,,,,,,,,,,,,,,,,,,,,,,,,,,,,,,,,,,,,,,,,,,,,,,,,,,,,,,,,,,,,,,,,,,,,,,,,,,,,,,,,,,,,,,,,,,,,,,,,,,,,,,,,,83NE,001,2023_Aug_29_1023,ExactRep-v3-final,2021.2.3,59.72260046669361,
,,,,,,,,,,,,,,,,,,,,,,100.09843670000555,None,e,4.8350562999839894,100.09843670000555,None,,,,,,,,,,,,,,,,,,,,,,,,,,,,,,,,,,,,,,,,,,,,,,,,,,,,,,,,,,,,,,,,,,,,,,,,,,,,,,,,,,,,,,,,,,,,,,,,,,,,,,,,,,,,,,,,83NE,001,2023_Aug_29_1023,ExactRep-v3-final,2021.2.3,59.72260046669361,
,,,,,,,,,,,,,,,,,,,,,,,,,,,,whitefoils,e,space,2070.9691054000286,115.14777300000424,None,,,,,,,,,,,,,,,,,,,,,,,,,,,,,,,,,,,,,,,,,,,,,,,,,,,,,,,,,,,,,,,,,,,,,,,,,,,,,,,,,,,,,,,,,,,,,,,,,,,,,,,,,,83NE,001,2023_Aug_29_1023,ExactRep-v3-final,2021.2.3,59.72260046669361,
,,,,,,,,,,,,,,,,,,,,,,,,,,,,,,,,,,105.15249530004803,None,105.15249530004803,None,105.15249530004803,None,105.15249530004803,None,105.15249530004803,None,105.15249530004803,None,space,23.679817899945192,2196.317373100028,None,,,,,,,,,,,,,,,,,,,,,,,,,,,,,,,,,,,,,,,,,,,,,,,,,,,,,,,,,,,,,,,,,,,,,,,,,,,,,,,,,,,,,,,,,,83NE,001,2023_Aug_29_1023,ExactRep-v3-final,2021.2.3,59.72260046669361,
0,0,0,0,,,,,,,,,,,,,,,,,,,,,,,,,,,,,,,,,,,,,,,,,,,,,,,2186.3298475000192,None,2186.3298475000192,None,2186.3298475000192,None,2186.3298475000192,None,2186.3298475000192,None,2186.3298475000192,None,2220.131649799994,None,2222.1172383000376,None,,,,,,,,,,,,,,,,,,,,,,,,,,,,,,,,,,,,,,,,,,,,,,,,,,,,,,,,,,,,,,,,,,,,,,,,,,83NE,001,2023_Aug_29_1023,ExactRep-v3-final,2021.2.3,59.72260046669361,
1,0,1,0,,,,,,,,,,,,,,,,,,,,,,,,,,,,,,,,,,,,,,,,,,,,,,,,,,,,,,,,,,,2222.617849500035,None,2224.620283600001,None,,,,,,,,,,,,,,,,,,,,,,,,,,,,,,,,,,,,,,,,,,,,,,,,,,,,,,,,,,,,,,,,,,,,,,,,,,83NE,001,2023_Aug_29_1023,ExactRep-v3-final,2021.2.3,59.72260046669361,
2,0,2,0,,,,,,,,,,,,,,,,,,,,,,,,,,,,,,,,,,,,,,,,,,,,,,,,,,,,,,,,,,,2225.1211165999994,None,2227.122367200034,None,,,,,,,,,,,,,,,,,,,,,,,,,,,,,,,,,,,,,,,,,,,,,,,,,,,,,,,,,,,,,,,,,,,,,,,,,,83NE,001,2023_Aug_29_1023,ExactRep-v3-final,2021.2.3,59.72260046669361,
3,0,3,0,,,,,,,,,,,,,,,,,,,,,,,,,,,,,,,,,,,,,,,,,,,,,,,,,,,,,,,,,,,2227.626221200044,None,2229.6418255000026,None,,,,,,,,,,,,,,,,,,,,,,,,,,,,,,,,,,,,,,,,,,,,,,,,,,,,,,,,,,,,,,,,,,,,,,,,,,83NE,001,2023_Aug_29_1023,ExactRep-v3-final,2021.2.3,59.72260046669361,
4,0,4,0,,,,,,,,,,,,,,,,,,,,,,,,,,,,,,,,,,,,,,,,,,,,,,,,,,,,,,,,,,,2230.145289200009,None,2232.1439776000334,None,,,,,,,,,,,,,,,,,,,,,,,,,,,,,,,,,,,,,,,,,,,,,,,,,,,,,,,,,,,,,,,,,,,,,,,,,,83NE,001,2023_Aug_29_1023,ExactRep-v3-final,2021.2.3,59.72260046669361,
5,0,5,0,,,,,,,,,,,,,,,,,,,,,,,,,,,,,,,,,,,,,,,,,,,,,,,,,,,,,,,,,,,2232.644985800027,None,2234.646419800003,None,,,,,,,,,,,,,,,,,,,,,,,,,,,,,,,,,,,,,,,,,,,,,,,,,,,,,,,,,,,,,,,,,,,,,,,,,,83NE,001,2023_Aug_29_1023,ExactRep-v3-final,2021.2.3,59.72260046669361,
6,0,6,0,,,,,,,,,,,,,,,,,,,,,,,,,,,,,,,,,,,,,,,,,,,,,,,,,,,,,,,,,,,2235.1475055000046,None,2237.1494026000146,None,,,,,,,,,,,,,,,,,,,,,,,,,,,,,,,,,,,,,,,,,,,,,,,,,,,,,,,,,,,,,,,,,,,,,,,,,,83NE,001,2023_Aug_29_1023,ExactRep-v3-final,2021.2.3,59.72260046669361,
7,0,7,0,,,,,,,,,,,,,,,,,,,,,,,,,,,,,,,,,,,,,,,,,,,,,,,,,,,,,,,,,,,2237.6540764000383,None,2239.6684726999956,None,,,,,,,,,,,,,,,,,,,,,,,,,,,,,,,,,,,,,,,,,,,,,,,,,,,,,,,,,,,,,,,,,,,,,,,,,,83NE,001,2023_Aug_29_1023,ExactRep-v3-final,2021.2.3,59.72260046669361,
8,0,8,0,,,,,,,,,,,,,,,,,,,,,,,,,,,,,,,,,,,,,,,,,,,,,,,,,,,,,,,,,,,2240.1708402000368,None,2242.171049800003,None,,,,,,,,,,,,,,,,,,,,,,,,,,,,,,,,,,,,,,,,,,,,,,,,,,,,,,,,,,,,,,,,,,,,,,,,,,83NE,001,2023_Aug_29_1023,ExactRep-v3-final,2021.2.3,59.72260046669361,
9,0,9,0,,,,,,,,,,,,,,,,,,,,,,,,,,,,,,,,,,,,,,,,,,,,,,,,,,,,,,,,,,,2242.671106600028,None,2244.67322300002,None,,,,,,,,,,,,,,,,,,,,,,,,,,,,,,,,,,,,,,,,,,,,,,,,,,,,,,,,,,,,,,,,,,,,,,,,,,83NE,001,2023_Aug_29_1023,ExactRep-v3-final,2021.2.3,59.72260046669361,
10,0,10,0,,,,,,,,,,,,,,,,,,,,,,,,,,,,,,,,,,,,,,,,,,,,,,,,,,,,,,,,,,,2245.1738407000084,None,2247.1756887999945,None,,,,,,,,,,,,,,,,,,,,,,,,,,,,,,,,,,,,,,,,,,,,,,,,,,,,,,,,,,,,,,,,,,,,,,,,,,83NE,001,2023_Aug_29_1023,ExactRep-v3-final,2021.2.3,59.72260046669361,
11,0,11,0,,,,,,,,,,,,,,,,,,,,,,,,,,,,,,,,,,,,,,,,,,,,,,,,,,,,,,,,,,,2247.676599300001,None,2249.6782827000134,None,,,,,,,,,,,,,,,,,,,,,,,,,,,,,,,,,,,,,,,,,,,,,,,,,,,,,,,,,,,,,,,,,,,,,,,,,,83NE,001,2023_Aug_29_1023,ExactRep-v3-final,2021.2.3,59.72260046669361,
12,0,12,0,,,,,,,,,,,,,,,,,,,,,,,,,,,,,,,,,,,,,,,,,,,,,,,,,,,,,,,,,,,2250.178694400005,None,2252.180293500016,None,,,,,,,,,,,,,,,,,,,,,,,,,,,,,,,,,,,,,,,,,,,,,,,,,,,,,,,,,,,,,,,,,,,,,,,,,,83NE,001,2023_Aug_29_1023,ExactRep-v3-final,2021.2.3,59.72260046669361,
13,0,13,0,,,,,,,,,,,,,,,,,,,,,,,,,,,,,,,,,,,,,,,,,,,,,,,,,,,,,,,,,,,2252.681764600042,None,2254.682944800006,None,,,,,,,,,,,,,,,,,,,,,,,,,,,,,,,,,,,,,,,,,,,,,,,,,,,,,,,,,,,,,,,,,,,,,,,,,,83NE,001,2023_Aug_29_1023,ExactRep-v3-final,2021.2.3,59.72260046669361,
14,0,14,0,,,,,,,,,,,,,,,,,,,,,,,,,,,,,,,,,,,,,,,,,,,,,,,,,,,,,,,,,,,2255.184185800026,None,2257.1860031000106,None,,,,,,,,,,,,,,,,,,,,,,,,,,,,,,,,,,,,,,,,,,,,,,,,,,,,,,,,,,,,,,,,,,,,,,,,,,83NE,001,2023_Aug_29_1023,ExactRep-v3-final,2021.2.3,59.72260046669361,
,,,,,,,,,,,,,,,,,,,,,,,,,,,,,,,,,,,,,,,,,,,,,,,,,,,,,,,,,,,,,,,,,,space,16.122731999959797,2267.826064200024,None,,,,,,,,,,,,,,,,,,,,,,,,,,,,,,,,,,,,,,,,,,,,,,,,,,,,,,,,,,,,,,,,,,,,,,83NE,001,2023_Aug_29_1023,ExactRep-v3-final,2021.2.3,59.72260046669361,
,,,,0,0,0,0,,,,,,,,,,,,,,,,,,,,,,,,,,,,,,,,,,,,,,,,,,,,,,,,,,,,,,,,,2286.064678900002,None,,,,,2257.8512478000484,None,2257.8512478000484,None,2257.8512478000484,None,2257.8512478000484,None,2257.8512478000484,None,2257.8512478000484,None,2284.055656200042,None,,,,,,,,,,,,,,,,,,,,,,,,,,,,,,,,,,,,,,,,,,,,,,,,,,,,,,,,83NE,001,2023_Aug_29_1023,ExactRep-v3-final,2021.2.3,59.72260046669361,
,,,,1,0,1,0,,,,,,,,,,,,,,,,,,,,,,,,,,,,,,,,,,,,,,,,,,,,,,,,,,,,,,,,,2288.567212300026,None,,,,,,,,,,,,,,,,,2286.566088500025,None,,,,,,,,,,,,,,,,,,,,,,,,,,,,,,,,,,,,,,,,,,,,,,,,,,,,,,,,83NE,001,2023_Aug_29_1023,ExactRep-v3-final,2021.2.3,59.72260046669361,
,,,,2,0,2,0,,,,,,,,,,,,,,,,,,,,,,,,,,,,,,,,,,,,,,,,,,,,,,,,,,,,,,,,,2291.069690800039,None,,,,,,,,,,,,,,,,,2289.067880400049,None,,,,,,,,,,,,,,,,,,,,,,,,,,,,,,,,,,,,,,,,,,,,,,,,,,,,,,,,83NE,001,2023_Aug_29_1023,ExactRep-v3-final,2021.2.3,59.72260046669361,
,,,,3,0,3,0,,,,,,,,,,,,,,,,,,,,,,,,,,,,,,,,,,,,,,,,,,,,,,,,,,,,,,,,,2293.5722610999946,None,,,,,,,,,,,,,,,,,2291.5700575000374,None,,,,,,,,,,,,,,,,,,,,,,,,,,,,,,,,,,,,,,,,,,,,,,,,,,,,,,,,83NE,001,2023_Aug_29_1023,ExactRep-v3-final,2021.2.3,59.72260046669361,
,,,,4,0,4,0,,,,,,,,,,,,,,,,,,,,,,,,,,,,,,,,,,,,,,,,,,,,,,,,,,,,,,,,,2296.0748563000234,None,,,,,,,,,,,,,,,,,2294.0726286999998,None,,,,,,,,,,,,,,,,,,,,,,,,,,,,,,,,,,,,,,,,,,,,,,,,,,,,,,,,83NE,001,2023_Aug_29_1023,ExactRep-v3-final,2021.2.3,59.72260046669361,
,,,,5,0,5,0,,,,,,,,,,,,,,,,,,,,,,,,,,,,,,,,,,,,,,,,,,,,,,,,,,,,,,,,,2298.5774348000414,None,,,,,,,,,,,,,,,,,2296.5756201000186,None,,,,,,,,,,,,,,,,,,,,,,,,,,,,,,,,,,,,,,,,,,,,,,,,,,,,,,,,83NE,001,2023_Aug_29_1023,ExactRep-v3-final,2021.2.3,59.72260046669361,
,,,,6,0,6,0,,,,,,,,,,,,,,,,,,,,,,,,,,,,,,,,,,,,,,,,,,,,,,,,,,,,,,,,,2301.079841900035,None,,,,,,,,,,,,,,,,,2299.0781261000084,None,,,,,,,,,,,,,,,,,,,,,,,,,,,,,,,,,,,,,,,,,,,,,,,,,,,,,,,,83NE,001,2023_Aug_29_1023,ExactRep-v3-final,2021.2.3,59.72260046669361,
,,,,7,0,7,0,,,,,,,,,,,,,,,,,,,,,,,,,,,,,,,,,,,,,,,,,,,,,,,,,,,,,,,,,2303.5820653000264,None,,,,,,,,,,,,,,,,,2301.580274100008,None,,,,,,,,,,,,,,,,,,,,,,,,,,,,,,,,,,,,,,,,,,,,,,,,,,,,,,,,83NE,001,2023_Aug_29_1023,ExactRep-v3-final,2021.2.3,59.72260046669361,
,,,,8,0,8,0,,,,,,,,,,,,,,,,,,,,,,,,,,,,,,,,,,,,,,,,,,,,,,,,,,,,,,,,,2306.0848775000195,None,,,,,,,,,,,,,,,,,2304.0831077000475,None,,,,,,,,,,,,,,,,,,,,,,,,,,,,,,,,,,,,,,,,,,,,,,,,,,,,,,,,83NE,001,2023_Aug_29_1023,ExactRep-v3-final,2021.2.3,59.72260046669361,
,,,,9,0,9,0,,,,,,,,,,,,,,,,,,,,,,,,,,,,,,,,,,,,,,,,,,,,,,,,,,,,,,,,,2308.5870415000245,None,,,,,,,,,,,,,,,,,2306.5856327000074,None,,,,,,,,,,,,,,,,,,,,,,,,,,,,,,,,,,,,,,,,,,,,,,,,,,,,,,,,83NE,001,2023_Aug_29_1023,ExactRep-v3-final,2021.2.3,59.72260046669361,
,,,,10,0,10,0,,,,,,,,,,,,,,,,,,,,,,,,,,,,,,,,,,,,,,,,,,,,,,,,,,,,,,,,,2311.089911200048,None,,,,,,,,,,,,,,,,,2309.0876251000445,None,,,,,,,,,,,,,,,,,,,,,,,,,,,,,,,,,,,,,,,,,,,,,,,,,,,,,,,,83NE,001,2023_Aug_29_1023,ExactRep-v3-final,2021.2.3,59.72260046669361,
,,,,11,0,11,0,,,,,,,,,,,,,,,,,,,,,,,,,,,,,,,,,,,,,,,,,,,,,,,,,,,,,,,,,2313.592333800043,None,,,,,,,,,,,,,,,,,2311.590322400036,None,,,,,,,,,,,,,,,,,,,,,,,,,,,,,,,,,,,,,,,,,,,,,,,,,,,,,,,,83NE,001,2023_Aug_29_1023,ExactRep-v3-final,2021.2.3,59.72260046669361,
,,,,12,0,12,0,,,,,,,,,,,,,,,,,,,,,,,,,,,,,,,,,,,,,,,,,,,,,,,,,,,,,,,,,2316.0947554000304,None,,,,,,,,,,,,,,,,,2314.092897000024,None,,,,,,,,,,,,,,,,,,,,,,,,,,,,,,,,,,,,,,,,,,,,,,,,,,,,,,,,83NE,001,2023_Aug_29_1023,ExactRep-v3-final,2021.2.3,59.72260046669361,
,,,,13,0,13,0,,,,,,,,,,,,,,,,,,,,,,,,,,,,,,,,,,,,,,,,,,,,,,,,,,,,,,,,,2318.5970777000184,None,,,,,,,,,,,,,,,,,2316.5953659000224,None,,,,,,,,,,,,,,,,,,,,,,,,,,,,,,,,,,,,,,,,,,,,,,,,,,,,,,,,83NE,001,2023_Aug_29_1023,ExactRep-v3-final,2021.2.3,59.72260046669361,
,,,,14,0,14,0,,,,,,,,,,,,,,,,,,,,,,,,,,,,,,,,,,,,,,,,,,,,,,,,,,,,,,,,,2321.0997093000333,None,,,,,,,,,,,,,,,,,2319.097485000035,None,,,,,,,,,,,,,,,,,,,,,,,,,,,,,,,,,,,,,,,,,,,,,,,,,,,,,,,,83NE,001,2023_Aug_29_1023,ExactRep-v3-final,2021.2.3,59.72260046669361,
,,,,,,,,,,,,,,,,,,,,,,,,,,,,,,,,,,,,,,,,,,,,,,,,,,,,,,,,,,,,,,,,,,,,,,,,,,,,,,,,,,,,space,17.918087600031868,2331.7026900000055,None,,,,,,,,,,,,,,,,,,,,,,,,,,,,,,,,,,,,,,,,,,,,,,,,,,,,83NE,001,2023_Aug_29_1023,ExactRep-v3-final,2021.2.3,59.72260046669361,
,,,,,,,,0,0,0,0,,,,,,,,,,,,,,,,,,,,,,,,,,,,,,,,,,,,,,,,,,,,,,,,,,,,,2351.7471021999954,None,,,,,,,,,,,,,,,,,,,,,,,2321.753341500007,None,2321.753341500007,None,2321.753341500007,None,2321.753341500007,None,2321.753341500007,None,2321.753341500007,None,cost,19,1,sing,blue,2349.7362753000343,None,None,2349.7362753000343,None,,,,,,,,,,,,,,,,,,,,,,,,,,,,,,83NE,001,2023_Aug_29_1023,ExactRep-v3-final,2021.2.3,59.72260046669361,
,,,,,,,,1,0,1,0,,,,,,,,,,,,,,,,,,,,,,,,,,,,,,,,,,,,,,,,,,,,,,,,,,,,,2354.2662925000186,None,,,,,,,,,,,,,,,,,,,,,,,,,,,,,,,,,,,house,77,2,silent,red,2352.2535748000373,None,None,2352.2535748000373,None,,,,,,,,,,,,,,,,,,,,,,,,,,,,,,83NE,001,2023_Aug_29_1023,ExactRep-v3-final,2021.2.3,59.72260046669361,
,,,,,,,,2,0,2,0,,,,,,,,,,,,,,,,,,,,,,,,,,,,,,,,,,,,,,,,,,,,,,,,,,,,,2356.7854808000266,None,,,,,,,,,,,,,,,,,,,,,,,,,,,,,,,,,,,wheat,71,3,silent,red,2354.7705251000007,None,None,2354.7705251000007,None,,,,,,,,,,,,,,,,,,,,,,,,,,,,,,83NE,001,2023_Aug_29_1023,ExactRep-v3-final,2021.2.3,59.72260046669361,
,,,,,,,,3,0,3,0,,,,,,,,,,,,,,,,,,,,,,,,,,,,,,,,,,,,,,,,,,,,,,,,,,,,,2359.287848600012,None,,,,,,,,,,,,,,,,,,,,,,,,,,,,,,,,,,,string,96,4,aloud,white,2357.2887510000146,None,None,2357.2887510000146,None,,,,,,,,,,,,,,,,,,,,,,,,,,,,,,83NE,001,2023_Aug_29_1023,ExactRep-v3-final,2021.2.3,59.72260046669361,
,,,,,,,,4,0,4,0,,,,,,,,,,,,,,,,,,,,,,,,,,,,,,,,,,,,,,,,,,,,,,,,,,,,,2361.806887200044,None,,,,,,,,,,,,,,,,,,,,,,,,,,,,,,,,,,,dream,104,5,aloud,white,2359.792260600021,None,None,2359.792260600021,None,,,,,,,,,,,,,,,,,,,,,,,,,,,,,,83NE,001,2023_Aug_29_1023,ExactRep-v3-final,2021.2.3,59.72260046669361,
,,,,,,,,5,0,5,0,,,,,,,,,,,,,,,,,,,,,,,,,,,,,,,,,,,,,,,,,,,,,,,,,,,,,2364.327185400005,None,,,,,,,,,,,,,,,,,,,,,,,,,,,,,,,,,,,palace,40,6,silent,red,2362.3104822000023,None,None,2362.3104822000023,None,,,,,,,,,,,,,,,,,,,,,,,,,,,,,,83NE,001,2023_Aug_29_1023,ExactRep-v3-final,2021.2.3,59.72260046669361,
,,,,,,,,6,0,6,0,,,,,,,,,,,,,,,,,,,,,,,,,,,,,,,,,,,,,,,,,,,,,,,,,,,,,2366.8461687000236,None,,,,,,,,,,,,,,,,,,,,,,,,,,,,,,,,,,,pride,63,7,silent,red,2364.8339706000406,None,None,2364.8339706000406,None,,,,,,,,,,,,,,,,,,,,,,,,,,,,,,83NE,001,2023_Aug_29_1023,ExactRep-v3-final,2021.2.3,59.72260046669361,
,,,,,,,,7,0,7,0,,,,,,,,,,,,,,,,,,,,,,,,,,,,,,,,,,,,,,,,,,,,,,,,,,,,,2369.3482610000065,None,,,,,,,,,,,,,,,,,,,,,,,,,,,,,,,,,,,colony,73,8,silent,red,2367.3484691000194,None,None,2367.3484691000194,None,,,,,,,,,,,,,,,,,,,,,,,,,,,,,,83NE,001,2023_Aug_29_1023,ExactRep-v3-final,2021.2.3,59.72260046669361,
,,,,,,,,8,0,8,0,,,,,,,,,,,,,,,,,,,,,,,,,,,,,,,,,,,,,,,,,,,,,,,,,,,,,2371.86699530005,None,,,,,,,,,,,,,,,,,,,,,,,,,,,,,,,,,,,rock,69,9,silent,red,2369.854723700031,None,None,2369.854723700031,None,,,,,,,,,,,,,,,,,,,,,,,,,,,,,,83NE,001,2023_Aug_29_1023,ExactRep-v3-final,2021.2.3,59.72260046669361,
,,,,,,,,9,0,9,0,,,,,,,,,,,,,,,,,,,,,,,,,,,,,,,,,,,,,,,,,,,,,,,,,,,,,2374.369410500047,None,,,,,,,,,,,,,,,,,,,,,,,,,,,,,,,,,,,mind,5,10,sing,blue,2372.36743740004,None,None,2372.36743740004,None,,,,,,,,,,,,,,,,,,,,,,,,,,,,,,83NE,001,2023_Aug_29_1023,ExactRep-v3-final,2021.2.3,59.72260046669361,
,,,,,,,,10,0,10,0,,,,,,,,,,,,,,,,,,,,,,,,,,,,,,,,,,,,,,,,,,,,,,,,,,,,,2376.889511800022,None,,,,,,,,,,,,,,,,,,,,,,,,,,,,,,,,,,,window,84,11,aloud,white,2374.8749711000128,None,None,2374.8749711000128,None,,,,,,,,,,,,,,,,,,,,,,,,,,,,,,83NE,001,2023_Aug_29_1023,ExactRep-v3-final,2021.2.3,59.72260046669361,
,,,,,,,,11,0,11,0,,,,,,,,,,,,,,,,,,,,,,,,,,,,,,,,,,,,,,,,,,,,,,,,,,,,,2379.391171300027,None,,,,,,,,,,,,,,,,,,,,,,,,,,,,,,,,,,,church,99,12,aloud,white,2377.3918591000256,None,None,2377.3918591000256,None,,,,,,,,,,,,,,,,,,,,,,,,,,,,,,83NE,001,2023_Aug_29_1023,ExactRep-v3-final,2021.2.3,59.72260046669361,
,,,,,,,,12,0,12,0,,,,,,,,,,,,,,,,,,,,,,,,,,,,,,,,,,,,,,,,,,,,,,,,,,,,,2381.8938296000124,None,,,,,,,,,,,,,,,,,,,,,,,,,,,,,,,,,,,temple,36,13,sing,blue,2379.8944065000396,None,None,2379.8944065000396,None,,,,,,,,,,,,,,,,,,,,,,,,,,,,,,83NE,001,2023_Aug_29_1023,ExactRep-v3-final,2021.2.3,59.72260046669361,
,,,,,,,,13,0,13,0,,,,,,,,,,,,,,,,,,,,,,,,,,,,,,,,,,,,,,,,,,,,,,,,,,,,,2384.395926300029,None,,,,,,,,,,,,,,,,,,,,,,,,,,,,,,,,,,,chance,82,14,aloud,white,2382.3945275000297,None,None,2382.3945275000297,None,,,,,,,,,,,,,,,,,,,,,,,,,,,,,,83NE,001,2023_Aug_29_1023,ExactRep-v3-final,2021.2.3,59.72260046669361,
,,,,,,,,14,0,14,0,,,,,,,,,,,,,,,,,,,,,,,,,,,,,,,,,,,,,,,,,,,,,,,,,,,,,2386.8985414000344,None,,,,,,,,,,,,,,,,,,,,,,,,,,,,,,,,,,,pipe,110,15,aloud,white,2384.897031100001,None,None,2384.897031100001,None,,,,,,,,,,,,,,,,,,,,,,,,,,,,,,83NE,001,2023_Aug_29_1023,ExactRep-v3-final,2021.2.3,59.72260046669361,
,,,,,,,,15,0,15,0,,,,,,,,,,,,,,,,,,,,,,,,,,,,,,,,,,,,,,,,,,,,,,,,,,,,,2389.4016686000396,None,,,,,,,,,,,,,,,,,,,,,,,,,,,,,,,,,,,justice,48,16,silent,red,2387.4019887000322,None,None,2387.4019887000322,None,,,,,,,,,,,,,,,,,,,,,,,,,,,,,,83NE,001,2023_Aug_29_1023,ExactRep-v3-final,2021.2.3,59.72260046669361,
,,,,,,,,16,0,16,0,,,,,,,,,,,,,,,,,,,,,,,,,,,,,,,,,,,,,,,,,,,,,,,,,,,,,2391.920286700013,None,,,,,,,,,,,,,,,,,,,,,,,,,,,,,,,,,,,season,100,17,aloud,white,2389.906231800036,None,None,2389.906231800036,None,,,,,,,,,,,,,,,,,,,,,,,,,,,,,,83NE,001,2023_Aug_29_1023,ExactRep-v3-final,2021.2.3,59.72260046669361,
,,,,,,,,17,0,17,0,,,,,,,,,,,,,,,,,,,,,,,,,,,,,,,,,,,,,,,,,,,,,,,,,,,,,2394.4226943000103,None,,,,,,,,,,,,,,,,,,,,,,,,,,,,,,,,,,,mercy,10,18,sing,blue,2392.420822200016,None,None,2392.420822200016,None,,,,,,,,,,,,,,,,,,,,,,,,,,,,,,83NE,001,2023_Aug_29_1023,ExactRep-v3-final,2021.2.3,59.72260046669361,
,,,,,,,,18,0,18,0,,,,,,,,,,,,,,,,,,,,,,,,,,,,,,,,,,,,,,,,,,,,,,,,,,,,,2396.9251456000493,None,,,,,,,,,,,,,,,,,,,,,,,,,,,,,,,,,,,door,65,19,silent,red,2394.923750100017,None,None,2394.923750100017,None,,,,,,,,,,,,,,,,,,,,,,,,,,,,,,83NE,001,2023_Aug_29_1023,ExactRep-v3-final,2021.2.3,59.72260046669361,
,,,,,,,,19,0,19,0,,,,,,,,,,,,,,,,,,,,,,,,,,,,,,,,,,,,,,,,,,,,,,,,,,,,,2399.4278921000077,None,,,,,,,,,,,,,,,,,,,,,,,,,,,,,,,,,,,coast,111,20,aloud,white,2397.4263511000318,None,None,2397.4263511000318,None,,,,,,,,,,,,,,,,,,,,,,,,,,,,,,83NE,001,2023_Aug_29_1023,ExactRep-v3-final,2021.2.3,59.72260046669361,
,,,,,,,,20,0,20,0,,,,,,,,,,,,,,,,,,,,,,,,,,,,,,,,,,,,,,,,,,,,,,,,,,,,,2401.9302656000364,None,,,,,,,,,,,,,,,,,,,,,,,,,,,,,,,,,,,advice,15,21,sing,blue,2399.9306361000054,None,None,2399.9306361000054,None,,,,,,,,,,,,,,,,,,,,,,,,,,,,,,83NE,001,2023_Aug_29_1023,ExactRep-v3-final,2021.2.3,59.72260046669361,
,,,,,,,,21,0,21,0,,,,,,,,,,,,,,,,,,,,,,,,,,,,,,,,,,,,,,,,,,,,,,,,,,,,,2404.432949600043,None,,,,,,,,,,,,,,,,,,,,,,,,,,,,,,,,,,,blossom,3,22,sing,blue,2402.431521199993,None,None,2402.431521199993,None,,,,,,,,,,,,,,,,,,,,,,,,,,,,,,83NE,001,2023_Aug_29_1023,ExactRep-v3-final,2021.2.3,59.72260046669361,
,,,,,,,,22,0,22,0,,,,,,,,,,,,,,,,,,,,,,,,,,,,,,,,,,,,,,,,,,,,,,,,,,,,,2406.935472900048,None,,,,,,,,,,,,,,,,,,,,,,,,,,,,,,,,,,,body,26,23,sing,blue,2404.935635200003,None,None,2404.935635200003,None,,,,,,,,,,,,,,,,,,,,,,,,,,,,,,83NE,001,2023_Aug_29_1023,ExactRep-v3-final,2021.2.3,59.72260046669361,
,,,,,,,,23,0,23,0,,,,,,,,,,,,,,,,,,,,,,,,,,,,,,,,,,,,,,,,,,,,,,,,,,,,,2409.454692600004,None,,,,,,,,,,,,,,,,,,,,,,,,,,,,,,,,,,,event,28,24,sing,blue,2407.440633799997,None,None,2407.440633799997,None,,,,,,,,,,,,,,,,,,,,,,,,,,,,,,83NE,001,2023_Aug_29_1023,ExactRep-v3-final,2021.2.3,59.72260046669361,
,,,,,,,,24,0,24,0,,,,,,,,,,,,,,,,,,,,,,,,,,,,,,,,,,,,,,,,,,,,,,,,,,,,,2411.973882900027,None,,,,,,,,,,,,,,,,,,,,,,,,,,,,,,,,,,,power,32,25,sing,blue,2409.9623811000492,None,None,2409.9623811000492,None,,,,,,,,,,,,,,,,,,,,,,,,,,,,,,83NE,001,2023_Aug_29_1023,ExactRep-v3-final,2021.2.3,59.72260046669361,
,,,,,,,,25,0,25,0,,,,,,,,,,,,,,,,,,,,,,,,,,,,,,,,,,,,,,,,,,,,,,,,,,,,,2414.4932188999956,None,,,,,,,,,,,,,,,,,,,,,,,,,,,,,,,,,,,boy,57,26,silent,red,2412.480834100046,None,None,2412.480834100046,None,,,,,,,,,,,,,,,,,,,,,,,,,,,,,,83NE,001,2023_Aug_29_1023,ExactRep-v3-final,2021.2.3,59.72260046669361,
,,,,,,,,26,0,26,0,,,,,,,,,,,,,,,,,,,,,,,,,,,,,,,,,,,,,,,,,,,,,,,,,,,,,2416.9953043000423,None,,,,,,,,,,,,,,,,,,,,,,,,,,,,,,,,,,,anger,13,27,sing,blue,2414.9933291000198,None,None,2414.9933291000198,None,,,,,,,,,,,,,,,,,,,,,,,,,,,,,,83NE,001,2023_Aug_29_1023,ExactRep-v3-final,2021.2.3,59.72260046669361,
,,,,,,,,27,0,27,0,,,,,,,,,,,,,,,,,,,,,,,,,,,,,,,,,,,,,,,,,,,,,,,,,,,,,2419.514481900027,None,,,,,,,,,,,,,,,,,,,,,,,,,,,,,,,,,,,humour,98,28,aloud,white,2417.500143000041,None,None,2417.500143000041,None,,,,,,,,,,,,,,,,,,,,,,,,,,,,,,83NE,001,2023_Aug_29_1023,ExactRep-v3-final,2021.2.3,59.72260046669361,
,,,,,,,,28,0,28,0,,,,,,,,,,,,,,,,,,,,,,,,,,,,,,,,,,,,,,,,,,,,,,,,,,,,,2422.0175273000496,None,,,,,,,,,,,,,,,,,,,,,,,,,,,,,,,,,,,plain,1,29,sing,blue,2420.015022700012,None,None,2420.015022700012,None,,,,,,,,,,,,,,,,,,,,,,,,,,,,,,83NE,001,2023_Aug_29_1023,ExactRep-v3-final,2021.2.3,59.72260046669361,
,,,,,,,,29,0,29,0,,,,,,,,,,,,,,,,,,,,,,,,,,,,,,,,,,,,,,,,,,,,,,,,,,,,,2424.5371343000443,None,,,,,,,,,,,,,,,,,,,,,,,,,,,,,,,,,,,wife,56,30,silent,red,2422.532974700036,None,None,2422.532974700036,None,,,,,,,,,,,,,,,,,,,,,,,,,,,,,,83NE,001,2023_Aug_29_1023,ExactRep-v3-final,2021.2.3,59.72260046669361,
,,,,,,,,30,0,30,0,,,,,,,,,,,,,,,,,,,,,,,,,,,,,,,,,,,,,,,,,,,,,,,,,,,,,2427.0565807000385,None,,,,,,,,,,,,,,,,,,,,,,,,,,,,,,,,,,,theory,85,31,aloud,white,2425.0405085000093,None,None,2425.0405085000093,None,,,,,,,,,,,,,,,,,,,,,,,,,,,,,,83NE,001,2023_Aug_29_1023,ExactRep-v3-final,2021.2.3,59.72260046669361,
,,,,,,,,31,0,31,0,,,,,,,,,,,,,,,,,,,,,,,,,,,,,,,,,,,,,,,,,,,,,,,,,,,,,2429.5580234000226,None,,,,,,,,,,,,,,,,,,,,,,,,,,,,,,,,,,,cabin,12,32,sing,blue,2427.5561081000487,None,None,2427.5561081000487,None,,,,,,,,,,,,,,,,,,,,,,,,,,,,,,83NE,001,2023_Aug_29_1023,ExactRep-v3-final,2021.2.3,59.72260046669361,
,,,,,,,,32,0,32,0,,,,,,,,,,,,,,,,,,,,,,,,,,,,,,,,,,,,,,,,,,,,,,,,,,,,,2432.077366100042,None,,,,,,,,,,,,,,,,,,,,,,,,,,,,,,,,,,,judge,35,33,sing,blue,2430.0623160999967,None,None,2430.0623160999967,None,,,,,,,,,,,,,,,,,,,,,,,,,,,,,,83NE,001,2023_Aug_29_1023,ExactRep-v3-final,2021.2.3,59.72260046669361,
,,,,,,,,33,0,33,0,,,,,,,,,,,,,,,,,,,,,,,,,,,,,,,,,,,,,,,,,,,,,,,,,,,,,2434.579652400047,None,,,,,,,,,,,,,,,,,,,,,,,,,,,,,,,,,,,table,29,34,sing,blue,2432.580140200036,None,None,2432.580140200036,None,,,,,,,,,,,,,,,,,,,,,,,,,,,,,,83NE,001,2023_Aug_29_1023,ExactRep-v3-final,2021.2.3,59.72260046669361,
,,,,,,,,34,0,34,0,,,,,,,,,,,,,,,,,,,,,,,,,,,,,,,,,,,,,,,,,,,,,,,,,,,,,2437.082052600046,None,,,,,,,,,,,,,,,,,,,,,,,,,,,,,,,,,,,deed,45,35,silent,red,2435.0807911000447,None,None,2435.0807911000447,None,,,,,,,,,,,,,,,,,,,,,,,,,,,,,,83NE,001,2023_Aug_29_1023,ExactRep-v3-final,2021.2.3,59.72260046669361,
,,,,,,,,35,0,35,0,,,,,,,,,,,,,,,,,,,,,,,,,,,,,,,,,,,,,,,,,,,,,,,,,,,,,2439.5846590000438,None,,,,,,,,,,,,,,,,,,,,,,,,,,,,,,,,,,,factory,60,36,silent,red,2437.5838302000193,None,None,2437.5838302000193,None,,,,,,,,,,,,,,,,,,,,,,,,,,,,,,83NE,001,2023_Aug_29_1023,ExactRep-v3-final,2021.2.3,59.72260046669361,
,,,,,,,,36,0,36,0,,,,,,,,,,,,,,,,,,,,,,,,,,,,,,,,,,,,,,,,,,,,,,,,,,,,,2442.087400600023,None,,,,,,,,,,,,,,,,,,,,,,,,,,,,,,,,,,,water,59,37,silent,red,2440.0854938999983,None,None,2440.0854938999983,None,,,,,,,,,,,,,,,,,,,,,,,,,,,,,,83NE,001,2023_Aug_29_1023,ExactRep-v3-final,2021.2.3,59.72260046669361,
,,,,,,,,37,0,37,0,,,,,,,,,,,,,,,,,,,,,,,,,,,,,,,,,,,,,,,,,,,,,,,,,,,,,2444.606164500001,None,,,,,,,,,,,,,,,,,,,,,,,,,,,,,,,,,,,leader,24,38,sing,blue,2442.59150780004,None,None,2442.59150780004,None,,,,,,,,,,,,,,,,,,,,,,,,,,,,,,83NE,001,2023_Aug_29_1023,ExactRep-v3-final,2021.2.3,59.72260046669361,
,,,,,,,,38,0,38,0,,,,,,,,,,,,,,,,,,,,,,,,,,,,,,,,,,,,,,,,,,,,,,,,,,,,,2447.1087187000085,None,,,,,,,,,,,,,,,,,,,,,,,,,,,,,,,,,,,hide,74,39,silent,red,2445.1069629000267,None,None,2445.1069629000267,None,,,,,,,,,,,,,,,,,,,,,,,,,,,,,,83NE,001,2023_Aug_29_1023,ExactRep-v3-final,2021.2.3,59.72260046669361,
,,,,,,,,39,0,39,0,,,,,,,,,,,,,,,,,,,,,,,,,,,,,,,,,,,,,,,,,,,,,,,,,,,,,2449.61154490005,None,,,,,,,,,,,,,,,,,,,,,,,,,,,,,,,,,,,butter,70,40,silent,red,2447.6102784000104,None,None,2447.6102784000104,None,,,,,,,,,,,,,,,,,,,,,,,,,,,,,,83NE,001,2023_Aug_29_1023,ExactRep-v3-final,2021.2.3,59.72260046669361,
,,,,,,,,40,0,40,0,,,,,,,,,,,,,,,,,,,,,,,,,,,,,,,,,,,,,,,,,,,,,,,,,,,,,2452.113549300004,None,,,,,,,,,,,,,,,,,,,,,,,,,,,,,,,,,,,book,116,41,aloud,white,2450.1120115999947,None,None,2450.1120115999947,None,,,,,,,,,,,,,,,,,,,,,,,,,,,,,,83NE,001,2023_Aug_29_1023,ExactRep-v3-final,2021.2.3,59.72260046669361,
,,,,,,,,41,0,41,0,,,,,,,,,,,,,,,,,,,,,,,,,,,,,,,,,,,,,,,,,,,,,,,,,,,,,2454.616285099997,None,,,,,,,,,,,,,,,,,,,,,,,,,,,,,,,,,,,pupil,62,42,silent,red,2452.6146996000316,None,None,2452.6146996000316,None,,,,,,,,,,,,,,,,,,,,,,,,,,,,,,83NE,001,2023_Aug_29_1023,ExactRep-v3-final,2021.2.3,59.72260046669361,
,,,,,,,,42,0,42,0,,,,,,,,,,,,,,,,,,,,,,,,,,,,,,,,,,,,,,,,,,,,,,,,,,,,,2457.118694600009,None,,,,,,,,,,,,,,,,,,,,,,,,,,,,,,,,,,,kiss,78,43,silent,red,2455.1171201000107,None,None,2455.1171201000107,None,,,,,,,,,,,,,,,,,,,,,,,,,,,,,,83NE,001,2023_Aug_29_1023,ExactRep-v3-final,2021.2.3,59.72260046669361,
,,,,,,,,43,0,43,0,,,,,,,,,,,,,,,,,,,,,,,,,,,,,,,,,,,,,,,,,,,,,,,,,,,,,2459.621523000009,None,,,,,,,,,,,,,,,,,,,,,,,,,,,,,,,,,,,iron,91,44,aloud,white,2457.619715000037,None,None,2457.619715000037,None,,,,,,,,,,,,,,,,,,,,,,,,,,,,,,83NE,001,2023_Aug_29_1023,ExactRep-v3-final,2021.2.3,59.72260046669361,
,,,,,,,,44,0,44,0,,,,,,,,,,,,,,,,,,,,,,,,,,,,,,,,,,,,,,,,,,,,,,,,,,,,,2462.1402762000216,None,,,,,,,,,,,,,,,,,,,,,,,,,,,,,,,,,,,nail,8,45,sing,blue,2460.125952100032,None,None,2460.125952100032,None,,,,,,,,,,,,,,,,,,,,,,,,,,,,,,83NE,001,2023_Aug_29_1023,ExactRep-v3-final,2021.2.3,59.72260046669361,
,,,,,,,,45,0,45,0,,,,,,,,,,,,,,,,,,,,,,,,,,,,,,,,,,,,,,,,,,,,,,,,,,,,,2464.642838400032,None,,,,,,,,,,,,,,,,,,,,,,,,,,,,,,,,,,,history,86,46,aloud,white,2462.640906899993,None,None,2462.640906899993,None,,,,,,,,,,,,,,,,,,,,,,,,,,,,,,83NE,001,2023_Aug_29_1023,ExactRep-v3-final,2021.2.3,59.72260046669361,
,,,,,,,,46,0,46,0,,,,,,,,,,,,,,,,,,,,,,,,,,,,,,,,,,,,,,,,,,,,,,,,,,,,,2467.1456547999987,None,,,,,,,,,,,,,,,,,,,,,,,,,,,,,,,,,,,cash,14,47,sing,blue,2465.1439597000135,None,None,2465.1439597000135,None,,,,,,,,,,,,,,,,,,,,,,,,,,,,,,83NE,001,2023_Aug_29_1023,ExactRep-v3-final,2021.2.3,59.72260046669361,
,,,,,,,,47,0,47,0,,,,,,,,,,,,,,,,,,,,,,,,,,,,,,,,,,,,,,,,,,,,,,,,,,,,,2469.6484670999926,None,,,,,,,,,,,,,,,,,,,,,,,,,,,,,,,,,,,paper,118,48,aloud,white,2467.648924100038,None,None,2467.648924100038,None,,,,,,,,,,,,,,,,,,,,,,,,,,,,,,83NE,001,2023_Aug_29_1023,ExactRep-v3-final,2021.2.3,59.72260046669361,
,,,,,,,,48,0,48,0,,,,,,,,,,,,,,,,,,,,,,,,,,,,,,,,,,,,,,,,,,,,,,,,,,,,,2472.1675778999925,None,,,,,,,,,,,,,,,,,,,,,,,,,,,,,,,,,,,letter,94,49,aloud,white,2470.1535044000484,None,None,2470.1535044000484,None,,,,,,,,,,,,,,,,,,,,,,,,,,,,,,83NE,001,2023_Aug_29_1023,ExactRep-v3-final,2021.2.3,59.72260046669361,
,,,,,,,,49,0,49,0,,,,,,,,,,,,,,,,,,,,,,,,,,,,,,,,,,,,,,,,,,,,,,,,,,,,,2474.669674600009,None,,,,,,,,,,,,,,,,,,,,,,,,,,,,,,,,,,,law,113,50,aloud,white,2472.670557000034,None,None,2472.670557000034,None,,,,,,,,,,,,,,,,,,,,,,,,,,,,,,83NE,001,2023_Aug_29_1023,ExactRep-v3-final,2021.2.3,59.72260046669361,
,,,,,,,,50,0,50,0,,,,,,,,,,,,,,,,,,,,,,,,,,,,,,,,,,,,,,,,,,,,,,,,,,,,,2477.1720639000414,None,,,,,,,,,,,,,,,,,,,,,,,,,,,,,,,,,,,wine,109,51,aloud,white,2475.170838500024,None,None,2475.170838500024,None,,,,,,,,,,,,,,,,,,,,,,,,,,,,,,83NE,001,2023_Aug_29_1023,ExactRep-v3-final,2021.2.3,59.72260046669361,
,,,,,,,,51,0,51,0,,,,,,,,,,,,,,,,,,,,,,,,,,,,,,,,,,,,,,,,,,,,,,,,,,,,,2479.6754895000486,None,,,,,,,,,,,,,,,,,,,,,,,,,,,,,,,,,,,fortune,108,52,aloud,white,2477.674709700048,None,None,2477.674709700048,None,,,,,,,,,,,,,,,,,,,,,,,,,,,,,,83NE,001,2023_Aug_29_1023,ExactRep-v3-final,2021.2.3,59.72260046669361,
,,,,,,,,52,0,52,0,,,,,,,,,,,,,,,,,,,,,,,,,,,,,,,,,,,,,,,,,,,,,,,,,,,,,2482.19389720005,None,,,,,,,,,,,,,,,,,,,,,,,,,,,,,,,,,,,woman,44,53,silent,red,2480.178743300028,None,None,2480.178743300028,None,,,,,,,,,,,,,,,,,,,,,,,,,,,,,,83NE,001,2023_Aug_29_1023,ExactRep-v3-final,2021.2.3,59.72260046669361,
,,,,,,,,53,0,53,0,,,,,,,,,,,,,,,,,,,,,,,,,,,,,,,,,,,,,,,,,,,,,,,,,,,,,2484.696237199998,None,,,,,,,,,,,,,,,,,,,,,,,,,,,,,,,,,,,child,51,54,silent,red,2482.6967579000047,None,None,2482.6967579000047,None,,,,,,,,,,,,,,,,,,,,,,,,,,,,,,83NE,001,2023_Aug_29_1023,ExactRep-v3-final,2021.2.3,59.72260046669361,
,,,,,,,,54,0,54,0,,,,,,,,,,,,,,,,,,,,,,,,,,,,,,,,,,,,,,,,,,,,,,,,,,,,,2487.1987590999925,None,,,,,,,,,,,,,,,,,,,,,,,,,,,,,,,,,,,crime,22,55,sing,blue,2485.1980051000137,None,None,2485.1980051000137,None,,,,,,,,,,,,,,,,,,,,,,,,,,,,,,83NE,001,2023_Aug_29_1023,ExactRep-v3-final,2021.2.3,59.72260046669361,
,,,,,,,,55,0,55,0,,,,,,,,,,,,,,,,,,,,,,,,,,,,,,,,,,,,,,,,,,,,,,,,,,,,,2489.701249100035,None,,,,,,,,,,,,,,,,,,,,,,,,,,,,,,,,,,,dawn,47,56,silent,red,2487.6997151999967,None,None,2487.6997151999967,None,,,,,,,,,,,,,,,,,,,,,,,,,,,,,,83NE,001,2023_Aug_29_1023,ExactRep-v3-final,2021.2.3,59.72260046669361,
,,,,,,,,56,0,56,0,,,,,,,,,,,,,,,,,,,,,,,,,,,,,,,,,,,,,,,,,,,,,,,,,,,,,2492.203805600002,None,,,,,,,,,,,,,,,,,,,,,,,,,,,,,,,,,,,forest,101,57,aloud,white,2490.2029297000263,None,None,2490.2029297000263,None,,,,,,,,,,,,,,,,,,,,,,,,,,,,,,83NE,001,2023_Aug_29_1023,ExactRep-v3-final,2021.2.3,59.72260046669361,
,,,,,,,,57,0,57,0,,,,,,,,,,,,,,,,,,,,,,,,,,,,,,,,,,,,,,,,,,,,,,,,,,,,,2494.7061116000405,None,,,,,,,,,,,,,,,,,,,,,,,,,,,,,,,,,,,ocean,105,58,aloud,white,2492.7046910999925,None,None,2492.7046910999925,None,,,,,,,,,,,,,,,,,,,,,,,,,,,,,,83NE,001,2023_Aug_29_1023,ExactRep-v3-final,2021.2.3,59.72260046669361,
,,,,,,,,58,0,58,0,,,,,,,,,,,,,,,,,,,,,,,,,,,,,,,,,,,,,,,,,,,,,,,,,,,,,2497.208999100025,None,,,,,,,,,,,,,,,,,,,,,,,,,,,,,,,,,,,breast,20,59,sing,blue,2495.2067278000177,None,None,2495.2067278000177,None,,,,,,,,,,,,,,,,,,,,,,,,,,,,,,83NE,001,2023_Aug_29_1023,ExactRep-v3-final,2021.2.3,59.72260046669361,
,,,,,,,,59,0,59,0,,,,,,,,,,,,,,,,,,,,,,,,,,,,,,,,,,,,,,,,,,,,,,,,,,,,,2499.7279723000247,None,,,,,,,,,,,,,,,,,,,,,,,,,,,,,,,,,,,fur,58,60,silent,red,2497.7123722000397,None,None,2497.7123722000397,None,,,,,,,,,,,,,,,,,,,,,,,,,,,,,,83NE,001,2023_Aug_29_1023,ExactRep-v3-final,2021.2.3,59.72260046669361,
,,,,,,,,60,0,60,0,,,,,,,,,,,,,,,,,,,,,,,,,,,,,,,,,,,,,,,,,,,,,,,,,,,,,2502.2527469000197,None,,,,,,,,,,,,,,,,,,,,,,,,,,,,,,,,,,,air,11,61,sing,blue,2500.2359288000152,None,None,2500.2359288000152,None,,,,,,,,,,,,,,,,,,,,,,,,,,,,,,83NE,001,2023_Aug_29_1023,ExactRep-v3-final,2021.2.3,59.72260046669361,
,,,,,,,,61,0,61,0,,,,,,,,,,,,,,,,,,,,,,,,,,,,,,,,,,,,,,,,,,,,,,,,,,,,,2504.749847900006,None,,,,,,,,,,,,,,,,,,,,,,,,,,,,,,,,,,,horse,38,62,sing,blue,2502.749471599993,None,None,2502.749471599993,None,,,,,,,,,,,,,,,,,,,,,,,,,,,,,,83NE,001,2023_Aug_29_1023,ExactRep-v3-final,2021.2.3,59.72260046669361,
,,,,,,,,62,0,62,0,,,,,,,,,,,,,,,,,,,,,,,,,,,,,,,,,,,,,,,,,,,,,,,,,,,,,2507.252222900046,None,,,,,,,,,,,,,,,,,,,,,,,,,,,,,,,,,,,boulder,49,63,silent,red,2505.2525390000083,None,None,2505.2525390000083,None,,,,,,,,,,,,,,,,,,,,,,,,,,,,,,83NE,001,2023_Aug_29_1023,ExactRep-v3-final,2021.2.3,59.72260046669361,
,,,,,,,,63,0,63,0,,,,,,,,,,,,,,,,,,,,,,,,,,,,,,,,,,,,,,,,,,,,,,,,,,,,,2509.7716053000186,None,,,,,,,,,,,,,,,,,,,,,,,,,,,,,,,,,,,queen,90,64,aloud,white,2507.759080000047,None,None,2507.759080000047,None,,,,,,,,,,,,,,,,,,,,,,,,,,,,,,83NE,001,2023_Aug_29_1023,ExactRep-v3-final,2021.2.3,59.72260046669361,
,,,,,,,,64,0,64,0,,,,,,,,,,,,,,,,,,,,,,,,,,,,,,,,,,,,,,,,,,,,,,,,,,,,,2512.290785900026,None,,,,,,,,,,,,,,,,,,,,,,,,,,,,,,,,,,,soil,66,65,silent,red,2510.2796068000025,None,None,2510.2796068000025,None,,,,,,,,,,,,,,,,,,,,,,,,,,,,,,83NE,001,2023_Aug_29_1023,ExactRep-v3-final,2021.2.3,59.72260046669361,
,,,,,,,,65,0,65,0,,,,,,,,,,,,,,,,,,,,,,,,,,,,,,,,,,,,,,,,,,,,,,,,,,,,,2514.7929830000503,None,,,,,,,,,,,,,,,,,,,,,,,,,,,,,,,,,,,girl,88,66,aloud,white,2512.791269600042,None,None,2512.791269600042,None,,,,,,,,,,,,,,,,,,,,,,,,,,,,,,83NE,001,2023_Aug_29_1023,ExactRep-v3-final,2021.2.3,59.72260046669361,
,,,,,,,,66,0,66,0,,,,,,,,,,,,,,,,,,,,,,,,,,,,,,,,,,,,,,,,,,,,,,,,,,,,,2517.312070200045,None,,,,,,,,,,,,,,,,,,,,,,,,,,,,,,,,,,,flower,95,67,aloud,white,2515.3000866000075,None,None,2515.3000866000075,None,,,,,,,,,,,,,,,,,,,,,,,,,,,,,,83NE,001,2023_Aug_29_1023,ExactRep-v3-final,2021.2.3,59.72260046669361,
,,,,,,,,67,0,67,0,,,,,,,,,,,,,,,,,,,,,,,,,,,,,,,,,,,,,,,,,,,,,,,,,,,,,2519.814697200025,None,,,,,,,,,,,,,,,,,,,,,,,,,,,,,,,,,,,street,115,68,aloud,white,2517.8140471000224,None,None,2517.8140471000224,None,,,,,,,,,,,,,,,,,,,,,,,,,,,,,,83NE,001,2023_Aug_29_1023,ExactRep-v3-final,2021.2.3,59.72260046669361,
,,,,,,,,68,0,68,0,,,,,,,,,,,,,,,,,,,,,,,,,,,,,,,,,,,,,,,,,,,,,,,,,,,,,2522.3171730000176,None,,,,,,,,,,,,,,,,,,,,,,,,,,,,,,,,,,,gift,81,69,aloud,white,2520.315712200012,None,None,2520.315712200012,None,,,,,,,,,,,,,,,,,,,,,,,,,,,,,,83NE,001,2023_Aug_29_1023,ExactRep-v3-final,2021.2.3,59.72260046669361,
,,,,,,,,69,0,69,0,,,,,,,,,,,,,,,,,,,,,,,,,,,,,,,,,,,,,,,,,,,,,,,,,,,,,2524.8195325999986,None,,,,,,,,,,,,,,,,,,,,,,,,,,,,,,,,,,,fault,119,70,aloud,white,2522.8192302000243,None,None,2522.8192302000243,None,,,,,,,,,,,,,,,,,,,,,,,,,,,,,,83NE,001,2023_Aug_29_1023,ExactRep-v3-final,2021.2.3,59.72260046669361,
,,,,,,,,70,0,70,0,,,,,,,,,,,,,,,,,,,,,,,,,,,,,,,,,,,,,,,,,,,,,,,,,,,,,2527.3426022000494,None,,,,,,,,,,,,,,,,,,,,,,,,,,,,,,,,,,,slave,64,71,silent,red,2525.3325415000436,None,None,2525.3325415000436,None,,,,,,,,,,,,,,,,,,,,,,,,,,,,,,83NE,001,2023_Aug_29_1023,ExactRep-v3-final,2021.2.3,59.72260046669361,
,,,,,,,,71,0,71,0,,,,,,,,,,,,,,,,,,,,,,,,,,,,,,,,,,,,,,,,,,,,,,,,,,,,,2529.8415132000227,None,,,,,,,,,,,,,,,,,,,,,,,,,,,,,,,,,,,priest,92,72,aloud,white,2527.8419348000316,None,None,2527.8419348000316,None,,,,,,,,,,,,,,,,,,,,,,,,,,,,,,83NE,001,2023_Aug_29_1023,ExactRep-v3-final,2021.2.3,59.72260046669361,
,,,,,,,,72,0,72,0,,,,,,,,,,,,,,,,,,,,,,,,,,,,,,,,,,,,,,,,,,,,,,,,,,,,,2532.344167100033,None,,,,,,,,,,,,,,,,,,,,,,,,,,,,,,,,,,,truth,0,73,sing,blue,2530.3451972000184,None,None,2530.3451972000184,None,,,,,,,,,,,,,,,,,,,,,,,,,,,,,,83NE,001,2023_Aug_29_1023,ExactRep-v3-final,2021.2.3,59.72260046669361,
,,,,,,,,73,0,73,0,,,,,,,,,,,,,,,,,,,,,,,,,,,,,,,,,,,,,,,,,,,,,,,,,,,,,2534.863300200028,None,,,,,,,,,,,,,,,,,,,,,,,,,,,,,,,,,,,moral,117,74,aloud,white,2532.8488744000206,None,None,2532.8488744000206,None,,,,,,,,,,,,,,,,,,,,,,,,,,,,,,83NE,001,2023_Aug_29_1023,ExactRep-v3-final,2021.2.3,59.72260046669361,
,,,,,,,,74,0,74,0,,,,,,,,,,,,,,,,,,,,,,,,,,,,,,,,,,,,,,,,,,,,,,,,,,,,,2537.3821022000047,None,,,,,,,,,,,,,,,,,,,,,,,,,,,,,,,,,,,king,80,75,aloud,white,2535.366690199997,None,None,2535.366690199997,None,,,,,,,,,,,,,,,,,,,,,,,,,,,,,,83NE,001,2023_Aug_29_1023,ExactRep-v3-final,2021.2.3,59.72260046669361,
,,,,,,,,75,0,75,0,,,,,,,,,,,,,,,,,,,,,,,,,,,,,,,,,,,,,,,,,,,,,,,,,,,,,2539.8850753000006,None,,,,,,,,,,,,,,,,,,,,,,,,,,,,,,,,,,,lip,79,76,sing,blue,2537.882618600037,None,None,2537.882618600037,None,,,,,,,,,,,,,,,,,,,,,,,,,,,,,,83NE,001,2023_Aug_29_1023,ExactRep-v3-final,2021.2.3,59.72260046669361,
,,,,,,,,76,0,76,0,,,,,,,,,,,,,,,,,,,,,,,,,,,,,,,,,,,,,,,,,,,,,,,,,,,,,2542.4038380000275,None,,,,,,,,,,,,,,,,,,,,,,,,,,,,,,,,,,,trouble,6,77,sing,blue,2540.3897506000358,None,None,2540.3897506000358,None,,,,,,,,,,,,,,,,,,,,,,,,,,,,,,83NE,001,2023_Aug_29_1023,ExactRep-v3-final,2021.2.3,59.72260046669361,
,,,,,,,,77,0,77,0,,,,,,,,,,,,,,,,,,,,,,,,,,,,,,,,,,,,,,,,,,,,,,,,,,,,,2544.906714300043,None,,,,,,,,,,,,,,,,,,,,,,,,,,,,,,,,,,,star,89,78,aloud,white,2542.906789200031,None,None,2542.906789200031,None,,,,,,,,,,,,,,,,,,,,,,,,,,,,,,83NE,001,2023_Aug_29_1023,ExactRep-v3-final,2021.2.3,59.72260046669361,
,,,,,,,,78,0,78,0,,,,,,,,,,,,,,,,,,,,,,,,,,,,,,,,,,,,,,,,,,,,,,,,,,,,,2547.4088081000373,None,,,,,,,,,,,,,,,,,,,,,,,,,,,,,,,,,,,cotton,103,79,aloud,white,2545.4096631000284,None,None,2545.4096631000284,None,,,,,,,,,,,,,,,,,,,,,,,,,,,,,,83NE,001,2023_Aug_29_1023,ExactRep-v3-final,2021.2.3,59.72260046669361,
,,,,,,,,79,0,79,0,,,,,,,,,,,,,,,,,,,,,,,,,,,,,,,,,,,,,,,,,,,,,,,,,,,,,2549.9136209000135,None,,,,,,,,,,,,,,,,,,,,,,,,,,,,,,,,,,,seat,93,80,aloud,white,2547.9098719000467,None,None,2547.9098719000467,None,,,,,,,,,,,,,,,,,,,,,,,,,,,,,,83NE,001,2023_Aug_29_1023,ExactRep-v3-final,2021.2.3,59.72260046669361,
,,,,,,,,80,0,80,0,,,,,,,,,,,,,,,,,,,,,,,,,,,,,,,,,,,,,,,,,,,,,,,,,,,,,2552.4308113000006,None,,,,,,,,,,,,,,,,,,,,,,,,,,,,,,,,,,,disease,9,81,sing,blue,2550.4298717000056,None,None,2550.4298717000056,None,,,,,,,,,,,,,,,,,,,,,,,,,,,,,,83NE,001,2023_Aug_29_1023,ExactRep-v3-final,2021.2.3,59.72260046669361,
,,,,,,,,81,0,81,0,,,,,,,,,,,,,,,,,,,,,,,,,,,,,,,,,,,,,,,,,,,,,,,,,,,,,2554.933308100037,None,,,,,,,,,,,,,,,,,,,,,,,,,,,,,,,,,,,student,33,82,sing,blue,2552.933460200031,None,None,2552.933460200031,None,,,,,,,,,,,,,,,,,,,,,,,,,,,,,,83NE,001,2023_Aug_29_1023,ExactRep-v3-final,2021.2.3,59.72260046669361,
,,,,,,,,82,0,82,0,,,,,,,,,,,,,,,,,,,,,,,,,,,,,,,,,,,,,,,,,,,,,,,,,,,,,2557.4523154000053,None,,,,,,,,,,,,,,,,,,,,,,,,,,,,,,,,,,,world,112,83,aloud,white,2555.437050400011,None,None,2555.437050400011,None,,,,,,,,,,,,,,,,,,,,,,,,,,,,,,83NE,001,2023_Aug_29_1023,ExactRep-v3-final,2021.2.3,59.72260046669361,
,,,,,,,,83,0,83,0,,,,,,,,,,,,,,,,,,,,,,,,,,,,,,,,,,,,,,,,,,,,,,,,,,,,,2559.954793800018,None,,,,,,,,,,,,,,,,,,,,,,,,,,,,,,,,,,,arm,50,84,silent,red,2557.954976400011,None,None,2557.954976400011,None,,,,,,,,,,,,,,,,,,,,,,,,,,,,,,83NE,001,2023_Aug_29_1023,ExactRep-v3-final,2021.2.3,59.72260046669361,
,,,,,,,,84,0,84,0,,,,,,,,,,,,,,,,,,,,,,,,,,,,,,,,,,,,,,,,,,,,,,,,,,,,,2562.457600600028,None,,,,,,,,,,,,,,,,,,,,,,,,,,,,,,,,,,,college,42,85,silent,red,2560.457737300021,None,None,2560.457737300021,None,,,,,,,,,,,,,,,,,,,,,,,,,,,,,,83NE,001,2023_Aug_29_1023,ExactRep-v3-final,2021.2.3,59.72260046669361,
,,,,,,,,85,0,85,0,,,,,,,,,,,,,,,,,,,,,,,,,,,,,,,,,,,,,,,,,,,,,,,,,,,,,2564.976579500013,None,,,,,,,,,,,,,,,,,,,,,,,,,,,,,,,,,,,person,102,86,aloud,white,2562.963105700037,None,None,2562.963105700037,None,,,,,,,,,,,,,,,,,,,,,,,,,,,,,,83NE,001,2023_Aug_29_1023,ExactRep-v3-final,2021.2.3,59.72260046669361,
,,,,,,,,86,0,86,0,,,,,,,,,,,,,,,,,,,,,,,,,,,,,,,,,,,,,,,,,,,,,,,,,,,,,2567.479492100014,None,,,,,,,,,,,,,,,,,,,,,,,,,,,,,,,,,,,honour,39,87,silent,red,2565.480035100016,None,None,2565.480035100016,None,,,,,,,,,,,,,,,,,,,,,,,,,,,,,,83NE,001,2023_Aug_29_1023,ExactRep-v3-final,2021.2.3,59.72260046669361,
,,,,,,,,87,0,87,0,,,,,,,,,,,,,,,,,,,,,,,,,,,,,,,,,,,,,,,,,,,,,,,,,,,,,2569.998320600018,None,,,,,,,,,,,,,,,,,,,,,,,,,,,,,,,,,,,flag,23,88,sing,blue,2567.9844970999984,None,None,2567.9844970999984,None,,,,,,,,,,,,,,,,,,,,,,,,,,,,,,83NE,001,2023_Aug_29_1023,ExactRep-v3-final,2021.2.3,59.72260046669361,
,,,,,,,,88,0,88,0,,,,,,,,,,,,,,,,,,,,,,,,,,,,,,,,,,,,,,,,,,,,,,,,,,,,,2572.5006917000283,None,,,,,,,,,,,,,,,,,,,,,,,,,,,,,,,,,,,ticket,52,89,silent,red,2570.498606600042,None,None,2570.498606600042,None,,,,,,,,,,,,,,,,,,,,,,,,,,,,,,83NE,001,2023_Aug_29_1023,ExactRep-v3-final,2021.2.3,59.72260046669361,
,,,,,,,,89,0,89,0,,,,,,,,,,,,,,,,,,,,,,,,,,,,,,,,,,,,,,,,,,,,,,,,,,,,,2575.003112400009,None,,,,,,,,,,,,,,,,,,,,,,,,,,,,,,,,,,,corn,46,90,silent,red,2573.0016509999987,None,None,2573.0016509999987,None,,,,,,,,,,,,,,,,,,,,,,,,,,,,,,83NE,001,2023_Aug_29_1023,ExactRep-v3-final,2021.2.3,59.72260046669361,
,,,,,,,,90,0,90,0,,,,,,,,,,,,,,,,,,,,,,,,,,,,,,,,,,,,,,,,,,,,,,,,,,,,,2577.5058576000156,None,,,,,,,,,,,,,,,,,,,,,,,,,,,,,,,,,,,storm,7,91,sing,blue,2575.504563399998,None,None,2575.504563399998,None,,,,,,,,,,,,,,,,,,,,,,,,,,,,,,83NE,001,2023_Aug_29_1023,ExactRep-v3-final,2021.2.3,59.72260046669361,
,,,,,,,,91,0,91,0,,,,,,,,,,,,,,,,,,,,,,,,,,,,,,,,,,,,,,,,,,,,,,,,,,,,,2580.025931900018,None,,,,,,,,,,,,,,,,,,,,,,,,,,,,,,,,,,,method,27,92,sing,blue,2578.0094310000422,None,None,2578.0094310000422,None,,,,,,,,,,,,,,,,,,,,,,,,,,,,,,83NE,001,2023_Aug_29_1023,ExactRep-v3-final,2021.2.3,59.72260046669361,
,,,,,,,,92,0,92,0,,,,,,,,,,,,,,,,,,,,,,,,,,,,,,,,,,,,,,,,,,,,,,,,,,,,,2582.5272813000483,None,,,,,,,,,,,,,,,,,,,,,,,,,,,,,,,,,,,chair,37,93,sing,blue,2580.5274649000494,None,None,2580.5274649000494,None,,,,,,,,,,,,,,,,,,,,,,,,,,,,,,83NE,001,2023_Aug_29_1023,ExactRep-v3-final,2021.2.3,59.72260046669361,
,,,,,,,,93,0,93,0,,,,,,,,,,,,,,,,,,,,,,,,,,,,,,,,,,,,,,,,,,,,,,,,,,,,,2585.0297068000073,None,,,,,,,,,,,,,,,,,,,,,,,,,,,,,,,,,,,village,2,94,sing,blue,2583.0297789000324,None,None,2583.0297789000324,None,,,,,,,,,,,,,,,,,,,,,,,,,,,,,,83NE,001,2023_Aug_29_1023,ExactRep-v3-final,2021.2.3,59.72260046669361,
,,,,,,,,94,0,94,0,,,,,,,,,,,,,,,,,,,,,,,,,,,,,,,,,,,,,,,,,,,,,,,,,,,,,2587.5322770000203,None,,,,,,,,,,,,,,,,,,,,,,,,,,,,,,,,,,,market,106,95,aloud,white,2585.5311496000504,None,None,2585.5311496000504,None,,,,,,,,,,,,,,,,,,,,,,,,,,,,,,83NE,001,2023_Aug_29_1023,ExactRep-v3-final,2021.2.3,59.72260046669361,
,,,,,,,,95,0,95,0,,,,,,,,,,,,,,,,,,,,,,,,,,,,,,,,,,,,,,,,,,,,,,,,,,,,,2590.0353234000504,None,,,,,,,,,,,,,,,,,,,,,,,,,,,,,,,,,,,car,31,96,sing,blue,2588.033309200022,None,None,2588.033309200022,None,,,,,,,,,,,,,,,,,,,,,,,,,,,,,,83NE,001,2023_Aug_29_1023,ExactRep-v3-final,2021.2.3,59.72260046669361,
,,,,,,,,96,0,96,0,,,,,,,,,,,,,,,,,,,,,,,,,,,,,,,,,,,,,,,,,,,,,,,,,,,,,2592.5543291000067,None,,,,,,,,,,,,,,,,,,,,,,,,,,,,,,,,,,,volume,107,97,aloud,white,2590.542545500037,None,None,2590.542545500037,None,,,,,,,,,,,,,,,,,,,,,,,,,,,,,,83NE,001,2023_Aug_29_1023,ExactRep-v3-final,2021.2.3,59.72260046669361,
,,,,,,,,97,0,97,0,,,,,,,,,,,,,,,,,,,,,,,,,,,,,,,,,,,,,,,,,,,,,,,,,,,,,2595.056668300007,None,,,,,,,,,,,,,,,,,,,,,,,,,,,,,,,,,,,series,72,98,silent,red,2593.0550076999934,None,None,2593.0550076999934,None,,,,,,,,,,,,,,,,,,,,,,,,,,,,,,83NE,001,2023_Aug_29_1023,ExactRep-v3-final,2021.2.3,59.72260046669361,
,,,,,,,,98,0,98,0,,,,,,,,,,,,,,,,,,,,,,,,,,,,,,,,,,,,,,,,,,,,,,,,,,,,,2597.5589738000417,None,,,,,,,,,,,,,,,,,,,,,,,,,,,,,,,,,,,clock,4,99,sing,blue,2595.559521600022,None,None,2595.559521600022,None,,,,,,,,,,,,,,,,,,,,,,,,,,,,,,83NE,001,2023_Aug_29_1023,ExactRep-v3-final,2021.2.3,59.72260046669361,
,,,,,,,,99,0,99,0,,,,,,,,,,,,,,,,,,,,,,,,,,,,,,,,,,,,,,,,,,,,,,,,,,,,,2600.0616053999984,None,,,,,,,,,,,,,,,,,,,,,,,,,,,,,,,,,,,prayer,17,100,sing,blue,2598.0598674000357,None,None,2598.0598674000357,None,,,,,,,,,,,,,,,,,,,,,,,,,,,,,,83NE,001,2023_Aug_29_1023,ExactRep-v3-final,2021.2.3,59.72260046669361,
,,,,,,,,100,0,100,0,,,,,,,,,,,,,,,,,,,,,,,,,,,,,,,,,,,,,,,,,,,,,,,,,,,,,2602.563759300043,None,,,,,,,,,,,,,,,,,,,,,,,,,,,,,,,,,,,corner,61,101,silent,red,2600.562505100039,None,None,2600.562505100039,None,,,,,,,,,,,,,,,,,,,,,,,,,,,,,,83NE,001,2023_Aug_29_1023,ExactRep-v3-final,2021.2.3,59.72260046669361,
,,,,,,,,101,0,101,0,,,,,,,,,,,,,,,,,,,,,,,,,,,,,,,,,,,,,,,,,,,,,,,,,,,,,2605.0666325000348,None,,,,,,,,,,,,,,,,,,,,,,,,,,,,,,,,,,,metal,43,102,silent,red,2603.064830599993,None,None,2603.064830599993,None,,,,,,,,,,,,,,,,,,,,,,,,,,,,,,83NE,001,2023_Aug_29_1023,ExactRep-v3-final,2021.2.3,59.72260046669361,
,,,,,,,,102,0,102,0,,,,,,,,,,,,,,,,,,,,,,,,,,,,,,,,,,,,,,,,,,,,,,,,,,,,,2607.5689699000213,None,,,,,,,,,,,,,,,,,,,,,,,,,,,,,,,,,,,skin,41,103,silent,red,2605.5675009000115,None,None,2605.5675009000115,None,,,,,,,,,,,,,,,,,,,,,,,,,,,,,,83NE,001,2023_Aug_29_1023,ExactRep-v3-final,2021.2.3,59.72260046669361,
,,,,,,,,103,0,103,0,,,,,,,,,,,,,,,,,,,,,,,,,,,,,,,,,,,,,,,,,,,,,,,,,,,,,2610.0713154000114,None,,,,,,,,,,,,,,,,,,,,,,,,,,,,,,,,,,,teacher,54,104,silent,red,2608.0706547000445,None,None,2608.0706547000445,None,,,,,,,,,,,,,,,,,,,,,,,,,,,,,,83NE,001,2023_Aug_29_1023,ExactRep-v3-final,2021.2.3,59.72260046669361,
,,,,,,,,104,0,104,0,,,,,,,,,,,,,,,,,,,,,,,,,,,,,,,,,,,,,,,,,,,,,,,,,,,,,2612.5740236000274,None,,,,,,,,,,,,,,,,,,,,,,,,,,,,,,,,,,,grief,68,105,silent,red,2610.5717530000256,None,None,2610.5717530000256,None,,,,,,,,,,,,,,,,,,,,,,,,,,,,,,83NE,001,2023_Aug_29_1023,ExactRep-v3-final,2021.2.3,59.72260046669361,
,,,,,,,,105,0,105,0,,,,,,,,,,,,,,,,,,,,,,,,,,,,,,,,,,,,,,,,,,,,,,,,,,,,,2615.0929951000144,None,,,,,,,,,,,,,,,,,,,,,,,,,,,,,,,,,,,shoes,67,106,silent,red,2613.07798500004,None,None,2613.07798500004,None,,,,,,,,,,,,,,,,,,,,,,,,,,,,,,83NE,001,2023_Aug_29_1023,ExactRep-v3-final,2021.2.3,59.72260046669361,
,,,,,,,,106,0,106,0,,,,,,,,,,,,,,,,,,,,,,,,,,,,,,,,,,,,,,,,,,,,,,,,,,,,,2617.5964181000018,None,,,,,,,,,,,,,,,,,,,,,,,,,,,,,,,,,,,woods,21,107,sing,blue,2615.594040199998,None,None,2615.594040199998,None,,,,,,,,,,,,,,,,,,,,,,,,,,,,,,83NE,001,2023_Aug_29_1023,ExactRep-v3-final,2021.2.3,59.72260046669361,
,,,,,,,,107,0,107,0,,,,,,,,,,,,,,,,,,,,,,,,,,,,,,,,,,,,,,,,,,,,,,,,,,,,,2620.114939299994,None,,,,,,,,,,,,,,,,,,,,,,,,,,,,,,,,,,,friend,30,108,sing,blue,2618.10009240004,None,None,2618.10009240004,None,,,,,,,,,,,,,,,,,,,,,,,,,,,,,,83NE,001,2023_Aug_29_1023,ExactRep-v3-final,2021.2.3,59.72260046669361,
,,,,,,,,108,0,108,0,,,,,,,,,,,,,,,,,,,,,,,,,,,,,,,,,,,,,,,,,,,,,,,,,,,,,2622.6176826000446,None,,,,,,,,,,,,,,,,,,,,,,,,,,,,,,,,,,,effort,18,109,sing,blue,2620.6158142000204,None,None,2620.6158142000204,None,,,,,,,,,,,,,,,,,,,,,,,,,,,,,,83NE,001,2023_Aug_29_1023,ExactRep-v3-final,2021.2.3,59.72260046669361,
,,,,,,,,109,0,109,0,,,,,,,,,,,,,,,,,,,,,,,,,,,,,,,,,,,,,,,,,,,,,,,,,,,,,2625.1369305000408,None,,,,,,,,,,,,,,,,,,,,,,,,,,,,,,,,,,,board,75,110,silent,red,2623.1227239000145,None,None,2623.1227239000145,None,,,,,,,,,,,,,,,,,,,,,,,,,,,,,,83NE,001,2023_Aug_29_1023,ExactRep-v3-final,2021.2.3,59.72260046669361,
,,,,,,,,110,0,110,0,,,,,,,,,,,,,,,,,,,,,,,,,,,,,,,,,,,,,,,,,,,,,,,,,,,,,2627.6391921000322,None,,,,,,,,,,,,,,,,,,,,,,,,,,,,,,,,,,,spirit,114,111,aloud,white,2625.639203700004,None,None,2625.639203700004,None,,,,,,,,,,,,,,,,,,,,,,,,,,,,,,83NE,001,2023_Aug_29_1023,ExactRep-v3-final,2021.2.3,59.72260046669361,
,,,,,,,,111,0,111,0,,,,,,,,,,,,,,,,,,,,,,,,,,,,,,,,,,,,,,,,,,,,,,,,,,,,,2630.1419632000034,None,,,,,,,,,,,,,,,,,,,,,,,,,,,,,,,,,,,poet,55,112,silent,red,2628.141685800045,None,None,2628.141685800045,None,,,,,,,,,,,,,,,,,,,,,,,,,,,,,,83NE,001,2023_Aug_29_1023,ExactRep-v3-final,2021.2.3,59.72260046669361,
,,,,,,,,112,0,112,0,,,,,,,,,,,,,,,,,,,,,,,,,,,,,,,,,,,,,,,,,,,,,,,,,,,,,2632.644101200043,None,,,,,,,,,,,,,,,,,,,,,,,,,,,,,,,,,,,lad,53,113,silent,red,2630.6444782000035,None,None,2630.6444782000035,None,,,,,,,,,,,,,,,,,,,,,,,,,,,,,,83NE,001,2023_Aug_29_1023,ExactRep-v3-final,2021.2.3,59.72260046669361,
,,,,,,,,113,0,113,0,,,,,,,,,,,,,,,,,,,,,,,,,,,,,,,,,,,,,,,,,,,,,,,,,,,,,2635.1629295000457,None,,,,,,,,,,,,,,,,,,,,,,,,,,,,,,,,,,,chief,76,114,silent,red,2633.148761600023,None,None,2633.148761600023,None,,,,,,,,,,,,,,,,,,,,,,,,,,,,,,83NE,001,2023_Aug_29_1023,ExactRep-v3-final,2021.2.3,59.72260046669361,
,,,,,,,,114,0,114,0,,,,,,,,,,,,,,,,,,,,,,,,,,,,,,,,,,,,,,,,,,,,,,,,,,,,,2637.665671500028,None,,,,,,,,,,,,,,,,,,,,,,,,,,,,,,,,,,,engine,83,115,aloud,white,2635.6637553000473,None,None,2635.6637553000473,None,,,,,,,,,,,,,,,,,,,,,,,,,,,,,,83NE,001,2023_Aug_29_1023,ExactRep-v3-final,2021.2.3,59.72260046669361,
,,,,,,,,115,0,115,0,,,,,,,,,,,,,,,,,,,,,,,,,,,,,,,,,,,,,,,,,,,,,,,,,,,,,2640.1681828,None,,,,,,,,,,,,,,,,,,,,,,,,,,,,,,,,,,,bowl,34,116,sing,blue,2638.1663914000383,None,None,2638.1663914000383,None,,,,,,,,,,,,,,,,,,,,,,,,,,,,,,83NE,001,2023_Aug_29_1023,ExactRep-v3-final,2021.2.3,59.72260046669361,
,,,,,,,,116,0,116,0,,,,,,,,,,,,,,,,,,,,,,,,,,,,,,,,,,,,,,,,,,,,,,,,,,,,,2642.68737900001,None,,,,,,,,,,,,,,,,,,,,,,,,,,,,,,,,,,,hotel,97,117,aloud,white,2640.673837700044,None,None,2640.673837700044,None,,,,,,,,,,,,,,,,,,,,,,,,,,,,,,83NE,001,2023_Aug_29_1023,ExactRep-v3-final,2021.2.3,59.72260046669361,
,,,,,,,,117,0,117,0,,,,,,,,,,,,,,,,,,,,,,,,,,,,,,,,,,,,,,,,,,,,,,,,,,,,,2645.1898728000233,None,,,,,,,,,,,,,,,,,,,,,,,,,,,,,,,,,,,potato,16,118,sing,blue,2643.187730000005,None,None,2643.187730000005,None,,,,,,,,,,,,,,,,,,,,,,,,,,,,,,83NE,001,2023_Aug_29_1023,ExactRep-v3-final,2021.2.3,59.72260046669361,
,,,,,,,,118,0,118,0,,,,,,,,,,,,,,,,,,,,,,,,,,,,,,,,,,,,,,,,,,,,,,,,,,,,,2647.6923342000227,None,,,,,,,,,,,,,,,,,,,,,,,,,,,,,,,,,,,pole,25,119,sing,blue,2645.6907519000233,None,None,2645.6907519000233,None,,,,,,,,,,,,,,,,,,,,,,,,,,,,,,83NE,001,2023_Aug_29_1023,ExactRep-v3-final,2021.2.3,59.72260046669361,
,,,,,,,,119,0,119,0,,,,,,,,,,,,,,,,,,,,,,,,,,,,,,,,,,,,,,,,,,,,,,,,,,,,,2650.1954072000226,None,,,,,,,,,,,,,,,,,,,,,,,,,,,,,,,,,,,tree,87,120,aloud,white,2648.193071000045,None,None,2648.193071000045,None,,,,,,,,,,,,,,,,,,,,,,,,,,,,,,83NE,001,2023_Aug_29_1023,ExactRep-v3-final,2021.2.3,59.72260046669361,
,,,,,,,,,,,,,,,,,,,,,,,,,,,,,,,,,,,,,,,,,,,,,,,,,,,,,,,,,,,,,,,,,,,,,,,,,,,,,,,,,,,,,,,,,,,,,,,,,,,,,,,,,,,,,,2650.695886200003,None,space,9.387698200007435,2660.673119000043,None,,,,,,,,,,,,,,,,,,,,,,,,83NE,001,2023_Aug_29_1023,ExactRep-v3-final,2021.2.3,59.72260046669361,
,,,,,,,,,,,,,,,,,,,,,,,,,,,,,,,,,,,,,,,,,,,,,,,,,,,,,,,,,,,,,,,,,,,,,,,,,,,,,,,,,,,,,,,,,,,,,,,,,,,,,,,,,,,,,,,,,,,,2670.0819847999956,None,space,1.8506276999833062,2680.0584709999966,None,,,,,,,,,,,,,,,,,,83NE,001,2023_Aug_29_1023,ExactRep-v3-final,2021.2.3,59.72260046669361,
,,,,,,,,,,,,0,0,0,0,,,,,,,,,,,,,,,,,,,,,,,,,,,,,,,,,,,,,,,,,,,,,,,,,2691.020724700007,None,,,,,,,,,,,,,,,,,,,,,,,,,,,,,,,,,,,,,,,,,,,,,,,,,,,,,,,,,advice,15,1,sing,old,yellow,2682.439968299994,None,y,2682.439968299994,None,"['y', 'return']","[4.508625800022855, 8.532687099999748]",2682.439968299994,None,,,83NE,001,2023_Aug_29_1023,ExactRep-v3-final,2021.2.3,59.72260046669361,
,,,,,,,,,,,,1,0,1,0,,,,,,,,,,,,,,,,,,,,,,,,,,,,,,,,,,,,,,,,,,,,,,,,,2694.2907351000467,None,,,,,,,,,,,,,,,,,,,,,,,,,,,,,,,,,,,,,,,,,,,,,,,,,,,,,,,,,fire,154,2,silent,new,yellow,2691.551107800042,None,n,2691.551107800042,None,"['n', 'return']","[1.6697469999780878, 2.6934869999531657]",2691.551107800042,None,,,83NE,001,2023_Aug_29_1023,ExactRep-v3-final,2021.2.3,59.72260046669361,
,,,,,,,,,,,,2,0,2,0,,,,,,,,,,,,,,,,,,,,,,,,,,,,,,,,,,,,,,,,,,,,,,,,,2697.8760415000143,None,,,,,,,,,,,,,,,,,,,,,,,,,,,,,,,,,,,,,,,,,,,,,,,,,,,,,,,,,friend,30,3,sing,old,yellow,2694.821052400046,None,y,2694.821052400046,None,"['y', 'return']","[2.0555646999855526, 3.01556349999737]",2694.821052400046,None,,,83NE,001,2023_Aug_29_1023,ExactRep-v3-final,2021.2.3,59.72260046669361,
,,,,,,,,,,,,3,0,3,0,,,,,,,,,,,,,,,,,,,,,,,,,,,,,,,,,,,,,,,,,,,,,,,,,2701.1146399000427,None,,,,,,,,,,,,,,,,,,,,,,,,,,,,,,,,,,,,,,,,,,,,,,,,,,,,,,,,,vision,220,4,aloud,new,yellow,2698.3788946000277,None,n,2698.3788946000277,None,"['n', 'return']","[1.6577602000324987, 2.6897028000093997]",2698.3788946000277,None,,,83NE,001,2023_Aug_29_1023,ExactRep-v3-final,2021.2.3,59.72260046669361,
,,,,,,,,,,,,4,0,4,0,,,,,,,,,,,,,,,,,,,,,,,,,,,,,,,,,,,,,,,,,,,,,,,,,2705.134636200033,None,,,,,,,,,,,,,,,,,,,,,,,,,,,,,,,,,,,,,,,,,,,,,,,,,,,,,,,,,board,75,5,silent,old,yellow,2701.6316119999974,None,n,2701.6316119999974,None,"['n', 'return']","[2.540978199976962, 3.4610411999747157]",2701.6316119999974,None,,,83NE,001,2023_Aug_29_1023,ExactRep-v3-final,2021.2.3,59.72260046669361,
,,,,,,,,,,,,5,0,5,0,,,,,,,,,,,,,,,,,,,,,,,,,,,,,,,,,,,,,,,,,,,,,,,,,2709.105676600011,None,,,,,,,,,,,,,,,,,,,,,,,,,,,,,,,,,,,,,,,,,,,,,,,,,,,,,,,,,dress,130,6,silent,new,yellow,2705.652350999997,None,n,2705.652350999997,None,"['n', 'return']","[2.4083207999938168, 3.408274599991273]",2705.652350999997,None,,,83NE,001,2023_Aug_29_1023,ExactRep-v3-final,2021.2.3,59.72260046669361,
,,,,,,,,,,,,6,0,6,0,,,,,,,,,,,,,,,,,,,,,,,,,,,,,,,,,,,,,,,,,,,,,,,,,2712.8756630000426,None,,,,,,,,,,,,,,,,,,,,,,,,,,,,,,,,,,,,,,,,,,,,,,,,,,,,,,,,,plant,230,7,aloud,new,yellow,2709.6224471000023,None,n,2709.6224471000023,None,"['n', 'return']","[2.3902422999963164, 3.2142235999926925]",2709.6224471000023,None,,,83NE,001,2023_Aug_29_1023,ExactRep-v3-final,2021.2.3,59.72260046669361,
,,,,,,,,,,,,7,0,7,0,,,,,,,,,,,,,,,,,,,,,,,,,,,,,,,,,,,,,,,,,,,,,,,,,2715.328136700031,None,,,,,,,,,,,,,,,,,,,,,,,,,,,,,,,,,,,,,,,,,,,,,,,,,,,,,,,,,coffee,167,8,sing,new,yellow,2713.3774258000194,None,n,2713.3774258000194,None,"['n', 'return']","[1.3072397999931127, 1.907252500008326]",2713.3774258000194,None,,,83NE,001,2023_Aug_29_1023,ExactRep-v3-final,2021.2.3,59.72260046669361,
,,,,,,,,,,,,8,0,8,0,,,,,,,,,,,,,,,,,,,,,,,,,,,,,,,,,,,,,,,,,,,,,,,,,2719.4328867000295,None,,,,,,,,,,,,,,,,,,,,,,,,,,,,,,,,,,,,,,,,,,,,,,,,,,,,,,,,,mother,174,9,aloud,new,yellow,2715.82909210003,None,n,2715.82909210003,None,"['n', 'return']","[2.727584399981424, 3.559626500005834]",2715.82909210003,None,,,83NE,001,2023_Aug_29_1023,ExactRep-v3-final,2021.2.3,59.72260046669361,
,,,,,,,,,,,,9,0,9,0,,,,,,,,,,,,,,,,,,,,,,,,,,,,,,,,,,,,,,,,,,,,,,,,,2724.7377176000155,None,,,,,,,,,,,,,,,,,,,,,,,,,,,,,,,,,,,,,,,,,,,,,,,,,,,,,,,,,grass,186,10,aloud,new,yellow,2719.949948100024,None,y,2719.949948100024,None,"['y', 'return']","[3.2626794000389054, 4.750912200019229]",2719.949948100024,None,,,83NE,001,2023_Aug_29_1023,ExactRep-v3-final,2021.2.3,59.72260046669361,
,,,,,,,,,,,,10,0,10,0,,,,,,,,,,,,,,,,,,,,,,,,,,,,,,,,,,,,,,,,,,,,,,,,,2728.908676300023,None,,,,,,,,,,,,,,,,,,,,,,,,,,,,,,,,,,,,,,,,,,,,,,,,,,,,,,,,,mercy,10,11,sing,old,yellow,2725.26527730003,None,y,2725.26527730003,None,"['y', 'return']","[2.979425999976229, 3.5953630000003614]",2725.26527730003,None,,,83NE,001,2023_Aug_29_1023,ExactRep-v3-final,2021.2.3,59.72260046669361,
,,,,,,,,,,,,11,0,11,0,,,,,,,,,,,,,,,,,,,,,,,,,,,,,,,,,,,,,,,,,,,,,,,,,2731.677439399995,None,,,,,,,,,,,,,,,,,,,,,,,,,,,,,,,,,,,,,,,,,,,,,,,,,,,,,,,,,death,137,12,silent,new,yellow,2729.4348355000257,None,n,2729.4348355000257,None,"['n', 'return']","[1.4657729000318795, 2.1937711000209674]",2729.4348355000257,None,,,83NE,001,2023_Aug_29_1023,ExactRep-v3-final,2021.2.3,59.72260046669361,
,,,,,,,,,,,,12,0,12,0,,,,,,,,,,,,,,,,,,,,,,,,,,,,,,,,,,,,,,,,,,,,,,,,,2734.3804930000333,None,,,,,,,,,,,,,,,,,,,,,,,,,,,,,,,,,,,,,,,,,,,,,,,,,,,,,,,,,temple,36,13,sing,old,yellow,2732.1826222999953,None,n,2732.1826222999953,None,"['n', 'return']","[1.4380695999716409, 2.158067899988964]",2732.1826222999953,None,,,83NE,001,2023_Aug_29_1023,ExactRep-v3-final,2021.2.3,59.72260046669361,
,,,,,,,,,,,,13,0,13,0,,,,,,,,,,,,,,,,,,,,,,,,,,,,,,,,,,,,,,,,,,,,,,,,,2737.1167824000004,None,,,,,,,,,,,,,,,,,,,,,,,,,,,,,,,,,,,,,,,,,,,,,,,,,,,,,,,,,pole,25,14,sing,old,yellow,2734.881445200008,None,y,2734.881445200008,None,"['y', 'return']","[1.2831454999977723, 2.1872126000234857]",2734.881445200008,None,,,83NE,001,2023_Aug_29_1023,ExactRep-v3-final,2021.2.3,59.72260046669361,
,,,,,,,,,,,,14,0,14,0,,,,,,,,,,,,,,,,,,,,,,,,,,,,,,,,,,,,,,,,,,,,,,,,,2739.769837700005,None,,,,,,,,,,,,,,,,,,,,,,,,,,,,,,,,,,,,,,,,,,,,,,,,,,,,,,,,,heaven,160,15,aloud,new,yellow,2737.6344272000133,None,n,2737.6344272000133,None,"['n', 'return']","[1.3702331999666058, 2.0985024999827147]",2737.6344272000133,None,,,83NE,001,2023_Aug_29_1023,ExactRep-v3-final,2021.2.3,59.72260046669361,
,,,,,,,,,,,,15,0,15,0,,,,,,,,,,,,,,,,,,,,,,,,,,,,,,,,,,,,,,,,,,,,,,,,,2743.089177899994,None,,,,,,,,,,,,,,,,,,,,,,,,,,,,,,,,,,,,,,,,,,,,,,,,,,,,,,,,,ticket,52,16,silent,old,yellow,2740.2954096000176,None,n,2740.2954096000176,None,"['n', 'return']","[2.0931780000100844, 2.757470300013665]",2740.2954096000176,None,,,83NE,001,2023_Aug_29_1023,ExactRep-v3-final,2021.2.3,59.72260046669361,
,,,,,,,,,,,,16,0,16,0,,,,,,,,,,,,,,,,,,,,,,,,,,,,,,,,,,,,,,,,,,,,,,,,,2746.309893700003,None,,,,,,,,,,,,,,,,,,,,,,,,,,,,,,,,,,,,,,,,,,,,,,,,,,,,,,,,,green,203,17,sing,new,yellow,2743.590043000004,None,n,2743.590043000004,None,"['n', 'return']","[1.8706199000007473, 2.6786078000441194]",2743.590043000004,None,,,83NE,001,2023_Aug_29_1023,ExactRep-v3-final,2021.2.3,59.72260046669361,
,,,,,,,,,,,,17,0,17,0,,,,,,,,,,,,,,,,,,,,,,,,,,,,,,,,,,,,,,,,,,,,,,,,,2748.92868870002,None,,,,,,,,,,,,,,,,,,,,,,,,,,,,,,,,,,,,,,,,,,,,,,,,,,,,,,,,,boulder,49,18,silent,old,yellow,2746.8350623000297,None,n,2746.8350623000297,None,"['n', 'return']","[1.3455588999786414, 2.057762400014326]",2746.8350623000297,None,,,83NE,001,2023_Aug_29_1023,ExactRep-v3-final,2021.2.3,59.72260046669361,
,,,,,,,,,,,,18,0,18,0,,,,,,,,,,,,,,,,,,,,,,,,,,,,,,,,,,,,,,,,,,,,,,,,,2752.380746400042,None,,,,,,,,,,,,,,,,,,,,,,,,,,,,,,,,,,,,,,,,,,,,,,,,,,,,,,,,,vessel,235,19,sing,new,yellow,2749.4462092000176,None,n,2749.4462092000176,None,"['n', 'return']","[1.7344086000230163, 2.902421900012996]",2749.4462092000176,None,,,83NE,001,2023_Aug_29_1023,ExactRep-v3-final,2021.2.3,59.72260046669361,
,,,,,,,,,,,,19,0,19,0,,,,,,,,,,,,,,,,,,,,,,,,,,,,,,,,,,,,,,,,,,,,,,,,,2757.720657000027,None,,,,,,,,,,,,,,,,,,,,,,,,,,,,,,,,,,,,,,,,,,,,,,,,,,,,,,,,,anger,13,20,sing,old,yellow,2752.8961195000447,None,n,2752.8961195000447,None,"['n', 'return']","[4.188724800013006, 4.788681000005454]",2752.8961195000447,None,,,83NE,001,2023_Aug_29_1023,ExactRep-v3-final,2021.2.3,59.72260046669361,
,,,,,,,,,,,,20,0,20,0,,,,,,,,,,,,,,,,,,,,,,,,,,,,,,,,,,,,,,,,,,,,,,,,,2760.5563407000154,None,,,,,,,,,,,,,,,,,,,,,,,,,,,,,,,,,,,,,,,,,,,,,,,,,,,,,,,,,fortune,108,21,aloud,old,yellow,2758.238387899997,None,n,2758.238387899997,None,"['n', 'return']","[1.6222345000132918, 2.278279299964197]",2758.238387899997,None,,,83NE,001,2023_Aug_29_1023,ExactRep-v3-final,2021.2.3,59.72260046669361,
,,,,,,,,,,,,21,0,21,0,,,,,,,,,,,,,,,,,,,,,,,,,,,,,,,,,,,,,,,,,,,,,,,,,2765.6108494999935,None,,,,,,,,,,,,,,,,,,,,,,,,,,,,,,,,,,,,,,,,,,,,,,,,,,,,,,,,,steam,157,22,silent,new,yellow,2761.069355600048,None,n,2761.069355600048,None,"['n', 'return']","[2.319290000014007, 4.495272799977101]",2761.069355600048,None,,,83NE,001,2023_Aug_29_1023,ExactRep-v3-final,2021.2.3,59.72260046669361,
,,,,,,,,,,,,22,0,22,0,,,,,,,,,,,,,,,,,,,,,,,,,,,,,,,,,,,,,,,,,,,,,,,,,2769.048653500038,None,,,,,,,,,,,,,,,,,,,,,,,,,,,,,,,,,,,,,,,,,,,,,,,,,,,,,,,,,kiss,78,23,silent,old,yellow,2766.1127557000145,None,n,2766.1127557000145,None,"['n', 'return']","[1.9558423000271432, 2.900036300008651]",2766.1127557000145,None,,,83NE,001,2023_Aug_29_1023,ExactRep-v3-final,2021.2.3,59.72260046669361,
,,,,,,,,,,,,23,0,23,0,,,,,,,,,,,,,,,,,,,,,,,,,,,,,,,,,,,,,,,,,,,,,,,,,2771.883610000019,None,,,,,,,,,,,,,,,,,,,,,,,,,,,,,,,,,,,,,,,,,,,,,,,,,,,,,,,,,sea,236,24,aloud,new,yellow,2769.574776900001,None,n,2769.574776900001,None,"['n', 'return']","[1.5740454999613576, 2.2699066999484785]",2769.574776900001,None,,,83NE,001,2023_Aug_29_1023,ExactRep-v3-final,2021.2.3,59.72260046669361,
,,,,,,,,,,,,24,0,24,0,,,,,,,,,,,,,,,,,,,,,,,,,,,,,,,,,,,,,,,,,,,,,,,,,2774.9210961000063,None,,,,,,,,,,,,,,,,,,,,,,,,,,,,,,,,,,,,,,,,,,,,,,,,,,,,,,,,,horse,38,25,sing,old,yellow,2772.3859579000273,None,y,2772.3859579000273,None,"['y', 'return']","[1.8666091000195593, 2.4986711000092328]",2772.3859579000273,None,,,83NE,001,2023_Aug_29_1023,ExactRep-v3-final,2021.2.3,59.72260046669361,
,,,,,,,,,,,,25,0,25,0,,,,,,,,,,,,,,,,,,,,,,,,,,,,,,,,,,,,,,,,,,,,,,,,,2777.657110900036,None,,,,,,,,,,,,,,,,,,,,,,,,,,,,,,,,,,,,,,,,,,,,,,,,,,,,,,,,,string,96,26,aloud,old,yellow,2775.4390853000223,None,n,2775.4390853000223,None,"['n', 'return']","[1.3735600000363775, 2.181621099996846]",2775.4390853000223,None,,,83NE,001,2023_Aug_29_1023,ExactRep-v3-final,2021.2.3,59.72260046669361,
,,,,,,,,,,,,26,0,26,0,,,,,,,,,,,,,,,,,,,,,,,,,,,,,,,,,,,,,,,,,,,,,,,,,2780.509991500003,None,,,,,,,,,,,,,,,,,,,,,,,,,,,,,,,,,,,,,,,,,,,,,,,,,,,,,,,,,wife,56,27,silent,old,yellow,2778.1590206000255,None,y,2778.1590206000255,None,"['y', 'return']","[1.565559700015001, 2.301567899994552]",2778.1590206000255,None,,,83NE,001,2023_Aug_29_1023,ExactRep-v3-final,2021.2.3,59.72260046669361,
,,,,,,,,,,,,27,0,27,0,,,,,,,,,,,,,,,,,,,,,,,,,,,,,,,,,,,,,,,,,,,,,,,,,2785.814359300013,None,,,,,,,,,,,,,,,,,,,,,,,,,,,,,,,,,,,,,,,,,,,,,,,,,,,,,,,,,rock,69,28,silent,old,yellow,2781.039486100024,None,n,2781.039486100024,None,"['n', 'return']","[4.10110629996052, 4.733118199976161]",2781.039486100024,None,,,83NE,001,2023_Aug_29_1023,ExactRep-v3-final,2021.2.3,59.72260046669361,
,,,,,,,,,,,,28,0,28,0,,,,,,,,,,,,,,,,,,,,,,,,,,,,,,,,,,,,,,,,,,,,,,,,,2788.333387200022,None,,,,,,,,,,,,,,,,,,,,,,,,,,,,,,,,,,,,,,,,,,,,,,,,,,,,,,,,,girl,88,29,aloud,old,yellow,2786.3156287000165,None,y,2786.3156287000165,None,"['y', 'return']","[1.2889430000213906, 1.969172700017225]",2786.3156287000165,None,,,83NE,001,2023_Aug_29_1023,ExactRep-v3-final,2021.2.3,59.72260046669361,
,,,,,,,,,,,,29,0,29,0,,,,,,,,,,,,,,,,,,,,,,,,,,,,,,,,,,,,,,,,,,,,,,,,,2790.8358246000134,None,,,,,,,,,,,,,,,,,,,,,,,,,,,,,,,,,,,,,,,,,,,,,,,,,,,,,,,,,shadow,212,30,aloud,new,yellow,2788.8354134000256,None,n,2788.8354134000256,None,"['n', 'return']","[1.3051564000197686, 1.9611902000033297]",2788.8354134000256,None,,,83NE,001,2023_Aug_29_1023,ExactRep-v3-final,2021.2.3,59.72260046669361,
,,,,,,,,,,,,30,0,30,0,,,,,,,,,,,,,,,,,,,,,,,,,,,,,,,,,,,,,,,,,,,,,,,,,2796.2745980000473,None,,,,,,,,,,,,,,,,,,,,,,,,,,,,,,,,,,,,,,,,,,,,,,,,,,,,,,,,,spirit,114,31,aloud,old,yellow,2791.342769400042,None,y,2791.342769400042,None,"['y', 'return']","[3.9099034999962896, 4.885857200017199]",2791.342769400042,None,,,83NE,001,2023_Aug_29_1023,ExactRep-v3-final,2021.2.3,59.72260046669361,
,,,,,,,,,,,,31,0,31,0,,,,,,,,,,,,,,,,,,,,,,,,,,,,,,,,,,,,,,,,,,,,,,,,,2799.145151100005,None,,,,,,,,,,,,,,,,,,,,,,,,,,,,,,,,,,,,,,,,,,,,,,,,,,,,,,,,,winter,237,32,sing,new,yellow,2796.776942800032,None,n,2796.776942800032,None,"['n', 'return']","[1.6516285000252537, 2.3236745999893174]",2796.776942800032,None,,,83NE,001,2023_Aug_29_1023,ExactRep-v3-final,2021.2.3,59.72260046669361,
,,,,,,,,,,,,32,0,32,0,,,,,,,,,,,,,,,,,,,,,,,,,,,,,,,,,,,,,,,,,,,,,,,,,2802.3815536000184,None,,,,,,,,,,,,,,,,,,,,,,,,,,,,,,,,,,,,,,,,,,,,,,,,,,,,,,,,,thought,175,33,sing,new,yellow,2799.6459611000028,None,n,2799.6459611000028,None,"['n', 'return']","[1.9586628999677487, 2.6866795999812894]",2799.6459611000028,None,,,83NE,001,2023_Aug_29_1023,ExactRep-v3-final,2021.2.3,59.72260046669361,
,,,,,,,,,,,,33,0,33,0,,,,,,,,,,,,,,,,,,,,,,,,,,,,,,,,,,,,,,,,,,,,,,,,,2805.401588400011,None,,,,,,,,,,,,,,,,,,,,,,,,,,,,,,,,,,,,,,,,,,,,,,,,,,,,,,,,,beast,233,34,sing,new,yellow,2802.887269800005,None,n,2802.887269800005,None,"['n', 'return']","[1.8053473999607377, 2.4775494000059552]",2802.887269800005,None,,,83NE,001,2023_Aug_29_1023,ExactRep-v3-final,2021.2.3,59.72260046669361,
,,,,,,,,,,,,34,0,34,0,,,,,,,,,,,,,,,,,,,,,,,,,,,,,,,,,,,,,,,,,,,,,,,,,2809.205651300028,None,,,,,,,,,,,,,,,,,,,,,,,,,,,,,,,,,,,,,,,,,,,,,,,,,,,,,,,,,artist,133,35,silent,new,yellow,2805.9230002000113,None,n,2805.9230002000113,None,"['n', 'return']","[2.665731299959589, 3.233722399978433]",2805.9230002000113,None,,,83NE,001,2023_Aug_29_1023,ExactRep-v3-final,2021.2.3,59.72260046669361,
,,,,,,,,,,,,35,0,35,0,,,,,,,,,,,,,,,,,,,,,,,,,,,,,,,,,,,,,,,,,,,,,,,,,2812.942693500023,None,,,,,,,,,,,,,,,,,,,,,,,,,,,,,,,,,,,,,,,,,,,,,,,,,,,,,,,,,forest,101,36,aloud,old,yellow,2809.7231507000397,None,y,2809.7231507000397,None,"['y', 'return']","[2.3856024999986403, 3.177479800011497]",2809.7231507000397,None,,,83NE,001,2023_Aug_29_1023,ExactRep-v3-final,2021.2.3,59.72260046669361,
,,,,,,,,,,,,36,0,36,0,,,,,,,,,,,,,,,,,,,,,,,,,,,,,,,,,,,,,,,,,,,,,,,,,2815.743961,None,,,,,,,,,,,,,,,,,,,,,,,,,,,,,,,,,,,,,,,,,,,,,,,,,,,,,,,,,corner,61,37,silent,old,yellow,2813.459631900012,None,n,2813.459631900012,None,"['n', 'return']","[1.5929826000356115, 2.240947100042831]",2813.459631900012,None,,,83NE,001,2023_Aug_29_1023,ExactRep-v3-final,2021.2.3,59.72260046669361,
,,,,,,,,,,,,37,0,37,0,,,,,,,,,,,,,,,,,,,,,,,,,,,,,,,,,,,,,,,,,,,,,,,,,2819.1972373000463,None,,,,,,,,,,,,,,,,,,,,,,,,,,,,,,,,,,,,,,,,,,,,,,,,,,,,,,,,,insect,193,38,sing,new,yellow,2816.2529662000015,None,n,2816.2529662000015,None,"['n', 'return']","[2.3276424999930896, 2.903628000000026]",2816.2529662000015,None,,,83NE,001,2023_Aug_29_1023,ExactRep-v3-final,2021.2.3,59.72260046669361,
,,,,,,,,,,,,38,0,38,0,,,,,,,,,,,,,,,,,,,,,,,,,,,,,,,,,,,,,,,,,,,,,,,,,2824.8044650999946,None,,,,,,,,,,,,,,,,,,,,,,,,,,,,,,,,,,,,,,,,,,,,,,,,,,,,,,,,,market,106,39,aloud,old,yellow,2819.6994252000004,None,y,2819.6994252000004,None,"['y', 'return']","[4.505164099973626, 5.065182099991944]",2819.6994252000004,None,,,83NE,001,2023_Aug_29_1023,ExactRep-v3-final,2021.2.3,59.72260046669361,
,,,,,,,,,,,,39,0,39,0,,,,,,,,,,,,,,,,,,,,,,,,,,,,,,,,,,,,,,,,,,,,,,,,,2827.0732804000145,None,,,,,,,,,,,,,,,,,,,,,,,,,,,,,,,,,,,,,,,,,,,,,,,,,,,,,,,,,fur,58,40,silent,old,yellow,2825.321862300043,None,n,2825.321862300043,None,"['n', 'return']","[1.1149522999767214, 1.7067565000033937]",2825.321862300043,None,,,83NE,001,2023_Aug_29_1023,ExactRep-v3-final,2021.2.3,59.72260046669361,
,,,,,,,,,,,,40,0,40,0,,,,,,,,,,,,,,,,,,,,,,,,,,,,,,,,,,,,,,,,,,,,,,,,,2830.725845400011,None,,,,,,,,,,,,,,,,,,,,,,,,,,,,,,,,,,,,,,,,,,,,,,,,,,,,,,,,,teacher,54,41,silent,old,yellow,2827.590670400008,None,n,2827.590670400008,None,"['n', 'return']","[2.3340376999694854, 3.101939699961804]",2827.590670400008,None,,,83NE,001,2023_Aug_29_1023,ExactRep-v3-final,2021.2.3,59.72260046669361,
,,,,,,,,,,,,41,0,41,0,,,,,,,,,,,,,,,,,,,,,,,,,,,,,,,,,,,,,,,,,,,,,,,,,2833.429886400001,None,,,,,,,,,,,,,,,,,,,,,,,,,,,,,,,,,,,,,,,,,,,,,,,,,,,,,,,,,life,139,42,silent,new,yellow,2831.2364349000272,None,n,2831.2364349000272,None,"['n', 'return']","[1.608178200025577, 2.144203900010325]",2831.2364349000272,None,,,83NE,001,2023_Aug_29_1023,ExactRep-v3-final,2021.2.3,59.72260046669361,
,,,,,,,,,,,,42,0,42,0,,,,,,,,,,,,,,,,,,,,,,,,,,,,,,,,,,,,,,,,,,,,,,,,,2836.114456500043,None,,,,,,,,,,,,,,,,,,,,,,,,,,,,,,,,,,,,,,,,,,,,,,,,,,,,,,,,,product,182,43,aloud,new,yellow,2833.961693899997,None,n,2833.961693899997,None,"['n', 'return']","[1.5708889999659732, 2.1068874999764375]",2833.961693899997,None,,,83NE,001,2023_Aug_29_1023,ExactRep-v3-final,2021.2.3,59.72260046669361,
,,,,,,,,,,,,43,0,43,0,,,,,,,,,,,,,,,,,,,,,,,,,,,,,,,,,,,,,,,,,,,,,,,,,2839.502393200004,None,,,,,,,,,,,,,,,,,,,,,,,,,,,,,,,,,,,,,,,,,,,,,,,,,,,,,,,,,blossom,3,44,sing,old,yellow,2836.616580700036,None,n,2836.616580700036,None,"['n', 'return']","[1.4360106000094675, 2.851997999998275]",2836.616580700036,None,,,83NE,001,2023_Aug_29_1023,ExactRep-v3-final,2021.2.3,59.72260046669361,
,,,,,,,,,,,,44,0,44,0,,,,,,,,,,,,,,,,,,,,,,,,,,,,,,,,,,,,,,,,,,,,,,,,,2842.0715666000033,None,,,,,,,,,,,,,,,,,,,,,,,,,,,,,,,,,,,,,,,,,,,,,,,,,,,,,,,,,lad,53,45,silent,old,yellow,2840.0032593000215,None,n,2840.0032593000215,None,"['n', 'return']","[1.4975019000121392, 2.025454999995418]",2840.0032593000215,None,,,83NE,001,2023_Aug_29_1023,ExactRep-v3-final,2021.2.3,59.72260046669361,
,,,,,,,,,,,,45,0,45,0,,,,,,,,,,,,,,,,,,,,,,,,,,,,,,,,,,,,,,,,,,,,,,,,,2846.2586400000146,None,,,,,,,,,,,,,,,,,,,,,,,,,,,,,,,,,,,,,,,,,,,,,,,,,,,,,,,,,world,112,46,aloud,old,yellow,2842.5801798000466,None,n,2842.5801798000466,None,"['n', 'return']","[3.0324116999981925, 3.632451699988451]",2842.5801798000466,None,,,83NE,001,2023_Aug_29_1023,ExactRep-v3-final,2021.2.3,59.72260046669361,
,,,,,,,,,,,,46,0,46,0,,,,,,,,,,,,,,,,,,,,,,,,,,,,,,,,,,,,,,,,,,,,,,,,,2849.795583400002,None,,,,,,,,,,,,,,,,,,,,,,,,,,,,,,,,,,,,,,,,,,,,,,,,,,,,,,,,,soil,66,47,silent,old,yellow,2846.7594998000422,None,n,2846.7594998000422,None,"['n', 'return']","[2.3092188999871723, 2.997111600008793]",2846.7594998000422,None,,,83NE,001,2023_Aug_29_1023,ExactRep-v3-final,2021.2.3,59.72260046669361,
,,,,,,,,,,,,47,0,47,0,,,,,,,,,,,,,,,,,,,,,,,,,,,,,,,,,,,,,,,,,,,,,,,,,2852.4154251000145,None,,,,,,,,,,,,,,,,,,,,,,,,,,,,,,,,,,,,,,,,,,,,,,,,,,,,,,,,,doctor,166,48,aloud,new,yellow,2850.310035200033,None,n,2850.310035200033,None,"['n', 'return']","[1.4465840000193566, 2.070607799978461]",2850.310035200033,None,,,83NE,001,2023_Aug_29_1023,ExactRep-v3-final,2021.2.3,59.72260046669361,
,,,,,,,,,,,,48,0,48,0,,,,,,,,,,,,,,,,,,,,,,,,,,,,,,,,,,,,,,,,,,,,,,,,,2855.2179336000117,None,,,,,,,,,,,,,,,,,,,,,,,,,,,,,,,,,,,,,,,,,,,,,,,,,,,,,,,,,doll,207,49,sing,new,yellow,2852.943271600001,None,n,2852.943271600001,None,"['n', 'return']","[1.3813710999675095, 2.2377419999684207]",2852.943271600001,None,,,83NE,001,2023_Aug_29_1023,ExactRep-v3-final,2021.2.3,59.72260046669361,
,,,,,,,,,,,,49,0,49,0,,,,,,,,,,,,,,,,,,,,,,,,,,,,,,,,,,,,,,,,,,,,,,,,,2859.922689000028,None,,,,,,,,,,,,,,,,,,,,,,,,,,,,,,,,,,,,,,,,,,,,,,,,,,,,,,,,,method,27,50,sing,old,yellow,2855.7341659000376,None,y,2855.7341659000376,None,"['y', 'return']","[3.3185909999883734, 4.142419699986931]",2855.7341659000376,None,,,83NE,001,2023_Aug_29_1023,ExactRep-v3-final,2021.2.3,59.72260046669361,
,,,,,,,,,,,,50,0,50,0,,,,,,,,,,,,,,,,,,,,,,,,,,,,,,,,,,,,,,,,,,,,,,,,,2862.541637999995,None,,,,,,,,,,,,,,,,,,,,,,,,,,,,,,,,,,,,,,,,,,,,,,,,,,,,,,,,,priest,92,51,aloud,old,yellow,2860.4234494999982,None,y,2860.4234494999982,None,"['y', 'return']","[1.5572858999948949, 2.085170099977404]",2860.4234494999982,None,,,83NE,001,2023_Aug_29_1023,ExactRep-v3-final,2021.2.3,59.72260046669361,
,,,,,,,,,,,,51,0,51,0,,,,,,,,,,,,,,,,,,,,,,,,,,,,,,,,,,,,,,,,,,,,,,,,,2869.5321427000454,None,,,,,,,,,,,,,,,,,,,,,,,,,,,,,,,,,,,,,,,,,,,,,,,,,,,,,,,,,village,2,52,sing,old,yellow,2863.043720000016,None,y,2863.043720000016,None,"['n', 'backspace', 'y', 'return']","[2.1928553000325337, 4.552867899998091, 5.632818200043403, 6.448875700007193]",2863.043720000016,None,,,83NE,001,2023_Aug_29_1023,ExactRep-v3-final,2021.2.3,59.72260046669361,
,,,,,,,,,,,,52,0,52,0,,,,,,,,,,,,,,,,,,,,,,,,,,,,,,,,,,,,,,,,,,,,,,,,,2873.4025672000134,None,,,,,,,,,,,,,,,,,,,,,,,,,,,,,,,,,,,,,,,,,,,,,,,,,,,,,,,,,passion,185,53,sing,new,yellow,2870.032978400006,None,n,2870.032978400006,None,"['n', 'return']","[2.659558699990157, 3.3235630999552086]",2870.032978400006,None,,,83NE,001,2023_Aug_29_1023,ExactRep-v3-final,2021.2.3,59.72260046669361,
,,,,,,,,,,,,53,0,53,0,,,,,,,,,,,,,,,,,,,,,,,,,,,,,,,,,,,,,,,,,,,,,,,,,2875.8870626999997,None,,,,,,,,,,,,,,,,,,,,,,,,,,,,,,,,,,,,,,,,,,,,,,,,,,,,,,,,,excuse,144,54,silent,new,yellow,2873.9172802999965,None,n,2873.9172802999965,None,"['n', 'return']","[1.279336100036744, 1.9354698000242934]",2873.9172802999965,None,,,83NE,001,2023_Aug_29_1023,ExactRep-v3-final,2021.2.3,59.72260046669361,
,,,,,,,,,,,,54,0,54,0,,,,,,,,,,,,,,,,,,,,,,,,,,,,,,,,,,,,,,,,,,,,,,,,,2879.607273200003,None,,,,,,,,,,,,,,,,,,,,,,,,,,,,,,,,,,,,,,,,,,,,,,,,,,,,,,,,,air,11,55,sing,old,yellow,2876.3938506999984,None,n,2876.3938506999984,None,"['n', 'return']","[2.522718199994415, 3.1787976000341587]",2876.3938506999984,None,,,83NE,001,2023_Aug_29_1023,ExactRep-v3-final,2021.2.3,59.72260046669361,
,,,,,,,,,,,,55,0,55,0,,,,,,,,,,,,,,,,,,,,,,,,,,,,,,,,,,,,,,,,,,,,,,,,,2883.4460567000206,None,,,,,,,,,,,,,,,,,,,,,,,,,,,,,,,,,,,,,,,,,,,,,,,,,,,,,,,,,animal,176,56,aloud,new,yellow,2880.1110772000393,None,n,2880.1110772000393,None,"['n', 'return']","[2.333648199972231, 3.301510200020857]",2880.1110772000393,None,,,83NE,001,2023_Aug_29_1023,ExactRep-v3-final,2021.2.3,59.72260046669361,
,,,,,,,,,,,,56,0,56,0,,,,,,,,,,,,,,,,,,,,,,,,,,,,,,,,,,,,,,,,,,,,,,,,,2886.4648786000325,None,,,,,,,,,,,,,,,,,,,,,,,,,,,,,,,,,,,,,,,,,,,,,,,,,,,,,,,,,event,28,57,sing,old,yellow,2883.9478833000176,None,n,2883.9478833000176,None,"['n', 'return']","[1.7926846000482328, 2.4808708000346087]",2883.9478833000176,None,,,83NE,001,2023_Aug_29_1023,ExactRep-v3-final,2021.2.3,59.72260046669361,
,,,,,,,,,,,,57,0,57,0,,,,,,,,,,,,,,,,,,,,,,,,,,,,,,,,,,,,,,,,,,,,,,,,,2890.302962900023,None,,,,,,,,,,,,,,,,,,,,,,,,,,,,,,,,,,,,,,,,,,,,,,,,,,,,,,,,,author,123,58,silent,new,yellow,2886.9676217000233,None,n,2886.9676217000233,None,"['n', 'return']","[2.6289520999998786, 3.2929785000160336]",2886.9676217000233,None,,,83NE,001,2023_Aug_29_1023,ExactRep-v3-final,2021.2.3,59.72260046669361,
,,,,,,,,,,,,58,0,58,0,,,,,,,,,,,,,,,,,,,,,,,,,,,,,,,,,,,,,,,,,,,,,,,,,2893.9399704000098,None,,,,,,,,,,,,,,,,,,,,,,,,,,,,,,,,,,,,,,,,,,,,,,,,,,,,,,,,,letter,94,59,aloud,old,yellow,2890.8204186999938,None,y,2890.8204186999938,None,"['y', 'return']","[2.2721891999826767, 3.0721758999861777]",2890.8204186999938,None,,,83NE,001,2023_Aug_29_1023,ExactRep-v3-final,2021.2.3,59.72260046669361,
,,,,,,,,,,,,59,0,59,0,,,,,,,,,,,,,,,,,,,,,,,,,,,,,,,,,,,,,,,,,,,,,,,,,2897.6270159000414,None,,,,,,,,,,,,,,,,,,,,,,,,,,,,,,,,,,,,,,,,,,,,,,,,,,,,,,,,,wheat,71,60,silent,old,yellow,2894.465152300021,None,n,2894.465152300021,None,"['n', 'return']","[1.771448399988003, 3.115375399996992]",2894.465152300021,None,,,83NE,001,2023_Aug_29_1023,ExactRep-v3-final,2021.2.3,59.72260046669361,
,,,,,,,,,,,,60,0,60,0,,,,,,,,,,,,,,,,,,,,,,,,,,,,,,,,,,,,,,,,,,,,,,,,,2900.6467135000275,None,,,,,,,,,,,,,,,,,,,,,,,,,,,,,,,,,,,,,,,,,,,,,,,,,,,,,,,,,sky,192,61,aloud,new,yellow,2898.1430119000142,None,n,2898.1430119000142,None,"['n', 'return']","[1.8855936000472866, 2.4615933000459336]",2898.1430119000142,None,,,83NE,001,2023_Aug_29_1023,ExactRep-v3-final,2021.2.3,59.72260046669361,
,,,,,,,,,,,,61,0,61,0,,,,,,,,,,,,,,,,,,,,,,,,,,,,,,,,,,,,,,,,,,,,,,,,,2904.3505249000154,None,,,,,,,,,,,,,,,,,,,,,,,,,,,,,,,,,,,,,,,,,,,,,,,,,,,,,,,,,book,116,62,aloud,old,yellow,2901.163809599995,None,y,2901.163809599995,None,"['y', 'return']","[2.4490292000118643, 3.1527626999886706]",2901.163809599995,None,,,83NE,001,2023_Aug_29_1023,ExactRep-v3-final,2021.2.3,59.72260046669361,
,,,,,,,,,,,,62,0,62,0,,,,,,,,,,,,,,,,,,,,,,,,,,,,,,,,,,,,,,,,,,,,,,,,,2906.6682719000382,None,,,,,,,,,,,,,,,,,,,,,,,,,,,,,,,,,,,,,,,,,,,,,,,,,,,,,,,,,queen,90,63,aloud,old,yellow,2904.882949599996,None,n,2904.882949599996,None,"['n', 'return']","[1.1696466999710537, 1.7377062999876216]",2904.882949599996,None,,,83NE,001,2023_Aug_29_1023,ExactRep-v3-final,2021.2.3,59.72260046669361,
,,,,,,,,,,,,63,0,63,0,,,,,,,,,,,,,,,,,,,,,,,,,,,,,,,,,,,,,,,,,,,,,,,,,2912.025032100035,None,,,,,,,,,,,,,,,,,,,,,,,,,,,,,,,,,,,,,,,,,,,,,,,,,,,,,,,,,apple,190,64,aloud,new,yellow,2907.1700482000015,None,n,2907.1700482000015,None,"['n', 'return']","[1.6426066999556497, 4.818598499987274]",2907.1700482000015,None,,,83NE,001,2023_Aug_29_1023,ExactRep-v3-final,2021.2.3,59.72260046669361,
,,,,,,,,,,,,64,0,64,0,,,,,,,,,,,,,,,,,,,,,,,,,,,,,,,,,,,,,,,,,,,,,,,,,2918.814541800006,None,,,,,,,,,,,,,,,,,,,,,,,,,,,,,,,,,,,,,,,,,,,,,,,,,,,,,,,,,custom,148,65,silent,new,yellow,2912.542344000016,None,n,2912.542344000016,None,"['n', 'return']","[4.054165100038517, 6.230315200053155]",2912.542344000016,None,,,83NE,001,2023_Aug_29_1023,ExactRep-v3-final,2021.2.3,59.72260046669361,
,,,,,,,,,,,,65,0,65,0,,,,,,,,,,,,,,,,,,,,,,,,,,,,,,,,,,,,,,,,,,,,,,,,,2921.417554200045,None,,,,,,,,,,,,,,,,,,,,,,,,,,,,,,,,,,,,,,,,,,,,,,,,,,,,,,,,,lip,79,66,sing,old,yellow,2919.315418900049,None,n,2919.315418900049,None,"['n', 'return']","[1.4332941999891773, 2.0654282000032254]",2919.315418900049,None,,,83NE,001,2023_Aug_29_1023,ExactRep-v3-final,2021.2.3,59.72260046669361,
,,,,,,,,,,,,66,0,66,0,,,,,,,,,,,,,,,,,,,,,,,,,,,,,,,,,,,,,,,,,,,,,,,,,2928.1739966000314,None,,,,,,,,,,,,,,,,,,,,,,,,,,,,,,,,,,,,,,,,,,,,,,,,,,,,,,,,,rod,172,67,aloud,new,yellow,2921.9183963999967,None,n,2921.9183963999967,None,"['n', 'return']","[2.3023092000512406, 6.222175300004892]",2921.9183963999967,None,,,83NE,001,2023_Aug_29_1023,ExactRep-v3-final,2021.2.3,59.72260046669361,
,,,,,,,,,,,,67,0,67,0,,,,,,,,,,,,,,,,,,,,,,,,,,,,,,,,,,,,,,,,,,,,,,,,,2931.227141600044,None,,,,,,,,,,,,,,,,,,,,,,,,,,,,,,,,,,,,,,,,,,,,,,,,,,,,,,,,,power,32,68,sing,old,yellow,2928.6746641999925,None,y,2928.6746641999925,None,"['y', 'return']","[1.9618985999841243, 2.5059109999565408]",2928.6746641999925,None,,,83NE,001,2023_Aug_29_1023,ExactRep-v3-final,2021.2.3,59.72260046669361,
,,,,,,,,,,,,68,0,68,0,,,,,,,,,,,,,,,,,,,,,,,,,,,,,,,,,,,,,,,,,,,,,,,,,2934.380634400004,None,,,,,,,,,,,,,,,,,,,,,,,,,,,,,,,,,,,,,,,,,,,,,,,,,,,,,,,,,safety,168,69,aloud,new,yellow,2931.727926200023,None,n,2931.727926200023,None,"['n', 'return']","[2.0686656000325456, 2.6047439000103623]",2931.727926200023,None,,,83NE,001,2023_Aug_29_1023,ExactRep-v3-final,2021.2.3,59.72260046669361,
,,,,,,,,,,,,69,0,69,0,,,,,,,,,,,,,,,,,,,,,,,,,,,,,,,,,,,,,,,,,,,,,,,,,2940.002648200025,None,,,,,,,,,,,,,,,,,,,,,,,,,,,,,,,,,,,,,,,,,,,,,,,,,,,,,,,,,flag,23,70,sing,old,yellow,2934.911947900022,None,y,2934.911947900022,None,"['y', 'return']","[1.7009050999768078, 5.0525242000003345]",2934.911947900022,None,,,83NE,001,2023_Aug_29_1023,ExactRep-v3-final,2021.2.3,59.72260046669361,
,,,,,,,,,,,,70,0,70,0,,,,,,,,,,,,,,,,,,,,,,,,,,,,,,,,,,,,,,,,,,,,,,,,,2944.0899883999955,None,,,,,,,,,,,,,,,,,,,,,,,,,,,,,,,,,,,,,,,,,,,,,,,,,,,,,,,,,slave,64,71,silent,old,yellow,2940.520305300015,None,y,2940.520305300015,None,"['y', 'return']","[2.8682747000129893, 3.5326753000263125]",2940.520305300015,None,,,83NE,001,2023_Aug_29_1023,ExactRep-v3-final,2021.2.3,59.72260046669361,
,,,,,,,,,,,,71,0,71,0,,,,,,,,,,,,,,,,,,,,,,,,,,,,,,,,,,,,,,,,,,,,,,,,,2946.7248099000426,None,,,,,,,,,,,,,,,,,,,,,,,,,,,,,,,,,,,,,,,,,,,,,,,,,,,,,,,,,love,209,72,sing,new,yellow,2944.6082669000025,None,y,2944.6082669000025,None,"['y', 'return']","[1.2761983000091277, 2.0763269999879412]",2944.6082669000025,None,,,83NE,001,2023_Aug_29_1023,ExactRep-v3-final,2021.2.3,59.72260046669361,
,,,,,,,,,,,,72,0,72,0,,,,,,,,,,,,,,,,,,,,,,,,,,,,,,,,,,,,,,,,,,,,,,,,,2949.295413600048,None,,,,,,,,,,,,,,,,,,,,,,,,,,,,,,,,,,,,,,,,,,,,,,,,,,,,,,,,,honour,39,73,silent,old,yellow,2947.240147000004,None,n,2947.240147000004,None,"['n', 'return']","[1.3083448999677785, 2.0124670999939553]",2947.240147000004,None,,,83NE,001,2023_Aug_29_1023,ExactRep-v3-final,2021.2.3,59.72260046669361,
,,,,,,,,,,,,73,0,73,0,,,,,,,,,,,,,,,,,,,,,,,,,,,,,,,,,,,,,,,,,,,,,,,,,2951.946716300037,None,,,,,,,,,,,,,,,,,,,,,,,,,,,,,,,,,,,,,,,,,,,,,,,,,,,,,,,,,officer,180,74,aloud,new,yellow,2949.8280241000466,None,n,2949.8280241000466,None,"['n', 'return']","[1.384533400007058, 2.080573600018397]",2949.8280241000466,None,,,83NE,001,2023_Aug_29_1023,ExactRep-v3-final,2021.2.3,59.72260046669361,
,,,,,,,,,,,,74,0,74,0,,,,,,,,,,,,,,,,,,,,,,,,,,,,,,,,,,,,,,,,,,,,,,,,,2957.5537033000146,None,,,,,,,,,,,,,,,,,,,,,,,,,,,,,,,,,,,,,,,,,,,,,,,,,,,,,,,,,house,77,75,silent,old,yellow,2952.449973300041,None,n,2952.449973300041,None,"['n', 'return']","[2.7146527000004426, 5.066792599973269]",2952.449973300041,None,,,83NE,001,2023_Aug_29_1023,ExactRep-v3-final,2021.2.3,59.72260046669361,
,,,,,,,,,,,,75,0,75,0,,,,,,,,,,,,,,,,,,,,,,,,,,,,,,,,,,,,,,,,,,,,,,,,,2961.1406787000014,None,,,,,,,,,,,,,,,,,,,,,,,,,,,,,,,,,,,,,,,,,,,,,,,,,,,,,,,,,blood,232,76,aloud,new,yellow,2958.0705870999955,None,n,2958.0705870999955,None,"['n', 'return']","[1.9019554000115022, 3.0219631000072695]",2958.0705870999955,None,,,83NE,001,2023_Aug_29_1023,ExactRep-v3-final,2021.2.3,59.72260046669361,
,,,,,,,,,,,,76,0,76,0,,,,,,,,,,,,,,,,,,,,,,,,,,,,,,,,,,,,,,,,,,,,,,,,,2963.7429028000333,None,,,,,,,,,,,,,,,,,,,,,,,,,,,,,,,,,,,,,,,,,,,,,,,,,,,,,,,,,shame,170,77,aloud,new,yellow,2961.675714400015,None,n,2961.675714400015,None,"['n', 'return']","[1.360852200014051, 2.0327525000320747]",2961.675714400015,None,,,83NE,001,2023_Aug_29_1023,ExactRep-v3-final,2021.2.3,59.72260046669361,
,,,,,,,,,,,,77,0,77,0,,,,,,,,,,,,,,,,,,,,,,,,,,,,,,,,,,,,,,,,,,,,,,,,,2966.345687400026,None,,,,,,,,,,,,,,,,,,,,,,,,,,,,,,,,,,,,,,,,,,,,,,,,,,,,,,,,,palace,40,78,silent,old,yellow,2964.2446180999978,None,n,2964.2446180999978,None,"['n', 'return']","[1.4239457999938168, 2.0641678999527358]",2964.2446180999978,None,,,83NE,001,2023_Aug_29_1023,ExactRep-v3-final,2021.2.3,59.72260046669361,
,,,,,,,,,,,,78,0,78,0,,,,,,,,,,,,,,,,,,,,,,,,,,,,,,,,,,,,,,,,,,,,,,,,,2968.748206500022,None,,,,,,,,,,,,,,,,,,,,,,,,,,,,,,,,,,,,,,,,,,,,,,,,,,,,,,,,,diamond,229,79,sing,new,yellow,2966.8626899000374,None,n,2966.8626899000374,None,"['n', 'return']","[1.1018043999793008, 1.8459145000088029]",2966.8626899000374,None,,,83NE,001,2023_Aug_29_1023,ExactRep-v3-final,2021.2.3,59.72260046669361,
,,,,,,,,,,,,79,0,79,0,,,,,,,,,,,,,,,,,,,,,,,,,,,,,,,,,,,,,,,,,,,,,,,,,2971.616389600036,None,,,,,,,,,,,,,,,,,,,,,,,,,,,,,,,,,,,,,,,,,,,,,,,,,,,,,,,,,city,201,80,sing,new,yellow,2969.264050900005,None,n,2969.264050900005,None,"['n', 'return']","[1.6445197999710217, 2.316771299985703]",2969.264050900005,None,,,83NE,001,2023_Aug_29_1023,ExactRep-v3-final,2021.2.3,59.72260046669361,
,,,,,,,,,,,,80,0,80,0,,,,,,,,,,,,,,,,,,,,,,,,,,,,,,,,,,,,,,,,,,,,,,,,,2975.2380056999973,None,,,,,,,,,,,,,,,,,,,,,,,,,,,,,,,,,,,,,,,,,,,,,,,,,,,,,,,,,home,205,81,sing,new,yellow,2972.1219684000243,None,n,2972.1219684000243,None,"['n', 'return']","[2.290650600043591, 3.082596199994441]",2972.1219684000243,None,,,83NE,001,2023_Aug_29_1023,ExactRep-v3-final,2021.2.3,59.72260046669361,
,,,,,,,,,,,,81,0,81,0,,,,,,,,,,,,,,,,,,,,,,,,,,,,,,,,,,,,,,,,,,,,,,,,,2978.124013199995,None,,,,,,,,,,,,,,,,,,,,,,,,,,,,,,,,,,,,,,,,,,,,,,,,,,,,,,,,,paper,118,82,aloud,old,yellow,2975.761036400043,None,n,2975.761036400043,None,"['n', 'return']","[1.643761999963317, 2.3235273999744095]",2975.761036400043,None,,,83NE,001,2023_Aug_29_1023,ExactRep-v3-final,2021.2.3,59.72260046669361,
,,,,,,,,,,,,82,0,82,0,,,,,,,,,,,,,,,,,,,,,,,,,,,,,,,,,,,,,,,,,,,,,,,,,2981.193603300024,None,,,,,,,,,,,,,,,,,,,,,,,,,,,,,,,,,,,,,,,,,,,,,,,,,,,,,,,,,origin,198,83,aloud,new,yellow,2978.628696800035,None,n,2978.628696800035,None,"['n', 'return']","[1.3677947000251152, 2.5281310999998823]",2978.628696800035,None,,,83NE,001,2023_Aug_29_1023,ExactRep-v3-final,2021.2.3,59.72260046669361,
,,,,,,,,,,,,83,0,83,0,,,,,,,,,,,,,,,,,,,,,,,,,,,,,,,,,,,,,,,,,,,,,,,,,2986.1151853000047,None,,,,,,,,,,,,,,,,,,,,,,,,,,,,,,,,,,,,,,,,,,,,,,,,,,,,,,,,,corn,46,84,silent,old,yellow,2981.6940026000375,None,n,2981.6940026000375,None,"['n', 'n', 'return']","[3.2465696000144817, 3.478562799980864, 4.374598800030071]",2981.6940026000375,None,,,83NE,001,2023_Aug_29_1023,ExactRep-v3-final,2021.2.3,59.72260046669361,
,,,,,,,,,,,,84,0,84,0,,,,,,,,,,,,,,,,,,,,,,,,,,,,,,,,,,,,,,,,,,,,,,,,,2988.600411600026,None,,,,,,,,,,,,,,,,,,,,,,,,,,,,,,,,,,,,,,,,,,,,,,,,,,,,,,,,,charm,217,85,sing,new,yellow,2986.6160302000353,None,n,2986.6160302000353,None,"['n', 'return']","[1.2525587999843992, 1.9487243000185117]",2986.6160302000353,None,,,83NE,001,2023_Aug_29_1023,ExactRep-v3-final,2021.2.3,59.72260046669361,
,,,,,,,,,,,,85,0,85,0,,,,,,,,,,,,,,,,,,,,,,,,,,,,,,,,,,,,,,,,,,,,,,,,,2995.5412213000236,None,,,,,,,,,,,,,,,,,,,,,,,,,,,,,,,,,,,,,,,,,,,,,,,,,,,,,,,,,child,51,86,silent,old,yellow,2989.102725100005,None,y,2989.102725100005,None,"['n', 'backspace', 'y', 'return']","[1.0305039000231773, 4.613829100038856, 5.718054900004063, 6.397895900008734]",2989.102725100005,None,,,83NE,001,2023_Aug_29_1023,ExactRep-v3-final,2021.2.3,59.72260046669361,
,,,,,,,,,,,,86,0,86,0,,,,,,,,,,,,,,,,,,,,,,,,,,,,,,,,,,,,,,,,,,,,,,,,,2998.7118338000146,None,,,,,,,,,,,,,,,,,,,,,,,,,,,,,,,,,,,,,,,,,,,,,,,,,,,,,,,,,humour,98,87,aloud,old,yellow,2996.042457500007,None,n,2996.042457500007,None,"['n', 'return']","[1.8581407999736257, 2.634113499952946]",2996.042457500007,None,,,83NE,001,2023_Aug_29_1023,ExactRep-v3-final,2021.2.3,59.72260046669361,
,,,,,,,,,,,,87,0,87,0,,,,,,,,,,,,,,,,,,,,,,,,,,,,,,,,,,,,,,,,,,,,,,,,,3001.1806193999946,None,,,,,,,,,,,,,,,,,,,,,,,,,,,,,,,,,,,,,,,,,,,,,,,,,,,,,,,,,idea,163,88,sing,new,yellow,2999.2283209000016,None,n,2999.2283209000016,None,"['n', 'return']","[1.2721707999589853, 1.9042962999665178]",2999.2283209000016,None,,,83NE,001,2023_Aug_29_1023,ExactRep-v3-final,2021.2.3,59.72260046669361,
,,,,,,,,,,,,88,0,88,0,,,,,,,,,,,,,,,,,,,,,,,,,,,,,,,,,,,,,,,,,,,,,,,,,3003.5159664000385,None,,,,,,,,,,,,,,,,,,,,,,,,,,,,,,,,,,,,,,,,,,,,,,,,,,,,,,,,,amount,127,89,silent,new,yellow,3001.6958255000063,None,n,3001.6958255000063,None,"['n', 'return']","[1.108715599984862, 1.7728338000015356]",3001.6958255000063,None,,,83NE,001,2023_Aug_29_1023,ExactRep-v3-final,2021.2.3,59.72260046669361,
,,,,,,,,,,,,89,0,89,0,,,,,,,,,,,,,,,,,,,,,,,,,,,,,,,,,,,,,,,,,,,,,,,,,3006.8195158000453,None,,,,,,,,,,,,,,,,,,,,,,,,,,,,,,,,,,,,,,,,,,,,,,,,,,,,,,,,,history,86,90,aloud,old,yellow,3004.0176748000085,None,n,3004.0176748000085,None,"['n', 'return']","[1.7709291000501253, 2.7628784000407904]",3004.0176748000085,None,,,83NE,001,2023_Aug_29_1023,ExactRep-v3-final,2021.2.3,59.72260046669361,
,,,,,,,,,,,,90,0,90,0,,,,,,,,,,,,,,,,,,,,,,,,,,,,,,,,,,,,,,,,,,,,,,,,,3011.173794500006,None,,,,,,,,,,,,,,,,,,,,,,,,,,,,,,,,,,,,,,,,,,,,,,,,,,,,,,,,,flower,95,91,aloud,old,yellow,3007.3374425999937,None,y,3007.3374425999937,None,"['y', 'return']","[3.139109899988398, 3.803107399959117]",3007.3374425999937,None,,,83NE,001,2023_Aug_29_1023,ExactRep-v3-final,2021.2.3,59.72260046669361,
,,,,,,,,,,,,91,0,91,0,,,,,,,,,,,,,,,,,,,,,,,,,,,,,,,,,,,,,,,,,,,,,,,,,3013.8595994000207,None,,,,,,,,,,,,,,,,,,,,,,,,,,,,,,,,,,,,,,,,,,,,,,,,,,,,,,,,,college,42,92,silent,old,yellow,3011.689364399994,None,n,3011.689364399994,None,"['n', 'return']","[1.3474261999945156, 2.1232041000039317]",3011.689364399994,None,,,83NE,001,2023_Aug_29_1023,ExactRep-v3-final,2021.2.3,59.72260046669361,
,,,,,,,,,,,,92,0,92,0,,,,,,,,,,,,,,,,,,,,,,,,,,,,,,,,,,,,,,,,,,,,,,,,,3016.278544200002,None,,,,,,,,,,,,,,,,,,,,,,,,,,,,,,,,,,,,,,,,,,,,,,,,,,,,,,,,,murder,225,93,sing,new,yellow,3014.3606830000062,None,n,3014.3606830000062,None,"['n', 'return']","[1.147900300042238, 1.875855499994941]",3014.3606830000062,None,,,83NE,001,2023_Aug_29_1023,ExactRep-v3-final,2021.2.3,59.72260046669361,
,,,,,,,,,,,,93,0,93,0,,,,,,,,,,,,,,,,,,,,,,,,,,,,,,,,,,,,,,,,,,,,,,,,,3018.7642205000157,None,,,,,,,,,,,,,,,,,,,,,,,,,,,,,,,,,,,,,,,,,,,,,,,,,,,,,,,,,journal,214,94,aloud,new,yellow,3016.780635400035,None,n,3016.780635400035,None,"['n', 'return']","[1.3038962000282481, 1.9439110000384971]",3016.780635400035,None,,,83NE,001,2023_Aug_29_1023,ExactRep-v3-final,2021.2.3,59.72260046669361,
,,,,,,,,,,,,94,0,94,0,,,,,,,,,,,,,,,,,,,,,,,,,,,,,,,,,,,,,,,,,,,,,,,,,3021.900671200012,None,,,,,,,,,,,,,,,,,,,,,,,,,,,,,,,,,,,,,,,,,,,,,,,,,,,,,,,,,cat,151,95,silent,new,yellow,3019.265112699999,None,n,3019.265112699999,None,"['n', 'return']","[1.8835934999515302, 2.595460799988359]",3019.265112699999,None,,,83NE,001,2023_Aug_29_1023,ExactRep-v3-final,2021.2.3,59.72260046669361,
,,,,,,,,,,,,95,0,95,0,,,,,,,,,,,,,,,,,,,,,,,,,,,,,,,,,,,,,,,,,,,,,,,,,3025.821440400032,None,,,,,,,,,,,,,,,,,,,,,,,,,,,,,,,,,,,,,,,,,,,,,,,,,,,,,,,,,body,26,96,sing,old,yellow,3022.4015447000274,None,y,3022.4015447000274,None,"['y', 'return']","[2.755008500011172, 3.379120800003875]",3022.4015447000274,None,,,83NE,001,2023_Aug_29_1023,ExactRep-v3-final,2021.2.3,59.72260046669361,
,,,,,,,,,,,,96,0,96,0,,,,,,,,,,,,,,,,,,,,,,,,,,,,,,,,,,,,,,,,,,,,,,,,,3028.9737561999937,None,,,,,,,,,,,,,,,,,,,,,,,,,,,,,,,,,,,,,,,,,,,,,,,,,,,,,,,,,moment,138,97,silent,new,yellow,3026.322920900013,None,n,3026.322920900013,None,"['n', 'return']","[1.185599500022363, 2.609604199999012]",3026.322920900013,None,,,83NE,001,2023_Aug_29_1023,ExactRep-v3-final,2021.2.3,59.72260046669361,
,,,,,,,,,,,,97,0,97,0,,,,,,,,,,,,,,,,,,,,,,,,,,,,,,,,,,,,,,,,,,,,,,,,,3033.6295988000347,None,,,,,,,,,,,,,,,,,,,,,,,,,,,,,,,,,,,,,,,,,,,,,,,,,,,,,,,,,cost,19,98,sing,old,yellow,3029.4862997000455,None,n,3029.4862997000455,None,"['n', 'return']","[3.4382227000314742, 4.094261399994139]",3029.4862997000455,None,,,83NE,001,2023_Aug_29_1023,ExactRep-v3-final,2021.2.3,59.72260046669361,
,,,,,,,,,,,,98,0,98,0,,,,,,,,,,,,,,,,,,,,,,,,,,,,,,,,,,,,,,,,,,,,,,,,,3038.3507545000175,None,,,,,,,,,,,,,,,,,,,,,,,,,,,,,,,,,,,,,,,,,,,,,,,,,,,,,,,,,fault,119,99,aloud,old,yellow,3034.147803,None,y,3034.147803,None,"['y', 'return']","[3.536806699994486, 4.160820099990815]",3034.147803,None,,,83NE,001,2023_Aug_29_1023,ExactRep-v3-final,2021.2.3,59.72260046669361,
,,,,,,,,,,,,99,0,99,0,,,,,,,,,,,,,,,,,,,,,,,,,,,,,,,,,,,,,,,,,,,,,,,,,3041.7031003000448,None,,,,,,,,,,,,,,,,,,,,,,,,,,,,,,,,,,,,,,,,,,,,,,,,,,,,,,,,,opinion,188,100,aloud,new,yellow,3038.8516729000257,None,n,3038.8516729000257,None,"['n', 'return']","[2.1449357999954373, 2.808788300026208]",3038.8516729000257,None,,,83NE,001,2023_Aug_29_1023,ExactRep-v3-final,2021.2.3,59.72260046669361,
,,,,,,,,,,,,100,0,100,0,,,,,,,,,,,,,,,,,,,,,,,,,,,,,,,,,,,,,,,,,,,,,,,,,3047.0424955000053,None,,,,,,,,,,,,,,,,,,,,,,,,,,,,,,,,,,,,,,,,,,,,,,,,,,,,,,,,,boy,57,101,silent,old,yellow,3042.2049697000184,None,n,3042.2049697000184,None,"['n', 'return']","[4.071575900015887, 4.799511299992446]",3042.2049697000184,None,,,83NE,001,2023_Aug_29_1023,ExactRep-v3-final,2021.2.3,59.72260046669361,
,,,,,,,,,,,,101,0,101,0,,,,,,,,,,,,,,,,,,,,,,,,,,,,,,,,,,,,,,,,,,,,,,,,,3049.578664300032,None,,,,,,,,,,,,,,,,,,,,,,,,,,,,,,,,,,,,,,,,,,,,,,,,,,,,,,,,,chair,37,102,sing,old,yellow,3047.543665800011,None,n,3047.543665800011,None,"['n', 'return']","[1.2208637000294402, 1.9888256000122055]",3047.543665800011,None,,,83NE,001,2023_Aug_29_1023,ExactRep-v3-final,2021.2.3,59.72260046669361,
,,,,,,,,,,,,102,0,102,0,,,,,,,,,,,,,,,,,,,,,,,,,,,,,,,,,,,,,,,,,,,,,,,,,3053.4158121999935,None,,,,,,,,,,,,,,,,,,,,,,,,,,,,,,,,,,,,,,,,,,,,,,,,,,,,,,,,,woman,44,103,silent,old,yellow,3050.079946600017,None,n,3050.079946600017,None,"['n', 'return']","[2.628631800005678, 3.300805400009267]",3050.079946600017,None,,,83NE,001,2023_Aug_29_1023,ExactRep-v3-final,2021.2.3,59.72260046669361,
,,,,,,,,,,,,103,0,103,0,,,,,,,,,,,,,,,,,,,,,,,,,,,,,,,,,,,,,,,,,,,,,,,,,3055.5345540000126,None,,,,,,,,,,,,,,,,,,,,,,,,,,,,,,,,,,,,,,,,,,,,,,,,,,,,,,,,,disease,9,104,sing,old,yellow,3053.925166400033,None,n,3053.925166400033,None,"['n', 'return']","[0.9593201999668963, 1.5753864999860525]",3053.925166400033,None,,,83NE,001,2023_Aug_29_1023,ExactRep-v3-final,2021.2.3,59.72260046669361,
,,,,,,,,,,,,104,0,104,0,,,,,,,,,,,,,,,,,,,,,,,,,,,,,,,,,,,,,,,,,,,,,,,,,3057.703616600018,None,,,,,,,,,,,,,,,,,,,,,,,,,,,,,,,,,,,,,,,,,,,,,,,,,,,,,,,,,freedom,131,105,silent,new,yellow,3056.0362360000145,None,n,3056.0362360000145,None,"['n', 'return']","[1.000359900004696, 1.6243295000167564]",3056.0362360000145,None,,,83NE,001,2023_Aug_29_1023,ExactRep-v3-final,2021.2.3,59.72260046669361,
,,,,,,,,,,,,105,0,105,0,,,,,,,,,,,,,,,,,,,,,,,,,,,,,,,,,,,,,,,,,,,,,,,,,3062.6578733000206,None,,,,,,,,,,,,,,,,,,,,,,,,,,,,,,,,,,,,,,,,,,,,,,,,,,,,,,,,,bird,126,106,silent,new,yellow,3058.2202142000315,None,y,3058.2202142000315,None,"['y', 'return']","[3.640313600015361, 4.400258000008762]",3058.2202142000315,None,,,83NE,001,2023_Aug_29_1023,ExactRep-v3-final,2021.2.3,59.72260046669361,
,,,,,,,,,,,,106,0,106,0,,,,,,,,,,,,,,,,,,,,,,,,,,,,,,,,,,,,,,,,,,,,,,,,,3064.8940189999994,None,,,,,,,,,,,,,,,,,,,,,,,,,,,,,,,,,,,,,,,,,,,,,,,,,,,,,,,,,health,164,107,aloud,new,yellow,3063.171968600014,None,n,3063.171968600014,None,"['n', 'return']","[1.0165162999765016, 1.6806258999858983]",3063.171968600014,None,,,83NE,001,2023_Aug_29_1023,ExactRep-v3-final,2021.2.3,59.72260046669361,
,,,,,,,,,,,,107,0,107,0,,,,,,,,,,,,,,,,,,,,,,,,,,,,,,,,,,,,,,,,,,,,,,,,,3066.9783199999947,None,,,,,,,,,,,,,,,,,,,,,,,,,,,,,,,,,,,,,,,,,,,,,,,,,,,,,,,,,clock,4,108,sing,old,yellow,3065.4112788000493,None,n,3065.4112788000493,None,"['n', 'return']","[0.93726420000894, 1.5295293999952264]",3065.4112788000493,None,,,83NE,001,2023_Aug_29_1023,ExactRep-v3-final,2021.2.3,59.72260046669361,
,,,,,,,,,,,,108,0,108,0,,,,,,,,,,,,,,,,,,,,,,,,,,,,,,,,,,,,,,,,,,,,,,,,,3071.0336368000135,None,,,,,,,,,,,,,,,,,,,,,,,,,,,,,,,,,,,,,,,,,,,,,,,,,,,,,,,,,leader,24,109,sing,old,yellow,3067.4803835000494,None,n,3067.4803835000494,None,"['n', 'return']","[2.9004644000087865, 3.516410399985034]",3067.4803835000494,None,,,83NE,001,2023_Aug_29_1023,ExactRep-v3-final,2021.2.3,59.72260046669361,
,,,,,,,,,,,,109,0,109,0,,,,,,,,,,,,,,,,,,,,,,,,,,,,,,,,,,,,,,,,,,,,,,,,,3073.6528030000045,None,,,,,,,,,,,,,,,,,,,,,,,,,,,,,,,,,,,,,,,,,,,,,,,,,,,,,,,,,ocean,105,110,aloud,old,yellow,3071.537865900027,None,n,3071.537865900027,None,"['n', 'return']","[0.954720800044015, 2.066650299995672]",3071.537865900027,None,,,83NE,001,2023_Aug_29_1023,ExactRep-v3-final,2021.2.3,59.72260046669361,
,,,,,,,,,,,,110,0,110,0,,,,,,,,,,,,,,,,,,,,,,,,,,,,,,,,,,,,,,,,,,,,,,,,,3076.422152400017,None,,,,,,,,,,,,,,,,,,,,,,,,,,,,,,,,,,,,,,,,,,,,,,,,,,,,,,,,,person,102,111,aloud,old,yellow,3074.1547872000374,None,n,3074.1547872000374,None,"['n', 'return']","[1.545794899982866, 2.2257402999675833]",3074.1547872000374,None,,,83NE,001,2023_Aug_29_1023,ExactRep-v3-final,2021.2.3,59.72260046669361,
,,,,,,,,,,,,111,0,111,0,,,,,,,,,,,,,,,,,,,,,,,,,,,,,,,,,,,,,,,,,,,,,,,,,3079.1248642000137,None,,,,,,,,,,,,,,,,,,,,,,,,,,,,,,,,,,,,,,,,,,,,,,,,,,,,,,,,,judge,35,112,sing,old,yellow,3076.9229365999927,None,n,3076.9229365999927,None,"['n', 'return']","[1.457610499986913, 2.1535660999943502]",3076.9229365999927,None,,,83NE,001,2023_Aug_29_1023,ExactRep-v3-final,2021.2.3,59.72260046669361,
,,,,,,,,,,,,112,0,112,0,,,,,,,,,,,,,,,,,,,,,,,,,,,,,,,,,,,,,,,,,,,,,,,,,3081.5774969000486,None,,,,,,,,,,,,,,,,,,,,,,,,,,,,,,,,,,,,,,,,,,,,,,,,,,,,,,,,,toy,218,113,aloud,new,yellow,3079.6307813000167,None,n,3079.6307813000167,None,"['n', 'return']","[1.1336705000139773, 1.9099846999743022]",3079.6307813000167,None,,,83NE,001,2023_Aug_29_1023,ExactRep-v3-final,2021.2.3,59.72260046669361,
,,,,,,,,,,,,113,0,113,0,,,,,,,,,,,,,,,,,,,,,,,,,,,,,,,,,,,,,,,,,,,,,,,,,3088.5507067000144,None,,,,,,,,,,,,,,,,,,,,,,,,,,,,,,,,,,,,,,,,,,,,,,,,,,,,,,,,,prayer,17,114,sing,old,yellow,3082.0786115000374,None,n,3082.0786115000374,None,"['y', 'backspace', 'n', 'return']","[3.4299832999822684, 4.909983100020327, 5.773946600034833, 6.4379929000278935]",3082.0786115000374,None,,,83NE,001,2023_Aug_29_1023,ExactRep-v3-final,2021.2.3,59.72260046669361,
,,,,,,,,,,,,114,0,114,0,,,,,,,,,,,,,,,,,,,,,,,,,,,,,,,,,,,,,,,,,,,,,,,,,3090.968827500008,None,,,,,,,,,,,,,,,,,,,,,,,,,,,,,,,,,,,,,,,,,,,,,,,,,,,,,,,,,dollar,238,115,aloud,new,yellow,3089.059162300022,None,n,3089.059162300022,None,"['n', 'return']","[1.129465000005439, 1.8737077999976464]",3089.059162300022,None,,,83NE,001,2023_Aug_29_1023,ExactRep-v3-final,2021.2.3,59.72260046669361,
,,,,,,,,,,,,115,0,115,0,,,,,,,,,,,,,,,,,,,,,,,,,,,,,,,,,,,,,,,,,,,,,,,,,3094.573508100002,None,,,,,,,,,,,,,,,,,,,,,,,,,,,,,,,,,,,,,,,,,,,,,,,,,,,,,,,,,car,31,116,sing,old,yellow,3091.47043440002,None,n,3091.47043440002,None,"['n', 'return']","[2.4862244999967515, 3.054078000015579]",3091.47043440002,None,,,83NE,001,2023_Aug_29_1023,ExactRep-v3-final,2021.2.3,59.72260046669361,
,,,,,,,,,,,,116,0,116,0,,,,,,,,,,,,,,,,,,,,,,,,,,,,,,,,,,,,,,,,,,,,,,,,,3098.9102508000215,None,,,,,,,,,,,,,,,,,,,,,,,,,,,,,,,,,,,,,,,,,,,,,,,,,,,,,,,,,coast,111,117,aloud,old,yellow,3095.0748791000224,None,n,3095.0748791000224,None,"['n', 'return']","[2.4416633000364527, 3.793610599997919]",3095.0748791000224,None,,,83NE,001,2023_Aug_29_1023,ExactRep-v3-final,2021.2.3,59.72260046669361,
,,,,,,,,,,,,117,0,117,0,,,,,,,,,,,,,,,,,,,,,,,,,,,,,,,,,,,,,,,,,,,,,,,,,3102.48173400003,None,,,,,,,,,,,,,,,,,,,,,,,,,,,,,,,,,,,,,,,,,,,,,,,,,,,,,,,,,pride,63,118,silent,old,yellow,3099.412228500005,None,n,3099.412228500005,None,"['n', 'return']","[1.9842855999595486, 3.0326527999714017]",3099.412228500005,None,,,83NE,001,2023_Aug_29_1023,ExactRep-v3-final,2021.2.3,59.72260046669361,
,,,,,,,,,,,,118,0,118,0,,,,,,,,,,,,,,,,,,,,,,,,,,,,,,,,,,,,,,,,,,,,,,,,,3105.367510400014,None,,,,,,,,,,,,,,,,,,,,,,,,,,,,,,,,,,,,,,,,,,,,,,,,,,,,,,,,,hour,145,119,silent,new,yellow,3102.9899422000162,None,n,3102.9899422000162,None,"['n', 'return']","[0.958656599977985, 2.3345879999687895]",3102.9899422000162,None,,,83NE,001,2023_Aug_29_1023,ExactRep-v3-final,2021.2.3,59.72260046669361,
,,,,,,,,,,,,119,0,119,0,,,,,,,,,,,,,,,,,,,,,,,,,,,,,,,,,,,,,,,,,,,,,,,,,3107.7032437000307,None,,,,,,,,,,,,,,,,,,,,,,,,,,,,,,,,,,,,,,,,,,,,,,,,,,,,,,,,,butter,70,120,silent,old,yellow,3105.8854079000303,None,n,3105.8854079000303,None,"['n', 'return']","[1.119059999997262, 1.7750985999591649]",3105.8854079000303,None,,,83NE,001,2023_Aug_29_1023,ExactRep-v3-final,2021.2.3,59.72260046669361,
,,,,,,,,,,,,120,0,120,0,,,,,,,,,,,,,,,,,,,,,,,,,,,,,,,,,,,,,,,,,,,,,,,,,3110.2059159000055,None,,,,,,,,,,,,,,,,,,,,,,,,,,,,,,,,,,,,,,,,,,,,,,,,,,,,,,,,,earth,152,121,silent,new,yellow,3108.219453400001,None,n,3108.219453400001,None,"['n', 'return']","[1.289067099976819, 1.945050899987109]",3108.219453400001,None,,,83NE,001,2023_Aug_29_1023,ExactRep-v3-final,2021.2.3,59.72260046669361,
,,,,,,,,,,,,121,0,121,0,,,,,,,,,,,,,,,,,,,,,,,,,,,,,,,,,,,,,,,,,,,,,,,,,3112.774979800044,None,,,,,,,,,,,,,,,,,,,,,,,,,,,,,,,,,,,,,,,,,,,,,,,,,,,,,,,,,square,200,122,aloud,new,yellow,3110.723882900027,None,n,3110.723882900027,None,"['n', 'return']","[1.2006170999957249, 2.016736800025683]",3110.723882900027,None,,,83NE,001,2023_Aug_29_1023,ExactRep-v3-final,2021.2.3,59.72260046669361,
,,,,,,,,,,,,122,0,122,0,,,,,,,,,,,,,,,,,,,,,,,,,,,,,,,,,,,,,,,,,,,,,,,,,3115.4778115000227,None,,,,,,,,,,,,,,,,,,,,,,,,,,,,,,,,,,,,,,,,,,,,,,,,,,,,,,,,,machine,165,123,sing,new,yellow,3113.2762090000324,None,n,3113.2762090000324,None,"['n', 'return']","[1.528297399985604, 2.1603087999974377]",3113.2762090000324,None,,,83NE,001,2023_Aug_29_1023,ExactRep-v3-final,2021.2.3,59.72260046669361,
,,,,,,,,,,,,123,0,123,0,,,,,,,,,,,,,,,,,,,,,,,,,,,,,,,,,,,,,,,,,,,,,,,,,3118.914573899994,None,,,,,,,,,,,,,,,,,,,,,,,,,,,,,,,,,,,,,,,,,,,,,,,,,,,,,,,,,theory,85,124,aloud,old,yellow,3115.995372400037,None,n,3115.995372400037,None,"['n', 'return']","[1.2171283999923617, 2.873085999977775]",3115.995372400037,None,,,83NE,001,2023_Aug_29_1023,ExactRep-v3-final,2021.2.3,59.72260046669361,
,,,,,,,,,,,,124,0,124,0,,,,,,,,,,,,,,,,,,,,,,,,,,,,,,,,,,,,,,,,,,,,,,,,,3121.3506236000103,None,,,,,,,,,,,,,,,,,,,,,,,,,,,,,,,,,,,,,,,,,,,,,,,,,,,,,,,,,engine,83,125,aloud,old,yellow,3119.4153763000504,None,n,3119.4153763000504,None,"['n', 'return']","[1.1653446999844164, 1.8851626999676228]",3119.4153763000504,None,,,83NE,001,2023_Aug_29_1023,ExactRep-v3-final,2021.2.3,59.72260046669361,
,,,,,,,,,,,,125,0,125,0,,,,,,,,,,,,,,,,,,,,,,,,,,,,,,,,,,,,,,,,,,,,,,,,,3126.02148320002,None,,,,,,,,,,,,,,,,,,,,,,,,,,,,,,,,,,,,,,,,,,,,,,,,,,,,,,,,,justice,48,126,silent,old,yellow,3121.8675149000483,None,n,3121.8675149000483,None,"['n', 'return']","[2.401292899972759, 4.11299880000297]",3121.8675149000483,None,,,83NE,001,2023_Aug_29_1023,ExactRep-v3-final,2021.2.3,59.72260046669361,
,,,,,,,,,,,,126,0,126,0,,,,,,,,,,,,,,,,,,,,,,,,,,,,,,,,,,,,,,,,,,,,,,,,,3128.891500000027,None,,,,,,,,,,,,,,,,,,,,,,,,,,,,,,,,,,,,,,,,,,,,,,,,,,,,,,,,,weapon,219,127,sing,new,yellow,3126.5359218000085,None,n,3126.5359218000085,None,"['n', 'return']","[1.1965561000397429, 2.316618400043808]",3126.5359218000085,None,,,83NE,001,2023_Aug_29_1023,ExactRep-v3-final,2021.2.3,59.72260046669361,
,,,,,,,,,,,,127,0,127,0,,,,,,,,,,,,,,,,,,,,,,,,,,,,,,,,,,,,,,,,,,,,,,,,,3135.9148071000236,None,,,,,,,,,,,,,,,,,,,,,,,,,,,,,,,,,,,,,,,,,,,,,,,,,,,,,,,,,table,29,128,sing,old,yellow,3129.408536200004,None,y,3129.408536200004,None,"['n', 'backspace', 'y', 'return']","[2.795958500006236, 5.452226399967913, 6.0679007999715395, 6.459917299973313]",3129.408536200004,None,,,83NE,001,2023_Aug_29_1023,ExactRep-v3-final,2021.2.3,59.72260046669361,
,,,,,,,,,,,,128,0,128,0,,,,,,,,,,,,,,,,,,,,,,,,,,,,,,,,,,,,,,,,,,,,,,,,,3139.5684040000197,None,,,,,,,,,,,,,,,,,,,,,,,,,,,,,,,,,,,,,,,,,,,,,,,,,,,,,,,,,gift,81,129,aloud,old,yellow,3136.4162840000354,None,n,3136.4162840000354,None,"['n', 'return']","[2.492222699976992, 3.1163097000098787]",3136.4162840000354,None,,,83NE,001,2023_Aug_29_1023,ExactRep-v3-final,2021.2.3,59.72260046669361,
,,,,,,,,,,,,129,0,129,0,,,,,,,,,,,,,,,,,,,,,,,,,,,,,,,,,,,,,,,,,,,,,,,,,3145.808393500047,None,,,,,,,,,,,,,,,,,,,,,,,,,,,,,,,,,,,,,,,,,,,,,,,,,,,,,,,,,chief,76,130,silent,old,yellow,3140.069997200044,None,y,3140.069997200044,None,"['n', 'backspace', 'y', 'return']","[1.3184974999749102, 4.222551100014243, 5.278557199984789, 5.69447659997968]",3140.069997200044,None,,,83NE,001,2023_Aug_29_1023,ExactRep-v3-final,2021.2.3,59.72260046669361,
