trials_fam.thisRepN,trials_fam.thisTrialN,trials_fam.thisN,trials_fam.thisIndex,trials_prc.thisRepN,trials_prc.thisTrialN,trials_prc.thisN,trials_prc.thisIndex,StudyLoop.thisRepN,StudyLoop.thisTrialN,StudyLoop.thisN,StudyLoop.thisIndex,TestLoop.thisRepN,TestLoop.thisTrialN,TestLoop.thisN,TestLoop.thisIndex,text_colortest.started,text_colortest.stopped,key_colortest.keys,key_colortest.rt,key_colortest.started,key_colortest.stopped,textCondition.started,textCondition.stopped,keyCondition.keys,keyCondition.rt,keyCondition.started,keyCondition.stopped,Condition_between,Condition_counterbal,keyWelcome.keys,keyWelcome.rt,keyWelcome.started,keyWelcome.stopped,welcome_a.started,welcome_a.stopped,welcome_b.started,welcome_b.stopped,welcome_c.started,welcome_c.stopped,welcome_d.started,welcome_d.stopped,welcome_e.started,welcome_e.stopped,welcome_f.started,welcome_f.stopped,key_resp_fam_inst.keys,key_resp_fam_inst.rt,key_resp_fam_inst.started,key_resp_fam_inst.stopped,fam_a.started,fam_a.stopped,fam_b.started,fam_b.stopped,fam_c.started,fam_c.stopped,fam_d.started,fam_d.stopped,fam_e.started,fam_e.stopped,fam_f.started,fam_f.stopped,text_famil.started,text_famil.stopped,textBlank500.started,textBlank500.stopped,key_resp_prc_inst.keys,key_resp_prc_inst.rt,key_resp_prc_inst.started,key_resp_prc_inst.stopped,prac_a.started,prac_a.stopped,prac_b.started,prac_b.stopped,prac_c.started,prac_c.stopped,prac_d.started,prac_d.stopped,prac_e.started,prac_e.stopped,prac_f.started,prac_f.stopped,text_prc_trial.started,text_prc_trial.stopped,key_resp_study_inst.keys,key_resp_study_inst.rt,key_resp_study_inst.started,key_resp_study_inst.stopped,crit_a.started,crit_a.stopped,crit_b.started,crit_b.stopped,crit_c.started,crit_c.stopped,crit_d.started,crit_d.stopped,crit_e.started,crit_e.stopped,crit_f.started,crit_f.stopped,study_word,study_num,study_order,study_type,word_color,textStudy.started,textStudy.stopped,keyStudy.keys,keyStudy.started,keyStudy.stopped,post_study.started,post_study.stopped,key_resp_post_study.keys,key_resp_post_study.rt,key_resp_post_study.started,key_resp_post_study.stopped,test_inst.started,test_inst.stopped,key_resp_test_inst.keys,key_resp_test_inst.rt,key_resp_test_inst.started,key_resp_test_inst.stopped,test_word,test_num,test_order,test_condition,old_new_test,word_color_test,textConf.started,textConf.stopped,Participant Response,textInput.started,textInput.stopped,keyResp.keys,keyResp.rt,keyResp.started,keyResp.stopped,textEnd.started,textEnd.stopped,participant,session,date,expName,psychopyVersion,frameRate,
,,,,,,,,,,,,,,,,15.9224900000263,None,n,0.8728396000806242,15.9224900000263,None,,,,,,,,,,,,,,,,,,,,,,,,,,,,,,,,,,,,,,,,,,,,,,,,,,,,,,,,,,,,,,,,,,,,,,,,,,,,,,,,,,,,,,,,,,,,,,,,,,,,,,,,,,,,,,,,,,,,,,84,001,2023_Aug_30_1317,ExactRep-v3-final,2021.2.3,59.96070177791439,
,,,,,,,,,,,,,,,,,,,,,,16.813695800025016,None,f,2.373325400054455,16.813695800025016,None,,,,,,,,,,,,,,,,,,,,,,,,,,,,,,,,,,,,,,,,,,,,,,,,,,,,,,,,,,,,,,,,,,,,,,,,,,,,,,,,,,,,,,,,,,,,,,,,,,,,,,,,,,,,,,,,84,001,2023_Aug_30_1317,ExactRep-v3-final,2021.2.3,59.96070177791439,
,,,,,,,,,,,,,,,,,,,,,,,,,,,,whitefoils,f,space,115.53643550002016,29.346462499932386,None,,,,,,,,,,,,,,,,,,,,,,,,,,,,,,,,,,,,,,,,,,,,,,,,,,,,,,,,,,,,,,,,,,,,,,,,,,,,,,,,,,,,,,,,,,,,,,,,,,,,,,,,,,84,001,2023_Aug_30_1317,ExactRep-v3-final,2021.2.3,59.96070177791439,
,,,,,,,,,,,,,,,,,,,,,,,,,,,,,,,,,,19.39465279993601,None,19.39465279993601,None,19.39465279993601,None,19.39465279993601,None,19.39465279993601,None,19.39465279993601,None,space,20.359178000013344,155.11563170002773,None,,,,,,,,,,,,,,,,,,,,,,,,,,,,,,,,,,,,,,,,,,,,,,,,,,,,,,,,,,,,,,,,,,,,,,,,,,,,,,,,,,,,,,,,,,84,001,2023_Aug_30_1317,ExactRep-v3-final,2021.2.3,59.96070177791439,
0,0,0,0,,,,,,,,,,,,,,,,,,,,,,,,,,,,,,,,,,,,,,,,,,,,,,,145.10435969999526,None,145.10435969999526,None,145.10435969999526,None,145.10435969999526,None,145.10435969999526,None,145.10435969999526,None,175.606935699936,None,177.60820799996145,None,,,,,,,,,,,,,,,,,,,,,,,,,,,,,,,,,,,,,,,,,,,,,,,,,,,,,,,,,,,,,,,,,,,,,,,,,,84,001,2023_Aug_30_1317,ExactRep-v3-final,2021.2.3,59.96070177791439,
1,0,1,0,,,,,,,,,,,,,,,,,,,,,,,,,,,,,,,,,,,,,,,,,,,,,,,,,,,,,,,,,,,178.12540909997188,None,180.12685340002645,None,,,,,,,,,,,,,,,,,,,,,,,,,,,,,,,,,,,,,,,,,,,,,,,,,,,,,,,,,,,,,,,,,,,,,,,,,,84,001,2023_Aug_30_1317,ExactRep-v3-final,2021.2.3,59.96070177791439,
2,0,2,0,,,,,,,,,,,,,,,,,,,,,,,,,,,,,,,,,,,,,,,,,,,,,,,,,,,,,,,,,,,180.6275357999839,None,182.62954460002948,None,,,,,,,,,,,,,,,,,,,,,,,,,,,,,,,,,,,,,,,,,,,,,,,,,,,,,,,,,,,,,,,,,,,,,,,,,,84,001,2023_Aug_30_1317,ExactRep-v3-final,2021.2.3,59.96070177791439,
3,0,3,0,,,,,,,,,,,,,,,,,,,,,,,,,,,,,,,,,,,,,,,,,,,,,,,,,,,,,,,,,,,183.14002169994637,None,185.14871600002516,None,,,,,,,,,,,,,,,,,,,,,,,,,,,,,,,,,,,,,,,,,,,,,,,,,,,,,,,,,,,,,,,,,,,,,,,,,,84,001,2023_Aug_30_1317,ExactRep-v3-final,2021.2.3,59.96070177791439,
4,0,4,0,,,,,,,,,,,,,,,,,,,,,,,,,,,,,,,,,,,,,,,,,,,,,,,,,,,,,,,,,,,185.64074099995196,None,187.65123920002952,None,,,,,,,,,,,,,,,,,,,,,,,,,,,,,,,,,,,,,,,,,,,,,,,,,,,,,,,,,,,,,,,,,,,,,,,,,,84,001,2023_Aug_30_1317,ExactRep-v3-final,2021.2.3,59.96070177791439,
5,0,5,0,,,,,,,,,,,,,,,,,,,,,,,,,,,,,,,,,,,,,,,,,,,,,,,,,,,,,,,,,,,188.1583149000071,None,190.17056530003902,None,,,,,,,,,,,,,,,,,,,,,,,,,,,,,,,,,,,,,,,,,,,,,,,,,,,,,,,,,,,,,,,,,,,,,,,,,,84,001,2023_Aug_30_1317,ExactRep-v3-final,2021.2.3,59.96070177791439,
6,0,6,0,,,,,,,,,,,,,,,,,,,,,,,,,,,,,,,,,,,,,,,,,,,,,,,,,,,,,,,,,,,190.6614038000116,None,192.67282109998632,None,,,,,,,,,,,,,,,,,,,,,,,,,,,,,,,,,,,,,,,,,,,,,,,,,,,,,,,,,,,,,,,,,,,,,,,,,,84,001,2023_Aug_30_1317,ExactRep-v3-final,2021.2.3,59.96070177791439,
7,0,7,0,,,,,,,,,,,,,,,,,,,,,,,,,,,,,,,,,,,,,,,,,,,,,,,,,,,,,,,,,,,193.17328440002166,None,195.17537229997106,None,,,,,,,,,,,,,,,,,,,,,,,,,,,,,,,,,,,,,,,,,,,,,,,,,,,,,,,,,,,,,,,,,,,,,,,,,,84,001,2023_Aug_30_1317,ExactRep-v3-final,2021.2.3,59.96070177791439,
8,0,8,0,,,,,,,,,,,,,,,,,,,,,,,,,,,,,,,,,,,,,,,,,,,,,,,,,,,,,,,,,,,195.67591119999997,None,197.67786439997144,None,,,,,,,,,,,,,,,,,,,,,,,,,,,,,,,,,,,,,,,,,,,,,,,,,,,,,,,,,,,,,,,,,,,,,,,,,,84,001,2023_Aug_30_1317,ExactRep-v3-final,2021.2.3,59.96070177791439,
9,0,9,0,,,,,,,,,,,,,,,,,,,,,,,,,,,,,,,,,,,,,,,,,,,,,,,,,,,,,,,,,,,198.17884750000667,None,200.18057189998217,None,,,,,,,,,,,,,,,,,,,,,,,,,,,,,,,,,,,,,,,,,,,,,,,,,,,,,,,,,,,,,,,,,,,,,,,,,,84,001,2023_Aug_30_1317,ExactRep-v3-final,2021.2.3,59.96070177791439,
10,0,10,0,,,,,,,,,,,,,,,,,,,,,,,,,,,,,,,,,,,,,,,,,,,,,,,,,,,,,,,,,,,200.68091220001224,None,202.68321699998342,None,,,,,,,,,,,,,,,,,,,,,,,,,,,,,,,,,,,,,,,,,,,,,,,,,,,,,,,,,,,,,,,,,,,,,,,,,,84,001,2023_Aug_30_1317,ExactRep-v3-final,2021.2.3,59.96070177791439,
11,0,11,0,,,,,,,,,,,,,,,,,,,,,,,,,,,,,,,,,,,,,,,,,,,,,,,,,,,,,,,,,,,203.18773460004013,None,205.20207160001155,None,,,,,,,,,,,,,,,,,,,,,,,,,,,,,,,,,,,,,,,,,,,,,,,,,,,,,,,,,,,,,,,,,,,,,,,,,,84,001,2023_Aug_30_1317,ExactRep-v3-final,2021.2.3,59.96070177791439,
12,0,12,0,,,,,,,,,,,,,,,,,,,,,,,,,,,,,,,,,,,,,,,,,,,,,,,,,,,,,,,,,,,205.70577130001038,None,207.7214339999482,None,,,,,,,,,,,,,,,,,,,,,,,,,,,,,,,,,,,,,,,,,,,,,,,,,,,,,,,,,,,,,,,,,,,,,,,,,,84,001,2023_Aug_30_1317,ExactRep-v3-final,2021.2.3,59.96070177791439,
13,0,13,0,,,,,,,,,,,,,,,,,,,,,,,,,,,,,,,,,,,,,,,,,,,,,,,,,,,,,,,,,,,208.2237935999874,None,210.22392509994097,None,,,,,,,,,,,,,,,,,,,,,,,,,,,,,,,,,,,,,,,,,,,,,,,,,,,,,,,,,,,,,,,,,,,,,,,,,,84,001,2023_Aug_30_1317,ExactRep-v3-final,2021.2.3,59.96070177791439,
14,0,14,0,,,,,,,,,,,,,,,,,,,,,,,,,,,,,,,,,,,,,,,,,,,,,,,,,,,,,,,,,,,210.72927639994305,None,212.74293850001413,None,,,,,,,,,,,,,,,,,,,,,,,,,,,,,,,,,,,,,,,,,,,,,,,,,,,,,,,,,,,,,,,,,,,,,,,,,,84,001,2023_Aug_30_1317,ExactRep-v3-final,2021.2.3,59.96070177791439,
,,,,,,,,,,,,,,,,,,,,,,,,,,,,,,,,,,,,,,,,,,,,,,,,,,,,,,,,,,,,,,,,,,space,26.17357469990384,223.38945000001695,None,,,,,,,,,,,,,,,,,,,,,,,,,,,,,,,,,,,,,,,,,,,,,,,,,,,,,,,,,,,,,,,,,,,,,,84,001,2023_Aug_30_1317,ExactRep-v3-final,2021.2.3,59.96070177791439,
,,,,0,0,0,0,,,,,,,,,,,,,,,,,,,,,,,,,,,,,,,,,,,,,,,,,,,,,,,,,,,,,,,,,251.68183220003266,None,,,,,213.35032249998767,None,213.35032249998767,None,213.35032249998767,None,213.35032249998767,None,213.35032249998767,None,213.35032249998767,None,249.67387900000904,None,,,,,,,,,,,,,,,,,,,,,,,,,,,,,,,,,,,,,,,,,,,,,,,,,,,,,,,,84,001,2023_Aug_30_1317,ExactRep-v3-final,2021.2.3,59.96070177791439,
,,,,1,0,1,0,,,,,,,,,,,,,,,,,,,,,,,,,,,,,,,,,,,,,,,,,,,,,,,,,,,,,,,,,254.18429569993168,None,,,,,,,,,,,,,,,,,252.18275579996407,None,,,,,,,,,,,,,,,,,,,,,,,,,,,,,,,,,,,,,,,,,,,,,,,,,,,,,,,,84,001,2023_Aug_30_1317,ExactRep-v3-final,2021.2.3,59.96070177791439,
,,,,2,0,2,0,,,,,,,,,,,,,,,,,,,,,,,,,,,,,,,,,,,,,,,,,,,,,,,,,,,,,,,,,256.68667890003417,None,,,,,,,,,,,,,,,,,254.684630200034,None,,,,,,,,,,,,,,,,,,,,,,,,,,,,,,,,,,,,,,,,,,,,,,,,,,,,,,,,84,001,2023_Aug_30_1317,ExactRep-v3-final,2021.2.3,59.96070177791439,
,,,,3,0,3,0,,,,,,,,,,,,,,,,,,,,,,,,,,,,,,,,,,,,,,,,,,,,,,,,,,,,,,,,,259.1894075999735,None,,,,,,,,,,,,,,,,,257.18730809993576,None,,,,,,,,,,,,,,,,,,,,,,,,,,,,,,,,,,,,,,,,,,,,,,,,,,,,,,,,84,001,2023_Aug_30_1317,ExactRep-v3-final,2021.2.3,59.96070177791439,
,,,,4,0,4,0,,,,,,,,,,,,,,,,,,,,,,,,,,,,,,,,,,,,,,,,,,,,,,,,,,,,,,,,,261.69162940001115,None,,,,,,,,,,,,,,,,,259.69033010001294,None,,,,,,,,,,,,,,,,,,,,,,,,,,,,,,,,,,,,,,,,,,,,,,,,,,,,,,,,84,001,2023_Aug_30_1317,ExactRep-v3-final,2021.2.3,59.96070177791439,
,,,,5,0,5,0,,,,,,,,,,,,,,,,,,,,,,,,,,,,,,,,,,,,,,,,,,,,,,,,,,,,,,,,,264.1945924999891,None,,,,,,,,,,,,,,,,,262.1928052000003,None,,,,,,,,,,,,,,,,,,,,,,,,,,,,,,,,,,,,,,,,,,,,,,,,,,,,,,,,84,001,2023_Aug_30_1317,ExactRep-v3-final,2021.2.3,59.96070177791439,
,,,,6,0,6,0,,,,,,,,,,,,,,,,,,,,,,,,,,,,,,,,,,,,,,,,,,,,,,,,,,,,,,,,,266.69750629994087,None,,,,,,,,,,,,,,,,,264.6948051999789,None,,,,,,,,,,,,,,,,,,,,,,,,,,,,,,,,,,,,,,,,,,,,,,,,,,,,,,,,84,001,2023_Aug_30_1317,ExactRep-v3-final,2021.2.3,59.96070177791439,
,,,,7,0,7,0,,,,,,,,,,,,,,,,,,,,,,,,,,,,,,,,,,,,,,,,,,,,,,,,,,,,,,,,,269.1995646000141,None,,,,,,,,,,,,,,,,,267.2001892999979,None,,,,,,,,,,,,,,,,,,,,,,,,,,,,,,,,,,,,,,,,,,,,,,,,,,,,,,,,84,001,2023_Aug_30_1317,ExactRep-v3-final,2021.2.3,59.96070177791439,
,,,,8,0,8,0,,,,,,,,,,,,,,,,,,,,,,,,,,,,,,,,,,,,,,,,,,,,,,,,,,,,,,,,,271.70230699994136,None,,,,,,,,,,,,,,,,,269.7001831999514,None,,,,,,,,,,,,,,,,,,,,,,,,,,,,,,,,,,,,,,,,,,,,,,,,,,,,,,,,84,001,2023_Aug_30_1317,ExactRep-v3-final,2021.2.3,59.96070177791439,
,,,,9,0,9,0,,,,,,,,,,,,,,,,,,,,,,,,,,,,,,,,,,,,,,,,,,,,,,,,,,,,,,,,,274.2046117000282,None,,,,,,,,,,,,,,,,,272.2027404999826,None,,,,,,,,,,,,,,,,,,,,,,,,,,,,,,,,,,,,,,,,,,,,,,,,,,,,,,,,84,001,2023_Aug_30_1317,ExactRep-v3-final,2021.2.3,59.96070177791439,
,,,,10,0,10,0,,,,,,,,,,,,,,,,,,,,,,,,,,,,,,,,,,,,,,,,,,,,,,,,,,,,,,,,,276.7068350999616,None,,,,,,,,,,,,,,,,,274.7051570999902,None,,,,,,,,,,,,,,,,,,,,,,,,,,,,,,,,,,,,,,,,,,,,,,,,,,,,,,,,84,001,2023_Aug_30_1317,ExactRep-v3-final,2021.2.3,59.96070177791439,
,,,,11,0,11,0,,,,,,,,,,,,,,,,,,,,,,,,,,,,,,,,,,,,,,,,,,,,,,,,,,,,,,,,,279.2092081999872,None,,,,,,,,,,,,,,,,,277.20720319997054,None,,,,,,,,,,,,,,,,,,,,,,,,,,,,,,,,,,,,,,,,,,,,,,,,,,,,,,,,84,001,2023_Aug_30_1317,ExactRep-v3-final,2021.2.3,59.96070177791439,
,,,,12,0,12,0,,,,,,,,,,,,,,,,,,,,,,,,,,,,,,,,,,,,,,,,,,,,,,,,,,,,,,,,,281.7114728000015,None,,,,,,,,,,,,,,,,,279.7098349999869,None,,,,,,,,,,,,,,,,,,,,,,,,,,,,,,,,,,,,,,,,,,,,,,,,,,,,,,,,84,001,2023_Aug_30_1317,ExactRep-v3-final,2021.2.3,59.96070177791439,
,,,,13,0,13,0,,,,,,,,,,,,,,,,,,,,,,,,,,,,,,,,,,,,,,,,,,,,,,,,,,,,,,,,,284.2144325999543,None,,,,,,,,,,,,,,,,,282.212207900011,None,,,,,,,,,,,,,,,,,,,,,,,,,,,,,,,,,,,,,,,,,,,,,,,,,,,,,,,,84,001,2023_Aug_30_1317,ExactRep-v3-final,2021.2.3,59.96070177791439,
,,,,14,0,14,0,,,,,,,,,,,,,,,,,,,,,,,,,,,,,,,,,,,,,,,,,,,,,,,,,,,,,,,,,286.7168371999869,None,,,,,,,,,,,,,,,,,284.7146106000291,None,,,,,,,,,,,,,,,,,,,,,,,,,,,,,,,,,,,,,,,,,,,,,,,,,,,,,,,,84,001,2023_Aug_30_1317,ExactRep-v3-final,2021.2.3,59.96070177791439,
,,,,,,,,,,,,,,,,,,,,,,,,,,,,,,,,,,,,,,,,,,,,,,,,,,,,,,,,,,,,,,,,,,,,,,,,,,,,,,,,,,,,space,35.64173779997509,297.353059999994,None,,,,,,,,,,,,,,,,,,,,,,,,,,,,,,,,,,,,,,,,,,,,,,,,,,,,84,001,2023_Aug_30_1317,ExactRep-v3-final,2021.2.3,59.96070177791439,
,,,,,,,,0,0,0,0,,,,,,,,,,,,,,,,,,,,,,,,,,,,,,,,,,,,,,,,,,,,,,,,,,,,,335.08222650003154,None,,,,,,,,,,,,,,,,,,,,,,,287.40461910003796,None,287.40461910003796,None,287.40461910003796,None,287.40461910003796,None,287.40461910003796,None,287.40461910003796,None,master,101,1,aloud,white,333.080472099944,None,None,333.080472099944,None,,,,,,,,,,,,,,,,,,,,,,,,,,,,,,84,001,2023_Aug_30_1317,ExactRep-v3-final,2021.2.3,59.96070177791439,
,,,,,,,,1,0,1,0,,,,,,,,,,,,,,,,,,,,,,,,,,,,,,,,,,,,,,,,,,,,,,,,,,,,,337.60144080000464,None,,,,,,,,,,,,,,,,,,,,,,,,,,,,,,,,,,,girl,66,2,silent,blue,335.58662299998105,None,None,335.58662299998105,None,,,,,,,,,,,,,,,,,,,,,,,,,,,,,,84,001,2023_Aug_30_1317,ExactRep-v3-final,2021.2.3,59.96070177791439,
,,,,,,,,2,0,2,0,,,,,,,,,,,,,,,,,,,,,,,,,,,,,,,,,,,,,,,,,,,,,,,,,,,,,340.1201770999469,None,,,,,,,,,,,,,,,,,,,,,,,,,,,,,,,,,,,coin,83,3,aloud,white,338.10914559999947,None,None,338.10914559999947,None,,,,,,,,,,,,,,,,,,,,,,,,,,,,,,84,001,2023_Aug_30_1317,ExactRep-v3-final,2021.2.3,59.96070177791439,
,,,,,,,,3,0,3,0,,,,,,,,,,,,,,,,,,,,,,,,,,,,,,,,,,,,,,,,,,,,,,,,,,,,,342.62252520001493,None,,,,,,,,,,,,,,,,,,,,,,,,,,,,,,,,,,,ability,73,4,silent,blue,340.6205307999626,None,None,340.6205307999626,None,,,,,,,,,,,,,,,,,,,,,,,,,,,,,,84,001,2023_Aug_30_1317,ExactRep-v3-final,2021.2.3,59.96070177791439,
,,,,,,,,4,0,4,0,,,,,,,,,,,,,,,,,,,,,,,,,,,,,,,,,,,,,,,,,,,,,,,,,,,,,345.14164399995934,None,,,,,,,,,,,,,,,,,,,,,,,,,,,,,,,,,,,river,86,5,aloud,white,343.12922719994094,None,None,343.12922719994094,None,,,,,,,,,,,,,,,,,,,,,,,,,,,,,,84,001,2023_Aug_30_1317,ExactRep-v3-final,2021.2.3,59.96070177791439,
,,,,,,,,5,0,5,0,,,,,,,,,,,,,,,,,,,,,,,,,,,,,,,,,,,,,,,,,,,,,,,,,,,,,347.6442157999845,None,,,,,,,,,,,,,,,,,,,,,,,,,,,,,,,,,,,grass,12,6,sing,red,345.6423098000232,None,None,345.6423098000232,None,,,,,,,,,,,,,,,,,,,,,,,,,,,,,,84,001,2023_Aug_30_1317,ExactRep-v3-final,2021.2.3,59.96070177791439,
,,,,,,,,6,0,6,0,,,,,,,,,,,,,,,,,,,,,,,,,,,,,,,,,,,,,,,,,,,,,,,,,,,,,350.1470210000407,None,,,,,,,,,,,,,,,,,,,,,,,,,,,,,,,,,,,butter,72,7,silent,blue,348.14499790000264,None,None,348.14499790000264,None,,,,,,,,,,,,,,,,,,,,,,,,,,,,,,84,001,2023_Aug_30_1317,ExactRep-v3-final,2021.2.3,59.96070177791439,
,,,,,,,,7,0,7,0,,,,,,,,,,,,,,,,,,,,,,,,,,,,,,,,,,,,,,,,,,,,,,,,,,,,,352.65007770003285,None,,,,,,,,,,,,,,,,,,,,,,,,,,,,,,,,,,,cash,109,8,aloud,white,350.6488174999831,None,None,350.6488174999831,None,,,,,,,,,,,,,,,,,,,,,,,,,,,,,,84,001,2023_Aug_30_1317,ExactRep-v3-final,2021.2.3,59.96070177791439,
,,,,,,,,8,0,8,0,,,,,,,,,,,,,,,,,,,,,,,,,,,,,,,,,,,,,,,,,,,,,,,,,,,,,355.1687129000202,None,,,,,,,,,,,,,,,,,,,,,,,,,,,,,,,,,,,heaven,82,9,aloud,white,353.1535548999673,None,None,353.1535548999673,None,,,,,,,,,,,,,,,,,,,,,,,,,,,,,,84,001,2023_Aug_30_1317,ExactRep-v3-final,2021.2.3,59.96070177791439,
,,,,,,,,9,0,9,0,,,,,,,,,,,,,,,,,,,,,,,,,,,,,,,,,,,,,,,,,,,,,,,,,,,,,357.6875665000407,None,,,,,,,,,,,,,,,,,,,,,,,,,,,,,,,,,,,truth,18,10,sing,red,355.67580339999404,None,None,355.67580339999404,None,,,,,,,,,,,,,,,,,,,,,,,,,,,,,,84,001,2023_Aug_30_1317,ExactRep-v3-final,2021.2.3,59.96070177791439,
,,,,,,,,10,0,10,0,,,,,,,,,,,,,,,,,,,,,,,,,,,,,,,,,,,,,,,,,,,,,,,,,,,,,360.1899112999672,None,,,,,,,,,,,,,,,,,,,,,,,,,,,,,,,,,,,bowl,106,11,aloud,white,358.18853919999674,None,None,358.18853919999674,None,,,,,,,,,,,,,,,,,,,,,,,,,,,,,,84,001,2023_Aug_30_1317,ExactRep-v3-final,2021.2.3,59.96070177791439,
,,,,,,,,11,0,11,0,,,,,,,,,,,,,,,,,,,,,,,,,,,,,,,,,,,,,,,,,,,,,,,,,,,,,362.6925890999846,None,,,,,,,,,,,,,,,,,,,,,,,,,,,,,,,,,,,science,70,12,silent,blue,360.69088869995903,None,None,360.69088869995903,None,,,,,,,,,,,,,,,,,,,,,,,,,,,,,,84,001,2023_Aug_30_1317,ExactRep-v3-final,2021.2.3,59.96070177791439,
,,,,,,,,12,0,12,0,,,,,,,,,,,,,,,,,,,,,,,,,,,,,,,,,,,,,,,,,,,,,,,,,,,,,365.2122087000171,None,,,,,,,,,,,,,,,,,,,,,,,,,,,,,,,,,,,salary,114,13,aloud,white,363.19970989995636,None,None,363.19970989995636,None,,,,,,,,,,,,,,,,,,,,,,,,,,,,,,84,001,2023_Aug_30_1317,ExactRep-v3-final,2021.2.3,59.96070177791439,
,,,,,,,,13,0,13,0,,,,,,,,,,,,,,,,,,,,,,,,,,,,,,,,,,,,,,,,,,,,,,,,,,,,,367.73209159995895,None,,,,,,,,,,,,,,,,,,,,,,,,,,,,,,,,,,,bar,19,14,sing,red,365.7156982999295,None,None,365.7156982999295,None,,,,,,,,,,,,,,,,,,,,,,,,,,,,,,84,001,2023_Aug_30_1317,ExactRep-v3-final,2021.2.3,59.96070177791439,
,,,,,,,,14,0,14,0,,,,,,,,,,,,,,,,,,,,,,,,,,,,,,,,,,,,,,,,,,,,,,,,,,,,,370.2338712000055,None,,,,,,,,,,,,,,,,,,,,,,,,,,,,,,,,,,,earth,33,15,sing,red,368.23456579993945,None,None,368.23456579993945,None,,,,,,,,,,,,,,,,,,,,,,,,,,,,,,84,001,2023_Aug_30_1317,ExactRep-v3-final,2021.2.3,59.96070177791439,
,,,,,,,,15,0,15,0,,,,,,,,,,,,,,,,,,,,,,,,,,,,,,,,,,,,,,,,,,,,,,,,,,,,,372.7363519000355,None,,,,,,,,,,,,,,,,,,,,,,,,,,,,,,,,,,,home,26,16,sing,red,370.73658180003986,None,None,370.73658180003986,None,,,,,,,,,,,,,,,,,,,,,,,,,,,,,,84,001,2023_Aug_30_1317,ExactRep-v3-final,2021.2.3,59.96070177791439,
,,,,,,,,16,0,16,0,,,,,,,,,,,,,,,,,,,,,,,,,,,,,,,,,,,,,,,,,,,,,,,,,,,,,375.2390350999776,None,,,,,,,,,,,,,,,,,,,,,,,,,,,,,,,,,,,slave,43,17,silent,blue,373.2376790000126,None,None,373.2376790000126,None,,,,,,,,,,,,,,,,,,,,,,,,,,,,,,84,001,2023_Aug_30_1317,ExactRep-v3-final,2021.2.3,59.96070177791439,
,,,,,,,,17,0,17,0,,,,,,,,,,,,,,,,,,,,,,,,,,,,,,,,,,,,,,,,,,,,,,,,,,,,,377.7577714000363,None,,,,,,,,,,,,,,,,,,,,,,,,,,,,,,,,,,,hide,7,18,sing,red,375.74605119996704,None,None,375.74605119996704,None,,,,,,,,,,,,,,,,,,,,,,,,,,,,,,84,001,2023_Aug_30_1317,ExactRep-v3-final,2021.2.3,59.96070177791439,
,,,,,,,,18,0,18,0,,,,,,,,,,,,,,,,,,,,,,,,,,,,,,,,,,,,,,,,,,,,,,,,,,,,,380.27708080003504,None,,,,,,,,,,,,,,,,,,,,,,,,,,,,,,,,,,,ocean,51,19,silent,blue,378.26226089999545,None,None,378.26226089999545,None,,,,,,,,,,,,,,,,,,,,,,,,,,,,,,84,001,2023_Aug_30_1317,ExactRep-v3-final,2021.2.3,59.96070177791439,
,,,,,,,,19,0,19,0,,,,,,,,,,,,,,,,,,,,,,,,,,,,,,,,,,,,,,,,,,,,,,,,,,,,,382.79622339992784,None,,,,,,,,,,,,,,,,,,,,,,,,,,,,,,,,,,,maiden,31,20,sing,red,380.78430129995104,None,None,380.78430129995104,None,,,,,,,,,,,,,,,,,,,,,,,,,,,,,,84,001,2023_Aug_30_1317,ExactRep-v3-final,2021.2.3,59.96070177791439,
,,,,,,,,20,0,20,0,,,,,,,,,,,,,,,,,,,,,,,,,,,,,,,,,,,,,,,,,,,,,,,,,,,,,385.2985138000222,None,,,,,,,,,,,,,,,,,,,,,,,,,,,,,,,,,,,body,65,21,silent,blue,383.29707770003006,None,None,383.29707770003006,None,,,,,,,,,,,,,,,,,,,,,,,,,,,,,,84,001,2023_Aug_30_1317,ExactRep-v3-final,2021.2.3,59.96070177791439,
,,,,,,,,21,0,21,0,,,,,,,,,,,,,,,,,,,,,,,,,,,,,,,,,,,,,,,,,,,,,,,,,,,,,387.8178246000316,None,,,,,,,,,,,,,,,,,,,,,,,,,,,,,,,,,,,market,52,22,silent,blue,385.8089079000056,None,None,385.8089079000056,None,,,,,,,,,,,,,,,,,,,,,,,,,,,,,,84,001,2023_Aug_30_1317,ExactRep-v3-final,2021.2.3,59.96070177791439,
,,,,,,,,22,0,22,0,,,,,,,,,,,,,,,,,,,,,,,,,,,,,,,,,,,,,,,,,,,,,,,,,,,,,390.3201595999999,None,,,,,,,,,,,,,,,,,,,,,,,,,,,,,,,,,,,virtue,10,23,sing,red,388.31934779998846,None,None,388.31934779998846,None,,,,,,,,,,,,,,,,,,,,,,,,,,,,,,84,001,2023_Aug_30_1317,ExactRep-v3-final,2021.2.3,59.96070177791439,
,,,,,,,,23,0,23,0,,,,,,,,,,,,,,,,,,,,,,,,,,,,,,,,,,,,,,,,,,,,,,,,,,,,,392.82282919995487,None,,,,,,,,,,,,,,,,,,,,,,,,,,,,,,,,,,,lad,32,24,sing,red,390.820874499972,None,None,390.820874499972,None,,,,,,,,,,,,,,,,,,,,,,,,,,,,,,84,001,2023_Aug_30_1317,ExactRep-v3-final,2021.2.3,59.96070177791439,
,,,,,,,,24,0,24,0,,,,,,,,,,,,,,,,,,,,,,,,,,,,,,,,,,,,,,,,,,,,,,,,,,,,,395.3252637999831,None,,,,,,,,,,,,,,,,,,,,,,,,,,,,,,,,,,,fortune,56,25,silent,blue,393.32578620000277,None,None,393.32578620000277,None,,,,,,,,,,,,,,,,,,,,,,,,,,,,,,84,001,2023_Aug_30_1317,ExactRep-v3-final,2021.2.3,59.96070177791439,
,,,,,,,,25,0,25,0,,,,,,,,,,,,,,,,,,,,,,,,,,,,,,,,,,,,,,,,,,,,,,,,,,,,,397.84462949994486,None,,,,,,,,,,,,,,,,,,,,,,,,,,,,,,,,,,,woods,100,26,aloud,white,395.82952769997064,None,None,395.82952769997064,None,,,,,,,,,,,,,,,,,,,,,,,,,,,,,,84,001,2023_Aug_30_1317,ExactRep-v3-final,2021.2.3,59.96070177791439,
,,,,,,,,26,0,26,0,,,,,,,,,,,,,,,,,,,,,,,,,,,,,,,,,,,,,,,,,,,,,,,,,,,,,400.3468547000084,None,,,,,,,,,,,,,,,,,,,,,,,,,,,,,,,,,,,cat,110,27,aloud,white,398.34691560000647,None,None,398.34691560000647,None,,,,,,,,,,,,,,,,,,,,,,,,,,,,,,84,001,2023_Aug_30_1317,ExactRep-v3-final,2021.2.3,59.96070177791439,
,,,,,,,,27,0,27,0,,,,,,,,,,,,,,,,,,,,,,,,,,,,,,,,,,,,,,,,,,,,,,,,,,,,,402.8493699999526,None,,,,,,,,,,,,,,,,,,,,,,,,,,,,,,,,,,,humour,17,28,sing,red,400.8475791999372,None,None,400.8475791999372,None,,,,,,,,,,,,,,,,,,,,,,,,,,,,,,84,001,2023_Aug_30_1317,ExactRep-v3-final,2021.2.3,59.96070177791439,
,,,,,,,,28,0,28,0,,,,,,,,,,,,,,,,,,,,,,,,,,,,,,,,,,,,,,,,,,,,,,,,,,,,,405.35209850000683,None,,,,,,,,,,,,,,,,,,,,,,,,,,,,,,,,,,,avenue,54,29,silent,blue,403.3503582000267,None,None,403.3503582000267,None,,,,,,,,,,,,,,,,,,,,,,,,,,,,,,84,001,2023_Aug_30_1317,ExactRep-v3-final,2021.2.3,59.96070177791439,
,,,,,,,,29,0,29,0,,,,,,,,,,,,,,,,,,,,,,,,,,,,,,,,,,,,,,,,,,,,,,,,,,,,,407.87224679999053,None,,,,,,,,,,,,,,,,,,,,,,,,,,,,,,,,,,,effort,61,30,silent,blue,405.8560485999333,None,None,405.8560485999333,None,,,,,,,,,,,,,,,,,,,,,,,,,,,,,,84,001,2023_Aug_30_1317,ExactRep-v3-final,2021.2.3,59.96070177791439,
,,,,,,,,30,0,30,0,,,,,,,,,,,,,,,,,,,,,,,,,,,,,,,,,,,,,,,,,,,,,,,,,,,,,410.39043080003466,None,,,,,,,,,,,,,,,,,,,,,,,,,,,,,,,,,,,fact,57,31,silent,blue,408.37457139999606,None,None,408.37457139999606,None,,,,,,,,,,,,,,,,,,,,,,,,,,,,,,84,001,2023_Aug_30_1317,ExactRep-v3-final,2021.2.3,59.96070177791439,
,,,,,,,,31,0,31,0,,,,,,,,,,,,,,,,,,,,,,,,,,,,,,,,,,,,,,,,,,,,,,,,,,,,,412.8932278000284,None,,,,,,,,,,,,,,,,,,,,,,,,,,,,,,,,,,,love,41,32,silent,blue,410.89071409997996,None,None,410.89071409997996,None,,,,,,,,,,,,,,,,,,,,,,,,,,,,,,84,001,2023_Aug_30_1317,ExactRep-v3-final,2021.2.3,59.96070177791439,
,,,,,,,,32,0,32,0,,,,,,,,,,,,,,,,,,,,,,,,,,,,,,,,,,,,,,,,,,,,,,,,,,,,,415.4121394000249,None,,,,,,,,,,,,,,,,,,,,,,,,,,,,,,,,,,,plant,49,33,silent,blue,413.3977958000032,None,None,413.3977958000032,None,,,,,,,,,,,,,,,,,,,,,,,,,,,,,,84,001,2023_Aug_30_1317,ExactRep-v3-final,2021.2.3,59.96070177791439,
,,,,,,,,33,0,33,0,,,,,,,,,,,,,,,,,,,,,,,,,,,,,,,,,,,,,,,,,,,,,,,,,,,,,417.9313688999973,None,,,,,,,,,,,,,,,,,,,,,,,,,,,,,,,,,,,flood,78,34,silent,blue,415.92202129994985,None,None,415.92202129994985,None,,,,,,,,,,,,,,,,,,,,,,,,,,,,,,84,001,2023_Aug_30_1317,ExactRep-v3-final,2021.2.3,59.96070177791439,
,,,,,,,,34,0,34,0,,,,,,,,,,,,,,,,,,,,,,,,,,,,,,,,,,,,,,,,,,,,,,,,,,,,,420.45511470001657,None,,,,,,,,,,,,,,,,,,,,,,,,,,,,,,,,,,,shadow,90,35,aloud,white,418.4382921999786,None,None,418.4382921999786,None,,,,,,,,,,,,,,,,,,,,,,,,,,,,,,84,001,2023_Aug_30_1317,ExactRep-v3-final,2021.2.3,59.96070177791439,
,,,,,,,,35,0,35,0,,,,,,,,,,,,,,,,,,,,,,,,,,,,,,,,,,,,,,,,,,,,,,,,,,,,,422.96972339996137,None,,,,,,,,,,,,,,,,,,,,,,,,,,,,,,,,,,,square,15,36,sing,red,420.970266600023,None,None,420.970266600023,None,,,,,,,,,,,,,,,,,,,,,,,,,,,,,,84,001,2023_Aug_30_1317,ExactRep-v3-final,2021.2.3,59.96070177791439,
,,,,,,,,36,0,36,0,,,,,,,,,,,,,,,,,,,,,,,,,,,,,,,,,,,,,,,,,,,,,,,,,,,,,425.48914339998737,None,,,,,,,,,,,,,,,,,,,,,,,,,,,,,,,,,,,house,47,37,silent,blue,423.47730539995246,None,None,423.47730539995246,None,,,,,,,,,,,,,,,,,,,,,,,,,,,,,,84,001,2023_Aug_30_1317,ExactRep-v3-final,2021.2.3,59.96070177791439,
,,,,,,,,37,0,37,0,,,,,,,,,,,,,,,,,,,,,,,,,,,,,,,,,,,,,,,,,,,,,,,,,,,,,427.99164759996347,None,,,,,,,,,,,,,,,,,,,,,,,,,,,,,,,,,,,origin,13,38,sing,red,425.9891330000246,None,None,425.9891330000246,None,,,,,,,,,,,,,,,,,,,,,,,,,,,,,,84,001,2023_Aug_30_1317,ExactRep-v3-final,2021.2.3,59.96070177791439,
,,,,,,,,38,0,38,0,,,,,,,,,,,,,,,,,,,,,,,,,,,,,,,,,,,,,,,,,,,,,,,,,,,,,430.4964083000086,None,,,,,,,,,,,,,,,,,,,,,,,,,,,,,,,,,,,form,8,39,sing,red,428.4937274999684,None,None,428.4937274999684,None,,,,,,,,,,,,,,,,,,,,,,,,,,,,,,84,001,2023_Aug_30_1317,ExactRep-v3-final,2021.2.3,59.96070177791439,
,,,,,,,,39,0,39,0,,,,,,,,,,,,,,,,,,,,,,,,,,,,,,,,,,,,,,,,,,,,,,,,,,,,,433.0130469999276,None,,,,,,,,,,,,,,,,,,,,,,,,,,,,,,,,,,,village,30,40,sing,red,431.01374159997795,None,None,431.01374159997795,None,,,,,,,,,,,,,,,,,,,,,,,,,,,,,,84,001,2023_Aug_30_1317,ExactRep-v3-final,2021.2.3,59.96070177791439,
,,,,,,,,40,0,40,0,,,,,,,,,,,,,,,,,,,,,,,,,,,,,,,,,,,,,,,,,,,,,,,,,,,,,435.53227470000274,None,,,,,,,,,,,,,,,,,,,,,,,,,,,,,,,,,,,grief,5,41,sing,red,433.51733169995714,None,None,433.51733169995714,None,,,,,,,,,,,,,,,,,,,,,,,,,,,,,,84,001,2023_Aug_30_1317,ExactRep-v3-final,2021.2.3,59.96070177791439,
,,,,,,,,41,0,41,0,,,,,,,,,,,,,,,,,,,,,,,,,,,,,,,,,,,,,,,,,,,,,,,,,,,,,438.0523169999942,None,,,,,,,,,,,,,,,,,,,,,,,,,,,,,,,,,,,journal,64,42,silent,blue,436.0398486999329,None,None,436.0398486999329,None,,,,,,,,,,,,,,,,,,,,,,,,,,,,,,84,001,2023_Aug_30_1317,ExactRep-v3-final,2021.2.3,59.96070177791439,
,,,,,,,,42,0,42,0,,,,,,,,,,,,,,,,,,,,,,,,,,,,,,,,,,,,,,,,,,,,,,,,,,,,,440.57032559998333,None,,,,,,,,,,,,,,,,,,,,,,,,,,,,,,,,,,,person,11,43,sing,red,438.55635900003836,None,None,438.55635900003836,None,,,,,,,,,,,,,,,,,,,,,,,,,,,,,,84,001,2023_Aug_30_1317,ExactRep-v3-final,2021.2.3,59.96070177791439,
,,,,,,,,43,0,43,0,,,,,,,,,,,,,,,,,,,,,,,,,,,,,,,,,,,,,,,,,,,,,,,,,,,,,443.0730709999334,None,,,,,,,,,,,,,,,,,,,,,,,,,,,,,,,,,,,soil,96,44,aloud,white,441.0709672999801,None,None,441.0709672999801,None,,,,,,,,,,,,,,,,,,,,,,,,,,,,,,84,001,2023_Aug_30_1317,ExactRep-v3-final,2021.2.3,59.96070177791439,
,,,,,,,,44,0,44,0,,,,,,,,,,,,,,,,,,,,,,,,,,,,,,,,,,,,,,,,,,,,,,,,,,,,,445.5755258999998,None,,,,,,,,,,,,,,,,,,,,,,,,,,,,,,,,,,,nail,115,45,aloud,white,443.5754737999523,None,None,443.5754737999523,None,,,,,,,,,,,,,,,,,,,,,,,,,,,,,,84,001,2023_Aug_30_1317,ExactRep-v3-final,2021.2.3,59.96070177791439,
,,,,,,,,45,0,45,0,,,,,,,,,,,,,,,,,,,,,,,,,,,,,,,,,,,,,,,,,,,,,,,,,,,,,448.0778768999735,None,,,,,,,,,,,,,,,,,,,,,,,,,,,,,,,,,,,cost,63,46,silent,blue,446.07666150003206,None,None,446.07666150003206,None,,,,,,,,,,,,,,,,,,,,,,,,,,,,,,84,001,2023_Aug_30_1317,ExactRep-v3-final,2021.2.3,59.96070177791439,
,,,,,,,,46,0,46,0,,,,,,,,,,,,,,,,,,,,,,,,,,,,,,,,,,,,,,,,,,,,,,,,,,,,,450.58031889994163,None,,,,,,,,,,,,,,,,,,,,,,,,,,,,,,,,,,,hour,38,47,sing,red,448.57878849992994,None,None,448.57878849992994,None,,,,,,,,,,,,,,,,,,,,,,,,,,,,,,84,001,2023_Aug_30_1317,ExactRep-v3-final,2021.2.3,59.96070177791439,
,,,,,,,,47,0,47,0,,,,,,,,,,,,,,,,,,,,,,,,,,,,,,,,,,,,,,,,,,,,,,,,,,,,,453.099656800041,None,,,,,,,,,,,,,,,,,,,,,,,,,,,,,,,,,,,memory,55,48,silent,blue,451.0857742000371,None,None,451.0857742000371,None,,,,,,,,,,,,,,,,,,,,,,,,,,,,,,84,001,2023_Aug_30_1317,ExactRep-v3-final,2021.2.3,59.96070177791439,
,,,,,,,,48,0,48,0,,,,,,,,,,,,,,,,,,,,,,,,,,,,,,,,,,,,,,,,,,,,,,,,,,,,,455.60235689999536,None,,,,,,,,,,,,,,,,,,,,,,,,,,,,,,,,,,,leader,74,49,silent,blue,453.6022128999466,None,None,453.6022128999466,None,,,,,,,,,,,,,,,,,,,,,,,,,,,,,,84,001,2023_Aug_30_1317,ExactRep-v3-final,2021.2.3,59.96070177791439,
,,,,,,,,49,0,49,0,,,,,,,,,,,,,,,,,,,,,,,,,,,,,,,,,,,,,,,,,,,,,,,,,,,,,458.12087320000865,None,,,,,,,,,,,,,,,,,,,,,,,,,,,,,,,,,,,dress,93,50,aloud,white,456.10643779998645,None,None,456.10643779998645,None,,,,,,,,,,,,,,,,,,,,,,,,,,,,,,84,001,2023_Aug_30_1317,ExactRep-v3-final,2021.2.3,59.96070177791439,
,,,,,,,,50,0,50,0,,,,,,,,,,,,,,,,,,,,,,,,,,,,,,,,,,,,,,,,,,,,,,,,,,,,,460.640866599977,None,,,,,,,,,,,,,,,,,,,,,,,,,,,,,,,,,,,hope,88,51,aloud,white,458.62805329996627,None,None,458.62805329996627,None,,,,,,,,,,,,,,,,,,,,,,,,,,,,,,84,001,2023_Aug_30_1317,ExactRep-v3-final,2021.2.3,59.96070177791439,
,,,,,,,,51,0,51,0,,,,,,,,,,,,,,,,,,,,,,,,,,,,,,,,,,,,,,,,,,,,,,,,,,,,,463.1598816999467,None,,,,,,,,,,,,,,,,,,,,,,,,,,,,,,,,,,,army,105,52,aloud,white,461.14462189993355,None,None,461.14462189993355,None,,,,,,,,,,,,,,,,,,,,,,,,,,,,,,84,001,2023_Aug_30_1317,ExactRep-v3-final,2021.2.3,59.96070177791439,
,,,,,,,,52,0,52,0,,,,,,,,,,,,,,,,,,,,,,,,,,,,,,,,,,,,,,,,,,,,,,,,,,,,,465.6620476000244,None,,,,,,,,,,,,,,,,,,,,,,,,,,,,,,,,,,,meat,58,53,silent,blue,463.66001849994063,None,None,463.66001849994063,None,,,,,,,,,,,,,,,,,,,,,,,,,,,,,,84,001,2023_Aug_30_1317,ExactRep-v3-final,2021.2.3,59.96070177791439,
,,,,,,,,53,0,53,0,,,,,,,,,,,,,,,,,,,,,,,,,,,,,,,,,,,,,,,,,,,,,,,,,,,,,468.1843246000353,None,,,,,,,,,,,,,,,,,,,,,,,,,,,,,,,,,,,insect,85,54,aloud,white,466.1667103000218,None,None,466.1667103000218,None,,,,,,,,,,,,,,,,,,,,,,,,,,,,,,84,001,2023_Aug_30_1317,ExactRep-v3-final,2021.2.3,59.96070177791439,
,,,,,,,,54,0,54,0,,,,,,,,,,,,,,,,,,,,,,,,,,,,,,,,,,,,,,,,,,,,,,,,,,,,,470.6838294999907,None,,,,,,,,,,,,,,,,,,,,,,,,,,,,,,,,,,,dollar,92,55,aloud,white,468.6837683999911,None,None,468.6837683999911,None,,,,,,,,,,,,,,,,,,,,,,,,,,,,,,84,001,2023_Aug_30_1317,ExactRep-v3-final,2021.2.3,59.96070177791439,
,,,,,,,,55,0,55,0,,,,,,,,,,,,,,,,,,,,,,,,,,,,,,,,,,,,,,,,,,,,,,,,,,,,,473.20305579993874,None,,,,,,,,,,,,,,,,,,,,,,,,,,,,,,,,,,,crime,84,56,aloud,white,471.18922299996484,None,None,471.18922299996484,None,,,,,,,,,,,,,,,,,,,,,,,,,,,,,,84,001,2023_Aug_30_1317,ExactRep-v3-final,2021.2.3,59.96070177791439,
,,,,,,,,56,0,56,0,,,,,,,,,,,,,,,,,,,,,,,,,,,,,,,,,,,,,,,,,,,,,,,,,,,,,475.7056985000381,None,,,,,,,,,,,,,,,,,,,,,,,,,,,,,,,,,,,law,67,57,silent,blue,473.7049282999942,None,None,473.7049282999942,None,,,,,,,,,,,,,,,,,,,,,,,,,,,,,,84,001,2023_Aug_30_1317,ExactRep-v3-final,2021.2.3,59.96070177791439,
,,,,,,,,57,0,57,0,,,,,,,,,,,,,,,,,,,,,,,,,,,,,,,,,,,,,,,,,,,,,,,,,,,,,478.22455909999553,None,,,,,,,,,,,,,,,,,,,,,,,,,,,,,,,,,,,horse,1,58,sing,red,476.2098318999633,None,None,476.2098318999633,None,,,,,,,,,,,,,,,,,,,,,,,,,,,,,,84,001,2023_Aug_30_1317,ExactRep-v3-final,2021.2.3,59.96070177791439,
,,,,,,,,58,0,58,0,,,,,,,,,,,,,,,,,,,,,,,,,,,,,,,,,,,,,,,,,,,,,,,,,,,,,480.7272528000176,None,,,,,,,,,,,,,,,,,,,,,,,,,,,,,,,,,,,friend,35,59,sing,red,478.7252307999879,None,None,478.7252307999879,None,,,,,,,,,,,,,,,,,,,,,,,,,,,,,,84,001,2023_Aug_30_1317,ExactRep-v3-final,2021.2.3,59.96070177791439,
,,,,,,,,59,0,59,0,,,,,,,,,,,,,,,,,,,,,,,,,,,,,,,,,,,,,,,,,,,,,,,,,,,,,483.22975870000664,None,,,,,,,,,,,,,,,,,,,,,,,,,,,,,,,,,,,excuse,22,60,sing,red,481.2299796999432,None,None,481.2299796999432,None,,,,,,,,,,,,,,,,,,,,,,,,,,,,,,84,001,2023_Aug_30_1317,ExactRep-v3-final,2021.2.3,59.96070177791439,
,,,,,,,,60,0,60,0,,,,,,,,,,,,,,,,,,,,,,,,,,,,,,,,,,,,,,,,,,,,,,,,,,,,,485.7499517999822,None,,,,,,,,,,,,,,,,,,,,,,,,,,,,,,,,,,,mind,119,61,aloud,white,483.7386112000095,None,None,483.7386112000095,None,,,,,,,,,,,,,,,,,,,,,,,,,,,,,,84,001,2023_Aug_30_1317,ExactRep-v3-final,2021.2.3,59.96070177791439,
,,,,,,,,61,0,61,0,,,,,,,,,,,,,,,,,,,,,,,,,,,,,,,,,,,,,,,,,,,,,,,,,,,,,488.2518502000021,None,,,,,,,,,,,,,,,,,,,,,,,,,,,,,,,,,,,library,21,62,sing,red,486.2515287999995,None,None,486.2515287999995,None,,,,,,,,,,,,,,,,,,,,,,,,,,,,,,84,001,2023_Aug_30_1317,ExactRep-v3-final,2021.2.3,59.96070177791439,
,,,,,,,,62,0,62,0,,,,,,,,,,,,,,,,,,,,,,,,,,,,,,,,,,,,,,,,,,,,,,,,,,,,,490.7707086999435,None,,,,,,,,,,,,,,,,,,,,,,,,,,,,,,,,,,,method,89,63,aloud,white,488.7565794000402,None,None,488.7565794000402,None,,,,,,,,,,,,,,,,,,,,,,,,,,,,,,84,001,2023_Aug_30_1317,ExactRep-v3-final,2021.2.3,59.96070177791439,
,,,,,,,,63,0,63,0,,,,,,,,,,,,,,,,,,,,,,,,,,,,,,,,,,,,,,,,,,,,,,,,,,,,,493.2912356000161,None,,,,,,,,,,,,,,,,,,,,,,,,,,,,,,,,,,,shoes,50,64,silent,blue,491.27984890004154,None,None,491.27984890004154,None,,,,,,,,,,,,,,,,,,,,,,,,,,,,,,84,001,2023_Aug_30_1317,ExactRep-v3-final,2021.2.3,59.96070177791439,
,,,,,,,,64,0,64,0,,,,,,,,,,,,,,,,,,,,,,,,,,,,,,,,,,,,,,,,,,,,,,,,,,,,,495.80911679996643,None,,,,,,,,,,,,,,,,,,,,,,,,,,,,,,,,,,,troops,117,65,aloud,white,493.7982700000284,None,None,493.7982700000284,None,,,,,,,,,,,,,,,,,,,,,,,,,,,,,,84,001,2023_Aug_30_1317,ExactRep-v3-final,2021.2.3,59.96070177791439,
,,,,,,,,65,0,65,0,,,,,,,,,,,,,,,,,,,,,,,,,,,,,,,,,,,,,,,,,,,,,,,,,,,,,498.3113007999491,None,,,,,,,,,,,,,,,,,,,,,,,,,,,,,,,,,,,mother,116,66,aloud,white,496.3121457999805,None,None,496.3121457999805,None,,,,,,,,,,,,,,,,,,,,,,,,,,,,,,84,001,2023_Aug_30_1317,ExactRep-v3-final,2021.2.3,59.96070177791439,
,,,,,,,,66,0,66,0,,,,,,,,,,,,,,,,,,,,,,,,,,,,,,,,,,,,,,,,,,,,,,,,,,,,,500.81386160000693,None,,,,,,,,,,,,,,,,,,,,,,,,,,,,,,,,,,,garden,9,67,sing,red,498.81234129995573,None,None,498.81234129995573,None,,,,,,,,,,,,,,,,,,,,,,,,,,,,,,84,001,2023_Aug_30_1317,ExactRep-v3-final,2021.2.3,59.96070177791439,
,,,,,,,,67,0,67,0,,,,,,,,,,,,,,,,,,,,,,,,,,,,,,,,,,,,,,,,,,,,,,,,,,,,,503.3163179999683,None,,,,,,,,,,,,,,,,,,,,,,,,,,,,,,,,,,,health,36,68,sing,red,501.31493160000537,None,None,501.31493160000537,None,,,,,,,,,,,,,,,,,,,,,,,,,,,,,,84,001,2023_Aug_30_1317,ExactRep-v3-final,2021.2.3,59.96070177791439,
,,,,,,,,68,0,68,0,,,,,,,,,,,,,,,,,,,,,,,,,,,,,,,,,,,,,,,,,,,,,,,,,,,,,505.81891549995635,None,,,,,,,,,,,,,,,,,,,,,,,,,,,,,,,,,,,dust,87,69,aloud,white,503.8173651000252,None,None,503.8173651000252,None,,,,,,,,,,,,,,,,,,,,,,,,,,,,,,84,001,2023_Aug_30_1317,ExactRep-v3-final,2021.2.3,59.96070177791439,
,,,,,,,,69,0,69,0,,,,,,,,,,,,,,,,,,,,,,,,,,,,,,,,,,,,,,,,,,,,,,,,,,,,,508.3380237999372,None,,,,,,,,,,,,,,,,,,,,,,,,,,,,,,,,,,,church,103,70,aloud,white,506.32312580000143,None,None,506.32312580000143,None,,,,,,,,,,,,,,,,,,,,,,,,,,,,,,84,001,2023_Aug_30_1317,ExactRep-v3-final,2021.2.3,59.96070177791439,
,,,,,,,,70,0,70,0,,,,,,,,,,,,,,,,,,,,,,,,,,,,,,,,,,,,,,,,,,,,,,,,,,,,,510.85749369999394,None,,,,,,,,,,,,,,,,,,,,,,,,,,,,,,,,,,,valley,102,71,aloud,white,508.8449282000074,None,None,508.8449282000074,None,,,,,,,,,,,,,,,,,,,,,,,,,,,,,,84,001,2023_Aug_30_1317,ExactRep-v3-final,2021.2.3,59.96070177791439,
,,,,,,,,71,0,71,0,,,,,,,,,,,,,,,,,,,,,,,,,,,,,,,,,,,,,,,,,,,,,,,,,,,,,513.3598590999609,None,,,,,,,,,,,,,,,,,,,,,,,,,,,,,,,,,,,lord,16,72,sing,red,511.3582712999778,None,None,511.3582712999778,None,,,,,,,,,,,,,,,,,,,,,,,,,,,,,,84,001,2023_Aug_30_1317,ExactRep-v3-final,2021.2.3,59.96070177791439,
,,,,,,,,72,0,72,0,,,,,,,,,,,,,,,,,,,,,,,,,,,,,,,,,,,,,,,,,,,,,,,,,,,,,515.8624706999399,None,,,,,,,,,,,,,,,,,,,,,,,,,,,,,,,,,,,camp,20,73,sing,red,513.8607028999832,None,None,513.8607028999832,None,,,,,,,,,,,,,,,,,,,,,,,,,,,,,,84,001,2023_Aug_30_1317,ExactRep-v3-final,2021.2.3,59.96070177791439,
,,,,,,,,73,0,73,0,,,,,,,,,,,,,,,,,,,,,,,,,,,,,,,,,,,,,,,,,,,,,,,,,,,,,518.3652548999526,None,,,,,,,,,,,,,,,,,,,,,,,,,,,,,,,,,,,chance,29,74,sing,red,516.3651349999709,None,None,516.3651349999709,None,,,,,,,,,,,,,,,,,,,,,,,,,,,,,,84,001,2023_Aug_30_1317,ExactRep-v3-final,2021.2.3,59.96070177791439,
,,,,,,,,74,0,74,0,,,,,,,,,,,,,,,,,,,,,,,,,,,,,,,,,,,,,,,,,,,,,,,,,,,,,520.8672032000031,None,,,,,,,,,,,,,,,,,,,,,,,,,,,,,,,,,,,volume,42,75,silent,blue,518.8672278999584,None,None,518.8672278999584,None,,,,,,,,,,,,,,,,,,,,,,,,,,,,,,84,001,2023_Aug_30_1317,ExactRep-v3-final,2021.2.3,59.96070177791439,
,,,,,,,,75,0,75,0,,,,,,,,,,,,,,,,,,,,,,,,,,,,,,,,,,,,,,,,,,,,,,,,,,,,,523.3701397000114,None,,,,,,,,,,,,,,,,,,,,,,,,,,,,,,,,,,,apple,69,76,silent,blue,521.3695017999271,None,None,521.3695017999271,None,,,,,,,,,,,,,,,,,,,,,,,,,,,,,,84,001,2023_Aug_30_1317,ExactRep-v3-final,2021.2.3,59.96070177791439,
,,,,,,,,76,0,76,0,,,,,,,,,,,,,,,,,,,,,,,,,,,,,,,,,,,,,,,,,,,,,,,,,,,,,525.8891243999824,None,,,,,,,,,,,,,,,,,,,,,,,,,,,,,,,,,,,toy,97,77,aloud,white,523.8743049999466,None,None,523.8743049999466,None,,,,,,,,,,,,,,,,,,,,,,,,,,,,,,84,001,2023_Aug_30_1317,ExactRep-v3-final,2021.2.3,59.96070177791439,
,,,,,,,,77,0,77,0,,,,,,,,,,,,,,,,,,,,,,,,,,,,,,,,,,,,,,,,,,,,,,,,,,,,,528.3921289999271,None,,,,,,,,,,,,,,,,,,,,,,,,,,,,,,,,,,,present,95,78,aloud,white,526.3899570000358,None,None,526.3899570000358,None,,,,,,,,,,,,,,,,,,,,,,,,,,,,,,84,001,2023_Aug_30_1317,ExactRep-v3-final,2021.2.3,59.96070177791439,
,,,,,,,,78,0,78,0,,,,,,,,,,,,,,,,,,,,,,,,,,,,,,,,,,,,,,,,,,,,,,,,,,,,,530.8941018999321,None,,,,,,,,,,,,,,,,,,,,,,,,,,,,,,,,,,,series,91,79,aloud,white,528.8927197000012,None,None,528.8927197000012,None,,,,,,,,,,,,,,,,,,,,,,,,,,,,,,84,001,2023_Aug_30_1317,ExactRep-v3-final,2021.2.3,59.96070177791439,
,,,,,,,,79,0,79,0,,,,,,,,,,,,,,,,,,,,,,,,,,,,,,,,,,,,,,,,,,,,,,,,,,,,,533.3971102000214,None,,,,,,,,,,,,,,,,,,,,,,,,,,,,,,,,,,,fate,44,80,silent,blue,531.3950267999899,None,None,531.3950267999899,None,,,,,,,,,,,,,,,,,,,,,,,,,,,,,,84,001,2023_Aug_30_1317,ExactRep-v3-final,2021.2.3,59.96070177791439,
,,,,,,,,80,0,80,0,,,,,,,,,,,,,,,,,,,,,,,,,,,,,,,,,,,,,,,,,,,,,,,,,,,,,535.8995196999749,None,,,,,,,,,,,,,,,,,,,,,,,,,,,,,,,,,,,author,71,81,silent,blue,533.8993235999951,None,None,533.8993235999951,None,,,,,,,,,,,,,,,,,,,,,,,,,,,,,,84,001,2023_Aug_30_1317,ExactRep-v3-final,2021.2.3,59.96070177791439,
,,,,,,,,81,0,81,0,,,,,,,,,,,,,,,,,,,,,,,,,,,,,,,,,,,,,,,,,,,,,,,,,,,,,538.4019229999976,None,,,,,,,,,,,,,,,,,,,,,,,,,,,,,,,,,,,animal,3,82,sing,red,536.4016001999844,None,None,536.4016001999844,None,,,,,,,,,,,,,,,,,,,,,,,,,,,,,,84,001,2023_Aug_30_1317,ExactRep-v3-final,2021.2.3,59.96070177791439,
,,,,,,,,82,0,82,0,,,,,,,,,,,,,,,,,,,,,,,,,,,,,,,,,,,,,,,,,,,,,,,,,,,,,540.9039753000252,None,,,,,,,,,,,,,,,,,,,,,,,,,,,,,,,,,,,time,111,83,aloud,white,538.9024854999734,None,None,538.9024854999734,None,,,,,,,,,,,,,,,,,,,,,,,,,,,,,,84,001,2023_Aug_30_1317,ExactRep-v3-final,2021.2.3,59.96070177791439,
,,,,,,,,83,0,83,0,,,,,,,,,,,,,,,,,,,,,,,,,,,,,,,,,,,,,,,,,,,,,,,,,,,,,543.4070326000219,None,,,,,,,,,,,,,,,,,,,,,,,,,,,,,,,,,,,vision,80,84,aloud,white,541.4057153000031,None,None,541.4057153000031,None,,,,,,,,,,,,,,,,,,,,,,,,,,,,,,84,001,2023_Aug_30_1317,ExactRep-v3-final,2021.2.3,59.96070177791439,
,,,,,,,,84,0,84,0,,,,,,,,,,,,,,,,,,,,,,,,,,,,,,,,,,,,,,,,,,,,,,,,,,,,,545.9255831999471,None,,,,,,,,,,,,,,,,,,,,,,,,,,,,,,,,,,,iron,107,85,aloud,white,543.9110516000073,None,None,543.9110516000073,None,,,,,,,,,,,,,,,,,,,,,,,,,,,,,,84,001,2023_Aug_30_1317,ExactRep-v3-final,2021.2.3,59.96070177791439,
,,,,,,,,85,0,85,0,,,,,,,,,,,,,,,,,,,,,,,,,,,,,,,,,,,,,,,,,,,,,,,,,,,,,548.4280606999528,None,,,,,,,,,,,,,,,,,,,,,,,,,,,,,,,,,,,sky,53,86,silent,blue,546.4266705999617,None,None,546.4266705999617,None,,,,,,,,,,,,,,,,,,,,,,,,,,,,,,84,001,2023_Aug_30_1317,ExactRep-v3-final,2021.2.3,59.96070177791439,
,,,,,,,,86,0,86,0,,,,,,,,,,,,,,,,,,,,,,,,,,,,,,,,,,,,,,,,,,,,,,,,,,,,,550.9473753999919,None,,,,,,,,,,,,,,,,,,,,,,,,,,,,,,,,,,,flag,60,87,silent,blue,548.9336119999643,None,None,548.9336119999643,None,,,,,,,,,,,,,,,,,,,,,,,,,,,,,,84,001,2023_Aug_30_1317,ExactRep-v3-final,2021.2.3,59.96070177791439,
,,,,,,,,87,0,87,0,,,,,,,,,,,,,,,,,,,,,,,,,,,,,,,,,,,,,,,,,,,,,,,,,,,,,553.4498642999679,None,,,,,,,,,,,,,,,,,,,,,,,,,,,,,,,,,,,air,108,88,aloud,white,551.4477666999446,None,None,551.4477666999446,None,,,,,,,,,,,,,,,,,,,,,,,,,,,,,,84,001,2023_Aug_30_1317,ExactRep-v3-final,2021.2.3,59.96070177791439,
,,,,,,,,88,0,88,0,,,,,,,,,,,,,,,,,,,,,,,,,,,,,,,,,,,,,,,,,,,,,,,,,,,,,555.9524022999685,None,,,,,,,,,,,,,,,,,,,,,,,,,,,,,,,,,,,prison,34,89,sing,red,553.9516371999634,None,None,553.9516371999634,None,,,,,,,,,,,,,,,,,,,,,,,,,,,,,,84,001,2023_Aug_30_1317,ExactRep-v3-final,2021.2.3,59.96070177791439,
,,,,,,,,89,0,89,0,,,,,,,,,,,,,,,,,,,,,,,,,,,,,,,,,,,,,,,,,,,,,,,,,,,,,558.4549826999428,None,,,,,,,,,,,,,,,,,,,,,,,,,,,,,,,,,,,rod,27,90,sing,red,556.4529235999798,None,None,556.4529235999798,None,,,,,,,,,,,,,,,,,,,,,,,,,,,,,,84,001,2023_Aug_30_1317,ExactRep-v3-final,2021.2.3,59.96070177791439,
,,,,,,,,90,0,90,0,,,,,,,,,,,,,,,,,,,,,,,,,,,,,,,,,,,,,,,,,,,,,,,,,,,,,560.9571845999453,None,,,,,,,,,,,,,,,,,,,,,,,,,,,,,,,,,,,gold,59,91,silent,blue,558.9556095999433,None,None,558.9556095999433,None,,,,,,,,,,,,,,,,,,,,,,,,,,,,,,84,001,2023_Aug_30_1317,ExactRep-v3-final,2021.2.3,59.96070177791439,
,,,,,,,,91,0,91,0,,,,,,,,,,,,,,,,,,,,,,,,,,,,,,,,,,,,,,,,,,,,,,,,,,,,,563.4597605000017,None,,,,,,,,,,,,,,,,,,,,,,,,,,,,,,,,,,,sea,40,92,silent,blue,561.4583158999449,None,None,561.4583158999449,None,,,,,,,,,,,,,,,,,,,,,,,,,,,,,,84,001,2023_Aug_30_1317,ExactRep-v3-final,2021.2.3,59.96070177791439,
,,,,,,,,92,0,92,0,,,,,,,,,,,,,,,,,,,,,,,,,,,,,,,,,,,,,,,,,,,,,,,,,,,,,565.9791241999483,None,,,,,,,,,,,,,,,,,,,,,,,,,,,,,,,,,,,coffee,118,93,aloud,white,563.9648420999292,None,None,563.9648420999292,None,,,,,,,,,,,,,,,,,,,,,,,,,,,,,,84,001,2023_Aug_30_1317,ExactRep-v3-final,2021.2.3,59.96070177791439,
,,,,,,,,93,0,93,0,,,,,,,,,,,,,,,,,,,,,,,,,,,,,,,,,,,,,,,,,,,,,,,,,,,,,568.4979955999879,None,,,,,,,,,,,,,,,,,,,,,,,,,,,,,,,,,,,temple,28,94,sing,red,566.484671000042,None,None,566.484671000042,None,,,,,,,,,,,,,,,,,,,,,,,,,,,,,,84,001,2023_Aug_30_1317,ExactRep-v3-final,2021.2.3,59.96070177791439,
,,,,,,,,94,0,94,0,,,,,,,,,,,,,,,,,,,,,,,,,,,,,,,,,,,,,,,,,,,,,,,,,,,,,571.0175933999708,None,,,,,,,,,,,,,,,,,,,,,,,,,,,,,,,,,,,flesh,98,95,aloud,white,569.0110593000427,None,None,569.0110593000427,None,,,,,,,,,,,,,,,,,,,,,,,,,,,,,,84,001,2023_Aug_30_1317,ExactRep-v3-final,2021.2.3,59.96070177791439,
,,,,,,,,95,0,95,0,,,,,,,,,,,,,,,,,,,,,,,,,,,,,,,,,,,,,,,,,,,,,,,,,,,,,573.5200220999541,None,,,,,,,,,,,,,,,,,,,,,,,,,,,,,,,,,,,gift,94,96,aloud,white,571.5202764000278,None,None,571.5202764000278,None,,,,,,,,,,,,,,,,,,,,,,,,,,,,,,84,001,2023_Aug_30_1317,ExactRep-v3-final,2021.2.3,59.96070177791439,
,,,,,,,,96,0,96,0,,,,,,,,,,,,,,,,,,,,,,,,,,,,,,,,,,,,,,,,,,,,,,,,,,,,,576.022360599949,None,,,,,,,,,,,,,,,,,,,,,,,,,,,,,,,,,,,anger,25,97,sing,red,574.0204257000005,None,None,574.0204257000005,None,,,,,,,,,,,,,,,,,,,,,,,,,,,,,,84,001,2023_Aug_30_1317,ExactRep-v3-final,2021.2.3,59.96070177791439,
,,,,,,,,97,0,97,0,,,,,,,,,,,,,,,,,,,,,,,,,,,,,,,,,,,,,,,,,,,,,,,,,,,,,578.5248983999481,None,,,,,,,,,,,,,,,,,,,,,,,,,,,,,,,,,,,boulder,6,98,sing,red,576.5237545999698,None,None,576.5237545999698,None,,,,,,,,,,,,,,,,,,,,,,,,,,,,,,84,001,2023_Aug_30_1317,ExactRep-v3-final,2021.2.3,59.96070177791439,
,,,,,,,,98,0,98,0,,,,,,,,,,,,,,,,,,,,,,,,,,,,,,,,,,,,,,,,,,,,,,,,,,,,,581.0273076000158,None,,,,,,,,,,,,,,,,,,,,,,,,,,,,,,,,,,,brain,14,99,sing,red,579.0256817999762,None,None,579.0256817999762,None,,,,,,,,,,,,,,,,,,,,,,,,,,,,,,84,001,2023_Aug_30_1317,ExactRep-v3-final,2021.2.3,59.96070177791439,
,,,,,,,,99,0,99,0,,,,,,,,,,,,,,,,,,,,,,,,,,,,,,,,,,,,,,,,,,,,,,,,,,,,,583.5305647000205,None,,,,,,,,,,,,,,,,,,,,,,,,,,,,,,,,,,,book,62,100,silent,blue,581.5290885999566,None,None,581.5290885999566,None,,,,,,,,,,,,,,,,,,,,,,,,,,,,,,84,001,2023_Aug_30_1317,ExactRep-v3-final,2021.2.3,59.96070177791439,
,,,,,,,,100,0,100,0,,,,,,,,,,,,,,,,,,,,,,,,,,,,,,,,,,,,,,,,,,,,,,,,,,,,,586.0489815999754,None,,,,,,,,,,,,,,,,,,,,,,,,,,,,,,,,,,,party,45,101,silent,blue,584.0360917999642,None,None,584.0360917999642,None,,,,,,,,,,,,,,,,,,,,,,,,,,,,,,84,001,2023_Aug_30_1317,ExactRep-v3-final,2021.2.3,59.96070177791439,
,,,,,,,,101,0,101,0,,,,,,,,,,,,,,,,,,,,,,,,,,,,,,,,,,,,,,,,,,,,,,,,,,,,,588.5512703999411,None,,,,,,,,,,,,,,,,,,,,,,,,,,,,,,,,,,,kiss,23,102,sing,red,586.5493894999381,None,None,586.5493894999381,None,,,,,,,,,,,,,,,,,,,,,,,,,,,,,,84,001,2023_Aug_30_1317,ExactRep-v3-final,2021.2.3,59.96070177791439,
,,,,,,,,102,0,102,0,,,,,,,,,,,,,,,,,,,,,,,,,,,,,,,,,,,,,,,,,,,,,,,,,,,,,591.0706517000217,None,,,,,,,,,,,,,,,,,,,,,,,,,,,,,,,,,,,amount,112,103,aloud,white,589.0577667999314,None,None,589.0577667999314,None,,,,,,,,,,,,,,,,,,,,,,,,,,,,,,84,001,2023_Aug_30_1317,ExactRep-v3-final,2021.2.3,59.96070177791439,
,,,,,,,,103,0,103,0,,,,,,,,,,,,,,,,,,,,,,,,,,,,,,,,,,,,,,,,,,,,,,,,,,,,,593.5731540999841,None,,,,,,,,,,,,,,,,,,,,,,,,,,,,,,,,,,,dawn,4,104,sing,red,591.5711478999583,None,None,591.5711478999583,None,,,,,,,,,,,,,,,,,,,,,,,,,,,,,,84,001,2023_Aug_30_1317,ExactRep-v3-final,2021.2.3,59.96070177791439,
,,,,,,,,104,0,104,0,,,,,,,,,,,,,,,,,,,,,,,,,,,,,,,,,,,,,,,,,,,,,,,,,,,,,596.0759171999525,None,,,,,,,,,,,,,,,,,,,,,,,,,,,,,,,,,,,chief,75,105,silent,blue,594.07419449999,None,None,594.07419449999,None,,,,,,,,,,,,,,,,,,,,,,,,,,,,,,84,001,2023_Aug_30_1317,ExactRep-v3-final,2021.2.3,59.96070177791439,
,,,,,,,,105,0,105,0,,,,,,,,,,,,,,,,,,,,,,,,,,,,,,,,,,,,,,,,,,,,,,,,,,,,,598.5783788999543,None,,,,,,,,,,,,,,,,,,,,,,,,,,,,,,,,,,,cotton,39,106,silent,blue,596.5783409000142,None,None,596.5783409000142,None,,,,,,,,,,,,,,,,,,,,,,,,,,,,,,84,001,2023_Aug_30_1317,ExactRep-v3-final,2021.2.3,59.96070177791439,
,,,,,,,,106,0,106,0,,,,,,,,,,,,,,,,,,,,,,,,,,,,,,,,,,,,,,,,,,,,,,,,,,,,,601.080451900023,None,,,,,,,,,,,,,,,,,,,,,,,,,,,,,,,,,,,boy,68,107,silent,blue,599.0808574999683,None,None,599.0808574999683,None,,,,,,,,,,,,,,,,,,,,,,,,,,,,,,84,001,2023_Aug_30_1317,ExactRep-v3-final,2021.2.3,59.96070177791439,
,,,,,,,,107,0,107,0,,,,,,,,,,,,,,,,,,,,,,,,,,,,,,,,,,,,,,,,,,,,,,,,,,,,,603.6001667999662,None,,,,,,,,,,,,,,,,,,,,,,,,,,,,,,,,,,,opinion,2,108,sing,red,601.5870227999985,None,None,601.5870227999985,None,,,,,,,,,,,,,,,,,,,,,,,,,,,,,,84,001,2023_Aug_30_1317,ExactRep-v3-final,2021.2.3,59.96070177791439,
,,,,,,,,108,0,108,0,,,,,,,,,,,,,,,,,,,,,,,,,,,,,,,,,,,,,,,,,,,,,,,,,,,,,606.1190882000374,None,,,,,,,,,,,,,,,,,,,,,,,,,,,,,,,,,,,child,99,109,aloud,white,604.1079057999887,None,None,604.1079057999887,None,,,,,,,,,,,,,,,,,,,,,,,,,,,,,,84,001,2023_Aug_30_1317,ExactRep-v3-final,2021.2.3,59.96070177791439,
,,,,,,,,109,0,109,0,,,,,,,,,,,,,,,,,,,,,,,,,,,,,,,,,,,,,,,,,,,,,,,,,,,,,608.6219417999964,None,,,,,,,,,,,,,,,,,,,,,,,,,,,,,,,,,,,style,81,110,aloud,white,606.6194124999456,None,None,606.6194124999456,None,,,,,,,,,,,,,,,,,,,,,,,,,,,,,,84,001,2023_Aug_30_1317,ExactRep-v3-final,2021.2.3,59.96070177791439,
,,,,,,,,110,0,110,0,,,,,,,,,,,,,,,,,,,,,,,,,,,,,,,,,,,,,,,,,,,,,,,,,,,,,611.1242206000024,None,,,,,,,,,,,,,,,,,,,,,,,,,,,,,,,,,,,moment,48,111,silent,blue,609.1226421999745,None,None,609.1226421999745,None,,,,,,,,,,,,,,,,,,,,,,,,,,,,,,84,001,2023_Aug_30_1317,ExactRep-v3-final,2021.2.3,59.96070177791439,
,,,,,,,,111,0,111,0,,,,,,,,,,,,,,,,,,,,,,,,,,,,,,,,,,,,,,,,,,,,,,,,,,,,,613.6266233000206,None,,,,,,,,,,,,,,,,,,,,,,,,,,,,,,,,,,,woman,79,112,sing,red,611.6260924999369,None,None,611.6260924999369,None,,,,,,,,,,,,,,,,,,,,,,,,,,,,,,84,001,2023_Aug_30_1317,ExactRep-v3-final,2021.2.3,59.96070177791439,
,,,,,,,,112,0,112,0,,,,,,,,,,,,,,,,,,,,,,,,,,,,,,,,,,,,,,,,,,,,,,,,,,,,,616.1458186999662,None,,,,,,,,,,,,,,,,,,,,,,,,,,,,,,,,,,,pole,24,113,sing,red,614.1316716999281,None,None,614.1316716999281,None,,,,,,,,,,,,,,,,,,,,,,,,,,,,,,84,001,2023_Aug_30_1317,ExactRep-v3-final,2021.2.3,59.96070177791439,
,,,,,,,,113,0,113,0,,,,,,,,,,,,,,,,,,,,,,,,,,,,,,,,,,,,,,,,,,,,,,,,,,,,,618.6483255999628,None,,,,,,,,,,,,,,,,,,,,,,,,,,,,,,,,,,,street,113,114,aloud,white,616.6465644999407,None,None,616.6465644999407,None,,,,,,,,,,,,,,,,,,,,,,,,,,,,,,84,001,2023_Aug_30_1317,ExactRep-v3-final,2021.2.3,59.96070177791439,
,,,,,,,,114,0,114,0,,,,,,,,,,,,,,,,,,,,,,,,,,,,,,,,,,,,,,,,,,,,,,,,,,,,,621.1505547999404,None,,,,,,,,,,,,,,,,,,,,,,,,,,,,,,,,,,,chair,0,115,sing,red,619.1496545999544,None,None,619.1496545999544,None,,,,,,,,,,,,,,,,,,,,,,,,,,,,,,84,001,2023_Aug_30_1317,ExactRep-v3-final,2021.2.3,59.96070177791439,
,,,,,,,,115,0,115,0,,,,,,,,,,,,,,,,,,,,,,,,,,,,,,,,,,,,,,,,,,,,,,,,,,,,,623.6533309000079,None,,,,,,,,,,,,,,,,,,,,,,,,,,,,,,,,,,,car,104,116,aloud,white,621.6516374000348,None,None,621.6516374000348,None,,,,,,,,,,,,,,,,,,,,,,,,,,,,,,84,001,2023_Aug_30_1317,ExactRep-v3-final,2021.2.3,59.96070177791439,
,,,,,,,,116,0,116,0,,,,,,,,,,,,,,,,,,,,,,,,,,,,,,,,,,,,,,,,,,,,,,,,,,,,,626.1558037999785,None,,,,,,,,,,,,,,,,,,,,,,,,,,,,,,,,,,,skin,77,117,silent,blue,624.1558375000022,None,None,624.1558375000022,None,,,,,,,,,,,,,,,,,,,,,,,,,,,,,,84,001,2023_Aug_30_1317,ExactRep-v3-final,2021.2.3,59.96070177791439,
,,,,,,,,117,0,117,0,,,,,,,,,,,,,,,,,,,,,,,,,,,,,,,,,,,,,,,,,,,,,,,,,,,,,628.6753269999754,None,,,,,,,,,,,,,,,,,,,,,,,,,,,,,,,,,,,priest,37,118,sing,red,626.6626159999287,None,None,626.6626159999287,None,,,,,,,,,,,,,,,,,,,,,,,,,,,,,,84,001,2023_Aug_30_1317,ExactRep-v3-final,2021.2.3,59.96070177791439,
,,,,,,,,118,0,118,0,,,,,,,,,,,,,,,,,,,,,,,,,,,,,,,,,,,,,,,,,,,,,,,,,,,,,631.1776211999822,None,,,,,,,,,,,,,,,,,,,,,,,,,,,,,,,,,,,tool,46,119,silent,blue,629.1759367999621,None,None,629.1759367999621,None,,,,,,,,,,,,,,,,,,,,,,,,,,,,,,84,001,2023_Aug_30_1317,ExactRep-v3-final,2021.2.3,59.96070177791439,
,,,,,,,,119,0,119,0,,,,,,,,,,,,,,,,,,,,,,,,,,,,,,,,,,,,,,,,,,,,,,,,,,,,,633.696821999969,None,,,,,,,,,,,,,,,,,,,,,,,,,,,,,,,,,,,blood,76,120,silent,blue,631.6899196000304,None,None,631.6899196000304,None,,,,,,,,,,,,,,,,,,,,,,,,,,,,,,84,001,2023_Aug_30_1317,ExactRep-v3-final,2021.2.3,59.96070177791439,
,,,,,,,,,,,,,,,,,,,,,,,,,,,,,,,,,,,,,,,,,,,,,,,,,,,,,,,,,,,,,,,,,,,,,,,,,,,,,,,,,,,,,,,,,,,,,,,,,,,,,,,,,,,,,,634.1973231999436,None,space,0.4920558000449091,644.1749547999352,None,,,,,,,,,,,,,,,,,,,,,,,,84,001,2023_Aug_30_1317,ExactRep-v3-final,2021.2.3,59.96070177791439,
,,,,,,,,,,,,,,,,,,,,,,,,,,,,,,,,,,,,,,,,,,,,,,,,,,,,,,,,,,,,,,,,,,,,,,,,,,,,,,,,,,,,,,,,,,,,,,,,,,,,,,,,,,,,,,,,,,,,644.6916067999555,None,space,30.81514259998221,654.6681312000146,None,,,,,,,,,,,,,,,,,,84,001,2023_Aug_30_1317,ExactRep-v3-final,2021.2.3,59.96070177791439,
,,,,,,,,,,,,0,0,0,0,,,,,,,,,,,,,,,,,,,,,,,,,,,,,,,,,,,,,,,,,,,,,,,,,688.9344814999495,None,,,,,,,,,,,,,,,,,,,,,,,,,,,,,,,,,,,,,,,,,,,,,,,,,,,,,,,,,animal,3,1,sing,old,yellow,686.025709599955,None,y,686.025709599955,None,"['y', 'return']","[1.8649162000510842, 2.848955599940382]",686.025709599955,None,,,84,001,2023_Aug_30_1317,ExactRep-v3-final,2021.2.3,59.96070177791439,
,,,,,,,,,,,,1,0,1,0,,,,,,,,,,,,,,,,,,,,,,,,,,,,,,,,,,,,,,,,,,,,,,,,,692.2746540999506,None,,,,,,,,,,,,,,,,,,,,,,,,,,,,,,,,,,,,,,,,,,,,,,,,,,,,,,,,,speech,139,2,silent,new,yellow,689.4452834000112,None,y,689.4452834000112,None,"['y', 'return']","[2.069401599932462, 2.781545599922538]",689.4452834000112,None,,,84,001,2023_Aug_30_1317,ExactRep-v3-final,2021.2.3,59.96070177791439,
,,,,,,,,,,,,2,0,2,0,,,,,,,,,,,,,,,,,,,,,,,,,,,,,,,,,,,,,,,,,,,,,,,,,695.5602879000362,None,,,,,,,,,,,,,,,,,,,,,,,,,,,,,,,,,,,,,,,,,,,,,,,,,,,,,,,,,girl,66,3,silent,old,yellow,692.789798200014,None,n,692.789798200014,None,"['n', 'return']","[2.3248970999848098, 2.7333246999187395]",692.789798200014,None,,,84,001,2023_Aug_30_1317,ExactRep-v3-final,2021.2.3,59.96070177791439,
,,,,,,,,,,,,3,0,3,0,,,,,,,,,,,,,,,,,,,,,,,,,,,,,,,,,,,,,,,,,,,,,,,,,697.5449341000058,None,,,,,,,,,,,,,,,,,,,,,,,,,,,,,,,,,,,,,,,,,,,,,,,,,,,,,,,,,hope,88,4,aloud,old,yellow,696.0770732000237,None,y,696.0770732000237,None,"['y', 'return']","[1.0696394999977201, 1.4296746000181884]",696.0770732000237,None,,,84,001,2023_Aug_30_1317,ExactRep-v3-final,2021.2.3,59.96070177791439,
,,,,,,,,,,,,4,0,4,0,,,,,,,,,,,,,,,,,,,,,,,,,,,,,,,,,,,,,,,,,,,,,,,,,699.3969748000382,None,,,,,,,,,,,,,,,,,,,,,,,,,,,,,,,,,,,,,,,,,,,,,,,,,,,,,,,,,money,130,5,silent,new,yellow,698.0456390000181,None,y,698.0456390000181,None,"['y', 'return']","[0.9814504000823945, 1.3011588000226766]",698.0456390000181,None,,,84,001,2023_Aug_30_1317,ExactRep-v3-final,2021.2.3,59.96070177791439,
,,,,,,,,,,,,5,0,5,0,,,,,,,,,,,,,,,,,,,,,,,,,,,,,,,,,,,,,,,,,,,,,,,,,701.5157906999812,None,,,,,,,,,,,,,,,,,,,,,,,,,,,,,,,,,,,,,,,,,,,,,,,,,,,,,,,,,shadow,90,6,aloud,old,yellow,699.8980968999676,None,n,699.8980968999676,None,"['n', 'return']","[1.2246336999814957, 1.5846111999126151]",699.8980968999676,None,,,84,001,2023_Aug_30_1317,ExactRep-v3-final,2021.2.3,59.96070177791439,
,,,,,,,,,,,,6,0,6,0,,,,,,,,,,,,,,,,,,,,,,,,,,,,,,,,,,,,,,,,,,,,,,,,,703.851348199998,None,,,,,,,,,,,,,,,,,,,,,,,,,,,,,,,,,,,,,,,,,,,,,,,,,,,,,,,,,picture,192,7,aloud,new,yellow,702.0467664999887,None,n,702.0467664999887,None,"['n', 'return']","[1.4360730999615043, 1.7559224999276921]",702.0467664999887,None,,,84,001,2023_Aug_30_1317,ExactRep-v3-final,2021.2.3,59.96070177791439,
,,,,,,,,,,,,7,0,7,0,,,,,,,,,,,,,,,,,,,,,,,,,,,,,,,,,,,,,,,,,,,,,,,,,705.9869450000115,None,,,,,,,,,,,,,,,,,,,,,,,,,,,,,,,,,,,,,,,,,,,,,,,,,,,,,,,,,hide,7,8,sing,old,yellow,704.3584406999871,None,n,704.3584406999871,None,"['n', 'return']","[1.180274200043641, 1.5883759000571445]",704.3584406999871,None,,,84,001,2023_Aug_30_1317,ExactRep-v3-final,2021.2.3,59.96070177791439,
,,,,,,,,,,,,8,0,8,0,,,,,,,,,,,,,,,,,,,,,,,,,,,,,,,,,,,,,,,,,,,,,,,,,707.8392663999693,None,,,,,,,,,,,,,,,,,,,,,,,,,,,,,,,,,,,,,,,,,,,,,,,,,,,,,,,,,temple,28,9,sing,old,yellow,706.4958708999911,None,y,706.4958708999911,None,"['y', 'return']","[0.9467365000164136, 1.2988689000485465]",706.4958708999911,None,,,84,001,2023_Aug_30_1317,ExactRep-v3-final,2021.2.3,59.96070177791439,
,,,,,,,,,,,,9,0,9,0,,,,,,,,,,,,,,,,,,,,,,,,,,,,,,,,,,,,,,,,,,,,,,,,,709.8574488000013,None,,,,,,,,,,,,,,,,,,,,,,,,,,,,,,,,,,,,,,,,,,,,,,,,,,,,,,,,,crime,84,10,aloud,old,yellow,708.3568029999733,None,y,708.3568029999733,None,"['y', 'return']","[1.1338806999847293, 1.4539107999298722]",708.3568029999733,None,,,84,001,2023_Aug_30_1317,ExactRep-v3-final,2021.2.3,59.96070177791439,
,,,,,,,,,,,,10,0,10,0,,,,,,,,,,,,,,,,,,,,,,,,,,,,,,,,,,,,,,,,,,,,,,,,,712.5271834000014,None,,,,,,,,,,,,,,,,,,,,,,,,,,,,,,,,,,,,,,,,,,,,,,,,,,,,,,,,,artist,207,11,sing,new,yellow,710.3731479999842,None,n,710.3731479999842,None,"['n', 'return']","[1.8615326000144705, 2.109518599929288]",710.3731479999842,None,,,84,001,2023_Aug_30_1317,ExactRep-v3-final,2021.2.3,59.96070177791439,
,,,,,,,,,,,,11,0,11,0,,,,,,,,,,,,,,,,,,,,,,,,,,,,,,,,,,,,,,,,,,,,,,,,,716.1474031000398,None,,,,,,,,,,,,,,,,,,,,,,,,,,,,,,,,,,,,,,,,,,,,,,,,,,,,,,,,,fact,57,12,silent,old,yellow,713.0440337000182,None,n,713.0440337000182,None,"['n', 'return']","[2.8146124000195414, 3.0546606000280008]",713.0440337000182,None,,,84,001,2023_Aug_30_1317,ExactRep-v3-final,2021.2.3,59.96070177791439,
,,,,,,,,,,,,12,0,12,0,,,,,,,,,,,,,,,,,,,,,,,,,,,,,,,,,,,,,,,,,,,,,,,,,718.2486373999855,None,,,,,,,,,,,,,,,,,,,,,,,,,,,,,,,,,,,,,,,,,,,,,,,,,,,,,,,,,shock,199,13,sing,new,yellow,716.6643712000223,None,n,716.6643712000223,None,"['n', 'return']","[1.250305900000967, 1.5463677000952885]",716.6643712000223,None,,,84,001,2023_Aug_30_1317,ExactRep-v3-final,2021.2.3,59.96070177791439,
,,,,,,,,,,,,13,0,13,0,,,,,,,,,,,,,,,,,,,,,,,,,,,,,,,,,,,,,,,,,,,,,,,,,720.9508136999793,None,,,,,,,,,,,,,,,,,,,,,,,,,,,,,,,,,,,,,,,,,,,,,,,,,,,,,,,,,cottage,233,14,sing,new,yellow,718.7500022000168,None,y,718.7500022000168,None,"['y', 'return']","[1.9566794000566006, 2.165127700078301]",718.7500022000168,None,,,84,001,2023_Aug_30_1317,ExactRep-v3-final,2021.2.3,59.96070177791439,
,,,,,,,,,,,,14,0,14,0,,,,,,,,,,,,,,,,,,,,,,,,,,,,,,,,,,,,,,,,,,,,,,,,,722.8704950000392,None,,,,,,,,,,,,,,,,,,,,,,,,,,,,,,,,,,,,,,,,,,,,,,,,,,,,,,,,,heaven,82,15,aloud,old,yellow,721.4524262000341,None,y,721.4524262000341,None,"['y', 'return']","[1.158326799981296, 1.3824543000664562]",721.4524262000341,None,,,84,001,2023_Aug_30_1317,ExactRep-v3-final,2021.2.3,59.96070177791439,
,,,,,,,,,,,,15,0,15,0,,,,,,,,,,,,,,,,,,,,,,,,,,,,,,,,,,,,,,,,,,,,,,,,,724.5053998000221,None,,,,,,,,,,,,,,,,,,,,,,,,,,,,,,,,,,,,,,,,,,,,,,,,,,,,,,,,,brain,14,16,sing,old,yellow,723.388637600001,None,y,723.388637600001,None,"['y', 'return']","[0.8619593000039458, 1.078052399912849]",723.388637600001,None,,,84,001,2023_Aug_30_1317,ExactRep-v3-final,2021.2.3,59.96070177791439,
,,,,,,,,,,,,16,0,16,0,,,,,,,,,,,,,,,,,,,,,,,,,,,,,,,,,,,,,,,,,,,,,,,,,726.0240880999481,None,,,,,,,,,,,,,,,,,,,,,,,,,,,,,,,,,,,,,,,,,,,,,,,,,,,,,,,,,idea,140,17,silent,new,yellow,725.0071834999835,None,n,725.0071834999835,None,"['n', 'return']","[0.8114531999453902, 0.9716234999941662]",725.0071834999835,None,,,84,001,2023_Aug_30_1317,ExactRep-v3-final,2021.2.3,59.96070177791439,
,,,,,,,,,,,,17,0,17,0,,,,,,,,,,,,,,,,,,,,,,,,,,,,,,,,,,,,,,,,,,,,,,,,,728.2423384999856,None,,,,,,,,,,,,,,,,,,,,,,,,,,,,,,,,,,,,,,,,,,,,,,,,,,,,,,,,,colony,232,18,aloud,new,yellow,726.540126799955,None,n,726.540126799955,None,"['n', 'return']","[1.510547099984251, 1.6545903000514954]",726.540126799955,None,,,84,001,2023_Aug_30_1317,ExactRep-v3-final,2021.2.3,59.96070177791439,
,,,,,,,,,,,,18,0,18,0,,,,,,,,,,,,,,,,,,,,,,,,,,,,,,,,,,,,,,,,,,,,,,,,,729.8931627999991,None,,,,,,,,,,,,,,,,,,,,,,,,,,,,,,,,,,,,,,,,,,,,,,,,,,,,,,,,,cost,63,19,silent,old,yellow,728.7432753000176,None,y,728.7432753000176,None,"['y', 'return']","[0.8993020000634715, 1.1073519000783563]",728.7432753000176,None,,,84,001,2023_Aug_30_1317,ExactRep-v3-final,2021.2.3,59.96070177791439,
,,,,,,,,,,,,19,0,19,0,,,,,,,,,,,,,,,,,,,,,,,,,,,,,,,,,,,,,,,,,,,,,,,,,731.3123462999938,None,,,,,,,,,,,,,,,,,,,,,,,,,,,,,,,,,,,,,,,,,,,,,,,,,,,,,,,,,duty,208,20,aloud,new,yellow,730.3951421999373,None,y,730.3951421999373,None,"['y', 'return']","[0.7035495999734849, 0.8795753000304103]",730.3951421999373,None,,,84,001,2023_Aug_30_1317,ExactRep-v3-final,2021.2.3,59.96070177791439,
,,,,,,,,,,,,20,0,20,0,,,,,,,,,,,,,,,,,,,,,,,,,,,,,,,,,,,,,,,,,,,,,,,,,732.9303937000223,None,,,,,,,,,,,,,,,,,,,,,,,,,,,,,,,,,,,,,,,,,,,,,,,,,,,,,,,,,corner,151,21,silent,new,yellow,731.8242825999623,None,n,731.8242825999623,None,"['n', 'return']","[0.9063421000028029, 1.058501800056547]",731.8242825999623,None,,,84,001,2023_Aug_30_1317,ExactRep-v3-final,2021.2.3,59.96070177791439,
,,,,,,,,,,,,21,0,21,0,,,,,,,,,,,,,,,,,,,,,,,,,,,,,,,,,,,,,,,,,,,,,,,,,735.1297958999639,None,,,,,,,,,,,,,,,,,,,,,,,,,,,,,,,,,,,,,,,,,,,,,,,,,,,,,,,,,month,152,22,silent,new,yellow,733.4322209999664,None,n,733.4322209999664,None,"['n', 'return']","[1.5145277000265196, 1.6426347999367863]",733.4322209999664,None,,,84,001,2023_Aug_30_1317,ExactRep-v3-final,2021.2.3,59.96070177791439,
,,,,,,,,,,,,22,0,22,0,,,,,,,,,,,,,,,,,,,,,,,,,,,,,,,,,,,,,,,,,,,,,,,,,736.7348391000414,None,,,,,,,,,,,,,,,,,,,,,,,,,,,,,,,,,,,,,,,,,,,,,,,,,,,,,,,,,circle,234,23,aloud,new,yellow,735.6332612000406,None,n,735.6332612000406,None,"['n', 'return']","[0.9293644999852404, 1.0658216000301763]",735.6332612000406,None,,,84,001,2023_Aug_30_1317,ExactRep-v3-final,2021.2.3,59.96070177791439,
,,,,,,,,,,,,23,0,23,0,,,,,,,,,,,,,,,,,,,,,,,,,,,,,,,,,,,,,,,,,,,,,,,,,738.3366524999728,None,,,,,,,,,,,,,,,,,,,,,,,,,,,,,,,,,,,,,,,,,,,,,,,,,,,,,,,,,plant,49,24,silent,old,yellow,737.2526997999521,None,n,737.2526997999521,None,"['n', 'return']","[0.8779533000197262, 1.0379275999730453]",737.2526997999521,None,,,84,001,2023_Aug_30_1317,ExactRep-v3-final,2021.2.3,59.96070177791439,
,,,,,,,,,,,,24,0,24,0,,,,,,,,,,,,,,,,,,,,,,,,,,,,,,,,,,,,,,,,,,,,,,,,,740.0714283999987,None,,,,,,,,,,,,,,,,,,,,,,,,,,,,,,,,,,,,,,,,,,,,,,,,,,,,,,,,,flower,150,25,silent,new,yellow,738.8535833000205,None,n,738.8535833000205,None,"['n', 'return']","[1.0210430000443012, 1.173188399989158]",738.8535833000205,None,,,84,001,2023_Aug_30_1317,ExactRep-v3-final,2021.2.3,59.96070177791439,
,,,,,,,,,,,,25,0,25,0,,,,,,,,,,,,,,,,,,,,,,,,,,,,,,,,,,,,,,,,,,,,,,,,,741.8051317000063,None,,,,,,,,,,,,,,,,,,,,,,,,,,,,,,,,,,,,,,,,,,,,,,,,,,,,,,,,,shoes,50,26,silent,old,yellow,740.5871600999963,None,n,740.5871600999963,None,"['n', 'return']","[1.0318846999434754, 1.184019099920988]",740.5871600999963,None,,,84,001,2023_Aug_30_1317,ExactRep-v3-final,2021.2.3,59.96070177791439,
,,,,,,,,,,,,26,0,26,0,,,,,,,,,,,,,,,,,,,,,,,,,,,,,,,,,,,,,,,,,,,,,,,,,743.3242331999354,None,,,,,,,,,,,,,,,,,,,,,,,,,,,,,,,,,,,,,,,,,,,,,,,,,,,,,,,,,avenue,54,27,silent,old,yellow,742.3065954999765,None,n,742.3065954999765,None,"['n', 'return']","[0.7600697999587283, 0.9761154999723658]",742.3065954999765,None,,,84,001,2023_Aug_30_1317,ExactRep-v3-final,2021.2.3,59.96070177791439,
,,,,,,,,,,,,27,0,27,0,,,,,,,,,,,,,,,,,,,,,,,,,,,,,,,,,,,,,,,,,,,,,,,,,746.8943745000288,None,,,,,,,,,,,,,,,,,,,,,,,,,,,,,,,,,,,,,,,,,,,,,,,,,,,,,,,,,death,230,28,aloud,new,yellow,743.8259777999483,None,y,743.8259777999483,None,"['y', 'return']","[2.8488952999468893, 3.032893299940042]",743.8259777999483,None,,,84,001,2023_Aug_30_1317,ExactRep-v3-final,2021.2.3,59.96070177791439,
,,,,,,,,,,,,28,0,28,0,,,,,,,,,,,,,,,,,,,,,,,,,,,,,,,,,,,,,,,,,,,,,,,,,748.3466612999327,None,,,,,,,,,,,,,,,,,,,,,,,,,,,,,,,,,,,,,,,,,,,,,,,,,,,,,,,,,fate,44,29,silent,old,yellow,747.402032300015,None,n,747.402032300015,None,"['n', 'return']","[0.7046572000253946, 0.9046802000375465]",747.402032300015,None,,,84,001,2023_Aug_30_1317,ExactRep-v3-final,2021.2.3,59.96070177791439,
,,,,,,,,,,,,29,0,29,0,,,,,,,,,,,,,,,,,,,,,,,,,,,,,,,,,,,,,,,,,,,,,,,,,749.7472832000349,None,,,,,,,,,,,,,,,,,,,,,,,,,,,,,,,,,,,,,,,,,,,,,,,,,,,,,,,,,iron,107,30,aloud,old,yellow,748.8664131000405,None,y,748.8664131000405,None,"['y', 'return']","[0.5683006999315694, 0.8323517999378964]",748.8664131000405,None,,,84,001,2023_Aug_30_1317,ExactRep-v3-final,2021.2.3,59.96070177791439,
,,,,,,,,,,,,30,0,30,0,,,,,,,,,,,,,,,,,,,,,,,,,,,,,,,,,,,,,,,,,,,,,,,,,751.715919499984,None,,,,,,,,,,,,,,,,,,,,,,,,,,,,,,,,,,,,,,,,,,,,,,,,,,,,,,,,,grass,12,31,sing,old,yellow,750.2495680999709,None,y,750.2495680999709,None,"['y', 'return']","[1.1530926000559703, 1.4172235000878572]",750.2495680999709,None,,,84,001,2023_Aug_30_1317,ExactRep-v3-final,2021.2.3,59.96070177791439,
,,,,,,,,,,,,31,0,31,0,,,,,,,,,,,,,,,,,,,,,,,,,,,,,,,,,,,,,,,,,,,,,,,,,753.2343588999938,None,,,,,,,,,,,,,,,,,,,,,,,,,,,,,,,,,,,,,,,,,,,,,,,,,,,,,,,,,cotton,39,32,silent,old,yellow,752.2176456999732,None,y,752.2176456999732,None,"['y', 'return']","[0.7530392999760807, 0.9770627999678254]",752.2176456999732,None,,,84,001,2023_Aug_30_1317,ExactRep-v3-final,2021.2.3,59.96070177791439,
,,,,,,,,,,,,32,0,32,0,,,,,,,,,,,,,,,,,,,,,,,,,,,,,,,,,,,,,,,,,,,,,,,,,754.9516127000097,None,,,,,,,,,,,,,,,,,,,,,,,,,,,,,,,,,,,,,,,,,,,,,,,,,,,,,,,,,green,131,33,silent,new,yellow,753.7522557999473,None,n,753.7522557999473,None,"['n', 'return']","[0.9703547999961302, 1.1623415000503883]",753.7522557999473,None,,,84,001,2023_Aug_30_1317,ExactRep-v3-final,2021.2.3,59.96070177791439,
,,,,,,,,,,,,33,0,33,0,,,,,,,,,,,,,,,,,,,,,,,,,,,,,,,,,,,,,,,,,,,,,,,,,756.6056159000145,None,,,,,,,,,,,,,,,,,,,,,,,,,,,,,,,,,,,,,,,,,,,,,,,,,,,,,,,,,journal,64,34,silent,old,yellow,755.4537997000152,None,n,755.4537997000152,None,"['n', 'return']","[0.9249860000563785, 1.11699230002705]",755.4537997000152,None,,,84,001,2023_Aug_30_1317,ExactRep-v3-final,2021.2.3,59.96070177791439,
,,,,,,,,,,,,34,0,34,0,,,,,,,,,,,,,,,,,,,,,,,,,,,,,,,,,,,,,,,,,,,,,,,,,758.6065523000434,None,,,,,,,,,,,,,,,,,,,,,,,,,,,,,,,,,,,,,,,,,,,,,,,,,,,,,,,,,boy,68,35,silent,old,yellow,757.1209084999282,None,n,757.1209084999282,None,"['n', 'return']","[1.2338792000664398, 1.4499931000173092]",757.1209084999282,None,,,84,001,2023_Aug_30_1317,ExactRep-v3-final,2021.2.3,59.96070177791439,
,,,,,,,,,,,,35,0,35,0,,,,,,,,,,,,,,,,,,,,,,,,,,,,,,,,,,,,,,,,,,,,,,,,,760.2243828999344,None,,,,,,,,,,,,,,,,,,,,,,,,,,,,,,,,,,,,,,,,,,,,,,,,,,,,,,,,,arm,172,36,aloud,new,yellow,759.1123538999818,None,n,759.1123538999818,None,"['n', 'return']","[0.8903221000218764, 1.0742578000063077]",759.1123538999818,None,,,84,001,2023_Aug_30_1317,ExactRep-v3-final,2021.2.3,59.96070177791439,
,,,,,,,,,,,,36,0,36,0,,,,,,,,,,,,,,,,,,,,,,,,,,,,,,,,,,,,,,,,,,,,,,,,,761.9428456999594,None,,,,,,,,,,,,,,,,,,,,,,,,,,,,,,,,,,,,,,,,,,,,,,,,,,,,,,,,,lip,187,37,sing,new,yellow,760.7277516999748,None,n,760.7277516999748,None,"['n', 'return']","[0.9868804999860004, 1.1708904999541119]",760.7277516999748,None,,,84,001,2023_Aug_30_1317,ExactRep-v3-final,2021.2.3,59.96070177791439,
,,,,,,,,,,,,37,0,37,0,,,,,,,,,,,,,,,,,,,,,,,,,,,,,,,,,,,,,,,,,,,,,,,,,763.6779267999809,None,,,,,,,,,,,,,,,,,,,,,,,,,,,,,,,,,,,,,,,,,,,,,,,,,,,,,,,,,volume,42,38,silent,old,yellow,762.4602433999535,None,n,762.4602433999535,None,"['n', 'return']","[0.9584158000070602, 1.1744918000185862]",762.4602433999535,None,,,84,001,2023_Aug_30_1317,ExactRep-v3-final,2021.2.3,59.96070177791439,
,,,,,,,,,,,,38,0,38,0,,,,,,,,,,,,,,,,,,,,,,,,,,,,,,,,,,,,,,,,,,,,,,,,,765.4132252000272,None,,,,,,,,,,,,,,,,,,,,,,,,,,,,,,,,,,,,,,,,,,,,,,,,,,,,,,,,,victory,155,39,silent,new,yellow,764.1855927000288,None,n,764.1855927000288,None,"['n', 'return']","[0.9531620999332517, 1.1930560999317095]",764.1855927000288,None,,,84,001,2023_Aug_30_1317,ExactRep-v3-final,2021.2.3,59.96070177791439,
,,,,,,,,,,,,39,0,39,0,,,,,,,,,,,,,,,,,,,,,,,,,,,,,,,,,,,,,,,,,,,,,,,,,767.6327309999615,None,,,,,,,,,,,,,,,,,,,,,,,,,,,,,,,,,,,,,,,,,,,,,,,,,,,,,,,,,air,108,40,aloud,old,yellow,765.9319297999609,None,n,765.9319297999609,None,"['n', 'return']","[1.4310070000356063, 1.6547089000232518]",765.9319297999609,None,,,84,001,2023_Aug_30_1317,ExactRep-v3-final,2021.2.3,59.96070177791439,
,,,,,,,,,,,,40,0,40,0,,,,,,,,,,,,,,,,,,,,,,,,,,,,,,,,,,,,,,,,,,,,,,,,,769.2156896999804,None,,,,,,,,,,,,,,,,,,,,,,,,,,,,,,,,,,,,,,,,,,,,,,,,,,,,,,,,,tree,147,41,silent,new,yellow,768.1499511000002,None,n,768.1499511000002,None,"['n', 'return']","[0.76490189996548, 1.020652399980463]",768.1499511000002,None,,,84,001,2023_Aug_30_1317,ExactRep-v3-final,2021.2.3,59.96070177791439,
,,,,,,,,,,,,41,0,41,0,,,,,,,,,,,,,,,,,,,,,,,,,,,,,,,,,,,,,,,,,,,,,,,,,771.5524293000344,None,,,,,,,,,,,,,,,,,,,,,,,,,,,,,,,,,,,,,,,,,,,,,,,,,,,,,,,,,bottle,202,42,aloud,new,yellow,769.7183194999816,None,n,769.7183194999816,None,"['n', 'return']","[1.5724275999236852, 1.7882781999651343]",769.7183194999816,None,,,84,001,2023_Aug_30_1317,ExactRep-v3-final,2021.2.3,59.96070177791439,
,,,,,,,,,,,,42,0,42,0,,,,,,,,,,,,,,,,,,,,,,,,,,,,,,,,,,,,,,,,,,,,,,,,,773.1030653000344,None,,,,,,,,,,,,,,,,,,,,,,,,,,,,,,,,,,,,,,,,,,,,,,,,,,,,,,,,,pole,24,43,sing,old,yellow,772.0814878999954,None,y,772.0814878999954,None,"['y', 'return']","[0.7611074999440461, 0.977069600019604]",772.0814878999954,None,,,84,001,2023_Aug_30_1317,ExactRep-v3-final,2021.2.3,59.96070177791439,
,,,,,,,,,,,,43,0,43,0,,,,,,,,,,,,,,,,,,,,,,,,,,,,,,,,,,,,,,,,,,,,,,,,,774.5053499999922,None,,,,,,,,,,,,,,,,,,,,,,,,,,,,,,,,,,,,,,,,,,,,,,,,,,,,,,,,,coin,83,44,aloud,old,yellow,773.6048609999707,None,y,773.6048609999707,None,"['y', 'return']","[0.6457459999946877, 0.8618367000017315]",773.6048609999707,None,,,84,001,2023_Aug_30_1317,ExactRep-v3-final,2021.2.3,59.96070177791439,
,,,,,,,,,,,,44,0,44,0,,,,,,,,,,,,,,,,,,,,,,,,,,,,,,,,,,,,,,,,,,,,,,,,,776.2906348999823,None,,,,,,,,,,,,,,,,,,,,,,,,,,,,,,,,,,,,,,,,,,,,,,,,,,,,,,,,,master,101,45,aloud,old,yellow,775.0090132999467,None,n,775.0090132999467,None,"['n', 'return']","[1.0576290000462905, 1.2416315999580547]",775.0090132999467,None,,,84,001,2023_Aug_30_1317,ExactRep-v3-final,2021.2.3,59.96070177791439,
,,,,,,,,,,,,45,0,45,0,,,,,,,,,,,,,,,,,,,,,,,,,,,,,,,,,,,,,,,,,,,,,,,,,777.7924760000315,None,,,,,,,,,,,,,,,,,,,,,,,,,,,,,,,,,,,,,,,,,,,,,,,,,,,,,,,,,excuse,22,46,sing,old,yellow,776.79239279998,None,y,776.79239279998,None,"['y', 'return']","[0.7382316999137402, 0.9626571999397129]",776.79239279998,None,,,84,001,2023_Aug_30_1317,ExactRep-v3-final,2021.2.3,59.96070177791439,
,,,,,,,,,,,,46,0,46,0,,,,,,,,,,,,,,,,,,,,,,,,,,,,,,,,,,,,,,,,,,,,,,,,,779.3104307999602,None,,,,,,,,,,,,,,,,,,,,,,,,,,,,,,,,,,,,,,,,,,,,,,,,,,,,,,,,,chief,75,47,silent,old,yellow,778.317636199994,None,y,778.317636199994,None,"['y', 'return']","[0.7411610999843106, 0.9490246999775991]",778.317636199994,None,,,84,001,2023_Aug_30_1317,ExactRep-v3-final,2021.2.3,59.96070177791439,
,,,,,,,,,,,,47,0,47,0,,,,,,,,,,,,,,,,,,,,,,,,,,,,,,,,,,,,,,,,,,,,,,,,,781.0777206999483,None,,,,,,,,,,,,,,,,,,,,,,,,,,,,,,,,,,,,,,,,,,,,,,,,,,,,,,,,,bar,19,48,sing,old,yellow,779.8291252999334,None,n,779.8291252999334,None,"['n', 'return']","[1.0299518998945132, 1.2054500998929143]",779.8291252999334,None,,,84,001,2023_Aug_30_1317,ExactRep-v3-final,2021.2.3,59.96070177791439,
,,,,,,,,,,,,48,0,48,0,,,,,,,,,,,,,,,,,,,,,,,,,,,,,,,,,,,,,,,,,,,,,,,,,782.8973960999865,None,,,,,,,,,,,,,,,,,,,,,,,,,,,,,,,,,,,,,,,,,,,,,,,,,,,,,,,,,flesh,98,49,aloud,old,yellow,781.5796796999639,None,y,781.5796796999639,None,"['y', 'return']","[1.0471780999796465, 1.2709719999693334]",781.5796796999639,None,,,84,001,2023_Aug_30_1317,ExactRep-v3-final,2021.2.3,59.96070177791439,
,,,,,,,,,,,,49,0,49,0,,,,,,,,,,,,,,,,,,,,,,,,,,,,,,,,,,,,,,,,,,,,,,,,,784.4322129000211,None,,,,,,,,,,,,,,,,,,,,,,,,,,,,,,,,,,,,,,,,,,,,,,,,,,,,,,,,,shame,225,50,sing,new,yellow,783.4133823999437,None,n,783.4133823999437,None,"['n', 'return']","[0.7733745999867097, 0.973359200055711]",783.4133823999437,None,,,84,001,2023_Aug_30_1317,ExactRep-v3-final,2021.2.3,59.96070177791439,
,,,,,,,,,,,,50,0,50,0,,,,,,,,,,,,,,,,,,,,,,,,,,,,,,,,,,,,,,,,,,,,,,,,,785.9837375000352,None,,,,,,,,,,,,,,,,,,,,,,,,,,,,,,,,,,,,,,,,,,,,,,,,,,,,,,,,,cash,109,51,aloud,old,yellow,784.9405539999716,None,y,784.9405539999716,None,"['y', 'return']","[0.7822760000126436, 0.9980662999441847]",784.9405539999716,None,,,84,001,2023_Aug_30_1317,ExactRep-v3-final,2021.2.3,59.96070177791439,
,,,,,,,,,,,,51,0,51,0,,,,,,,,,,,,,,,,,,,,,,,,,,,,,,,,,,,,,,,,,,,,,,,,,787.5017490999307,None,,,,,,,,,,,,,,,,,,,,,,,,,,,,,,,,,,,,,,,,,,,,,,,,,,,,,,,,,humour,17,52,sing,old,yellow,786.4902212999295,None,y,786.4902212999295,None,"['y', 'return']","[0.7765970000764355, 0.9685199999948964]",786.4902212999295,None,,,84,001,2023_Aug_30_1317,ExactRep-v3-final,2021.2.3,59.96070177791439,
,,,,,,,,,,,,52,0,52,0,,,,,,,,,,,,,,,,,,,,,,,,,,,,,,,,,,,,,,,,,,,,,,,,,789.1538924999768,None,,,,,,,,,,,,,,,,,,,,,,,,,,,,,,,,,,,,,,,,,,,,,,,,,,,,,,,,,thought,165,53,sing,new,yellow,788.0196561999619,None,n,788.0196561999619,None,"['n', 'return']","[0.8470068000024185, 1.0870336999651045]",788.0196561999619,None,,,84,001,2023_Aug_30_1317,ExactRep-v3-final,2021.2.3,59.96070177791439,
,,,,,,,,,,,,53,0,53,0,,,,,,,,,,,,,,,,,,,,,,,,,,,,,,,,,,,,,,,,,,,,,,,,,790.6377625999739,None,,,,,,,,,,,,,,,,,,,,,,,,,,,,,,,,,,,,,,,,,,,,,,,,,,,,,,,,,house,47,54,silent,old,yellow,789.6699084000429,None,n,789.6699084000429,None,"['n', 'return']","[0.8447886001085863, 0.9248912000330165]",789.6699084000429,None,,,84,001,2023_Aug_30_1317,ExactRep-v3-final,2021.2.3,59.96070177791439,
,,,,,,,,,,,,54,0,54,0,,,,,,,,,,,,,,,,,,,,,,,,,,,,,,,,,,,,,,,,,,,,,,,,,794.1082493000431,None,,,,,,,,,,,,,,,,,,,,,,,,,,,,,,,,,,,,,,,,,,,,,,,,,,,,,,,,,student,209,55,sing,new,yellow,791.1391636999324,None,n,791.1391636999324,None,"['n', 'return']","[2.751495399978012, 2.9275857999455184]",791.1391636999324,None,,,84,001,2023_Aug_30_1317,ExactRep-v3-final,2021.2.3,59.96070177791439,
,,,,,,,,,,,,55,0,55,0,,,,,,,,,,,,,,,,,,,,,,,,,,,,,,,,,,,,,,,,,,,,,,,,,795.526338799973,None,,,,,,,,,,,,,,,,,,,,,,,,,,,,,,,,,,,,,,,,,,,,,,,,,,,,,,,,,sky,53,56,silent,old,yellow,794.6092738999287,None,n,794.6092738999287,None,"['n', 'return']","[0.7213068000273779, 0.8734921000432223]",794.6092738999287,None,,,84,001,2023_Aug_30_1317,ExactRep-v3-final,2021.2.3,59.96070177791439,
,,,,,,,,,,,,56,0,56,0,,,,,,,,,,,,,,,,,,,,,,,,,,,,,,,,,,,,,,,,,,,,,,,,,797.1918461000314,None,,,,,,,,,,,,,,,,,,,,,,,,,,,,,,,,,,,,,,,,,,,,,,,,,,,,,,,,,dust,87,57,aloud,old,yellow,796.0276786999311,None,y,796.0276786999311,None,"['y', 'return']","[0.8550937999971211, 1.1109557000454515]",796.0276786999311,None,,,84,001,2023_Aug_30_1317,ExactRep-v3-final,2021.2.3,59.96070177791439,
,,,,,,,,,,,,57,0,57,0,,,,,,,,,,,,,,,,,,,,,,,,,,,,,,,,,,,,,,,,,,,,,,,,,799.4974850999424,None,,,,,,,,,,,,,,,,,,,,,,,,,,,,,,,,,,,,,,,,,,,,,,,,,,,,,,,,,season,219,58,sing,new,yellow,797.6955754000228,None,n,797.6955754000228,None,"['n', 'return']","[1.3871717000147328, 1.7629893000703305]",797.6955754000228,None,,,84,001,2023_Aug_30_1317,ExactRep-v3-final,2021.2.3,59.96070177791439,
,,,,,,,,,,,,58,0,58,0,,,,,,,,,,,,,,,,,,,,,,,,,,,,,,,,,,,,,,,,,,,,,,,,,801.1155150999548,None,,,,,,,,,,,,,,,,,,,,,,,,,,,,,,,,,,,,,,,,,,,,,,,,,,,,,,,,,quality,183,59,sing,new,yellow,800.015003999928,None,n,800.015003999928,None,"['n', 'return']","[0.8676534000551328, 1.0597514000255615]",800.015003999928,None,,,84,001,2023_Aug_30_1317,ExactRep-v3-final,2021.2.3,59.96070177791439,
,,,,,,,,,,,,59,0,59,0,,,,,,,,,,,,,,,,,,,,,,,,,,,,,,,,,,,,,,,,,,,,,,,,,802.5506885999348,None,,,,,,,,,,,,,,,,,,,,,,,,,,,,,,,,,,,,,,,,,,,,,,,,,,,,,,,,,hall,239,60,sing,new,yellow,801.6204011000227,None,n,801.6204011000227,None,"['n', 'return']","[0.6302329999161884, 0.8865269999951124]",801.6204011000227,None,,,84,001,2023_Aug_30_1317,ExactRep-v3-final,2021.2.3,59.96070177791439,
,,,,,,,,,,,,60,0,60,0,,,,,,,,,,,,,,,,,,,,,,,,,,,,,,,,,,,,,,,,,,,,,,,,,804.1024128999561,None,,,,,,,,,,,,,,,,,,,,,,,,,,,,,,,,,,,,,,,,,,,,,,,,,,,,,,,,,safety,160,61,aloud,new,yellow,803.060253100004,None,n,803.060253100004,None,"['n', 'return']","[0.7984154999721795, 1.0064433999359608]",803.060253100004,None,,,84,001,2023_Aug_30_1317,ExactRep-v3-final,2021.2.3,59.96070177791439,
,,,,,,,,,,,,61,0,61,0,,,,,,,,,,,,,,,,,,,,,,,,,,,,,,,,,,,,,,,,,,,,,,,,,805.93674559996,None,,,,,,,,,,,,,,,,,,,,,,,,,,,,,,,,,,,,,,,,,,,,,,,,,,,,,,,,,product,210,62,aloud,new,yellow,804.6282259,None,n,804.6282259,None,"['n', 'return']","[1.01440059999004, 1.2623425000347197]",804.6282259,None,,,84,001,2023_Aug_30_1317,ExactRep-v3-final,2021.2.3,59.96070177791439,
,,,,,,,,,,,,62,0,62,0,,,,,,,,,,,,,,,,,,,,,,,,,,,,,,,,,,,,,,,,,,,,,,,,,808.122400399996,None,,,,,,,,,,,,,,,,,,,,,,,,,,,,,,,,,,,,,,,,,,,,,,,,,,,,,,,,,village,30,63,sing,old,yellow,806.454337800038,None,y,806.454337800038,None,"['y', 'return']","[1.396223400020972, 1.6203620000742376]",806.454337800038,None,,,84,001,2023_Aug_30_1317,ExactRep-v3-final,2021.2.3,59.96070177791439,
,,,,,,,,,,,,63,0,63,0,,,,,,,,,,,,,,,,,,,,,,,,,,,,,,,,,,,,,,,,,,,,,,,,,811.6593923999462,None,,,,,,,,,,,,,,,,,,,,,,,,,,,,,,,,,,,,,,,,,,,,,,,,,,,,,,,,,poet,148,64,silent,new,yellow,808.6520214999327,None,y,808.6520214999327,None,"['n', 'y', 'backspace', 'y', 'return']","[0.7350804000161588, 1.262587400036864, 1.7264997999882326, 2.534572000033222, 2.958675400004722]",808.6520214999327,None,,,84,001,2023_Aug_30_1317,ExactRep-v3-final,2021.2.3,59.96070177791439,
,,,,,,,,,,,,64,0,64,0,,,,,,,,,,,,,,,,,,,,,,,,,,,,,,,,,,,,,,,,,,,,,,,,,813.7115014999872,None,,,,,,,,,,,,,,,,,,,,,,,,,,,,,,,,,,,,,,,,,,,,,,,,,,,,,,,,,tool,46,65,silent,old,yellow,812.1775781000033,None,n,812.1775781000033,None,"['n', 'return']","[1.2490415999200195, 1.4973794999532402]",812.1775781000033,None,,,84,001,2023_Aug_30_1317,ExactRep-v3-final,2021.2.3,59.96070177791439,
,,,,,,,,,,,,65,0,65,0,,,,,,,,,,,,,,,,,,,,,,,,,,,,,,,,,,,,,,,,,,,,,,,,,815.4134099000366,None,,,,,,,,,,,,,,,,,,,,,,,,,,,,,,,,,,,,,,,,,,,,,,,,,,,,,,,,,silence,137,66,silent,new,yellow,814.2284363999497,None,n,814.2284363999497,None,"['n', 'return']","[0.902175199938938, 1.1422547999536619]",814.2284363999497,None,,,84,001,2023_Aug_30_1317,ExactRep-v3-final,2021.2.3,59.96070177791439,
,,,,,,,,,,,,66,0,66,0,,,,,,,,,,,,,,,,,,,,,,,,,,,,,,,,,,,,,,,,,,,,,,,,,817.3810041999677,None,,,,,,,,,,,,,,,,,,,,,,,,,,,,,,,,,,,,,,,,,,,,,,,,,,,,,,,,,camp,20,67,sing,old,yellow,815.9392201999435,None,y,815.9392201999435,None,"['return', 'y', 'return']","[0.20756120001897216, 1.1194007000885904, 1.3995185000821948]",815.9392201999435,None,,,84,001,2023_Aug_30_1317,ExactRep-v3-final,2021.2.3,59.96070177791439,
,,,,,,,,,,,,67,0,67,0,,,,,,,,,,,,,,,,,,,,,,,,,,,,,,,,,,,,,,,,,,,,,,,,,818.8830337999389,None,,,,,,,,,,,,,,,,,,,,,,,,,,,,,,,,,,,,,,,,,,,,,,,,,,,,,,,,,engine,231,68,sing,new,yellow,817.8825118000386,None,n,817.8825118000386,None,"['n', 'return']","[0.8081076999660581, 0.9602408000500873]",817.8825118000386,None,,,84,001,2023_Aug_30_1317,ExactRep-v3-final,2021.2.3,59.96070177791439,
,,,,,,,,,,,,68,0,68,0,,,,,,,,,,,,,,,,,,,,,,,,,,,,,,,,,,,,,,,,,,,,,,,,,820.383480599965,None,,,,,,,,,,,,,,,,,,,,,,,,,,,,,,,,,,,,,,,,,,,,,,,,,,,,,,,,,church,103,69,aloud,old,yellow,819.3835061999271,None,y,819.3835061999271,None,"['y', 'return']","[0.7231445000506938, 0.9630486000096425]",819.3835061999271,None,,,84,001,2023_Aug_30_1317,ExactRep-v3-final,2021.2.3,59.96070177791439,
,,,,,,,,,,,,69,0,69,0,,,,,,,,,,,,,,,,,,,,,,,,,,,,,,,,,,,,,,,,,,,,,,,,,821.9027634999948,None,,,,,,,,,,,,,,,,,,,,,,,,,,,,,,,,,,,,,,,,,,,,,,,,,,,,,,,,,passion,179,70,sing,new,yellow,820.8964724999387,None,n,820.8964724999387,None,"['n', 'return']","[0.6822278000181541, 0.9621438999893144]",820.8964724999387,None,,,84,001,2023_Aug_30_1317,ExactRep-v3-final,2021.2.3,59.96070177791439,
,,,,,,,,,,,,70,0,70,0,,,,,,,,,,,,,,,,,,,,,,,,,,,,,,,,,,,,,,,,,,,,,,,,,823.4863620999968,None,,,,,,,,,,,,,,,,,,,,,,,,,,,,,,,,,,,,,,,,,,,,,,,,,,,,,,,,,prayer,227,71,sing,new,yellow,822.4041958999587,None,n,822.4041958999587,None,"['n', 'return']","[0.7984342999989167, 1.0465955999679863]",822.4041958999587,None,,,84,001,2023_Aug_30_1317,ExactRep-v3-final,2021.2.3,59.96070177791439,
,,,,,,,,,,,,71,0,71,0,,,,,,,,,,,,,,,,,,,,,,,,,,,,,,,,,,,,,,,,,,,,,,,,,825.1383335000137,None,,,,,,,,,,,,,,,,,,,,,,,,,,,,,,,,,,,,,,,,,,,,,,,,,,,,,,,,,rock,237,72,sing,new,yellow,823.9885148999747,None,n,823.9885148999747,None,"['n', 'return']","[0.8781340999994427, 1.1103126999223605]",823.9885148999747,None,,,84,001,2023_Aug_30_1317,ExactRep-v3-final,2021.2.3,59.96070177791439,
,,,,,,,,,,,,72,0,72,0,,,,,,,,,,,,,,,,,,,,,,,,,,,,,,,,,,,,,,,,,,,,,,,,,827.3748362000333,None,,,,,,,,,,,,,,,,,,,,,,,,,,,,,,,,,,,,,,,,,,,,,,,,,,,,,,,,,sea,40,73,silent,old,yellow,825.6401624999708,None,n,825.6401624999708,None,"['n', 'return']","[1.4264748999848962, 1.6905047999462113]",825.6401624999708,None,,,84,001,2023_Aug_30_1317,ExactRep-v3-final,2021.2.3,59.96070177791439,
,,,,,,,,,,,,73,0,73,0,,,,,,,,,,,,,,,,,,,,,,,,,,,,,,,,,,,,,,,,,,,,,,,,,830.0094297999749,None,,,,,,,,,,,,,,,,,,,,,,,,,,,,,,,,,,,,,,,,,,,,,,,,,,,,,,,,,memory,55,74,silent,old,yellow,827.892513299943,None,n,827.892513299943,None,"['return', 'n', 'return']","[1.1021552999736741, 1.3980842999881133, 2.078051000018604]",827.892513299943,None,,,84,001,2023_Aug_30_1317,ExactRep-v3-final,2021.2.3,59.96070177791439,
,,,,,,,,,,,,74,0,74,0,,,,,,,,,,,,,,,,,,,,,,,,,,,,,,,,,,,,,,,,,,,,,,,,,832.546390100033,None,,,,,,,,,,,,,,,,,,,,,,,,,,,,,,,,,,,,,,,,,,,,,,,,,,,,,,,,,cabin,197,75,sing,new,yellow,830.5103693000274,None,y,830.5103693000274,None,"['y', 'return']","[1.7242244000080973, 1.9883170999819413]",830.5103693000274,None,,,84,001,2023_Aug_30_1317,ExactRep-v3-final,2021.2.3,59.96070177791439,
,,,,,,,,,,,,75,0,75,0,,,,,,,,,,,,,,,,,,,,,,,,,,,,,,,,,,,,,,,,,,,,,,,,,833.9284906999674,None,,,,,,,,,,,,,,,,,,,,,,,,,,,,,,,,,,,,,,,,,,,,,,,,,,,,,,,,,book,62,76,silent,old,yellow,833.0476646999596,None,n,833.0476646999596,None,"['n', 'return']","[0.6349886999232695, 0.8270862000063062]",833.0476646999596,None,,,84,001,2023_Aug_30_1317,ExactRep-v3-final,2021.2.3,59.96070177791439,
,,,,,,,,,,,,76,0,76,0,,,,,,,,,,,,,,,,,,,,,,,,,,,,,,,,,,,,,,,,,,,,,,,,,835.8167183999904,None,,,,,,,,,,,,,,,,,,,,,,,,,,,,,,,,,,,,,,,,,,,,,,,,,,,,,,,,,bird,161,77,sing,new,yellow,834.436511100037,None,n,834.436511100037,None,"['n', 'return']","[1.030137600027956, 1.3420928000705317]",834.436511100037,None,,,84,001,2023_Aug_30_1317,ExactRep-v3-final,2021.2.3,59.96070177791439,
,,,,,,,,,,,,77,0,77,0,,,,,,,,,,,,,,,,,,,,,,,,,,,,,,,,,,,,,,,,,,,,,,,,,837.6683182000415,None,,,,,,,,,,,,,,,,,,,,,,,,,,,,,,,,,,,,,,,,,,,,,,,,,,,,,,,,,honour,125,78,silent,new,yellow,836.3487454999704,None,n,836.3487454999704,None,"['n', 'return']","[1.0298637000378221, 1.277917500003241]",836.3487454999704,None,,,84,001,2023_Aug_30_1317,ExactRep-v3-final,2021.2.3,59.96070177791439,
,,,,,,,,,,,,78,0,78,0,,,,,,,,,,,,,,,,,,,,,,,,,,,,,,,,,,,,,,,,,,,,,,,,,839.353659800021,None,,,,,,,,,,,,,,,,,,,,,,,,,,,,,,,,,,,,,,,,,,,,,,,,,,,,,,,,,slave,43,79,silent,old,yellow,838.1823678000364,None,n,838.1823678000364,None,"['n', 'return']","[0.8525073999771848, 1.1242197999963537]",838.1823678000364,None,,,84,001,2023_Aug_30_1317,ExactRep-v3-final,2021.2.3,59.96070177791439,
,,,,,,,,,,,,79,0,79,0,,,,,,,,,,,,,,,,,,,,,,,,,,,,,,,,,,,,,,,,,,,,,,,,,841.3054283999372,None,,,,,,,,,,,,,,,,,,,,,,,,,,,,,,,,,,,,,,,,,,,,,,,,,,,,,,,,,life,169,80,sing,new,yellow,839.8788444999373,None,y,839.8788444999373,None,"['y', 'return']","[1.17177790007554, 1.3798319000052288]",839.8788444999373,None,,,84,001,2023_Aug_30_1317,ExactRep-v3-final,2021.2.3,59.96070177791439,
,,,,,,,,,,,,80,0,80,0,,,,,,,,,,,,,,,,,,,,,,,,,,,,,,,,,,,,,,,,,,,,,,,,,843.5415624999441,None,,,,,,,,,,,,,,,,,,,,,,,,,,,,,,,,,,,,,,,,,,,,,,,,,,,,,,,,,college,132,81,silent,new,yellow,841.8333701000083,None,n,841.8333701000083,None,"['n', 'return']","[0.5933122000424191, 1.6731914000120014]",841.8333701000083,None,,,84,001,2023_Aug_30_1317,ExactRep-v3-final,2021.2.3,59.96070177791439,
,,,,,,,,,,,,81,0,81,0,,,,,,,,,,,,,,,,,,,,,,,,,,,,,,,,,,,,,,,,,,,,,,,,,845.2931463000132,None,,,,,,,,,,,,,,,,,,,,,,,,,,,,,,,,,,,,,,,,,,,,,,,,,,,,,,,,,nail,115,82,aloud,old,yellow,844.0621829000302,None,n,844.0621829000302,None,"['n', 'return']","[0.9884546999819577, 1.1965646999888122]",844.0621829000302,None,,,84,001,2023_Aug_30_1317,ExactRep-v3-final,2021.2.3,59.96070177791439,
,,,,,,,,,,,,82,0,82,0,,,,,,,,,,,,,,,,,,,,,,,,,,,,,,,,,,,,,,,,,,,,,,,,,848.4627603000263,None,,,,,,,,,,,,,,,,,,,,,,,,,,,,,,,,,,,,,,,,,,,,,,,,,,,,,,,,,lake,181,83,sing,new,yellow,845.8184235999361,None,y,845.8184235999361,None,"['n', 'y', 'backspace', 'y', 'return']","[0.904215499991551, 1.6568334000185132, 2.1602449000347406, 2.384272399940528, 2.6001995999831706]",845.8184235999361,None,,,84,001,2023_Aug_30_1317,ExactRep-v3-final,2021.2.3,59.96070177791439,
,,,,,,,,,,,,83,0,83,0,,,,,,,,,,,,,,,,,,,,,,,,,,,,,,,,,,,,,,,,,,,,,,,,,849.9640653999522,None,,,,,,,,,,,,,,,,,,,,,,,,,,,,,,,,,,,,,,,,,,,,,,,,,,,,,,,,,steam,186,84,aloud,new,yellow,848.9709582999349,None,n,848.9709582999349,None,"['n', 'return']","[0.751716100028716, 0.9517549000447616]",848.9709582999349,None,,,84,001,2023_Aug_30_1317,ExactRep-v3-final,2021.2.3,59.96070177791439,
,,,,,,,,,,,,84,0,84,0,,,,,,,,,,,,,,,,,,,,,,,,,,,,,,,,,,,,,,,,,,,,,,,,,851.5656966000097,None,,,,,,,,,,,,,,,,,,,,,,,,,,,,,,,,,,,,,,,,,,,,,,,,,,,,,,,,,virtue,10,85,sing,old,yellow,850.4692156999372,None,y,850.4692156999372,None,"['y', 'return']","[0.7574052000418305, 1.0535020000534132]",850.4692156999372,None,,,84,001,2023_Aug_30_1317,ExactRep-v3-final,2021.2.3,59.96070177791439,
,,,,,,,,,,,,85,0,85,0,,,,,,,,,,,,,,,,,,,,,,,,,,,,,,,,,,,,,,,,,,,,,,,,,853.0005532000214,None,,,,,,,,,,,,,,,,,,,,,,,,,,,,,,,,,,,,,,,,,,,,,,,,,,,,,,,,,wife,182,86,aloud,new,yellow,852.0962551999837,None,n,852.0962551999837,None,"['n', 'return']","[0.6984043000265956, 0.8664281000383198]",852.0962551999837,None,,,84,001,2023_Aug_30_1317,ExactRep-v3-final,2021.2.3,59.96070177791439,
,,,,,,,,,,,,86,0,86,0,,,,,,,,,,,,,,,,,,,,,,,,,,,,,,,,,,,,,,,,,,,,,,,,,854.5854798000073,None,,,,,,,,,,,,,,,,,,,,,,,,,,,,,,,,,,,,,,,,,,,,,,,,,,,,,,,,,square,15,87,sing,old,yellow,853.5099739000434,None,n,853.5099739000434,None,"['n', 'return']","[0.8847122000297531, 1.036848000017926]",853.5099739000434,None,,,84,001,2023_Aug_30_1317,ExactRep-v3-final,2021.2.3,59.96070177791439,
,,,,,,,,,,,,87,0,87,0,,,,,,,,,,,,,,,,,,,,,,,,,,,,,,,,,,,,,,,,,,,,,,,,,856.0203717999393,None,,,,,,,,,,,,,,,,,,,,,,,,,,,,,,,,,,,,,,,,,,,,,,,,,,,,,,,,,car,104,88,aloud,old,yellow,855.1025025999406,None,y,855.1025025999406,None,"['y', 'return']","[0.6680924999527633, 0.8761664000339806]",855.1025025999406,None,,,84,001,2023_Aug_30_1317,ExactRep-v3-final,2021.2.3,59.96070177791439,
,,,,,,,,,,,,88,0,88,0,,,,,,,,,,,,,,,,,,,,,,,,,,,,,,,,,,,,,,,,,,,,,,,,,857.8552615999943,None,,,,,,,,,,,,,,,,,,,,,,,,,,,,,,,,,,,,,,,,,,,,,,,,,,,,,,,,,dawn,4,89,sing,old,yellow,856.5386746999575,None,y,856.5386746999575,None,"['y', 'return']","[1.087885499931872, 1.27209079999011]",856.5386746999575,None,,,84,001,2023_Aug_30_1317,ExactRep-v3-final,2021.2.3,59.96070177791439,
,,,,,,,,,,,,89,0,89,0,,,,,,,,,,,,,,,,,,,,,,,,,,,,,,,,,,,,,,,,,,,,,,,,,859.9822707000421,None,,,,,,,,,,,,,,,,,,,,,,,,,,,,,,,,,,,,,,,,,,,,,,,,,,,,,,,,,fire,184,90,aloud,new,yellow,858.3714976999909,None,n,858.3714976999909,None,"['n', 'return']","[1.3111292999237776, 1.5590653999242932]",858.3714976999909,None,,,84,001,2023_Aug_30_1317,ExactRep-v3-final,2021.2.3,59.96070177791439,
,,,,,,,,,,,,90,0,90,0,,,,,,,,,,,,,,,,,,,,,,,,,,,,,,,,,,,,,,,,,,,,,,,,,861.4757361999946,None,,,,,,,,,,,,,,,,,,,,,,,,,,,,,,,,,,,,,,,,,,,,,,,,,,,,,,,,,meat,58,91,silent,old,yellow,860.4979676000075,None,y,860.4979676000075,None,"['y', 'return']","[0.7287792999995872, 0.9286842999281362]",860.4979676000075,None,,,84,001,2023_Aug_30_1317,ExactRep-v3-final,2021.2.3,59.96070177791439,
,,,,,,,,,,,,91,0,91,0,,,,,,,,,,,,,,,,,,,,,,,,,,,,,,,,,,,,,,,,,,,,,,,,,863.0273765999591,None,,,,,,,,,,,,,,,,,,,,,,,,,,,,,,,,,,,,,,,,,,,,,,,,,,,,,,,,,dream,175,92,sing,new,yellow,861.9920679000206,None,n,861.9920679000206,None,"['n', 'return']","[0.7785503000486642, 0.9866698000114411]",861.9920679000206,None,,,84,001,2023_Aug_30_1317,ExactRep-v3-final,2021.2.3,59.96070177791439,
,,,,,,,,,,,,92,0,92,0,,,,,,,,,,,,,,,,,,,,,,,,,,,,,,,,,,,,,,,,,,,,,,,,,864.6287573999725,None,,,,,,,,,,,,,,,,,,,,,,,,,,,,,,,,,,,,,,,,,,,,,,,,,,,,,,,,,officer,166,93,aloud,new,yellow,863.5444716999773,None,n,863.5444716999773,None,"['n', 'return']","[0.8582273999927565, 1.0501281999750063]",863.5444716999773,None,,,84,001,2023_Aug_30_1317,ExactRep-v3-final,2021.2.3,59.96070177791439,
,,,,,,,,,,,,93,0,93,0,,,,,,,,,,,,,,,,,,,,,,,,,,,,,,,,,,,,,,,,,,,,,,,,,867.1983155999333,None,,,,,,,,,,,,,,,,,,,,,,,,,,,,,,,,,,,,,,,,,,,,,,,,,,,,,,,,,salary,114,94,aloud,old,yellow,865.1300228999462,None,y,865.1300228999462,None,"['n', 'y', 'backspace', 'y', 'return']","[0.704656400019303, 1.0647815000265837, 1.6645884000463411, 1.8005652000429109, 2.032869099988602]",865.1300228999462,None,,,84,001,2023_Aug_30_1317,ExactRep-v3-final,2021.2.3,59.96070177791439,
,,,,,,,,,,,,94,0,94,0,,,,,,,,,,,,,,,,,,,,,,,,,,,,,,,,,,,,,,,,,,,,,,,,,868.5986980999587,None,,,,,,,,,,,,,,,,,,,,,,,,,,,,,,,,,,,,,,,,,,,,,,,,,,,,,,,,,door,146,95,silent,new,yellow,867.7146762999473,None,n,867.7146762999473,None,"['n', 'return']","[0.6643294000532478, 0.8400411000475287]",867.7146762999473,None,,,84,001,2023_Aug_30_1317,ExactRep-v3-final,2021.2.3,59.96070177791439,
,,,,,,,,,,,,95,0,95,0,,,,,,,,,,,,,,,,,,,,,,,,,,,,,,,,,,,,,,,,,,,,,,,,,872.3862568000332,None,,,,,,,,,,,,,,,,,,,,,,,,,,,,,,,,,,,,,,,,,,,,,,,,,,,,,,,,,home,26,96,sing,old,yellow,869.0998596999561,None,n,869.0998596999561,None,"['n', 'return']","[3.1027427000226453, 3.2389071999350563]",869.0998596999561,None,,,84,001,2023_Aug_30_1317,ExactRep-v3-final,2021.2.3,59.96070177791439,
,,,,,,,,,,,,96,0,96,0,,,,,,,,,,,,,,,,,,,,,,,,,,,,,,,,,,,,,,,,,,,,,,,,,875.0558741999557,None,,,,,,,,,,,,,,,,,,,,,,,,,,,,,,,,,,,,,,,,,,,,,,,,,,,,,,,,,mercy,215,97,sing,new,yellow,872.8874615000095,None,n,872.8874615000095,None,"['n', 'return']","[1.5872609000653028, 2.123135000001639]",872.8874615000095,None,,,84,001,2023_Aug_30_1317,ExactRep-v3-final,2021.2.3,59.96070177791439,
,,,,,,,,,,,,97,0,97,0,,,,,,,,,,,,,,,,,,,,,,,,,,,,,,,,,,,,,,,,,,,,,,,,,876.5406747999368,None,,,,,,,,,,,,,,,,,,,,,,,,,,,,,,,,,,,,,,,,,,,,,,,,,,,,,,,,,army,105,98,aloud,old,yellow,875.5602423000382,None,y,875.5602423000382,None,"['y', 'return']","[0.6823851000517607, 0.9383880000095814]",875.5602423000382,None,,,84,001,2023_Aug_30_1317,ExactRep-v3-final,2021.2.3,59.96070177791439,
,,,,,,,,,,,,98,0,98,0,,,,,,,,,,,,,,,,,,,,,,,,,,,,,,,,,,,,,,,,,,,,,,,,,878.2093071000418,None,,,,,,,,,,,,,,,,,,,,,,,,,,,,,,,,,,,,,,,,,,,,,,,,,,,,,,,,,coast,201,99,sing,new,yellow,877.041497200029,None,n,877.041497200029,None,"['n', 'return']","[0.873092700028792, 1.129137200070545]",877.041497200029,None,,,84,001,2023_Aug_30_1317,ExactRep-v3-final,2021.2.3,59.96070177791439,
,,,,,,,,,,,,99,0,99,0,,,,,,,,,,,,,,,,,,,,,,,,,,,,,,,,,,,,,,,,,,,,,,,,,880.493970099953,None,,,,,,,,,,,,,,,,,,,,,,,,,,,,,,,,,,,,,,,,,,,,,,,,,,,,,,,,,science,70,100,silent,old,yellow,878.732181499945,None,y,878.732181499945,None,"['y', 'return']","[1.2386261000065133, 1.71840140002314]",878.732181499945,None,,,84,001,2023_Aug_30_1317,ExactRep-v3-final,2021.2.3,59.96070177791439,
,,,,,,,,,,,,100,0,100,0,,,,,,,,,,,,,,,,,,,,,,,,,,,,,,,,,,,,,,,,,,,,,,,,,881.9430948999943,None,,,,,,,,,,,,,,,,,,,,,,,,,,,,,,,,,,,,,,,,,,,,,,,,,,,,,,,,,sugar,157,101,silent,new,yellow,880.9954746000003,None,n,880.9954746000003,None,"['n', 'return']","[0.7031817000824958, 0.8871751000406221]",880.9954746000003,None,,,84,001,2023_Aug_30_1317,ExactRep-v3-final,2021.2.3,59.96070177791439,
,,,,,,,,,,,,101,0,101,0,,,,,,,,,,,,,,,,,,,,,,,,,,,,,,,,,,,,,,,,,,,,,,,,,883.6477350000059,None,,,,,,,,,,,,,,,,,,,,,,,,,,,,,,,,,,,,,,,,,,,,,,,,,,,,,,,,,flag,60,102,silent,old,yellow,882.4459423000226,None,n,882.4459423000226,None,"['n', 'return']","[0.9886397999944165, 1.1649295000825077]",882.4459423000226,None,,,84,001,2023_Aug_30_1317,ExactRep-v3-final,2021.2.3,59.96070177791439,
,,,,,,,,,,,,102,0,102,0,,,,,,,,,,,,,,,,,,,,,,,,,,,,,,,,,,,,,,,,,,,,,,,,,885.182701600017,None,,,,,,,,,,,,,,,,,,,,,,,,,,,,,,,,,,,,,,,,,,,,,,,,,,,,,,,,,advice,200,103,aloud,new,yellow,884.1656754999422,None,n,884.1656754999422,None,"['n', 'return']","[0.7650202000513673, 0.9811014999868348]",884.1656754999422,None,,,84,001,2023_Aug_30_1317,ExactRep-v3-final,2021.2.3,59.96070177791439,
,,,,,,,,,,,,103,0,103,0,,,,,,,,,,,,,,,,,,,,,,,,,,,,,,,,,,,,,,,,,,,,,,,,,886.6672858999809,None,,,,,,,,,,,,,,,,,,,,,,,,,,,,,,,,,,,,,,,,,,,,,,,,,,,,,,,,,origin,13,104,sing,old,yellow,885.7083320999518,None,y,885.7083320999518,None,"['y', 'return']","[0.7263546000467613, 0.9103822000324726]",885.7083320999518,None,,,84,001,2023_Aug_30_1317,ExactRep-v3-final,2021.2.3,59.96070177791439,
,,,,,,,,,,,,104,0,104,0,,,,,,,,,,,,,,,,,,,,,,,,,,,,,,,,,,,,,,,,,,,,,,,,,889.6373555000173,None,,,,,,,,,,,,,,,,,,,,,,,,,,,,,,,,,,,,,,,,,,,,,,,,,,,,,,,,,fault,204,105,aloud,new,yellow,887.1686394000426,None,n,887.1686394000426,None,"['n', 'return']","[2.2580218999646604, 2.433964499970898]",887.1686394000426,None,,,84,001,2023_Aug_30_1317,ExactRep-v3-final,2021.2.3,59.96070177791439,
,,,,,,,,,,,,105,0,105,0,,,,,,,,,,,,,,,,,,,,,,,,,,,,,,,,,,,,,,,,,,,,,,,,,891.2225172999315,None,,,,,,,,,,,,,,,,,,,,,,,,,,,,,,,,,,,,,,,,,,,,,,,,,,,,,,,,,spirit,238,106,aloud,new,yellow,890.1576776999282,None,n,890.1576776999282,None,"['n', 'return']","[0.8609773999778554, 1.0209964999230579]",890.1576776999282,None,,,84,001,2023_Aug_30_1317,ExactRep-v3-final,2021.2.3,59.96070177791439,
,,,,,,,,,,,,106,0,106,0,,,,,,,,,,,,,,,,,,,,,,,,,,,,,,,,,,,,,,,,,,,,,,,,,892.6371105000144,None,,,,,,,,,,,,,,,,,,,,,,,,,,,,,,,,,,,,,,,,,,,,,,,,,,,,,,,,,party,45,107,silent,old,yellow,891.7488026999636,None,n,891.7488026999636,None,"['n', 'return']","[0.6458662999793887, 0.8380704000592232]",891.7488026999636,None,,,84,001,2023_Aug_30_1317,ExactRep-v3-final,2021.2.3,59.96070177791439,
,,,,,,,,,,,,107,0,107,0,,,,,,,,,,,,,,,,,,,,,,,,,,,,,,,,,,,,,,,,,,,,,,,,,894.1416255999357,None,,,,,,,,,,,,,,,,,,,,,,,,,,,,,,,,,,,,,,,,,,,,,,,,,,,,,,,,,corn,128,108,silent,new,yellow,893.1462856000289,None,n,893.1462856000289,None,"['n', 'return']","[0.752367899985984, 0.95255529996939]",893.1462856000289,None,,,84,001,2023_Aug_30_1317,ExactRep-v3-final,2021.2.3,59.96070177791439,
,,,,,,,,,,,,108,0,108,0,,,,,,,,,,,,,,,,,,,,,,,,,,,,,,,,,,,,,,,,,,,,,,,,,895.892269999953,None,,,,,,,,,,,,,,,,,,,,,,,,,,,,,,,,,,,,,,,,,,,,,,,,,,,,,,,,,plain,163,109,sing,new,yellow,894.6595812999876,None,n,894.6595812999876,None,"['n', 'return']","[1.055095799965784, 1.199227000004612]",894.6595812999876,None,,,84,001,2023_Aug_30_1317,ExactRep-v3-final,2021.2.3,59.96070177791439,
,,,,,,,,,,,,109,0,109,0,,,,,,,,,,,,,,,,,,,,,,,,,,,,,,,,,,,,,,,,,,,,,,,,,898.3794414999429,None,,,,,,,,,,,,,,,,,,,,,,,,,,,,,,,,,,,,,,,,,,,,,,,,,,,,,,,,,body,65,110,silent,old,yellow,896.3943994999863,None,n,896.3943994999863,None,"['n', 'return']","[1.7842489999020472, 1.9363100999034941]",896.3943994999863,None,,,84,001,2023_Aug_30_1317,ExactRep-v3-final,2021.2.3,59.96070177791439,
,,,,,,,,,,,,110,0,110,0,,,,,,,,,,,,,,,,,,,,,,,,,,,,,,,,,,,,,,,,,,,,,,,,,899.763885900029,None,,,,,,,,,,,,,,,,,,,,,,,,,,,,,,,,,,,,,,,,,,,,,,,,,,,,,,,,,child,99,111,aloud,old,yellow,898.8949838000117,None,n,898.8949838000117,None,"['n', 'return']","[0.6436436000512913, 0.8196098000044003]",898.8949838000117,None,,,84,001,2023_Aug_30_1317,ExactRep-v3-final,2021.2.3,59.96070177791439,
,,,,,,,,,,,,111,0,111,0,,,,,,,,,,,,,,,,,,,,,,,,,,,,,,,,,,,,,,,,,,,,,,,,,902.1152608999982,None,,,,,,,,,,,,,,,,,,,,,,,,,,,,,,,,,,,,,,,,,,,,,,,,,,,,,,,,,ticket,189,112,sing,new,yellow,900.2647455999395,None,n,900.2647455999395,None,"['n', 'return']","[1.6579396999441087, 1.817818499985151]",900.2647455999395,None,,,84,001,2023_Aug_30_1317,ExactRep-v3-final,2021.2.3,59.96070177791439,
,,,,,,,,,,,,112,0,112,0,,,,,,,,,,,,,,,,,,,,,,,,,,,,,,,,,,,,,,,,,,,,,,,,,903.8015866000205,None,,,,,,,,,,,,,,,,,,,,,,,,,,,,,,,,,,,,,,,,,,,,,,,,,,,,,,,,,moral,198,113,aloud,new,yellow,902.621123699937,None,y,902.621123699937,None,"['y', 'return']","[0.9576411000452936, 1.1415650000562891]",902.621123699937,None,,,84,001,2023_Aug_30_1317,ExactRep-v3-final,2021.2.3,59.96070177791439,
,,,,,,,,,,,,113,0,113,0,,,,,,,,,,,,,,,,,,,,,,,,,,,,,,,,,,,,,,,,,,,,,,,,,905.219204199966,None,,,,,,,,,,,,,,,,,,,,,,,,,,,,,,,,,,,,,,,,,,,,,,,,,,,,,,,,,butter,72,114,silent,old,yellow,904.3206287999637,None,n,904.3206287999637,None,"['n', 'return']","[0.6899757999926805, 0.8501628000522032]",904.3206287999637,None,,,84,001,2023_Aug_30_1317,ExactRep-v3-final,2021.2.3,59.96070177791439,
,,,,,,,,,,,,114,0,114,0,,,,,,,,,,,,,,,,,,,,,,,,,,,,,,,,,,,,,,,,,,,,,,,,,906.7373086999869,None,,,,,,,,,,,,,,,,,,,,,,,,,,,,,,,,,,,,,,,,,,,,,,,,,,,,,,,,,freedom,177,115,sing,new,yellow,905.736405899981,None,n,905.736405899981,None,"['n', 'return']","[0.7863197999540716, 0.9542424000101164]",905.736405899981,None,,,84,001,2023_Aug_30_1317,ExactRep-v3-final,2021.2.3,59.96070177791439,
,,,,,,,,,,,,115,0,115,0,,,,,,,,,,,,,,,,,,,,,,,,,,,,,,,,,,,,,,,,,,,,,,,,,908.2713083999697,None,,,,,,,,,,,,,,,,,,,,,,,,,,,,,,,,,,,,,,,,,,,,,,,,,,,,,,,,,vision,80,116,aloud,old,yellow,907.245440299972,None,y,907.245440299972,None,"['y', 'return']","[0.7492276999400929, 0.9890478999586776]",907.245440299972,None,,,84,001,2023_Aug_30_1317,ExactRep-v3-final,2021.2.3,59.96070177791439,
,,,,,,,,,,,,116,0,116,0,,,,,,,,,,,,,,,,,,,,,,,,,,,,,,,,,,,,,,,,,,,,,,,,,909.5737261000322,None,,,,,,,,,,,,,,,,,,,,,,,,,,,,,,,,,,,,,,,,,,,,,,,,,,,,,,,,,ship,226,117,aloud,new,yellow,908.774270099937,None,n,908.774270099937,None,"['n', 'return']","[0.5403236000565812, 0.756442700047046]",908.774270099937,None,,,84,001,2023_Aug_30_1317,ExactRep-v3-final,2021.2.3,59.96070177791439,
,,,,,,,,,,,,117,0,117,0,,,,,,,,,,,,,,,,,,,,,,,,,,,,,,,,,,,,,,,,,,,,,,,,,911.2423542999895,None,,,,,,,,,,,,,,,,,,,,,,,,,,,,,,,,,,,,,,,,,,,,,,,,,,,,,,,,,meeting,126,118,silent,new,yellow,910.0914477999322,None,n,910.0914477999322,None,"['n', 'return']","[0.9512092999648303, 1.1031255000270903]",910.0914477999322,None,,,84,001,2023_Aug_30_1317,ExactRep-v3-final,2021.2.3,59.96070177791439,
,,,,,,,,,,,,118,0,118,0,,,,,,,,,,,,,,,,,,,,,,,,,,,,,,,,,,,,,,,,,,,,,,,,,913.3106932999799,None,,,,,,,,,,,,,,,,,,,,,,,,,,,,,,,,,,,,,,,,,,,,,,,,,,,,,,,,,wheat,135,119,silent,new,yellow,911.7598581999773,None,n,911.7598581999773,None,"['n', 'return']","[1.3387509000021964, 1.5148123999824747]",911.7598581999773,None,,,84,001,2023_Aug_30_1317,ExactRep-v3-final,2021.2.3,59.96070177791439,
,,,,,,,,,,,,119,0,119,0,,,,,,,,,,,,,,,,,,,,,,,,,,,,,,,,,,,,,,,,,,,,,,,,,914.7616994000273,None,,,,,,,,,,,,,,,,,,,,,,,,,,,,,,,,,,,,,,,,,,,,,,,,,,,,,,,,,world,211,120,sing,new,yellow,913.8286859999644,None,n,913.8286859999644,None,"['n', 'return']","[0.6538574999431148, 0.8859620000002906]",913.8286859999644,None,,,84,001,2023_Aug_30_1317,ExactRep-v3-final,2021.2.3,59.96070177791439,
,,,,,,,,,,,,120,0,120,0,,,,,,,,,,,,,,,,,,,,,,,,,,,,,,,,,,,,,,,,,,,,,,,,,916.4474567000289,None,,,,,,,,,,,,,,,,,,,,,,,,,,,,,,,,,,,,,,,,,,,,,,,,,,,,,,,,,effort,61,121,silent,old,yellow,915.2631284999661,None,n,915.2631284999661,None,"['n', 'return']","[0.947488599922508, 1.1395026999525726]",915.2631284999661,None,,,84,001,2023_Aug_30_1317,ExactRep-v3-final,2021.2.3,59.96070177791439,
,,,,,,,,,,,,121,0,121,0,,,,,,,,,,,,,,,,,,,,,,,,,,,,,,,,,,,,,,,,,,,,,,,,,920.0331539999461,None,,,,,,,,,,,,,,,,,,,,,,,,,,,,,,,,,,,,,,,,,,,,,,,,,,,,,,,,,troops,117,122,aloud,old,yellow,916.9681705000112,None,n,916.9681705000112,None,"['n', 'return']","[1.362675700103864, 3.018550700042397]",916.9681705000112,None,,,84,001,2023_Aug_30_1317,ExactRep-v3-final,2021.2.3,59.96070177791439,
,,,,,,,,,,,,122,0,122,0,,,,,,,,,,,,,,,,,,,,,,,,,,,,,,,,,,,,,,,,,,,,,,,,,921.6022069000173,None,,,,,,,,,,,,,,,,,,,,,,,,,,,,,,,,,,,,,,,,,,,,,,,,,,,,,,,,,pupil,170,123,aloud,new,yellow,920.5385573999956,None,n,920.5385573999956,None,"['n', 'return']","[0.8719622000353411, 1.0241598000284284]",920.5385573999956,None,,,84,001,2023_Aug_30_1317,ExactRep-v3-final,2021.2.3,59.96070177791439,
,,,,,,,,,,,,123,0,123,0,,,,,,,,,,,,,,,,,,,,,,,,,,,,,,,,,,,,,,,,,,,,,,,,,923.1194027999882,None,,,,,,,,,,,,,,,,,,,,,,,,,,,,,,,,,,,,,,,,,,,,,,,,,,,,,,,,,prison,34,124,sing,old,yellow,922.1035728999414,None,y,922.1035728999414,None,"['y', 'return']","[0.7709709999617189, 0.9709566000383347]",922.1035728999414,None,,,84,001,2023_Aug_30_1317,ExactRep-v3-final,2021.2.3,59.96070177791439,
,,,,,,,,,,,,124,0,124,0,,,,,,,,,,,,,,,,,,,,,,,,,,,,,,,,,,,,,,,,,,,,,,,,,924.4886725000106,None,,,,,,,,,,,,,,,,,,,,,,,,,,,,,,,,,,,,,,,,,,,,,,,,,,,,,,,,,justice,236,125,aloud,new,yellow,923.621736299945,None,n,923.621736299945,None,"['n', 'return']","[0.6448309000115842, 0.8288470000261441]",923.621736299945,None,,,84,001,2023_Aug_30_1317,ExactRep-v3-final,2021.2.3,59.96070177791439,
,,,,,,,,,,,,125,0,125,0,,,,,,,,,,,,,,,,,,,,,,,,,,,,,,,,,,,,,,,,,,,,,,,,,925.9566892000148,None,,,,,,,,,,,,,,,,,,,,,,,,,,,,,,,,,,,,,,,,,,,,,,,,,,,,,,,,,street,113,126,aloud,old,yellow,924.9964363999898,None,y,924.9964363999898,None,"['y', 'return']","[0.7022212999872863, 0.9182009999640286]",924.9964363999898,None,,,84,001,2023_Aug_30_1317,ExactRep-v3-final,2021.2.3,59.96070177791439,
,,,,,,,,,,,,126,0,126,0,,,,,,,,,,,,,,,,,,,,,,,,,,,,,,,,,,,,,,,,,,,,,,,,,929.2768319000024,None,,,,,,,,,,,,,,,,,,,,,,,,,,,,,,,,,,,,,,,,,,,,,,,,,,,,,,,,,blossom,122,127,silent,new,yellow,926.4646326999646,None,n,926.4646326999646,None,"['n', 'return']","[2.617982399999164, 2.7700507999397814]",926.4646326999646,None,,,84,001,2023_Aug_30_1317,ExactRep-v3-final,2021.2.3,59.96070177791439,
,,,,,,,,,,,,127,0,127,0,,,,,,,,,,,,,,,,,,,,,,,,,,,,,,,,,,,,,,,,,,,,,,,,,931.4125516000204,None,,,,,,,,,,,,,,,,,,,,,,,,,,,,,,,,,,,,,,,,,,,,,,,,,,,,,,,,,grief,5,128,sing,old,yellow,929.7932377000106,None,n,929.7932377000106,None,"['n', 'return']","[1.4575719001004472, 1.5854216000298038]",929.7932377000106,None,,,84,001,2023_Aug_30_1317,ExactRep-v3-final,2021.2.3,59.96070177791439,
,,,,,,,,,,,,128,0,128,0,,,,,,,,,,,,,,,,,,,,,,,,,,,,,,,,,,,,,,,,,,,,,,,,,933.2474579999689,None,,,,,,,,,,,,,,,,,,,,,,,,,,,,,,,,,,,,,,,,,,,,,,,,,,,,,,,,,seat,212,129,aloud,new,yellow,931.9286409999477,None,n,931.9286409999477,None,"['n', 'return']","[1.1459572999738157, 1.274051999906078]",931.9286409999477,None,,,84,001,2023_Aug_30_1317,ExactRep-v3-final,2021.2.3,59.96070177791439,
,,,,,,,,,,,,129,0,129,0,,,,,,,,,,,,,,,,,,,,,,,,,,,,,,,,,,,,,,,,,,,,,,,,,934.8814107000362,None,,,,,,,,,,,,,,,,,,,,,,,,,,,,,,,,,,,,,,,,,,,,,,,,,,,,,,,,,machine,134,130,silent,new,yellow,933.7647241000086,None,n,933.7647241000086,None,"['n', 'return']","[0.9260297000873834, 1.0779035000596195]",933.7647241000086,None,,,84,001,2023_Aug_30_1317,ExactRep-v3-final,2021.2.3,59.96070177791439,
,,,,,,,,,,,,130,0,130,0,,,,,,,,,,,,,,,,,,,,,,,,,,,,,,,,,,,,,,,,,,,,,,,,,936.3503085999982,None,,,,,,,,,,,,,,,,,,,,,,,,,,,,,,,,,,,,,,,,,,,,,,,,,,,,,,,,,lord,16,131,sing,old,yellow,935.3882880000165,None,y,935.3882880000165,None,"['y', 'return']","[0.7743608000455424, 0.9184842000249773]",935.3882880000165,None,,,84,001,2023_Aug_30_1317,ExactRep-v3-final,2021.2.3,59.96070177791439,
,,,,,,,,,,,,131,0,131,0,,,,,,,,,,,,,,,,,,,,,,,,,,,,,,,,,,,,,,,,,,,,,,,,,939.0358240000205,None,,,,,,,,,,,,,,,,,,,,,,,,,,,,,,,,,,,,,,,,,,,,,,,,,,,,,,,,,series,91,132,aloud,old,yellow,936.8512584000127,None,n,936.8512584000127,None,"['n', 'return']","[1.9752550000557676, 2.143439200008288]",936.8512584000127,None,,,84,001,2023_Aug_30_1317,ExactRep-v3-final,2021.2.3,59.96070177791439,
