trials_fam.thisRepN,trials_fam.thisTrialN,trials_fam.thisN,trials_fam.thisIndex,trials_prc.thisRepN,trials_prc.thisTrialN,trials_prc.thisN,trials_prc.thisIndex,StudyLoop.thisRepN,StudyLoop.thisTrialN,StudyLoop.thisN,StudyLoop.thisIndex,TestLoop.thisRepN,TestLoop.thisTrialN,TestLoop.thisN,TestLoop.thisIndex,text_colortest.started,text_colortest.stopped,key_colortest.keys,key_colortest.rt,key_colortest.started,key_colortest.stopped,textCondition.started,textCondition.stopped,keyCondition.keys,keyCondition.rt,keyCondition.started,keyCondition.stopped,Condition_between,Condition_counterbal,keyWelcome.keys,keyWelcome.rt,keyWelcome.started,keyWelcome.stopped,welcome_a.started,welcome_a.stopped,welcome_b.started,welcome_b.stopped,welcome_c.started,welcome_c.stopped,welcome_d.started,welcome_d.stopped,welcome_e.started,welcome_e.stopped,welcome_f.started,welcome_f.stopped,key_resp_fam_inst.keys,key_resp_fam_inst.rt,key_resp_fam_inst.started,key_resp_fam_inst.stopped,fam_a.started,fam_a.stopped,fam_b.started,fam_b.stopped,fam_c.started,fam_c.stopped,fam_d.started,fam_d.stopped,fam_e.started,fam_e.stopped,fam_f.started,fam_f.stopped,text_famil.started,text_famil.stopped,textBlank500.started,textBlank500.stopped,key_resp_prc_inst.keys,key_resp_prc_inst.rt,key_resp_prc_inst.started,key_resp_prc_inst.stopped,prac_a.started,prac_a.stopped,prac_b.started,prac_b.stopped,prac_c.started,prac_c.stopped,prac_d.started,prac_d.stopped,prac_e.started,prac_e.stopped,prac_f.started,prac_f.stopped,text_prc_trial.started,text_prc_trial.stopped,key_resp_study_inst.keys,key_resp_study_inst.rt,key_resp_study_inst.started,key_resp_study_inst.stopped,crit_a.started,crit_a.stopped,crit_b.started,crit_b.stopped,crit_c.started,crit_c.stopped,crit_d.started,crit_d.stopped,crit_e.started,crit_e.stopped,crit_f.started,crit_f.stopped,study_word,study_num,study_order,study_type,word_color,textStudy.started,textStudy.stopped,keyStudy.keys,keyStudy.started,keyStudy.stopped,post_study.started,post_study.stopped,key_resp_post_study.keys,key_resp_post_study.rt,key_resp_post_study.started,key_resp_post_study.stopped,test_inst.started,test_inst.stopped,key_resp_test_inst.keys,key_resp_test_inst.rt,key_resp_test_inst.started,key_resp_test_inst.stopped,test_word,test_num,test_order,test_condition,old_new_test,word_color_test,textConf.started,textConf.stopped,Participant Response,textInput.started,textInput.stopped,keyResp.keys,keyResp.rt,keyResp.started,keyResp.stopped,textEnd.started,textEnd.stopped,participant,session,date,expName,psychopyVersion,frameRate,
,,,,,,,,,,,,,,,,22.136211900040507,None,y,0.9078389999922365,22.136211900040507,None,,,,,,,,,,,,,,,,,,,,,,,,,,,,,,,,,,,,,,,,,,,,,,,,,,,,,,,,,,,,,,,,,,,,,,,,,,,,,,,,,,,,,,,,,,,,,,,,,,,,,,,,,,,,,,,,,,,,,,85YA,001,2023_Aug_30_1553,ExactRep-v3-final,2021.2.3,59.94449142489195,
,,,,,,,,,,,,,,,,,,,,,,23.060053499997593,None,a,0.4000825999537483,23.060053499997593,None,,,,,,,,,,,,,,,,,,,,,,,,,,,,,,,,,,,,,,,,,,,,,,,,,,,,,,,,,,,,,,,,,,,,,,,,,,,,,,,,,,,,,,,,,,,,,,,,,,,,,,,,,,,,,,,,85YA,001,2023_Aug_30_1553,ExactRep-v3-final,2021.2.3,59.94449142489195,
,,,,,,,,,,,,,,,,,,,,,,,,,,,,colorfoils,a,space,427.4878547999542,33.57201800006442,None,,,,,,,,,,,,,,,,,,,,,,,,,,,,,,,,,,,,,,,,,,,,,,,,,,,,,,,,,,,,,,,,,,,,,,,,,,,,,,,,,,,,,,,,,,,,,,,,,,,,,,,,,,85YA,001,2023_Aug_30_1553,ExactRep-v3-final,2021.2.3,59.94449142489195,
,,,,,,,,,,,,,,,,,,,,,,,,,,,,,,,,,,23.62950640008785,None,23.62950640008785,None,23.62950640008785,None,23.62950640008785,None,23.62950640008785,None,23.62950640008785,None,space,19.198746099951677,471.2532310000388,None,,,,,,,,,,,,,,,,,,,,,,,,,,,,,,,,,,,,,,,,,,,,,,,,,,,,,,,,,,,,,,,,,,,,,,,,,,,,,,,,,,,,,,,,,,85YA,001,2023_Aug_30_1553,ExactRep-v3-final,2021.2.3,59.94449142489195,
0,0,0,0,,,,,,,,,,,,,,,,,,,,,,,,,,,,,,,,,,,,,,,,,,,,,,,461.2699055999983,None,461.2699055999983,None,461.2699055999983,None,461.2699055999983,None,461.2699055999983,None,461.2699055999983,None,490.55145230004564,None,492.5461244999897,None,,,,,,,,,,,,,,,,,,,,,,,,,,,,,,,,,,,,,,,,,,,,,,,,,,,,,,,,,,,,,,,,,,,,,,,,,,85YA,001,2023_Aug_30_1553,ExactRep-v3-final,2021.2.3,59.94449142489195,
1,0,1,0,,,,,,,,,,,,,,,,,,,,,,,,,,,,,,,,,,,,,,,,,,,,,,,,,,,,,,,,,,,493.06602790008765,None,495.0651181000285,None,,,,,,,,,,,,,,,,,,,,,,,,,,,,,,,,,,,,,,,,,,,,,,,,,,,,,,,,,,,,,,,,,,,,,,,,,,85YA,001,2023_Aug_30_1553,ExactRep-v3-final,2021.2.3,59.94449142489195,
2,0,2,0,,,,,,,,,,,,,,,,,,,,,,,,,,,,,,,,,,,,,,,,,,,,,,,,,,,,,,,,,,,495.5659325000597,None,497.56767600006424,None,,,,,,,,,,,,,,,,,,,,,,,,,,,,,,,,,,,,,,,,,,,,,,,,,,,,,,,,,,,,,,,,,,,,,,,,,,85YA,001,2023_Aug_30_1553,ExactRep-v3-final,2021.2.3,59.94449142489195,
3,0,3,0,,,,,,,,,,,,,,,,,,,,,,,,,,,,,,,,,,,,,,,,,,,,,,,,,,,,,,,,,,,498.06820169999264,None,500.0698687999975,None,,,,,,,,,,,,,,,,,,,,,,,,,,,,,,,,,,,,,,,,,,,,,,,,,,,,,,,,,,,,,,,,,,,,,,,,,,85YA,001,2023_Aug_30_1553,ExactRep-v3-final,2021.2.3,59.94449142489195,
4,0,4,0,,,,,,,,,,,,,,,,,,,,,,,,,,,,,,,,,,,,,,,,,,,,,,,,,,,,,,,,,,,500.5702168000862,None,502.5725342000369,None,,,,,,,,,,,,,,,,,,,,,,,,,,,,,,,,,,,,,,,,,,,,,,,,,,,,,,,,,,,,,,,,,,,,,,,,,,85YA,001,2023_Aug_30_1553,ExactRep-v3-final,2021.2.3,59.94449142489195,
5,0,5,0,,,,,,,,,,,,,,,,,,,,,,,,,,,,,,,,,,,,,,,,,,,,,,,,,,,,,,,,,,,503.08904960006475,None,505.0917249000631,None,,,,,,,,,,,,,,,,,,,,,,,,,,,,,,,,,,,,,,,,,,,,,,,,,,,,,,,,,,,,,,,,,,,,,,,,,,85YA,001,2023_Aug_30_1553,ExactRep-v3-final,2021.2.3,59.94449142489195,
6,0,6,0,,,,,,,,,,,,,,,,,,,,,,,,,,,,,,,,,,,,,,,,,,,,,,,,,,,,,,,,,,,505.5936610000208,None,507.59422329999506,None,,,,,,,,,,,,,,,,,,,,,,,,,,,,,,,,,,,,,,,,,,,,,,,,,,,,,,,,,,,,,,,,,,,,,,,,,,85YA,001,2023_Aug_30_1553,ExactRep-v3-final,2021.2.3,59.94449142489195,
7,0,7,0,,,,,,,,,,,,,,,,,,,,,,,,,,,,,,,,,,,,,,,,,,,,,,,,,,,,,,,,,,,508.09669710008893,None,510.0963394000428,None,,,,,,,,,,,,,,,,,,,,,,,,,,,,,,,,,,,,,,,,,,,,,,,,,,,,,,,,,,,,,,,,,,,,,,,,,,85YA,001,2023_Aug_30_1553,ExactRep-v3-final,2021.2.3,59.94449142489195,
8,0,8,0,,,,,,,,,,,,,,,,,,,,,,,,,,,,,,,,,,,,,,,,,,,,,,,,,,,,,,,,,,,510.5975784000475,None,512.5989325999981,None,,,,,,,,,,,,,,,,,,,,,,,,,,,,,,,,,,,,,,,,,,,,,,,,,,,,,,,,,,,,,,,,,,,,,,,,,,85YA,001,2023_Aug_30_1553,ExactRep-v3-final,2021.2.3,59.94449142489195,
9,0,9,0,,,,,,,,,,,,,,,,,,,,,,,,,,,,,,,,,,,,,,,,,,,,,,,,,,,,,,,,,,,513.0993218000513,None,515.1014628000557,None,,,,,,,,,,,,,,,,,,,,,,,,,,,,,,,,,,,,,,,,,,,,,,,,,,,,,,,,,,,,,,,,,,,,,,,,,,85YA,001,2023_Aug_30_1553,ExactRep-v3-final,2021.2.3,59.94449142489195,
10,0,10,0,,,,,,,,,,,,,,,,,,,,,,,,,,,,,,,,,,,,,,,,,,,,,,,,,,,,,,,,,,,515.6023817000678,None,517.6039646000136,None,,,,,,,,,,,,,,,,,,,,,,,,,,,,,,,,,,,,,,,,,,,,,,,,,,,,,,,,,,,,,,,,,,,,,,,,,,85YA,001,2023_Aug_30_1553,ExactRep-v3-final,2021.2.3,59.94449142489195,
11,0,11,0,,,,,,,,,,,,,,,,,,,,,,,,,,,,,,,,,,,,,,,,,,,,,,,,,,,,,,,,,,,518.1078377000522,None,520.1232692000922,None,,,,,,,,,,,,,,,,,,,,,,,,,,,,,,,,,,,,,,,,,,,,,,,,,,,,,,,,,,,,,,,,,,,,,,,,,,85YA,001,2023_Aug_30_1553,ExactRep-v3-final,2021.2.3,59.94449142489195,
12,0,12,0,,,,,,,,,,,,,,,,,,,,,,,,,,,,,,,,,,,,,,,,,,,,,,,,,,,,,,,,,,,520.6238750000484,None,522.6257505000103,None,,,,,,,,,,,,,,,,,,,,,,,,,,,,,,,,,,,,,,,,,,,,,,,,,,,,,,,,,,,,,,,,,,,,,,,,,,85YA,001,2023_Aug_30_1553,ExactRep-v3-final,2021.2.3,59.94449142489195,
13,0,13,0,,,,,,,,,,,,,,,,,,,,,,,,,,,,,,,,,,,,,,,,,,,,,,,,,,,,,,,,,,,523.1282302000327,None,525.1282332000555,None,,,,,,,,,,,,,,,,,,,,,,,,,,,,,,,,,,,,,,,,,,,,,,,,,,,,,,,,,,,,,,,,,,,,,,,,,,85YA,001,2023_Aug_30_1553,ExactRep-v3-final,2021.2.3,59.94449142489195,
14,0,14,0,,,,,,,,,,,,,,,,,,,,,,,,,,,,,,,,,,,,,,,,,,,,,,,,,,,,,,,,,,,525.6308217000915,None,527.6318124000682,None,,,,,,,,,,,,,,,,,,,,,,,,,,,,,,,,,,,,,,,,,,,,,,,,,,,,,,,,,,,,,,,,,,,,,,,,,,85YA,001,2023_Aug_30_1553,ExactRep-v3-final,2021.2.3,59.94449142489195,
,,,,,,,,,,,,,,,,,,,,,,,,,,,,,,,,,,,,,,,,,,,,,,,,,,,,,,,,,,,,,,,,,,space,19.57236429990735,538.2476124000968,None,,,,,,,,,,,,,,,,,,,,,,,,,,,,,,,,,,,,,,,,,,,,,,,,,,,,,,,,,,,,,,,,,,,,,,85YA,001,2023_Aug_30_1553,ExactRep-v3-final,2021.2.3,59.94449142489195,
,,,,0,0,0,0,,,,,,,,,,,,,,,,,,,,,,,,,,,,,,,,,,,,,,,,,,,,,,,,,,,,,,,,,559.9462378000608,None,,,,,528.2743132000323,None,528.2743132000323,None,528.2743132000323,None,528.2743132000323,None,528.2743132000323,None,528.2743132000323,None,557.9463167000795,None,,,,,,,,,,,,,,,,,,,,,,,,,,,,,,,,,,,,,,,,,,,,,,,,,,,,,,,,85YA,001,2023_Aug_30_1553,ExactRep-v3-final,2021.2.3,59.94449142489195,
,,,,1,0,1,0,,,,,,,,,,,,,,,,,,,,,,,,,,,,,,,,,,,,,,,,,,,,,,,,,,,,,,,,,562.4491083000321,None,,,,,,,,,,,,,,,,,560.4474695000099,None,,,,,,,,,,,,,,,,,,,,,,,,,,,,,,,,,,,,,,,,,,,,,,,,,,,,,,,,85YA,001,2023_Aug_30_1553,ExactRep-v3-final,2021.2.3,59.94449142489195,
,,,,2,0,2,0,,,,,,,,,,,,,,,,,,,,,,,,,,,,,,,,,,,,,,,,,,,,,,,,,,,,,,,,,564.9516562999925,None,,,,,,,,,,,,,,,,,562.9495727000758,None,,,,,,,,,,,,,,,,,,,,,,,,,,,,,,,,,,,,,,,,,,,,,,,,,,,,,,,,85YA,001,2023_Aug_30_1553,ExactRep-v3-final,2021.2.3,59.94449142489195,
,,,,3,0,3,0,,,,,,,,,,,,,,,,,,,,,,,,,,,,,,,,,,,,,,,,,,,,,,,,,,,,,,,,,567.4538470000261,None,,,,,,,,,,,,,,,,,565.4521070000483,None,,,,,,,,,,,,,,,,,,,,,,,,,,,,,,,,,,,,,,,,,,,,,,,,,,,,,,,,85YA,001,2023_Aug_30_1553,ExactRep-v3-final,2021.2.3,59.94449142489195,
,,,,4,0,4,0,,,,,,,,,,,,,,,,,,,,,,,,,,,,,,,,,,,,,,,,,,,,,,,,,,,,,,,,,569.9564932000358,None,,,,,,,,,,,,,,,,,567.9542833000887,None,,,,,,,,,,,,,,,,,,,,,,,,,,,,,,,,,,,,,,,,,,,,,,,,,,,,,,,,85YA,001,2023_Aug_30_1553,ExactRep-v3-final,2021.2.3,59.94449142489195,
,,,,5,0,5,0,,,,,,,,,,,,,,,,,,,,,,,,,,,,,,,,,,,,,,,,,,,,,,,,,,,,,,,,,572.4599336000392,None,,,,,,,,,,,,,,,,,570.4567051000195,None,,,,,,,,,,,,,,,,,,,,,,,,,,,,,,,,,,,,,,,,,,,,,,,,,,,,,,,,85YA,001,2023_Aug_30_1553,ExactRep-v3-final,2021.2.3,59.94449142489195,
,,,,6,0,6,0,,,,,,,,,,,,,,,,,,,,,,,,,,,,,,,,,,,,,,,,,,,,,,,,,,,,,,,,,574.961410399992,None,,,,,,,,,,,,,,,,,572.9595133999828,None,,,,,,,,,,,,,,,,,,,,,,,,,,,,,,,,,,,,,,,,,,,,,,,,,,,,,,,,85YA,001,2023_Aug_30_1553,ExactRep-v3-final,2021.2.3,59.94449142489195,
,,,,7,0,7,0,,,,,,,,,,,,,,,,,,,,,,,,,,,,,,,,,,,,,,,,,,,,,,,,,,,,,,,,,577.4641543000471,None,,,,,,,,,,,,,,,,,575.4621486000251,None,,,,,,,,,,,,,,,,,,,,,,,,,,,,,,,,,,,,,,,,,,,,,,,,,,,,,,,,85YA,001,2023_Aug_30_1553,ExactRep-v3-final,2021.2.3,59.94449142489195,
,,,,8,0,8,0,,,,,,,,,,,,,,,,,,,,,,,,,,,,,,,,,,,,,,,,,,,,,,,,,,,,,,,,,579.9667018000036,None,,,,,,,,,,,,,,,,,577.9648375000106,None,,,,,,,,,,,,,,,,,,,,,,,,,,,,,,,,,,,,,,,,,,,,,,,,,,,,,,,,85YA,001,2023_Aug_30_1553,ExactRep-v3-final,2021.2.3,59.94449142489195,
,,,,9,0,9,0,,,,,,,,,,,,,,,,,,,,,,,,,,,,,,,,,,,,,,,,,,,,,,,,,,,,,,,,,582.4693501000293,None,,,,,,,,,,,,,,,,,580.4668555000098,None,,,,,,,,,,,,,,,,,,,,,,,,,,,,,,,,,,,,,,,,,,,,,,,,,,,,,,,,85YA,001,2023_Aug_30_1553,ExactRep-v3-final,2021.2.3,59.94449142489195,
,,,,10,0,10,0,,,,,,,,,,,,,,,,,,,,,,,,,,,,,,,,,,,,,,,,,,,,,,,,,,,,,,,,,584.9714795000618,None,,,,,,,,,,,,,,,,,582.9698524000123,None,,,,,,,,,,,,,,,,,,,,,,,,,,,,,,,,,,,,,,,,,,,,,,,,,,,,,,,,85YA,001,2023_Aug_30_1553,ExactRep-v3-final,2021.2.3,59.94449142489195,
,,,,11,0,11,0,,,,,,,,,,,,,,,,,,,,,,,,,,,,,,,,,,,,,,,,,,,,,,,,,,,,,,,,,587.4741573000792,None,,,,,,,,,,,,,,,,,585.4719985000556,None,,,,,,,,,,,,,,,,,,,,,,,,,,,,,,,,,,,,,,,,,,,,,,,,,,,,,,,,85YA,001,2023_Aug_30_1553,ExactRep-v3-final,2021.2.3,59.94449142489195,
,,,,12,0,12,0,,,,,,,,,,,,,,,,,,,,,,,,,,,,,,,,,,,,,,,,,,,,,,,,,,,,,,,,,589.9761715000495,None,,,,,,,,,,,,,,,,,587.9748130000662,None,,,,,,,,,,,,,,,,,,,,,,,,,,,,,,,,,,,,,,,,,,,,,,,,,,,,,,,,85YA,001,2023_Aug_30_1553,ExactRep-v3-final,2021.2.3,59.94449142489195,
,,,,13,0,13,0,,,,,,,,,,,,,,,,,,,,,,,,,,,,,,,,,,,,,,,,,,,,,,,,,,,,,,,,,592.4790280000307,None,,,,,,,,,,,,,,,,,590.4765768999932,None,,,,,,,,,,,,,,,,,,,,,,,,,,,,,,,,,,,,,,,,,,,,,,,,,,,,,,,,85YA,001,2023_Aug_30_1553,ExactRep-v3-final,2021.2.3,59.94449142489195,
,,,,14,0,14,0,,,,,,,,,,,,,,,,,,,,,,,,,,,,,,,,,,,,,,,,,,,,,,,,,,,,,,,,,594.9811958000064,None,,,,,,,,,,,,,,,,,592.9796668000054,None,,,,,,,,,,,,,,,,,,,,,,,,,,,,,,,,,,,,,,,,,,,,,,,,,,,,,,,,85YA,001,2023_Aug_30_1553,ExactRep-v3-final,2021.2.3,59.94449142489195,
,,,,,,,,,,,,,,,,,,,,,,,,,,,,,,,,,,,,,,,,,,,,,,,,,,,,,,,,,,,,,,,,,,,,,,,,,,,,,,,,,,,,space,22.623832800076343,605.6043445999967,None,,,,,,,,,,,,,,,,,,,,,,,,,,,,,,,,,,,,,,,,,,,,,,,,,,,,85YA,001,2023_Aug_30_1553,ExactRep-v3-final,2021.2.3,59.94449142489195,
,,,,,,,,0,0,0,0,,,,,,,,,,,,,,,,,,,,,,,,,,,,,,,,,,,,,,,,,,,,,,,,,,,,,630.299780900008,None,,,,,,,,,,,,,,,,,,,,,,,595.6396342000226,None,595.6396342000226,None,595.6396342000226,None,595.6396342000226,None,595.6396342000226,None,595.6396342000226,None,salary,3,1,sing,white,628.2951667000307,None,None,628.2951667000307,None,,,,,,,,,,,,,,,,,,,,,,,,,,,,,,85YA,001,2023_Aug_30_1553,ExactRep-v3-final,2021.2.3,59.94449142489195,
,,,,,,,,1,0,1,0,,,,,,,,,,,,,,,,,,,,,,,,,,,,,,,,,,,,,,,,,,,,,,,,,,,,,632.8021333999932,None,,,,,,,,,,,,,,,,,,,,,,,,,,,,,,,,,,,ocean,41,2,silent,blue,630.8008541000308,None,None,630.8008541000308,None,,,,,,,,,,,,,,,,,,,,,,,,,,,,,,85YA,001,2023_Aug_30_1553,ExactRep-v3-final,2021.2.3,59.94449142489195,
,,,,,,,,2,0,2,0,,,,,,,,,,,,,,,,,,,,,,,,,,,,,,,,,,,,,,,,,,,,,,,,,,,,,635.3049112000735,None,,,,,,,,,,,,,,,,,,,,,,,,,,,,,,,,,,,city,10,3,sing,white,633.303958500037,None,None,633.303958500037,None,,,,,,,,,,,,,,,,,,,,,,,,,,,,,,85YA,001,2023_Aug_30_1553,ExactRep-v3-final,2021.2.3,59.94449142489195,
,,,,,,,,3,0,3,0,,,,,,,,,,,,,,,,,,,,,,,,,,,,,,,,,,,,,,,,,,,,,,,,,,,,,637.8240732999984,None,,,,,,,,,,,,,,,,,,,,,,,,,,,,,,,,,,,queen,52,4,silent,blue,635.8229741000105,None,None,635.8229741000105,None,,,,,,,,,,,,,,,,,,,,,,,,,,,,,,85YA,001,2023_Aug_30_1553,ExactRep-v3-final,2021.2.3,59.94449142489195,
,,,,,,,,4,0,4,0,,,,,,,,,,,,,,,,,,,,,,,,,,,,,,,,,,,,,,,,,,,,,,,,,,,,,640.3434696000768,None,,,,,,,,,,,,,,,,,,,,,,,,,,,,,,,,,,,woods,112,5,aloud,red,638.3288133000024,None,None,638.3288133000024,None,,,,,,,,,,,,,,,,,,,,,,,,,,,,,,85YA,001,2023_Aug_30_1553,ExactRep-v3-final,2021.2.3,59.94449142489195,
,,,,,,,,5,0,5,0,,,,,,,,,,,,,,,,,,,,,,,,,,,,,,,,,,,,,,,,,,,,,,,,,,,,,642.8455880000256,None,,,,,,,,,,,,,,,,,,,,,,,,,,,,,,,,,,,street,104,6,aloud,red,640.8457804000936,None,None,640.8457804000936,None,,,,,,,,,,,,,,,,,,,,,,,,,,,,,,85YA,001,2023_Aug_30_1553,ExactRep-v3-final,2021.2.3,59.94449142489195,
,,,,,,,,6,0,6,0,,,,,,,,,,,,,,,,,,,,,,,,,,,,,,,,,,,,,,,,,,,,,,,,,,,,,645.3648258000612,None,,,,,,,,,,,,,,,,,,,,,,,,,,,,,,,,,,,humour,119,7,aloud,red,643.3500149000902,None,None,643.3500149000902,None,,,,,,,,,,,,,,,,,,,,,,,,,,,,,,85YA,001,2023_Aug_30_1553,ExactRep-v3-final,2021.2.3,59.94449142489195,
,,,,,,,,7,0,7,0,,,,,,,,,,,,,,,,,,,,,,,,,,,,,,,,,,,,,,,,,,,,,,,,,,,,,647.8676072000526,None,,,,,,,,,,,,,,,,,,,,,,,,,,,,,,,,,,,door,98,8,aloud,red,645.8683572000591,None,None,645.8683572000591,None,,,,,,,,,,,,,,,,,,,,,,,,,,,,,,85YA,001,2023_Aug_30_1553,ExactRep-v3-final,2021.2.3,59.94449142489195,
,,,,,,,,8,0,8,0,,,,,,,,,,,,,,,,,,,,,,,,,,,,,,,,,,,,,,,,,,,,,,,,,,,,,650.370093000005,None,,,,,,,,,,,,,,,,,,,,,,,,,,,,,,,,,,,square,39,9,silent,blue,648.3703905000584,None,None,648.3703905000584,None,,,,,,,,,,,,,,,,,,,,,,,,,,,,,,85YA,001,2023_Aug_30_1553,ExactRep-v3-final,2021.2.3,59.94449142489195,
,,,,,,,,9,0,9,0,,,,,,,,,,,,,,,,,,,,,,,,,,,,,,,,,,,,,,,,,,,,,,,,,,,,,652.8891603000229,None,,,,,,,,,,,,,,,,,,,,,,,,,,,,,,,,,,,coin,110,10,aloud,red,650.8742690000217,None,None,650.8742690000217,None,,,,,,,,,,,,,,,,,,,,,,,,,,,,,,85YA,001,2023_Aug_30_1553,ExactRep-v3-final,2021.2.3,59.94449142489195,
,,,,,,,,10,0,10,0,,,,,,,,,,,,,,,,,,,,,,,,,,,,,,,,,,,,,,,,,,,,,,,,,,,,,655.3916276000673,None,,,,,,,,,,,,,,,,,,,,,,,,,,,,,,,,,,,storm,111,11,aloud,red,653.389537399984,None,None,653.389537399984,None,,,,,,,,,,,,,,,,,,,,,,,,,,,,,,85YA,001,2023_Aug_30_1553,ExactRep-v3-final,2021.2.3,59.94449142489195,
,,,,,,,,11,0,11,0,,,,,,,,,,,,,,,,,,,,,,,,,,,,,,,,,,,,,,,,,,,,,,,,,,,,,657.8944452999858,None,,,,,,,,,,,,,,,,,,,,,,,,,,,,,,,,,,,science,45,12,silent,blue,655.8949650999857,None,None,655.8949650999857,None,,,,,,,,,,,,,,,,,,,,,,,,,,,,,,85YA,001,2023_Aug_30_1553,ExactRep-v3-final,2021.2.3,59.94449142489195,
,,,,,,,,12,0,12,0,,,,,,,,,,,,,,,,,,,,,,,,,,,,,,,,,,,,,,,,,,,,,,,,,,,,,660.413454100024,None,,,,,,,,,,,,,,,,,,,,,,,,,,,,,,,,,,,potato,102,13,aloud,red,658.4023072000127,None,None,658.4023072000127,None,,,,,,,,,,,,,,,,,,,,,,,,,,,,,,85YA,001,2023_Aug_30_1553,ExactRep-v3-final,2021.2.3,59.94449142489195,
,,,,,,,,13,0,13,0,,,,,,,,,,,,,,,,,,,,,,,,,,,,,,,,,,,,,,,,,,,,,,,,,,,,,662.932333100005,None,,,,,,,,,,,,,,,,,,,,,,,,,,,,,,,,,,,girl,24,14,sing,white,660.921759000048,None,None,660.921759000048,None,,,,,,,,,,,,,,,,,,,,,,,,,,,,,,85YA,001,2023_Aug_30_1553,ExactRep-v3-final,2021.2.3,59.94449142489195,
,,,,,,,,14,0,14,0,,,,,,,,,,,,,,,,,,,,,,,,,,,,,,,,,,,,,,,,,,,,,,,,,,,,,665.451881700079,None,,,,,,,,,,,,,,,,,,,,,,,,,,,,,,,,,,,moment,106,15,aloud,red,663.4449429000961,None,None,663.4449429000961,None,,,,,,,,,,,,,,,,,,,,,,,,,,,,,,85YA,001,2023_Aug_30_1553,ExactRep-v3-final,2021.2.3,59.94449142489195,
,,,,,,,,15,0,15,0,,,,,,,,,,,,,,,,,,,,,,,,,,,,,,,,,,,,,,,,,,,,,,,,,,,,,667.9707465000683,None,,,,,,,,,,,,,,,,,,,,,,,,,,,,,,,,,,,window,91,16,aloud,red,665.9556774999946,None,None,665.9556774999946,None,,,,,,,,,,,,,,,,,,,,,,,,,,,,,,85YA,001,2023_Aug_30_1553,ExactRep-v3-final,2021.2.3,59.94449142489195,
,,,,,,,,16,0,16,0,,,,,,,,,,,,,,,,,,,,,,,,,,,,,,,,,,,,,,,,,,,,,,,,,,,,,670.4735612000804,None,,,,,,,,,,,,,,,,,,,,,,,,,,,,,,,,,,,fate,74,17,silent,blue,668.4714810000733,None,None,668.4714810000733,None,,,,,,,,,,,,,,,,,,,,,,,,,,,,,,85YA,001,2023_Aug_30_1553,ExactRep-v3-final,2021.2.3,59.94449142489195,
,,,,,,,,17,0,17,0,,,,,,,,,,,,,,,,,,,,,,,,,,,,,,,,,,,,,,,,,,,,,,,,,,,,,672.9927443000488,None,,,,,,,,,,,,,,,,,,,,,,,,,,,,,,,,,,,star,100,18,aloud,red,670.9777502000798,None,None,670.9777502000798,None,,,,,,,,,,,,,,,,,,,,,,,,,,,,,,85YA,001,2023_Aug_30_1553,ExactRep-v3-final,2021.2.3,59.94449142489195,
,,,,,,,,18,0,18,0,,,,,,,,,,,,,,,,,,,,,,,,,,,,,,,,,,,,,,,,,,,,,,,,,,,,,675.5118974000216,None,,,,,,,,,,,,,,,,,,,,,,,,,,,,,,,,,,,slave,83,19,aloud,red,673.5026338000316,None,None,673.5026338000316,None,,,,,,,,,,,,,,,,,,,,,,,,,,,,,,85YA,001,2023_Aug_30_1553,ExactRep-v3-final,2021.2.3,59.94449142489195,
,,,,,,,,19,0,19,0,,,,,,,,,,,,,,,,,,,,,,,,,,,,,,,,,,,,,,,,,,,,,,,,,,,,,678.0145678999834,None,,,,,,,,,,,,,,,,,,,,,,,,,,,,,,,,,,,ship,89,20,aloud,red,676.0121141000418,None,None,676.0121141000418,None,,,,,,,,,,,,,,,,,,,,,,,,,,,,,,85YA,001,2023_Aug_30_1553,ExactRep-v3-final,2021.2.3,59.94449142489195,
,,,,,,,,20,0,20,0,,,,,,,,,,,,,,,,,,,,,,,,,,,,,,,,,,,,,,,,,,,,,,,,,,,,,680.5337543000933,None,,,,,,,,,,,,,,,,,,,,,,,,,,,,,,,,,,,rod,67,21,silent,blue,678.5258676999947,None,None,678.5258676999947,None,,,,,,,,,,,,,,,,,,,,,,,,,,,,,,85YA,001,2023_Aug_30_1553,ExactRep-v3-final,2021.2.3,59.94449142489195,
,,,,,,,,21,0,21,0,,,,,,,,,,,,,,,,,,,,,,,,,,,,,,,,,,,,,,,,,,,,,,,,,,,,,683.0363845000975,None,,,,,,,,,,,,,,,,,,,,,,,,,,,,,,,,,,,bowl,18,22,sing,white,681.0371512999991,None,None,681.0371512999991,None,,,,,,,,,,,,,,,,,,,,,,,,,,,,,,85YA,001,2023_Aug_30_1553,ExactRep-v3-final,2021.2.3,59.94449142489195,
,,,,,,,,22,0,22,0,,,,,,,,,,,,,,,,,,,,,,,,,,,,,,,,,,,,,,,,,,,,,,,,,,,,,685.5551061000442,None,,,,,,,,,,,,,,,,,,,,,,,,,,,,,,,,,,,owner,77,23,silent,blue,683.541504300083,None,None,683.541504300083,None,,,,,,,,,,,,,,,,,,,,,,,,,,,,,,85YA,001,2023_Aug_30_1553,ExactRep-v3-final,2021.2.3,59.94449142489195,
,,,,,,,,23,0,23,0,,,,,,,,,,,,,,,,,,,,,,,,,,,,,,,,,,,,,,,,,,,,,,,,,,,,,688.0573936000001,None,,,,,,,,,,,,,,,,,,,,,,,,,,,,,,,,,,,money,93,24,aloud,red,686.0560629999964,None,None,686.0560629999964,None,,,,,,,,,,,,,,,,,,,,,,,,,,,,,,85YA,001,2023_Aug_30_1553,ExactRep-v3-final,2021.2.3,59.94449142489195,
,,,,,,,,24,0,24,0,,,,,,,,,,,,,,,,,,,,,,,,,,,,,,,,,,,,,,,,,,,,,,,,,,,,,690.5601113000885,None,,,,,,,,,,,,,,,,,,,,,,,,,,,,,,,,,,,student,62,25,silent,blue,688.5601930000121,None,None,688.5601930000121,None,,,,,,,,,,,,,,,,,,,,,,,,,,,,,,85YA,001,2023_Aug_30_1553,ExactRep-v3-final,2021.2.3,59.94449142489195,
,,,,,,,,25,0,25,0,,,,,,,,,,,,,,,,,,,,,,,,,,,,,,,,,,,,,,,,,,,,,,,,,,,,,693.0626262000296,None,,,,,,,,,,,,,,,,,,,,,,,,,,,,,,,,,,,avenue,51,26,silent,blue,691.0611390999984,None,None,691.0611390999984,None,,,,,,,,,,,,,,,,,,,,,,,,,,,,,,85YA,001,2023_Aug_30_1553,ExactRep-v3-final,2021.2.3,59.94449142489195,
,,,,,,,,26,0,26,0,,,,,,,,,,,,,,,,,,,,,,,,,,,,,,,,,,,,,,,,,,,,,,,,,,,,,695.5651160000125,None,,,,,,,,,,,,,,,,,,,,,,,,,,,,,,,,,,,vessel,86,27,aloud,red,693.5634209000273,None,None,693.5634209000273,None,,,,,,,,,,,,,,,,,,,,,,,,,,,,,,85YA,001,2023_Aug_30_1553,ExactRep-v3-final,2021.2.3,59.94449142489195,
,,,,,,,,27,0,27,0,,,,,,,,,,,,,,,,,,,,,,,,,,,,,,,,,,,,,,,,,,,,,,,,,,,,,698.0841134000802,None,,,,,,,,,,,,,,,,,,,,,,,,,,,,,,,,,,,boulder,105,28,aloud,red,696.0692701000953,None,None,696.0692701000953,None,,,,,,,,,,,,,,,,,,,,,,,,,,,,,,85YA,001,2023_Aug_30_1553,ExactRep-v3-final,2021.2.3,59.94449142489195,
,,,,,,,,28,0,28,0,,,,,,,,,,,,,,,,,,,,,,,,,,,,,,,,,,,,,,,,,,,,,,,,,,,,,700.5867559000617,None,,,,,,,,,,,,,,,,,,,,,,,,,,,,,,,,,,,power,26,29,sing,white,698.5846936000744,None,None,698.5846936000744,None,,,,,,,,,,,,,,,,,,,,,,,,,,,,,,85YA,001,2023_Aug_30_1553,ExactRep-v3-final,2021.2.3,59.94449142489195,
,,,,,,,,29,0,29,0,,,,,,,,,,,,,,,,,,,,,,,,,,,,,,,,,,,,,,,,,,,,,,,,,,,,,703.0892326000612,None,,,,,,,,,,,,,,,,,,,,,,,,,,,,,,,,,,,car,72,30,silent,blue,701.087847399991,None,None,701.087847399991,None,,,,,,,,,,,,,,,,,,,,,,,,,,,,,,85YA,001,2023_Aug_30_1553,ExactRep-v3-final,2021.2.3,59.94449142489195,
,,,,,,,,30,0,30,0,,,,,,,,,,,,,,,,,,,,,,,,,,,,,,,,,,,,,,,,,,,,,,,,,,,,,705.5926388000371,None,,,,,,,,,,,,,,,,,,,,,,,,,,,,,,,,,,,factory,22,31,sing,white,703.5903159000445,None,None,703.5903159000445,None,,,,,,,,,,,,,,,,,,,,,,,,,,,,,,85YA,001,2023_Aug_30_1553,ExactRep-v3-final,2021.2.3,59.94449142489195,
,,,,,,,,31,0,31,0,,,,,,,,,,,,,,,,,,,,,,,,,,,,,,,,,,,,,,,,,,,,,,,,,,,,,708.0946186000947,None,,,,,,,,,,,,,,,,,,,,,,,,,,,,,,,,,,,time,75,32,silent,blue,706.0927849999862,None,None,706.0927849999862,None,,,,,,,,,,,,,,,,,,,,,,,,,,,,,,85YA,001,2023_Aug_30_1553,ExactRep-v3-final,2021.2.3,59.94449142489195,
,,,,,,,,32,0,32,0,,,,,,,,,,,,,,,,,,,,,,,,,,,,,,,,,,,,,,,,,,,,,,,,,,,,,710.6135479999939,None,,,,,,,,,,,,,,,,,,,,,,,,,,,,,,,,,,,dawn,46,33,silent,blue,708.5987172999885,None,None,708.5987172999885,None,,,,,,,,,,,,,,,,,,,,,,,,,,,,,,85YA,001,2023_Aug_30_1553,ExactRep-v3-final,2021.2.3,59.94449142489195,
,,,,,,,,33,0,33,0,,,,,,,,,,,,,,,,,,,,,,,,,,,,,,,,,,,,,,,,,,,,,,,,,,,,,713.1163768999977,None,,,,,,,,,,,,,,,,,,,,,,,,,,,,,,,,,,,fun,6,34,sing,white,711.1168041999917,None,None,711.1168041999917,None,,,,,,,,,,,,,,,,,,,,,,,,,,,,,,85YA,001,2023_Aug_30_1553,ExactRep-v3-final,2021.2.3,59.94449142489195,
,,,,,,,,34,0,34,0,,,,,,,,,,,,,,,,,,,,,,,,,,,,,,,,,,,,,,,,,,,,,,,,,,,,,715.6354363000719,None,,,,,,,,,,,,,,,,,,,,,,,,,,,,,,,,,,,picture,31,35,sing,white,713.6206700000912,None,None,713.6206700000912,None,,,,,,,,,,,,,,,,,,,,,,,,,,,,,,85YA,001,2023_Aug_30_1553,ExactRep-v3-final,2021.2.3,59.94449142489195,
,,,,,,,,35,0,35,0,,,,,,,,,,,,,,,,,,,,,,,,,,,,,,,,,,,,,,,,,,,,,,,,,,,,,718.1375198999885,None,,,,,,,,,,,,,,,,,,,,,,,,,,,,,,,,,,,forest,34,36,sing,white,716.1371976000955,None,None,716.1371976000955,None,,,,,,,,,,,,,,,,,,,,,,,,,,,,,,85YA,001,2023_Aug_30_1553,ExactRep-v3-final,2021.2.3,59.94449142489195,
,,,,,,,,36,0,36,0,,,,,,,,,,,,,,,,,,,,,,,,,,,,,,,,,,,,,,,,,,,,,,,,,,,,,720.6569345000898,None,,,,,,,,,,,,,,,,,,,,,,,,,,,,,,,,,,,sea,57,37,silent,blue,718.6429615000961,None,None,718.6429615000961,None,,,,,,,,,,,,,,,,,,,,,,,,,,,,,,85YA,001,2023_Aug_30_1553,ExactRep-v3-final,2021.2.3,59.94449142489195,
,,,,,,,,37,0,37,0,,,,,,,,,,,,,,,,,,,,,,,,,,,,,,,,,,,,,,,,,,,,,,,,,,,,,723.1593248000136,None,,,,,,,,,,,,,,,,,,,,,,,,,,,,,,,,,,,coffee,9,38,sing,white,721.1573992000194,None,None,721.1573992000194,None,,,,,,,,,,,,,,,,,,,,,,,,,,,,,,85YA,001,2023_Aug_30_1553,ExactRep-v3-final,2021.2.3,59.94449142489195,
,,,,,,,,38,0,38,0,,,,,,,,,,,,,,,,,,,,,,,,,,,,,,,,,,,,,,,,,,,,,,,,,,,,,725.6617156000575,None,,,,,,,,,,,,,,,,,,,,,,,,,,,,,,,,,,,string,21,39,sing,white,723.6604182000738,None,None,723.6604182000738,None,,,,,,,,,,,,,,,,,,,,,,,,,,,,,,85YA,001,2023_Aug_30_1553,ExactRep-v3-final,2021.2.3,59.94449142489195,
,,,,,,,,39,0,39,0,,,,,,,,,,,,,,,,,,,,,,,,,,,,,,,,,,,,,,,,,,,,,,,,,,,,,728.1811525000958,None,,,,,,,,,,,,,,,,,,,,,,,,,,,,,,,,,,,board,53,40,silent,blue,726.1681903999997,None,None,726.1681903999997,None,,,,,,,,,,,,,,,,,,,,,,,,,,,,,,85YA,001,2023_Aug_30_1553,ExactRep-v3-final,2021.2.3,59.94449142489195,
,,,,,,,,40,0,40,0,,,,,,,,,,,,,,,,,,,,,,,,,,,,,,,,,,,,,,,,,,,,,,,,,,,,,730.683378900052,None,,,,,,,,,,,,,,,,,,,,,,,,,,,,,,,,,,,hide,55,41,silent,blue,728.6833895000163,None,None,728.6833895000163,None,,,,,,,,,,,,,,,,,,,,,,,,,,,,,,85YA,001,2023_Aug_30_1553,ExactRep-v3-final,2021.2.3,59.94449142489195,
,,,,,,,,41,0,41,0,,,,,,,,,,,,,,,,,,,,,,,,,,,,,,,,,,,,,,,,,,,,,,,,,,,,,733.2025833000662,None,,,,,,,,,,,,,,,,,,,,,,,,,,,,,,,,,,,honour,70,42,silent,blue,731.1953846000833,None,None,731.1953846000833,None,,,,,,,,,,,,,,,,,,,,,,,,,,,,,,85YA,001,2023_Aug_30_1553,ExactRep-v3-final,2021.2.3,59.94449142489195,
,,,,,,,,42,0,42,0,,,,,,,,,,,,,,,,,,,,,,,,,,,,,,,,,,,,,,,,,,,,,,,,,,,,,735.7051526000723,None,,,,,,,,,,,,,,,,,,,,,,,,,,,,,,,,,,,bird,88,43,aloud,red,733.7061879000394,None,None,733.7061879000394,None,,,,,,,,,,,,,,,,,,,,,,,,,,,,,,85YA,001,2023_Aug_30_1553,ExactRep-v3-final,2021.2.3,59.94449142489195,
,,,,,,,,43,0,43,0,,,,,,,,,,,,,,,,,,,,,,,,,,,,,,,,,,,,,,,,,,,,,,,,,,,,,738.2075596000068,None,,,,,,,,,,,,,,,,,,,,,,,,,,,,,,,,,,,victory,50,44,silent,blue,736.2060576000949,None,None,736.2060576000949,None,,,,,,,,,,,,,,,,,,,,,,,,,,,,,,85YA,001,2023_Aug_30_1553,ExactRep-v3-final,2021.2.3,59.94449142489195,
,,,,,,,,44,0,44,0,,,,,,,,,,,,,,,,,,,,,,,,,,,,,,,,,,,,,,,,,,,,,,,,,,,,,740.7270628000842,None,,,,,,,,,,,,,,,,,,,,,,,,,,,,,,,,,,,fire,97,45,aloud,red,738.7138431000058,None,None,738.7138431000058,None,,,,,,,,,,,,,,,,,,,,,,,,,,,,,,85YA,001,2023_Aug_30_1553,ExactRep-v3-final,2021.2.3,59.94449142489195,
,,,,,,,,45,0,45,0,,,,,,,,,,,,,,,,,,,,,,,,,,,,,,,,,,,,,,,,,,,,,,,,,,,,,743.2293569000904,None,,,,,,,,,,,,,,,,,,,,,,,,,,,,,,,,,,,cat,17,46,sing,white,741.2274674000219,None,None,741.2274674000219,None,,,,,,,,,,,,,,,,,,,,,,,,,,,,,,85YA,001,2023_Aug_30_1553,ExactRep-v3-final,2021.2.3,59.94449142489195,
,,,,,,,,46,0,46,0,,,,,,,,,,,,,,,,,,,,,,,,,,,,,,,,,,,,,,,,,,,,,,,,,,,,,745.7321608000202,None,,,,,,,,,,,,,,,,,,,,,,,,,,,,,,,,,,,beast,58,47,silent,blue,743.7304070000537,None,None,743.7304070000537,None,,,,,,,,,,,,,,,,,,,,,,,,,,,,,,85YA,001,2023_Aug_30_1553,ExactRep-v3-final,2021.2.3,59.94449142489195,
,,,,,,,,47,0,47,0,,,,,,,,,,,,,,,,,,,,,,,,,,,,,,,,,,,,,,,,,,,,,,,,,,,,,748.2512032000814,None,,,,,,,,,,,,,,,,,,,,,,,,,,,,,,,,,,,seat,27,48,sing,white,746.2363058000337,None,None,746.2363058000337,None,,,,,,,,,,,,,,,,,,,,,,,,,,,,,,85YA,001,2023_Aug_30_1553,ExactRep-v3-final,2021.2.3,59.94449142489195,
,,,,,,,,48,0,48,0,,,,,,,,,,,,,,,,,,,,,,,,,,,,,,,,,,,,,,,,,,,,,,,,,,,,,750.7705375000369,None,,,,,,,,,,,,,,,,,,,,,,,,,,,,,,,,,,,author,54,49,silent,blue,748.7649019000819,None,None,748.7649019000819,None,,,,,,,,,,,,,,,,,,,,,,,,,,,,,,85YA,001,2023_Aug_30_1553,ExactRep-v3-final,2021.2.3,59.94449142489195,
,,,,,,,,49,0,49,0,,,,,,,,,,,,,,,,,,,,,,,,,,,,,,,,,,,,,,,,,,,,,,,,,,,,,753.2890953000169,None,,,,,,,,,,,,,,,,,,,,,,,,,,,,,,,,,,,garden,101,50,aloud,red,751.2771961999824,None,None,751.2771961999824,None,,,,,,,,,,,,,,,,,,,,,,,,,,,,,,85YA,001,2023_Aug_30_1553,ExactRep-v3-final,2021.2.3,59.94449142489195,
,,,,,,,,50,0,50,0,,,,,,,,,,,,,,,,,,,,,,,,,,,,,,,,,,,,,,,,,,,,,,,,,,,,,755.7922156000277,None,,,,,,,,,,,,,,,,,,,,,,,,,,,,,,,,,,,doll,85,51,aloud,red,753.7897959999973,None,None,753.7897959999973,None,,,,,,,,,,,,,,,,,,,,,,,,,,,,,,85YA,001,2023_Aug_30_1553,ExactRep-v3-final,2021.2.3,59.94449142489195,
,,,,,,,,51,0,51,0,,,,,,,,,,,,,,,,,,,,,,,,,,,,,,,,,,,,,,,,,,,,,,,,,,,,,758.3112243000651,None,,,,,,,,,,,,,,,,,,,,,,,,,,,,,,,,,,,church,84,52,aloud,red,756.2965241000056,None,None,756.2965241000056,None,,,,,,,,,,,,,,,,,,,,,,,,,,,,,,85YA,001,2023_Aug_30_1553,ExactRep-v3-final,2021.2.3,59.94449142489195,
,,,,,,,,52,0,52,0,,,,,,,,,,,,,,,,,,,,,,,,,,,,,,,,,,,,,,,,,,,,,,,,,,,,,760.8134765999857,None,,,,,,,,,,,,,,,,,,,,,,,,,,,,,,,,,,,blood,25,53,sing,white,758.8129031000426,None,None,758.8129031000426,None,,,,,,,,,,,,,,,,,,,,,,,,,,,,,,85YA,001,2023_Aug_30_1553,ExactRep-v3-final,2021.2.3,59.94449142489195,
,,,,,,,,53,0,53,0,,,,,,,,,,,,,,,,,,,,,,,,,,,,,,,,,,,,,,,,,,,,,,,,,,,,,763.333201100002,None,,,,,,,,,,,,,,,,,,,,,,,,,,,,,,,,,,,mind,113,54,aloud,red,761.320783900097,None,None,761.320783900097,None,,,,,,,,,,,,,,,,,,,,,,,,,,,,,,85YA,001,2023_Aug_30_1553,ExactRep-v3-final,2021.2.3,59.94449142489195,
,,,,,,,,54,0,54,0,,,,,,,,,,,,,,,,,,,,,,,,,,,,,,,,,,,,,,,,,,,,,,,,,,,,,765.835780100082,None,,,,,,,,,,,,,,,,,,,,,,,,,,,,,,,,,,,law,56,55,silent,blue,763.8366143000312,None,None,763.8366143000312,None,,,,,,,,,,,,,,,,,,,,,,,,,,,,,,85YA,001,2023_Aug_30_1553,ExactRep-v3-final,2021.2.3,59.94449142489195,
,,,,,,,,55,0,55,0,,,,,,,,,,,,,,,,,,,,,,,,,,,,,,,,,,,,,,,,,,,,,,,,,,,,,768.338734399993,None,,,,,,,,,,,,,,,,,,,,,,,,,,,,,,,,,,,person,90,56,aloud,red,766.338341500028,None,None,766.338341500028,None,,,,,,,,,,,,,,,,,,,,,,,,,,,,,,85YA,001,2023_Aug_30_1553,ExactRep-v3-final,2021.2.3,59.94449142489195,
,,,,,,,,56,0,56,0,,,,,,,,,,,,,,,,,,,,,,,,,,,,,,,,,,,,,,,,,,,,,,,,,,,,,770.8403850999894,None,,,,,,,,,,,,,,,,,,,,,,,,,,,,,,,,,,,toy,48,57,silent,blue,768.8411927000852,None,None,768.8411927000852,None,,,,,,,,,,,,,,,,,,,,,,,,,,,,,,85YA,001,2023_Aug_30_1553,ExactRep-v3-final,2021.2.3,59.94449142489195,
,,,,,,,,57,0,57,0,,,,,,,,,,,,,,,,,,,,,,,,,,,,,,,,,,,,,,,,,,,,,,,,,,,,,773.3428757000947,None,,,,,,,,,,,,,,,,,,,,,,,,,,,,,,,,,,,history,1,58,sing,white,771.3432825000491,None,None,771.3432825000491,None,,,,,,,,,,,,,,,,,,,,,,,,,,,,,,85YA,001,2023_Aug_30_1553,ExactRep-v3-final,2021.2.3,59.94449142489195,
,,,,,,,,58,0,58,0,,,,,,,,,,,,,,,,,,,,,,,,,,,,,,,,,,,,,,,,,,,,,,,,,,,,,775.8621081000892,None,,,,,,,,,,,,,,,,,,,,,,,,,,,,,,,,,,,clock,82,59,aloud,red,773.8505497000879,None,None,773.8505497000879,None,,,,,,,,,,,,,,,,,,,,,,,,,,,,,,85YA,001,2023_Aug_30_1553,ExactRep-v3-final,2021.2.3,59.94449142489195,
,,,,,,,,59,0,59,0,,,,,,,,,,,,,,,,,,,,,,,,,,,,,,,,,,,,,,,,,,,,,,,,,,,,,778.3642491000937,None,,,,,,,,,,,,,,,,,,,,,,,,,,,,,,,,,,,metal,49,60,silent,blue,776.3648482999997,None,None,776.3648482999997,None,,,,,,,,,,,,,,,,,,,,,,,,,,,,,,85YA,001,2023_Aug_30_1553,ExactRep-v3-final,2021.2.3,59.94449142489195,
,,,,,,,,60,0,60,0,,,,,,,,,,,,,,,,,,,,,,,,,,,,,,,,,,,,,,,,,,,,,,,,,,,,,780.8836868000217,None,,,,,,,,,,,,,,,,,,,,,,,,,,,,,,,,,,,series,76,61,silent,blue,778.8703354999889,None,None,778.8703354999889,None,,,,,,,,,,,,,,,,,,,,,,,,,,,,,,85YA,001,2023_Aug_30_1553,ExactRep-v3-final,2021.2.3,59.94449142489195,
,,,,,,,,61,0,61,0,,,,,,,,,,,,,,,,,,,,,,,,,,,,,,,,,,,,,,,,,,,,,,,,,,,,,783.3863171000266,None,,,,,,,,,,,,,,,,,,,,,,,,,,,,,,,,,,,prison,59,62,silent,blue,781.3854857999831,None,None,781.3854857999831,None,,,,,,,,,,,,,,,,,,,,,,,,,,,,,,85YA,001,2023_Aug_30_1553,ExactRep-v3-final,2021.2.3,59.94449142489195,
,,,,,,,,62,0,62,0,,,,,,,,,,,,,,,,,,,,,,,,,,,,,,,,,,,,,,,,,,,,,,,,,,,,,785.8887997000711,None,,,,,,,,,,,,,,,,,,,,,,,,,,,,,,,,,,,boy,99,63,aloud,red,783.8867107999977,None,None,783.8867107999977,None,,,,,,,,,,,,,,,,,,,,,,,,,,,,,,85YA,001,2023_Aug_30_1553,ExactRep-v3-final,2021.2.3,59.94449142489195,
,,,,,,,,63,0,63,0,,,,,,,,,,,,,,,,,,,,,,,,,,,,,,,,,,,,,,,,,,,,,,,,,,,,,788.4079636000097,None,,,,,,,,,,,,,,,,,,,,,,,,,,,,,,,,,,,lord,73,64,silent,blue,786.3926571999909,None,None,786.3926571999909,None,,,,,,,,,,,,,,,,,,,,,,,,,,,,,,85YA,001,2023_Aug_30_1553,ExactRep-v3-final,2021.2.3,59.94449142489195,
,,,,,,,,64,0,64,0,,,,,,,,,,,,,,,,,,,,,,,,,,,,,,,,,,,,,,,,,,,,,,,,,,,,,790.9105881000869,None,,,,,,,,,,,,,,,,,,,,,,,,,,,,,,,,,,,style,20,65,sing,white,788.9094581000973,None,None,788.9094581000973,None,,,,,,,,,,,,,,,,,,,,,,,,,,,,,,85YA,001,2023_Aug_30_1553,ExactRep-v3-final,2021.2.3,59.94449142489195,
,,,,,,,,65,0,65,0,,,,,,,,,,,,,,,,,,,,,,,,,,,,,,,,,,,,,,,,,,,,,,,,,,,,,793.4292898999993,None,,,,,,,,,,,,,,,,,,,,,,,,,,,,,,,,,,,fact,8,66,sing,white,791.4158014000859,None,None,791.4158014000859,None,,,,,,,,,,,,,,,,,,,,,,,,,,,,,,85YA,001,2023_Aug_30_1553,ExactRep-v3-final,2021.2.3,59.94449142489195,
,,,,,,,,66,0,66,0,,,,,,,,,,,,,,,,,,,,,,,,,,,,,,,,,,,,,,,,,,,,,,,,,,,,,795.932426400017,None,,,,,,,,,,,,,,,,,,,,,,,,,,,,,,,,,,,horse,2,67,sing,white,793.9298697999911,None,None,793.9298697999911,None,,,,,,,,,,,,,,,,,,,,,,,,,,,,,,85YA,001,2023_Aug_30_1553,ExactRep-v3-final,2021.2.3,59.94449142489195,
,,,,,,,,67,0,67,0,,,,,,,,,,,,,,,,,,,,,,,,,,,,,,,,,,,,,,,,,,,,,,,,,,,,,798.4349588000914,None,,,,,,,,,,,,,,,,,,,,,,,,,,,,,,,,,,,origin,108,68,aloud,red,796.4350757000502,None,None,796.4350757000502,None,,,,,,,,,,,,,,,,,,,,,,,,,,,,,,85YA,001,2023_Aug_30_1553,ExactRep-v3-final,2021.2.3,59.94449142489195,
,,,,,,,,68,0,68,0,,,,,,,,,,,,,,,,,,,,,,,,,,,,,,,,,,,,,,,,,,,,,,,,,,,,,800.9539434000617,None,,,,,,,,,,,,,,,,,,,,,,,,,,,,,,,,,,,freedom,4,69,sing,white,798.9383172000526,None,None,798.9383172000526,None,,,,,,,,,,,,,,,,,,,,,,,,,,,,,,85YA,001,2023_Aug_30_1553,ExactRep-v3-final,2021.2.3,59.94449142489195,
,,,,,,,,69,0,69,0,,,,,,,,,,,,,,,,,,,,,,,,,,,,,,,,,,,,,,,,,,,,,,,,,,,,,803.4566348000662,None,,,,,,,,,,,,,,,,,,,,,,,,,,,,,,,,,,,shore,118,70,aloud,red,801.4544221999822,None,None,801.4544221999822,None,,,,,,,,,,,,,,,,,,,,,,,,,,,,,,85YA,001,2023_Aug_30_1553,ExactRep-v3-final,2021.2.3,59.94449142489195,
,,,,,,,,70,0,70,0,,,,,,,,,,,,,,,,,,,,,,,,,,,,,,,,,,,,,,,,,,,,,,,,,,,,,805.9588634000393,None,,,,,,,,,,,,,,,,,,,,,,,,,,,,,,,,,,,present,64,71,silent,blue,803.9571129000979,None,None,803.9571129000979,None,,,,,,,,,,,,,,,,,,,,,,,,,,,,,,85YA,001,2023_Aug_30_1553,ExactRep-v3-final,2021.2.3,59.94449142489195,
,,,,,,,,71,0,71,0,,,,,,,,,,,,,,,,,,,,,,,,,,,,,,,,,,,,,,,,,,,,,,,,,,,,,808.4615218000254,None,,,,,,,,,,,,,,,,,,,,,,,,,,,,,,,,,,,paper,37,72,sing,white,806.4626164000947,None,None,806.4626164000947,None,,,,,,,,,,,,,,,,,,,,,,,,,,,,,,85YA,001,2023_Aug_30_1553,ExactRep-v3-final,2021.2.3,59.94449142489195,
,,,,,,,,72,0,72,0,,,,,,,,,,,,,,,,,,,,,,,,,,,,,,,,,,,,,,,,,,,,,,,,,,,,,810.9640298000304,None,,,,,,,,,,,,,,,,,,,,,,,,,,,,,,,,,,,letter,12,73,sing,white,808.9625485000433,None,None,808.9625485000433,None,,,,,,,,,,,,,,,,,,,,,,,,,,,,,,85YA,001,2023_Aug_30_1553,ExactRep-v3-final,2021.2.3,59.94449142489195,
,,,,,,,,73,0,73,0,,,,,,,,,,,,,,,,,,,,,,,,,,,,,,,,,,,,,,,,,,,,,,,,,,,,,813.4829918000614,None,,,,,,,,,,,,,,,,,,,,,,,,,,,,,,,,,,,sky,47,74,silent,blue,811.4691147999838,None,None,811.4691147999838,None,,,,,,,,,,,,,,,,,,,,,,,,,,,,,,85YA,001,2023_Aug_30_1553,ExactRep-v3-final,2021.2.3,59.94449142489195,
,,,,,,,,74,0,74,0,,,,,,,,,,,,,,,,,,,,,,,,,,,,,,,,,,,,,,,,,,,,,,,,,,,,,815.9852152999956,None,,,,,,,,,,,,,,,,,,,,,,,,,,,,,,,,,,,meeting,61,75,silent,blue,813.9832524000667,None,None,813.9832524000667,None,,,,,,,,,,,,,,,,,,,,,,,,,,,,,,85YA,001,2023_Aug_30_1553,ExactRep-v3-final,2021.2.3,59.94449142489195,
,,,,,,,,75,0,75,0,,,,,,,,,,,,,,,,,,,,,,,,,,,,,,,,,,,,,,,,,,,,,,,,,,,,,818.504559300025,None,,,,,,,,,,,,,,,,,,,,,,,,,,,,,,,,,,,chief,68,76,silent,blue,816.4897257999983,None,None,816.4897257999983,None,,,,,,,,,,,,,,,,,,,,,,,,,,,,,,85YA,001,2023_Aug_30_1553,ExactRep-v3-final,2021.2.3,59.94449142489195,
,,,,,,,,76,0,76,0,,,,,,,,,,,,,,,,,,,,,,,,,,,,,,,,,,,,,,,,,,,,,,,,,,,,,821.0071620000526,None,,,,,,,,,,,,,,,,,,,,,,,,,,,,,,,,,,,cabin,36,77,sing,white,819.0063280999893,None,None,819.0063280999893,None,,,,,,,,,,,,,,,,,,,,,,,,,,,,,,85YA,001,2023_Aug_30_1553,ExactRep-v3-final,2021.2.3,59.94449142489195,
,,,,,,,,77,0,77,0,,,,,,,,,,,,,,,,,,,,,,,,,,,,,,,,,,,,,,,,,,,,,,,,,,,,,823.5106308000395,None,,,,,,,,,,,,,,,,,,,,,,,,,,,,,,,,,,,hour,13,78,sing,white,821.5085809000302,None,None,821.5085809000302,None,,,,,,,,,,,,,,,,,,,,,,,,,,,,,,85YA,001,2023_Aug_30_1553,ExactRep-v3-final,2021.2.3,59.94449142489195,
,,,,,,,,78,0,78,0,,,,,,,,,,,,,,,,,,,,,,,,,,,,,,,,,,,,,,,,,,,,,,,,,,,,,826.0286190999905,None,,,,,,,,,,,,,,,,,,,,,,,,,,,,,,,,,,,heaven,81,79,aloud,red,824.0135135999881,None,None,824.0135135999881,None,,,,,,,,,,,,,,,,,,,,,,,,,,,,,,85YA,001,2023_Aug_30_1553,ExactRep-v3-final,2021.2.3,59.94449142489195,
,,,,,,,,79,0,79,0,,,,,,,,,,,,,,,,,,,,,,,,,,,,,,,,,,,,,,,,,,,,,,,,,,,,,828.5308827999979,None,,,,,,,,,,,,,,,,,,,,,,,,,,,,,,,,,,,nail,0,80,sing,white,826.5290711000562,None,None,826.5290711000562,None,,,,,,,,,,,,,,,,,,,,,,,,,,,,,,85YA,001,2023_Aug_30_1553,ExactRep-v3-final,2021.2.3,59.94449142489195,
,,,,,,,,80,0,80,0,,,,,,,,,,,,,,,,,,,,,,,,,,,,,,,,,,,,,,,,,,,,,,,,,,,,,831.033715800033,None,,,,,,,,,,,,,,,,,,,,,,,,,,,,,,,,,,,priest,30,81,sing,white,829.0341482000658,None,None,829.0341482000658,None,,,,,,,,,,,,,,,,,,,,,,,,,,,,,,85YA,001,2023_Aug_30_1553,ExactRep-v3-final,2021.2.3,59.94449142489195,
,,,,,,,,81,0,81,0,,,,,,,,,,,,,,,,,,,,,,,,,,,,,,,,,,,,,,,,,,,,,,,,,,,,,833.5361158000305,None,,,,,,,,,,,,,,,,,,,,,,,,,,,,,,,,,,,dream,69,82,silent,blue,831.5370083000744,None,None,831.5370083000744,None,,,,,,,,,,,,,,,,,,,,,,,,,,,,,,85YA,001,2023_Aug_30_1553,ExactRep-v3-final,2021.2.3,59.94449142489195,
,,,,,,,,82,0,82,0,,,,,,,,,,,,,,,,,,,,,,,,,,,,,,,,,,,,,,,,,,,,,,,,,,,,,836.0386246000417,None,,,,,,,,,,,,,,,,,,,,,,,,,,,,,,,,,,,shoes,63,83,silent,blue,834.0371031000977,None,None,834.0371031000977,None,,,,,,,,,,,,,,,,,,,,,,,,,,,,,,85YA,001,2023_Aug_30_1553,ExactRep-v3-final,2021.2.3,59.94449142489195,
,,,,,,,,83,0,83,0,,,,,,,,,,,,,,,,,,,,,,,,,,,,,,,,,,,,,,,,,,,,,,,,,,,,,838.5580706000328,None,,,,,,,,,,,,,,,,,,,,,,,,,,,,,,,,,,,water,60,84,silent,blue,836.5459503000602,None,None,836.5459503000602,None,,,,,,,,,,,,,,,,,,,,,,,,,,,,,,85YA,001,2023_Aug_30_1553,ExactRep-v3-final,2021.2.3,59.94449142489195,
,,,,,,,,84,0,84,0,,,,,,,,,,,,,,,,,,,,,,,,,,,,,,,,,,,,,,,,,,,,,,,,,,,,,841.0765524000162,None,,,,,,,,,,,,,,,,,,,,,,,,,,,,,,,,,,,flower,23,85,sing,white,839.0701647000387,None,None,839.0701647000387,None,,,,,,,,,,,,,,,,,,,,,,,,,,,,,,85YA,001,2023_Aug_30_1553,ExactRep-v3-final,2021.2.3,59.94449142489195,
,,,,,,,,85,0,85,0,,,,,,,,,,,,,,,,,,,,,,,,,,,,,,,,,,,,,,,,,,,,,,,,,,,,,843.59607650002,None,,,,,,,,,,,,,,,,,,,,,,,,,,,,,,,,,,,silence,43,86,silent,blue,841.5828707000474,None,None,841.5828707000474,None,,,,,,,,,,,,,,,,,,,,,,,,,,,,,,85YA,001,2023_Aug_30_1553,ExactRep-v3-final,2021.2.3,59.94449142489195,
,,,,,,,,86,0,86,0,,,,,,,,,,,,,,,,,,,,,,,,,,,,,,,,,,,,,,,,,,,,,,,,,,,,,846.0992549000075,None,,,,,,,,,,,,,,,,,,,,,,,,,,,,,,,,,,,poet,7,87,sing,white,844.0966760000447,None,None,844.0966760000447,None,,,,,,,,,,,,,,,,,,,,,,,,,,,,,,85YA,001,2023_Aug_30_1553,ExactRep-v3-final,2021.2.3,59.94449142489195,
,,,,,,,,87,0,87,0,,,,,,,,,,,,,,,,,,,,,,,,,,,,,,,,,,,,,,,,,,,,,,,,,,,,,848.6178197000409,None,,,,,,,,,,,,,,,,,,,,,,,,,,,,,,,,,,,pupil,15,88,sing,white,846.6037567000603,None,None,846.6037567000603,None,,,,,,,,,,,,,,,,,,,,,,,,,,,,,,85YA,001,2023_Aug_30_1553,ExactRep-v3-final,2021.2.3,59.94449142489195,
,,,,,,,,88,0,88,0,,,,,,,,,,,,,,,,,,,,,,,,,,,,,,,,,,,,,,,,,,,,,,,,,,,,,851.1203823999967,None,,,,,,,,,,,,,,,,,,,,,,,,,,,,,,,,,,,spirit,95,89,aloud,red,849.1187975000357,None,None,849.1187975000357,None,,,,,,,,,,,,,,,,,,,,,,,,,,,,,,85YA,001,2023_Aug_30_1553,ExactRep-v3-final,2021.2.3,59.94449142489195,
,,,,,,,,89,0,89,0,,,,,,,,,,,,,,,,,,,,,,,,,,,,,,,,,,,,,,,,,,,,,,,,,,,,,853.6228374000639,None,,,,,,,,,,,,,,,,,,,,,,,,,,,,,,,,,,,coast,42,90,silent,blue,851.6213322000112,None,None,851.6213322000112,None,,,,,,,,,,,,,,,,,,,,,,,,,,,,,,85YA,001,2023_Aug_30_1553,ExactRep-v3-final,2021.2.3,59.94449142489195,
,,,,,,,,90,0,90,0,,,,,,,,,,,,,,,,,,,,,,,,,,,,,,,,,,,,,,,,,,,,,,,,,,,,,856.1425303000724,None,,,,,,,,,,,,,,,,,,,,,,,,,,,,,,,,,,,shadow,71,91,silent,blue,854.1348861000733,None,None,854.1348861000733,None,,,,,,,,,,,,,,,,,,,,,,,,,,,,,,85YA,001,2023_Aug_30_1553,ExactRep-v3-final,2021.2.3,59.94449142489195,
,,,,,,,,91,0,91,0,,,,,,,,,,,,,,,,,,,,,,,,,,,,,,,,,,,,,,,,,,,,,,,,,,,,,858.6615478000604,None,,,,,,,,,,,,,,,,,,,,,,,,,,,,,,,,,,,thought,16,92,sing,white,856.6465332000516,None,None,856.6465332000516,None,,,,,,,,,,,,,,,,,,,,,,,,,,,,,,85YA,001,2023_Aug_30_1553,ExactRep-v3-final,2021.2.3,59.94449142489195,
,,,,,,,,92,0,92,0,,,,,,,,,,,,,,,,,,,,,,,,,,,,,,,,,,,,,,,,,,,,,,,,,,,,,861.1641103000147,None,,,,,,,,,,,,,,,,,,,,,,,,,,,,,,,,,,,custom,78,93,silent,blue,859.1633950000396,None,None,859.1633950000396,None,,,,,,,,,,,,,,,,,,,,,,,,,,,,,,85YA,001,2023_Aug_30_1553,ExactRep-v3-final,2021.2.3,59.94449142489195,
,,,,,,,,93,0,93,0,,,,,,,,,,,,,,,,,,,,,,,,,,,,,,,,,,,,,,,,,,,,,,,,,,,,,863.6831681000767,None,,,,,,,,,,,,,,,,,,,,,,,,,,,,,,,,,,,plant,80,94,aloud,red,861.6697518000146,None,None,861.6697518000146,None,,,,,,,,,,,,,,,,,,,,,,,,,,,,,,85YA,001,2023_Aug_30_1553,ExactRep-v3-final,2021.2.3,59.94449142489195,
,,,,,,,,94,0,94,0,,,,,,,,,,,,,,,,,,,,,,,,,,,,,,,,,,,,,,,,,,,,,,,,,,,,,866.1853998000734,None,,,,,,,,,,,,,,,,,,,,,,,,,,,,,,,,,,,truth,96,95,aloud,red,864.1834028000012,None,None,864.1834028000012,None,,,,,,,,,,,,,,,,,,,,,,,,,,,,,,85YA,001,2023_Aug_30_1553,ExactRep-v3-final,2021.2.3,59.94449142489195,
,,,,,,,,95,0,95,0,,,,,,,,,,,,,,,,,,,,,,,,,,,,,,,,,,,,,,,,,,,,,,,,,,,,,868.7045757999877,None,,,,,,,,,,,,,,,,,,,,,,,,,,,,,,,,,,,fur,44,96,silent,blue,866.6904335999861,None,None,866.6904335999861,None,,,,,,,,,,,,,,,,,,,,,,,,,,,,,,85YA,001,2023_Aug_30_1553,ExactRep-v3-final,2021.2.3,59.94449142489195,
,,,,,,,,96,0,96,0,,,,,,,,,,,,,,,,,,,,,,,,,,,,,,,,,,,,,,,,,,,,,,,,,,,,,871.2070369999856,None,,,,,,,,,,,,,,,,,,,,,,,,,,,,,,,,,,,virtue,87,97,aloud,red,869.2061929000774,None,None,869.2061929000774,None,,,,,,,,,,,,,,,,,,,,,,,,,,,,,,85YA,001,2023_Aug_30_1553,ExactRep-v3-final,2021.2.3,59.94449142489195,
,,,,,,,,97,0,97,0,,,,,,,,,,,,,,,,,,,,,,,,,,,,,,,,,,,,,,,,,,,,,,,,,,,,,873.7095464000013,None,,,,,,,,,,,,,,,,,,,,,,,,,,,,,,,,,,,troops,107,98,aloud,red,871.7093003999908,None,None,871.7093003999908,None,,,,,,,,,,,,,,,,,,,,,,,,,,,,,,85YA,001,2023_Aug_30_1553,ExactRep-v3-final,2021.2.3,59.94449142489195,
,,,,,,,,98,0,98,0,,,,,,,,,,,,,,,,,,,,,,,,,,,,,,,,,,,,,,,,,,,,,,,,,,,,,876.2120341000846,None,,,,,,,,,,,,,,,,,,,,,,,,,,,,,,,,,,,apple,19,99,sing,white,874.2102162000956,None,None,874.2102162000956,None,,,,,,,,,,,,,,,,,,,,,,,,,,,,,,85YA,001,2023_Aug_30_1553,ExactRep-v3-final,2021.2.3,59.94449142489195,
,,,,,,,,99,0,99,0,,,,,,,,,,,,,,,,,,,,,,,,,,,,,,,,,,,,,,,,,,,,,,,,,,,,,878.7147408000892,None,,,,,,,,,,,,,,,,,,,,,,,,,,,,,,,,,,,kiss,109,100,aloud,red,876.7131416000193,None,None,876.7131416000193,None,,,,,,,,,,,,,,,,,,,,,,,,,,,,,,85YA,001,2023_Aug_30_1553,ExactRep-v3-final,2021.2.3,59.94449142489195,
,,,,,,,,100,0,100,0,,,,,,,,,,,,,,,,,,,,,,,,,,,,,,,,,,,,,,,,,,,,,,,,,,,,,881.2171811000444,None,,,,,,,,,,,,,,,,,,,,,,,,,,,,,,,,,,,cotton,11,101,sing,white,879.2154772999929,None,None,879.2154772999929,None,,,,,,,,,,,,,,,,,,,,,,,,,,,,,,85YA,001,2023_Aug_30_1553,ExactRep-v3-final,2021.2.3,59.94449142489195,
,,,,,,,,101,0,101,0,,,,,,,,,,,,,,,,,,,,,,,,,,,,,,,,,,,,,,,,,,,,,,,,,,,,,883.7198524000123,None,,,,,,,,,,,,,,,,,,,,,,,,,,,,,,,,,,,length,35,102,sing,white,881.7198533000192,None,None,881.7198533000192,None,,,,,,,,,,,,,,,,,,,,,,,,,,,,,,85YA,001,2023_Aug_30_1553,ExactRep-v3-final,2021.2.3,59.94449142489195,
,,,,,,,,102,0,102,0,,,,,,,,,,,,,,,,,,,,,,,,,,,,,,,,,,,,,,,,,,,,,,,,,,,,,886.2389022000134,None,,,,,,,,,,,,,,,,,,,,,,,,,,,,,,,,,,,artist,14,103,sing,white,884.2317335000262,None,None,884.2317335000262,None,,,,,,,,,,,,,,,,,,,,,,,,,,,,,,85YA,001,2023_Aug_30_1553,ExactRep-v3-final,2021.2.3,59.94449142489195,
,,,,,,,,103,0,103,0,,,,,,,,,,,,,,,,,,,,,,,,,,,,,,,,,,,,,,,,,,,,,,,,,,,,,888.7415338000283,None,,,,,,,,,,,,,,,,,,,,,,,,,,,,,,,,,,,ability,38,104,sing,white,886.742229500087,None,None,886.742229500087,None,,,,,,,,,,,,,,,,,,,,,,,,,,,,,,85YA,001,2023_Aug_30_1553,ExactRep-v3-final,2021.2.3,59.94449142489195,
,,,,,,,,104,0,104,0,,,,,,,,,,,,,,,,,,,,,,,,,,,,,,,,,,,,,,,,,,,,,,,,,,,,,891.2609669000376,None,,,,,,,,,,,,,,,,,,,,,,,,,,,,,,,,,,,journal,28,105,sing,white,889.2513162000105,None,None,889.2513162000105,None,,,,,,,,,,,,,,,,,,,,,,,,,,,,,,85YA,001,2023_Aug_30_1553,ExactRep-v3-final,2021.2.3,59.94449142489195,
,,,,,,,,105,0,105,0,,,,,,,,,,,,,,,,,,,,,,,,,,,,,,,,,,,,,,,,,,,,,,,,,,,,,893.7633613999933,None,,,,,,,,,,,,,,,,,,,,,,,,,,,,,,,,,,,speech,40,106,silent,blue,891.7610639000777,None,None,891.7610639000777,None,,,,,,,,,,,,,,,,,,,,,,,,,,,,,,85YA,001,2023_Aug_30_1553,ExactRep-v3-final,2021.2.3,59.94449142489195,
,,,,,,,,106,0,106,0,,,,,,,,,,,,,,,,,,,,,,,,,,,,,,,,,,,,,,,,,,,,,,,,,,,,,896.2821226000087,None,,,,,,,,,,,,,,,,,,,,,,,,,,,,,,,,,,,market,66,107,silent,blue,894.2705692000454,None,None,894.2705692000454,None,,,,,,,,,,,,,,,,,,,,,,,,,,,,,,85YA,001,2023_Aug_30_1553,ExactRep-v3-final,2021.2.3,59.94449142489195,
,,,,,,,,107,0,107,0,,,,,,,,,,,,,,,,,,,,,,,,,,,,,,,,,,,,,,,,,,,,,,,,,,,,,898.7850107999984,None,,,,,,,,,,,,,,,,,,,,,,,,,,,,,,,,,,,tree,94,108,aloud,red,896.7827085000463,None,None,896.7827085000463,None,,,,,,,,,,,,,,,,,,,,,,,,,,,,,,85YA,001,2023_Aug_30_1553,ExactRep-v3-final,2021.2.3,59.94449142489195,
,,,,,,,,108,0,108,0,,,,,,,,,,,,,,,,,,,,,,,,,,,,,,,,,,,,,,,,,,,,,,,,,,,,,901.307466700091,None,,,,,,,,,,,,,,,,,,,,,,,,,,,,,,,,,,,book,32,109,sing,white,899.2901876000687,None,None,899.2901876000687,None,,,,,,,,,,,,,,,,,,,,,,,,,,,,,,85YA,001,2023_Aug_30_1553,ExactRep-v3-final,2021.2.3,59.94449142489195,
,,,,,,,,109,0,109,0,,,,,,,,,,,,,,,,,,,,,,,,,,,,,,,,,,,,,,,,,,,,,,,,,,,,,903.8062602999853,None,,,,,,,,,,,,,,,,,,,,,,,,,,,,,,,,,,,crime,116,110,aloud,red,901.8069765000837,None,None,901.8069765000837,None,,,,,,,,,,,,,,,,,,,,,,,,,,,,,,85YA,001,2023_Aug_30_1553,ExactRep-v3-final,2021.2.3,59.94449142489195,
,,,,,,,,110,0,110,0,,,,,,,,,,,,,,,,,,,,,,,,,,,,,,,,,,,,,,,,,,,,,,,,,,,,,906.3092508000555,None,,,,,,,,,,,,,,,,,,,,,,,,,,,,,,,,,,,trouble,103,111,aloud,red,904.3084290000843,None,None,904.3084290000843,None,,,,,,,,,,,,,,,,,,,,,,,,,,,,,,85YA,001,2023_Aug_30_1553,ExactRep-v3-final,2021.2.3,59.94449142489195,
,,,,,,,,111,0,111,0,,,,,,,,,,,,,,,,,,,,,,,,,,,,,,,,,,,,,,,,,,,,,,,,,,,,,908.8280448000878,None,,,,,,,,,,,,,,,,,,,,,,,,,,,,,,,,,,,iron,29,112,sing,white,906.8137075999985,None,None,906.8137075999985,None,,,,,,,,,,,,,,,,,,,,,,,,,,,,,,85YA,001,2023_Aug_30_1553,ExactRep-v3-final,2021.2.3,59.94449142489195,
,,,,,,,,112,0,112,0,,,,,,,,,,,,,,,,,,,,,,,,,,,,,,,,,,,,,,,,,,,,,,,,,,,,,911.3315205000108,None,,,,,,,,,,,,,,,,,,,,,,,,,,,,,,,,,,,winter,65,113,silent,blue,909.3322802000912,None,None,909.3322802000912,None,,,,,,,,,,,,,,,,,,,,,,,,,,,,,,85YA,001,2023_Aug_30_1553,ExactRep-v3-final,2021.2.3,59.94449142489195,
,,,,,,,,113,0,113,0,,,,,,,,,,,,,,,,,,,,,,,,,,,,,,,,,,,,,,,,,,,,,,,,,,,,,913.8499231000897,None,,,,,,,,,,,,,,,,,,,,,,,,,,,,,,,,,,,memory,114,114,aloud,red,911.8351855000947,None,None,911.8351855000947,None,,,,,,,,,,,,,,,,,,,,,,,,,,,,,,85YA,001,2023_Aug_30_1553,ExactRep-v3-final,2021.2.3,59.94449142489195,
,,,,,,,,114,0,114,0,,,,,,,,,,,,,,,,,,,,,,,,,,,,,,,,,,,,,,,,,,,,,,,,,,,,,916.3688634000719,None,,,,,,,,,,,,,,,,,,,,,,,,,,,,,,,,,,,wine,117,115,aloud,red,914.3655604000669,None,None,914.3655604000669,None,,,,,,,,,,,,,,,,,,,,,,,,,,,,,,85YA,001,2023_Aug_30_1553,ExactRep-v3-final,2021.2.3,59.94449142489195,
,,,,,,,,115,0,115,0,,,,,,,,,,,,,,,,,,,,,,,,,,,,,,,,,,,,,,,,,,,,,,,,,,,,,918.8719299000222,None,,,,,,,,,,,,,,,,,,,,,,,,,,,,,,,,,,,home,33,116,sing,white,916.8692205999978,None,None,916.8692205999978,None,,,,,,,,,,,,,,,,,,,,,,,,,,,,,,85YA,001,2023_Aug_30_1553,ExactRep-v3-final,2021.2.3,59.94449142489195,
,,,,,,,,116,0,116,0,,,,,,,,,,,,,,,,,,,,,,,,,,,,,,,,,,,,,,,,,,,,,,,,,,,,,921.390547499992,None,,,,,,,,,,,,,,,,,,,,,,,,,,,,,,,,,,,palace,115,117,aloud,red,919.3769209000748,None,None,919.3769209000748,None,,,,,,,,,,,,,,,,,,,,,,,,,,,,,,85YA,001,2023_Aug_30_1553,ExactRep-v3-final,2021.2.3,59.94449142489195,
,,,,,,,,117,0,117,0,,,,,,,,,,,,,,,,,,,,,,,,,,,,,,,,,,,,,,,,,,,,,,,,,,,,,923.892972700065,None,,,,,,,,,,,,,,,,,,,,,,,,,,,,,,,,,,,effort,5,118,sing,white,921.8913931000279,None,None,921.8913931000279,None,,,,,,,,,,,,,,,,,,,,,,,,,,,,,,85YA,001,2023_Aug_30_1553,ExactRep-v3-final,2021.2.3,59.94449142489195,
,,,,,,,,118,0,118,0,,,,,,,,,,,,,,,,,,,,,,,,,,,,,,,,,,,,,,,,,,,,,,,,,,,,,926.4124595000176,None,,,,,,,,,,,,,,,,,,,,,,,,,,,,,,,,,,,deed,92,119,aloud,red,924.39677760005,None,None,924.39677760005,None,,,,,,,,,,,,,,,,,,,,,,,,,,,,,,85YA,001,2023_Aug_30_1553,ExactRep-v3-final,2021.2.3,59.94449142489195,
,,,,,,,,119,0,119,0,,,,,,,,,,,,,,,,,,,,,,,,,,,,,,,,,,,,,,,,,,,,,,,,,,,,,928.9147962999996,None,,,,,,,,,,,,,,,,,,,,,,,,,,,,,,,,,,,cash,79,120,sing,white,926.913389399997,None,None,926.913389399997,None,,,,,,,,,,,,,,,,,,,,,,,,,,,,,,85YA,001,2023_Aug_30_1553,ExactRep-v3-final,2021.2.3,59.94449142489195,
,,,,,,,,,,,,,,,,,,,,,,,,,,,,,,,,,,,,,,,,,,,,,,,,,,,,,,,,,,,,,,,,,,,,,,,,,,,,,,,,,,,,,,,,,,,,,,,,,,,,,,,,,,,,,,929.4158760000719,None,space,6.371442100033164,939.3932903000386,None,,,,,,,,,,,,,,,,,,,,,,,,85YA,001,2023_Aug_30_1553,ExactRep-v3-final,2021.2.3,59.94449142489195,
,,,,,,,,,,,,,,,,,,,,,,,,,,,,,,,,,,,,,,,,,,,,,,,,,,,,,,,,,,,,,,,,,,,,,,,,,,,,,,,,,,,,,,,,,,,,,,,,,,,,,,,,,,,,,,,,,,,,945.7845692000119,None,space,30.429518299992196,955.7595865000039,None,,,,,,,,,,,,,,,,,,85YA,001,2023_Aug_30_1553,ExactRep-v3-final,2021.2.3,59.94449142489195,
,,,,,,,,,,,,0,0,0,0,,,,,,,,,,,,,,,,,,,,,,,,,,,,,,,,,,,,,,,,,,,,,,,,,992.7469564999919,None,,,,,,,,,,,,,,,,,,,,,,,,,,,,,,,,,,,,,,,,,,,,,,,,,,,,,,,,,devil,187,1,sing,new,white,986.7387520000339,None,n,986.7387520000339,None,"['n', 'return']","[3.904929699958302, 5.961005799937993]",986.7387520000339,None,,,85YA,001,2023_Aug_30_1553,ExactRep-v3-final,2021.2.3,59.94449142489195,
,,,,,,,,,,,,1,0,1,0,,,,,,,,,,,,,,,,,,,,,,,,,,,,,,,,,,,,,,,,,,,,,,,,,1002.3219093000516,None,,,,,,,,,,,,,,,,,,,,,,,,,,,,,,,,,,,,,,,,,,,,,,,,,,,,,,,,,lip,165,2,sing,new,white,993.264683800051,None,n,993.264683800051,None,"['n', 'return']","[8.523069799994119, 9.019075199961662]",993.264683800051,None,,,85YA,001,2023_Aug_30_1553,ExactRep-v3-final,2021.2.3,59.94449142489195,
,,,,,,,,,,,,2,0,2,0,,,,,,,,,,,,,,,,,,,,,,,,,,,,,,,,,,,,,,,,,,,,,,,,,1004.3751435000449,None,,,,,,,,,,,,,,,,,,,,,,,,,,,,,,,,,,,,,,,,,,,,,,,,,,,,,,,,,virtue,87,3,aloud,old,red,1002.8241641999921,None,y,1002.8241641999921,None,"['y', 'return']","[1.1715236000018194, 1.5077442999463528]",1002.8241641999921,None,,,85YA,001,2023_Aug_30_1553,ExactRep-v3-final,2021.2.3,59.94449142489195,
,,,,,,,,,,,,3,0,3,0,,,,,,,,,,,,,,,,,,,,,,,,,,,,,,,,,,,,,,,,,,,,,,,,,1006.4594066999853,None,,,,,,,,,,,,,,,,,,,,,,,,,,,,,,,,,,,,,,,,,,,,,,,,,,,,,,,,,silence,43,4,silent,old,blue,1004.9008129000431,None,y,1004.9008129000431,None,"['y', 'return']","[1.1508198999799788, 1.5189081999706104]",1004.9008129000431,None,,,85YA,001,2023_Aug_30_1553,ExactRep-v3-final,2021.2.3,59.94449142489195,
,,,,,,,,,,,,4,0,4,0,,,,,,,,,,,,,,,,,,,,,,,,,,,,,,,,,,,,,,,,,,,,,,,,,1009.4299059000332,None,,,,,,,,,,,,,,,,,,,,,,,,,,,,,,,,,,,,,,,,,,,,,,,,,,,,,,,,,earth,221,5,sing,new,white,1006.961210599984,None,n,1006.961210599984,None,"['n', 'return']","[2.1148948000045493, 2.4345027999952435]",1006.961210599984,None,,,85YA,001,2023_Aug_30_1553,ExactRep-v3-final,2021.2.3,59.94449142489195,
,,,,,,,,,,,,5,0,5,0,,,,,,,,,,,,,,,,,,,,,,,,,,,,,,,,,,,,,,,,,,,,,,,,,1011.7321066000732,None,,,,,,,,,,,,,,,,,,,,,,,,,,,,,,,,,,,,,,,,,,,,,,,,,,,,,,,,,chair,238,6,aloud,new,red,1009.936709200032,None,n,1009.936709200032,None,"['n', 'return']","[1.354998299968429, 1.7550117999780923]",1009.936709200032,None,,,85YA,001,2023_Aug_30_1553,ExactRep-v3-final,2021.2.3,59.94449142489195,
,,,,,,,,,,,,6,0,6,0,,,,,,,,,,,,,,,,,,,,,,,,,,,,,,,,,,,,,,,,,,,,,,,,,1013.5645341000054,None,,,,,,,,,,,,,,,,,,,,,,,,,,,,,,,,,,,,,,,,,,,,,,,,,,,,,,,,,mercy,146,7,silent,new,blue,1012.2526993000647,None,n,1012.2526993000647,None,"['n', 'return']","[0.9351290999911726, 1.255054899957031]",1012.2526993000647,None,,,85YA,001,2023_Aug_30_1553,ExactRep-v3-final,2021.2.3,59.94449142489195,
,,,,,,,,,,,,7,0,7,0,,,,,,,,,,,,,,,,,,,,,,,,,,,,,,,,,,,,,,,,,,,,,,,,,1015.2190526000923,None,,,,,,,,,,,,,,,,,,,,,,,,,,,,,,,,,,,,,,,,,,,,,,,,,,,,,,,,,pipe,155,8,silent,new,blue,1014.0671673000325,None,n,1014.0671673000325,None,"['n', 'return']","[0.7445463999174535, 1.1046089999144897]",1014.0671673000325,None,,,85YA,001,2023_Aug_30_1553,ExactRep-v3-final,2021.2.3,59.94449142489195,
,,,,,,,,,,,,8,0,8,0,,,,,,,,,,,,,,,,,,,,,,,,,,,,,,,,,,,,,,,,,,,,,,,,,1017.071181400097,None,,,,,,,,,,,,,,,,,,,,,,,,,,,,,,,,,,,,,,,,,,,,,,,,,,,,,,,,,party,220,9,aloud,new,red,1015.7201149000321,None,n,1015.7201149000321,None,"['n', 'return']","[0.9638571999967098, 1.3076714999042451]",1015.7201149000321,None,,,85YA,001,2023_Aug_30_1553,ExactRep-v3-final,2021.2.3,59.94449142489195,
,,,,,,,,,,,,9,0,9,0,,,,,,,,,,,,,,,,,,,,,,,,,,,,,,,,,,,,,,,,,,,,,,,,,1019.3394109000219,None,,,,,,,,,,,,,,,,,,,,,,,,,,,,,,,,,,,,,,,,,,,,,,,,,,,,,,,,,money,93,10,aloud,old,red,1017.5757042000769,None,y,1017.5757042000769,None,"['y', 'return']","[1.4200494000688195, 1.7241074000485241]",1017.5757042000769,None,,,85YA,001,2023_Aug_30_1553,ExactRep-v3-final,2021.2.3,59.94449142489195,
,,,,,,,,,,,,10,0,10,0,,,,,,,,,,,,,,,,,,,,,,,,,,,,,,,,,,,,,,,,,,,,,,,,,1021.1750032000709,None,,,,,,,,,,,,,,,,,,,,,,,,,,,,,,,,,,,,,,,,,,,,,,,,,,,,,,,,,leader,201,11,sing,new,white,1019.8408591999905,None,n,1019.8408591999905,None,"['n', 'return']","[0.9948495000135154, 1.29908439994324]",1019.8408591999905,None,,,85YA,001,2023_Aug_30_1553,ExactRep-v3-final,2021.2.3,59.94449142489195,
,,,,,,,,,,,,11,0,11,0,,,,,,,,,,,,,,,,,,,,,,,,,,,,,,,,,,,,,,,,,,,,,,,,,1022.959523800062,None,,,,,,,,,,,,,,,,,,,,,,,,,,,,,,,,,,,,,,,,,,,,,,,,,,,,,,,,,horse,2,12,sing,old,white,1021.6816580999875,None,n,1021.6816580999875,None,"['n', 'return']","[0.8979552000528201, 1.242100700037554]",1021.6816580999875,None,,,85YA,001,2023_Aug_30_1553,ExactRep-v3-final,2021.2.3,59.94449142489195,
,,,,,,,,,,,,12,0,12,0,,,,,,,,,,,,,,,,,,,,,,,,,,,,,,,,,,,,,,,,,,,,,,,,,1026.7791741000256,None,,,,,,,,,,,,,,,,,,,,,,,,,,,,,,,,,,,,,,,,,,,,,,,,,,,,,,,,,mind,113,13,aloud,old,red,1023.4609291000525,None,n,1023.4609291000525,None,"['y', 'n', 'backspace', 'n', 'return']","[0.7988628000020981, 1.6706806001020595, 2.5827971000690013, 2.814719900023192, 3.278779900050722]",1023.4609291000525,None,,,85YA,001,2023_Aug_30_1553,ExactRep-v3-final,2021.2.3,59.94449142489195,
,,,,,,,,,,,,13,0,13,0,,,,,,,,,,,,,,,,,,,,,,,,,,,,,,,,,,,,,,,,,,,,,,,,,1028.5490385000594,None,,,,,,,,,,,,,,,,,,,,,,,,,,,,,,,,,,,,,,,,,,,,,,,,,,,,,,,,,thought,16,14,sing,old,white,1027.2910480999853,None,y,1027.2910480999853,None,"['y', 'return']","[0.8966191000072286, 1.224731000023894]",1027.2910480999853,None,,,85YA,001,2023_Aug_30_1553,ExactRep-v3-final,2021.2.3,59.94449142489195,
,,,,,,,,,,,,14,0,14,0,,,,,,,,,,,,,,,,,,,,,,,,,,,,,,,,,,,,,,,,,,,,,,,,,1031.0688119999832,None,,,,,,,,,,,,,,,,,,,,,,,,,,,,,,,,,,,,,,,,,,,,,,,,,,,,,,,,,officer,190,15,aloud,new,red,1029.0584929999895,None,y,1029.0584929999895,None,"['y', 'return']","[1.6012608000310138, 1.9692688999930397]",1029.0584929999895,None,,,85YA,001,2023_Aug_30_1553,ExactRep-v3-final,2021.2.3,59.94449142489195,
,,,,,,,,,,,,15,0,15,0,,,,,,,,,,,,,,,,,,,,,,,,,,,,,,,,,,,,,,,,,,,,,,,,,1032.835750700091,None,,,,,,,,,,,,,,,,,,,,,,,,,,,,,,,,,,,,,,,,,,,,,,,,,,,,,,,,,circle,234,16,aloud,new,red,1031.5847456000047,None,n,1031.5847456000047,None,"['n', 'return']","[0.8990186000009999, 1.2109588000457734]",1031.5847456000047,None,,,85YA,001,2023_Aug_30_1553,ExactRep-v3-final,2021.2.3,59.94449142489195,
,,,,,,,,,,,,16,0,16,0,,,,,,,,,,,,,,,,,,,,,,,,,,,,,,,,,,,,,,,,,,,,,,,,,1034.538468200015,None,,,,,,,,,,,,,,,,,,,,,,,,,,,,,,,,,,,,,,,,,,,,,,,,,,,,,,,,,chief,68,17,silent,old,blue,1033.3378383000381,None,y,1033.3378383000381,None,"['y', 'return']","[0.8419754999922588, 1.1619488999713212]",1033.3378383000381,None,,,85YA,001,2023_Aug_30_1553,ExactRep-v3-final,2021.2.3,59.94449142489195,
,,,,,,,,,,,,17,0,17,0,,,,,,,,,,,,,,,,,,,,,,,,,,,,,,,,,,,,,,,,,,,,,,,,,1038.2912009999854,None,,,,,,,,,,,,,,,,,,,,,,,,,,,,,,,,,,,,,,,,,,,,,,,,,,,,,,,,,excuse,171,18,sing,new,white,1035.058299300028,None,n,1035.058299300028,None,"['n', 'return']","[1.537450399948284, 3.185557599994354]",1035.058299300028,None,,,85YA,001,2023_Aug_30_1553,ExactRep-v3-final,2021.2.3,59.94449142489195,
,,,,,,,,,,,,18,0,18,0,,,,,,,,,,,,,,,,,,,,,,,,,,,,,,,,,,,,,,,,,,,,,,,,,1041.028071800014,None,,,,,,,,,,,,,,,,,,,,,,,,,,,,,,,,,,,,,,,,,,,,,,,,,,,,,,,,,season,130,19,silent,new,blue,1038.7968343000393,None,y,1038.7968343000393,None,"['y', 'return']","[1.8629087000153959, 2.1828972999937832]",1038.7968343000393,None,,,85YA,001,2023_Aug_30_1553,ExactRep-v3-final,2021.2.3,59.94449142489195,
,,,,,,,,,,,,19,0,19,0,,,,,,,,,,,,,,,,,,,,,,,,,,,,,,,,,,,,,,,,,,,,,,,,,1042.4964219999965,None,,,,,,,,,,,,,,,,,,,,,,,,,,,,,,,,,,,,,,,,,,,,,,,,,,,,,,,,,fur,44,20,silent,old,blue,1041.5375617000973,None,y,1041.5375617000973,None,"['y', 'return']","[0.6581041000317782, 0.9224231999833137]",1041.5375617000973,None,,,85YA,001,2023_Aug_30_1553,ExactRep-v3-final,2021.2.3,59.94449142489195,
,,,,,,,,,,,,20,0,20,0,,,,,,,,,,,,,,,,,,,,,,,,,,,,,,,,,,,,,,,,,,,,,,,,,1044.165331199998,None,,,,,,,,,,,,,,,,,,,,,,,,,,,,,,,,,,,,,,,,,,,,,,,,,,,,,,,,,murder,202,21,aloud,new,red,1043.01479200006,None,n,1043.01479200006,None,"['n', 'return']","[0.7811151999048889, 1.100994999986142]",1043.01479200006,None,,,85YA,001,2023_Aug_30_1553,ExactRep-v3-final,2021.2.3,59.94449142489195,
,,,,,,,,,,,,21,0,21,0,,,,,,,,,,,,,,,,,,,,,,,,,,,,,,,,,,,,,,,,,,,,,,,,,1045.766384000075,None,,,,,,,,,,,,,,,,,,,,,,,,,,,,,,,,,,,,,,,,,,,,,,,,,,,,,,,,,prayer,153,22,silent,new,blue,1044.6810304000974,None,n,1044.6810304000974,None,"['n', 'return']","[0.7786987000145018, 1.0507847000844777]",1044.6810304000974,None,,,85YA,001,2023_Aug_30_1553,ExactRep-v3-final,2021.2.3,59.94449142489195,
,,,,,,,,,,,,22,0,22,0,,,,,,,,,,,,,,,,,,,,,,,,,,,,,,,,,,,,,,,,,,,,,,,,,1047.4853273000335,None,,,,,,,,,,,,,,,,,,,,,,,,,,,,,,,,,,,,,,,,,,,,,,,,,,,,,,,,,bar,199,23,sing,new,white,1046.2828332000645,None,n,1046.2828332000645,None,"['n', 'return']","[0.7928603000473231, 1.152972000068985]",1046.2828332000645,None,,,85YA,001,2023_Aug_30_1553,ExactRep-v3-final,2021.2.3,59.94449142489195,
,,,,,,,,,,,,23,0,23,0,,,,,,,,,,,,,,,,,,,,,,,,,,,,,,,,,,,,,,,,,,,,,,,,,1049.2210405000951,None,,,,,,,,,,,,,,,,,,,,,,,,,,,,,,,,,,,,,,,,,,,,,,,,,,,,,,,,,shore,118,24,aloud,old,red,1048.0111309000058,None,n,1048.0111309000058,None,"['n', 'return']","[0.8005421999841928, 1.160559399984777]",1048.0111309000058,None,,,85YA,001,2023_Aug_30_1553,ExactRep-v3-final,2021.2.3,59.94449142489195,
,,,,,,,,,,,,24,0,24,0,,,,,,,,,,,,,,,,,,,,,,,,,,,,,,,,,,,,,,,,,,,,,,,,,1050.8873076000018,None,,,,,,,,,,,,,,,,,,,,,,,,,,,,,,,,,,,,,,,,,,,,,,,,,,,,,,,,,palace,115,25,aloud,old,red,1049.7362682000967,None,y,1049.7362682000967,None,"['y', 'return']","[0.7477933000773191, 1.1076489000115544]",1049.7362682000967,None,,,85YA,001,2023_Aug_30_1553,ExactRep-v3-final,2021.2.3,59.94449142489195,
,,,,,,,,,,,,25,0,25,0,,,,,,,,,,,,,,,,,,,,,,,,,,,,,,,,,,,,,,,,,,,,,,,,,1052.3385663999943,None,,,,,,,,,,,,,,,,,,,,,,,,,,,,,,,,,,,,,,,,,,,,,,,,,,,,,,,,,deed,92,26,aloud,old,red,1051.3890425000573,None,y,1051.3890425000573,None,"['y', 'return']","[0.5746710000094026, 0.910662200069055]",1051.3890425000573,None,,,85YA,001,2023_Aug_30_1553,ExactRep-v3-final,2021.2.3,59.94449142489195,
,,,,,,,,,,,,26,0,26,0,,,,,,,,,,,,,,,,,,,,,,,,,,,,,,,,,,,,,,,,,,,,,,,,,1055.0643169000978,None,,,,,,,,,,,,,,,,,,,,,,,,,,,,,,,,,,,,,,,,,,,,,,,,,,,,,,,,,prison,59,27,silent,old,blue,1052.8403799000662,None,n,1052.8403799000662,None,"['n', 'return']","[1.7873976000119, 2.1794173000380397]",1052.8403799000662,None,,,85YA,001,2023_Aug_30_1553,ExactRep-v3-final,2021.2.3,59.94449142489195,
,,,,,,,,,,,,27,0,27,0,,,,,,,,,,,,,,,,,,,,,,,,,,,,,,,,,,,,,,,,,,,,,,,,,1056.7934765000828,None,,,,,,,,,,,,,,,,,,,,,,,,,,,,,,,,,,,,,,,,,,,,,,,,,,,,,,,,,pole,197,28,sing,new,white,1055.5756515000248,None,n,1055.5756515000248,None,"['n', 'return']","[0.86865720001515, 1.1800204999744892]",1055.5756515000248,None,,,85YA,001,2023_Aug_30_1553,ExactRep-v3-final,2021.2.3,59.94449142489195,
,,,,,,,,,,,,28,0,28,0,,,,,,,,,,,,,,,,,,,,,,,,,,,,,,,,,,,,,,,,,,,,,,,,,1058.4963881000876,None,,,,,,,,,,,,,,,,,,,,,,,,,,,,,,,,,,,,,,,,,,,,,,,,,,,,,,,,,dream,69,29,silent,old,blue,1057.2955834000604,None,n,1057.2955834000604,None,"['n', 'return']","[0.8121805000118911, 1.1641854000044987]",1057.2955834000604,None,,,85YA,001,2023_Aug_30_1553,ExactRep-v3-final,2021.2.3,59.94449142489195,
,,,,,,,,,,,,29,0,29,0,,,,,,,,,,,,,,,,,,,,,,,,,,,,,,,,,,,,,,,,,,,,,,,,,1060.047325200052,None,,,,,,,,,,,,,,,,,,,,,,,,,,,,,,,,,,,,,,,,,,,,,,,,,,,,,,,,,water,60,30,silent,old,blue,1059.0239136000164,None,n,1059.0239136000164,None,"['n', 'return']","[0.6517763000447303, 0.9880274999886751]",1059.0239136000164,None,,,85YA,001,2023_Aug_30_1553,ExactRep-v3-final,2021.2.3,59.94449142489195,
,,,,,,,,,,,,30,0,30,0,,,,,,,,,,,,,,,,,,,,,,,,,,,,,,,,,,,,,,,,,,,,,,,,,1061.5495695000282,None,,,,,,,,,,,,,,,,,,,,,,,,,,,,,,,,,,,,,,,,,,,,,,,,,,,,,,,,,salary,3,31,sing,old,white,1060.5643904000754,None,y,1060.5643904000754,None,"['y', 'return']","[0.6394559000618756, 0.9434088000562042]",1060.5643904000754,None,,,85YA,001,2023_Aug_30_1553,ExactRep-v3-final,2021.2.3,59.94449142489195,
,,,,,,,,,,,,31,0,31,0,,,,,,,,,,,,,,,,,,,,,,,,,,,,,,,,,,,,,,,,,,,,,,,,,1064.2850712999934,None,,,,,,,,,,,,,,,,,,,,,,,,,,,,,,,,,,,,,,,,,,,,,,,,,,,,,,,,,dust,205,32,sing,new,white,1062.0653508000541,None,y,1062.0653508000541,None,"['y', 'return']","[1.8505577999167144, 2.186365899979137]",1062.0653508000541,None,,,85YA,001,2023_Aug_30_1553,ExactRep-v3-final,2021.2.3,59.94449142489195,
,,,,,,,,,,,,32,0,32,0,,,,,,,,,,,,,,,,,,,,,,,,,,,,,,,,,,,,,,,,,,,,,,,,,1067.1382896000287,None,,,,,,,,,,,,,,,,,,,,,,,,,,,,,,,,,,,,,,,,,,,,,,,,,,,,,,,,,heaven,81,33,aloud,old,red,1064.8044287000084,None,y,1064.8044287000084,None,"['y', 'return']","[1.9672516999999061, 2.2952269000234082]",1064.8044287000084,None,,,85YA,001,2023_Aug_30_1553,ExactRep-v3-final,2021.2.3,59.94449142489195,
,,,,,,,,,,,,33,0,33,0,,,,,,,,,,,,,,,,,,,,,,,,,,,,,,,,,,,,,,,,,,,,,,,,,1069.1382937000599,None,,,,,,,,,,,,,,,,,,,,,,,,,,,,,,,,,,,,,,,,,,,,,,,,,,,,,,,,,advice,212,34,aloud,new,red,1067.6555463999975,None,n,1067.6555463999975,None,"['n', 'return']","[1.1241932000266388, 1.4361489999573678]",1067.6555463999975,None,,,85YA,001,2023_Aug_30_1553,ExactRep-v3-final,2021.2.3,59.94449142489195,
,,,,,,,,,,,,34,0,34,0,,,,,,,,,,,,,,,,,,,,,,,,,,,,,,,,,,,,,,,,,,,,,,,,,1070.5411672000773,None,,,,,,,,,,,,,,,,,,,,,,,,,,,,,,,,,,,,,,,,,,,,,,,,,,,,,,,,,fun,6,35,sing,old,white,1069.64106360008,None,y,1069.64106360008,None,"['y', 'return']","[0.563003099989146, 0.8505810999777168]",1069.64106360008,None,,,85YA,001,2023_Aug_30_1553,ExactRep-v3-final,2021.2.3,59.94449142489195,
,,,,,,,,,,,,35,0,35,0,,,,,,,,,,,,,,,,,,,,,,,,,,,,,,,,,,,,,,,,,,,,,,,,,1072.2933177000377,None,,,,,,,,,,,,,,,,,,,,,,,,,,,,,,,,,,,,,,,,,,,,,,,,,,,,,,,,,person,90,36,aloud,old,red,1071.0590452000033,None,n,1071.0590452000033,None,"['n', 'return']","[0.8727670999942347, 1.200648900005035]",1071.0590452000033,None,,,85YA,001,2023_Aug_30_1553,ExactRep-v3-final,2021.2.3,59.94449142489195,
,,,,,,,,,,,,36,0,36,0,,,,,,,,,,,,,,,,,,,,,,,,,,,,,,,,,,,,,,,,,,,,,,,,,1073.7783293999964,None,,,,,,,,,,,,,,,,,,,,,,,,,,,,,,,,,,,,,,,,,,,,,,,,,,,,,,,,,fact,8,37,sing,old,white,1072.8139634000836,None,y,1072.8139634000836,None,"['y', 'return']","[0.5738335000351071, 0.9177448999835178]",1072.8139634000836,None,,,85YA,001,2023_Aug_30_1553,ExactRep-v3-final,2021.2.3,59.94449142489195,
,,,,,,,,,,,,37,0,37,0,,,,,,,,,,,,,,,,,,,,,,,,,,,,,,,,,,,,,,,,,,,,,,,,,1075.4794278000481,None,,,,,,,,,,,,,,,,,,,,,,,,,,,,,,,,,,,,,,,,,,,,,,,,,,,,,,,,,master,230,38,aloud,new,red,1074.2952623000601,None,n,1074.2952623000601,None,"['n', 'return']","[0.9004348000744358, 1.1486744000576437]",1074.2952623000601,None,,,85YA,001,2023_Aug_30_1553,ExactRep-v3-final,2021.2.3,59.94449142489195,
,,,,,,,,,,,,38,0,38,0,,,,,,,,,,,,,,,,,,,,,,,,,,,,,,,,,,,,,,,,,,,,,,,,,1077.1644220000599,None,,,,,,,,,,,,,,,,,,,,,,,,,,,,,,,,,,,,,,,,,,,,,,,,,,,,,,,,,teacher,231,39,sing,new,white,1075.9972656000173,None,n,1075.9972656000173,None,"['n', 'return']","[0.7904731000307947, 1.1265192999271676]",1075.9972656000173,None,,,85YA,001,2023_Aug_30_1553,ExactRep-v3-final,2021.2.3,59.94449142489195,
,,,,,,,,,,,,39,0,39,0,,,,,,,,,,,,,,,,,,,,,,,,,,,,,,,,,,,,,,,,,,,,,,,,,1079.0331498000305,None,,,,,,,,,,,,,,,,,,,,,,,,,,,,,,,,,,,,,,,,,,,,,,,,,,,,,,,,,time,75,40,silent,old,blue,1077.674255500082,None,n,1077.674255500082,None,"['n', 'return']","[0.8575372999766842, 1.3221199000254273]",1077.674255500082,None,,,85YA,001,2023_Aug_30_1553,ExactRep-v3-final,2021.2.3,59.94449142489195,
,,,,,,,,,,,,40,0,40,0,,,,,,,,,,,,,,,,,,,,,,,,,,,,,,,,,,,,,,,,,,,,,,,,,1080.7683782000095,None,,,,,,,,,,,,,,,,,,,,,,,,,,,,,,,,,,,,,,,,,,,,,,,,,,,,,,,,,star,100,41,aloud,old,red,1079.5400425000116,None,n,1079.5400425000116,None,"['n', 'return']","[0.8240114999935031, 1.1837666999781504]",1079.5400425000116,None,,,85YA,001,2023_Aug_30_1553,ExactRep-v3-final,2021.2.3,59.94449142489195,
,,,,,,,,,,,,41,0,41,0,,,,,,,,,,,,,,,,,,,,,,,,,,,,,,,,,,,,,,,,,,,,,,,,,1082.518610500032,None,,,,,,,,,,,,,,,,,,,,,,,,,,,,,,,,,,,,,,,,,,,,,,,,,,,,,,,,,brain,128,42,silent,new,blue,1081.2851856000489,None,n,1081.2851856000489,None,"['n', 'return']","[0.870411999989301, 1.1986505999229848]",1081.2851856000489,None,,,85YA,001,2023_Aug_30_1553,ExactRep-v3-final,2021.2.3,59.94449142489195,
,,,,,,,,,,,,42,0,42,0,,,,,,,,,,,,,,,,,,,,,,,,,,,,,,,,,,,,,,,,,,,,,,,,,1087.825176000013,None,,,,,,,,,,,,,,,,,,,,,,,,,,,,,,,,,,,,,,,,,,,,,,,,,,,,,,,,,letter,12,43,sing,old,white,1083.0200864000944,None,y,1083.0200864000944,None,"['n', 'backspace', 'y', 'return']","[2.039584100013599, 4.279610399971716, 4.447830299963243, 4.768072500010021]",1083.0200864000944,None,,,85YA,001,2023_Aug_30_1553,ExactRep-v3-final,2021.2.3,59.94449142489195,
,,,,,,,,,,,,43,0,43,0,,,,,,,,,,,,,,,,,,,,,,,,,,,,,,,,,,,,,,,,,,,,,,,,,1089.4766008000588,None,,,,,,,,,,,,,,,,,,,,,,,,,,,,,,,,,,,,,,,,,,,,,,,,,,,,,,,,,vision,232,44,aloud,new,red,1088.3342601000331,None,n,1088.3342601000331,None,"['n', 'return']","[0.7894683999475092, 1.1014595999149606]",1088.3342601000331,None,,,85YA,001,2023_Aug_30_1553,ExactRep-v3-final,2021.2.3,59.94449142489195,
,,,,,,,,,,,,44,0,44,0,,,,,,,,,,,,,,,,,,,,,,,,,,,,,,,,,,,,,,,,,,,,,,,,,1091.0585951000685,None,,,,,,,,,,,,,,,,,,,,,,,,,,,,,,,,,,,,,,,,,,,,,,,,,,,,,,,,,coast,42,45,silent,old,blue,1089.979096300085,None,n,1089.979096300085,None,"['n', 'return']","[0.6886216000420973, 1.0166981000220403]",1089.979096300085,None,,,85YA,001,2023_Aug_30_1553,ExactRep-v3-final,2021.2.3,59.94449142489195,
,,,,,,,,,,,,45,0,45,0,,,,,,,,,,,,,,,,,,,,,,,,,,,,,,,,,,,,,,,,,,,,,,,,,1092.6800041000824,None,,,,,,,,,,,,,,,,,,,,,,,,,,,,,,,,,,,,,,,,,,,,,,,,,,,,,,,,,journal,28,46,sing,old,white,1091.566527100047,None,y,1091.566527100047,None,"['y', 'return']","[0.7094226999906823, 1.077258300036192]",1091.566527100047,None,,,85YA,001,2023_Aug_30_1553,ExactRep-v3-final,2021.2.3,59.94449142489195,
,,,,,,,,,,,,46,0,46,0,,,,,,,,,,,,,,,,,,,,,,,,,,,,,,,,,,,,,,,,,,,,,,,,,1094.2650041000452,None,,,,,,,,,,,,,,,,,,,,,,,,,,,,,,,,,,,,,,,,,,,,,,,,,,,,,,,,,poet,7,47,sing,old,white,1093.1987324000802,None,y,1093.1987324000802,None,"['y', 'return']","[0.6850570000242442, 1.020922900061123]",1093.1987324000802,None,,,85YA,001,2023_Aug_30_1553,ExactRep-v3-final,2021.2.3,59.94449142489195,
,,,,,,,,,,,,47,0,47,0,,,,,,,,,,,,,,,,,,,,,,,,,,,,,,,,,,,,,,,,,,,,,,,,,1096.0175739000551,None,,,,,,,,,,,,,,,,,,,,,,,,,,,,,,,,,,,,,,,,,,,,,,,,,,,,,,,,,month,203,48,sing,new,white,1094.783333600033,None,n,1094.783333600033,None,"['n', 'return']","[0.8683881999459118, 1.1966284000081941]",1094.783333600033,None,,,85YA,001,2023_Aug_30_1553,ExactRep-v3-final,2021.2.3,59.94449142489195,
,,,,,,,,,,,,48,0,48,0,,,,,,,,,,,,,,,,,,,,,,,,,,,,,,,,,,,,,,,,,,,,,,,,,1098.535923800082,None,,,,,,,,,,,,,,,,,,,,,,,,,,,,,,,,,,,,,,,,,,,,,,,,,,,,,,,,,air,224,49,aloud,new,red,1096.5327854000498,None,n,1096.5327854000498,None,"['n', 'return']","[0.8629618999548256, 1.9590519999619573]",1096.5327854000498,None,,,85YA,001,2023_Aug_30_1553,ExactRep-v3-final,2021.2.3,59.94449142489195,
,,,,,,,,,,,,49,0,49,0,,,,,,,,,,,,,,,,,,,,,,,,,,,,,,,,,,,,,,,,,,,,,,,,,1100.136051999987,None,,,,,,,,,,,,,,,,,,,,,,,,,,,,,,,,,,,,,,,,,,,,,,,,,,,,,,,,,origin,108,50,aloud,old,red,1099.0539011000656,None,y,1099.0539011000656,None,"['y', 'return']","[0.7097772998968139, 1.0462204999057576]",1099.0539011000656,None,,,85YA,001,2023_Aug_30_1553,ExactRep-v3-final,2021.2.3,59.94449142489195,
,,,,,,,,,,,,50,0,50,0,,,,,,,,,,,,,,,,,,,,,,,,,,,,,,,,,,,,,,,,,,,,,,,,,1101.8223811000353,None,,,,,,,,,,,,,,,,,,,,,,,,,,,,,,,,,,,,,,,,,,,,,,,,,,,,,,,,,valley,198,51,aloud,new,red,1100.6382480000611,None,n,1100.6382480000611,None,"['n', 'return']","[0.8534779000328854, 1.1494635000126436]",1100.6382480000611,None,,,85YA,001,2023_Aug_30_1553,ExactRep-v3-final,2021.2.3,59.94449142489195,
,,,,,,,,,,,,51,0,51,0,,,,,,,,,,,,,,,,,,,,,,,,,,,,,,,,,,,,,,,,,,,,,,,,,1103.896071300027,None,,,,,,,,,,,,,,,,,,,,,,,,,,,,,,,,,,,,,,,,,,,,,,,,,,,,,,,,,seat,27,52,sing,old,white,1102.3389636999927,None,n,1102.3389636999927,None,"['n', 'return']","[0.8967466000467539, 1.5046492000110447]",1102.3389636999927,None,,,85YA,001,2023_Aug_30_1553,ExactRep-v3-final,2021.2.3,59.94449142489195,
,,,,,,,,,,,,52,0,52,0,,,,,,,,,,,,,,,,,,,,,,,,,,,,,,,,,,,,,,,,,,,,,,,,,1106.5103937000968,None,,,,,,,,,,,,,,,,,,,,,,,,,,,,,,,,,,,,,,,,,,,,,,,,,,,,,,,,,flower,23,53,sing,old,white,1104.4120857000817,None,y,1104.4120857000817,None,"['y', 'return']","[0.895774699980393, 2.055636000004597]",1104.4120857000817,None,,,85YA,001,2023_Aug_30_1553,ExactRep-v3-final,2021.2.3,59.94449142489195,
,,,,,,,,,,,,53,0,53,0,,,,,,,,,,,,,,,,,,,,,,,,,,,,,,,,,,,,,,,,,,,,,,,,,1108.195417299983,None,,,,,,,,,,,,,,,,,,,,,,,,,,,,,,,,,,,,,,,,,,,,,,,,,,,,,,,,,table,159,54,silent,new,blue,1107.0281617,None,n,1107.0281617,None,"['n', 'return']","[0.7835057999473065, 1.1275649999734014]",1107.0281617,None,,,85YA,001,2023_Aug_30_1553,ExactRep-v3-final,2021.2.3,59.94449142489195,
,,,,,,,,,,,,54,0,54,0,,,,,,,,,,,,,,,,,,,,,,,,,,,,,,,,,,,,,,,,,,,,,,,,,1111.6490392000414,None,,,,,,,,,,,,,,,,,,,,,,,,,,,,,,,,,,,,,,,,,,,,,,,,,,,,,,,,,effort,5,55,sing,old,white,1108.7130865000654,None,y,1108.7130865000654,None,"['y', 'return']","[1.7785148000111803, 2.8906562000047415]",1108.7130865000654,None,,,85YA,001,2023_Aug_30_1553,ExactRep-v3-final,2021.2.3,59.94449142489195,
,,,,,,,,,,,,55,0,55,0,,,,,,,,,,,,,,,,,,,,,,,,,,,,,,,,,,,,,,,,,,,,,,,,,1113.3006063000066,None,,,,,,,,,,,,,,,,,,,,,,,,,,,,,,,,,,,,,,,,,,,,,,,,,,,,,,,,,church,84,56,aloud,old,red,1112.1582819999894,None,n,1112.1582819999894,None,"['n', 'return']","[0.6933938000584021, 1.0934759000083432]",1112.1582819999894,None,,,85YA,001,2023_Aug_30_1553,ExactRep-v3-final,2021.2.3,59.94449142489195,
,,,,,,,,,,,,56,0,56,0,,,,,,,,,,,,,,,,,,,,,,,,,,,,,,,,,,,,,,,,,,,,,,,,,1114.9019670999842,None,,,,,,,,,,,,,,,,,,,,,,,,,,,,,,,,,,,,,,,,,,,,,,,,,,,,,,,,,toy,48,57,silent,old,blue,1113.80608140002,None,n,1113.80608140002,None,"['n', 'return']","[0.6696258999872953, 1.0535827999701723]",1113.80608140002,None,,,85YA,001,2023_Aug_30_1553,ExactRep-v3-final,2021.2.3,59.94449142489195,
,,,,,,,,,,,,57,0,57,0,,,,,,,,,,,,,,,,,,,,,,,,,,,,,,,,,,,,,,,,,,,,,,,,,1117.6872457000427,None,,,,,,,,,,,,,,,,,,,,,,,,,,,,,,,,,,,,,,,,,,,,,,,,,,,,,,,,,victory,50,58,silent,old,blue,1115.4038592000725,None,n,1115.4038592000725,None,"['n', 'return']","[1.8717915000161156, 2.239948800066486]",1115.4038592000725,None,,,85YA,001,2023_Aug_30_1553,ExactRep-v3-final,2021.2.3,59.94449142489195,
,,,,,,,,,,,,58,0,58,0,,,,,,,,,,,,,,,,,,,,,,,,,,,,,,,,,,,,,,,,,,,,,,,,,1119.707124000066,None,,,,,,,,,,,,,,,,,,,,,,,,,,,,,,,,,,,,,,,,,,,,,,,,,,,,,,,,,spirit,95,59,aloud,old,red,1118.1890814000508,None,n,1118.1890814000508,None,"['n', 'return']","[1.1266134000616148, 1.4706393000669777]",1118.1890814000508,None,,,85YA,001,2023_Aug_30_1553,ExactRep-v3-final,2021.2.3,59.94449142489195,
,,,,,,,,,,,,59,0,59,0,,,,,,,,,,,,,,,,,,,,,,,,,,,,,,,,,,,,,,,,,,,,,,,,,1121.675471500028,None,,,,,,,,,,,,,,,,,,,,,,,,,,,,,,,,,,,,,,,,,,,,,,,,,,,,,,,,,boy,99,60,aloud,old,red,1120.2242298000492,None,n,1120.2242298000492,None,"['n', 'return']","[0.6434531999984756, 1.4115497999591753]",1120.2242298000492,None,,,85YA,001,2023_Aug_30_1553,ExactRep-v3-final,2021.2.3,59.94449142489195,
,,,,,,,,,,,,60,0,60,0,,,,,,,,,,,,,,,,,,,,,,,,,,,,,,,,,,,,,,,,,,,,,,,,,1123.2428725000937,None,,,,,,,,,,,,,,,,,,,,,,,,,,,,,,,,,,,,,,,,,,,,,,,,,,,,,,,,,doll,85,61,aloud,old,red,1122.201248700032,None,y,1122.201248700032,None,"['y', 'return']","[0.6584555000299588, 0.9943665000610054]",1122.201248700032,None,,,85YA,001,2023_Aug_30_1553,ExactRep-v3-final,2021.2.3,59.94449142489195,
,,,,,,,,,,,,61,0,61,0,,,,,,,,,,,,,,,,,,,,,,,,,,,,,,,,,,,,,,,,,,,,,,,,,1125.0791875000577,None,,,,,,,,,,,,,,,,,,,,,,,,,,,,,,,,,,,,,,,,,,,,,,,,,,,,,,,,,forest,34,62,sing,old,white,1123.7513625000138,None,y,1123.7513625000138,None,"['y', 'return']","[0.9322800999507308, 1.284341499907896]",1123.7513625000138,None,,,85YA,001,2023_Aug_30_1553,ExactRep-v3-final,2021.2.3,59.94449142489195,
,,,,,,,,,,,,62,0,62,0,,,,,,,,,,,,,,,,,,,,,,,,,,,,,,,,,,,,,,,,,,,,,,,,,1126.5963129000738,None,,,,,,,,,,,,,,,,,,,,,,,,,,,,,,,,,,,,,,,,,,,,,,,,,,,,,,,,,hour,13,63,sing,old,white,1125.5855605000397,None,y,1125.5855605000397,None,"['y', 'return']","[0.6581806000322104, 0.9780569000868127]",1125.5855605000397,None,,,85YA,001,2023_Aug_30_1553,ExactRep-v3-final,2021.2.3,59.94449142489195,
,,,,,,,,,,,,63,0,63,0,,,,,,,,,,,,,,,,,,,,,,,,,,,,,,,,,,,,,,,,,,,,,,,,,1128.317369800061,None,,,,,,,,,,,,,,,,,,,,,,,,,,,,,,,,,,,,,,,,,,,,,,,,,,,,,,,,,dollar,196,64,aloud,new,red,1127.098360300064,None,n,1127.098360300064,None,"['n', 'return']","[0.8093064000131562, 1.1694209000561386]",1127.098360300064,None,,,85YA,001,2023_Aug_30_1553,ExactRep-v3-final,2021.2.3,59.94449142489195,
,,,,,,,,,,,,64,0,64,0,,,,,,,,,,,,,,,,,,,,,,,,,,,,,,,,,,,,,,,,,,,,,,,,,1129.9170827000635,None,,,,,,,,,,,,,,,,,,,,,,,,,,,,,,,,,,,,,,,,,,,,,,,,,,,,,,,,,camp,194,65,aloud,new,red,1128.8330081000458,None,n,1128.8330081000458,None,"['n', 'return']","[0.7625688998959959, 1.034734999993816]",1128.8330081000458,None,,,85YA,001,2023_Aug_30_1553,ExactRep-v3-final,2021.2.3,59.94449142489195,
,,,,,,,,,,,,65,0,65,0,,,,,,,,,,,,,,,,,,,,,,,,,,,,,,,,,,,,,,,,,,,,,,,,,1131.502087400062,None,,,,,,,,,,,,,,,,,,,,,,,,,,,,,,,,,,,,,,,,,,,,,,,,,,,,,,,,,vessel,86,66,aloud,old,red,1130.4344049000647,None,y,1130.4344049000647,None,"['y', 'return']","[0.6412583000492305, 1.0332671001087874]",1130.4344049000647,None,,,85YA,001,2023_Aug_30_1553,ExactRep-v3-final,2021.2.3,59.94449142489195,
,,,,,,,,,,,,66,0,66,0,,,,,,,,,,,,,,,,,,,,,,,,,,,,,,,,,,,,,,,,,,,,,,,,,1133.3702529000584,None,,,,,,,,,,,,,,,,,,,,,,,,,,,,,,,,,,,,,,,,,,,,,,,,,,,,,,,,,disease,227,67,sing,new,white,1132.0198526000604,None,n,1132.0198526000604,None,"['n', 'return']","[0.9918364000041038, 1.3118349000578746]",1132.0198526000604,None,,,85YA,001,2023_Aug_30_1553,ExactRep-v3-final,2021.2.3,59.94449142489195,
,,,,,,,,,,,,67,0,67,0,,,,,,,,,,,,,,,,,,,,,,,,,,,,,,,,,,,,,,,,,,,,,,,,,1136.8412936000386,None,,,,,,,,,,,,,,,,,,,,,,,,,,,,,,,,,,,,,,,,,,,,,,,,,,,,,,,,,moment,106,68,aloud,old,red,1133.8723348000785,None,y,1133.8723348000785,None,"['y', 'return']","[2.5713687000097707, 2.9232587000587955]",1133.8723348000785,None,,,85YA,001,2023_Aug_30_1553,ExactRep-v3-final,2021.2.3,59.94449142489195,
,,,,,,,,,,,,68,0,68,0,,,,,,,,,,,,,,,,,,,,,,,,,,,,,,,,,,,,,,,,,,,,,,,,,1138.274952000007,None,,,,,,,,,,,,,,,,,,,,,,,,,,,,,,,,,,,,,,,,,,,,,,,,,,,,,,,,,potato,102,69,aloud,old,red,1137.3662479000632,None,y,1137.3662479000632,None,"['y', 'return']","[0.6133912999648601, 0.86948360002134]",1137.3662479000632,None,,,85YA,001,2023_Aug_30_1553,ExactRep-v3-final,2021.2.3,59.94449142489195,
,,,,,,,,,,,,69,0,69,0,,,,,,,,,,,,,,,,,,,,,,,,,,,,,,,,,,,,,,,,,,,,,,,,,1140.2911745000165,None,,,,,,,,,,,,,,,,,,,,,,,,,,,,,,,,,,,,,,,,,,,,,,,,,,,,,,,,,crime,116,70,aloud,old,red,1138.7826658000704,None,n,1138.7826658000704,None,"['n', 'return']","[1.1729359000455588, 1.4610752000007778]",1138.7826658000704,None,,,85YA,001,2023_Aug_30_1553,ExactRep-v3-final,2021.2.3,59.94449142489195,
,,,,,,,,,,,,70,0,70,0,,,,,,,,,,,,,,,,,,,,,,,,,,,,,,,,,,,,,,,,,,,,,,,,,1144.1481160999974,None,,,,,,,,,,,,,,,,,,,,,,,,,,,,,,,,,,,,,,,,,,,,,,,,,,,,,,,,,paper,37,71,sing,old,white,1140.8118671000702,None,n,1140.8118671000702,None,"['n', 'return']","[1.1597949999850243, 3.2958079000236467]",1140.8118671000702,None,,,85YA,001,2023_Aug_30_1553,ExactRep-v3-final,2021.2.3,59.94449142489195,
,,,,,,,,,,,,71,0,71,0,,,,,,,,,,,,,,,,,,,,,,,,,,,,,,,,,,,,,,,,,,,,,,,,,1146.2334244000958,None,,,,,,,,,,,,,,,,,,,,,,,,,,,,,,,,,,,,,,,,,,,,,,,,,,,,,,,,,stone,235,72,sing,new,white,1144.6646136000054,None,n,1144.6646136000054,None,"['n', 'y', 'return']","[1.299163099960424, 1.3314506999449804, 1.5311893000034615]",1144.6646136000054,None,,,85YA,001,2023_Aug_30_1553,ExactRep-v3-final,2021.2.3,59.94449142489195,
,,,,,,,,,,,,72,0,72,0,,,,,,,,,,,,,,,,,,,,,,,,,,,,,,,,,,,,,,,,,,,,,,,,,1147.8349360000575,None,,,,,,,,,,,,,,,,,,,,,,,,,,,,,,,,,,,,,,,,,,,,,,,,,,,,,,,,,pride,189,73,sing,new,white,1146.7416718000313,None,n,1146.7416718000313,None,"['n', 'return']","[0.7899840999161825, 1.054108800017275]",1146.7416718000313,None,,,85YA,001,2023_Aug_30_1553,ExactRep-v3-final,2021.2.3,59.94449142489195,
,,,,,,,,,,,,73,0,73,0,,,,,,,,,,,,,,,,,,,,,,,,,,,,,,,,,,,,,,,,,,,,,,,,,1149.4530713000568,None,,,,,,,,,,,,,,,,,,,,,,,,,,,,,,,,,,,,,,,,,,,,,,,,,,,,,,,,,body,178,74,aloud,new,red,1148.3436974000651,None,n,1148.3436974000651,None,"['n', 'return']","[0.7319978000596166, 1.0601190000306815]",1148.3436974000651,None,,,85YA,001,2023_Aug_30_1553,ExactRep-v3-final,2021.2.3,59.94449142489195,
,,,,,,,,,,,,74,0,74,0,,,,,,,,,,,,,,,,,,,,,,,,,,,,,,,,,,,,,,,,,,,,,,,,,1151.4050219000783,None,,,,,,,,,,,,,,,,,,,,,,,,,,,,,,,,,,,,,,,,,,,,,,,,,,,,,,,,,coffee,9,75,sing,old,white,1149.9540524000768,None,y,1149.9540524000768,None,"['y', 'return']","[1.0817990000359714, 1.4176125000230968]",1149.9540524000768,None,,,85YA,001,2023_Aug_30_1553,ExactRep-v3-final,2021.2.3,59.94449142489195,
,,,,,,,,,,,,75,0,75,0,,,,,,,,,,,,,,,,,,,,,,,,,,,,,,,,,,,,,,,,,,,,,,,,,1153.0570967000676,None,,,,,,,,,,,,,,,,,,,,,,,,,,,,,,,,,,,,,,,,,,,,,,,,,,,,,,,,,dress,219,76,sing,new,white,1151.930836000014,None,n,1151.930836000014,None,"['n', 'return']","[0.7689205000642687, 1.0808713999576867]",1151.930836000014,None,,,85YA,001,2023_Aug_30_1553,ExactRep-v3-final,2021.2.3,59.94449142489195,
,,,,,,,,,,,,76,0,76,0,,,,,,,,,,,,,,,,,,,,,,,,,,,,,,,,,,,,,,,,,,,,,,,,,1154.7420227000257,None,,,,,,,,,,,,,,,,,,,,,,,,,,,,,,,,,,,,,,,,,,,,,,,,,,,,,,,,,bird,88,77,aloud,old,red,1153.5761689000065,None,n,1153.5761689000065,None,"['n', 'return']","[0.7796881999820471, 1.1236228999914601]",1153.5761689000065,None,,,85YA,001,2023_Aug_30_1553,ExactRep-v3-final,2021.2.3,59.94449142489195,
,,,,,,,,,,,,77,0,77,0,,,,,,,,,,,,,,,,,,,,,,,,,,,,,,,,,,,,,,,,,,,,,,,,,1156.4927481000777,None,,,,,,,,,,,,,,,,,,,,,,,,,,,,,,,,,,,,,,,,,,,,,,,,,,,,,,,,,glory,177,78,sing,new,white,1155.2584183000727,None,n,1155.2584183000727,None,"['n', 'return']","[0.8573076000902802, 1.1934562000678852]",1155.2584183000727,None,,,85YA,001,2023_Aug_30_1553,ExactRep-v3-final,2021.2.3,59.94449142489195,
,,,,,,,,,,,,78,0,78,0,,,,,,,,,,,,,,,,,,,,,,,,,,,,,,,,,,,,,,,,,,,,,,,,,1158.4790758000454,None,,,,,,,,,,,,,,,,,,,,,,,,,,,,,,,,,,,,,,,,,,,,,,,,,,,,,,,,,lad,125,79,silent,new,blue,1157.0119465000462,None,n,1157.0119465000462,None,"['n', 'return']","[1.1036976999603212, 1.431798700010404]",1157.0119465000462,None,,,85YA,001,2023_Aug_30_1553,ExactRep-v3-final,2021.2.3,59.94449142489195,
,,,,,,,,,,,,79,0,79,0,,,,,,,,,,,,,,,,,,,,,,,,,,,,,,,,,,,,,,,,,,,,,,,,,1159.963557900046,None,,,,,,,,,,,,,,,,,,,,,,,,,,,,,,,,,,,,,,,,,,,,,,,,,,,,,,,,,corn,170,80,aloud,new,red,1158.9960308000445,None,n,1158.9960308000445,None,"['n', 'return']","[0.5996009999653324, 0.9277175999013707]",1158.9960308000445,None,,,85YA,001,2023_Aug_30_1553,ExactRep-v3-final,2021.2.3,59.94449142489195,
,,,,,,,,,,,,80,0,80,0,,,,,,,,,,,,,,,,,,,,,,,,,,,,,,,,,,,,,,,,,,,,,,,,,1161.565510799992,None,,,,,,,,,,,,,,,,,,,,,,,,,,,,,,,,,,,,,,,,,,,,,,,,,,,,,,,,,machine,127,81,silent,new,blue,1160.481139200041,None,n,1160.481139200041,None,"['n', 'return']","[0.7066561999963596, 1.0425589999649674]",1160.481139200041,None,,,85YA,001,2023_Aug_30_1553,ExactRep-v3-final,2021.2.3,59.94449142489195,
,,,,,,,,,,,,81,0,81,0,,,,,,,,,,,,,,,,,,,,,,,,,,,,,,,,,,,,,,,,,,,,,,,,,1163.7173788000364,None,,,,,,,,,,,,,,,,,,,,,,,,,,,,,,,,,,,,,,,,,,,,,,,,,,,,,,,,,king,209,82,sing,new,white,1162.0832460999954,None,n,1162.0832460999954,None,"['n', 'return']","[0.8084554000524804, 1.592505699954927]",1162.0832460999954,None,,,85YA,001,2023_Aug_30_1553,ExactRep-v3-final,2021.2.3,59.94449142489195,
,,,,,,,,,,,,82,0,82,0,,,,,,,,,,,,,,,,,,,,,,,,,,,,,,,,,,,,,,,,,,,,,,,,,1165.8535485999892,None,,,,,,,,,,,,,,,,,,,,,,,,,,,,,,,,,,,,,,,,,,,,,,,,,,,,,,,,,artist,14,83,sing,old,white,1164.242653000052,None,y,1164.242653000052,None,"['y', 'return']","[1.2412697999970987, 1.5771264999639243]",1164.242653000052,None,,,85YA,001,2023_Aug_30_1553,ExactRep-v3-final,2021.2.3,59.94449142489195,
,,,,,,,,,,,,83,0,83,0,,,,,,,,,,,,,,,,,,,,,,,,,,,,,,,,,,,,,,,,,,,,,,,,,1167.6883031000616,None,,,,,,,,,,,,,,,,,,,,,,,,,,,,,,,,,,,,,,,,,,,,,,,,,,,,,,,,,death,151,84,silent,new,blue,1166.3700639000162,None,n,1166.3700639000162,None,"['n', 'return']","[0.9855981000000611, 1.28161760000512]",1166.3700639000162,None,,,85YA,001,2023_Aug_30_1553,ExactRep-v3-final,2021.2.3,59.94449142489195,
,,,,,,,,,,,,84,0,84,0,,,,,,,,,,,,,,,,,,,,,,,,,,,,,,,,,,,,,,,,,,,,,,,,,1170.0568565999856,None,,,,,,,,,,,,,,,,,,,,,,,,,,,,,,,,,,,,,,,,,,,,,,,,,,,,,,,,,grass,179,85,sing,new,white,1168.1965430000564,None,n,1168.1965430000564,None,"['n', 'return']","[1.5031461999751627, 1.8150785999605432]",1168.1965430000564,None,,,85YA,001,2023_Aug_30_1553,ExactRep-v3-final,2021.2.3,59.94449142489195,
,,,,,,,,,,,,85,0,85,0,,,,,,,,,,,,,,,,,,,,,,,,,,,,,,,,,,,,,,,,,,,,,,,,,1173.1102553000674,None,,,,,,,,,,,,,,,,,,,,,,,,,,,,,,,,,,,,,,,,,,,,,,,,,,,,,,,,,book,32,86,sing,old,white,1170.5704930000938,None,y,1170.5704930000938,None,"['y', 'return']","[2.193135099951178, 2.4973559000063688]",1170.5704930000938,None,,,85YA,001,2023_Aug_30_1553,ExactRep-v3-final,2021.2.3,59.94449142489195,
,,,,,,,,,,,,86,0,86,0,,,,,,,,,,,,,,,,,,,,,,,,,,,,,,,,,,,,,,,,,,,,,,,,,1174.6107342999894,None,,,,,,,,,,,,,,,,,,,,,,,,,,,,,,,,,,,,,,,,,,,,,,,,,,,,,,,,,board,53,87,silent,old,blue,1173.6181458000792,None,y,1173.6181458000792,None,"['y', 'return']","[0.6816220000619069, 0.9455941000487655]",1173.6181458000792,None,,,85YA,001,2023_Aug_30_1553,ExactRep-v3-final,2021.2.3,59.94449142489195,
,,,,,,,,,,,,87,0,87,0,,,,,,,,,,,,,,,,,,,,,,,,,,,,,,,,,,,,,,,,,,,,,,,,,1176.5970465000719,None,,,,,,,,,,,,,,,,,,,,,,,,,,,,,,,,,,,,,,,,,,,,,,,,,,,,,,,,,army,134,88,silent,new,blue,1175.1194288000697,None,n,1175.1194288000697,None,"['n', 'return']","[0.876141200074926, 1.4282333001028746]",1175.1194288000697,None,,,85YA,001,2023_Aug_30_1553,ExactRep-v3-final,2021.2.3,59.94449142489195,
,,,,,,,,,,,,88,0,88,0,,,,,,,,,,,,,,,,,,,,,,,,,,,,,,,,,,,,,,,,,,,,,,,,,1178.0473164999858,None,,,,,,,,,,,,,,,,,,,,,,,,,,,,,,,,,,,,,,,,,,,,,,,,,,,,,,,,,green,185,89,sing,new,white,1177.1140662999824,None,n,1177.1140662999824,None,"['n', 'return']","[0.5775855999672785, 0.8895599000388756]",1177.1140662999824,None,,,85YA,001,2023_Aug_30_1553,ExactRep-v3-final,2021.2.3,59.94449142489195,
,,,,,,,,,,,,89,0,89,0,,,,,,,,,,,,,,,,,,,,,,,,,,,,,,,,,,,,,,,,,,,,,,,,,1180.0669583000708,None,,,,,,,,,,,,,,,,,,,,,,,,,,,,,,,,,,,,,,,,,,,,,,,,,,,,,,,,,square,39,90,silent,old,blue,1178.5488407000666,None,n,1178.5488407000666,None,"['n', 'return']","[1.07880560006015, 1.4788872000062838]",1178.5488407000666,None,,,85YA,001,2023_Aug_30_1553,ExactRep-v3-final,2021.2.3,59.94449142489195,
,,,,,,,,,,,,90,0,90,0,,,,,,,,,,,,,,,,,,,,,,,,,,,,,,,,,,,,,,,,,,,,,,,,,1182.7364503000863,None,,,,,,,,,,,,,,,,,,,,,,,,,,,,,,,,,,,,,,,,,,,,,,,,,,,,,,,,,plant,80,91,aloud,old,red,1180.5680157000897,None,n,1180.5680157000897,None,"['n', 'return']","[1.7157938999589533, 2.123726399964653]",1180.5680157000897,None,,,85YA,001,2023_Aug_30_1553,ExactRep-v3-final,2021.2.3,59.94449142489195,
,,,,,,,,,,,,91,0,91,0,,,,,,,,,,,,,,,,,,,,,,,,,,,,,,,,,,,,,,,,,,,,,,,,,1185.9231614000164,None,,,,,,,,,,,,,,,,,,,,,,,,,,,,,,,,,,,,,,,,,,,,,,,,,,,,,,,,,present,64,92,silent,old,blue,1183.2553783000913,None,n,1183.2553783000913,None,"['y', 'backspace', 'n', 'return']","[0.8202847999054939, 2.140446799923666, 2.340397399966605, 2.6203269999241456]",1183.2553783000913,None,,,85YA,001,2023_Aug_30_1553,ExactRep-v3-final,2021.2.3,59.94449142489195,
,,,,,,,,,,,,92,0,92,0,,,,,,,,,,,,,,,,,,,,,,,,,,,,,,,,,,,,,,,,,,,,,,,,,1187.7239974000258,None,,,,,,,,,,,,,,,,,,,,,,,,,,,,,,,,,,,,,,,,,,,,,,,,,,,,,,,,,maiden,175,93,sing,new,white,1186.439990199986,None,n,1186.439990199986,None,"['n', 'return']","[0.971669299993664, 1.243677500053309]",1186.439990199986,None,,,85YA,001,2023_Aug_30_1553,ExactRep-v3-final,2021.2.3,59.94449142489195,
,,,,,,,,,,,,93,0,93,0,,,,,,,,,,,,,,,,,,,,,,,,,,,,,,,,,,,,,,,,,,,,,,,,,1189.664148400072,None,,,,,,,,,,,,,,,,,,,,,,,,,,,,,,,,,,,,,,,,,,,,,,,,,,,,,,,,,speech,40,94,silent,old,blue,1188.2429367000004,None,n,1188.2429367000004,None,"['n', 'return']","[0.9207419999875128, 1.3767480999231339]",1188.2429367000004,None,,,85YA,001,2023_Aug_30_1553,ExactRep-v3-final,2021.2.3,59.94449142489195,
,,,,,,,,,,,,94,0,94,0,,,,,,,,,,,,,,,,,,,,,,,,,,,,,,,,,,,,,,,,,,,,,,,,,1191.445203899988,None,,,,,,,,,,,,,,,,,,,,,,,,,,,,,,,,,,,,,,,,,,,,,,,,,,,,,,,,,door,98,95,aloud,old,red,1190.1837053000927,None,y,1190.1837053000927,None,"['y', 'return']","[0.8680917000165209, 1.2200458000879735]",1190.1837053000927,None,,,85YA,001,2023_Aug_30_1553,ExactRep-v3-final,2021.2.3,59.94449142489195,
,,,,,,,,,,,,95,0,95,0,,,,,,,,,,,,,,,,,,,,,,,,,,,,,,,,,,,,,,,,,,,,,,,,,1193.5973503000569,None,,,,,,,,,,,,,,,,,,,,,,,,,,,,,,,,,,,,,,,,,,,,,,,,,,,,,,,,,cotton,11,96,sing,old,white,1191.9543384000426,None,y,1191.9543384000426,None,"['y', 'return']","[1.345436199917458, 1.6093670999398455]",1191.9543384000426,None,,,85YA,001,2023_Aug_30_1553,ExactRep-v3-final,2021.2.3,59.94449142489195,
,,,,,,,,,,,,96,0,96,0,,,,,,,,,,,,,,,,,,,,,,,,,,,,,,,,,,,,,,,,,,,,,,,,,1195.1154573000968,None,,,,,,,,,,,,,,,,,,,,,,,,,,,,,,,,,,,,,,,,,,,,,,,,,,,,,,,,,shoes,63,97,silent,old,blue,1194.1152121000923,None,n,1194.1152121000923,None,"['n', 'return']","[0.7128303999779746, 0.9604632999980822]",1194.1152121000923,None,,,85YA,001,2023_Aug_30_1553,ExactRep-v3-final,2021.2.3,59.94449142489195,
,,,,,,,,,,,,97,0,97,0,,,,,,,,,,,,,,,,,,,,,,,,,,,,,,,,,,,,,,,,,,,,,,,,,1197.0673791000154,None,,,,,,,,,,,,,,,,,,,,,,,,,,,,,,,,,,,,,,,,,,,,,,,,,,,,,,,,,length,35,98,sing,old,white,1195.623426700011,None,y,1195.623426700011,None,"['y', 'return']","[1.0043130000121891, 1.4042543000541627]",1195.623426700011,None,,,85YA,001,2023_Aug_30_1553,ExactRep-v3-final,2021.2.3,59.94449142489195,
,,,,,,,,,,,,98,0,98,0,,,,,,,,,,,,,,,,,,,,,,,,,,,,,,,,,,,,,,,,,,,,,,,,,1198.7362378999824,None,,,,,,,,,,,,,,,,,,,,,,,,,,,,,,,,,,,,,,,,,,,,,,,,,,,,,,,,,wheat,149,99,silent,new,blue,1197.5744246999966,None,n,1197.5744246999966,None,"['n', 'return']","[0.7492647999897599, 1.1252390999579802]",1197.5744246999966,None,,,85YA,001,2023_Aug_30_1553,ExactRep-v3-final,2021.2.3,59.94449142489195,
,,,,,,,,,,,,99,0,99,0,,,,,,,,,,,,,,,,,,,,,,,,,,,,,,,,,,,,,,,,,,,,,,,,,1200.854718400049,None,,,,,,,,,,,,,,,,,,,,,,,,,,,,,,,,,,,,,,,,,,,,,,,,,,,,,,,,,woods,112,100,aloud,old,red,1199.2461812000256,None,y,1199.2461812000256,None,"['y', 'return']","[0.9256509999977425, 1.5655330999288708]",1199.2461812000256,None,,,85YA,001,2023_Aug_30_1553,ExactRep-v3-final,2021.2.3,59.94449142489195,
,,,,,,,,,,,,100,0,100,0,,,,,,,,,,,,,,,,,,,,,,,,,,,,,,,,,,,,,,,,,,,,,,,,,1202.6886928000022,None,,,,,,,,,,,,,,,,,,,,,,,,,,,,,,,,,,,,,,,,,,,,,,,,,,,,,,,,,steam,237,101,sing,new,white,1201.3705762000754,None,n,1201.3705762000754,None,"['n', 'return']","[0.9371429000748321, 1.2729817000217736]",1201.3705762000754,None,,,85YA,001,2023_Aug_30_1553,ExactRep-v3-final,2021.2.3,59.94449142489195,
,,,,,,,,,,,,101,0,101,0,,,,,,,,,,,,,,,,,,,,,,,,,,,,,,,,,,,,,,,,,,,,,,,,,1204.3413923000917,None,,,,,,,,,,,,,,,,,,,,,,,,,,,,,,,,,,,,,,,,,,,,,,,,,,,,,,,,,colony,161,102,sing,new,white,1203.2064926000312,None,n,1203.2064926000312,None,"['n', 'return']","[0.7653095000423491, 1.0852922999765724]",1203.2064926000312,None,,,85YA,001,2023_Aug_30_1553,ExactRep-v3-final,2021.2.3,59.94449142489195,
,,,,,,,,,,,,102,0,102,0,,,,,,,,,,,,,,,,,,,,,,,,,,,,,,,,,,,,,,,,,,,,,,,,,1205.9595027000178,None,,,,,,,,,,,,,,,,,,,,,,,,,,,,,,,,,,,,,,,,,,,,,,,,,,,,,,,,,lord,73,103,silent,old,blue,1204.8574256000575,None,n,1204.8574256000575,None,"['n', 'return']","[0.7622345999116078, 1.0663819999899715]",1204.8574256000575,None,,,85YA,001,2023_Aug_30_1553,ExactRep-v3-final,2021.2.3,59.94449142489195,
,,,,,,,,,,,,103,0,103,0,,,,,,,,,,,,,,,,,,,,,,,,,,,,,,,,,,,,,,,,,,,,,,,,,1207.3279372000834,None,,,,,,,,,,,,,,,,,,,,,,,,,,,,,,,,,,,,,,,,,,,,,,,,,,,,,,,,,justice,124,104,silent,new,blue,1206.4609351000981,None,n,1206.4609351000981,None,"['n', 'return']","[0.5107157999882475, 0.8228417000500485]",1206.4609351000981,None,,,85YA,001,2023_Aug_30_1553,ExactRep-v3-final,2021.2.3,59.94449142489195,
,,,,,,,,,,,,104,0,104,0,,,,,,,,,,,,,,,,,,,,,,,,,,,,,,,,,,,,,,,,,,,,,,,,,1208.762745300075,None,,,,,,,,,,,,,,,,,,,,,,,,,,,,,,,,,,,,,,,,,,,,,,,,,,,,,,,,,flesh,147,105,silent,new,blue,1207.8448375000153,None,n,1207.8448375000153,None,"['n', 'return']","[0.5828586999559775, 0.8789038000395522]",1207.8448375000153,None,,,85YA,001,2023_Aug_30_1553,ExactRep-v3-final,2021.2.3,59.94449142489195,
,,,,,,,,,,,,105,0,105,0,,,,,,,,,,,,,,,,,,,,,,,,,,,,,,,,,,,,,,,,,,,,,,,,,1210.4810084000928,None,,,,,,,,,,,,,,,,,,,,,,,,,,,,,,,,,,,,,,,,,,,,,,,,,,,,,,,,,corner,191,106,sing,new,white,1209.2718231000472,None,n,1209.2718231000472,None,"['n', 'return']","[0.8838697999017313, 1.1722194999456406]",1209.2718231000472,None,,,85YA,001,2023_Aug_30_1553,ExactRep-v3-final,2021.2.3,59.94449142489195,
,,,,,,,,,,,,106,0,106,0,,,,,,,,,,,,,,,,,,,,,,,,,,,,,,,,,,,,,,,,,,,,,,,,,1214.60081730003,None,,,,,,,,,,,,,,,,,,,,,,,,,,,,,,,,,,,,,,,,,,,,,,,,,,,,,,,,,garden,101,107,aloud,old,red,1210.9903658999829,None,n,1210.9903658999829,None,"['n', 'return']","[1.5894573000259697, 3.5734331000130624]",1210.9903658999829,None,,,85YA,001,2023_Aug_30_1553,ExactRep-v3-final,2021.2.3,59.94449142489195,
,,,,,,,,,,,,107,0,107,0,,,,,,,,,,,,,,,,,,,,,,,,,,,,,,,,,,,,,,,,,,,,,,,,,1216.0361936000409,None,,,,,,,,,,,,,,,,,,,,,,,,,,,,,,,,,,,,,,,,,,,,,,,,,,,,,,,,,anger,208,108,aloud,new,red,1215.1070217000088,None,n,1215.1070217000088,None,"['n', 'return']","[0.6167253999738023, 0.8886559000238776]",1215.1070217000088,None,,,85YA,001,2023_Aug_30_1553,ExactRep-v3-final,2021.2.3,59.94449142489195,
,,,,,,,,,,,,108,0,108,0,,,,,,,,,,,,,,,,,,,,,,,,,,,,,,,,,,,,,,,,,,,,,,,,,1219.3400717000477,None,,,,,,,,,,,,,,,,,,,,,,,,,,,,,,,,,,,,,,,,,,,,,,,,,,,,,,,,,troops,107,109,aloud,old,red,1216.5372413999867,None,y,1216.5372413999867,None,"['n', 'backspace', 'y', 'return']","[0.9144113999791443, 2.202499400009401, 2.38643009995576, 2.7624844999518245]",1216.5372413999867,None,,,85YA,001,2023_Aug_30_1553,ExactRep-v3-final,2021.2.3,59.94449142489195,
,,,,,,,,,,,,109,0,109,0,,,,,,,,,,,,,,,,,,,,,,,,,,,,,,,,,,,,,,,,,,,,,,,,,1222.2767474000575,None,,,,,,,,,,,,,,,,,,,,,,,,,,,,,,,,,,,,,,,,,,,,,,,,,,,,,,,,,power,26,110,sing,old,white,1219.8656445000088,None,y,1219.8656445000088,None,"['y', 'return']","[1.954013800015673, 2.36203870002646]",1219.8656445000088,None,,,85YA,001,2023_Aug_30_1553,ExactRep-v3-final,2021.2.3,59.94449142489195,
,,,,,,,,,,,,110,0,110,0,,,,,,,,,,,,,,,,,,,,,,,,,,,,,,,,,,,,,,,,,,,,,,,,,1224.8632186000468,None,,,,,,,,,,,,,,,,,,,,,,,,,,,,,,,,,,,,,,,,,,,,,,,,,,,,,,,,,woman,233,111,sing,new,white,1222.7973058000207,None,n,1222.7973058000207,None,"['n', 'return']","[1.6542583000846207, 2.0303259000647813]",1222.7973058000207,None,,,85YA,001,2023_Aug_30_1553,ExactRep-v3-final,2021.2.3,59.94449142489195,
,,,,,,,,,,,,111,0,111,0,,,,,,,,,,,,,,,,,,,,,,,,,,,,,,,,,,,,,,,,,,,,,,,,,1227.948338599992,None,,,,,,,,,,,,,,,,,,,,,,,,,,,,,,,,,,,,,,,,,,,,,,,,,,,,,,,,,college,164,112,aloud,new,red,1225.3887337000342,None,n,1225.3887337000342,None,"['n', 'return']","[1.734929500031285, 2.518994899932295]",1225.3887337000342,None,,,85YA,001,2023_Aug_30_1553,ExactRep-v3-final,2021.2.3,59.94449142489195,
,,,,,,,,,,,,112,0,112,0,,,,,,,,,,,,,,,,,,,,,,,,,,,,,,,,,,,,,,,,,,,,,,,,,1230.1669508999912,None,,,,,,,,,,,,,,,,,,,,,,,,,,,,,,,,,,,,,,,,,,,,,,,,,,,,,,,,,moral,214,113,aloud,new,red,1228.4672080000164,None,n,1228.4672080000164,None,"['n', 'return']","[1.248585799941793, 1.656461999984458]",1228.4672080000164,None,,,85YA,001,2023_Aug_30_1553,ExactRep-v3-final,2021.2.3,59.94449142489195,
,,,,,,,,,,,,113,0,113,0,,,,,,,,,,,,,,,,,,,,,,,,,,,,,,,,,,,,,,,,,,,,,,,,,1231.8362167000305,None,,,,,,,,,,,,,,,,,,,,,,,,,,,,,,,,,,,,,,,,,,,,,,,,,,,,,,,,,wife,188,114,aloud,new,red,1230.673310299986,None,y,1230.673310299986,None,"['y', 'return']","[0.7783352000406012, 1.1144094000337645]",1230.673310299986,None,,,85YA,001,2023_Aug_30_1553,ExactRep-v3-final,2021.2.3,59.94449142489195,
,,,,,,,,,,,,114,0,114,0,,,,,,,,,,,,,,,,,,,,,,,,,,,,,,,,,,,,,,,,,,,,,,,,,1235.889379600063,None,,,,,,,,,,,,,,,,,,,,,,,,,,,,,,,,,,,,,,,,,,,,,,,,,,,,,,,,,storm,111,115,aloud,old,red,1232.3612352000782,None,n,1232.3612352000782,None,"['n', 'return']","[3.0823240999598056, 3.4903228000039235]",1232.3612352000782,None,,,85YA,001,2023_Aug_30_1553,ExactRep-v3-final,2021.2.3,59.94449142489195,
,,,,,,,,,,,,115,0,115,0,,,,,,,,,,,,,,,,,,,,,,,,,,,,,,,,,,,,,,,,,,,,,,,,,1238.9593371000374,None,,,,,,,,,,,,,,,,,,,,,,,,,,,,,,,,,,,,,,,,,,,,,,,,,,,,,,,,,fate,74,116,silent,old,blue,1236.3939237000886,None,n,1236.3939237000886,None,"['n', 'return']","[1.8177245000842959, 2.52173700009007]",1236.3939237000886,None,,,85YA,001,2023_Aug_30_1553,ExactRep-v3-final,2021.2.3,59.94449142489195,
,,,,,,,,,,,,116,0,116,0,,,,,,,,,,,,,,,,,,,,,,,,,,,,,,,,,,,,,,,,,,,,,,,,,1240.8613305999897,None,,,,,,,,,,,,,,,,,,,,,,,,,,,,,,,,,,,,,,,,,,,,,,,,,,,,,,,,,cottage,133,117,silent,new,blue,1239.4764812000794,None,n,1239.4764812000794,None,"['n', 'return']","[0.9992385000223294, 1.3511620999779552]",1239.4764812000794,None,,,85YA,001,2023_Aug_30_1553,ExactRep-v3-final,2021.2.3,59.94449142489195,
,,,,,,,,,,,,117,0,117,0,,,,,,,,,,,,,,,,,,,,,,,,,,,,,,,,,,,,,,,,,,,,,,,,,1242.4794109000359,None,,,,,,,,,,,,,,,,,,,,,,,,,,,,,,,,,,,,,,,,,,,,,,,,,,,,,,,,,rock,195,118,sing,new,white,1241.370784400031,None,n,1241.370784400031,None,"['n', 'return']","[0.6968626999296248, 1.0730921999784186]",1241.370784400031,None,,,85YA,001,2023_Aug_30_1553,ExactRep-v3-final,2021.2.3,59.94449142489195,
,,,,,,,,,,,,118,0,118,0,,,,,,,,,,,,,,,,,,,,,,,,,,,,,,,,,,,,,,,,,,,,,,,,,1244.8652837000554,None,,,,,,,,,,,,,,,,,,,,,,,,,,,,,,,,,,,,,,,,,,,,,,,,,,,,,,,,,girl,24,119,sing,old,white,1242.984871200053,None,n,1242.984871200053,None,"['n', 'return']","[1.474715100019239, 1.8431817999808118]",1242.984871200053,None,,,85YA,001,2023_Aug_30_1553,ExactRep-v3-final,2021.2.3,59.94449142489195,
,,,,,,,,,,,,119,0,119,0,,,,,,,,,,,,,,,,,,,,,,,,,,,,,,,,,,,,,,,,,,,,,,,,,1246.850433900021,None,,,,,,,,,,,,,,,,,,,,,,,,,,,,,,,,,,,,,,,,,,,,,,,,,,,,,,,,,beast,58,120,silent,old,blue,1245.382744600065,None,n,1245.382744600065,None,"['n', 'return']","[1.0209014000138268, 1.4288931000046432]",1245.382744600065,None,,,85YA,001,2023_Aug_30_1553,ExactRep-v3-final,2021.2.3,59.94449142489195,
,,,,,,,,,,,,120,0,120,0,,,,,,,,,,,,,,,,,,,,,,,,,,,,,,,,,,,,,,,,,,,,,,,,,1248.8364829000784,None,,,,,,,,,,,,,,,,,,,,,,,,,,,,,,,,,,,,,,,,,,,,,,,,,,,,,,,,,form,148,121,silent,new,blue,1247.3671661000699,None,n,1247.3671661000699,None,"['n', 'return']","[1.092562000034377, 1.420477900072001]",1247.3671661000699,None,,,85YA,001,2023_Aug_30_1553,ExactRep-v3-final,2021.2.3,59.94449142489195,
,,,,,,,,,,,,121,0,121,0,,,,,,,,,,,,,,,,,,,,,,,,,,,,,,,,,,,,,,,,,,,,,,,,,1250.5874979000073,None,,,,,,,,,,,,,,,,,,,,,,,,,,,,,,,,,,,,,,,,,,,,,,,,,,,,,,,,,breast,167,122,sing,new,white,1249.3528974000365,None,n,1249.3528974000365,None,"['n', 'return']","[0.8990449999691918, 1.1948381999973208]",1249.3528974000365,None,,,85YA,001,2023_Aug_30_1553,ExactRep-v3-final,2021.2.3,59.94449142489195,
,,,,,,,,,,,,122,0,122,0,,,,,,,,,,,,,,,,,,,,,,,,,,,,,,,,,,,,,,,,,,,,,,,,,1252.1724125000183,None,,,,,,,,,,,,,,,,,,,,,,,,,,,,,,,,,,,,,,,,,,,,,,,,,,,,,,,,,humour,119,123,aloud,old,red,1251.105723500019,None,y,1251.105723500019,None,"['y', 'return']","[0.6419082999927923, 1.0179395999293774]",1251.105723500019,None,,,85YA,001,2023_Aug_30_1553,ExactRep-v3-final,2021.2.3,59.94449142489195,
,,,,,,,,,,,,123,0,123,0,,,,,,,,,,,,,,,,,,,,,,,,,,,,,,,,,,,,,,,,,,,,,,,,,1254.0912497000536,None,,,,,,,,,,,,,,,,,,,,,,,,,,,,,,,,,,,,,,,,,,,,,,,,,,,,,,,,,sky,47,124,silent,old,blue,1252.6810837000376,None,n,1252.6810837000376,None,"['n', 'return']","[0.9785286999540403, 1.3626054999185726]",1252.6810837000376,None,,,85YA,001,2023_Aug_30_1553,ExactRep-v3-final,2021.2.3,59.94449142489195,
,,,,,,,,,,,,124,0,124,0,,,,,,,,,,,,,,,,,,,,,,,,,,,,,,,,,,,,,,,,,,,,,,,,,1255.7093707000604,None,,,,,,,,,,,,,,,,,,,,,,,,,,,,,,,,,,,,,,,,,,,,,,,,,,,,,,,,,dawn,46,125,silent,old,blue,1254.6072632999858,None,n,1254.6072632999858,None,"['n', 'return']","[0.6443743000272661, 1.0604729000478983]",1254.6072632999858,None,,,85YA,001,2023_Aug_30_1553,ExactRep-v3-final,2021.2.3,59.94449142489195,
,,,,,,,,,,,,125,0,125,0,,,,,,,,,,,,,,,,,,,,,,,,,,,,,,,,,,,,,,,,,,,,,,,,,1257.2942979000509,None,,,,,,,,,,,,,,,,,,,,,,,,,,,,,,,,,,,,,,,,,,,,,,,,,,,,,,,,,love,157,126,silent,new,blue,1256.225442700088,None,n,1256.225442700088,None,"['n', 'return']","[0.610157800023444, 1.0341928000561893]",1256.225442700088,None,,,85YA,001,2023_Aug_30_1553,ExactRep-v3-final,2021.2.3,59.94449142489195,
,,,,,,,,,,,,126,0,126,0,,,,,,,,,,,,,,,,,,,,,,,,,,,,,,,,,,,,,,,,,,,,,,,,,1258.9790504000848,None,,,,,,,,,,,,,,,,,,,,,,,,,,,,,,,,,,,,,,,,,,,,,,,,,,,,,,,,,world,168,127,aloud,new,red,1257.7958837000187,None,n,1257.7958837000187,None,"['n', 'return']","[0.8157652999507263, 1.1437542999628931]",1257.7958837000187,None,,,85YA,001,2023_Aug_30_1553,ExactRep-v3-final,2021.2.3,59.94449142489195,
,,,,,,,,,,,,127,0,127,0,,,,,,,,,,,,,,,,,,,,,,,,,,,,,,,,,,,,,,,,,,,,,,,,,1260.5811265000375,None,,,,,,,,,,,,,,,,,,,,,,,,,,,,,,,,,,,,,,,,,,,,,,,,,,,,,,,,,house,141,128,silent,new,blue,1259.4808920000214,None,n,1259.4808920000214,None,"['n', 'return']","[0.658830099971965, 1.0667242999188602]",1259.4808920000214,None,,,85YA,001,2023_Aug_30_1553,ExactRep-v3-final,2021.2.3,59.94449142489195,
,,,,,,,,,,,,128,0,128,0,,,,,,,,,,,,,,,,,,,,,,,,,,,,,,,,,,,,,,,,,,,,,,,,,1263.383520500036,None,,,,,,,,,,,,,,,,,,,,,,,,,,,,,,,,,,,,,,,,,,,,,,,,,,,,,,,,,rod,67,129,silent,old,blue,1261.0974135000724,None,y,1261.0974135000724,None,"['y', 'return']","[1.8504267000826076, 2.2503598000621423]",1261.0974135000724,None,,,85YA,001,2023_Aug_30_1553,ExactRep-v3-final,2021.2.3,59.94449142489195,
,,,,,,,,,,,,129,0,129,0,,,,,,,,,,,,,,,,,,,,,,,,,,,,,,,,,,,,,,,,,,,,,,,,,1265.5521147000836,None,,,,,,,,,,,,,,,,,,,,,,,,,,,,,,,,,,,,,,,,,,,,,,,,,,,,,,,,,arm,192,130,aloud,new,red,1263.9011223000707,None,n,1263.9011223000707,None,"['n', 'return']","[1.2624158000107855, 1.6147490000585094]",1263.9011223000707,None,,,85YA,001,2023_Aug_30_1553,ExactRep-v3-final,2021.2.3,59.94449142489195,
,,,,,,,,,,,,130,0,130,0,,,,,,,,,,,,,,,,,,,,,,,,,,,,,,,,,,,,,,,,,,,,,,,,,1267.1706900000572,None,,,,,,,,,,,,,,,,,,,,,,,,,,,,,,,,,,,,,,,,,,,,,,,,,,,,,,,,,lake,136,131,silent,new,blue,1266.071742500062,None,n,1266.071742500062,None,"['n', 'return']","[0.6997854999499395, 1.0518995999591425]",1266.071742500062,None,,,85YA,001,2023_Aug_30_1553,ExactRep-v3-final,2021.2.3,59.94449142489195,
