trials_fam.thisRepN,trials_fam.thisTrialN,trials_fam.thisN,trials_fam.thisIndex,trials_prc.thisRepN,trials_prc.thisTrialN,trials_prc.thisN,trials_prc.thisIndex,StudyLoop.thisRepN,StudyLoop.thisTrialN,StudyLoop.thisN,StudyLoop.thisIndex,TestLoop.thisRepN,TestLoop.thisTrialN,TestLoop.thisN,TestLoop.thisIndex,text_colortest.started,text_colortest.stopped,key_colortest.keys,key_colortest.rt,key_colortest.started,key_colortest.stopped,textCondition.started,textCondition.stopped,keyCondition.keys,keyCondition.rt,keyCondition.started,keyCondition.stopped,Condition_between,Condition_counterbal,keyWelcome.keys,keyWelcome.rt,keyWelcome.started,keyWelcome.stopped,welcome_a.started,welcome_a.stopped,welcome_b.started,welcome_b.stopped,welcome_c.started,welcome_c.stopped,welcome_d.started,welcome_d.stopped,welcome_e.started,welcome_e.stopped,welcome_f.started,welcome_f.stopped,key_resp_fam_inst.keys,key_resp_fam_inst.rt,key_resp_fam_inst.started,key_resp_fam_inst.stopped,fam_a.started,fam_a.stopped,fam_b.started,fam_b.stopped,fam_c.started,fam_c.stopped,fam_d.started,fam_d.stopped,fam_e.started,fam_e.stopped,fam_f.started,fam_f.stopped,text_famil.started,text_famil.stopped,textBlank500.started,textBlank500.stopped,key_resp_prc_inst.keys,key_resp_prc_inst.rt,key_resp_prc_inst.started,key_resp_prc_inst.stopped,prac_a.started,prac_a.stopped,prac_b.started,prac_b.stopped,prac_c.started,prac_c.stopped,prac_d.started,prac_d.stopped,prac_e.started,prac_e.stopped,prac_f.started,prac_f.stopped,text_prc_trial.started,text_prc_trial.stopped,key_resp_study_inst.keys,key_resp_study_inst.rt,key_resp_study_inst.started,key_resp_study_inst.stopped,crit_a.started,crit_a.stopped,crit_b.started,crit_b.stopped,crit_c.started,crit_c.stopped,crit_d.started,crit_d.stopped,crit_e.started,crit_e.stopped,crit_f.started,crit_f.stopped,study_word,study_num,study_order,study_type,word_color,textStudy.started,textStudy.stopped,keyStudy.keys,keyStudy.started,keyStudy.stopped,post_study.started,post_study.stopped,key_resp_post_study.keys,key_resp_post_study.rt,key_resp_post_study.started,key_resp_post_study.stopped,test_inst.started,test_inst.stopped,key_resp_test_inst.keys,key_resp_test_inst.rt,key_resp_test_inst.started,key_resp_test_inst.stopped,test_word,test_num,test_order,test_condition,old_new_test,word_color_test,textConf.started,textConf.stopped,Participant Response,textInput.started,textInput.stopped,keyResp.keys,keyResp.rt,keyResp.started,keyResp.stopped,textEnd.started,textEnd.stopped,participant,session,date,expName,psychopyVersion,frameRate,
,,,,,,,,,,,,,,,,83.26793380000163,None,y,2.550453999894671,83.26793380000163,None,,,,,,,,,,,,,,,,,,,,,,,,,,,,,,,,,,,,,,,,,,,,,,,,,,,,,,,,,,,,,,,,,,,,,,,,,,,,,,,,,,,,,,,,,,,,,,,,,,,,,,,,,,,,,,,,,,,,,,86YB,001,2023_Aug_30_1620,ExactRep-v3-final,2021.2.3,59.68356964503551,
,,,,,,,,,,,,,,,,,,,,,,85.84163549996447,None,b,0.7125011999160051,85.84163549996447,None,,,,,,,,,,,,,,,,,,,,,,,,,,,,,,,,,,,,,,,,,,,,,,,,,,,,,,,,,,,,,,,,,,,,,,,,,,,,,,,,,,,,,,,,,,,,,,,,,,,,,,,,,,,,,,,,86YB,001,2023_Aug_30_1620,ExactRep-v3-final,2021.2.3,59.68356964503551,
,,,,,,,,,,,,,,,,,,,,,,,,,,,,colorfoils,b,space,686.110576099949,96.70744069991633,None,,,,,,,,,,,,,,,,,,,,,,,,,,,,,,,,,,,,,,,,,,,,,,,,,,,,,,,,,,,,,,,,,,,,,,,,,,,,,,,,,,,,,,,,,,,,,,,,,,,,,,,,,,86YB,001,2023_Aug_30_1620,ExactRep-v3-final,2021.2.3,59.68356964503551,
,,,,,,,,,,,,,,,,,,,,,,,,,,,,,,,,,,86.73627310001757,None,86.73627310001757,None,86.73627310001757,None,86.73627310001757,None,86.73627310001757,None,86.73627310001757,None,space,27.286676799994893,792.9637963999994,None,,,,,,,,,,,,,,,,,,,,,,,,,,,,,,,,,,,,,,,,,,,,,,,,,,,,,,,,,,,,,,,,,,,,,,,,,,,,,,,,,,,,,,,,,,86YB,001,2023_Aug_30_1620,ExactRep-v3-final,2021.2.3,59.68356964503551,
0,0,0,0,,,,,,,,,,,,,,,,,,,,,,,,,,,,,,,,,,,,,,,,,,,,,,,782.9845276999986,None,782.9845276999986,None,782.9845276999986,None,782.9845276999986,None,782.9845276999986,None,782.9845276999986,None,820.341233999934,None,822.3279319999274,None,,,,,,,,,,,,,,,,,,,,,,,,,,,,,,,,,,,,,,,,,,,,,,,,,,,,,,,,,,,,,,,,,,,,,,,,,,86YB,001,2023_Aug_30_1620,ExactRep-v3-final,2021.2.3,59.68356964503551,
1,0,1,0,,,,,,,,,,,,,,,,,,,,,,,,,,,,,,,,,,,,,,,,,,,,,,,,,,,,,,,,,,,822.8353923999239,None,824.8464063999709,None,,,,,,,,,,,,,,,,,,,,,,,,,,,,,,,,,,,,,,,,,,,,,,,,,,,,,,,,,,,,,,,,,,,,,,,,,,86YB,001,2023_Aug_30_1620,ExactRep-v3-final,2021.2.3,59.68356964503551,
2,0,2,0,,,,,,,,,,,,,,,,,,,,,,,,,,,,,,,,,,,,,,,,,,,,,,,,,,,,,,,,,,,825.3522901999531,None,827.3657103999285,None,,,,,,,,,,,,,,,,,,,,,,,,,,,,,,,,,,,,,,,,,,,,,,,,,,,,,,,,,,,,,,,,,,,,,,,,,,86YB,001,2023_Aug_30_1620,ExactRep-v3-final,2021.2.3,59.68356964503551,
3,0,3,0,,,,,,,,,,,,,,,,,,,,,,,,,,,,,,,,,,,,,,,,,,,,,,,,,,,,,,,,,,,827.8658426000038,None,829.8678568999749,None,,,,,,,,,,,,,,,,,,,,,,,,,,,,,,,,,,,,,,,,,,,,,,,,,,,,,,,,,,,,,,,,,,,,,,,,,,86YB,001,2023_Aug_30_1620,ExactRep-v3-final,2021.2.3,59.68356964503551,
4,0,4,0,,,,,,,,,,,,,,,,,,,,,,,,,,,,,,,,,,,,,,,,,,,,,,,,,,,,,,,,,,,830.3703425999265,None,832.370492399903,None,,,,,,,,,,,,,,,,,,,,,,,,,,,,,,,,,,,,,,,,,,,,,,,,,,,,,,,,,,,,,,,,,,,,,,,,,,86YB,001,2023_Aug_30_1620,ExactRep-v3-final,2021.2.3,59.68356964503551,
5,0,5,0,,,,,,,,,,,,,,,,,,,,,,,,,,,,,,,,,,,,,,,,,,,,,,,,,,,,,,,,,,,832.8710559000028,None,834.8729937999742,None,,,,,,,,,,,,,,,,,,,,,,,,,,,,,,,,,,,,,,,,,,,,,,,,,,,,,,,,,,,,,,,,,,,,,,,,,,86YB,001,2023_Aug_30_1620,ExactRep-v3-final,2021.2.3,59.68356964503551,
6,0,6,0,,,,,,,,,,,,,,,,,,,,,,,,,,,,,,,,,,,,,,,,,,,,,,,,,,,,,,,,,,,835.3761036999058,None,837.3751800999744,None,,,,,,,,,,,,,,,,,,,,,,,,,,,,,,,,,,,,,,,,,,,,,,,,,,,,,,,,,,,,,,,,,,,,,,,,,,86YB,001,2023_Aug_30_1620,ExactRep-v3-final,2021.2.3,59.68356964503551,
7,0,7,0,,,,,,,,,,,,,,,,,,,,,,,,,,,,,,,,,,,,,,,,,,,,,,,,,,,,,,,,,,,837.8760221999837,None,839.8781381999142,None,,,,,,,,,,,,,,,,,,,,,,,,,,,,,,,,,,,,,,,,,,,,,,,,,,,,,,,,,,,,,,,,,,,,,,,,,,86YB,001,2023_Aug_30_1620,ExactRep-v3-final,2021.2.3,59.68356964503551,
8,0,8,0,,,,,,,,,,,,,,,,,,,,,,,,,,,,,,,,,,,,,,,,,,,,,,,,,,,,,,,,,,,840.3785356999142,None,842.3803556999192,None,,,,,,,,,,,,,,,,,,,,,,,,,,,,,,,,,,,,,,,,,,,,,,,,,,,,,,,,,,,,,,,,,,,,,,,,,,86YB,001,2023_Aug_30_1620,ExactRep-v3-final,2021.2.3,59.68356964503551,
9,0,9,0,,,,,,,,,,,,,,,,,,,,,,,,,,,,,,,,,,,,,,,,,,,,,,,,,,,,,,,,,,,842.8829393999185,None,844.8830383999739,None,,,,,,,,,,,,,,,,,,,,,,,,,,,,,,,,,,,,,,,,,,,,,,,,,,,,,,,,,,,,,,,,,,,,,,,,,,86YB,001,2023_Aug_30_1620,ExactRep-v3-final,2021.2.3,59.68356964503551,
10,0,10,0,,,,,,,,,,,,,,,,,,,,,,,,,,,,,,,,,,,,,,,,,,,,,,,,,,,,,,,,,,,845.3859519999241,None,847.3851577999303,None,,,,,,,,,,,,,,,,,,,,,,,,,,,,,,,,,,,,,,,,,,,,,,,,,,,,,,,,,,,,,,,,,,,,,,,,,,86YB,001,2023_Aug_30_1620,ExactRep-v3-final,2021.2.3,59.68356964503551,
11,0,11,0,,,,,,,,,,,,,,,,,,,,,,,,,,,,,,,,,,,,,,,,,,,,,,,,,,,,,,,,,,,847.8873773999512,None,849.8880937999347,None,,,,,,,,,,,,,,,,,,,,,,,,,,,,,,,,,,,,,,,,,,,,,,,,,,,,,,,,,,,,,,,,,,,,,,,,,,86YB,001,2023_Aug_30_1620,ExactRep-v3-final,2021.2.3,59.68356964503551,
12,0,12,0,,,,,,,,,,,,,,,,,,,,,,,,,,,,,,,,,,,,,,,,,,,,,,,,,,,,,,,,,,,850.3885776000097,None,852.3901775999693,None,,,,,,,,,,,,,,,,,,,,,,,,,,,,,,,,,,,,,,,,,,,,,,,,,,,,,,,,,,,,,,,,,,,,,,,,,,86YB,001,2023_Aug_30_1620,ExactRep-v3-final,2021.2.3,59.68356964503551,
13,0,13,0,,,,,,,,,,,,,,,,,,,,,,,,,,,,,,,,,,,,,,,,,,,,,,,,,,,,,,,,,,,852.8910970999859,None,854.8930934999371,None,,,,,,,,,,,,,,,,,,,,,,,,,,,,,,,,,,,,,,,,,,,,,,,,,,,,,,,,,,,,,,,,,,,,,,,,,,86YB,001,2023_Aug_30_1620,ExactRep-v3-final,2021.2.3,59.68356964503551,
14,0,14,0,,,,,,,,,,,,,,,,,,,,,,,,,,,,,,,,,,,,,,,,,,,,,,,,,,,,,,,,,,,855.3972330999095,None,857.4119917999487,None,,,,,,,,,,,,,,,,,,,,,,,,,,,,,,,,,,,,,,,,,,,,,,,,,,,,,,,,,,,,,,,,,,,,,,,,,,86YB,001,2023_Aug_30_1620,ExactRep-v3-final,2021.2.3,59.68356964503551,
,,,,,,,,,,,,,,,,,,,,,,,,,,,,,,,,,,,,,,,,,,,,,,,,,,,,,,,,,,,,,,,,,,space,16.595525899901986,868.0308996000094,None,,,,,,,,,,,,,,,,,,,,,,,,,,,,,,,,,,,,,,,,,,,,,,,,,,,,,,,,,,,,,,,,,,,,,,86YB,001,2023_Aug_30_1620,ExactRep-v3-final,2021.2.3,59.68356964503551,
,,,,0,0,0,0,,,,,,,,,,,,,,,,,,,,,,,,,,,,,,,,,,,,,,,,,,,,,,,,,,,,,,,,,886.7081827999791,None,,,,,858.0344367999351,None,858.0344367999351,None,858.0344367999351,None,858.0344367999351,None,858.0344367999351,None,858.0344367999351,None,884.6932331999997,None,,,,,,,,,,,,,,,,,,,,,,,,,,,,,,,,,,,,,,,,,,,,,,,,,,,,,,,,86YB,001,2023_Aug_30_1620,ExactRep-v3-final,2021.2.3,59.68356964503551,
,,,,1,0,1,0,,,,,,,,,,,,,,,,,,,,,,,,,,,,,,,,,,,,,,,,,,,,,,,,,,,,,,,,,889.2101600000169,None,,,,,,,,,,,,,,,,,887.2086889999919,None,,,,,,,,,,,,,,,,,,,,,,,,,,,,,,,,,,,,,,,,,,,,,,,,,,,,,,,,86YB,001,2023_Aug_30_1620,ExactRep-v3-final,2021.2.3,59.68356964503551,
,,,,2,0,2,0,,,,,,,,,,,,,,,,,,,,,,,,,,,,,,,,,,,,,,,,,,,,,,,,,,,,,,,,,891.7129175999435,None,,,,,,,,,,,,,,,,,889.7113678000169,None,,,,,,,,,,,,,,,,,,,,,,,,,,,,,,,,,,,,,,,,,,,,,,,,,,,,,,,,86YB,001,2023_Aug_30_1620,ExactRep-v3-final,2021.2.3,59.68356964503551,
,,,,3,0,3,0,,,,,,,,,,,,,,,,,,,,,,,,,,,,,,,,,,,,,,,,,,,,,,,,,,,,,,,,,894.215478099999,None,,,,,,,,,,,,,,,,,892.2134060999379,None,,,,,,,,,,,,,,,,,,,,,,,,,,,,,,,,,,,,,,,,,,,,,,,,,,,,,,,,86YB,001,2023_Aug_30_1620,ExactRep-v3-final,2021.2.3,59.68356964503551,
,,,,4,0,4,0,,,,,,,,,,,,,,,,,,,,,,,,,,,,,,,,,,,,,,,,,,,,,,,,,,,,,,,,,896.7179261000128,None,,,,,,,,,,,,,,,,,894.7157790999627,None,,,,,,,,,,,,,,,,,,,,,,,,,,,,,,,,,,,,,,,,,,,,,,,,,,,,,,,,86YB,001,2023_Aug_30_1620,ExactRep-v3-final,2021.2.3,59.68356964503551,
,,,,5,0,5,0,,,,,,,,,,,,,,,,,,,,,,,,,,,,,,,,,,,,,,,,,,,,,,,,,,,,,,,,,899.2206597999902,None,,,,,,,,,,,,,,,,,897.218935700017,None,,,,,,,,,,,,,,,,,,,,,,,,,,,,,,,,,,,,,,,,,,,,,,,,,,,,,,,,86YB,001,2023_Aug_30_1620,ExactRep-v3-final,2021.2.3,59.68356964503551,
,,,,6,0,6,0,,,,,,,,,,,,,,,,,,,,,,,,,,,,,,,,,,,,,,,,,,,,,,,,,,,,,,,,,901.7230831999332,None,,,,,,,,,,,,,,,,,899.7211528999032,None,,,,,,,,,,,,,,,,,,,,,,,,,,,,,,,,,,,,,,,,,,,,,,,,,,,,,,,,86YB,001,2023_Aug_30_1620,ExactRep-v3-final,2021.2.3,59.68356964503551,
,,,,7,0,7,0,,,,,,,,,,,,,,,,,,,,,,,,,,,,,,,,,,,,,,,,,,,,,,,,,,,,,,,,,904.2256922000088,None,,,,,,,,,,,,,,,,,902.2236006999156,None,,,,,,,,,,,,,,,,,,,,,,,,,,,,,,,,,,,,,,,,,,,,,,,,,,,,,,,,86YB,001,2023_Aug_30_1620,ExactRep-v3-final,2021.2.3,59.68356964503551,
,,,,8,0,8,0,,,,,,,,,,,,,,,,,,,,,,,,,,,,,,,,,,,,,,,,,,,,,,,,,,,,,,,,,906.7288657999597,None,,,,,,,,,,,,,,,,,904.726396999904,None,,,,,,,,,,,,,,,,,,,,,,,,,,,,,,,,,,,,,,,,,,,,,,,,,,,,,,,,86YB,001,2023_Aug_30_1620,ExactRep-v3-final,2021.2.3,59.68356964503551,
,,,,9,0,9,0,,,,,,,,,,,,,,,,,,,,,,,,,,,,,,,,,,,,,,,,,,,,,,,,,,,,,,,,,909.2307013999671,None,,,,,,,,,,,,,,,,,907.2286971999565,None,,,,,,,,,,,,,,,,,,,,,,,,,,,,,,,,,,,,,,,,,,,,,,,,,,,,,,,,86YB,001,2023_Aug_30_1620,ExactRep-v3-final,2021.2.3,59.68356964503551,
,,,,10,0,10,0,,,,,,,,,,,,,,,,,,,,,,,,,,,,,,,,,,,,,,,,,,,,,,,,,,,,,,,,,911.7497080999892,None,,,,,,,,,,,,,,,,,909.7340511999791,None,,,,,,,,,,,,,,,,,,,,,,,,,,,,,,,,,,,,,,,,,,,,,,,,,,,,,,,,86YB,001,2023_Aug_30_1620,ExactRep-v3-final,2021.2.3,59.68356964503551,
,,,,11,0,11,0,,,,,,,,,,,,,,,,,,,,,,,,,,,,,,,,,,,,,,,,,,,,,,,,,,,,,,,,,914.2522537999321,None,,,,,,,,,,,,,,,,,912.2502922000131,None,,,,,,,,,,,,,,,,,,,,,,,,,,,,,,,,,,,,,,,,,,,,,,,,,,,,,,,,86YB,001,2023_Aug_30_1620,ExactRep-v3-final,2021.2.3,59.68356964503551,
,,,,12,0,12,0,,,,,,,,,,,,,,,,,,,,,,,,,,,,,,,,,,,,,,,,,,,,,,,,,,,,,,,,,916.7547766999342,None,,,,,,,,,,,,,,,,,914.7527291999431,None,,,,,,,,,,,,,,,,,,,,,,,,,,,,,,,,,,,,,,,,,,,,,,,,,,,,,,,,86YB,001,2023_Aug_30_1620,ExactRep-v3-final,2021.2.3,59.68356964503551,
,,,,13,0,13,0,,,,,,,,,,,,,,,,,,,,,,,,,,,,,,,,,,,,,,,,,,,,,,,,,,,,,,,,,919.2573070999933,None,,,,,,,,,,,,,,,,,917.255279499921,None,,,,,,,,,,,,,,,,,,,,,,,,,,,,,,,,,,,,,,,,,,,,,,,,,,,,,,,,86YB,001,2023_Aug_30_1620,ExactRep-v3-final,2021.2.3,59.68356964503551,
,,,,14,0,14,0,,,,,,,,,,,,,,,,,,,,,,,,,,,,,,,,,,,,,,,,,,,,,,,,,,,,,,,,,921.7597773999441,None,,,,,,,,,,,,,,,,,919.7576750000007,None,,,,,,,,,,,,,,,,,,,,,,,,,,,,,,,,,,,,,,,,,,,,,,,,,,,,,,,,86YB,001,2023_Aug_30_1620,ExactRep-v3-final,2021.2.3,59.68356964503551,
,,,,,,,,,,,,,,,,,,,,,,,,,,,,,,,,,,,,,,,,,,,,,,,,,,,,,,,,,,,,,,,,,,,,,,,,,,,,,,,,,,,,space,17.26103040005546,932.4053580999607,None,,,,,,,,,,,,,,,,,,,,,,,,,,,,,,,,,,,,,,,,,,,,,,,,,,,,86YB,001,2023_Aug_30_1620,ExactRep-v3-final,2021.2.3,59.68356964503551,
,,,,,,,,0,0,0,0,,,,,,,,,,,,,,,,,,,,,,,,,,,,,,,,,,,,,,,,,,,,,,,,,,,,,951.7397394999862,None,,,,,,,,,,,,,,,,,,,,,,,922.4367628999753,None,922.4367628999753,None,922.4367628999753,None,922.4367628999753,None,922.4367628999753,None,922.4367628999753,None,charm,21,1,sing,blue,949.731696599978,None,None,949.731696599978,None,,,,,,,,,,,,,,,,,,,,,,,,,,,,,,86YB,001,2023_Aug_30_1620,ExactRep-v3-final,2021.2.3,59.68356964503551,
,,,,,,,,1,0,1,0,,,,,,,,,,,,,,,,,,,,,,,,,,,,,,,,,,,,,,,,,,,,,,,,,,,,,954.2425348999677,None,,,,,,,,,,,,,,,,,,,,,,,,,,,,,,,,,,,rod,45,2,silent,white,952.2428520999383,None,None,952.2428520999383,None,,,,,,,,,,,,,,,,,,,,,,,,,,,,,,86YB,001,2023_Aug_30_1620,ExactRep-v3-final,2021.2.3,59.68356964503551,
,,,,,,,,2,0,2,0,,,,,,,,,,,,,,,,,,,,,,,,,,,,,,,,,,,,,,,,,,,,,,,,,,,,,956.7615016999189,None,,,,,,,,,,,,,,,,,,,,,,,,,,,,,,,,,,,village,62,3,silent,white,954.7511610999936,None,None,954.7511610999936,None,,,,,,,,,,,,,,,,,,,,,,,,,,,,,,86YB,001,2023_Aug_30_1620,ExactRep-v3-final,2021.2.3,59.68356964503551,
,,,,,,,,3,0,3,0,,,,,,,,,,,,,,,,,,,,,,,,,,,,,,,,,,,,,,,,,,,,,,,,,,,,,959.2637428999878,None,,,,,,,,,,,,,,,,,,,,,,,,,,,,,,,,,,,vessel,18,4,sing,blue,957.2643121000146,None,None,957.2643121000146,None,,,,,,,,,,,,,,,,,,,,,,,,,,,,,,86YB,001,2023_Aug_30_1620,ExactRep-v3-final,2021.2.3,59.68356964503551,
,,,,,,,,4,0,4,0,,,,,,,,,,,,,,,,,,,,,,,,,,,,,,,,,,,,,,,,,,,,,,,,,,,,,961.7830733999144,None,,,,,,,,,,,,,,,,,,,,,,,,,,,,,,,,,,,salary,32,5,sing,blue,959.7679680999136,None,None,959.7679680999136,None,,,,,,,,,,,,,,,,,,,,,,,,,,,,,,86YB,001,2023_Aug_30_1620,ExactRep-v3-final,2021.2.3,59.68356964503551,
,,,,,,,,5,0,5,0,,,,,,,,,,,,,,,,,,,,,,,,,,,,,,,,,,,,,,,,,,,,,,,,,,,,,964.2875974999042,None,,,,,,,,,,,,,,,,,,,,,,,,,,,,,,,,,,,green,72,6,silent,white,962.2864767999854,None,None,962.2864767999854,None,,,,,,,,,,,,,,,,,,,,,,,,,,,,,,86YB,001,2023_Aug_30_1620,ExactRep-v3-final,2021.2.3,59.68356964503551,
,,,,,,,,6,0,6,0,,,,,,,,,,,,,,,,,,,,,,,,,,,,,,,,,,,,,,,,,,,,,,,,,,,,,966.8214187999256,None,,,,,,,,,,,,,,,,,,,,,,,,,,,,,,,,,,,breast,79,7,sing,blue,964.8074144999264,None,None,964.8074144999264,None,,,,,,,,,,,,,,,,,,,,,,,,,,,,,,86YB,001,2023_Aug_30_1620,ExactRep-v3-final,2021.2.3,59.68356964503551,
,,,,,,,,7,0,7,0,,,,,,,,,,,,,,,,,,,,,,,,,,,,,,,,,,,,,,,,,,,,,,,,,,,,,969.3240118999965,None,,,,,,,,,,,,,,,,,,,,,,,,,,,,,,,,,,,earth,3,8,sing,blue,967.3239863999188,None,None,967.3239863999188,None,,,,,,,,,,,,,,,,,,,,,,,,,,,,,,86YB,001,2023_Aug_30_1620,ExactRep-v3-final,2021.2.3,59.68356964503551,
,,,,,,,,8,0,8,0,,,,,,,,,,,,,,,,,,,,,,,,,,,,,,,,,,,,,,,,,,,,,,,,,,,,,971.8430085999426,None,,,,,,,,,,,,,,,,,,,,,,,,,,,,,,,,,,,dawn,68,9,silent,white,969.8312946999213,None,None,969.8312946999213,None,,,,,,,,,,,,,,,,,,,,,,,,,,,,,,86YB,001,2023_Aug_30_1620,ExactRep-v3-final,2021.2.3,59.68356964503551,
,,,,,,,,9,0,9,0,,,,,,,,,,,,,,,,,,,,,,,,,,,,,,,,,,,,,,,,,,,,,,,,,,,,,974.362197099952,None,,,,,,,,,,,,,,,,,,,,,,,,,,,,,,,,,,,palace,99,10,aloud,red,972.3471731999889,None,None,972.3471731999889,None,,,,,,,,,,,,,,,,,,,,,,,,,,,,,,86YB,001,2023_Aug_30_1620,ExactRep-v3-final,2021.2.3,59.68356964503551,
,,,,,,,,10,0,10,0,,,,,,,,,,,,,,,,,,,,,,,,,,,,,,,,,,,,,,,,,,,,,,,,,,,,,976.864902799949,None,,,,,,,,,,,,,,,,,,,,,,,,,,,,,,,,,,,duty,74,11,silent,white,974.8654856999638,None,None,974.8654856999638,None,,,,,,,,,,,,,,,,,,,,,,,,,,,,,,86YB,001,2023_Aug_30_1620,ExactRep-v3-final,2021.2.3,59.68356964503551,
,,,,,,,,11,0,11,0,,,,,,,,,,,,,,,,,,,,,,,,,,,,,,,,,,,,,,,,,,,,,,,,,,,,,979.3838327999692,None,,,,,,,,,,,,,,,,,,,,,,,,,,,,,,,,,,,science,88,12,aloud,red,977.3691671999404,None,None,977.3691671999404,None,,,,,,,,,,,,,,,,,,,,,,,,,,,,,,86YB,001,2023_Aug_30_1620,ExactRep-v3-final,2021.2.3,59.68356964503551,
,,,,,,,,12,0,12,0,,,,,,,,,,,,,,,,,,,,,,,,,,,,,,,,,,,,,,,,,,,,,,,,,,,,,981.8864880999317,None,,,,,,,,,,,,,,,,,,,,,,,,,,,,,,,,,,,college,4,13,sing,blue,979.8849233000074,None,None,979.8849233000074,None,,,,,,,,,,,,,,,,,,,,,,,,,,,,,,86YB,001,2023_Aug_30_1620,ExactRep-v3-final,2021.2.3,59.68356964503551,
,,,,,,,,13,0,13,0,,,,,,,,,,,,,,,,,,,,,,,,,,,,,,,,,,,,,,,,,,,,,,,,,,,,,984.3889410999836,None,,,,,,,,,,,,,,,,,,,,,,,,,,,,,,,,,,,hotel,11,14,sing,blue,982.3869386999868,None,None,982.3869386999868,None,,,,,,,,,,,,,,,,,,,,,,,,,,,,,,86YB,001,2023_Aug_30_1620,ExactRep-v3-final,2021.2.3,59.68356964503551,
,,,,,,,,14,0,14,0,,,,,,,,,,,,,,,,,,,,,,,,,,,,,,,,,,,,,,,,,,,,,,,,,,,,,986.8914443999529,None,,,,,,,,,,,,,,,,,,,,,,,,,,,,,,,,,,,valley,49,15,silent,white,984.8924559999723,None,None,984.8924559999723,None,,,,,,,,,,,,,,,,,,,,,,,,,,,,,,86YB,001,2023_Aug_30_1620,ExactRep-v3-final,2021.2.3,59.68356964503551,
,,,,,,,,15,0,15,0,,,,,,,,,,,,,,,,,,,,,,,,,,,,,,,,,,,,,,,,,,,,,,,,,,,,,989.3939466999145,None,,,,,,,,,,,,,,,,,,,,,,,,,,,,,,,,,,,owner,0,16,sing,blue,987.394396699965,None,None,987.394396699965,None,,,,,,,,,,,,,,,,,,,,,,,,,,,,,,86YB,001,2023_Aug_30_1620,ExactRep-v3-final,2021.2.3,59.68356964503551,
,,,,,,,,16,0,16,0,,,,,,,,,,,,,,,,,,,,,,,,,,,,,,,,,,,,,,,,,,,,,,,,,,,,,991.9128451999277,None,,,,,,,,,,,,,,,,,,,,,,,,,,,,,,,,,,,letter,91,17,aloud,red,989.897416499909,None,None,989.897416499909,None,,,,,,,,,,,,,,,,,,,,,,,,,,,,,,86YB,001,2023_Aug_30_1620,ExactRep-v3-final,2021.2.3,59.68356964503551,
,,,,,,,,17,0,17,0,,,,,,,,,,,,,,,,,,,,,,,,,,,,,,,,,,,,,,,,,,,,,,,,,,,,,994.4153375999304,None,,,,,,,,,,,,,,,,,,,,,,,,,,,,,,,,,,,heaven,98,18,aloud,red,992.4136690999148,None,None,992.4136690999148,None,,,,,,,,,,,,,,,,,,,,,,,,,,,,,,86YB,001,2023_Aug_30_1620,ExactRep-v3-final,2021.2.3,59.68356964503551,
,,,,,,,,18,0,18,0,,,,,,,,,,,,,,,,,,,,,,,,,,,,,,,,,,,,,,,,,,,,,,,,,,,,,996.9349298999878,None,,,,,,,,,,,,,,,,,,,,,,,,,,,,,,,,,,,paper,47,19,silent,white,994.9287922999356,None,None,994.9287922999356,None,,,,,,,,,,,,,,,,,,,,,,,,,,,,,,86YB,001,2023_Aug_30_1620,ExactRep-v3-final,2021.2.3,59.68356964503551,
,,,,,,,,19,0,19,0,,,,,,,,,,,,,,,,,,,,,,,,,,,,,,,,,,,,,,,,,,,,,,,,,,,,,999.454046699917,None,,,,,,,,,,,,,,,,,,,,,,,,,,,,,,,,,,,mother,15,20,sing,blue,997.4390940999147,None,None,997.4390940999147,None,,,,,,,,,,,,,,,,,,,,,,,,,,,,,,86YB,001,2023_Aug_30_1620,ExactRep-v3-final,2021.2.3,59.68356964503551,
,,,,,,,,20,0,20,0,,,,,,,,,,,,,,,,,,,,,,,,,,,,,,,,,,,,,,,,,,,,,,,,,,,,,1001.9562173999147,None,,,,,,,,,,,,,,,,,,,,,,,,,,,,,,,,,,,king,6,21,sing,blue,999.9560892999871,None,None,999.9560892999871,None,,,,,,,,,,,,,,,,,,,,,,,,,,,,,,86YB,001,2023_Aug_30_1620,ExactRep-v3-final,2021.2.3,59.68356964503551,
,,,,,,,,21,0,21,0,,,,,,,,,,,,,,,,,,,,,,,,,,,,,,,,,,,,,,,,,,,,,,,,,,,,,1004.4593646000139,None,,,,,,,,,,,,,,,,,,,,,,,,,,,,,,,,,,,virtue,13,22,sing,blue,1002.4578326999908,None,None,1002.4578326999908,None,,,,,,,,,,,,,,,,,,,,,,,,,,,,,,86YB,001,2023_Aug_30_1620,ExactRep-v3-final,2021.2.3,59.68356964503551,
,,,,,,,,22,0,22,0,,,,,,,,,,,,,,,,,,,,,,,,,,,,,,,,,,,,,,,,,,,,,,,,,,,,,1006.9616096999962,None,,,,,,,,,,,,,,,,,,,,,,,,,,,,,,,,,,,opinion,71,23,silent,white,1004.9623301000101,None,None,1004.9623301000101,None,,,,,,,,,,,,,,,,,,,,,,,,,,,,,,86YB,001,2023_Aug_30_1620,ExactRep-v3-final,2021.2.3,59.68356964503551,
,,,,,,,,23,0,23,0,,,,,,,,,,,,,,,,,,,,,,,,,,,,,,,,,,,,,,,,,,,,,,,,,,,,,1009.480373899918,None,,,,,,,,,,,,,,,,,,,,,,,,,,,,,,,,,,,coffee,60,24,silent,white,1007.4701343999477,None,None,1007.4701343999477,None,,,,,,,,,,,,,,,,,,,,,,,,,,,,,,86YB,001,2023_Aug_30_1620,ExactRep-v3-final,2021.2.3,59.68356964503551,
,,,,,,,,24,0,24,0,,,,,,,,,,,,,,,,,,,,,,,,,,,,,,,,,,,,,,,,,,,,,,,,,,,,,1011.9999096000101,None,,,,,,,,,,,,,,,,,,,,,,,,,,,,,,,,,,,fun,57,25,silent,white,1009.9858330999268,None,None,1009.9858330999268,None,,,,,,,,,,,,,,,,,,,,,,,,,,,,,,86YB,001,2023_Aug_30_1620,ExactRep-v3-final,2021.2.3,59.68356964503551,
,,,,,,,,25,0,25,0,,,,,,,,,,,,,,,,,,,,,,,,,,,,,,,,,,,,,,,,,,,,,,,,,,,,,1014.5022894999711,None,,,,,,,,,,,,,,,,,,,,,,,,,,,,,,,,,,,lord,23,26,sing,blue,1012.5001966999844,None,None,1012.5001966999844,None,,,,,,,,,,,,,,,,,,,,,,,,,,,,,,86YB,001,2023_Aug_30_1620,ExactRep-v3-final,2021.2.3,59.68356964503551,
,,,,,,,,26,0,26,0,,,,,,,,,,,,,,,,,,,,,,,,,,,,,,,,,,,,,,,,,,,,,,,,,,,,,1017.0048996999394,None,,,,,,,,,,,,,,,,,,,,,,,,,,,,,,,,,,,advice,44,27,silent,white,1015.0040769999614,None,None,1015.0040769999614,None,,,,,,,,,,,,,,,,,,,,,,,,,,,,,,86YB,001,2023_Aug_30_1620,ExactRep-v3-final,2021.2.3,59.68356964503551,
,,,,,,,,27,0,27,0,,,,,,,,,,,,,,,,,,,,,,,,,,,,,,,,,,,,,,,,,,,,,,,,,,,,,1019.5240344000049,None,,,,,,,,,,,,,,,,,,,,,,,,,,,,,,,,,,,sea,40,28,silent,white,1017.5091873999918,None,None,1017.5091873999918,None,,,,,,,,,,,,,,,,,,,,,,,,,,,,,,86YB,001,2023_Aug_30_1620,ExactRep-v3-final,2021.2.3,59.68356964503551,
,,,,,,,,28,0,28,0,,,,,,,,,,,,,,,,,,,,,,,,,,,,,,,,,,,,,,,,,,,,,,,,,,,,,1022.0432415999239,None,,,,,,,,,,,,,,,,,,,,,,,,,,,,,,,,,,,gift,66,29,silent,white,1020.0290611999808,None,None,1020.0290611999808,None,,,,,,,,,,,,,,,,,,,,,,,,,,,,,,86YB,001,2023_Aug_30_1620,ExactRep-v3-final,2021.2.3,59.68356964503551,
,,,,,,,,29,0,29,0,,,,,,,,,,,,,,,,,,,,,,,,,,,,,,,,,,,,,,,,,,,,,,,,,,,,,1024.5620757999131,None,,,,,,,,,,,,,,,,,,,,,,,,,,,,,,,,,,,fire,34,30,sing,blue,1022.5496291000163,None,None,1022.5496291000163,None,,,,,,,,,,,,,,,,,,,,,,,,,,,,,,86YB,001,2023_Aug_30_1620,ExactRep-v3-final,2021.2.3,59.68356964503551,
,,,,,,,,30,0,30,0,,,,,,,,,,,,,,,,,,,,,,,,,,,,,,,,,,,,,,,,,,,,,,,,,,,,,1027.0649954999099,None,,,,,,,,,,,,,,,,,,,,,,,,,,,,,,,,,,,bowl,41,31,silent,white,1025.0655394999776,None,None,1025.0655394999776,None,,,,,,,,,,,,,,,,,,,,,,,,,,,,,,86YB,001,2023_Aug_30_1620,ExactRep-v3-final,2021.2.3,59.68356964503551,
,,,,,,,,31,0,31,0,,,,,,,,,,,,,,,,,,,,,,,,,,,,,,,,,,,,,,,,,,,,,,,,,,,,,1029.5841954000061,None,,,,,,,,,,,,,,,,,,,,,,,,,,,,,,,,,,,spirit,111,32,aloud,red,1027.5705117000034,None,None,1027.5705117000034,None,,,,,,,,,,,,,,,,,,,,,,,,,,,,,,86YB,001,2023_Aug_30_1620,ExactRep-v3-final,2021.2.3,59.68356964503551,
,,,,,,,,32,0,32,0,,,,,,,,,,,,,,,,,,,,,,,,,,,,,,,,,,,,,,,,,,,,,,,,,,,,,1032.103267999948,None,,,,,,,,,,,,,,,,,,,,,,,,,,,,,,,,,,,officer,37,33,sing,blue,1030.0883128999267,None,None,1030.0883128999267,None,,,,,,,,,,,,,,,,,,,,,,,,,,,,,,86YB,001,2023_Aug_30_1620,ExactRep-v3-final,2021.2.3,59.68356964503551,
,,,,,,,,33,0,33,0,,,,,,,,,,,,,,,,,,,,,,,,,,,,,,,,,,,,,,,,,,,,,,,,,,,,,1034.6056165999034,None,,,,,,,,,,,,,,,,,,,,,,,,,,,,,,,,,,,metal,35,34,sing,blue,1032.6064932999434,None,None,1032.6064932999434,None,,,,,,,,,,,,,,,,,,,,,,,,,,,,,,86YB,001,2023_Aug_30_1620,ExactRep-v3-final,2021.2.3,59.68356964503551,
,,,,,,,,34,0,34,0,,,,,,,,,,,,,,,,,,,,,,,,,,,,,,,,,,,,,,,,,,,,,,,,,,,,,1037.1081329999724,None,,,,,,,,,,,,,,,,,,,,,,,,,,,,,,,,,,,shadow,70,35,silent,white,1035.1064318999415,None,None,1035.1064318999415,None,,,,,,,,,,,,,,,,,,,,,,,,,,,,,,86YB,001,2023_Aug_30_1620,ExactRep-v3-final,2021.2.3,59.68356964503551,
,,,,,,,,35,0,35,0,,,,,,,,,,,,,,,,,,,,,,,,,,,,,,,,,,,,,,,,,,,,,,,,,,,,,1039.6271581999026,None,,,,,,,,,,,,,,,,,,,,,,,,,,,,,,,,,,,boy,78,36,silent,white,1037.6130756000057,None,None,1037.6130756000057,None,,,,,,,,,,,,,,,,,,,,,,,,,,,,,,86YB,001,2023_Aug_30_1620,ExactRep-v3-final,2021.2.3,59.68356964503551,
,,,,,,,,36,0,36,0,,,,,,,,,,,,,,,,,,,,,,,,,,,,,,,,,,,,,,,,,,,,,,,,,,,,,1042.1299903999316,None,,,,,,,,,,,,,,,,,,,,,,,,,,,,,,,,,,,cottage,30,37,sing,blue,1040.1305199000053,None,None,1040.1305199000053,None,,,,,,,,,,,,,,,,,,,,,,,,,,,,,,86YB,001,2023_Aug_30_1620,ExactRep-v3-final,2021.2.3,59.68356964503551,
,,,,,,,,37,0,37,0,,,,,,,,,,,,,,,,,,,,,,,,,,,,,,,,,,,,,,,,,,,,,,,,,,,,,1044.6326259999769,None,,,,,,,,,,,,,,,,,,,,,,,,,,,,,,,,,,,rock,48,38,silent,white,1042.6331776999868,None,None,1042.6331776999868,None,,,,,,,,,,,,,,,,,,,,,,,,,,,,,,86YB,001,2023_Aug_30_1620,ExactRep-v3-final,2021.2.3,59.68356964503551,
,,,,,,,,38,0,38,0,,,,,,,,,,,,,,,,,,,,,,,,,,,,,,,,,,,,,,,,,,,,,,,,,,,,,1047.1347821999807,None,,,,,,,,,,,,,,,,,,,,,,,,,,,,,,,,,,,trouble,100,39,aloud,red,1045.135373499943,None,None,1045.135373499943,None,,,,,,,,,,,,,,,,,,,,,,,,,,,,,,86YB,001,2023_Aug_30_1620,ExactRep-v3-final,2021.2.3,59.68356964503551,
,,,,,,,,39,0,39,0,,,,,,,,,,,,,,,,,,,,,,,,,,,,,,,,,,,,,,,,,,,,,,,,,,,,,1049.6545254999073,None,,,,,,,,,,,,,,,,,,,,,,,,,,,,,,,,,,,season,94,40,aloud,red,1047.6392649000045,None,None,1047.6392649000045,None,,,,,,,,,,,,,,,,,,,,,,,,,,,,,,86YB,001,2023_Aug_30_1620,ExactRep-v3-final,2021.2.3,59.68356964503551,
,,,,,,,,40,0,40,0,,,,,,,,,,,,,,,,,,,,,,,,,,,,,,,,,,,,,,,,,,,,,,,,,,,,,1052.1567164999433,None,,,,,,,,,,,,,,,,,,,,,,,,,,,,,,,,,,,city,1,41,sing,blue,1050.157752399915,None,None,1050.157752399915,None,,,,,,,,,,,,,,,,,,,,,,,,,,,,,,86YB,001,2023_Aug_30_1620,ExactRep-v3-final,2021.2.3,59.68356964503551,
,,,,,,,,41,0,41,0,,,,,,,,,,,,,,,,,,,,,,,,,,,,,,,,,,,,,,,,,,,,,,,,,,,,,1054.6755562999751,None,,,,,,,,,,,,,,,,,,,,,,,,,,,,,,,,,,,disease,39,42,silent,white,1052.6608400999103,None,None,1052.6608400999103,None,,,,,,,,,,,,,,,,,,,,,,,,,,,,,,86YB,001,2023_Aug_30_1620,ExactRep-v3-final,2021.2.3,59.68356964503551,
,,,,,,,,42,0,42,0,,,,,,,,,,,,,,,,,,,,,,,,,,,,,,,,,,,,,,,,,,,,,,,,,,,,,1057.1782366000116,None,,,,,,,,,,,,,,,,,,,,,,,,,,,,,,,,,,,fur,65,43,silent,white,1055.177969799959,None,None,1055.177969799959,None,,,,,,,,,,,,,,,,,,,,,,,,,,,,,,86YB,001,2023_Aug_30_1620,ExactRep-v3-final,2021.2.3,59.68356964503551,
,,,,,,,,43,0,43,0,,,,,,,,,,,,,,,,,,,,,,,,,,,,,,,,,,,,,,,,,,,,,,,,,,,,,1059.6808987999102,None,,,,,,,,,,,,,,,,,,,,,,,,,,,,,,,,,,,picture,19,44,sing,blue,1057.6790350999217,None,None,1057.6790350999217,None,,,,,,,,,,,,,,,,,,,,,,,,,,,,,,86YB,001,2023_Aug_30_1620,ExactRep-v3-final,2021.2.3,59.68356964503551,
,,,,,,,,44,0,44,0,,,,,,,,,,,,,,,,,,,,,,,,,,,,,,,,,,,,,,,,,,,,,,,,,,,,,1062.1999594999943,None,,,,,,,,,,,,,,,,,,,,,,,,,,,,,,,,,,,crime,64,45,silent,white,1060.1978623999748,None,None,1060.1978623999748,None,,,,,,,,,,,,,,,,,,,,,,,,,,,,,,86YB,001,2023_Aug_30_1620,ExactRep-v3-final,2021.2.3,59.68356964503551,
,,,,,,,,45,0,45,0,,,,,,,,,,,,,,,,,,,,,,,,,,,,,,,,,,,,,,,,,,,,,,,,,,,,,1064.7196025999729,None,,,,,,,,,,,,,,,,,,,,,,,,,,,,,,,,,,,cat,29,46,sing,blue,1062.7076159999706,None,None,1062.7076159999706,None,,,,,,,,,,,,,,,,,,,,,,,,,,,,,,86YB,001,2023_Aug_30_1620,ExactRep-v3-final,2021.2.3,59.68356964503551,
,,,,,,,,46,0,46,0,,,,,,,,,,,,,,,,,,,,,,,,,,,,,,,,,,,,,,,,,,,,,,,,,,,,,1067.2216558000073,None,,,,,,,,,,,,,,,,,,,,,,,,,,,,,,,,,,,world,52,47,silent,white,1065.2216250000056,None,None,1065.2216250000056,None,,,,,,,,,,,,,,,,,,,,,,,,,,,,,,86YB,001,2023_Aug_30_1620,ExactRep-v3-final,2021.2.3,59.68356964503551,
,,,,,,,,47,0,47,0,,,,,,,,,,,,,,,,,,,,,,,,,,,,,,,,,,,,,,,,,,,,,,,,,,,,,1069.7239068999188,None,,,,,,,,,,,,,,,,,,,,,,,,,,,,,,,,,,,church,84,48,aloud,red,1067.722869799938,None,None,1067.722869799938,None,,,,,,,,,,,,,,,,,,,,,,,,,,,,,,86YB,001,2023_Aug_30_1620,ExactRep-v3-final,2021.2.3,59.68356964503551,
,,,,,,,,48,0,48,0,,,,,,,,,,,,,,,,,,,,,,,,,,,,,,,,,,,,,,,,,,,,,,,,,,,,,1072.2305163999554,None,,,,,,,,,,,,,,,,,,,,,,,,,,,,,,,,,,,doll,86,49,aloud,red,1070.225845500012,None,None,1070.225845500012,None,,,,,,,,,,,,,,,,,,,,,,,,,,,,,,86YB,001,2023_Aug_30_1620,ExactRep-v3-final,2021.2.3,59.68356964503551,
,,,,,,,,49,0,49,0,,,,,,,,,,,,,,,,,,,,,,,,,,,,,,,,,,,,,,,,,,,,,,,,,,,,,1074.7457321999827,None,,,,,,,,,,,,,,,,,,,,,,,,,,,,,,,,,,,storm,117,50,aloud,red,1072.7439296999946,None,None,1072.7439296999946,None,,,,,,,,,,,,,,,,,,,,,,,,,,,,,,86YB,001,2023_Aug_30_1620,ExactRep-v3-final,2021.2.3,59.68356964503551,
,,,,,,,,50,0,50,0,,,,,,,,,,,,,,,,,,,,,,,,,,,,,,,,,,,,,,,,,,,,,,,,,,,,,1077.2480768999085,None,,,,,,,,,,,,,,,,,,,,,,,,,,,,,,,,,,,animal,95,51,aloud,red,1075.2468542999122,None,None,1075.2468542999122,None,,,,,,,,,,,,,,,,,,,,,,,,,,,,,,86YB,001,2023_Aug_30_1620,ExactRep-v3-final,2021.2.3,59.68356964503551,
,,,,,,,,51,0,51,0,,,,,,,,,,,,,,,,,,,,,,,,,,,,,,,,,,,,,,,,,,,,,,,,,,,,,1079.7510192999616,None,,,,,,,,,,,,,,,,,,,,,,,,,,,,,,,,,,,coin,67,52,silent,white,1077.7494047000073,None,None,1077.7494047000073,None,,,,,,,,,,,,,,,,,,,,,,,,,,,,,,86YB,001,2023_Aug_30_1620,ExactRep-v3-final,2021.2.3,59.68356964503551,
,,,,,,,,52,0,52,0,,,,,,,,,,,,,,,,,,,,,,,,,,,,,,,,,,,,,,,,,,,,,,,,,,,,,1082.2532286999049,None,,,,,,,,,,,,,,,,,,,,,,,,,,,,,,,,,,,nail,69,53,silent,white,1080.2519318999257,None,None,1080.2519318999257,None,,,,,,,,,,,,,,,,,,,,,,,,,,,,,,86YB,001,2023_Aug_30_1620,ExactRep-v3-final,2021.2.3,59.68356964503551,
,,,,,,,,53,0,53,0,,,,,,,,,,,,,,,,,,,,,,,,,,,,,,,,,,,,,,,,,,,,,,,,,,,,,1084.755430799909,None,,,,,,,,,,,,,,,,,,,,,,,,,,,,,,,,,,,avenue,77,54,silent,white,1082.7537608999992,None,None,1082.7537608999992,None,,,,,,,,,,,,,,,,,,,,,,,,,,,,,,86YB,001,2023_Aug_30_1620,ExactRep-v3-final,2021.2.3,59.68356964503551,
,,,,,,,,54,0,54,0,,,,,,,,,,,,,,,,,,,,,,,,,,,,,,,,,,,,,,,,,,,,,,,,,,,,,1087.2580317999236,None,,,,,,,,,,,,,,,,,,,,,,,,,,,,,,,,,,,pole,105,55,aloud,red,1085.2580028999364,None,None,1085.2580028999364,None,,,,,,,,,,,,,,,,,,,,,,,,,,,,,,86YB,001,2023_Aug_30_1620,ExactRep-v3-final,2021.2.3,59.68356964503551,
,,,,,,,,55,0,55,0,,,,,,,,,,,,,,,,,,,,,,,,,,,,,,,,,,,,,,,,,,,,,,,,,,,,,1089.7639826999512,None,,,,,,,,,,,,,,,,,,,,,,,,,,,,,,,,,,,chief,25,56,sing,blue,1087.7606298999162,None,None,1087.7606298999162,None,,,,,,,,,,,,,,,,,,,,,,,,,,,,,,86YB,001,2023_Aug_30_1620,ExactRep-v3-final,2021.2.3,59.68356964503551,
,,,,,,,,56,0,56,0,,,,,,,,,,,,,,,,,,,,,,,,,,,,,,,,,,,,,,,,,,,,,,,,,,,,,1092.2823624999728,None,,,,,,,,,,,,,,,,,,,,,,,,,,,,,,,,,,,cabin,106,57,aloud,red,1090.2776136000175,None,None,1090.2776136000175,None,,,,,,,,,,,,,,,,,,,,,,,,,,,,,,86YB,001,2023_Aug_30_1620,ExactRep-v3-final,2021.2.3,59.68356964503551,
,,,,,,,,57,0,57,0,,,,,,,,,,,,,,,,,,,,,,,,,,,,,,,,,,,,,,,,,,,,,,,,,,,,,1094.8017572999233,None,,,,,,,,,,,,,,,,,,,,,,,,,,,,,,,,,,,pupil,7,58,sing,blue,1092.798012199928,None,None,1092.798012199928,None,,,,,,,,,,,,,,,,,,,,,,,,,,,,,,86YB,001,2023_Aug_30_1620,ExactRep-v3-final,2021.2.3,59.68356964503551,
,,,,,,,,58,0,58,0,,,,,,,,,,,,,,,,,,,,,,,,,,,,,,,,,,,,,,,,,,,,,,,,,,,,,1097.3185953999637,None,,,,,,,,,,,,,,,,,,,,,,,,,,,,,,,,,,,lad,116,59,aloud,red,1095.316568500013,None,None,1095.316568500013,None,,,,,,,,,,,,,,,,,,,,,,,,,,,,,,86YB,001,2023_Aug_30_1620,ExactRep-v3-final,2021.2.3,59.68356964503551,
,,,,,,,,59,0,59,0,,,,,,,,,,,,,,,,,,,,,,,,,,,,,,,,,,,,,,,,,,,,,,,,,,,,,1099.8372050999897,None,,,,,,,,,,,,,,,,,,,,,,,,,,,,,,,,,,,insect,58,60,silent,white,1097.834240600001,None,None,1097.834240600001,None,,,,,,,,,,,,,,,,,,,,,,,,,,,,,,86YB,001,2023_Aug_30_1620,ExactRep-v3-final,2021.2.3,59.68356964503551,
,,,,,,,,60,0,60,0,,,,,,,,,,,,,,,,,,,,,,,,,,,,,,,,,,,,,,,,,,,,,,,,,,,,,1102.3567007000092,None,,,,,,,,,,,,,,,,,,,,,,,,,,,,,,,,,,,judge,73,61,silent,white,1100.3455369999865,None,None,1100.3455369999865,None,,,,,,,,,,,,,,,,,,,,,,,,,,,,,,86YB,001,2023_Aug_30_1620,ExactRep-v3-final,2021.2.3,59.68356964503551,
,,,,,,,,61,0,61,0,,,,,,,,,,,,,,,,,,,,,,,,,,,,,,,,,,,,,,,,,,,,,,,,,,,,,1104.8591643999098,None,,,,,,,,,,,,,,,,,,,,,,,,,,,,,,,,,,,meeting,55,62,silent,white,1102.8575538999867,None,None,1102.8575538999867,None,,,,,,,,,,,,,,,,,,,,,,,,,,,,,,86YB,001,2023_Aug_30_1620,ExactRep-v3-final,2021.2.3,59.68356964503551,
,,,,,,,,62,0,62,0,,,,,,,,,,,,,,,,,,,,,,,,,,,,,,,,,,,,,,,,,,,,,,,,,,,,,1107.3613762999885,None,,,,,,,,,,,,,,,,,,,,,,,,,,,,,,,,,,,wheat,109,63,aloud,red,1105.3602320000064,None,None,1105.3602320000064,None,,,,,,,,,,,,,,,,,,,,,,,,,,,,,,86YB,001,2023_Aug_30_1620,ExactRep-v3-final,2021.2.3,59.68356964503551,
,,,,,,,,63,0,63,0,,,,,,,,,,,,,,,,,,,,,,,,,,,,,,,,,,,,,,,,,,,,,,,,,,,,,1109.864269200014,None,,,,,,,,,,,,,,,,,,,,,,,,,,,,,,,,,,,series,114,64,aloud,red,1107.8627378999954,None,None,1107.8627378999954,None,,,,,,,,,,,,,,,,,,,,,,,,,,,,,,86YB,001,2023_Aug_30_1620,ExactRep-v3-final,2021.2.3,59.68356964503551,
,,,,,,,,64,0,64,0,,,,,,,,,,,,,,,,,,,,,,,,,,,,,,,,,,,,,,,,,,,,,,,,,,,,,1112.366861699964,None,,,,,,,,,,,,,,,,,,,,,,,,,,,,,,,,,,,meadow,103,65,aloud,red,1110.3652390999487,None,None,1110.3652390999487,None,,,,,,,,,,,,,,,,,,,,,,,,,,,,,,86YB,001,2023_Aug_30_1620,ExactRep-v3-final,2021.2.3,59.68356964503551,
,,,,,,,,65,0,65,0,,,,,,,,,,,,,,,,,,,,,,,,,,,,,,,,,,,,,,,,,,,,,,,,,,,,,1114.8687592999777,None,,,,,,,,,,,,,,,,,,,,,,,,,,,,,,,,,,,effort,12,66,sing,blue,1112.8681348999962,None,None,1112.8681348999962,None,,,,,,,,,,,,,,,,,,,,,,,,,,,,,,86YB,001,2023_Aug_30_1620,ExactRep-v3-final,2021.2.3,59.68356964503551,
,,,,,,,,66,0,66,0,,,,,,,,,,,,,,,,,,,,,,,,,,,,,,,,,,,,,,,,,,,,,,,,,,,,,1117.3880147999153,None,,,,,,,,,,,,,,,,,,,,,,,,,,,,,,,,,,,glory,82,67,aloud,red,1115.3749305999372,None,None,1115.3749305999372,None,,,,,,,,,,,,,,,,,,,,,,,,,,,,,,86YB,001,2023_Aug_30_1620,ExactRep-v3-final,2021.2.3,59.68356964503551,
,,,,,,,,67,0,67,0,,,,,,,,,,,,,,,,,,,,,,,,,,,,,,,,,,,,,,,,,,,,,,,,,,,,,1119.8905580999563,None,,,,,,,,,,,,,,,,,,,,,,,,,,,,,,,,,,,temple,59,68,silent,white,1117.8918477999978,None,None,1117.8918477999978,None,,,,,,,,,,,,,,,,,,,,,,,,,,,,,,86YB,001,2023_Aug_30_1620,ExactRep-v3-final,2021.2.3,59.68356964503551,
,,,,,,,,68,0,68,0,,,,,,,,,,,,,,,,,,,,,,,,,,,,,,,,,,,,,,,,,,,,,,,,,,,,,1122.409774599946,None,,,,,,,,,,,,,,,,,,,,,,,,,,,,,,,,,,,memory,97,69,aloud,red,1120.400183599908,None,None,1120.400183599908,None,,,,,,,,,,,,,,,,,,,,,,,,,,,,,,86YB,001,2023_Aug_30_1620,ExactRep-v3-final,2021.2.3,59.68356964503551,
,,,,,,,,69,0,69,0,,,,,,,,,,,,,,,,,,,,,,,,,,,,,,,,,,,,,,,,,,,,,,,,,,,,,1124.913116300013,None,,,,,,,,,,,,,,,,,,,,,,,,,,,,,,,,,,,bird,83,70,aloud,red,1122.910459299921,None,None,1122.910459299921,None,,,,,,,,,,,,,,,,,,,,,,,,,,,,,,86YB,001,2023_Aug_30_1620,ExactRep-v3-final,2021.2.3,59.68356964503551,
,,,,,,,,70,0,70,0,,,,,,,,,,,,,,,,,,,,,,,,,,,,,,,,,,,,,,,,,,,,,,,,,,,,,1127.4147024999838,None,,,,,,,,,,,,,,,,,,,,,,,,,,,,,,,,,,,event,107,71,aloud,red,1125.4133748000022,None,None,1125.4133748000022,None,,,,,,,,,,,,,,,,,,,,,,,,,,,,,,86YB,001,2023_Aug_30_1620,ExactRep-v3-final,2021.2.3,59.68356964503551,
,,,,,,,,71,0,71,0,,,,,,,,,,,,,,,,,,,,,,,,,,,,,,,,,,,,,,,,,,,,,,,,,,,,,1129.9174708999926,None,,,,,,,,,,,,,,,,,,,,,,,,,,,,,,,,,,,shock,38,72,sing,blue,1127.9157681999495,None,None,1127.9157681999495,None,,,,,,,,,,,,,,,,,,,,,,,,,,,,,,86YB,001,2023_Aug_30_1620,ExactRep-v3-final,2021.2.3,59.68356964503551,
,,,,,,,,72,0,72,0,,,,,,,,,,,,,,,,,,,,,,,,,,,,,,,,,,,,,,,,,,,,,,,,,,,,,1132.4367837999016,None,,,,,,,,,,,,,,,,,,,,,,,,,,,,,,,,,,,mercy,81,73,aloud,red,1130.4330699999118,None,None,1130.4330699999118,None,,,,,,,,,,,,,,,,,,,,,,,,,,,,,,86YB,001,2023_Aug_30_1620,ExactRep-v3-final,2021.2.3,59.68356964503551,
,,,,,,,,73,0,73,0,,,,,,,,,,,,,,,,,,,,,,,,,,,,,,,,,,,,,,,,,,,,,,,,,,,,,1134.9426184999757,None,,,,,,,,,,,,,,,,,,,,,,,,,,,,,,,,,,,law,96,74,aloud,red,1132.937214699923,None,None,1132.937214699923,None,,,,,,,,,,,,,,,,,,,,,,,,,,,,,,86YB,001,2023_Aug_30_1620,ExactRep-v3-final,2021.2.3,59.68356964503551,
,,,,,,,,74,0,74,0,,,,,,,,,,,,,,,,,,,,,,,,,,,,,,,,,,,,,,,,,,,,,,,,,,,,,1137.4585909999441,None,,,,,,,,,,,,,,,,,,,,,,,,,,,,,,,,,,,idea,80,75,aloud,red,1135.4561831000028,None,None,1135.4561831000028,None,,,,,,,,,,,,,,,,,,,,,,,,,,,,,,86YB,001,2023_Aug_30_1620,ExactRep-v3-final,2021.2.3,59.68356964503551,
,,,,,,,,75,0,75,0,,,,,,,,,,,,,,,,,,,,,,,,,,,,,,,,,,,,,,,,,,,,,,,,,,,,,1139.9610621000174,None,,,,,,,,,,,,,,,,,,,,,,,,,,,,,,,,,,,kiss,9,76,sing,blue,1137.9592596999137,None,None,1137.9592596999137,None,,,,,,,,,,,,,,,,,,,,,,,,,,,,,,86YB,001,2023_Aug_30_1620,ExactRep-v3-final,2021.2.3,59.68356964503551,
,,,,,,,,76,0,76,0,,,,,,,,,,,,,,,,,,,,,,,,,,,,,,,,,,,,,,,,,,,,,,,,,,,,,1142.4632025999017,None,,,,,,,,,,,,,,,,,,,,,,,,,,,,,,,,,,,plain,56,77,silent,white,1140.461455599987,None,None,1140.461455599987,None,,,,,,,,,,,,,,,,,,,,,,,,,,,,,,86YB,001,2023_Aug_30_1620,ExactRep-v3-final,2021.2.3,59.68356964503551,
,,,,,,,,77,0,77,0,,,,,,,,,,,,,,,,,,,,,,,,,,,,,,,,,,,,,,,,,,,,,,,,,,,,,1144.9660703999689,None,,,,,,,,,,,,,,,,,,,,,,,,,,,,,,,,,,,woods,93,78,aloud,red,1142.9644269999117,None,None,1142.9644269999117,None,,,,,,,,,,,,,,,,,,,,,,,,,,,,,,86YB,001,2023_Aug_30_1620,ExactRep-v3-final,2021.2.3,59.68356964503551,
,,,,,,,,78,0,78,0,,,,,,,,,,,,,,,,,,,,,,,,,,,,,,,,,,,,,,,,,,,,,,,,,,,,,1147.468178799958,None,,,,,,,,,,,,,,,,,,,,,,,,,,,,,,,,,,,style,87,79,aloud,red,1145.466778800008,None,None,1145.466778800008,None,,,,,,,,,,,,,,,,,,,,,,,,,,,,,,86YB,001,2023_Aug_30_1620,ExactRep-v3-final,2021.2.3,59.68356964503551,
,,,,,,,,79,0,79,0,,,,,,,,,,,,,,,,,,,,,,,,,,,,,,,,,,,,,,,,,,,,,,,,,,,,,1149.9706545999506,None,,,,,,,,,,,,,,,,,,,,,,,,,,,,,,,,,,,poet,75,80,silent,white,1147.9690915999236,None,None,1147.9690915999236,None,,,,,,,,,,,,,,,,,,,,,,,,,,,,,,86YB,001,2023_Aug_30_1620,ExactRep-v3-final,2021.2.3,59.68356964503551,
,,,,,,,,80,0,80,0,,,,,,,,,,,,,,,,,,,,,,,,,,,,,,,,,,,,,,,,,,,,,,,,,,,,,1152.4736679999623,None,,,,,,,,,,,,,,,,,,,,,,,,,,,,,,,,,,,flood,8,81,sing,blue,1150.4723923999118,None,None,1150.4723923999118,None,,,,,,,,,,,,,,,,,,,,,,,,,,,,,,86YB,001,2023_Aug_30_1620,ExactRep-v3-final,2021.2.3,59.68356964503551,
,,,,,,,,81,0,81,0,,,,,,,,,,,,,,,,,,,,,,,,,,,,,,,,,,,,,,,,,,,,,,,,,,,,,1154.9924933000002,None,,,,,,,,,,,,,,,,,,,,,,,,,,,,,,,,,,,speech,36,82,sing,blue,1152.988612200017,None,None,1152.988612200017,None,,,,,,,,,,,,,,,,,,,,,,,,,,,,,,86YB,001,2023_Aug_30_1620,ExactRep-v3-final,2021.2.3,59.68356964503551,
,,,,,,,,82,0,82,0,,,,,,,,,,,,,,,,,,,,,,,,,,,,,,,,,,,,,,,,,,,,,,,,,,,,,1157.494917999953,None,,,,,,,,,,,,,,,,,,,,,,,,,,,,,,,,,,,ability,33,83,sing,blue,1155.4934364999644,None,None,1155.4934364999644,None,,,,,,,,,,,,,,,,,,,,,,,,,,,,,,86YB,001,2023_Aug_30_1620,ExactRep-v3-final,2021.2.3,59.68356964503551,
,,,,,,,,83,0,83,0,,,,,,,,,,,,,,,,,,,,,,,,,,,,,,,,,,,,,,,,,,,,,,,,,,,,,1160.0137990999501,None,,,,,,,,,,,,,,,,,,,,,,,,,,,,,,,,,,,lake,101,84,aloud,red,1158.0086352999788,None,None,1158.0086352999788,None,,,,,,,,,,,,,,,,,,,,,,,,,,,,,,86YB,001,2023_Aug_30_1620,ExactRep-v3-final,2021.2.3,59.68356964503551,
,,,,,,,,84,0,84,0,,,,,,,,,,,,,,,,,,,,,,,,,,,,,,,,,,,,,,,,,,,,,,,,,,,,,1162.533366199932,None,,,,,,,,,,,,,,,,,,,,,,,,,,,,,,,,,,,potato,27,85,sing,blue,1160.5268334000139,None,None,1160.5268334000139,None,,,,,,,,,,,,,,,,,,,,,,,,,,,,,,86YB,001,2023_Aug_30_1620,ExactRep-v3-final,2021.2.3,59.68356964503551,
,,,,,,,,85,0,85,0,,,,,,,,,,,,,,,,,,,,,,,,,,,,,,,,,,,,,,,,,,,,,,,,,,,,,1165.052340599941,None,,,,,,,,,,,,,,,,,,,,,,,,,,,,,,,,,,,body,113,86,aloud,red,1163.0462717999471,None,None,1163.0462717999471,None,,,,,,,,,,,,,,,,,,,,,,,,,,,,,,86YB,001,2023_Aug_30_1620,ExactRep-v3-final,2021.2.3,59.68356964503551,
,,,,,,,,86,0,86,0,,,,,,,,,,,,,,,,,,,,,,,,,,,,,,,,,,,,,,,,,,,,,,,,,,,,,1167.5551035999088,None,,,,,,,,,,,,,,,,,,,,,,,,,,,,,,,,,,,blood,51,87,silent,white,1165.5532409999287,None,None,1165.5532409999287,None,,,,,,,,,,,,,,,,,,,,,,,,,,,,,,86YB,001,2023_Aug_30_1620,ExactRep-v3-final,2021.2.3,59.68356964503551,
,,,,,,,,87,0,87,0,,,,,,,,,,,,,,,,,,,,,,,,,,,,,,,,,,,,,,,,,,,,,,,,,,,,,1170.057203299948,None,,,,,,,,,,,,,,,,,,,,,,,,,,,,,,,,,,,friend,26,88,sing,blue,1168.0566526999464,None,None,1168.0566526999464,None,,,,,,,,,,,,,,,,,,,,,,,,,,,,,,86YB,001,2023_Aug_30_1620,ExactRep-v3-final,2021.2.3,59.68356964503551,
,,,,,,,,88,0,88,0,,,,,,,,,,,,,,,,,,,,,,,,,,,,,,,,,,,,,,,,,,,,,,,,,,,,,1172.5601676999358,None,,,,,,,,,,,,,,,,,,,,,,,,,,,,,,,,,,,dress,118,89,aloud,red,1170.5586196999066,None,None,1170.5586196999066,None,,,,,,,,,,,,,,,,,,,,,,,,,,,,,,86YB,001,2023_Aug_30_1620,ExactRep-v3-final,2021.2.3,59.68356964503551,
,,,,,,,,89,0,89,0,,,,,,,,,,,,,,,,,,,,,,,,,,,,,,,,,,,,,,,,,,,,,,,,,,,,,1175.07880379993,None,,,,,,,,,,,,,,,,,,,,,,,,,,,,,,,,,,,safety,63,90,silent,white,1173.066654699971,None,None,1173.066654699971,None,,,,,,,,,,,,,,,,,,,,,,,,,,,,,,86YB,001,2023_Aug_30_1620,ExactRep-v3-final,2021.2.3,59.68356964503551,
,,,,,,,,90,0,90,0,,,,,,,,,,,,,,,,,,,,,,,,,,,,,,,,,,,,,,,,,,,,,,,,,,,,,1177.5818578999024,None,,,,,,,,,,,,,,,,,,,,,,,,,,,,,,,,,,,length,5,91,sing,blue,1175.5792759999167,None,None,1175.5792759999167,None,,,,,,,,,,,,,,,,,,,,,,,,,,,,,,86YB,001,2023_Aug_30_1620,ExactRep-v3-final,2021.2.3,59.68356964503551,
,,,,,,,,91,0,91,0,,,,,,,,,,,,,,,,,,,,,,,,,,,,,,,,,,,,,,,,,,,,,,,,,,,,,1180.100519599975,None,,,,,,,,,,,,,,,,,,,,,,,,,,,,,,,,,,,fault,119,92,aloud,red,1178.089228299912,None,None,1178.089228299912,None,,,,,,,,,,,,,,,,,,,,,,,,,,,,,,86YB,001,2023_Aug_30_1620,ExactRep-v3-final,2021.2.3,59.68356964503551,
,,,,,,,,92,0,92,0,,,,,,,,,,,,,,,,,,,,,,,,,,,,,,,,,,,,,,,,,,,,,,,,,,,,,1182.6033724999288,None,,,,,,,,,,,,,,,,,,,,,,,,,,,,,,,,,,,horse,31,93,sing,blue,1180.6012875000015,None,None,1180.6012875000015,None,,,,,,,,,,,,,,,,,,,,,,,,,,,,,,86YB,001,2023_Aug_30_1620,ExactRep-v3-final,2021.2.3,59.68356964503551,
,,,,,,,,93,0,93,0,,,,,,,,,,,,,,,,,,,,,,,,,,,,,,,,,,,,,,,,,,,,,,,,,,,,,1185.106174299959,None,,,,,,,,,,,,,,,,,,,,,,,,,,,,,,,,,,,shore,14,94,sing,blue,1183.1040133999195,None,None,1183.1040133999195,None,,,,,,,,,,,,,,,,,,,,,,,,,,,,,,86YB,001,2023_Aug_30_1620,ExactRep-v3-final,2021.2.3,59.68356964503551,
,,,,,,,,94,0,94,0,,,,,,,,,,,,,,,,,,,,,,,,,,,,,,,,,,,,,,,,,,,,,,,,,,,,,1187.6300628999015,None,,,,,,,,,,,,,,,,,,,,,,,,,,,,,,,,,,,shame,53,95,silent,white,1185.6215923000127,None,None,1185.6215923000127,None,,,,,,,,,,,,,,,,,,,,,,,,,,,,,,86YB,001,2023_Aug_30_1620,ExactRep-v3-final,2021.2.3,59.68356964503551,
,,,,,,,,95,0,95,0,,,,,,,,,,,,,,,,,,,,,,,,,,,,,,,,,,,,,,,,,,,,,,,,,,,,,1190.1444236999378,None,,,,,,,,,,,,,,,,,,,,,,,,,,,,,,,,,,,form,10,96,sing,blue,1188.1312449999386,None,None,1188.1312449999386,None,,,,,,,,,,,,,,,,,,,,,,,,,,,,,,86YB,001,2023_Aug_30_1620,ExactRep-v3-final,2021.2.3,59.68356964503551,
,,,,,,,,96,0,96,0,,,,,,,,,,,,,,,,,,,,,,,,,,,,,,,,,,,,,,,,,,,,,,,,,,,,,1192.6469092000043,None,,,,,,,,,,,,,,,,,,,,,,,,,,,,,,,,,,,time,22,97,sing,blue,1190.6445202999748,None,None,1190.6445202999748,None,,,,,,,,,,,,,,,,,,,,,,,,,,,,,,86YB,001,2023_Aug_30_1620,ExactRep-v3-final,2021.2.3,59.68356964503551,
,,,,,,,,97,0,97,0,,,,,,,,,,,,,,,,,,,,,,,,,,,,,,,,,,,,,,,,,,,,,,,,,,,,,1195.1576390999835,None,,,,,,,,,,,,,,,,,,,,,,,,,,,,,,,,,,,excuse,2,98,sing,blue,1193.1490146999713,None,None,1193.1490146999713,None,,,,,,,,,,,,,,,,,,,,,,,,,,,,,,86YB,001,2023_Aug_30_1620,ExactRep-v3-final,2021.2.3,59.68356964503551,
,,,,,,,,98,0,98,0,,,,,,,,,,,,,,,,,,,,,,,,,,,,,,,,,,,,,,,,,,,,,,,,,,,,,1197.668306699954,None,,,,,,,,,,,,,,,,,,,,,,,,,,,,,,,,,,,soul,102,99,aloud,red,1195.6663879000116,None,None,1195.6663879000116,None,,,,,,,,,,,,,,,,,,,,,,,,,,,,,,86YB,001,2023_Aug_30_1620,ExactRep-v3-final,2021.2.3,59.68356964503551,
,,,,,,,,99,0,99,0,,,,,,,,,,,,,,,,,,,,,,,,,,,,,,,,,,,,,,,,,,,,,,,,,,,,,1200.1731561999768,None,,,,,,,,,,,,,,,,,,,,,,,,,,,,,,,,,,,market,112,100,aloud,red,1198.1695060000056,None,None,1198.1695060000056,None,,,,,,,,,,,,,,,,,,,,,,,,,,,,,,86YB,001,2023_Aug_30_1620,ExactRep-v3-final,2021.2.3,59.68356964503551,
,,,,,,,,100,0,100,0,,,,,,,,,,,,,,,,,,,,,,,,,,,,,,,,,,,,,,,,,,,,,,,,,,,,,1202.6900388000067,None,,,,,,,,,,,,,,,,,,,,,,,,,,,,,,,,,,,power,108,101,aloud,red,1200.6880420999369,None,None,1200.6880420999369,None,,,,,,,,,,,,,,,,,,,,,,,,,,,,,,86YB,001,2023_Aug_30_1620,ExactRep-v3-final,2021.2.3,59.68356964503551,
,,,,,,,,101,0,101,0,,,,,,,,,,,,,,,,,,,,,,,,,,,,,,,,,,,,,,,,,,,,,,,,,,,,,1205.193119399948,None,,,,,,,,,,,,,,,,,,,,,,,,,,,,,,,,,,,hall,20,102,sing,blue,1203.1908654000144,None,None,1203.1908654000144,None,,,,,,,,,,,,,,,,,,,,,,,,,,,,,,86YB,001,2023_Aug_30_1620,ExactRep-v3-final,2021.2.3,59.68356964503551,
,,,,,,,,102,0,102,0,,,,,,,,,,,,,,,,,,,,,,,,,,,,,,,,,,,,,,,,,,,,,,,,,,,,,1207.7116707999958,None,,,,,,,,,,,,,,,,,,,,,,,,,,,,,,,,,,,pipe,24,103,sing,blue,1205.696075499989,None,None,1205.696075499989,None,,,,,,,,,,,,,,,,,,,,,,,,,,,,,,86YB,001,2023_Aug_30_1620,ExactRep-v3-final,2021.2.3,59.68356964503551,
,,,,,,,,103,0,103,0,,,,,,,,,,,,,,,,,,,,,,,,,,,,,,,,,,,,,,,,,,,,,,,,,,,,,1210.2142789999489,None,,,,,,,,,,,,,,,,,,,,,,,,,,,,,,,,,,,ticket,89,104,aloud,red,1208.2124128999421,None,None,1208.2124128999421,None,,,,,,,,,,,,,,,,,,,,,,,,,,,,,,86YB,001,2023_Aug_30_1620,ExactRep-v3-final,2021.2.3,59.68356964503551,
,,,,,,,,104,0,104,0,,,,,,,,,,,,,,,,,,,,,,,,,,,,,,,,,,,,,,,,,,,,,,,,,,,,,1212.717100000009,None,,,,,,,,,,,,,,,,,,,,,,,,,,,,,,,,,,,book,16,105,sing,blue,1210.7147482999135,None,None,1210.7147482999135,None,,,,,,,,,,,,,,,,,,,,,,,,,,,,,,86YB,001,2023_Aug_30_1620,ExactRep-v3-final,2021.2.3,59.68356964503551,
,,,,,,,,105,0,105,0,,,,,,,,,,,,,,,,,,,,,,,,,,,,,,,,,,,,,,,,,,,,,,,,,,,,,1215.2194489999674,None,,,,,,,,,,,,,,,,,,,,,,,,,,,,,,,,,,,dust,42,106,silent,white,1213.2184264999814,None,None,1213.2184264999814,None,,,,,,,,,,,,,,,,,,,,,,,,,,,,,,86YB,001,2023_Aug_30_1620,ExactRep-v3-final,2021.2.3,59.68356964503551,
,,,,,,,,106,0,106,0,,,,,,,,,,,,,,,,,,,,,,,,,,,,,,,,,,,,,,,,,,,,,,,,,,,,,1217.738552399911,None,,,,,,,,,,,,,,,,,,,,,,,,,,,,,,,,,,,engine,115,107,aloud,red,1215.724307699944,None,None,1215.724307699944,None,,,,,,,,,,,,,,,,,,,,,,,,,,,,,,86YB,001,2023_Aug_30_1620,ExactRep-v3-final,2021.2.3,59.68356964503551,
,,,,,,,,107,0,107,0,,,,,,,,,,,,,,,,,,,,,,,,,,,,,,,,,,,,,,,,,,,,,,,,,,,,,1220.2411410999484,None,,,,,,,,,,,,,,,,,,,,,,,,,,,,,,,,,,,chance,17,108,sing,blue,1218.2392678000033,None,None,1218.2392678000033,None,,,,,,,,,,,,,,,,,,,,,,,,,,,,,,86YB,001,2023_Aug_30_1620,ExactRep-v3-final,2021.2.3,59.68356964503551,
,,,,,,,,108,0,108,0,,,,,,,,,,,,,,,,,,,,,,,,,,,,,,,,,,,,,,,,,,,,,,,,,,,,,1222.7603973000078,None,,,,,,,,,,,,,,,,,,,,,,,,,,,,,,,,,,,humour,43,109,silent,white,1220.745220499928,None,None,1220.745220499928,None,,,,,,,,,,,,,,,,,,,,,,,,,,,,,,86YB,001,2023_Aug_30_1620,ExactRep-v3-final,2021.2.3,59.68356964503551,
,,,,,,,,109,0,109,0,,,,,,,,,,,,,,,,,,,,,,,,,,,,,,,,,,,,,,,,,,,,,,,,,,,,,1225.2629421999445,None,,,,,,,,,,,,,,,,,,,,,,,,,,,,,,,,,,,dream,28,110,sing,blue,1223.2635363999289,None,None,1223.2635363999289,None,,,,,,,,,,,,,,,,,,,,,,,,,,,,,,86YB,001,2023_Aug_30_1620,ExactRep-v3-final,2021.2.3,59.68356964503551,
,,,,,,,,110,0,110,0,,,,,,,,,,,,,,,,,,,,,,,,,,,,,,,,,,,,,,,,,,,,,,,,,,,,,1227.7818946999032,None,,,,,,,,,,,,,,,,,,,,,,,,,,,,,,,,,,,soil,61,111,silent,white,1225.775686100009,None,None,1225.775686100009,None,,,,,,,,,,,,,,,,,,,,,,,,,,,,,,86YB,001,2023_Aug_30_1620,ExactRep-v3-final,2021.2.3,59.68356964503551,
,,,,,,,,111,0,111,0,,,,,,,,,,,,,,,,,,,,,,,,,,,,,,,,,,,,,,,,,,,,,,,,,,,,,1230.2840952000115,None,,,,,,,,,,,,,,,,,,,,,,,,,,,,,,,,,,,honour,90,112,aloud,red,1228.2823405999225,None,None,1228.2823405999225,None,,,,,,,,,,,,,,,,,,,,,,,,,,,,,,86YB,001,2023_Aug_30_1620,ExactRep-v3-final,2021.2.3,59.68356964503551,
,,,,,,,,112,0,112,0,,,,,,,,,,,,,,,,,,,,,,,,,,,,,,,,,,,,,,,,,,,,,,,,,,,,,1232.7862966000102,None,,,,,,,,,,,,,,,,,,,,,,,,,,,,,,,,,,,author,92,113,aloud,red,1230.7858070000075,None,None,1230.7858070000075,None,,,,,,,,,,,,,,,,,,,,,,,,,,,,,,86YB,001,2023_Aug_30_1620,ExactRep-v3-final,2021.2.3,59.68356964503551,
,,,,,,,,113,0,113,0,,,,,,,,,,,,,,,,,,,,,,,,,,,,,,,,,,,,,,,,,,,,,,,,,,,,,1235.2891990999924,None,,,,,,,,,,,,,,,,,,,,,,,,,,,,,,,,,,,money,104,114,aloud,red,1233.2877348999027,None,None,1233.2877348999027,None,,,,,,,,,,,,,,,,,,,,,,,,,,,,,,86YB,001,2023_Aug_30_1620,ExactRep-v3-final,2021.2.3,59.68356964503551,
,,,,,,,,114,0,114,0,,,,,,,,,,,,,,,,,,,,,,,,,,,,,,,,,,,,,,,,,,,,,,,,,,,,,1237.8082166999811,None,,,,,,,,,,,,,,,,,,,,,,,,,,,,,,,,,,,diamond,85,115,aloud,red,1235.7979265999747,None,None,1235.7979265999747,None,,,,,,,,,,,,,,,,,,,,,,,,,,,,,,86YB,001,2023_Aug_30_1620,ExactRep-v3-final,2021.2.3,59.68356964503551,
,,,,,,,,115,0,115,0,,,,,,,,,,,,,,,,,,,,,,,,,,,,,,,,,,,,,,,,,,,,,,,,,,,,,1240.3107029999373,None,,,,,,,,,,,,,,,,,,,,,,,,,,,,,,,,,,,victory,54,116,silent,white,1238.3098805999616,None,None,1238.3098805999616,None,,,,,,,,,,,,,,,,,,,,,,,,,,,,,,86YB,001,2023_Aug_30_1620,ExactRep-v3-final,2021.2.3,59.68356964503551,
,,,,,,,,116,0,116,0,,,,,,,,,,,,,,,,,,,,,,,,,,,,,,,,,,,,,,,,,,,,,,,,,,,,,1242.813582999981,None,,,,,,,,,,,,,,,,,,,,,,,,,,,,,,,,,,,dollar,110,117,aloud,red,1240.8133262000047,None,None,1240.8133262000047,None,,,,,,,,,,,,,,,,,,,,,,,,,,,,,,86YB,001,2023_Aug_30_1620,ExactRep-v3-final,2021.2.3,59.68356964503551,
,,,,,,,,117,0,117,0,,,,,,,,,,,,,,,,,,,,,,,,,,,,,,,,,,,,,,,,,,,,,,,,,,,,,1245.3194926999277,None,,,,,,,,,,,,,,,,,,,,,,,,,,,,,,,,,,,leader,50,118,silent,white,1243.3155851999763,None,None,1243.3155851999763,None,,,,,,,,,,,,,,,,,,,,,,,,,,,,,,86YB,001,2023_Aug_30_1620,ExactRep-v3-final,2021.2.3,59.68356964503551,
,,,,,,,,118,0,118,0,,,,,,,,,,,,,,,,,,,,,,,,,,,,,,,,,,,,,,,,,,,,,,,,,,,,,1247.8350511000026,None,,,,,,,,,,,,,,,,,,,,,,,,,,,,,,,,,,,quality,76,119,silent,white,1245.8343260999536,None,None,1245.8343260999536,None,,,,,,,,,,,,,,,,,,,,,,,,,,,,,,86YB,001,2023_Aug_30_1620,ExactRep-v3-final,2021.2.3,59.68356964503551,
,,,,,,,,119,0,119,0,,,,,,,,,,,,,,,,,,,,,,,,,,,,,,,,,,,,,,,,,,,,,,,,,,,,,1250.33751569991,None,,,,,,,,,,,,,,,,,,,,,,,,,,,,,,,,,,,house,46,120,silent,white,1248.3361204999965,None,None,1248.3361204999965,None,,,,,,,,,,,,,,,,,,,,,,,,,,,,,,86YB,001,2023_Aug_30_1620,ExactRep-v3-final,2021.2.3,59.68356964503551,
,,,,,,,,,,,,,,,,,,,,,,,,,,,,,,,,,,,,,,,,,,,,,,,,,,,,,,,,,,,,,,,,,,,,,,,,,,,,,,,,,,,,,,,,,,,,,,,,,,,,,,,,,,,,,,1250.838534599985,None,space,1.1710034999996424,1260.8151050999295,None,,,,,,,,,,,,,,,,,,,,,,,,86YB,001,2023_Aug_30_1620,ExactRep-v3-final,2021.2.3,59.68356964503551,
,,,,,,,,,,,,,,,,,,,,,,,,,,,,,,,,,,,,,,,,,,,,,,,,,,,,,,,,,,,,,,,,,,,,,,,,,,,,,,,,,,,,,,,,,,,,,,,,,,,,,,,,,,,,,,,,,,,,1262.0165749000153,None,space,30.177135700010695,1271.992688599974,None,,,,,,,,,,,,,,,,,,86YB,001,2023_Aug_30_1620,ExactRep-v3-final,2021.2.3,59.68356964503551,
,,,,,,,,,,,,0,0,0,0,,,,,,,,,,,,,,,,,,,,,,,,,,,,,,,,,,,,,,,,,,,,,,,,,1310.1997851999477,None,,,,,,,,,,,,,,,,,,,,,,,,,,,,,,,,,,,,,,,,,,,,,,,,,,,,,,,,,sky,163,1,sing,new,blue,1302.694558499963,None,n,1302.694558499963,None,"['n', 'return']","[5.211330299964175, 7.4675905999029055]",1302.694558499963,None,,,86YB,001,2023_Aug_30_1620,ExactRep-v3-final,2021.2.3,59.68356964503551,
,,,,,,,,,,,,1,0,1,0,,,,,,,,,,,,,,,,,,,,,,,,,,,,,,,,,,,,,,,,,,,,,,,,,1320.2666120999493,None,,,,,,,,,,,,,,,,,,,,,,,,,,,,,,,,,,,,,,,,,,,,,,,,,,,,,,,,,fault,119,2,aloud,old,red,1310.71779289993,None,y,1310.71779289993,None,"['y', 'return']","[8.78846449998673, 9.492131799925119]",1310.71779289993,None,,,86YB,001,2023_Aug_30_1620,ExactRep-v3-final,2021.2.3,59.68356964503551,
,,,,,,,,,,,,2,0,2,0,,,,,,,,,,,,,,,,,,,,,,,,,,,,,,,,,,,,,,,,,,,,,,,,,1324.4028734000167,None,,,,,,,,,,,,,,,,,,,,,,,,,,,,,,,,,,,,,,,,,,,,,,,,,,,,,,,,,potato,27,3,sing,old,blue,1320.7752688999753,None,y,1320.7752688999753,None,"['y', 'return']","[2.9788417000090703, 3.5789518000092357]",1320.7752688999753,None,,,86YB,001,2023_Aug_30_1620,ExactRep-v3-final,2021.2.3,59.68356964503551,
,,,,,,,,,,,,3,0,3,0,,,,,,,,,,,,,,,,,,,,,,,,,,,,,,,,,,,,,,,,,,,,,,,,,1328.4633867999073,None,,,,,,,,,,,,,,,,,,,,,,,,,,,,,,,,,,,,,,,,,,,,,,,,,,,,,,,,,idea,80,4,aloud,old,red,1324.9128772999393,None,y,1324.9128772999393,None,"['y', 'return']","[2.97710180003196, 3.4890650999732316]",1324.9128772999393,None,,,86YB,001,2023_Aug_30_1620,ExactRep-v3-final,2021.2.3,59.68356964503551,
,,,,,,,,,,,,4,0,4,0,,,,,,,,,,,,,,,,,,,,,,,,,,,,,,,,,,,,,,,,,,,,,,,,,1331.1058217999525,None,,,,,,,,,,,,,,,,,,,,,,,,,,,,,,,,,,,,,,,,,,,,,,,,,,,,,,,,,dust,42,5,silent,old,white,1328.9945983999642,None,y,1328.9945983999642,None,"['y', 'return']","[1.5992886000312865, 2.047303600003943]",1328.9945983999642,None,,,86YB,001,2023_Aug_30_1620,ExactRep-v3-final,2021.2.3,59.68356964503551,
,,,,,,,,,,,,5,0,5,0,,,,,,,,,,,,,,,,,,,,,,,,,,,,,,,,,,,,,,,,,,,,,,,,,1333.4417345999973,None,,,,,,,,,,,,,,,,,,,,,,,,,,,,,,,,,,,,,,,,,,,,,,,,,,,,,,,,,cattle,232,6,aloud,new,red,1331.6187346999068,None,n,1331.6187346999068,None,"['n', 'return']","[1.3111325000645593, 1.7835597000084817]",1331.6187346999068,None,,,86YB,001,2023_Aug_30_1620,ExactRep-v3-final,2021.2.3,59.68356964503551,
,,,,,,,,,,,,6,0,6,0,,,,,,,,,,,,,,,,,,,,,,,,,,,,,,,,,,,,,,,,,,,,,,,,,1341.4537004999584,None,,,,,,,,,,,,,,,,,,,,,,,,,,,,,,,,,,,,,,,,,,,,,,,,,,,,,,,,,coast,154,7,silent,new,white,1333.9551365999505,None,n,1333.9551365999505,None,"['n', 'return']","[6.974664999986999, 7.446752300020307]",1333.9551365999505,None,,,86YB,001,2023_Aug_30_1620,ExactRep-v3-final,2021.2.3,59.68356964503551,
,,,,,,,,,,,,7,0,7,0,,,,,,,,,,,,,,,,,,,,,,,,,,,,,,,,,,,,,,,,,,,,,,,,,1345.1051052999683,None,,,,,,,,,,,,,,,,,,,,,,,,,,,,,,,,,,,,,,,,,,,,,,,,,,,,,,,,,letter,91,8,aloud,old,red,1341.9642327999463,None,y,1341.9642327999463,None,"['y', 'return']","[2.7096612999448553, 3.0940345999551937]",1341.9642327999463,None,,,86YB,001,2023_Aug_30_1620,ExactRep-v3-final,2021.2.3,59.68356964503551,
,,,,,,,,,,,,8,0,8,0,,,,,,,,,,,,,,,,,,,,,,,,,,,,,,,,,,,,,,,,,,,,,,,,,1348.6242726999335,None,,,,,,,,,,,,,,,,,,,,,,,,,,,,,,,,,,,,,,,,,,,,,,,,,,,,,,,,,seat,127,9,silent,new,white,1345.6201189999701,None,n,1345.6201189999701,None,"['n', 'return']","[2.55778549995739, 2.9659345999825746]",1345.6201189999701,None,,,86YB,001,2023_Aug_30_1620,ExactRep-v3-final,2021.2.3,59.68356964503551,
,,,,,,,,,,,,9,0,9,0,,,,,,,,,,,,,,,,,,,,,,,,,,,,,,,,,,,,,,,,,,,,,,,,,1352.0589250999037,None,,,,,,,,,,,,,,,,,,,,,,,,,,,,,,,,,,,,,,,,,,,,,,,,,,,,,,,,,flesh,234,10,aloud,new,red,1349.139770400012,None,n,1349.139770400012,None,"['n', 'return']","[2.462310199975036, 2.854080199962482]",1349.139770400012,None,,,86YB,001,2023_Aug_30_1620,ExactRep-v3-final,2021.2.3,59.68356964503551,
,,,,,,,,,,,,10,0,10,0,,,,,,,,,,,,,,,,,,,,,,,,,,,,,,,,,,,,,,,,,,,,,,,,,1356.3718155999668,None,,,,,,,,,,,,,,,,,,,,,,,,,,,,,,,,,,,,,,,,,,,,,,,,,,,,,,,,,murder,144,11,silent,new,white,1352.5754213999026,None,y,1352.5754213999026,None,"['y', 'return']","[3.3943889000220224, 3.7467356000561267]",1352.5754213999026,None,,,86YB,001,2023_Aug_30_1620,ExactRep-v3-final,2021.2.3,59.68356964503551,
,,,,,,,,,,,,11,0,11,0,,,,,,,,,,,,,,,,,,,,,,,,,,,,,,,,,,,,,,,,,,,,,,,,,1358.7902337999549,None,,,,,,,,,,,,,,,,,,,,,,,,,,,,,,,,,,,,,,,,,,,,,,,,,,,,,,,,,poet,75,12,silent,old,white,1356.878918799921,None,y,1356.878918799921,None,"['y', 'return']","[1.522908200044185, 1.8592143999412656]",1356.878918799921,None,,,86YB,001,2023_Aug_30_1620,ExactRep-v3-final,2021.2.3,59.68356964503551,
,,,,,,,,,,,,12,0,12,0,,,,,,,,,,,,,,,,,,,,,,,,,,,,,,,,,,,,,,,,,,,,,,,,,1361.9117721999064,None,,,,,,,,,,,,,,,,,,,,,,,,,,,,,,,,,,,,,,,,,,,,,,,,,,,,,,,,,arm,132,13,silent,new,white,1359.3182750999695,None,n,1359.3182750999695,None,"['n', 'return']","[2.1877210000529885, 2.5478980999905616]",1359.3182750999695,None,,,86YB,001,2023_Aug_30_1620,ExactRep-v3-final,2021.2.3,59.68356964503551,
,,,,,,,,,,,,13,0,13,0,,,,,,,,,,,,,,,,,,,,,,,,,,,,,,,,,,,,,,,,,,,,,,,,,1364.1962670999346,None,,,,,,,,,,,,,,,,,,,,,,,,,,,,,,,,,,,,,,,,,,,,,,,,,,,,,,,,,valley,49,14,silent,old,white,1362.4182960999897,None,y,1362.4182960999897,None,"['y', 'return']","[1.4238260000711307, 1.727531100041233]",1362.4182960999897,None,,,86YB,001,2023_Aug_30_1620,ExactRep-v3-final,2021.2.3,59.68356964503551,
,,,,,,,,,,,,14,0,14,0,,,,,,,,,,,,,,,,,,,,,,,,,,,,,,,,,,,,,,,,,,,,,,,,,1372.5305480000097,None,,,,,,,,,,,,,,,,,,,,,,,,,,,,,,,,,,,,,,,,,,,,,,,,,,,,,,,,,master,171,15,sing,new,blue,1364.7034384999424,None,y,1364.7034384999424,None,"['y', 'return']","[7.098465499933809, 7.762542599928565]",1364.7034384999424,None,,,86YB,001,2023_Aug_30_1620,ExactRep-v3-final,2021.2.3,59.68356964503551,
,,,,,,,,,,,,15,0,15,0,,,,,,,,,,,,,,,,,,,,,,,,,,,,,,,,,,,,,,,,,,,,,,,,,1374.8823375999928,None,,,,,,,,,,,,,,,,,,,,,,,,,,,,,,,,,,,,,,,,,,,,,,,,,,,,,,,,,queen,166,16,aloud,new,red,1373.0670995999826,None,n,1373.0670995999826,None,"['n', 'return']","[1.366675699944608, 1.7507216000230983]",1373.0670995999826,None,,,86YB,001,2023_Aug_30_1620,ExactRep-v3-final,2021.2.3,59.68356964503551,
,,,,,,,,,,,,16,0,16,0,,,,,,,,,,,,,,,,,,,,,,,,,,,,,,,,,,,,,,,,,,,,,,,,,1377.0256605999311,None,,,,,,,,,,,,,,,,,,,,,,,,,,,,,,,,,,,,,,,,,,,,,,,,,,,,,,,,,dawn,68,17,silent,old,white,1375.41703459993,None,y,1375.41703459993,None,"['y', 'return']","[1.21680420008488, 1.5609076999826357]",1375.41703459993,None,,,86YB,001,2023_Aug_30_1620,ExactRep-v3-final,2021.2.3,59.68356964503551,
,,,,,,,,,,,,17,0,17,0,,,,,,,,,,,,,,,,,,,,,,,,,,,,,,,,,,,,,,,,,,,,,,,,,1379.6470968999201,None,,,,,,,,,,,,,,,,,,,,,,,,,,,,,,,,,,,,,,,,,,,,,,,,,,,,,,,,,safety,63,18,silent,old,white,1377.5332173999632,None,y,1377.5332173999632,None,"['y', 'return']","[1.7092391999904066, 2.052634199964814]",1377.5332173999632,None,,,86YB,001,2023_Aug_30_1620,ExactRep-v3-final,2021.2.3,59.68356964503551,
,,,,,,,,,,,,18,0,18,0,,,,,,,,,,,,,,,,,,,,,,,,,,,,,,,,,,,,,,,,,,,,,,,,,1382.7765029999427,None,,,,,,,,,,,,,,,,,,,,,,,,,,,,,,,,,,,,,,,,,,,,,,,,,,,,,,,,,corn,197,19,sing,new,blue,1380.1603168000001,None,n,1380.1603168000001,None,"['n', 'return']","[2.1697860999265686, 2.5774688000092283]",1380.1603168000001,None,,,86YB,001,2023_Aug_30_1620,ExactRep-v3-final,2021.2.3,59.68356964503551,
,,,,,,,,,,,,19,0,19,0,,,,,,,,,,,,,,,,,,,,,,,,,,,,,,,,,,,,,,,,,,,,,,,,,1388.5402871000115,None,,,,,,,,,,,,,,,,,,,,,,,,,,,,,,,,,,,,,,,,,,,,,,,,,,,,,,,,,flag,192,20,aloud,new,red,1383.2874408999924,None,n,1383.2874408999924,None,"['n', 'return']","[4.8027259999653324, 5.194353799917735]",1383.2874408999924,None,,,86YB,001,2023_Aug_30_1620,ExactRep-v3-final,2021.2.3,59.68356964503551,
,,,,,,,,,,,,20,0,20,0,,,,,,,,,,,,,,,,,,,,,,,,,,,,,,,,,,,,,,,,,,,,,,,,,1396.2202761999797,None,,,,,,,,,,,,,,,,,,,,,,,,,,,,,,,,,,,,,,,,,,,,,,,,,,,,,,,,,product,174,21,aloud,new,red,1389.0670263000065,None,n,1389.0670263000065,None,"['n', 'return']","[6.631168100051582, 7.086839399999008]",1389.0670263000065,None,,,86YB,001,2023_Aug_30_1620,ExactRep-v3-final,2021.2.3,59.68356964503551,
,,,,,,,,,,,,21,0,21,0,,,,,,,,,,,,,,,,,,,,,,,,,,,,,,,,,,,,,,,,,,,,,,,,,1398.3414455999155,None,,,,,,,,,,,,,,,,,,,,,,,,,,,,,,,,,,,,,,,,,,,,,,,,,,,,,,,,,troops,196,22,aloud,new,red,1396.738942099968,None,n,1396.738942099968,None,"['n', 'return']","[1.263042200007476, 1.5593201000010595]",1396.738942099968,None,,,86YB,001,2023_Aug_30_1620,ExactRep-v3-final,2021.2.3,59.68356964503551,
,,,,,,,,,,,,22,0,22,0,,,,,,,,,,,,,,,,,,,,,,,,,,,,,,,,,,,,,,,,,,,,,,,,,1400.4937850999413,None,,,,,,,,,,,,,,,,,,,,,,,,,,,,,,,,,,,,,,,,,,,,,,,,,,,,,,,,,shore,14,23,sing,old,blue,1398.853077900014,None,y,1398.853077900014,None,"['y', 'return']","[1.2929261000826955, 1.597073100041598]",1398.853077900014,None,,,86YB,001,2023_Aug_30_1620,ExactRep-v3-final,2021.2.3,59.68356964503551,
,,,,,,,,,,,,23,0,23,0,,,,,,,,,,,,,,,,,,,,,,,,,,,,,,,,,,,,,,,,,,,,,,,,,1403.779935300001,None,,,,,,,,,,,,,,,,,,,,,,,,,,,,,,,,,,,,,,,,,,,,,,,,,,,,,,,,,garden,231,24,sing,new,blue,1401.0074919000035,None,n,1401.0074919000035,None,"['n', 'return']","[2.4503569999942556, 2.73040120000951]",1401.0074919000035,None,,,86YB,001,2023_Aug_30_1620,ExactRep-v3-final,2021.2.3,59.68356964503551,
,,,,,,,,,,,,24,0,24,0,,,,,,,,,,,,,,,,,,,,,,,,,,,,,,,,,,,,,,,,,,,,,,,,,1407.1012777999276,None,,,,,,,,,,,,,,,,,,,,,,,,,,,,,,,,,,,,,,,,,,,,,,,,,,,,,,,,,plant,178,25,aloud,new,red,1404.295764899929,None,y,1404.295764899929,None,"['y', 'return']","[2.418064200086519, 2.7621401000069454]",1404.295764899929,None,,,86YB,001,2023_Aug_30_1620,ExactRep-v3-final,2021.2.3,59.68356964503551,
,,,,,,,,,,,,25,0,25,0,,,,,,,,,,,,,,,,,,,,,,,,,,,,,,,,,,,,,,,,,,,,,,,,,1412.5055871999357,None,,,,,,,,,,,,,,,,,,,,,,,,,,,,,,,,,,,,,,,,,,,,,,,,,,,,,,,,,leader,50,26,silent,old,white,1407.6117044999264,None,y,1407.6117044999264,None,"['y', 'return']","[4.51013900001999, 4.854814999969676]",1407.6117044999264,None,,,86YB,001,2023_Aug_30_1620,ExactRep-v3-final,2021.2.3,59.68356964503551,
,,,,,,,,,,,,26,0,26,0,,,,,,,,,,,,,,,,,,,,,,,,,,,,,,,,,,,,,,,,,,,,,,,,,1416.7578048999421,None,,,,,,,,,,,,,,,,,,,,,,,,,,,,,,,,,,,,,,,,,,,,,,,,,,,,,,,,,opinion,71,27,silent,old,white,1413.0204376999754,None,y,1413.0204376999754,None,"['y', 'return']","[3.4695164000149816, 3.6935978999827057]",1413.0204376999754,None,,,86YB,001,2023_Aug_30_1620,ExactRep-v3-final,2021.2.3,59.68356964503551,
,,,,,,,,,,,,27,0,27,0,,,,,,,,,,,,,,,,,,,,,,,,,,,,,,,,,,,,,,,,,,,,,,,,,1421.3685157999862,None,,,,,,,,,,,,,,,,,,,,,,,,,,,,,,,,,,,,,,,,,,,,,,,,,,,,,,,,,house,46,28,silent,old,white,1417.270942299976,None,y,1417.270942299976,None,"['y', 'return']","[3.7872405000962317, 4.050874600070529]",1417.270942299976,None,,,86YB,001,2023_Aug_30_1620,ExactRep-v3-final,2021.2.3,59.68356964503551,
,,,,,,,,,,,,28,0,28,0,,,,,,,,,,,,,,,,,,,,,,,,,,,,,,,,,,,,,,,,,,,,,,,,,1425.4982083999785,None,,,,,,,,,,,,,,,,,,,,,,,,,,,,,,,,,,,,,,,,,,,,,,,,,,,,,,,,,engine,115,29,aloud,old,red,1421.8825485999696,None,y,1421.8825485999696,None,"['y', 'return']","[3.255378199974075, 3.5512363999150693]",1421.8825485999696,None,,,86YB,001,2023_Aug_30_1620,ExactRep-v3-final,2021.2.3,59.68356964503551,
,,,,,,,,,,,,29,0,29,0,,,,,,,,,,,,,,,,,,,,,,,,,,,,,,,,,,,,,,,,,,,,,,,,,1428.481154799927,None,,,,,,,,,,,,,,,,,,,,,,,,,,,,,,,,,,,,,,,,,,,,,,,,,,,,,,,,,ability,33,30,sing,old,blue,1426.0187304000137,None,y,1426.0187304000137,None,"['y', 'return']","[2.1032681999495253, 2.3991261000046507]",1426.0187304000137,None,,,86YB,001,2023_Aug_30_1620,ExactRep-v3-final,2021.2.3,59.68356964503551,
,,,,,,,,,,,,30,0,30,0,,,,,,,,,,,,,,,,,,,,,,,,,,,,,,,,,,,,,,,,,,,,,,,,,1431.05841529998,None,,,,,,,,,,,,,,,,,,,,,,,,,,,,,,,,,,,,,,,,,,,,,,,,,,,,,,,,,length,5,31,sing,old,blue,1428.9860956999473,None,y,1428.9860956999473,None,"['y', 'return']","[1.7280176000203937, 2.032262099906802]",1428.9860956999473,None,,,86YB,001,2023_Aug_30_1620,ExactRep-v3-final,2021.2.3,59.68356964503551,
,,,,,,,,,,,,31,0,31,0,,,,,,,,,,,,,,,,,,,,,,,,,,,,,,,,,,,,,,,,,,,,,,,,,1437.6173226999817,None,,,,,,,,,,,,,,,,,,,,,,,,,,,,,,,,,,,,,,,,,,,,,,,,,,,,,,,,,street,239,32,sing,new,blue,1431.5694295999128,None,n,1431.5694295999128,None,"['n', 'return']","[5.704694499960169, 6.000429600011557]",1431.5694295999128,None,,,86YB,001,2023_Aug_30_1620,ExactRep-v3-final,2021.2.3,59.68356964503551,
,,,,,,,,,,,,32,0,32,0,,,,,,,,,,,,,,,,,,,,,,,,,,,,,,,,,,,,,,,,,,,,,,,,,1440.2015762999654,None,,,,,,,,,,,,,,,,,,,,,,,,,,,,,,,,,,,,,,,,,,,,,,,,,,,,,,,,,artist,128,33,silent,new,white,1438.1277643999783,None,y,1438.1277643999783,None,"['y', 'return']","[1.7543824999593198, 2.0342639998998493]",1438.1277643999783,None,,,86YB,001,2023_Aug_30_1620,ExactRep-v3-final,2021.2.3,59.68356964503551,
,,,,,,,,,,,,33,0,33,0,,,,,,,,,,,,,,,,,,,,,,,,,,,,,,,,,,,,,,,,,,,,,,,,,1445.8950398999732,None,,,,,,,,,,,,,,,,,,,,,,,,,,,,,,,,,,,,,,,,,,,,,,,,,,,,,,,,,custom,210,34,aloud,new,red,1440.7117637000047,None,n,1440.7117637000047,None,"['n', 'return']","[4.842006799997762, 5.130361000075936]",1440.7117637000047,None,,,86YB,001,2023_Aug_30_1620,ExactRep-v3-final,2021.2.3,59.68356964503551,
,,,,,,,,,,,,34,0,34,0,,,,,,,,,,,,,,,,,,,,,,,,,,,,,,,,,,,,,,,,,,,,,,,,,1448.5229131999658,None,,,,,,,,,,,,,,,,,,,,,,,,,,,,,,,,,,,,,,,,,,,,,,,,,,,,,,,,,slave,123,35,silent,new,white,1446.4025317999767,None,n,1446.4025317999767,None,"['n', 'return']","[1.7915045999689028, 2.0792687999783084]",1446.4025317999767,None,,,86YB,001,2023_Aug_30_1620,ExactRep-v3-final,2021.2.3,59.68356964503551,
,,,,,,,,,,,,35,0,35,0,,,,,,,,,,,,,,,,,,,,,,,,,,,,,,,,,,,,,,,,,,,,,,,,,1452.4432520999108,None,,,,,,,,,,,,,,,,,,,,,,,,,,,,,,,,,,,,,,,,,,,,,,,,,,,,,,,,,mind,216,36,aloud,new,red,1449.055586499977,None,n,1449.055586499977,None,"['n', 'return']","[3.0503544999519363, 3.3222042999695987]",1449.055586499977,None,,,86YB,001,2023_Aug_30_1620,ExactRep-v3-final,2021.2.3,59.68356964503551,
,,,,,,,,,,,,36,0,36,0,,,,,,,,,,,,,,,,,,,,,,,,,,,,,,,,,,,,,,,,,,,,,,,,,1455.0636962999124,None,,,,,,,,,,,,,,,,,,,,,,,,,,,,,,,,,,,,,,,,,,,,,,,,,,,,,,,,,truth,175,37,sing,new,blue,1452.9692918999353,None,n,1452.9692918999353,None,"['n', 'return']","[1.7925087000476196, 2.04873130004853]",1452.9692918999353,None,,,86YB,001,2023_Aug_30_1620,ExactRep-v3-final,2021.2.3,59.68356964503551,
,,,,,,,,,,,,37,0,37,0,,,,,,,,,,,,,,,,,,,,,,,,,,,,,,,,,,,,,,,,,,,,,,,,,1461.4422922999365,None,,,,,,,,,,,,,,,,,,,,,,,,,,,,,,,,,,,,,,,,,,,,,,,,,,,,,,,,,thought,139,38,silent,new,white,1455.5776932999725,None,n,1455.5776932999725,None,"['n', 'return']","[4.968827900011092, 5.816322400001809]",1455.5776932999725,None,,,86YB,001,2023_Aug_30_1620,ExactRep-v3-final,2021.2.3,59.68356964503551,
,,,,,,,,,,,,38,0,38,0,,,,,,,,,,,,,,,,,,,,,,,,,,,,,,,,,,,,,,,,,,,,,,,,,1464.5925451999065,None,,,,,,,,,,,,,,,,,,,,,,,,,,,,,,,,,,,,,,,,,,,,,,,,,,,,,,,,,power,108,39,aloud,old,red,1461.9535709999036,None,n,1461.9535709999036,None,"['n', 'return']","[2.3042434999952093, 2.5682921999832615]",1461.9535709999036,None,,,86YB,001,2023_Aug_30_1620,ExactRep-v3-final,2021.2.3,59.68356964503551,
,,,,,,,,,,,,39,0,39,0,,,,,,,,,,,,,,,,,,,,,,,,,,,,,,,,,,,,,,,,,,,,,,,,,1466.9396453999216,None,,,,,,,,,,,,,,,,,,,,,,,,,,,,,,,,,,,,,,,,,,,,,,,,,,,,,,,,,ocean,141,40,silent,new,white,1465.105361899943,None,n,1465.105361899943,None,"['n', 'return']","[1.313497900031507, 1.7684853000100702]",1465.105361899943,None,,,86YB,001,2023_Aug_30_1620,ExactRep-v3-final,2021.2.3,59.68356964503551,
,,,,,,,,,,,,40,0,40,0,,,,,,,,,,,,,,,,,,,,,,,,,,,,,,,,,,,,,,,,,,,,,,,,,1471.729416499962,None,,,,,,,,,,,,,,,,,,,,,,,,,,,,,,,,,,,,,,,,,,,,,,,,,,,,,,,,,bar,157,41,silent,new,white,1467.4589640999911,None,n,1467.4589640999911,None,"['n', 'return']","[3.942886200034991, 4.206942900083959]",1467.4589640999911,None,,,86YB,001,2023_Aug_30_1620,ExactRep-v3-final,2021.2.3,59.68356964503551,
,,,,,,,,,,,,41,0,41,0,,,,,,,,,,,,,,,,,,,,,,,,,,,,,,,,,,,,,,,,,,,,,,,,,1474.2427249000175,None,,,,,,,,,,,,,,,,,,,,,,,,,,,,,,,,,,,,,,,,,,,,,,,,,,,,,,,,,doctor,159,42,silent,new,white,1472.2443077999633,None,n,1472.2443077999633,None,"['n', 'return']","[1.5979251000098884, 1.9415098000317812]",1472.2443077999633,None,,,86YB,001,2023_Aug_30_1620,ExactRep-v3-final,2021.2.3,59.68356964503551,
,,,,,,,,,,,,42,0,42,0,,,,,,,,,,,,,,,,,,,,,,,,,,,,,,,,,,,,,,,,,,,,,,,,,1476.3382483000169,None,,,,,,,,,,,,,,,,,,,,,,,,,,,,,,,,,,,,,,,,,,,,,,,,,,,,,,,,,insect,58,43,silent,old,white,1474.7498160999967,None,y,1474.7498160999967,None,"['y', 'return']","[1.2680041000712663, 1.5400381000945345]",1474.7498160999967,None,,,86YB,001,2023_Aug_30_1620,ExactRep-v3-final,2021.2.3,59.68356964503551,
,,,,,,,,,,,,43,0,43,0,,,,,,,,,,,,,,,,,,,,,,,,,,,,,,,,,,,,,,,,,,,,,,,,,1486.7755896999734,None,,,,,,,,,,,,,,,,,,,,,,,,,,,,,,,,,,,,,,,,,,,,,,,,,,,,,,,,,hour,162,44,aloud,new,red,1476.8479660999728,None,n,1476.8479660999728,None,"['y', 'backspace', 'n', 'return']","[6.47384420002345, 8.538131000008434, 9.497813599999063, 9.865820799954236]",1476.8479660999728,None,,,86YB,001,2023_Aug_30_1620,ExactRep-v3-final,2021.2.3,59.68356964503551,
,,,,,,,,,,,,44,0,44,0,,,,,,,,,,,,,,,,,,,,,,,,,,,,,,,,,,,,,,,,,,,,,,,,,1492.3874056999339,None,,,,,,,,,,,,,,,,,,,,,,,,,,,,,,,,,,,,,,,,,,,,,,,,,,,,,,,,,earth,3,45,sing,old,blue,1487.2921574999345,None,y,1487.2921574999345,None,"['y', 'return']","[3.3979398000519723, 5.029718399979174]",1487.2921574999345,None,,,86YB,001,2023_Aug_30_1620,ExactRep-v3-final,2021.2.3,59.68356964503551,
,,,,,,,,,,,,45,0,45,0,,,,,,,,,,,,,,,,,,,,,,,,,,,,,,,,,,,,,,,,,,,,,,,,,1497.877877599909,None,,,,,,,,,,,,,,,,,,,,,,,,,,,,,,,,,,,,,,,,,,,,,,,,,,,,,,,,,chief,25,46,sing,old,blue,1492.897422799957,None,n,1492.897422799957,None,"['n', 'return']","[4.488304500002414, 4.928623199928552]",1492.897422799957,None,,,86YB,001,2023_Aug_30_1620,ExactRep-v3-final,2021.2.3,59.68356964503551,
,,,,,,,,,,,,46,0,46,0,,,,,,,,,,,,,,,,,,,,,,,,,,,,,,,,,,,,,,,,,,,,,,,,,1501.1691826999886,None,,,,,,,,,,,,,,,,,,,,,,,,,,,,,,,,,,,,,,,,,,,,,,,,,,,,,,,,,series,114,47,aloud,old,red,1498.3874419999775,None,y,1498.3874419999775,None,"['y', 'return']","[2.390533300000243, 2.7264327000593767]",1498.3874419999775,None,,,86YB,001,2023_Aug_30_1620,ExactRep-v3-final,2021.2.3,59.68356964503551,
,,,,,,,,,,,,47,0,47,0,,,,,,,,,,,,,,,,,,,,,,,,,,,,,,,,,,,,,,,,,,,,,,,,,1503.219644399942,None,,,,,,,,,,,,,,,,,,,,,,,,,,,,,,,,,,,,,,,,,,,,,,,,,,,,,,,,,devil,200,48,aloud,new,red,1501.6740950999083,None,n,1501.6740950999083,None,"['n', 'return']","[1.1757334000431001, 1.4877193999709561]",1501.6740950999083,None,,,86YB,001,2023_Aug_30_1620,ExactRep-v3-final,2021.2.3,59.68356964503551,
,,,,,,,,,,,,48,0,48,0,,,,,,,,,,,,,,,,,,,,,,,,,,,,,,,,,,,,,,,,,,,,,,,,,1506.382847599918,None,,,,,,,,,,,,,,,,,,,,,,,,,,,,,,,,,,,,,,,,,,,,,,,,,,,,,,,,,salary,32,49,sing,old,blue,1503.7261177999899,None,n,1503.7261177999899,None,"['n', 'return']","[2.2518057000124827, 2.5957595000509173]",1503.7261177999899,None,,,86YB,001,2023_Aug_30_1620,ExactRep-v3-final,2021.2.3,59.68356964503551,
,,,,,,,,,,,,49,0,49,0,,,,,,,,,,,,,,,,,,,,,,,,,,,,,,,,,,,,,,,,,,,,,,,,,1510.005525699933,None,,,,,,,,,,,,,,,,,,,,,,,,,,,,,,,,,,,,,,,,,,,,,,,,,,,,,,,,,mother,15,50,sing,old,blue,1506.917486099992,None,y,1506.917486099992,None,"['y', 'return']","[2.6923271999694407, 3.044875400024466]",1506.917486099992,None,,,86YB,001,2023_Aug_30_1620,ExactRep-v3-final,2021.2.3,59.68356964503551,
,,,,,,,,,,,,50,0,50,0,,,,,,,,,,,,,,,,,,,,,,,,,,,,,,,,,,,,,,,,,,,,,,,,,1512.3727367999963,None,,,,,,,,,,,,,,,,,,,,,,,,,,,,,,,,,,,,,,,,,,,,,,,,,,,,,,,,,cash,165,51,sing,new,blue,1510.5148745999904,None,n,1510.5148745999904,None,"['n', 'return']","[1.5271339000901207, 1.8151658000424504]",1510.5148745999904,None,,,86YB,001,2023_Aug_30_1620,ExactRep-v3-final,2021.2.3,59.68356964503551,
,,,,,,,,,,,,51,0,51,0,,,,,,,,,,,,,,,,,,,,,,,,,,,,,,,,,,,,,,,,,,,,,,,,,1515.5926695999224,None,,,,,,,,,,,,,,,,,,,,,,,,,,,,,,,,,,,,,,,,,,,,,,,,,,,,,,,,,author,92,52,aloud,old,red,1512.8845404000022,None,y,1512.8845404000022,None,"['y', 'return']","[2.389586800010875, 2.6695805999916047]",1512.8845404000022,None,,,86YB,001,2023_Aug_30_1620,ExactRep-v3-final,2021.2.3,59.68356964503551,
,,,,,,,,,,,,52,0,52,0,,,,,,,,,,,,,,,,,,,,,,,,,,,,,,,,,,,,,,,,,,,,,,,,,1518.028449799982,None,,,,,,,,,,,,,,,,,,,,,,,,,,,,,,,,,,,,,,,,,,,,,,,,,,,,,,,,,pipe,24,53,sing,old,blue,1516.103478499921,None,y,1516.103478499921,None,"['y', 'return']","[1.5623904999811202, 1.8829474999802187]",1516.103478499921,None,,,86YB,001,2023_Aug_30_1620,ExactRep-v3-final,2021.2.3,59.68356964503551,
,,,,,,,,,,,,53,0,53,0,,,,,,,,,,,,,,,,,,,,,,,,,,,,,,,,,,,,,,,,,,,,,,,,,1520.9157993999543,None,,,,,,,,,,,,,,,,,,,,,,,,,,,,,,,,,,,,,,,,,,,,,,,,,,,,,,,,,lad,116,54,aloud,old,red,1518.5392487999052,None,y,1518.5392487999052,None,"['y', 'return']","[1.9904939000261948, 2.3268964000744745]",1518.5392487999052,None,,,86YB,001,2023_Aug_30_1620,ExactRep-v3-final,2021.2.3,59.68356964503551,
,,,,,,,,,,,,54,0,54,0,,,,,,,,,,,,,,,,,,,,,,,,,,,,,,,,,,,,,,,,,,,,,,,,,1524.3807804000098,None,,,,,,,,,,,,,,,,,,,,,,,,,,,,,,,,,,,,,,,,,,,,,,,,,,,,,,,,,form,10,55,sing,old,blue,1521.4277915999992,None,y,1521.4277915999992,None,"['y', 'return']","[2.5825027000391856, 2.885963900014758]",1521.4277915999992,None,,,86YB,001,2023_Aug_30_1620,ExactRep-v3-final,2021.2.3,59.68356964503551,
,,,,,,,,,,,,55,0,55,0,,,,,,,,,,,,,,,,,,,,,,,,,,,,,,,,,,,,,,,,,,,,,,,,,1527.102034999989,None,,,,,,,,,,,,,,,,,,,,,,,,,,,,,,,,,,,,,,,,,,,,,,,,,,,,,,,,,fortune,208,56,aloud,new,red,1524.897156199906,None,y,1524.897156199906,None,"['y', 'return']","[1.8407979999901727, 2.1608613999560475]",1524.897156199906,None,,,86YB,001,2023_Aug_30_1620,ExactRep-v3-final,2021.2.3,59.68356964503551,
,,,,,,,,,,,,56,0,56,0,,,,,,,,,,,,,,,,,,,,,,,,,,,,,,,,,,,,,,,,,,,,,,,,,1531.1921447999775,None,,,,,,,,,,,,,,,,,,,,,,,,,,,,,,,,,,,,,,,,,,,,,,,,,,,,,,,,,paper,47,57,silent,old,white,1527.622267199913,None,y,1527.622267199913,None,"['y', 'return']","[2.6116958999773487, 3.5235560999717563]",1527.622267199913,None,,,86YB,001,2023_Aug_30_1620,ExactRep-v3-final,2021.2.3,59.68356964503551,
,,,,,,,,,,,,57,0,57,0,,,,,,,,,,,,,,,,,,,,,,,,,,,,,,,,,,,,,,,,,,,,,,,,,1535.052904299926,None,,,,,,,,,,,,,,,,,,,,,,,,,,,,,,,,,,,,,,,,,,,,,,,,,,,,,,,,,teacher,167,58,sing,new,blue,1531.7025864999741,None,n,1531.7025864999741,None,"['n', 'return']","[2.9392622999148443, 3.2912321999901906]",1531.7025864999741,None,,,86YB,001,2023_Aug_30_1620,ExactRep-v3-final,2021.2.3,59.68356964503551,
,,,,,,,,,,,,58,0,58,0,,,,,,,,,,,,,,,,,,,,,,,,,,,,,,,,,,,,,,,,,,,,,,,,,1539.1143882999895,None,,,,,,,,,,,,,,,,,,,,,,,,,,,,,,,,,,,,,,,,,,,,,,,,,,,,,,,,,person,180,59,aloud,new,red,1535.559348299983,None,n,1535.559348299983,None,"['n', 'return']","[2.8984632999636233, 3.5150385999586433]",1535.559348299983,None,,,86YB,001,2023_Aug_30_1620,ExactRep-v3-final,2021.2.3,59.68356964503551,
,,,,,,,,,,,,59,0,59,0,,,,,,,,,,,,,,,,,,,,,,,,,,,,,,,,,,,,,,,,,,,,,,,,,1541.9027865999378,None,,,,,,,,,,,,,,,,,,,,,,,,,,,,,,,,,,,,,,,,,,,,,,,,,,,,,,,,,shame,53,60,silent,old,white,1539.6283013999928,None,y,1539.6283013999928,None,"['y', 'return']","[1.893577800015919, 2.2135257000336424]",1539.6283013999928,None,,,86YB,001,2023_Aug_30_1620,ExactRep-v3-final,2021.2.3,59.68356964503551,
,,,,,,,,,,,,60,0,60,0,,,,,,,,,,,,,,,,,,,,,,,,,,,,,,,,,,,,,,,,,,,,,,,,,1546.0092756999657,None,,,,,,,,,,,,,,,,,,,,,,,,,,,,,,,,,,,,,,,,,,,,,,,,,,,,,,,,,owner,0,61,sing,old,blue,1542.413283700007,None,n,1542.413283700007,None,"['n', 'return']","[3.148769300081767, 3.54071600001771]",1542.413283700007,None,,,86YB,001,2023_Aug_30_1620,ExactRep-v3-final,2021.2.3,59.68356964503551,
,,,,,,,,,,,,61,0,61,0,,,,,,,,,,,,,,,,,,,,,,,,,,,,,,,,,,,,,,,,,,,,,,,,,1551.2455103999237,None,,,,,,,,,,,,,,,,,,,,,,,,,,,,,,,,,,,,,,,,,,,,,,,,,,,,,,,,,dress,118,62,aloud,old,red,1546.51777019992,None,n,1546.51777019992,None,"['n', 'return']","[4.380102000082843, 4.684069500071928]",1546.51777019992,None,,,86YB,001,2023_Aug_30_1620,ExactRep-v3-final,2021.2.3,59.68356964503551,
,,,,,,,,,,,,62,0,62,0,,,,,,,,,,,,,,,,,,,,,,,,,,,,,,,,,,,,,,,,,,,,,,,,,1557.1551901999628,None,,,,,,,,,,,,,,,,,,,,,,,,,,,,,,,,,,,,,,,,,,,,,,,,,,,,,,,,,meeting,55,63,silent,old,white,1551.7615718999878,None,n,1551.7615718999878,None,"['n', 'return']","[3.640460400027223, 5.344494599965401]",1551.7615718999878,None,,,86YB,001,2023_Aug_30_1620,ExactRep-v3-final,2021.2.3,59.68356964503551,
,,,,,,,,,,,,63,0,63,0,,,,,,,,,,,,,,,,,,,,,,,,,,,,,,,,,,,,,,,,,,,,,,,,,1559.7716722999467,None,,,,,,,,,,,,,,,,,,,,,,,,,,,,,,,,,,,,,,,,,,,,,,,,,,,,,,,,,church,84,64,aloud,old,red,1557.6730328999693,None,y,1557.6730328999693,None,"['y', 'return']","[1.6328625000314787, 2.049013600102626]",1557.6730328999693,None,,,86YB,001,2023_Aug_30_1620,ExactRep-v3-final,2021.2.3,59.68356964503551,
,,,,,,,,,,,,64,0,64,0,,,,,,,,,,,,,,,,,,,,,,,,,,,,,,,,,,,,,,,,,,,,,,,,,1566.2347851999803,None,,,,,,,,,,,,,,,,,,,,,,,,,,,,,,,,,,,,,,,,,,,,,,,,,,,,,,,,,advice,44,65,silent,old,white,1560.2823213000083,None,n,1560.2823213000083,None,"['n', 'return']","[5.591665699961595, 5.903807499911636]",1560.2823213000083,None,,,86YB,001,2023_Aug_30_1620,ExactRep-v3-final,2021.2.3,59.68356964503551,
,,,,,,,,,,,,65,0,65,0,,,,,,,,,,,,,,,,,,,,,,,,,,,,,,,,,,,,,,,,,,,,,,,,,1571.069543199963,None,,,,,,,,,,,,,,,,,,,,,,,,,,,,,,,,,,,,,,,,,,,,,,,,,,,,,,,,,chance,17,66,sing,old,blue,1566.739117299905,None,y,1566.739117299905,None,"['y', 'return']","[3.9427374000661075, 4.278672800050117]",1566.739117299905,None,,,86YB,001,2023_Aug_30_1620,ExactRep-v3-final,2021.2.3,59.68356964503551,
,,,,,,,,,,,,66,0,66,0,,,,,,,,,,,,,,,,,,,,,,,,,,,,,,,,,,,,,,,,,,,,,,,,,1589.3486681999639,None,,,,,,,,,,,,,,,,,,,,,,,,,,,,,,,,,,,,,,,,,,,,,,,,,,,,,,,,,honour,90,67,aloud,old,red,1571.5779183999402,None,y,1571.5779183999402,None,"['y', 'return']","[17.135796100017615, 17.72812330001034]",1571.5779183999402,None,,,86YB,001,2023_Aug_30_1620,ExactRep-v3-final,2021.2.3,59.68356964503551,
,,,,,,,,,,,,67,0,67,0,,,,,,,,,,,,,,,,,,,,,,,,,,,,,,,,,,,,,,,,,,,,,,,,,1597.1766717999708,None,,,,,,,,,,,,,,,,,,,,,,,,,,,,,,,,,,,,,,,,,,,,,,,,,,,,,,,,,shock,38,68,sing,old,blue,1589.8603326999582,None,n,1589.8603326999582,None,"['n', 'return']","[6.957471199915744, 7.269824699964374]",1589.8603326999582,None,,,86YB,001,2023_Aug_30_1620,ExactRep-v3-final,2021.2.3,59.68356964503551,
,,,,,,,,,,,,68,0,68,0,,,,,,,,,,,,,,,,,,,,,,,,,,,,,,,,,,,,,,,,,,,,,,,,,1606.126220199978,None,,,,,,,,,,,,,,,,,,,,,,,,,,,,,,,,,,,,,,,,,,,,,,,,,,,,,,,,,cottage,30,69,sing,old,blue,1597.6858634999953,None,y,1597.6858634999953,None,"['y', 'return']","[8.044040000066161, 8.388176300097257]",1597.6858634999953,None,,,86YB,001,2023_Aug_30_1620,ExactRep-v3-final,2021.2.3,59.68356964503551,
,,,,,,,,,,,,69,0,69,0,,,,,,,,,,,,,,,,,,,,,,,,,,,,,,,,,,,,,,,,,,,,,,,,,1609.8989709999878,None,,,,,,,,,,,,,,,,,,,,,,,,,,,,,,,,,,,,,,,,,,,,,,,,,,,,,,,,,soul,102,70,aloud,old,red,1606.6318104999373,None,n,1606.6318104999373,None,"['n', 'return']","[2.9378887000493705, 3.2019458999857306]",1606.6318104999373,None,,,86YB,001,2023_Aug_30_1620,ExactRep-v3-final,2021.2.3,59.68356964503551,
,,,,,,,,,,,,70,0,70,0,,,,,,,,,,,,,,,,,,,,,,,,,,,,,,,,,,,,,,,,,,,,,,,,,1617.4145723999245,None,,,,,,,,,,,,,,,,,,,,,,,,,,,,,,,,,,,,,,,,,,,,,,,,,,,,,,,,,car,203,71,sing,new,blue,1610.4209040999413,None,n,1610.4209040999413,None,"['n', 'return']","[6.6768103000940755, 6.9410647000186145]",1610.4209040999413,None,,,86YB,001,2023_Aug_30_1620,ExactRep-v3-final,2021.2.3,59.68356964503551,
,,,,,,,,,,,,71,0,71,0,,,,,,,,,,,,,,,,,,,,,,,,,,,,,,,,,,,,,,,,,,,,,,,,,1620.7574902999913,None,,,,,,,,,,,,,,,,,,,,,,,,,,,,,,,,,,,,,,,,,,,,,,,,,,,,,,,,,factory,160,72,aloud,new,red,1617.9452019999735,None,n,1617.9452019999735,None,"['n', 'return']","[2.3924988999497145, 2.752519299974665]",1617.9452019999735,None,,,86YB,001,2023_Aug_30_1620,ExactRep-v3-final,2021.2.3,59.68356964503551,
,,,,,,,,,,,,72,0,72,0,,,,,,,,,,,,,,,,,,,,,,,,,,,,,,,,,,,,,,,,,,,,,,,,,1623.4530752999708,None,,,,,,,,,,,,,,,,,,,,,,,,,,,,,,,,,,,,,,,,,,,,,,,,,,,,,,,,,dream,28,73,sing,old,blue,1621.259232099983,None,n,1621.259232099983,None,"['n', 'return']","[1.838568800012581, 2.142533899983391]",1621.259232099983,None,,,86YB,001,2023_Aug_30_1620,ExactRep-v3-final,2021.2.3,59.68356964503551,
,,,,,,,,,,,,73,0,73,0,,,,,,,,,,,,,,,,,,,,,,,,,,,,,,,,,,,,,,,,,,,,,,,,,1628.1020466999616,None,,,,,,,,,,,,,,,,,,,,,,,,,,,,,,,,,,,,,,,,,,,,,,,,,,,,,,,,,blossom,156,74,silent,new,white,1623.9629625999369,None,n,1623.9629625999369,None,"['n', 'return']","[3.798799299984239, 4.086744299973361]",1623.9629625999369,None,,,86YB,001,2023_Aug_30_1620,ExactRep-v3-final,2021.2.3,59.68356964503551,
,,,,,,,,,,,,74,0,74,0,,,,,,,,,,,,,,,,,,,,,,,,,,,,,,,,,,,,,,,,,,,,,,,,,1632.1793850999093,None,,,,,,,,,,,,,,,,,,,,,,,,,,,,,,,,,,,,,,,,,,,,,,,,,,,,,,,,,friend,26,75,sing,old,blue,1628.6263396999566,None,y,1628.6263396999566,None,"['y', 'return']","[2.223681299947202, 3.4957324999850243]",1628.6263396999566,None,,,86YB,001,2023_Aug_30_1620,ExactRep-v3-final,2021.2.3,59.68356964503551,
,,,,,,,,,,,,75,0,75,0,,,,,,,,,,,,,,,,,,,,,,,,,,,,,,,,,,,,,,,,,,,,,,,,,1640.3137295999331,None,,,,,,,,,,,,,,,,,,,,,,,,,,,,,,,,,,,,,,,,,,,,,,,,,,,,,,,,,ticket,89,76,aloud,old,red,1632.6873498999048,None,y,1632.6873498999048,None,"['y', 'return']","[7.178423299919814, 7.56235799996648]",1632.6873498999048,None,,,86YB,001,2023_Aug_30_1620,ExactRep-v3-final,2021.2.3,59.68356964503551,
,,,,,,,,,,,,76,0,76,0,,,,,,,,,,,,,,,,,,,,,,,,,,,,,,,,,,,,,,,,,,,,,,,,,1646.0131799000083,None,,,,,,,,,,,,,,,,,,,,,,,,,,,,,,,,,,,,,,,,,,,,,,,,,,,,,,,,,priest,124,77,silent,new,white,1640.871114199981,None,y,1640.871114199981,None,"['y', 'return']","[4.811068600043654, 5.0826999000273645]",1640.871114199981,None,,,86YB,001,2023_Aug_30_1620,ExactRep-v3-final,2021.2.3,59.68356964503551,
,,,,,,,,,,,,77,0,77,0,,,,,,,,,,,,,,,,,,,,,,,,,,,,,,,,,,,,,,,,,,,,,,,,,1649.216145799961,None,,,,,,,,,,,,,,,,,,,,,,,,,,,,,,,,,,,,,,,,,,,,,,,,,,,,,,,,,toy,204,78,aloud,new,red,1646.518424000009,None,n,1646.518424000009,None,"['n', 'return']","[2.387497500050813, 2.651282100006938]",1646.518424000009,None,,,86YB,001,2023_Aug_30_1620,ExactRep-v3-final,2021.2.3,59.68356964503551,
,,,,,,,,,,,,78,0,78,0,,,,,,,,,,,,,,,,,,,,,,,,,,,,,,,,,,,,,,,,,,,,,,,,,1653.899705399992,None,,,,,,,,,,,,,,,,,,,,,,,,,,,,,,,,,,,,,,,,,,,,,,,,,,,,,,,,,bird,83,79,aloud,old,red,1649.7218263999093,None,n,1649.7218263999093,None,"['n', 'return']","[3.847972400020808, 4.136161600006744]",1649.7218263999093,None,,,86YB,001,2023_Aug_30_1620,ExactRep-v3-final,2021.2.3,59.68356964503551,
,,,,,,,,,,,,79,0,79,0,,,,,,,,,,,,,,,,,,,,,,,,,,,,,,,,,,,,,,,,,,,,,,,,,1658.7620588999707,None,,,,,,,,,,,,,,,,,,,,,,,,,,,,,,,,,,,,,,,,,,,,,,,,,,,,,,,,,book,16,80,sing,old,blue,1654.4082726999186,None,y,1654.4082726999186,None,"['y', 'return']","[4.050259400042705, 4.297550600022078]",1654.4082726999186,None,,,86YB,001,2023_Aug_30_1620,ExactRep-v3-final,2021.2.3,59.68356964503551,
,,,,,,,,,,,,80,0,80,0,,,,,,,,,,,,,,,,,,,,,,,,,,,,,,,,,,,,,,,,,,,,,,,,,1660.8026826999849,None,,,,,,,,,,,,,,,,,,,,,,,,,,,,,,,,,,,,,,,,,,,,,,,,,,,,,,,,,water,211,81,sing,new,blue,1659.283588099992,None,n,1659.283588099992,None,"['n', 'return']","[1.2142215999774635, 1.478778599994257]",1659.283588099992,None,,,86YB,001,2023_Aug_30_1620,ExactRep-v3-final,2021.2.3,59.68356964503551,
,,,,,,,,,,,,81,0,81,0,,,,,,,,,,,,,,,,,,,,,,,,,,,,,,,,,,,,,,,,,,,,,,,,,1665.68960719998,None,,,,,,,,,,,,,,,,,,,,,,,,,,,,,,,,,,,,,,,,,,,,,,,,,,,,,,,,,butter,164,82,aloud,new,red,1661.3298729999224,None,n,1661.3298729999224,None,"['n', 'return']","[3.271905399975367, 4.296159100020304]",1661.3298729999224,None,,,86YB,001,2023_Aug_30_1620,ExactRep-v3-final,2021.2.3,59.68356964503551,
,,,,,,,,,,,,82,0,82,0,,,,,,,,,,,,,,,,,,,,,,,,,,,,,,,,,,,,,,,,,,,,,,,,,1675.4080407000147,None,,,,,,,,,,,,,,,,,,,,,,,,,,,,,,,,,,,,,,,,,,,,,,,,,,,,,,,,,meadow,103,83,aloud,old,red,1666.2195600999985,None,y,1666.2195600999985,None,"['y', 'return']","[8.670179300010204, 9.134501000051387]",1666.2195600999985,None,,,86YB,001,2023_Aug_30_1620,ExactRep-v3-final,2021.2.3,59.68356964503551,
,,,,,,,,,,,,83,0,83,0,,,,,,,,,,,,,,,,,,,,,,,,,,,,,,,,,,,,,,,,,,,,,,,,,1678.6534021999687,None,,,,,,,,,,,,,,,,,,,,,,,,,,,,,,,,,,,,,,,,,,,,,,,,,,,,,,,,,money,104,84,aloud,old,red,1675.9143937999615,None,n,1675.9143937999615,None,"['n', 'return']","[2.3996032999129966, 2.6717939999653026]",1675.9143937999615,None,,,86YB,001,2023_Aug_30_1620,ExactRep-v3-final,2021.2.3,59.68356964503551,
,,,,,,,,,,,,84,0,84,0,,,,,,,,,,,,,,,,,,,,,,,,,,,,,,,,,,,,,,,,,,,,,,,,,1681.6645323999692,None,,,,,,,,,,,,,,,,,,,,,,,,,,,,,,,,,,,,,,,,,,,,,,,,,,,,,,,,,quality,76,85,silent,old,white,1679.168249499984,None,y,1679.168249499984,None,"['y', 'return']","[2.15345950005576, 2.441743200062774]",1679.168249499984,None,,,86YB,001,2023_Aug_30_1620,ExactRep-v3-final,2021.2.3,59.68356964503551,
,,,,,,,,,,,,85,0,85,0,,,,,,,,,,,,,,,,,,,,,,,,,,,,,,,,,,,,,,,,,,,,,,,,,1685.3586601999123,None,,,,,,,,,,,,,,,,,,,,,,,,,,,,,,,,,,,,,,,,,,,,,,,,,,,,,,,,,blood,51,86,silent,old,white,1682.1717187999748,None,y,1682.1717187999748,None,"['y', 'return']","[2.3983240999514237, 3.1502436000155285]",1682.1717187999748,None,,,86YB,001,2023_Aug_30_1620,ExactRep-v3-final,2021.2.3,59.68356964503551,
,,,,,,,,,,,,86,0,86,0,,,,,,,,,,,,,,,,,,,,,,,,,,,,,,,,,,,,,,,,,,,,,,,,,1687.768761000014,None,,,,,,,,,,,,,,,,,,,,,,,,,,,,,,,,,,,,,,,,,,,,,,,,,,,,,,,,,winter,135,87,silent,new,white,1685.8772213999182,None,y,1685.8772213999182,None,"['y', 'return']","[1.5085974000394344, 1.8446412000339478]",1685.8772213999182,None,,,86YB,001,2023_Aug_30_1620,ExactRep-v3-final,2021.2.3,59.68356964503551,
,,,,,,,,,,,,87,0,87,0,,,,,,,,,,,,,,,,,,,,,,,,,,,,,,,,,,,,,,,,,,,,,,,,,1690.216960699996,None,,,,,,,,,,,,,,,,,,,,,,,,,,,,,,,,,,,,,,,,,,,,,,,,,,,,,,,,,theory,206,88,aloud,new,red,1688.277131299954,None,y,1688.277131299954,None,"['y', 'return']","[1.5809879000298679, 1.8685352000175044]",1688.277131299954,None,,,86YB,001,2023_Aug_30_1620,ExactRep-v3-final,2021.2.3,59.68356964503551,
,,,,,,,,,,,,88,0,88,0,,,,,,,,,,,,,,,,,,,,,,,,,,,,,,,,,,,,,,,,,,,,,,,,,1692.3745874000015,None,,,,,,,,,,,,,,,,,,,,,,,,,,,,,,,,,,,,,,,,,,,,,,,,,,,,,,,,,heaven,98,89,aloud,old,red,1690.7350616999902,None,y,1690.7350616999902,None,"['y', 'return']","[1.2987398999975994, 1.5867112999549136]",1690.7350616999902,None,,,86YB,001,2023_Aug_30_1620,ExactRep-v3-final,2021.2.3,59.68356964503551,
,,,,,,,,,,,,89,0,89,0,,,,,,,,,,,,,,,,,,,,,,,,,,,,,,,,,,,,,,,,,,,,,,,,,1694.8890733999433,None,,,,,,,,,,,,,,,,,,,,,,,,,,,,,,,,,,,,,,,,,,,,,,,,,,,,,,,,,deed,176,90,aloud,new,red,1692.8845298999222,None,n,1692.8845298999222,None,"['n', 'return']","[1.6697970000095665, 1.9573013000190258]",1692.8845298999222,None,,,86YB,001,2023_Aug_30_1620,ExactRep-v3-final,2021.2.3,59.68356964503551,
,,,,,,,,,,,,90,0,90,0,,,,,,,,,,,,,,,,,,,,,,,,,,,,,,,,,,,,,,,,,,,,,,,,,1697.8632171999197,None,,,,,,,,,,,,,,,,,,,,,,,,,,,,,,,,,,,,,,,,,,,,,,,,,,,,,,,,,passion,205,91,sing,new,blue,1695.3990980999079,None,n,1695.3990980999079,None,"['n', 'return']","[2.002707500010729, 2.410897299996577]",1695.3990980999079,None,,,86YB,001,2023_Aug_30_1620,ExactRep-v3-final,2021.2.3,59.68356964503551,
,,,,,,,,,,,,91,0,91,0,,,,,,,,,,,,,,,,,,,,,,,,,,,,,,,,,,,,,,,,,,,,,,,,,1700.6570609000046,None,,,,,,,,,,,,,,,,,,,,,,,,,,,,,,,,,,,,,,,,,,,,,,,,,,,,,,,,,bowl,41,92,silent,old,white,1698.370439399965,None,n,1698.370439399965,None,"['n', 'return']","[1.9113019000506029, 2.247338200104423]",1698.370439399965,None,,,86YB,001,2023_Aug_30_1620,ExactRep-v3-final,2021.2.3,59.68356964503551,
,,,,,,,,,,,,92,0,92,0,,,,,,,,,,,,,,,,,,,,,,,,,,,,,,,,,,,,,,,,,,,,,,,,,1703.1888967999257,None,,,,,,,,,,,,,,,,,,,,,,,,,,,,,,,,,,,,,,,,,,,,,,,,,,,,,,,,,bottle,186,93,aloud,new,red,1701.173292499967,None,n,1701.173292499967,None,"['n', 'return']","[1.6445356999756768, 1.9564610999077559]",1701.173292499967,None,,,86YB,001,2023_Aug_30_1620,ExactRep-v3-final,2021.2.3,59.68356964503551,
,,,,,,,,,,,,93,0,93,0,,,,,,,,,,,,,,,,,,,,,,,,,,,,,,,,,,,,,,,,,,,,,,,,,1706.754114100011,None,,,,,,,,,,,,,,,,,,,,,,,,,,,,,,,,,,,,,,,,,,,,,,,,,,,,,,,,,fact,218,94,aloud,new,red,1703.6960529999342,None,n,1703.6960529999342,None,"['n', 'return']","[2.697667200001888, 3.0096098000649363]",1703.6960529999342,None,,,86YB,001,2023_Aug_30_1620,ExactRep-v3-final,2021.2.3,59.68356964503551,
,,,,,,,,,,,,94,0,94,0,,,,,,,,,,,,,,,,,,,,,,,,,,,,,,,,,,,,,,,,,,,,,,,,,1711.6242756999563,None,,,,,,,,,,,,,,,,,,,,,,,,,,,,,,,,,,,,,,,,,,,,,,,,,,,,,,,,,crime,64,95,silent,old,white,1707.266416999977,None,y,1707.266416999977,None,"['y', 'return']","[3.887285300064832, 4.311403700034134]",1707.266416999977,None,,,86YB,001,2023_Aug_30_1620,ExactRep-v3-final,2021.2.3,59.68356964503551,
,,,,,,,,,,,,95,0,95,0,,,,,,,,,,,,,,,,,,,,,,,,,,,,,,,,,,,,,,,,,,,,,,,,,1716.7613516999409,None,,,,,,,,,,,,,,,,,,,,,,,,,,,,,,,,,,,,,,,,,,,,,,,,,,,,,,,,,wheat,109,96,aloud,old,red,1712.1340705999173,None,y,1712.1340705999173,None,"['y', 'return']","[4.267731599975377, 4.58781799999997]",1712.1340705999173,None,,,86YB,001,2023_Aug_30_1620,ExactRep-v3-final,2021.2.3,59.68356964503551,
,,,,,,,,,,,,96,0,96,0,,,,,,,,,,,,,,,,,,,,,,,,,,,,,,,,,,,,,,,,,,,,,,,,,1719.3123936000047,None,,,,,,,,,,,,,,,,,,,,,,,,,,,,,,,,,,,,,,,,,,,,,,,,,,,,,,,,,body,113,97,aloud,old,red,1717.271357199992,None,y,1717.271357199992,None,"['y', 'return']","[1.594405100098811, 2.0026642000302672]",1717.271357199992,None,,,86YB,001,2023_Aug_30_1620,ExactRep-v3-final,2021.2.3,59.68356964503551,
,,,,,,,,,,,,97,0,97,0,,,,,,,,,,,,,,,,,,,,,,,,,,,,,,,,,,,,,,,,,,,,,,,,,1723.5256872000173,None,,,,,,,,,,,,,,,,,,,,,,,,,,,,,,,,,,,,,,,,,,,,,,,,,,,,,,,,,brain,126,98,silent,new,white,1719.8235032999655,None,n,1719.8235032999655,None,"['n', 'return']","[2.4984208999667317, 3.642201600014232]",1719.8235032999655,None,,,86YB,001,2023_Aug_30_1620,ExactRep-v3-final,2021.2.3,59.68356964503551,
,,,,,,,,,,,,98,0,98,0,,,,,,,,,,,,,,,,,,,,,,,,,,,,,,,,,,,,,,,,,,,,,,,,,1725.6051801999565,None,,,,,,,,,,,,,,,,,,,,,,,,,,,,,,,,,,,,,,,,,,,,,,,,,,,,,,,,,meat,130,99,silent,new,white,1724.0293508999748,None,n,1724.0293508999748,None,"['n', 'return']","[1.228458400000818, 1.532700200099498]",1724.0293508999748,None,,,86YB,001,2023_Aug_30_1620,ExactRep-v3-final,2021.2.3,59.68356964503551,
,,,,,,,,,,,,99,0,99,0,,,,,,,,,,,,,,,,,,,,,,,,,,,,,,,,,,,,,,,,,,,,,,,,,1730.5604226000141,None,,,,,,,,,,,,,,,,,,,,,,,,,,,,,,,,,,,,,,,,,,,,,,,,,,,,,,,,,answer,136,100,silent,new,white,1726.1157751999563,None,y,1726.1157751999563,None,"['y', 'return']","[3.637947699986398, 4.397934900014661]",1726.1157751999563,None,,,86YB,001,2023_Aug_30_1620,ExactRep-v3-final,2021.2.3,59.68356964503551,
,,,,,,,,,,,,100,0,100,0,,,,,,,,,,,,,,,,,,,,,,,,,,,,,,,,,,,,,,,,,,,,,,,,,1732.592373499996,None,,,,,,,,,,,,,,,,,,,,,,,,,,,,,,,,,,,,,,,,,,,,,,,,,,,,,,,,,method,155,101,silent,new,white,1731.0759970999788,None,n,1731.0759970999788,None,"['n', 'return']","[1.22205630003009, 1.4696657999884337]",1731.0759970999788,None,,,86YB,001,2023_Aug_30_1620,ExactRep-v3-final,2021.2.3,59.68356964503551,
,,,,,,,,,,,,101,0,101,0,,,,,,,,,,,,,,,,,,,,,,,,,,,,,,,,,,,,,,,,,,,,,,,,,1736.883120500017,None,,,,,,,,,,,,,,,,,,,,,,,,,,,,,,,,,,,,,,,,,,,,,,,,,,,,,,,,,month,198,102,aloud,new,red,1733.1041452999925,None,n,1733.1041452999925,None,"['n', 'return']","[3.3616305000614375, 3.729666300001554]",1733.1041452999925,None,,,86YB,001,2023_Aug_30_1620,ExactRep-v3-final,2021.2.3,59.68356964503551,
,,,,,,,,,,,,102,0,102,0,,,,,,,,,,,,,,,,,,,,,,,,,,,,,,,,,,,,,,,,,,,,,,,,,1740.9211454999167,None,,,,,,,,,,,,,,,,,,,,,,,,,,,,,,,,,,,,,,,,,,,,,,,,,,,,,,,,,dollar,110,103,aloud,old,red,1737.3936803999823,None,n,1737.3936803999823,None,"['n', 'return']","[2.5526747999247164, 3.47208499989938]",1737.3936803999823,None,,,86YB,001,2023_Aug_30_1620,ExactRep-v3-final,2021.2.3,59.68356964503551,
,,,,,,,,,,,,103,0,103,0,,,,,,,,,,,,,,,,,,,,,,,,,,,,,,,,,,,,,,,,,,,,,,,,,1745.3840212000068,None,,,,,,,,,,,,,,,,,,,,,,,,,,,,,,,,,,,,,,,,,,,,,,,,,,,,,,,,,picture,19,104,sing,old,blue,1741.4298517999705,None,y,1741.4298517999705,None,"['y', 'return']","[3.619999600108713, 3.9158315000822768]",1741.4298517999705,None,,,86YB,001,2023_Aug_30_1620,ExactRep-v3-final,2021.2.3,59.68356964503551,
,,,,,,,,,,,,104,0,104,0,,,,,,,,,,,,,,,,,,,,,,,,,,,,,,,,,,,,,,,,,,,,,,,,,1750.4291832000017,None,,,,,,,,,,,,,,,,,,,,,,,,,,,,,,,,,,,,,,,,,,,,,,,,,,,,,,,,,season,94,105,aloud,old,red,1745.9013372999616,None,y,1745.9013372999616,None,"['y', 'return']","[4.052427599905059, 4.484633299987763]",1745.9013372999616,None,,,86YB,001,2023_Aug_30_1620,ExactRep-v3-final,2021.2.3,59.68356964503551,
,,,,,,,,,,,,105,0,105,0,,,,,,,,,,,,,,,,,,,,,,,,,,,,,,,,,,,,,,,,,,,,,,,,,1768.7975694999332,None,,,,,,,,,,,,,,,,,,,,,,,,,,,,,,,,,,,,,,,,,,,,,,,,,,,,,,,,,charm,21,106,sing,old,blue,1750.938183799968,None,n,1750.938183799968,None,"['n', 'return']","[17.511494499980472, 17.81621850002557]",1750.938183799968,None,,,86YB,001,2023_Aug_30_1620,ExactRep-v3-final,2021.2.3,59.68356964503551,
,,,,,,,,,,,,106,0,106,0,,,,,,,,,,,,,,,,,,,,,,,,,,,,,,,,,,,,,,,,,,,,,,,,,1774.098753499915,None,,,,,,,,,,,,,,,,,,,,,,,,,,,,,,,,,,,,,,,,,,,,,,,,,,,,,,,,,woman,184,107,aloud,new,red,1769.3065021999646,None,n,1769.3065021999646,None,"['n', 'return']","[4.311294700019062, 4.751178600010462]",1769.3065021999646,None,,,86YB,001,2023_Aug_30_1620,ExactRep-v3-final,2021.2.3,59.68356964503551,
,,,,,,,,,,,,107,0,107,0,,,,,,,,,,,,,,,,,,,,,,,,,,,,,,,,,,,,,,,,,,,,,,,,,1778.0170455999905,None,,,,,,,,,,,,,,,,,,,,,,,,,,,,,,,,,,,,,,,,,,,,,,,,,,,,,,,,,hide,125,108,silent,new,white,1774.6123277000152,None,n,1774.6123277000152,None,"['n', 'return']","[3.045598299941048, 3.34139930002857]",1774.6123277000152,None,,,86YB,001,2023_Aug_30_1620,ExactRep-v3-final,2021.2.3,59.68356964503551,
,,,,,,,,,,,,108,0,108,0,,,,,,,,,,,,,,,,,,,,,,,,,,,,,,,,,,,,,,,,,,,,,,,,,1779.9896087999223,None,,,,,,,,,,,,,,,,,,,,,,,,,,,,,,,,,,,,,,,,,,,,,,,,,,,,,,,,,green,72,109,silent,old,white,1778.5394694999559,None,n,1778.5394694999559,None,"['n', 'return']","[1.1344714999431744, 1.3902666999492794]",1778.5394694999559,None,,,86YB,001,2023_Aug_30_1620,ExactRep-v3-final,2021.2.3,59.68356964503551,
,,,,,,,,,,,,109,0,109,0,,,,,,,,,,,,,,,,,,,,,,,,,,,,,,,,,,,,,,,,,,,,,,,,,1783.2158375999425,None,,,,,,,,,,,,,,,,,,,,,,,,,,,,,,,,,,,,,,,,,,,,,,,,,,,,,,,,,prayer,183,110,sing,new,blue,1780.5026957999216,None,n,1780.5026957999216,None,"['n', 'return']","[2.434946699999273, 2.6590487000066787]",1780.5026957999216,None,,,86YB,001,2023_Aug_30_1620,ExactRep-v3-final,2021.2.3,59.68356964503551,
,,,,,,,,,,,,110,0,110,0,,,,,,,,,,,,,,,,,,,,,,,,,,,,,,,,,,,,,,,,,,,,,,,,,1785.6260061999783,None,,,,,,,,,,,,,,,,,,,,,,,,,,,,,,,,,,,,,,,,,,,,,,,,,,,,,,,,,weapon,179,111,sing,new,blue,1783.7211226999061,None,n,1783.7211226999061,None,"['n', 'return']","[1.4886473000515252, 1.8646113000577316]",1783.7211226999061,None,,,86YB,001,2023_Aug_30_1620,ExactRep-v3-final,2021.2.3,59.68356964503551,
,,,,,,,,,,,,111,0,111,0,,,,,,,,,,,,,,,,,,,,,,,,,,,,,,,,,,,,,,,,,,,,,,,,,1787.862798599992,None,,,,,,,,,,,,,,,,,,,,,,,,,,,,,,,,,,,,,,,,,,,,,,,,,,,,,,,,,apple,195,112,sing,new,blue,1786.1397435999243,None,n,1786.1397435999243,None,"['n', 'return']","[1.2383192999986932, 1.6540890999604017]",1786.1397435999243,None,,,86YB,001,2023_Aug_30_1620,ExactRep-v3-final,2021.2.3,59.68356964503551,
,,,,,,,,,,,,112,0,112,0,,,,,,,,,,,,,,,,,,,,,,,,,,,,,,,,,,,,,,,,,,,,,,,,,1793.3002877999097,None,,,,,,,,,,,,,,,,,,,,,,,,,,,,,,,,,,,,,,,,,,,,,,,,,,,,,,,,,horse,31,113,sing,old,blue,1788.3754051999422,None,y,1788.3754051999422,None,"['y', 'return']","[3.6424546999624, 4.858389199944213]",1788.3754051999422,None,,,86YB,001,2023_Aug_30_1620,ExactRep-v3-final,2021.2.3,59.68356964503551,
,,,,,,,,,,,,113,0,113,0,,,,,,,,,,,,,,,,,,,,,,,,,,,,,,,,,,,,,,,,,,,,,,,,,1798.0885640999768,None,,,,,,,,,,,,,,,,,,,,,,,,,,,,,,,,,,,,,,,,,,,,,,,,,,,,,,,,,beast,225,114,sing,new,blue,1793.814214999904,None,n,1793.814214999904,None,"['n', 'return']","[2.6356084999861196, 4.2117403000593185]",1793.814214999904,None,,,86YB,001,2023_Aug_30_1620,ExactRep-v3-final,2021.2.3,59.68356964503551,
,,,,,,,,,,,,114,0,114,0,,,,,,,,,,,,,,,,,,,,,,,,,,,,,,,,,,,,,,,,,,,,,,,,,1800.4970955000026,None,,,,,,,,,,,,,,,,,,,,,,,,,,,,,,,,,,,,,,,,,,,,,,,,,,,,,,,,,love,199,115,sing,new,blue,1798.6021818999434,None,n,1798.6021818999434,None,"['n', 'return']","[1.4955235000234097, 1.8395858000731096]",1798.6021818999434,None,,,86YB,001,2023_Aug_30_1620,ExactRep-v3-final,2021.2.3,59.68356964503551,
,,,,,,,,,,,,115,0,115,0,,,,,,,,,,,,,,,,,,,,,,,,,,,,,,,,,,,,,,,,,,,,,,,,,1804.6102876999648,None,,,,,,,,,,,,,,,,,,,,,,,,,,,,,,,,,,,,,,,,,,,,,,,,,,,,,,,,,student,142,116,silent,new,white,1801.0073989999946,None,y,1801.0073989999946,None,"['y', 'return']","[3.034277700004168, 3.53868280001916]",1801.0073989999946,None,,,86YB,001,2023_Aug_30_1620,ExactRep-v3-final,2021.2.3,59.68356964503551,
,,,,,,,,,,,,116,0,116,0,,,,,,,,,,,,,,,,,,,,,,,,,,,,,,,,,,,,,,,,,,,,,,,,,1807.8088855999522,None,,,,,,,,,,,,,,,,,,,,,,,,,,,,,,,,,,,,,,,,,,,,,,,,,,,,,,,,,lord,23,117,sing,old,blue,1805.1265921000158,None,y,1805.1265921000158,None,"['y', 'return']","[1.7073506000451744, 2.627123499987647]",1805.1265921000158,None,,,86YB,001,2023_Aug_30_1620,ExactRep-v3-final,2021.2.3,59.68356964503551,
,,,,,,,,,,,,117,0,117,0,,,,,,,,,,,,,,,,,,,,,,,,,,,,,,,,,,,,,,,,,,,,,,,,,1809.803180799936,None,,,,,,,,,,,,,,,,,,,,,,,,,,,,,,,,,,,,,,,,,,,,,,,,,,,,,,,,,colony,181,118,sing,new,blue,1808.3121551999357,None,n,1808.3121551999357,None,"['n', 'return']","[1.145691999932751, 1.4255400999682024]",1808.3121551999357,None,,,86YB,001,2023_Aug_30_1620,ExactRep-v3-final,2021.2.3,59.68356964503551,
,,,,,,,,,,,,118,0,118,0,,,,,,,,,,,,,,,,,,,,,,,,,,,,,,,,,,,,,,,,,,,,,,,,,1817.6292467999738,None,,,,,,,,,,,,,,,,,,,,,,,,,,,,,,,,,,,,,,,,,,,,,,,,,,,,,,,,,justice,172,119,aloud,new,red,1810.3174149999395,None,n,1810.3174149999395,None,"['n', 'return']","[7.012290499988012, 7.268715400015935]",1810.3174149999395,None,,,86YB,001,2023_Aug_30_1620,ExactRep-v3-final,2021.2.3,59.68356964503551,
,,,,,,,,,,,,119,0,119,0,,,,,,,,,,,,,,,,,,,,,,,,,,,,,,,,,,,,,,,,,,,,,,,,,1820.3796705999412,None,,,,,,,,,,,,,,,,,,,,,,,,,,,,,,,,,,,,,,,,,,,,,,,,,,,,,,,,,star,221,120,sing,new,blue,1818.1384925999446,None,n,1818.1384925999446,None,"['n', 'return']","[1.8553190999664366, 2.1999113999772817]",1818.1384925999446,None,,,86YB,001,2023_Aug_30_1620,ExactRep-v3-final,2021.2.3,59.68356964503551,
,,,,,,,,,,,,120,0,120,0,,,,,,,,,,,,,,,,,,,,,,,,,,,,,,,,,,,,,,,,,,,,,,,,,1822.6115240999497,None,,,,,,,,,,,,,,,,,,,,,,,,,,,,,,,,,,,,,,,,,,,,,,,,,,,,,,,,,gold,191,121,sing,new,blue,1820.8912489999784,None,n,1820.8912489999784,None,"['n', 'return']","[1.4224897000240162, 1.6787310000509024]",1820.8912489999784,None,,,86YB,001,2023_Aug_30_1620,ExactRep-v3-final,2021.2.3,59.68356964503551,
,,,,,,,,,,,,121,0,121,0,,,,,,,,,,,,,,,,,,,,,,,,,,,,,,,,,,,,,,,,,,,,,,,,,1824.4148029999342,None,,,,,,,,,,,,,,,,,,,,,,,,,,,,,,,,,,,,,,,,,,,,,,,,,,,,,,,,,circle,213,122,sing,new,blue,1823.126495399978,None,n,1823.126495399978,None,"['n', 'return']","[0.9559955999720842, 1.2272489999886602]",1823.126495399978,None,,,86YB,001,2023_Aug_30_1620,ExactRep-v3-final,2021.2.3,59.68356964503551,
,,,,,,,,,,,,122,0,122,0,,,,,,,,,,,,,,,,,,,,,,,,,,,,,,,,,,,,,,,,,,,,,,,,,1827.473773799953,None,,,,,,,,,,,,,,,,,,,,,,,,,,,,,,,,,,,,,,,,,,,,,,,,,,,,,,,,,journal,143,123,silent,new,white,1824.9301715999609,None,y,1824.9301715999609,None,"['y', 'return']","[2.2076254999265075, 2.49587869993411]",1824.9301715999609,None,,,86YB,001,2023_Aug_30_1620,ExactRep-v3-final,2021.2.3,59.68356964503551,
,,,,,,,,,,,,123,0,123,0,,,,,,,,,,,,,,,,,,,,,,,,,,,,,,,,,,,,,,,,,,,,,,,,,1831.3428808000172,None,,,,,,,,,,,,,,,,,,,,,,,,,,,,,,,,,,,,,,,,,,,,,,,,,,,,,,,,,storm,117,124,aloud,old,red,1827.9876647999045,None,y,1827.9876647999045,None,"['y', 'return']","[3.022300700074993, 3.3099729000823572]",1827.9876647999045,None,,,86YB,001,2023_Aug_30_1620,ExactRep-v3-final,2021.2.3,59.68356964503551,
,,,,,,,,,,,,124,0,124,0,,,,,,,,,,,,,,,,,,,,,,,,,,,,,,,,,,,,,,,,,,,,,,,,,1834.111264099949,None,,,,,,,,,,,,,,,,,,,,,,,,,,,,,,,,,,,,,,,,,,,,,,,,,,,,,,,,,village,62,125,silent,old,white,1831.8569350999314,None,y,1831.8569350999314,None,"['y', 'return']","[1.897081800037995, 2.184732800000347]",1831.8569350999314,None,,,86YB,001,2023_Aug_30_1620,ExactRep-v3-final,2021.2.3,59.68356964503551,
,,,,,,,,,,,,125,0,125,0,,,,,,,,,,,,,,,,,,,,,,,,,,,,,,,,,,,,,,,,,,,,,,,,,1841.0388617999852,None,,,,,,,,,,,,,,,,,,,,,,,,,,,,,,,,,,,,,,,,,,,,,,,,,,,,,,,,,steam,173,126,sing,new,blue,1834.6272096999455,None,n,1834.6272096999455,None,"['n', 'return']","[5.942728900001384, 6.3585974999004975]",1834.6272096999455,None,,,86YB,001,2023_Aug_30_1620,ExactRep-v3-final,2021.2.3,59.68356964503551,
,,,,,,,,,,,,126,0,126,0,,,,,,,,,,,,,,,,,,,,,,,,,,,,,,,,,,,,,,,,,,,,,,,,,1845.807124099927,None,,,,,,,,,,,,,,,,,,,,,,,,,,,,,,,,,,,,,,,,,,,,,,,,,,,,,,,,,coin,67,127,silent,old,white,1841.5464884999674,None,y,1841.5464884999674,None,"['y', 'return']","[3.935452700010501, 4.215464600012638]",1841.5464884999674,None,,,86YB,001,2023_Aug_30_1620,ExactRep-v3-final,2021.2.3,59.68356964503551,
,,,,,,,,,,,,127,0,127,0,,,,,,,,,,,,,,,,,,,,,,,,,,,,,,,,,,,,,,,,,,,,,,,,,1850.7442561999196,None,,,,,,,,,,,,,,,,,,,,,,,,,,,,,,,,,,,,,,,,,,,,,,,,,,,,,,,,,fire,34,128,sing,old,blue,1846.3202999999048,None,y,1846.3202999999048,None,"['y', 'return']","[4.017360600060783, 4.3853661000030115]",1846.3202999999048,None,,,86YB,001,2023_Aug_30_1620,ExactRep-v3-final,2021.2.3,59.68356964503551,
,,,,,,,,,,,,128,0,128,0,,,,,,,,,,,,,,,,,,,,,,,,,,,,,,,,,,,,,,,,,,,,,,,,,1853.0465794999618,None,,,,,,,,,,,,,,,,,,,,,,,,,,,,,,,,,,,,,,,,,,,,,,,,,,,,,,,,,wine,233,129,sing,new,blue,1851.2555595999584,None,n,1851.2555595999584,None,"['n', 'return']","[1.4582401999505237, 1.7460839999839664]",1851.2555595999584,None,,,86YB,001,2023_Aug_30_1620,ExactRep-v3-final,2021.2.3,59.68356964503551,
,,,,,,,,,,,,129,0,129,0,,,,,,,,,,,,,,,,,,,,,,,,,,,,,,,,,,,,,,,,,,,,,,,,,1856.1844124000054,None,,,,,,,,,,,,,,,,,,,,,,,,,,,,,,,,,,,,,,,,,,,,,,,,,,,,,,,,,college,4,130,sing,old,blue,1853.5583082999801,None,n,1853.5583082999801,None,"['n', 'return']","[2.275546899996698, 2.5796143000479788]",1853.5583082999801,None,,,86YB,001,2023_Aug_30_1620,ExactRep-v3-final,2021.2.3,59.68356964503551,
,,,,,,,,,,,,130,0,130,0,,,,,,,,,,,,,,,,,,,,,,,,,,,,,,,,,,,,,,,,,,,,,,,,,1862.5273412999231,None,,,,,,,,,,,,,,,,,,,,,,,,,,,,,,,,,,,,,,,,,,,,,,,,,,,,,,,,,avenue,77,131,silent,old,white,1856.6983448999235,None,n,1856.6983448999235,None,"['n', 'return']","[5.51964960002806, 5.775402799947187]",1856.6983448999235,None,,,86YB,001,2023_Aug_30_1620,ExactRep-v3-final,2021.2.3,59.68356964503551,
