trials_fam.thisRepN,trials_fam.thisTrialN,trials_fam.thisN,trials_fam.thisIndex,trials_prc.thisRepN,trials_prc.thisTrialN,trials_prc.thisN,trials_prc.thisIndex,StudyLoop.thisRepN,StudyLoop.thisTrialN,StudyLoop.thisN,StudyLoop.thisIndex,TestLoop.thisRepN,TestLoop.thisTrialN,TestLoop.thisN,TestLoop.thisIndex,text_colortest.started,text_colortest.stopped,key_colortest.keys,key_colortest.rt,key_colortest.started,key_colortest.stopped,textCondition.started,textCondition.stopped,keyCondition.keys,keyCondition.rt,keyCondition.started,keyCondition.stopped,Condition_between,Condition_counterbal,keyWelcome.keys,keyWelcome.rt,keyWelcome.started,keyWelcome.stopped,welcome_a.started,welcome_a.stopped,welcome_b.started,welcome_b.stopped,welcome_c.started,welcome_c.stopped,welcome_d.started,welcome_d.stopped,welcome_e.started,welcome_e.stopped,welcome_f.started,welcome_f.stopped,key_resp_fam_inst.keys,key_resp_fam_inst.rt,key_resp_fam_inst.started,key_resp_fam_inst.stopped,fam_a.started,fam_a.stopped,fam_b.started,fam_b.stopped,fam_c.started,fam_c.stopped,fam_d.started,fam_d.stopped,fam_e.started,fam_e.stopped,fam_f.started,fam_f.stopped,text_famil.started,text_famil.stopped,textBlank500.started,textBlank500.stopped,key_resp_prc_inst.keys,key_resp_prc_inst.rt,key_resp_prc_inst.started,key_resp_prc_inst.stopped,prac_a.started,prac_a.stopped,prac_b.started,prac_b.stopped,prac_c.started,prac_c.stopped,prac_d.started,prac_d.stopped,prac_e.started,prac_e.stopped,prac_f.started,prac_f.stopped,text_prc_trial.started,text_prc_trial.stopped,key_resp_study_inst.keys,key_resp_study_inst.rt,key_resp_study_inst.started,key_resp_study_inst.stopped,crit_a.started,crit_a.stopped,crit_b.started,crit_b.stopped,crit_c.started,crit_c.stopped,crit_d.started,crit_d.stopped,crit_e.started,crit_e.stopped,crit_f.started,crit_f.stopped,study_word,study_num,study_order,study_type,word_color,textStudy.started,textStudy.stopped,keyStudy.keys,keyStudy.started,keyStudy.stopped,post_study.started,post_study.stopped,key_resp_post_study.keys,key_resp_post_study.rt,key_resp_post_study.started,key_resp_post_study.stopped,test_inst.started,test_inst.stopped,key_resp_test_inst.keys,key_resp_test_inst.rt,key_resp_test_inst.started,key_resp_test_inst.stopped,test_word,test_num,test_order,test_condition,old_new_test,word_color_test,textConf.started,textConf.stopped,Participant Response,textInput.started,textInput.stopped,keyResp.keys,keyResp.rt,keyResp.started,keyResp.stopped,textEnd.started,textEnd.stopped,participant,session,date,expName,psychopyVersion,frameRate,
,,,,,,,,,,,,,,,,15.275683999992907,None,y,0.6373772999504581,15.275683999992907,None,,,,,,,,,,,,,,,,,,,,,,,,,,,,,,,,,,,,,,,,,,,,,,,,,,,,,,,,,,,,,,,,,,,,,,,,,,,,,,,,,,,,,,,,,,,,,,,,,,,,,,,,,,,,,,,,,,,,,,87YC,001,2023_Aug_30_1659,ExactRep-v3-final,2021.2.3,59.421731501759645,
,,,,,,,,,,,,,,,,,,,,,,15.929821399971843,None,c,0.5590641000308096,15.929821399971843,None,,,,,,,,,,,,,,,,,,,,,,,,,,,,,,,,,,,,,,,,,,,,,,,,,,,,,,,,,,,,,,,,,,,,,,,,,,,,,,,,,,,,,,,,,,,,,,,,,,,,,,,,,,,,,,,,87YC,001,2023_Aug_30_1659,ExactRep-v3-final,2021.2.3,59.421731501759645,
,,,,,,,,,,,,,,,,,,,,,,,,,,,,colorfoils,c,space,253.12282030005008,26.62199260003399,None,,,,,,,,,,,,,,,,,,,,,,,,,,,,,,,,,,,,,,,,,,,,,,,,,,,,,,,,,,,,,,,,,,,,,,,,,,,,,,,,,,,,,,,,,,,,,,,,,,,,,,,,,,87YC,001,2023_Aug_30_1659,ExactRep-v3-final,2021.2.3,59.421731501759645,
,,,,,,,,,,,,,,,,,,,,,,,,,,,,,,,,,,16.688895800034516,None,16.688895800034516,None,16.688895800034516,None,16.688895800034516,None,16.688895800034516,None,16.688895800034516,None,space,15.380822699982673,289.979894899996,None,,,,,,,,,,,,,,,,,,,,,,,,,,,,,,,,,,,,,,,,,,,,,,,,,,,,,,,,,,,,,,,,,,,,,,,,,,,,,,,,,,,,,,,,,,87YC,001,2023_Aug_30_1659,ExactRep-v3-final,2021.2.3,59.421731501759645,
0,0,0,0,,,,,,,,,,,,,,,,,,,,,,,,,,,,,,,,,,,,,,,,,,,,,,,279.9198430000106,None,279.9198430000106,None,279.9198430000106,None,279.9198430000106,None,279.9198430000106,None,279.9198430000106,None,305.48798670002725,None,307.48932479997166,None,,,,,,,,,,,,,,,,,,,,,,,,,,,,,,,,,,,,,,,,,,,,,,,,,,,,,,,,,,,,,,,,,,,,,,,,,,87YC,001,2023_Aug_30_1659,ExactRep-v3-final,2021.2.3,59.421731501759645,
1,0,1,0,,,,,,,,,,,,,,,,,,,,,,,,,,,,,,,,,,,,,,,,,,,,,,,,,,,,,,,,,,,307.99055560003035,None,309.9899835999822,None,,,,,,,,,,,,,,,,,,,,,,,,,,,,,,,,,,,,,,,,,,,,,,,,,,,,,,,,,,,,,,,,,,,,,,,,,,87YC,001,2023_Aug_30_1659,ExactRep-v3-final,2021.2.3,59.421731501759645,
2,0,2,0,,,,,,,,,,,,,,,,,,,,,,,,,,,,,,,,,,,,,,,,,,,,,,,,,,,,,,,,,,,310.4918635999784,None,312.4924624999985,None,,,,,,,,,,,,,,,,,,,,,,,,,,,,,,,,,,,,,,,,,,,,,,,,,,,,,,,,,,,,,,,,,,,,,,,,,,87YC,001,2023_Aug_30_1659,ExactRep-v3-final,2021.2.3,59.421731501759645,
3,0,3,0,,,,,,,,,,,,,,,,,,,,,,,,,,,,,,,,,,,,,,,,,,,,,,,,,,,,,,,,,,,313.02581380004995,None,315.0121167000616,None,,,,,,,,,,,,,,,,,,,,,,,,,,,,,,,,,,,,,,,,,,,,,,,,,,,,,,,,,,,,,,,,,,,,,,,,,,87YC,001,2023_Aug_30_1659,ExactRep-v3-final,2021.2.3,59.421731501759645,
4,0,4,0,,,,,,,,,,,,,,,,,,,,,,,,,,,,,,,,,,,,,,,,,,,,,,,,,,,,,,,,,,,315.5134910000488,None,317.5141427000053,None,,,,,,,,,,,,,,,,,,,,,,,,,,,,,,,,,,,,,,,,,,,,,,,,,,,,,,,,,,,,,,,,,,,,,,,,,,87YC,001,2023_Aug_30_1659,ExactRep-v3-final,2021.2.3,59.421731501759645,
5,0,5,0,,,,,,,,,,,,,,,,,,,,,,,,,,,,,,,,,,,,,,,,,,,,,,,,,,,,,,,,,,,318.0359514000593,None,320.0337804000592,None,,,,,,,,,,,,,,,,,,,,,,,,,,,,,,,,,,,,,,,,,,,,,,,,,,,,,,,,,,,,,,,,,,,,,,,,,,87YC,001,2023_Aug_30_1659,ExactRep-v3-final,2021.2.3,59.421731501759645,
6,0,6,0,,,,,,,,,,,,,,,,,,,,,,,,,,,,,,,,,,,,,,,,,,,,,,,,,,,,,,,,,,,320.5339072999777,None,322.53627050004434,None,,,,,,,,,,,,,,,,,,,,,,,,,,,,,,,,,,,,,,,,,,,,,,,,,,,,,,,,,,,,,,,,,,,,,,,,,,87YC,001,2023_Aug_30_1659,ExactRep-v3-final,2021.2.3,59.421731501759645,
7,0,7,0,,,,,,,,,,,,,,,,,,,,,,,,,,,,,,,,,,,,,,,,,,,,,,,,,,,,,,,,,,,323.0372793000424,None,325.0386578000616,None,,,,,,,,,,,,,,,,,,,,,,,,,,,,,,,,,,,,,,,,,,,,,,,,,,,,,,,,,,,,,,,,,,,,,,,,,,87YC,001,2023_Aug_30_1659,ExactRep-v3-final,2021.2.3,59.421731501759645,
8,0,8,0,,,,,,,,,,,,,,,,,,,,,,,,,,,,,,,,,,,,,,,,,,,,,,,,,,,,,,,,,,,325.54264180001337,None,327.55774219997693,None,,,,,,,,,,,,,,,,,,,,,,,,,,,,,,,,,,,,,,,,,,,,,,,,,,,,,,,,,,,,,,,,,,,,,,,,,,87YC,001,2023_Aug_30_1659,ExactRep-v3-final,2021.2.3,59.421731501759645,
9,0,9,0,,,,,,,,,,,,,,,,,,,,,,,,,,,,,,,,,,,,,,,,,,,,,,,,,,,,,,,,,,,328.05847150005866,None,330.0602945999708,None,,,,,,,,,,,,,,,,,,,,,,,,,,,,,,,,,,,,,,,,,,,,,,,,,,,,,,,,,,,,,,,,,,,,,,,,,,87YC,001,2023_Aug_30_1659,ExactRep-v3-final,2021.2.3,59.421731501759645,
10,0,10,0,,,,,,,,,,,,,,,,,,,,,,,,,,,,,,,,,,,,,,,,,,,,,,,,,,,,,,,,,,,330.56108929996844,None,332.5627831000602,None,,,,,,,,,,,,,,,,,,,,,,,,,,,,,,,,,,,,,,,,,,,,,,,,,,,,,,,,,,,,,,,,,,,,,,,,,,87YC,001,2023_Aug_30_1659,ExactRep-v3-final,2021.2.3,59.421731501759645,
11,0,11,0,,,,,,,,,,,,,,,,,,,,,,,,,,,,,,,,,,,,,,,,,,,,,,,,,,,,,,,,,,,333.0706586999586,None,335.0824619999621,None,,,,,,,,,,,,,,,,,,,,,,,,,,,,,,,,,,,,,,,,,,,,,,,,,,,,,,,,,,,,,,,,,,,,,,,,,,87YC,001,2023_Aug_30_1659,ExactRep-v3-final,2021.2.3,59.421731501759645,
12,0,12,0,,,,,,,,,,,,,,,,,,,,,,,,,,,,,,,,,,,,,,,,,,,,,,,,,,,,,,,,,,,335.5827347000595,None,337.58422019996215,None,,,,,,,,,,,,,,,,,,,,,,,,,,,,,,,,,,,,,,,,,,,,,,,,,,,,,,,,,,,,,,,,,,,,,,,,,,87YC,001,2023_Aug_30_1659,ExactRep-v3-final,2021.2.3,59.421731501759645,
13,0,13,0,,,,,,,,,,,,,,,,,,,,,,,,,,,,,,,,,,,,,,,,,,,,,,,,,,,,,,,,,,,338.0849756000098,None,340.0869530000491,None,,,,,,,,,,,,,,,,,,,,,,,,,,,,,,,,,,,,,,,,,,,,,,,,,,,,,,,,,,,,,,,,,,,,,,,,,,87YC,001,2023_Aug_30_1659,ExactRep-v3-final,2021.2.3,59.421731501759645,
14,0,14,0,,,,,,,,,,,,,,,,,,,,,,,,,,,,,,,,,,,,,,,,,,,,,,,,,,,,,,,,,,,340.5898762999568,None,342.5898735000519,None,,,,,,,,,,,,,,,,,,,,,,,,,,,,,,,,,,,,,,,,,,,,,,,,,,,,,,,,,,,,,,,,,,,,,,,,,,87YC,001,2023_Aug_30_1659,ExactRep-v3-final,2021.2.3,59.421731501759645,
,,,,,,,,,,,,,,,,,,,,,,,,,,,,,,,,,,,,,,,,,,,,,,,,,,,,,,,,,,,,,,,,,,space,11.594303200021386,353.2228958000196,None,,,,,,,,,,,,,,,,,,,,,,,,,,,,,,,,,,,,,,,,,,,,,,,,,,,,,,,,,,,,,,,,,,,,,,87YC,001,2023_Aug_30_1659,ExactRep-v3-final,2021.2.3,59.421731501759645,
,,,,0,0,0,0,,,,,,,,,,,,,,,,,,,,,,,,,,,,,,,,,,,,,,,,,,,,,,,,,,,,,,,,,366.9136892000679,None,,,,,343.2220073000062,None,343.2220073000062,None,343.2220073000062,None,343.2220073000062,None,343.2220073000062,None,343.2220073000062,None,364.9050498000579,None,,,,,,,,,,,,,,,,,,,,,,,,,,,,,,,,,,,,,,,,,,,,,,,,,,,,,,,,87YC,001,2023_Aug_30_1659,ExactRep-v3-final,2021.2.3,59.421731501759645,
,,,,1,0,1,0,,,,,,,,,,,,,,,,,,,,,,,,,,,,,,,,,,,,,,,,,,,,,,,,,,,,,,,,,369.41662350005936,None,,,,,,,,,,,,,,,,,367.4139616000466,None,,,,,,,,,,,,,,,,,,,,,,,,,,,,,,,,,,,,,,,,,,,,,,,,,,,,,,,,87YC,001,2023_Aug_30_1659,ExactRep-v3-final,2021.2.3,59.421731501759645,
,,,,2,0,2,0,,,,,,,,,,,,,,,,,,,,,,,,,,,,,,,,,,,,,,,,,,,,,,,,,,,,,,,,,371.918646599981,None,,,,,,,,,,,,,,,,,369.91768529999536,None,,,,,,,,,,,,,,,,,,,,,,,,,,,,,,,,,,,,,,,,,,,,,,,,,,,,,,,,87YC,001,2023_Aug_30_1659,ExactRep-v3-final,2021.2.3,59.421731501759645,
,,,,3,0,3,0,,,,,,,,,,,,,,,,,,,,,,,,,,,,,,,,,,,,,,,,,,,,,,,,,,,,,,,,,374.42120320000686,None,,,,,,,,,,,,,,,,,372.42026839999016,None,,,,,,,,,,,,,,,,,,,,,,,,,,,,,,,,,,,,,,,,,,,,,,,,,,,,,,,,87YC,001,2023_Aug_30_1659,ExactRep-v3-final,2021.2.3,59.421731501759645,
,,,,4,0,4,0,,,,,,,,,,,,,,,,,,,,,,,,,,,,,,,,,,,,,,,,,,,,,,,,,,,,,,,,,376.9238259999547,None,,,,,,,,,,,,,,,,,374.92376869998407,None,,,,,,,,,,,,,,,,,,,,,,,,,,,,,,,,,,,,,,,,,,,,,,,,,,,,,,,,87YC,001,2023_Aug_30_1659,ExactRep-v3-final,2021.2.3,59.421731501759645,
,,,,5,0,5,0,,,,,,,,,,,,,,,,,,,,,,,,,,,,,,,,,,,,,,,,,,,,,,,,,,,,,,,,,379.4264764999971,None,,,,,,,,,,,,,,,,,377.42440370004624,None,,,,,,,,,,,,,,,,,,,,,,,,,,,,,,,,,,,,,,,,,,,,,,,,,,,,,,,,87YC,001,2023_Aug_30_1659,ExactRep-v3-final,2021.2.3,59.421731501759645,
,,,,6,0,6,0,,,,,,,,,,,,,,,,,,,,,,,,,,,,,,,,,,,,,,,,,,,,,,,,,,,,,,,,,381.9288055000361,None,,,,,,,,,,,,,,,,,379.9265703000128,None,,,,,,,,,,,,,,,,,,,,,,,,,,,,,,,,,,,,,,,,,,,,,,,,,,,,,,,,87YC,001,2023_Aug_30_1659,ExactRep-v3-final,2021.2.3,59.421731501759645,
,,,,7,0,7,0,,,,,,,,,,,,,,,,,,,,,,,,,,,,,,,,,,,,,,,,,,,,,,,,,,,,,,,,,384.4313716000179,None,,,,,,,,,,,,,,,,,382.43221900006756,None,,,,,,,,,,,,,,,,,,,,,,,,,,,,,,,,,,,,,,,,,,,,,,,,,,,,,,,,87YC,001,2023_Aug_30_1659,ExactRep-v3-final,2021.2.3,59.421731501759645,
,,,,8,0,8,0,,,,,,,,,,,,,,,,,,,,,,,,,,,,,,,,,,,,,,,,,,,,,,,,,,,,,,,,,386.9339339999715,None,,,,,,,,,,,,,,,,,384.93188300007023,None,,,,,,,,,,,,,,,,,,,,,,,,,,,,,,,,,,,,,,,,,,,,,,,,,,,,,,,,87YC,001,2023_Aug_30_1659,ExactRep-v3-final,2021.2.3,59.421731501759645,
,,,,9,0,9,0,,,,,,,,,,,,,,,,,,,,,,,,,,,,,,,,,,,,,,,,,,,,,,,,,,,,,,,,,389.43760589999147,None,,,,,,,,,,,,,,,,,387.43416439997964,None,,,,,,,,,,,,,,,,,,,,,,,,,,,,,,,,,,,,,,,,,,,,,,,,,,,,,,,,87YC,001,2023_Aug_30_1659,ExactRep-v3-final,2021.2.3,59.421731501759645,
,,,,10,0,10,0,,,,,,,,,,,,,,,,,,,,,,,,,,,,,,,,,,,,,,,,,,,,,,,,,,,,,,,,,391.95572379999794,None,,,,,,,,,,,,,,,,,389.95421800005715,None,,,,,,,,,,,,,,,,,,,,,,,,,,,,,,,,,,,,,,,,,,,,,,,,,,,,,,,,87YC,001,2023_Aug_30_1659,ExactRep-v3-final,2021.2.3,59.421731501759645,
,,,,11,0,11,0,,,,,,,,,,,,,,,,,,,,,,,,,,,,,,,,,,,,,,,,,,,,,,,,,,,,,,,,,394.45876069995575,None,,,,,,,,,,,,,,,,,392.4563125000568,None,,,,,,,,,,,,,,,,,,,,,,,,,,,,,,,,,,,,,,,,,,,,,,,,,,,,,,,,87YC,001,2023_Aug_30_1659,ExactRep-v3-final,2021.2.3,59.421731501759645,
,,,,12,0,12,0,,,,,,,,,,,,,,,,,,,,,,,,,,,,,,,,,,,,,,,,,,,,,,,,,,,,,,,,,396.9603526999708,None,,,,,,,,,,,,,,,,,394.958267500042,None,,,,,,,,,,,,,,,,,,,,,,,,,,,,,,,,,,,,,,,,,,,,,,,,,,,,,,,,87YC,001,2023_Aug_30_1659,ExactRep-v3-final,2021.2.3,59.421731501759645,
,,,,13,0,13,0,,,,,,,,,,,,,,,,,,,,,,,,,,,,,,,,,,,,,,,,,,,,,,,,,,,,,,,,,399.4627325000474,None,,,,,,,,,,,,,,,,,397.4610088999616,None,,,,,,,,,,,,,,,,,,,,,,,,,,,,,,,,,,,,,,,,,,,,,,,,,,,,,,,,87YC,001,2023_Aug_30_1659,ExactRep-v3-final,2021.2.3,59.421731501759645,
,,,,14,0,14,0,,,,,,,,,,,,,,,,,,,,,,,,,,,,,,,,,,,,,,,,,,,,,,,,,,,,,,,,,401.9656526000472,None,,,,,,,,,,,,,,,,,399.9632979000453,None,,,,,,,,,,,,,,,,,,,,,,,,,,,,,,,,,,,,,,,,,,,,,,,,,,,,,,,,87YC,001,2023_Aug_30_1659,ExactRep-v3-final,2021.2.3,59.421731501759645,
,,,,,,,,,,,,,,,,,,,,,,,,,,,,,,,,,,,,,,,,,,,,,,,,,,,,,,,,,,,,,,,,,,,,,,,,,,,,,,,,,,,,space,16.875493700033985,412.58916400000453,None,,,,,,,,,,,,,,,,,,,,,,,,,,,,,,,,,,,,,,,,,,,,,,,,,,,,87YC,001,2023_Aug_30_1659,ExactRep-v3-final,2021.2.3,59.421731501759645,
,,,,,,,,0,0,0,0,,,,,,,,,,,,,,,,,,,,,,,,,,,,,,,,,,,,,,,,,,,,,,,,,,,,,431.59489970002323,None,,,,,,,,,,,,,,,,,,,,,,,402.6417186000617,None,402.6417186000617,None,402.6417186000617,None,402.6417186000617,None,402.6417186000617,None,402.6417186000617,None,child,92,1,aloud,blue,429.5805625000503,None,None,429.5805625000503,None,,,,,,,,,,,,,,,,,,,,,,,,,,,,,,87YC,001,2023_Aug_30_1659,ExactRep-v3-final,2021.2.3,59.421731501759645,
,,,,,,,,1,0,1,0,,,,,,,,,,,,,,,,,,,,,,,,,,,,,,,,,,,,,,,,,,,,,,,,,,,,,434.0980462000007,None,,,,,,,,,,,,,,,,,,,,,,,,,,,,,,,,,,,mercy,1,2,sing,white,432.09673170000315,None,None,432.09673170000315,None,,,,,,,,,,,,,,,,,,,,,,,,,,,,,,87YC,001,2023_Aug_30_1659,ExactRep-v3-final,2021.2.3,59.421731501759645,
,,,,,,,,2,0,2,0,,,,,,,,,,,,,,,,,,,,,,,,,,,,,,,,,,,,,,,,,,,,,,,,,,,,,436.6171245999867,None,,,,,,,,,,,,,,,,,,,,,,,,,,,,,,,,,,,fault,79,3,sing,white,434.6008845999604,None,None,434.6008845999604,None,,,,,,,,,,,,,,,,,,,,,,,,,,,,,,87YC,001,2023_Aug_30_1659,ExactRep-v3-final,2021.2.3,59.421731501759645,
,,,,,,,,3,0,3,0,,,,,,,,,,,,,,,,,,,,,,,,,,,,,,,,,,,,,,,,,,,,,,,,,,,,,439.1190452000592,None,,,,,,,,,,,,,,,,,,,,,,,,,,,,,,,,,,,girl,34,4,sing,white,437.11758139997255,None,None,437.11758139997255,None,,,,,,,,,,,,,,,,,,,,,,,,,,,,,,87YC,001,2023_Aug_30_1659,ExactRep-v3-final,2021.2.3,59.421731501759645,
,,,,,,,,4,0,4,0,,,,,,,,,,,,,,,,,,,,,,,,,,,,,,,,,,,,,,,,,,,,,,,,,,,,,441.63825179997366,None,,,,,,,,,,,,,,,,,,,,,,,,,,,,,,,,,,,salary,26,5,sing,white,439.6227800999768,None,None,439.6227800999768,None,,,,,,,,,,,,,,,,,,,,,,,,,,,,,,87YC,001,2023_Aug_30_1659,ExactRep-v3-final,2021.2.3,59.421731501759645,
,,,,,,,,5,0,5,0,,,,,,,,,,,,,,,,,,,,,,,,,,,,,,,,,,,,,,,,,,,,,,,,,,,,,444.1693339999765,None,,,,,,,,,,,,,,,,,,,,,,,,,,,,,,,,,,,party,73,6,silent,red,442.15403079998214,None,None,442.15403079998214,None,,,,,,,,,,,,,,,,,,,,,,,,,,,,,,87YC,001,2023_Aug_30_1659,ExactRep-v3-final,2021.2.3,59.421731501759645,
,,,,,,,,6,0,6,0,,,,,,,,,,,,,,,,,,,,,,,,,,,,,,,,,,,,,,,,,,,,,,,,,,,,,446.6597094000317,None,,,,,,,,,,,,,,,,,,,,,,,,,,,,,,,,,,,rock,76,7,silent,red,444.66052460006904,None,None,444.66052460006904,None,,,,,,,,,,,,,,,,,,,,,,,,,,,,,,87YC,001,2023_Aug_30_1659,ExactRep-v3-final,2021.2.3,59.421731501759645,
,,,,,,,,7,0,7,0,,,,,,,,,,,,,,,,,,,,,,,,,,,,,,,,,,,,,,,,,,,,,,,,,,,,,449.17887439997867,None,,,,,,,,,,,,,,,,,,,,,,,,,,,,,,,,,,,health,89,8,aloud,blue,447.16109549999237,None,None,447.16109549999237,None,,,,,,,,,,,,,,,,,,,,,,,,,,,,,,87YC,001,2023_Aug_30_1659,ExactRep-v3-final,2021.2.3,59.421731501759645,
,,,,,,,,8,0,8,0,,,,,,,,,,,,,,,,,,,,,,,,,,,,,,,,,,,,,,,,,,,,,,,,,,,,,451.6817108000396,None,,,,,,,,,,,,,,,,,,,,,,,,,,,,,,,,,,,city,118,9,aloud,blue,449.6800054999767,None,None,449.6800054999767,None,,,,,,,,,,,,,,,,,,,,,,,,,,,,,,87YC,001,2023_Aug_30_1659,ExactRep-v3-final,2021.2.3,59.421731501759645,
,,,,,,,,9,0,9,0,,,,,,,,,,,,,,,,,,,,,,,,,,,,,,,,,,,,,,,,,,,,,,,,,,,,,454.20188319997396,None,,,,,,,,,,,,,,,,,,,,,,,,,,,,,,,,,,,avenue,77,10,silent,red,452.188814299996,None,None,452.188814299996,None,,,,,,,,,,,,,,,,,,,,,,,,,,,,,,87YC,001,2023_Aug_30_1659,ExactRep-v3-final,2021.2.3,59.421731501759645,
,,,,,,,,10,0,10,0,,,,,,,,,,,,,,,,,,,,,,,,,,,,,,,,,,,,,,,,,,,,,,,,,,,,,456.7032968000276,None,,,,,,,,,,,,,,,,,,,,,,,,,,,,,,,,,,,coin,67,11,silent,red,454.70150079997256,None,None,454.70150079997256,None,,,,,,,,,,,,,,,,,,,,,,,,,,,,,,87YC,001,2023_Aug_30_1659,ExactRep-v3-final,2021.2.3,59.421731501759645,
,,,,,,,,11,0,11,0,,,,,,,,,,,,,,,,,,,,,,,,,,,,,,,,,,,,,,,,,,,,,,,,,,,,,459.2101773000322,None,,,,,,,,,,,,,,,,,,,,,,,,,,,,,,,,,,,amount,25,12,sing,white,457.20437040005345,None,None,457.20437040005345,None,,,,,,,,,,,,,,,,,,,,,,,,,,,,,,87YC,001,2023_Aug_30_1659,ExactRep-v3-final,2021.2.3,59.421731501759645,
,,,,,,,,12,0,12,0,,,,,,,,,,,,,,,,,,,,,,,,,,,,,,,,,,,,,,,,,,,,,,,,,,,,,461.72485610004514,None,,,,,,,,,,,,,,,,,,,,,,,,,,,,,,,,,,,flood,100,13,aloud,blue,459.7234577999916,None,None,459.7234577999916,None,,,,,,,,,,,,,,,,,,,,,,,,,,,,,,87YC,001,2023_Aug_30_1659,ExactRep-v3-final,2021.2.3,59.421731501759645,
,,,,,,,,13,0,13,0,,,,,,,,,,,,,,,,,,,,,,,,,,,,,,,,,,,,,,,,,,,,,,,,,,,,,464.22760450001806,None,,,,,,,,,,,,,,,,,,,,,,,,,,,,,,,,,,,meat,36,14,sing,white,462.2275273000123,None,None,462.2275273000123,None,,,,,,,,,,,,,,,,,,,,,,,,,,,,,,87YC,001,2023_Aug_30_1659,ExactRep-v3-final,2021.2.3,59.421731501759645,
,,,,,,,,14,0,14,0,,,,,,,,,,,,,,,,,,,,,,,,,,,,,,,,,,,,,,,,,,,,,,,,,,,,,466.73564259998966,None,,,,,,,,,,,,,,,,,,,,,,,,,,,,,,,,,,,author,47,15,silent,red,464.72844490001444,None,None,464.72844490001444,None,,,,,,,,,,,,,,,,,,,,,,,,,,,,,,87YC,001,2023_Aug_30_1659,ExactRep-v3-final,2021.2.3,59.421731501759645,
,,,,,,,,15,0,15,0,,,,,,,,,,,,,,,,,,,,,,,,,,,,,,,,,,,,,,,,,,,,,,,,,,,,,469.2492984000128,None,,,,,,,,,,,,,,,,,,,,,,,,,,,,,,,,,,,diamond,20,16,sing,white,467.2490204999922,None,None,467.2490204999922,None,,,,,,,,,,,,,,,,,,,,,,,,,,,,,,87YC,001,2023_Aug_30_1659,ExactRep-v3-final,2021.2.3,59.421731501759645,
,,,,,,,,16,0,16,0,,,,,,,,,,,,,,,,,,,,,,,,,,,,,,,,,,,,,,,,,,,,,,,,,,,,,471.7517902000109,None,,,,,,,,,,,,,,,,,,,,,,,,,,,,,,,,,,,sea,37,17,sing,white,469.7502171000233,None,None,469.7502171000233,None,,,,,,,,,,,,,,,,,,,,,,,,,,,,,,87YC,001,2023_Aug_30_1659,ExactRep-v3-final,2021.2.3,59.421731501759645,
,,,,,,,,17,0,17,0,,,,,,,,,,,,,,,,,,,,,,,,,,,,,,,,,,,,,,,,,,,,,,,,,,,,,474.25445180002134,None,,,,,,,,,,,,,,,,,,,,,,,,,,,,,,,,,,,corner,117,18,aloud,blue,472.2526570999762,None,None,472.2526570999762,None,,,,,,,,,,,,,,,,,,,,,,,,,,,,,,87YC,001,2023_Aug_30_1659,ExactRep-v3-final,2021.2.3,59.421731501759645,
,,,,,,,,18,0,18,0,,,,,,,,,,,,,,,,,,,,,,,,,,,,,,,,,,,,,,,,,,,,,,,,,,,,,476.76172379998025,None,,,,,,,,,,,,,,,,,,,,,,,,,,,,,,,,,,,air,45,19,silent,red,474.75470150006004,None,None,474.75470150006004,None,,,,,,,,,,,,,,,,,,,,,,,,,,,,,,87YC,001,2023_Aug_30_1659,ExactRep-v3-final,2021.2.3,59.421731501759645,
,,,,,,,,19,0,19,0,,,,,,,,,,,,,,,,,,,,,,,,,,,,,,,,,,,,,,,,,,,,,,,,,,,,,479.2765037000645,None,,,,,,,,,,,,,,,,,,,,,,,,,,,,,,,,,,,cost,8,20,sing,white,477.27396360004786,None,None,477.27396360004786,None,,,,,,,,,,,,,,,,,,,,,,,,,,,,,,87YC,001,2023_Aug_30_1659,ExactRep-v3-final,2021.2.3,59.421731501759645,
,,,,,,,,20,0,20,0,,,,,,,,,,,,,,,,,,,,,,,,,,,,,,,,,,,,,,,,,,,,,,,,,,,,,481.79544330004137,None,,,,,,,,,,,,,,,,,,,,,,,,,,,,,,,,,,,wine,74,21,silent,red,479.7876094999956,None,None,479.7876094999956,None,,,,,,,,,,,,,,,,,,,,,,,,,,,,,,87YC,001,2023_Aug_30_1659,ExactRep-v3-final,2021.2.3,59.421731501759645,
,,,,,,,,21,0,21,0,,,,,,,,,,,,,,,,,,,,,,,,,,,,,,,,,,,,,,,,,,,,,,,,,,,,,484.31415940006264,None,,,,,,,,,,,,,,,,,,,,,,,,,,,,,,,,,,,cabin,17,22,sing,white,482.305873000063,None,None,482.305873000063,None,,,,,,,,,,,,,,,,,,,,,,,,,,,,,,87YC,001,2023_Aug_30_1659,ExactRep-v3-final,2021.2.3,59.421731501759645,
,,,,,,,,22,0,22,0,,,,,,,,,,,,,,,,,,,,,,,,,,,,,,,,,,,,,,,,,,,,,,,,,,,,,486.8168550999835,None,,,,,,,,,,,,,,,,,,,,,,,,,,,,,,,,,,,woman,52,23,silent,red,484.81491870002355,None,None,484.81491870002355,None,,,,,,,,,,,,,,,,,,,,,,,,,,,,,,87YC,001,2023_Aug_30_1659,ExactRep-v3-final,2021.2.3,59.421731501759645,
,,,,,,,,23,0,23,0,,,,,,,,,,,,,,,,,,,,,,,,,,,,,,,,,,,,,,,,,,,,,,,,,,,,,489.32154619996436,None,,,,,,,,,,,,,,,,,,,,,,,,,,,,,,,,,,,cattle,114,24,aloud,blue,487.3184164999984,None,None,487.3184164999984,None,,,,,,,,,,,,,,,,,,,,,,,,,,,,,,87YC,001,2023_Aug_30_1659,ExactRep-v3-final,2021.2.3,59.421731501759645,
,,,,,,,,24,0,24,0,,,,,,,,,,,,,,,,,,,,,,,,,,,,,,,,,,,,,,,,,,,,,,,,,,,,,491.8387568000471,None,,,,,,,,,,,,,,,,,,,,,,,,,,,,,,,,,,,fate,32,25,sing,white,489.8366470000474,None,None,489.8366470000474,None,,,,,,,,,,,,,,,,,,,,,,,,,,,,,,87YC,001,2023_Aug_30_1659,ExactRep-v3-final,2021.2.3,59.421731501759645,
,,,,,,,,25,0,25,0,,,,,,,,,,,,,,,,,,,,,,,,,,,,,,,,,,,,,,,,,,,,,,,,,,,,,494.34092740004417,None,,,,,,,,,,,,,,,,,,,,,,,,,,,,,,,,,,,brain,109,26,aloud,blue,492.34033320005983,None,None,492.34033320005983,None,,,,,,,,,,,,,,,,,,,,,,,,,,,,,,87YC,001,2023_Aug_30_1659,ExactRep-v3-final,2021.2.3,59.421731501759645,
,,,,,,,,26,0,26,0,,,,,,,,,,,,,,,,,,,,,,,,,,,,,,,,,,,,,,,,,,,,,,,,,,,,,496.8461791999871,None,,,,,,,,,,,,,,,,,,,,,,,,,,,,,,,,,,,fire,23,27,sing,white,494.8427523999708,None,None,494.8427523999708,None,,,,,,,,,,,,,,,,,,,,,,,,,,,,,,87YC,001,2023_Aug_30_1659,ExactRep-v3-final,2021.2.3,59.421731501759645,
,,,,,,,,27,0,27,0,,,,,,,,,,,,,,,,,,,,,,,,,,,,,,,,,,,,,,,,,,,,,,,,,,,,,499.3629452000605,None,,,,,,,,,,,,,,,,,,,,,,,,,,,,,,,,,,,green,106,28,aloud,blue,497.3628678000532,None,None,497.3628678000532,None,,,,,,,,,,,,,,,,,,,,,,,,,,,,,,87YC,001,2023_Aug_30_1659,ExactRep-v3-final,2021.2.3,59.421731501759645,
,,,,,,,,28,0,28,0,,,,,,,,,,,,,,,,,,,,,,,,,,,,,,,,,,,,,,,,,,,,,,,,,,,,,501.8649141000351,None,,,,,,,,,,,,,,,,,,,,,,,,,,,,,,,,,,,cash,46,29,silent,red,499.8638949999586,None,None,499.8638949999586,None,,,,,,,,,,,,,,,,,,,,,,,,,,,,,,87YC,001,2023_Aug_30_1659,ExactRep-v3-final,2021.2.3,59.421731501759645,
,,,,,,,,29,0,29,0,,,,,,,,,,,,,,,,,,,,,,,,,,,,,,,,,,,,,,,,,,,,,,,,,,,,,504.38447879999876,None,,,,,,,,,,,,,,,,,,,,,,,,,,,,,,,,,,,potato,83,30,aloud,blue,502.3776880999794,None,None,502.3776880999794,None,,,,,,,,,,,,,,,,,,,,,,,,,,,,,,87YC,001,2023_Aug_30_1659,ExactRep-v3-final,2021.2.3,59.421731501759645,
,,,,,,,,30,0,30,0,,,,,,,,,,,,,,,,,,,,,,,,,,,,,,,,,,,,,,,,,,,,,,,,,,,,,506.88687000004575,None,,,,,,,,,,,,,,,,,,,,,,,,,,,,,,,,,,,corn,101,31,aloud,blue,504.8873676999938,None,None,504.8873676999938,None,,,,,,,,,,,,,,,,,,,,,,,,,,,,,,87YC,001,2023_Aug_30_1659,ExactRep-v3-final,2021.2.3,59.421731501759645,
,,,,,,,,31,0,31,0,,,,,,,,,,,,,,,,,,,,,,,,,,,,,,,,,,,,,,,,,,,,,,,,,,,,,509.4061066999566,None,,,,,,,,,,,,,,,,,,,,,,,,,,,,,,,,,,,pupil,85,32,aloud,blue,507.39060340006836,None,None,507.39060340006836,None,,,,,,,,,,,,,,,,,,,,,,,,,,,,,,87YC,001,2023_Aug_30_1659,ExactRep-v3-final,2021.2.3,59.421731501759645,
,,,,,,,,32,0,32,0,,,,,,,,,,,,,,,,,,,,,,,,,,,,,,,,,,,,,,,,,,,,,,,,,,,,,511.9113573000068,None,,,,,,,,,,,,,,,,,,,,,,,,,,,,,,,,,,,soil,82,33,aloud,blue,509.9068397000665,None,None,509.9068397000665,None,,,,,,,,,,,,,,,,,,,,,,,,,,,,,,87YC,001,2023_Aug_30_1659,ExactRep-v3-final,2021.2.3,59.421731501759645,
,,,,,,,,33,0,33,0,,,,,,,,,,,,,,,,,,,,,,,,,,,,,,,,,,,,,,,,,,,,,,,,,,,,,514.4276396000059,None,,,,,,,,,,,,,,,,,,,,,,,,,,,,,,,,,,,ticket,95,34,aloud,blue,512.4261203999631,None,None,512.4261203999631,None,,,,,,,,,,,,,,,,,,,,,,,,,,,,,,87YC,001,2023_Aug_30_1659,ExactRep-v3-final,2021.2.3,59.421731501759645,
,,,,,,,,34,0,34,0,,,,,,,,,,,,,,,,,,,,,,,,,,,,,,,,,,,,,,,,,,,,,,,,,,,,,516.9304505999899,None,,,,,,,,,,,,,,,,,,,,,,,,,,,,,,,,,,,body,68,35,silent,red,514.9298242999939,None,None,514.9298242999939,None,,,,,,,,,,,,,,,,,,,,,,,,,,,,,,87YC,001,2023_Aug_30_1659,ExactRep-v3-final,2021.2.3,59.421731501759645,
,,,,,,,,35,0,35,0,,,,,,,,,,,,,,,,,,,,,,,,,,,,,,,,,,,,,,,,,,,,,,,,,,,,,519.4332108000526,None,,,,,,,,,,,,,,,,,,,,,,,,,,,,,,,,,,,hope,86,36,aloud,blue,517.4328715000302,None,None,517.4328715000302,None,,,,,,,,,,,,,,,,,,,,,,,,,,,,,,87YC,001,2023_Aug_30_1659,ExactRep-v3-final,2021.2.3,59.421731501759645,
,,,,,,,,36,0,36,0,,,,,,,,,,,,,,,,,,,,,,,,,,,,,,,,,,,,,,,,,,,,,,,,,,,,,521.9520423000213,None,,,,,,,,,,,,,,,,,,,,,,,,,,,,,,,,,,,owner,78,37,silent,red,519.9377531000646,None,None,519.9377531000646,None,,,,,,,,,,,,,,,,,,,,,,,,,,,,,,87YC,001,2023_Aug_30_1659,ExactRep-v3-final,2021.2.3,59.421731501759645,
,,,,,,,,37,0,37,0,,,,,,,,,,,,,,,,,,,,,,,,,,,,,,,,,,,,,,,,,,,,,,,,,,,,,524.4543973000254,None,,,,,,,,,,,,,,,,,,,,,,,,,,,,,,,,,,,hall,58,38,silent,red,522.4539564000443,None,None,522.4539564000443,None,,,,,,,,,,,,,,,,,,,,,,,,,,,,,,87YC,001,2023_Aug_30_1659,ExactRep-v3-final,2021.2.3,59.421731501759645,
,,,,,,,,38,0,38,0,,,,,,,,,,,,,,,,,,,,,,,,,,,,,,,,,,,,,,,,,,,,,,,,,,,,,526.9735089000314,None,,,,,,,,,,,,,,,,,,,,,,,,,,,,,,,,,,,bottle,28,39,sing,white,524.9629961999599,None,None,524.9629961999599,None,,,,,,,,,,,,,,,,,,,,,,,,,,,,,,87YC,001,2023_Aug_30_1659,ExactRep-v3-final,2021.2.3,59.421731501759645,
,,,,,,,,39,0,39,0,,,,,,,,,,,,,,,,,,,,,,,,,,,,,,,,,,,,,,,,,,,,,,,,,,,,,529.4758415999822,None,,,,,,,,,,,,,,,,,,,,,,,,,,,,,,,,,,,breast,84,40,aloud,blue,527.4742806999711,None,None,527.4742806999711,None,,,,,,,,,,,,,,,,,,,,,,,,,,,,,,87YC,001,2023_Aug_30_1659,ExactRep-v3-final,2021.2.3,59.421731501759645,
,,,,,,,,40,0,40,0,,,,,,,,,,,,,,,,,,,,,,,,,,,,,,,,,,,,,,,,,,,,,,,,,,,,,531.9951019999571,None,,,,,,,,,,,,,,,,,,,,,,,,,,,,,,,,,,,idea,15,41,sing,white,529.9815263999626,None,None,529.9815263999626,None,,,,,,,,,,,,,,,,,,,,,,,,,,,,,,87YC,001,2023_Aug_30_1659,ExactRep-v3-final,2021.2.3,59.421731501759645,
,,,,,,,,41,0,41,0,,,,,,,,,,,,,,,,,,,,,,,,,,,,,,,,,,,,,,,,,,,,,,,,,,,,,534.5016897000605,None,,,,,,,,,,,,,,,,,,,,,,,,,,,,,,,,,,,woods,90,42,aloud,blue,532.4959236000432,None,None,532.4959236000432,None,,,,,,,,,,,,,,,,,,,,,,,,,,,,,,87YC,001,2023_Aug_30_1659,ExactRep-v3-final,2021.2.3,59.421731501759645,
,,,,,,,,42,0,42,0,,,,,,,,,,,,,,,,,,,,,,,,,,,,,,,,,,,,,,,,,,,,,,,,,,,,,537.033781999955,None,,,,,,,,,,,,,,,,,,,,,,,,,,,,,,,,,,,arm,96,43,aloud,blue,535.0247644999763,None,None,535.0247644999763,None,,,,,,,,,,,,,,,,,,,,,,,,,,,,,,87YC,001,2023_Aug_30_1659,ExactRep-v3-final,2021.2.3,59.421731501759645,
,,,,,,,,43,0,43,0,,,,,,,,,,,,,,,,,,,,,,,,,,,,,,,,,,,,,,,,,,,,,,,,,,,,,539.5365217999788,None,,,,,,,,,,,,,,,,,,,,,,,,,,,,,,,,,,,market,111,44,aloud,blue,537.5368430999806,None,None,537.5368430999806,None,,,,,,,,,,,,,,,,,,,,,,,,,,,,,,87YC,001,2023_Aug_30_1659,ExactRep-v3-final,2021.2.3,59.421731501759645,
,,,,,,,,44,0,44,0,,,,,,,,,,,,,,,,,,,,,,,,,,,,,,,,,,,,,,,,,,,,,,,,,,,,,542.0385102999862,None,,,,,,,,,,,,,,,,,,,,,,,,,,,,,,,,,,,honour,102,45,aloud,blue,540.0366623000009,None,None,540.0366623000009,None,,,,,,,,,,,,,,,,,,,,,,,,,,,,,,87YC,001,2023_Aug_30_1659,ExactRep-v3-final,2021.2.3,59.421731501759645,
,,,,,,,,45,0,45,0,,,,,,,,,,,,,,,,,,,,,,,,,,,,,,,,,,,,,,,,,,,,,,,,,,,,,544.5577975000488,None,,,,,,,,,,,,,,,,,,,,,,,,,,,,,,,,,,,ability,16,46,sing,white,542.5418910000008,None,None,542.5418910000008,None,,,,,,,,,,,,,,,,,,,,,,,,,,,,,,87YC,001,2023_Aug_30_1659,ExactRep-v3-final,2021.2.3,59.421731501759645,
,,,,,,,,46,0,46,0,,,,,,,,,,,,,,,,,,,,,,,,,,,,,,,,,,,,,,,,,,,,,,,,,,,,,547.0771222000476,None,,,,,,,,,,,,,,,,,,,,,,,,,,,,,,,,,,,master,4,47,sing,white,545.0680520000169,None,None,545.0680520000169,None,,,,,,,,,,,,,,,,,,,,,,,,,,,,,,87YC,001,2023_Aug_30_1659,ExactRep-v3-final,2021.2.3,59.421731501759645,
,,,,,,,,47,0,47,0,,,,,,,,,,,,,,,,,,,,,,,,,,,,,,,,,,,,,,,,,,,,,,,,,,,,,549.5959777999669,None,,,,,,,,,,,,,,,,,,,,,,,,,,,,,,,,,,,priest,53,48,silent,red,547.5825500000501,None,None,547.5825500000501,None,,,,,,,,,,,,,,,,,,,,,,,,,,,,,,87YC,001,2023_Aug_30_1659,ExactRep-v3-final,2021.2.3,59.421731501759645,
,,,,,,,,48,0,48,0,,,,,,,,,,,,,,,,,,,,,,,,,,,,,,,,,,,,,,,,,,,,,,,,,,,,,552.1150131999748,None,,,,,,,,,,,,,,,,,,,,,,,,,,,,,,,,,,,effort,71,49,silent,red,550.1010421999963,None,None,550.1010421999963,None,,,,,,,,,,,,,,,,,,,,,,,,,,,,,,87YC,001,2023_Aug_30_1659,ExactRep-v3-final,2021.2.3,59.421731501759645,
,,,,,,,,49,0,49,0,,,,,,,,,,,,,,,,,,,,,,,,,,,,,,,,,,,,,,,,,,,,,,,,,,,,,554.6353769999696,None,,,,,,,,,,,,,,,,,,,,,,,,,,,,,,,,,,,lord,107,50,aloud,blue,552.6209603999741,None,None,552.6209603999741,None,,,,,,,,,,,,,,,,,,,,,,,,,,,,,,87YC,001,2023_Aug_30_1659,ExactRep-v3-final,2021.2.3,59.421731501759645,
,,,,,,,,50,0,50,0,,,,,,,,,,,,,,,,,,,,,,,,,,,,,,,,,,,,,,,,,,,,,,,,,,,,,557.1537628000369,None,,,,,,,,,,,,,,,,,,,,,,,,,,,,,,,,,,,flower,66,51,silent,red,555.1386620999547,None,None,555.1386620999547,None,,,,,,,,,,,,,,,,,,,,,,,,,,,,,,87YC,001,2023_Aug_30_1659,ExactRep-v3-final,2021.2.3,59.421731501759645,
,,,,,,,,51,0,51,0,,,,,,,,,,,,,,,,,,,,,,,,,,,,,,,,,,,,,,,,,,,,,,,,,,,,,559.673910100013,None,,,,,,,,,,,,,,,,,,,,,,,,,,,,,,,,,,,tool,113,52,aloud,blue,557.6606662999839,None,None,557.6606662999839,None,,,,,,,,,,,,,,,,,,,,,,,,,,,,,,87YC,001,2023_Aug_30_1659,ExactRep-v3-final,2021.2.3,59.421731501759645,
,,,,,,,,52,0,52,0,,,,,,,,,,,,,,,,,,,,,,,,,,,,,,,,,,,,,,,,,,,,,,,,,,,,,562.1917546000332,None,,,,,,,,,,,,,,,,,,,,,,,,,,,,,,,,,,,officer,115,53,aloud,blue,560.1896135000279,None,None,560.1896135000279,None,,,,,,,,,,,,,,,,,,,,,,,,,,,,,,87YC,001,2023_Aug_30_1659,ExactRep-v3-final,2021.2.3,59.421731501759645,
,,,,,,,,53,0,53,0,,,,,,,,,,,,,,,,,,,,,,,,,,,,,,,,,,,,,,,,,,,,,,,,,,,,,564.6971772999968,None,,,,,,,,,,,,,,,,,,,,,,,,,,,,,,,,,,,palace,21,54,sing,white,562.6927678000648,None,None,562.6927678000648,None,,,,,,,,,,,,,,,,,,,,,,,,,,,,,,87YC,001,2023_Aug_30_1659,ExactRep-v3-final,2021.2.3,59.421731501759645,
,,,,,,,,54,0,54,0,,,,,,,,,,,,,,,,,,,,,,,,,,,,,,,,,,,,,,,,,,,,,,,,,,,,,567.2141184000066,None,,,,,,,,,,,,,,,,,,,,,,,,,,,,,,,,,,,world,110,55,aloud,blue,565.2123450000072,None,None,565.2123450000072,None,,,,,,,,,,,,,,,,,,,,,,,,,,,,,,87YC,001,2023_Aug_30_1659,ExactRep-v3-final,2021.2.3,59.421731501759645,
,,,,,,,,55,0,55,0,,,,,,,,,,,,,,,,,,,,,,,,,,,,,,,,,,,,,,,,,,,,,,,,,,,,,569.7161970000016,None,,,,,,,,,,,,,,,,,,,,,,,,,,,,,,,,,,,season,97,56,aloud,blue,567.7146855000174,None,None,567.7146855000174,None,,,,,,,,,,,,,,,,,,,,,,,,,,,,,,87YC,001,2023_Aug_30_1659,ExactRep-v3-final,2021.2.3,59.421731501759645,
,,,,,,,,56,0,56,0,,,,,,,,,,,,,,,,,,,,,,,,,,,,,,,,,,,,,,,,,,,,,,,,,,,,,572.2186913000187,None,,,,,,,,,,,,,,,,,,,,,,,,,,,,,,,,,,,freedom,44,57,silent,red,570.2173533999594,None,None,570.2173533999594,None,,,,,,,,,,,,,,,,,,,,,,,,,,,,,,87YC,001,2023_Aug_30_1659,ExactRep-v3-final,2021.2.3,59.421731501759645,
,,,,,,,,57,0,57,0,,,,,,,,,,,,,,,,,,,,,,,,,,,,,,,,,,,,,,,,,,,,,,,,,,,,,574.7213776999852,None,,,,,,,,,,,,,,,,,,,,,,,,,,,,,,,,,,,dollar,61,58,silent,red,572.7200345000019,None,None,572.7200345000019,None,,,,,,,,,,,,,,,,,,,,,,,,,,,,,,87YC,001,2023_Aug_30_1659,ExactRep-v3-final,2021.2.3,59.421731501759645,
,,,,,,,,58,0,58,0,,,,,,,,,,,,,,,,,,,,,,,,,,,,,,,,,,,,,,,,,,,,,,,,,,,,,577.2232953000348,None,,,,,,,,,,,,,,,,,,,,,,,,,,,,,,,,,,,blood,116,59,aloud,blue,575.2221243999666,None,None,575.2221243999666,None,,,,,,,,,,,,,,,,,,,,,,,,,,,,,,87YC,001,2023_Aug_30_1659,ExactRep-v3-final,2021.2.3,59.421731501759645,
,,,,,,,,59,0,59,0,,,,,,,,,,,,,,,,,,,,,,,,,,,,,,,,,,,,,,,,,,,,,,,,,,,,,579.7262122000102,None,,,,,,,,,,,,,,,,,,,,,,,,,,,,,,,,,,,love,50,60,silent,red,577.7242745000403,None,None,577.7242745000403,None,,,,,,,,,,,,,,,,,,,,,,,,,,,,,,87YC,001,2023_Aug_30_1659,ExactRep-v3-final,2021.2.3,59.421731501759645,
,,,,,,,,60,0,60,0,,,,,,,,,,,,,,,,,,,,,,,,,,,,,,,,,,,,,,,,,,,,,,,,,,,,,582.2452460000059,None,,,,,,,,,,,,,,,,,,,,,,,,,,,,,,,,,,,college,31,61,sing,white,580.2347362999571,None,None,580.2347362999571,None,,,,,,,,,,,,,,,,,,,,,,,,,,,,,,87YC,001,2023_Aug_30_1659,ExactRep-v3-final,2021.2.3,59.421731501759645,
,,,,,,,,61,0,61,0,,,,,,,,,,,,,,,,,,,,,,,,,,,,,,,,,,,,,,,,,,,,,,,,,,,,,584.7478590999963,None,,,,,,,,,,,,,,,,,,,,,,,,,,,,,,,,,,,storm,75,62,silent,red,582.7458793000551,None,None,582.7458793000551,None,,,,,,,,,,,,,,,,,,,,,,,,,,,,,,87YC,001,2023_Aug_30_1659,ExactRep-v3-final,2021.2.3,59.421731501759645,
,,,,,,,,62,0,62,0,,,,,,,,,,,,,,,,,,,,,,,,,,,,,,,,,,,,,,,,,,,,,,,,,,,,,587.2504901000066,None,,,,,,,,,,,,,,,,,,,,,,,,,,,,,,,,,,,window,54,63,silent,red,585.2505719000474,None,None,585.2505719000474,None,,,,,,,,,,,,,,,,,,,,,,,,,,,,,,87YC,001,2023_Aug_30_1659,ExactRep-v3-final,2021.2.3,59.421731501759645,
,,,,,,,,63,0,63,0,,,,,,,,,,,,,,,,,,,,,,,,,,,,,,,,,,,,,,,,,,,,,,,,,,,,,589.7698642000323,None,,,,,,,,,,,,,,,,,,,,,,,,,,,,,,,,,,,form,72,64,silent,red,587.7591804000549,None,None,587.7591804000549,None,,,,,,,,,,,,,,,,,,,,,,,,,,,,,,87YC,001,2023_Aug_30_1659,ExactRep-v3-final,2021.2.3,59.421731501759645,
,,,,,,,,64,0,64,0,,,,,,,,,,,,,,,,,,,,,,,,,,,,,,,,,,,,,,,,,,,,,,,,,,,,,592.2721062999917,None,,,,,,,,,,,,,,,,,,,,,,,,,,,,,,,,,,,cottage,119,65,aloud,blue,590.2710456000641,None,None,590.2710456000641,None,,,,,,,,,,,,,,,,,,,,,,,,,,,,,,87YC,001,2023_Aug_30_1659,ExactRep-v3-final,2021.2.3,59.421731501759645,
,,,,,,,,65,0,65,0,,,,,,,,,,,,,,,,,,,,,,,,,,,,,,,,,,,,,,,,,,,,,,,,,,,,,594.7746260999702,None,,,,,,,,,,,,,,,,,,,,,,,,,,,,,,,,,,,apple,30,66,sing,white,592.7750134000089,None,None,592.7750134000089,None,,,,,,,,,,,,,,,,,,,,,,,,,,,,,,87YC,001,2023_Aug_30_1659,ExactRep-v3-final,2021.2.3,59.421731501759645,
,,,,,,,,66,0,66,0,,,,,,,,,,,,,,,,,,,,,,,,,,,,,,,,,,,,,,,,,,,,,,,,,,,,,597.2775304999668,None,,,,,,,,,,,,,,,,,,,,,,,,,,,,,,,,,,,series,40,67,silent,red,595.2767964999657,None,None,595.2767964999657,None,,,,,,,,,,,,,,,,,,,,,,,,,,,,,,87YC,001,2023_Aug_30_1659,ExactRep-v3-final,2021.2.3,59.421731501759645,
,,,,,,,,67,0,67,0,,,,,,,,,,,,,,,,,,,,,,,,,,,,,,,,,,,,,,,,,,,,,,,,,,,,,599.7845175999682,None,,,,,,,,,,,,,,,,,,,,,,,,,,,,,,,,,,,dust,41,68,silent,red,597.7777528000297,None,None,597.7777528000297,None,,,,,,,,,,,,,,,,,,,,,,,,,,,,,,87YC,001,2023_Aug_30_1659,ExactRep-v3-final,2021.2.3,59.421731501759645,
,,,,,,,,68,0,68,0,,,,,,,,,,,,,,,,,,,,,,,,,,,,,,,,,,,,,,,,,,,,,,,,,,,,,602.3014298999915,None,,,,,,,,,,,,,,,,,,,,,,,,,,,,,,,,,,,shoes,39,69,silent,red,600.2966163000092,None,None,600.2966163000092,None,,,,,,,,,,,,,,,,,,,,,,,,,,,,,,87YC,001,2023_Aug_30_1659,ExactRep-v3-final,2021.2.3,59.421731501759645,
,,,,,,,,69,0,69,0,,,,,,,,,,,,,,,,,,,,,,,,,,,,,,,,,,,,,,,,,,,,,,,,,,,,,604.835177800036,None,,,,,,,,,,,,,,,,,,,,,,,,,,,,,,,,,,,pole,10,70,sing,white,602.8232079000445,None,None,602.8232079000445,None,,,,,,,,,,,,,,,,,,,,,,,,,,,,,,87YC,001,2023_Aug_30_1659,ExactRep-v3-final,2021.2.3,59.421731501759645,
,,,,,,,,70,0,70,0,,,,,,,,,,,,,,,,,,,,,,,,,,,,,,,,,,,,,,,,,,,,,,,,,,,,,607.3371200000402,None,,,,,,,,,,,,,,,,,,,,,,,,,,,,,,,,,,,steam,87,71,aloud,blue,605.3355746000307,None,None,605.3355746000307,None,,,,,,,,,,,,,,,,,,,,,,,,,,,,,,87YC,001,2023_Aug_30_1659,ExactRep-v3-final,2021.2.3,59.421731501759645,
,,,,,,,,71,0,71,0,,,,,,,,,,,,,,,,,,,,,,,,,,,,,,,,,,,,,,,,,,,,,,,,,,,,,609.8396572000347,None,,,,,,,,,,,,,,,,,,,,,,,,,,,,,,,,,,,book,27,72,sing,white,607.8381958999671,None,None,607.8381958999671,None,,,,,,,,,,,,,,,,,,,,,,,,,,,,,,87YC,001,2023_Aug_30_1659,ExactRep-v3-final,2021.2.3,59.421731501759645,
,,,,,,,,72,0,72,0,,,,,,,,,,,,,,,,,,,,,,,,,,,,,,,,,,,,,,,,,,,,,,,,,,,,,612.3591358000413,None,,,,,,,,,,,,,,,,,,,,,,,,,,,,,,,,,,,sky,43,73,silent,red,610.3559954999946,None,None,610.3559954999946,None,,,,,,,,,,,,,,,,,,,,,,,,,,,,,,87YC,001,2023_Aug_30_1659,ExactRep-v3-final,2021.2.3,59.421731501759645,
,,,,,,,,73,0,73,0,,,,,,,,,,,,,,,,,,,,,,,,,,,,,,,,,,,,,,,,,,,,,,,,,,,,,614.8612211999716,None,,,,,,,,,,,,,,,,,,,,,,,,,,,,,,,,,,,weapon,91,74,aloud,blue,612.8593936000252,None,None,612.8593936000252,None,,,,,,,,,,,,,,,,,,,,,,,,,,,,,,87YC,001,2023_Aug_30_1659,ExactRep-v3-final,2021.2.3,59.421731501759645,
,,,,,,,,74,0,74,0,,,,,,,,,,,,,,,,,,,,,,,,,,,,,,,,,,,,,,,,,,,,,,,,,,,,,617.3640959999757,None,,,,,,,,,,,,,,,,,,,,,,,,,,,,,,,,,,,paper,108,75,aloud,blue,615.3627772000618,None,None,615.3627772000618,None,,,,,,,,,,,,,,,,,,,,,,,,,,,,,,87YC,001,2023_Aug_30_1659,ExactRep-v3-final,2021.2.3,59.421731501759645,
,,,,,,,,75,0,75,0,,,,,,,,,,,,,,,,,,,,,,,,,,,,,,,,,,,,,,,,,,,,,,,,,,,,,619.882604100043,None,,,,,,,,,,,,,,,,,,,,,,,,,,,,,,,,,,,friend,13,76,sing,white,617.8696772999829,None,None,617.8696772999829,None,,,,,,,,,,,,,,,,,,,,,,,,,,,,,,87YC,001,2023_Aug_30_1659,ExactRep-v3-final,2021.2.3,59.421731501759645,
,,,,,,,,76,0,76,0,,,,,,,,,,,,,,,,,,,,,,,,,,,,,,,,,,,,,,,,,,,,,,,,,,,,,622.3854762000265,None,,,,,,,,,,,,,,,,,,,,,,,,,,,,,,,,,,,teacher,7,77,sing,white,620.3837609000038,None,None,620.3837609000038,None,,,,,,,,,,,,,,,,,,,,,,,,,,,,,,87YC,001,2023_Aug_30_1659,ExactRep-v3-final,2021.2.3,59.421731501759645,
,,,,,,,,77,0,77,0,,,,,,,,,,,,,,,,,,,,,,,,,,,,,,,,,,,,,,,,,,,,,,,,,,,,,624.8885776000097,None,,,,,,,,,,,,,,,,,,,,,,,,,,,,,,,,,,,truth,56,78,silent,red,622.8866306999698,None,None,622.8866306999698,None,,,,,,,,,,,,,,,,,,,,,,,,,,,,,,87YC,001,2023_Aug_30_1659,ExactRep-v3-final,2021.2.3,59.421731501759645,
,,,,,,,,78,0,78,0,,,,,,,,,,,,,,,,,,,,,,,,,,,,,,,,,,,,,,,,,,,,,,,,,,,,,627.3906669999706,None,,,,,,,,,,,,,,,,,,,,,,,,,,,,,,,,,,,camp,70,79,silent,red,625.390791199985,None,None,625.390791199985,None,,,,,,,,,,,,,,,,,,,,,,,,,,,,,,87YC,001,2023_Aug_30_1659,ExactRep-v3-final,2021.2.3,59.421731501759645,
,,,,,,,,79,0,79,0,,,,,,,,,,,,,,,,,,,,,,,,,,,,,,,,,,,,,,,,,,,,,,,,,,,,,629.893184900051,None,,,,,,,,,,,,,,,,,,,,,,,,,,,,,,,,,,,blossom,55,80,silent,red,627.8917944000568,None,None,627.8917944000568,None,,,,,,,,,,,,,,,,,,,,,,,,,,,,,,87YC,001,2023_Aug_30_1659,ExactRep-v3-final,2021.2.3,59.421731501759645,
,,,,,,,,80,0,80,0,,,,,,,,,,,,,,,,,,,,,,,,,,,,,,,,,,,,,,,,,,,,,,,,,,,,,632.3955357000232,None,,,,,,,,,,,,,,,,,,,,,,,,,,,,,,,,,,,shore,3,81,sing,white,630.3955249000574,None,None,630.3955249000574,None,,,,,,,,,,,,,,,,,,,,,,,,,,,,,,87YC,001,2023_Aug_30_1659,ExactRep-v3-final,2021.2.3,59.421731501759645,
,,,,,,,,81,0,81,0,,,,,,,,,,,,,,,,,,,,,,,,,,,,,,,,,,,,,,,,,,,,,,,,,,,,,634.9005095000612,None,,,,,,,,,,,,,,,,,,,,,,,,,,,,,,,,,,,leader,60,82,silent,red,632.8966015999904,None,None,632.8966015999904,None,,,,,,,,,,,,,,,,,,,,,,,,,,,,,,87YC,001,2023_Aug_30_1659,ExactRep-v3-final,2021.2.3,59.421731501759645,
,,,,,,,,82,0,82,0,,,,,,,,,,,,,,,,,,,,,,,,,,,,,,,,,,,,,,,,,,,,,,,,,,,,,637.422381500015,None,,,,,,,,,,,,,,,,,,,,,,,,,,,,,,,,,,,wife,38,83,sing,white,635.4156143000582,None,None,635.4156143000582,None,,,,,,,,,,,,,,,,,,,,,,,,,,,,,,87YC,001,2023_Aug_30_1659,ExactRep-v3-final,2021.2.3,59.421731501759645,
,,,,,,,,83,0,83,0,,,,,,,,,,,,,,,,,,,,,,,,,,,,,,,,,,,,,,,,,,,,,,,,,,,,,639.937002700055,None,,,,,,,,,,,,,,,,,,,,,,,,,,,,,,,,,,,kiss,69,84,silent,red,637.934588400065,None,None,637.934588400065,None,,,,,,,,,,,,,,,,,,,,,,,,,,,,,,87YC,001,2023_Aug_30_1659,ExactRep-v3-final,2021.2.3,59.421731501759645,
,,,,,,,,84,0,84,0,,,,,,,,,,,,,,,,,,,,,,,,,,,,,,,,,,,,,,,,,,,,,,,,,,,,,642.4386002999963,None,,,,,,,,,,,,,,,,,,,,,,,,,,,,,,,,,,,letter,19,85,sing,white,640.4391485999804,None,None,640.4391485999804,None,,,,,,,,,,,,,,,,,,,,,,,,,,,,,,87YC,001,2023_Aug_30_1659,ExactRep-v3-final,2021.2.3,59.421731501759645,
,,,,,,,,85,0,85,0,,,,,,,,,,,,,,,,,,,,,,,,,,,,,,,,,,,,,,,,,,,,,,,,,,,,,644.9445073000388,None,,,,,,,,,,,,,,,,,,,,,,,,,,,,,,,,,,,thought,65,86,silent,red,642.9410416999599,None,None,642.9410416999599,None,,,,,,,,,,,,,,,,,,,,,,,,,,,,,,87YC,001,2023_Aug_30_1659,ExactRep-v3-final,2021.2.3,59.421731501759645,
,,,,,,,,86,0,86,0,,,,,,,,,,,,,,,,,,,,,,,,,,,,,,,,,,,,,,,,,,,,,,,,,,,,,647.4612718999851,None,,,,,,,,,,,,,,,,,,,,,,,,,,,,,,,,,,,mind,6,87,sing,white,645.4584156000055,None,None,645.4584156000055,None,,,,,,,,,,,,,,,,,,,,,,,,,,,,,,87YC,001,2023_Aug_30_1659,ExactRep-v3-final,2021.2.3,59.421731501759645,
,,,,,,,,87,0,87,0,,,,,,,,,,,,,,,,,,,,,,,,,,,,,,,,,,,,,,,,,,,,,,,,,,,,,649.9627499000635,None,,,,,,,,,,,,,,,,,,,,,,,,,,,,,,,,,,,grief,0,88,sing,white,647.9615205000155,None,None,647.9615205000155,None,,,,,,,,,,,,,,,,,,,,,,,,,,,,,,87YC,001,2023_Aug_30_1659,ExactRep-v3-final,2021.2.3,59.421731501759645,
,,,,,,,,88,0,88,0,,,,,,,,,,,,,,,,,,,,,,,,,,,,,,,,,,,,,,,,,,,,,,,,,,,,,652.4829943999648,None,,,,,,,,,,,,,,,,,,,,,,,,,,,,,,,,,,,life,33,89,sing,white,650.4751097999979,None,None,650.4751097999979,None,,,,,,,,,,,,,,,,,,,,,,,,,,,,,,87YC,001,2023_Aug_30_1659,ExactRep-v3-final,2021.2.3,59.421731501759645,
,,,,,,,,89,0,89,0,,,,,,,,,,,,,,,,,,,,,,,,,,,,,,,,,,,,,,,,,,,,,,,,,,,,,654.984781300067,None,,,,,,,,,,,,,,,,,,,,,,,,,,,,,,,,,,,method,12,90,sing,white,652.9830853999592,None,None,652.9830853999592,None,,,,,,,,,,,,,,,,,,,,,,,,,,,,,,87YC,001,2023_Aug_30_1659,ExactRep-v3-final,2021.2.3,59.421731501759645,
,,,,,,,,90,0,90,0,,,,,,,,,,,,,,,,,,,,,,,,,,,,,,,,,,,,,,,,,,,,,,,,,,,,,657.5037524000509,None,,,,,,,,,,,,,,,,,,,,,,,,,,,,,,,,,,,tree,57,91,silent,red,655.4896687000291,None,None,655.4896687000291,None,,,,,,,,,,,,,,,,,,,,,,,,,,,,,,87YC,001,2023_Aug_30_1659,ExactRep-v3-final,2021.2.3,59.421731501759645,
,,,,,,,,91,0,91,0,,,,,,,,,,,,,,,,,,,,,,,,,,,,,,,,,,,,,,,,,,,,,,,,,,,,,660.0138660999946,None,,,,,,,,,,,,,,,,,,,,,,,,,,,,,,,,,,,earth,2,92,sing,white,658.0049341999693,None,None,658.0049341999693,None,,,,,,,,,,,,,,,,,,,,,,,,,,,,,,87YC,001,2023_Aug_30_1659,ExactRep-v3-final,2021.2.3,59.421731501759645,
,,,,,,,,92,0,92,0,,,,,,,,,,,,,,,,,,,,,,,,,,,,,,,,,,,,,,,,,,,,,,,,,,,,,662.5270925000077,None,,,,,,,,,,,,,,,,,,,,,,,,,,,,,,,,,,,advice,48,93,silent,red,660.5245813999791,None,None,660.5245813999791,None,,,,,,,,,,,,,,,,,,,,,,,,,,,,,,87YC,001,2023_Aug_30_1659,ExactRep-v3-final,2021.2.3,59.421731501759645,
,,,,,,,,93,0,93,0,,,,,,,,,,,,,,,,,,,,,,,,,,,,,,,,,,,,,,,,,,,,,,,,,,,,,665.0445352999959,None,,,,,,,,,,,,,,,,,,,,,,,,,,,,,,,,,,,speech,18,94,sing,white,663.0430257000262,None,None,663.0430257000262,None,,,,,,,,,,,,,,,,,,,,,,,,,,,,,,87YC,001,2023_Aug_30_1659,ExactRep-v3-final,2021.2.3,59.421731501759645,
,,,,,,,,94,0,94,0,,,,,,,,,,,,,,,,,,,,,,,,,,,,,,,,,,,,,,,,,,,,,,,,,,,,,667.5665001999587,None,,,,,,,,,,,,,,,,,,,,,,,,,,,,,,,,,,,artist,49,95,silent,red,665.5522829999682,None,None,665.5522829999682,None,,,,,,,,,,,,,,,,,,,,,,,,,,,,,,87YC,001,2023_Aug_30_1659,ExactRep-v3-final,2021.2.3,59.421731501759645,
,,,,,,,,95,0,95,0,,,,,,,,,,,,,,,,,,,,,,,,,,,,,,,,,,,,,,,,,,,,,,,,,,,,,670.0690145000117,None,,,,,,,,,,,,,,,,,,,,,,,,,,,,,,,,,,,car,105,96,aloud,blue,668.0674996000016,None,None,668.0674996000016,None,,,,,,,,,,,,,,,,,,,,,,,,,,,,,,87YC,001,2023_Aug_30_1659,ExactRep-v3-final,2021.2.3,59.421731501759645,
,,,,,,,,96,0,96,0,,,,,,,,,,,,,,,,,,,,,,,,,,,,,,,,,,,,,,,,,,,,,,,,,,,,,672.5881399000064,None,,,,,,,,,,,,,,,,,,,,,,,,,,,,,,,,,,,circle,99,97,aloud,blue,670.58388619998,None,None,670.58388619998,None,,,,,,,,,,,,,,,,,,,,,,,,,,,,,,87YC,001,2023_Aug_30_1659,ExactRep-v3-final,2021.2.3,59.421731501759645,
,,,,,,,,97,0,97,0,,,,,,,,,,,,,,,,,,,,,,,,,,,,,,,,,,,,,,,,,,,,,,,,,,,,,675.1048119000625,None,,,,,,,,,,,,,,,,,,,,,,,,,,,,,,,,,,,science,24,98,sing,white,673.096530699986,None,None,673.096530699986,None,,,,,,,,,,,,,,,,,,,,,,,,,,,,,,87YC,001,2023_Aug_30_1659,ExactRep-v3-final,2021.2.3,59.421731501759645,
,,,,,,,,98,0,98,0,,,,,,,,,,,,,,,,,,,,,,,,,,,,,,,,,,,,,,,,,,,,,,,,,,,,,677.6238765000599,None,,,,,,,,,,,,,,,,,,,,,,,,,,,,,,,,,,,coast,104,99,aloud,blue,675.6095861999784,None,None,675.6095861999784,None,,,,,,,,,,,,,,,,,,,,,,,,,,,,,,87YC,001,2023_Aug_30_1659,ExactRep-v3-final,2021.2.3,59.421731501759645,
,,,,,,,,99,0,99,0,,,,,,,,,,,,,,,,,,,,,,,,,,,,,,,,,,,,,,,,,,,,,,,,,,,,,680.1268929999787,None,,,,,,,,,,,,,,,,,,,,,,,,,,,,,,,,,,,custom,63,100,silent,red,678.1246230000397,None,None,678.1246230000397,None,,,,,,,,,,,,,,,,,,,,,,,,,,,,,,87YC,001,2023_Aug_30_1659,ExactRep-v3-final,2021.2.3,59.421731501759645,
,,,,,,,,100,0,100,0,,,,,,,,,,,,,,,,,,,,,,,,,,,,,,,,,,,,,,,,,,,,,,,,,,,,,682.6286778000649,None,,,,,,,,,,,,,,,,,,,,,,,,,,,,,,,,,,,chance,22,101,sing,white,680.6270579999546,None,None,680.6270579999546,None,,,,,,,,,,,,,,,,,,,,,,,,,,,,,,87YC,001,2023_Aug_30_1659,ExactRep-v3-final,2021.2.3,59.421731501759645,
,,,,,,,,101,0,101,0,,,,,,,,,,,,,,,,,,,,,,,,,,,,,,,,,,,,,,,,,,,,,,,,,,,,,685.1316978000104,None,,,,,,,,,,,,,,,,,,,,,,,,,,,,,,,,,,,passion,94,102,aloud,blue,683.1299813999794,None,None,683.1299813999794,None,,,,,,,,,,,,,,,,,,,,,,,,,,,,,,87YC,001,2023_Aug_30_1659,ExactRep-v3-final,2021.2.3,59.421731501759645,
,,,,,,,,102,0,102,0,,,,,,,,,,,,,,,,,,,,,,,,,,,,,,,,,,,,,,,,,,,,,,,,,,,,,687.6347220999887,None,,,,,,,,,,,,,,,,,,,,,,,,,,,,,,,,,,,bar,62,103,silent,red,685.6321718000108,None,None,685.6321718000108,None,,,,,,,,,,,,,,,,,,,,,,,,,,,,,,87YC,001,2023_Aug_30_1659,ExactRep-v3-final,2021.2.3,59.421731501759645,
,,,,,,,,103,0,103,0,,,,,,,,,,,,,,,,,,,,,,,,,,,,,,,,,,,,,,,,,,,,,,,,,,,,,690.153122000047,None,,,,,,,,,,,,,,,,,,,,,,,,,,,,,,,,,,,money,64,104,silent,red,688.1461033000378,None,None,688.1461033000378,None,,,,,,,,,,,,,,,,,,,,,,,,,,,,,,87YC,001,2023_Aug_30_1659,ExactRep-v3-final,2021.2.3,59.421731501759645,
,,,,,,,,104,0,104,0,,,,,,,,,,,,,,,,,,,,,,,,,,,,,,,,,,,,,,,,,,,,,,,,,,,,,692.6556295000482,None,,,,,,,,,,,,,,,,,,,,,,,,,,,,,,,,,,,square,103,105,aloud,blue,690.6560999000212,None,None,690.6560999000212,None,,,,,,,,,,,,,,,,,,,,,,,,,,,,,,87YC,001,2023_Aug_30_1659,ExactRep-v3-final,2021.2.3,59.421731501759645,
,,,,,,,,105,0,105,0,,,,,,,,,,,,,,,,,,,,,,,,,,,,,,,,,,,,,,,,,,,,,,,,,,,,,695.1601048000157,None,,,,,,,,,,,,,,,,,,,,,,,,,,,,,,,,,,,vision,42,106,silent,red,693.1586180999875,None,None,693.1586180999875,None,,,,,,,,,,,,,,,,,,,,,,,,,,,,,,87YC,001,2023_Aug_30_1659,ExactRep-v3-final,2021.2.3,59.421731501759645,
,,,,,,,,106,0,106,0,,,,,,,,,,,,,,,,,,,,,,,,,,,,,,,,,,,,,,,,,,,,,,,,,,,,,697.677806599997,None,,,,,,,,,,,,,,,,,,,,,,,,,,,,,,,,,,,ocean,5,107,sing,white,695.6638683000347,None,None,695.6638683000347,None,,,,,,,,,,,,,,,,,,,,,,,,,,,,,,87YC,001,2023_Aug_30_1659,ExactRep-v3-final,2021.2.3,59.421731501759645,
,,,,,,,,107,0,107,0,,,,,,,,,,,,,,,,,,,,,,,,,,,,,,,,,,,,,,,,,,,,,,,,,,,,,700.1800399000058,None,,,,,,,,,,,,,,,,,,,,,,,,,,,,,,,,,,,gift,14,108,sing,white,698.1801516000414,None,None,698.1801516000414,None,,,,,,,,,,,,,,,,,,,,,,,,,,,,,,87YC,001,2023_Aug_30_1659,ExactRep-v3-final,2021.2.3,59.421731501759645,
,,,,,,,,108,0,108,0,,,,,,,,,,,,,,,,,,,,,,,,,,,,,,,,,,,,,,,,,,,,,,,,,,,,,702.699158100062,None,,,,,,,,,,,,,,,,,,,,,,,,,,,,,,,,,,,house,9,109,sing,white,700.6952741000568,None,None,700.6952741000568,None,,,,,,,,,,,,,,,,,,,,,,,,,,,,,,87YC,001,2023_Aug_30_1659,ExactRep-v3-final,2021.2.3,59.421731501759645,
,,,,,,,,109,0,109,0,,,,,,,,,,,,,,,,,,,,,,,,,,,,,,,,,,,,,,,,,,,,,,,,,,,,,705.2216935000615,None,,,,,,,,,,,,,,,,,,,,,,,,,,,,,,,,,,,opinion,11,110,sing,white,703.2025853999658,None,None,703.2025853999658,None,,,,,,,,,,,,,,,,,,,,,,,,,,,,,,87YC,001,2023_Aug_30_1659,ExactRep-v3-final,2021.2.3,59.421731501759645,
,,,,,,,,110,0,110,0,,,,,,,,,,,,,,,,,,,,,,,,,,,,,,,,,,,,,,,,,,,,,,,,,,,,,707.7210101999808,None,,,,,,,,,,,,,,,,,,,,,,,,,,,,,,,,,,,trouble,112,111,aloud,blue,705.7186950000469,None,None,705.7186950000469,None,,,,,,,,,,,,,,,,,,,,,,,,,,,,,,87YC,001,2023_Aug_30_1659,ExactRep-v3-final,2021.2.3,59.421731501759645,
,,,,,,,,111,0,111,0,,,,,,,,,,,,,,,,,,,,,,,,,,,,,,,,,,,,,,,,,,,,,,,,,,,,,710.2233925999608,None,,,,,,,,,,,,,,,,,,,,,,,,,,,,,,,,,,,mother,35,112,sing,white,708.2223924000282,None,None,708.2223924000282,None,,,,,,,,,,,,,,,,,,,,,,,,,,,,,,87YC,001,2023_Aug_30_1659,ExactRep-v3-final,2021.2.3,59.421731501759645,
,,,,,,,,112,0,112,0,,,,,,,,,,,,,,,,,,,,,,,,,,,,,,,,,,,,,,,,,,,,,,,,,,,,,712.7258492000401,None,,,,,,,,,,,,,,,,,,,,,,,,,,,,,,,,,,,garden,93,113,aloud,blue,710.7236629000399,None,None,710.7236629000399,None,,,,,,,,,,,,,,,,,,,,,,,,,,,,,,87YC,001,2023_Aug_30_1659,ExactRep-v3-final,2021.2.3,59.421731501759645,
,,,,,,,,113,0,113,0,,,,,,,,,,,,,,,,,,,,,,,,,,,,,,,,,,,,,,,,,,,,,,,,,,,,,715.2445731000043,None,,,,,,,,,,,,,,,,,,,,,,,,,,,,,,,,,,,devil,51,114,silent,red,713.2412407000083,None,None,713.2412407000083,None,,,,,,,,,,,,,,,,,,,,,,,,,,,,,,87YC,001,2023_Aug_30_1659,ExactRep-v3-final,2021.2.3,59.421731501759645,
,,,,,,,,114,0,114,0,,,,,,,,,,,,,,,,,,,,,,,,,,,,,,,,,,,,,,,,,,,,,,,,,,,,,717.7640233000275,None,,,,,,,,,,,,,,,,,,,,,,,,,,,,,,,,,,,beast,59,115,silent,red,715.7488898000447,None,None,715.7488898000447,None,,,,,,,,,,,,,,,,,,,,,,,,,,,,,,87YC,001,2023_Aug_30_1659,ExactRep-v3-final,2021.2.3,59.421731501759645,
,,,,,,,,115,0,115,0,,,,,,,,,,,,,,,,,,,,,,,,,,,,,,,,,,,,,,,,,,,,,,,,,,,,,720.2834730000468,None,,,,,,,,,,,,,,,,,,,,,,,,,,,,,,,,,,,event,81,116,aloud,blue,718.2708607000532,None,None,718.2708607000532,None,,,,,,,,,,,,,,,,,,,,,,,,,,,,,,87YC,001,2023_Aug_30_1659,ExactRep-v3-final,2021.2.3,59.421731501759645,
,,,,,,,,116,0,116,0,,,,,,,,,,,,,,,,,,,,,,,,,,,,,,,,,,,,,,,,,,,,,,,,,,,,,722.78590909997,None,,,,,,,,,,,,,,,,,,,,,,,,,,,,,,,,,,,justice,29,117,sing,white,720.784480500035,None,None,720.784480500035,None,,,,,,,,,,,,,,,,,,,,,,,,,,,,,,87YC,001,2023_Aug_30_1659,ExactRep-v3-final,2021.2.3,59.421731501759645,
,,,,,,,,117,0,117,0,,,,,,,,,,,,,,,,,,,,,,,,,,,,,,,,,,,,,,,,,,,,,,,,,,,,,725.2880630999571,None,,,,,,,,,,,,,,,,,,,,,,,,,,,,,,,,,,,dress,98,118,aloud,blue,723.2879656000296,None,None,723.2879656000296,None,,,,,,,,,,,,,,,,,,,,,,,,,,,,,,87YC,001,2023_Aug_30_1659,ExactRep-v3-final,2021.2.3,59.421731501759645,
,,,,,,,,118,0,118,0,,,,,,,,,,,,,,,,,,,,,,,,,,,,,,,,,,,,,,,,,,,,,,,,,,,,,727.8079370000632,None,,,,,,,,,,,,,,,,,,,,,,,,,,,,,,,,,,,theory,88,119,aloud,blue,725.7922369999578,None,None,725.7922369999578,None,,,,,,,,,,,,,,,,,,,,,,,,,,,,,,87YC,001,2023_Aug_30_1659,ExactRep-v3-final,2021.2.3,59.421731501759645,
,,,,,,,,119,0,119,0,,,,,,,,,,,,,,,,,,,,,,,,,,,,,,,,,,,,,,,,,,,,,,,,,,,,,730.30976990005,None,,,,,,,,,,,,,,,,,,,,,,,,,,,,,,,,,,,length,80,120,aloud,blue,728.3084891999606,None,None,728.3084891999606,None,,,,,,,,,,,,,,,,,,,,,,,,,,,,,,87YC,001,2023_Aug_30_1659,ExactRep-v3-final,2021.2.3,59.421731501759645,
,,,,,,,,,,,,,,,,,,,,,,,,,,,,,,,,,,,,,,,,,,,,,,,,,,,,,,,,,,,,,,,,,,,,,,,,,,,,,,,,,,,,,,,,,,,,,,,,,,,,,,,,,,,,,,730.8154657999985,None,space,0.3011222999775782,740.8040891999844,None,,,,,,,,,,,,,,,,,,,,,,,,87YC,001,2023_Aug_30_1659,ExactRep-v3-final,2021.2.3,59.421731501759645,
,,,,,,,,,,,,,,,,,,,,,,,,,,,,,,,,,,,,,,,,,,,,,,,,,,,,,,,,,,,,,,,,,,,,,,,,,,,,,,,,,,,,,,,,,,,,,,,,,,,,,,,,,,,,,,,,,,,,741.1223830999807,None,space,27.47131549997721,751.0973065999569,None,,,,,,,,,,,,,,,,,,87YC,001,2023_Aug_30_1659,ExactRep-v3-final,2021.2.3,59.421731501759645,
,,,,,,,,,,,,0,0,0,0,,,,,,,,,,,,,,,,,,,,,,,,,,,,,,,,,,,,,,,,,,,,,,,,,784.8829602999613,None,,,,,,,,,,,,,,,,,,,,,,,,,,,,,,,,,,,,,,,,,,,,,,,,,,,,,,,,,advice,48,1,silent,old,red,779.0980876999674,None,y,779.0980876999674,None,"['y', 'return']","[3.5024267999688163, 5.742473699967377]",779.0980876999674,None,,,87YC,001,2023_Aug_30_1659,ExactRep-v3-final,2021.2.3,59.421731501759645,
,,,,,,,,,,,,1,0,1,0,,,,,,,,,,,,,,,,,,,,,,,,,,,,,,,,,,,,,,,,,,,,,,,,,797.5118566000601,None,,,,,,,,,,,,,,,,,,,,,,,,,,,,,,,,,,,,,,,,,,,,,,,,,,,,,,,,,humour,178,2,aloud,new,blue,785.4003890999593,None,n,785.4003890999593,None,"['n', 'return']","[11.520330799976364, 12.072346500004642]",785.4003890999593,None,,,87YC,001,2023_Aug_30_1659,ExactRep-v3-final,2021.2.3,59.421731501759645,
,,,,,,,,,,,,2,0,2,0,,,,,,,,,,,,,,,,,,,,,,,,,,,,,,,,,,,,,,,,,,,,,,,,,800.6305019999854,None,,,,,,,,,,,,,,,,,,,,,,,,,,,,,,,,,,,,,,,,,,,,,,,,,,,,,,,,,student,205,3,sing,new,white,798.0162408000324,None,n,798.0162408000324,None,"['n', 'return']","[1.9126173999393359, 2.5683554999995977]",798.0162408000324,None,,,87YC,001,2023_Aug_30_1659,ExactRep-v3-final,2021.2.3,59.421731501759645,
,,,,,,,,,,,,3,0,3,0,,,,,,,,,,,,,,,,,,,,,,,,,,,,,,,,,,,,,,,,,,,,,,,,,803.302017500042,None,,,,,,,,,,,,,,,,,,,,,,,,,,,,,,,,,,,,,,,,,,,,,,,,,,,,,,,,,heaven,222,4,aloud,new,blue,801.1354005000321,None,y,801.1354005000321,None,"['y', 'return']","[1.5054362000664696, 2.1292664000065997]",801.1354005000321,None,,,87YC,001,2023_Aug_30_1659,ExactRep-v3-final,2021.2.3,59.421731501759645,
,,,,,,,,,,,,4,0,4,0,,,,,,,,,,,,,,,,,,,,,,,,,,,,,,,,,,,,,,,,,,,,,,,,,805.671000399976,None,,,,,,,,,,,,,,,,,,,,,,,,,,,,,,,,,,,,,,,,,,,,,,,,,,,,,,,,,justice,29,5,sing,old,white,803.8256494000088,None,y,803.8256494000088,None,"['y', 'return']","[1.1601520999101922, 1.8073429999640211]",803.8256494000088,None,,,87YC,001,2023_Aug_30_1659,ExactRep-v3-final,2021.2.3,59.421731501759645,
,,,,,,,,,,,,5,0,5,0,,,,,,,,,,,,,,,,,,,,,,,,,,,,,,,,,,,,,,,,,,,,,,,,,808.206305700005,None,,,,,,,,,,,,,,,,,,,,,,,,,,,,,,,,,,,,,,,,,,,,,,,,,,,,,,,,,skin,198,6,aloud,new,blue,806.1880437000655,None,n,806.1880437000655,None,"['n', 'return']","[1.4284683000296354, 1.9805193000938743]",806.1880437000655,None,,,87YC,001,2023_Aug_30_1659,ExactRep-v3-final,2021.2.3,59.421731501759645,
,,,,,,,,,,,,6,0,6,0,,,,,,,,,,,,,,,,,,,,,,,,,,,,,,,,,,,,,,,,,,,,,,,,,812.126301900018,None,,,,,,,,,,,,,,,,,,,,,,,,,,,,,,,,,,,,,,,,,,,,,,,,,,,,,,,,,mind,6,7,sing,old,white,808.7225979999639,None,y,808.7225979999639,None,"['y', 'return']","[2.49413949996233, 3.366023699985817]",808.7225979999639,None,,,87YC,001,2023_Aug_30_1659,ExactRep-v3-final,2021.2.3,59.421731501759645,
,,,,,,,,,,,,7,0,7,0,,,,,,,,,,,,,,,,,,,,,,,,,,,,,,,,,,,,,,,,,,,,,,,,,814.3424185999902,None,,,,,,,,,,,,,,,,,,,,,,,,,,,,,,,,,,,,,,,,,,,,,,,,,,,,,,,,,fun,142,8,silent,new,red,812.6369832999771,None,n,812.6369832999771,None,"['n', 'return']","[1.0437886000145227, 1.6435364000499249]",812.6369832999771,None,,,87YC,001,2023_Aug_30_1659,ExactRep-v3-final,2021.2.3,59.421731501759645,
,,,,,,,,,,,,8,0,8,0,,,,,,,,,,,,,,,,,,,,,,,,,,,,,,,,,,,,,,,,,,,,,,,,,816.6468009999953,None,,,,,,,,,,,,,,,,,,,,,,,,,,,,,,,,,,,,,,,,,,,,,,,,,,,,,,,,,market,111,9,aloud,old,blue,814.8472180999815,None,y,814.8472180999815,None,"['y', 'return']","[1.1532877000281587, 1.761531600030139]",814.8472180999815,None,,,87YC,001,2023_Aug_30_1659,ExactRep-v3-final,2021.2.3,59.421731501759645,
,,,,,,,,,,,,9,0,9,0,,,,,,,,,,,,,,,,,,,,,,,,,,,,,,,,,,,,,,,,,,,,,,,,,819.1350444999989,None,,,,,,,,,,,,,,,,,,,,,,,,,,,,,,,,,,,,,,,,,,,,,,,,,,,,,,,,,meat,36,10,sing,old,white,817.1516216000309,None,y,817.1516216000309,None,"['y', 'return']","[1.0489070999901742, 1.945640799938701]",817.1516216000309,None,,,87YC,001,2023_Aug_30_1659,ExactRep-v3-final,2021.2.3,59.421731501759645,
,,,,,,,,,,,,10,0,10,0,,,,,,,,,,,,,,,,,,,,,,,,,,,,,,,,,,,,,,,,,,,,,,,,,821.4515866000438,None,,,,,,,,,,,,,,,,,,,,,,,,,,,,,,,,,,,,,,,,,,,,,,,,,,,,,,,,,lake,146,11,silent,new,red,819.6721011999762,None,n,819.6721011999762,None,"['n', 'return']","[1.128462600056082, 1.7367553999647498]",819.6721011999762,None,,,87YC,001,2023_Aug_30_1659,ExactRep-v3-final,2021.2.3,59.421731501759645,
,,,,,,,,,,,,11,0,11,0,,,,,,,,,,,,,,,,,,,,,,,,,,,,,,,,,,,,,,,,,,,,,,,,,823.4866669999901,None,,,,,,,,,,,,,,,,,,,,,,,,,,,,,,,,,,,,,,,,,,,,,,,,,,,,,,,,,vessel,140,12,silent,new,red,821.9604247000534,None,n,821.9604247000534,None,"['n', 'return']","[0.944253700086847, 1.480168400099501]",821.9604247000534,None,,,87YC,001,2023_Aug_30_1659,ExactRep-v3-final,2021.2.3,59.421731501759645,
,,,,,,,,,,,,12,0,12,0,,,,,,,,,,,,,,,,,,,,,,,,,,,,,,,,,,,,,,,,,,,,,,,,,825.5799294000026,None,,,,,,,,,,,,,,,,,,,,,,,,,,,,,,,,,,,,,,,,,,,,,,,,,,,,,,,,,honour,102,13,aloud,old,blue,823.9912651999621,None,y,823.9912651999621,None,"['y', 'return']","[0.9852633000118658, 1.545636700000614]",823.9912651999621,None,,,87YC,001,2023_Aug_30_1659,ExactRep-v3-final,2021.2.3,59.421731501759645,
,,,,,,,,,,,,13,0,13,0,,,,,,,,,,,,,,,,,,,,,,,,,,,,,,,,,,,,,,,,,,,,,,,,,827.9242131999927,None,,,,,,,,,,,,,,,,,,,,,,,,,,,,,,,,,,,,,,,,,,,,,,,,,,,,,,,,,origin,156,14,silent,new,red,826.0917254000669,None,n,826.0917254000669,None,"['n', 'return']","[1.1407997000496835, 1.797191399964504]",826.0917254000669,None,,,87YC,001,2023_Aug_30_1659,ExactRep-v3-final,2021.2.3,59.421731501759645,
,,,,,,,,,,,,14,0,14,0,,,,,,,,,,,,,,,,,,,,,,,,,,,,,,,,,,,,,,,,,,,,,,,,,830.0276918000309,None,,,,,,,,,,,,,,,,,,,,,,,,,,,,,,,,,,,,,,,,,,,,,,,,,,,,,,,,,lad,235,15,sing,new,white,828.4261947000632,None,n,828.4261947000632,None,"['n', 'return']","[1.0544266999932006, 1.558638900052756]",828.4261947000632,None,,,87YC,001,2023_Aug_30_1659,ExactRep-v3-final,2021.2.3,59.421731501759645,
,,,,,,,,,,,,15,0,15,0,,,,,,,,,,,,,,,,,,,,,,,,,,,,,,,,,,,,,,,,,,,,,,,,,832.1995848000515,None,,,,,,,,,,,,,,,,,,,,,,,,,,,,,,,,,,,,,,,,,,,,,,,,,,,,,,,,,church,202,16,aloud,new,blue,830.5443220000016,None,n,830.5443220000016,None,"['n', 'return']","[0.9841854999540374, 1.6082777999108657]",830.5443220000016,None,,,87YC,001,2023_Aug_30_1659,ExactRep-v3-final,2021.2.3,59.421731501759645,
,,,,,,,,,,,,16,0,16,0,,,,,,,,,,,,,,,,,,,,,,,,,,,,,,,,,,,,,,,,,,,,,,,,,834.1476009000326,None,,,,,,,,,,,,,,,,,,,,,,,,,,,,,,,,,,,,,,,,,,,,,,,,,,,,,,,,,hotel,147,17,silent,new,red,832.7163963000057,None,n,832.7163963000057,None,"['n', 'return']","[0.8364416999975219, 1.3884260000195354]",832.7163963000057,None,,,87YC,001,2023_Aug_30_1659,ExactRep-v3-final,2021.2.3,59.421731501759645,
,,,,,,,,,,,,17,0,17,0,,,,,,,,,,,,,,,,,,,,,,,,,,,,,,,,,,,,,,,,,,,,,,,,,836.1846126000164,None,,,,,,,,,,,,,,,,,,,,,,,,,,,,,,,,,,,,,,,,,,,,,,,,,,,,,,,,,mother,35,18,sing,old,white,834.6497739000479,None,y,834.6497739000479,None,"['y', 'return']","[0.950734099955298, 1.486874800059013]",834.6497739000479,None,,,87YC,001,2023_Aug_30_1659,ExactRep-v3-final,2021.2.3,59.421731501759645,
,,,,,,,,,,,,18,0,18,0,,,,,,,,,,,,,,,,,,,,,,,,,,,,,,,,,,,,,,,,,,,,,,,,,838.6541339000687,None,,,,,,,,,,,,,,,,,,,,,,,,,,,,,,,,,,,,,,,,,,,,,,,,,,,,,,,,,meeting,230,19,aloud,new,blue,836.7084919000044,None,y,836.7084919000044,None,"['y', 'return']","[1.2122328999685124, 1.9001882000593469]",836.7084919000044,None,,,87YC,001,2023_Aug_30_1659,ExactRep-v3-final,2021.2.3,59.421731501759645,
,,,,,,,,,,,,19,0,19,0,,,,,,,,,,,,,,,,,,,,,,,,,,,,,,,,,,,,,,,,,,,,,,,,,841.0545438999543,None,,,,,,,,,,,,,,,,,,,,,,,,,,,,,,,,,,,,,,,,,,,,,,,,,,,,,,,,,shadow,171,20,sing,new,white,839.1824815999717,None,n,839.1824815999717,None,"['n', 'return']","[1.2660424000350758, 1.8340122000081465]",839.1824815999717,None,,,87YC,001,2023_Aug_30_1659,ExactRep-v3-final,2021.2.3,59.421731501759645,
,,,,,,,,,,,,20,0,20,0,,,,,,,,,,,,,,,,,,,,,,,,,,,,,,,,,,,,,,,,,,,,,,,,,843.1231393000344,None,,,,,,,,,,,,,,,,,,,,,,,,,,,,,,,,,,,,,,,,,,,,,,,,,,,,,,,,,present,220,21,aloud,new,blue,841.5606619999744,None,y,841.5606619999744,None,"['y', 'return']","[0.9442046000622213, 1.5281323000090197]",841.5606619999744,None,,,87YC,001,2023_Aug_30_1659,ExactRep-v3-final,2021.2.3,59.421731501759645,
,,,,,,,,,,,,21,0,21,0,,,,,,,,,,,,,,,,,,,,,,,,,,,,,,,,,,,,,,,,,,,,,,,,,845.7587679000571,None,,,,,,,,,,,,,,,,,,,,,,,,,,,,,,,,,,,,,,,,,,,,,,,,,,,,,,,,,metal,210,22,aloud,new,blue,843.6276833000593,None,n,843.6276833000593,None,"['n', 'return']","[1.5648573000216857, 2.0931756000500172]",843.6276833000593,None,,,87YC,001,2023_Aug_30_1659,ExactRep-v3-final,2021.2.3,59.421731501759645,
,,,,,,,,,,,,22,0,22,0,,,,,,,,,,,,,,,,,,,,,,,,,,,,,,,,,,,,,,,,,,,,,,,,,847.8453331000637,None,,,,,,,,,,,,,,,,,,,,,,,,,,,,,,,,,,,,,,,,,,,,,,,,,,,,,,,,,safety,187,23,sing,new,white,846.2744828000432,None,y,846.2744828000432,None,"['y', 'return']","[1.038018700084649, 1.5343040000880137]",846.2744828000432,None,,,87YC,001,2023_Aug_30_1659,ExactRep-v3-final,2021.2.3,59.421731501759645,
,,,,,,,,,,,,23,0,23,0,,,,,,,,,,,,,,,,,,,,,,,,,,,,,,,,,,,,,,,,,,,,,,,,,850.213857499999,None,,,,,,,,,,,,,,,,,,,,,,,,,,,,,,,,,,,,,,,,,,,,,,,,,,,,,,,,,master,4,24,sing,old,white,848.345794999972,None,n,848.345794999972,None,"['n', 'return']","[1.3027010000078008, 1.830736399977468]",848.345794999972,None,,,87YC,001,2023_Aug_30_1659,ExactRep-v3-final,2021.2.3,59.421731501759645,
,,,,,,,,,,,,24,0,24,0,,,,,,,,,,,,,,,,,,,,,,,,,,,,,,,,,,,,,,,,,,,,,,,,,852.2355867000297,None,,,,,,,,,,,,,,,,,,,,,,,,,,,,,,,,,,,,,,,,,,,,,,,,,,,,,,,,,thought,65,25,silent,old,red,850.7157233000034,None,n,850.7157233000034,None,"['n', 'return']","[1.0208764999406412, 1.4687638999894261]",850.7157233000034,None,,,87YC,001,2023_Aug_30_1659,ExactRep-v3-final,2021.2.3,59.421731501759645,
,,,,,,,,,,,,25,0,25,0,,,,,,,,,,,,,,,,,,,,,,,,,,,,,,,,,,,,,,,,,,,,,,,,,854.4374672999838,None,,,,,,,,,,,,,,,,,,,,,,,,,,,,,,,,,,,,,,,,,,,,,,,,,,,,,,,,,memory,133,26,silent,new,red,852.7496627999935,None,y,852.7496627999935,None,"['y', 'return']","[1.1388984000077471, 1.6431756000965834]",852.7496627999935,None,,,87YC,001,2023_Aug_30_1659,ExactRep-v3-final,2021.2.3,59.421731501759645,
,,,,,,,,,,,,26,0,26,0,,,,,,,,,,,,,,,,,,,,,,,,,,,,,,,,,,,,,,,,,,,,,,,,,856.7265531000448,None,,,,,,,,,,,,,,,,,,,,,,,,,,,,,,,,,,,,,,,,,,,,,,,,,,,,,,,,,diamond,20,27,sing,old,white,854.9669864999596,None,n,854.9669864999596,None,"['n', 'return']","[1.1214956000912935, 1.7137500999961048]",854.9669864999596,None,,,87YC,001,2023_Aug_30_1659,ExactRep-v3-final,2021.2.3,59.421731501759645,
,,,,,,,,,,,,27,0,27,0,,,,,,,,,,,,,,,,,,,,,,,,,,,,,,,,,,,,,,,,,,,,,,,,,858.7732642999617,None,,,,,,,,,,,,,,,,,,,,,,,,,,,,,,,,,,,,,,,,,,,,,,,,,,,,,,,,,love,50,28,silent,old,red,857.2511391000589,None,y,857.2511391000589,None,"['y', 'return']","[1.0214353000046685, 1.4775840999791399]",857.2511391000589,None,,,87YC,001,2023_Aug_30_1659,ExactRep-v3-final,2021.2.3,59.421731501759645,
,,,,,,,,,,,,28,0,28,0,,,,,,,,,,,,,,,,,,,,,,,,,,,,,,,,,,,,,,,,,,,,,,,,,860.9253848000662,None,,,,,,,,,,,,,,,,,,,,,,,,,,,,,,,,,,,,,,,,,,,,,,,,,,,,,,,,,salary,26,29,sing,old,white,859.2764877000591,None,y,859.2764877000591,None,"['y', 'return']","[1.0841564000584185, 1.6040076001081616]",859.2764877000591,None,,,87YC,001,2023_Aug_30_1659,ExactRep-v3-final,2021.2.3,59.421731501759645,
,,,,,,,,,,,,29,0,29,0,,,,,,,,,,,,,,,,,,,,,,,,,,,,,,,,,,,,,,,,,,,,,,,,,863.1956411000574,None,,,,,,,,,,,,,,,,,,,,,,,,,,,,,,,,,,,,,,,,,,,,,,,,,,,,,,,,,bird,180,30,aloud,new,blue,861.4410709000658,None,n,861.4410709000658,None,"['n', 'return']","[1.1678896000375971, 1.7115814000135288]",861.4410709000658,None,,,87YC,001,2023_Aug_30_1659,ExactRep-v3-final,2021.2.3,59.421731501759645,
,,,,,,,,,,,,30,0,30,0,,,,,,,,,,,,,,,,,,,,,,,,,,,,,,,,,,,,,,,,,,,,,,,,,865.2963824999752,None,,,,,,,,,,,,,,,,,,,,,,,,,,,,,,,,,,,,,,,,,,,,,,,,,,,,,,,,,animal,123,31,silent,new,red,863.72245510004,None,n,863.72245510004,None,"['n', 'return']","[1.070333700045012, 1.5261176000349224]",863.72245510004,None,,,87YC,001,2023_Aug_30_1659,ExactRep-v3-final,2021.2.3,59.421731501759645,
,,,,,,,,,,,,31,0,31,0,,,,,,,,,,,,,,,,,,,,,,,,,,,,,,,,,,,,,,,,,,,,,,,,,867.1998461000621,None,,,,,,,,,,,,,,,,,,,,,,,,,,,,,,,,,,,,,,,,,,,,,,,,,,,,,,,,,poet,194,32,aloud,new,blue,865.813972300035,None,n,865.813972300035,None,"['n', 'return']","[0.8908314000582322, 1.3467362000374123]",865.813972300035,None,,,87YC,001,2023_Aug_30_1659,ExactRep-v3-final,2021.2.3,59.421731501759645,
,,,,,,,,,,,,32,0,32,0,,,,,,,,,,,,,,,,,,,,,,,,,,,,,,,,,,,,,,,,,,,,,,,,,869.2156981000444,None,,,,,,,,,,,,,,,,,,,,,,,,,,,,,,,,,,,,,,,,,,,,,,,,,,,,,,,,,college,31,33,sing,old,white,867.717167600058,None,y,867.717167600058,None,"['y', 'return']","[1.0113396000815555, 1.4594257000135258]",867.717167600058,None,,,87YC,001,2023_Aug_30_1659,ExactRep-v3-final,2021.2.3,59.421731501759645,
,,,,,,,,,,,,33,0,33,0,,,,,,,,,,,,,,,,,,,,,,,,,,,,,,,,,,,,,,,,,,,,,,,,,872.0216769999824,None,,,,,,,,,,,,,,,,,,,,,,,,,,,,,,,,,,,,,,,,,,,,,,,,,,,,,,,,,silence,160,34,aloud,new,blue,869.7308759000152,None,y,869.7308759000152,None,"['y', 'return']","[1.7336024000542238, 2.2456914000213146]",869.7308759000152,None,,,87YC,001,2023_Aug_30_1659,ExactRep-v3-final,2021.2.3,59.421731501759645,
,,,,,,,,,,,,34,0,34,0,,,,,,,,,,,,,,,,,,,,,,,,,,,,,,,,,,,,,,,,,,,,,,,,,874.0371020999737,None,,,,,,,,,,,,,,,,,,,,,,,,,,,,,,,,,,,,,,,,,,,,,,,,,,,,,,,,,sky,43,35,silent,old,red,872.535896699992,None,y,872.535896699992,None,"['y', 'return']","[1.0327282999642193, 1.456588799948804]",872.535896699992,None,,,87YC,001,2023_Aug_30_1659,ExactRep-v3-final,2021.2.3,59.421731501759645,
,,,,,,,,,,,,35,0,35,0,,,,,,,,,,,,,,,,,,,,,,,,,,,,,,,,,,,,,,,,,,,,,,,,,876.3927479999838,None,,,,,,,,,,,,,,,,,,,,,,,,,,,,,,,,,,,,,,,,,,,,,,,,,,,,,,,,,arm,96,36,aloud,old,blue,874.5464260999579,None,y,874.5464260999579,None,"['y', 'return']","[1.2781465000007302, 1.8060931999934837]",874.5464260999579,None,,,87YC,001,2023_Aug_30_1659,ExactRep-v3-final,2021.2.3,59.421731501759645,
,,,,,,,,,,,,36,0,36,0,,,,,,,,,,,,,,,,,,,,,,,,,,,,,,,,,,,,,,,,,,,,,,,,,878.8256848000456,None,,,,,,,,,,,,,,,,,,,,,,,,,,,,,,,,,,,,,,,,,,,,,,,,,,,,,,,,,cash,46,37,silent,old,red,876.9102974999696,None,y,876.9102974999696,None,"['y', 'return']","[1.3783997000427917, 1.8662451000418514]",876.9102974999696,None,,,87YC,001,2023_Aug_30_1659,ExactRep-v3-final,2021.2.3,59.421731501759645,
,,,,,,,,,,,,37,0,37,0,,,,,,,,,,,,,,,,,,,,,,,,,,,,,,,,,,,,,,,,,,,,,,,,,882.2965556000127,None,,,,,,,,,,,,,,,,,,,,,,,,,,,,,,,,,,,,,,,,,,,,,,,,,,,,,,,,,engine,197,38,sing,new,white,879.3398864000337,None,n,879.3398864000337,None,"['n', 'return']","[2.4529401999898255, 2.9166360000381246]",879.3398864000337,None,,,87YC,001,2023_Aug_30_1659,ExactRep-v3-final,2021.2.3,59.421731501759645,
,,,,,,,,,,,,38,0,38,0,,,,,,,,,,,,,,,,,,,,,,,,,,,,,,,,,,,,,,,,,,,,,,,,,884.5806689000456,None,,,,,,,,,,,,,,,,,,,,,,,,,,,,,,,,,,,,,,,,,,,,,,,,,,,,,,,,,anger,137,39,silent,new,red,882.799919800018,None,n,882.799919800018,None,"['n', 'return']","[1.216722899931483, 1.7445982999633998]",882.799919800018,None,,,87YC,001,2023_Aug_30_1659,ExactRep-v3-final,2021.2.3,59.421731501759645,
,,,,,,,,,,,,39,0,39,0,,,,,,,,,,,,,,,,,,,,,,,,,,,,,,,,,,,,,,,,,,,,,,,,,887.0169355999678,None,,,,,,,,,,,,,,,,,,,,,,,,,,,,,,,,,,,,,,,,,,,,,,,,,,,,,,,,,horse,166,40,aloud,new,blue,885.082860799972,None,n,885.082860799972,None,"['n', 'return']","[1.4858149000210688, 1.9018520000390708]",885.082860799972,None,,,87YC,001,2023_Aug_30_1659,ExactRep-v3-final,2021.2.3,59.421731501759645,
,,,,,,,,,,,,40,0,40,0,,,,,,,,,,,,,,,,,,,,,,,,,,,,,,,,,,,,,,,,,,,,,,,,,889.0018750999589,None,,,,,,,,,,,,,,,,,,,,,,,,,,,,,,,,,,,,,,,,,,,,,,,,,,,,,,,,,pupil,85,41,aloud,old,blue,887.5251364000142,None,y,887.5251364000142,None,"['y', 'return']","[0.9633804000914097, 1.4354935000883415]",887.5251364000142,None,,,87YC,001,2023_Aug_30_1659,ExactRep-v3-final,2021.2.3,59.421731501759645,
,,,,,,,,,,,,41,0,41,0,,,,,,,,,,,,,,,,,,,,,,,,,,,,,,,,,,,,,,,,,,,,,,,,,890.9211693999823,None,,,,,,,,,,,,,,,,,,,,,,,,,,,,,,,,,,,,,,,,,,,,,,,,,,,,,,,,,breast,84,42,aloud,old,blue,889.506380100036,None,y,889.506380100036,None,"['y', 'return']","[0.9182807999895886, 1.3820789000019431]",889.506380100036,None,,,87YC,001,2023_Aug_30_1659,ExactRep-v3-final,2021.2.3,59.421731501759645,
,,,,,,,,,,,,42,0,42,0,,,,,,,,,,,,,,,,,,,,,,,,,,,,,,,,,,,,,,,,,,,,,,,,,892.922926499974,None,,,,,,,,,,,,,,,,,,,,,,,,,,,,,,,,,,,,,,,,,,,,,,,,,,,,,,,,,butter,236,43,aloud,new,blue,891.4371069000335,None,y,891.4371069000335,None,"['y', 'return']","[0.9634348000399768, 1.4434483000077307]",891.4371069000335,None,,,87YC,001,2023_Aug_30_1659,ExactRep-v3-final,2021.2.3,59.421731501759645,
,,,,,,,,,,,,43,0,43,0,,,,,,,,,,,,,,,,,,,,,,,,,,,,,,,,,,,,,,,,,,,,,,,,,895.0583216999657,None,,,,,,,,,,,,,,,,,,,,,,,,,,,,,,,,,,,,,,,,,,,,,,,,,,,,,,,,,soul,227,44,sing,new,white,893.4367252000375,None,y,893.4367252000375,None,"['y', 'return']","[1.1157730999402702, 1.5798540000105277]",893.4367252000375,None,,,87YC,001,2023_Aug_30_1659,ExactRep-v3-final,2021.2.3,59.421731501759645,
,,,,,,,,,,,,44,0,44,0,,,,,,,,,,,,,,,,,,,,,,,,,,,,,,,,,,,,,,,,,,,,,,,,,897.3106350000016,None,,,,,,,,,,,,,,,,,,,,,,,,,,,,,,,,,,,,,,,,,,,,,,,,,,,,,,,,,health,89,45,aloud,old,blue,895.5598558000056,None,n,895.5598558000056,None,"['n', 'return']","[1.2966251999605447, 1.7047345999162644]",895.5598558000056,None,,,87YC,001,2023_Aug_30_1659,ExactRep-v3-final,2021.2.3,59.421731501759645,
,,,,,,,,,,,,45,0,45,0,,,,,,,,,,,,,,,,,,,,,,,,,,,,,,,,,,,,,,,,,,,,,,,,,899.8483754000627,None,,,,,,,,,,,,,,,,,,,,,,,,,,,,,,,,,,,,,,,,,,,,,,,,,,,,,,,,,cabin,17,46,sing,old,white,897.8123511000304,None,y,897.8123511000304,None,"['y', 'return']","[1.524211599957198, 1.988311699940823]",897.8123511000304,None,,,87YC,001,2023_Aug_30_1659,ExactRep-v3-final,2021.2.3,59.421731501759645,
,,,,,,,,,,,,46,0,46,0,,,,,,,,,,,,,,,,,,,,,,,,,,,,,,,,,,,,,,,,,,,,,,,,,901.8983932000119,None,,,,,,,,,,,,,,,,,,,,,,,,,,,,,,,,,,,,,,,,,,,,,,,,,,,,,,,,,season,97,47,aloud,old,blue,900.3637703000568,None,y,900.3637703000568,None,"['y', 'return']","[1.044825299992226, 1.5008993999799713]",900.3637703000568,None,,,87YC,001,2023_Aug_30_1659,ExactRep-v3-final,2021.2.3,59.421731501759645,
,,,,,,,,,,,,47,0,47,0,,,,,,,,,,,,,,,,,,,,,,,,,,,,,,,,,,,,,,,,,,,,,,,,,903.9669247999554,None,,,,,,,,,,,,,,,,,,,,,,,,,,,,,,,,,,,,,,,,,,,,,,,,,,,,,,,,,earth,2,48,sing,old,white,902.400757699972,None,y,902.400757699972,None,"['y', 'return']","[1.0158652999671176, 1.5198057000525296]",902.400757699972,None,,,87YC,001,2023_Aug_30_1659,ExactRep-v3-final,2021.2.3,59.421731501759645,
,,,,,,,,,,,,48,0,48,0,,,,,,,,,,,,,,,,,,,,,,,,,,,,,,,,,,,,,,,,,,,,,,,,,907.5901009000372,None,,,,,,,,,,,,,,,,,,,,,,,,,,,,,,,,,,,,,,,,,,,,,,,,,,,,,,,,,string,223,49,sing,new,white,904.4842616000678,None,y,904.4842616000678,None,"['y', 'return']","[2.588291099993512, 3.0603185000363737]",904.4842616000678,None,,,87YC,001,2023_Aug_30_1659,ExactRep-v3-final,2021.2.3,59.421731501759645,
,,,,,,,,,,,,49,0,49,0,,,,,,,,,,,,,,,,,,,,,,,,,,,,,,,,,,,,,,,,,,,,,,,,,909.7065463999752,None,,,,,,,,,,,,,,,,,,,,,,,,,,,,,,,,,,,,,,,,,,,,,,,,,,,,,,,,,death,120,50,silent,new,red,908.1091543000657,None,y,908.1091543000657,None,"['y', 'return']","[1.0593693999107927, 1.5554078000131994]",908.1091543000657,None,,,87YC,001,2023_Aug_30_1659,ExactRep-v3-final,2021.2.3,59.421731501759645,
,,,,,,,,,,,,50,0,50,0,,,,,,,,,,,,,,,,,,,,,,,,,,,,,,,,,,,,,,,,,,,,,,,,,911.8417393000564,None,,,,,,,,,,,,,,,,,,,,,,,,,,,,,,,,,,,,,,,,,,,,,,,,,,,,,,,,,ship,143,51,silent,new,red,910.2163869000506,None,n,910.2163869000506,None,"['n', 'return']","[1.1922609999310225, 1.5842373999767005]",910.2163869000506,None,,,87YC,001,2023_Aug_30_1659,ExactRep-v3-final,2021.2.3,59.421731501759645,
,,,,,,,,,,,,51,0,51,0,,,,,,,,,,,,,,,,,,,,,,,,,,,,,,,,,,,,,,,,,,,,,,,,,913.877701499965,None,,,,,,,,,,,,,,,,,,,,,,,,,,,,,,,,,,,,,,,,,,,,,,,,,,,,,,,,,artist,49,52,silent,old,red,912.3432343000313,None,y,912.3432343000313,None,"['y', 'return']","[1.017260300111957, 1.4892978999996558]",912.3432343000313,None,,,87YC,001,2023_Aug_30_1659,ExactRep-v3-final,2021.2.3,59.421731501759645,
,,,,,,,,,,,,52,0,52,0,,,,,,,,,,,,,,,,,,,,,,,,,,,,,,,,,,,,,,,,,,,,,,,,,916.2850684999721,None,,,,,,,,,,,,,,,,,,,,,,,,,,,,,,,,,,,,,,,,,,,,,,,,,,,,,,,,,home,196,53,aloud,new,blue,914.3866288999561,None,n,914.3866288999561,None,"['n', 'return']","[1.3500669000204653, 1.8538619000464678]",914.3866288999561,None,,,87YC,001,2023_Aug_30_1659,ExactRep-v3-final,2021.2.3,59.421731501759645,
,,,,,,,,,,,,53,0,53,0,,,,,,,,,,,,,,,,,,,,,,,,,,,,,,,,,,,,,,,,,,,,,,,,,918.3648276999593,None,,,,,,,,,,,,,,,,,,,,,,,,,,,,,,,,,,,,,,,,,,,,,,,,,,,,,,,,,corner,117,54,aloud,old,blue,916.797041999991,None,y,916.797041999991,None,"['y', 'return']","[1.0674596999306232, 1.523471900029108]",916.797041999991,None,,,87YC,001,2023_Aug_30_1659,ExactRep-v3-final,2021.2.3,59.421731501759645,
,,,,,,,,,,,,54,0,54,0,,,,,,,,,,,,,,,,,,,,,,,,,,,,,,,,,,,,,,,,,,,,,,,,,920.8178392000264,None,,,,,,,,,,,,,,,,,,,,,,,,,,,,,,,,,,,,,,,,,,,,,,,,,,,,,,,,,fire,23,55,sing,old,white,918.8659245000454,None,y,918.8659245000454,None,"['y', 'return']","[1.398842200054787, 1.910685500013642]",918.8659245000454,None,,,87YC,001,2023_Aug_30_1659,ExactRep-v3-final,2021.2.3,59.421731501759645,
,,,,,,,,,,,,55,0,55,0,,,,,,,,,,,,,,,,,,,,,,,,,,,,,,,,,,,,,,,,,,,,,,,,,922.8030672000023,None,,,,,,,,,,,,,,,,,,,,,,,,,,,,,,,,,,,,,,,,,,,,,,,,,,,,,,,,,judge,200,56,aloud,new,blue,921.3193384000333,None,n,921.3193384000333,None,"['n', 'return']","[0.9853652000892907, 1.449591400101781]",921.3193384000333,None,,,87YC,001,2023_Aug_30_1659,ExactRep-v3-final,2021.2.3,59.421731501759645,
,,,,,,,,,,,,56,0,56,0,,,,,,,,,,,,,,,,,,,,,,,,,,,,,,,,,,,,,,,,,,,,,,,,,925.3400061000139,None,,,,,,,,,,,,,,,,,,,,,,,,,,,,,,,,,,,,,,,,,,,,,,,,,,,,,,,,,hour,167,57,sing,new,white,923.307684200001,None,n,923.307684200001,None,"['n', 'return']","[1.5088626999640837, 1.9889563999604434]",923.307684200001,None,,,87YC,001,2023_Aug_30_1659,ExactRep-v3-final,2021.2.3,59.421731501759645,
,,,,,,,,,,,,57,0,57,0,,,,,,,,,,,,,,,,,,,,,,,,,,,,,,,,,,,,,,,,,,,,,,,,,927.3418639999582,None,,,,,,,,,,,,,,,,,,,,,,,,,,,,,,,,,,,,,,,,,,,,,,,,,,,,,,,,,dawn,215,58,sing,new,white,925.858514499967,None,n,925.858514499967,None,"['n', 'return']","[0.9820510999998078, 1.4463042999850586]",925.858514499967,None,,,87YC,001,2023_Aug_30_1659,ExactRep-v3-final,2021.2.3,59.421731501759645,
,,,,,,,,,,,,58,0,58,0,,,,,,,,,,,,,,,,,,,,,,,,,,,,,,,,,,,,,,,,,,,,,,,,,929.2591613000259,None,,,,,,,,,,,,,,,,,,,,,,,,,,,,,,,,,,,,,,,,,,,,,,,,,,,,,,,,,pole,10,59,sing,old,white,927.868524700054,None,y,927.868524700054,None,"['y', 'return']","[0.9320061000762507, 1.347956100013107]",927.868524700054,None,,,87YC,001,2023_Aug_30_1659,ExactRep-v3-final,2021.2.3,59.421731501759645,
,,,,,,,,,,,,59,0,59,0,,,,,,,,,,,,,,,,,,,,,,,,,,,,,,,,,,,,,,,,,,,,,,,,,931.2950647000689,None,,,,,,,,,,,,,,,,,,,,,,,,,,,,,,,,,,,,,,,,,,,,,,,,,,,,,,,,,bottle,28,60,sing,old,white,929.7627501999959,None,y,929.7627501999959,None,"['y', 'return']","[1.0937416999367997, 1.493835199973546]",929.7627501999959,None,,,87YC,001,2023_Aug_30_1659,ExactRep-v3-final,2021.2.3,59.421731501759645,
,,,,,,,,,,,,60,0,60,0,,,,,,,,,,,,,,,,,,,,,,,,,,,,,,,,,,,,,,,,,,,,,,,,,933.450482300017,None,,,,,,,,,,,,,,,,,,,,,,,,,,,,,,,,,,,,,,,,,,,,,,,,,,,,,,,,,forest,155,61,silent,new,red,931.8122030000668,None,y,931.8122030000668,None,"['y', 'return']","[1.1883184999460354, 1.5882724999682978]",931.8122030000668,None,,,87YC,001,2023_Aug_30_1659,ExactRep-v3-final,2021.2.3,59.421731501759645,
,,,,,,,,,,,,61,0,61,0,,,,,,,,,,,,,,,,,,,,,,,,,,,,,,,,,,,,,,,,,,,,,,,,,935.4636848999653,None,,,,,,,,,,,,,,,,,,,,,,,,,,,,,,,,,,,,,,,,,,,,,,,,,,,,,,,,,plant,131,62,silent,new,red,933.9656632000115,None,n,933.9656632000115,None,"['n', 'return']","[0.9788522999733686, 1.4431014999281615]",933.9656632000115,None,,,87YC,001,2023_Aug_30_1659,ExactRep-v3-final,2021.2.3,59.421731501759645,
,,,,,,,,,,,,62,0,62,0,,,,,,,,,,,,,,,,,,,,,,,,,,,,,,,,,,,,,,,,,,,,,,,,,937.3838585000485,None,,,,,,,,,,,,,,,,,,,,,,,,,,,,,,,,,,,,,,,,,,,,,,,,,,,,,,,,,letter,19,63,sing,old,white,935.9711849000305,None,y,935.9711849000305,None,"['y', 'return']","[0.9253866999642923, 1.3735830000368878]",935.9711849000305,None,,,87YC,001,2023_Aug_30_1659,ExactRep-v3-final,2021.2.3,59.421731501759645,
,,,,,,,,,,,,63,0,63,0,,,,,,,,,,,,,,,,,,,,,,,,,,,,,,,,,,,,,,,,,,,,,,,,,939.8369613999967,None,,,,,,,,,,,,,,,,,,,,,,,,,,,,,,,,,,,,,,,,,,,,,,,,,,,,,,,,,hope,86,64,aloud,old,blue,937.8858592000324,None,n,937.8858592000324,None,"['n', 'return']","[1.4270371000748128, 1.906610400066711]",937.8858592000324,None,,,87YC,001,2023_Aug_30_1659,ExactRep-v3-final,2021.2.3,59.421731501759645,
,,,,,,,,,,,,64,0,64,0,,,,,,,,,,,,,,,,,,,,,,,,,,,,,,,,,,,,,,,,,,,,,,,,,941.7551386000123,None,,,,,,,,,,,,,,,,,,,,,,,,,,,,,,,,,,,,,,,,,,,,,,,,,,,,,,,,,flag,165,65,sing,new,white,940.3387434000615,None,n,940.3387434000615,None,"['n', 'return']","[0.9578075000317767, 1.382116200053133]",940.3387434000615,None,,,87YC,001,2023_Aug_30_1659,ExactRep-v3-final,2021.2.3,59.421731501759645,
,,,,,,,,,,,,65,0,65,0,,,,,,,,,,,,,,,,,,,,,,,,,,,,,,,,,,,,,,,,,,,,,,,,,944.0572282000212,None,,,,,,,,,,,,,,,,,,,,,,,,,,,,,,,,,,,,,,,,,,,,,,,,,,,,,,,,,teacher,7,66,sing,old,white,942.2576741999947,None,n,942.2576741999947,None,"['n', 'return']","[1.142873700009659, 1.7669661999680102]",942.2576741999947,None,,,87YC,001,2023_Aug_30_1659,ExactRep-v3-final,2021.2.3,59.421731501759645,
,,,,,,,,,,,,66,0,66,0,,,,,,,,,,,,,,,,,,,,,,,,,,,,,,,,,,,,,,,,,,,,,,,,,945.9761616999749,None,,,,,,,,,,,,,,,,,,,,,,,,,,,,,,,,,,,,,,,,,,,,,,,,,,,,,,,,,disease,216,67,aloud,new,blue,944.5611799999606,None,n,944.5611799999606,None,"['n', 'return']","[0.9354639999801293, 1.3753065000055358]",944.5611799999606,None,,,87YC,001,2023_Aug_30_1659,ExactRep-v3-final,2021.2.3,59.421731501759645,
,,,,,,,,,,,,67,0,67,0,,,,,,,,,,,,,,,,,,,,,,,,,,,,,,,,,,,,,,,,,,,,,,,,,947.8783254000591,None,,,,,,,,,,,,,,,,,,,,,,,,,,,,,,,,,,,,,,,,,,,,,,,,,,,,,,,,,gift,14,68,sing,old,white,946.4774892999558,None,y,946.4774892999558,None,"['y', 'return']","[0.9474483999656513, 1.355007000034675]",946.4774892999558,None,,,87YC,001,2023_Aug_30_1659,ExactRep-v3-final,2021.2.3,59.421731501759645,
,,,,,,,,,,,,68,0,68,0,,,,,,,,,,,,,,,,,,,,,,,,,,,,,,,,,,,,,,,,,,,,,,,,,950.4966319999658,None,,,,,,,,,,,,,,,,,,,,,,,,,,,,,,,,,,,,,,,,,,,,,,,,,,,,,,,,,power,172,69,aloud,new,blue,948.3922782000154,None,n,948.3922782000154,None,"['n', 'return']","[1.5842087999917567, 2.072254900005646]",948.3922782000154,None,,,87YC,001,2023_Aug_30_1659,ExactRep-v3-final,2021.2.3,59.421731501759645,
,,,,,,,,,,,,69,0,69,0,,,,,,,,,,,,,,,,,,,,,,,,,,,,,,,,,,,,,,,,,,,,,,,,,952.3166626000311,None,,,,,,,,,,,,,,,,,,,,,,,,,,,,,,,,,,,,,,,,,,,,,,,,,,,,,,,,,science,24,70,sing,old,white,951.0057667000219,None,y,951.0057667000219,None,"['y', 'return']","[0.9147238000296056, 1.2667946999426931]",951.0057667000219,None,,,87YC,001,2023_Aug_30_1659,ExactRep-v3-final,2021.2.3,59.421731501759645,
,,,,,,,,,,,,70,0,70,0,,,,,,,,,,,,,,,,,,,,,,,,,,,,,,,,,,,,,,,,,,,,,,,,,954.2535630000057,None,,,,,,,,,,,,,,,,,,,,,,,,,,,,,,,,,,,,,,,,,,,,,,,,,,,,,,,,,steam,87,71,aloud,old,blue,952.8335446000565,None,y,952.8335446000565,None,"['y', 'return']","[0.9270183000480756, 1.3749965000897646]",952.8335446000565,None,,,87YC,001,2023_Aug_30_1659,ExactRep-v3-final,2021.2.3,59.421731501759645,
,,,,,,,,,,,,71,0,71,0,,,,,,,,,,,,,,,,,,,,,,,,,,,,,,,,,,,,,,,,,,,,,,,,,956.0042646999937,None,,,,,,,,,,,,,,,,,,,,,,,,,,,,,,,,,,,,,,,,,,,,,,,,,,,,,,,,,tool,113,72,aloud,old,blue,954.7734202999854,None,y,954.7734202999854,None,"['y', 'return']","[0.7951370000373572, 1.1952219000086188]",954.7734202999854,None,,,87YC,001,2023_Aug_30_1659,ExactRep-v3-final,2021.2.3,59.421731501759645,
,,,,,,,,,,,,72,0,72,0,,,,,,,,,,,,,,,,,,,,,,,,,,,,,,,,,,,,,,,,,,,,,,,,,957.7209121000487,None,,,,,,,,,,,,,,,,,,,,,,,,,,,,,,,,,,,,,,,,,,,,,,,,,,,,,,,,,bowl,201,73,sing,new,white,956.5206659999676,None,y,956.5206659999676,None,"['y', 'return']","[0.7358048000605777, 1.1598650000523776]",956.5206659999676,None,,,87YC,001,2023_Aug_30_1659,ExactRep-v3-final,2021.2.3,59.421731501759645,
,,,,,,,,,,,,73,0,73,0,,,,,,,,,,,,,,,,,,,,,,,,,,,,,,,,,,,,,,,,,,,,,,,,,959.7732725000242,None,,,,,,,,,,,,,,,,,,,,,,,,,,,,,,,,,,,,,,,,,,,,,,,,,,,,,,,,,air,45,74,silent,old,red,958.2230193000287,None,y,958.2230193000287,None,"['y', 'return']","[1.137559299939312, 1.5054667999502271]",958.2230193000287,None,,,87YC,001,2023_Aug_30_1659,ExactRep-v3-final,2021.2.3,59.421731501759645,
,,,,,,,,,,,,74,0,74,0,,,,,,,,,,,,,,,,,,,,,,,,,,,,,,,,,,,,,,,,,,,,,,,,,961.6449584000511,None,,,,,,,,,,,,,,,,,,,,,,,,,,,,,,,,,,,,,,,,,,,,,,,,,,,,,,,,,product,239,75,sing,new,white,960.2823633999797,None,n,960.2823633999797,None,"['n', 'return']","[0.9105228000553325, 1.3262565000914037]",960.2823633999797,None,,,87YC,001,2023_Aug_30_1659,ExactRep-v3-final,2021.2.3,59.421731501759645,
,,,,,,,,,,,,75,0,75,0,,,,,,,,,,,,,,,,,,,,,,,,,,,,,,,,,,,,,,,,,,,,,,,,,963.4767906999914,None,,,,,,,,,,,,,,,,,,,,,,,,,,,,,,,,,,,,,,,,,,,,,,,,,,,,,,,,,woman,52,76,silent,old,red,962.1748634000542,None,n,962.1748634000542,None,"['n', 'return']","[0.8417849999386817, 1.2659405999584123]",962.1748634000542,None,,,87YC,001,2023_Aug_30_1659,ExactRep-v3-final,2021.2.3,59.421731501759645,
,,,,,,,,,,,,76,0,76,0,,,,,,,,,,,,,,,,,,,,,,,,,,,,,,,,,,,,,,,,,,,,,,,,,965.2782163000666,None,,,,,,,,,,,,,,,,,,,,,,,,,,,,,,,,,,,,,,,,,,,,,,,,,,,,,,,,,owner,78,77,silent,old,red,963.9803586000344,None,y,963.9803586000344,None,"['y', 'return']","[0.8921024000737816, 1.2602328000357375]",963.9803586000344,None,,,87YC,001,2023_Aug_30_1659,ExactRep-v3-final,2021.2.3,59.421731501759645,
,,,,,,,,,,,,77,0,77,0,,,,,,,,,,,,,,,,,,,,,,,,,,,,,,,,,,,,,,,,,,,,,,,,,967.1135582999559,None,,,,,,,,,,,,,,,,,,,,,,,,,,,,,,,,,,,,,,,,,,,,,,,,,,,,,,,,,garden,93,78,aloud,old,blue,965.793415299966,None,y,965.793415299966,None,"['y', 'return']","[0.8711124999681488, 1.2790955000091344]",965.793415299966,None,,,87YC,001,2023_Aug_30_1659,ExactRep-v3-final,2021.2.3,59.421731501759645,
,,,,,,,,,,,,78,0,78,0,,,,,,,,,,,,,,,,,,,,,,,,,,,,,,,,,,,,,,,,,,,,,,,,,968.900847199955,None,,,,,,,,,,,,,,,,,,,,,,,,,,,,,,,,,,,,,,,,,,,,,,,,,,,,,,,,,life,33,79,sing,old,white,967.6249796999618,None,y,967.6249796999618,None,"['y', 'return']","[0.863539700047113, 1.2397269000066444]",967.6249796999618,None,,,87YC,001,2023_Aug_30_1659,ExactRep-v3-final,2021.2.3,59.421731501759645,
,,,,,,,,,,,,79,0,79,0,,,,,,,,,,,,,,,,,,,,,,,,,,,,,,,,,,,,,,,,,,,,,,,,,971.2716317999875,None,,,,,,,,,,,,,,,,,,,,,,,,,,,,,,,,,,,,,,,,,,,,,,,,,,,,,,,,,table,157,80,silent,new,red,969.4355204000603,None,y,969.4355204000603,None,"['y', 'return']","[1.253168600029312, 1.7972075000870973]",969.4355204000603,None,,,87YC,001,2023_Aug_30_1659,ExactRep-v3-final,2021.2.3,59.421731501759645,
,,,,,,,,,,,,80,0,80,0,,,,,,,,,,,,,,,,,,,,,,,,,,,,,,,,,,,,,,,,,,,,,,,,,973.2531427000649,None,,,,,,,,,,,,,,,,,,,,,,,,,,,,,,,,,,,,,,,,,,,,,,,,,,,,,,,,,cat,224,81,aloud,new,blue,971.7995565000456,None,n,971.7995565000456,None,"['n', 'return']","[0.977083700010553, 1.4169983000028878]",971.7995565000456,None,,,87YC,001,2023_Aug_30_1659,ExactRep-v3-final,2021.2.3,59.421731501759645,
,,,,,,,,,,,,81,0,81,0,,,,,,,,,,,,,,,,,,,,,,,,,,,,,,,,,,,,,,,,,,,,,,,,,975.3227223999565,None,,,,,,,,,,,,,,,,,,,,,,,,,,,,,,,,,,,,,,,,,,,,,,,,,,,,,,,,,flower,66,82,silent,old,red,973.7596050000284,None,y,973.7596050000284,None,"['y', 'return']","[1.088934800005518, 1.5209663000423461]",973.7596050000284,None,,,87YC,001,2023_Aug_30_1659,ExactRep-v3-final,2021.2.3,59.421731501759645,
,,,,,,,,,,,,82,0,82,0,,,,,,,,,,,,,,,,,,,,,,,,,,,,,,,,,,,,,,,,,,,,,,,,,977.4736813000636,None,,,,,,,,,,,,,,,,,,,,,,,,,,,,,,,,,,,,,,,,,,,,,,,,,,,,,,,,,chief,139,83,silent,new,red,975.8428124999627,None,n,975.8428124999627,None,"['n', 'return']","[1.1018595000496134, 1.589697499992326]",975.8428124999627,None,,,87YC,001,2023_Aug_30_1659,ExactRep-v3-final,2021.2.3,59.421731501759645,
,,,,,,,,,,,,83,0,83,0,,,,,,,,,,,,,,,,,,,,,,,,,,,,,,,,,,,,,,,,,,,,,,,,,979.4961906999815,None,,,,,,,,,,,,,,,,,,,,,,,,,,,,,,,,,,,,,,,,,,,,,,,,,,,,,,,,,flesh,238,84,aloud,new,blue,977.9759357000003,None,n,977.9759357000003,None,"['n', 'return']","[1.0491410000249743, 1.4809684000210837]",977.9759357000003,None,,,87YC,001,2023_Aug_30_1659,ExactRep-v3-final,2021.2.3,59.421731501759645,
,,,,,,,,,,,,84,0,84,0,,,,,,,,,,,,,,,,,,,,,,,,,,,,,,,,,,,,,,,,,,,,,,,,,981.4460027000168,None,,,,,,,,,,,,,,,,,,,,,,,,,,,,,,,,,,,,,,,,,,,,,,,,,,,,,,,,,passion,94,85,aloud,old,blue,980.0112732000416,None,n,980.0112732000416,None,"['n', 'return']","[0.9332487999927253, 1.3892602000851184]",980.0112732000416,None,,,87YC,001,2023_Aug_30_1659,ExactRep-v3-final,2021.2.3,59.421731501759645,
,,,,,,,,,,,,85,0,85,0,,,,,,,,,,,,,,,,,,,,,,,,,,,,,,,,,,,,,,,,,,,,,,,,,983.4485013000667,None,,,,,,,,,,,,,,,,,,,,,,,,,,,,,,,,,,,,,,,,,,,,,,,,,,,,,,,,,weapon,91,86,aloud,old,blue,981.9639460999751,None,n,981.9639460999751,None,"['n', 'return']","[0.9971326999366283, 1.4366482000332326]",981.9639460999751,None,,,87YC,001,2023_Aug_30_1659,ExactRep-v3-final,2021.2.3,59.421731501759645,
,,,,,,,,,,,,86,0,86,0,,,,,,,,,,,,,,,,,,,,,,,,,,,,,,,,,,,,,,,,,,,,,,,,,985.3837669000495,None,,,,,,,,,,,,,,,,,,,,,,,,,,,,,,,,,,,,,,,,,,,,,,,,,,,,,,,,,history,170,87,aloud,new,blue,983.9647552999668,None,n,983.9647552999668,None,"['n', 'return']","[0.9717029000166804, 1.379701100056991]",983.9647552999668,None,,,87YC,001,2023_Aug_30_1659,ExactRep-v3-final,2021.2.3,59.421731501759645,
,,,,,,,,,,,,87,0,87,0,,,,,,,,,,,,,,,,,,,,,,,,,,,,,,,,,,,,,,,,,,,,,,,,,987.2513654000359,None,,,,,,,,,,,,,,,,,,,,,,,,,,,,,,,,,,,,,,,,,,,,,,,,,,,,,,,,,custom,63,88,silent,old,red,985.904350399971,None,n,985.904350399971,None,"['n', 'return']","[0.8402085000416264, 1.3123529000440612]",985.904350399971,None,,,87YC,001,2023_Aug_30_1659,ExactRep-v3-final,2021.2.3,59.421731501759645,
,,,,,,,,,,,,88,0,88,0,,,,,,,,,,,,,,,,,,,,,,,,,,,,,,,,,,,,,,,,,,,,,,,,,989.1570234000683,None,,,,,,,,,,,,,,,,,,,,,,,,,,,,,,,,,,,,,,,,,,,,,,,,,,,,,,,,,pride,214,89,aloud,new,blue,987.7694309999933,None,n,987.7694309999933,None,"['n', 'return']","[0.9109976999461651, 1.3351085999747738]",987.7694309999933,None,,,87YC,001,2023_Aug_30_1659,ExactRep-v3-final,2021.2.3,59.421731501759645,
,,,,,,,,,,,,89,0,89,0,,,,,,,,,,,,,,,,,,,,,,,,,,,,,,,,,,,,,,,,,,,,,,,,,991.437123300042,None,,,,,,,,,,,,,,,,,,,,,,,,,,,,,,,,,,,,,,,,,,,,,,,,,,,,,,,,,volume,177,90,sing,new,white,989.6791203999892,None,n,989.6791203999892,None,"['n', 'return']","[1.2813260999973863, 1.7213476999895647]",989.6791203999892,None,,,87YC,001,2023_Aug_30_1659,ExactRep-v3-final,2021.2.3,59.421731501759645,
,,,,,,,,,,,,90,0,90,0,,,,,,,,,,,,,,,,,,,,,,,,,,,,,,,,,,,,,,,,,,,,,,,,,993.7396626999835,None,,,,,,,,,,,,,,,,,,,,,,,,,,,,,,,,,,,,,,,,,,,,,,,,,,,,,,,,,grief,0,91,sing,old,white,991.9399800000247,None,y,991.9399800000247,None,"['y', 'return']","[1.3005261999787763, 1.7647327999584377]",991.9399800000247,None,,,87YC,001,2023_Aug_30_1659,ExactRep-v3-final,2021.2.3,59.421731501759645,
,,,,,,,,,,,,91,0,91,0,,,,,,,,,,,,,,,,,,,,,,,,,,,,,,,,,,,,,,,,,,,,,,,,,995.9591102000559,None,,,,,,,,,,,,,,,,,,,,,,,,,,,,,,,,,,,,,,,,,,,,,,,,,,,,,,,,,green,106,92,aloud,old,blue,994.2437367000384,None,y,994.2437367000384,None,"['y', 'return']","[1.292871900019236, 1.676998300012201]",994.2437367000384,None,,,87YC,001,2023_Aug_30_1659,ExactRep-v3-final,2021.2.3,59.421731501759645,
,,,,,,,,,,,,92,0,92,0,,,,,,,,,,,,,,,,,,,,,,,,,,,,,,,,,,,,,,,,,,,,,,,,,997.917680399958,None,,,,,,,,,,,,,,,,,,,,,,,,,,,,,,,,,,,,,,,,,,,,,,,,,,,,,,,,,fact,237,93,sing,new,white,996.4597269999795,None,n,996.4597269999795,None,"['n', 'return']","[0.9567462999839336, 1.4049133999506012]",996.4597269999795,None,,,87YC,001,2023_Aug_30_1659,ExactRep-v3-final,2021.2.3,59.421731501759645,
,,,,,,,,,,,,93,0,93,0,,,,,,,,,,,,,,,,,,,,,,,,,,,,,,,,,,,,,,,,,,,,,,,,,1000.0310158999637,None,,,,,,,,,,,,,,,,,,,,,,,,,,,,,,,,,,,,,,,,,,,,,,,,,,,,,,,,,series,40,94,silent,old,red,998.4484588999767,None,n,998.4484588999767,None,"['n', 'return']","[1.1199783000629395, 1.5439802999608219]",998.4484588999767,None,,,87YC,001,2023_Aug_30_1659,ExactRep-v3-final,2021.2.3,59.421731501759645,
,,,,,,,,,,,,94,0,94,0,,,,,,,,,,,,,,,,,,,,,,,,,,,,,,,,,,,,,,,,,,,,,,,,,1001.8994900999824,None,,,,,,,,,,,,,,,,,,,,,,,,,,,,,,,,,,,,,,,,,,,,,,,,,,,,,,,,,cattle,114,95,aloud,old,blue,1000.5498280000174,None,y,1000.5498280000174,None,"['y', 'return']","[0.9308019999880344, 1.3147897999733686]",1000.5498280000174,None,,,87YC,001,2023_Aug_30_1659,ExactRep-v3-final,2021.2.3,59.421731501759645,
,,,,,,,,,,,,95,0,95,0,,,,,,,,,,,,,,,,,,,,,,,,,,,,,,,,,,,,,,,,,,,,,,,,,1004.0030492000515,None,,,,,,,,,,,,,,,,,,,,,,,,,,,,,,,,,,,,,,,,,,,,,,,,,,,,,,,,,deed,149,96,silent,new,red,1002.4006152000511,None,n,1002.4006152000511,None,"['n', 'return']","[1.1278771000215784, 1.5679257999872789]",1002.4006152000511,None,,,87YC,001,2023_Aug_30_1659,ExactRep-v3-final,2021.2.3,59.421731501759645,
,,,,,,,,,,,,96,0,96,0,,,,,,,,,,,,,,,,,,,,,,,,,,,,,,,,,,,,,,,,,,,,,,,,,1006.0402291000355,None,,,,,,,,,,,,,,,,,,,,,,,,,,,,,,,,,,,,,,,,,,,,,,,,,,,,,,,,,factory,158,97,silent,new,red,1004.5193493000697,None,n,1004.5193493000697,None,"['n', 'return']","[1.0091776000335813, 1.4731407000217587]",1004.5193493000697,None,,,87YC,001,2023_Aug_30_1659,ExactRep-v3-final,2021.2.3,59.421731501759645,
,,,,,,,,,,,,97,0,97,0,,,,,,,,,,,,,,,,,,,,,,,,,,,,,,,,,,,,,,,,,,,,,,,,,1007.9714116000105,None,,,,,,,,,,,,,,,,,,,,,,,,,,,,,,,,,,,,,,,,,,,,,,,,,,,,,,,,,village,152,98,silent,new,red,1006.5544790000422,None,y,1006.5544790000422,None,"['y', 'return']","[0.9180709000211209, 1.3824056000448763]",1006.5544790000422,None,,,87YC,001,2023_Aug_30_1659,ExactRep-v3-final,2021.2.3,59.421731501759645,
,,,,,,,,,,,,98,0,98,0,,,,,,,,,,,,,,,,,,,,,,,,,,,,,,,,,,,,,,,,,,,,,,,,,1010.2106800000183,None,,,,,,,,,,,,,,,,,,,,,,,,,,,,,,,,,,,,,,,,,,,,,,,,,,,,,,,,,kiss,69,99,silent,old,red,1008.4721316000214,None,y,1008.4721316000214,None,"['y', 'return']","[1.3124108000192791, 1.6883407999994233]",1008.4721316000214,None,,,87YC,001,2023_Aug_30_1659,ExactRep-v3-final,2021.2.3,59.421731501759645,
,,,,,,,,,,,,99,0,99,0,,,,,,,,,,,,,,,,,,,,,,,,,,,,,,,,,,,,,,,,,,,,,,,,,1012.127009900054,None,,,,,,,,,,,,,,,,,,,,,,,,,,,,,,,,,,,,,,,,,,,,,,,,,,,,,,,,,money,64,100,silent,old,red,1010.7349090999924,None,y,1010.7349090999924,None,"['y', 'return']","[0.9296207000734285, 1.353593800100498]",1010.7349090999924,None,,,87YC,001,2023_Aug_30_1659,ExactRep-v3-final,2021.2.3,59.421731501759645,
,,,,,,,,,,,,100,0,100,0,,,,,,,,,,,,,,,,,,,,,,,,,,,,,,,,,,,,,,,,,,,,,,,,,1014.3777815999929,None,,,,,,,,,,,,,,,,,,,,,,,,,,,,,,,,,,,,,,,,,,,,,,,,,,,,,,,,,temple,184,101,aloud,new,blue,1012.6467727000127,None,n,1012.6467727000127,None,"['n', 'return']","[1.1381498000118881, 1.689693099935539]",1012.6467727000127,None,,,87YC,001,2023_Aug_30_1659,ExactRep-v3-final,2021.2.3,59.421731501759645,
,,,,,,,,,,,,101,0,101,0,,,,,,,,,,,,,,,,,,,,,,,,,,,,,,,,,,,,,,,,,,,,,,,,,1016.3794791999971,None,,,,,,,,,,,,,,,,,,,,,,,,,,,,,,,,,,,,,,,,,,,,,,,,,,,,,,,,,king,191,102,sing,new,white,1014.8814267000416,None,n,1014.8814267000416,None,"['n', 'return']","[0.8230966000119224, 1.4631580000277609]",1014.8814267000416,None,,,87YC,001,2023_Aug_30_1659,ExactRep-v3-final,2021.2.3,59.421731501759645,
,,,,,,,,,,,,102,0,102,0,,,,,,,,,,,,,,,,,,,,,,,,,,,,,,,,,,,,,,,,,,,,,,,,,1018.6495294000488,None,,,,,,,,,,,,,,,,,,,,,,,,,,,,,,,,,,,,,,,,,,,,,,,,,,,,,,,,,boulder,163,103,sing,new,white,1016.8838900000555,None,n,1016.8838900000555,None,"['n', 'return']","[1.3327323000412434, 1.732756800018251]",1016.8838900000555,None,,,87YC,001,2023_Aug_30_1659,ExactRep-v3-final,2021.2.3,59.421731501759645,
,,,,,,,,,,,,103,0,103,0,,,,,,,,,,,,,,,,,,,,,,,,,,,,,,,,,,,,,,,,,,,,,,,,,1020.983746199985,None,,,,,,,,,,,,,,,,,,,,,,,,,,,,,,,,,,,,,,,,,,,,,,,,,,,,,,,,,event,81,104,aloud,old,blue,1019.167488600011,None,y,1019.167488600011,None,"['y', 'return']","[1.2491801999276504, 1.7689456000225618]",1019.167488600011,None,,,87YC,001,2023_Aug_30_1659,ExactRep-v3-final,2021.2.3,59.421731501759645,
,,,,,,,,,,,,104,0,104,0,,,,,,,,,,,,,,,,,,,,,,,,,,,,,,,,,,,,,,,,,,,,,,,,,1022.8353880000068,None,,,,,,,,,,,,,,,,,,,,,,,,,,,,,,,,,,,,,,,,,,,,,,,,,,,,,,,,,maiden,225,105,sing,new,white,1021.4872381000314,None,n,1021.4872381000314,None,"['n', 'return']","[0.8492366999853402, 1.3052584000397474]",1021.4872381000314,None,,,87YC,001,2023_Aug_30_1659,ExactRep-v3-final,2021.2.3,59.421731501759645,
,,,,,,,,,,,,105,0,105,0,,,,,,,,,,,,,,,,,,,,,,,,,,,,,,,,,,,,,,,,,,,,,,,,,1025.1721008999739,None,,,,,,,,,,,,,,,,,,,,,,,,,,,,,,,,,,,,,,,,,,,,,,,,,,,,,,,,,wheat,124,106,silent,new,red,1023.3393979000393,None,n,1023.3393979000393,None,"['n', 'return']","[1.349022899987176, 1.7890672000357881]",1023.3393979000393,None,,,87YC,001,2023_Aug_30_1659,ExactRep-v3-final,2021.2.3,59.421731501759645,
,,,,,,,,,,,,106,0,106,0,,,,,,,,,,,,,,,,,,,,,,,,,,,,,,,,,,,,,,,,,,,,,,,,,1027.1405883999541,None,,,,,,,,,,,,,,,,,,,,,,,,,,,,,,,,,,,,,,,,,,,,,,,,,,,,,,,,,library,226,107,aloud,new,blue,1025.678138999967,None,n,1025.678138999967,None,"['n', 'return']","[1.0106889000162482, 1.4186200000112876]",1025.678138999967,None,,,87YC,001,2023_Aug_30_1659,ExactRep-v3-final,2021.2.3,59.421731501759645,
,,,,,,,,,,,,107,0,107,0,,,,,,,,,,,,,,,,,,,,,,,,,,,,,,,,,,,,,,,,,,,,,,,,,1029.4437965999823,None,,,,,,,,,,,,,,,,,,,,,,,,,,,,,,,,,,,,,,,,,,,,,,,,,,,,,,,,,gold,221,108,sing,new,white,1027.6493741000304,None,n,1027.6493741000304,None,"['n', 'return']","[1.3030892999377102, 1.7592748999595642]",1027.6493741000304,None,,,87YC,001,2023_Aug_30_1659,ExactRep-v3-final,2021.2.3,59.421731501759645,
,,,,,,,,,,,,108,0,108,0,,,,,,,,,,,,,,,,,,,,,,,,,,,,,,,,,,,,,,,,,,,,,,,,,1031.3778031000402,None,,,,,,,,,,,,,,,,,,,,,,,,,,,,,,,,,,,,,,,,,,,,,,,,,,,,,,,,,month,211,109,sing,new,white,1029.9613744000671,None,n,1029.9613744000671,None,"['n', 'return']","[0.8790599000640213, 1.3753518000012264]",1029.9613744000671,None,,,87YC,001,2023_Aug_30_1659,ExactRep-v3-final,2021.2.3,59.421731501759645,
,,,,,,,,,,,,109,0,109,0,,,,,,,,,,,,,,,,,,,,,,,,,,,,,,,,,,,,,,,,,,,,,,,,,1033.562785099959,None,,,,,,,,,,,,,,,,,,,,,,,,,,,,,,,,,,,,,,,,,,,,,,,,,,,,,,,,,house,9,110,sing,old,white,1031.8829847000306,None,y,1031.8829847000306,None,"['y', 'return']","[1.173482200014405, 1.6375490999780595]",1031.8829847000306,None,,,87YC,001,2023_Aug_30_1659,ExactRep-v3-final,2021.2.3,59.421731501759645,
,,,,,,,,,,,,110,0,110,0,,,,,,,,,,,,,,,,,,,,,,,,,,,,,,,,,,,,,,,,,,,,,,,,,1035.7153188000666,None,,,,,,,,,,,,,,,,,,,,,,,,,,,,,,,,,,,,,,,,,,,,,,,,,,,,,,,,,wife,38,111,sing,old,white,1034.0861210000003,None,n,1034.0861210000003,None,"['n', 'return']","[1.1065014000050724, 1.594414700055495]",1034.0861210000003,None,,,87YC,001,2023_Aug_30_1659,ExactRep-v3-final,2021.2.3,59.421731501759645,
,,,,,,,,,,,,111,0,111,0,,,,,,,,,,,,,,,,,,,,,,,,,,,,,,,,,,,,,,,,,,,,,,,,,1037.686329200049,None,,,,,,,,,,,,,,,,,,,,,,,,,,,,,,,,,,,,,,,,,,,,,,,,,,,,,,,,,quality,150,112,silent,new,red,1036.2205424000276,None,n,1036.2205424000276,None,"['n', 'return']","[0.907863299944438, 1.428195400047116]",1036.2205424000276,None,,,87YC,001,2023_Aug_30_1659,ExactRep-v3-final,2021.2.3,59.421731501759645,
,,,,,,,,,,,,112,0,112,0,,,,,,,,,,,,,,,,,,,,,,,,,,,,,,,,,,,,,,,,,,,,,,,,,1039.522274899995,None,,,,,,,,,,,,,,,,,,,,,,,,,,,,,,,,,,,,,,,,,,,,,,,,,,,,,,,,,glory,154,113,silent,new,red,1038.2020679999841,None,n,1038.2020679999841,None,"['n', 'return']","[0.8307698999997228, 1.2784594999393448]",1038.2020679999841,None,,,87YC,001,2023_Aug_30_1659,ExactRep-v3-final,2021.2.3,59.421731501759645,
,,,,,,,,,,,,113,0,113,0,,,,,,,,,,,,,,,,,,,,,,,,,,,,,,,,,,,,,,,,,,,,,,,,,1043.1562219000189,None,,,,,,,,,,,,,,,,,,,,,,,,,,,,,,,,,,,,,,,,,,,,,,,,,,,,,,,,,truth,56,114,silent,old,red,1040.0362785999896,None,y,1040.0362785999896,None,"['y', 'return']","[2.4523047999246046, 3.076197399990633]",1040.0362785999896,None,,,87YC,001,2023_Aug_30_1659,ExactRep-v3-final,2021.2.3,59.421731501759645,
,,,,,,,,,,,,114,0,114,0,,,,,,,,,,,,,,,,,,,,,,,,,,,,,,,,,,,,,,,,,,,,,,,,,1045.3251178000355,None,,,,,,,,,,,,,,,,,,,,,,,,,,,,,,,,,,,,,,,,,,,,,,,,,,,,,,,,,duty,161,115,sing,new,white,1043.6581174000166,None,n,1043.6581174000166,None,"['n', 'return']","[1.2223850999725983, 1.6307793000014499]",1043.6581174000166,None,,,87YC,001,2023_Aug_30_1659,ExactRep-v3-final,2021.2.3,59.421731501759645,
,,,,,,,,,,,,115,0,115,0,,,,,,,,,,,,,,,,,,,,,,,,,,,,,,,,,,,,,,,,,,,,,,,,,1047.5798315999564,None,,,,,,,,,,,,,,,,,,,,,,,,,,,,,,,,,,,,,,,,,,,,,,,,,,,,,,,,,nail,127,116,silent,new,red,1045.8352151999716,None,n,1045.8352151999716,None,"['n', 'return']","[1.2612876000348479, 1.7092500000726432]",1045.8352151999716,None,,,87YC,001,2023_Aug_30_1659,ExactRep-v3-final,2021.2.3,59.421731501759645,
,,,,,,,,,,,,116,0,116,0,,,,,,,,,,,,,,,,,,,,,,,,,,,,,,,,,,,,,,,,,,,,,,,,,1049.514158200007,None,,,,,,,,,,,,,,,,,,,,,,,,,,,,,,,,,,,,,,,,,,,,,,,,,,,,,,,,,rock,76,117,silent,old,red,1048.0948749000672,None,n,1048.0948749000672,None,"['n', 'return']","[0.8417205000296235, 1.369658200070262]",1048.0948749000672,None,,,87YC,001,2023_Aug_30_1659,ExactRep-v3-final,2021.2.3,59.421731501759645,
,,,,,,,,,,,,117,0,117,0,,,,,,,,,,,,,,,,,,,,,,,,,,,,,,,,,,,,,,,,,,,,,,,,,1051.6029373999918,None,,,,,,,,,,,,,,,,,,,,,,,,,,,,,,,,,,,,,,,,,,,,,,,,,,,,,,,,,prayer,132,118,silent,new,red,1050.0316852000542,None,n,1050.0316852000542,None,"['n', 'return']","[1.000728200073354, 1.5288236000342295]",1050.0316852000542,None,,,87YC,001,2023_Aug_30_1659,ExactRep-v3-final,2021.2.3,59.421731501759645,
,,,,,,,,,,,,118,0,118,0,,,,,,,,,,,,,,,,,,,,,,,,,,,,,,,,,,,,,,,,,,,,,,,,,1053.4831982000032,None,,,,,,,,,,,,,,,,,,,,,,,,,,,,,,,,,,,,,,,,,,,,,,,,,,,,,,,,,lip,199,119,sing,new,white,1052.1347926000599,None,n,1052.1347926000599,None,"['n', 'return']","[0.8656955999322236, 1.30596649996005]",1052.1347926000599,None,,,87YC,001,2023_Aug_30_1659,ExactRep-v3-final,2021.2.3,59.421731501759645,
,,,,,,,,,,,,119,0,119,0,,,,,,,,,,,,,,,,,,,,,,,,,,,,,,,,,,,,,,,,,,,,,,,,,1055.56877230003,None,,,,,,,,,,,,,,,,,,,,,,,,,,,,,,,,,,,,,,,,,,,,,,,,,,,,,,,,,boy,213,120,sing,new,white,1053.9848696000408,None,n,1053.9848696000408,None,"['n', 'return']","[1.0479925000108778, 1.5355818000389263]",1053.9848696000408,None,,,87YC,001,2023_Aug_30_1659,ExactRep-v3-final,2021.2.3,59.421731501759645,
,,,,,,,,,,,,120,0,120,0,,,,,,,,,,,,,,,,,,,,,,,,,,,,,,,,,,,,,,,,,,,,,,,,,1057.5206758000422,None,,,,,,,,,,,,,,,,,,,,,,,,,,,,,,,,,,,,,,,,,,,,,,,,,,,,,,,,,hall,58,121,silent,old,red,1056.0856262999587,None,n,1056.0856262999587,None,"['n', 'return']","[0.9710901000071317, 1.3867757000261918]",1056.0856262999587,None,,,87YC,001,2023_Aug_30_1659,ExactRep-v3-final,2021.2.3,59.421731501759645,
,,,,,,,,,,,,121,0,121,0,,,,,,,,,,,,,,,,,,,,,,,,,,,,,,,,,,,,,,,,,,,,,,,,,1061.359870400047,None,,,,,,,,,,,,,,,,,,,,,,,,,,,,,,,,,,,,,,,,,,,,,,,,,,,,,,,,,ability,16,122,sing,old,white,1058.022694000043,None,y,1058.022694000043,None,"['n', 'backspace', 'y', 'return']","[1.2017115000635386, 2.113737600040622, 2.8578197000315413, 3.2898130000103265]",1058.022694000043,None,,,87YC,001,2023_Aug_30_1659,ExactRep-v3-final,2021.2.3,59.421731501759645,
,,,,,,,,,,,,122,0,122,0,,,,,,,,,,,,,,,,,,,,,,,,,,,,,,,,,,,,,,,,,,,,,,,,,1063.311174100032,None,,,,,,,,,,,,,,,,,,,,,,,,,,,,,,,,,,,,,,,,,,,,,,,,,,,,,,,,,hide,145,123,silent,new,red,1061.8758175000548,None,n,1061.8758175000548,None,"['n', 'return']","[0.9246757000219077, 1.3886212999932468]",1061.8758175000548,None,,,87YC,001,2023_Aug_30_1659,ExactRep-v3-final,2021.2.3,59.421731501759645,
,,,,,,,,,,,,123,0,123,0,,,,,,,,,,,,,,,,,,,,,,,,,,,,,,,,,,,,,,,,,,,,,,,,,1065.2283710000338,None,,,,,,,,,,,,,,,,,,,,,,,,,,,,,,,,,,,,,,,,,,,,,,,,,,,,,,,,,coin,67,124,silent,old,red,1063.8352879000595,None,y,1063.8352879000595,None,"['y', 'return']","[0.9573182000312954, 1.3577397000044584]",1063.8352879000595,None,,,87YC,001,2023_Aug_30_1659,ExactRep-v3-final,2021.2.3,59.421731501759645,
,,,,,,,,,,,,124,0,124,0,,,,,,,,,,,,,,,,,,,,,,,,,,,,,,,,,,,,,,,,,,,,,,,,,1067.2855143999914,None,,,,,,,,,,,,,,,,,,,,,,,,,,,,,,,,,,,,,,,,,,,,,,,,,,,,,,,,,grass,173,125,sing,new,white,1065.733917000005,None,n,1065.733917000005,None,"['n', 'return']","[1.0585149000398815, 1.5065055000595748]",1065.733917000005,None,,,87YC,001,2023_Aug_30_1659,ExactRep-v3-final,2021.2.3,59.421731501759645,
,,,,,,,,,,,,125,0,125,0,,,,,,,,,,,,,,,,,,,,,,,,,,,,,,,,,,,,,,,,,,,,,,,,,1070.0830307999859,None,,,,,,,,,,,,,,,,,,,,,,,,,,,,,,,,,,,,,,,,,,,,,,,,,,,,,,,,,circle,99,126,aloud,old,blue,1067.7990500000305,None,n,1067.7990500000305,None,"['n', 'return']","[1.801863200031221, 2.249832700006664]",1067.7990500000305,None,,,87YC,001,2023_Aug_30_1659,ExactRep-v3-final,2021.2.3,59.421731501759645,
,,,,,,,,,,,,126,0,126,0,,,,,,,,,,,,,,,,,,,,,,,,,,,,,,,,,,,,,,,,,,,,,,,,,1072.0862120999955,None,,,,,,,,,,,,,,,,,,,,,,,,,,,,,,,,,,,,,,,,,,,,,,,,,,,,,,,,,effort,71,127,silent,old,red,1070.5844072999898,None,y,1070.5844072999898,None,"['y', 'return']","[1.024074500077404, 1.4560588999884203]",1070.5844072999898,None,,,87YC,001,2023_Aug_30_1659,ExactRep-v3-final,2021.2.3,59.421731501759645,
,,,,,,,,,,,,127,0,127,0,,,,,,,,,,,,,,,,,,,,,,,,,,,,,,,,,,,,,,,,,,,,,,,,,1074.0701030000346,None,,,,,,,,,,,,,,,,,,,,,,,,,,,,,,,,,,,,,,,,,,,,,,,,,,,,,,,,,girl,34,128,sing,old,white,1072.6022131000645,None,n,1072.6022131000645,None,"['n', 'return']","[0.9826046000234783, 1.4222450000233948]",1072.6022131000645,None,,,87YC,001,2023_Aug_30_1659,ExactRep-v3-final,2021.2.3,59.421731501759645,
,,,,,,,,,,,,128,0,128,0,,,,,,,,,,,,,,,,,,,,,,,,,,,,,,,,,,,,,,,,,,,,,,,,,1078.0907424000325,None,,,,,,,,,,,,,,,,,,,,,,,,,,,,,,,,,,,,,,,,,,,,,,,,,,,,,,,,,style,232,129,aloud,new,blue,1074.5728864000412,None,n,1074.5728864000412,None,"['y', 'backspace', 'n', 'return']","[1.2675916000735015, 2.355582999996841, 3.043637700029649, 3.483993300003931]",1074.5728864000412,None,,,87YC,001,2023_Aug_30_1659,ExactRep-v3-final,2021.2.3,59.421731501759645,
,,,,,,,,,,,,129,0,129,0,,,,,,,,,,,,,,,,,,,,,,,,,,,,,,,,,,,,,,,,,,,,,,,,,1080.5095245999983,None,,,,,,,,,,,,,,,,,,,,,,,,,,,,,,,,,,,,,,,,,,,,,,,,,,,,,,,,,fault,79,130,sing,old,white,1078.592995999963,None,y,1078.592995999963,None,"['y', 'return']","[1.4075541000347584, 1.8715083999559283]",1078.592995999963,None,,,87YC,001,2023_Aug_30_1659,ExactRep-v3-final,2021.2.3,59.421731501759645,
,,,,,,,,,,,,130,0,130,0,,,,,,,,,,,,,,,,,,,,,,,,,,,,,,,,,,,,,,,,,,,,,,,,,1082.712354999967,None,,,,,,,,,,,,,,,,,,,,,,,,,,,,,,,,,,,,,,,,,,,,,,,,,,,,,,,,,paper,108,131,aloud,old,blue,1081.0270988000557,None,y,1081.0270988000557,None,"['y', 'return']","[1.1893186999950558, 1.6455591999692842]",1081.0270988000557,None,,,87YC,001,2023_Aug_30_1659,ExactRep-v3-final,2021.2.3,59.421731501759645,
