trials_fam.thisRepN,trials_fam.thisTrialN,trials_fam.thisN,trials_fam.thisIndex,trials_prc.thisRepN,trials_prc.thisTrialN,trials_prc.thisN,trials_prc.thisIndex,StudyLoop.thisRepN,StudyLoop.thisTrialN,StudyLoop.thisN,StudyLoop.thisIndex,TestLoop.thisRepN,TestLoop.thisTrialN,TestLoop.thisN,TestLoop.thisIndex,text_colortest.started,text_colortest.stopped,key_colortest.keys,key_colortest.rt,key_colortest.started,key_colortest.stopped,textCondition.started,textCondition.stopped,keyCondition.keys,keyCondition.rt,keyCondition.started,keyCondition.stopped,Condition_between,Condition_counterbal,keyWelcome.keys,keyWelcome.rt,keyWelcome.started,keyWelcome.stopped,welcome_a.started,welcome_a.stopped,welcome_b.started,welcome_b.stopped,welcome_c.started,welcome_c.stopped,welcome_d.started,welcome_d.stopped,welcome_e.started,welcome_e.stopped,welcome_f.started,welcome_f.stopped,key_resp_fam_inst.keys,key_resp_fam_inst.rt,key_resp_fam_inst.started,key_resp_fam_inst.stopped,fam_a.started,fam_a.stopped,fam_b.started,fam_b.stopped,fam_c.started,fam_c.stopped,fam_d.started,fam_d.stopped,fam_e.started,fam_e.stopped,fam_f.started,fam_f.stopped,text_famil.started,text_famil.stopped,textBlank500.started,textBlank500.stopped,key_resp_prc_inst.keys,key_resp_prc_inst.rt,key_resp_prc_inst.started,key_resp_prc_inst.stopped,prac_a.started,prac_a.stopped,prac_b.started,prac_b.stopped,prac_c.started,prac_c.stopped,prac_d.started,prac_d.stopped,prac_e.started,prac_e.stopped,prac_f.started,prac_f.stopped,text_prc_trial.started,text_prc_trial.stopped,key_resp_study_inst.keys,key_resp_study_inst.rt,key_resp_study_inst.started,key_resp_study_inst.stopped,crit_a.started,crit_a.stopped,crit_b.started,crit_b.stopped,crit_c.started,crit_c.stopped,crit_d.started,crit_d.stopped,crit_e.started,crit_e.stopped,crit_f.started,crit_f.stopped,study_word,study_num,study_order,study_type,word_color,textStudy.started,textStudy.stopped,keyStudy.keys,keyStudy.started,keyStudy.stopped,post_study.started,post_study.stopped,key_resp_post_study.keys,key_resp_post_study.rt,key_resp_post_study.started,key_resp_post_study.stopped,test_inst.started,test_inst.stopped,key_resp_test_inst.keys,key_resp_test_inst.rt,key_resp_test_inst.started,key_resp_test_inst.stopped,test_word,test_num,test_order,test_condition,old_new_test,word_color_test,textConf.started,textConf.stopped,Participant Response,textInput.started,textInput.stopped,keyResp.keys,keyResp.rt,keyResp.started,keyResp.stopped,textEnd.started,textEnd.stopped,participant,session,date,expName,psychopyVersion,frameRate,
,,,,,,,,,,,,,,,,1449.496085699997,None,y,1.4784459000220522,1449.496085699997,None,,,,,,,,,,,,,,,,,,,,,,,,,,,,,,,,,,,,,,,,,,,,,,,,,,,,,,,,,,,,,,,,,,,,,,,,,,,,,,,,,,,,,,,,,,,,,,,,,,,,,,,,,,,,,,,,,,,,,,88YD,001,2023_Aug_30_1723,ExactRep-v3-final,2021.2.3,59.6307900076681,
,,,,,,,,,,,,,,,,,,,,,,1451.0025162000675,None,d,0.9081379000563174,1451.0025162000675,None,,,,,,,,,,,,,,,,,,,,,,,,,,,,,,,,,,,,,,,,,,,,,,,,,,,,,,,,,,,,,,,,,,,,,,,,,,,,,,,,,,,,,,,,,,,,,,,,,,,,,,,,,,,,,,,,88YD,001,2023_Aug_30_1723,ExactRep-v3-final,2021.2.3,59.6307900076681,
,,,,,,,,,,,,,,,,,,,,,,,,,,,,colorfoils,d,space,561.9360666000284,1462.0542415999807,None,,,,,,,,,,,,,,,,,,,,,,,,,,,,,,,,,,,,,,,,,,,,,,,,,,,,,,,,,,,,,,,,,,,,,,,,,,,,,,,,,,,,,,,,,,,,,,,,,,,,,,,,,,88YD,001,2023_Aug_30_1723,ExactRep-v3-final,2021.2.3,59.6307900076681,
,,,,,,,,,,,,,,,,,,,,,,,,,,,,,,,,,,1452.1095041000517,None,1452.1095041000517,None,1452.1095041000517,None,1452.1095041000517,None,1452.1095041000517,None,1452.1095041000517,None,space,18.338445500005037,2034.1797474999912,None,,,,,,,,,,,,,,,,,,,,,,,,,,,,,,,,,,,,,,,,,,,,,,,,,,,,,,,,,,,,,,,,,,,,,,,,,,,,,,,,,,,,,,,,,,88YD,001,2023_Aug_30_1723,ExactRep-v3-final,2021.2.3,59.6307900076681,
0,0,0,0,,,,,,,,,,,,,,,,,,,,,,,,,,,,,,,,,,,,,,,,,,,,,,,2024.1617796000792,None,2024.1617796000792,None,2024.1617796000792,None,2024.1617796000792,None,2024.1617796000792,None,2024.1617796000792,None,2052.617931100074,None,2054.6216881000437,None,,,,,,,,,,,,,,,,,,,,,,,,,,,,,,,,,,,,,,,,,,,,,,,,,,,,,,,,,,,,,,,,,,,,,,,,,,88YD,001,2023_Aug_30_1723,ExactRep-v3-final,2021.2.3,59.6307900076681,
1,0,1,0,,,,,,,,,,,,,,,,,,,,,,,,,,,,,,,,,,,,,,,,,,,,,,,,,,,,,,,,,,,2055.125117400079,None,2057.124540799996,None,,,,,,,,,,,,,,,,,,,,,,,,,,,,,,,,,,,,,,,,,,,,,,,,,,,,,,,,,,,,,,,,,,,,,,,,,,88YD,001,2023_Aug_30_1723,ExactRep-v3-final,2021.2.3,59.6307900076681,
2,0,2,0,,,,,,,,,,,,,,,,,,,,,,,,,,,,,,,,,,,,,,,,,,,,,,,,,,,,,,,,,,,2057.6267957000528,None,2059.6264648999786,None,,,,,,,,,,,,,,,,,,,,,,,,,,,,,,,,,,,,,,,,,,,,,,,,,,,,,,,,,,,,,,,,,,,,,,,,,,88YD,001,2023_Aug_30_1723,ExactRep-v3-final,2021.2.3,59.6307900076681,
3,0,3,0,,,,,,,,,,,,,,,,,,,,,,,,,,,,,,,,,,,,,,,,,,,,,,,,,,,,,,,,,,,2060.127012900077,None,2062.130059599993,None,,,,,,,,,,,,,,,,,,,,,,,,,,,,,,,,,,,,,,,,,,,,,,,,,,,,,,,,,,,,,,,,,,,,,,,,,,88YD,001,2023_Aug_30_1723,ExactRep-v3-final,2021.2.3,59.6307900076681,
4,0,4,0,,,,,,,,,,,,,,,,,,,,,,,,,,,,,,,,,,,,,,,,,,,,,,,,,,,,,,,,,,,2062.6294790999964,None,2064.632614800008,None,,,,,,,,,,,,,,,,,,,,,,,,,,,,,,,,,,,,,,,,,,,,,,,,,,,,,,,,,,,,,,,,,,,,,,,,,,88YD,001,2023_Aug_30_1723,ExactRep-v3-final,2021.2.3,59.6307900076681,
5,0,5,0,,,,,,,,,,,,,,,,,,,,,,,,,,,,,,,,,,,,,,,,,,,,,,,,,,,,,,,,,,,2065.1357531000394,None,2067.150890800054,None,,,,,,,,,,,,,,,,,,,,,,,,,,,,,,,,,,,,,,,,,,,,,,,,,,,,,,,,,,,,,,,,,,,,,,,,,,88YD,001,2023_Aug_30_1723,ExactRep-v3-final,2021.2.3,59.6307900076681,
6,0,6,0,,,,,,,,,,,,,,,,,,,,,,,,,,,,,,,,,,,,,,,,,,,,,,,,,,,,,,,,,,,2067.651463499991,None,2069.6533079000656,None,,,,,,,,,,,,,,,,,,,,,,,,,,,,,,,,,,,,,,,,,,,,,,,,,,,,,,,,,,,,,,,,,,,,,,,,,,88YD,001,2023_Aug_30_1723,ExactRep-v3-final,2021.2.3,59.6307900076681,
7,0,7,0,,,,,,,,,,,,,,,,,,,,,,,,,,,,,,,,,,,,,,,,,,,,,,,,,,,,,,,,,,,2070.1537982000737,None,2072.1559748,None,,,,,,,,,,,,,,,,,,,,,,,,,,,,,,,,,,,,,,,,,,,,,,,,,,,,,,,,,,,,,,,,,,,,,,,,,,88YD,001,2023_Aug_30_1723,ExactRep-v3-final,2021.2.3,59.6307900076681,
8,0,8,0,,,,,,,,,,,,,,,,,,,,,,,,,,,,,,,,,,,,,,,,,,,,,,,,,,,,,,,,,,,2072.6630109000253,None,2074.674975199974,None,,,,,,,,,,,,,,,,,,,,,,,,,,,,,,,,,,,,,,,,,,,,,,,,,,,,,,,,,,,,,,,,,,,,,,,,,,88YD,001,2023_Aug_30_1723,ExactRep-v3-final,2021.2.3,59.6307900076681,
9,0,9,0,,,,,,,,,,,,,,,,,,,,,,,,,,,,,,,,,,,,,,,,,,,,,,,,,,,,,,,,,,,2075.175571299973,None,2077.1781582999974,None,,,,,,,,,,,,,,,,,,,,,,,,,,,,,,,,,,,,,,,,,,,,,,,,,,,,,,,,,,,,,,,,,,,,,,,,,,88YD,001,2023_Aug_30_1723,ExactRep-v3-final,2021.2.3,59.6307900076681,
10,0,10,0,,,,,,,,,,,,,,,,,,,,,,,,,,,,,,,,,,,,,,,,,,,,,,,,,,,,,,,,,,,2077.6846087999875,None,2079.699479000061,None,,,,,,,,,,,,,,,,,,,,,,,,,,,,,,,,,,,,,,,,,,,,,,,,,,,,,,,,,,,,,,,,,,,,,,,,,,88YD,001,2023_Aug_30_1723,ExactRep-v3-final,2021.2.3,59.6307900076681,
11,0,11,0,,,,,,,,,,,,,,,,,,,,,,,,,,,,,,,,,,,,,,,,,,,,,,,,,,,,,,,,,,,2080.196954300045,None,2082.1992309000343,None,,,,,,,,,,,,,,,,,,,,,,,,,,,,,,,,,,,,,,,,,,,,,,,,,,,,,,,,,,,,,,,,,,,,,,,,,,88YD,001,2023_Aug_30_1723,ExactRep-v3-final,2021.2.3,59.6307900076681,
12,0,12,0,,,,,,,,,,,,,,,,,,,,,,,,,,,,,,,,,,,,,,,,,,,,,,,,,,,,,,,,,,,2082.7000629999675,None,2084.701657700003,None,,,,,,,,,,,,,,,,,,,,,,,,,,,,,,,,,,,,,,,,,,,,,,,,,,,,,,,,,,,,,,,,,,,,,,,,,,88YD,001,2023_Aug_30_1723,ExactRep-v3-final,2021.2.3,59.6307900076681,
13,0,13,0,,,,,,,,,,,,,,,,,,,,,,,,,,,,,,,,,,,,,,,,,,,,,,,,,,,,,,,,,,,2085.2033850000007,None,2087.204019900062,None,,,,,,,,,,,,,,,,,,,,,,,,,,,,,,,,,,,,,,,,,,,,,,,,,,,,,,,,,,,,,,,,,,,,,,,,,,88YD,001,2023_Aug_30_1723,ExactRep-v3-final,2021.2.3,59.6307900076681,
14,0,14,0,,,,,,,,,,,,,,,,,,,,,,,,,,,,,,,,,,,,,,,,,,,,,,,,,,,,,,,,,,,2087.7045481000096,None,2089.706656299997,None,,,,,,,,,,,,,,,,,,,,,,,,,,,,,,,,,,,,,,,,,,,,,,,,,,,,,,,,,,,,,,,,,,,,,,,,,,88YD,001,2023_Aug_30_1723,ExactRep-v3-final,2021.2.3,59.6307900076681,
,,,,,,,,,,,,,,,,,,,,,,,,,,,,,,,,,,,,,,,,,,,,,,,,,,,,,,,,,,,,,,,,,,space,13.917809200007468,2100.3764030999737,None,,,,,,,,,,,,,,,,,,,,,,,,,,,,,,,,,,,,,,,,,,,,,,,,,,,,,,,,,,,,,,,,,,,,,,88YD,001,2023_Aug_30_1723,ExactRep-v3-final,2021.2.3,59.6307900076681,
,,,,0,0,0,0,,,,,,,,,,,,,,,,,,,,,,,,,,,,,,,,,,,,,,,,,,,,,,,,,,,,,,,,,2116.400032500038,None,,,,,2090.337515400024,None,2090.337515400024,None,2090.337515400024,None,2090.337515400024,None,2090.337515400024,None,2090.337515400024,None,2114.3896602999885,None,,,,,,,,,,,,,,,,,,,,,,,,,,,,,,,,,,,,,,,,,,,,,,,,,,,,,,,,88YD,001,2023_Aug_30_1723,ExactRep-v3-final,2021.2.3,59.6307900076681,
,,,,1,0,1,0,,,,,,,,,,,,,,,,,,,,,,,,,,,,,,,,,,,,,,,,,,,,,,,,,,,,,,,,,2118.9030656999676,None,,,,,,,,,,,,,,,,,2116.9003288999666,None,,,,,,,,,,,,,,,,,,,,,,,,,,,,,,,,,,,,,,,,,,,,,,,,,,,,,,,,88YD,001,2023_Aug_30_1723,ExactRep-v3-final,2021.2.3,59.6307900076681,
,,,,2,0,2,0,,,,,,,,,,,,,,,,,,,,,,,,,,,,,,,,,,,,,,,,,,,,,,,,,,,,,,,,,2121.4061504000565,None,,,,,,,,,,,,,,,,,2119.402915999992,None,,,,,,,,,,,,,,,,,,,,,,,,,,,,,,,,,,,,,,,,,,,,,,,,,,,,,,,,88YD,001,2023_Aug_30_1723,ExactRep-v3-final,2021.2.3,59.6307900076681,
,,,,3,0,3,0,,,,,,,,,,,,,,,,,,,,,,,,,,,,,,,,,,,,,,,,,,,,,,,,,,,,,,,,,2123.907573600067,None,,,,,,,,,,,,,,,,,2121.9059071000665,None,,,,,,,,,,,,,,,,,,,,,,,,,,,,,,,,,,,,,,,,,,,,,,,,,,,,,,,,88YD,001,2023_Aug_30_1723,ExactRep-v3-final,2021.2.3,59.6307900076681,
,,,,4,0,4,0,,,,,,,,,,,,,,,,,,,,,,,,,,,,,,,,,,,,,,,,,,,,,,,,,,,,,,,,,2126.4098608000204,None,,,,,,,,,,,,,,,,,2124.407859400031,None,,,,,,,,,,,,,,,,,,,,,,,,,,,,,,,,,,,,,,,,,,,,,,,,,,,,,,,,88YD,001,2023_Aug_30_1723,ExactRep-v3-final,2021.2.3,59.6307900076681,
,,,,5,0,5,0,,,,,,,,,,,,,,,,,,,,,,,,,,,,,,,,,,,,,,,,,,,,,,,,,,,,,,,,,2128.912674400024,None,,,,,,,,,,,,,,,,,2126.910581800039,None,,,,,,,,,,,,,,,,,,,,,,,,,,,,,,,,,,,,,,,,,,,,,,,,,,,,,,,,88YD,001,2023_Aug_30_1723,ExactRep-v3-final,2021.2.3,59.6307900076681,
,,,,6,0,6,0,,,,,,,,,,,,,,,,,,,,,,,,,,,,,,,,,,,,,,,,,,,,,,,,,,,,,,,,,2131.414894900052,None,,,,,,,,,,,,,,,,,2129.4137819000753,None,,,,,,,,,,,,,,,,,,,,,,,,,,,,,,,,,,,,,,,,,,,,,,,,,,,,,,,,88YD,001,2023_Aug_30_1723,ExactRep-v3-final,2021.2.3,59.6307900076681,
,,,,7,0,7,0,,,,,,,,,,,,,,,,,,,,,,,,,,,,,,,,,,,,,,,,,,,,,,,,,,,,,,,,,2133.9341635999735,None,,,,,,,,,,,,,,,,,2131.920123000047,None,,,,,,,,,,,,,,,,,,,,,,,,,,,,,,,,,,,,,,,,,,,,,,,,,,,,,,,,88YD,001,2023_Aug_30_1723,ExactRep-v3-final,2021.2.3,59.6307900076681,
,,,,8,0,8,0,,,,,,,,,,,,,,,,,,,,,,,,,,,,,,,,,,,,,,,,,,,,,,,,,,,,,,,,,2136.437366100028,None,,,,,,,,,,,,,,,,,2134.4346381999785,None,,,,,,,,,,,,,,,,,,,,,,,,,,,,,,,,,,,,,,,,,,,,,,,,,,,,,,,,88YD,001,2023_Aug_30_1723,ExactRep-v3-final,2021.2.3,59.6307900076681,
,,,,9,0,9,0,,,,,,,,,,,,,,,,,,,,,,,,,,,,,,,,,,,,,,,,,,,,,,,,,,,,,,,,,2138.94028780004,None,,,,,,,,,,,,,,,,,2136.9373288999777,None,,,,,,,,,,,,,,,,,,,,,,,,,,,,,,,,,,,,,,,,,,,,,,,,,,,,,,,,88YD,001,2023_Aug_30_1723,ExactRep-v3-final,2021.2.3,59.6307900076681,
,,,,10,0,10,0,,,,,,,,,,,,,,,,,,,,,,,,,,,,,,,,,,,,,,,,,,,,,,,,,,,,,,,,,2141.441872399999,None,,,,,,,,,,,,,,,,,2139.439625800005,None,,,,,,,,,,,,,,,,,,,,,,,,,,,,,,,,,,,,,,,,,,,,,,,,,,,,,,,,88YD,001,2023_Aug_30_1723,ExactRep-v3-final,2021.2.3,59.6307900076681,
,,,,11,0,11,0,,,,,,,,,,,,,,,,,,,,,,,,,,,,,,,,,,,,,,,,,,,,,,,,,,,,,,,,,2143.9458869000664,None,,,,,,,,,,,,,,,,,2141.942077100044,None,,,,,,,,,,,,,,,,,,,,,,,,,,,,,,,,,,,,,,,,,,,,,,,,,,,,,,,,88YD,001,2023_Aug_30_1723,ExactRep-v3-final,2021.2.3,59.6307900076681,
,,,,12,0,12,0,,,,,,,,,,,,,,,,,,,,,,,,,,,,,,,,,,,,,,,,,,,,,,,,,,,,,,,,,2146.4630180000095,None,,,,,,,,,,,,,,,,,2144.4615350000095,None,,,,,,,,,,,,,,,,,,,,,,,,,,,,,,,,,,,,,,,,,,,,,,,,,,,,,,,,88YD,001,2023_Aug_30_1723,ExactRep-v3-final,2021.2.3,59.6307900076681,
,,,,13,0,13,0,,,,,,,,,,,,,,,,,,,,,,,,,,,,,,,,,,,,,,,,,,,,,,,,,,,,,,,,,2148.9658146,None,,,,,,,,,,,,,,,,,2146.965198699967,None,,,,,,,,,,,,,,,,,,,,,,,,,,,,,,,,,,,,,,,,,,,,,,,,,,,,,,,,88YD,001,2023_Aug_30_1723,ExactRep-v3-final,2021.2.3,59.6307900076681,
,,,,14,0,14,0,,,,,,,,,,,,,,,,,,,,,,,,,,,,,,,,,,,,,,,,,,,,,,,,,,,,,,,,,2151.468576500076,None,,,,,,,,,,,,,,,,,2149.466422299971,None,,,,,,,,,,,,,,,,,,,,,,,,,,,,,,,,,,,,,,,,,,,,,,,,,,,,,,,,88YD,001,2023_Aug_30_1723,ExactRep-v3-final,2021.2.3,59.6307900076681,
,,,,,,,,,,,,,,,,,,,,,,,,,,,,,,,,,,,,,,,,,,,,,,,,,,,,,,,,,,,,,,,,,,,,,,,,,,,,,,,,,,,,space,22.452480199979618,2162.098078400013,None,,,,,,,,,,,,,,,,,,,,,,,,,,,,,,,,,,,,,,,,,,,,,,,,,,,,88YD,001,2023_Aug_30_1723,ExactRep-v3-final,2021.2.3,59.6307900076681,
,,,,,,,,0,0,0,0,,,,,,,,,,,,,,,,,,,,,,,,,,,,,,,,,,,,,,,,,,,,,,,,,,,,,2186.619825700065,None,,,,,,,,,,,,,,,,,,,,,,,2152.1234063999727,None,2152.1234063999727,None,2152.1234063999727,None,2152.1234063999727,None,2152.1234063999727,None,2152.1234063999727,None,person,44,1,silent,white,2184.62077899999,None,None,2184.62077899999,None,,,,,,,,,,,,,,,,,,,,,,,,,,,,,,88YD,001,2023_Aug_30_1723,ExactRep-v3-final,2021.2.3,59.6307900076681,
,,,,,,,,1,0,1,0,,,,,,,,,,,,,,,,,,,,,,,,,,,,,,,,,,,,,,,,,,,,,,,,,,,,,2189.1392626999877,None,,,,,,,,,,,,,,,,,,,,,,,,,,,,,,,,,,,flesh,4,2,sing,red,2187.143719100044,None,None,2187.143719100044,None,,,,,,,,,,,,,,,,,,,,,,,,,,,,,,88YD,001,2023_Aug_30_1723,ExactRep-v3-final,2021.2.3,59.6307900076681,
,,,,,,,,2,0,2,0,,,,,,,,,,,,,,,,,,,,,,,,,,,,,,,,,,,,,,,,,,,,,,,,,,,,,2191.6592336000176,None,,,,,,,,,,,,,,,,,,,,,,,,,,,,,,,,,,,toy,37,3,sing,red,2189.6445535999956,None,None,2189.6445535999956,None,,,,,,,,,,,,,,,,,,,,,,,,,,,,,,88YD,001,2023_Aug_30_1723,ExactRep-v3-final,2021.2.3,59.6307900076681,
,,,,,,,,3,0,3,0,,,,,,,,,,,,,,,,,,,,,,,,,,,,,,,,,,,,,,,,,,,,,,,,,,,,,2194.1775997000514,None,,,,,,,,,,,,,,,,,,,,,,,,,,,,,,,,,,,flag,53,4,silent,white,2192.1626653000712,None,None,2192.1626653000712,None,,,,,,,,,,,,,,,,,,,,,,,,,,,,,,88YD,001,2023_Aug_30_1723,ExactRep-v3-final,2021.2.3,59.6307900076681,
,,,,,,,,4,0,4,0,,,,,,,,,,,,,,,,,,,,,,,,,,,,,,,,,,,,,,,,,,,,,,,,,,,,,2196.6799662000267,None,,,,,,,,,,,,,,,,,,,,,,,,,,,,,,,,,,,body,34,5,sing,red,2194.67785550002,None,None,2194.67785550002,None,,,,,,,,,,,,,,,,,,,,,,,,,,,,,,88YD,001,2023_Aug_30_1723,ExactRep-v3-final,2021.2.3,59.6307900076681,
,,,,,,,,5,0,5,0,,,,,,,,,,,,,,,,,,,,,,,,,,,,,,,,,,,,,,,,,,,,,,,,,,,,,2199.1834073000355,None,,,,,,,,,,,,,,,,,,,,,,,,,,,,,,,,,,,coast,108,6,aloud,blue,2197.1834938999964,None,None,2197.1834938999964,None,,,,,,,,,,,,,,,,,,,,,,,,,,,,,,88YD,001,2023_Aug_30_1723,ExactRep-v3-final,2021.2.3,59.6307900076681,
,,,,,,,,6,0,6,0,,,,,,,,,,,,,,,,,,,,,,,,,,,,,,,,,,,,,,,,,,,,,,,,,,,,,2201.685129499994,None,,,,,,,,,,,,,,,,,,,,,,,,,,,,,,,,,,,water,19,7,sing,red,2199.684953500051,None,None,2199.684953500051,None,,,,,,,,,,,,,,,,,,,,,,,,,,,,,,88YD,001,2023_Aug_30_1723,ExactRep-v3-final,2021.2.3,59.6307900076681,
,,,,,,,,7,0,7,0,,,,,,,,,,,,,,,,,,,,,,,,,,,,,,,,,,,,,,,,,,,,,,,,,,,,,2204.187916600029,None,,,,,,,,,,,,,,,,,,,,,,,,,,,,,,,,,,,tree,43,8,silent,white,2202.186290499987,None,None,2202.186290499987,None,,,,,,,,,,,,,,,,,,,,,,,,,,,,,,88YD,001,2023_Aug_30_1723,ExactRep-v3-final,2021.2.3,59.6307900076681,
,,,,,,,,8,0,8,0,,,,,,,,,,,,,,,,,,,,,,,,,,,,,,,,,,,,,,,,,,,,,,,,,,,,,2206.6900862000184,None,,,,,,,,,,,,,,,,,,,,,,,,,,,,,,,,,,,square,84,9,aloud,blue,2204.68956790003,None,None,2204.68956790003,None,,,,,,,,,,,,,,,,,,,,,,,,,,,,,,88YD,001,2023_Aug_30_1723,ExactRep-v3-final,2021.2.3,59.6307900076681,
,,,,,,,,9,0,9,0,,,,,,,,,,,,,,,,,,,,,,,,,,,,,,,,,,,,,,,,,,,,,,,,,,,,,2209.196847400046,None,,,,,,,,,,,,,,,,,,,,,,,,,,,,,,,,,,,salary,68,10,silent,white,2207.1904978000093,None,None,2207.1904978000093,None,,,,,,,,,,,,,,,,,,,,,,,,,,,,,,88YD,001,2023_Aug_30_1723,ExactRep-v3-final,2021.2.3,59.6307900076681,
,,,,,,,,10,0,10,0,,,,,,,,,,,,,,,,,,,,,,,,,,,,,,,,,,,,,,,,,,,,,,,,,,,,,2211.7126016999828,None,,,,,,,,,,,,,,,,,,,,,,,,,,,,,,,,,,,car,7,11,sing,red,2209.7101602000184,None,None,2209.7101602000184,None,,,,,,,,,,,,,,,,,,,,,,,,,,,,,,88YD,001,2023_Aug_30_1723,ExactRep-v3-final,2021.2.3,59.6307900076681,
,,,,,,,,11,0,11,0,,,,,,,,,,,,,,,,,,,,,,,,,,,,,,,,,,,,,,,,,,,,,,,,,,,,,2214.214224299998,None,,,,,,,,,,,,,,,,,,,,,,,,,,,,,,,,,,,village,100,12,aloud,blue,2212.214436099981,None,None,2212.214436099981,None,,,,,,,,,,,,,,,,,,,,,,,,,,,,,,88YD,001,2023_Aug_30_1723,ExactRep-v3-final,2021.2.3,59.6307900076681,
,,,,,,,,12,0,12,0,,,,,,,,,,,,,,,,,,,,,,,,,,,,,,,,,,,,,,,,,,,,,,,,,,,,,2216.716631600051,None,,,,,,,,,,,,,,,,,,,,,,,,,,,,,,,,,,,paper,103,13,aloud,blue,2214.7165143999737,None,None,2214.7165143999737,None,,,,,,,,,,,,,,,,,,,,,,,,,,,,,,88YD,001,2023_Aug_30_1723,ExactRep-v3-final,2021.2.3,59.6307900076681,
,,,,,,,,13,0,13,0,,,,,,,,,,,,,,,,,,,,,,,,,,,,,,,,,,,,,,,,,,,,,,,,,,,,,2219.2192103000125,None,,,,,,,,,,,,,,,,,,,,,,,,,,,,,,,,,,,army,70,14,silent,white,2217.2196490999777,None,None,2217.2196490999777,None,,,,,,,,,,,,,,,,,,,,,,,,,,,,,,88YD,001,2023_Aug_30_1723,ExactRep-v3-final,2021.2.3,59.6307900076681,
,,,,,,,,14,0,14,0,,,,,,,,,,,,,,,,,,,,,,,,,,,,,,,,,,,,,,,,,,,,,,,,,,,,,2221.722383500077,None,,,,,,,,,,,,,,,,,,,,,,,,,,,,,,,,,,,effort,42,15,silent,white,2219.7224966000067,None,None,2219.7224966000067,None,,,,,,,,,,,,,,,,,,,,,,,,,,,,,,88YD,001,2023_Aug_30_1723,ExactRep-v3-final,2021.2.3,59.6307900076681,
,,,,,,,,15,0,15,0,,,,,,,,,,,,,,,,,,,,,,,,,,,,,,,,,,,,,,,,,,,,,,,,,,,,,2224.224258100032,None,,,,,,,,,,,,,,,,,,,,,,,,,,,,,,,,,,,death,23,16,sing,red,2222.2242548000067,None,None,2222.2242548000067,None,,,,,,,,,,,,,,,,,,,,,,,,,,,,,,88YD,001,2023_Aug_30_1723,ExactRep-v3-final,2021.2.3,59.6307900076681,
,,,,,,,,16,0,16,0,,,,,,,,,,,,,,,,,,,,,,,,,,,,,,,,,,,,,,,,,,,,,,,,,,,,,2226.7437851000577,None,,,,,,,,,,,,,,,,,,,,,,,,,,,,,,,,,,,health,92,17,aloud,blue,2224.7331468000775,None,None,2224.7331468000775,None,,,,,,,,,,,,,,,,,,,,,,,,,,,,,,88YD,001,2023_Aug_30_1723,ExactRep-v3-final,2021.2.3,59.6307900076681,
,,,,,,,,17,0,17,0,,,,,,,,,,,,,,,,,,,,,,,,,,,,,,,,,,,,,,,,,,,,,,,,,,,,,2229.262837300077,None,,,,,,,,,,,,,,,,,,,,,,,,,,,,,,,,,,,bird,97,18,aloud,blue,2227.2494967000093,None,None,2227.2494967000093,None,,,,,,,,,,,,,,,,,,,,,,,,,,,,,,88YD,001,2023_Aug_30_1723,ExactRep-v3-final,2021.2.3,59.6307900076681,
,,,,,,,,18,0,18,0,,,,,,,,,,,,,,,,,,,,,,,,,,,,,,,,,,,,,,,,,,,,,,,,,,,,,2231.765039699967,None,,,,,,,,,,,,,,,,,,,,,,,,,,,,,,,,,,,rod,1,19,sing,red,2229.7631031000055,None,None,2229.7631031000055,None,,,,,,,,,,,,,,,,,,,,,,,,,,,,,,88YD,001,2023_Aug_30_1723,ExactRep-v3-final,2021.2.3,59.6307900076681,
,,,,,,,,19,0,19,0,,,,,,,,,,,,,,,,,,,,,,,,,,,,,,,,,,,,,,,,,,,,,,,,,,,,,2234.2675435000565,None,,,,,,,,,,,,,,,,,,,,,,,,,,,,,,,,,,,lake,16,20,sing,red,2232.2668512000237,None,None,2232.2668512000237,None,,,,,,,,,,,,,,,,,,,,,,,,,,,,,,88YD,001,2023_Aug_30_1723,ExactRep-v3-final,2021.2.3,59.6307900076681,
,,,,,,,,20,0,20,0,,,,,,,,,,,,,,,,,,,,,,,,,,,,,,,,,,,,,,,,,,,,,,,,,,,,,2236.7700533000752,None,,,,,,,,,,,,,,,,,,,,,,,,,,,,,,,,,,,student,98,21,aloud,blue,2234.768711599987,None,None,2234.768711599987,None,,,,,,,,,,,,,,,,,,,,,,,,,,,,,,88YD,001,2023_Aug_30_1723,ExactRep-v3-final,2021.2.3,59.6307900076681,
,,,,,,,,21,0,21,0,,,,,,,,,,,,,,,,,,,,,,,,,,,,,,,,,,,,,,,,,,,,,,,,,,,,,2239.2727743000723,None,,,,,,,,,,,,,,,,,,,,,,,,,,,,,,,,,,,mother,99,22,aloud,blue,2237.2713828000706,None,None,2237.2713828000706,None,,,,,,,,,,,,,,,,,,,,,,,,,,,,,,88YD,001,2023_Aug_30_1723,ExactRep-v3-final,2021.2.3,59.6307900076681,
,,,,,,,,22,0,22,0,,,,,,,,,,,,,,,,,,,,,,,,,,,,,,,,,,,,,,,,,,,,,,,,,,,,,2241.7809316000203,None,,,,,,,,,,,,,,,,,,,,,,,,,,,,,,,,,,,ship,28,23,sing,red,2239.7746799000306,None,None,2239.7746799000306,None,,,,,,,,,,,,,,,,,,,,,,,,,,,,,,88YD,001,2023_Aug_30_1723,ExactRep-v3-final,2021.2.3,59.6307900076681,
,,,,,,,,23,0,23,0,,,,,,,,,,,,,,,,,,,,,,,,,,,,,,,,,,,,,,,,,,,,,,,,,,,,,2244.2980143000605,None,,,,,,,,,,,,,,,,,,,,,,,,,,,,,,,,,,,dawn,33,24,sing,red,2242.2928553000093,None,None,2242.2928553000093,None,,,,,,,,,,,,,,,,,,,,,,,,,,,,,,88YD,001,2023_Aug_30_1723,ExactRep-v3-final,2021.2.3,59.6307900076681,
,,,,,,,,24,0,24,0,,,,,,,,,,,,,,,,,,,,,,,,,,,,,,,,,,,,,,,,,,,,,,,,,,,,,2246.813569799997,None,,,,,,,,,,,,,,,,,,,,,,,,,,,,,,,,,,,history,80,25,aloud,blue,2244.811755300034,None,None,2244.811755300034,None,,,,,,,,,,,,,,,,,,,,,,,,,,,,,,88YD,001,2023_Aug_30_1723,ExactRep-v3-final,2021.2.3,59.6307900076681,
,,,,,,,,25,0,25,0,,,,,,,,,,,,,,,,,,,,,,,,,,,,,,,,,,,,,,,,,,,,,,,,,,,,,2249.316130900057,None,,,,,,,,,,,,,,,,,,,,,,,,,,,,,,,,,,,teacher,78,26,silent,white,2247.3159105000086,None,None,2247.3159105000086,None,,,,,,,,,,,,,,,,,,,,,,,,,,,,,,88YD,001,2023_Aug_30_1723,ExactRep-v3-final,2021.2.3,59.6307900076681,
,,,,,,,,26,0,26,0,,,,,,,,,,,,,,,,,,,,,,,,,,,,,,,,,,,,,,,,,,,,,,,,,,,,,2251.835066600004,None,,,,,,,,,,,,,,,,,,,,,,,,,,,,,,,,,,,justice,112,27,aloud,blue,2249.821439399966,None,None,2249.821439399966,None,,,,,,,,,,,,,,,,,,,,,,,,,,,,,,88YD,001,2023_Aug_30_1723,ExactRep-v3-final,2021.2.3,59.6307900076681,
,,,,,,,,27,0,27,0,,,,,,,,,,,,,,,,,,,,,,,,,,,,,,,,,,,,,,,,,,,,,,,,,,,,,2254.337765000062,None,,,,,,,,,,,,,,,,,,,,,,,,,,,,,,,,,,,ocean,40,28,silent,white,2252.335782899987,None,None,2252.335782899987,None,,,,,,,,,,,,,,,,,,,,,,,,,,,,,,88YD,001,2023_Aug_30_1723,ExactRep-v3-final,2021.2.3,59.6307900076681,
,,,,,,,,28,0,28,0,,,,,,,,,,,,,,,,,,,,,,,,,,,,,,,,,,,,,,,,,,,,,,,,,,,,,2256.8403364999685,None,,,,,,,,,,,,,,,,,,,,,,,,,,,,,,,,,,,soil,13,29,sing,red,2254.8384519000538,None,None,2254.8384519000538,None,,,,,,,,,,,,,,,,,,,,,,,,,,,,,,88YD,001,2023_Aug_30_1723,ExactRep-v3-final,2021.2.3,59.6307900076681,
,,,,,,,,29,0,29,0,,,,,,,,,,,,,,,,,,,,,,,,,,,,,,,,,,,,,,,,,,,,,,,,,,,,,2259.3446464000735,None,,,,,,,,,,,,,,,,,,,,,,,,,,,,,,,,,,,season,93,30,aloud,blue,2257.3411634999793,None,None,2257.3411634999793,None,,,,,,,,,,,,,,,,,,,,,,,,,,,,,,88YD,001,2023_Aug_30_1723,ExactRep-v3-final,2021.2.3,59.6307900076681,
,,,,,,,,30,0,30,0,,,,,,,,,,,,,,,,,,,,,,,,,,,,,,,,,,,,,,,,,,,,,,,,,,,,,2261.8641049000435,None,,,,,,,,,,,,,,,,,,,,,,,,,,,,,,,,,,,cattle,20,31,sing,red,2259.8599410000024,None,None,2259.8599410000024,None,,,,,,,,,,,,,,,,,,,,,,,,,,,,,,88YD,001,2023_Aug_30_1723,ExactRep-v3-final,2021.2.3,59.6307900076681,
,,,,,,,,31,0,31,0,,,,,,,,,,,,,,,,,,,,,,,,,,,,,,,,,,,,,,,,,,,,,,,,,,,,,2264.3809913999867,None,,,,,,,,,,,,,,,,,,,,,,,,,,,,,,,,,,,breast,50,32,silent,white,2262.3792166999774,None,None,2262.3792166999774,None,,,,,,,,,,,,,,,,,,,,,,,,,,,,,,88YD,001,2023_Aug_30_1723,ExactRep-v3-final,2021.2.3,59.6307900076681,
,,,,,,,,32,0,32,0,,,,,,,,,,,,,,,,,,,,,,,,,,,,,,,,,,,,,,,,,,,,,,,,,,,,,2266.9019796000794,None,,,,,,,,,,,,,,,,,,,,,,,,,,,,,,,,,,,meeting,85,33,aloud,blue,2264.8863631000277,None,None,2264.8863631000277,None,,,,,,,,,,,,,,,,,,,,,,,,,,,,,,88YD,001,2023_Aug_30_1723,ExactRep-v3-final,2021.2.3,59.6307900076681,
,,,,,,,,33,0,33,0,,,,,,,,,,,,,,,,,,,,,,,,,,,,,,,,,,,,,,,,,,,,,,,,,,,,,2269.4031090000644,None,,,,,,,,,,,,,,,,,,,,,,,,,,,,,,,,,,,cabin,38,34,sing,red,2267.401086500031,None,None,2267.401086500031,None,,,,,,,,,,,,,,,,,,,,,,,,,,,,,,88YD,001,2023_Aug_30_1723,ExactRep-v3-final,2021.2.3,59.6307900076681,
,,,,,,,,34,0,34,0,,,,,,,,,,,,,,,,,,,,,,,,,,,,,,,,,,,,,,,,,,,,,,,,,,,,,2271.9055254000705,None,,,,,,,,,,,,,,,,,,,,,,,,,,,,,,,,,,,passion,39,35,silent,white,2269.9036319999723,None,None,2269.9036319999723,None,,,,,,,,,,,,,,,,,,,,,,,,,,,,,,88YD,001,2023_Aug_30_1723,ExactRep-v3-final,2021.2.3,59.6307900076681,
,,,,,,,,35,0,35,0,,,,,,,,,,,,,,,,,,,,,,,,,,,,,,,,,,,,,,,,,,,,,,,,,,,,,2274.407716899994,None,,,,,,,,,,,,,,,,,,,,,,,,,,,,,,,,,,,hope,74,36,silent,white,2272.406873699976,None,None,2272.406873699976,None,,,,,,,,,,,,,,,,,,,,,,,,,,,,,,88YD,001,2023_Aug_30_1723,ExactRep-v3-final,2021.2.3,59.6307900076681,
,,,,,,,,36,0,36,0,,,,,,,,,,,,,,,,,,,,,,,,,,,,,,,,,,,,,,,,,,,,,,,,,,,,,2276.910645300057,None,,,,,,,,,,,,,,,,,,,,,,,,,,,,,,,,,,,flower,82,37,aloud,blue,2274.9088092000457,None,None,2274.9088092000457,None,,,,,,,,,,,,,,,,,,,,,,,,,,,,,,88YD,001,2023_Aug_30_1723,ExactRep-v3-final,2021.2.3,59.6307900076681,
,,,,,,,,37,0,37,0,,,,,,,,,,,,,,,,,,,,,,,,,,,,,,,,,,,,,,,,,,,,,,,,,,,,,2279.416431599995,None,,,,,,,,,,,,,,,,,,,,,,,,,,,,,,,,,,,shore,57,38,silent,white,2277.414684499963,None,None,2277.414684499963,None,,,,,,,,,,,,,,,,,,,,,,,,,,,,,,88YD,001,2023_Aug_30_1723,ExactRep-v3-final,2021.2.3,59.6307900076681,
,,,,,,,,38,0,38,0,,,,,,,,,,,,,,,,,,,,,,,,,,,,,,,,,,,,,,,,,,,,,,,,,,,,,2281.93241810007,None,,,,,,,,,,,,,,,,,,,,,,,,,,,,,,,,,,,door,41,39,silent,white,2279.9299927999964,None,None,2279.9299927999964,None,,,,,,,,,,,,,,,,,,,,,,,,,,,,,,88YD,001,2023_Aug_30_1723,ExactRep-v3-final,2021.2.3,59.6307900076681,
,,,,,,,,39,0,39,0,,,,,,,,,,,,,,,,,,,,,,,,,,,,,,,,,,,,,,,,,,,,,,,,,,,,,2284.434238899965,None,,,,,,,,,,,,,,,,,,,,,,,,,,,,,,,,,,,fun,81,40,aloud,blue,2282.4325748999836,None,None,2282.4325748999836,None,,,,,,,,,,,,,,,,,,,,,,,,,,,,,,88YD,001,2023_Aug_30_1723,ExactRep-v3-final,2021.2.3,59.6307900076681,
,,,,,,,,40,0,40,0,,,,,,,,,,,,,,,,,,,,,,,,,,,,,,,,,,,,,,,,,,,,,,,,,,,,,2286.937130599981,None,,,,,,,,,,,,,,,,,,,,,,,,,,,,,,,,,,,insect,11,41,sing,red,2284.9361486000707,None,None,2284.9361486000707,None,,,,,,,,,,,,,,,,,,,,,,,,,,,,,,88YD,001,2023_Aug_30_1723,ExactRep-v3-final,2021.2.3,59.6307900076681,
,,,,,,,,41,0,41,0,,,,,,,,,,,,,,,,,,,,,,,,,,,,,,,,,,,,,,,,,,,,,,,,,,,,,2289.439450300066,None,,,,,,,,,,,,,,,,,,,,,,,,,,,,,,,,,,,fire,48,42,silent,white,2287.4403315000236,None,None,2287.4403315000236,None,,,,,,,,,,,,,,,,,,,,,,,,,,,,,,88YD,001,2023_Aug_30_1723,ExactRep-v3-final,2021.2.3,59.6307900076681,
,,,,,,,,42,0,42,0,,,,,,,,,,,,,,,,,,,,,,,,,,,,,,,,,,,,,,,,,,,,,,,,,,,,,2291.941833100049,None,,,,,,,,,,,,,,,,,,,,,,,,,,,,,,,,,,,blossom,62,43,silent,white,2289.941850400064,None,None,2289.941850400064,None,,,,,,,,,,,,,,,,,,,,,,,,,,,,,,88YD,001,2023_Aug_30_1723,ExactRep-v3-final,2021.2.3,59.6307900076681,
,,,,,,,,43,0,43,0,,,,,,,,,,,,,,,,,,,,,,,,,,,,,,,,,,,,,,,,,,,,,,,,,,,,,2294.4444853999885,None,,,,,,,,,,,,,,,,,,,,,,,,,,,,,,,,,,,series,96,44,aloud,blue,2292.4444635000546,None,None,2292.4444635000546,None,,,,,,,,,,,,,,,,,,,,,,,,,,,,,,88YD,001,2023_Aug_30_1723,ExactRep-v3-final,2021.2.3,59.6307900076681,
,,,,,,,,44,0,44,0,,,,,,,,,,,,,,,,,,,,,,,,,,,,,,,,,,,,,,,,,,,,,,,,,,,,,2296.947289200034,None,,,,,,,,,,,,,,,,,,,,,,,,,,,,,,,,,,,safety,110,45,aloud,blue,2294.9451532000676,None,None,2294.9451532000676,None,,,,,,,,,,,,,,,,,,,,,,,,,,,,,,88YD,001,2023_Aug_30_1723,ExactRep-v3-final,2021.2.3,59.6307900076681,
,,,,,,,,45,0,45,0,,,,,,,,,,,,,,,,,,,,,,,,,,,,,,,,,,,,,,,,,,,,,,,,,,,,,2299.4492960000644,None,,,,,,,,,,,,,,,,,,,,,,,,,,,,,,,,,,,speech,94,46,aloud,blue,2297.448855799972,None,None,2297.448855799972,None,,,,,,,,,,,,,,,,,,,,,,,,,,,,,,88YD,001,2023_Aug_30_1723,ExactRep-v3-final,2021.2.3,59.6307900076681,
,,,,,,,,46,0,46,0,,,,,,,,,,,,,,,,,,,,,,,,,,,,,,,,,,,,,,,,,,,,,,,,,,,,,2301.953029999975,None,,,,,,,,,,,,,,,,,,,,,,,,,,,,,,,,,,,child,83,47,aloud,blue,2299.951480500051,None,None,2299.951480500051,None,,,,,,,,,,,,,,,,,,,,,,,,,,,,,,88YD,001,2023_Aug_30_1723,ExactRep-v3-final,2021.2.3,59.6307900076681,
,,,,,,,,47,0,47,0,,,,,,,,,,,,,,,,,,,,,,,,,,,,,,,,,,,,,,,,,,,,,,,,,,,,,2304.458090399974,None,,,,,,,,,,,,,,,,,,,,,,,,,,,,,,,,,,,book,14,48,sing,red,2302.453214499983,None,None,2302.453214499983,None,,,,,,,,,,,,,,,,,,,,,,,,,,,,,,88YD,001,2023_Aug_30_1723,ExactRep-v3-final,2021.2.3,59.6307900076681,
,,,,,,,,48,0,48,0,,,,,,,,,,,,,,,,,,,,,,,,,,,,,,,,,,,,,,,,,,,,,,,,,,,,,2306.9735527000157,None,,,,,,,,,,,,,,,,,,,,,,,,,,,,,,,,,,,product,26,49,sing,red,2304.973961699987,None,None,2304.973961699987,None,,,,,,,,,,,,,,,,,,,,,,,,,,,,,,88YD,001,2023_Aug_30_1723,ExactRep-v3-final,2021.2.3,59.6307900076681,
,,,,,,,,49,0,49,0,,,,,,,,,,,,,,,,,,,,,,,,,,,,,,,,,,,,,,,,,,,,,,,,,,,,,2309.476055099978,None,,,,,,,,,,,,,,,,,,,,,,,,,,,,,,,,,,,murder,116,50,aloud,blue,2307.4741193000227,None,None,2307.4741193000227,None,,,,,,,,,,,,,,,,,,,,,,,,,,,,,,88YD,001,2023_Aug_30_1723,ExactRep-v3-final,2021.2.3,59.6307900076681,
,,,,,,,,50,0,50,0,,,,,,,,,,,,,,,,,,,,,,,,,,,,,,,,,,,,,,,,,,,,,,,,,,,,,2311.995741300052,None,,,,,,,,,,,,,,,,,,,,,,,,,,,,,,,,,,,avenue,76,51,silent,white,2309.9799853999866,None,None,2309.9799853999866,None,,,,,,,,,,,,,,,,,,,,,,,,,,,,,,88YD,001,2023_Aug_30_1723,ExactRep-v3-final,2021.2.3,59.6307900076681,
,,,,,,,,51,0,51,0,,,,,,,,,,,,,,,,,,,,,,,,,,,,,,,,,,,,,,,,,,,,,,,,,,,,,2314.5144770999905,None,,,,,,,,,,,,,,,,,,,,,,,,,,,,,,,,,,,freedom,67,52,silent,white,2312.5123771000654,None,None,2312.5123771000654,None,,,,,,,,,,,,,,,,,,,,,,,,,,,,,,88YD,001,2023_Aug_30_1723,ExactRep-v3-final,2021.2.3,59.6307900076681,
,,,,,,,,52,0,52,0,,,,,,,,,,,,,,,,,,,,,,,,,,,,,,,,,,,,,,,,,,,,,,,,,,,,,2317.033451800002,None,,,,,,,,,,,,,,,,,,,,,,,,,,,,,,,,,,,college,6,53,sing,red,2315.0268447999842,None,None,2315.0268447999842,None,,,,,,,,,,,,,,,,,,,,,,,,,,,,,,88YD,001,2023_Aug_30_1723,ExactRep-v3-final,2021.2.3,59.6307900076681,
,,,,,,,,53,0,53,0,,,,,,,,,,,,,,,,,,,,,,,,,,,,,,,,,,,,,,,,,,,,,,,,,,,,,2319.5529005000135,None,,,,,,,,,,,,,,,,,,,,,,,,,,,,,,,,,,,metal,87,54,aloud,blue,2317.5503135999897,None,None,2317.5503135999897,None,,,,,,,,,,,,,,,,,,,,,,,,,,,,,,88YD,001,2023_Aug_30_1723,ExactRep-v3-final,2021.2.3,59.6307900076681,
,,,,,,,,54,0,54,0,,,,,,,,,,,,,,,,,,,,,,,,,,,,,,,,,,,,,,,,,,,,,,,,,,,,,2322.0554114000406,None,,,,,,,,,,,,,,,,,,,,,,,,,,,,,,,,,,,colony,27,55,sing,red,2320.0534318999853,None,None,2320.0534318999853,None,,,,,,,,,,,,,,,,,,,,,,,,,,,,,,88YD,001,2023_Aug_30_1723,ExactRep-v3-final,2021.2.3,59.6307900076681,
,,,,,,,,55,0,55,0,,,,,,,,,,,,,,,,,,,,,,,,,,,,,,,,,,,,,,,,,,,,,,,,,,,,,2324.558000699966,None,,,,,,,,,,,,,,,,,,,,,,,,,,,,,,,,,,,glory,54,56,silent,white,2322.558142199996,None,None,2322.558142199996,None,,,,,,,,,,,,,,,,,,,,,,,,,,,,,,88YD,001,2023_Aug_30_1723,ExactRep-v3-final,2021.2.3,59.6307900076681,
,,,,,,,,56,0,56,0,,,,,,,,,,,,,,,,,,,,,,,,,,,,,,,,,,,,,,,,,,,,,,,,,,,,,2327.0605286000064,None,,,,,,,,,,,,,,,,,,,,,,,,,,,,,,,,,,,letter,95,57,aloud,blue,2325.0586982000386,None,None,2325.0586982000386,None,,,,,,,,,,,,,,,,,,,,,,,,,,,,,,88YD,001,2023_Aug_30_1723,ExactRep-v3-final,2021.2.3,59.6307900076681,
,,,,,,,,57,0,57,0,,,,,,,,,,,,,,,,,,,,,,,,,,,,,,,,,,,,,,,,,,,,,,,,,,,,,2329.5630613999674,None,,,,,,,,,,,,,,,,,,,,,,,,,,,,,,,,,,,trouble,71,58,silent,white,2327.5614559999667,None,None,2327.5614559999667,None,,,,,,,,,,,,,,,,,,,,,,,,,,,,,,88YD,001,2023_Aug_30_1723,ExactRep-v3-final,2021.2.3,59.6307900076681,
,,,,,,,,58,0,58,0,,,,,,,,,,,,,,,,,,,,,,,,,,,,,,,,,,,,,,,,,,,,,,,,,,,,,2332.065101300017,None,,,,,,,,,,,,,,,,,,,,,,,,,,,,,,,,,,,thought,15,59,sing,red,2330.063783699996,None,None,2330.063783699996,None,,,,,,,,,,,,,,,,,,,,,,,,,,,,,,88YD,001,2023_Aug_30_1723,ExactRep-v3-final,2021.2.3,59.6307900076681,
,,,,,,,,59,0,59,0,,,,,,,,,,,,,,,,,,,,,,,,,,,,,,,,,,,,,,,,,,,,,,,,,,,,,2334.568979899981,None,,,,,,,,,,,,,,,,,,,,,,,,,,,,,,,,,,,grief,25,60,sing,red,2332.5668388999766,None,None,2332.5668388999766,None,,,,,,,,,,,,,,,,,,,,,,,,,,,,,,88YD,001,2023_Aug_30_1723,ExactRep-v3-final,2021.2.3,59.6307900076681,
,,,,,,,,60,0,60,0,,,,,,,,,,,,,,,,,,,,,,,,,,,,,,,,,,,,,,,,,,,,,,,,,,,,,2337.0736105999677,None,,,,,,,,,,,,,,,,,,,,,,,,,,,,,,,,,,,arm,0,61,sing,red,2335.0691684000194,None,None,2335.0691684000194,None,,,,,,,,,,,,,,,,,,,,,,,,,,,,,,88YD,001,2023_Aug_30_1723,ExactRep-v3-final,2021.2.3,59.6307900076681,
,,,,,,,,61,0,61,0,,,,,,,,,,,,,,,,,,,,,,,,,,,,,,,,,,,,,,,,,,,,,,,,,,,,,2339.591918500024,None,,,,,,,,,,,,,,,,,,,,,,,,,,,,,,,,,,,tool,102,62,aloud,blue,2337.587305400055,None,None,2337.587305400055,None,,,,,,,,,,,,,,,,,,,,,,,,,,,,,,88YD,001,2023_Aug_30_1723,ExactRep-v3-final,2021.2.3,59.6307900076681,
,,,,,,,,62,0,62,0,,,,,,,,,,,,,,,,,,,,,,,,,,,,,,,,,,,,,,,,,,,,,,,,,,,,,2342.10864770005,None,,,,,,,,,,,,,,,,,,,,,,,,,,,,,,,,,,,blood,60,63,silent,white,2340.107060200069,None,None,2340.107060200069,None,,,,,,,,,,,,,,,,,,,,,,,,,,,,,,88YD,001,2023_Aug_30_1723,ExactRep-v3-final,2021.2.3,59.6307900076681,
,,,,,,,,63,0,63,0,,,,,,,,,,,,,,,,,,,,,,,,,,,,,,,,,,,,,,,,,,,,,,,,,,,,,2344.6114660999738,None,,,,,,,,,,,,,,,,,,,,,,,,,,,,,,,,,,,spirit,113,64,aloud,blue,2342.6111120000714,None,None,2342.6111120000714,None,,,,,,,,,,,,,,,,,,,,,,,,,,,,,,88YD,001,2023_Aug_30_1723,ExactRep-v3-final,2021.2.3,59.6307900076681,
,,,,,,,,64,0,64,0,,,,,,,,,,,,,,,,,,,,,,,,,,,,,,,,,,,,,,,,,,,,,,,,,,,,,2347.1306327000493,None,,,,,,,,,,,,,,,,,,,,,,,,,,,,,,,,,,,steam,9,65,sing,red,2345.128650699975,None,None,2345.128650699975,None,,,,,,,,,,,,,,,,,,,,,,,,,,,,,,88YD,001,2023_Aug_30_1723,ExactRep-v3-final,2021.2.3,59.6307900076681,
,,,,,,,,65,0,65,0,,,,,,,,,,,,,,,,,,,,,,,,,,,,,,,,,,,,,,,,,,,,,,,,,,,,,2349.649578700075,None,,,,,,,,,,,,,,,,,,,,,,,,,,,,,,,,,,,deed,104,66,aloud,blue,2347.63549590006,None,None,2347.63549590006,None,,,,,,,,,,,,,,,,,,,,,,,,,,,,,,88YD,001,2023_Aug_30_1723,ExactRep-v3-final,2021.2.3,59.6307900076681,
,,,,,,,,66,0,66,0,,,,,,,,,,,,,,,,,,,,,,,,,,,,,,,,,,,,,,,,,,,,,,,,,,,,,2352.152512000059,None,,,,,,,,,,,,,,,,,,,,,,,,,,,,,,,,,,,boy,75,67,silent,white,2350.150449100067,None,None,2350.150449100067,None,,,,,,,,,,,,,,,,,,,,,,,,,,,,,,88YD,001,2023_Aug_30_1723,ExactRep-v3-final,2021.2.3,59.6307900076681,
,,,,,,,,67,0,67,0,,,,,,,,,,,,,,,,,,,,,,,,,,,,,,,,,,,,,,,,,,,,,,,,,,,,,2354.654447500012,None,,,,,,,,,,,,,,,,,,,,,,,,,,,,,,,,,,,duty,119,68,aloud,blue,2352.6530152000487,None,None,2352.6530152000487,None,,,,,,,,,,,,,,,,,,,,,,,,,,,,,,88YD,001,2023_Aug_30_1723,ExactRep-v3-final,2021.2.3,59.6307900076681,
,,,,,,,,68,0,68,0,,,,,,,,,,,,,,,,,,,,,,,,,,,,,,,,,,,,,,,,,,,,,,,,,,,,,2357.156638100045,None,,,,,,,,,,,,,,,,,,,,,,,,,,,,,,,,,,,shadow,111,69,aloud,blue,2355.1547155000735,None,None,2355.1547155000735,None,,,,,,,,,,,,,,,,,,,,,,,,,,,,,,88YD,001,2023_Aug_30_1723,ExactRep-v3-final,2021.2.3,59.6307900076681,
,,,,,,,,69,0,69,0,,,,,,,,,,,,,,,,,,,,,,,,,,,,,,,,,,,,,,,,,,,,,,,,,,,,,2359.6821607999736,None,,,,,,,,,,,,,,,,,,,,,,,,,,,,,,,,,,,custom,17,70,sing,red,2357.674929599976,None,None,2357.674929599976,None,,,,,,,,,,,,,,,,,,,,,,,,,,,,,,88YD,001,2023_Aug_30_1723,ExactRep-v3-final,2021.2.3,59.6307900076681,
,,,,,,,,70,0,70,0,,,,,,,,,,,,,,,,,,,,,,,,,,,,,,,,,,,,,,,,,,,,,,,,,,,,,2362.1790772000095,None,,,,,,,,,,,,,,,,,,,,,,,,,,,,,,,,,,,stone,5,71,sing,red,2360.176898600068,None,None,2360.176898600068,None,,,,,,,,,,,,,,,,,,,,,,,,,,,,,,88YD,001,2023_Aug_30_1723,ExactRep-v3-final,2021.2.3,59.6307900076681,
,,,,,,,,71,0,71,0,,,,,,,,,,,,,,,,,,,,,,,,,,,,,,,,,,,,,,,,,,,,,,,,,,,,,2364.6812790000113,None,,,,,,,,,,,,,,,,,,,,,,,,,,,,,,,,,,,time,24,72,sing,red,2362.679609999992,None,None,2362.679609999992,None,,,,,,,,,,,,,,,,,,,,,,,,,,,,,,88YD,001,2023_Aug_30_1723,ExactRep-v3-final,2021.2.3,59.6307900076681,
,,,,,,,,72,0,72,0,,,,,,,,,,,,,,,,,,,,,,,,,,,,,,,,,,,,,,,,,,,,,,,,,,,,,2367.183972000028,None,,,,,,,,,,,,,,,,,,,,,,,,,,,,,,,,,,,meat,107,73,aloud,blue,2365.1819192999974,None,None,2365.1819192999974,None,,,,,,,,,,,,,,,,,,,,,,,,,,,,,,88YD,001,2023_Aug_30_1723,ExactRep-v3-final,2021.2.3,59.6307900076681,
,,,,,,,,73,0,73,0,,,,,,,,,,,,,,,,,,,,,,,,,,,,,,,,,,,,,,,,,,,,,,,,,,,,,2369.6862937000114,None,,,,,,,,,,,,,,,,,,,,,,,,,,,,,,,,,,,party,29,74,sing,red,2367.685258500045,None,None,2367.685258500045,None,,,,,,,,,,,,,,,,,,,,,,,,,,,,,,88YD,001,2023_Aug_30_1723,ExactRep-v3-final,2021.2.3,59.6307900076681,
,,,,,,,,74,0,74,0,,,,,,,,,,,,,,,,,,,,,,,,,,,,,,,,,,,,,,,,,,,,,,,,,,,,,2372.205580800073,None,,,,,,,,,,,,,,,,,,,,,,,,,,,,,,,,,,,excuse,65,75,silent,white,2370.1901151000056,None,None,2370.1901151000056,None,,,,,,,,,,,,,,,,,,,,,,,,,,,,,,88YD,001,2023_Aug_30_1723,ExactRep-v3-final,2021.2.3,59.6307900076681,
,,,,,,,,75,0,75,0,,,,,,,,,,,,,,,,,,,,,,,,,,,,,,,,,,,,,,,,,,,,,,,,,,,,,2374.7077726999996,None,,,,,,,,,,,,,,,,,,,,,,,,,,,,,,,,,,,corner,72,76,silent,white,2372.705945700058,None,None,2372.705945700058,None,,,,,,,,,,,,,,,,,,,,,,,,,,,,,,88YD,001,2023_Aug_30_1723,ExactRep-v3-final,2021.2.3,59.6307900076681,
,,,,,,,,76,0,76,0,,,,,,,,,,,,,,,,,,,,,,,,,,,,,,,,,,,,,,,,,,,,,,,,,,,,,2377.210504500079,None,,,,,,,,,,,,,,,,,,,,,,,,,,,,,,,,,,,bottle,21,77,sing,red,2375.2092522999737,None,None,2375.2092522999737,None,,,,,,,,,,,,,,,,,,,,,,,,,,,,,,88YD,001,2023_Aug_30_1723,ExactRep-v3-final,2021.2.3,59.6307900076681,
,,,,,,,,77,0,77,0,,,,,,,,,,,,,,,,,,,,,,,,,,,,,,,,,,,,,,,,,,,,,,,,,,,,,2379.729661200079,None,,,,,,,,,,,,,,,,,,,,,,,,,,,,,,,,,,,skin,31,78,sing,red,2377.7260674000718,None,None,2377.7260674000718,None,,,,,,,,,,,,,,,,,,,,,,,,,,,,,,88YD,001,2023_Aug_30_1723,ExactRep-v3-final,2021.2.3,59.6307900076681,
,,,,,,,,78,0,78,0,,,,,,,,,,,,,,,,,,,,,,,,,,,,,,,,,,,,,,,,,,,,,,,,,,,,,2382.232038200018,None,,,,,,,,,,,,,,,,,,,,,,,,,,,,,,,,,,,month,56,79,silent,white,2380.2315200000303,None,None,2380.2315200000303,None,,,,,,,,,,,,,,,,,,,,,,,,,,,,,,88YD,001,2023_Aug_30_1723,ExactRep-v3-final,2021.2.3,59.6307900076681,
,,,,,,,,79,0,79,0,,,,,,,,,,,,,,,,,,,,,,,,,,,,,,,,,,,,,,,,,,,,,,,,,,,,,2384.7515976000577,None,,,,,,,,,,,,,,,,,,,,,,,,,,,,,,,,,,,soul,61,80,silent,white,2382.7378757999977,None,None,2382.7378757999977,None,,,,,,,,,,,,,,,,,,,,,,,,,,,,,,88YD,001,2023_Aug_30_1723,ExactRep-v3-final,2021.2.3,59.6307900076681,
,,,,,,,,80,0,80,0,,,,,,,,,,,,,,,,,,,,,,,,,,,,,,,,,,,,,,,,,,,,,,,,,,,,,2387.270409699995,None,,,,,,,,,,,,,,,,,,,,,,,,,,,,,,,,,,,winter,30,81,sing,red,2385.256307600066,None,None,2385.256307600066,None,,,,,,,,,,,,,,,,,,,,,,,,,,,,,,88YD,001,2023_Aug_30_1723,ExactRep-v3-final,2021.2.3,59.6307900076681,
,,,,,,,,81,0,81,0,,,,,,,,,,,,,,,,,,,,,,,,,,,,,,,,,,,,,,,,,,,,,,,,,,,,,2389.7900220999727,None,,,,,,,,,,,,,,,,,,,,,,,,,,,,,,,,,,,gold,36,82,sing,red,2387.781071400037,None,None,2387.781071400037,None,,,,,,,,,,,,,,,,,,,,,,,,,,,,,,88YD,001,2023_Aug_30_1723,ExactRep-v3-final,2021.2.3,59.6307900076681,
,,,,,,,,82,0,82,0,,,,,,,,,,,,,,,,,,,,,,,,,,,,,,,,,,,,,,,,,,,,,,,,,,,,,2392.2919174999697,None,,,,,,,,,,,,,,,,,,,,,,,,,,,,,,,,,,,hour,105,83,aloud,blue,2390.2910791999893,None,None,2390.2910791999893,None,,,,,,,,,,,,,,,,,,,,,,,,,,,,,,88YD,001,2023_Aug_30_1723,ExactRep-v3-final,2021.2.3,59.6307900076681,
,,,,,,,,83,0,83,0,,,,,,,,,,,,,,,,,,,,,,,,,,,,,,,,,,,,,,,,,,,,,,,,,,,,,2394.8111776000587,None,,,,,,,,,,,,,,,,,,,,,,,,,,,,,,,,,,,victory,118,84,aloud,blue,2392.800301500014,None,None,2392.800301500014,None,,,,,,,,,,,,,,,,,,,,,,,,,,,,,,88YD,001,2023_Aug_30_1723,ExactRep-v3-final,2021.2.3,59.6307900076681,
,,,,,,,,84,0,84,0,,,,,,,,,,,,,,,,,,,,,,,,,,,,,,,,,,,,,,,,,,,,,,,,,,,,,2397.3138617000077,None,,,,,,,,,,,,,,,,,,,,,,,,,,,,,,,,,,,cottage,3,85,sing,red,2395.3132193000056,None,None,2395.3132193000056,None,,,,,,,,,,,,,,,,,,,,,,,,,,,,,,88YD,001,2023_Aug_30_1723,ExactRep-v3-final,2021.2.3,59.6307900076681,
,,,,,,,,85,0,85,0,,,,,,,,,,,,,,,,,,,,,,,,,,,,,,,,,,,,,,,,,,,,,,,,,,,,,2399.8328460999765,None,,,,,,,,,,,,,,,,,,,,,,,,,,,,,,,,,,,board,58,86,silent,white,2397.8295472000027,None,None,2397.8295472000027,None,,,,,,,,,,,,,,,,,,,,,,,,,,,,,,88YD,001,2023_Aug_30_1723,ExactRep-v3-final,2021.2.3,59.6307900076681,
,,,,,,,,86,0,86,0,,,,,,,,,,,,,,,,,,,,,,,,,,,,,,,,,,,,,,,,,,,,,,,,,,,,,2402.3523942000465,None,,,,,,,,,,,,,,,,,,,,,,,,,,,,,,,,,,,silence,89,87,aloud,blue,2400.344253999996,None,None,2400.344253999996,None,,,,,,,,,,,,,,,,,,,,,,,,,,,,,,88YD,001,2023_Aug_30_1723,ExactRep-v3-final,2021.2.3,59.6307900076681,
,,,,,,,,87,0,87,0,,,,,,,,,,,,,,,,,,,,,,,,,,,,,,,,,,,,,,,,,,,,,,,,,,,,,2404.8574885000708,None,,,,,,,,,,,,,,,,,,,,,,,,,,,,,,,,,,,theory,90,88,aloud,blue,2402.852576700039,None,None,2402.852576700039,None,,,,,,,,,,,,,,,,,,,,,,,,,,,,,,88YD,001,2023_Aug_30_1723,ExactRep-v3-final,2021.2.3,59.6307900076681,
,,,,,,,,88,0,88,0,,,,,,,,,,,,,,,,,,,,,,,,,,,,,,,,,,,,,,,,,,,,,,,,,,,,,2407.3772751999786,None,,,,,,,,,,,,,,,,,,,,,,,,,,,,,,,,,,,picture,47,89,silent,white,2405.3719077999704,None,None,2405.3719077999704,None,,,,,,,,,,,,,,,,,,,,,,,,,,,,,,88YD,001,2023_Aug_30_1723,ExactRep-v3-final,2021.2.3,59.6307900076681,
,,,,,,,,89,0,89,0,,,,,,,,,,,,,,,,,,,,,,,,,,,,,,,,,,,,,,,,,,,,,,,,,,,,,2409.893566700048,None,,,,,,,,,,,,,,,,,,,,,,,,,,,,,,,,,,,queen,117,90,aloud,blue,2407.892808499979,None,None,2407.892808499979,None,,,,,,,,,,,,,,,,,,,,,,,,,,,,,,88YD,001,2023_Aug_30_1723,ExactRep-v3-final,2021.2.3,59.6307900076681,
,,,,,,,,90,0,90,0,,,,,,,,,,,,,,,,,,,,,,,,,,,,,,,,,,,,,,,,,,,,,,,,,,,,,2412.4016456999816,None,,,,,,,,,,,,,,,,,,,,,,,,,,,,,,,,,,,window,63,91,silent,white,2410.395463200053,None,None,2410.395463200053,None,,,,,,,,,,,,,,,,,,,,,,,,,,,,,,88YD,001,2023_Aug_30_1723,ExactRep-v3-final,2021.2.3,59.6307900076681,
,,,,,,,,91,0,91,0,,,,,,,,,,,,,,,,,,,,,,,,,,,,,,,,,,,,,,,,,,,,,,,,,,,,,2414.9146101999795,None,,,,,,,,,,,,,,,,,,,,,,,,,,,,,,,,,,,valley,115,92,aloud,blue,2412.912654899992,None,None,2412.912654899992,None,,,,,,,,,,,,,,,,,,,,,,,,,,,,,,88YD,001,2023_Aug_30_1723,ExactRep-v3-final,2021.2.3,59.6307900076681,
,,,,,,,,92,0,92,0,,,,,,,,,,,,,,,,,,,,,,,,,,,,,,,,,,,,,,,,,,,,,,,,,,,,,2417.4329544999637,None,,,,,,,,,,,,,,,,,,,,,,,,,,,,,,,,,,,mercy,10,93,sing,red,2415.4163334000623,None,None,2415.4163334000623,None,,,,,,,,,,,,,,,,,,,,,,,,,,,,,,88YD,001,2023_Aug_30_1723,ExactRep-v3-final,2021.2.3,59.6307900076681,
,,,,,,,,93,0,93,0,,,,,,,,,,,,,,,,,,,,,,,,,,,,,,,,,,,,,,,,,,,,,,,,,,,,,2419.9363835999975,None,,,,,,,,,,,,,,,,,,,,,,,,,,,,,,,,,,,shock,35,94,sing,red,2417.934918200015,None,None,2417.934918200015,None,,,,,,,,,,,,,,,,,,,,,,,,,,,,,,88YD,001,2023_Aug_30_1723,ExactRep-v3-final,2021.2.3,59.6307900076681,
,,,,,,,,94,0,94,0,,,,,,,,,,,,,,,,,,,,,,,,,,,,,,,,,,,,,,,,,,,,,,,,,,,,,2422.4554639999988,None,,,,,,,,,,,,,,,,,,,,,,,,,,,,,,,,,,,prison,18,95,sing,red,2420.44146500004,None,None,2420.44146500004,None,,,,,,,,,,,,,,,,,,,,,,,,,,,,,,88YD,001,2023_Aug_30_1723,ExactRep-v3-final,2021.2.3,59.6307900076681,
,,,,,,,,95,0,95,0,,,,,,,,,,,,,,,,,,,,,,,,,,,,,,,,,,,,,,,,,,,,,,,,,,,,,2424.9580002999865,None,,,,,,,,,,,,,,,,,,,,,,,,,,,,,,,,,,,power,79,96,sing,red,2422.9561129000504,None,None,2422.9561129000504,None,,,,,,,,,,,,,,,,,,,,,,,,,,,,,,88YD,001,2023_Aug_30_1723,ExactRep-v3-final,2021.2.3,59.6307900076681,
,,,,,,,,96,0,96,0,,,,,,,,,,,,,,,,,,,,,,,,,,,,,,,,,,,,,,,,,,,,,,,,,,,,,2427.4609990000026,None,,,,,,,,,,,,,,,,,,,,,,,,,,,,,,,,,,,fact,64,97,silent,white,2425.459477800061,None,None,2425.459477800061,None,,,,,,,,,,,,,,,,,,,,,,,,,,,,,,88YD,001,2023_Aug_30_1723,ExactRep-v3-final,2021.2.3,59.6307900076681,
,,,,,,,,97,0,97,0,,,,,,,,,,,,,,,,,,,,,,,,,,,,,,,,,,,,,,,,,,,,,,,,,,,,,2429.9796223000158,None,,,,,,,,,,,,,,,,,,,,,,,,,,,,,,,,,,,memory,45,98,silent,white,2427.9667771999957,None,None,2427.9667771999957,None,,,,,,,,,,,,,,,,,,,,,,,,,,,,,,88YD,001,2023_Aug_30_1723,ExactRep-v3-final,2021.2.3,59.6307900076681,
,,,,,,,,98,0,98,0,,,,,,,,,,,,,,,,,,,,,,,,,,,,,,,,,,,,,,,,,,,,,,,,,,,,,2432.498999600066,None,,,,,,,,,,,,,,,,,,,,,,,,,,,,,,,,,,,form,114,99,aloud,blue,2430.4834344000556,None,None,2430.4834344000556,None,,,,,,,,,,,,,,,,,,,,,,,,,,,,,,88YD,001,2023_Aug_30_1723,ExactRep-v3-final,2021.2.3,59.6307900076681,
,,,,,,,,99,0,99,0,,,,,,,,,,,,,,,,,,,,,,,,,,,,,,,,,,,,,,,,,,,,,,,,,,,,,2435.001370300073,None,,,,,,,,,,,,,,,,,,,,,,,,,,,,,,,,,,,seat,2,100,sing,red,2433.001548900036,None,None,2433.001548900036,None,,,,,,,,,,,,,,,,,,,,,,,,,,,,,,88YD,001,2023_Aug_30_1723,ExactRep-v3-final,2021.2.3,59.6307900076681,
,,,,,,,,100,0,100,0,,,,,,,,,,,,,,,,,,,,,,,,,,,,,,,,,,,,,,,,,,,,,,,,,,,,,2437.5041850999696,None,,,,,,,,,,,,,,,,,,,,,,,,,,,,,,,,,,,storm,32,101,sing,red,2435.5043639000505,None,None,2435.5043639000505,None,,,,,,,,,,,,,,,,,,,,,,,,,,,,,,88YD,001,2023_Aug_30_1723,ExactRep-v3-final,2021.2.3,59.6307900076681,
,,,,,,,,101,0,101,0,,,,,,,,,,,,,,,,,,,,,,,,,,,,,,,,,,,,,,,,,,,,,,,,,,,,,2440.006053099991,None,,,,,,,,,,,,,,,,,,,,,,,,,,,,,,,,,,,cat,8,102,sing,red,2438.004810100072,None,None,2438.004810100072,None,,,,,,,,,,,,,,,,,,,,,,,,,,,,,,88YD,001,2023_Aug_30_1723,ExactRep-v3-final,2021.2.3,59.6307900076681,
,,,,,,,,102,0,102,0,,,,,,,,,,,,,,,,,,,,,,,,,,,,,,,,,,,,,,,,,,,,,,,,,,,,,2442.531182200066,None,,,,,,,,,,,,,,,,,,,,,,,,,,,,,,,,,,,moral,91,103,aloud,blue,2440.52817090007,None,None,2440.52817090007,None,,,,,,,,,,,,,,,,,,,,,,,,,,,,,,88YD,001,2023_Aug_30_1723,ExactRep-v3-final,2021.2.3,59.6307900076681,
,,,,,,,,103,0,103,0,,,,,,,,,,,,,,,,,,,,,,,,,,,,,,,,,,,,,,,,,,,,,,,,,,,,,2445.0450095999986,None,,,,,,,,,,,,,,,,,,,,,,,,,,,,,,,,,,,woods,51,104,silent,white,2443.031265700003,None,None,2443.031265700003,None,,,,,,,,,,,,,,,,,,,,,,,,,,,,,,88YD,001,2023_Aug_30_1723,ExactRep-v3-final,2021.2.3,59.6307900076681,
,,,,,,,,104,0,104,0,,,,,,,,,,,,,,,,,,,,,,,,,,,,,,,,,,,,,,,,,,,,,,,,,,,,,2447.5474828999722,None,,,,,,,,,,,,,,,,,,,,,,,,,,,,,,,,,,,answer,73,105,silent,white,2445.5451702000573,None,None,2445.5451702000573,None,,,,,,,,,,,,,,,,,,,,,,,,,,,,,,88YD,001,2023_Aug_30_1723,ExactRep-v3-final,2021.2.3,59.6307900076681,
,,,,,,,,105,0,105,0,,,,,,,,,,,,,,,,,,,,,,,,,,,,,,,,,,,,,,,,,,,,,,,,,,,,,2450.0665277000517,None,,,,,,,,,,,,,,,,,,,,,,,,,,,,,,,,,,,hotel,106,106,aloud,blue,2448.061203500023,None,None,2448.061203500023,None,,,,,,,,,,,,,,,,,,,,,,,,,,,,,,88YD,001,2023_Aug_30_1723,ExactRep-v3-final,2021.2.3,59.6307900076681,
,,,,,,,,106,0,106,0,,,,,,,,,,,,,,,,,,,,,,,,,,,,,,,,,,,,,,,,,,,,,,,,,,,,,2452.5705456000287,None,,,,,,,,,,,,,,,,,,,,,,,,,,,,,,,,,,,amount,46,107,silent,white,2450.5697702000616,None,None,2450.5697702000616,None,,,,,,,,,,,,,,,,,,,,,,,,,,,,,,88YD,001,2023_Aug_30_1723,ExactRep-v3-final,2021.2.3,59.6307900076681,
,,,,,,,,107,0,107,0,,,,,,,,,,,,,,,,,,,,,,,,,,,,,,,,,,,,,,,,,,,,,,,,,,,,,2455.0903130000224,None,,,,,,,,,,,,,,,,,,,,,,,,,,,,,,,,,,,butter,55,108,silent,white,2453.081994600012,None,None,2453.081994600012,None,,,,,,,,,,,,,,,,,,,,,,,,,,,,,,88YD,001,2023_Aug_30_1723,ExactRep-v3-final,2021.2.3,59.6307900076681,
,,,,,,,,108,0,108,0,,,,,,,,,,,,,,,,,,,,,,,,,,,,,,,,,,,,,,,,,,,,,,,,,,,,,2457.590451700031,None,,,,,,,,,,,,,,,,,,,,,,,,,,,,,,,,,,,ability,12,109,sing,red,2455.5887222000165,None,None,2455.5887222000165,None,,,,,,,,,,,,,,,,,,,,,,,,,,,,,,88YD,001,2023_Aug_30_1723,ExactRep-v3-final,2021.2.3,59.6307900076681,
,,,,,,,,109,0,109,0,,,,,,,,,,,,,,,,,,,,,,,,,,,,,,,,,,,,,,,,,,,,,,,,,,,,,2460.109848299995,None,,,,,,,,,,,,,,,,,,,,,,,,,,,,,,,,,,,coin,109,110,aloud,blue,2458.0952443999704,None,None,2458.0952443999704,None,,,,,,,,,,,,,,,,,,,,,,,,,,,,,,88YD,001,2023_Aug_30_1723,ExactRep-v3-final,2021.2.3,59.6307900076681,
,,,,,,,,110,0,110,0,,,,,,,,,,,,,,,,,,,,,,,,,,,,,,,,,,,,,,,,,,,,,,,,,,,,,2462.6124391000485,None,,,,,,,,,,,,,,,,,,,,,,,,,,,,,,,,,,,truth,66,111,silent,white,2460.610397499986,None,None,2460.610397499986,None,,,,,,,,,,,,,,,,,,,,,,,,,,,,,,88YD,001,2023_Aug_30_1723,ExactRep-v3-final,2021.2.3,59.6307900076681,
,,,,,,,,111,0,111,0,,,,,,,,,,,,,,,,,,,,,,,,,,,,,,,,,,,,,,,,,,,,,,,,,,,,,2465.114566800068,None,,,,,,,,,,,,,,,,,,,,,,,,,,,,,,,,,,,opinion,88,112,aloud,blue,2463.11405990005,None,None,2463.11405990005,None,,,,,,,,,,,,,,,,,,,,,,,,,,,,,,88YD,001,2023_Aug_30_1723,ExactRep-v3-final,2021.2.3,59.6307900076681,
,,,,,,,,112,0,112,0,,,,,,,,,,,,,,,,,,,,,,,,,,,,,,,,,,,,,,,,,,,,,,,,,,,,,2467.6174092000583,None,,,,,,,,,,,,,,,,,,,,,,,,,,,,,,,,,,,lad,101,113,aloud,blue,2465.616164200008,None,None,2465.616164200008,None,,,,,,,,,,,,,,,,,,,,,,,,,,,,,,88YD,001,2023_Aug_30_1723,ExactRep-v3-final,2021.2.3,59.6307900076681,
,,,,,,,,113,0,113,0,,,,,,,,,,,,,,,,,,,,,,,,,,,,,,,,,,,,,,,,,,,,,,,,,,,,,2470.119516100036,None,,,,,,,,,,,,,,,,,,,,,,,,,,,,,,,,,,,apple,59,114,silent,white,2468.118993900018,None,None,2468.118993900018,None,,,,,,,,,,,,,,,,,,,,,,,,,,,,,,88YD,001,2023_Aug_30_1723,ExactRep-v3-final,2021.2.3,59.6307900076681,
,,,,,,,,114,0,114,0,,,,,,,,,,,,,,,,,,,,,,,,,,,,,,,,,,,,,,,,,,,,,,,,,,,,,2472.622721599997,None,,,,,,,,,,,,,,,,,,,,,,,,,,,,,,,,,,,camp,22,115,sing,red,2470.622769800015,None,None,2470.622769800015,None,,,,,,,,,,,,,,,,,,,,,,,,,,,,,,88YD,001,2023_Aug_30_1723,ExactRep-v3-final,2021.2.3,59.6307900076681,
,,,,,,,,115,0,115,0,,,,,,,,,,,,,,,,,,,,,,,,,,,,,,,,,,,,,,,,,,,,,,,,,,,,,2475.12439370004,None,,,,,,,,,,,,,,,,,,,,,,,,,,,,,,,,,,,shoes,49,116,silent,white,2473.1233860000502,None,None,2473.1233860000502,None,,,,,,,,,,,,,,,,,,,,,,,,,,,,,,88YD,001,2023_Aug_30_1723,ExactRep-v3-final,2021.2.3,59.6307900076681,
,,,,,,,,116,0,116,0,,,,,,,,,,,,,,,,,,,,,,,,,,,,,,,,,,,,,,,,,,,,,,,,,,,,,2477.6274205000373,None,,,,,,,,,,,,,,,,,,,,,,,,,,,,,,,,,,,sugar,52,117,silent,white,2475.625497000059,None,None,2475.625497000059,None,,,,,,,,,,,,,,,,,,,,,,,,,,,,,,88YD,001,2023_Aug_30_1723,ExactRep-v3-final,2021.2.3,59.6307900076681,
,,,,,,,,117,0,117,0,,,,,,,,,,,,,,,,,,,,,,,,,,,,,,,,,,,,,,,,,,,,,,,,,,,,,2480.1299011000665,None,,,,,,,,,,,,,,,,,,,,,,,,,,,,,,,,,,,troops,69,118,silent,white,2478.128239499987,None,None,2478.128239499987,None,,,,,,,,,,,,,,,,,,,,,,,,,,,,,,88YD,001,2023_Aug_30_1723,ExactRep-v3-final,2021.2.3,59.6307900076681,
,,,,,,,,118,0,118,0,,,,,,,,,,,,,,,,,,,,,,,,,,,,,,,,,,,,,,,,,,,,,,,,,,,,,2482.633720300044,None,,,,,,,,,,,,,,,,,,,,,,,,,,,,,,,,,,,circle,77,119,silent,white,2480.6324099000776,None,None,2480.6324099000776,None,,,,,,,,,,,,,,,,,,,,,,,,,,,,,,88YD,001,2023_Aug_30_1723,ExactRep-v3-final,2021.2.3,59.6307900076681,
,,,,,,,,119,0,119,0,,,,,,,,,,,,,,,,,,,,,,,,,,,,,,,,,,,,,,,,,,,,,,,,,,,,,2485.1350554999663,None,,,,,,,,,,,,,,,,,,,,,,,,,,,,,,,,,,,flood,86,120,aloud,blue,2483.1346858000616,None,None,2483.1346858000616,None,,,,,,,,,,,,,,,,,,,,,,,,,,,,,,88YD,001,2023_Aug_30_1723,ExactRep-v3-final,2021.2.3,59.6307900076681,
,,,,,,,,,,,,,,,,,,,,,,,,,,,,,,,,,,,,,,,,,,,,,,,,,,,,,,,,,,,,,,,,,,,,,,,,,,,,,,,,,,,,,,,,,,,,,,,,,,,,,,,,,,,,,,2485.635127800051,None,space,4.218135200091638,2495.611945600016,None,,,,,,,,,,,,,,,,,,,,,,,,88YD,001,2023_Aug_30_1723,ExactRep-v3-final,2021.2.3,59.6307900076681,
,,,,,,,,,,,,,,,,,,,,,,,,,,,,,,,,,,,,,,,,,,,,,,,,,,,,,,,,,,,,,,,,,,,,,,,,,,,,,,,,,,,,,,,,,,,,,,,,,,,,,,,,,,,,,,,,,,,,2499.849500100012,None,space,29.33958930009976,2509.8264985000715,None,,,,,,,,,,,,,,,,,,88YD,001,2023_Aug_30_1723,ExactRep-v3-final,2021.2.3,59.6307900076681,
,,,,,,,,,,,,0,0,0,0,,,,,,,,,,,,,,,,,,,,,,,,,,,,,,,,,,,,,,,,,,,,,,,,,2544.362414299976,None,,,,,,,,,,,,,,,,,,,,,,,,,,,,,,,,,,,,,,,,,,,,,,,,,,,,,,,,,river,206,1,aloud,new,blue,2539.7125156000257,None,y,2539.7125156000257,None,"['y', 'return']","[3.2136004000203684, 4.605747999972664]",2539.7125156000257,None,,,88YD,001,2023_Aug_30_1723,ExactRep-v3-final,2021.2.3,59.6307900076681,
,,,,,,,,,,,,1,0,1,0,,,,,,,,,,,,,,,,,,,,,,,,,,,,,,,,,,,,,,,,,,,,,,,,,2553.3564404000062,None,,,,,,,,,,,,,,,,,,,,,,,,,,,,,,,,,,,,,,,,,,,,,,,,,,,,,,,,,camp,22,2,sing,old,red,2544.882314300048,None,y,2544.882314300048,None,"['y', 'return']","[7.803665899904445, 8.435887899948284]",2544.882314300048,None,,,88YD,001,2023_Aug_30_1723,ExactRep-v3-final,2021.2.3,59.6307900076681,
,,,,,,,,,,,,2,0,2,0,,,,,,,,,,,,,,,,,,,,,,,,,,,,,,,,,,,,,,,,,,,,,,,,,2555.188697400037,None,,,,,,,,,,,,,,,,,,,,,,,,,,,,,,,,,,,,,,,,,,,,,,,,,,,,,,,,,judge,165,3,sing,new,red,2553.876080200076,None,n,2553.876080200076,None,"['n', 'return']","[0.8660565000027418, 1.2740624999860302]",2553.876080200076,None,,,88YD,001,2023_Aug_30_1723,ExactRep-v3-final,2021.2.3,59.6307900076681,
,,,,,,,,,,,,3,0,3,0,,,,,,,,,,,,,,,,,,,,,,,,,,,,,,,,,,,,,,,,,,,,,,,,,2557.091421799967,None,,,,,,,,,,,,,,,,,,,,,,,,,,,,,,,,,,,,,,,,,,,,,,,,,,,,,,,,,virtue,186,4,aloud,new,blue,2555.6924458000576,None,n,2555.6924458000576,None,"['n', 'return']","[0.9138161999871954, 1.361950600054115]",2555.6924458000576,None,,,88YD,001,2023_Aug_30_1723,ExactRep-v3-final,2021.2.3,59.6307900076681,
,,,,,,,,,,,,4,0,4,0,,,,,,,,,,,,,,,,,,,,,,,,,,,,,,,,,,,,,,,,,,,,,,,,,2560.145110100042,None,,,,,,,,,,,,,,,,,,,,,,,,,,,,,,,,,,,,,,,,,,,,,,,,,,,,,,,,,mercy,10,5,sing,old,red,2557.5979654999683,None,y,2557.5979654999683,None,"['y', 'return']","[2.136214500060305, 2.512095700018108]",2557.5979654999683,None,,,88YD,001,2023_Aug_30_1723,ExactRep-v3-final,2021.2.3,59.6307900076681,
,,,,,,,,,,,,5,0,5,0,,,,,,,,,,,,,,,,,,,,,,,,,,,,,,,,,,,,,,,,,,,,,,,,,2562.929372500046,None,,,,,,,,,,,,,,,,,,,,,,,,,,,,,,,,,,,,,,,,,,,,,,,,,,,,,,,,,month,56,6,silent,old,white,2560.672423299984,None,y,2560.672423299984,None,"['y', 'return']","[1.9736984999617562, 2.221726799965836]",2560.672423299984,None,,,88YD,001,2023_Aug_30_1723,ExactRep-v3-final,2021.2.3,59.6307900076681,
,,,,,,,,,,,,6,0,6,0,,,,,,,,,,,,,,,,,,,,,,,,,,,,,,,,,,,,,,,,,,,,,,,,,2564.7494270000607,None,,,,,,,,,,,,,,,,,,,,,,,,,,,,,,,,,,,,,,,,,,,,,,,,,,,,,,,,,fire,48,7,silent,old,white,2563.4330512000015,None,n,2563.4330512000015,None,"['n', 'return']","[0.9172626999206841, 1.2690118999453261]",2563.4330512000015,None,,,88YD,001,2023_Aug_30_1723,ExactRep-v3-final,2021.2.3,59.6307900076681,
,,,,,,,,,,,,7,0,7,0,,,,,,,,,,,,,,,,,,,,,,,,,,,,,,,,,,,,,,,,,,,,,,,,,2566.966898999992,None,,,,,,,,,,,,,,,,,,,,,,,,,,,,,,,,,,,,,,,,,,,,,,,,,,,,,,,,,weapon,190,8,aloud,new,blue,2565.266037399997,None,y,2565.266037399997,None,"['y', 'return']","[1.3562999999849126, 1.660028100013733]",2565.266037399997,None,,,88YD,001,2023_Aug_30_1723,ExactRep-v3-final,2021.2.3,59.6307900076681,
,,,,,,,,,,,,8,0,8,0,,,,,,,,,,,,,,,,,,,,,,,,,,,,,,,,,,,,,,,,,,,,,,,,,2568.920439600013,None,,,,,,,,,,,,,,,,,,,,,,,,,,,,,,,,,,,,,,,,,,,,,,,,,,,,,,,,,shoes,49,9,silent,old,white,2567.4777162000537,None,n,2567.4777162000537,None,"['n', 'return']","[0.8803292000666261, 1.4085152000188828]",2567.4777162000537,None,,,88YD,001,2023_Aug_30_1723,ExactRep-v3-final,2021.2.3,59.6307900076681,
,,,,,,,,,,,,9,0,9,0,,,,,,,,,,,,,,,,,,,,,,,,,,,,,,,,,,,,,,,,,,,,,,,,,2570.571838099975,None,,,,,,,,,,,,,,,,,,,,,,,,,,,,,,,,,,,,,,,,,,,,,,,,,,,,,,,,,army,70,10,silent,old,white,2569.436494600028,None,y,2569.436494600028,None,"['y', 'return']","[0.7296359000029042, 1.0895547999534756]",2569.436494600028,None,,,88YD,001,2023_Aug_30_1723,ExactRep-v3-final,2021.2.3,59.6307900076681,
,,,,,,,,,,,,10,0,10,0,,,,,,,,,,,,,,,,,,,,,,,,,,,,,,,,,,,,,,,,,,,,,,,,,2572.889567999984,None,,,,,,,,,,,,,,,,,,,,,,,,,,,,,,,,,,,,,,,,,,,,,,,,,,,,,,,,,brain,227,11,sing,new,red,2571.088790900074,None,n,2571.088790900074,None,"['n', 'return']","[1.3574557999381796, 1.7572738999733701]",2571.088790900074,None,,,88YD,001,2023_Aug_30_1723,ExactRep-v3-final,2021.2.3,59.6307900076681,
,,,,,,,,,,,,11,0,11,0,,,,,,,,,,,,,,,,,,,,,,,,,,,,,,,,,,,,,,,,,,,,,,,,,2575.175185100059,None,,,,,,,,,,,,,,,,,,,,,,,,,,,,,,,,,,,,,,,,,,,,,,,,,,,,,,,,,metal,87,12,aloud,old,blue,2573.3931953000138,None,n,2573.3931953000138,None,"['n', 'return']","[1.3648966999026015, 1.7410978999687359]",2573.3931953000138,None,,,88YD,001,2023_Aug_30_1723,ExactRep-v3-final,2021.2.3,59.6307900076681,
,,,,,,,,,,,,12,0,12,0,,,,,,,,,,,,,,,,,,,,,,,,,,,,,,,,,,,,,,,,,,,,,,,,,2576.845204000012,None,,,,,,,,,,,,,,,,,,,,,,,,,,,,,,,,,,,,,,,,,,,,,,,,,,,,,,,,,devil,157,13,silent,new,white,2575.679145900067,None,n,2575.679145900067,None,"['n', 'return']","[0.7829085000557825, 1.1269406999927014]",2575.679145900067,None,,,88YD,001,2023_Aug_30_1723,ExactRep-v3-final,2021.2.3,59.6307900076681,
,,,,,,,,,,,,13,0,13,0,,,,,,,,,,,,,,,,,,,,,,,,,,,,,,,,,,,,,,,,,,,,,,,,,2578.613737900043,None,,,,,,,,,,,,,,,,,,,,,,,,,,,,,,,,,,,,,,,,,,,,,,,,,,,,,,,,,village,100,14,aloud,old,blue,2577.3623731000116,None,y,2577.3623731000116,None,"['y', 'return']","[0.8518131000455469, 1.2036388999549672]",2577.3623731000116,None,,,88YD,001,2023_Aug_30_1723,ExactRep-v3-final,2021.2.3,59.6307900076681,
,,,,,,,,,,,,14,0,14,0,,,,,,,,,,,,,,,,,,,,,,,,,,,,,,,,,,,,,,,,,,,,,,,,,2580.58160210005,None,,,,,,,,,,,,,,,,,,,,,,,,,,,,,,,,,,,,,,,,,,,,,,,,,,,,,,,,,dream,232,15,aloud,new,blue,2579.1287658000365,None,n,2579.1287658000365,None,"['n', 'return']","[1.0532619999721646, 1.4052627999335527]",2579.1287658000365,None,,,88YD,001,2023_Aug_30_1723,ExactRep-v3-final,2021.2.3,59.6307900076681,
,,,,,,,,,,,,15,0,15,0,,,,,,,,,,,,,,,,,,,,,,,,,,,,,,,,,,,,,,,,,,,,,,,,,2582.416101000039,None,,,,,,,,,,,,,,,,,,,,,,,,,,,,,,,,,,,,,,,,,,,,,,,,,,,,,,,,,hide,179,16,sing,new,red,2581.085814799997,None,n,2581.085814799997,None,"['n', 'return']","[0.9684619000181556, 1.288221099996008]",2581.085814799997,None,,,88YD,001,2023_Aug_30_1723,ExactRep-v3-final,2021.2.3,59.6307900076681,
,,,,,,,,,,,,16,0,16,0,,,,,,,,,,,,,,,,,,,,,,,,,,,,,,,,,,,,,,,,,,,,,,,,,2584.204319900018,None,,,,,,,,,,,,,,,,,,,,,,,,,,,,,,,,,,,,,,,,,,,,,,,,,,,,,,,,,body,34,17,sing,old,red,2582.9173619999783,None,y,2582.9173619999783,None,"['y', 'return']","[0.9049121999414638, 1.2489671999355778]",2582.9173619999783,None,,,88YD,001,2023_Aug_30_1723,ExactRep-v3-final,2021.2.3,59.6307900076681,
,,,,,,,,,,,,17,0,17,0,,,,,,,,,,,,,,,,,,,,,,,,,,,,,,,,,,,,,,,,,,,,,,,,,2585.9855181999737,None,,,,,,,,,,,,,,,,,,,,,,,,,,,,,,,,,,,,,,,,,,,,,,,,,,,,,,,,,murder,116,18,aloud,old,blue,2584.7369363000616,None,y,2584.7369363000616,None,"['y', 'return']","[0.8691327000269666, 1.2051032000454143]",2584.7369363000616,None,,,88YD,001,2023_Aug_30_1723,ExactRep-v3-final,2021.2.3,59.6307900076681,
,,,,,,,,,,,,18,0,18,0,,,,,,,,,,,,,,,,,,,,,,,,,,,,,,,,,,,,,,,,,,,,,,,,,2587.8902361000655,None,,,,,,,,,,,,,,,,,,,,,,,,,,,,,,,,,,,,,,,,,,,,,,,,,,,,,,,,,window,63,19,silent,old,white,2586.4892970999936,None,n,2586.4892970999936,None,"['n', 'return']","[0.7087218000087887, 1.3567644999129698]",2586.4892970999936,None,,,88YD,001,2023_Aug_30_1723,ExactRep-v3-final,2021.2.3,59.6307900076681,
,,,,,,,,,,,,19,0,19,0,,,,,,,,,,,,,,,,,,,,,,,,,,,,,,,,,,,,,,,,,,,,,,,,,2590.2740723000607,None,,,,,,,,,,,,,,,,,,,,,,,,,,,,,,,,,,,,,,,,,,,,,,,,,,,,,,,,,health,92,20,aloud,old,blue,2588.42115379998,None,n,2588.42115379998,None,"['n', 'return']","[1.4568255000049248, 1.8171379999257624]",2588.42115379998,None,,,88YD,001,2023_Aug_30_1723,ExactRep-v3-final,2021.2.3,59.6307900076681,
,,,,,,,,,,,,20,0,20,0,,,,,,,,,,,,,,,,,,,,,,,,,,,,,,,,,,,,,,,,,,,,,,,,,2592.660611600033,None,,,,,,,,,,,,,,,,,,,,,,,,,,,,,,,,,,,,,,,,,,,,,,,,,,,,,,,,,seat,2,21,sing,old,red,2590.7941912000533,None,y,2590.7941912000533,None,"['y', 'return']","[1.4920418999390677, 1.827863199985586]",2590.7941912000533,None,,,88YD,001,2023_Aug_30_1723,ExactRep-v3-final,2021.2.3,59.6307900076681,
,,,,,,,,,,,,21,0,21,0,,,,,,,,,,,,,,,,,,,,,,,,,,,,,,,,,,,,,,,,,,,,,,,,,2594.8948377000634,None,,,,,,,,,,,,,,,,,,,,,,,,,,,,,,,,,,,,,,,,,,,,,,,,,,,,,,,,,market,133,22,silent,new,white,2593.174239200074,None,n,2593.174239200074,None,"['n', 'return']","[1.2398156999843195, 1.688160700025037]",2593.174239200074,None,,,88YD,001,2023_Aug_30_1723,ExactRep-v3-final,2021.2.3,59.6307900076681,
,,,,,,,,,,,,22,0,22,0,,,,,,,,,,,,,,,,,,,,,,,,,,,,,,,,,,,,,,,,,,,,,,,,,2596.619809100055,None,,,,,,,,,,,,,,,,,,,,,,,,,,,,,,,,,,,,,,,,,,,,,,,,,,,,,,,,,meat,107,23,aloud,old,blue,2595.394835400046,None,y,2595.394835400046,None,"['y', 'return']","[0.875371600035578, 1.1872208999702707]",2595.394835400046,None,,,88YD,001,2023_Aug_30_1723,ExactRep-v3-final,2021.2.3,59.6307900076681,
,,,,,,,,,,,,23,0,23,0,,,,,,,,,,,,,,,,,,,,,,,,,,,,,,,,,,,,,,,,,,,,,,,,,2598.415211500018,None,,,,,,,,,,,,,,,,,,,,,,,,,,,,,,,,,,,,,,,,,,,,,,,,,,,,,,,,,cottage,3,24,sing,old,red,2597.1523729000473,None,y,2597.1523729000473,None,"['y', 'return']","[0.8457527999999002, 1.2136685999576002]",2597.1523729000473,None,,,88YD,001,2023_Aug_30_1723,ExactRep-v3-final,2021.2.3,59.6307900076681,
,,,,,,,,,,,,24,0,24,0,,,,,,,,,,,,,,,,,,,,,,,,,,,,,,,,,,,,,,,,,,,,,,,,,2600.351825300022,None,,,,,,,,,,,,,,,,,,,,,,,,,,,,,,,,,,,,,,,,,,,,,,,,,,,,,,,,,honour,231,25,sing,new,red,2598.92439020006,None,n,2598.92439020006,None,"['n', 'return']","[1.1056544999592006, 1.3776623000157997]",2598.92439020006,None,,,88YD,001,2023_Aug_30_1723,ExactRep-v3-final,2021.2.3,59.6307900076681,
,,,,,,,,,,,,25,0,25,0,,,,,,,,,,,,,,,,,,,,,,,,,,,,,,,,,,,,,,,,,,,,,,,,,2602.4356056000106,None,,,,,,,,,,,,,,,,,,,,,,,,,,,,,,,,,,,,,,,,,,,,,,,,,,,,,,,,,grass,180,26,aloud,new,blue,2600.8679893000517,None,n,2600.8679893000517,None,"['n', 'return']","[1.2180361999198794, 1.5221425999188796]",2600.8679893000517,None,,,88YD,001,2023_Aug_30_1723,ExactRep-v3-final,2021.2.3,59.6307900076681,
,,,,,,,,,,,,26,0,26,0,,,,,,,,,,,,,,,,,,,,,,,,,,,,,,,,,,,,,,,,,,,,,,,,,2604.7387108000694,None,,,,,,,,,,,,,,,,,,,,,,,,,,,,,,,,,,,,,,,,,,,,,,,,,,,,,,,,,vessel,155,27,silent,new,white,2602.941293700016,None,n,2602.941293700016,None,"['n', 'return']","[1.472814099979587, 1.7610793999629095]",2602.941293700016,None,,,88YD,001,2023_Aug_30_1723,ExactRep-v3-final,2021.2.3,59.6307900076681,
,,,,,,,,,,,,27,0,27,0,,,,,,,,,,,,,,,,,,,,,,,,,,,,,,,,,,,,,,,,,,,,,,,,,2608.5605178000405,None,,,,,,,,,,,,,,,,,,,,,,,,,,,,,,,,,,,,,,,,,,,,,,,,,,,,,,,,,shadow,111,28,aloud,old,blue,2605.2395258999895,None,y,2605.2395258999895,None,"['y', 'return']","[2.9831189999822527, 3.270527199958451]",2605.2395258999895,None,,,88YD,001,2023_Aug_30_1723,ExactRep-v3-final,2021.2.3,59.6307900076681,
,,,,,,,,,,,,28,0,28,0,,,,,,,,,,,,,,,,,,,,,,,,,,,,,,,,,,,,,,,,,,,,,,,,,2610.5639448000584,None,,,,,,,,,,,,,,,,,,,,,,,,,,,,,,,,,,,,,,,,,,,,,,,,,,,,,,,,,chance,213,29,sing,new,red,2609.0752595000667,None,n,2609.0752595000667,None,"['n', 'return']","[1.138764400035143, 1.4512536999536678]",2609.0752595000667,None,,,88YD,001,2023_Aug_30_1723,ExactRep-v3-final,2021.2.3,59.6307900076681,
,,,,,,,,,,,,29,0,29,0,,,,,,,,,,,,,,,,,,,,,,,,,,,,,,,,,,,,,,,,,,,,,,,,,2613.413706499967,None,,,,,,,,,,,,,,,,,,,,,,,,,,,,,,,,,,,,,,,,,,,,,,,,,,,,,,,,,spirit,113,30,aloud,old,blue,2611.077618899988,None,y,2611.077618899988,None,"['y', 'return']","[1.952419999986887, 2.2884602999547496]",2611.077618899988,None,,,88YD,001,2023_Aug_30_1723,ExactRep-v3-final,2021.2.3,59.6307900076681,
,,,,,,,,,,,,30,0,30,0,,,,,,,,,,,,,,,,,,,,,,,,,,,,,,,,,,,,,,,,,,,,,,,,,2615.813891500002,None,,,,,,,,,,,,,,,,,,,,,,,,,,,,,,,,,,,,,,,,,,,,,,,,,,,,,,,,,mother,99,31,aloud,old,blue,2613.9153630000073,None,n,2613.9153630000073,None,"['n', 'return']","[1.578714600065723, 1.8509085000259802]",2613.9153630000073,None,,,88YD,001,2023_Aug_30_1723,ExactRep-v3-final,2021.2.3,59.6307900076681,
,,,,,,,,,,,,31,0,31,0,,,,,,,,,,,,,,,,,,,,,,,,,,,,,,,,,,,,,,,,,,,,,,,,,2617.6179462000728,None,,,,,,,,,,,,,,,,,,,,,,,,,,,,,,,,,,,,,,,,,,,,,,,,,,,,,,,,,string,147,32,silent,new,white,2616.317250699969,None,n,2616.317250699969,None,"['n', 'return']","[1.0007457999745384, 1.2653634999878705]",2616.317250699969,None,,,88YD,001,2023_Aug_30_1723,ExactRep-v3-final,2021.2.3,59.6307900076681,
,,,,,,,,,,,,32,0,32,0,,,,,,,,,,,,,,,,,,,,,,,,,,,,,,,,,,,,,,,,,,,,,,,,,2620.207712100004,None,,,,,,,,,,,,,,,,,,,,,,,,,,,,,,,,,,,,,,,,,,,,,,,,,,,,,,,,,potato,183,33,sing,new,red,2618.119243900059,None,n,2618.119243900059,None,"['n', 'return']","[1.7028233000310138, 2.046777000068687]",2618.119243900059,None,,,88YD,001,2023_Aug_30_1723,ExactRep-v3-final,2021.2.3,59.6307900076681,
,,,,,,,,,,,,33,0,33,0,,,,,,,,,,,,,,,,,,,,,,,,,,,,,,,,,,,,,,,,,,,,,,,,,2622.0397889000596,None,,,,,,,,,,,,,,,,,,,,,,,,,,,,,,,,,,,,,,,,,,,,,,,,,,,,,,,,,product,26,34,sing,old,red,2620.7436003000475,None,n,2620.7436003000475,None,"['n', 'return']","[0.9664004999212921, 1.2626695999642834]",2620.7436003000475,None,,,88YD,001,2023_Aug_30_1723,ExactRep-v3-final,2021.2.3,59.6307900076681,
,,,,,,,,,,,,34,0,34,0,,,,,,,,,,,,,,,,,,,,,,,,,,,,,,,,,,,,,,,,,,,,,,,,,2624.1479303999804,None,,,,,,,,,,,,,,,,,,,,,,,,,,,,,,,,,,,,,,,,,,,,,,,,,,,,,,,,,soul,61,35,silent,old,white,2622.5432589000557,None,y,2622.5432589000557,None,"['y', 'return']","[1.23898620007094, 1.5507182000437751]",2622.5432589000557,None,,,88YD,001,2023_Aug_30_1723,ExactRep-v3-final,2021.2.3,59.6307900076681,
,,,,,,,,,,,,35,0,35,0,,,,,,,,,,,,,,,,,,,,,,,,,,,,,,,,,,,,,,,,,,,,,,,,,2626.810669200029,None,,,,,,,,,,,,,,,,,,,,,,,,,,,,,,,,,,,,,,,,,,,,,,,,,,,,,,,,,arm,0,36,sing,old,red,2624.6614072000375,None,n,2624.6614072000375,None,"['n', 'return']","[1.8086237999377772, 2.1047707999823615]",2624.6614072000375,None,,,88YD,001,2023_Aug_30_1723,ExactRep-v3-final,2021.2.3,59.6307900076681,
,,,,,,,,,,,,36,0,36,0,,,,,,,,,,,,,,,,,,,,,,,,,,,,,,,,,,,,,,,,,,,,,,,,,2628.7962476999965,None,,,,,,,,,,,,,,,,,,,,,,,,,,,,,,,,,,,,,,,,,,,,,,,,,,,,,,,,,dust,238,37,aloud,new,blue,2627.3107736000093,None,n,2627.3107736000093,None,"['n', 'return']","[1.143262599944137, 1.4472744999220595]",2627.3107736000093,None,,,88YD,001,2023_Aug_30_1723,ExactRep-v3-final,2021.2.3,59.6307900076681,
,,,,,,,,,,,,37,0,37,0,,,,,,,,,,,,,,,,,,,,,,,,,,,,,,,,,,,,,,,,,,,,,,,,,2630.5302294000285,None,,,,,,,,,,,,,,,,,,,,,,,,,,,,,,,,,,,,,,,,,,,,,,,,,,,,,,,,,deed,104,38,aloud,old,blue,2629.2965027000755,None,n,2629.2965027000755,None,"['n', 'return']","[0.8614842999959365, 1.1897394000552595]",2629.2965027000755,None,,,88YD,001,2023_Aug_30_1723,ExactRep-v3-final,2021.2.3,59.6307900076681,
,,,,,,,,,,,,38,0,38,0,,,,,,,,,,,,,,,,,,,,,,,,,,,,,,,,,,,,,,,,,,,,,,,,,2632.8329124000156,None,,,,,,,,,,,,,,,,,,,,,,,,,,,,,,,,,,,,,,,,,,,,,,,,,,,,,,,,,form,114,39,aloud,old,blue,2631.0374419,None,n,2631.0374419,None,"['n', 'return']","[1.4645736999809742, 1.7528763000154868]",2631.0374419,None,,,88YD,001,2023_Aug_30_1723,ExactRep-v3-final,2021.2.3,59.6307900076681,
,,,,,,,,,,,,39,0,39,0,,,,,,,,,,,,,,,,,,,,,,,,,,,,,,,,,,,,,,,,,,,,,,,,,2635.736825000029,None,,,,,,,,,,,,,,,,,,,,,,,,,,,,,,,,,,,,,,,,,,,,,,,,,,,,,,,,,doctor,203,40,sing,new,red,2633.339824900031,None,y,2633.339824900031,None,"['y', 'return']","[2.050207899999805, 2.3622673000209033]",2633.339824900031,None,,,88YD,001,2023_Aug_30_1723,ExactRep-v3-final,2021.2.3,59.6307900076681,
,,,,,,,,,,,,40,0,40,0,,,,,,,,,,,,,,,,,,,,,,,,,,,,,,,,,,,,,,,,,,,,,,,,,2638.557671700022,None,,,,,,,,,,,,,,,,,,,,,,,,,,,,,,,,,,,,,,,,,,,,,,,,,,,,,,,,,justice,112,41,aloud,old,blue,2636.2533461999847,None,y,2636.2533461999847,None,"['y', 'return']","[1.8966196000110358, 2.2646233000559732]",2636.2533461999847,None,,,88YD,001,2023_Aug_30_1723,ExactRep-v3-final,2021.2.3,59.6307900076681,
,,,,,,,,,,,,41,0,41,0,,,,,,,,,,,,,,,,,,,,,,,,,,,,,,,,,,,,,,,,,,,,,,,,,2640.8257454000413,None,,,,,,,,,,,,,,,,,,,,,,,,,,,,,,,,,,,,,,,,,,,,,,,,,,,,,,,,,excuse,65,42,silent,old,white,2639.0992362999823,None,n,2639.0992362999823,None,"['n', 'return']","[0.9471655000234023, 1.6828174000838771]",2639.0992362999823,None,,,88YD,001,2023_Aug_30_1723,ExactRep-v3-final,2021.2.3,59.6307900076681,
,,,,,,,,,,,,42,0,42,0,,,,,,,,,,,,,,,,,,,,,,,,,,,,,,,,,,,,,,,,,,,,,,,,,2642.8422049999936,None,,,,,,,,,,,,,,,,,,,,,,,,,,,,,,,,,,,,,,,,,,,,,,,,,,,,,,,,,avenue,76,43,silent,old,white,2641.3481851000106,None,n,2641.3481851000106,None,"['n', 'return']","[1.0741778999799863, 1.4578209000173956]",2641.3481851000106,None,,,88YD,001,2023_Aug_30_1723,ExactRep-v3-final,2021.2.3,59.6307900076681,
,,,,,,,,,,,,43,0,43,0,,,,,,,,,,,,,,,,,,,,,,,,,,,,,,,,,,,,,,,,,,,,,,,,,2645.113247600035,None,,,,,,,,,,,,,,,,,,,,,,,,,,,,,,,,,,,,,,,,,,,,,,,,,,,,,,,,,dress,197,44,sing,new,red,2643.343899999978,None,n,2643.343899999978,None,"['n', 'return']","[1.3503794999560341, 1.734231899958104]",2643.343899999978,None,,,88YD,001,2023_Aug_30_1723,ExactRep-v3-final,2021.2.3,59.6307900076681,
,,,,,,,,,,,,44,0,44,0,,,,,,,,,,,,,,,,,,,,,,,,,,,,,,,,,,,,,,,,,,,,,,,,,2646.780701200012,None,,,,,,,,,,,,,,,,,,,,,,,,,,,,,,,,,,,,,,,,,,,,,,,,,,,,,,,,,bar,233,45,sing,new,red,2645.640746799996,None,n,2645.640746799996,None,"['n', 'return']","[0.7492653999943286, 1.101253499975428]",2645.640746799996,None,,,88YD,001,2023_Aug_30_1723,ExactRep-v3-final,2021.2.3,59.6307900076681,
,,,,,,,,,,,,45,0,45,0,,,,,,,,,,,,,,,,,,,,,,,,,,,,,,,,,,,,,,,,,,,,,,,,,2649.465775700053,None,,,,,,,,,,,,,,,,,,,,,,,,,,,,,,,,,,,,,,,,,,,,,,,,,,,,,,,,,apple,59,46,silent,old,white,2647.284912900068,None,n,2647.284912900068,None,"['n', 'return']","[1.7690600999630988, 2.137124800006859]",2647.284912900068,None,,,88YD,001,2023_Aug_30_1723,ExactRep-v3-final,2021.2.3,59.6307900076681,
,,,,,,,,,,,,46,0,46,0,,,,,,,,,,,,,,,,,,,,,,,,,,,,,,,,,,,,,,,,,,,,,,,,,2653.904712800053,None,,,,,,,,,,,,,,,,,,,,,,,,,,,,,,,,,,,,,,,,,,,,,,,,,,,,,,,,,cabin,38,47,sing,old,red,2649.9693167000078,None,y,2649.9693167000078,None,"['n', 'backspace', 'y', 'return']","[2.2367036999203265, 3.2767219999805093, 3.5727323999162763, 3.892695299931802]",2649.9693167000078,None,,,88YD,001,2023_Aug_30_1723,ExactRep-v3-final,2021.2.3,59.6307900076681,
,,,,,,,,,,,,47,0,47,0,,,,,,,,,,,,,,,,,,,,,,,,,,,,,,,,,,,,,,,,,,,,,,,,,2656.0397852000315,None,,,,,,,,,,,,,,,,,,,,,,,,,,,,,,,,,,,,,,,,,,,,,,,,,,,,,,,,,butter,55,48,silent,old,white,2654.4172910000198,None,y,2654.4172910000198,None,"['y', 'return']","[1.2606196000706404, 1.5893517000367865]",2654.4172910000198,None,,,88YD,001,2023_Aug_30_1723,ExactRep-v3-final,2021.2.3,59.6307900076681,
,,,,,,,,,,,,48,0,48,0,,,,,,,,,,,,,,,,,,,,,,,,,,,,,,,,,,,,,,,,,,,,,,,,,2658.8587416000664,None,,,,,,,,,,,,,,,,,,,,,,,,,,,,,,,,,,,,,,,,,,,,,,,,,,,,,,,,,fate,187,49,sing,new,red,2656.554148999974,None,n,2656.554148999974,None,"['n', 'return']","[1.8119700000388548, 2.2679064000258222]",2656.554148999974,None,,,88YD,001,2023_Aug_30_1723,ExactRep-v3-final,2021.2.3,59.6307900076681,
,,,,,,,,,,,,49,0,49,0,,,,,,,,,,,,,,,,,,,,,,,,,,,,,,,,,,,,,,,,,,,,,,,,,2661.4126588000217,None,,,,,,,,,,,,,,,,,,,,,,,,,,,,,,,,,,,,,,,,,,,,,,,,,,,,,,,,,garden,142,50,silent,new,white,2659.3609217000194,None,y,2659.3609217000194,None,"['y', 'return']","[1.4930989999556914, 2.013036699965596]",2659.3609217000194,None,,,88YD,001,2023_Aug_30_1723,ExactRep-v3-final,2021.2.3,59.6307900076681,
,,,,,,,,,,,,50,0,50,0,,,,,,,,,,,,,,,,,,,,,,,,,,,,,,,,,,,,,,,,,,,,,,,,,2664.1145172000397,None,,,,,,,,,,,,,,,,,,,,,,,,,,,,,,,,,,,,,,,,,,,,,,,,,,,,,,,,,book,14,51,sing,old,red,2661.9196688999655,None,n,2661.9196688999655,None,"['n', 'return']","[1.7431514000054449, 2.1503849000437185]",2661.9196688999655,None,,,88YD,001,2023_Aug_30_1723,ExactRep-v3-final,2021.2.3,59.6307900076681,
,,,,,,,,,,,,51,0,51,0,,,,,,,,,,,,,,,,,,,,,,,,,,,,,,,,,,,,,,,,,,,,,,,,,2666.3666381000075,None,,,,,,,,,,,,,,,,,,,,,,,,,,,,,,,,,,,,,,,,,,,,,,,,,,,,,,,,,answer,73,52,silent,old,white,2664.6259404000593,None,n,2664.6259404000593,None,"['n', 'return']","[1.3245099000632763, 1.6921823000302538]",2664.6259404000593,None,,,88YD,001,2023_Aug_30_1723,ExactRep-v3-final,2021.2.3,59.6307900076681,
,,,,,,,,,,,,52,0,52,0,,,,,,,,,,,,,,,,,,,,,,,,,,,,,,,,,,,,,,,,,,,,,,,,,2668.1362502999837,None,,,,,,,,,,,,,,,,,,,,,,,,,,,,,,,,,,,,,,,,,,,,,,,,,,,,,,,,,memory,45,53,silent,old,white,2666.868909300072,None,y,2666.868909300072,None,"['y', 'return']","[0.8651913999347016, 1.2332475000293925]",2666.868909300072,None,,,88YD,001,2023_Aug_30_1723,ExactRep-v3-final,2021.2.3,59.6307900076681,
,,,,,,,,,,,,53,0,53,0,,,,,,,,,,,,,,,,,,,,,,,,,,,,,,,,,,,,,,,,,,,,,,,,,2671.0548120000167,None,,,,,,,,,,,,,,,,,,,,,,,,,,,,,,,,,,,,,,,,,,,,,,,,,,,,,,,,,power,79,54,sing,old,red,2668.6548476000316,None,y,2668.6548476000316,None,"['y', 'return']","[0.9594814999727532, 2.351205399958417]",2668.6548476000316,None,,,88YD,001,2023_Aug_30_1723,ExactRep-v3-final,2021.2.3,59.6307900076681,
,,,,,,,,,,,,54,0,54,0,,,,,,,,,,,,,,,,,,,,,,,,,,,,,,,,,,,,,,,,,,,,,,,,,2673.324787000078,None,,,,,,,,,,,,,,,,,,,,,,,,,,,,,,,,,,,,,,,,,,,,,,,,,,,,,,,,,dollar,144,55,silent,new,white,2671.5606937999837,None,n,2671.5606937999837,None,"['n', 'return']","[1.2853221000405028, 1.7253185000736266]",2671.5606937999837,None,,,88YD,001,2023_Aug_30_1723,ExactRep-v3-final,2021.2.3,59.6307900076681,
,,,,,,,,,,,,55,0,55,0,,,,,,,,,,,,,,,,,,,,,,,,,,,,,,,,,,,,,,,,,,,,,,,,,2676.0924601000734,None,,,,,,,,,,,,,,,,,,,,,,,,,,,,,,,,,,,,,,,,,,,,,,,,,,,,,,,,,paper,103,56,aloud,old,blue,2673.84697459999,None,y,2673.84697459999,None,"['y', 'return']","[1.879316100035794, 2.1991767999716103]",2673.84697459999,None,,,88YD,001,2023_Aug_30_1723,ExactRep-v3-final,2021.2.3,59.6307900076681,
,,,,,,,,,,,,56,0,56,0,,,,,,,,,,,,,,,,,,,,,,,,,,,,,,,,,,,,,,,,,,,,,,,,,2679.362625500071,None,,,,,,,,,,,,,,,,,,,,,,,,,,,,,,,,,,,,,,,,,,,,,,,,,,,,,,,,,disease,137,57,silent,new,white,2676.5952489000047,None,n,2676.5952489000047,None,"['n', 'return']","[1.866987599991262, 2.73115989996586]",2676.5952489000047,None,,,88YD,001,2023_Aug_30_1723,ExactRep-v3-final,2021.2.3,59.6307900076681,
,,,,,,,,,,,,57,0,57,0,,,,,,,,,,,,,,,,,,,,,,,,,,,,,,,,,,,,,,,,,,,,,,,,,2681.3492081000004,None,,,,,,,,,,,,,,,,,,,,,,,,,,,,,,,,,,,,,,,,,,,,,,,,,,,,,,,,,horse,166,58,aloud,new,blue,2679.866265000077,None,n,2679.866265000077,None,"['n', 'return']","[1.1159536000341177, 1.4359113000100479]",2679.866265000077,None,,,88YD,001,2023_Aug_30_1723,ExactRep-v3-final,2021.2.3,59.6307900076681,
,,,,,,,,,,,,58,0,58,0,,,,,,,,,,,,,,,,,,,,,,,,,,,,,,,,,,,,,,,,,,,,,,,,,2683.516845699982,None,,,,,,,,,,,,,,,,,,,,,,,,,,,,,,,,,,,,,,,,,,,,,,,,,,,,,,,,,style,167,59,sing,new,red,2681.8652560000774,None,n,2681.8652560000774,None,"['n', 'return']","[1.2367799000348896, 1.6128199000377208]",2681.8652560000774,None,,,88YD,001,2023_Aug_30_1723,ExactRep-v3-final,2021.2.3,59.6307900076681,
,,,,,,,,,,,,59,0,59,0,,,,,,,,,,,,,,,,,,,,,,,,,,,,,,,,,,,,,,,,,,,,,,,,,2685.720655400073,None,,,,,,,,,,,,,,,,,,,,,,,,,,,,,,,,,,,,,,,,,,,,,,,,,,,,,,,,,ability,12,60,sing,old,red,2684.0226466000313,None,n,2684.0226466000313,None,"['n', 'return']","[1.3195392000488937, 1.6633488000370562]",2684.0226466000313,None,,,88YD,001,2023_Aug_30_1723,ExactRep-v3-final,2021.2.3,59.6307900076681,
,,,,,,,,,,,,60,0,60,0,,,,,,,,,,,,,,,,,,,,,,,,,,,,,,,,,,,,,,,,,,,,,,,,,2687.9920202000067,None,,,,,,,,,,,,,,,,,,,,,,,,,,,,,,,,,,,,,,,,,,,,,,,,,,,,,,,,,iron,210,61,aloud,new,blue,2686.236370300059,None,n,2686.236370300059,None,"['n', 'return']","[1.3456676000496373, 1.7136548000853509]",2686.236370300059,None,,,88YD,001,2023_Aug_30_1723,ExactRep-v3-final,2021.2.3,59.6307900076681,
,,,,,,,,,,,,61,0,61,0,,,,,,,,,,,,,,,,,,,,,,,,,,,,,,,,,,,,,,,,,,,,,,,,,2690.1569143000524,None,,,,,,,,,,,,,,,,,,,,,,,,,,,,,,,,,,,,,,,,,,,,,,,,,,,,,,,,,hope,74,62,silent,old,white,2688.5272767000133,None,y,2688.5272767000133,None,"['y', 'return']","[1.2547026999527588, 1.590767899993807]",2688.5272767000133,None,,,88YD,001,2023_Aug_30_1723,ExactRep-v3-final,2021.2.3,59.6307900076681,
,,,,,,,,,,,,62,0,62,0,,,,,,,,,,,,,,,,,,,,,,,,,,,,,,,,,,,,,,,,,,,,,,,,,2692.342116100015,None,,,,,,,,,,,,,,,,,,,,,,,,,,,,,,,,,,,,,,,,,,,,,,,,,,,,,,,,,custom,17,63,sing,old,red,2690.6586828000145,None,y,2690.6586828000145,None,"['y', 'return']","[1.211323699913919, 1.6433417999651283]",2690.6586828000145,None,,,88YD,001,2023_Aug_30_1723,ExactRep-v3-final,2021.2.3,59.6307900076681,
,,,,,,,,,,,,63,0,63,0,,,,,,,,,,,,,,,,,,,,,,,,,,,,,,,,,,,,,,,,,,,,,,,,,2694.5123156000627,None,,,,,,,,,,,,,,,,,,,,,,,,,,,,,,,,,,,,,,,,,,,,,,,,,,,,,,,,,silence,89,64,aloud,old,blue,2692.849760000012,None,y,2692.849760000012,None,"['y', 'return']","[1.2364604000467807, 1.6121984000783414]",2692.849760000012,None,,,88YD,001,2023_Aug_30_1723,ExactRep-v3-final,2021.2.3,59.6307900076681,
,,,,,,,,,,,,64,0,64,0,,,,,,,,,,,,,,,,,,,,,,,,,,,,,,,,,,,,,,,,,,,,,,,,,2696.2621709000086,None,,,,,,,,,,,,,,,,,,,,,,,,,,,,,,,,,,,,,,,,,,,,,,,,,,,,,,,,,toy,37,65,sing,old,red,2695.0277507000137,None,n,2695.0277507000137,None,"['n', 'return']","[0.8102469999575987, 1.2023368999361992]",2695.0277507000137,None,,,88YD,001,2023_Aug_30_1723,ExactRep-v3-final,2021.2.3,59.6307900076681,
,,,,,,,,,,,,65,0,65,0,,,,,,,,,,,,,,,,,,,,,,,,,,,,,,,,,,,,,,,,,,,,,,,,,2697.7969280000543,None,,,,,,,,,,,,,,,,,,,,,,,,,,,,,,,,,,,,,,,,,,,,,,,,,,,,,,,,,water,19,66,sing,old,red,2696.765982700046,None,n,2696.765982700046,None,"['n', 'return']","[0.6642672999296337, 0.9841369999339804]",2696.765982700046,None,,,88YD,001,2023_Aug_30_1723,ExactRep-v3-final,2021.2.3,59.6307900076681,
,,,,,,,,,,,,66,0,66,0,,,,,,,,,,,,,,,,,,,,,,,,,,,,,,,,,,,,,,,,,,,,,,,,,2700.2998837999767,None,,,,,,,,,,,,,,,,,,,,,,,,,,,,,,,,,,,,,,,,,,,,,,,,,,,,,,,,,woman,146,67,silent,new,white,2698.300779500045,None,n,2698.300779500045,None,"['n', 'return']","[1.5931986999930814, 1.953281500027515]",2698.300779500045,None,,,88YD,001,2023_Aug_30_1723,ExactRep-v3-final,2021.2.3,59.6307900076681,
,,,,,,,,,,,,67,0,67,0,,,,,,,,,,,,,,,,,,,,,,,,,,,,,,,,,,,,,,,,,,,,,,,,,2702.4029862000607,None,,,,,,,,,,,,,,,,,,,,,,,,,,,,,,,,,,,,,,,,,,,,,,,,,,,,,,,,,cattle,20,68,sing,old,red,2700.802413800033,None,n,2700.802413800033,None,"['n', 'return']","[1.1639196999603882, 1.5642682999605313]",2700.802413800033,None,,,88YD,001,2023_Aug_30_1723,ExactRep-v3-final,2021.2.3,59.6307900076681,
,,,,,,,,,,,,68,0,68,0,,,,,,,,,,,,,,,,,,,,,,,,,,,,,,,,,,,,,,,,,,,,,,,,,2705.2382004000247,None,,,,,,,,,,,,,,,,,,,,,,,,,,,,,,,,,,,,,,,,,,,,,,,,,,,,,,,,,law,143,69,silent,new,white,2702.930768899969,None,n,2702.930768899969,None,"['n', 'return']","[1.8592226000037044, 2.2672923000063747]",2702.930768899969,None,,,88YD,001,2023_Aug_30_1723,ExactRep-v3-final,2021.2.3,59.6307900076681,
,,,,,,,,,,,,69,0,69,0,,,,,,,,,,,,,,,,,,,,,,,,,,,,,,,,,,,,,,,,,,,,,,,,,2707.192294000066,None,,,,,,,,,,,,,,,,,,,,,,,,,,,,,,,,,,,,,,,,,,,,,,,,,,,,,,,,,insect,11,70,sing,old,red,2705.7411137999734,None,y,2705.7411137999734,None,"['y', 'return']","[1.0335494000464678, 1.4009043000405654]",2705.7411137999734,None,,,88YD,001,2023_Aug_30_1723,ExactRep-v3-final,2021.2.3,59.6307900076681,
,,,,,,,,,,,,70,0,70,0,,,,,,,,,,,,,,,,,,,,,,,,,,,,,,,,,,,,,,,,,,,,,,,,,2709.159494100022,None,,,,,,,,,,,,,,,,,,,,,,,,,,,,,,,,,,,,,,,,,,,,,,,,,,,,,,,,,sky,154,71,silent,new,white,2707.717961300048,None,y,2707.717961300048,None,"['y', 'return']","[1.0884400999639183, 1.4080910999327898]",2707.717961300048,None,,,88YD,001,2023_Aug_30_1723,ExactRep-v3-final,2021.2.3,59.6307900076681,
,,,,,,,,,,,,71,0,71,0,,,,,,,,,,,,,,,,,,,,,,,,,,,,,,,,,,,,,,,,,,,,,,,,,2711.0651957000373,None,,,,,,,,,,,,,,,,,,,,,,,,,,,,,,,,,,,,,,,,,,,,,,,,,,,,,,,,,chief,140,72,silent,new,white,2709.6624194000615,None,n,2709.6624194000615,None,"['n', 'return']","[1.0236384000163525, 1.359602199983783]",2709.6624194000615,None,,,88YD,001,2023_Aug_30_1723,ExactRep-v3-final,2021.2.3,59.6307900076681,
,,,,,,,,,,,,72,0,72,0,,,,,,,,,,,,,,,,,,,,,,,,,,,,,,,,,,,,,,,,,,,,,,,,,2713.2124586000573,None,,,,,,,,,,,,,,,,,,,,,,,,,,,,,,,,,,,,,,,,,,,,,,,,,,,,,,,,,season,93,73,aloud,old,blue,2711.5851081999717,None,y,2711.5851081999717,None,"['y', 'return']","[1.1568818999221548, 1.588879399932921]",2711.5851081999717,None,,,88YD,001,2023_Aug_30_1723,ExactRep-v3-final,2021.2.3,59.6307900076681,
,,,,,,,,,,,,73,0,73,0,,,,,,,,,,,,,,,,,,,,,,,,,,,,,,,,,,,,,,,,,,,,,,,,,2714.9836689999793,None,,,,,,,,,,,,,,,,,,,,,,,,,,,,,,,,,,,,,,,,,,,,,,,,,,,,,,,,,friend,214,74,aloud,new,blue,2713.7227986999787,None,n,2713.7227986999787,None,"['n', 'return']","[0.9152911000419408, 1.2194375999970362]",2713.7227986999787,None,,,88YD,001,2023_Aug_30_1723,ExactRep-v3-final,2021.2.3,59.6307900076681,
,,,,,,,,,,,,74,0,74,0,,,,,,,,,,,,,,,,,,,,,,,,,,,,,,,,,,,,,,,,,,,,,,,,,2716.6503496000078,None,,,,,,,,,,,,,,,,,,,,,,,,,,,,,,,,,,,,,,,,,,,,,,,,,,,,,,,,,student,98,75,aloud,old,blue,2715.499851600034,None,n,2715.499851600034,None,"['n', 'return']","[0.8103417999809608, 1.1064230999909341]",2715.499851600034,None,,,88YD,001,2023_Aug_30_1723,ExactRep-v3-final,2021.2.3,59.6307900076681,
,,,,,,,,,,,,75,0,75,0,,,,,,,,,,,,,,,,,,,,,,,,,,,,,,,,,,,,,,,,,,,,,,,,,2718.352379600052,None,,,,,,,,,,,,,,,,,,,,,,,,,,,,,,,,,,,,,,,,,,,,,,,,,,,,,,,,,pupil,174,76,aloud,new,blue,2717.1513030000497,None,n,2717.1513030000497,None,"['n', 'return']","[0.7907450000056997, 1.1587676999624819]",2717.1513030000497,None,,,88YD,001,2023_Aug_30_1723,ExactRep-v3-final,2021.2.3,59.6307900076681,
,,,,,,,,,,,,76,0,76,0,,,,,,,,,,,,,,,,,,,,,,,,,,,,,,,,,,,,,,,,,,,,,,,,,2720.620620700065,None,,,,,,,,,,,,,,,,,,,,,,,,,,,,,,,,,,,,,,,,,,,,,,,,,,,,,,,,,board,58,77,silent,old,white,2718.8526975000277,None,n,2718.8526975000277,None,"['n', 'return']","[1.4012746999505907, 1.7214831999735907]",2718.8526975000277,None,,,88YD,001,2023_Aug_30_1723,ExactRep-v3-final,2021.2.3,59.6307900076681,
,,,,,,,,,,,,77,0,77,0,,,,,,,,,,,,,,,,,,,,,,,,,,,,,,,,,,,,,,,,,,,,,,,,,2722.3067956999876,None,,,,,,,,,,,,,,,,,,,,,,,,,,,,,,,,,,,,,,,,,,,,,,,,,,,,,,,,,lad,101,78,aloud,old,blue,2721.122375100036,None,n,2721.122375100036,None,"['n', 'return']","[0.8919030999531969, 1.1477986999088898]",2721.122375100036,None,,,88YD,001,2023_Aug_30_1723,ExactRep-v3-final,2021.2.3,59.6307900076681,
,,,,,,,,,,,,78,0,78,0,,,,,,,,,,,,,,,,,,,,,,,,,,,,,,,,,,,,,,,,,,,,,,,,,2724.2260847999714,None,,,,,,,,,,,,,,,,,,,,,,,,,,,,,,,,,,,,,,,,,,,,,,,,,,,,,,,,,tree,43,79,silent,old,white,2722.8226703000255,None,y,2722.8226703000255,None,"['y', 'return']","[1.063532399944961, 1.3594899999443442]",2722.8226703000255,None,,,88YD,001,2023_Aug_30_1723,ExactRep-v3-final,2021.2.3,59.6307900076681,
,,,,,,,,,,,,79,0,79,0,,,,,,,,,,,,,,,,,,,,,,,,,,,,,,,,,,,,,,,,,,,,,,,,,2726.6263621000107,None,,,,,,,,,,,,,,,,,,,,,,,,,,,,,,,,,,,,,,,,,,,,,,,,,,,,,,,,,tool,102,80,aloud,old,blue,2724.755585500039,None,y,2724.755585500039,None,"['y', 'return']","[1.522421200061217, 1.8263900000602007]",2724.755585500039,None,,,88YD,001,2023_Aug_30_1723,ExactRep-v3-final,2021.2.3,59.6307900076681,
,,,,,,,,,,,,80,0,80,0,,,,,,,,,,,,,,,,,,,,,,,,,,,,,,,,,,,,,,,,,,,,,,,,,2728.995562199969,None,,,,,,,,,,,,,,,,,,,,,,,,,,,,,,,,,,,,,,,,,,,,,,,,,,,,,,,,,pipe,151,81,silent,new,white,2727.13015620003,None,n,2727.13015620003,None,"['n', 'return']","[1.5158780999481678, 1.8199162000091746]",2727.13015620003,None,,,88YD,001,2023_Aug_30_1723,ExactRep-v3-final,2021.2.3,59.6307900076681,
,,,,,,,,,,,,81,0,81,0,,,,,,,,,,,,,,,,,,,,,,,,,,,,,,,,,,,,,,,,,,,,,,,,,2732.143488700036,None,,,,,,,,,,,,,,,,,,,,,,,,,,,,,,,,,,,,,,,,,,,,,,,,,,,,,,,,,steam,9,82,sing,old,red,2729.498482199968,None,y,2729.498482199968,None,"['y', 'return']","[2.2115064000245184, 2.5874997000209987]",2729.498482199968,None,,,88YD,001,2023_Aug_30_1723,ExactRep-v3-final,2021.2.3,59.6307900076681,
,,,,,,,,,,,,82,0,82,0,,,,,,,,,,,,,,,,,,,,,,,,,,,,,,,,,,,,,,,,,,,,,,,,,2734.0734715000726,None,,,,,,,,,,,,,,,,,,,,,,,,,,,,,,,,,,,,,,,,,,,,,,,,,,,,,,,,,forest,135,83,silent,new,white,2732.650724600069,None,y,2732.650724600069,None,"['y', 'return']","[1.1233106000581756, 1.3792855000356212]",2732.650724600069,None,,,88YD,001,2023_Aug_30_1723,ExactRep-v3-final,2021.2.3,59.6307900076681,
,,,,,,,,,,,,83,0,83,0,,,,,,,,,,,,,,,,,,,,,,,,,,,,,,,,,,,,,,,,,,,,,,,,,2735.8529309000587,None,,,,,,,,,,,,,,,,,,,,,,,,,,,,,,,,,,,,,,,,,,,,,,,,,,,,,,,,,moral,91,84,aloud,old,blue,2734.5843745999737,None,y,2734.5843745999737,None,"['y', 'return']","[0.9735910000745207, 1.2298580000642687]",2734.5843745999737,None,,,88YD,001,2023_Aug_30_1723,ExactRep-v3-final,2021.2.3,59.6307900076681,
,,,,,,,,,,,,84,0,84,0,,,,,,,,,,,,,,,,,,,,,,,,,,,,,,,,,,,,,,,,,,,,,,,,,2737.4050343000563,None,,,,,,,,,,,,,,,,,,,,,,,,,,,,,,,,,,,,,,,,,,,,,,,,,,,,,,,,,kiss,211,85,sing,new,red,2736.354628500063,None,n,2736.354628500063,None,"['n', 'return']","[0.6593627000693232, 1.0113553000846878]",2736.354628500063,None,,,88YD,001,2023_Aug_30_1723,ExactRep-v3-final,2021.2.3,59.6307900076681,
,,,,,,,,,,,,85,0,85,0,,,,,,,,,,,,,,,,,,,,,,,,,,,,,,,,,,,,,,,,,,,,,,,,,2738.906433700002,None,,,,,,,,,,,,,,,,,,,,,,,,,,,,,,,,,,,,,,,,,,,,,,,,,,,,,,,,,prayer,205,86,sing,new,red,2737.9208829000127,None,n,2737.9208829000127,None,"['n', 'return']","[0.6210770999314263, 0.941122499993071]",2737.9208829000127,None,,,88YD,001,2023_Aug_30_1723,ExactRep-v3-final,2021.2.3,59.6307900076681,
,,,,,,,,,,,,86,0,86,0,,,,,,,,,,,,,,,,,,,,,,,,,,,,,,,,,,,,,,,,,,,,,,,,,2740.525063200039,None,,,,,,,,,,,,,,,,,,,,,,,,,,,,,,,,,,,,,,,,,,,,,,,,,,,,,,,,,pole,230,87,aloud,new,blue,2739.4177803000202,None,n,2739.4177803000202,None,"['n', 'return']","[0.7243208000436425, 1.068280200008303]",2739.4177803000202,None,,,88YD,001,2023_Aug_30_1723,ExactRep-v3-final,2021.2.3,59.6307900076681,
,,,,,,,,,,,,87,0,87,0,,,,,,,,,,,,,,,,,,,,,,,,,,,,,,,,,,,,,,,,,,,,,,,,,2742.409921000013,None,,,,,,,,,,,,,,,,,,,,,,,,,,,,,,,,,,,,,,,,,,,,,,,,,,,,,,,,,trouble,71,88,silent,old,white,2741.048451300012,None,n,2741.048451300012,None,"['n', 'return']","[0.9176035000709817, 1.326094500022009]",2741.048451300012,None,,,88YD,001,2023_Aug_30_1723,ExactRep-v3-final,2021.2.3,59.6307900076681,
,,,,,,,,,,,,88,0,88,0,,,,,,,,,,,,,,,,,,,,,,,,,,,,,,,,,,,,,,,,,,,,,,,,,2744.8623935000505,None,,,,,,,,,,,,,,,,,,,,,,,,,,,,,,,,,,,,,,,,,,,,,,,,,,,,,,,,,fur,220,89,aloud,new,blue,2742.9144602000015,None,n,2742.9144602000015,None,"['n', 'return']","[1.0118142999708652, 1.8996036000316963]",2742.9144602000015,None,,,88YD,001,2023_Aug_30_1723,ExactRep-v3-final,2021.2.3,59.6307900076681,
,,,,,,,,,,,,89,0,89,0,,,,,,,,,,,,,,,,,,,,,,,,,,,,,,,,,,,,,,,,,,,,,,,,,2747.2135237000184,None,,,,,,,,,,,,,,,,,,,,,,,,,,,,,,,,,,,,,,,,,,,,,,,,,,,,,,,,,passion,39,90,silent,old,white,2745.367678700015,None,n,2745.367678700015,None,"['n', 'return']","[1.390451299957931, 1.8064558999612927]",2745.367678700015,None,,,88YD,001,2023_Aug_30_1723,ExactRep-v3-final,2021.2.3,59.6307900076681,
,,,,,,,,,,,,90,0,90,0,,,,,,,,,,,,,,,,,,,,,,,,,,,,,,,,,,,,,,,,,,,,,,,,,2749.400084499968,None,,,,,,,,,,,,,,,,,,,,,,,,,,,,,,,,,,,,,,,,,,,,,,,,,,,,,,,,,cotton,181,91,sing,new,red,2747.7185691000195,None,n,2747.7185691000195,None,"['n', 'return']","[1.1834459999809042, 1.6396423000842333]",2747.7185691000195,None,,,88YD,001,2023_Aug_30_1723,ExactRep-v3-final,2021.2.3,59.6307900076681,
,,,,,,,,,,,,91,0,91,0,,,,,,,,,,,,,,,,,,,,,,,,,,,,,,,,,,,,,,,,,,,,,,,,,2751.584708600072,None,,,,,,,,,,,,,,,,,,,,,,,,,,,,,,,,,,,,,,,,,,,,,,,,,,,,,,,,,effort,42,92,silent,old,white,2749.902757800068,None,y,2749.902757800068,None,"['y', 'return']","[1.3593203000491485, 1.64753059996292]",2749.902757800068,None,,,88YD,001,2023_Aug_30_1723,ExactRep-v3-final,2021.2.3,59.6307900076681,
,,,,,,,,,,,,92,0,92,0,,,,,,,,,,,,,,,,,,,,,,,,,,,,,,,,,,,,,,,,,,,,,,,,,2754.0698926000623,None,,,,,,,,,,,,,,,,,,,,,,,,,,,,,,,,,,,,,,,,,,,,,,,,,,,,,,,,,moment,221,93,sing,new,red,2752.0961140000727,None,y,2752.0961140000727,None,"['y', 'return']","[1.5820552000077441, 1.941857700003311]",2752.0961140000727,None,,,88YD,001,2023_Aug_30_1723,ExactRep-v3-final,2021.2.3,59.6307900076681,
,,,,,,,,,,,,93,0,93,0,,,,,,,,,,,,,,,,,,,,,,,,,,,,,,,,,,,,,,,,,,,,,,,,,2756.7083722000243,None,,,,,,,,,,,,,,,,,,,,,,,,,,,,,,,,,,,,,,,,,,,,,,,,,,,,,,,,,fortune,239,94,sing,new,red,2754.578524500015,None,n,2754.578524500015,None,"['n', 'return']","[1.7234692999627441, 2.083426099969074]",2754.578524500015,None,,,88YD,001,2023_Aug_30_1723,ExactRep-v3-final,2021.2.3,59.6307900076681,
,,,,,,,,,,,,94,0,94,0,,,,,,,,,,,,,,,,,,,,,,,,,,,,,,,,,,,,,,,,,,,,,,,,,2758.676353399991,None,,,,,,,,,,,,,,,,,,,,,,,,,,,,,,,,,,,,,,,,,,,,,,,,,,,,,,,,,soil,13,95,sing,old,red,2757.224078600062,None,y,2757.224078600062,None,"['y', 'return']","[1.0299903000704944, 1.4138924999861047]",2757.224078600062,None,,,88YD,001,2023_Aug_30_1723,ExactRep-v3-final,2021.2.3,59.6307900076681,
,,,,,,,,,,,,95,0,95,0,,,,,,,,,,,,,,,,,,,,,,,,,,,,,,,,,,,,,,,,,,,,,,,,,2760.394454500056,None,,,,,,,,,,,,,,,,,,,,,,,,,,,,,,,,,,,,,,,,,,,,,,,,,,,,,,,,,length,185,96,sing,new,red,2759.1958660000237,None,n,2759.1958660000237,None,"['n', 'return']","[0.7945107999257743, 1.1624168999260291]",2759.1958660000237,None,,,88YD,001,2023_Aug_30_1723,ExactRep-v3-final,2021.2.3,59.6307900076681,
,,,,,,,,,,,,96,0,96,0,,,,,,,,,,,,,,,,,,,,,,,,,,,,,,,,,,,,,,,,,,,,,,,,,2763.080758700031,None,,,,,,,,,,,,,,,,,,,,,,,,,,,,,,,,,,,,,,,,,,,,,,,,,,,,,,,,,corner,72,97,silent,old,white,2760.8970559000736,None,y,2760.8970559000736,None,"['y', 'return']","[1.7168647999642417, 2.1409984999336302]",2760.8970559000736,None,,,88YD,001,2023_Aug_30_1723,ExactRep-v3-final,2021.2.3,59.6307900076681,
,,,,,,,,,,,,97,0,97,0,,,,,,,,,,,,,,,,,,,,,,,,,,,,,,,,,,,,,,,,,,,,,,,,,2765.0572103000013,None,,,,,,,,,,,,,,,,,,,,,,,,,,,,,,,,,,,,,,,,,,,,,,,,,,,,,,,,,diamond,219,98,sing,new,red,2763.5899733999977,None,n,2763.5899733999977,None,"['n', 'return']","[0.9600513000041246, 1.4159915000200272]",2763.5899733999977,None,,,88YD,001,2023_Aug_30_1723,ExactRep-v3-final,2021.2.3,59.6307900076681,
,,,,,,,,,,,,98,0,98,0,,,,,,,,,,,,,,,,,,,,,,,,,,,,,,,,,,,,,,,,,,,,,,,,,2767.2666383000324,None,,,,,,,,,,,,,,,,,,,,,,,,,,,,,,,,,,,,,,,,,,,,,,,,,,,,,,,,,girl,169,99,sing,new,red,2765.5647256000666,None,n,2765.5647256000666,None,"['n', 'return']","[0.5855335000669584, 1.6574039000552148]",2765.5647256000666,None,,,88YD,001,2023_Aug_30_1723,ExactRep-v3-final,2021.2.3,59.6307900076681,
,,,,,,,,,,,,99,0,99,0,,,,,,,,,,,,,,,,,,,,,,,,,,,,,,,,,,,,,,,,,,,,,,,,,2769.502326000016,None,,,,,,,,,,,,,,,,,,,,,,,,,,,,,,,,,,,,,,,,,,,,,,,,,,,,,,,,,blood,60,100,silent,old,white,2767.7710024999687,None,n,2767.7710024999687,None,"['n', 'return']","[1.3794024999951944, 1.6910683000460267]",2767.7710024999687,None,,,88YD,001,2023_Aug_30_1723,ExactRep-v3-final,2021.2.3,59.6307900076681,
,,,,,,,,,,,,100,0,100,0,,,,,,,,,,,,,,,,,,,,,,,,,,,,,,,,,,,,,,,,,,,,,,,,,2772.7241496000206,None,,,,,,,,,,,,,,,,,,,,,,,,,,,,,,,,,,,,,,,,,,,,,,,,,,,,,,,,,death,23,101,sing,old,red,2770.0072962000268,None,y,2770.0072962000268,None,"['n', 'backspace', 'y', 'return']","[0.7747176000848413, 2.086681400076486, 2.3267435000743717, 2.6706782000837848]",2770.0072962000268,None,,,88YD,001,2023_Aug_30_1723,ExactRep-v3-final,2021.2.3,59.6307900076681,
,,,,,,,,,,,,101,0,101,0,,,,,,,,,,,,,,,,,,,,,,,,,,,,,,,,,,,,,,,,,,,,,,,,,2774.440910400008,None,,,,,,,,,,,,,,,,,,,,,,,,,,,,,,,,,,,,,,,,,,,,,,,,,,,,,,,,,cat,8,102,sing,old,red,2773.2402446999913,None,n,2773.2402446999913,None,"['n', 'return']","[0.8217358000110835, 1.16604559996631]",2773.2402446999913,None,,,88YD,001,2023_Aug_30_1723,ExactRep-v3-final,2021.2.3,59.6307900076681,
,,,,,,,,,,,,102,0,102,0,,,,,,,,,,,,,,,,,,,,,,,,,,,,,,,,,,,,,,,,,,,,,,,,,2776.160930300015,None,,,,,,,,,,,,,,,,,,,,,,,,,,,,,,,,,,,,,,,,,,,,,,,,,,,,,,,,,letter,95,103,aloud,old,blue,2774.9424084000057,None,y,2774.9424084000057,None,"['y', 'return']","[0.8236589999869466, 1.1758249000413343]",2774.9424084000057,None,,,88YD,001,2023_Aug_30_1723,ExactRep-v3-final,2021.2.3,59.6307900076681,
,,,,,,,,,,,,103,0,103,0,,,,,,,,,,,,,,,,,,,,,,,,,,,,,,,,,,,,,,,,,,,,,,,,,2777.8278555000434,None,,,,,,,,,,,,,,,,,,,,,,,,,,,,,,,,,,,,,,,,,,,,,,,,,,,,,,,,,ticket,170,104,aloud,new,blue,2776.6784666000167,None,n,2776.6784666000167,None,"['n', 'return']","[0.7356204999377951, 1.1034713999833912]",2776.6784666000167,None,,,88YD,001,2023_Aug_30_1723,ExactRep-v3-final,2021.2.3,59.6307900076681,
,,,,,,,,,,,,104,0,104,0,,,,,,,,,,,,,,,,,,,,,,,,,,,,,,,,,,,,,,,,,,,,,,,,,2779.664609599975,None,,,,,,,,,,,,,,,,,,,,,,,,,,,,,,,,,,,,,,,,,,,,,,,,,,,,,,,,,wife,178,105,aloud,new,blue,2778.338722800021,None,n,2778.338722800021,None,"['n', 'return']","[0.6032505999319255, 1.2912484999978915]",2778.338722800021,None,,,88YD,001,2023_Aug_30_1723,ExactRep-v3-final,2021.2.3,59.6307900076681,
,,,,,,,,,,,,105,0,105,0,,,,,,,,,,,,,,,,,,,,,,,,,,,,,,,,,,,,,,,,,,,,,,,,,2781.640771000064,None,,,,,,,,,,,,,,,,,,,,,,,,,,,,,,,,,,,,,,,,,,,,,,,,,,,,,,,,,colony,27,106,sing,old,red,2780.1841609000694,None,y,2780.1841609000694,None,"['y', 'return']","[0.8941634999355301, 1.4059192999266088]",2780.1841609000694,None,,,88YD,001,2023_Aug_30_1723,ExactRep-v3-final,2021.2.3,59.6307900076681,
,,,,,,,,,,,,106,0,106,0,,,,,,,,,,,,,,,,,,,,,,,,,,,,,,,,,,,,,,,,,,,,,,,,,2783.266531500034,None,,,,,,,,,,,,,,,,,,,,,,,,,,,,,,,,,,,,,,,,,,,,,,,,,,,,,,,,,lip,168,107,aloud,new,blue,2782.151345100021,None,n,2782.151345100021,None,"['n', 'return']","[0.7186030999291688, 1.0707990999799222]",2782.151345100021,None,,,88YD,001,2023_Aug_30_1723,ExactRep-v3-final,2021.2.3,59.6307900076681,
,,,,,,,,,,,,107,0,107,0,,,,,,,,,,,,,,,,,,,,,,,,,,,,,,,,,,,,,,,,,,,,,,,,,2787.0913460999727,None,,,,,,,,,,,,,,,,,,,,,,,,,,,,,,,,,,,,,,,,,,,,,,,,,,,,,,,,,fact,64,108,silent,old,white,2783.7681144999806,None,n,2783.7681144999806,None,"['n', 'return']","[1.5259365999372676, 3.277873400016688]",2783.7681144999806,None,,,88YD,001,2023_Aug_30_1723,ExactRep-v3-final,2021.2.3,59.6307900076681,
,,,,,,,,,,,,108,0,108,0,,,,,,,,,,,,,,,,,,,,,,,,,,,,,,,,,,,,,,,,,,,,,,,,,2791.491281399969,None,,,,,,,,,,,,,,,,,,,,,,,,,,,,,,,,,,,,,,,,,,,,,,,,,,,,,,,,,time,24,109,sing,old,red,2787.6168906000676,None,y,2787.6168906000676,None,"['n', 'backspace', 'y', 'return']","[1.8214599998900667, 3.1170981999021024, 3.365235799923539, 3.8290223999647424]",2787.6168906000676,None,,,88YD,001,2023_Aug_30_1723,ExactRep-v3-final,2021.2.3,59.6307900076681,
,,,,,,,,,,,,109,0,109,0,,,,,,,,,,,,,,,,,,,,,,,,,,,,,,,,,,,,,,,,,,,,,,,,,2794.780050600064,None,,,,,,,,,,,,,,,,,,,,,,,,,,,,,,,,,,,,,,,,,,,,,,,,,,,,,,,,,library,138,110,silent,new,white,2792.007294400013,None,y,2792.007294400013,None,"['y', 'return']","[2.4307355999480933, 2.7350114999571815]",2792.007294400013,None,,,88YD,001,2023_Aug_30_1723,ExactRep-v3-final,2021.2.3,59.6307900076681,
,,,,,,,,,,,,110,0,110,0,,,,,,,,,,,,,,,,,,,,,,,,,,,,,,,,,,,,,,,,,,,,,,,,,2796.980127100018,None,,,,,,,,,,,,,,,,,,,,,,,,,,,,,,,,,,,,,,,,,,,,,,,,,,,,,,,,,city,177,111,sing,new,red,2795.298333200044,None,n,2795.298333200044,None,"['n', 'return']","[1.1961422000313178, 1.6356340000638738]",2795.298333200044,None,,,88YD,001,2023_Aug_30_1723,ExactRep-v3-final,2021.2.3,59.6307900076681,
,,,,,,,,,,,,111,0,111,0,,,,,,,,,,,,,,,,,,,,,,,,,,,,,,,,,,,,,,,,,,,,,,,,,2798.650177499978,None,,,,,,,,,,,,,,,,,,,,,,,,,,,,,,,,,,,,,,,,,,,,,,,,,,,,,,,,,corn,235,112,sing,new,red,2797.494749500067,None,n,2797.494749500067,None,"['n', 'return']","[0.679290400003083, 1.1196462999796495]",2797.494749500067,None,,,88YD,001,2023_Aug_30_1723,ExactRep-v3-final,2021.2.3,59.6307900076681,
,,,,,,,,,,,,112,0,112,0,,,,,,,,,,,,,,,,,,,,,,,,,,,,,,,,,,,,,,,,,,,,,,,,,2802.1182460000273,None,,,,,,,,,,,,,,,,,,,,,,,,,,,,,,,,,,,,,,,,,,,,,,,,,,,,,,,,,green,228,113,aloud,new,blue,2799.1656683000037,None,n,2799.1656683000037,None,"['n', 'return']","[2.0005476999795064, 2.9042791000101715]",2799.1656683000037,None,,,88YD,001,2023_Aug_30_1723,ExactRep-v3-final,2021.2.3,59.6307900076681,
,,,,,,,,,,,,113,0,113,0,,,,,,,,,,,,,,,,,,,,,,,,,,,,,,,,,,,,,,,,,,,,,,,,,2805.489585299976,None,,,,,,,,,,,,,,,,,,,,,,,,,,,,,,,,,,,,,,,,,,,,,,,,,,,,,,,,,storm,32,114,sing,old,red,2802.6231691000285,None,y,2802.6231691000285,None,"['y', 'return']","[2.4467845999170095, 2.8230836999136955]",2802.6231691000285,None,,,88YD,001,2023_Aug_30_1723,ExactRep-v3-final,2021.2.3,59.6307900076681,
,,,,,,,,,,,,114,0,114,0,,,,,,,,,,,,,,,,,,,,,,,,,,,,,,,,,,,,,,,,,,,,,,,,,2808.759892400005,None,,,,,,,,,,,,,,,,,,,,,,,,,,,,,,,,,,,,,,,,,,,,,,,,,,,,,,,,,fun,81,115,aloud,old,blue,2805.996181000024,None,n,2805.996181000024,None,"['n', 'return']","[2.0978368999203667, 2.7220276999287307]",2805.996181000024,None,,,88YD,001,2023_Aug_30_1723,ExactRep-v3-final,2021.2.3,59.6307900076681,
,,,,,,,,,,,,115,0,115,0,,,,,,,,,,,,,,,,,,,,,,,,,,,,,,,,,,,,,,,,,,,,,,,,,2810.9774858000455,None,,,,,,,,,,,,,,,,,,,,,,,,,,,,,,,,,,,,,,,,,,,,,,,,,,,,,,,,,heaven,209,116,sing,new,red,2809.278661899967,None,n,2809.278661899967,None,"['n', 'return']","[1.1112953999545425, 1.6555761999916285]",2809.278661899967,None,,,88YD,001,2023_Aug_30_1723,ExactRep-v3-final,2021.2.3,59.6307900076681,
,,,,,,,,,,,,116,0,116,0,,,,,,,,,,,,,,,,,,,,,,,,,,,,,,,,,,,,,,,,,,,,,,,,,2814.7517992999637,None,,,,,,,,,,,,,,,,,,,,,,,,,,,,,,,,,,,,,,,,,,,,,,,,,,,,,,,,,glory,54,117,silent,old,white,2811.479281799984,None,n,2811.479281799984,None,"['n', 'return']","[2.8226733000483364, 3.2226784999947995]",2811.479281799984,None,,,88YD,001,2023_Aug_30_1723,ExactRep-v3-final,2021.2.3,59.6307900076681,
,,,,,,,,,,,,117,0,117,0,,,,,,,,,,,,,,,,,,,,,,,,,,,,,,,,,,,,,,,,,,,,,,,,,2818.38539020007,None,,,,,,,,,,,,,,,,,,,,,,,,,,,,,,,,,,,,,,,,,,,,,,,,,,,,,,,,,air,132,118,silent,new,white,2815.276080099982,None,n,2815.276080099982,None,"['n', 'return']","[1.5382358999922872, 3.066118499962613]",2815.276080099982,None,,,88YD,001,2023_Aug_30_1723,ExactRep-v3-final,2021.2.3,59.6307900076681,
,,,,,,,,,,,,118,0,118,0,,,,,,,,,,,,,,,,,,,,,,,,,,,,,,,,,,,,,,,,,,,,,,,,,2822.8806968000717,None,,,,,,,,,,,,,,,,,,,,,,,,,,,,,,,,,,,,,,,,,,,,,,,,,,,,,,,,,event,124,119,silent,new,white,2818.8863515000558,None,n,2818.8863515000558,None,"['n', 'return']","[1.375853200093843, 3.9435813000891358]",2818.8863515000558,None,,,88YD,001,2023_Aug_30_1723,ExactRep-v3-final,2021.2.3,59.6307900076681,
,,,,,,,,,,,,119,0,119,0,,,,,,,,,,,,,,,,,,,,,,,,,,,,,,,,,,,,,,,,,,,,,,,,,2830.546686100075,None,,,,,,,,,,,,,,,,,,,,,,,,,,,,,,,,,,,,,,,,,,,,,,,,,,,,,,,,,clock,184,120,aloud,new,blue,2823.3914600000717,None,y,2823.3914600000717,None,"['y', 'backspace', 'y', 'return']","[4.406652100034989, 5.334898700006306, 6.830519999959506, 7.118512299959548]",2823.3914600000717,None,,,88YD,001,2023_Aug_30_1723,ExactRep-v3-final,2021.2.3,59.6307900076681,
,,,,,,,,,,,,120,0,120,0,,,,,,,,,,,,,,,,,,,,,,,,,,,,,,,,,,,,,,,,,,,,,,,,,2835.1533635000233,None,,,,,,,,,,,,,,,,,,,,,,,,,,,,,,,,,,,,,,,,,,,,,,,,,,,,,,,,,picture,47,121,silent,old,white,2831.0511516999686,None,n,2831.0511516999686,None,"['n', 'return']","[3.194789099972695, 4.066816100035794]",2831.0511516999686,None,,,88YD,001,2023_Aug_30_1723,ExactRep-v3-final,2021.2.3,59.6307900076681,
,,,,,,,,,,,,121,0,121,0,,,,,,,,,,,,,,,,,,,,,,,,,,,,,,,,,,,,,,,,,,,,,,,,,2837.1201979999896,None,,,,,,,,,,,,,,,,,,,,,,,,,,,,,,,,,,,,,,,,,,,,,,,,,,,,,,,,,meadow,141,122,silent,new,white,2835.6738171000034,None,n,2835.6738171000034,None,"['n', 'return']","[0.8522145999595523, 1.4122926000272855]",2835.6738171000034,None,,,88YD,001,2023_Aug_30_1723,ExactRep-v3-final,2021.2.3,59.6307900076681,
,,,,,,,,,,,,122,0,122,0,,,,,,,,,,,,,,,,,,,,,,,,,,,,,,,,,,,,,,,,,,,,,,,,,2840.193028900074,None,,,,,,,,,,,,,,,,,,,,,,,,,,,,,,,,,,,,,,,,,,,,,,,,,,,,,,,,,nail,229,123,sing,new,red,2837.6255932999775,None,n,2837.6255932999775,None,"['n', 'return']","[2.1163967999164015, 2.524379499955103]",2837.6255932999775,None,,,88YD,001,2023_Aug_30_1723,ExactRep-v3-final,2021.2.3,59.6307900076681,
,,,,,,,,,,,,123,0,123,0,,,,,,,,,,,,,,,,,,,,,,,,,,,,,,,,,,,,,,,,,,,,,,,,,2843.3624080000445,None,,,,,,,,,,,,,,,,,,,,,,,,,,,,,,,,,,,,,,,,,,,,,,,,,,,,,,,,,table,145,124,silent,new,white,2840.730008200044,None,y,2840.730008200044,None,"['y', 'return']","[2.1719777000835165, 2.596080100047402]",2840.730008200044,None,,,88YD,001,2023_Aug_30_1723,ExactRep-v3-final,2021.2.3,59.6307900076681,
,,,,,,,,,,,,124,0,124,0,,,,,,,,,,,,,,,,,,,,,,,,,,,,,,,,,,,,,,,,,,,,,,,,,2845.5790454000235,None,,,,,,,,,,,,,,,,,,,,,,,,,,,,,,,,,,,,,,,,,,,,,,,,,,,,,,,,,bottle,21,125,sing,old,red,2843.8729366000043,None,y,2843.8729366000043,None,"['y', 'return']","[1.0212961999932304, 1.6691148000536487]",2843.8729366000043,None,,,88YD,001,2023_Aug_30_1723,ExactRep-v3-final,2021.2.3,59.6307900076681,
,,,,,,,,,,,,125,0,125,0,,,,,,,,,,,,,,,,,,,,,,,,,,,,,,,,,,,,,,,,,,,,,,,,,2847.582084599999,None,,,,,,,,,,,,,,,,,,,,,,,,,,,,,,,,,,,,,,,,,,,,,,,,,,,,,,,,,journal,182,126,aloud,new,blue,2846.081912799971,None,n,2846.081912799971,None,"['n', 'return']","[1.0520994000835344, 1.4602513000136241]",2846.081912799971,None,,,88YD,001,2023_Aug_30_1723,ExactRep-v3-final,2021.2.3,59.6307900076681,
,,,,,,,,,,,,126,0,126,0,,,,,,,,,,,,,,,,,,,,,,,,,,,,,,,,,,,,,,,,,,,,,,,,,2849.401654300047,None,,,,,,,,,,,,,,,,,,,,,,,,,,,,,,,,,,,,,,,,,,,,,,,,,,,,,,,,,flesh,4,127,sing,old,red,2848.1071043000557,None,y,2848.1071043000557,None,"['y', 'return']","[0.8587960000149906, 1.2588981000008062]",2848.1071043000557,None,,,88YD,001,2023_Aug_30_1723,ExactRep-v3-final,2021.2.3,59.6307900076681,
,,,,,,,,,,,,127,0,127,0,,,,,,,,,,,,,,,,,,,,,,,,,,,,,,,,,,,,,,,,,,,,,,,,,2851.234295799979,None,,,,,,,,,,,,,,,,,,,,,,,,,,,,,,,,,,,,,,,,,,,,,,,,,,,,,,,,,safety,110,128,aloud,old,blue,2849.928072300041,None,n,2849.928072300041,None,"['n', 'return']","[0.7984928999794647, 1.2702396999811754]",2849.928072300041,None,,,88YD,001,2023_Aug_30_1723,ExactRep-v3-final,2021.2.3,59.6307900076681,
,,,,,,,,,,,,128,0,128,0,,,,,,,,,,,,,,,,,,,,,,,,,,,,,,,,,,,,,,,,,,,,,,,,,2855.5904903999763,None,,,,,,,,,,,,,,,,,,,,,,,,,,,,,,,,,,,,,,,,,,,,,,,,,,,,,,,,,street,164,129,aloud,new,blue,2851.736886800034,None,y,2851.736886800034,None,"['n', 'backspace', 'y', 'return']","[2.013050499954261, 3.133420299971476, 3.46111439995002, 3.805106500047259]",2851.736886800034,None,,,88YD,001,2023_Aug_30_1723,ExactRep-v3-final,2021.2.3,59.6307900076681,
,,,,,,,,,,,,129,0,129,0,,,,,,,,,,,,,,,,,,,,,,,,,,,,,,,,,,,,,,,,,,,,,,,,,2857.8748152999906,None,,,,,,,,,,,,,,,,,,,,,,,,,,,,,,,,,,,,,,,,,,,,,,,,,,,,,,,,,chair,194,130,aloud,new,blue,2856.1073667000746,None,n,2856.1073667000746,None,"['n', 'return']","[1.3625566998962313, 1.730997100006789]",2856.1073667000746,None,,,88YD,001,2023_Aug_30_1723,ExactRep-v3-final,2021.2.3,59.6307900076681,
,,,,,,,,,,,,130,0,130,0,,,,,,,,,,,,,,,,,,,,,,,,,,,,,,,,,,,,,,,,,,,,,,,,,2859.559149699984,None,,,,,,,,,,,,,,,,,,,,,,,,,,,,,,,,,,,,,,,,,,,,,,,,,,,,,,,,,party,29,131,sing,old,red,2858.3757010999834,None,y,2858.3757010999834,None,"['y', 'return']","[0.7586060999892652, 1.1504094999982044]",2858.3757010999834,None,,,88YD,001,2023_Aug_30_1723,ExactRep-v3-final,2021.2.3,59.6307900076681,
