trials_fam.thisRepN,trials_fam.thisTrialN,trials_fam.thisN,trials_fam.thisIndex,trials_prc.thisRepN,trials_prc.thisTrialN,trials_prc.thisN,trials_prc.thisIndex,StudyLoop.thisRepN,StudyLoop.thisTrialN,StudyLoop.thisN,StudyLoop.thisIndex,TestLoop.thisRepN,TestLoop.thisTrialN,TestLoop.thisN,TestLoop.thisIndex,text_colortest.started,text_colortest.stopped,key_colortest.keys,key_colortest.rt,key_colortest.started,key_colortest.stopped,textCondition.started,textCondition.stopped,keyCondition.keys,keyCondition.rt,keyCondition.started,keyCondition.stopped,Condition_between,Condition_counterbal,keyWelcome.keys,keyWelcome.rt,keyWelcome.started,keyWelcome.stopped,welcome_a.started,welcome_a.stopped,welcome_b.started,welcome_b.stopped,welcome_c.started,welcome_c.stopped,welcome_d.started,welcome_d.stopped,welcome_e.started,welcome_e.stopped,welcome_f.started,welcome_f.stopped,key_resp_fam_inst.keys,key_resp_fam_inst.rt,key_resp_fam_inst.started,key_resp_fam_inst.stopped,fam_a.started,fam_a.stopped,fam_b.started,fam_b.stopped,fam_c.started,fam_c.stopped,fam_d.started,fam_d.stopped,fam_e.started,fam_e.stopped,fam_f.started,fam_f.stopped,text_famil.started,text_famil.stopped,textBlank500.started,textBlank500.stopped,key_resp_prc_inst.keys,key_resp_prc_inst.rt,key_resp_prc_inst.started,key_resp_prc_inst.stopped,prac_a.started,prac_a.stopped,prac_b.started,prac_b.stopped,prac_c.started,prac_c.stopped,prac_d.started,prac_d.stopped,prac_e.started,prac_e.stopped,prac_f.started,prac_f.stopped,text_prc_trial.started,text_prc_trial.stopped,key_resp_study_inst.keys,key_resp_study_inst.rt,key_resp_study_inst.started,key_resp_study_inst.stopped,crit_a.started,crit_a.stopped,crit_b.started,crit_b.stopped,crit_c.started,crit_c.stopped,crit_d.started,crit_d.stopped,crit_e.started,crit_e.stopped,crit_f.started,crit_f.stopped,study_word,study_num,study_order,study_type,word_color,textStudy.started,textStudy.stopped,keyStudy.keys,keyStudy.started,keyStudy.stopped,post_study.started,post_study.stopped,key_resp_post_study.keys,key_resp_post_study.rt,key_resp_post_study.started,key_resp_post_study.stopped,test_inst.started,test_inst.stopped,key_resp_test_inst.keys,key_resp_test_inst.rt,key_resp_test_inst.started,key_resp_test_inst.stopped,test_word,test_num,test_order,test_condition,old_new_test,word_color_test,textConf.started,textConf.stopped,Participant Response,textInput.started,textInput.stopped,keyResp.keys,keyResp.rt,keyResp.started,keyResp.stopped,textEnd.started,textEnd.stopped,participant,session,date,expName,psychopyVersion,frameRate,
,,,,,,,,,,,,,,,,47.380770300049335,None,y,2.4940461000660434,47.380770300049335,None,,,,,,,,,,,,,,,,,,,,,,,,,,,,,,,,,,,,,,,,,,,,,,,,,,,,,,,,,,,,,,,,,,,,,,,,,,,,,,,,,,,,,,,,,,,,,,,,,,,,,,,,,,,,,,,,,,,,,,89YE,001,2023_Aug_30_1753,ExactRep-v3-final,2021.2.3,60.0528825795733,
,,,,,,,,,,,,,,,,,,,,,,49.897906800033525,None,e,0.6806662000017241,49.897906800033525,None,,,,,,,,,,,,,,,,,,,,,,,,,,,,,,,,,,,,,,,,,,,,,,,,,,,,,,,,,,,,,,,,,,,,,,,,,,,,,,,,,,,,,,,,,,,,,,,,,,,,,,,,,,,,,,,,89YE,001,2023_Aug_30_1753,ExactRep-v3-final,2021.2.3,60.0528825795733,
,,,,,,,,,,,,,,,,,,,,,,,,,,,,colorfoils,e,space,163.3312337999232,60.703329600044526,None,,,,,,,,,,,,,,,,,,,,,,,,,,,,,,,,,,,,,,,,,,,,,,,,,,,,,,,,,,,,,,,,,,,,,,,,,,,,,,,,,,,,,,,,,,,,,,,,,,,,,,,,,,89YE,001,2023_Aug_30_1753,ExactRep-v3-final,2021.2.3,60.0528825795733,
,,,,,,,,,,,,,,,,,,,,,,,,,,,,,,,,,,50.775575799983926,None,50.775575799983926,None,50.775575799983926,None,50.775575799983926,None,50.775575799983926,None,50.775575799983926,None,space,14.715533399954438,234.20706090005115,None,,,,,,,,,,,,,,,,,,,,,,,,,,,,,,,,,,,,,,,,,,,,,,,,,,,,,,,,,,,,,,,,,,,,,,,,,,,,,,,,,,,,,,,,,,89YE,001,2023_Aug_30_1753,ExactRep-v3-final,2021.2.3,60.0528825795733,
0,0,0,0,,,,,,,,,,,,,,,,,,,,,,,,,,,,,,,,,,,,,,,,,,,,,,,224.23496819997672,None,224.23496819997672,None,224.23496819997672,None,224.23496819997672,None,224.23496819997672,None,224.23496819997672,None,249.03065790003166,None,251.03189220000058,None,,,,,,,,,,,,,,,,,,,,,,,,,,,,,,,,,,,,,,,,,,,,,,,,,,,,,,,,,,,,,,,,,,,,,,,,,,89YE,001,2023_Aug_30_1753,ExactRep-v3-final,2021.2.3,60.0528825795733,
1,0,1,0,,,,,,,,,,,,,,,,,,,,,,,,,,,,,,,,,,,,,,,,,,,,,,,,,,,,,,,,,,,251.53269390005153,None,253.53439589997288,None,,,,,,,,,,,,,,,,,,,,,,,,,,,,,,,,,,,,,,,,,,,,,,,,,,,,,,,,,,,,,,,,,,,,,,,,,,89YE,001,2023_Aug_30_1753,ExactRep-v3-final,2021.2.3,60.0528825795733,
2,0,2,0,,,,,,,,,,,,,,,,,,,,,,,,,,,,,,,,,,,,,,,,,,,,,,,,,,,,,,,,,,,254.07149040000513,None,256.05355780001264,None,,,,,,,,,,,,,,,,,,,,,,,,,,,,,,,,,,,,,,,,,,,,,,,,,,,,,,,,,,,,,,,,,,,,,,,,,,89YE,001,2023_Aug_30_1753,ExactRep-v3-final,2021.2.3,60.0528825795733,
3,0,3,0,,,,,,,,,,,,,,,,,,,,,,,,,,,,,,,,,,,,,,,,,,,,,,,,,,,,,,,,,,,256.55433940002695,None,258.5569336999906,None,,,,,,,,,,,,,,,,,,,,,,,,,,,,,,,,,,,,,,,,,,,,,,,,,,,,,,,,,,,,,,,,,,,,,,,,,,89YE,001,2023_Aug_30_1753,ExactRep-v3-final,2021.2.3,60.0528825795733,
4,0,4,0,,,,,,,,,,,,,,,,,,,,,,,,,,,,,,,,,,,,,,,,,,,,,,,,,,,,,,,,,,,259.0643498999998,None,261.0592704999726,None,,,,,,,,,,,,,,,,,,,,,,,,,,,,,,,,,,,,,,,,,,,,,,,,,,,,,,,,,,,,,,,,,,,,,,,,,,89YE,001,2023_Aug_30_1753,ExactRep-v3-final,2021.2.3,60.0528825795733,
5,0,5,0,,,,,,,,,,,,,,,,,,,,,,,,,,,,,,,,,,,,,,,,,,,,,,,,,,,,,,,,,,,261.55941690003965,None,263.5614662000444,None,,,,,,,,,,,,,,,,,,,,,,,,,,,,,,,,,,,,,,,,,,,,,,,,,,,,,,,,,,,,,,,,,,,,,,,,,,89YE,001,2023_Aug_30_1753,ExactRep-v3-final,2021.2.3,60.0528825795733,
6,0,6,0,,,,,,,,,,,,,,,,,,,,,,,,,,,,,,,,,,,,,,,,,,,,,,,,,,,,,,,,,,,264.06379430007655,None,266.0651667000493,None,,,,,,,,,,,,,,,,,,,,,,,,,,,,,,,,,,,,,,,,,,,,,,,,,,,,,,,,,,,,,,,,,,,,,,,,,,89YE,001,2023_Aug_30_1753,ExactRep-v3-final,2021.2.3,60.0528825795733,
7,0,7,0,,,,,,,,,,,,,,,,,,,,,,,,,,,,,,,,,,,,,,,,,,,,,,,,,,,,,,,,,,,266.5648509999737,None,268.5668963000644,None,,,,,,,,,,,,,,,,,,,,,,,,,,,,,,,,,,,,,,,,,,,,,,,,,,,,,,,,,,,,,,,,,,,,,,,,,,89YE,001,2023_Aug_30_1753,ExactRep-v3-final,2021.2.3,60.0528825795733,
8,0,8,0,,,,,,,,,,,,,,,,,,,,,,,,,,,,,,,,,,,,,,,,,,,,,,,,,,,,,,,,,,,269.0729082999751,None,271.0854314999888,None,,,,,,,,,,,,,,,,,,,,,,,,,,,,,,,,,,,,,,,,,,,,,,,,,,,,,,,,,,,,,,,,,,,,,,,,,,89YE,001,2023_Aug_30_1753,ExactRep-v3-final,2021.2.3,60.0528825795733,
9,0,9,0,,,,,,,,,,,,,,,,,,,,,,,,,,,,,,,,,,,,,,,,,,,,,,,,,,,,,,,,,,,271.58814720006194,None,273.58837850007694,None,,,,,,,,,,,,,,,,,,,,,,,,,,,,,,,,,,,,,,,,,,,,,,,,,,,,,,,,,,,,,,,,,,,,,,,,,,89YE,001,2023_Aug_30_1753,ExactRep-v3-final,2021.2.3,60.0528825795733,
10,0,10,0,,,,,,,,,,,,,,,,,,,,,,,,,,,,,,,,,,,,,,,,,,,,,,,,,,,,,,,,,,,274.09135050000623,None,276.09078900003806,None,,,,,,,,,,,,,,,,,,,,,,,,,,,,,,,,,,,,,,,,,,,,,,,,,,,,,,,,,,,,,,,,,,,,,,,,,,89YE,001,2023_Aug_30_1753,ExactRep-v3-final,2021.2.3,60.0528825795733,
11,0,11,0,,,,,,,,,,,,,,,,,,,,,,,,,,,,,,,,,,,,,,,,,,,,,,,,,,,,,,,,,,,276.5958354000468,None,278.60987779998686,None,,,,,,,,,,,,,,,,,,,,,,,,,,,,,,,,,,,,,,,,,,,,,,,,,,,,,,,,,,,,,,,,,,,,,,,,,,89YE,001,2023_Aug_30_1753,ExactRep-v3-final,2021.2.3,60.0528825795733,
12,0,12,0,,,,,,,,,,,,,,,,,,,,,,,,,,,,,,,,,,,,,,,,,,,,,,,,,,,,,,,,,,,279.11031220003497,None,281.1122939999914,None,,,,,,,,,,,,,,,,,,,,,,,,,,,,,,,,,,,,,,,,,,,,,,,,,,,,,,,,,,,,,,,,,,,,,,,,,,89YE,001,2023_Aug_30_1753,ExactRep-v3-final,2021.2.3,60.0528825795733,
13,0,13,0,,,,,,,,,,,,,,,,,,,,,,,,,,,,,,,,,,,,,,,,,,,,,,,,,,,,,,,,,,,281.6133913000813,None,283.614800499985,None,,,,,,,,,,,,,,,,,,,,,,,,,,,,,,,,,,,,,,,,,,,,,,,,,,,,,,,,,,,,,,,,,,,,,,,,,,89YE,001,2023_Aug_30_1753,ExactRep-v3-final,2021.2.3,60.0528825795733,
14,0,14,0,,,,,,,,,,,,,,,,,,,,,,,,,,,,,,,,,,,,,,,,,,,,,,,,,,,,,,,,,,,284.1152873999672,None,286.1174304999877,None,,,,,,,,,,,,,,,,,,,,,,,,,,,,,,,,,,,,,,,,,,,,,,,,,,,,,,,,,,,,,,,,,,,,,,,,,,89YE,001,2023_Aug_30_1753,ExactRep-v3-final,2021.2.3,60.0528825795733,
,,,,,,,,,,,,,,,,,,,,,,,,,,,,,,,,,,,,,,,,,,,,,,,,,,,,,,,,,,,,,,,,,,space,15.020430699922144,296.80610180005897,None,,,,,,,,,,,,,,,,,,,,,,,,,,,,,,,,,,,,,,,,,,,,,,,,,,,,,,,,,,,,,,,,,,,,,,89YE,001,2023_Aug_30_1753,ExactRep-v3-final,2021.2.3,60.0528825795733,
,,,,0,0,0,0,,,,,,,,,,,,,,,,,,,,,,,,,,,,,,,,,,,,,,,,,,,,,,,,,,,,,,,,,313.91285960003734,None,,,,,286.796131500043,None,286.796131500043,None,286.796131500043,None,286.796131500043,None,286.796131500043,None,286.796131500043,None,311.9098134000087,None,,,,,,,,,,,,,,,,,,,,,,,,,,,,,,,,,,,,,,,,,,,,,,,,,,,,,,,,89YE,001,2023_Aug_30_1753,ExactRep-v3-final,2021.2.3,60.0528825795733,
,,,,1,0,1,0,,,,,,,,,,,,,,,,,,,,,,,,,,,,,,,,,,,,,,,,,,,,,,,,,,,,,,,,,316.4142848000629,None,,,,,,,,,,,,,,,,,314.41200860007666,None,,,,,,,,,,,,,,,,,,,,,,,,,,,,,,,,,,,,,,,,,,,,,,,,,,,,,,,,89YE,001,2023_Aug_30_1753,ExactRep-v3-final,2021.2.3,60.0528825795733,
,,,,2,0,2,0,,,,,,,,,,,,,,,,,,,,,,,,,,,,,,,,,,,,,,,,,,,,,,,,,,,,,,,,,318.91810160002206,None,,,,,,,,,,,,,,,,,316.9143067999976,None,,,,,,,,,,,,,,,,,,,,,,,,,,,,,,,,,,,,,,,,,,,,,,,,,,,,,,,,89YE,001,2023_Aug_30_1753,ExactRep-v3-final,2021.2.3,60.0528825795733,
,,,,3,0,3,0,,,,,,,,,,,,,,,,,,,,,,,,,,,,,,,,,,,,,,,,,,,,,,,,,,,,,,,,,321.4206592000555,None,,,,,,,,,,,,,,,,,319.41699499997776,None,,,,,,,,,,,,,,,,,,,,,,,,,,,,,,,,,,,,,,,,,,,,,,,,,,,,,,,,89YE,001,2023_Aug_30_1753,ExactRep-v3-final,2021.2.3,60.0528825795733,
,,,,4,0,4,0,,,,,,,,,,,,,,,,,,,,,,,,,,,,,,,,,,,,,,,,,,,,,,,,,,,,,,,,,323.92184640001506,None,,,,,,,,,,,,,,,,,321.91995820007287,None,,,,,,,,,,,,,,,,,,,,,,,,,,,,,,,,,,,,,,,,,,,,,,,,,,,,,,,,89YE,001,2023_Aug_30_1753,ExactRep-v3-final,2021.2.3,60.0528825795733,
,,,,5,0,5,0,,,,,,,,,,,,,,,,,,,,,,,,,,,,,,,,,,,,,,,,,,,,,,,,,,,,,,,,,326.44052030006424,None,,,,,,,,,,,,,,,,,324.4249688000418,None,,,,,,,,,,,,,,,,,,,,,,,,,,,,,,,,,,,,,,,,,,,,,,,,,,,,,,,,89YE,001,2023_Aug_30_1753,ExactRep-v3-final,2021.2.3,60.0528825795733,
,,,,6,0,6,0,,,,,,,,,,,,,,,,,,,,,,,,,,,,,,,,,,,,,,,,,,,,,,,,,,,,,,,,,328.94317109999247,None,,,,,,,,,,,,,,,,,326.9412673000479,None,,,,,,,,,,,,,,,,,,,,,,,,,,,,,,,,,,,,,,,,,,,,,,,,,,,,,,,,89YE,001,2023_Aug_30_1753,ExactRep-v3-final,2021.2.3,60.0528825795733,
,,,,7,0,7,0,,,,,,,,,,,,,,,,,,,,,,,,,,,,,,,,,,,,,,,,,,,,,,,,,,,,,,,,,331.44576130004134,None,,,,,,,,,,,,,,,,,329.44379290007055,None,,,,,,,,,,,,,,,,,,,,,,,,,,,,,,,,,,,,,,,,,,,,,,,,,,,,,,,,89YE,001,2023_Aug_30_1753,ExactRep-v3-final,2021.2.3,60.0528825795733,
,,,,8,0,8,0,,,,,,,,,,,,,,,,,,,,,,,,,,,,,,,,,,,,,,,,,,,,,,,,,,,,,,,,,333.9490711999824,None,,,,,,,,,,,,,,,,,331.94750560005195,None,,,,,,,,,,,,,,,,,,,,,,,,,,,,,,,,,,,,,,,,,,,,,,,,,,,,,,,,89YE,001,2023_Aug_30_1753,ExactRep-v3-final,2021.2.3,60.0528825795733,
,,,,9,0,9,0,,,,,,,,,,,,,,,,,,,,,,,,,,,,,,,,,,,,,,,,,,,,,,,,,,,,,,,,,336.45220639999025,None,,,,,,,,,,,,,,,,,334.44941370002925,None,,,,,,,,,,,,,,,,,,,,,,,,,,,,,,,,,,,,,,,,,,,,,,,,,,,,,,,,89YE,001,2023_Aug_30_1753,ExactRep-v3-final,2021.2.3,60.0528825795733,
,,,,10,0,10,0,,,,,,,,,,,,,,,,,,,,,,,,,,,,,,,,,,,,,,,,,,,,,,,,,,,,,,,,,338.9544985999819,None,,,,,,,,,,,,,,,,,336.9510963000357,None,,,,,,,,,,,,,,,,,,,,,,,,,,,,,,,,,,,,,,,,,,,,,,,,,,,,,,,,89YE,001,2023_Aug_30_1753,ExactRep-v3-final,2021.2.3,60.0528825795733,
,,,,11,0,11,0,,,,,,,,,,,,,,,,,,,,,,,,,,,,,,,,,,,,,,,,,,,,,,,,,,,,,,,,,341.45616050006356,None,,,,,,,,,,,,,,,,,339.4538999000797,None,,,,,,,,,,,,,,,,,,,,,,,,,,,,,,,,,,,,,,,,,,,,,,,,,,,,,,,,89YE,001,2023_Aug_30_1753,ExactRep-v3-final,2021.2.3,60.0528825795733,
,,,,12,0,12,0,,,,,,,,,,,,,,,,,,,,,,,,,,,,,,,,,,,,,,,,,,,,,,,,,,,,,,,,,343.9607489000773,None,,,,,,,,,,,,,,,,,341.9570066999877,None,,,,,,,,,,,,,,,,,,,,,,,,,,,,,,,,,,,,,,,,,,,,,,,,,,,,,,,,89YE,001,2023_Aug_30_1753,ExactRep-v3-final,2021.2.3,60.0528825795733,
,,,,13,0,13,0,,,,,,,,,,,,,,,,,,,,,,,,,,,,,,,,,,,,,,,,,,,,,,,,,,,,,,,,,346.47784020006657,None,,,,,,,,,,,,,,,,,344.4771004000213,None,,,,,,,,,,,,,,,,,,,,,,,,,,,,,,,,,,,,,,,,,,,,,,,,,,,,,,,,89YE,001,2023_Aug_30_1753,ExactRep-v3-final,2021.2.3,60.0528825795733,
,,,,14,0,14,0,,,,,,,,,,,,,,,,,,,,,,,,,,,,,,,,,,,,,,,,,,,,,,,,,,,,,,,,,348.97989499999676,None,,,,,,,,,,,,,,,,,346.97838230000343,None,,,,,,,,,,,,,,,,,,,,,,,,,,,,,,,,,,,,,,,,,,,,,,,,,,,,,,,,89YE,001,2023_Aug_30_1753,ExactRep-v3-final,2021.2.3,60.0528825795733,
,,,,,,,,,,,,,,,,,,,,,,,,,,,,,,,,,,,,,,,,,,,,,,,,,,,,,,,,,,,,,,,,,,,,,,,,,,,,,,,,,,,,space,17.152385500026867,359.5940926000476,None,,,,,,,,,,,,,,,,,,,,,,,,,,,,,,,,,,,,,,,,,,,,,,,,,,,,89YE,001,2023_Aug_30_1753,ExactRep-v3-final,2021.2.3,60.0528825795733,
,,,,,,,,0,0,0,0,,,,,,,,,,,,,,,,,,,,,,,,,,,,,,,,,,,,,,,,,,,,,,,,,,,,,378.8628362000454,None,,,,,,,,,,,,,,,,,,,,,,,349.63655100006144,None,349.63655100006144,None,349.63655100006144,None,349.63655100006144,None,349.63655100006144,None,349.63655100006144,None,time,101,1,aloud,white,376.84873480000533,None,None,376.84873480000533,None,,,,,,,,,,,,,,,,,,,,,,,,,,,,,,89YE,001,2023_Aug_30_1753,ExactRep-v3-final,2021.2.3,60.0528825795733,
,,,,,,,,1,0,1,0,,,,,,,,,,,,,,,,,,,,,,,,,,,,,,,,,,,,,,,,,,,,,,,,,,,,,381.378757199971,None,,,,,,,,,,,,,,,,,,,,,,,,,,,,,,,,,,,green,58,2,silent,red,379.3758553999942,None,None,379.3758553999942,None,,,,,,,,,,,,,,,,,,,,,,,,,,,,,,89YE,001,2023_Aug_30_1753,ExactRep-v3-final,2021.2.3,60.0528825795733,
,,,,,,,,2,0,2,0,,,,,,,,,,,,,,,,,,,,,,,,,,,,,,,,,,,,,,,,,,,,,,,,,,,,,383.89831319998484,None,,,,,,,,,,,,,,,,,,,,,,,,,,,,,,,,,,,letter,41,3,silent,red,381.88823969999794,None,None,381.88823969999794,None,,,,,,,,,,,,,,,,,,,,,,,,,,,,,,89YE,001,2023_Aug_30_1753,ExactRep-v3-final,2021.2.3,60.0528825795733,
,,,,,,,,3,0,3,0,,,,,,,,,,,,,,,,,,,,,,,,,,,,,,,,,,,,,,,,,,,,,,,,,,,,,386.40074940002523,None,,,,,,,,,,,,,,,,,,,,,,,,,,,,,,,,,,,coast,95,4,aloud,white,384.39924820000306,None,None,384.39924820000306,None,,,,,,,,,,,,,,,,,,,,,,,,,,,,,,89YE,001,2023_Aug_30_1753,ExactRep-v3-final,2021.2.3,60.0528825795733,
,,,,,,,,4,0,4,0,,,,,,,,,,,,,,,,,,,,,,,,,,,,,,,,,,,,,,,,,,,,,,,,,,,,,388.9033174000215,None,,,,,,,,,,,,,,,,,,,,,,,,,,,,,,,,,,,life,97,5,aloud,white,386.902682700078,None,None,386.902682700078,None,,,,,,,,,,,,,,,,,,,,,,,,,,,,,,89YE,001,2023_Aug_30_1753,ExactRep-v3-final,2021.2.3,60.0528825795733,
,,,,,,,,5,0,5,0,,,,,,,,,,,,,,,,,,,,,,,,,,,,,,,,,,,,,,,,,,,,,,,,,,,,,391.42226500005927,None,,,,,,,,,,,,,,,,,,,,,,,,,,,,,,,,,,,judge,3,6,sing,blue,389.4275362000335,None,None,389.4275362000335,None,,,,,,,,,,,,,,,,,,,,,,,,,,,,,,89YE,001,2023_Aug_30_1753,ExactRep-v3-final,2021.2.3,60.0528825795733,
,,,,,,,,6,0,6,0,,,,,,,,,,,,,,,,,,,,,,,,,,,,,,,,,,,,,,,,,,,,,,,,,,,,,393.92505930003244,None,,,,,,,,,,,,,,,,,,,,,,,,,,,,,,,,,,,author,15,7,sing,blue,391.9243376000086,None,None,391.9243376000086,None,,,,,,,,,,,,,,,,,,,,,,,,,,,,,,89YE,001,2023_Aug_30_1753,ExactRep-v3-final,2021.2.3,60.0528825795733,
,,,,,,,,7,0,7,0,,,,,,,,,,,,,,,,,,,,,,,,,,,,,,,,,,,,,,,,,,,,,,,,,,,,,396.44388080004137,None,,,,,,,,,,,,,,,,,,,,,,,,,,,,,,,,,,,hotel,90,8,aloud,white,394.42950450000353,None,None,394.42950450000353,None,,,,,,,,,,,,,,,,,,,,,,,,,,,,,,89YE,001,2023_Aug_30_1753,ExactRep-v3-final,2021.2.3,60.0528825795733,
,,,,,,,,8,0,8,0,,,,,,,,,,,,,,,,,,,,,,,,,,,,,,,,,,,,,,,,,,,,,,,,,,,,,398.9630407000659,None,,,,,,,,,,,,,,,,,,,,,,,,,,,,,,,,,,,fur,9,9,sing,blue,396.9496688999934,None,None,396.9496688999934,None,,,,,,,,,,,,,,,,,,,,,,,,,,,,,,89YE,001,2023_Aug_30_1753,ExactRep-v3-final,2021.2.3,60.0528825795733,
,,,,,,,,9,0,9,0,,,,,,,,,,,,,,,,,,,,,,,,,,,,,,,,,,,,,,,,,,,,,,,,,,,,,401.48265819996595,None,,,,,,,,,,,,,,,,,,,,,,,,,,,,,,,,,,,hall,68,10,silent,red,399.4688410999952,None,None,399.4688410999952,None,,,,,,,,,,,,,,,,,,,,,,,,,,,,,,89YE,001,2023_Aug_30_1753,ExactRep-v3-final,2021.2.3,60.0528825795733,
,,,,,,,,10,0,10,0,,,,,,,,,,,,,,,,,,,,,,,,,,,,,,,,,,,,,,,,,,,,,,,,,,,,,403.9847510000691,None,,,,,,,,,,,,,,,,,,,,,,,,,,,,,,,,,,,nail,14,11,sing,blue,401.98275189998094,None,None,401.98275189998094,None,,,,,,,,,,,,,,,,,,,,,,,,,,,,,,89YE,001,2023_Aug_30_1753,ExactRep-v3-final,2021.2.3,60.0528825795733,
,,,,,,,,11,0,11,0,,,,,,,,,,,,,,,,,,,,,,,,,,,,,,,,,,,,,,,,,,,,,,,,,,,,,406.4875757000409,None,,,,,,,,,,,,,,,,,,,,,,,,,,,,,,,,,,,storm,83,12,aloud,white,404.48586620006245,None,None,404.48586620006245,None,,,,,,,,,,,,,,,,,,,,,,,,,,,,,,89YE,001,2023_Aug_30_1753,ExactRep-v3-final,2021.2.3,60.0528825795733,
,,,,,,,,12,0,12,0,,,,,,,,,,,,,,,,,,,,,,,,,,,,,,,,,,,,,,,,,,,,,,,,,,,,,409.00729490001686,None,,,,,,,,,,,,,,,,,,,,,,,,,,,,,,,,,,,book,5,13,sing,blue,407.00437440001406,None,None,407.00437440001406,None,,,,,,,,,,,,,,,,,,,,,,,,,,,,,,89YE,001,2023_Aug_30_1753,ExactRep-v3-final,2021.2.3,60.0528825795733,
,,,,,,,,13,0,13,0,,,,,,,,,,,,,,,,,,,,,,,,,,,,,,,,,,,,,,,,,,,,,,,,,,,,,411.52571780001745,None,,,,,,,,,,,,,,,,,,,,,,,,,,,,,,,,,,,river,39,14,silent,red,409.51667270006146,None,None,409.51667270006146,None,,,,,,,,,,,,,,,,,,,,,,,,,,,,,,89YE,001,2023_Aug_30_1753,ExactRep-v3-final,2021.2.3,60.0528825795733,
,,,,,,,,14,0,14,0,,,,,,,,,,,,,,,,,,,,,,,,,,,,,,,,,,,,,,,,,,,,,,,,,,,,,414.0453408000758,None,,,,,,,,,,,,,,,,,,,,,,,,,,,,,,,,,,,lord,44,15,silent,red,412.0387674999656,None,None,412.0387674999656,None,,,,,,,,,,,,,,,,,,,,,,,,,,,,,,89YE,001,2023_Aug_30_1753,ExactRep-v3-final,2021.2.3,60.0528825795733,
,,,,,,,,15,0,15,0,,,,,,,,,,,,,,,,,,,,,,,,,,,,,,,,,,,,,,,,,,,,,,,,,,,,,416.5473651000066,None,,,,,,,,,,,,,,,,,,,,,,,,,,,,,,,,,,,advice,55,16,silent,red,414.54691160004586,None,None,414.54691160004586,None,,,,,,,,,,,,,,,,,,,,,,,,,,,,,,89YE,001,2023_Aug_30_1753,ExactRep-v3-final,2021.2.3,60.0528825795733,
,,,,,,,,16,0,16,0,,,,,,,,,,,,,,,,,,,,,,,,,,,,,,,,,,,,,,,,,,,,,,,,,,,,,419.0504345999798,None,,,,,,,,,,,,,,,,,,,,,,,,,,,,,,,,,,,potato,89,17,aloud,white,417.0489158000564,None,None,417.0489158000564,None,,,,,,,,,,,,,,,,,,,,,,,,,,,,,,89YE,001,2023_Aug_30_1753,ExactRep-v3-final,2021.2.3,60.0528825795733,
,,,,,,,,17,0,17,0,,,,,,,,,,,,,,,,,,,,,,,,,,,,,,,,,,,,,,,,,,,,,,,,,,,,,421.5524630000582,None,,,,,,,,,,,,,,,,,,,,,,,,,,,,,,,,,,,valley,46,18,silent,red,419.55345070001204,None,None,419.55345070001204,None,,,,,,,,,,,,,,,,,,,,,,,,,,,,,,89YE,001,2023_Aug_30_1753,ExactRep-v3-final,2021.2.3,60.0528825795733,
,,,,,,,,18,0,18,0,,,,,,,,,,,,,,,,,,,,,,,,,,,,,,,,,,,,,,,,,,,,,,,,,,,,,424.0554454000667,None,,,,,,,,,,,,,,,,,,,,,,,,,,,,,,,,,,,death,75,19,silent,red,422.0531655000523,None,None,422.0531655000523,None,,,,,,,,,,,,,,,,,,,,,,,,,,,,,,89YE,001,2023_Aug_30_1753,ExactRep-v3-final,2021.2.3,60.0528825795733,
,,,,,,,,19,0,19,0,,,,,,,,,,,,,,,,,,,,,,,,,,,,,,,,,,,,,,,,,,,,,,,,,,,,,426.5742798000574,None,,,,,,,,,,,,,,,,,,,,,,,,,,,,,,,,,,,blossom,61,20,silent,red,424.560177700012,None,None,424.560177700012,None,,,,,,,,,,,,,,,,,,,,,,,,,,,,,,89YE,001,2023_Aug_30_1753,ExactRep-v3-final,2021.2.3,60.0528825795733,
,,,,,,,,20,0,20,0,,,,,,,,,,,,,,,,,,,,,,,,,,,,,,,,,,,,,,,,,,,,,,,,,,,,,429.0815845000325,None,,,,,,,,,,,,,,,,,,,,,,,,,,,,,,,,,,,girl,104,21,aloud,white,427.0745125999674,None,None,427.0745125999674,None,,,,,,,,,,,,,,,,,,,,,,,,,,,,,,89YE,001,2023_Aug_30_1753,ExactRep-v3-final,2021.2.3,60.0528825795733,
,,,,,,,,21,0,21,0,,,,,,,,,,,,,,,,,,,,,,,,,,,,,,,,,,,,,,,,,,,,,,,,,,,,,431.5957627000753,None,,,,,,,,,,,,,,,,,,,,,,,,,,,,,,,,,,,amount,113,22,aloud,white,429.5941241000546,None,None,429.5941241000546,None,,,,,,,,,,,,,,,,,,,,,,,,,,,,,,89YE,001,2023_Aug_30_1753,ExactRep-v3-final,2021.2.3,60.0528825795733,
,,,,,,,,22,0,22,0,,,,,,,,,,,,,,,,,,,,,,,,,,,,,,,,,,,,,,,,,,,,,,,,,,,,,434.09857590007596,None,,,,,,,,,,,,,,,,,,,,,,,,,,,,,,,,,,,season,51,23,silent,red,432.09612760005984,None,None,432.09612760005984,None,,,,,,,,,,,,,,,,,,,,,,,,,,,,,,89YE,001,2023_Aug_30_1753,ExactRep-v3-final,2021.2.3,60.0528825795733,
,,,,,,,,23,0,23,0,,,,,,,,,,,,,,,,,,,,,,,,,,,,,,,,,,,,,,,,,,,,,,,,,,,,,436.6009256000398,None,,,,,,,,,,,,,,,,,,,,,,,,,,,,,,,,,,,slave,16,24,sing,blue,434.59846180002205,None,None,434.59846180002205,None,,,,,,,,,,,,,,,,,,,,,,,,,,,,,,89YE,001,2023_Aug_30_1753,ExactRep-v3-final,2021.2.3,60.0528825795733,
,,,,,,,,24,0,24,0,,,,,,,,,,,,,,,,,,,,,,,,,,,,,,,,,,,,,,,,,,,,,,,,,,,,,439.1241322000278,None,,,,,,,,,,,,,,,,,,,,,,,,,,,,,,,,,,,steam,11,25,sing,blue,437.10868230008055,None,None,437.10868230008055,None,,,,,,,,,,,,,,,,,,,,,,,,,,,,,,89YE,001,2023_Aug_30_1753,ExactRep-v3-final,2021.2.3,60.0528825795733,
,,,,,,,,25,0,25,0,,,,,,,,,,,,,,,,,,,,,,,,,,,,,,,,,,,,,,,,,,,,,,,,,,,,,441.6227963999845,None,,,,,,,,,,,,,,,,,,,,,,,,,,,,,,,,,,,animal,18,26,sing,blue,439.62061139999423,None,None,439.62061139999423,None,,,,,,,,,,,,,,,,,,,,,,,,,,,,,,89YE,001,2023_Aug_30_1753,ExactRep-v3-final,2021.2.3,60.0528825795733,
,,,,,,,,26,0,26,0,,,,,,,,,,,,,,,,,,,,,,,,,,,,,,,,,,,,,,,,,,,,,,,,,,,,,444.1254405999789,None,,,,,,,,,,,,,,,,,,,,,,,,,,,,,,,,,,,grief,54,27,silent,red,442.1236546,None,None,442.1236546,None,,,,,,,,,,,,,,,,,,,,,,,,,,,,,,89YE,001,2023_Aug_30_1753,ExactRep-v3-final,2021.2.3,60.0528825795733,
,,,,,,,,27,0,27,0,,,,,,,,,,,,,,,,,,,,,,,,,,,,,,,,,,,,,,,,,,,,,,,,,,,,,446.62767870002426,None,,,,,,,,,,,,,,,,,,,,,,,,,,,,,,,,,,,answer,71,28,silent,red,444.6270761999767,None,None,444.6270761999767,None,,,,,,,,,,,,,,,,,,,,,,,,,,,,,,89YE,001,2023_Aug_30_1753,ExactRep-v3-final,2021.2.3,60.0528825795733,
,,,,,,,,28,0,28,0,,,,,,,,,,,,,,,,,,,,,,,,,,,,,,,,,,,,,,,,,,,,,,,,,,,,,449.1299290000461,None,,,,,,,,,,,,,,,,,,,,,,,,,,,,,,,,,,,duty,84,29,aloud,white,447.12883629999124,None,None,447.12883629999124,None,,,,,,,,,,,,,,,,,,,,,,,,,,,,,,89YE,001,2023_Aug_30_1753,ExactRep-v3-final,2021.2.3,60.0528825795733,
,,,,,,,,29,0,29,0,,,,,,,,,,,,,,,,,,,,,,,,,,,,,,,,,,,,,,,,,,,,,,,,,,,,,451.6403373000212,None,,,,,,,,,,,,,,,,,,,,,,,,,,,,,,,,,,,salary,31,30,sing,blue,449.63210839999374,None,None,449.63210839999374,None,,,,,,,,,,,,,,,,,,,,,,,,,,,,,,89YE,001,2023_Aug_30_1753,ExactRep-v3-final,2021.2.3,60.0528825795733,
,,,,,,,,30,0,30,0,,,,,,,,,,,,,,,,,,,,,,,,,,,,,,,,,,,,,,,,,,,,,,,,,,,,,454.1525137000717,None,,,,,,,,,,,,,,,,,,,,,,,,,,,,,,,,,,,breast,91,31,aloud,white,452.14951580006164,None,None,452.14951580006164,None,,,,,,,,,,,,,,,,,,,,,,,,,,,,,,89YE,001,2023_Aug_30_1753,ExactRep-v3-final,2021.2.3,60.0528825795733,
,,,,,,,,31,0,31,0,,,,,,,,,,,,,,,,,,,,,,,,,,,,,,,,,,,,,,,,,,,,,,,,,,,,,456.6708498999942,None,,,,,,,,,,,,,,,,,,,,,,,,,,,,,,,,,,,seat,93,32,aloud,white,454.65546699997503,None,None,454.65546699997503,None,,,,,,,,,,,,,,,,,,,,,,,,,,,,,,89YE,001,2023_Aug_30_1753,ExactRep-v3-final,2021.2.3,60.0528825795733,
,,,,,,,,32,0,32,0,,,,,,,,,,,,,,,,,,,,,,,,,,,,,,,,,,,,,,,,,,,,,,,,,,,,,459.1735730000073,None,,,,,,,,,,,,,,,,,,,,,,,,,,,,,,,,,,,plant,112,33,aloud,white,457.17155820003245,None,None,457.17155820003245,None,,,,,,,,,,,,,,,,,,,,,,,,,,,,,,89YE,001,2023_Aug_30_1753,ExactRep-v3-final,2021.2.3,60.0528825795733,
,,,,,,,,33,0,33,0,,,,,,,,,,,,,,,,,,,,,,,,,,,,,,,,,,,,,,,,,,,,,,,,,,,,,461.67710610001814,None,,,,,,,,,,,,,,,,,,,,,,,,,,,,,,,,,,,product,2,34,sing,blue,459.6750587000279,None,None,459.6750587000279,None,,,,,,,,,,,,,,,,,,,,,,,,,,,,,,89YE,001,2023_Aug_30_1753,ExactRep-v3-final,2021.2.3,60.0528825795733,
,,,,,,,,34,0,34,0,,,,,,,,,,,,,,,,,,,,,,,,,,,,,,,,,,,,,,,,,,,,,,,,,,,,,464.1781575999921,None,,,,,,,,,,,,,,,,,,,,,,,,,,,,,,,,,,,rod,72,35,silent,red,462.17731920001097,None,None,462.17731920001097,None,,,,,,,,,,,,,,,,,,,,,,,,,,,,,,89YE,001,2023_Aug_30_1753,ExactRep-v3-final,2021.2.3,60.0528825795733,
,,,,,,,,35,0,35,0,,,,,,,,,,,,,,,,,,,,,,,,,,,,,,,,,,,,,,,,,,,,,,,,,,,,,466.681164800073,None,,,,,,,,,,,,,,,,,,,,,,,,,,,,,,,,,,,woods,100,36,aloud,white,464.68113989999983,None,None,464.68113989999983,None,,,,,,,,,,,,,,,,,,,,,,,,,,,,,,89YE,001,2023_Aug_30_1753,ExactRep-v3-final,2021.2.3,60.0528825795733,
,,,,,,,,36,0,36,0,,,,,,,,,,,,,,,,,,,,,,,,,,,,,,,,,,,,,,,,,,,,,,,,,,,,,469.18463550007436,None,,,,,,,,,,,,,,,,,,,,,,,,,,,,,,,,,,,lad,110,37,aloud,white,467.1818339000456,None,None,467.1818339000456,None,,,,,,,,,,,,,,,,,,,,,,,,,,,,,,89YE,001,2023_Aug_30_1753,ExactRep-v3-final,2021.2.3,60.0528825795733,
,,,,,,,,37,0,37,0,,,,,,,,,,,,,,,,,,,,,,,,,,,,,,,,,,,,,,,,,,,,,,,,,,,,,471.70247470005415,None,,,,,,,,,,,,,,,,,,,,,,,,,,,,,,,,,,,door,64,38,silent,red,469.6909736000234,None,None,469.6909736000234,None,,,,,,,,,,,,,,,,,,,,,,,,,,,,,,89YE,001,2023_Aug_30_1753,ExactRep-v3-final,2021.2.3,60.0528825795733,
,,,,,,,,38,0,38,0,,,,,,,,,,,,,,,,,,,,,,,,,,,,,,,,,,,,,,,,,,,,,,,,,,,,,474.2051190000493,None,,,,,,,,,,,,,,,,,,,,,,,,,,,,,,,,,,,body,96,39,aloud,white,472.20281310006976,None,None,472.20281310006976,None,,,,,,,,,,,,,,,,,,,,,,,,,,,,,,89YE,001,2023_Aug_30_1753,ExactRep-v3-final,2021.2.3,60.0528825795733,
,,,,,,,,39,0,39,0,,,,,,,,,,,,,,,,,,,,,,,,,,,,,,,,,,,,,,,,,,,,,,,,,,,,,476.7077885000035,None,,,,,,,,,,,,,,,,,,,,,,,,,,,,,,,,,,,dream,1,40,sing,blue,474.7066176000517,None,None,474.7066176000517,None,,,,,,,,,,,,,,,,,,,,,,,,,,,,,,89YE,001,2023_Aug_30_1753,ExactRep-v3-final,2021.2.3,60.0528825795733,
,,,,,,,,40,0,40,0,,,,,,,,,,,,,,,,,,,,,,,,,,,,,,,,,,,,,,,,,,,,,,,,,,,,,479.2102892000694,None,,,,,,,,,,,,,,,,,,,,,,,,,,,,,,,,,,,present,99,41,aloud,white,477.20823029999156,None,None,477.20823029999156,None,,,,,,,,,,,,,,,,,,,,,,,,,,,,,,89YE,001,2023_Aug_30_1753,ExactRep-v3-final,2021.2.3,60.0528825795733,
,,,,,,,,41,0,41,0,,,,,,,,,,,,,,,,,,,,,,,,,,,,,,,,,,,,,,,,,,,,,,,,,,,,,481.72971940005664,None,,,,,,,,,,,,,,,,,,,,,,,,,,,,,,,,,,,bar,65,42,silent,red,479.72397689998616,None,None,479.72397689998616,None,,,,,,,,,,,,,,,,,,,,,,,,,,,,,,89YE,001,2023_Aug_30_1753,ExactRep-v3-final,2021.2.3,60.0528825795733,
,,,,,,,,42,0,42,0,,,,,,,,,,,,,,,,,,,,,,,,,,,,,,,,,,,,,,,,,,,,,,,,,,,,,484.24837789998855,None,,,,,,,,,,,,,,,,,,,,,,,,,,,,,,,,,,,fate,19,43,sing,blue,482.24063420004677,None,None,482.24063420004677,None,,,,,,,,,,,,,,,,,,,,,,,,,,,,,,89YE,001,2023_Aug_30_1753,ExactRep-v3-final,2021.2.3,60.0528825795733,
,,,,,,,,43,0,43,0,,,,,,,,,,,,,,,,,,,,,,,,,,,,,,,,,,,,,,,,,,,,,,,,,,,,,486.76747630001046,None,,,,,,,,,,,,,,,,,,,,,,,,,,,,,,,,,,,humour,107,44,aloud,white,484.75572210003156,None,None,484.75572210003156,None,,,,,,,,,,,,,,,,,,,,,,,,,,,,,,89YE,001,2023_Aug_30_1753,ExactRep-v3-final,2021.2.3,60.0528825795733,
,,,,,,,,44,0,44,0,,,,,,,,,,,,,,,,,,,,,,,,,,,,,,,,,,,,,,,,,,,,,,,,,,,,,489.27022399997804,None,,,,,,,,,,,,,,,,,,,,,,,,,,,,,,,,,,,shadow,119,45,aloud,white,487.26791739999317,None,None,487.26791739999317,None,,,,,,,,,,,,,,,,,,,,,,,,,,,,,,89YE,001,2023_Aug_30_1753,ExactRep-v3-final,2021.2.3,60.0528825795733,
,,,,,,,,45,0,45,0,,,,,,,,,,,,,,,,,,,,,,,,,,,,,,,,,,,,,,,,,,,,,,,,,,,,,491.7896762000164,None,,,,,,,,,,,,,,,,,,,,,,,,,,,,,,,,,,,clock,29,46,sing,blue,489.7767556000035,None,None,489.7767556000035,None,,,,,,,,,,,,,,,,,,,,,,,,,,,,,,89YE,001,2023_Aug_30_1753,ExactRep-v3-final,2021.2.3,60.0528825795733,
,,,,,,,,46,0,46,0,,,,,,,,,,,,,,,,,,,,,,,,,,,,,,,,,,,,,,,,,,,,,,,,,,,,,494.2917885000352,None,,,,,,,,,,,,,,,,,,,,,,,,,,,,,,,,,,,friend,47,47,silent,red,492.28993430000264,None,None,492.28993430000264,None,,,,,,,,,,,,,,,,,,,,,,,,,,,,,,89YE,001,2023_Aug_30_1753,ExactRep-v3-final,2021.2.3,60.0528825795733,
,,,,,,,,47,0,47,0,,,,,,,,,,,,,,,,,,,,,,,,,,,,,,,,,,,,,,,,,,,,,,,,,,,,,496.8107798000565,None,,,,,,,,,,,,,,,,,,,,,,,,,,,,,,,,,,,hide,22,48,sing,blue,494.80367110006046,None,None,494.80367110006046,None,,,,,,,,,,,,,,,,,,,,,,,,,,,,,,89YE,001,2023_Aug_30_1753,ExactRep-v3-final,2021.2.3,60.0528825795733,
,,,,,,,,48,0,48,0,,,,,,,,,,,,,,,,,,,,,,,,,,,,,,,,,,,,,,,,,,,,,,,,,,,,,499.329849599977,None,,,,,,,,,,,,,,,,,,,,,,,,,,,,,,,,,,,church,0,49,sing,blue,497.32446849998087,None,None,497.32446849998087,None,,,,,,,,,,,,,,,,,,,,,,,,,,,,,,89YE,001,2023_Aug_30_1753,ExactRep-v3-final,2021.2.3,60.0528825795733,
,,,,,,,,49,0,49,0,,,,,,,,,,,,,,,,,,,,,,,,,,,,,,,,,,,,,,,,,,,,,,,,,,,,,501.8330411000643,None,,,,,,,,,,,,,,,,,,,,,,,,,,,,,,,,,,,gift,66,50,silent,red,499.8311205999926,None,None,499.8311205999926,None,,,,,,,,,,,,,,,,,,,,,,,,,,,,,,89YE,001,2023_Aug_30_1753,ExactRep-v3-final,2021.2.3,60.0528825795733,
,,,,,,,,50,0,50,0,,,,,,,,,,,,,,,,,,,,,,,,,,,,,,,,,,,,,,,,,,,,,,,,,,,,,504.3352616999764,None,,,,,,,,,,,,,,,,,,,,,,,,,,,,,,,,,,,fun,114,51,aloud,white,502.3334693000652,None,None,502.3334693000652,None,,,,,,,,,,,,,,,,,,,,,,,,,,,,,,89YE,001,2023_Aug_30_1753,ExactRep-v3-final,2021.2.3,60.0528825795733,
,,,,,,,,51,0,51,0,,,,,,,,,,,,,,,,,,,,,,,,,,,,,,,,,,,,,,,,,,,,,,,,,,,,,506.83771690004505,None,,,,,,,,,,,,,,,,,,,,,,,,,,,,,,,,,,,woman,7,52,sing,blue,504.83754690003116,None,None,504.83754690003116,None,,,,,,,,,,,,,,,,,,,,,,,,,,,,,,89YE,001,2023_Aug_30_1753,ExactRep-v3-final,2021.2.3,60.0528825795733,
,,,,,,,,52,0,52,0,,,,,,,,,,,,,,,,,,,,,,,,,,,,,,,,,,,,,,,,,,,,,,,,,,,,,509.3569999000756,None,,,,,,,,,,,,,,,,,,,,,,,,,,,,,,,,,,,flag,32,53,sing,blue,507.3424783999799,None,None,507.3424783999799,None,,,,,,,,,,,,,,,,,,,,,,,,,,,,,,89YE,001,2023_Aug_30_1753,ExactRep-v3-final,2021.2.3,60.0528825795733,
,,,,,,,,53,0,53,0,,,,,,,,,,,,,,,,,,,,,,,,,,,,,,,,,,,,,,,,,,,,,,,,,,,,,511.875687199994,None,,,,,,,,,,,,,,,,,,,,,,,,,,,,,,,,,,,window,53,54,silent,red,509.87495019997004,None,None,509.87495019997004,None,,,,,,,,,,,,,,,,,,,,,,,,,,,,,,89YE,001,2023_Aug_30_1753,ExactRep-v3-final,2021.2.3,60.0528825795733,
,,,,,,,,54,0,54,0,,,,,,,,,,,,,,,,,,,,,,,,,,,,,,,,,,,,,,,,,,,,,,,,,,,,,514.3950351000531,None,,,,,,,,,,,,,,,,,,,,,,,,,,,,,,,,,,,mind,42,55,silent,red,512.3848246000707,None,None,512.3848246000707,None,,,,,,,,,,,,,,,,,,,,,,,,,,,,,,89YE,001,2023_Aug_30_1753,ExactRep-v3-final,2021.2.3,60.0528825795733,
,,,,,,,,55,0,55,0,,,,,,,,,,,,,,,,,,,,,,,,,,,,,,,,,,,,,,,,,,,,,,,,,,,,,516.9156178999692,None,,,,,,,,,,,,,,,,,,,,,,,,,,,,,,,,,,,party,13,56,sing,blue,514.906949199969,None,None,514.906949199969,None,,,,,,,,,,,,,,,,,,,,,,,,,,,,,,89YE,001,2023_Aug_30_1753,ExactRep-v3-final,2021.2.3,60.0528825795733,
,,,,,,,,56,0,56,0,,,,,,,,,,,,,,,,,,,,,,,,,,,,,,,,,,,,,,,,,,,,,,,,,,,,,519.417040499975,None,,,,,,,,,,,,,,,,,,,,,,,,,,,,,,,,,,,car,33,57,sing,blue,517.4148494000547,None,None,517.4148494000547,None,,,,,,,,,,,,,,,,,,,,,,,,,,,,,,89YE,001,2023_Aug_30_1753,ExactRep-v3-final,2021.2.3,60.0528825795733,
,,,,,,,,57,0,57,0,,,,,,,,,,,,,,,,,,,,,,,,,,,,,,,,,,,,,,,,,,,,,,,,,,,,,521.9191090000095,None,,,,,,,,,,,,,,,,,,,,,,,,,,,,,,,,,,,coffee,118,58,aloud,white,519.9182909000665,None,None,519.9182909000665,None,,,,,,,,,,,,,,,,,,,,,,,,,,,,,,89YE,001,2023_Aug_30_1753,ExactRep-v3-final,2021.2.3,60.0528825795733,
,,,,,,,,58,0,58,0,,,,,,,,,,,,,,,,,,,,,,,,,,,,,,,,,,,,,,,,,,,,,,,,,,,,,524.4386757999891,None,,,,,,,,,,,,,,,,,,,,,,,,,,,,,,,,,,,king,85,59,aloud,white,522.4283899000147,None,None,522.4283899000147,None,,,,,,,,,,,,,,,,,,,,,,,,,,,,,,89YE,001,2023_Aug_30_1753,ExactRep-v3-final,2021.2.3,60.0528825795733,
,,,,,,,,59,0,59,0,,,,,,,,,,,,,,,,,,,,,,,,,,,,,,,,,,,,,,,,,,,,,,,,,,,,,526.9579061999684,None,,,,,,,,,,,,,,,,,,,,,,,,,,,,,,,,,,,fortune,37,60,sing,blue,524.9427347000455,None,None,524.9427347000455,None,,,,,,,,,,,,,,,,,,,,,,,,,,,,,,89YE,001,2023_Aug_30_1753,ExactRep-v3-final,2021.2.3,60.0528825795733,
,,,,,,,,60,0,60,0,,,,,,,,,,,,,,,,,,,,,,,,,,,,,,,,,,,,,,,,,,,,,,,,,,,,,529.4607993999962,None,,,,,,,,,,,,,,,,,,,,,,,,,,,,,,,,,,,market,34,61,sing,blue,527.459336400032,None,None,527.459336400032,None,,,,,,,,,,,,,,,,,,,,,,,,,,,,,,89YE,001,2023_Aug_30_1753,ExactRep-v3-final,2021.2.3,60.0528825795733,
,,,,,,,,61,0,61,0,,,,,,,,,,,,,,,,,,,,,,,,,,,,,,,,,,,,,,,,,,,,,,,,,,,,,531.9632177000167,None,,,,,,,,,,,,,,,,,,,,,,,,,,,,,,,,,,,custom,77,62,silent,red,529.9609549000161,None,None,529.9609549000161,None,,,,,,,,,,,,,,,,,,,,,,,,,,,,,,89YE,001,2023_Aug_30_1753,ExactRep-v3-final,2021.2.3,60.0528825795733,
,,,,,,,,62,0,62,0,,,,,,,,,,,,,,,,,,,,,,,,,,,,,,,,,,,,,,,,,,,,,,,,,,,,,534.4653191000689,None,,,,,,,,,,,,,,,,,,,,,,,,,,,,,,,,,,,sky,23,63,sing,blue,532.4633252000203,None,None,532.4633252000203,None,,,,,,,,,,,,,,,,,,,,,,,,,,,,,,89YE,001,2023_Aug_30_1753,ExactRep-v3-final,2021.2.3,60.0528825795733,
,,,,,,,,63,0,63,0,,,,,,,,,,,,,,,,,,,,,,,,,,,,,,,,,,,,,,,,,,,,,,,,,,,,,536.9689901999664,None,,,,,,,,,,,,,,,,,,,,,,,,,,,,,,,,,,,butter,40,64,silent,red,534.9679787000641,None,None,534.9679787000641,None,,,,,,,,,,,,,,,,,,,,,,,,,,,,,,89YE,001,2023_Aug_30_1753,ExactRep-v3-final,2021.2.3,60.0528825795733,
,,,,,,,,64,0,64,0,,,,,,,,,,,,,,,,,,,,,,,,,,,,,,,,,,,,,,,,,,,,,,,,,,,,,539.4867960000411,None,,,,,,,,,,,,,,,,,,,,,,,,,,,,,,,,,,,grass,25,65,sing,blue,537.4853508999804,None,None,537.4853508999804,None,,,,,,,,,,,,,,,,,,,,,,,,,,,,,,89YE,001,2023_Aug_30_1753,ExactRep-v3-final,2021.2.3,60.0528825795733,
,,,,,,,,65,0,65,0,,,,,,,,,,,,,,,,,,,,,,,,,,,,,,,,,,,,,,,,,,,,,,,,,,,,,542.0061421999708,None,,,,,,,,,,,,,,,,,,,,,,,,,,,,,,,,,,,justice,87,66,aloud,white,539.9948803000152,None,None,539.9948803000152,None,,,,,,,,,,,,,,,,,,,,,,,,,,,,,,89YE,001,2023_Aug_30_1753,ExactRep-v3-final,2021.2.3,60.0528825795733,
,,,,,,,,66,0,66,0,,,,,,,,,,,,,,,,,,,,,,,,,,,,,,,,,,,,,,,,,,,,,,,,,,,,,544.5088074000087,None,,,,,,,,,,,,,,,,,,,,,,,,,,,,,,,,,,,string,115,67,aloud,white,542.5067387999734,None,None,542.5067387999734,None,,,,,,,,,,,,,,,,,,,,,,,,,,,,,,89YE,001,2023_Aug_30_1753,ExactRep-v3-final,2021.2.3,60.0528825795733,
,,,,,,,,67,0,67,0,,,,,,,,,,,,,,,,,,,,,,,,,,,,,,,,,,,,,,,,,,,,,,,,,,,,,547.011661699973,None,,,,,,,,,,,,,,,,,,,,,,,,,,,,,,,,,,,shock,117,68,aloud,white,545.0094934999943,None,None,545.0094934999943,None,,,,,,,,,,,,,,,,,,,,,,,,,,,,,,89YE,001,2023_Aug_30_1753,ExactRep-v3-final,2021.2.3,60.0528825795733,
,,,,,,,,68,0,68,0,,,,,,,,,,,,,,,,,,,,,,,,,,,,,,,,,,,,,,,,,,,,,,,,,,,,,549.5300761000253,None,,,,,,,,,,,,,,,,,,,,,,,,,,,,,,,,,,,earth,49,69,silent,red,547.5246858000755,None,None,547.5246858000755,None,,,,,,,,,,,,,,,,,,,,,,,,,,,,,,89YE,001,2023_Aug_30_1753,ExactRep-v3-final,2021.2.3,60.0528825795733,
,,,,,,,,69,0,69,0,,,,,,,,,,,,,,,,,,,,,,,,,,,,,,,,,,,,,,,,,,,,,,,,,,,,,552.0496097999858,None,,,,,,,,,,,,,,,,,,,,,,,,,,,,,,,,,,,child,36,70,sing,blue,550.0450246999972,None,None,550.0450246999972,None,,,,,,,,,,,,,,,,,,,,,,,,,,,,,,89YE,001,2023_Aug_30_1753,ExactRep-v3-final,2021.2.3,60.0528825795733,
,,,,,,,,70,0,70,0,,,,,,,,,,,,,,,,,,,,,,,,,,,,,,,,,,,,,,,,,,,,,,,,,,,,,554.5686047000345,None,,,,,,,,,,,,,,,,,,,,,,,,,,,,,,,,,,,month,92,71,aloud,white,552.5621700000484,None,None,552.5621700000484,None,,,,,,,,,,,,,,,,,,,,,,,,,,,,,,89YE,001,2023_Aug_30_1753,ExactRep-v3-final,2021.2.3,60.0528825795733,
,,,,,,,,71,0,71,0,,,,,,,,,,,,,,,,,,,,,,,,,,,,,,,,,,,,,,,,,,,,,,,,,,,,,557.0874644999858,None,,,,,,,,,,,,,,,,,,,,,,,,,,,,,,,,,,,glory,70,72,silent,red,555.0766876999987,None,None,555.0766876999987,None,,,,,,,,,,,,,,,,,,,,,,,,,,,,,,89YE,001,2023_Aug_30_1753,ExactRep-v3-final,2021.2.3,60.0528825795733,
,,,,,,,,72,0,72,0,,,,,,,,,,,,,,,,,,,,,,,,,,,,,,,,,,,,,,,,,,,,,,,,,,,,,559.5903288000263,None,,,,,,,,,,,,,,,,,,,,,,,,,,,,,,,,,,,ocean,48,73,silent,red,557.588305799989,None,None,557.588305799989,None,,,,,,,,,,,,,,,,,,,,,,,,,,,,,,89YE,001,2023_Aug_30_1753,ExactRep-v3-final,2021.2.3,60.0528825795733,
,,,,,,,,73,0,73,0,,,,,,,,,,,,,,,,,,,,,,,,,,,,,,,,,,,,,,,,,,,,,,,,,,,,,562.1091974000446,None,,,,,,,,,,,,,,,,,,,,,,,,,,,,,,,,,,,speech,35,74,sing,blue,560.0984530000715,None,None,560.0984530000715,None,,,,,,,,,,,,,,,,,,,,,,,,,,,,,,89YE,001,2023_Aug_30_1753,ExactRep-v3-final,2021.2.3,60.0528825795733,
,,,,,,,,74,0,74,0,,,,,,,,,,,,,,,,,,,,,,,,,,,,,,,,,,,,,,,,,,,,,,,,,,,,,564.6117050000466,None,,,,,,,,,,,,,,,,,,,,,,,,,,,,,,,,,,,sugar,76,75,silent,red,562.6100999000482,None,None,562.6100999000482,None,,,,,,,,,,,,,,,,,,,,,,,,,,,,,,89YE,001,2023_Aug_30_1753,ExactRep-v3-final,2021.2.3,60.0528825795733,
,,,,,,,,75,0,75,0,,,,,,,,,,,,,,,,,,,,,,,,,,,,,,,,,,,,,,,,,,,,,,,,,,,,,567.1220928999828,None,,,,,,,,,,,,,,,,,,,,,,,,,,,,,,,,,,,fire,81,76,aloud,white,565.1129725000355,None,None,565.1129725000355,None,,,,,,,,,,,,,,,,,,,,,,,,,,,,,,89YE,001,2023_Aug_30_1753,ExactRep-v3-final,2021.2.3,60.0528825795733,
,,,,,,,,76,0,76,0,,,,,,,,,,,,,,,,,,,,,,,,,,,,,,,,,,,,,,,,,,,,,,,,,,,,,569.6380375999724,None,,,,,,,,,,,,,,,,,,,,,,,,,,,,,,,,,,,beast,73,77,silent,red,567.6315642000409,None,None,567.6315642000409,None,,,,,,,,,,,,,,,,,,,,,,,,,,,,,,89YE,001,2023_Aug_30_1753,ExactRep-v3-final,2021.2.3,60.0528825795733,
,,,,,,,,77,0,77,0,,,,,,,,,,,,,,,,,,,,,,,,,,,,,,,,,,,,,,,,,,,,,,,,,,,,,572.1529907999793,None,,,,,,,,,,,,,,,,,,,,,,,,,,,,,,,,,,,engine,56,78,silent,red,570.1507393000647,None,None,570.1507393000647,None,,,,,,,,,,,,,,,,,,,,,,,,,,,,,,89YE,001,2023_Aug_30_1753,ExactRep-v3-final,2021.2.3,60.0528825795733,
,,,,,,,,78,0,78,0,,,,,,,,,,,,,,,,,,,,,,,,,,,,,,,,,,,,,,,,,,,,,,,,,,,,,574.6558463000692,None,,,,,,,,,,,,,,,,,,,,,,,,,,,,,,,,,,,meat,80,79,aloud,white,572.6539906000253,None,None,572.6539906000253,None,,,,,,,,,,,,,,,,,,,,,,,,,,,,,,89YE,001,2023_Aug_30_1753,ExactRep-v3-final,2021.2.3,60.0528825795733,
,,,,,,,,79,0,79,0,,,,,,,,,,,,,,,,,,,,,,,,,,,,,,,,,,,,,,,,,,,,,,,,,,,,,577.1578202999663,None,,,,,,,,,,,,,,,,,,,,,,,,,,,,,,,,,,,palace,103,80,aloud,white,575.1564745000796,None,None,575.1564745000796,None,,,,,,,,,,,,,,,,,,,,,,,,,,,,,,89YE,001,2023_Aug_30_1753,ExactRep-v3-final,2021.2.3,60.0528825795733,
,,,,,,,,80,0,80,0,,,,,,,,,,,,,,,,,,,,,,,,,,,,,,,,,,,,,,,,,,,,,,,,,,,,,579.6605357000371,None,,,,,,,,,,,,,,,,,,,,,,,,,,,,,,,,,,,freedom,24,81,sing,blue,577.6591297000414,None,None,577.6591297000414,None,,,,,,,,,,,,,,,,,,,,,,,,,,,,,,89YE,001,2023_Aug_30_1753,ExactRep-v3-final,2021.2.3,60.0528825795733,
,,,,,,,,81,0,81,0,,,,,,,,,,,,,,,,,,,,,,,,,,,,,,,,,,,,,,,,,,,,,,,,,,,,,582.1625974000199,None,,,,,,,,,,,,,,,,,,,,,,,,,,,,,,,,,,,corn,38,82,sing,blue,580.1614337000065,None,None,580.1614337000065,None,,,,,,,,,,,,,,,,,,,,,,,,,,,,,,89YE,001,2023_Aug_30_1753,ExactRep-v3-final,2021.2.3,60.0528825795733,
,,,,,,,,82,0,82,0,,,,,,,,,,,,,,,,,,,,,,,,,,,,,,,,,,,,,,,,,,,,,,,,,,,,,584.6655661000405,None,,,,,,,,,,,,,,,,,,,,,,,,,,,,,,,,,,,hope,6,83,sing,blue,582.6657839000691,None,None,582.6657839000691,None,,,,,,,,,,,,,,,,,,,,,,,,,,,,,,89YE,001,2023_Aug_30_1753,ExactRep-v3-final,2021.2.3,60.0528825795733,
,,,,,,,,83,0,83,0,,,,,,,,,,,,,,,,,,,,,,,,,,,,,,,,,,,,,,,,,,,,,,,,,,,,,587.184523700038,None,,,,,,,,,,,,,,,,,,,,,,,,,,,,,,,,,,,street,12,84,sing,blue,585.1708306000801,None,None,585.1708306000801,None,,,,,,,,,,,,,,,,,,,,,,,,,,,,,,89YE,001,2023_Aug_30_1753,ExactRep-v3-final,2021.2.3,60.0528825795733,
,,,,,,,,84,0,84,0,,,,,,,,,,,,,,,,,,,,,,,,,,,,,,,,,,,,,,,,,,,,,,,,,,,,,589.6869613999734,None,,,,,,,,,,,,,,,,,,,,,,,,,,,,,,,,,,,memory,57,85,silent,red,587.685611700057,None,None,587.685611700057,None,,,,,,,,,,,,,,,,,,,,,,,,,,,,,,89YE,001,2023_Aug_30_1753,ExactRep-v3-final,2021.2.3,60.0528825795733,
,,,,,,,,85,0,85,0,,,,,,,,,,,,,,,,,,,,,,,,,,,,,,,,,,,,,,,,,,,,,,,,,,,,,592.1895928999875,None,,,,,,,,,,,,,,,,,,,,,,,,,,,,,,,,,,,opinion,102,86,aloud,white,590.1900890000397,None,None,590.1900890000397,None,,,,,,,,,,,,,,,,,,,,,,,,,,,,,,89YE,001,2023_Aug_30_1753,ExactRep-v3-final,2021.2.3,60.0528825795733,
,,,,,,,,86,0,86,0,,,,,,,,,,,,,,,,,,,,,,,,,,,,,,,,,,,,,,,,,,,,,,,,,,,,,594.7089318999788,None,,,,,,,,,,,,,,,,,,,,,,,,,,,,,,,,,,,lake,27,87,sing,blue,592.7018564000027,None,None,592.7018564000027,None,,,,,,,,,,,,,,,,,,,,,,,,,,,,,,89YE,001,2023_Aug_30_1753,ExactRep-v3-final,2021.2.3,60.0528825795733,
,,,,,,,,87,0,87,0,,,,,,,,,,,,,,,,,,,,,,,,,,,,,,,,,,,,,,,,,,,,,,,,,,,,,597.2111376000103,None,,,,,,,,,,,,,,,,,,,,,,,,,,,,,,,,,,,circle,109,88,aloud,white,595.2094284000341,None,None,595.2094284000341,None,,,,,,,,,,,,,,,,,,,,,,,,,,,,,,89YE,001,2023_Aug_30_1753,ExactRep-v3-final,2021.2.3,60.0528825795733,
,,,,,,,,88,0,88,0,,,,,,,,,,,,,,,,,,,,,,,,,,,,,,,,,,,,,,,,,,,,,,,,,,,,,599.730634800042,None,,,,,,,,,,,,,,,,,,,,,,,,,,,,,,,,,,,science,17,89,sing,blue,597.7232600999996,None,None,597.7232600999996,None,,,,,,,,,,,,,,,,,,,,,,,,,,,,,,89YE,001,2023_Aug_30_1753,ExactRep-v3-final,2021.2.3,60.0528825795733,
,,,,,,,,89,0,89,0,,,,,,,,,,,,,,,,,,,,,,,,,,,,,,,,,,,,,,,,,,,,,,,,,,,,,602.2496713000583,None,,,,,,,,,,,,,,,,,,,,,,,,,,,,,,,,,,,wine,105,90,aloud,white,600.2459675000282,None,None,600.2459675000282,None,,,,,,,,,,,,,,,,,,,,,,,,,,,,,,89YE,001,2023_Aug_30_1753,ExactRep-v3-final,2021.2.3,60.0528825795733,
,,,,,,,,90,0,90,0,,,,,,,,,,,,,,,,,,,,,,,,,,,,,,,,,,,,,,,,,,,,,,,,,,,,,604.7687402999727,None,,,,,,,,,,,,,,,,,,,,,,,,,,,,,,,,,,,world,88,91,aloud,white,602.7614873000421,None,None,602.7614873000421,None,,,,,,,,,,,,,,,,,,,,,,,,,,,,,,89YE,001,2023_Aug_30_1753,ExactRep-v3-final,2021.2.3,60.0528825795733,
,,,,,,,,91,0,91,0,,,,,,,,,,,,,,,,,,,,,,,,,,,,,,,,,,,,,,,,,,,,,,,,,,,,,607.2714836000232,None,,,,,,,,,,,,,,,,,,,,,,,,,,,,,,,,,,,cotton,82,92,aloud,white,605.2689094999805,None,None,605.2689094999805,None,,,,,,,,,,,,,,,,,,,,,,,,,,,,,,89YE,001,2023_Aug_30_1753,ExactRep-v3-final,2021.2.3,60.0528825795733,
,,,,,,,,92,0,92,0,,,,,,,,,,,,,,,,,,,,,,,,,,,,,,,,,,,,,,,,,,,,,,,,,,,,,609.7773004000774,None,,,,,,,,,,,,,,,,,,,,,,,,,,,,,,,,,,,virtue,8,93,sing,blue,607.7721937000751,None,None,607.7721937000751,None,,,,,,,,,,,,,,,,,,,,,,,,,,,,,,89YE,001,2023_Aug_30_1753,ExactRep-v3-final,2021.2.3,60.0528825795733,
,,,,,,,,93,0,93,0,,,,,,,,,,,,,,,,,,,,,,,,,,,,,,,,,,,,,,,,,,,,,,,,,,,,,612.298970200005,None,,,,,,,,,,,,,,,,,,,,,,,,,,,,,,,,,,,disease,108,94,aloud,white,610.2911070999689,None,None,610.2911070999689,None,,,,,,,,,,,,,,,,,,,,,,,,,,,,,,89YE,001,2023_Aug_30_1753,ExactRep-v3-final,2021.2.3,60.0528825795733,
,,,,,,,,94,0,94,0,,,,,,,,,,,,,,,,,,,,,,,,,,,,,,,,,,,,,,,,,,,,,,,,,,,,,614.8125536000589,None,,,,,,,,,,,,,,,,,,,,,,,,,,,,,,,,,,,volume,10,95,sing,blue,612.8107789000496,None,None,612.8107789000496,None,,,,,,,,,,,,,,,,,,,,,,,,,,,,,,89YE,001,2023_Aug_30_1753,ExactRep-v3-final,2021.2.3,60.0528825795733,
,,,,,,,,95,0,95,0,,,,,,,,,,,,,,,,,,,,,,,,,,,,,,,,,,,,,,,,,,,,,,,,,,,,,617.314771000063,None,,,,,,,,,,,,,,,,,,,,,,,,,,,,,,,,,,,air,78,96,silent,red,615.3145939999959,None,None,615.3145939999959,None,,,,,,,,,,,,,,,,,,,,,,,,,,,,,,89YE,001,2023_Aug_30_1753,ExactRep-v3-final,2021.2.3,60.0528825795733,
,,,,,,,,96,0,96,0,,,,,,,,,,,,,,,,,,,,,,,,,,,,,,,,,,,,,,,,,,,,,,,,,,,,,619.8170606000349,None,,,,,,,,,,,,,,,,,,,,,,,,,,,,,,,,,,,bird,79,97,sing,blue,617.8160958000226,None,None,617.8160958000226,None,,,,,,,,,,,,,,,,,,,,,,,,,,,,,,89YE,001,2023_Aug_30_1753,ExactRep-v3-final,2021.2.3,60.0528825795733,
,,,,,,,,97,0,97,0,,,,,,,,,,,,,,,,,,,,,,,,,,,,,,,,,,,,,,,,,,,,,,,,,,,,,622.3202811999945,None,,,,,,,,,,,,,,,,,,,,,,,,,,,,,,,,,,,doctor,30,98,sing,blue,620.3175757999998,None,None,620.3175757999998,None,,,,,,,,,,,,,,,,,,,,,,,,,,,,,,89YE,001,2023_Aug_30_1753,ExactRep-v3-final,2021.2.3,60.0528825795733,
,,,,,,,,98,0,98,0,,,,,,,,,,,,,,,,,,,,,,,,,,,,,,,,,,,,,,,,,,,,,,,,,,,,,624.8226175999735,None,,,,,,,,,,,,,,,,,,,,,,,,,,,,,,,,,,,metal,98,99,aloud,white,622.819950700039,None,None,622.819950700039,None,,,,,,,,,,,,,,,,,,,,,,,,,,,,,,89YE,001,2023_Aug_30_1753,ExactRep-v3-final,2021.2.3,60.0528825795733,
,,,,,,,,99,0,99,0,,,,,,,,,,,,,,,,,,,,,,,,,,,,,,,,,,,,,,,,,,,,,,,,,,,,,627.3247567000799,None,,,,,,,,,,,,,,,,,,,,,,,,,,,,,,,,,,,vision,86,100,aloud,white,625.3250739000505,None,None,625.3250739000505,None,,,,,,,,,,,,,,,,,,,,,,,,,,,,,,89YE,001,2023_Aug_30_1753,ExactRep-v3-final,2021.2.3,60.0528825795733,
,,,,,,,,100,0,100,0,,,,,,,,,,,,,,,,,,,,,,,,,,,,,,,,,,,,,,,,,,,,,,,,,,,,,629.843731299974,None,,,,,,,,,,,,,,,,,,,,,,,,,,,,,,,,,,,love,20,101,sing,blue,627.8282939000055,None,None,627.8282939000055,None,,,,,,,,,,,,,,,,,,,,,,,,,,,,,,89YE,001,2023_Aug_30_1753,ExactRep-v3-final,2021.2.3,60.0528825795733,
,,,,,,,,101,0,101,0,,,,,,,,,,,,,,,,,,,,,,,,,,,,,,,,,,,,,,,,,,,,,,,,,,,,,632.3463948999997,None,,,,,,,,,,,,,,,,,,,,,,,,,,,,,,,,,,,charm,28,102,sing,blue,630.3453312000493,None,None,630.3453312000493,None,,,,,,,,,,,,,,,,,,,,,,,,,,,,,,89YE,001,2023_Aug_30_1753,ExactRep-v3-final,2021.2.3,60.0528825795733,
,,,,,,,,102,0,102,0,,,,,,,,,,,,,,,,,,,,,,,,,,,,,,,,,,,,,,,,,,,,,,,,,,,,,634.8524443000788,None,,,,,,,,,,,,,,,,,,,,,,,,,,,,,,,,,,,diamond,62,103,silent,red,632.8471299000084,None,None,632.8471299000084,None,,,,,,,,,,,,,,,,,,,,,,,,,,,,,,89YE,001,2023_Aug_30_1753,ExactRep-v3-final,2021.2.3,60.0528825795733,
,,,,,,,,103,0,103,0,,,,,,,,,,,,,,,,,,,,,,,,,,,,,,,,,,,,,,,,,,,,,,,,,,,,,637.3681463999674,None,,,,,,,,,,,,,,,,,,,,,,,,,,,,,,,,,,,pole,45,104,silent,red,635.3667728999862,None,None,635.3667728999862,None,,,,,,,,,,,,,,,,,,,,,,,,,,,,,,89YE,001,2023_Aug_30_1753,ExactRep-v3-final,2021.2.3,60.0528825795733,
,,,,,,,,104,0,104,0,,,,,,,,,,,,,,,,,,,,,,,,,,,,,,,,,,,,,,,,,,,,,,,,,,,,,639.8704054000555,None,,,,,,,,,,,,,,,,,,,,,,,,,,,,,,,,,,,officer,94,105,aloud,white,637.8684251999948,None,None,637.8684251999948,None,,,,,,,,,,,,,,,,,,,,,,,,,,,,,,89YE,001,2023_Aug_30_1753,ExactRep-v3-final,2021.2.3,60.0528825795733,
,,,,,,,,105,0,105,0,,,,,,,,,,,,,,,,,,,,,,,,,,,,,,,,,,,,,,,,,,,,,,,,,,,,,642.3742584000574,None,,,,,,,,,,,,,,,,,,,,,,,,,,,,,,,,,,,prison,21,106,sing,blue,640.3721086999867,None,None,640.3721086999867,None,,,,,,,,,,,,,,,,,,,,,,,,,,,,,,89YE,001,2023_Aug_30_1753,ExactRep-v3-final,2021.2.3,60.0528825795733,
,,,,,,,,106,0,106,0,,,,,,,,,,,,,,,,,,,,,,,,,,,,,,,,,,,,,,,,,,,,,,,,,,,,,644.8756306000287,None,,,,,,,,,,,,,,,,,,,,,,,,,,,,,,,,,,,victory,4,107,sing,blue,642.8733769999817,None,None,642.8733769999817,None,,,,,,,,,,,,,,,,,,,,,,,,,,,,,,89YE,001,2023_Aug_30_1753,ExactRep-v3-final,2021.2.3,60.0528825795733,
,,,,,,,,107,0,107,0,,,,,,,,,,,,,,,,,,,,,,,,,,,,,,,,,,,,,,,,,,,,,,,,,,,,,647.3778306000168,None,,,,,,,,,,,,,,,,,,,,,,,,,,,,,,,,,,,cattle,59,108,silent,red,645.3763175000204,None,None,645.3763175000204,None,,,,,,,,,,,,,,,,,,,,,,,,,,,,,,89YE,001,2023_Aug_30_1753,ExactRep-v3-final,2021.2.3,60.0528825795733,
,,,,,,,,108,0,108,0,,,,,,,,,,,,,,,,,,,,,,,,,,,,,,,,,,,,,,,,,,,,,,,,,,,,,649.897404300049,None,,,,,,,,,,,,,,,,,,,,,,,,,,,,,,,,,,,ship,52,109,silent,red,647.8912490999792,None,None,647.8912490999792,None,,,,,,,,,,,,,,,,,,,,,,,,,,,,,,89YE,001,2023_Aug_30_1753,ExactRep-v3-final,2021.2.3,60.0528825795733,
,,,,,,,,109,0,109,0,,,,,,,,,,,,,,,,,,,,,,,,,,,,,,,,,,,,,,,,,,,,,,,,,,,,,652.416734599974,None,,,,,,,,,,,,,,,,,,,,,,,,,,,,,,,,,,,passion,106,110,aloud,white,650.4106623000698,None,None,650.4106623000698,None,,,,,,,,,,,,,,,,,,,,,,,,,,,,,,89YE,001,2023_Aug_30_1753,ExactRep-v3-final,2021.2.3,60.0528825795733,
,,,,,,,,110,0,110,0,,,,,,,,,,,,,,,,,,,,,,,,,,,,,,,,,,,,,,,,,,,,,,,,,,,,,654.9361751000397,None,,,,,,,,,,,,,,,,,,,,,,,,,,,,,,,,,,,history,69,111,silent,red,652.9287561000092,None,None,652.9287561000092,None,,,,,,,,,,,,,,,,,,,,,,,,,,,,,,89YE,001,2023_Aug_30_1753,ExactRep-v3-final,2021.2.3,60.0528825795733,
,,,,,,,,111,0,111,0,,,,,,,,,,,,,,,,,,,,,,,,,,,,,,,,,,,,,,,,,,,,,,,,,,,,,657.4544010000536,None,,,,,,,,,,,,,,,,,,,,,,,,,,,,,,,,,,,deed,74,112,silent,red,655.4406373000238,None,None,655.4406373000238,None,,,,,,,,,,,,,,,,,,,,,,,,,,,,,,89YE,001,2023_Aug_30_1753,ExactRep-v3-final,2021.2.3,60.0528825795733,
,,,,,,,,112,0,112,0,,,,,,,,,,,,,,,,,,,,,,,,,,,,,,,,,,,,,,,,,,,,,,,,,,,,,659.9571149999974,None,,,,,,,,,,,,,,,,,,,,,,,,,,,,,,,,,,,insect,63,113,silent,red,657.9553511000704,None,None,657.9553511000704,None,,,,,,,,,,,,,,,,,,,,,,,,,,,,,,89YE,001,2023_Aug_30_1753,ExactRep-v3-final,2021.2.3,60.0528825795733,
,,,,,,,,113,0,113,0,,,,,,,,,,,,,,,,,,,,,,,,,,,,,,,,,,,,,,,,,,,,,,,,,,,,,662.460036000004,None,,,,,,,,,,,,,,,,,,,,,,,,,,,,,,,,,,,college,26,114,sing,blue,660.458496700041,None,None,660.458496700041,None,,,,,,,,,,,,,,,,,,,,,,,,,,,,,,89YE,001,2023_Aug_30_1753,ExactRep-v3-final,2021.2.3,60.0528825795733,
,,,,,,,,114,0,114,0,,,,,,,,,,,,,,,,,,,,,,,,,,,,,,,,,,,,,,,,,,,,,,,,,,,,,664.9622225000057,None,,,,,,,,,,,,,,,,,,,,,,,,,,,,,,,,,,,journal,116,115,aloud,white,662.9603825000813,None,None,662.9603825000813,None,,,,,,,,,,,,,,,,,,,,,,,,,,,,,,89YE,001,2023_Aug_30_1753,ExactRep-v3-final,2021.2.3,60.0528825795733,
,,,,,,,,115,0,115,0,,,,,,,,,,,,,,,,,,,,,,,,,,,,,,,,,,,,,,,,,,,,,,,,,,,,,667.4814809000818,None,,,,,,,,,,,,,,,,,,,,,,,,,,,,,,,,,,,house,60,116,silent,red,665.4768490999704,None,None,665.4768490999704,None,,,,,,,,,,,,,,,,,,,,,,,,,,,,,,89YE,001,2023_Aug_30_1753,ExactRep-v3-final,2021.2.3,60.0528825795733,
,,,,,,,,116,0,116,0,,,,,,,,,,,,,,,,,,,,,,,,,,,,,,,,,,,,,,,,,,,,,,,,,,,,,670.0006311000325,None,,,,,,,,,,,,,,,,,,,,,,,,,,,,,,,,,,,meeting,111,117,aloud,white,667.9931305000791,None,None,667.9931305000791,None,,,,,,,,,,,,,,,,,,,,,,,,,,,,,,89YE,001,2023_Aug_30_1753,ExactRep-v3-final,2021.2.3,60.0528825795733,
,,,,,,,,117,0,117,0,,,,,,,,,,,,,,,,,,,,,,,,,,,,,,,,,,,,,,,,,,,,,,,,,,,,,672.5030160000315,None,,,,,,,,,,,,,,,,,,,,,,,,,,,,,,,,,,,moral,43,118,silent,red,670.5007505000103,None,None,670.5007505000103,None,,,,,,,,,,,,,,,,,,,,,,,,,,,,,,89YE,001,2023_Aug_30_1753,ExactRep-v3-final,2021.2.3,60.0528825795733,
,,,,,,,,118,0,118,0,,,,,,,,,,,,,,,,,,,,,,,,,,,,,,,,,,,,,,,,,,,,,,,,,,,,,675.0223438000539,None,,,,,,,,,,,,,,,,,,,,,,,,,,,,,,,,,,,garden,67,119,silent,red,673.0153303999687,None,None,673.0153303999687,None,,,,,,,,,,,,,,,,,,,,,,,,,,,,,,89YE,001,2023_Aug_30_1753,ExactRep-v3-final,2021.2.3,60.0528825795733,
,,,,,,,,119,0,119,0,,,,,,,,,,,,,,,,,,,,,,,,,,,,,,,,,,,,,,,,,,,,,,,,,,,,,677.541389400023,None,,,,,,,,,,,,,,,,,,,,,,,,,,,,,,,,,,,shoes,50,120,silent,red,675.5379425999708,None,None,675.5379425999708,None,,,,,,,,,,,,,,,,,,,,,,,,,,,,,,89YE,001,2023_Aug_30_1753,ExactRep-v3-final,2021.2.3,60.0528825795733,
,,,,,,,,,,,,,,,,,,,,,,,,,,,,,,,,,,,,,,,,,,,,,,,,,,,,,,,,,,,,,,,,,,,,,,,,,,,,,,,,,,,,,,,,,,,,,,,,,,,,,,,,,,,,,,678.0435222999658,None,space,2.8705281999427825,688.0198439999949,None,,,,,,,,,,,,,,,,,,,,,,,,89YE,001,2023_Aug_30_1753,ExactRep-v3-final,2021.2.3,60.0528825795733,
,,,,,,,,,,,,,,,,,,,,,,,,,,,,,,,,,,,,,,,,,,,,,,,,,,,,,,,,,,,,,,,,,,,,,,,,,,,,,,,,,,,,,,,,,,,,,,,,,,,,,,,,,,,,,,,,,,,,690.9242522000568,None,space,23.439292500028387,700.8993035000749,None,,,,,,,,,,,,,,,,,,89YE,001,2023_Aug_30_1753,ExactRep-v3-final,2021.2.3,60.0528825795733,
,,,,,,,,,,,,0,0,0,0,,,,,,,,,,,,,,,,,,,,,,,,,,,,,,,,,,,,,,,,,,,,,,,,,732.4143717000261,None,,,,,,,,,,,,,,,,,,,,,,,,,,,,,,,,,,,,,,,,,,,,,,,,,,,,,,,,,camp,161,1,sing,new,blue,724.8917840999784,None,n,724.8917840999784,None,"['n', 'return']","[3.2546236999332905, 7.486660699942149]",724.8917840999784,None,,,89YE,001,2023_Aug_30_1753,ExactRep-v3-final,2021.2.3,60.0528825795733,
,,,,,,,,,,,,1,0,1,0,,,,,,,,,,,,,,,,,,,,,,,,,,,,,,,,,,,,,,,,,,,,,,,,,741.3581526000053,None,,,,,,,,,,,,,,,,,,,,,,,,,,,,,,,,,,,,,,,,,,,,,,,,,,,,,,,,,star,136,2,silent,new,red,732.9317953999853,None,n,732.9317953999853,None,"['n', 'return']","[7.206527499947697, 8.382565899984911]",732.9317953999853,None,,,89YE,001,2023_Aug_30_1753,ExactRep-v3-final,2021.2.3,60.0528825795733,
,,,,,,,,,,,,2,0,2,0,,,,,,,,,,,,,,,,,,,,,,,,,,,,,,,,,,,,,,,,,,,,,,,,,744.2149760000175,None,,,,,,,,,,,,,,,,,,,,,,,,,,,,,,,,,,,,,,,,,,,,,,,,,,,,,,,,,method,188,3,aloud,new,white,741.8750032000244,None,y,741.8750032000244,None,"['y', 'return']","[2.1033390999073163, 2.2953479998977855]",741.8750032000244,None,,,89YE,001,2023_Aug_30_1753,ExactRep-v3-final,2021.2.3,60.0528825795733,
,,,,,,,,,,,,3,0,3,0,,,,,,,,,,,,,,,,,,,,,,,,,,,,,,,,,,,,,,,,,,,,,,,,,746.2442067000084,None,,,,,,,,,,,,,,,,,,,,,,,,,,,,,,,,,,,,,,,,,,,,,,,,,,,,,,,,,maiden,215,4,sing,new,blue,744.7437150999904,None,n,744.7437150999904,None,"['n', 'return']","[1.2506729000015184, 1.4667073999298736]",744.7437150999904,None,,,89YE,001,2023_Aug_30_1753,ExactRep-v3-final,2021.2.3,60.0528825795733,
,,,,,,,,,,,,4,0,4,0,,,,,,,,,,,,,,,,,,,,,,,,,,,,,,,,,,,,,,,,,,,,,,,,,747.846603800077,None,,,,,,,,,,,,,,,,,,,,,,,,,,,,,,,,,,,,,,,,,,,,,,,,,,,,,,,,,fun,114,5,aloud,old,white,746.7551179999718,None,n,746.7551179999718,None,"['n', 'return']","[0.8316804999485612, 1.0472637999337167]",746.7551179999718,None,,,89YE,001,2023_Aug_30_1753,ExactRep-v3-final,2021.2.3,60.0528825795733,
,,,,,,,,,,,,5,0,5,0,,,,,,,,,,,,,,,,,,,,,,,,,,,,,,,,,,,,,,,,,,,,,,,,,749.8824166000122,None,,,,,,,,,,,,,,,,,,,,,,,,,,,,,,,,,,,,,,,,,,,,,,,,,,,,,,,,,breast,91,6,aloud,old,white,748.3474436000688,None,y,748.3474436000688,None,"['y', 'return']","[1.2391897999914363, 1.5030264999950305]",748.3474436000688,None,,,89YE,001,2023_Aug_30_1753,ExactRep-v3-final,2021.2.3,60.0528825795733,
,,,,,,,,,,,,6,0,6,0,,,,,,,,,,,,,,,,,,,,,,,,,,,,,,,,,,,,,,,,,,,,,,,,,751.433989000041,None,,,,,,,,,,,,,,,,,,,,,,,,,,,,,,,,,,,,,,,,,,,,,,,,,,,,,,,,,pride,135,7,silent,new,red,750.4021685000043,None,n,750.4021685000043,None,"['n', 'return']","[0.8882221999811009, 0.9925144000444561]",750.4021685000043,None,,,89YE,001,2023_Aug_30_1753,ExactRep-v3-final,2021.2.3,60.0528825795733,
,,,,,,,,,,,,7,0,7,0,,,,,,,,,,,,,,,,,,,,,,,,,,,,,,,,,,,,,,,,,,,,,,,,,753.0517633999698,None,,,,,,,,,,,,,,,,,,,,,,,,,,,,,,,,,,,,,,,,,,,,,,,,,,,,,,,,,ocean,48,8,silent,old,red,751.9502501999959,None,n,751.9502501999959,None,"['n', 'return']","[0.6840750999981537, 1.0522825999651104]",751.9502501999959,None,,,89YE,001,2023_Aug_30_1753,ExactRep-v3-final,2021.2.3,60.0528825795733,
,,,,,,,,,,,,8,0,8,0,,,,,,,,,,,,,,,,,,,,,,,,,,,,,,,,,,,,,,,,,,,,,,,,,754.9067734000273,None,,,,,,,,,,,,,,,,,,,,,,,,,,,,,,,,,,,,,,,,,,,,,,,,,,,,,,,,,quality,157,9,silent,new,red,753.5610511000268,None,n,753.5610511000268,None,"['n', 'return']","[0.9932707999832928, 1.2974151999223977]",753.5610511000268,None,,,89YE,001,2023_Aug_30_1753,ExactRep-v3-final,2021.2.3,60.0528825795733,
,,,,,,,,,,,,9,0,9,0,,,,,,,,,,,,,,,,,,,,,,,,,,,,,,,,,,,,,,,,,,,,,,,,,756.3871957000811,None,,,,,,,,,,,,,,,,,,,,,,,,,,,,,,,,,,,,,,,,,,,,,,,,,,,,,,,,,form,171,10,sing,new,blue,755.4200685999822,None,n,755.4200685999822,None,"['n', 'return']","[0.6222157999873161, 0.9263496999628842]",755.4200685999822,None,,,89YE,001,2023_Aug_30_1753,ExactRep-v3-final,2021.2.3,60.0528825795733,
,,,,,,,,,,,,10,0,10,0,,,,,,,,,,,,,,,,,,,,,,,,,,,,,,,,,,,,,,,,,,,,,,,,,757.9561436000513,None,,,,,,,,,,,,,,,,,,,,,,,,,,,,,,,,,,,,,,,,,,,,,,,,,,,,,,,,,blood,224,11,aloud,new,white,756.8949583000503,None,n,756.8949583000503,None,"['n', 'return']","[0.7077156000304967, 1.019481899915263]",756.8949583000503,None,,,89YE,001,2023_Aug_30_1753,ExactRep-v3-final,2021.2.3,60.0528825795733,
,,,,,,,,,,,,11,0,11,0,,,,,,,,,,,,,,,,,,,,,,,,,,,,,,,,,,,,,,,,,,,,,,,,,760.5924782999791,None,,,,,,,,,,,,,,,,,,,,,,,,,,,,,,,,,,,,,,,,,,,,,,,,,,,,,,,,,dawn,184,12,aloud,new,white,758.4578612999758,None,n,758.4578612999758,None,"['n', 'return']","[1.760530999978073, 2.096494800061919]",758.4578612999758,None,,,89YE,001,2023_Aug_30_1753,ExactRep-v3-final,2021.2.3,60.0528825795733,
,,,,,,,,,,,,12,0,12,0,,,,,,,,,,,,,,,,,,,,,,,,,,,,,,,,,,,,,,,,,,,,,,,,,762.6468584999675,None,,,,,,,,,,,,,,,,,,,,,,,,,,,,,,,,,,,,,,,,,,,,,,,,,,,,,,,,,amount,113,13,aloud,old,white,761.099173799972,None,n,761.099173799972,None,"['n', 'return']","[1.1832895999541506, 1.5033228999236599]",761.099173799972,None,,,89YE,001,2023_Aug_30_1753,ExactRep-v3-final,2021.2.3,60.0528825795733,
,,,,,,,,,,,,13,0,13,0,,,,,,,,,,,,,,,,,,,,,,,,,,,,,,,,,,,,,,,,,,,,,,,,,764.6791917000664,None,,,,,,,,,,,,,,,,,,,,,,,,,,,,,,,,,,,,,,,,,,,,,,,,,,,,,,,,,potato,89,14,aloud,old,white,763.1692837000592,None,y,763.1692837000592,None,"['y', 'return']","[1.1932649000082165, 1.473644300014712]",763.1692837000592,None,,,89YE,001,2023_Aug_30_1753,ExactRep-v3-final,2021.2.3,60.0528825795733,
,,,,,,,,,,,,14,0,14,0,,,,,,,,,,,,,,,,,,,,,,,,,,,,,,,,,,,,,,,,,,,,,,,,,767.1654677999904,None,,,,,,,,,,,,,,,,,,,,,,,,,,,,,,,,,,,,,,,,,,,,,,,,,,,,,,,,,answer,71,15,silent,old,red,765.1857077999739,None,n,765.1857077999739,None,"['n', 'return']","[1.7207345999777317, 1.9451273999875411]",765.1857077999739,None,,,89YE,001,2023_Aug_30_1753,ExactRep-v3-final,2021.2.3,60.0528825795733,
,,,,,,,,,,,,15,0,15,0,,,,,,,,,,,,,,,,,,,,,,,,,,,,,,,,,,,,,,,,,,,,,,,,,769.2542212000117,None,,,,,,,,,,,,,,,,,,,,,,,,,,,,,,,,,,,,,,,,,,,,,,,,,,,,,,,,,shadow,119,16,aloud,old,white,767.6671903000679,None,n,767.6671903000679,None,"['n', 'return']","[1.2636072000022978, 1.5354012000607327]",767.6671903000679,None,,,89YE,001,2023_Aug_30_1753,ExactRep-v3-final,2021.2.3,60.0528825795733,
,,,,,,,,,,,,16,0,16,0,,,,,,,,,,,,,,,,,,,,,,,,,,,,,,,,,,,,,,,,,,,,,,,,,772.0530108000385,None,,,,,,,,,,,,,,,,,,,,,,,,,,,,,,,,,,,,,,,,,,,,,,,,,,,,,,,,,glory,70,17,silent,old,red,769.7857227000641,None,n,769.7857227000641,None,"['n', 'return']","[0.6166599999414757, 2.2247165999142453]",769.7857227000641,None,,,89YE,001,2023_Aug_30_1753,ExactRep-v3-final,2021.2.3,60.0528825795733,
,,,,,,,,,,,,17,0,17,0,,,,,,,,,,,,,,,,,,,,,,,,,,,,,,,,,,,,,,,,,,,,,,,,,773.5540873999707,None,,,,,,,,,,,,,,,,,,,,,,,,,,,,,,,,,,,,,,,,,,,,,,,,,,,,,,,,,chance,191,18,sing,new,blue,772.5567287000595,None,n,772.5567287000595,None,"['n', 'return']","[0.7735757000045851, 0.9656537999399006]",772.5567287000595,None,,,89YE,001,2023_Aug_30_1753,ExactRep-v3-final,2021.2.3,60.0528825795733,
,,,,,,,,,,,,18,0,18,0,,,,,,,,,,,,,,,,,,,,,,,,,,,,,,,,,,,,,,,,,,,,,,,,,775.2388335000724,None,,,,,,,,,,,,,,,,,,,,,,,,,,,,,,,,,,,,,,,,,,,,,,,,,,,,,,,,,anger,185,19,sing,new,blue,774.0587391000008,None,n,774.0587391000008,None,"['n', 'return']","[0.871686500031501, 1.14361899998039]",774.0587391000008,None,,,89YE,001,2023_Aug_30_1753,ExactRep-v3-final,2021.2.3,60.0528825795733,
,,,,,,,,,,,,19,0,19,0,,,,,,,,,,,,,,,,,,,,,,,,,,,,,,,,,,,,,,,,,,,,,,,,,776.6409182000207,None,,,,,,,,,,,,,,,,,,,,,,,,,,,,,,,,,,,,,,,,,,,,,,,,,,,,,,,,,weapon,207,20,sing,new,blue,775.7493604000192,None,n,775.7493604000192,None,"['n', 'return']","[0.5651717999717221, 0.8532499000430107]",775.7493604000192,None,,,89YE,001,2023_Aug_30_1753,ExactRep-v3-final,2021.2.3,60.0528825795733,
,,,,,,,,,,,,20,0,20,0,,,,,,,,,,,,,,,,,,,,,,,,,,,,,,,,,,,,,,,,,,,,,,,,,778.112257800065,None,,,,,,,,,,,,,,,,,,,,,,,,,,,,,,,,,,,,,,,,,,,,,,,,,,,,,,,,,home,229,21,sing,new,blue,777.1560409000376,None,n,777.1560409000376,None,"['n', 'return']","[0.5903375999769196, 0.9185401999857277]",777.1560409000376,None,,,89YE,001,2023_Aug_30_1753,ExactRep-v3-final,2021.2.3,60.0528825795733,
,,,,,,,,,,,,21,0,21,0,,,,,,,,,,,,,,,,,,,,,,,,,,,,,,,,,,,,,,,,,,,,,,,,,780.0124965000432,None,,,,,,,,,,,,,,,,,,,,,,,,,,,,,,,,,,,,,,,,,,,,,,,,,,,,,,,,,dream,1,22,sing,old,blue,778.6441264000023,None,n,778.6441264000023,None,"['n', 'return']","[0.9022545999614522, 1.3182441999670118]",778.6441264000023,None,,,89YE,001,2023_Aug_30_1753,ExactRep-v3-final,2021.2.3,60.0528825795733,
,,,,,,,,,,,,22,0,22,0,,,,,,,,,,,,,,,,,,,,,,,,,,,,,,,,,,,,,,,,,,,,,,,,,789.770153200021,None,,,,,,,,,,,,,,,,,,,,,,,,,,,,,,,,,,,,,,,,,,,,,,,,,,,,,,,,,beast,73,23,silent,old,red,780.5280576000223,None,y,780.5280576000223,None,"['y', 'return']","[8.674541999935172, 9.210337899974547]",780.5280576000223,None,,,89YE,001,2023_Aug_30_1753,ExactRep-v3-final,2021.2.3,60.0528825795733,
,,,,,,,,,,,,23,0,23,0,,,,,,,,,,,,,,,,,,,,,,,,,,,,,,,,,,,,,,,,,,,,,,,,,791.7238953000633,None,,,,,,,,,,,,,,,,,,,,,,,,,,,,,,,,,,,,,,,,,,,,,,,,,,,,,,,,,hotel,90,24,aloud,old,white,790.2741140000289,None,y,790.2741140000289,None,"['y', 'return']","[1.104212100035511, 1.4002869999967515]",790.2741140000289,None,,,89YE,001,2023_Aug_30_1753,ExactRep-v3-final,2021.2.3,60.0528825795733,
,,,,,,,,,,,,24,0,24,0,,,,,,,,,,,,,,,,,,,,,,,,,,,,,,,,,,,,,,,,,,,,,,,,,793.8079959000461,None,,,,,,,,,,,,,,,,,,,,,,,,,,,,,,,,,,,,,,,,,,,,,,,,,,,,,,,,,cottage,141,25,silent,new,red,792.2616654000012,None,y,792.2616654000012,None,"['y', 'return']","[1.2046962999738753, 1.5087839000625536]",792.2616654000012,None,,,89YE,001,2023_Aug_30_1753,ExactRep-v3-final,2021.2.3,60.0528825795733,
,,,,,,,,,,,,25,0,25,0,,,,,,,,,,,,,,,,,,,,,,,,,,,,,,,,,,,,,,,,,,,,,,,,,795.8835533000529,None,,,,,,,,,,,,,,,,,,,,,,,,,,,,,,,,,,,,,,,,,,,,,,,,,,,,,,,,,theory,178,26,aloud,new,white,794.3117056000046,None,n,794.3117056000046,None,"['n', 'return']","[0.7547121999086812, 1.522952999919653]",794.3117056000046,None,,,89YE,001,2023_Aug_30_1753,ExactRep-v3-final,2021.2.3,60.0528825795733,
,,,,,,,,,,,,26,0,26,0,,,,,,,,,,,,,,,,,,,,,,,,,,,,,,,,,,,,,,,,,,,,,,,,,798.2645556000061,None,,,,,,,,,,,,,,,,,,,,,,,,,,,,,,,,,,,,,,,,,,,,,,,,,,,,,,,,,honour,236,27,aloud,new,white,796.3950045000529,None,y,796.3950045000529,None,"['y', 'return']","[1.58338919992093, 1.8233069999841973]",796.3950045000529,None,,,89YE,001,2023_Aug_30_1753,ExactRep-v3-final,2021.2.3,60.0528825795733,
,,,,,,,,,,,,27,0,27,0,,,,,,,,,,,,,,,,,,,,,,,,,,,,,,,,,,,,,,,,,,,,,,,,,799.8999822000042,None,,,,,,,,,,,,,,,,,,,,,,,,,,,,,,,,,,,,,,,,,,,,,,,,,,,,,,,,,clock,29,28,sing,old,blue,798.7809530000668,None,y,798.7809530000668,None,"['y', 'return']","[0.7817378001054749, 1.077470500022173]",798.7809530000668,None,,,89YE,001,2023_Aug_30_1753,ExactRep-v3-final,2021.2.3,60.0528825795733,
,,,,,,,,,,,,28,0,28,0,,,,,,,,,,,,,,,,,,,,,,,,,,,,,,,,,,,,,,,,,,,,,,,,,801.8329705999931,None,,,,,,,,,,,,,,,,,,,,,,,,,,,,,,,,,,,,,,,,,,,,,,,,,,,,,,,,,cost,189,29,sing,new,blue,800.4234043000033,None,n,800.4234043000033,None,"['n', 'return']","[1.1709672000724822, 1.3708932000445202]",800.4234043000033,None,,,89YE,001,2023_Aug_30_1753,ExactRep-v3-final,2021.2.3,60.0528825795733,
,,,,,,,,,,,,29,0,29,0,,,,,,,,,,,,,,,,,,,,,,,,,,,,,,,,,,,,,,,,,,,,,,,,,803.2335809000069,None,,,,,,,,,,,,,,,,,,,,,,,,,,,,,,,,,,,,,,,,,,,,,,,,,,,,,,,,,shock,117,30,aloud,old,white,802.3360671000555,None,y,802.3360671000555,None,"['y', 'return']","[0.5867107000667602, 0.8582433999981731]",802.3360671000555,None,,,89YE,001,2023_Aug_30_1753,ExactRep-v3-final,2021.2.3,60.0528825795733,
,,,,,,,,,,,,30,0,30,0,,,,,,,,,,,,,,,,,,,,,,,,,,,,,,,,,,,,,,,,,,,,,,,,,804.602112499997,None,,,,,,,,,,,,,,,,,,,,,,,,,,,,,,,,,,,,,,,,,,,,,,,,,,,,,,,,,cotton,82,31,aloud,old,white,803.7362196000759,None,y,803.7362196000759,None,"['y', 'return']","[0.5221430000383407, 0.8181005000369623]",803.7362196000759,None,,,89YE,001,2023_Aug_30_1753,ExactRep-v3-final,2021.2.3,60.0528825795733,
,,,,,,,,,,,,31,0,31,0,,,,,,,,,,,,,,,,,,,,,,,,,,,,,,,,,,,,,,,,,,,,,,,,,806.2217405000702,None,,,,,,,,,,,,,,,,,,,,,,,,,,,,,,,,,,,,,,,,,,,,,,,,,,,,,,,,,life,97,32,aloud,old,white,805.1047379999654,None,y,805.1047379999654,None,"['y', 'return']","[0.8897064999910071, 1.081995700020343]",805.1047379999654,None,,,89YE,001,2023_Aug_30_1753,ExactRep-v3-final,2021.2.3,60.0528825795733,
,,,,,,,,,,,,32,0,32,0,,,,,,,,,,,,,,,,,,,,,,,,,,,,,,,,,,,,,,,,,,,,,,,,,808.4448606000515,None,,,,,,,,,,,,,,,,,,,,,,,,,,,,,,,,,,,,,,,,,,,,,,,,,,,,,,,,,nail,14,33,sing,old,blue,806.7253277000273,None,y,806.7253277000273,None,"['y', 'return']","[1.1570443999953568, 1.6689592999173328]",806.7253277000273,None,,,89YE,001,2023_Aug_30_1753,ExactRep-v3-final,2021.2.3,60.0528825795733,
,,,,,,,,,,,,33,0,33,0,,,,,,,,,,,,,,,,,,,,,,,,,,,,,,,,,,,,,,,,,,,,,,,,,809.9310602999758,None,,,,,,,,,,,,,,,,,,,,,,,,,,,,,,,,,,,,,,,,,,,,,,,,,,,,,,,,,kiss,147,34,silent,new,red,808.9566332000541,None,n,808.9566332000541,None,"['n', 'return']","[0.6780362999998033, 0.9338485999032855]",808.9566332000541,None,,,89YE,001,2023_Aug_30_1753,ExactRep-v3-final,2021.2.3,60.0528825795733,
,,,,,,,,,,,,34,0,34,0,,,,,,,,,,,,,,,,,,,,,,,,,,,,,,,,,,,,,,,,,,,,,,,,,811.9280236000195,None,,,,,,,,,,,,,,,,,,,,,,,,,,,,,,,,,,,,,,,,,,,,,,,,,,,,,,,,,engine,56,35,silent,old,red,810.4600097000366,None,y,810.4600097000366,None,"['y', 'return']","[1.1264499999815598, 1.4307635999284685]",810.4600097000366,None,,,89YE,001,2023_Aug_30_1753,ExactRep-v3-final,2021.2.3,60.0528825795733,
,,,,,,,,,,,,35,0,35,0,,,,,,,,,,,,,,,,,,,,,,,,,,,,,,,,,,,,,,,,,,,,,,,,,814.0983458000701,None,,,,,,,,,,,,,,,,,,,,,,,,,,,,,,,,,,,,,,,,,,,,,,,,,,,,,,,,,custom,77,36,silent,old,red,812.4443905000808,None,n,812.4443905000808,None,"['n', 'return']","[1.317897400003858, 1.614087300025858]",812.4443905000808,None,,,89YE,001,2023_Aug_30_1753,ExactRep-v3-final,2021.2.3,60.0528825795733,
,,,,,,,,,,,,36,0,36,0,,,,,,,,,,,,,,,,,,,,,,,,,,,,,,,,,,,,,,,,,,,,,,,,,818.7492718000431,None,,,,,,,,,,,,,,,,,,,,,,,,,,,,,,,,,,,,,,,,,,,,,,,,,,,,,,,,,insect,63,37,silent,old,red,814.6318123000674,None,n,814.6318123000674,None,"['n', 'return']","[3.8107343999436125, 4.0826556999236345]",814.6318123000674,None,,,89YE,001,2023_Aug_30_1753,ExactRep-v3-final,2021.2.3,60.0528825795733,
,,,,,,,,,,,,37,0,37,0,,,,,,,,,,,,,,,,,,,,,,,,,,,,,,,,,,,,,,,,,,,,,,,,,820.1175595000386,None,,,,,,,,,,,,,,,,,,,,,,,,,,,,,,,,,,,,,,,,,,,,,,,,,,,,,,,,,duty,84,38,aloud,old,white,819.2650089000817,None,y,819.2650089000817,None,"['y', 'return']","[0.5613757000537589, 0.8096058000810444]",819.2650089000817,None,,,89YE,001,2023_Aug_30_1753,ExactRep-v3-final,2021.2.3,60.0528825795733,
,,,,,,,,,,,,38,0,38,0,,,,,,,,,,,,,,,,,,,,,,,,,,,,,,,,,,,,,,,,,,,,,,,,,821.6035218000179,None,,,,,,,,,,,,,,,,,,,,,,,,,,,,,,,,,,,,,,,,,,,,,,,,,,,,,,,,,lip,204,39,aloud,new,white,820.6197361999657,None,n,820.6197361999657,None,"['n', 'return']","[0.6870758000295609, 0.950578200048767]",820.6197361999657,None,,,89YE,001,2023_Aug_30_1753,ExactRep-v3-final,2021.2.3,60.0528825795733,
,,,,,,,,,,,,39,0,39,0,,,,,,,,,,,,,,,,,,,,,,,,,,,,,,,,,,,,,,,,,,,,,,,,,823.2892989000538,None,,,,,,,,,,,,,,,,,,,,,,,,,,,,,,,,,,,,,,,,,,,,,,,,,,,,,,,,,grass,25,40,sing,old,blue,822.1103156000609,None,y,822.1103156000609,None,"['y', 'return']","[0.9160647999960929, 1.139964299974963]",822.1103156000609,None,,,89YE,001,2023_Aug_30_1753,ExactRep-v3-final,2021.2.3,60.0528825795733,
,,,,,,,,,,,,40,0,40,0,,,,,,,,,,,,,,,,,,,,,,,,,,,,,,,,,,,,,,,,,,,,,,,,,824.7071123999776,None,,,,,,,,,,,,,,,,,,,,,,,,,,,,,,,,,,,,,,,,,,,,,,,,,,,,,,,,,cabin,155,41,silent,new,red,823.8074897000333,None,n,823.8074897000333,None,"['n', 'return']","[0.6428427000064403, 0.8589352000271901]",823.8074897000333,None,,,89YE,001,2023_Aug_30_1753,ExactRep-v3-final,2021.2.3,60.0528825795733,
,,,,,,,,,,,,41,0,41,0,,,,,,,,,,,,,,,,,,,,,,,,,,,,,,,,,,,,,,,,,,,,,,,,,826.4090875000693,None,,,,,,,,,,,,,,,,,,,,,,,,,,,,,,,,,,,,,,,,,,,,,,,,,,,,,,,,,judge,3,42,sing,old,blue,825.2366471000714,None,n,825.2366471000714,None,"['n', 'return']","[0.9098175000399351, 1.1256600000197068]",825.2366471000714,None,,,89YE,001,2023_Aug_30_1753,ExactRep-v3-final,2021.2.3,60.0528825795733,
,,,,,,,,,,,,42,0,42,0,,,,,,,,,,,,,,,,,,,,,,,,,,,,,,,,,,,,,,,,,,,,,,,,,827.8599041000707,None,,,,,,,,,,,,,,,,,,,,,,,,,,,,,,,,,,,,,,,,,,,,,,,,,,,,,,,,,factory,138,43,silent,new,red,826.926032599993,None,y,826.926032599993,None,"['y', 'return']","[0.6122896999586374, 0.8924162000184879]",826.926032599993,None,,,89YE,001,2023_Aug_30_1753,ExactRep-v3-final,2021.2.3,60.0528825795733,
,,,,,,,,,,,,43,0,43,0,,,,,,,,,,,,,,,,,,,,,,,,,,,,,,,,,,,,,,,,,,,,,,,,,829.4267168000806,None,,,,,,,,,,,,,,,,,,,,,,,,,,,,,,,,,,,,,,,,,,,,,,,,,,,,,,,,,party,13,44,sing,old,blue,828.3828766000224,None,y,828.3828766000224,None,"['y', 'return']","[0.6274085000623018, 1.0036904000444338]",828.3828766000224,None,,,89YE,001,2023_Aug_30_1753,ExactRep-v3-final,2021.2.3,60.0528825795733,
,,,,,,,,,,,,44,0,44,0,,,,,,,,,,,,,,,,,,,,,,,,,,,,,,,,,,,,,,,,,,,,,,,,,831.2623670999892,None,,,,,,,,,,,,,,,,,,,,,,,,,,,,,,,,,,,,,,,,,,,,,,,,,,,,,,,,,woods,100,45,aloud,old,white,829.9345715000527,None,n,829.9345715000527,None,"['n', 'return']","[0.9957464000908658, 1.292110100039281]",829.9345715000527,None,,,89YE,001,2023_Aug_30_1753,ExactRep-v3-final,2021.2.3,60.0528825795733,
,,,,,,,,,,,,45,0,45,0,,,,,,,,,,,,,,,,,,,,,,,,,,,,,,,,,,,,,,,,,,,,,,,,,833.2837604000233,None,,,,,,,,,,,,,,,,,,,,,,,,,,,,,,,,,,,,,,,,,,,,,,,,,,,,,,,,,dollar,168,46,aloud,new,white,831.7829603999853,None,n,831.7829603999853,None,"['n', 'return']","[1.2194758000550792, 1.4513245000271127]",831.7829603999853,None,,,89YE,001,2023_Aug_30_1753,ExactRep-v3-final,2021.2.3,60.0528825795733,
,,,,,,,,,,,,46,0,46,0,,,,,,,,,,,,,,,,,,,,,,,,,,,,,,,,,,,,,,,,,,,,,,,,,834.6497545000166,None,,,,,,,,,,,,,,,,,,,,,,,,,,,,,,,,,,,,,,,,,,,,,,,,,,,,,,,,,garden,67,47,silent,old,red,833.8149045000318,None,y,833.8149045000318,None,"['y', 'return']","[0.5395085000200197, 0.7874443000182509]",833.8149045000318,None,,,89YE,001,2023_Aug_30_1753,ExactRep-v3-final,2021.2.3,60.0528825795733,
,,,,,,,,,,,,47,0,47,0,,,,,,,,,,,,,,,,,,,,,,,,,,,,,,,,,,,,,,,,,,,,,,,,,836.2506887000054,None,,,,,,,,,,,,,,,,,,,,,,,,,,,,,,,,,,,,,,,,,,,,,,,,,,,,,,,,,storm,83,48,aloud,old,white,835.1658546000253,None,y,835.1658546000253,None,"['y', 'return']","[0.812548500020057, 1.036516899941489]",835.1658546000253,None,,,89YE,001,2023_Aug_30_1753,ExactRep-v3-final,2021.2.3,60.0528825795733,
,,,,,,,,,,,,48,0,48,0,,,,,,,,,,,,,,,,,,,,,,,,,,,,,,,,,,,,,,,,,,,,,,,,,837.7855545000639,None,,,,,,,,,,,,,,,,,,,,,,,,,,,,,,,,,,,,,,,,,,,,,,,,,,,,,,,,,teacher,214,49,aloud,new,white,836.7517615000252,None,y,836.7517615000252,None,"['y', 'return']","[0.706548499991186, 0.9865830999333411]",836.7517615000252,None,,,89YE,001,2023_Aug_30_1753,ExactRep-v3-final,2021.2.3,60.0528825795733,
,,,,,,,,,,,,49,0,49,0,,,,,,,,,,,,,,,,,,,,,,,,,,,,,,,,,,,,,,,,,,,,,,,,,839.353534599999,None,,,,,,,,,,,,,,,,,,,,,,,,,,,,,,,,,,,,,,,,,,,,,,,,,,,,,,,,,steam,11,50,sing,old,blue,838.2877957000164,None,y,838.2877957000164,None,"['y', 'return']","[0.8025155999930575, 1.0267737000249326]",838.2877957000164,None,,,89YE,001,2023_Aug_30_1753,ExactRep-v3-final,2021.2.3,60.0528825795733,
,,,,,,,,,,,,50,0,50,0,,,,,,,,,,,,,,,,,,,,,,,,,,,,,,,,,,,,,,,,,,,,,,,,,840.8748904999811,None,,,,,,,,,,,,,,,,,,,,,,,,,,,,,,,,,,,,,,,,,,,,,,,,,,,,,,,,,stone,167,51,sing,new,blue,839.8592327000806,None,n,839.8592327000806,None,"['n', 'return']","[0.7831574999727309, 0.9752248999429867]",839.8592327000806,None,,,89YE,001,2023_Aug_30_1753,ExactRep-v3-final,2021.2.3,60.0528825795733,
,,,,,,,,,,,,51,0,51,0,,,,,,,,,,,,,,,,,,,,,,,,,,,,,,,,,,,,,,,,,,,,,,,,,842.2563526000595,None,,,,,,,,,,,,,,,,,,,,,,,,,,,,,,,,,,,,,,,,,,,,,,,,,,,,,,,,,memory,57,52,silent,old,red,841.3923575000372,None,y,841.3923575000372,None,"['y', 'return']","[0.5619826000183821, 0.8179459000239149]",841.3923575000372,None,,,89YE,001,2023_Aug_30_1753,ExactRep-v3-final,2021.2.3,60.0528825795733,
,,,,,,,,,,,,52,0,52,0,,,,,,,,,,,,,,,,,,,,,,,,,,,,,,,,,,,,,,,,,,,,,,,,,845.2096354999812,None,,,,,,,,,,,,,,,,,,,,,,,,,,,,,,,,,,,,,,,,,,,,,,,,,,,,,,,,,boulder,196,53,aloud,new,white,842.7584883000236,None,y,842.7584883000236,None,"['n', 'backspace', 'y', 'return']","[0.7398893999634311, 1.7558438999112695, 1.948101699934341, 2.4038730999454856]",842.7584883000236,None,,,89YE,001,2023_Aug_30_1753,ExactRep-v3-final,2021.2.3,60.0528825795733,
,,,,,,,,,,,,53,0,53,0,,,,,,,,,,,,,,,,,,,,,,,,,,,,,,,,,,,,,,,,,,,,,,,,,846.5313131000148,None,,,,,,,,,,,,,,,,,,,,,,,,,,,,,,,,,,,,,,,,,,,,,,,,,,,,,,,,,animal,18,54,sing,old,blue,845.7157985999947,None,y,845.7157985999947,None,"['y', 'return']","[0.5268030000152066, 0.7745109000243247]",845.7157985999947,None,,,89YE,001,2023_Aug_30_1753,ExactRep-v3-final,2021.2.3,60.0528825795733,
,,,,,,,,,,,,54,0,54,0,,,,,,,,,,,,,,,,,,,,,,,,,,,,,,,,,,,,,,,,,,,,,,,,,847.9631417000201,None,,,,,,,,,,,,,,,,,,,,,,,,,,,,,,,,,,,,,,,,,,,,,,,,,,,,,,,,,silence,218,55,aloud,new,white,847.0448502000654,None,y,847.0448502000654,None,"['y', 'return']","[0.6374458000063896, 0.8776175000239164]",847.0448502000654,None,,,89YE,001,2023_Aug_30_1753,ExactRep-v3-final,2021.2.3,60.0528825795733,
,,,,,,,,,,,,55,0,55,0,,,,,,,,,,,,,,,,,,,,,,,,,,,,,,,,,,,,,,,,,,,,,,,,,849.3471792000346,None,,,,,,,,,,,,,,,,,,,,,,,,,,,,,,,,,,,,,,,,,,,,,,,,,,,,,,,,,flood,122,56,silent,new,red,848.4639032999985,None,n,848.4639032999985,None,"['n', 'return']","[0.6504145000362769, 0.8426850000396371]",848.4639032999985,None,,,89YE,001,2023_Aug_30_1753,ExactRep-v3-final,2021.2.3,60.0528825795733,
,,,,,,,,,,,,56,0,56,0,,,,,,,,,,,,,,,,,,,,,,,,,,,,,,,,,,,,,,,,,,,,,,,,,850.7150209000101,None,,,,,,,,,,,,,,,,,,,,,,,,,,,,,,,,,,,,,,,,,,,,,,,,,,,,,,,,,opinion,102,57,aloud,old,white,849.8490805000765,None,y,849.8490805000765,None,"['y', 'return']","[0.5616348000476137, 0.8252094000345096]",849.8490805000765,None,,,89YE,001,2023_Aug_30_1753,ExactRep-v3-final,2021.2.3,60.0528825795733,
,,,,,,,,,,,,57,0,57,0,,,,,,,,,,,,,,,,,,,,,,,,,,,,,,,,,,,,,,,,,,,,,,,,,852.7677119000582,None,,,,,,,,,,,,,,,,,,,,,,,,,,,,,,,,,,,,,,,,,,,,,,,,,,,,,,,,,leader,145,58,silent,new,red,851.21656109998,None,y,851.21656109998,None,"['y', 'return']","[1.1857430000090972, 1.5142855000449345]",851.21656109998,None,,,89YE,001,2023_Aug_30_1753,ExactRep-v3-final,2021.2.3,60.0528825795733,
,,,,,,,,,,,,58,0,58,0,,,,,,,,,,,,,,,,,,,,,,,,,,,,,,,,,,,,,,,,,,,,,,,,,855.4577392999781,None,,,,,,,,,,,,,,,,,,,,,,,,,,,,,,,,,,,,,,,,,,,,,,,,,,,,,,,,,river,39,59,silent,old,red,853.2723037999822,None,n,853.2723037999822,None,"['n', 'return']","[1.8820061000296846, 2.146293199970387]",853.2723037999822,None,,,89YE,001,2023_Aug_30_1753,ExactRep-v3-final,2021.2.3,60.0528825795733,
,,,,,,,,,,,,59,0,59,0,,,,,,,,,,,,,,,,,,,,,,,,,,,,,,,,,,,,,,,,,,,,,,,,,857.1234624000499,None,,,,,,,,,,,,,,,,,,,,,,,,,,,,,,,,,,,,,,,,,,,,,,,,,,,,,,,,,mother,139,60,silent,new,red,855.9769175000256,None,n,855.9769175000256,None,"['n', 'return']","[0.8893706999951974, 1.0973615000257269]",855.9769175000256,None,,,89YE,001,2023_Aug_30_1753,ExactRep-v3-final,2021.2.3,60.0528825795733,
,,,,,,,,,,,,60,0,60,0,,,,,,,,,,,,,,,,,,,,,,,,,,,,,,,,,,,,,,,,,,,,,,,,,858.9064612999791,None,,,,,,,,,,,,,,,,,,,,,,,,,,,,,,,,,,,,,,,,,,,,,,,,,,,,,,,,,fault,156,61,silent,new,red,857.643863699981,None,n,857.643863699981,None,"['n', 'return']","[0.9904250999679789, 1.2227073999820277]",857.643863699981,None,,,89YE,001,2023_Aug_30_1753,ExactRep-v3-final,2021.2.3,60.0528825795733,
,,,,,,,,,,,,61,0,61,0,,,,,,,,,,,,,,,,,,,,,,,,,,,,,,,,,,,,,,,,,,,,,,,,,860.3082182999933,None,,,,,,,,,,,,,,,,,,,,,,,,,,,,,,,,,,,,,,,,,,,,,,,,,,,,,,,,,science,17,62,sing,old,blue,859.4097186999861,None,y,859.4097186999861,None,"['y', 'return']","[0.5685218999860808, 0.8566984999924898]",859.4097186999861,None,,,89YE,001,2023_Aug_30_1753,ExactRep-v3-final,2021.2.3,60.0528825795733,
,,,,,,,,,,,,62,0,62,0,,,,,,,,,,,,,,,,,,,,,,,,,,,,,,,,,,,,,,,,,,,,,,,,,861.9658240000717,None,,,,,,,,,,,,,,,,,,,,,,,,,,,,,,,,,,,,,,,,,,,,,,,,,,,,,,,,,arm,149,63,silent,new,red,860.8198286000406,None,n,860.8198286000406,None,"['n', 'return']","[0.878440500004217, 1.1024337999988347]",860.8198286000406,None,,,89YE,001,2023_Aug_30_1753,ExactRep-v3-final,2021.2.3,60.0528825795733,
,,,,,,,,,,,,63,0,63,0,,,,,,,,,,,,,,,,,,,,,,,,,,,,,,,,,,,,,,,,,,,,,,,,,863.4112825000193,None,,,,,,,,,,,,,,,,,,,,,,,,,,,,,,,,,,,,,,,,,,,,,,,,,,,,,,,,,colony,219,64,sing,new,blue,862.4783771000803,None,y,862.4783771000803,None,"['y', 'return']","[0.6280809000600129, 0.8840851000277326]",862.4783771000803,None,,,89YE,001,2023_Aug_30_1753,ExactRep-v3-final,2021.2.3,60.0528825795733,
,,,,,,,,,,,,64,0,64,0,,,,,,,,,,,,,,,,,,,,,,,,,,,,,,,,,,,,,,,,,,,,,,,,,864.884255800047,None,,,,,,,,,,,,,,,,,,,,,,,,,,,,,,,,,,,,,,,,,,,,,,,,,,,,,,,,,vessel,192,65,aloud,new,white,863.9262220000383,None,y,863.9262220000383,None,"['y', 'return']","[0.708079700008966, 0.9081776000093669]",863.9262220000383,None,,,89YE,001,2023_Aug_30_1753,ExactRep-v3-final,2021.2.3,60.0528825795733,
,,,,,,,,,,,,65,0,65,0,,,,,,,,,,,,,,,,,,,,,,,,,,,,,,,,,,,,,,,,,,,,,,,,,866.2639250999782,None,,,,,,,,,,,,,,,,,,,,,,,,,,,,,,,,,,,,,,,,,,,,,,,,,,,,,,,,,palace,103,66,aloud,old,white,865.397477200022,None,y,865.397477200022,None,"['y', 'return']","[0.5888755999039859, 0.8288196999346837]",865.397477200022,None,,,89YE,001,2023_Aug_30_1753,ExactRep-v3-final,2021.2.3,60.0528825795733,
,,,,,,,,,,,,66,0,66,0,,,,,,,,,,,,,,,,,,,,,,,,,,,,,,,,,,,,,,,,,,,,,,,,,867.7659075000556,None,,,,,,,,,,,,,,,,,,,,,,,,,,,,,,,,,,,,,,,,,,,,,,,,,,,,,,,,,master,211,67,sing,new,blue,866.76907629997,None,y,866.76907629997,None,"['y', 'return']","[0.7132287999847904, 0.9533268000232056]",866.76907629997,None,,,89YE,001,2023_Aug_30_1753,ExactRep-v3-final,2021.2.3,60.0528825795733,
,,,,,,,,,,,,67,0,67,0,,,,,,,,,,,,,,,,,,,,,,,,,,,,,,,,,,,,,,,,,,,,,,,,,869.2168062999845,None,,,,,,,,,,,,,,,,,,,,,,,,,,,,,,,,,,,,,,,,,,,,,,,,,,,,,,,,,blossom,61,68,silent,old,red,868.2719658999704,None,y,868.2719658999704,None,"['y', 'return']","[0.6265714999753982, 0.8984736000420526]",868.2719658999704,None,,,89YE,001,2023_Aug_30_1753,ExactRep-v3-final,2021.2.3,60.0528825795733,
,,,,,,,,,,,,68,0,68,0,,,,,,,,,,,,,,,,,,,,,,,,,,,,,,,,,,,,,,,,,,,,,,,,,870.8516806999687,None,,,,,,,,,,,,,,,,,,,,,,,,,,,,,,,,,,,,,,,,,,,,,,,,,,,,,,,,,humour,107,69,aloud,old,white,869.721498799976,None,y,869.721498799976,None,"['y', 'return']","[0.8568000999512151, 1.0967900999821723]",869.721498799976,None,,,89YE,001,2023_Aug_30_1753,ExactRep-v3-final,2021.2.3,60.0528825795733,
,,,,,,,,,,,,69,0,69,0,,,,,,,,,,,,,,,,,,,,,,,,,,,,,,,,,,,,,,,,,,,,,,,,,872.4057598999934,None,,,,,,,,,,,,,,,,,,,,,,,,,,,,,,,,,,,,,,,,,,,,,,,,,,,,,,,,,bar,65,70,silent,old,red,871.3641248000786,None,n,871.3641248000786,None,"['n', 'return']","[0.7982102000387385, 0.9901188999647275]",871.3641248000786,None,,,89YE,001,2023_Aug_30_1753,ExactRep-v3-final,2021.2.3,60.0528825795733,
,,,,,,,,,,,,70,0,70,0,,,,,,,,,,,,,,,,,,,,,,,,,,,,,,,,,,,,,,,,,,,,,,,,,875.5724423000356,None,,,,,,,,,,,,,,,,,,,,,,,,,,,,,,,,,,,,,,,,,,,,,,,,,,,,,,,,,month,92,71,aloud,old,white,872.9303382000653,None,y,872.9303382000653,None,"['y', 'return']","[2.3601422000210732, 2.6001083999872208]",872.9303382000653,None,,,89YE,001,2023_Aug_30_1753,ExactRep-v3-final,2021.2.3,60.0528825795733,
,,,,,,,,,,,,71,0,71,0,,,,,,,,,,,,,,,,,,,,,,,,,,,,,,,,,,,,,,,,,,,,,,,,,877.0088279000483,None,,,,,,,,,,,,,,,,,,,,,,,,,,,,,,,,,,,,,,,,,,,,,,,,,,,,,,,,,moment,143,72,silent,new,red,876.0752818000037,None,y,876.0752818000037,None,"['y', 'return']","[0.6391537999734282, 0.8951272999402136]",876.0752818000037,None,,,89YE,001,2023_Aug_30_1753,ExactRep-v3-final,2021.2.3,60.0528825795733,
,,,,,,,,,,,,72,0,72,0,,,,,,,,,,,,,,,,,,,,,,,,,,,,,,,,,,,,,,,,,,,,,,,,,878.5442597999936,None,,,,,,,,,,,,,,,,,,,,,,,,,,,,,,,,,,,,,,,,,,,,,,,,,,,,,,,,,diamond,62,73,silent,old,red,877.5249290000647,None,y,877.5249290000647,None,"['y', 'return']","[0.7254233999410644, 0.973414299893193]",877.5249290000647,None,,,89YE,001,2023_Aug_30_1753,ExactRep-v3-final,2021.2.3,60.0528825795733,
,,,,,,,,,,,,73,0,73,0,,,,,,,,,,,,,,,,,,,,,,,,,,,,,,,,,,,,,,,,,,,,,,,,,879.9777906000381,None,,,,,,,,,,,,,,,,,,,,,,,,,,,,,,,,,,,,,,,,,,,,,,,,,,,,,,,,,effort,227,74,sing,new,blue,879.0608476999914,None,y,879.0608476999914,None,"['y', 'return']","[0.6694458000129089, 0.8697023999411613]",879.0608476999914,None,,,89YE,001,2023_Aug_30_1753,ExactRep-v3-final,2021.2.3,60.0528825795733,
,,,,,,,,,,,,74,0,74,0,,,,,,,,,,,,,,,,,,,,,,,,,,,,,,,,,,,,,,,,,,,,,,,,,881.5309278999921,None,,,,,,,,,,,,,,,,,,,,,,,,,,,,,,,,,,,,,,,,,,,,,,,,,,,,,,,,,valley,46,75,silent,old,red,880.4805433000438,None,y,880.4805433000438,None,"['y', 'return']","[0.8099972999189049, 1.0097930999472737]",880.4805433000438,None,,,89YE,001,2023_Aug_30_1753,ExactRep-v3-final,2021.2.3,60.0528825795733,
,,,,,,,,,,,,75,0,75,0,,,,,,,,,,,,,,,,,,,,,,,,,,,,,,,,,,,,,,,,,,,,,,,,,883.2837248999858,None,,,,,,,,,,,,,,,,,,,,,,,,,,,,,,,,,,,,,,,,,,,,,,,,,,,,,,,,,cat,223,76,sing,new,blue,882.0485262000002,None,n,882.0485262000002,None,"['n', 'return']","[0.9778682000469416, 1.1939353999914601]",882.0485262000002,None,,,89YE,001,2023_Aug_30_1753,ExactRep-v3-final,2021.2.3,60.0528825795733,
,,,,,,,,,,,,76,0,76,0,,,,,,,,,,,,,,,,,,,,,,,,,,,,,,,,,,,,,,,,,,,,,,,,,884.683169899974,None,,,,,,,,,,,,,,,,,,,,,,,,,,,,,,,,,,,,,,,,,,,,,,,,,,,,,,,,,devil,165,77,sing,new,blue,883.8030145000666,None,n,883.8030145000666,None,"['n', 'return']","[0.527557999943383, 0.8313580999383703]",883.8030145000666,None,,,89YE,001,2023_Aug_30_1753,ExactRep-v3-final,2021.2.3,60.0528825795733,
,,,,,,,,,,,,77,0,77,0,,,,,,,,,,,,,,,,,,,,,,,,,,,,,,,,,,,,,,,,,,,,,,,,,886.3504416000796,None,,,,,,,,,,,,,,,,,,,,,,,,,,,,,,,,,,,,,,,,,,,,,,,,,,,,,,,,,cash,194,78,aloud,new,white,885.186481700046,None,n,885.186481700046,None,"['n', 'return']","[0.8962662999983877, 1.1278866999782622]",885.186481700046,None,,,89YE,001,2023_Aug_30_1753,ExactRep-v3-final,2021.2.3,60.0528825795733,
,,,,,,,,,,,,78,0,78,0,,,,,,,,,,,,,,,,,,,,,,,,,,,,,,,,,,,,,,,,,,,,,,,,,888.289291299996,None,,,,,,,,,,,,,,,,,,,,,,,,,,,,,,,,,,,,,,,,,,,,,,,,,,,,,,,,,volume,10,79,sing,old,blue,886.8526762999827,None,y,886.8526762999827,None,"['y', 'return']","[1.1658327999757603, 1.3896573999663815]",886.8526762999827,None,,,89YE,001,2023_Aug_30_1753,ExactRep-v3-final,2021.2.3,60.0528825795733,
,,,,,,,,,,,,79,0,79,0,,,,,,,,,,,,,,,,,,,,,,,,,,,,,,,,,,,,,,,,,,,,,,,,,889.872902299976,None,,,,,,,,,,,,,,,,,,,,,,,,,,,,,,,,,,,,,,,,,,,,,,,,,,,,,,,,,skin,228,80,aloud,new,white,888.8109391999897,None,n,888.8109391999897,None,"['n', 'return']","[0.7673476999625564, 1.0153938999865204]",888.8109391999897,None,,,89YE,001,2023_Aug_30_1753,ExactRep-v3-final,2021.2.3,60.0528825795733,
,,,,,,,,,,,,80,0,80,0,,,,,,,,,,,,,,,,,,,,,,,,,,,,,,,,,,,,,,,,,,,,,,,,,891.3236684000585,None,,,,,,,,,,,,,,,,,,,,,,,,,,,,,,,,,,,,,,,,,,,,,,,,,,,,,,,,,flag,32,81,sing,old,blue,890.396483700024,None,y,890.396483700024,None,"['y', 'return']","[0.6061693000374362, 0.8860142000485212]",890.396483700024,None,,,89YE,001,2023_Aug_30_1753,ExactRep-v3-final,2021.2.3,60.0528825795733,
,,,,,,,,,,,,81,0,81,0,,,,,,,,,,,,,,,,,,,,,,,,,,,,,,,,,,,,,,,,,,,,,,,,,893.1267422999954,None,,,,,,,,,,,,,,,,,,,,,,,,,,,,,,,,,,,,,,,,,,,,,,,,,,,,,,,,,hour,222,82,aloud,new,white,891.8390144000296,None,y,891.8390144000296,None,"['y', 'return']","[0.9872563999379054, 1.2513674999354407]",891.8390144000296,None,,,89YE,001,2023_Aug_30_1753,ExactRep-v3-final,2021.2.3,60.0528825795733,
,,,,,,,,,,,,82,0,82,0,,,,,,,,,,,,,,,,,,,,,,,,,,,,,,,,,,,,,,,,,,,,,,,,,894.5278951000655,None,,,,,,,,,,,,,,,,,,,,,,,,,,,,,,,,,,,,,,,,,,,,,,,,,,,,,,,,,earth,49,83,silent,old,red,893.6415563999908,None,y,893.6415563999908,None,"['y', 'return']","[0.5771361999213696, 0.8488965999567881]",893.6415563999908,None,,,89YE,001,2023_Aug_30_1753,ExactRep-v3-final,2021.2.3,60.0528825795733,
,,,,,,,,,,,,83,0,83,0,,,,,,,,,,,,,,,,,,,,,,,,,,,,,,,,,,,,,,,,,,,,,,,,,895.9633231000043,None,,,,,,,,,,,,,,,,,,,,,,,,,,,,,,,,,,,,,,,,,,,,,,,,,,,,,,,,,lord,44,84,silent,old,red,895.0637871000217,None,y,895.0637871000217,None,"['y', 'return']","[0.5705767000326887, 0.8505433000391349]",895.0637871000217,None,,,89YE,001,2023_Aug_30_1753,ExactRep-v3-final,2021.2.3,60.0528825795733,
,,,,,,,,,,,,84,0,84,0,,,,,,,,,,,,,,,,,,,,,,,,,,,,,,,,,,,,,,,,,,,,,,,,,897.2447134000249,None,,,,,,,,,,,,,,,,,,,,,,,,,,,,,,,,,,,,,,,,,,,,,,,,,,,,,,,,,brain,173,85,sing,new,blue,896.4858546999749,None,n,896.4858546999749,None,"['n', 'return']","[0.38838279992341995, 0.7165048999013379]",896.4858546999749,None,,,89YE,001,2023_Aug_30_1753,ExactRep-v3-final,2021.2.3,60.0528825795733,
,,,,,,,,,,,,85,0,85,0,,,,,,,,,,,,,,,,,,,,,,,,,,,,,,,,,,,,,,,,,,,,,,,,,898.6635709999828,None,,,,,,,,,,,,,,,,,,,,,,,,,,,,,,,,,,,,,,,,,,,,,,,,,,,,,,,,,wine,105,86,aloud,old,white,897.7519215000793,None,y,897.7519215000793,None,"['y', 'return']","[0.6747005999786779, 0.8750177000183612]",897.7519215000793,None,,,89YE,001,2023_Aug_30_1753,ExactRep-v3-final,2021.2.3,60.0528825795733,
,,,,,,,,,,,,86,0,86,0,,,,,,,,,,,,,,,,,,,,,,,,,,,,,,,,,,,,,,,,,,,,,,,,,901.1981206000783,None,,,,,,,,,,,,,,,,,,,,,,,,,,,,,,,,,,,,,,,,,,,,,,,,,,,,,,,,,cattle,59,87,silent,old,red,899.1645464000758,None,n,899.1645464000758,None,"['y', 'backspace', 'n', 'return']","[0.5979181999573484, 1.4539589999476448, 1.5579747000010684, 1.9899368999758735]",899.1645464000758,None,,,89YE,001,2023_Aug_30_1753,ExactRep-v3-final,2021.2.3,60.0528825795733,
,,,,,,,,,,,,87,0,87,0,,,,,,,,,,,,,,,,,,,,,,,,,,,,,,,,,,,,,,,,,,,,,,,,,902.5365508999676,None,,,,,,,,,,,,,,,,,,,,,,,,,,,,,,,,,,,,,,,,,,,,,,,,,,,,,,,,,hope,6,88,sing,old,blue,901.7027492000489,None,y,901.7027492000489,None,"['y', 'return']","[0.6196688000345603, 0.7955844000680372]",901.7027492000489,None,,,89YE,001,2023_Aug_30_1753,ExactRep-v3-final,2021.2.3,60.0528825795733,
,,,,,,,,,,,,88,0,88,0,,,,,,,,,,,,,,,,,,,,,,,,,,,,,,,,,,,,,,,,,,,,,,,,,903.8847168000648,None,,,,,,,,,,,,,,,,,,,,,,,,,,,,,,,,,,,,,,,,,,,,,,,,,,,,,,,,,apple,183,89,sing,new,blue,903.0664539000718,None,y,903.0664539000718,None,"['y', 'return']","[0.47987739997915924, 0.7758632999612018]",903.0664539000718,None,,,89YE,001,2023_Aug_30_1753,ExactRep-v3-final,2021.2.3,60.0528825795733,
,,,,,,,,,,,,89,0,89,0,,,,,,,,,,,,,,,,,,,,,,,,,,,,,,,,,,,,,,,,,,,,,,,,,905.3206041000085,None,,,,,,,,,,,,,,,,,,,,,,,,,,,,,,,,,,,,,,,,,,,,,,,,,,,,,,,,,friend,47,90,silent,old,red,904.3863989000674,None,n,904.3863989000674,None,"['n', 'return']","[0.6878594000590965, 0.8878919000271708]",904.3863989000674,None,,,89YE,001,2023_Aug_30_1753,ExactRep-v3-final,2021.2.3,60.0528825795733,
,,,,,,,,,,,,90,0,90,0,,,,,,,,,,,,,,,,,,,,,,,,,,,,,,,,,,,,,,,,,,,,,,,,,907.7386272000149,None,,,,,,,,,,,,,,,,,,,,,,,,,,,,,,,,,,,,,,,,,,,,,,,,,,,,,,,,,origin,133,91,silent,new,red,905.8281937000575,None,n,905.8281937000575,None,"['y', 'backspace', 'n', 'return']","[0.6862938000122085, 1.3820758999790996, 1.5744012999348342, 1.8620589999482036]",905.8281937000575,None,,,89YE,001,2023_Aug_30_1753,ExactRep-v3-final,2021.2.3,60.0528825795733,
,,,,,,,,,,,,91,0,91,0,,,,,,,,,,,,,,,,,,,,,,,,,,,,,,,,,,,,,,,,,,,,,,,,,909.056498000049,None,,,,,,,,,,,,,,,,,,,,,,,,,,,,,,,,,,,,,,,,,,,,,,,,,,,,,,,,,owner,134,92,silent,new,red,908.2417796000373,None,n,908.2417796000373,None,"['n', 'return']","[0.5765422000549734, 0.768695600097999]",908.2417796000373,None,,,89YE,001,2023_Aug_30_1753,ExactRep-v3-final,2021.2.3,60.0528825795733,
,,,,,,,,,,,,92,0,92,0,,,,,,,,,,,,,,,,,,,,,,,,,,,,,,,,,,,,,,,,,,,,,,,,,910.5002848000731,None,,,,,,,,,,,,,,,,,,,,,,,,,,,,,,,,,,,,,,,,,,,,,,,,,,,,,,,,,car,33,93,sing,old,blue,909.5612724999664,None,n,909.5612724999664,None,"['n', 'return']","[0.7452337000286207, 0.8969752000411972]",909.5612724999664,None,,,89YE,001,2023_Aug_30_1753,ExactRep-v3-final,2021.2.3,60.0528825795733,
,,,,,,,,,,,,93,0,93,0,,,,,,,,,,,,,,,,,,,,,,,,,,,,,,,,,,,,,,,,,,,,,,,,,911.9430394000374,None,,,,,,,,,,,,,,,,,,,,,,,,,,,,,,,,,,,,,,,,,,,,,,,,,,,,,,,,,corner,169,94,sing,new,blue,911.008612100035,None,n,911.008612100035,None,"['n', 'return']","[0.6260089999996126, 0.8980454000411555]",911.008612100035,None,,,89YE,001,2023_Aug_30_1753,ExactRep-v3-final,2021.2.3,60.0528825795733,
,,,,,,,,,,,,94,0,94,0,,,,,,,,,,,,,,,,,,,,,,,,,,,,,,,,,,,,,,,,,,,,,,,,,914.1472131999908,None,,,,,,,,,,,,,,,,,,,,,,,,,,,,,,,,,,,,,,,,,,,,,,,,,,,,,,,,,meat,80,95,aloud,old,white,912.4446555000031,None,y,912.4446555000031,None,"['y', 'return']","[1.365806500078179, 1.6539000000339001]",912.4446555000031,None,,,89YE,001,2023_Aug_30_1753,ExactRep-v3-final,2021.2.3,60.0528825795733,
,,,,,,,,,,,,95,0,95,0,,,,,,,,,,,,,,,,,,,,,,,,,,,,,,,,,,,,,,,,,,,,,,,,,915.7034354000352,None,,,,,,,,,,,,,,,,,,,,,,,,,,,,,,,,,,,,,,,,,,,,,,,,,,,,,,,,,idea,137,96,silent,new,red,914.6851042000344,None,n,914.6851042000344,None,"['n', 'return']","[0.7331320999655873, 0.9651791000505909]",914.6851042000344,None,,,89YE,001,2023_Aug_30_1753,ExactRep-v3-final,2021.2.3,60.0528825795733,
,,,,,,,,,,,,96,0,96,0,,,,,,,,,,,,,,,,,,,,,,,,,,,,,,,,,,,,,,,,,,,,,,,,,917.3171707000583,None,,,,,,,,,,,,,,,,,,,,,,,,,,,,,,,,,,,,,,,,,,,,,,,,,,,,,,,,,wife,193,97,sing,new,blue,916.222384499968,None,n,916.222384499968,None,"['n', 'return']","[0.8198905999306589, 1.0438988999230787]",916.222384499968,None,,,89YE,001,2023_Aug_30_1753,ExactRep-v3-final,2021.2.3,60.0528825795733,
,,,,,,,,,,,,97,0,97,0,,,,,,,,,,,,,,,,,,,,,,,,,,,,,,,,,,,,,,,,,,,,,,,,,918.8326182999881,None,,,,,,,,,,,,,,,,,,,,,,,,,,,,,,,,,,,,,,,,,,,,,,,,,,,,,,,,,bowl,129,98,silent,new,red,917.842531900038,None,n,917.842531900038,None,"['n', 'return']","[0.7042508000740781, 0.9437128000427037]",917.842531900038,None,,,89YE,001,2023_Aug_30_1753,ExactRep-v3-final,2021.2.3,60.0528825795733,
,,,,,,,,,,,,98,0,98,0,,,,,,,,,,,,,,,,,,,,,,,,,,,,,,,,,,,,,,,,,,,,,,,,,920.2004598000785,None,,,,,,,,,,,,,,,,,,,,,,,,,,,,,,,,,,,,,,,,,,,,,,,,,,,,,,,,,history,69,99,silent,old,red,919.3345107000787,None,y,919.3345107000787,None,"['y', 'return']","[0.5802414000499994, 0.8197785000083968]",919.3345107000787,None,,,89YE,001,2023_Aug_30_1753,ExactRep-v3-final,2021.2.3,60.0528825795733,
,,,,,,,,,,,,99,0,99,0,,,,,,,,,,,,,,,,,,,,,,,,,,,,,,,,,,,,,,,,,,,,,,,,,921.5029102000408,None,,,,,,,,,,,,,,,,,,,,,,,,,,,,,,,,,,,,,,,,,,,,,,,,,,,,,,,,,girl,104,100,aloud,old,white,920.7028376000235,None,n,920.7028376000235,None,"['n', 'return']","[0.5235140000004321, 0.764043299946934]",920.7028376000235,None,,,89YE,001,2023_Aug_30_1753,ExactRep-v3-final,2021.2.3,60.0528825795733,
,,,,,,,,,,,,100,0,100,0,,,,,,,,,,,,,,,,,,,,,,,,,,,,,,,,,,,,,,,,,,,,,,,,,923.5711838999996,None,,,,,,,,,,,,,,,,,,,,,,,,,,,,,,,,,,,,,,,,,,,,,,,,,,,,,,,,,plant,112,101,aloud,old,white,922.00602109998,None,y,922.00602109998,None,"['y', 'return']","[1.0682837000349537, 1.5163226999575272]",922.00602109998,None,,,89YE,001,2023_Aug_30_1753,ExactRep-v3-final,2021.2.3,60.0528825795733,
,,,,,,,,,,,,101,0,101,0,,,,,,,,,,,,,,,,,,,,,,,,,,,,,,,,,,,,,,,,,,,,,,,,,925.2560294000432,None,,,,,,,,,,,,,,,,,,,,,,,,,,,,,,,,,,,,,,,,,,,,,,,,,,,,,,,,,rock,195,102,sing,new,blue,924.0870538000017,None,n,924.0870538000017,None,"['n', 'return']","[0.9872003000928089, 1.123188800062053]",924.0870538000017,None,,,89YE,001,2023_Aug_30_1753,ExactRep-v3-final,2021.2.3,60.0528825795733,
,,,,,,,,,,,,102,0,102,0,,,,,,,,,,,,,,,,,,,,,,,,,,,,,,,,,,,,,,,,,,,,,,,,,926.7427335999673,None,,,,,,,,,,,,,,,,,,,,,,,,,,,,,,,,,,,,,,,,,,,,,,,,,,,,,,,,,fur,9,103,sing,old,blue,925.776247199974,None,y,925.776247199974,None,"['y', 'return']","[0.6741001000627875, 0.9304225000087172]",925.776247199974,None,,,89YE,001,2023_Aug_30_1753,ExactRep-v3-final,2021.2.3,60.0528825795733,
,,,,,,,,,,,,103,0,103,0,,,,,,,,,,,,,,,,,,,,,,,,,,,,,,,,,,,,,,,,,,,,,,,,,928.1932490000036,None,,,,,,,,,,,,,,,,,,,,,,,,,,,,,,,,,,,,,,,,,,,,,,,,,,,,,,,,,market,34,104,sing,old,blue,927.2613707999699,None,y,927.2613707999699,None,"['y', 'return']","[0.6131412000395358, 0.9010186000959948]",927.2613707999699,None,,,89YE,001,2023_Aug_30_1753,ExactRep-v3-final,2021.2.3,60.0528825795733,
,,,,,,,,,,,,104,0,104,0,,,,,,,,,,,,,,,,,,,,,,,,,,,,,,,,,,,,,,,,,,,,,,,,,930.544298700057,None,,,,,,,,,,,,,,,,,,,,,,,,,,,,,,,,,,,,,,,,,,,,,,,,,,,,,,,,,lake,27,105,sing,old,blue,928.7094012000598,None,n,928.7094012000598,None,"['n', 'return']","[1.5409891998860985, 1.796997099998407]",928.7094012000598,None,,,89YE,001,2023_Aug_30_1753,ExactRep-v3-final,2021.2.3,60.0528825795733,
,,,,,,,,,,,,105,0,105,0,,,,,,,,,,,,,,,,,,,,,,,,,,,,,,,,,,,,,,,,,,,,,,,,,931.9457680999767,None,,,,,,,,,,,,,,,,,,,,,,,,,,,,,,,,,,,,,,,,,,,,,,,,,,,,,,,,,person,210,106,aloud,new,white,931.0510259000584,None,y,931.0510259000584,None,"['y', 'return']","[0.6471978999907151, 0.8553005999419838]",931.0510259000584,None,,,89YE,001,2023_Aug_30_1753,ExactRep-v3-final,2021.2.3,60.0528825795733,
,,,,,,,,,,,,106,0,106,0,,,,,,,,,,,,,,,,,,,,,,,,,,,,,,,,,,,,,,,,,,,,,,,,,933.3644337999867,None,,,,,,,,,,,,,,,,,,,,,,,,,,,,,,,,,,,,,,,,,,,,,,,,,,,,,,,,,crime,123,107,silent,new,red,932.4491695000324,None,n,932.4491695000324,None,"['n', 'return']","[0.6331465999828652, 0.8732106999959797]",932.4491695000324,None,,,89YE,001,2023_Aug_30_1753,ExactRep-v3-final,2021.2.3,60.0528825795733,
,,,,,,,,,,,,107,0,107,0,,,,,,,,,,,,,,,,,,,,,,,,,,,,,,,,,,,,,,,,,,,,,,,,,934.6488925999729,None,,,,,,,,,,,,,,,,,,,,,,,,,,,,,,,,,,,,,,,,,,,,,,,,,,,,,,,,,money,212,108,aloud,new,white,933.8658925000345,None,y,933.8658925000345,None,"['y', 'return']","[0.504379199934192, 0.7363678999245167]",933.8658925000345,None,,,89YE,001,2023_Aug_30_1753,ExactRep-v3-final,2021.2.3,60.0528825795733,
,,,,,,,,,,,,108,0,108,0,,,,,,,,,,,,,,,,,,,,,,,,,,,,,,,,,,,,,,,,,,,,,,,,,935.9981218000175,None,,,,,,,,,,,,,,,,,,,,,,,,,,,,,,,,,,,,,,,,,,,,,,,,,,,,,,,,,troops,121,109,silent,new,red,935.1505366000347,None,n,935.1505366000347,None,"['n', 'return']","[0.5321216000011191, 0.7957491000415757]",935.1505366000347,None,,,89YE,001,2023_Aug_30_1753,ExactRep-v3-final,2021.2.3,60.0528825795733,
,,,,,,,,,,,,109,0,109,0,,,,,,,,,,,,,,,,,,,,,,,,,,,,,,,,,,,,,,,,,,,,,,,,,937.5995898999972,None,,,,,,,,,,,,,,,,,,,,,,,,,,,,,,,,,,,,,,,,,,,,,,,,,,,,,,,,,slave,16,110,sing,old,blue,936.5017864999827,None,y,936.5017864999827,None,"['y', 'return']","[0.764497600030154, 1.036470500053838]",936.5017864999827,None,,,89YE,001,2023_Aug_30_1753,ExactRep-v3-final,2021.2.3,60.0528825795733,
,,,,,,,,,,,,110,0,110,0,,,,,,,,,,,,,,,,,,,,,,,,,,,,,,,,,,,,,,,,,,,,,,,,,939.2207268000348,None,,,,,,,,,,,,,,,,,,,,,,,,,,,,,,,,,,,,,,,,,,,,,,,,,,,,,,,,,grief,54,111,silent,old,red,938.1146461999742,None,y,938.1146461999742,None,"['y', 'return']","[0.7757203999208286, 1.0637485999614]",938.1146461999742,None,,,89YE,001,2023_Aug_30_1753,ExactRep-v3-final,2021.2.3,60.0528825795733,
,,,,,,,,,,,,111,0,111,0,,,,,,,,,,,,,,,,,,,,,,,,,,,,,,,,,,,,,,,,,,,,,,,,,940.50581100001,None,,,,,,,,,,,,,,,,,,,,,,,,,,,,,,,,,,,,,,,,,,,,,,,,,,,,,,,,,table,148,112,silent,new,red,939.7218394000083,None,n,939.7218394000083,None,"['n', 'return']","[0.5283876999747008, 0.7444911999627948]",939.7218394000083,None,,,89YE,001,2023_Aug_30_1753,ExactRep-v3-final,2021.2.3,60.0528825795733,
,,,,,,,,,,,,112,0,112,0,,,,,,,,,,,,,,,,,,,,,,,,,,,,,,,,,,,,,,,,,,,,,,,,,942.0242842000443,None,,,,,,,,,,,,,,,,,,,,,,,,,,,,,,,,,,,,,,,,,,,,,,,,,,,,,,,,,iron,159,113,silent,new,red,941.0216665000189,None,n,941.0216665000189,None,"['n', 'return']","[0.7649129999335855, 0.9649919000221416]",941.0216665000189,None,,,89YE,001,2023_Aug_30_1753,ExactRep-v3-final,2021.2.3,60.0528825795733,
,,,,,,,,,,,,113,0,113,0,,,,,,,,,,,,,,,,,,,,,,,,,,,,,,,,,,,,,,,,,,,,,,,,,943.5244399000658,None,,,,,,,,,,,,,,,,,,,,,,,,,,,,,,,,,,,,,,,,,,,,,,,,,,,,,,,,,priest,208,114,aloud,new,white,942.5401260000654,None,y,942.5401260000654,None,"['y', 'return']","[0.6061074000317603, 0.9502961001126096]",942.5401260000654,None,,,89YE,001,2023_Aug_30_1753,ExactRep-v3-final,2021.2.3,60.0528825795733,
,,,,,,,,,,,,114,0,114,0,,,,,,,,,,,,,,,,,,,,,,,,,,,,,,,,,,,,,,,,,,,,,,,,,945.1766024000244,None,,,,,,,,,,,,,,,,,,,,,,,,,,,,,,,,,,,,,,,,,,,,,,,,,,,,,,,,,water,198,115,aloud,new,white,944.0277721000602,None,y,944.0277721000602,None,"['y', 'return']","[0.9425545000704005, 1.1025631000520661]",944.0277721000602,None,,,89YE,001,2023_Aug_30_1753,ExactRep-v3-final,2021.2.3,60.0528825795733,
,,,,,,,,,,,,115,0,115,0,,,,,,,,,,,,,,,,,,,,,,,,,,,,,,,,,,,,,,,,,,,,,,,,,946.4283445000183,None,,,,,,,,,,,,,,,,,,,,,,,,,,,,,,,,,,,,,,,,,,,,,,,,,,,,,,,,,flower,232,116,aloud,new,white,945.678771100007,None,n,945.678771100007,None,"['n', 'return']","[0.579603899968788, 0.7074913999531418]",945.678771100007,None,,,89YE,001,2023_Aug_30_1753,ExactRep-v3-final,2021.2.3,60.0528825795733,
,,,,,,,,,,,,116,0,116,0,,,,,,,,,,,,,,,,,,,,,,,,,,,,,,,,,,,,,,,,,,,,,,,,,948.4486139999935,None,,,,,,,,,,,,,,,,,,,,,,,,,,,,,,,,,,,,,,,,,,,,,,,,,,,,,,,,,book,5,117,sing,old,blue,946.9447142999852,None,y,946.9447142999852,None,"['y', 'return']","[1.321631500031799, 1.4576086000306532]",946.9447142999852,None,,,89YE,001,2023_Aug_30_1753,ExactRep-v3-final,2021.2.3,60.0528825795733,
,,,,,,,,,,,,117,0,117,0,,,,,,,,,,,,,,,,,,,,,,,,,,,,,,,,,,,,,,,,,,,,,,,,,949.9311414000113,None,,,,,,,,,,,,,,,,,,,,,,,,,,,,,,,,,,,,,,,,,,,,,,,,,,,,,,,,,wheat,206,118,aloud,new,white,948.9653743000235,None,n,948.9653743000235,None,"['n', 'return']","[0.7889959999592975, 0.9250578999053687]",948.9653743000235,None,,,89YE,001,2023_Aug_30_1753,ExactRep-v3-final,2021.2.3,60.0528825795733,
,,,,,,,,,,,,118,0,118,0,,,,,,,,,,,,,,,,,,,,,,,,,,,,,,,,,,,,,,,,,,,,,,,,,951.3820049000205,None,,,,,,,,,,,,,,,,,,,,,,,,,,,,,,,,,,,,,,,,,,,,,,,,,,,,,,,,,coast,95,119,aloud,old,white,950.433033999987,None,y,950.433033999987,None,"['y', 'return']","[0.6656300000613555, 0.9136380000272766]",950.433033999987,None,,,89YE,001,2023_Aug_30_1753,ExactRep-v3-final,2021.2.3,60.0528825795733,
,,,,,,,,,,,,119,0,119,0,,,,,,,,,,,,,,,,,,,,,,,,,,,,,,,,,,,,,,,,,,,,,,,,,952.7511069000466,None,,,,,,,,,,,,,,,,,,,,,,,,,,,,,,,,,,,,,,,,,,,,,,,,,,,,,,,,,doctor,30,120,sing,old,blue,951.88608690002,None,y,951.88608690002,None,"['y', 'return']","[0.5242528000380844, 0.8285945999668911]",951.88608690002,None,,,89YE,001,2023_Aug_30_1753,ExactRep-v3-final,2021.2.3,60.0528825795733,
,,,,,,,,,,,,120,0,120,0,,,,,,,,,,,,,,,,,,,,,,,,,,,,,,,,,,,,,,,,,,,,,,,,,954.1008357000537,None,,,,,,,,,,,,,,,,,,,,,,,,,,,,,,,,,,,,,,,,,,,,,,,,,,,,,,,,,fortune,37,121,sing,old,blue,953.2715801000595,None,y,953.2715801000595,None,"['y', 'return']","[0.5626638999674469, 0.7867305999388918]",953.2715801000595,None,,,89YE,001,2023_Aug_30_1753,ExactRep-v3-final,2021.2.3,60.0528825795733,
,,,,,,,,,,,,121,0,121,0,,,,,,,,,,,,,,,,,,,,,,,,,,,,,,,,,,,,,,,,,,,,,,,,,955.686436100048,None,,,,,,,,,,,,,,,,,,,,,,,,,,,,,,,,,,,,,,,,,,,,,,,,,,,,,,,,,horse,237,122,sing,new,blue,954.6036755000241,None,n,954.6036755000241,None,"['n', 'return']","[0.8789804000407457, 1.0469833000097424]",954.6036755000241,None,,,89YE,001,2023_Aug_30_1753,ExactRep-v3-final,2021.2.3,60.0528825795733,
,,,,,,,,,,,,122,0,122,0,,,,,,,,,,,,,,,,,,,,,,,,,,,,,,,,,,,,,,,,,,,,,,,,,956.9714542999864,None,,,,,,,,,,,,,,,,,,,,,,,,,,,,,,,,,,,,,,,,,,,,,,,,,,,,,,,,,pole,45,123,silent,old,red,956.1882637999952,None,y,956.1882637999952,None,"['y', 'return']","[0.5099895999301225, 0.7422516000224277]",956.1882637999952,None,,,89YE,001,2023_Aug_30_1753,ExactRep-v3-final,2021.2.3,60.0528825795733,
,,,,,,,,,,,,123,0,123,0,,,,,,,,,,,,,,,,,,,,,,,,,,,,,,,,,,,,,,,,,,,,,,,,,959.4716119000223,None,,,,,,,,,,,,,,,,,,,,,,,,,,,,,,,,,,,,,,,,,,,,,,,,,,,,,,,,,lad,110,124,aloud,old,white,957.4724253000459,None,y,957.4724253000459,None,"['n', 'backspace', 'y', 'return']","[0.514600700000301, 1.1539744000183418, 1.5538175000110641, 1.9378219000063837]",957.4724253000459,None,,,89YE,001,2023_Aug_30_1753,ExactRep-v3-final,2021.2.3,60.0528825795733,
,,,,,,,,,,,,124,0,124,0,,,,,,,,,,,,,,,,,,,,,,,,,,,,,,,,,,,,,,,,,,,,,,,,,960.94309169997,None,,,,,,,,,,,,,,,,,,,,,,,,,,,,,,,,,,,,,,,,,,,,,,,,,,,,,,,,,sea,132,125,silent,new,red,959.9766838999931,None,n,959.9766838999931,None,"['n', 'return']","[0.7137768999673426, 0.9216383000602946]",959.9766838999931,None,,,89YE,001,2023_Aug_30_1753,ExactRep-v3-final,2021.2.3,60.0528825795733,
,,,,,,,,,,,,125,0,125,0,,,,,,,,,,,,,,,,,,,,,,,,,,,,,,,,,,,,,,,,,,,,,,,,,962.8784066999797,None,,,,,,,,,,,,,,,,,,,,,,,,,,,,,,,,,,,,,,,,,,,,,,,,,,,,,,,,,coin,190,126,aloud,new,white,961.4704688000493,None,n,961.4704688000493,None,"['n', 'return']","[1.1479719000635669, 1.3638651000801474]",961.4704688000493,None,,,89YE,001,2023_Aug_30_1753,ExactRep-v3-final,2021.2.3,60.0528825795733,
,,,,,,,,,,,,126,0,126,0,,,,,,,,,,,,,,,,,,,,,,,,,,,,,,,,,,,,,,,,,,,,,,,,,964.812073100009,None,,,,,,,,,,,,,,,,,,,,,,,,,,,,,,,,,,,,,,,,,,,,,,,,,,,,,,,,,machine,120,127,silent,new,red,963.3957402000669,None,y,963.3957402000669,None,"['y', 'return']","[1.0707856999943033, 1.374792299931869]",963.3957402000669,None,,,89YE,001,2023_Aug_30_1753,ExactRep-v3-final,2021.2.3,60.0528825795733,
,,,,,,,,,,,,127,0,127,0,,,,,,,,,,,,,,,,,,,,,,,,,,,,,,,,,,,,,,,,,,,,,,,,,967.0477793000173,None,,,,,,,,,,,,,,,,,,,,,,,,,,,,,,,,,,,,,,,,,,,,,,,,,,,,,,,,,seat,93,128,aloud,old,white,965.3323139999993,None,y,965.3323139999993,None,"['y', 'return']","[1.53397520002909, 1.6779881999827921]",965.3323139999993,None,,,89YE,001,2023_Aug_30_1753,ExactRep-v3-final,2021.2.3,60.0528825795733,
,,,,,,,,,,,,128,0,128,0,,,,,,,,,,,,,,,,,,,,,,,,,,,,,,,,,,,,,,,,,,,,,,,,,968.4886659000767,None,,,,,,,,,,,,,,,,,,,,,,,,,,,,,,,,,,,,,,,,,,,,,,,,,,,,,,,,,green,58,129,silent,old,red,967.5493365000002,None,n,967.5493365000002,None,"['n', 'return']","[0.6931842999765649, 0.8849260000279173]",967.5493365000002,None,,,89YE,001,2023_Aug_30_1753,ExactRep-v3-final,2021.2.3,60.0528825795733,
,,,,,,,,,,,,129,0,129,0,,,,,,,,,,,,,,,,,,,,,,,,,,,,,,,,,,,,,,,,,,,,,,,,,971.319219200057,None,,,,,,,,,,,,,,,,,,,,,,,,,,,,,,,,,,,,,,,,,,,,,,,,,,,,,,,,,product,2,130,sing,old,blue,969.0026580999838,None,y,969.0026580999838,None,"['y', 'return']","[2.031877400004305, 2.271604200010188]",969.0026580999838,None,,,89YE,001,2023_Aug_30_1753,ExactRep-v3-final,2021.2.3,60.0528825795733,
,,,,,,,,,,,,130,0,130,0,,,,,,,,,,,,,,,,,,,,,,,,,,,,,,,,,,,,,,,,,,,,,,,,,972.8386693000793,None,,,,,,,,,,,,,,,,,,,,,,,,,,,,,,,,,,,,,,,,,,,,,,,,,,,,,,,,,officer,94,131,aloud,old,white,971.8335459000664,None,y,971.8335459000664,None,"['y', 'return']","[0.7288814000785351, 0.9689600000856444]",971.8335459000664,None,,,89YE,001,2023_Aug_30_1753,ExactRep-v3-final,2021.2.3,60.0528825795733,
,,,,,,,,,,,,131,0,131,0,,,,,,,,,,,,,,,,,,,,,,,,,,,,,,,,,,,,,,,,,,,,,,,,,974.5397988000186,None,,,,,,,,,,,,,,,,,,,,,,,,,,,,,,,,,,,,,,,,,,,,,,,,,,,,,,,,,salary,31,132,sing,old,blue,973.3614888000302,None,y,973.3614888000302,None,"['y', 'return']","[0.88086499995552, 1.1367734000086784]",973.3614888000302,None,,,89YE,001,2023_Aug_30_1753,ExactRep-v3-final,2021.2.3,60.0528825795733,
