trials_fam.thisRepN,trials_fam.thisTrialN,trials_fam.thisN,trials_fam.thisIndex,trials_prc.thisRepN,trials_prc.thisTrialN,trials_prc.thisN,trials_prc.thisIndex,StudyLoop.thisRepN,StudyLoop.thisTrialN,StudyLoop.thisN,StudyLoop.thisIndex,TestLoop.thisRepN,TestLoop.thisTrialN,TestLoop.thisN,TestLoop.thisIndex,text_colortest.started,text_colortest.stopped,key_colortest.keys,key_colortest.rt,key_colortest.started,key_colortest.stopped,textCondition.started,textCondition.stopped,keyCondition.keys,keyCondition.rt,keyCondition.started,keyCondition.stopped,Condition_between,Condition_counterbal,keyWelcome.keys,keyWelcome.rt,keyWelcome.started,keyWelcome.stopped,welcome_a.started,welcome_a.stopped,welcome_b.started,welcome_b.stopped,welcome_c.started,welcome_c.stopped,welcome_d.started,welcome_d.stopped,welcome_e.started,welcome_e.stopped,welcome_f.started,welcome_f.stopped,key_resp_fam_inst.keys,key_resp_fam_inst.rt,key_resp_fam_inst.started,key_resp_fam_inst.stopped,fam_a.started,fam_a.stopped,fam_b.started,fam_b.stopped,fam_c.started,fam_c.stopped,fam_d.started,fam_d.stopped,fam_e.started,fam_e.stopped,fam_f.started,fam_f.stopped,text_famil.started,text_famil.stopped,textBlank500.started,textBlank500.stopped,key_resp_prc_inst.keys,key_resp_prc_inst.rt,key_resp_prc_inst.started,key_resp_prc_inst.stopped,prac_a.started,prac_a.stopped,prac_b.started,prac_b.stopped,prac_c.started,prac_c.stopped,prac_d.started,prac_d.stopped,prac_e.started,prac_e.stopped,prac_f.started,prac_f.stopped,text_prc_trial.started,text_prc_trial.stopped,key_resp_study_inst.keys,key_resp_study_inst.rt,key_resp_study_inst.started,key_resp_study_inst.stopped,crit_a.started,crit_a.stopped,crit_b.started,crit_b.stopped,crit_c.started,crit_c.stopped,crit_d.started,crit_d.stopped,crit_e.started,crit_e.stopped,crit_f.started,crit_f.stopped,study_word,study_num,study_order,study_type,word_color,textStudy.started,textStudy.stopped,keyStudy.keys,keyStudy.started,keyStudy.stopped,post_study.started,post_study.stopped,key_resp_post_study.keys,key_resp_post_study.rt,key_resp_post_study.started,key_resp_post_study.stopped,test_inst.started,test_inst.stopped,key_resp_test_inst.keys,key_resp_test_inst.rt,key_resp_test_inst.started,key_resp_test_inst.stopped,test_word,test_num,test_order,test_condition,old_new_test,word_color_test,textConf.started,textConf.stopped,Participant Response,textInput.started,textInput.stopped,keyResp.keys,keyResp.rt,keyResp.started,keyResp.stopped,textEnd.started,textEnd.stopped,participant,session,date,expName,psychopyVersion,frameRate,
,,,,,,,,,,,,,,,,14.598050600034185,None,n,1.6032632000278682,14.598050600034185,None,,,,,,,,,,,,,,,,,,,,,,,,,,,,,,,,,,,,,,,,,,,,,,,,,,,,,,,,,,,,,,,,,,,,,,,,,,,,,,,,,,,,,,,,,,,,,,,,,,,,,,,,,,,,,,,,,,,,,,8,001,2023_Feb_01_1137,ExactRep-v3-final,2021.2.3,59.94280254701936,
,,,,,,,,,,,,,,,,,,,,,,16.221816700068302,None,b,0.5316766999894753,16.221816700068302,None,,,,,,,,,,,,,,,,,,,,,,,,,,,,,,,,,,,,,,,,,,,,,,,,,,,,,,,,,,,,,,,,,,,,,,,,,,,,,,,,,,,,,,,,,,,,,,,,,,,,,,,,,,,,,,,,8,001,2023_Feb_01_1137,ExactRep-v3-final,2021.2.3,59.94280254701936,
,,,,,,,,,,,,,,,,,,,,,,,,,,,,whitefoils,b,space,2891.137682800065,26.85602680000011,None,,,,,,,,,,,,,,,,,,,,,,,,,,,,,,,,,,,,,,,,,,,,,,,,,,,,,,,,,,,,,,,,,,,,,,,,,,,,,,,,,,,,,,,,,,,,,,,,,,,,,,,,,,8,001,2023_Feb_01_1137,ExactRep-v3-final,2021.2.3,59.94280254701936,
,,,,,,,,,,,,,,,,,,,,,,,,,,,,,,,,,,16.93189240002539,None,16.93189240002539,None,16.93189240002539,None,16.93189240002539,None,16.93189240002539,None,16.93189240002539,None,space,14.786266700015403,2928.1834400000516,None,,,,,,,,,,,,,,,,,,,,,,,,,,,,,,,,,,,,,,,,,,,,,,,,,,,,,,,,,,,,,,,,,,,,,,,,,,,,,,,,,,,,,,,,,,8,001,2023_Feb_01_1137,ExactRep-v3-final,2021.2.3,59.94280254701936,
0,0,0,0,,,,,,,,,,,,,,,,,,,,,,,,,,,,,,,,,,,,,,,,,,,,,,,2918.1882137000794,None,2918.1882137000794,None,2918.1882137000794,None,2918.1882137000794,None,2918.1882137000794,None,2918.1882137000794,None,2943.1013909000903,None,2945.0979835999897,None,,,,,,,,,,,,,,,,,,,,,,,,,,,,,,,,,,,,,,,,,,,,,,,,,,,,,,,,,,,,,,,,,,,,,,,,,,8,001,2023_Feb_01_1137,ExactRep-v3-final,2021.2.3,59.94280254701936,
1,0,1,0,,,,,,,,,,,,,,,,,,,,,,,,,,,,,,,,,,,,,,,,,,,,,,,,,,,,,,,,,,,2945.612218299997,None,2947.6174078000477,None,,,,,,,,,,,,,,,,,,,,,,,,,,,,,,,,,,,,,,,,,,,,,,,,,,,,,,,,,,,,,,,,,,,,,,,,,,8,001,2023_Feb_01_1137,ExactRep-v3-final,2021.2.3,59.94280254701936,
2,0,2,0,,,,,,,,,,,,,,,,,,,,,,,,,,,,,,,,,,,,,,,,,,,,,,,,,,,,,,,,,,,2948.138080700068,None,2950.136499800021,None,,,,,,,,,,,,,,,,,,,,,,,,,,,,,,,,,,,,,,,,,,,,,,,,,,,,,,,,,,,,,,,,,,,,,,,,,,8,001,2023_Feb_01_1137,ExactRep-v3-final,2021.2.3,59.94280254701936,
3,0,3,0,,,,,,,,,,,,,,,,,,,,,,,,,,,,,,,,,,,,,,,,,,,,,,,,,,,,,,,,,,,2950.6370119000785,None,2952.638884300017,None,,,,,,,,,,,,,,,,,,,,,,,,,,,,,,,,,,,,,,,,,,,,,,,,,,,,,,,,,,,,,,,,,,,,,,,,,,8,001,2023_Feb_01_1137,ExactRep-v3-final,2021.2.3,59.94280254701936,
4,0,4,0,,,,,,,,,,,,,,,,,,,,,,,,,,,,,,,,,,,,,,,,,,,,,,,,,,,,,,,,,,,2953.1402971000643,None,2955.141658900073,None,,,,,,,,,,,,,,,,,,,,,,,,,,,,,,,,,,,,,,,,,,,,,,,,,,,,,,,,,,,,,,,,,,,,,,,,,,8,001,2023_Feb_01_1137,ExactRep-v3-final,2021.2.3,59.94280254701936,
5,0,5,0,,,,,,,,,,,,,,,,,,,,,,,,,,,,,,,,,,,,,,,,,,,,,,,,,,,,,,,,,,,2955.642130400054,None,2957.644085900043,None,,,,,,,,,,,,,,,,,,,,,,,,,,,,,,,,,,,,,,,,,,,,,,,,,,,,,,,,,,,,,,,,,,,,,,,,,,8,001,2023_Feb_01_1137,ExactRep-v3-final,2021.2.3,59.94280254701936,
6,0,6,0,,,,,,,,,,,,,,,,,,,,,,,,,,,,,,,,,,,,,,,,,,,,,,,,,,,,,,,,,,,2958.1493438000325,None,2960.1632323000813,None,,,,,,,,,,,,,,,,,,,,,,,,,,,,,,,,,,,,,,,,,,,,,,,,,,,,,,,,,,,,,,,,,,,,,,,,,,8,001,2023_Feb_01_1137,ExactRep-v3-final,2021.2.3,59.94280254701936,
7,0,7,0,,,,,,,,,,,,,,,,,,,,,,,,,,,,,,,,,,,,,,,,,,,,,,,,,,,,,,,,,,,2960.663695700001,None,2962.66573550005,None,,,,,,,,,,,,,,,,,,,,,,,,,,,,,,,,,,,,,,,,,,,,,,,,,,,,,,,,,,,,,,,,,,,,,,,,,,8,001,2023_Feb_01_1137,ExactRep-v3-final,2021.2.3,59.94280254701936,
8,0,8,0,,,,,,,,,,,,,,,,,,,,,,,,,,,,,,,,,,,,,,,,,,,,,,,,,,,,,,,,,,,2963.1706948000938,None,2965.1849774,None,,,,,,,,,,,,,,,,,,,,,,,,,,,,,,,,,,,,,,,,,,,,,,,,,,,,,,,,,,,,,,,,,,,,,,,,,,8,001,2023_Feb_01_1137,ExactRep-v3-final,2021.2.3,59.94280254701936,
9,0,9,0,,,,,,,,,,,,,,,,,,,,,,,,,,,,,,,,,,,,,,,,,,,,,,,,,,,,,,,,,,,2965.685337000061,None,2967.687410500017,None,,,,,,,,,,,,,,,,,,,,,,,,,,,,,,,,,,,,,,,,,,,,,,,,,,,,,,,,,,,,,,,,,,,,,,,,,,8,001,2023_Feb_01_1137,ExactRep-v3-final,2021.2.3,59.94280254701936,
10,0,10,0,,,,,,,,,,,,,,,,,,,,,,,,,,,,,,,,,,,,,,,,,,,,,,,,,,,,,,,,,,,2968.189926000079,None,2970.1899021000136,None,,,,,,,,,,,,,,,,,,,,,,,,,,,,,,,,,,,,,,,,,,,,,,,,,,,,,,,,,,,,,,,,,,,,,,,,,,8,001,2023_Feb_01_1137,ExactRep-v3-final,2021.2.3,59.94280254701936,
11,0,11,0,,,,,,,,,,,,,,,,,,,,,,,,,,,,,,,,,,,,,,,,,,,,,,,,,,,,,,,,,,,2970.690449899994,None,2972.6924918000586,None,,,,,,,,,,,,,,,,,,,,,,,,,,,,,,,,,,,,,,,,,,,,,,,,,,,,,,,,,,,,,,,,,,,,,,,,,,8,001,2023_Feb_01_1137,ExactRep-v3-final,2021.2.3,59.94280254701936,
12,0,12,0,,,,,,,,,,,,,,,,,,,,,,,,,,,,,,,,,,,,,,,,,,,,,,,,,,,,,,,,,,,2973.1963223000057,None,2975.2115562000545,None,,,,,,,,,,,,,,,,,,,,,,,,,,,,,,,,,,,,,,,,,,,,,,,,,,,,,,,,,,,,,,,,,,,,,,,,,,8,001,2023_Feb_01_1137,ExactRep-v3-final,2021.2.3,59.94280254701936,
13,0,13,0,,,,,,,,,,,,,,,,,,,,,,,,,,,,,,,,,,,,,,,,,,,,,,,,,,,,,,,,,,,2975.71204750007,None,2977.714012600016,None,,,,,,,,,,,,,,,,,,,,,,,,,,,,,,,,,,,,,,,,,,,,,,,,,,,,,,,,,,,,,,,,,,,,,,,,,,8,001,2023_Feb_01_1137,ExactRep-v3-final,2021.2.3,59.94280254701936,
14,0,14,0,,,,,,,,,,,,,,,,,,,,,,,,,,,,,,,,,,,,,,,,,,,,,,,,,,,,,,,,,,,2978.2180791000137,None,2980.23328470008,None,,,,,,,,,,,,,,,,,,,,,,,,,,,,,,,,,,,,,,,,,,,,,,,,,,,,,,,,,,,,,,,,,,,,,,,,,,8,001,2023_Feb_01_1137,ExactRep-v3-final,2021.2.3,59.94280254701936,
,,,,,,,,,,,,,,,,,,,,,,,,,,,,,,,,,,,,,,,,,,,,,,,,,,,,,,,,,,,,,,,,,,space,19.178634500014596,2990.815034200088,None,,,,,,,,,,,,,,,,,,,,,,,,,,,,,,,,,,,,,,,,,,,,,,,,,,,,,,,,,,,,,,,,,,,,,,8,001,2023_Feb_01_1137,ExactRep-v3-final,2021.2.3,59.94280254701936,
,,,,0,0,0,0,,,,,,,,,,,,,,,,,,,,,,,,,,,,,,,,,,,,,,,,,,,,,,,,,,,,,,,,,3012.1151146000484,None,,,,,2980.881653300021,None,2980.881653300021,None,2980.881653300021,None,2980.881653300021,None,2980.881653300021,None,2980.881653300021,None,3010.100933400099,None,,,,,,,,,,,,,,,,,,,,,,,,,,,,,,,,,,,,,,,,,,,,,,,,,,,,,,,,8,001,2023_Feb_01_1137,ExactRep-v3-final,2021.2.3,59.94280254701936,
,,,,1,0,1,0,,,,,,,,,,,,,,,,,,,,,,,,,,,,,,,,,,,,,,,,,,,,,,,,,,,,,,,,,3014.617598599987,None,,,,,,,,,,,,,,,,,3012.615461300011,None,,,,,,,,,,,,,,,,,,,,,,,,,,,,,,,,,,,,,,,,,,,,,,,,,,,,,,,,8,001,2023_Feb_01_1137,ExactRep-v3-final,2021.2.3,59.94280254701936,
,,,,2,0,2,0,,,,,,,,,,,,,,,,,,,,,,,,,,,,,,,,,,,,,,,,,,,,,,,,,,,,,,,,,3017.1200654000277,None,,,,,,,,,,,,,,,,,3015.118136300007,None,,,,,,,,,,,,,,,,,,,,,,,,,,,,,,,,,,,,,,,,,,,,,,,,,,,,,,,,8,001,2023_Feb_01_1137,ExactRep-v3-final,2021.2.3,59.94280254701936,
,,,,3,0,3,0,,,,,,,,,,,,,,,,,,,,,,,,,,,,,,,,,,,,,,,,,,,,,,,,,,,,,,,,,3019.622755600023,None,,,,,,,,,,,,,,,,,3017.6202886000974,None,,,,,,,,,,,,,,,,,,,,,,,,,,,,,,,,,,,,,,,,,,,,,,,,,,,,,,,,8,001,2023_Feb_01_1137,ExactRep-v3-final,2021.2.3,59.94280254701936,
,,,,4,0,4,0,,,,,,,,,,,,,,,,,,,,,,,,,,,,,,,,,,,,,,,,,,,,,,,,,,,,,,,,,3022.124938599998,None,,,,,,,,,,,,,,,,,3020.123078200035,None,,,,,,,,,,,,,,,,,,,,,,,,,,,,,,,,,,,,,,,,,,,,,,,,,,,,,,,,8,001,2023_Feb_01_1137,ExactRep-v3-final,2021.2.3,59.94280254701936,
,,,,5,0,5,0,,,,,,,,,,,,,,,,,,,,,,,,,,,,,,,,,,,,,,,,,,,,,,,,,,,,,,,,,3024.627623700071,None,,,,,,,,,,,,,,,,,3022.625593700097,None,,,,,,,,,,,,,,,,,,,,,,,,,,,,,,,,,,,,,,,,,,,,,,,,,,,,,,,,8,001,2023_Feb_01_1137,ExactRep-v3-final,2021.2.3,59.94280254701936,
,,,,6,0,6,0,,,,,,,,,,,,,,,,,,,,,,,,,,,,,,,,,,,,,,,,,,,,,,,,,,,,,,,,,3027.130159100052,None,,,,,,,,,,,,,,,,,3025.1280997000868,None,,,,,,,,,,,,,,,,,,,,,,,,,,,,,,,,,,,,,,,,,,,,,,,,,,,,,,,,8,001,2023_Feb_01_1137,ExactRep-v3-final,2021.2.3,59.94280254701936,
,,,,7,0,7,0,,,,,,,,,,,,,,,,,,,,,,,,,,,,,,,,,,,,,,,,,,,,,,,,,,,,,,,,,3029.6323693000013,None,,,,,,,,,,,,,,,,,3027.6307039000094,None,,,,,,,,,,,,,,,,,,,,,,,,,,,,,,,,,,,,,,,,,,,,,,,,,,,,,,,,8,001,2023_Feb_01_1137,ExactRep-v3-final,2021.2.3,59.94280254701936,
,,,,8,0,8,0,,,,,,,,,,,,,,,,,,,,,,,,,,,,,,,,,,,,,,,,,,,,,,,,,,,,,,,,,3032.1349759000586,None,,,,,,,,,,,,,,,,,3030.133263100055,None,,,,,,,,,,,,,,,,,,,,,,,,,,,,,,,,,,,,,,,,,,,,,,,,,,,,,,,,8,001,2023_Feb_01_1137,ExactRep-v3-final,2021.2.3,59.94280254701936,
,,,,9,0,9,0,,,,,,,,,,,,,,,,,,,,,,,,,,,,,,,,,,,,,,,,,,,,,,,,,,,,,,,,,3034.637634700048,None,,,,,,,,,,,,,,,,,3032.635635600076,None,,,,,,,,,,,,,,,,,,,,,,,,,,,,,,,,,,,,,,,,,,,,,,,,,,,,,,,,8,001,2023_Feb_01_1137,ExactRep-v3-final,2021.2.3,59.94280254701936,
,,,,10,0,10,0,,,,,,,,,,,,,,,,,,,,,,,,,,,,,,,,,,,,,,,,,,,,,,,,,,,,,,,,,3037.1401080000214,None,,,,,,,,,,,,,,,,,3035.1382027000654,None,,,,,,,,,,,,,,,,,,,,,,,,,,,,,,,,,,,,,,,,,,,,,,,,,,,,,,,,8,001,2023_Feb_01_1137,ExactRep-v3-final,2021.2.3,59.94280254701936,
,,,,11,0,11,0,,,,,,,,,,,,,,,,,,,,,,,,,,,,,,,,,,,,,,,,,,,,,,,,,,,,,,,,,3039.642846600036,None,,,,,,,,,,,,,,,,,3037.640609599999,None,,,,,,,,,,,,,,,,,,,,,,,,,,,,,,,,,,,,,,,,,,,,,,,,,,,,,,,,8,001,2023_Feb_01_1137,ExactRep-v3-final,2021.2.3,59.94280254701936,
,,,,12,0,12,0,,,,,,,,,,,,,,,,,,,,,,,,,,,,,,,,,,,,,,,,,,,,,,,,,,,,,,,,,3042.145212800009,None,,,,,,,,,,,,,,,,,3040.142993799993,None,,,,,,,,,,,,,,,,,,,,,,,,,,,,,,,,,,,,,,,,,,,,,,,,,,,,,,,,8,001,2023_Feb_01_1137,ExactRep-v3-final,2021.2.3,59.94280254701936,
,,,,13,0,13,0,,,,,,,,,,,,,,,,,,,,,,,,,,,,,,,,,,,,,,,,,,,,,,,,,,,,,,,,,3044.6476328000426,None,,,,,,,,,,,,,,,,,3042.64570480003,None,,,,,,,,,,,,,,,,,,,,,,,,,,,,,,,,,,,,,,,,,,,,,,,,,,,,,,,,8,001,2023_Feb_01_1137,ExactRep-v3-final,2021.2.3,59.94280254701936,
,,,,14,0,14,0,,,,,,,,,,,,,,,,,,,,,,,,,,,,,,,,,,,,,,,,,,,,,,,,,,,,,,,,,3047.150135700009,None,,,,,,,,,,,,,,,,,3045.1479355000192,None,,,,,,,,,,,,,,,,,,,,,,,,,,,,,,,,,,,,,,,,,,,,,,,,,,,,,,,,8,001,2023_Feb_01_1137,ExactRep-v3-final,2021.2.3,59.94280254701936,
,,,,,,,,,,,,,,,,,,,,,,,,,,,,,,,,,,,,,,,,,,,,,,,,,,,,,,,,,,,,,,,,,,,,,,,,,,,,,,,,,,,,space,30.085470099933445,3057.7641660000663,None,,,,,,,,,,,,,,,,,,,,,,,,,,,,,,,,,,,,,,,,,,,,,,,,,,,,8,001,2023_Feb_01_1137,ExactRep-v3-final,2021.2.3,59.94280254701936,
,,,,,,,,0,0,0,0,,,,,,,,,,,,,,,,,,,,,,,,,,,,,,,,,,,,,,,,,,,,,,,,,,,,,3089.9428339001024,None,,,,,,,,,,,,,,,,,,,,,,,3047.8150882000336,None,3047.8150882000336,None,3047.8150882000336,None,3047.8150882000336,None,3047.8150882000336,None,3047.8150882000336,None,shore,72,1,silent,white,3087.9359387001023,None,None,3087.9359387001023,None,,,,,,,,,,,,,,,,,,,,,,,,,,,,,,8,001,2023_Feb_01_1137,ExactRep-v3-final,2021.2.3,59.94280254701936,
,,,,,,,,1,0,1,0,,,,,,,,,,,,,,,,,,,,,,,,,,,,,,,,,,,,,,,,,,,,,,,,,,,,,3092.4620964000933,None,,,,,,,,,,,,,,,,,,,,,,,,,,,,,,,,,,,master,28,2,sing,blue,3090.4478817000054,None,None,3090.4478817000054,None,,,,,,,,,,,,,,,,,,,,,,,,,,,,,,8,001,2023_Feb_01_1137,ExactRep-v3-final,2021.2.3,59.94280254701936,
,,,,,,,,2,0,2,0,,,,,,,,,,,,,,,,,,,,,,,,,,,,,,,,,,,,,,,,,,,,,,,,,,,,,3094.981181400013,None,,,,,,,,,,,,,,,,,,,,,,,,,,,,,,,,,,,corn,21,3,sing,blue,3092.974773599999,None,None,3092.974773599999,None,,,,,,,,,,,,,,,,,,,,,,,,,,,,,,8,001,2023_Feb_01_1137,ExactRep-v3-final,2021.2.3,59.94280254701936,
,,,,,,,,3,0,3,0,,,,,,,,,,,,,,,,,,,,,,,,,,,,,,,,,,,,,,,,,,,,,,,,,,,,,3097.4838481000625,None,,,,,,,,,,,,,,,,,,,,,,,,,,,,,,,,,,,beast,62,4,silent,white,3095.4816885000328,None,None,3095.4816885000328,None,,,,,,,,,,,,,,,,,,,,,,,,,,,,,,8,001,2023_Feb_01_1137,ExactRep-v3-final,2021.2.3,59.94280254701936,
,,,,,,,,4,0,4,0,,,,,,,,,,,,,,,,,,,,,,,,,,,,,,,,,,,,,,,,,,,,,,,,,,,,,3100.0029762000777,None,,,,,,,,,,,,,,,,,,,,,,,,,,,,,,,,,,,air,58,5,silent,white,3097.988390500075,None,None,3097.988390500075,None,,,,,,,,,,,,,,,,,,,,,,,,,,,,,,8,001,2023_Feb_01_1137,ExactRep-v3-final,2021.2.3,59.94280254701936,
,,,,,,,,5,0,5,0,,,,,,,,,,,,,,,,,,,,,,,,,,,,,,,,,,,,,,,,,,,,,,,,,,,,,3102.505433900049,None,,,,,,,,,,,,,,,,,,,,,,,,,,,,,,,,,,,forest,109,6,aloud,red,3100.505266900058,None,None,3100.505266900058,None,,,,,,,,,,,,,,,,,,,,,,,,,,,,,,8,001,2023_Feb_01_1137,ExactRep-v3-final,2021.2.3,59.94280254701936,
,,,,,,,,6,0,6,0,,,,,,,,,,,,,,,,,,,,,,,,,,,,,,,,,,,,,,,,,,,,,,,,,,,,,3105.007987400051,None,,,,,,,,,,,,,,,,,,,,,,,,,,,,,,,,,,,coast,26,7,sing,blue,3103.007180500077,None,None,3103.007180500077,None,,,,,,,,,,,,,,,,,,,,,,,,,,,,,,8,001,2023_Feb_01_1137,ExactRep-v3-final,2021.2.3,59.94280254701936,
,,,,,,,,7,0,7,0,,,,,,,,,,,,,,,,,,,,,,,,,,,,,,,,,,,,,,,,,,,,,,,,,,,,,3107.5271062999964,None,,,,,,,,,,,,,,,,,,,,,,,,,,,,,,,,,,,breast,111,8,aloud,red,3105.5145148000447,None,None,3105.5145148000447,None,,,,,,,,,,,,,,,,,,,,,,,,,,,,,,8,001,2023_Feb_01_1137,ExactRep-v3-final,2021.2.3,59.94280254701936,
,,,,,,,,8,0,8,0,,,,,,,,,,,,,,,,,,,,,,,,,,,,,,,,,,,,,,,,,,,,,,,,,,,,,3110.029503900092,None,,,,,,,,,,,,,,,,,,,,,,,,,,,,,,,,,,,ocean,44,9,silent,white,3108.0297978000017,None,None,3108.0297978000017,None,,,,,,,,,,,,,,,,,,,,,,,,,,,,,,8,001,2023_Feb_01_1137,ExactRep-v3-final,2021.2.3,59.94280254701936,
,,,,,,,,9,0,9,0,,,,,,,,,,,,,,,,,,,,,,,,,,,,,,,,,,,,,,,,,,,,,,,,,,,,,3112.5320945000276,None,,,,,,,,,,,,,,,,,,,,,,,,,,,,,,,,,,,freedom,67,10,silent,white,3110.532957300078,None,None,3110.532957300078,None,,,,,,,,,,,,,,,,,,,,,,,,,,,,,,8,001,2023_Feb_01_1137,ExactRep-v3-final,2021.2.3,59.94280254701936,
,,,,,,,,10,0,10,0,,,,,,,,,,,,,,,,,,,,,,,,,,,,,,,,,,,,,,,,,,,,,,,,,,,,,3115.0511602000333,None,,,,,,,,,,,,,,,,,,,,,,,,,,,,,,,,,,,crime,75,11,silent,white,3113.0416460999986,None,None,3113.0416460999986,None,,,,,,,,,,,,,,,,,,,,,,,,,,,,,,8,001,2023_Feb_01_1137,ExactRep-v3-final,2021.2.3,59.94280254701936,
,,,,,,,,11,0,11,0,,,,,,,,,,,,,,,,,,,,,,,,,,,,,,,,,,,,,,,,,,,,,,,,,,,,,3117.570453100023,None,,,,,,,,,,,,,,,,,,,,,,,,,,,,,,,,,,,health,48,12,silent,white,3115.5603981000604,None,None,3115.5603981000604,None,,,,,,,,,,,,,,,,,,,,,,,,,,,,,,8,001,2023_Feb_01_1137,ExactRep-v3-final,2021.2.3,59.94280254701936,
,,,,,,,,12,0,12,0,,,,,,,,,,,,,,,,,,,,,,,,,,,,,,,,,,,,,,,,,,,,,,,,,,,,,3120.0729021000443,None,,,,,,,,,,,,,,,,,,,,,,,,,,,,,,,,,,,charm,59,13,silent,white,3118.071515800082,None,None,3118.071515800082,None,,,,,,,,,,,,,,,,,,,,,,,,,,,,,,8,001,2023_Feb_01_1137,ExactRep-v3-final,2021.2.3,59.94280254701936,
,,,,,,,,13,0,13,0,,,,,,,,,,,,,,,,,,,,,,,,,,,,,,,,,,,,,,,,,,,,,,,,,,,,,3122.5753223000793,None,,,,,,,,,,,,,,,,,,,,,,,,,,,,,,,,,,,grief,114,14,aloud,red,3120.5737111000344,None,None,3120.5737111000344,None,,,,,,,,,,,,,,,,,,,,,,,,,,,,,,8,001,2023_Feb_01_1137,ExactRep-v3-final,2021.2.3,59.94280254701936,
,,,,,,,,14,0,14,0,,,,,,,,,,,,,,,,,,,,,,,,,,,,,,,,,,,,,,,,,,,,,,,,,,,,,3125.094699500012,None,,,,,,,,,,,,,,,,,,,,,,,,,,,,,,,,,,,mind,56,15,silent,white,3123.0795436000917,None,None,3123.0795436000917,None,,,,,,,,,,,,,,,,,,,,,,,,,,,,,,8,001,2023_Feb_01_1137,ExactRep-v3-final,2021.2.3,59.94280254701936,
,,,,,,,,15,0,15,0,,,,,,,,,,,,,,,,,,,,,,,,,,,,,,,,,,,,,,,,,,,,,,,,,,,,,3127.5972004000796,None,,,,,,,,,,,,,,,,,,,,,,,,,,,,,,,,,,,fact,101,16,aloud,red,3125.5951082000975,None,None,3125.5951082000975,None,,,,,,,,,,,,,,,,,,,,,,,,,,,,,,8,001,2023_Feb_01_1137,ExactRep-v3-final,2021.2.3,59.94280254701936,
,,,,,,,,16,0,16,0,,,,,,,,,,,,,,,,,,,,,,,,,,,,,,,,,,,,,,,,,,,,,,,,,,,,,3130.1163621000014,None,,,,,,,,,,,,,,,,,,,,,,,,,,,,,,,,,,,blossom,115,17,aloud,red,3128.1007596000563,None,None,3128.1007596000563,None,,,,,,,,,,,,,,,,,,,,,,,,,,,,,,8,001,2023_Feb_01_1137,ExactRep-v3-final,2021.2.3,59.94280254701936,
,,,,,,,,17,0,17,0,,,,,,,,,,,,,,,,,,,,,,,,,,,,,,,,,,,,,,,,,,,,,,,,,,,,,3132.6355599000817,None,,,,,,,,,,,,,,,,,,,,,,,,,,,,,,,,,,,village,102,18,aloud,red,3130.6208233000943,None,None,3130.6208233000943,None,,,,,,,,,,,,,,,,,,,,,,,,,,,,,,8,001,2023_Feb_01_1137,ExactRep-v3-final,2021.2.3,59.94280254701936,
,,,,,,,,18,0,18,0,,,,,,,,,,,,,,,,,,,,,,,,,,,,,,,,,,,,,,,,,,,,,,,,,,,,,3135.154688800103,None,,,,,,,,,,,,,,,,,,,,,,,,,,,,,,,,,,,event,82,19,aloud,red,3133.139121000073,None,None,3133.139121000073,None,,,,,,,,,,,,,,,,,,,,,,,,,,,,,,8,001,2023_Feb_01_1137,ExactRep-v3-final,2021.2.3,59.94280254701936,
,,,,,,,,19,0,19,0,,,,,,,,,,,,,,,,,,,,,,,,,,,,,,,,,,,,,,,,,,,,,,,,,,,,,3137.657147800084,None,,,,,,,,,,,,,,,,,,,,,,,,,,,,,,,,,,,dream,53,20,silent,white,3135.6572641000384,None,None,3135.6572641000384,None,,,,,,,,,,,,,,,,,,,,,,,,,,,,,,8,001,2023_Feb_01_1137,ExactRep-v3-final,2021.2.3,59.94280254701936,
,,,,,,,,20,0,20,0,,,,,,,,,,,,,,,,,,,,,,,,,,,,,,,,,,,,,,,,,,,,,,,,,,,,,3140.1769820000045,None,,,,,,,,,,,,,,,,,,,,,,,,,,,,,,,,,,,dollar,4,21,sing,blue,3138.1670910000103,None,None,3138.1670910000103,None,,,,,,,,,,,,,,,,,,,,,,,,,,,,,,8,001,2023_Feb_01_1137,ExactRep-v3-final,2021.2.3,59.94280254701936,
,,,,,,,,21,0,21,0,,,,,,,,,,,,,,,,,,,,,,,,,,,,,,,,,,,,,,,,,,,,,,,,,,,,,3142.678968699998,None,,,,,,,,,,,,,,,,,,,,,,,,,,,,,,,,,,,sky,57,22,silent,white,3140.6791495000944,None,None,3140.6791495000944,None,,,,,,,,,,,,,,,,,,,,,,,,,,,,,,8,001,2023_Feb_01_1137,ExactRep-v3-final,2021.2.3,59.94280254701936,
,,,,,,,,22,0,22,0,,,,,,,,,,,,,,,,,,,,,,,,,,,,,,,,,,,,,,,,,,,,,,,,,,,,,3145.198069300037,None,,,,,,,,,,,,,,,,,,,,,,,,,,,,,,,,,,,flag,41,23,silent,white,3143.188759700046,None,None,3143.188759700046,None,,,,,,,,,,,,,,,,,,,,,,,,,,,,,,8,001,2023_Feb_01_1137,ExactRep-v3-final,2021.2.3,59.94280254701936,
,,,,,,,,23,0,23,0,,,,,,,,,,,,,,,,,,,,,,,,,,,,,,,,,,,,,,,,,,,,,,,,,,,,,3147.700549500063,None,,,,,,,,,,,,,,,,,,,,,,,,,,,,,,,,,,,lad,68,24,silent,white,3145.6994986000936,None,None,3145.6994986000936,None,,,,,,,,,,,,,,,,,,,,,,,,,,,,,,8,001,2023_Feb_01_1137,ExactRep-v3-final,2021.2.3,59.94280254701936,
,,,,,,,,24,0,24,0,,,,,,,,,,,,,,,,,,,,,,,,,,,,,,,,,,,,,,,,,,,,,,,,,,,,,3150.219764800044,None,,,,,,,,,,,,,,,,,,,,,,,,,,,,,,,,,,,fire,87,25,aloud,red,3148.204807700007,None,None,3148.204807700007,None,,,,,,,,,,,,,,,,,,,,,,,,,,,,,,8,001,2023_Feb_01_1137,ExactRep-v3-final,2021.2.3,59.94280254701936,
,,,,,,,,25,0,25,0,,,,,,,,,,,,,,,,,,,,,,,,,,,,,,,,,,,,,,,,,,,,,,,,,,,,,3152.739022900001,None,,,,,,,,,,,,,,,,,,,,,,,,,,,,,,,,,,,river,8,26,sing,blue,3150.7266485000728,None,None,3150.7266485000728,None,,,,,,,,,,,,,,,,,,,,,,,,,,,,,,8,001,2023_Feb_01_1137,ExactRep-v3-final,2021.2.3,59.94280254701936,
,,,,,,,,26,0,26,0,,,,,,,,,,,,,,,,,,,,,,,,,,,,,,,,,,,,,,,,,,,,,,,,,,,,,3155.2582352000754,None,,,,,,,,,,,,,,,,,,,,,,,,,,,,,,,,,,,factory,116,27,aloud,red,3153.2429672,None,None,3153.2429672,None,,,,,,,,,,,,,,,,,,,,,,,,,,,,,,8,001,2023_Feb_01_1137,ExactRep-v3-final,2021.2.3,59.94280254701936,
,,,,,,,,27,0,27,0,,,,,,,,,,,,,,,,,,,,,,,,,,,,,,,,,,,,,,,,,,,,,,,,,,,,,3157.762295600027,None,,,,,,,,,,,,,,,,,,,,,,,,,,,,,,,,,,,army,60,28,silent,white,3155.7588926000753,None,None,3155.7588926000753,None,,,,,,,,,,,,,,,,,,,,,,,,,,,,,,8,001,2023_Feb_01_1137,ExactRep-v3-final,2021.2.3,59.94280254701936,
,,,,,,,,28,0,28,0,,,,,,,,,,,,,,,,,,,,,,,,,,,,,,,,,,,,,,,,,,,,,,,,,,,,,3160.279853300075,None,,,,,,,,,,,,,,,,,,,,,,,,,,,,,,,,,,,season,7,29,sing,blue,3158.2777968000155,None,None,3158.2777968000155,None,,,,,,,,,,,,,,,,,,,,,,,,,,,,,,8,001,2023_Feb_01_1137,ExactRep-v3-final,2021.2.3,59.94280254701936,
,,,,,,,,29,0,29,0,,,,,,,,,,,,,,,,,,,,,,,,,,,,,,,,,,,,,,,,,,,,,,,,,,,,,3162.7990239000646,None,,,,,,,,,,,,,,,,,,,,,,,,,,,,,,,,,,,pipe,107,30,aloud,red,3160.786095299991,None,None,3160.786095299991,None,,,,,,,,,,,,,,,,,,,,,,,,,,,,,,8,001,2023_Feb_01_1137,ExactRep-v3-final,2021.2.3,59.94280254701936,
,,,,,,,,30,0,30,0,,,,,,,,,,,,,,,,,,,,,,,,,,,,,,,,,,,,,,,,,,,,,,,,,,,,,3165.318733500084,None,,,,,,,,,,,,,,,,,,,,,,,,,,,,,,,,,,,dress,18,31,sing,blue,3163.3028992000036,None,None,3163.3028992000036,None,,,,,,,,,,,,,,,,,,,,,,,,,,,,,,8,001,2023_Feb_01_1137,ExactRep-v3-final,2021.2.3,59.94280254701936,
,,,,,,,,31,0,31,0,,,,,,,,,,,,,,,,,,,,,,,,,,,,,,,,,,,,,,,,,,,,,,,,,,,,,3167.8206672000233,None,,,,,,,,,,,,,,,,,,,,,,,,,,,,,,,,,,,nail,38,32,sing,blue,3165.818636400043,None,None,3165.818636400043,None,,,,,,,,,,,,,,,,,,,,,,,,,,,,,,8,001,2023_Feb_01_1137,ExactRep-v3-final,2021.2.3,59.94280254701936,
,,,,,,,,32,0,32,0,,,,,,,,,,,,,,,,,,,,,,,,,,,,,,,,,,,,,,,,,,,,,,,,,,,,,3170.339888000046,None,,,,,,,,,,,,,,,,,,,,,,,,,,,,,,,,,,,fur,73,33,silent,white,3168.3304140000837,None,None,3168.3304140000837,None,,,,,,,,,,,,,,,,,,,,,,,,,,,,,,8,001,2023_Feb_01_1137,ExactRep-v3-final,2021.2.3,59.94280254701936,
,,,,,,,,33,0,33,0,,,,,,,,,,,,,,,,,,,,,,,,,,,,,,,,,,,,,,,,,,,,,,,,,,,,,3172.8591310000047,None,,,,,,,,,,,,,,,,,,,,,,,,,,,,,,,,,,,boulder,16,34,sing,blue,3170.843965900014,None,None,3170.843965900014,None,,,,,,,,,,,,,,,,,,,,,,,,,,,,,,8,001,2023_Feb_01_1137,ExactRep-v3-final,2021.2.3,59.94280254701936,
,,,,,,,,34,0,34,0,,,,,,,,,,,,,,,,,,,,,,,,,,,,,,,,,,,,,,,,,,,,,,,,,,,,,3175.3782930000452,None,,,,,,,,,,,,,,,,,,,,,,,,,,,,,,,,,,,brain,43,35,silent,white,3173.3642674000002,None,None,3173.3642674000002,None,,,,,,,,,,,,,,,,,,,,,,,,,,,,,,8,001,2023_Feb_01_1137,ExactRep-v3-final,2021.2.3,59.94280254701936,
,,,,,,,,35,0,35,0,,,,,,,,,,,,,,,,,,,,,,,,,,,,,,,,,,,,,,,,,,,,,,,,,,,,,3177.8973712000297,None,,,,,,,,,,,,,,,,,,,,,,,,,,,,,,,,,,,street,113,36,aloud,red,3175.884814499994,None,None,3175.884814499994,None,,,,,,,,,,,,,,,,,,,,,,,,,,,,,,8,001,2023_Feb_01_1137,ExactRep-v3-final,2021.2.3,59.94280254701936,
,,,,,,,,36,0,36,0,,,,,,,,,,,,,,,,,,,,,,,,,,,,,,,,,,,,,,,,,,,,,,,,,,,,,3180.4165574000217,None,,,,,,,,,,,,,,,,,,,,,,,,,,,,,,,,,,,gold,94,37,aloud,red,3178.4060170000885,None,None,3178.4060170000885,None,,,,,,,,,,,,,,,,,,,,,,,,,,,,,,8,001,2023_Feb_01_1137,ExactRep-v3-final,2021.2.3,59.94280254701936,
,,,,,,,,37,0,37,0,,,,,,,,,,,,,,,,,,,,,,,,,,,,,,,,,,,,,,,,,,,,,,,,,,,,,3182.9190961000277,None,,,,,,,,,,,,,,,,,,,,,,,,,,,,,,,,,,,priest,77,38,silent,white,3180.916786400019,None,None,3180.916786400019,None,,,,,,,,,,,,,,,,,,,,,,,,,,,,,,8,001,2023_Feb_01_1137,ExactRep-v3-final,2021.2.3,59.94280254701936,
,,,,,,,,38,0,38,0,,,,,,,,,,,,,,,,,,,,,,,,,,,,,,,,,,,,,,,,,,,,,,,,,,,,,3185.4215881000273,None,,,,,,,,,,,,,,,,,,,,,,,,,,,,,,,,,,,stone,65,39,silent,white,3183.4195593000622,None,None,3183.4195593000622,None,,,,,,,,,,,,,,,,,,,,,,,,,,,,,,8,001,2023_Feb_01_1137,ExactRep-v3-final,2021.2.3,59.94280254701936,
,,,,,,,,39,0,39,0,,,,,,,,,,,,,,,,,,,,,,,,,,,,,,,,,,,,,,,,,,,,,,,,,,,,,3187.940649700002,None,,,,,,,,,,,,,,,,,,,,,,,,,,,,,,,,,,,devil,91,40,aloud,red,3185.9253174000187,None,None,3185.9253174000187,None,,,,,,,,,,,,,,,,,,,,,,,,,,,,,,8,001,2023_Feb_01_1137,ExactRep-v3-final,2021.2.3,59.94280254701936,
,,,,,,,,40,0,40,0,,,,,,,,,,,,,,,,,,,,,,,,,,,,,,,,,,,,,,,,,,,,,,,,,,,,,3190.4430738000665,None,,,,,,,,,,,,,,,,,,,,,,,,,,,,,,,,,,,home,2,41,sing,blue,3188.4411697000032,None,None,3188.4411697000032,None,,,,,,,,,,,,,,,,,,,,,,,,,,,,,,8,001,2023_Feb_01_1137,ExactRep-v3-final,2021.2.3,59.94280254701936,
,,,,,,,,41,0,41,0,,,,,,,,,,,,,,,,,,,,,,,,,,,,,,,,,,,,,,,,,,,,,,,,,,,,,3192.9458250000607,None,,,,,,,,,,,,,,,,,,,,,,,,,,,,,,,,,,,life,54,42,silent,white,3190.9437823999906,None,None,3190.9437823999906,None,,,,,,,,,,,,,,,,,,,,,,,,,,,,,,8,001,2023_Feb_01_1137,ExactRep-v3-final,2021.2.3,59.94280254701936,
,,,,,,,,42,0,42,0,,,,,,,,,,,,,,,,,,,,,,,,,,,,,,,,,,,,,,,,,,,,,,,,,,,,,3195.4482747000875,None,,,,,,,,,,,,,,,,,,,,,,,,,,,,,,,,,,,lord,78,43,silent,white,3193.44691649999,None,None,3193.44691649999,None,,,,,,,,,,,,,,,,,,,,,,,,,,,,,,8,001,2023_Feb_01_1137,ExactRep-v3-final,2021.2.3,59.94280254701936,
,,,,,,,,43,0,43,0,,,,,,,,,,,,,,,,,,,,,,,,,,,,,,,,,,,,,,,,,,,,,,,,,,,,,3197.950702900067,None,,,,,,,,,,,,,,,,,,,,,,,,,,,,,,,,,,,kiss,99,44,aloud,red,3195.948740300024,None,None,3195.948740300024,None,,,,,,,,,,,,,,,,,,,,,,,,,,,,,,8,001,2023_Feb_01_1137,ExactRep-v3-final,2021.2.3,59.94280254701936,
,,,,,,,,44,0,44,0,,,,,,,,,,,,,,,,,,,,,,,,,,,,,,,,,,,,,,,,,,,,,,,,,,,,,3200.4699881999986,None,,,,,,,,,,,,,,,,,,,,,,,,,,,,,,,,,,,bowl,13,45,sing,blue,3198.457764800056,None,None,3198.457764800056,None,,,,,,,,,,,,,,,,,,,,,,,,,,,,,,8,001,2023_Feb_01_1137,ExactRep-v3-final,2021.2.3,59.94280254701936,
,,,,,,,,45,0,45,0,,,,,,,,,,,,,,,,,,,,,,,,,,,,,,,,,,,,,,,,,,,,,,,,,,,,,3202.9891243000748,None,,,,,,,,,,,,,,,,,,,,,,,,,,,,,,,,,,,skin,86,46,aloud,red,3200.976518100011,None,None,3200.976518100011,None,,,,,,,,,,,,,,,,,,,,,,,,,,,,,,8,001,2023_Feb_01_1137,ExactRep-v3-final,2021.2.3,59.94280254701936,
,,,,,,,,46,0,46,0,,,,,,,,,,,,,,,,,,,,,,,,,,,,,,,,,,,,,,,,,,,,,,,,,,,,,3205.5082945000613,None,,,,,,,,,,,,,,,,,,,,,,,,,,,,,,,,,,,bird,5,47,sing,blue,3203.494331300026,None,None,3203.494331300026,None,,,,,,,,,,,,,,,,,,,,,,,,,,,,,,8,001,2023_Feb_01_1137,ExactRep-v3-final,2021.2.3,59.94280254701936,
,,,,,,,,47,0,47,0,,,,,,,,,,,,,,,,,,,,,,,,,,,,,,,,,,,,,,,,,,,,,,,,,,,,,3208.027441100101,None,,,,,,,,,,,,,,,,,,,,,,,,,,,,,,,,,,,origin,39,48,silent,white,3206.012435600045,None,None,3206.012435600045,None,,,,,,,,,,,,,,,,,,,,,,,,,,,,,,8,001,2023_Feb_01_1137,ExactRep-v3-final,2021.2.3,59.94280254701936,
,,,,,,,,48,0,48,0,,,,,,,,,,,,,,,,,,,,,,,,,,,,,,,,,,,,,,,,,,,,,,,,,,,,,3210.529979999992,None,,,,,,,,,,,,,,,,,,,,,,,,,,,,,,,,,,,dawn,6,49,sing,blue,3208.5290582000744,None,None,3208.5290582000744,None,,,,,,,,,,,,,,,,,,,,,,,,,,,,,,8,001,2023_Feb_01_1137,ExactRep-v3-final,2021.2.3,59.94280254701936,
,,,,,,,,49,0,49,0,,,,,,,,,,,,,,,,,,,,,,,,,,,,,,,,,,,,,,,,,,,,,,,,,,,,,3213.0325307000894,None,,,,,,,,,,,,,,,,,,,,,,,,,,,,,,,,,,,moment,66,50,silent,white,3211.03301080002,None,None,3211.03301080002,None,,,,,,,,,,,,,,,,,,,,,,,,,,,,,,8,001,2023_Feb_01_1137,ExactRep-v3-final,2021.2.3,59.94280254701936,
,,,,,,,,50,0,50,0,,,,,,,,,,,,,,,,,,,,,,,,,,,,,,,,,,,,,,,,,,,,,,,,,,,,,3215.5350971000735,None,,,,,,,,,,,,,,,,,,,,,,,,,,,,,,,,,,,victory,55,51,silent,white,3213.5329891000874,None,None,3213.5329891000874,None,,,,,,,,,,,,,,,,,,,,,,,,,,,,,,8,001,2023_Feb_01_1137,ExactRep-v3-final,2021.2.3,59.94280254701936,
,,,,,,,,51,0,51,0,,,,,,,,,,,,,,,,,,,,,,,,,,,,,,,,,,,,,,,,,,,,,,,,,,,,,3218.0542919000145,None,,,,,,,,,,,,,,,,,,,,,,,,,,,,,,,,,,,metal,84,52,aloud,red,3216.041108900099,None,None,3216.041108900099,None,,,,,,,,,,,,,,,,,,,,,,,,,,,,,,8,001,2023_Feb_01_1137,ExactRep-v3-final,2021.2.3,59.94280254701936,
,,,,,,,,52,0,52,0,,,,,,,,,,,,,,,,,,,,,,,,,,,,,,,,,,,,,,,,,,,,,,,,,,,,,3220.5566839000676,None,,,,,,,,,,,,,,,,,,,,,,,,,,,,,,,,,,,winter,32,53,sing,blue,3218.5545492999954,None,None,3218.5545492999954,None,,,,,,,,,,,,,,,,,,,,,,,,,,,,,,8,001,2023_Feb_01_1137,ExactRep-v3-final,2021.2.3,59.94280254701936,
,,,,,,,,53,0,53,0,,,,,,,,,,,,,,,,,,,,,,,,,,,,,,,,,,,,,,,,,,,,,,,,,,,,,3223.0755633000517,None,,,,,,,,,,,,,,,,,,,,,,,,,,,,,,,,,,,deed,29,54,sing,blue,3221.0663292000536,None,None,3221.0663292000536,None,,,,,,,,,,,,,,,,,,,,,,,,,,,,,,8,001,2023_Feb_01_1137,ExactRep-v3-final,2021.2.3,59.94280254701936,
,,,,,,,,54,0,54,0,,,,,,,,,,,,,,,,,,,,,,,,,,,,,,,,,,,,,,,,,,,,,,,,,,,,,3225.5784182000207,None,,,,,,,,,,,,,,,,,,,,,,,,,,,,,,,,,,,library,70,55,silent,white,3223.577331700013,None,None,3223.577331700013,None,,,,,,,,,,,,,,,,,,,,,,,,,,,,,,8,001,2023_Feb_01_1137,ExactRep-v3-final,2021.2.3,59.94280254701936,
,,,,,,,,55,0,55,0,,,,,,,,,,,,,,,,,,,,,,,,,,,,,,,,,,,,,,,,,,,,,,,,,,,,,3228.097501600045,None,,,,,,,,,,,,,,,,,,,,,,,,,,,,,,,,,,,quality,71,56,silent,white,3226.094823200023,None,None,3226.094823200023,None,,,,,,,,,,,,,,,,,,,,,,,,,,,,,,8,001,2023_Feb_01_1137,ExactRep-v3-final,2021.2.3,59.94280254701936,
,,,,,,,,56,0,56,0,,,,,,,,,,,,,,,,,,,,,,,,,,,,,,,,,,,,,,,,,,,,,,,,,,,,,3230.600028600078,None,,,,,,,,,,,,,,,,,,,,,,,,,,,,,,,,,,,glory,35,57,sing,blue,3228.598052000045,None,None,3228.598052000045,None,,,,,,,,,,,,,,,,,,,,,,,,,,,,,,8,001,2023_Feb_01_1137,ExactRep-v3-final,2021.2.3,59.94280254701936,
,,,,,,,,57,0,57,0,,,,,,,,,,,,,,,,,,,,,,,,,,,,,,,,,,,,,,,,,,,,,,,,,,,,,3233.119214900071,None,,,,,,,,,,,,,,,,,,,,,,,,,,,,,,,,,,,meat,64,58,silent,white,3231.10859050008,None,None,3231.10859050008,None,,,,,,,,,,,,,,,,,,,,,,,,,,,,,,8,001,2023_Feb_01_1137,ExactRep-v3-final,2021.2.3,59.94280254701936,
,,,,,,,,58,0,58,0,,,,,,,,,,,,,,,,,,,,,,,,,,,,,,,,,,,,,,,,,,,,,,,,,,,,,3235.6252158000134,None,,,,,,,,,,,,,,,,,,,,,,,,,,,,,,,,,,,opinion,30,59,sing,blue,3233.619759400026,None,None,3233.619759400026,None,,,,,,,,,,,,,,,,,,,,,,,,,,,,,,8,001,2023_Feb_01_1137,ExactRep-v3-final,2021.2.3,59.94280254701936,
,,,,,,,,59,0,59,0,,,,,,,,,,,,,,,,,,,,,,,,,,,,,,,,,,,,,,,,,,,,,,,,,,,,,3238.1407882000785,None,,,,,,,,,,,,,,,,,,,,,,,,,,,,,,,,,,,idea,46,60,silent,white,3236.1388949000975,None,None,3236.1388949000975,None,,,,,,,,,,,,,,,,,,,,,,,,,,,,,,8,001,2023_Feb_01_1137,ExactRep-v3-final,2021.2.3,59.94280254701936,
,,,,,,,,60,0,60,0,,,,,,,,,,,,,,,,,,,,,,,,,,,,,,,,,,,,,,,,,,,,,,,,,,,,,3240.660001600045,None,,,,,,,,,,,,,,,,,,,,,,,,,,,,,,,,,,,moral,105,61,aloud,red,3238.645056400099,None,None,3238.645056400099,None,,,,,,,,,,,,,,,,,,,,,,,,,,,,,,8,001,2023_Feb_01_1137,ExactRep-v3-final,2021.2.3,59.94280254701936,
,,,,,,,,61,0,61,0,,,,,,,,,,,,,,,,,,,,,,,,,,,,,,,,,,,,,,,,,,,,,,,,,,,,,3243.1627011999954,None,,,,,,,,,,,,,,,,,,,,,,,,,,,,,,,,,,,storm,49,62,silent,white,3241.1603052000282,None,None,3241.1603052000282,None,,,,,,,,,,,,,,,,,,,,,,,,,,,,,,8,001,2023_Feb_01_1137,ExactRep-v3-final,2021.2.3,59.94280254701936,
,,,,,,,,62,0,62,0,,,,,,,,,,,,,,,,,,,,,,,,,,,,,,,,,,,,,,,,,,,,,,,,,,,,,3245.6823152001016,None,,,,,,,,,,,,,,,,,,,,,,,,,,,,,,,,,,,poet,63,63,silent,white,3243.6678798000794,None,None,3243.6678798000794,None,,,,,,,,,,,,,,,,,,,,,,,,,,,,,,8,001,2023_Feb_01_1137,ExactRep-v3-final,2021.2.3,59.94280254701936,
,,,,,,,,63,0,63,0,,,,,,,,,,,,,,,,,,,,,,,,,,,,,,,,,,,,,,,,,,,,,,,,,,,,,3248.1842772000236,None,,,,,,,,,,,,,,,,,,,,,,,,,,,,,,,,,,,party,96,64,aloud,red,3246.182269699988,None,None,3246.182269699988,None,,,,,,,,,,,,,,,,,,,,,,,,,,,,,,8,001,2023_Feb_01_1137,ExactRep-v3-final,2021.2.3,59.94280254701936,
,,,,,,,,64,0,64,0,,,,,,,,,,,,,,,,,,,,,,,,,,,,,,,,,,,,,,,,,,,,,,,,,,,,,3250.6867502999958,None,,,,,,,,,,,,,,,,,,,,,,,,,,,,,,,,,,,coffee,106,65,aloud,red,3248.6867870000424,None,None,3248.6867870000424,None,,,,,,,,,,,,,,,,,,,,,,,,,,,,,,8,001,2023_Feb_01_1137,ExactRep-v3-final,2021.2.3,59.94280254701936,
,,,,,,,,65,0,65,0,,,,,,,,,,,,,,,,,,,,,,,,,,,,,,,,,,,,,,,,,,,,,,,,,,,,,3253.206002800027,None,,,,,,,,,,,,,,,,,,,,,,,,,,,,,,,,,,,trouble,88,66,aloud,red,3251.19491760002,None,None,3251.19491760002,None,,,,,,,,,,,,,,,,,,,,,,,,,,,,,,8,001,2023_Feb_01_1137,ExactRep-v3-final,2021.2.3,59.94280254701936,
,,,,,,,,66,0,66,0,,,,,,,,,,,,,,,,,,,,,,,,,,,,,,,,,,,,,,,,,,,,,,,,,,,,,3255.708489899989,None,,,,,,,,,,,,,,,,,,,,,,,,,,,,,,,,,,,bar,80,67,aloud,red,3253.7065012000967,None,None,3253.7065012000967,None,,,,,,,,,,,,,,,,,,,,,,,,,,,,,,8,001,2023_Feb_01_1137,ExactRep-v3-final,2021.2.3,59.94280254701936,
,,,,,,,,67,0,67,0,,,,,,,,,,,,,,,,,,,,,,,,,,,,,,,,,,,,,,,,,,,,,,,,,,,,,3258.210995700094,None,,,,,,,,,,,,,,,,,,,,,,,,,,,,,,,,,,,length,93,68,aloud,red,3256.2087560000364,None,None,3256.2087560000364,None,,,,,,,,,,,,,,,,,,,,,,,,,,,,,,8,001,2023_Feb_01_1137,ExactRep-v3-final,2021.2.3,59.94280254701936,
,,,,,,,,68,0,68,0,,,,,,,,,,,,,,,,,,,,,,,,,,,,,,,,,,,,,,,,,,,,,,,,,,,,,3260.7134840000654,None,,,,,,,,,,,,,,,,,,,,,,,,,,,,,,,,,,,king,19,69,sing,blue,3258.7142844999908,None,None,3258.7142844999908,None,,,,,,,,,,,,,,,,,,,,,,,,,,,,,,8,001,2023_Feb_01_1137,ExactRep-v3-final,2021.2.3,59.94280254701936,
,,,,,,,,69,0,69,0,,,,,,,,,,,,,,,,,,,,,,,,,,,,,,,,,,,,,,,,,,,,,,,,,,,,,3263.232658000081,None,,,,,,,,,,,,,,,,,,,,,,,,,,,,,,,,,,,vision,9,70,sing,blue,3261.217441900051,None,None,3261.217441900051,None,,,,,,,,,,,,,,,,,,,,,,,,,,,,,,8,001,2023_Feb_01_1137,ExactRep-v3-final,2021.2.3,59.94280254701936,
,,,,,,,,70,0,70,0,,,,,,,,,,,,,,,,,,,,,,,,,,,,,,,,,,,,,,,,,,,,,,,,,,,,,3265.735117800068,None,,,,,,,,,,,,,,,,,,,,,,,,,,,,,,,,,,,toy,112,71,aloud,red,3263.733200800023,None,None,3263.733200800023,None,,,,,,,,,,,,,,,,,,,,,,,,,,,,,,8,001,2023_Feb_01_1137,ExactRep-v3-final,2021.2.3,59.94280254701936,
,,,,,,,,71,0,71,0,,,,,,,,,,,,,,,,,,,,,,,,,,,,,,,,,,,,,,,,,,,,,,,,,,,,,3268.23757560004,None,,,,,,,,,,,,,,,,,,,,,,,,,,,,,,,,,,,soul,24,72,sing,blue,3266.235523100011,None,None,3266.235523100011,None,,,,,,,,,,,,,,,,,,,,,,,,,,,,,,8,001,2023_Feb_01_1137,ExactRep-v3-final,2021.2.3,59.94280254701936,
,,,,,,,,72,0,72,0,,,,,,,,,,,,,,,,,,,,,,,,,,,,,,,,,,,,,,,,,,,,,,,,,,,,,3270.740287300083,None,,,,,,,,,,,,,,,,,,,,,,,,,,,,,,,,,,,girl,11,73,sing,blue,3268.737952700001,None,None,3268.737952700001,None,,,,,,,,,,,,,,,,,,,,,,,,,,,,,,8,001,2023_Feb_01_1137,ExactRep-v3-final,2021.2.3,59.94280254701936,
,,,,,,,,73,0,73,0,,,,,,,,,,,,,,,,,,,,,,,,,,,,,,,,,,,,,,,,,,,,,,,,,,,,,3273.242753600003,None,,,,,,,,,,,,,,,,,,,,,,,,,,,,,,,,,,,window,31,74,sing,blue,3271.242542700027,None,None,3271.242542700027,None,,,,,,,,,,,,,,,,,,,,,,,,,,,,,,8,001,2023_Feb_01_1137,ExactRep-v3-final,2021.2.3,59.94280254701936,
,,,,,,,,74,0,74,0,,,,,,,,,,,,,,,,,,,,,,,,,,,,,,,,,,,,,,,,,,,,,,,,,,,,,3275.7618531000335,None,,,,,,,,,,,,,,,,,,,,,,,,,,,,,,,,,,,anger,47,75,silent,white,3273.749746900052,None,None,3273.749746900052,None,,,,,,,,,,,,,,,,,,,,,,,,,,,,,,8,001,2023_Feb_01_1137,ExactRep-v3-final,2021.2.3,59.94280254701936,
,,,,,,,,75,0,75,0,,,,,,,,,,,,,,,,,,,,,,,,,,,,,,,,,,,,,,,,,,,,,,,,,,,,,3278.2658898000373,None,,,,,,,,,,,,,,,,,,,,,,,,,,,,,,,,,,,cost,51,76,silent,white,3276.264592600055,None,None,3276.264592600055,None,,,,,,,,,,,,,,,,,,,,,,,,,,,,,,8,001,2023_Feb_01_1137,ExactRep-v3-final,2021.2.3,59.94280254701936,
,,,,,,,,76,0,76,0,,,,,,,,,,,,,,,,,,,,,,,,,,,,,,,,,,,,,,,,,,,,,,,,,,,,,3280.766865100013,None,,,,,,,,,,,,,,,,,,,,,,,,,,,,,,,,,,,memory,83,77,aloud,red,3278.766100800014,None,None,3278.766100800014,None,,,,,,,,,,,,,,,,,,,,,,,,,,,,,,8,001,2023_Feb_01_1137,ExactRep-v3-final,2021.2.3,59.94280254701936,
,,,,,,,,77,0,77,0,,,,,,,,,,,,,,,,,,,,,,,,,,,,,,,,,,,,,,,,,,,,,,,,,,,,,3283.2860371000133,None,,,,,,,,,,,,,,,,,,,,,,,,,,,,,,,,,,,answer,100,78,aloud,red,3281.276719100075,None,None,3281.276719100075,None,,,,,,,,,,,,,,,,,,,,,,,,,,,,,,8,001,2023_Feb_01_1137,ExactRep-v3-final,2021.2.3,59.94280254701936,
,,,,,,,,78,0,78,0,,,,,,,,,,,,,,,,,,,,,,,,,,,,,,,,,,,,,,,,,,,,,,,,,,,,,3285.7885015000356,None,,,,,,,,,,,,,,,,,,,,,,,,,,,,,,,,,,,pole,119,79,aloud,red,3283.7890281000873,None,None,3283.7890281000873,None,,,,,,,,,,,,,,,,,,,,,,,,,,,,,,8,001,2023_Feb_01_1137,ExactRep-v3-final,2021.2.3,59.94280254701936,
,,,,,,,,79,0,79,0,,,,,,,,,,,,,,,,,,,,,,,,,,,,,,,,,,,,,,,,,,,,,,,,,,,,,3288.3076736000367,None,,,,,,,,,,,,,,,,,,,,,,,,,,,,,,,,,,,method,85,80,aloud,red,3286.2949149000924,None,None,3286.2949149000924,None,,,,,,,,,,,,,,,,,,,,,,,,,,,,,,8,001,2023_Feb_01_1137,ExactRep-v3-final,2021.2.3,59.94280254701936,
,,,,,,,,80,0,80,0,,,,,,,,,,,,,,,,,,,,,,,,,,,,,,,,,,,,,,,,,,,,,,,,,,,,,3290.8269352000207,None,,,,,,,,,,,,,,,,,,,,,,,,,,,,,,,,,,,arm,104,81,aloud,red,3288.82094720006,None,None,3288.82094720006,None,,,,,,,,,,,,,,,,,,,,,,,,,,,,,,8,001,2023_Feb_01_1137,ExactRep-v3-final,2021.2.3,59.94280254701936,
,,,,,,,,81,0,81,0,,,,,,,,,,,,,,,,,,,,,,,,,,,,,,,,,,,,,,,,,,,,,,,,,,,,,3293.3294806000777,None,,,,,,,,,,,,,,,,,,,,,,,,,,,,,,,,,,,star,61,82,silent,white,3291.3284394000657,None,None,3291.3284394000657,None,,,,,,,,,,,,,,,,,,,,,,,,,,,,,,8,001,2023_Feb_01_1137,ExactRep-v3-final,2021.2.3,59.94280254701936,
,,,,,,,,82,0,82,0,,,,,,,,,,,,,,,,,,,,,,,,,,,,,,,,,,,,,,,,,,,,,,,,,,,,,3295.848537700018,None,,,,,,,,,,,,,,,,,,,,,,,,,,,,,,,,,,,fortune,45,83,silent,white,3293.8333491000813,None,None,3293.8333491000813,None,,,,,,,,,,,,,,,,,,,,,,,,,,,,,,8,001,2023_Feb_01_1137,ExactRep-v3-final,2021.2.3,59.94280254701936,
,,,,,,,,83,0,83,0,,,,,,,,,,,,,,,,,,,,,,,,,,,,,,,,,,,,,,,,,,,,,,,,,,,,,3298.367593400064,None,,,,,,,,,,,,,,,,,,,,,,,,,,,,,,,,,,,cattle,69,84,silent,white,3296.3573365000775,None,None,3296.3573365000775,None,,,,,,,,,,,,,,,,,,,,,,,,,,,,,,8,001,2023_Feb_01_1137,ExactRep-v3-final,2021.2.3,59.94280254701936,
,,,,,,,,84,0,84,0,,,,,,,,,,,,,,,,,,,,,,,,,,,,,,,,,,,,,,,,,,,,,,,,,,,,,3300.886940299999,None,,,,,,,,,,,,,,,,,,,,,,,,,,,,,,,,,,,shadow,74,85,silent,white,3298.879834000021,None,None,3298.879834000021,None,,,,,,,,,,,,,,,,,,,,,,,,,,,,,,8,001,2023_Feb_01_1137,ExactRep-v3-final,2021.2.3,59.94280254701936,
,,,,,,,,85,0,85,0,,,,,,,,,,,,,,,,,,,,,,,,,,,,,,,,,,,,,,,,,,,,,,,,,,,,,3303.389405200025,None,,,,,,,,,,,,,,,,,,,,,,,,,,,,,,,,,,,safety,34,86,sing,blue,3301.3871543999994,None,None,3301.3871543999994,None,,,,,,,,,,,,,,,,,,,,,,,,,,,,,,8,001,2023_Feb_01_1137,ExactRep-v3-final,2021.2.3,59.94280254701936,
,,,,,,,,86,0,86,0,,,,,,,,,,,,,,,,,,,,,,,,,,,,,,,,,,,,,,,,,,,,,,,,,,,,,3305.9086713000434,None,,,,,,,,,,,,,,,,,,,,,,,,,,,,,,,,,,,garden,1,87,sing,blue,3303.898757799994,None,None,3303.898757799994,None,,,,,,,,,,,,,,,,,,,,,,,,,,,,,,8,001,2023_Feb_01_1137,ExactRep-v3-final,2021.2.3,59.94280254701936,
,,,,,,,,87,0,87,0,,,,,,,,,,,,,,,,,,,,,,,,,,,,,,,,,,,,,,,,,,,,,,,,,,,,,3308.4111097001005,None,,,,,,,,,,,,,,,,,,,,,,,,,,,,,,,,,,,heaven,27,88,sing,blue,3306.4091382999904,None,None,3306.4091382999904,None,,,,,,,,,,,,,,,,,,,,,,,,,,,,,,8,001,2023_Feb_01_1137,ExactRep-v3-final,2021.2.3,59.94280254701936,
,,,,,,,,88,0,88,0,,,,,,,,,,,,,,,,,,,,,,,,,,,,,,,,,,,,,,,,,,,,,,,,,,,,,3310.9136379000265,None,,,,,,,,,,,,,,,,,,,,,,,,,,,,,,,,,,,history,110,89,aloud,red,3308.912617800059,None,None,3308.912617800059,None,,,,,,,,,,,,,,,,,,,,,,,,,,,,,,8,001,2023_Feb_01_1137,ExactRep-v3-final,2021.2.3,59.94280254701936,
,,,,,,,,89,0,89,0,,,,,,,,,,,,,,,,,,,,,,,,,,,,,,,,,,,,,,,,,,,,,,,,,,,,,3313.4161579000065,None,,,,,,,,,,,,,,,,,,,,,,,,,,,,,,,,,,,corner,98,90,aloud,red,3311.416614499991,None,None,3311.416614499991,None,,,,,,,,,,,,,,,,,,,,,,,,,,,,,,8,001,2023_Feb_01_1137,ExactRep-v3-final,2021.2.3,59.94280254701936,
,,,,,,,,90,0,90,0,,,,,,,,,,,,,,,,,,,,,,,,,,,,,,,,,,,,,,,,,,,,,,,,,,,,,3315.9353409000905,None,,,,,,,,,,,,,,,,,,,,,,,,,,,,,,,,,,,month,76,91,silent,white,3313.926479800022,None,None,3313.926479800022,None,,,,,,,,,,,,,,,,,,,,,,,,,,,,,,8,001,2023_Feb_01_1137,ExactRep-v3-final,2021.2.3,59.94280254701936,
,,,,,,,,91,0,91,0,,,,,,,,,,,,,,,,,,,,,,,,,,,,,,,,,,,,,,,,,,,,,,,,,,,,,3318.454572000075,None,,,,,,,,,,,,,,,,,,,,,,,,,,,,,,,,,,,maiden,90,92,aloud,red,3316.4444384000963,None,None,3316.4444384000963,None,,,,,,,,,,,,,,,,,,,,,,,,,,,,,,8,001,2023_Feb_01_1137,ExactRep-v3-final,2021.2.3,59.94280254701936,
,,,,,,,,92,0,92,0,,,,,,,,,,,,,,,,,,,,,,,,,,,,,,,,,,,,,,,,,,,,,,,,,,,,,3320.9568638000637,None,,,,,,,,,,,,,,,,,,,,,,,,,,,,,,,,,,,book,3,93,sing,blue,3318.9555109000066,None,None,3318.9555109000066,None,,,,,,,,,,,,,,,,,,,,,,,,,,,,,,8,001,2023_Feb_01_1137,ExactRep-v3-final,2021.2.3,59.94280254701936,
,,,,,,,,93,0,93,0,,,,,,,,,,,,,,,,,,,,,,,,,,,,,,,,,,,,,,,,,,,,,,,,,,,,,3323.476170900045,None,,,,,,,,,,,,,,,,,,,,,,,,,,,,,,,,,,,cottage,25,94,sing,blue,3321.463982300018,None,None,3321.463982300018,None,,,,,,,,,,,,,,,,,,,,,,,,,,,,,,8,001,2023_Feb_01_1137,ExactRep-v3-final,2021.2.3,59.94280254701936,
,,,,,,,,94,0,94,0,,,,,,,,,,,,,,,,,,,,,,,,,,,,,,,,,,,,,,,,,,,,,,,,,,,,,3325.978675200022,None,,,,,,,,,,,,,,,,,,,,,,,,,,,,,,,,,,,theory,42,95,silent,white,3323.9766684999922,None,None,3323.9766684999922,None,,,,,,,,,,,,,,,,,,,,,,,,,,,,,,8,001,2023_Feb_01_1137,ExactRep-v3-final,2021.2.3,59.94280254701936,
,,,,,,,,95,0,95,0,,,,,,,,,,,,,,,,,,,,,,,,,,,,,,,,,,,,,,,,,,,,,,,,,,,,,3328.49789280002,None,,,,,,,,,,,,,,,,,,,,,,,,,,,,,,,,,,,meeting,81,96,aloud,red,3326.482764500077,None,None,3326.482764500077,None,,,,,,,,,,,,,,,,,,,,,,,,,,,,,,8,001,2023_Feb_01_1137,ExactRep-v3-final,2021.2.3,59.94280254701936,
,,,,,,,,96,0,96,0,,,,,,,,,,,,,,,,,,,,,,,,,,,,,,,,,,,,,,,,,,,,,,,,,,,,,3331.0004637000384,None,,,,,,,,,,,,,,,,,,,,,,,,,,,,,,,,,,,wheat,108,97,aloud,red,3328.9983553000493,None,None,3328.9983553000493,None,,,,,,,,,,,,,,,,,,,,,,,,,,,,,,8,001,2023_Feb_01_1137,ExactRep-v3-final,2021.2.3,59.94280254701936,
,,,,,,,,97,0,97,0,,,,,,,,,,,,,,,,,,,,,,,,,,,,,,,,,,,,,,,,,,,,,,,,,,,,,3333.520094300038,None,,,,,,,,,,,,,,,,,,,,,,,,,,,,,,,,,,,green,92,98,aloud,red,3331.505184400012,None,None,3331.505184400012,None,,,,,,,,,,,,,,,,,,,,,,,,,,,,,,8,001,2023_Feb_01_1137,ExactRep-v3-final,2021.2.3,59.94280254701936,
,,,,,,,,98,0,98,0,,,,,,,,,,,,,,,,,,,,,,,,,,,,,,,,,,,,,,,,,,,,,,,,,,,,,3336.0220941000152,None,,,,,,,,,,,,,,,,,,,,,,,,,,,,,,,,,,,water,17,99,sing,blue,3334.0201465000864,None,None,3334.0201465000864,None,,,,,,,,,,,,,,,,,,,,,,,,,,,,,,8,001,2023_Feb_01_1137,ExactRep-v3-final,2021.2.3,59.94280254701936,
,,,,,,,,99,0,99,0,,,,,,,,,,,,,,,,,,,,,,,,,,,,,,,,,,,,,,,,,,,,,,,,,,,,,3338.5426608000416,None,,,,,,,,,,,,,,,,,,,,,,,,,,,,,,,,,,,flood,117,100,aloud,red,3336.530764600029,None,None,3336.530764600029,None,,,,,,,,,,,,,,,,,,,,,,,,,,,,,,8,001,2023_Feb_01_1137,ExactRep-v3-final,2021.2.3,59.94280254701936,
,,,,,,,,100,0,100,0,,,,,,,,,,,,,,,,,,,,,,,,,,,,,,,,,,,,,,,,,,,,,,,,,,,,,3341.043713900028,None,,,,,,,,,,,,,,,,,,,,,,,,,,,,,,,,,,,steam,103,101,aloud,red,3339.0436275000684,None,None,3339.0436275000684,None,,,,,,,,,,,,,,,,,,,,,,,,,,,,,,8,001,2023_Feb_01_1137,ExactRep-v3-final,2021.2.3,59.94280254701936,
,,,,,,,,101,0,101,0,,,,,,,,,,,,,,,,,,,,,,,,,,,,,,,,,,,,,,,,,,,,,,,,,,,,,3343.546224700054,None,,,,,,,,,,,,,,,,,,,,,,,,,,,,,,,,,,,passion,89,102,aloud,red,3341.5456257000333,None,None,3341.5456257000333,None,,,,,,,,,,,,,,,,,,,,,,,,,,,,,,8,001,2023_Feb_01_1137,ExactRep-v3-final,2021.2.3,59.94280254701936,
,,,,,,,,102,0,102,0,,,,,,,,,,,,,,,,,,,,,,,,,,,,,,,,,,,,,,,,,,,,,,,,,,,,,3346.0654307000805,None,,,,,,,,,,,,,,,,,,,,,,,,,,,,,,,,,,,salary,97,103,aloud,red,3344.058524799999,None,None,3344.058524799999,None,,,,,,,,,,,,,,,,,,,,,,,,,,,,,,8,001,2023_Feb_01_1137,ExactRep-v3-final,2021.2.3,59.94280254701936,
,,,,,,,,103,0,103,0,,,,,,,,,,,,,,,,,,,,,,,,,,,,,,,,,,,,,,,,,,,,,,,,,,,,,3348.567929300014,None,,,,,,,,,,,,,,,,,,,,,,,,,,,,,,,,,,,cat,14,104,sing,blue,3346.5658865000587,None,None,3346.5658865000587,None,,,,,,,,,,,,,,,,,,,,,,,,,,,,,,8,001,2023_Feb_01_1137,ExactRep-v3-final,2021.2.3,59.94280254701936,
,,,,,,,,104,0,104,0,,,,,,,,,,,,,,,,,,,,,,,,,,,,,,,,,,,,,,,,,,,,,,,,,,,,,3351.0702676000074,None,,,,,,,,,,,,,,,,,,,,,,,,,,,,,,,,,,,woman,23,105,sing,blue,3349.069876900059,None,None,3349.069876900059,None,,,,,,,,,,,,,,,,,,,,,,,,,,,,,,8,001,2023_Feb_01_1137,ExactRep-v3-final,2021.2.3,59.94280254701936,
,,,,,,,,105,0,105,0,,,,,,,,,,,,,,,,,,,,,,,,,,,,,,,,,,,,,,,,,,,,,,,,,,,,,3353.5896403000224,None,,,,,,,,,,,,,,,,,,,,,,,,,,,,,,,,,,,lip,0,106,sing,blue,3351.5783070999896,None,None,3351.5783070999896,None,,,,,,,,,,,,,,,,,,,,,,,,,,,,,,8,001,2023_Feb_01_1137,ExactRep-v3-final,2021.2.3,59.94280254701936,
,,,,,,,,106,0,106,0,,,,,,,,,,,,,,,,,,,,,,,,,,,,,,,,,,,,,,,,,,,,,,,,,,,,,3356.10878400004,None,,,,,,,,,,,,,,,,,,,,,,,,,,,,,,,,,,,duty,33,107,sing,blue,3354.0951961000683,None,None,3354.0951961000683,None,,,,,,,,,,,,,,,,,,,,,,,,,,,,,,8,001,2023_Feb_01_1137,ExactRep-v3-final,2021.2.3,59.94280254701936,
,,,,,,,,107,0,107,0,,,,,,,,,,,,,,,,,,,,,,,,,,,,,,,,,,,,,,,,,,,,,,,,,,,,,3358.6112931000534,None,,,,,,,,,,,,,,,,,,,,,,,,,,,,,,,,,,,ship,22,108,sing,blue,3356.611350100022,None,None,3356.611350100022,None,,,,,,,,,,,,,,,,,,,,,,,,,,,,,,8,001,2023_Feb_01_1137,ExactRep-v3-final,2021.2.3,59.94280254701936,
,,,,,,,,108,0,108,0,,,,,,,,,,,,,,,,,,,,,,,,,,,,,,,,,,,,,,,,,,,,,,,,,,,,,3361.130528500071,None,,,,,,,,,,,,,,,,,,,,,,,,,,,,,,,,,,,child,20,109,sing,blue,3359.1152488000225,None,None,3359.1152488000225,None,,,,,,,,,,,,,,,,,,,,,,,,,,,,,,8,001,2023_Feb_01_1137,ExactRep-v3-final,2021.2.3,59.94280254701936,
,,,,,,,,109,0,109,0,,,,,,,,,,,,,,,,,,,,,,,,,,,,,,,,,,,,,,,,,,,,,,,,,,,,,3363.6330681000836,None,,,,,,,,,,,,,,,,,,,,,,,,,,,,,,,,,,,tool,36,110,sing,blue,3361.6308512000833,None,None,3361.6308512000833,None,,,,,,,,,,,,,,,,,,,,,,,,,,,,,,8,001,2023_Feb_01_1137,ExactRep-v3-final,2021.2.3,59.94280254701936,
,,,,,,,,110,0,110,0,,,,,,,,,,,,,,,,,,,,,,,,,,,,,,,,,,,,,,,,,,,,,,,,,,,,,3366.1522108000936,None,,,,,,,,,,,,,,,,,,,,,,,,,,,,,,,,,,,science,95,111,aloud,red,3364.13883489999,None,None,3364.13883489999,None,,,,,,,,,,,,,,,,,,,,,,,,,,,,,,8,001,2023_Feb_01_1137,ExactRep-v3-final,2021.2.3,59.94280254701936,
,,,,,,,,111,0,111,0,,,,,,,,,,,,,,,,,,,,,,,,,,,,,,,,,,,,,,,,,,,,,,,,,,,,,3368.6547262000386,None,,,,,,,,,,,,,,,,,,,,,,,,,,,,,,,,,,,paper,15,112,sing,blue,3366.6526451000245,None,None,3366.6526451000245,None,,,,,,,,,,,,,,,,,,,,,,,,,,,,,,8,001,2023_Feb_01_1137,ExactRep-v3-final,2021.2.3,59.94280254701936,
,,,,,,,,112,0,112,0,,,,,,,,,,,,,,,,,,,,,,,,,,,,,,,,,,,,,,,,,,,,,,,,,,,,,3371.1572313000215,None,,,,,,,,,,,,,,,,,,,,,,,,,,,,,,,,,,,house,79,113,sing,blue,3369.1568210000405,None,None,3369.1568210000405,None,,,,,,,,,,,,,,,,,,,,,,,,,,,,,,8,001,2023_Feb_01_1137,ExactRep-v3-final,2021.2.3,59.94280254701936,
,,,,,,,,113,0,113,0,,,,,,,,,,,,,,,,,,,,,,,,,,,,,,,,,,,,,,,,,,,,,,,,,,,,,3373.676447900012,None,,,,,,,,,,,,,,,,,,,,,,,,,,,,,,,,,,,amount,50,114,silent,white,3371.6611813000636,None,None,3371.6611813000636,None,,,,,,,,,,,,,,,,,,,,,,,,,,,,,,8,001,2023_Feb_01_1137,ExactRep-v3-final,2021.2.3,59.94280254701936,
,,,,,,,,114,0,114,0,,,,,,,,,,,,,,,,,,,,,,,,,,,,,,,,,,,,,,,,,,,,,,,,,,,,,3376.1789681999944,None,,,,,,,,,,,,,,,,,,,,,,,,,,,,,,,,,,,gift,12,115,sing,blue,3374.1778667999897,None,None,3374.1778667999897,None,,,,,,,,,,,,,,,,,,,,,,,,,,,,,,8,001,2023_Feb_01_1137,ExactRep-v3-final,2021.2.3,59.94280254701936,
,,,,,,,,115,0,115,0,,,,,,,,,,,,,,,,,,,,,,,,,,,,,,,,,,,,,,,,,,,,,,,,,,,,,3378.6813346000854,None,,,,,,,,,,,,,,,,,,,,,,,,,,,,,,,,,,,student,52,116,silent,white,3376.6811255000066,None,None,3376.6811255000066,None,,,,,,,,,,,,,,,,,,,,,,,,,,,,,,8,001,2023_Feb_01_1137,ExactRep-v3-final,2021.2.3,59.94280254701936,
,,,,,,,,116,0,116,0,,,,,,,,,,,,,,,,,,,,,,,,,,,,,,,,,,,,,,,,,,,,,,,,,,,,,3381.183759000036,None,,,,,,,,,,,,,,,,,,,,,,,,,,,,,,,,,,,horse,37,117,sing,blue,3379.1835984000936,None,None,3379.1835984000936,None,,,,,,,,,,,,,,,,,,,,,,,,,,,,,,8,001,2023_Feb_01_1137,ExactRep-v3-final,2021.2.3,59.94280254701936,
,,,,,,,,117,0,117,0,,,,,,,,,,,,,,,,,,,,,,,,,,,,,,,,,,,,,,,,,,,,,,,,,,,,,3383.7029312000377,None,,,,,,,,,,,,,,,,,,,,,,,,,,,,,,,,,,,speech,40,118,silent,white,3381.687869400019,None,None,3381.687869400019,None,,,,,,,,,,,,,,,,,,,,,,,,,,,,,,8,001,2023_Feb_01_1137,ExactRep-v3-final,2021.2.3,59.94280254701936,
,,,,,,,,118,0,118,0,,,,,,,,,,,,,,,,,,,,,,,,,,,,,,,,,,,,,,,,,,,,,,,,,,,,,3386.2219590999885,None,,,,,,,,,,,,,,,,,,,,,,,,,,,,,,,,,,,honour,10,119,sing,blue,3384.211767800036,None,None,3384.211767800036,None,,,,,,,,,,,,,,,,,,,,,,,,,,,,,,8,001,2023_Feb_01_1137,ExactRep-v3-final,2021.2.3,59.94280254701936,
,,,,,,,,119,0,119,0,,,,,,,,,,,,,,,,,,,,,,,,,,,,,,,,,,,,,,,,,,,,,,,,,,,,,3388.7413970000343,None,,,,,,,,,,,,,,,,,,,,,,,,,,,,,,,,,,,hope,118,120,aloud,red,3386.7298588000704,None,None,3386.7298588000704,None,,,,,,,,,,,,,,,,,,,,,,,,,,,,,,8,001,2023_Feb_01_1137,ExactRep-v3-final,2021.2.3,59.94280254701936,
,,,,,,,,,,,,,,,,,,,,,,,,,,,,,,,,,,,,,,,,,,,,,,,,,,,,,,,,,,,,,,,,,,,,,,,,,,,,,,,,,,,,,,,,,,,,,,,,,,,,,,,,,,,,,,3389.243437200086,None,space,9.933916799956933,3399.21990320005,None,,,,,,,,,,,,,,,,,,,,,,,,8,001,2023_Feb_01_1137,ExactRep-v3-final,2021.2.3,59.94280254701936,
,,,,,,,,,,,,,,,,,,,,,,,,,,,,,,,,,,,,,,,,,,,,,,,,,,,,,,,,,,,,,,,,,,,,,,,,,,,,,,,,,,,,,,,,,,,,,,,,,,,,,,,,,,,,,,,,,,,,3409.1801975000417,None,space,31.141857400070876,3419.156612400082,None,,,,,,,,,,,,,,,,,,8,001,2023_Feb_01_1137,ExactRep-v3-final,2021.2.3,59.94280254701936,
,,,,,,,,,,,,0,0,0,0,,,,,,,,,,,,,,,,,,,,,,,,,,,,,,,,,,,,,,,,,,,,,,,,,3453.8898017000174,None,,,,,,,,,,,,,,,,,,,,,,,,,,,,,,,,,,,,,,,,,,,,,,,,,,,,,,,,,cottage,25,1,sing,old,yellow,3450.8343583000824,None,y,3450.8343583000824,None,"['y', 'return']","[2.039383600000292, 3.0074369999347255]",3450.8343583000824,None,,,8,001,2023_Feb_01_1137,ExactRep-v3-final,2021.2.3,59.94280254701936,
,,,,,,,,,,,,1,0,1,0,,,,,,,,,,,,,,,,,,,,,,,,,,,,,,,,,,,,,,,,,,,,,,,,,3457.8937994000735,None,,,,,,,,,,,,,,,,,,,,,,,,,,,,,,,,,,,,,,,,,,,,,,,,,,,,,,,,,arm,104,2,aloud,old,yellow,3454.3981393000577,None,n,3454.3981393000577,None,"['n', 'return']","[2.7395806999411434, 3.451543499948457]",3454.3981393000577,None,,,8,001,2023_Feb_01_1137,ExactRep-v3-final,2021.2.3,59.94280254701936,
,,,,,,,,,,,,2,0,2,0,,,,,,,,,,,,,,,,,,,,,,,,,,,,,,,,,,,,,,,,,,,,,,,,,3462.498429600033,None,,,,,,,,,,,,,,,,,,,,,,,,,,,,,,,,,,,,,,,,,,,,,,,,,,,,,,,,,history,110,3,aloud,old,yellow,3458.3943205000833,None,y,3458.3943205000833,None,"['y', 'return']","[3.743567700032145, 4.063425700063817]",3458.3943205000833,None,,,8,001,2023_Feb_01_1137,ExactRep-v3-final,2021.2.3,59.94280254701936,
,,,,,,,,,,,,3,0,3,0,,,,,,,,,,,,,,,,,,,,,,,,,,,,,,,,,,,,,,,,,,,,,,,,,3465.4681622000644,None,,,,,,,,,,,,,,,,,,,,,,,,,,,,,,,,,,,,,,,,,,,,,,,,,,,,,,,,,death,168,4,aloud,new,yellow,3463.009711700026,None,n,3463.009711700026,None,"['n', 'return']","[2.024069800041616, 2.416027699946426]",3463.009711700026,None,,,8,001,2023_Feb_01_1137,ExactRep-v3-final,2021.2.3,59.94280254701936,
,,,,,,,,,,,,4,0,4,0,,,,,,,,,,,,,,,,,,,,,,,,,,,,,,,,,,,,,,,,,,,,,,,,,3473.5094144000905,None,,,,,,,,,,,,,,,,,,,,,,,,,,,,,,,,,,,,,,,,,,,,,,,,,,,,,,,,,season,7,5,sing,old,yellow,3465.9753698999994,None,y,3465.9753698999994,None,"['y', 'return']","[6.890450799954124, 7.498439299990423]",3465.9753698999994,None,,,8,001,2023_Feb_01_1137,ExactRep-v3-final,2021.2.3,59.94280254701936,
,,,,,,,,,,,,5,0,5,0,,,,,,,,,,,,,,,,,,,,,,,,,,,,,,,,,,,,,,,,,,,,,,,,,3475.6783342000563,None,,,,,,,,,,,,,,,,,,,,,,,,,,,,,,,,,,,,,,,,,,,,,,,,,,,,,,,,,pupil,161,6,sing,new,yellow,3474.0203476999886,None,n,3474.0203476999886,None,"['n', 'return']","[1.2614923000801355, 1.6214466000674292]",3474.0203476999886,None,,,8,001,2023_Feb_01_1137,ExactRep-v3-final,2021.2.3,59.94280254701936,
,,,,,,,,,,,,6,0,6,0,,,,,,,,,,,,,,,,,,,,,,,,,,,,,,,,,,,,,,,,,,,,,,,,,3478.2641510000685,None,,,,,,,,,,,,,,,,,,,,,,,,,,,,,,,,,,,,,,,,,,,,,,,,,,,,,,,,,fur,73,7,silent,old,yellow,3476.1866698000813,None,n,3476.1866698000813,None,"['n', 'return']","[1.75903760001529, 2.0311199999414384]",3476.1866698000813,None,,,8,001,2023_Feb_01_1137,ExactRep-v3-final,2021.2.3,59.94280254701936,
,,,,,,,,,,,,7,0,7,0,,,,,,,,,,,,,,,,,,,,,,,,,,,,,,,,,,,,,,,,,,,,,,,,,3484.4703589000273,None,,,,,,,,,,,,,,,,,,,,,,,,,,,,,,,,,,,,,,,,,,,,,,,,,,,,,,,,,king,19,8,sing,old,yellow,3478.774492299999,None,n,3478.774492299999,None,"['n', 'return']","[5.331161399953999, 5.659601900028065]",3478.774492299999,None,,,8,001,2023_Feb_01_1137,ExactRep-v3-final,2021.2.3,59.94280254701936,
,,,,,,,,,,,,8,0,8,0,,,,,,,,,,,,,,,,,,,,,,,,,,,,,,,,,,,,,,,,,,,,,,,,,3493.0456328000873,None,,,,,,,,,,,,,,,,,,,,,,,,,,,,,,,,,,,,,,,,,,,,,,,,,,,,,,,,,corn,21,9,sing,old,yellow,3484.9813658000203,None,y,3484.9813658000203,None,"['y', 'return']","[7.684343799948692, 8.020330699975602]",3484.9813658000203,None,,,8,001,2023_Feb_01_1137,ExactRep-v3-final,2021.2.3,59.94280254701936,
,,,,,,,,,,,,9,0,9,0,,,,,,,,,,,,,,,,,,,,,,,,,,,,,,,,,,,,,,,,,,,,,,,,,3497.533429000061,None,,,,,,,,,,,,,,,,,,,,,,,,,,,,,,,,,,,,,,,,,,,,,,,,,,,,,,,,,skin,86,10,aloud,old,yellow,3493.5543963999953,None,n,3493.5543963999953,None,"['n', 'return']","[3.6153702000156045, 3.943457700079307]",3493.5543963999953,None,,,8,001,2023_Feb_01_1137,ExactRep-v3-final,2021.2.3,59.94280254701936,
,,,,,,,,,,,,10,0,10,0,,,,,,,,,,,,,,,,,,,,,,,,,,,,,,,,,,,,,,,,,,,,,,,,,3499.5354082999984,None,,,,,,,,,,,,,,,,,,,,,,,,,,,,,,,,,,,,,,,,,,,,,,,,,,,,,,,,,fire,87,11,aloud,old,yellow,3498.0550375999883,None,y,3498.0550375999883,None,"['y', 'return']","[1.1707986999535933, 1.4427078999578953]",3498.0550375999883,None,,,8,001,2023_Feb_01_1137,ExactRep-v3-final,2021.2.3,59.94280254701936,
,,,,,,,,,,,,11,0,11,0,,,,,,,,,,,,,,,,,,,,,,,,,,,,,,,,,,,,,,,,,,,,,,,,,3501.4039504000684,None,,,,,,,,,,,,,,,,,,,,,,,,,,,,,,,,,,,,,,,,,,,,,,,,,,,,,,,,,freedom,67,12,silent,old,yellow,3500.0461632000515,None,y,3500.0461632000515,None,"['y', 'return']","[1.0436086999252439, 1.315650700009428]",3500.0461632000515,None,,,8,001,2023_Feb_01_1137,ExactRep-v3-final,2021.2.3,59.94280254701936,
,,,,,,,,,,,,12,0,12,0,,,,,,,,,,,,,,,,,,,,,,,,,,,,,,,,,,,,,,,,,,,,,,,,,3508.027225500089,None,,,,,,,,,,,,,,,,,,,,,,,,,,,,,,,,,,,,,,,,,,,,,,,,,,,,,,,,,paper,15,13,sing,old,yellow,3501.9157215000596,None,y,3501.9157215000596,None,"['y', 'return']","[5.814021799946204, 6.077966299955733]",3501.9157215000596,None,,,8,001,2023_Feb_01_1137,ExactRep-v3-final,2021.2.3,59.94280254701936,
,,,,,,,,,,,,13,0,13,0,,,,,,,,,,,,,,,,,,,,,,,,,,,,,,,,,,,,,,,,,,,,,,,,,3510.6799658000236,None,,,,,,,,,,,,,,,,,,,,,,,,,,,,,,,,,,,,,,,,,,,,,,,,,,,,,,,,,nail,38,14,sing,old,yellow,3508.5362567000557,None,n,3508.5362567000557,None,"['n', 'return']","[1.8174841000000015, 2.0975886000087485]",3508.5362567000557,None,,,8,001,2023_Feb_01_1137,ExactRep-v3-final,2021.2.3,59.94280254701936,
,,,,,,,,,,,,14,0,14,0,,,,,,,,,,,,,,,,,,,,,,,,,,,,,,,,,,,,,,,,,,,,,,,,,3513.883063300047,None,,,,,,,,,,,,,,,,,,,,,,,,,,,,,,,,,,,,,,,,,,,,,,,,,,,,,,,,,officer,231,15,sing,new,yellow,3511.1923373000463,None,n,3511.1923373000463,None,"['n', 'return']","[2.337696500006132, 2.6574182000476867]",3511.1923373000463,None,,,8,001,2023_Feb_01_1137,ExactRep-v3-final,2021.2.3,59.94280254701936,
,,,,,,,,,,,,15,0,15,0,,,,,,,,,,,,,,,,,,,,,,,,,,,,,,,,,,,,,,,,,,,,,,,,,3516.2685852000723,None,,,,,,,,,,,,,,,,,,,,,,,,,,,,,,,,,,,,,,,,,,,,,,,,,,,,,,,,,speech,40,16,silent,old,yellow,3514.392824300099,None,n,3514.392824300099,None,"['n', 'return']","[1.5690549000864848, 1.8409759000642225]",3514.392824300099,None,,,8,001,2023_Feb_01_1137,ExactRep-v3-final,2021.2.3,59.94280254701936,
,,,,,,,,,,,,16,0,16,0,,,,,,,,,,,,,,,,,,,,,,,,,,,,,,,,,,,,,,,,,,,,,,,,,3518.9881831000093,None,,,,,,,,,,,,,,,,,,,,,,,,,,,,,,,,,,,,,,,,,,,,,,,,,,,,,,,,,fun,169,17,sing,new,yellow,3516.785448700073,None,n,3516.785448700073,None,"['n', 'return']","[1.7283556000329554, 2.16825119999703]",3516.785448700073,None,,,8,001,2023_Feb_01_1137,ExactRep-v3-final,2021.2.3,59.94280254701936,
,,,,,,,,,,,,17,0,17,0,,,,,,,,,,,,,,,,,,,,,,,,,,,,,,,,,,,,,,,,,,,,,,,,,3522.174680300057,None,,,,,,,,,,,,,,,,,,,,,,,,,,,,,,,,,,,,,,,,,,,,,,,,,,,,,,,,,doctor,190,18,aloud,new,yellow,3519.4922395000467,None,n,3519.4922395000467,None,"['n', 'return']","[2.0056479999329895, 2.63760649994947]",3519.4922395000467,None,,,8,001,2023_Feb_01_1137,ExactRep-v3-final,2021.2.3,59.94280254701936,
,,,,,,,,,,,,18,0,18,0,,,,,,,,,,,,,,,,,,,,,,,,,,,,,,,,,,,,,,,,,,,,,,,,,3525.128961200011,None,,,,,,,,,,,,,,,,,,,,,,,,,,,,,,,,,,,,,,,,,,,,,,,,,,,,,,,,,friend,183,19,sing,new,yellow,3522.683851500042,None,n,3522.683851500042,None,"['n', 'return']","[1.2699769999599084, 2.4059437999967486]",3522.683851500042,None,,,8,001,2023_Feb_01_1137,ExactRep-v3-final,2021.2.3,59.94280254701936,
,,,,,,,,,,,,19,0,19,0,,,,,,,,,,,,,,,,,,,,,,,,,,,,,,,,,,,,,,,,,,,,,,,,,3527.6468217000365,None,,,,,,,,,,,,,,,,,,,,,,,,,,,,,,,,,,,,,,,,,,,,,,,,,,,,,,,,,child,20,20,sing,old,yellow,3525.638525000075,None,y,3525.638525000075,None,"['y', 'return']","[1.7231395998969674, 1.971282499958761]",3525.638525000075,None,,,8,001,2023_Feb_01_1137,ExactRep-v3-final,2021.2.3,59.94280254701936,
,,,,,,,,,,,,20,0,20,0,,,,,,,,,,,,,,,,,,,,,,,,,,,,,,,,,,,,,,,,,,,,,,,,,3530.2327226999914,None,,,,,,,,,,,,,,,,,,,,,,,,,,,,,,,,,,,,,,,,,,,,,,,,,,,,,,,,,hour,191,21,sing,new,yellow,3528.1558935000794,None,n,3528.1558935000794,None,"['n', 'return']","[1.6139556999551132, 2.0298836999572814]",3528.1558935000794,None,,,8,001,2023_Feb_01_1137,ExactRep-v3-final,2021.2.3,59.94280254701936,
,,,,,,,,,,,,21,0,21,0,,,,,,,,,,,,,,,,,,,,,,,,,,,,,,,,,,,,,,,,,,,,,,,,,3534.9708169000223,None,,,,,,,,,,,,,,,,,,,,,,,,,,,,,,,,,,,,,,,,,,,,,,,,,,,,,,,,,valley,221,22,sing,new,yellow,3530.736590399989,None,n,3530.736590399989,None,"['n', 'return']","[3.84119790000841, 4.193190400023013]",3530.736590399989,None,,,8,001,2023_Feb_01_1137,ExactRep-v3-final,2021.2.3,59.94280254701936,
,,,,,,,,,,,,22,0,22,0,,,,,,,,,,,,,,,,,,,,,,,,,,,,,,,,,,,,,,,,,,,,,,,,,3539.176185499993,None,,,,,,,,,,,,,,,,,,,,,,,,,,,,,,,,,,,,,,,,,,,,,,,,,,,,,,,,,hall,220,23,aloud,new,yellow,3535.4851683999877,None,n,3535.4851683999877,None,"['n', 'return']","[3.2125061000697315, 3.652592599974014]",3535.4851683999877,None,,,8,001,2023_Feb_01_1137,ExactRep-v3-final,2021.2.3,59.94280254701936,
,,,,,,,,,,,,23,0,23,0,,,,,,,,,,,,,,,,,,,,,,,,,,,,,,,,,,,,,,,,,,,,,,,,,3541.3938902000664,None,,,,,,,,,,,,,,,,,,,,,,,,,,,,,,,,,,,,,,,,,,,,,,,,,,,,,,,,,lord,78,24,silent,old,yellow,3539.6855128000025,None,y,3539.6855128000025,None,"['y', 'return']","[1.3720981000224128, 1.6682344999862835]",3539.6855128000025,None,,,8,001,2023_Feb_01_1137,ExactRep-v3-final,2021.2.3,59.94280254701936,
,,,,,,,,,,,,24,0,24,0,,,,,,,,,,,,,,,,,,,,,,,,,,,,,,,,,,,,,,,,,,,,,,,,,3546.6825854000635,None,,,,,,,,,,,,,,,,,,,,,,,,,,,,,,,,,,,,,,,,,,,,,,,,,,,,,,,,,troops,215,25,sing,new,yellow,3541.901113300002,None,n,3541.901113300002,None,"['n', 'return']","[4.3887882000999525, 4.748599100043066]",3541.901113300002,None,,,8,001,2023_Feb_01_1137,ExactRep-v3-final,2021.2.3,59.94280254701936,
,,,,,,,,,,,,25,0,25,0,,,,,,,,,,,,,,,,,,,,,,,,,,,,,,,,,,,,,,,,,,,,,,,,,3549.102772800019,None,,,,,,,,,,,,,,,,,,,,,,,,,,,,,,,,,,,,,,,,,,,,,,,,,,,,,,,,,metal,84,26,aloud,old,yellow,3547.19719169999,None,y,3547.19719169999,None,"['y', 'return']","[1.5805975999683142, 1.8685707000549883]",3547.19719169999,None,,,8,001,2023_Feb_01_1137,ExactRep-v3-final,2021.2.3,59.94280254701936,
,,,,,,,,,,,,26,0,26,0,,,,,,,,,,,,,,,,,,,,,,,,,,,,,,,,,,,,,,,,,,,,,,,,,3553.1064125000266,None,,,,,,,,,,,,,,,,,,,,,,,,,,,,,,,,,,,,,,,,,,,,,,,,,,,,,,,,,flood,117,27,aloud,old,yellow,3549.613883599988,None,n,3549.613883599988,None,"['n', 'return']","[2.8518769000656903, 3.4598942999728024]",3549.613883599988,None,,,8,001,2023_Feb_01_1137,ExactRep-v3-final,2021.2.3,59.94280254701936,
,,,,,,,,,,,,27,0,27,0,,,,,,,,,,,,,,,,,,,,,,,,,,,,,,,,,,,,,,,,,,,,,,,,,3555.457940799999,None,,,,,,,,,,,,,,,,,,,,,,,,,,,,,,,,,,,,,,,,,,,,,,,,,,,,,,,,,anger,47,28,silent,old,yellow,3553.613677400048,None,n,3553.613677400048,None,"['n', 'return']","[1.2923143999651074, 1.8120996999787167]",3553.613677400048,None,,,8,001,2023_Feb_01_1137,ExactRep-v3-final,2021.2.3,59.94280254701936,
,,,,,,,,,,,,28,0,28,0,,,,,,,,,,,,,,,,,,,,,,,,,,,,,,,,,,,,,,,,,,,,,,,,,3562.965249300003,None,,,,,,,,,,,,,,,,,,,,,,,,,,,,,,,,,,,,,,,,,,,,,,,,,,,,,,,,,machine,186,29,aloud,new,yellow,3555.973362900084,None,n,3555.973362900084,None,"['n', 'return']","[1.9324291000375524, 6.948166600079276]",3555.973362900084,None,,,8,001,2023_Feb_01_1137,ExactRep-v3-final,2021.2.3,59.94280254701936,
,,,,,,,,,,,,29,0,29,0,,,,,,,,,,,,,,,,,,,,,,,,,,,,,,,,,,,,,,,,,,,,,,,,,3565.084243600024,None,,,,,,,,,,,,,,,,,,,,,,,,,,,,,,,,,,,,,,,,,,,,,,,,,,,,,,,,,blossom,115,30,aloud,old,yellow,3563.477632299997,None,y,3563.477632299997,None,"['y', 'return']","[1.0761344999773428, 1.5640610000118613]",3563.477632299997,None,,,8,001,2023_Feb_01_1137,ExactRep-v3-final,2021.2.3,59.94280254701936,
,,,,,,,,,,,,30,0,30,0,,,,,,,,,,,,,,,,,,,,,,,,,,,,,,,,,,,,,,,,,,,,,,,,,3575.7949418000644,None,,,,,,,,,,,,,,,,,,,,,,,,,,,,,,,,,,,,,,,,,,,,,,,,,,,,,,,,,string,234,31,aloud,new,yellow,3565.5958015000215,None,n,3565.5958015000215,None,"['n', 'return']","[9.87012340000365, 10.157957800081931]",3565.5958015000215,None,,,8,001,2023_Feb_01_1137,ExactRep-v3-final,2021.2.3,59.94280254701936,
,,,,,,,,,,,,31,0,31,0,,,,,,,,,,,,,,,,,,,,,,,,,,,,,,,,,,,,,,,,,,,,,,,,,3578.281031600083,None,,,,,,,,,,,,,,,,,,,,,,,,,,,,,,,,,,,,,,,,,,,,,,,,,,,,,,,,,mercy,176,32,aloud,new,yellow,3576.302760599996,None,y,3576.302760599996,None,"['y', 'return']","[1.5390360000310466, 1.9310322999954224]",3576.302760599996,None,,,8,001,2023_Feb_01_1137,ExactRep-v3-final,2021.2.3,59.94280254701936,
,,,,,,,,,,,,32,0,32,0,,,,,,,,,,,,,,,,,,,,,,,,,,,,,,,,,,,,,,,,,,,,,,,,,3579.9991284999996,None,,,,,,,,,,,,,,,,,,,,,,,,,,,,,,,,,,,,,,,,,,,,,,,,,,,,,,,,,green,92,33,aloud,old,yellow,3578.793446500087,None,y,3578.793446500087,None,"['y', 'return']","[0.8164177000289783, 1.1683353000553325]",3578.793446500087,None,,,8,001,2023_Feb_01_1137,ExactRep-v3-final,2021.2.3,59.94280254701936,
,,,,,,,,,,,,33,0,33,0,,,,,,,,,,,,,,,,,,,,,,,,,,,,,,,,,,,,,,,,,,,,,,,,,3581.63523860008,None,,,,,,,,,,,,,,,,,,,,,,,,,,,,,,,,,,,,,,,,,,,,,,,,,,,,,,,,,kiss,99,34,aloud,old,yellow,3580.5086206000997,None,y,3580.5086206000997,None,"['y', 'return']","[0.7810776999685913, 1.0851732000010088]",3580.5086206000997,None,,,8,001,2023_Feb_01_1137,ExactRep-v3-final,2021.2.3,59.94280254701936,
,,,,,,,,,,,,34,0,34,0,,,,,,,,,,,,,,,,,,,,,,,,,,,,,,,,,,,,,,,,,,,,,,,,,3585.321184500004,None,,,,,,,,,,,,,,,,,,,,,,,,,,,,,,,,,,,,,,,,,,,,,,,,,,,,,,,,,blood,236,35,aloud,new,yellow,3582.1463611000217,None,n,3582.1463611000217,None,"['n', 'return']","[2.8473075999645516, 3.1273997999960557]",3582.1463611000217,None,,,8,001,2023_Feb_01_1137,ExactRep-v3-final,2021.2.3,59.94280254701936,
,,,,,,,,,,,,35,0,35,0,,,,,,,,,,,,,,,,,,,,,,,,,,,,,,,,,,,,,,,,,,,,,,,,,3598.501104200026,None,,,,,,,,,,,,,,,,,,,,,,,,,,,,,,,,,,,,,,,,,,,,,,,,,,,,,,,,,duty,33,36,sing,old,yellow,3585.8313049999997,None,n,3585.8313049999997,None,"['y', 'n', 'backspace', 'n', 'return']","[3.6905669999541715, 6.018554899957962, 9.210463299998082, 11.618584100040607, 12.634424700052477]",3585.8313049999997,None,,,8,001,2023_Feb_01_1137,ExactRep-v3-final,2021.2.3,59.94280254701936,
,,,,,,,,,,,,36,0,36,0,,,,,,,,,,,,,,,,,,,,,,,,,,,,,,,,,,,,,,,,,,,,,,,,,3600.55302890006,None,,,,,,,,,,,,,,,,,,,,,,,,,,,,,,,,,,,,,,,,,,,,,,,,,,,,,,,,,slave,127,37,silent,new,yellow,3599.010943100089,None,n,3599.010943100089,None,"['n', 'return']","[1.0548676000908017, 1.494877399993129]",3599.010943100089,None,,,8,001,2023_Feb_01_1137,ExactRep-v3-final,2021.2.3,59.94280254701936,
,,,,,,,,,,,,37,0,37,0,,,,,,,,,,,,,,,,,,,,,,,,,,,,,,,,,,,,,,,,,,,,,,,,,3602.3045832000207,None,,,,,,,,,,,,,,,,,,,,,,,,,,,,,,,,,,,,,,,,,,,,,,,,,,,,,,,,,fault,198,38,aloud,new,yellow,3601.06674020004,None,n,3601.06674020004,None,"['n', 'return']","[0.863385200034827, 1.198988400050439]",3601.06674020004,None,,,8,001,2023_Feb_01_1137,ExactRep-v3-final,2021.2.3,59.94280254701936,
,,,,,,,,,,,,38,0,38,0,,,,,,,,,,,,,,,,,,,,,,,,,,,,,,,,,,,,,,,,,,,,,,,,,3604.273406399996,None,,,,,,,,,,,,,,,,,,,,,,,,,,,,,,,,,,,,,,,,,,,,,,,,,,,,,,,,,butter,164,39,aloud,new,yellow,3602.8154218000127,None,n,3602.8154218000127,None,"['n', 'return']","[1.010336700011976, 1.4103178000077605]",3602.8154218000127,None,,,8,001,2023_Feb_01_1137,ExactRep-v3-final,2021.2.3,59.94280254701936,
,,,,,,,,,,,,39,0,39,0,,,,,,,,,,,,,,,,,,,,,,,,,,,,,,,,,,,,,,,,,,,,,,,,,3606.6101389999967,None,,,,,,,,,,,,,,,,,,,,,,,,,,,,,,,,,,,,,,,,,,,,,,,,,,,,,,,,,life,54,40,silent,old,yellow,3604.7806928000646,None,n,3604.7806928000646,None,"['n', 'return']","[1.4371989000355825, 1.7811063999542966]",3604.7806928000646,None,,,8,001,2023_Feb_01_1137,ExactRep-v3-final,2021.2.3,59.94280254701936,
,,,,,,,,,,,,40,0,40,0,,,,,,,,,,,,,,,,,,,,,,,,,,,,,,,,,,,,,,,,,,,,,,,,,3609.1617637000745,None,,,,,,,,,,,,,,,,,,,,,,,,,,,,,,,,,,,,,,,,,,,,,,,,,,,,,,,,,bar,80,41,aloud,old,yellow,3607.130324000027,None,n,3607.130324000027,None,"['n', 'return']","[1.615384200005792, 1.9914199999766424]",3607.130324000027,None,,,8,001,2023_Feb_01_1137,ExactRep-v3-final,2021.2.3,59.94280254701936,
,,,,,,,,,,,,41,0,41,0,,,,,,,,,,,,,,,,,,,,,,,,,,,,,,,,,,,,,,,,,,,,,,,,,3610.9300506000873,None,,,,,,,,,,,,,,,,,,,,,,,,,,,,,,,,,,,,,,,,,,,,,,,,,,,,,,,,,journal,230,42,aloud,new,yellow,3609.6784348000074,None,n,3609.6784348000074,None,"['n', 'return']","[0.8192669000709429, 1.2114128000102937]",3609.6784348000074,None,,,8,001,2023_Feb_01_1137,ExactRep-v3-final,2021.2.3,59.94280254701936,
,,,,,,,,,,,,42,0,42,0,,,,,,,,,,,,,,,,,,,,,,,,,,,,,,,,,,,,,,,,,,,,,,,,,3613.499396100058,None,,,,,,,,,,,,,,,,,,,,,,,,,,,,,,,,,,,,,,,,,,,,,,,,,,,,,,,,,truth,157,43,silent,new,yellow,3611.443085900042,None,n,3611.443085900042,None,"['n', 'return']","[1.286809099954553, 2.02269539993722]",3611.443085900042,None,,,8,001,2023_Feb_01_1137,ExactRep-v3-final,2021.2.3,59.94280254701936,
,,,,,,,,,,,,43,0,43,0,,,,,,,,,,,,,,,,,,,,,,,,,,,,,,,,,,,,,,,,,,,,,,,,,3616.168662699987,None,,,,,,,,,,,,,,,,,,,,,,,,,,,,,,,,,,,,,,,,,,,,,,,,,,,,,,,,,crime,75,44,silent,old,yellow,3614.013648400083,None,y,3614.013648400083,None,"['y', 'return']","[1.7801444000797346, 2.1161296000937]",3614.013648400083,None,,,8,001,2023_Feb_01_1137,ExactRep-v3-final,2021.2.3,59.94280254701936,
,,,,,,,,,,,,44,0,44,0,,,,,,,,,,,,,,,,,,,,,,,,,,,,,,,,,,,,,,,,,,,,,,,,,3618.8881036000093,None,,,,,,,,,,,,,,,,,,,,,,,,,,,,,,,,,,,,,,,,,,,,,,,,,,,,,,,,,girl,11,45,sing,old,yellow,3616.6741790000815,None,n,3616.6741790000815,None,"['n', 'return']","[1.8396195999812335, 2.175552200060338]",3616.6741790000815,None,,,8,001,2023_Feb_01_1137,ExactRep-v3-final,2021.2.3,59.94280254701936,
,,,,,,,,,,,,45,0,45,0,,,,,,,,,,,,,,,,,,,,,,,,,,,,,,,,,,,,,,,,,,,,,,,,,3623.075530000031,None,,,,,,,,,,,,,,,,,,,,,,,,,,,,,,,,,,,,,,,,,,,,,,,,,,,,,,,,,quality,71,46,silent,old,yellow,3619.399046100094,None,n,3619.399046100094,None,"['n', 'return']","[3.042728199972771, 3.642645299900323]",3619.399046100094,None,,,8,001,2023_Feb_01_1137,ExactRep-v3-final,2021.2.3,59.94280254701936,
,,,,,,,,,,,,46,0,46,0,,,,,,,,,,,,,,,,,,,,,,,,,,,,,,,,,,,,,,,,,,,,,,,,,3625.160914500011,None,,,,,,,,,,,,,,,,,,,,,,,,,,,,,,,,,,,,,,,,,,,,,,,,,,,,,,,,,camp,121,47,silent,new,yellow,3623.5758595000952,None,n,3623.5758595000952,None,"['n', 'return']","[1.1699822000227869, 1.545978199923411]",3623.5758595000952,None,,,8,001,2023_Feb_01_1137,ExactRep-v3-final,2021.2.3,59.94280254701936,
,,,,,,,,,,,,47,0,47,0,,,,,,,,,,,,,,,,,,,,,,,,,,,,,,,,,,,,,,,,,,,,,,,,,3627.0295655000955,None,,,,,,,,,,,,,,,,,,,,,,,,,,,,,,,,,,,,,,,,,,,,,,,,,,,,,,,,,rock,206,48,aloud,new,yellow,3625.6638594000833,None,n,3625.6638594000833,None,"['n', 'return']","[0.9699109999928623, 1.330009900033474]",3625.6638594000833,None,,,8,001,2023_Feb_01_1137,ExactRep-v3-final,2021.2.3,59.94280254701936,
,,,,,,,,,,,,48,0,48,0,,,,,,,,,,,,,,,,,,,,,,,,,,,,,,,,,,,,,,,,,,,,,,,,,3628.915752000059,None,,,,,,,,,,,,,,,,,,,,,,,,,,,,,,,,,,,,,,,,,,,,,,,,,,,,,,,,,air,58,49,silent,old,yellow,3627.540541900089,None,n,3627.540541900089,None,"['n', 'return']","[0.9412476000143215, 1.3411320999730378]",3627.540541900089,None,,,8,001,2023_Feb_01_1137,ExactRep-v3-final,2021.2.3,59.94280254701936,
,,,,,,,,,,,,49,0,49,0,,,,,,,,,,,,,,,,,,,,,,,,,,,,,,,,,,,,,,,,,,,,,,,,,3630.666512200027,None,,,,,,,,,,,,,,,,,,,,,,,,,,,,,,,,,,,,,,,,,,,,,,,,,,,,,,,,,insect,239,50,sing,new,yellow,3629.421982,None,n,3629.421982,None,"['n', 'return']","[0.8037531001027673, 1.211714900098741]",3629.421982,None,,,8,001,2023_Feb_01_1137,ExactRep-v3-final,2021.2.3,59.94280254701936,
,,,,,,,,,,,,50,0,50,0,,,,,,,,,,,,,,,,,,,,,,,,,,,,,,,,,,,,,,,,,,,,,,,,,3632.8530516000465,None,,,,,,,,,,,,,,,,,,,,,,,,,,,,,,,,,,,,,,,,,,,,,,,,,,,,,,,,,body,170,51,aloud,new,yellow,3631.1723122000694,None,n,3631.1723122000694,None,"['n', 'return']","[1.0776139999506995, 1.6454742000205442]",3631.1723122000694,None,,,8,001,2023_Feb_01_1137,ExactRep-v3-final,2021.2.3,59.94280254701936,
,,,,,,,,,,,,51,0,51,0,,,,,,,,,,,,,,,,,,,,,,,,,,,,,,,,,,,,,,,,,,,,,,,,,3634.7716111000627,None,,,,,,,,,,,,,,,,,,,,,,,,,,,,,,,,,,,,,,,,,,,,,,,,,,,,,,,,,wine,175,52,sing,new,yellow,3633.362498600036,None,n,3633.362498600036,None,"['n', 'return']","[1.0072228000499308, 1.3751380000030622]",3633.362498600036,None,,,8,001,2023_Feb_01_1137,ExactRep-v3-final,2021.2.3,59.94280254701936,
,,,,,,,,,,,,52,0,52,0,,,,,,,,,,,,,,,,,,,,,,,,,,,,,,,,,,,,,,,,,,,,,,,,,3637.0906053000363,None,,,,,,,,,,,,,,,,,,,,,,,,,,,,,,,,,,,,,,,,,,,,,,,,,,,,,,,,,soil,216,53,aloud,new,yellow,3635.2813532000873,None,n,3635.2813532000873,None,"['n', 'return']","[0.8564028999535367, 1.7764354000100866]",3635.2813532000873,None,,,8,001,2023_Feb_01_1137,ExactRep-v3-final,2021.2.3,59.94280254701936,
,,,,,,,,,,,,53,0,53,0,,,,,,,,,,,,,,,,,,,,,,,,,,,,,,,,,,,,,,,,,,,,,,,,,3638.974944900023,None,,,,,,,,,,,,,,,,,,,,,,,,,,,,,,,,,,,,,,,,,,,,,,,,,,,,,,,,,dollar,4,54,sing,old,yellow,3637.5993983000517,None,n,3637.5993983000517,None,"['n', 'return']","[0.9223505000118166, 1.3303782000439242]",3637.5993983000517,None,,,8,001,2023_Feb_01_1137,ExactRep-v3-final,2021.2.3,59.94280254701936,
,,,,,,,,,,,,54,0,54,0,,,,,,,,,,,,,,,,,,,,,,,,,,,,,,,,,,,,,,,,,,,,,,,,,3642.229249300086,None,,,,,,,,,,,,,,,,,,,,,,,,,,,,,,,,,,,,,,,,,,,,,,,,,,,,,,,,,river,8,55,sing,old,yellow,3639.485097100027,None,n,3639.485097100027,None,"['n', 'return']","[2.2126793999923393, 2.70070659997873]",3639.485097100027,None,,,8,001,2023_Feb_01_1137,ExactRep-v3-final,2021.2.3,59.94280254701936,
,,,,,,,,,,,,55,0,55,0,,,,,,,,,,,,,,,,,,,,,,,,,,,,,,,,,,,,,,,,,,,,,,,,,3643.9632053000387,None,,,,,,,,,,,,,,,,,,,,,,,,,,,,,,,,,,,,,,,,,,,,,,,,,,,,,,,,,rod,200,56,aloud,new,yellow,3642.7367962000426,None,n,3642.7367962000426,None,"['n', 'return']","[0.8009623000398278, 1.184966400032863]",3642.7367962000426,None,,,8,001,2023_Feb_01_1137,ExactRep-v3-final,2021.2.3,59.94280254701936,
,,,,,,,,,,,,56,0,56,0,,,,,,,,,,,,,,,,,,,,,,,,,,,,,,,,,,,,,,,,,,,,,,,,,3648.567642000038,None,,,,,,,,,,,,,,,,,,,,,,,,,,,,,,,,,,,,,,,,,,,,,,,,,,,,,,,,,winter,32,57,sing,old,yellow,3644.476888700039,None,y,3644.476888700039,None,"['y', 'return']","[3.6769945000996813, 4.052888600039296]",3644.476888700039,None,,,8,001,2023_Feb_01_1137,ExactRep-v3-final,2021.2.3,59.94280254701936,
,,,,,,,,,,,,57,0,57,0,,,,,,,,,,,,,,,,,,,,,,,,,,,,,,,,,,,,,,,,,,,,,,,,,3651.520594200003,None,,,,,,,,,,,,,,,,,,,,,,,,,,,,,,,,,,,,,,,,,,,,,,,,,,,,,,,,,ability,145,58,silent,new,yellow,3649.078152500093,None,n,3649.078152500093,None,"['n', 'return']","[2.0997506000567228, 2.3956524000968784]",3649.078152500093,None,,,8,001,2023_Feb_01_1137,ExactRep-v3-final,2021.2.3,59.94280254701936,
,,,,,,,,,,,,58,0,58,0,,,,,,,,,,,,,,,,,,,,,,,,,,,,,,,,,,,,,,,,,,,,,,,,,3655.4912221000995,None,,,,,,,,,,,,,,,,,,,,,,,,,,,,,,,,,,,,,,,,,,,,,,,,,,,,,,,,,street,113,59,aloud,old,yellow,3652.033071200014,None,n,3652.033071200014,None,"['n', 'return']","[2.52869649999775, 3.4166802000254393]",3652.033071200014,None,,,8,001,2023_Feb_01_1137,ExactRep-v3-final,2021.2.3,59.94280254701936,
,,,,,,,,,,,,59,0,59,0,,,,,,,,,,,,,,,,,,,,,,,,,,,,,,,,,,,,,,,,,,,,,,,,,3657.4943552000914,None,,,,,,,,,,,,,,,,,,,,,,,,,,,,,,,,,,,,,,,,,,,,,,,,,,,,,,,,,bottle,195,60,sing,new,yellow,3655.997874099994,None,n,3655.997874099994,None,"['n', 'return']","[0.7959243999794126, 1.4601074999663979]",3655.997874099994,None,,,8,001,2023_Feb_01_1137,ExactRep-v3-final,2021.2.3,59.94280254701936,
,,,,,,,,,,,,60,0,60,0,,,,,,,,,,,,,,,,,,,,,,,,,,,,,,,,,,,,,,,,,,,,,,,,,3659.3781930000987,None,,,,,,,,,,,,,,,,,,,,,,,,,,,,,,,,,,,,,,,,,,,,,,,,,,,,,,,,,wheat,108,61,aloud,old,yellow,3658.0065134000033,None,n,3658.0065134000033,None,"['n', 'return']","[0.9472906000446528, 1.3311476000817493]",3658.0065134000033,None,,,8,001,2023_Feb_01_1137,ExactRep-v3-final,2021.2.3,59.94280254701936,
,,,,,,,,,,,,61,0,61,0,,,,,,,,,,,,,,,,,,,,,,,,,,,,,,,,,,,,,,,,,,,,,,,,,3663.2156613999978,None,,,,,,,,,,,,,,,,,,,,,,,,,,,,,,,,,,,,,,,,,,,,,,,,,,,,,,,,,charm,59,62,silent,old,yellow,3659.8789354000473,None,n,3659.8789354000473,None,"['n', 'return']","[2.914774699951522, 3.2909005999099463]",3659.8789354000473,None,,,8,001,2023_Feb_01_1137,ExactRep-v3-final,2021.2.3,59.94280254701936,
,,,,,,,,,,,,62,0,62,0,,,,,,,,,,,,,,,,,,,,,,,,,,,,,,,,,,,,,,,,,,,,,,,,,3665.0340675000334,None,,,,,,,,,,,,,,,,,,,,,,,,,,,,,,,,,,,,,,,,,,,,,,,,,,,,,,,,,priest,77,63,silent,old,yellow,3663.731851599994,None,n,3663.731851599994,None,"['n', 'return']","[0.7899601000826806, 1.2699430000502616]",3663.731851599994,None,,,8,001,2023_Feb_01_1137,ExactRep-v3-final,2021.2.3,59.94280254701936,
,,,,,,,,,,,,63,0,63,0,,,,,,,,,,,,,,,,,,,,,,,,,,,,,,,,,,,,,,,,,,,,,,,,,3667.5032290000236,None,,,,,,,,,,,,,,,,,,,,,,,,,,,,,,,,,,,,,,,,,,,,,,,,,,,,,,,,,coffee,106,64,aloud,old,yellow,3665.5467949000886,None,n,3665.5467949000886,None,"['n', 'return']","[1.5669402999337763, 1.9109801999293268]",3665.5467949000886,None,,,8,001,2023_Feb_01_1137,ExactRep-v3-final,2021.2.3,59.94280254701936,
,,,,,,,,,,,,64,0,64,0,,,,,,,,,,,,,,,,,,,,,,,,,,,,,,,,,,,,,,,,,,,,,,,,,3670.889959500055,None,,,,,,,,,,,,,,,,,,,,,,,,,,,,,,,,,,,,,,,,,,,,,,,,,,,,,,,,,city,238,65,aloud,new,yellow,3668.015432000044,None,n,3668.015432000044,None,"['n', 'return']","[2.4424055999843404, 2.8343391999369487]",3668.015432000044,None,,,8,001,2023_Feb_01_1137,ExactRep-v3-final,2021.2.3,59.94280254701936,
,,,,,,,,,,,,65,0,65,0,,,,,,,,,,,,,,,,,,,,,,,,,,,,,,,,,,,,,,,,,,,,,,,,,3672.7751707000425,None,,,,,,,,,,,,,,,,,,,,,,,,,,,,,,,,,,,,,,,,,,,,,,,,,,,,,,,,,brain,43,66,silent,old,yellow,3671.3986537000164,None,n,3671.3986537000164,None,"['n', 'return']","[0.9551565999863669, 1.3391472999937832]",3671.3986537000164,None,,,8,001,2023_Feb_01_1137,ExactRep-v3-final,2021.2.3,59.94280254701936,
,,,,,,,,,,,,66,0,66,0,,,,,,,,,,,,,,,,,,,,,,,,,,,,,,,,,,,,,,,,,,,,,,,,,3674.5446266999934,None,,,,,,,,,,,,,,,,,,,,,,,,,,,,,,,,,,,,,,,,,,,,,,,,,,,,,,,,,shame,143,67,silent,new,yellow,3673.289665700053,None,n,3673.289665700053,None,"['n', 'return']","[0.7921250000363216, 1.208217200008221]",3673.289665700053,None,,,8,001,2023_Feb_01_1137,ExactRep-v3-final,2021.2.3,59.94280254701936,
,,,,,,,,,,,,67,0,67,0,,,,,,,,,,,,,,,,,,,,,,,,,,,,,,,,,,,,,,,,,,,,,,,,,3678.9146428999957,None,,,,,,,,,,,,,,,,,,,,,,,,,,,,,,,,,,,,,,,,,,,,,,,,,,,,,,,,,boulder,16,68,sing,old,yellow,3675.053260100074,None,n,3675.053260100074,None,"['n', 'return']","[0.9965075000654906, 3.8205621000379324]",3675.053260100074,None,,,8,001,2023_Feb_01_1137,ExactRep-v3-final,2021.2.3,59.94280254701936,
,,,,,,,,,,,,68,0,68,0,,,,,,,,,,,,,,,,,,,,,,,,,,,,,,,,,,,,,,,,,,,,,,,,,3680.5495831000153,None,,,,,,,,,,,,,,,,,,,,,,,,,,,,,,,,,,,,,,,,,,,,,,,,,,,,,,,,,thought,134,69,silent,new,yellow,3679.430809200043,None,n,3679.430809200043,None,"['n', 'return']","[0.7629959000041708, 1.0829538999823853]",3679.430809200043,None,,,8,001,2023_Feb_01_1137,ExactRep-v3-final,2021.2.3,59.94280254701936,
,,,,,,,,,,,,69,0,69,0,,,,,,,,,,,,,,,,,,,,,,,,,,,,,,,,,,,,,,,,,,,,,,,,,3682.167676800047,None,,,,,,,,,,,,,,,,,,,,,,,,,,,,,,,,,,,,,,,,,,,,,,,,,,,,,,,,,lad,68,70,silent,old,yellow,3681.051548000076,None,n,3681.051548000076,None,"['n', 'return']","[0.6782193999970332, 1.0782371000386775]",3681.051548000076,None,,,8,001,2023_Feb_01_1137,ExactRep-v3-final,2021.2.3,59.94280254701936,
,,,,,,,,,,,,70,0,70,0,,,,,,,,,,,,,,,,,,,,,,,,,,,,,,,,,,,,,,,,,,,,,,,,,3684.3930421000114,None,,,,,,,,,,,,,,,,,,,,,,,,,,,,,,,,,,,,,,,,,,,,,,,,,,,,,,,,,toy,112,71,aloud,old,yellow,3682.676840600092,None,n,3682.676840600092,None,"['n', 'return']","[0.7089345999993384, 1.6688267999561504]",3682.676840600092,None,,,8,001,2023_Feb_01_1137,ExactRep-v3-final,2021.2.3,59.94280254701936,
,,,,,,,,,,,,71,0,71,0,,,,,,,,,,,,,,,,,,,,,,,,,,,,,,,,,,,,,,,,,,,,,,,,,3686.2054120000685,None,,,,,,,,,,,,,,,,,,,,,,,,,,,,,,,,,,,,,,,,,,,,,,,,,,,,,,,,,gift,12,72,sing,old,yellow,3684.9131299,None,n,3684.9131299,None,"['n', 'return']","[0.9846707000397146, 1.2485830000368878]",3684.9131299,None,,,8,001,2023_Feb_01_1137,ExactRep-v3-final,2021.2.3,59.94280254701936,
,,,,,,,,,,,,72,0,72,0,,,,,,,,,,,,,,,,,,,,,,,,,,,,,,,,,,,,,,,,,,,,,,,,,3687.8235504000913,None,,,,,,,,,,,,,,,,,,,,,,,,,,,,,,,,,,,,,,,,,,,,,,,,,,,,,,,,,chance,178,73,aloud,new,yellow,3686.7150331999874,None,n,3686.7150331999874,None,"['n', 'return']","[0.7267837000545114, 1.0707316000480205]",3686.7150331999874,None,,,8,001,2023_Feb_01_1137,ExactRep-v3-final,2021.2.3,59.94280254701936,
,,,,,,,,,,,,73,0,73,0,,,,,,,,,,,,,,,,,,,,,,,,,,,,,,,,,,,,,,,,,,,,,,,,,3690.9265381000005,None,,,,,,,,,,,,,,,,,,,,,,,,,,,,,,,,,,,,,,,,,,,,,,,,,,,,,,,,,judge,162,74,aloud,new,yellow,3688.3334419000894,None,n,3688.3334419000894,None,"['n', 'return']","[2.2363078999333084, 2.54833779996261]",3688.3334419000894,None,,,8,001,2023_Feb_01_1137,ExactRep-v3-final,2021.2.3,59.94280254701936,
,,,,,,,,,,,,74,0,74,0,,,,,,,,,,,,,,,,,,,,,,,,,,,,,,,,,,,,,,,,,,,,,,,,,3692.595057700062,None,,,,,,,,,,,,,,,,,,,,,,,,,,,,,,,,,,,,,,,,,,,,,,,,,,,,,,,,,world,147,75,silent,new,yellow,3691.4386667000363,None,n,3691.4386667000363,None,"['n', 'return']","[0.8592250999063253, 1.115110500017181]",3691.4386667000363,None,,,8,001,2023_Feb_01_1137,ExactRep-v3-final,2021.2.3,59.94280254701936,
,,,,,,,,,,,,75,0,75,0,,,,,,,,,,,,,,,,,,,,,,,,,,,,,,,,,,,,,,,,,,,,,,,,,3694.229943500017,None,,,,,,,,,,,,,,,,,,,,,,,,,,,,,,,,,,,,,,,,,,,,,,,,,,,,,,,,,month,76,76,silent,old,yellow,3693.1048119000625,None,n,3693.1048119000625,None,"['n', 'return']","[0.7849729999434203, 1.0808639000169933]",3693.1048119000625,None,,,8,001,2023_Feb_01_1137,ExactRep-v3-final,2021.2.3,59.94280254701936,
,,,,,,,,,,,,76,0,76,0,,,,,,,,,,,,,,,,,,,,,,,,,,,,,,,,,,,,,,,,,,,,,,,,,3696.1485223000636,None,,,,,,,,,,,,,,,,,,,,,,,,,,,,,,,,,,,,,,,,,,,,,,,,,,,,,,,,,mother,163,77,sing,new,yellow,3694.7440787000814,None,n,3694.7440787000814,None,"['n', 'return']","[1.065868700039573, 1.3616865000221878]",3694.7440787000814,None,,,8,001,2023_Feb_01_1137,ExactRep-v3-final,2021.2.3,59.94280254701936,
,,,,,,,,,,,,77,0,77,0,,,,,,,,,,,,,,,,,,,,,,,,,,,,,,,,,,,,,,,,,,,,,,,,,3698.517608400085,None,,,,,,,,,,,,,,,,,,,,,,,,,,,,,,,,,,,,,,,,,,,,,,,,,,,,,,,,,plain,227,78,sing,new,yellow,3696.6589315000456,None,n,3696.6589315000456,None,"['n', 'return']","[1.5671380000421777, 1.8148260000161827]",3696.6589315000456,None,,,8,001,2023_Feb_01_1137,ExactRep-v3-final,2021.2.3,59.94280254701936,
,,,,,,,,,,,,78,0,78,0,,,,,,,,,,,,,,,,,,,,,,,,,,,,,,,,,,,,,,,,,,,,,,,,,3701.5205186000094,None,,,,,,,,,,,,,,,,,,,,,,,,,,,,,,,,,,,,,,,,,,,,,,,,,,,,,,,,,devil,91,79,aloud,old,yellow,3699.031139900093,None,y,3699.031139900093,None,"['y', 'return']","[2.0107077000429854, 2.4506364000262693]",3699.031139900093,None,,,8,001,2023_Feb_01_1137,ExactRep-v3-final,2021.2.3,59.94280254701936,
,,,,,,,,,,,,79,0,79,0,,,,,,,,,,,,,,,,,,,,,,,,,,,,,,,,,,,,,,,,,,,,,,,,,3705.7414506000932,None,,,,,,,,,,,,,,,,,,,,,,,,,,,,,,,,,,,,,,,,,,,,,,,,,,,,,,,,,time,133,80,silent,new,yellow,3702.0303230000427,None,n,3702.0303230000427,None,"['n', 'return']","[2.931447400012985, 3.675571799976751]",3702.0303230000427,None,,,8,001,2023_Feb_01_1137,ExactRep-v3-final,2021.2.3,59.94280254701936,
,,,,,,,,,,,,80,0,80,0,,,,,,,,,,,,,,,,,,,,,,,,,,,,,,,,,,,,,,,,,,,,,,,,,3708.0604769000784,None,,,,,,,,,,,,,,,,,,,,,,,,,,,,,,,,,,,,,,,,,,,,,,,,,,,,,,,,,person,212,81,aloud,new,yellow,3706.2546880000737,None,n,3706.2546880000737,None,"['n', 'return']","[1.4591105000581592, 1.771073800045997]",3706.2546880000737,None,,,8,001,2023_Feb_01_1137,ExactRep-v3-final,2021.2.3,59.94280254701936,
,,,,,,,,,,,,81,0,81,0,,,,,,,,,,,,,,,,,,,,,,,,,,,,,,,,,,,,,,,,,,,,,,,,,3712.8152172000846,None,,,,,,,,,,,,,,,,,,,,,,,,,,,,,,,,,,,,,,,,,,,,,,,,,,,,,,,,,coin,193,82,sing,new,yellow,3708.572586800088,None,n,3708.572586800088,None,"['n', 'return']","[3.197098799981177, 4.197165000019595]",3708.572586800088,None,,,8,001,2023_Feb_01_1137,ExactRep-v3-final,2021.2.3,59.94280254701936,
,,,,,,,,,,,,82,0,82,0,,,,,,,,,,,,,,,,,,,,,,,,,,,,,,,,,,,,,,,,,,,,,,,,,3714.8015287000453,None,,,,,,,,,,,,,,,,,,,,,,,,,,,,,,,,,,,,,,,,,,,,,,,,,,,,,,,,,health,48,83,silent,old,yellow,3713.3268172000535,None,n,3713.3268172000535,None,"['n', 'return']","[1.0749603000003844, 1.4349531999323517]",3713.3268172000535,None,,,8,001,2023_Feb_01_1137,ExactRep-v3-final,2021.2.3,59.94280254701936,
,,,,,,,,,,,,83,0,83,0,,,,,,,,,,,,,,,,,,,,,,,,,,,,,,,,,,,,,,,,,,,,,,,,,3718.2536945000757,None,,,,,,,,,,,,,,,,,,,,,,,,,,,,,,,,,,,,,,,,,,,,,,,,,,,,,,,,,flesh,202,84,aloud,new,yellow,3715.312832500087,None,y,3715.312832500087,None,"['y', 'return']","[2.593091000104323, 2.8969091000035405]",3715.312832500087,None,,,8,001,2023_Feb_01_1137,ExactRep-v3-final,2021.2.3,59.94280254701936,
,,,,,,,,,,,,84,0,84,0,,,,,,,,,,,,,,,,,,,,,,,,,,,,,,,,,,,,,,,,,,,,,,,,,3721.975267300033,None,,,,,,,,,,,,,,,,,,,,,,,,,,,,,,,,,,,,,,,,,,,,,,,,,,,,,,,,,sea,166,85,aloud,new,yellow,3718.761091600056,None,n,3718.761091600056,None,"['n', 'return']","[2.784757500048727, 3.168682700023055]",3718.761091600056,None,,,8,001,2023_Feb_01_1137,ExactRep-v3-final,2021.2.3,59.94280254701936,
,,,,,,,,,,,,85,0,85,0,,,,,,,,,,,,,,,,,,,,,,,,,,,,,,,,,,,,,,,,,,,,,,,,,3724.6103017000714,None,,,,,,,,,,,,,,,,,,,,,,,,,,,,,,,,,,,,,,,,,,,,,,,,,,,,,,,,,book,3,86,sing,old,yellow,3722.4854599999962,None,n,3722.4854599999962,None,"['n', 'return']","[1.7885270999977365, 2.084320400026627]",3722.4854599999962,None,,,8,001,2023_Feb_01_1137,ExactRep-v3-final,2021.2.3,59.94280254701936,
,,,,,,,,,,,,86,0,86,0,,,,,,,,,,,,,,,,,,,,,,,,,,,,,,,,,,,,,,,,,,,,,,,,,3727.3808781000553,None,,,,,,,,,,,,,,,,,,,,,,,,,,,,,,,,,,,,,,,,,,,,,,,,,,,,,,,,,victory,55,87,silent,old,yellow,3725.1266577000497,None,n,3725.1266577000497,None,"['n', 'return']","[1.8431006000610068, 2.211116399965249]",3725.1266577000497,None,,,8,001,2023_Feb_01_1137,ExactRep-v3-final,2021.2.3,59.94280254701936,
,,,,,,,,,,,,87,0,87,0,,,,,,,,,,,,,,,,,,,,,,,,,,,,,,,,,,,,,,,,,,,,,,,,,3729.2649111000355,None,,,,,,,,,,,,,,,,,,,,,,,,,,,,,,,,,,,,,,,,,,,,,,,,,,,,,,,,,heaven,27,88,sing,old,yellow,3727.8899226000067,None,y,3727.8899226000067,None,"['y', 'return']","[1.0958628000225872, 1.335869999951683]",3727.8899226000067,None,,,8,001,2023_Feb_01_1137,ExactRep-v3-final,2021.2.3,59.94280254701936,
,,,,,,,,,,,,88,0,88,0,,,,,,,,,,,,,,,,,,,,,,,,,,,,,,,,,,,,,,,,,,,,,,,,,3731.768028100021,None,,,,,,,,,,,,,,,,,,,,,,,,,,,,,,,,,,,,,,,,,,,,,,,,,,,,,,,,,law,139,89,silent,new,yellow,3729.773413600051,None,n,3729.773413600051,None,"['n', 'return']","[1.45266619999893, 1.9484089999459684]",3729.773413600051,None,,,8,001,2023_Feb_01_1137,ExactRep-v3-final,2021.2.3,59.94280254701936,
,,,,,,,,,,,,89,0,89,0,,,,,,,,,,,,,,,,,,,,,,,,,,,,,,,,,,,,,,,,,,,,,,,,,3735.038278400083,None,,,,,,,,,,,,,,,,,,,,,,,,,,,,,,,,,,,,,,,,,,,,,,,,,,,,,,,,,mind,56,90,silent,old,yellow,3732.279392900062,None,n,3732.279392900062,None,"['n', 'return']","[2.3703796999761835, 2.7143175000092015]",3732.279392900062,None,,,8,001,2023_Feb_01_1137,ExactRep-v3-final,2021.2.3,59.94280254701936,
,,,,,,,,,,,,90,0,90,0,,,,,,,,,,,,,,,,,,,,,,,,,,,,,,,,,,,,,,,,,,,,,,,,,3737.4898800000083,None,,,,,,,,,,,,,,,,,,,,,,,,,,,,,,,,,,,,,,,,,,,,,,,,,,,,,,,,,wife,205,91,sing,new,yellow,3735.5448405999923,None,n,3735.5448405999923,None,"['n', 'return']","[1.584988700109534, 1.9049502001143992]",3735.5448405999923,None,,,8,001,2023_Feb_01_1137,ExactRep-v3-final,2021.2.3,59.94280254701936,
,,,,,,,,,,,,91,0,91,0,,,,,,,,,,,,,,,,,,,,,,,,,,,,,,,,,,,,,,,,,,,,,,,,,3739.258537400048,None,,,,,,,,,,,,,,,,,,,,,,,,,,,,,,,,,,,,,,,,,,,,,,,,,,,,,,,,,shock,151,92,silent,new,yellow,3737.9997097000014,None,n,3737.9997097000014,None,"['n', 'return']","[0.8661146000958979, 1.21814400004223]",3737.9997097000014,None,,,8,001,2023_Feb_01_1137,ExactRep-v3-final,2021.2.3,59.94280254701936,
,,,,,,,,,,,,92,0,92,0,,,,,,,,,,,,,,,,,,,,,,,,,,,,,,,,,,,,,,,,,,,,,,,,,3741.310169100063,None,,,,,,,,,,,,,,,,,,,,,,,,,,,,,,,,,,,,,,,,,,,,,,,,,,,,,,,,,dust,214,93,aloud,new,yellow,3739.7677353000036,None,n,3739.7677353000036,None,"['n', 'return']","[1.1061608000891283, 1.506078900070861]",3739.7677353000036,None,,,8,001,2023_Feb_01_1137,ExactRep-v3-final,2021.2.3,59.94280254701936,
,,,,,,,,,,,,93,0,93,0,,,,,,,,,,,,,,,,,,,,,,,,,,,,,,,,,,,,,,,,,,,,,,,,,3748.317366900039,None,,,,,,,,,,,,,,,,,,,,,,,,,,,,,,,,,,,,,,,,,,,,,,,,,,,,,,,,,prison,210,94,aloud,new,yellow,3741.822001500055,None,n,3741.822001500055,None,"['n', 'return']","[6.164021099917591, 6.459876199951395]",3741.822001500055,None,,,8,001,2023_Feb_01_1137,ExactRep-v3-final,2021.2.3,59.94280254701936,
,,,,,,,,,,,,94,0,94,0,,,,,,,,,,,,,,,,,,,,,,,,,,,,,,,,,,,,,,,,,,,,,,,,,3749.835350700072,None,,,,,,,,,,,,,,,,,,,,,,,,,,,,,,,,,,,,,,,,,,,,,,,,,,,,,,,,,tool,36,95,sing,old,yellow,3748.8331504000816,None,n,3748.8331504000816,None,"['n', 'return']","[0.6807291000150144, 0.9686180999269709]",3748.8331504000816,None,,,8,001,2023_Feb_01_1137,ExactRep-v3-final,2021.2.3,59.94280254701936,
,,,,,,,,,,,,95,0,95,0,,,,,,,,,,,,,,,,,,,,,,,,,,,,,,,,,,,,,,,,,,,,,,,,,3751.5204999001,None,,,,,,,,,,,,,,,,,,,,,,,,,,,,,,,,,,,,,,,,,,,,,,,,,,,,,,,,,vessel,144,96,silent,new,yellow,3750.3450939999893,None,n,3750.3450939999893,None,"['n', 'return']","[0.7206985999364406, 1.1366947999922559]",3750.3450939999893,None,,,8,001,2023_Feb_01_1137,ExactRep-v3-final,2021.2.3,59.94280254701936,
,,,,,,,,,,,,96,0,96,0,,,,,,,,,,,,,,,,,,,,,,,,,,,,,,,,,,,,,,,,,,,,,,,,,3753.5058187000686,None,,,,,,,,,,,,,,,,,,,,,,,,,,,,,,,,,,,,,,,,,,,,,,,,,,,,,,,,,market,204,97,aloud,new,yellow,3752.031941400026,None,n,3752.031941400026,None,"['n', 'return']","[1.0178012000396848, 1.4338851999491453]",3752.031941400026,None,,,8,001,2023_Feb_01_1137,ExactRep-v3-final,2021.2.3,59.94280254701936,
,,,,,,,,,,,,97,0,97,0,,,,,,,,,,,,,,,,,,,,,,,,,,,,,,,,,,,,,,,,,,,,,,,,,3755.5578620000742,None,,,,,,,,,,,,,,,,,,,,,,,,,,,,,,,,,,,,,,,,,,,,,,,,,,,,,,,,,gold,94,98,aloud,old,yellow,3754.016669600038,None,n,3754.016669600038,None,"['n', 'return']","[1.1211975999176502, 1.4971345999510959]",3754.016669600038,None,,,8,001,2023_Feb_01_1137,ExactRep-v3-final,2021.2.3,59.94280254701936,
,,,,,,,,,,,,98,0,98,0,,,,,,,,,,,,,,,,,,,,,,,,,,,,,,,,,,,,,,,,,,,,,,,,,3757.177233500057,None,,,,,,,,,,,,,,,,,,,,,,,,,,,,,,,,,,,,,,,,,,,,,,,,,,,,,,,,,seat,188,99,aloud,new,yellow,3756.0666586000007,None,n,3756.0666586000007,None,"['n', 'return']","[0.7511341000208631, 1.0631228999700397]",3756.0666586000007,None,,,8,001,2023_Feb_01_1137,ExactRep-v3-final,2021.2.3,59.94280254701936,
,,,,,,,,,,,,99,0,99,0,,,,,,,,,,,,,,,,,,,,,,,,,,,,,,,,,,,,,,,,,,,,,,,,,3759.7120896000415,None,,,,,,,,,,,,,,,,,,,,,,,,,,,,,,,,,,,,,,,,,,,,,,,,,,,,,,,,,safety,34,100,sing,old,yellow,3757.684323500027,None,n,3757.684323500027,None,"['n', 'return']","[1.7014047000557184, 1.9814622000558302]",3757.684323500027,None,,,8,001,2023_Feb_01_1137,ExactRep-v3-final,2021.2.3,59.94280254701936,
,,,,,,,,,,,,100,0,100,0,,,,,,,,,,,,,,,,,,,,,,,,,,,,,,,,,,,,,,,,,,,,,,,,,3761.847470800043,None,,,,,,,,,,,,,,,,,,,,,,,,,,,,,,,,,,,,,,,,,,,,,,,,,,,,,,,,,woman,23,101,sing,old,yellow,3760.227452400024,None,y,3760.227452400024,None,"['y', 'return']","[1.2945921999635175, 1.5823654000414535]",3760.227452400024,None,,,8,001,2023_Feb_01_1137,ExactRep-v3-final,2021.2.3,59.94280254701936,
,,,,,,,,,,,,101,0,101,0,,,,,,,,,,,,,,,,,,,,,,,,,,,,,,,,,,,,,,,,,,,,,,,,,3764.800423000008,None,,,,,,,,,,,,,,,,,,,,,,,,,,,,,,,,,,,,,,,,,,,,,,,,,,,,,,,,,home,2,102,sing,old,yellow,3762.356144200079,None,n,3762.356144200079,None,"['n', 'return']","[2.0136720999144018, 2.3976858999812976]",3762.356144200079,None,,,8,001,2023_Feb_01_1137,ExactRep-v3-final,2021.2.3,59.94280254701936,
,,,,,,,,,,,,102,0,102,0,,,,,,,,,,,,,,,,,,,,,,,,,,,,,,,,,,,,,,,,,,,,,,,,,3766.418726700009,None,,,,,,,,,,,,,,,,,,,,,,,,,,,,,,,,,,,,,,,,,,,,,,,,,,,,,,,,,circle,171,103,sing,new,yellow,3765.3102519999957,None,n,3765.3102519999957,None,"['n', 'return']","[0.8037140999222174, 1.0675542999524623]",3765.3102519999957,None,,,8,001,2023_Feb_01_1137,ExactRep-v3-final,2021.2.3,59.94280254701936,
,,,,,,,,,,,,103,0,103,0,,,,,,,,,,,,,,,,,,,,,,,,,,,,,,,,,,,,,,,,,,,,,,,,,3770.8409528000047,None,,,,,,,,,,,,,,,,,,,,,,,,,,,,,,,,,,,,,,,,,,,,,,,,,,,,,,,,,army,60,104,silent,old,yellow,3766.931013100082,None,y,3766.931013100082,None,"['y', 'return']","[3.5747071999358013, 3.8707707999274135]",3766.931013100082,None,,,8,001,2023_Feb_01_1137,ExactRep-v3-final,2021.2.3,59.94280254701936,
,,,,,,,,,,,,104,0,104,0,,,,,,,,,,,,,,,,,,,,,,,,,,,,,,,,,,,,,,,,,,,,,,,,,3773.3924701000797,None,,,,,,,,,,,,,,,,,,,,,,,,,,,,,,,,,,,,,,,,,,,,,,,,,,,,,,,,,opinion,30,105,sing,old,yellow,3771.3502045000205,None,y,3771.3502045000205,None,"['y', 'return']","[1.6995491000125185, 2.0036407000152394]",3771.3502045000205,None,,,8,001,2023_Feb_01_1137,ExactRep-v3-final,2021.2.3,59.94280254701936,
,,,,,,,,,,,,105,0,105,0,,,,,,,,,,,,,,,,,,,,,,,,,,,,,,,,,,,,,,,,,,,,,,,,,3776.2615929000312,None,,,,,,,,,,,,,,,,,,,,,,,,,,,,,,,,,,,,,,,,,,,,,,,,,,,,,,,,,advice,146,106,silent,new,yellow,3773.9001503000036,None,n,3773.9001503000036,None,"['n', 'return']","[1.4296438999008387, 2.3257158999331295]",3773.9001503000036,None,,,8,001,2023_Feb_01_1137,ExactRep-v3-final,2021.2.3,59.94280254701936,
,,,,,,,,,,,,106,0,106,0,,,,,,,,,,,,,,,,,,,,,,,,,,,,,,,,,,,,,,,,,,,,,,,,,3778.6145659000613,None,,,,,,,,,,,,,,,,,,,,,,,,,,,,,,,,,,,,,,,,,,,,,,,,,,,,,,,,,window,31,107,sing,old,yellow,3776.7723512999946,None,y,3776.7723512999946,None,"['y', 'return']","[1.5173983999993652, 1.8054330000886694]",3776.7723512999946,None,,,8,001,2023_Feb_01_1137,ExactRep-v3-final,2021.2.3,59.94280254701936,
,,,,,,,,,,,,107,0,107,0,,,,,,,,,,,,,,,,,,,,,,,,,,,,,,,,,,,,,,,,,,,,,,,,,3780.4996110000648,None,,,,,,,,,,,,,,,,,,,,,,,,,,,,,,,,,,,,,,,,,,,,,,,,,,,,,,,,,breast,111,108,aloud,old,yellow,3779.1286917000543,None,y,3779.1286917000543,None,"['y', 'return']","[1.0411740000126883, 1.3370884000323713]",3779.1286917000543,None,,,8,001,2023_Feb_01_1137,ExactRep-v3-final,2021.2.3,59.94280254701936,
,,,,,,,,,,,,108,0,108,0,,,,,,,,,,,,,,,,,,,,,,,,,,,,,,,,,,,,,,,,,,,,,,,,,3782.6515057000797,None,,,,,,,,,,,,,,,,,,,,,,,,,,,,,,,,,,,,,,,,,,,,,,,,,,,,,,,,,bowl,13,109,sing,old,yellow,3781.0091706000967,None,n,3781.0091706000967,None,"['n', 'return']","[1.264502300065942, 1.6086612000362948]",3781.0091706000967,None,,,8,001,2023_Feb_01_1137,ExactRep-v3-final,2021.2.3,59.94280254701936,
,,,,,,,,,,,,109,0,109,0,,,,,,,,,,,,,,,,,,,,,,,,,,,,,,,,,,,,,,,,,,,,,,,,,3784.220100500039,None,,,,,,,,,,,,,,,,,,,,,,,,,,,,,,,,,,,,,,,,,,,,,,,,,,,,,,,,,shoes,192,110,aloud,new,yellow,3783.1615997999907,None,n,3783.1615997999907,None,"['n', 'return']","[0.7601798999821767, 1.0241549999918789]",3783.1615997999907,None,,,8,001,2023_Feb_01_1137,ExactRep-v3-final,2021.2.3,59.94280254701936,
,,,,,,,,,,,,110,0,110,0,,,,,,,,,,,,,,,,,,,,,,,,,,,,,,,,,,,,,,,,,,,,,,,,,3787.056013500085,None,,,,,,,,,,,,,,,,,,,,,,,,,,,,,,,,,,,,,,,,,,,,,,,,,,,,,,,,,answer,100,111,aloud,old,yellow,3784.7302973000333,None,y,3784.7302973000333,None,"['y', 'return']","[1.9675168000394478, 2.2875304999761283]",3784.7302973000333,None,,,8,001,2023_Feb_01_1137,ExactRep-v3-final,2021.2.3,59.94280254701936,
,,,,,,,,,,,,111,0,111,0,,,,,,,,,,,,,,,,,,,,,,,,,,,,,,,,,,,,,,,,,,,,,,,,,3789.8924299000064,None,,,,,,,,,,,,,,,,,,,,,,,,,,,,,,,,,,,,,,,,,,,,,,,,,,,,,,,,,storm,49,112,silent,old,yellow,3787.568697300041,None,n,3787.568697300041,None,"['n', 'return']","[1.7370667000068352, 2.289079000009224]",3787.568697300041,None,,,8,001,2023_Feb_01_1137,ExactRep-v3-final,2021.2.3,59.94280254701936,
,,,,,,,,,,,,112,0,112,0,,,,,,,,,,,,,,,,,,,,,,,,,,,,,,,,,,,,,,,,,,,,,,,,,3792.8963748000097,None,,,,,,,,,,,,,,,,,,,,,,,,,,,,,,,,,,,,,,,,,,,,,,,,,,,,,,,,,car,155,113,silent,new,yellow,3790.3997663999908,None,n,3790.3997663999908,None,"['n', 'return']","[2.1779449998866767, 2.450028899940662]",3790.3997663999908,None,,,8,001,2023_Feb_01_1137,ExactRep-v3-final,2021.2.3,59.94280254701936,
,,,,,,,,,,,,113,0,113,0,,,,,,,,,,,,,,,,,,,,,,,,,,,,,,,,,,,,,,,,,,,,,,,,,3794.8805351000046,None,,,,,,,,,,,,,,,,,,,,,,,,,,,,,,,,,,,,,,,,,,,,,,,,,,,,,,,,,shadow,74,114,silent,old,yellow,3793.399860000005,None,y,3793.399860000005,None,"['y', 'return']","[1.1779059999389574, 1.4339661999838427]",3793.399860000005,None,,,8,001,2023_Feb_01_1137,ExactRep-v3-final,2021.2.3,59.94280254701936,
,,,,,,,,,,,,114,0,114,0,,,,,,,,,,,,,,,,,,,,,,,,,,,,,,,,,,,,,,,,,,,,,,,,,3796.9158503999934,None,,,,,,,,,,,,,,,,,,,,,,,,,,,,,,,,,,,,,,,,,,,,,,,,,,,,,,,,,woods,141,115,silent,new,yellow,3795.389266400016,None,n,3795.389266400016,None,"['n', 'return']","[1.212800099980086, 1.4925256000133231]",3795.389266400016,None,,,8,001,2023_Feb_01_1137,ExactRep-v3-final,2021.2.3,59.94280254701936,
,,,,,,,,,,,,115,0,115,0,,,,,,,,,,,,,,,,,,,,,,,,,,,,,,,,,,,,,,,,,,,,,,,,,3798.6018952000886,None,,,,,,,,,,,,,,,,,,,,,,,,,,,,,,,,,,,,,,,,,,,,,,,,,,,,,,,,,length,93,116,aloud,old,yellow,3797.4258070000215,None,n,3797.4258070000215,None,"['n', 'return']","[0.7360067999688908, 1.1360099000157788]",3797.4258070000215,None,,,8,001,2023_Feb_01_1137,ExactRep-v3-final,2021.2.3,59.94280254701936,
,,,,,,,,,,,,116,0,116,0,,,,,,,,,,,,,,,,,,,,,,,,,,,,,,,,,,,,,,,,,,,,,,,,,3800.270339800045,None,,,,,,,,,,,,,,,,,,,,,,,,,,,,,,,,,,,,,,,,,,,,,,,,,,,,,,,,,church,123,117,silent,new,yellow,3799.1086245999904,None,n,3799.1086245999904,None,"['n', 'return']","[0.7972093001008034, 1.1170874000526965]",3799.1086245999904,None,,,8,001,2023_Feb_01_1137,ExactRep-v3-final,2021.2.3,59.94280254701936,
,,,,,,,,,,,,117,0,117,0,,,,,,,,,,,,,,,,,,,,,,,,,,,,,,,,,,,,,,,,,,,,,,,,,3803.5892683001002,None,,,,,,,,,,,,,,,,,,,,,,,,,,,,,,,,,,,,,,,,,,,,,,,,,,,,,,,,,present,173,118,sing,new,yellow,3800.7784906000597,None,y,3800.7784906000597,None,"['y', 'return']","[2.40732759993989, 2.767236099927686]",3800.7784906000597,None,,,8,001,2023_Feb_01_1137,ExactRep-v3-final,2021.2.3,59.94280254701936,
,,,,,,,,,,,,118,0,118,0,,,,,,,,,,,,,,,,,,,,,,,,,,,,,,,,,,,,,,,,,,,,,,,,,3806.442050200072,None,,,,,,,,,,,,,,,,,,,,,,,,,,,,,,,,,,,,,,,,,,,,,,,,,,,,,,,,,love,138,119,silent,new,yellow,3804.0981194000924,None,n,3804.0981194000924,None,"['n', 'return']","[1.97562000004109, 2.303675700095482]",3804.0981194000924,None,,,8,001,2023_Feb_01_1137,ExactRep-v3-final,2021.2.3,59.94280254701936,
,,,,,,,,,,,,119,0,119,0,,,,,,,,,,,,,,,,,,,,,,,,,,,,,,,,,,,,,,,,,,,,,,,,,3808.8789727000985,None,,,,,,,,,,,,,,,,,,,,,,,,,,,,,,,,,,,,,,,,,,,,,,,,,,,,,,,,,deed,29,120,sing,old,yellow,3806.9476361999987,None,y,3806.9476361999987,None,"['y', 'return']","[1.57424310001079, 1.89414449990727]",3806.9476361999987,None,,,8,001,2023_Feb_01_1137,ExactRep-v3-final,2021.2.3,59.94280254701936,
,,,,,,,,,,,,120,0,120,0,,,,,,,,,,,,,,,,,,,,,,,,,,,,,,,,,,,,,,,,,,,,,,,,,3810.863366000005,None,,,,,,,,,,,,,,,,,,,,,,,,,,,,,,,,,,,,,,,,,,,,,,,,,,,,,,,,,cash,237,121,sing,new,yellow,3809.39103910001,None,n,3809.39103910001,None,"['n', 'return']","[1.1547009000787511, 1.4347466999897733]",3809.39103910001,None,,,8,001,2023_Feb_01_1137,ExactRep-v3-final,2021.2.3,59.94280254701936,
,,,,,,,,,,,,121,0,121,0,,,,,,,,,,,,,,,,,,,,,,,,,,,,,,,,,,,,,,,,,,,,,,,,,3812.581838699989,None,,,,,,,,,,,,,,,,,,,,,,,,,,,,,,,,,,,,,,,,,,,,,,,,,,,,,,,,,power,207,122,sing,new,yellow,3811.373536600033,None,n,3811.373536600033,None,"['n', 'return']","[0.7963893000269309, 1.1724131000228226]",3811.373536600033,None,,,8,001,2023_Feb_01_1137,ExactRep-v3-final,2021.2.3,59.94280254701936,
,,,,,,,,,,,,122,0,122,0,,,,,,,,,,,,,,,,,,,,,,,,,,,,,,,,,,,,,,,,,,,,,,,,,3814.1008080000756,None,,,,,,,,,,,,,,,,,,,,,,,,,,,,,,,,,,,,,,,,,,,,,,,,,,,,,,,,,science,95,123,aloud,old,yellow,3813.089826700045,None,n,3813.089826700045,None,"['n', 'return']","[0.6960213000420481, 0.9680483000120148]",3813.089826700045,None,,,8,001,2023_Feb_01_1137,ExactRep-v3-final,2021.2.3,59.94280254701936,
,,,,,,,,,,,,123,0,123,0,,,,,,,,,,,,,,,,,,,,,,,,,,,,,,,,,,,,,,,,,,,,,,,,,3815.9682445999933,None,,,,,,,,,,,,,,,,,,,,,,,,,,,,,,,,,,,,,,,,,,,,,,,,,,,,,,,,,engine,232,124,aloud,new,yellow,3814.605938200024,None,n,3814.605938200024,None,"['n', 'return']","[0.9480393999256194, 1.323843799997121]",3814.605938200024,None,,,8,001,2023_Feb_01_1137,ExactRep-v3-final,2021.2.3,59.94280254701936,
,,,,,,,,,,,,124,0,124,0,,,,,,,,,,,,,,,,,,,,,,,,,,,,,,,,,,,,,,,,,,,,,,,,,3820.8397642000346,None,,,,,,,,,,,,,,,,,,,,,,,,,,,,,,,,,,,,,,,,,,,,,,,,,,,,,,,,,moral,105,125,aloud,old,yellow,3816.476631800062,None,y,3816.476631800062,None,"['y', 'return']","[1.533403499983251, 4.3251702999696136]",3816.476631800062,None,,,8,001,2023_Feb_01_1137,ExactRep-v3-final,2021.2.3,59.94280254701936,
,,,,,,,,,,,,125,0,125,0,,,,,,,,,,,,,,,,,,,,,,,,,,,,,,,,,,,,,,,,,,,,,,,,,3823.2591922000283,None,,,,,,,,,,,,,,,,,,,,,,,,,,,,,,,,,,,,,,,,,,,,,,,,,,,,,,,,,prayer,159,126,silent,new,yellow,3821.3496239000233,None,n,3821.3496239000233,None,"['n', 'return']","[1.572268299991265, 1.8684558999957517]",3821.3496239000233,None,,,8,001,2023_Feb_01_1137,ExactRep-v3-final,2021.2.3,59.94280254701936,
,,,,,,,,,,,,126,0,126,0,,,,,,,,,,,,,,,,,,,,,,,,,,,,,,,,,,,,,,,,,,,,,,,,,3824.7436924000503,None,,,,,,,,,,,,,,,,,,,,,,,,,,,,,,,,,,,,,,,,,,,,,,,,,,,,,,,,,avenue,218,127,aloud,new,yellow,3823.770913000102,None,n,3823.770913000102,None,"['n', 'return']","[0.6069060999434441, 0.9348707998869941]",3823.770913000102,None,,,8,001,2023_Feb_01_1137,ExactRep-v3-final,2021.2.3,59.94280254701936,
,,,,,,,,,,,,127,0,127,0,,,,,,,,,,,,,,,,,,,,,,,,,,,,,,,,,,,,,,,,,,,,,,,,,3826.929241200094,None,,,,,,,,,,,,,,,,,,,,,,,,,,,,,,,,,,,,,,,,,,,,,,,,,,,,,,,,,beast,62,128,silent,old,yellow,3825.253369700047,None,n,3825.253369700047,None,"['n', 'return']","[1.30856249993667, 1.6284215999767184]",3825.253369700047,None,,,8,001,2023_Feb_01_1137,ExactRep-v3-final,2021.2.3,59.94280254701936,
,,,,,,,,,,,,128,0,128,0,,,,,,,,,,,,,,,,,,,,,,,,,,,,,,,,,,,,,,,,,,,,,,,,,3829.749782600091,None,,,,,,,,,,,,,,,,,,,,,,,,,,,,,,,,,,,,,,,,,,,,,,,,,,,,,,,,,clock,181,129,sing,new,yellow,3827.4387684999965,None,n,3827.4387684999965,None,"['n', 'return']","[2.0189976000692695, 2.2750278000021353]",3827.4387684999965,None,,,8,001,2023_Feb_01_1137,ExactRep-v3-final,2021.2.3,59.94280254701936,
,,,,,,,,,,,,129,0,129,0,,,,,,,,,,,,,,,,,,,,,,,,,,,,,,,,,,,,,,,,,,,,,,,,,3831.533848399995,None,,,,,,,,,,,,,,,,,,,,,,,,,,,,,,,,,,,,,,,,,,,,,,,,,,,,,,,,,colony,211,130,sing,new,yellow,3830.2600123999873,None,n,3830.2600123999873,None,"['n', 'return']","[0.893776600016281, 1.2378140999935567]",3830.2600123999873,None,,,8,001,2023_Feb_01_1137,ExactRep-v3-final,2021.2.3,59.94280254701936,
,,,,,,,,,,,,130,0,130,0,,,,,,,,,,,,,,,,,,,,,,,,,,,,,,,,,,,,,,,,,,,,,,,,,3834.0864066000795,None,,,,,,,,,,,,,,,,,,,,,,,,,,,,,,,,,,,,,,,,,,,,,,,,,,,,,,,,,village,102,131,aloud,old,yellow,3832.0404187000822,None,y,3832.0404187000822,None,"['y', 'return']","[1.633374399971217, 2.0012894000392407]",3832.0404187000822,None,,,8,001,2023_Feb_01_1137,ExactRep-v3-final,2021.2.3,59.94280254701936,
,,,,,,,,,,,,131,0,131,0,,,,,,,,,,,,,,,,,,,,,,,,,,,,,,,,,,,,,,,,,,,,,,,,,3836.2051211000653,None,,,,,,,,,,,,,,,,,,,,,,,,,,,,,,,,,,,,,,,,,,,,,,,,,,,,,,,,,fate,137,132,silent,new,yellow,3834.5975972000742,None,n,3834.5975972000742,None,"['n', 'return']","[1.2602413999848068, 1.5642741000046954]",3834.5975972000742,None,,,8,001,2023_Feb_01_1137,ExactRep-v3-final,2021.2.3,59.94280254701936,
,,,,,,,,,,,,132,0,132,0,,,,,,,,,,,,,,,,,,,,,,,,,,,,,,,,,,,,,,,,,,,,,,,,,3837.7066288000206,None,,,,,,,,,,,,,,,,,,,,,,,,,,,,,,,,,,,,,,,,,,,,,,,,,,,,,,,,,apple,187,133,sing,new,yellow,3836.7135759000666,None,n,3836.7135759000666,None,"['n', 'return']","[0.6481605999870226, 0.9522135000443086]",3836.7135759000666,None,,,8,001,2023_Feb_01_1137,ExactRep-v3-final,2021.2.3,59.94280254701936,
