trials_fam.thisRepN,trials_fam.thisTrialN,trials_fam.thisN,trials_fam.thisIndex,trials_prc.thisRepN,trials_prc.thisTrialN,trials_prc.thisN,trials_prc.thisIndex,StudyLoop.thisRepN,StudyLoop.thisTrialN,StudyLoop.thisN,StudyLoop.thisIndex,TestLoop.thisRepN,TestLoop.thisTrialN,TestLoop.thisN,TestLoop.thisIndex,text_colortest.started,text_colortest.stopped,key_colortest.keys,key_colortest.rt,key_colortest.started,key_colortest.stopped,textCondition.started,textCondition.stopped,keyCondition.keys,keyCondition.rt,keyCondition.started,keyCondition.stopped,Condition_between,Condition_counterbal,keyWelcome.keys,keyWelcome.rt,keyWelcome.started,keyWelcome.stopped,welcome_a.started,welcome_a.stopped,welcome_b.started,welcome_b.stopped,welcome_c.started,welcome_c.stopped,welcome_d.started,welcome_d.stopped,welcome_e.started,welcome_e.stopped,welcome_f.started,welcome_f.stopped,key_resp_fam_inst.keys,key_resp_fam_inst.rt,key_resp_fam_inst.started,key_resp_fam_inst.stopped,fam_a.started,fam_a.stopped,fam_b.started,fam_b.stopped,fam_c.started,fam_c.stopped,fam_d.started,fam_d.stopped,fam_e.started,fam_e.stopped,fam_f.started,fam_f.stopped,text_famil.started,text_famil.stopped,textBlank500.started,textBlank500.stopped,key_resp_prc_inst.keys,key_resp_prc_inst.rt,key_resp_prc_inst.started,key_resp_prc_inst.stopped,prac_a.started,prac_a.stopped,prac_b.started,prac_b.stopped,prac_c.started,prac_c.stopped,prac_d.started,prac_d.stopped,prac_e.started,prac_e.stopped,prac_f.started,prac_f.stopped,text_prc_trial.started,text_prc_trial.stopped,key_resp_study_inst.keys,key_resp_study_inst.rt,key_resp_study_inst.started,key_resp_study_inst.stopped,crit_a.started,crit_a.stopped,crit_b.started,crit_b.stopped,crit_c.started,crit_c.stopped,crit_d.started,crit_d.stopped,crit_e.started,crit_e.stopped,crit_f.started,crit_f.stopped,study_word,study_num,study_order,study_type,word_color,textStudy.started,textStudy.stopped,keyStudy.keys,keyStudy.started,keyStudy.stopped,post_study.started,post_study.stopped,key_resp_post_study.keys,key_resp_post_study.rt,key_resp_post_study.started,key_resp_post_study.stopped,test_inst.started,test_inst.stopped,key_resp_test_inst.keys,key_resp_test_inst.rt,key_resp_test_inst.started,key_resp_test_inst.stopped,test_word,test_num,test_order,test_condition,old_new_test,word_color_test,textConf.started,textConf.stopped,Participant Response,textInput.started,textInput.stopped,keyResp.keys,keyResp.rt,keyResp.started,keyResp.stopped,textEnd.started,textEnd.stopped,participant,session,date,expName,psychopyVersion,frameRate,
,,,,,,,,,,,,,,,,15.21395600005053,None,y,0.6172021999955177,15.21395600005053,None,,,,,,,,,,,,,,,,,,,,,,,,,,,,,,,,,,,,,,,,,,,,,,,,,,,,,,,,,,,,,,,,,,,,,,,,,,,,,,,,,,,,,,,,,,,,,,,,,,,,,,,,,,,,,,,,,,,,,,90YF,001,2023_Aug_31_1319,ExactRep-v3-final,2021.2.3,60.092686980583565,
,,,,,,,,,,,,,,,,,,,,,,15.858444400015287,None,f,0.2688207000028342,15.858444400015287,None,,,,,,,,,,,,,,,,,,,,,,,,,,,,,,,,,,,,,,,,,,,,,,,,,,,,,,,,,,,,,,,,,,,,,,,,,,,,,,,,,,,,,,,,,,,,,,,,,,,,,,,,,,,,,,,,90YF,001,2023_Aug_31_1319,ExactRep-v3-final,2021.2.3,60.092686980583565,
,,,,,,,,,,,,,,,,,,,,,,,,,,,,colorfoils,f,space,631.9035134000005,26.215390100027435,None,,,,,,,,,,,,,,,,,,,,,,,,,,,,,,,,,,,,,,,,,,,,,,,,,,,,,,,,,,,,,,,,,,,,,,,,,,,,,,,,,,,,,,,,,,,,,,,,,,,,,,,,,,90YF,001,2023_Aug_31_1319,ExactRep-v3-final,2021.2.3,60.092686980583565,
,,,,,,,,,,,,,,,,,,,,,,,,,,,,,,,,,,16.28491839999333,None,16.28491839999333,None,16.28491839999333,None,16.28491839999333,None,16.28491839999333,None,16.28491839999333,None,space,19.248430800042115,668.2945536000188,None,,,,,,,,,,,,,,,,,,,,,,,,,,,,,,,,,,,,,,,,,,,,,,,,,,,,,,,,,,,,,,,,,,,,,,,,,,,,,,,,,,,,,,,,,,90YF,001,2023_Aug_31_1319,ExactRep-v3-final,2021.2.3,60.092686980583565,
0,0,0,0,,,,,,,,,,,,,,,,,,,,,,,,,,,,,,,,,,,,,,,,,,,,,,,658.3182004999835,None,658.3182004999835,None,658.3182004999835,None,658.3182004999835,None,658.3182004999835,None,658.3182004999835,None,687.6567179000704,None,689.6479721000651,None,,,,,,,,,,,,,,,,,,,,,,,,,,,,,,,,,,,,,,,,,,,,,,,,,,,,,,,,,,,,,,,,,,,,,,,,,,90YF,001,2023_Aug_31_1319,ExactRep-v3-final,2021.2.3,60.092686980583565,
1,0,1,0,,,,,,,,,,,,,,,,,,,,,,,,,,,,,,,,,,,,,,,,,,,,,,,,,,,,,,,,,,,690.1624303000281,None,692.1675691000419,None,,,,,,,,,,,,,,,,,,,,,,,,,,,,,,,,,,,,,,,,,,,,,,,,,,,,,,,,,,,,,,,,,,,,,,,,,,90YF,001,2023_Aug_31_1319,ExactRep-v3-final,2021.2.3,60.092686980583565,
2,0,2,0,,,,,,,,,,,,,,,,,,,,,,,,,,,,,,,,,,,,,,,,,,,,,,,,,,,,,,,,,,,692.6679731000913,None,694.6700472000521,None,,,,,,,,,,,,,,,,,,,,,,,,,,,,,,,,,,,,,,,,,,,,,,,,,,,,,,,,,,,,,,,,,,,,,,,,,,90YF,001,2023_Aug_31_1319,ExactRep-v3-final,2021.2.3,60.092686980583565,
3,0,3,0,,,,,,,,,,,,,,,,,,,,,,,,,,,,,,,,,,,,,,,,,,,,,,,,,,,,,,,,,,,695.1845729000634,None,697.1890022000298,None,,,,,,,,,,,,,,,,,,,,,,,,,,,,,,,,,,,,,,,,,,,,,,,,,,,,,,,,,,,,,,,,,,,,,,,,,,90YF,001,2023_Aug_31_1319,ExactRep-v3-final,2021.2.3,60.092686980583565,
4,0,4,0,,,,,,,,,,,,,,,,,,,,,,,,,,,,,,,,,,,,,,,,,,,,,,,,,,,,,,,,,,,697.6892610000214,None,699.6915994000155,None,,,,,,,,,,,,,,,,,,,,,,,,,,,,,,,,,,,,,,,,,,,,,,,,,,,,,,,,,,,,,,,,,,,,,,,,,,90YF,001,2023_Aug_31_1319,ExactRep-v3-final,2021.2.3,60.092686980583565,
5,0,5,0,,,,,,,,,,,,,,,,,,,,,,,,,,,,,,,,,,,,,,,,,,,,,,,,,,,,,,,,,,,700.1924375999952,None,702.1941797999898,None,,,,,,,,,,,,,,,,,,,,,,,,,,,,,,,,,,,,,,,,,,,,,,,,,,,,,,,,,,,,,,,,,,,,,,,,,,90YF,001,2023_Aug_31_1319,ExactRep-v3-final,2021.2.3,60.092686980583565,
6,0,6,0,,,,,,,,,,,,,,,,,,,,,,,,,,,,,,,,,,,,,,,,,,,,,,,,,,,,,,,,,,,702.6990150000202,None,704.7132134999847,None,,,,,,,,,,,,,,,,,,,,,,,,,,,,,,,,,,,,,,,,,,,,,,,,,,,,,,,,,,,,,,,,,,,,,,,,,,90YF,001,2023_Aug_31_1319,ExactRep-v3-final,2021.2.3,60.092686980583565,
7,0,7,0,,,,,,,,,,,,,,,,,,,,,,,,,,,,,,,,,,,,,,,,,,,,,,,,,,,,,,,,,,,705.2137068000156,None,707.2155461000511,None,,,,,,,,,,,,,,,,,,,,,,,,,,,,,,,,,,,,,,,,,,,,,,,,,,,,,,,,,,,,,,,,,,,,,,,,,,90YF,001,2023_Aug_31_1319,ExactRep-v3-final,2021.2.3,60.092686980583565,
8,0,8,0,,,,,,,,,,,,,,,,,,,,,,,,,,,,,,,,,,,,,,,,,,,,,,,,,,,,,,,,,,,707.7208913000068,None,709.7350316999946,None,,,,,,,,,,,,,,,,,,,,,,,,,,,,,,,,,,,,,,,,,,,,,,,,,,,,,,,,,,,,,,,,,,,,,,,,,,90YF,001,2023_Aug_31_1319,ExactRep-v3-final,2021.2.3,60.092686980583565,
9,0,9,0,,,,,,,,,,,,,,,,,,,,,,,,,,,,,,,,,,,,,,,,,,,,,,,,,,,,,,,,,,,710.2367706000805,None,712.237464100006,None,,,,,,,,,,,,,,,,,,,,,,,,,,,,,,,,,,,,,,,,,,,,,,,,,,,,,,,,,,,,,,,,,,,,,,,,,,90YF,001,2023_Aug_31_1319,ExactRep-v3-final,2021.2.3,60.092686980583565,
10,0,10,0,,,,,,,,,,,,,,,,,,,,,,,,,,,,,,,,,,,,,,,,,,,,,,,,,,,,,,,,,,,712.7400284000905,None,714.7400587000884,None,,,,,,,,,,,,,,,,,,,,,,,,,,,,,,,,,,,,,,,,,,,,,,,,,,,,,,,,,,,,,,,,,,,,,,,,,,90YF,001,2023_Aug_31_1319,ExactRep-v3-final,2021.2.3,60.092686980583565,
11,0,11,0,,,,,,,,,,,,,,,,,,,,,,,,,,,,,,,,,,,,,,,,,,,,,,,,,,,,,,,,,,,715.2405323000858,None,717.2426960000303,None,,,,,,,,,,,,,,,,,,,,,,,,,,,,,,,,,,,,,,,,,,,,,,,,,,,,,,,,,,,,,,,,,,,,,,,,,,90YF,001,2023_Aug_31_1319,ExactRep-v3-final,2021.2.3,60.092686980583565,
12,0,12,0,,,,,,,,,,,,,,,,,,,,,,,,,,,,,,,,,,,,,,,,,,,,,,,,,,,,,,,,,,,717.7431559000397,None,719.745143200038,None,,,,,,,,,,,,,,,,,,,,,,,,,,,,,,,,,,,,,,,,,,,,,,,,,,,,,,,,,,,,,,,,,,,,,,,,,,90YF,001,2023_Aug_31_1319,ExactRep-v3-final,2021.2.3,60.092686980583565,
13,0,13,0,,,,,,,,,,,,,,,,,,,,,,,,,,,,,,,,,,,,,,,,,,,,,,,,,,,,,,,,,,,720.2456028000452,None,722.2480640000431,None,,,,,,,,,,,,,,,,,,,,,,,,,,,,,,,,,,,,,,,,,,,,,,,,,,,,,,,,,,,,,,,,,,,,,,,,,,90YF,001,2023_Aug_31_1319,ExactRep-v3-final,2021.2.3,60.092686980583565,
14,0,14,0,,,,,,,,,,,,,,,,,,,,,,,,,,,,,,,,,,,,,,,,,,,,,,,,,,,,,,,,,,,722.7556808000663,None,724.7666387000354,None,,,,,,,,,,,,,,,,,,,,,,,,,,,,,,,,,,,,,,,,,,,,,,,,,,,,,,,,,,,,,,,,,,,,,,,,,,90YF,001,2023_Aug_31_1319,ExactRep-v3-final,2021.2.3,60.092686980583565,
,,,,,,,,,,,,,,,,,,,,,,,,,,,,,,,,,,,,,,,,,,,,,,,,,,,,,,,,,,,,,,,,,,space,10.616206200094894,735.3666794000892,None,,,,,,,,,,,,,,,,,,,,,,,,,,,,,,,,,,,,,,,,,,,,,,,,,,,,,,,,,,,,,,,,,,,,,,90YF,001,2023_Aug_31_1319,ExactRep-v3-final,2021.2.3,60.092686980583565,
,,,,0,0,0,0,,,,,,,,,,,,,,,,,,,,,,,,,,,,,,,,,,,,,,,,,,,,,,,,,,,,,,,,,748.090118400054,None,,,,,725.3778073000722,None,725.3778073000722,None,725.3778073000722,None,725.3778073000722,None,725.3778073000722,None,725.3778073000722,None,746.0875280000037,None,,,,,,,,,,,,,,,,,,,,,,,,,,,,,,,,,,,,,,,,,,,,,,,,,,,,,,,,90YF,001,2023_Aug_31_1319,ExactRep-v3-final,2021.2.3,60.092686980583565,
,,,,1,0,1,0,,,,,,,,,,,,,,,,,,,,,,,,,,,,,,,,,,,,,,,,,,,,,,,,,,,,,,,,,750.5924946999876,None,,,,,,,,,,,,,,,,,748.5906261000782,None,,,,,,,,,,,,,,,,,,,,,,,,,,,,,,,,,,,,,,,,,,,,,,,,,,,,,,,,90YF,001,2023_Aug_31_1319,ExactRep-v3-final,2021.2.3,60.092686980583565,
,,,,2,0,2,0,,,,,,,,,,,,,,,,,,,,,,,,,,,,,,,,,,,,,,,,,,,,,,,,,,,,,,,,,753.0959378000116,None,,,,,,,,,,,,,,,,,751.0927377000917,None,,,,,,,,,,,,,,,,,,,,,,,,,,,,,,,,,,,,,,,,,,,,,,,,,,,,,,,,90YF,001,2023_Aug_31_1319,ExactRep-v3-final,2021.2.3,60.092686980583565,
,,,,3,0,3,0,,,,,,,,,,,,,,,,,,,,,,,,,,,,,,,,,,,,,,,,,,,,,,,,,,,,,,,,,755.5974964000052,None,,,,,,,,,,,,,,,,,753.5955100000137,None,,,,,,,,,,,,,,,,,,,,,,,,,,,,,,,,,,,,,,,,,,,,,,,,,,,,,,,,90YF,001,2023_Aug_31_1319,ExactRep-v3-final,2021.2.3,60.092686980583565,
,,,,4,0,4,0,,,,,,,,,,,,,,,,,,,,,,,,,,,,,,,,,,,,,,,,,,,,,,,,,,,,,,,,,758.0999980000779,None,,,,,,,,,,,,,,,,,756.0978115000762,None,,,,,,,,,,,,,,,,,,,,,,,,,,,,,,,,,,,,,,,,,,,,,,,,,,,,,,,,90YF,001,2023_Aug_31_1319,ExactRep-v3-final,2021.2.3,60.092686980583565,
,,,,5,0,5,0,,,,,,,,,,,,,,,,,,,,,,,,,,,,,,,,,,,,,,,,,,,,,,,,,,,,,,,,,760.6030271999771,None,,,,,,,,,,,,,,,,,758.6005000000587,None,,,,,,,,,,,,,,,,,,,,,,,,,,,,,,,,,,,,,,,,,,,,,,,,,,,,,,,,90YF,001,2023_Aug_31_1319,ExactRep-v3-final,2021.2.3,60.092686980583565,
,,,,6,0,6,0,,,,,,,,,,,,,,,,,,,,,,,,,,,,,,,,,,,,,,,,,,,,,,,,,,,,,,,,,763.1051069999812,None,,,,,,,,,,,,,,,,,761.1028287999798,None,,,,,,,,,,,,,,,,,,,,,,,,,,,,,,,,,,,,,,,,,,,,,,,,,,,,,,,,90YF,001,2023_Aug_31_1319,ExactRep-v3-final,2021.2.3,60.092686980583565,
,,,,7,0,7,0,,,,,,,,,,,,,,,,,,,,,,,,,,,,,,,,,,,,,,,,,,,,,,,,,,,,,,,,,765.6076506000245,None,,,,,,,,,,,,,,,,,763.6058105999837,None,,,,,,,,,,,,,,,,,,,,,,,,,,,,,,,,,,,,,,,,,,,,,,,,,,,,,,,,90YF,001,2023_Aug_31_1319,ExactRep-v3-final,2021.2.3,60.092686980583565,
,,,,8,0,8,0,,,,,,,,,,,,,,,,,,,,,,,,,,,,,,,,,,,,,,,,,,,,,,,,,,,,,,,,,768.1100065000355,None,,,,,,,,,,,,,,,,,766.109646200086,None,,,,,,,,,,,,,,,,,,,,,,,,,,,,,,,,,,,,,,,,,,,,,,,,,,,,,,,,90YF,001,2023_Aug_31_1319,ExactRep-v3-final,2021.2.3,60.092686980583565,
,,,,9,0,9,0,,,,,,,,,,,,,,,,,,,,,,,,,,,,,,,,,,,,,,,,,,,,,,,,,,,,,,,,,770.612409900059,None,,,,,,,,,,,,,,,,,768.6104542000685,None,,,,,,,,,,,,,,,,,,,,,,,,,,,,,,,,,,,,,,,,,,,,,,,,,,,,,,,,90YF,001,2023_Aug_31_1319,ExactRep-v3-final,2021.2.3,60.092686980583565,
,,,,10,0,10,0,,,,,,,,,,,,,,,,,,,,,,,,,,,,,,,,,,,,,,,,,,,,,,,,,,,,,,,,,773.1149619000498,None,,,,,,,,,,,,,,,,,771.1131816999987,None,,,,,,,,,,,,,,,,,,,,,,,,,,,,,,,,,,,,,,,,,,,,,,,,,,,,,,,,90YF,001,2023_Aug_31_1319,ExactRep-v3-final,2021.2.3,60.092686980583565,
,,,,11,0,11,0,,,,,,,,,,,,,,,,,,,,,,,,,,,,,,,,,,,,,,,,,,,,,,,,,,,,,,,,,775.617500500055,None,,,,,,,,,,,,,,,,,773.6153686000034,None,,,,,,,,,,,,,,,,,,,,,,,,,,,,,,,,,,,,,,,,,,,,,,,,,,,,,,,,90YF,001,2023_Aug_31_1319,ExactRep-v3-final,2021.2.3,60.092686980583565,
,,,,12,0,12,0,,,,,,,,,,,,,,,,,,,,,,,,,,,,,,,,,,,,,,,,,,,,,,,,,,,,,,,,,778.119853500044,None,,,,,,,,,,,,,,,,,776.1180234000785,None,,,,,,,,,,,,,,,,,,,,,,,,,,,,,,,,,,,,,,,,,,,,,,,,,,,,,,,,90YF,001,2023_Aug_31_1319,ExactRep-v3-final,2021.2.3,60.092686980583565,
,,,,13,0,13,0,,,,,,,,,,,,,,,,,,,,,,,,,,,,,,,,,,,,,,,,,,,,,,,,,,,,,,,,,780.6223710000049,None,,,,,,,,,,,,,,,,,778.6204240000807,None,,,,,,,,,,,,,,,,,,,,,,,,,,,,,,,,,,,,,,,,,,,,,,,,,,,,,,,,90YF,001,2023_Aug_31_1319,ExactRep-v3-final,2021.2.3,60.092686980583565,
,,,,14,0,14,0,,,,,,,,,,,,,,,,,,,,,,,,,,,,,,,,,,,,,,,,,,,,,,,,,,,,,,,,,783.1248636000091,None,,,,,,,,,,,,,,,,,781.1229680000106,None,,,,,,,,,,,,,,,,,,,,,,,,,,,,,,,,,,,,,,,,,,,,,,,,,,,,,,,,90YF,001,2023_Aug_31_1319,ExactRep-v3-final,2021.2.3,60.092686980583565,
,,,,,,,,,,,,,,,,,,,,,,,,,,,,,,,,,,,,,,,,,,,,,,,,,,,,,,,,,,,,,,,,,,,,,,,,,,,,,,,,,,,,space,16.718277400010265,793.7365724000847,None,,,,,,,,,,,,,,,,,,,,,,,,,,,,,,,,,,,,,,,,,,,,,,,,,,,,90YF,001,2023_Aug_31_1319,ExactRep-v3-final,2021.2.3,60.092686980583565,
,,,,,,,,0,0,0,0,,,,,,,,,,,,,,,,,,,,,,,,,,,,,,,,,,,,,,,,,,,,,,,,,,,,,812.570543400012,None,,,,,,,,,,,,,,,,,,,,,,,783.7826683000894,None,783.7826683000894,None,783.7826683000894,None,783.7826683000894,None,783.7826683000894,None,783.7826683000894,None,beast,93,1,aloud,white,810.5608869000571,None,None,810.5608869000571,None,,,,,,,,,,,,,,,,,,,,,,,,,,,,,,90YF,001,2023_Aug_31_1319,ExactRep-v3-final,2021.2.3,60.092686980583565,
,,,,,,,,1,0,1,0,,,,,,,,,,,,,,,,,,,,,,,,,,,,,,,,,,,,,,,,,,,,,,,,,,,,,815.0731446000282,None,,,,,,,,,,,,,,,,,,,,,,,,,,,,,,,,,,,poet,119,2,aloud,white,813.0734124000883,None,None,813.0734124000883,None,,,,,,,,,,,,,,,,,,,,,,,,,,,,,,90YF,001,2023_Aug_31_1319,ExactRep-v3-final,2021.2.3,60.092686980583565,
,,,,,,,,2,0,2,0,,,,,,,,,,,,,,,,,,,,,,,,,,,,,,,,,,,,,,,,,,,,,,,,,,,,,817.5925569999963,None,,,,,,,,,,,,,,,,,,,,,,,,,,,,,,,,,,,colony,91,3,aloud,white,815.5780826000264,None,None,815.5780826000264,None,,,,,,,,,,,,,,,,,,,,,,,,,,,,,,90YF,001,2023_Aug_31_1319,ExactRep-v3-final,2021.2.3,60.092686980583565,
,,,,,,,,3,0,3,0,,,,,,,,,,,,,,,,,,,,,,,,,,,,,,,,,,,,,,,,,,,,,,,,,,,,,820.0951065000845,None,,,,,,,,,,,,,,,,,,,,,,,,,,,,,,,,,,,meadow,100,4,aloud,white,818.0953113000141,None,None,818.0953113000141,None,,,,,,,,,,,,,,,,,,,,,,,,,,,,,,90YF,001,2023_Aug_31_1319,ExactRep-v3-final,2021.2.3,60.092686980583565,
,,,,,,,,4,0,4,0,,,,,,,,,,,,,,,,,,,,,,,,,,,,,,,,,,,,,,,,,,,,,,,,,,,,,822.6145284000086,None,,,,,,,,,,,,,,,,,,,,,,,,,,,,,,,,,,,love,84,5,aloud,white,820.6016589000355,None,None,820.6016589000355,None,,,,,,,,,,,,,,,,,,,,,,,,,,,,,,90YF,001,2023_Aug_31_1319,ExactRep-v3-final,2021.2.3,60.092686980583565,
,,,,,,,,5,0,5,0,,,,,,,,,,,,,,,,,,,,,,,,,,,,,,,,,,,,,,,,,,,,,,,,,,,,,825.1332804000704,None,,,,,,,,,,,,,,,,,,,,,,,,,,,,,,,,,,,advice,3,6,sing,red,823.1238715000218,None,None,823.1238715000218,None,,,,,,,,,,,,,,,,,,,,,,,,,,,,,,90YF,001,2023_Aug_31_1319,ExactRep-v3-final,2021.2.3,60.092686980583565,
,,,,,,,,6,0,6,0,,,,,,,,,,,,,,,,,,,,,,,,,,,,,,,,,,,,,,,,,,,,,,,,,,,,,827.6360561000183,None,,,,,,,,,,,,,,,,,,,,,,,,,,,,,,,,,,,avenue,20,7,sing,red,825.6336271000328,None,None,825.6336271000328,None,,,,,,,,,,,,,,,,,,,,,,,,,,,,,,90YF,001,2023_Aug_31_1319,ExactRep-v3-final,2021.2.3,60.092686980583565,
,,,,,,,,7,0,7,0,,,,,,,,,,,,,,,,,,,,,,,,,,,,,,,,,,,,,,,,,,,,,,,,,,,,,830.1385793000227,None,,,,,,,,,,,,,,,,,,,,,,,,,,,,,,,,,,,dawn,77,8,silent,blue,828.1390651999973,None,None,828.1390651999973,None,,,,,,,,,,,,,,,,,,,,,,,,,,,,,,90YF,001,2023_Aug_31_1319,ExactRep-v3-final,2021.2.3,60.092686980583565,
,,,,,,,,8,0,8,0,,,,,,,,,,,,,,,,,,,,,,,,,,,,,,,,,,,,,,,,,,,,,,,,,,,,,832.657581300009,None,,,,,,,,,,,,,,,,,,,,,,,,,,,,,,,,,,,slave,4,9,sing,red,830.643084899988,None,None,830.643084899988,None,,,,,,,,,,,,,,,,,,,,,,,,,,,,,,90YF,001,2023_Aug_31_1319,ExactRep-v3-final,2021.2.3,60.092686980583565,
,,,,,,,,9,0,9,0,,,,,,,,,,,,,,,,,,,,,,,,,,,,,,,,,,,,,,,,,,,,,,,,,,,,,835.1600000000326,None,,,,,,,,,,,,,,,,,,,,,,,,,,,,,,,,,,,idea,38,10,sing,red,833.1578465000493,None,None,833.1578465000493,None,,,,,,,,,,,,,,,,,,,,,,,,,,,,,,90YF,001,2023_Aug_31_1319,ExactRep-v3-final,2021.2.3,60.092686980583565,
,,,,,,,,10,0,10,0,,,,,,,,,,,,,,,,,,,,,,,,,,,,,,,,,,,,,,,,,,,,,,,,,,,,,837.6630260000238,None,,,,,,,,,,,,,,,,,,,,,,,,,,,,,,,,,,,amount,79,11,sing,red,835.6614659000188,None,None,835.6614659000188,None,,,,,,,,,,,,,,,,,,,,,,,,,,,,,,90YF,001,2023_Aug_31_1319,ExactRep-v3-final,2021.2.3,60.092686980583565,
,,,,,,,,11,0,11,0,,,,,,,,,,,,,,,,,,,,,,,,,,,,,,,,,,,,,,,,,,,,,,,,,,,,,840.1652574000182,None,,,,,,,,,,,,,,,,,,,,,,,,,,,,,,,,,,,crime,50,12,silent,blue,838.1656318000751,None,None,838.1656318000751,None,,,,,,,,,,,,,,,,,,,,,,,,,,,,,,90YF,001,2023_Aug_31_1319,ExactRep-v3-final,2021.2.3,60.092686980583565,
,,,,,,,,12,0,12,0,,,,,,,,,,,,,,,,,,,,,,,,,,,,,,,,,,,,,,,,,,,,,,,,,,,,,842.684143200051,None,,,,,,,,,,,,,,,,,,,,,,,,,,,,,,,,,,,justice,19,13,sing,red,840.6739992999937,None,None,840.6739992999937,None,,,,,,,,,,,,,,,,,,,,,,,,,,,,,,90YF,001,2023_Aug_31_1319,ExactRep-v3-final,2021.2.3,60.092686980583565,
,,,,,,,,13,0,13,0,,,,,,,,,,,,,,,,,,,,,,,,,,,,,,,,,,,,,,,,,,,,,,,,,,,,,845.1866655000485,None,,,,,,,,,,,,,,,,,,,,,,,,,,,,,,,,,,,meat,12,14,sing,red,843.1845159999793,None,None,843.1845159999793,None,,,,,,,,,,,,,,,,,,,,,,,,,,,,,,90YF,001,2023_Aug_31_1319,ExactRep-v3-final,2021.2.3,60.092686980583565,
,,,,,,,,14,0,14,0,,,,,,,,,,,,,,,,,,,,,,,,,,,,,,,,,,,,,,,,,,,,,,,,,,,,,847.706001500017,None,,,,,,,,,,,,,,,,,,,,,,,,,,,,,,,,,,,moment,72,15,silent,blue,845.6926512999926,None,None,845.6926512999926,None,,,,,,,,,,,,,,,,,,,,,,,,,,,,,,90YF,001,2023_Aug_31_1319,ExactRep-v3-final,2021.2.3,60.092686980583565,
,,,,,,,,15,0,15,0,,,,,,,,,,,,,,,,,,,,,,,,,,,,,,,,,,,,,,,,,,,,,,,,,,,,,850.2082582000876,None,,,,,,,,,,,,,,,,,,,,,,,,,,,,,,,,,,,bar,80,16,aloud,white,848.2062109999824,None,None,848.2062109999824,None,,,,,,,,,,,,,,,,,,,,,,,,,,,,,,90YF,001,2023_Aug_31_1319,ExactRep-v3-final,2021.2.3,60.092686980583565,
,,,,,,,,16,0,16,0,,,,,,,,,,,,,,,,,,,,,,,,,,,,,,,,,,,,,,,,,,,,,,,,,,,,,852.7107280000346,None,,,,,,,,,,,,,,,,,,,,,,,,,,,,,,,,,,,ability,9,17,sing,red,850.709357200074,None,None,850.709357200074,None,,,,,,,,,,,,,,,,,,,,,,,,,,,,,,90YF,001,2023_Aug_31_1319,ExactRep-v3-final,2021.2.3,60.092686980583565,
,,,,,,,,17,0,17,0,,,,,,,,,,,,,,,,,,,,,,,,,,,,,,,,,,,,,,,,,,,,,,,,,,,,,855.2137635999825,None,,,,,,,,,,,,,,,,,,,,,,,,,,,,,,,,,,,bowl,89,18,aloud,white,853.2113491999917,None,None,853.2113491999917,None,,,,,,,,,,,,,,,,,,,,,,,,,,,,,,90YF,001,2023_Aug_31_1319,ExactRep-v3-final,2021.2.3,60.092686980583565,
,,,,,,,,18,0,18,0,,,,,,,,,,,,,,,,,,,,,,,,,,,,,,,,,,,,,,,,,,,,,,,,,,,,,857.715709400014,None,,,,,,,,,,,,,,,,,,,,,,,,,,,,,,,,,,,forest,26,19,sing,red,855.7151627000421,None,None,855.7151627000421,None,,,,,,,,,,,,,,,,,,,,,,,,,,,,,,90YF,001,2023_Aug_31_1319,ExactRep-v3-final,2021.2.3,60.092686980583565,
,,,,,,,,19,0,19,0,,,,,,,,,,,,,,,,,,,,,,,,,,,,,,,,,,,,,,,,,,,,,,,,,,,,,860.218346000067,None,,,,,,,,,,,,,,,,,,,,,,,,,,,,,,,,,,,weapon,6,20,sing,red,858.2168707000092,None,None,858.2168707000092,None,,,,,,,,,,,,,,,,,,,,,,,,,,,,,,90YF,001,2023_Aug_31_1319,ExactRep-v3-final,2021.2.3,60.092686980583565,
,,,,,,,,20,0,20,0,,,,,,,,,,,,,,,,,,,,,,,,,,,,,,,,,,,,,,,,,,,,,,,,,,,,,862.7213506000116,None,,,,,,,,,,,,,,,,,,,,,,,,,,,,,,,,,,,honour,71,21,silent,blue,860.7206044000341,None,None,860.7206044000341,None,,,,,,,,,,,,,,,,,,,,,,,,,,,,,,90YF,001,2023_Aug_31_1319,ExactRep-v3-final,2021.2.3,60.092686980583565,
,,,,,,,,21,0,21,0,,,,,,,,,,,,,,,,,,,,,,,,,,,,,,,,,,,,,,,,,,,,,,,,,,,,,865.2404604000039,None,,,,,,,,,,,,,,,,,,,,,,,,,,,,,,,,,,,dream,53,22,silent,blue,863.2253054000903,None,None,863.2253054000903,None,,,,,,,,,,,,,,,,,,,,,,,,,,,,,,90YF,001,2023_Aug_31_1319,ExactRep-v3-final,2021.2.3,60.092686980583565,
,,,,,,,,22,0,22,0,,,,,,,,,,,,,,,,,,,,,,,,,,,,,,,,,,,,,,,,,,,,,,,,,,,,,867.742423000047,None,,,,,,,,,,,,,,,,,,,,,,,,,,,,,,,,,,,wife,64,23,silent,blue,865.7405674000038,None,None,865.7405674000038,None,,,,,,,,,,,,,,,,,,,,,,,,,,,,,,90YF,001,2023_Aug_31_1319,ExactRep-v3-final,2021.2.3,60.092686980583565,
,,,,,,,,23,0,23,0,,,,,,,,,,,,,,,,,,,,,,,,,,,,,,,,,,,,,,,,,,,,,,,,,,,,,870.2619729000144,None,,,,,,,,,,,,,,,,,,,,,,,,,,,,,,,,,,,mind,107,24,aloud,white,868.2468916000798,None,None,868.2468916000798,None,,,,,,,,,,,,,,,,,,,,,,,,,,,,,,90YF,001,2023_Aug_31_1319,ExactRep-v3-final,2021.2.3,60.092686980583565,
,,,,,,,,24,0,24,0,,,,,,,,,,,,,,,,,,,,,,,,,,,,,,,,,,,,,,,,,,,,,,,,,,,,,872.7809958000435,None,,,,,,,,,,,,,,,,,,,,,,,,,,,,,,,,,,,village,2,25,sing,red,870.7663159000222,None,None,870.7663159000222,None,,,,,,,,,,,,,,,,,,,,,,,,,,,,,,90YF,001,2023_Aug_31_1319,ExactRep-v3-final,2021.2.3,60.092686980583565,
,,,,,,,,25,0,25,0,,,,,,,,,,,,,,,,,,,,,,,,,,,,,,,,,,,,,,,,,,,,,,,,,,,,,875.2834462000756,None,,,,,,,,,,,,,,,,,,,,,,,,,,,,,,,,,,,science,43,26,silent,blue,873.2812632999849,None,None,873.2812632999849,None,,,,,,,,,,,,,,,,,,,,,,,,,,,,,,90YF,001,2023_Aug_31_1319,ExactRep-v3-final,2021.2.3,60.092686980583565,
,,,,,,,,26,0,26,0,,,,,,,,,,,,,,,,,,,,,,,,,,,,,,,,,,,,,,,,,,,,,,,,,,,,,877.7858714000322,None,,,,,,,,,,,,,,,,,,,,,,,,,,,,,,,,,,,pole,27,27,sing,red,875.7842129000928,None,None,875.7842129000928,None,,,,,,,,,,,,,,,,,,,,,,,,,,,,,,90YF,001,2023_Aug_31_1319,ExactRep-v3-final,2021.2.3,60.092686980583565,
,,,,,,,,27,0,27,0,,,,,,,,,,,,,,,,,,,,,,,,,,,,,,,,,,,,,,,,,,,,,,,,,,,,,880.2886607000837,None,,,,,,,,,,,,,,,,,,,,,,,,,,,,,,,,,,,army,61,28,silent,blue,878.2865112000145,None,None,878.2865112000145,None,,,,,,,,,,,,,,,,,,,,,,,,,,,,,,90YF,001,2023_Aug_31_1319,ExactRep-v3-final,2021.2.3,60.092686980583565,
,,,,,,,,28,0,28,0,,,,,,,,,,,,,,,,,,,,,,,,,,,,,,,,,,,,,,,,,,,,,,,,,,,,,882.7911217000801,None,,,,,,,,,,,,,,,,,,,,,,,,,,,,,,,,,,,library,55,29,silent,blue,880.791809800081,None,None,880.791809800081,None,,,,,,,,,,,,,,,,,,,,,,,,,,,,,,90YF,001,2023_Aug_31_1319,ExactRep-v3-final,2021.2.3,60.092686980583565,
,,,,,,,,29,0,29,0,,,,,,,,,,,,,,,,,,,,,,,,,,,,,,,,,,,,,,,,,,,,,,,,,,,,,885.2933154000202,None,,,,,,,,,,,,,,,,,,,,,,,,,,,,,,,,,,,palace,111,30,aloud,white,883.2936227000318,None,None,883.2936227000318,None,,,,,,,,,,,,,,,,,,,,,,,,,,,,,,90YF,001,2023_Aug_31_1319,ExactRep-v3-final,2021.2.3,60.092686980583565,
,,,,,,,,30,0,30,0,,,,,,,,,,,,,,,,,,,,,,,,,,,,,,,,,,,,,,,,,,,,,,,,,,,,,887.7957512000576,None,,,,,,,,,,,,,,,,,,,,,,,,,,,,,,,,,,,plain,39,31,silent,blue,885.7943185000913,None,None,885.7943185000913,None,,,,,,,,,,,,,,,,,,,,,,,,,,,,,,90YF,001,2023_Aug_31_1319,ExactRep-v3-final,2021.2.3,60.092686980583565,
,,,,,,,,31,0,31,0,,,,,,,,,,,,,,,,,,,,,,,,,,,,,,,,,,,,,,,,,,,,,,,,,,,,,890.2987562000053,None,,,,,,,,,,,,,,,,,,,,,,,,,,,,,,,,,,,corn,41,32,silent,blue,888.2964329000097,None,None,888.2964329000097,None,,,,,,,,,,,,,,,,,,,,,,,,,,,,,,90YF,001,2023_Aug_31_1319,ExactRep-v3-final,2021.2.3,60.092686980583565,
,,,,,,,,32,0,32,0,,,,,,,,,,,,,,,,,,,,,,,,,,,,,,,,,,,,,,,,,,,,,,,,,,,,,892.8176291000564,None,,,,,,,,,,,,,,,,,,,,,,,,,,,,,,,,,,,doctor,115,33,aloud,white,890.8076997000026,None,None,890.8076997000026,None,,,,,,,,,,,,,,,,,,,,,,,,,,,,,,90YF,001,2023_Aug_31_1319,ExactRep-v3-final,2021.2.3,60.092686980583565,
,,,,,,,,33,0,33,0,,,,,,,,,,,,,,,,,,,,,,,,,,,,,,,,,,,,,,,,,,,,,,,,,,,,,895.3205918000313,None,,,,,,,,,,,,,,,,,,,,,,,,,,,,,,,,,,,ship,16,34,sing,red,893.3202101000352,None,None,893.3202101000352,None,,,,,,,,,,,,,,,,,,,,,,,,,,,,,,90YF,001,2023_Aug_31_1319,ExactRep-v3-final,2021.2.3,60.092686980583565,
,,,,,,,,34,0,34,0,,,,,,,,,,,,,,,,,,,,,,,,,,,,,,,,,,,,,,,,,,,,,,,,,,,,,897.8395256000804,None,,,,,,,,,,,,,,,,,,,,,,,,,,,,,,,,,,,iron,17,35,sing,red,895.8333215999883,None,None,895.8333215999883,None,,,,,,,,,,,,,,,,,,,,,,,,,,,,,,90YF,001,2023_Aug_31_1319,ExactRep-v3-final,2021.2.3,60.092686980583565,
,,,,,,,,35,0,35,0,,,,,,,,,,,,,,,,,,,,,,,,,,,,,,,,,,,,,,,,,,,,,,,,,,,,,900.3415767999832,None,,,,,,,,,,,,,,,,,,,,,,,,,,,,,,,,,,,butter,98,36,aloud,white,898.341832300066,None,None,898.341832300066,None,,,,,,,,,,,,,,,,,,,,,,,,,,,,,,90YF,001,2023_Aug_31_1319,ExactRep-v3-final,2021.2.3,60.092686980583565,
,,,,,,,,36,0,36,0,,,,,,,,,,,,,,,,,,,,,,,,,,,,,,,,,,,,,,,,,,,,,,,,,,,,,902.8444548000116,None,,,,,,,,,,,,,,,,,,,,,,,,,,,,,,,,,,,shore,99,37,aloud,white,900.8428206000244,None,None,900.8428206000244,None,,,,,,,,,,,,,,,,,,,,,,,,,,,,,,90YF,001,2023_Aug_31_1319,ExactRep-v3-final,2021.2.3,60.092686980583565,
,,,,,,,,37,0,37,0,,,,,,,,,,,,,,,,,,,,,,,,,,,,,,,,,,,,,,,,,,,,,,,,,,,,,905.3634276000084,None,,,,,,,,,,,,,,,,,,,,,,,,,,,,,,,,,,,plant,62,38,silent,blue,903.3485577000538,None,None,903.3485577000538,None,,,,,,,,,,,,,,,,,,,,,,,,,,,,,,90YF,001,2023_Aug_31_1319,ExactRep-v3-final,2021.2.3,60.092686980583565,
,,,,,,,,38,0,38,0,,,,,,,,,,,,,,,,,,,,,,,,,,,,,,,,,,,,,,,,,,,,,,,,,,,,,907.8662116000196,None,,,,,,,,,,,,,,,,,,,,,,,,,,,,,,,,,,,product,33,39,sing,red,905.8641137999948,None,None,905.8641137999948,None,,,,,,,,,,,,,,,,,,,,,,,,,,,,,,90YF,001,2023_Aug_31_1319,ExactRep-v3-final,2021.2.3,60.092686980583565,
,,,,,,,,39,0,39,0,,,,,,,,,,,,,,,,,,,,,,,,,,,,,,,,,,,,,,,,,,,,,,,,,,,,,910.3874018000206,None,,,,,,,,,,,,,,,,,,,,,,,,,,,,,,,,,,,dress,66,40,silent,blue,908.3708608000306,None,None,908.3708608000306,None,,,,,,,,,,,,,,,,,,,,,,,,,,,,,,90YF,001,2023_Aug_31_1319,ExactRep-v3-final,2021.2.3,60.092686980583565,
,,,,,,,,40,0,40,0,,,,,,,,,,,,,,,,,,,,,,,,,,,,,,,,,,,,,,,,,,,,,,,,,,,,,912.8878081000876,None,,,,,,,,,,,,,,,,,,,,,,,,,,,,,,,,,,,grief,34,41,sing,red,910.8874913000036,None,None,910.8874913000036,None,,,,,,,,,,,,,,,,,,,,,,,,,,,,,,90YF,001,2023_Aug_31_1319,ExactRep-v3-final,2021.2.3,60.092686980583565,
,,,,,,,,41,0,41,0,,,,,,,,,,,,,,,,,,,,,,,,,,,,,,,,,,,,,,,,,,,,,,,,,,,,,915.3900891999947,None,,,,,,,,,,,,,,,,,,,,,,,,,,,,,,,,,,,disease,32,42,sing,red,913.390439699986,None,None,913.390439699986,None,,,,,,,,,,,,,,,,,,,,,,,,,,,,,,90YF,001,2023_Aug_31_1319,ExactRep-v3-final,2021.2.3,60.092686980583565,
,,,,,,,,42,0,42,0,,,,,,,,,,,,,,,,,,,,,,,,,,,,,,,,,,,,,,,,,,,,,,,,,,,,,917.8926009000279,None,,,,,,,,,,,,,,,,,,,,,,,,,,,,,,,,,,,lad,106,43,aloud,white,915.891268300009,None,None,915.891268300009,None,,,,,,,,,,,,,,,,,,,,,,,,,,,,,,90YF,001,2023_Aug_31_1319,ExactRep-v3-final,2021.2.3,60.092686980583565,
,,,,,,,,43,0,43,0,,,,,,,,,,,,,,,,,,,,,,,,,,,,,,,,,,,,,,,,,,,,,,,,,,,,,920.394948799978,None,,,,,,,,,,,,,,,,,,,,,,,,,,,,,,,,,,,valley,85,44,aloud,white,918.3938831000123,None,None,918.3938831000123,None,,,,,,,,,,,,,,,,,,,,,,,,,,,,,,90YF,001,2023_Aug_31_1319,ExactRep-v3-final,2021.2.3,60.092686980583565,
,,,,,,,,44,0,44,0,,,,,,,,,,,,,,,,,,,,,,,,,,,,,,,,,,,,,,,,,,,,,,,,,,,,,922.8977333999937,None,,,,,,,,,,,,,,,,,,,,,,,,,,,,,,,,,,,prison,88,45,aloud,white,920.8963090000907,None,None,920.8963090000907,None,,,,,,,,,,,,,,,,,,,,,,,,,,,,,,90YF,001,2023_Aug_31_1319,ExactRep-v3-final,2021.2.3,60.092686980583565,
,,,,,,,,45,0,45,0,,,,,,,,,,,,,,,,,,,,,,,,,,,,,,,,,,,,,,,,,,,,,,,,,,,,,925.4004046000773,None,,,,,,,,,,,,,,,,,,,,,,,,,,,,,,,,,,,cattle,68,46,silent,blue,923.4002972000744,None,None,923.4002972000744,None,,,,,,,,,,,,,,,,,,,,,,,,,,,,,,90YF,001,2023_Aug_31_1319,ExactRep-v3-final,2021.2.3,60.092686980583565,
,,,,,,,,46,0,46,0,,,,,,,,,,,,,,,,,,,,,,,,,,,,,,,,,,,,,,,,,,,,,,,,,,,,,927.9036005000817,None,,,,,,,,,,,,,,,,,,,,,,,,,,,,,,,,,,,home,30,47,sing,red,925.9033658000408,None,None,925.9033658000408,None,,,,,,,,,,,,,,,,,,,,,,,,,,,,,,90YF,001,2023_Aug_31_1319,ExactRep-v3-final,2021.2.3,60.092686980583565,
,,,,,,,,47,0,47,0,,,,,,,,,,,,,,,,,,,,,,,,,,,,,,,,,,,,,,,,,,,,,,,,,,,,,930.4220868999837,None,,,,,,,,,,,,,,,,,,,,,,,,,,,,,,,,,,,life,14,48,sing,red,928.4091041000793,None,None,928.4091041000793,None,,,,,,,,,,,,,,,,,,,,,,,,,,,,,,90YF,001,2023_Aug_31_1319,ExactRep-v3-final,2021.2.3,60.092686980583565,
,,,,,,,,48,0,48,0,,,,,,,,,,,,,,,,,,,,,,,,,,,,,,,,,,,,,,,,,,,,,,,,,,,,,932.9243099000305,None,,,,,,,,,,,,,,,,,,,,,,,,,,,,,,,,,,,charm,44,49,silent,blue,930.9238815000281,None,None,930.9238815000281,None,,,,,,,,,,,,,,,,,,,,,,,,,,,,,,90YF,001,2023_Aug_31_1319,ExactRep-v3-final,2021.2.3,60.092686980583565,
,,,,,,,,49,0,49,0,,,,,,,,,,,,,,,,,,,,,,,,,,,,,,,,,,,,,,,,,,,,,,,,,,,,,935.4436135999858,None,,,,,,,,,,,,,,,,,,,,,,,,,,,,,,,,,,,water,75,50,silent,blue,933.4385493000736,None,None,933.4385493000736,None,,,,,,,,,,,,,,,,,,,,,,,,,,,,,,90YF,001,2023_Aug_31_1319,ExactRep-v3-final,2021.2.3,60.092686980583565,
,,,,,,,,50,0,50,0,,,,,,,,,,,,,,,,,,,,,,,,,,,,,,,,,,,,,,,,,,,,,,,,,,,,,937.9628190000076,None,,,,,,,,,,,,,,,,,,,,,,,,,,,,,,,,,,,lake,8,51,sing,red,935.9487950000912,None,None,935.9487950000912,None,,,,,,,,,,,,,,,,,,,,,,,,,,,,,,90YF,001,2023_Aug_31_1319,ExactRep-v3-final,2021.2.3,60.092686980583565,
,,,,,,,,51,0,51,0,,,,,,,,,,,,,,,,,,,,,,,,,,,,,,,,,,,,,,,,,,,,,,,,,,,,,940.4652289000805,None,,,,,,,,,,,,,,,,,,,,,,,,,,,,,,,,,,,fate,104,52,aloud,white,938.4642671000911,None,None,938.4642671000911,None,,,,,,,,,,,,,,,,,,,,,,,,,,,,,,90YF,001,2023_Aug_31_1319,ExactRep-v3-final,2021.2.3,60.092686980583565,
,,,,,,,,52,0,52,0,,,,,,,,,,,,,,,,,,,,,,,,,,,,,,,,,,,,,,,,,,,,,,,,,,,,,942.9845995000796,None,,,,,,,,,,,,,,,,,,,,,,,,,,,,,,,,,,,cat,5,53,sing,red,940.9775372000877,None,None,940.9775372000877,None,,,,,,,,,,,,,,,,,,,,,,,,,,,,,,90YF,001,2023_Aug_31_1319,ExactRep-v3-final,2021.2.3,60.092686980583565,
,,,,,,,,53,0,53,0,,,,,,,,,,,,,,,,,,,,,,,,,,,,,,,,,,,,,,,,,,,,,,,,,,,,,945.487274800078,None,,,,,,,,,,,,,,,,,,,,,,,,,,,,,,,,,,,house,40,54,silent,blue,943.4876152999932,None,None,943.4876152999932,None,,,,,,,,,,,,,,,,,,,,,,,,,,,,,,90YF,001,2023_Aug_31_1319,ExactRep-v3-final,2021.2.3,60.092686980583565,
,,,,,,,,54,0,54,0,,,,,,,,,,,,,,,,,,,,,,,,,,,,,,,,,,,,,,,,,,,,,,,,,,,,,948.0062012000708,None,,,,,,,,,,,,,,,,,,,,,,,,,,,,,,,,,,,factory,11,55,sing,red,945.991473000031,None,None,945.991473000031,None,,,,,,,,,,,,,,,,,,,,,,,,,,,,,,90YF,001,2023_Aug_31_1319,ExactRep-v3-final,2021.2.3,60.092686980583565,
,,,,,,,,55,0,55,0,,,,,,,,,,,,,,,,,,,,,,,,,,,,,,,,,,,,,,,,,,,,,,,,,,,,,950.5085190000245,None,,,,,,,,,,,,,,,,,,,,,,,,,,,,,,,,,,,insect,42,56,silent,blue,948.5070083000464,None,None,948.5070083000464,None,,,,,,,,,,,,,,,,,,,,,,,,,,,,,,90YF,001,2023_Aug_31_1319,ExactRep-v3-final,2021.2.3,60.092686980583565,
,,,,,,,,56,0,56,0,,,,,,,,,,,,,,,,,,,,,,,,,,,,,,,,,,,,,,,,,,,,,,,,,,,,,953.0277052000165,None,,,,,,,,,,,,,,,,,,,,,,,,,,,,,,,,,,,officer,114,57,aloud,white,951.0128704999806,None,None,951.0128704999806,None,,,,,,,,,,,,,,,,,,,,,,,,,,,,,,90YF,001,2023_Aug_31_1319,ExactRep-v3-final,2021.2.3,60.092686980583565,
,,,,,,,,57,0,57,0,,,,,,,,,,,,,,,,,,,,,,,,,,,,,,,,,,,,,,,,,,,,,,,,,,,,,955.5301092000445,None,,,,,,,,,,,,,,,,,,,,,,,,,,,,,,,,,,,rod,69,58,silent,blue,953.528794700047,None,None,953.528794700047,None,,,,,,,,,,,,,,,,,,,,,,,,,,,,,,90YF,001,2023_Aug_31_1319,ExactRep-v3-final,2021.2.3,60.092686980583565,
,,,,,,,,58,0,58,0,,,,,,,,,,,,,,,,,,,,,,,,,,,,,,,,,,,,,,,,,,,,,,,,,,,,,958.0492163000163,None,,,,,,,,,,,,,,,,,,,,,,,,,,,,,,,,,,,book,92,59,aloud,white,956.0448037000606,None,None,956.0448037000606,None,,,,,,,,,,,,,,,,,,,,,,,,,,,,,,90YF,001,2023_Aug_31_1319,ExactRep-v3-final,2021.2.3,60.092686980583565,
,,,,,,,,59,0,59,0,,,,,,,,,,,,,,,,,,,,,,,,,,,,,,,,,,,,,,,,,,,,,,,,,,,,,960.5515853000106,None,,,,,,,,,,,,,,,,,,,,,,,,,,,,,,,,,,,vision,105,60,aloud,white,958.5500081999926,None,None,958.5500081999926,None,,,,,,,,,,,,,,,,,,,,,,,,,,,,,,90YF,001,2023_Aug_31_1319,ExactRep-v3-final,2021.2.3,60.092686980583565,
,,,,,,,,60,0,60,0,,,,,,,,,,,,,,,,,,,,,,,,,,,,,,,,,,,,,,,,,,,,,,,,,,,,,963.0544038000517,None,,,,,,,,,,,,,,,,,,,,,,,,,,,,,,,,,,,author,59,61,silent,blue,961.0530867000343,None,None,961.0530867000343,None,,,,,,,,,,,,,,,,,,,,,,,,,,,,,,90YF,001,2023_Aug_31_1319,ExactRep-v3-final,2021.2.3,60.092686980583565,
,,,,,,,,61,0,61,0,,,,,,,,,,,,,,,,,,,,,,,,,,,,,,,,,,,,,,,,,,,,,,,,,,,,,965.5571514000185,None,,,,,,,,,,,,,,,,,,,,,,,,,,,,,,,,,,,flag,117,62,aloud,white,963.5545942999888,None,None,963.5545942999888,None,,,,,,,,,,,,,,,,,,,,,,,,,,,,,,90YF,001,2023_Aug_31_1319,ExactRep-v3-final,2021.2.3,60.092686980583565,
,,,,,,,,62,0,62,0,,,,,,,,,,,,,,,,,,,,,,,,,,,,,,,,,,,,,,,,,,,,,,,,,,,,,968.0760412000818,None,,,,,,,,,,,,,,,,,,,,,,,,,,,,,,,,,,,fur,109,63,aloud,white,966.0691896000644,None,None,966.0691896000644,None,,,,,,,,,,,,,,,,,,,,,,,,,,,,,,90YF,001,2023_Aug_31_1319,ExactRep-v3-final,2021.2.3,60.092686980583565,
,,,,,,,,63,0,63,0,,,,,,,,,,,,,,,,,,,,,,,,,,,,,,,,,,,,,,,,,,,,,,,,,,,,,970.5785539000062,None,,,,,,,,,,,,,,,,,,,,,,,,,,,,,,,,,,,blood,97,64,aloud,white,968.5767504000105,None,None,968.5767504000105,None,,,,,,,,,,,,,,,,,,,,,,,,,,,,,,90YF,001,2023_Aug_31_1319,ExactRep-v3-final,2021.2.3,60.092686980583565,
,,,,,,,,64,0,64,0,,,,,,,,,,,,,,,,,,,,,,,,,,,,,,,,,,,,,,,,,,,,,,,,,,,,,973.0983915000688,None,,,,,,,,,,,,,,,,,,,,,,,,,,,,,,,,,,,virtue,36,65,sing,red,971.0920003000647,None,None,971.0920003000647,None,,,,,,,,,,,,,,,,,,,,,,,,,,,,,,90YF,001,2023_Aug_31_1319,ExactRep-v3-final,2021.2.3,60.092686980583565,
,,,,,,,,65,0,65,0,,,,,,,,,,,,,,,,,,,,,,,,,,,,,,,,,,,,,,,,,,,,,,,,,,,,,975.6001840999816,None,,,,,,,,,,,,,,,,,,,,,,,,,,,,,,,,,,,master,78,66,silent,blue,973.5987163999816,None,None,973.5987163999816,None,,,,,,,,,,,,,,,,,,,,,,,,,,,,,,90YF,001,2023_Aug_31_1319,ExactRep-v3-final,2021.2.3,60.092686980583565,
,,,,,,,,66,0,66,0,,,,,,,,,,,,,,,,,,,,,,,,,,,,,,,,,,,,,,,,,,,,,,,,,,,,,978.1026279000798,None,,,,,,,,,,,,,,,,,,,,,,,,,,,,,,,,,,,paper,96,67,aloud,white,976.1011754000792,None,None,976.1011754000792,None,,,,,,,,,,,,,,,,,,,,,,,,,,,,,,90YF,001,2023_Aug_31_1319,ExactRep-v3-final,2021.2.3,60.092686980583565,
,,,,,,,,67,0,67,0,,,,,,,,,,,,,,,,,,,,,,,,,,,,,,,,,,,,,,,,,,,,,,,,,,,,,980.6222321999958,None,,,,,,,,,,,,,,,,,,,,,,,,,,,,,,,,,,,toy,87,68,aloud,white,978.6070503999945,None,None,978.6070503999945,None,,,,,,,,,,,,,,,,,,,,,,,,,,,,,,90YF,001,2023_Aug_31_1319,ExactRep-v3-final,2021.2.3,60.092686980583565,
,,,,,,,,68,0,68,0,,,,,,,,,,,,,,,,,,,,,,,,,,,,,,,,,,,,,,,,,,,,,,,,,,,,,983.1243798000505,None,,,,,,,,,,,,,,,,,,,,,,,,,,,,,,,,,,,person,70,69,silent,blue,981.1224198000273,None,None,981.1224198000273,None,,,,,,,,,,,,,,,,,,,,,,,,,,,,,,90YF,001,2023_Aug_31_1319,ExactRep-v3-final,2021.2.3,60.092686980583565,
,,,,,,,,69,0,69,0,,,,,,,,,,,,,,,,,,,,,,,,,,,,,,,,,,,,,,,,,,,,,,,,,,,,,985.6437823000597,None,,,,,,,,,,,,,,,,,,,,,,,,,,,,,,,,,,,memory,116,70,aloud,white,983.6294458000921,None,None,983.6294458000921,None,,,,,,,,,,,,,,,,,,,,,,,,,,,,,,90YF,001,2023_Aug_31_1319,ExactRep-v3-final,2021.2.3,60.092686980583565,
,,,,,,,,70,0,70,0,,,,,,,,,,,,,,,,,,,,,,,,,,,,,,,,,,,,,,,,,,,,,,,,,,,,,988.1463059000671,None,,,,,,,,,,,,,,,,,,,,,,,,,,,,,,,,,,,diamond,37,71,sing,red,986.1459159000078,None,None,986.1459159000078,None,,,,,,,,,,,,,,,,,,,,,,,,,,,,,,90YF,001,2023_Aug_31_1319,ExactRep-v3-final,2021.2.3,60.092686980583565,
,,,,,,,,71,0,71,0,,,,,,,,,,,,,,,,,,,,,,,,,,,,,,,,,,,,,,,,,,,,,,,,,,,,,990.6484844000079,None,,,,,,,,,,,,,,,,,,,,,,,,,,,,,,,,,,,law,47,72,silent,blue,988.6491245999932,None,None,988.6491245999932,None,,,,,,,,,,,,,,,,,,,,,,,,,,,,,,90YF,001,2023_Aug_31_1319,ExactRep-v3-final,2021.2.3,60.092686980583565,
,,,,,,,,72,0,72,0,,,,,,,,,,,,,,,,,,,,,,,,,,,,,,,,,,,,,,,,,,,,,,,,,,,,,993.1679874000838,None,,,,,,,,,,,,,,,,,,,,,,,,,,,,,,,,,,,sky,24,73,sing,red,991.1535335000372,None,None,991.1535335000372,None,,,,,,,,,,,,,,,,,,,,,,,,,,,,,,90YF,001,2023_Aug_31_1319,ExactRep-v3-final,2021.2.3,60.092686980583565,
,,,,,,,,73,0,73,0,,,,,,,,,,,,,,,,,,,,,,,,,,,,,,,,,,,,,,,,,,,,,,,,,,,,,995.6703773000045,None,,,,,,,,,,,,,,,,,,,,,,,,,,,,,,,,,,,cost,31,74,sing,red,993.6688640000066,None,None,993.6688640000066,None,,,,,,,,,,,,,,,,,,,,,,,,,,,,,,90YF,001,2023_Aug_31_1319,ExactRep-v3-final,2021.2.3,60.092686980583565,
,,,,,,,,74,0,74,0,,,,,,,,,,,,,,,,,,,,,,,,,,,,,,,,,,,,,,,,,,,,,,,,,,,,,998.1729641000275,None,,,,,,,,,,,,,,,,,,,,,,,,,,,,,,,,,,,street,76,75,silent,blue,996.1730674999999,None,None,996.1730674999999,None,,,,,,,,,,,,,,,,,,,,,,,,,,,,,,90YF,001,2023_Aug_31_1319,ExactRep-v3-final,2021.2.3,60.092686980583565,
,,,,,,,,75,0,75,0,,,,,,,,,,,,,,,,,,,,,,,,,,,,,,,,,,,,,,,,,,,,,,,,,,,,,1000.6924341000849,None,,,,,,,,,,,,,,,,,,,,,,,,,,,,,,,,,,,lord,74,76,silent,blue,998.6849507000297,None,None,998.6849507000297,None,,,,,,,,,,,,,,,,,,,,,,,,,,,,,,90YF,001,2023_Aug_31_1319,ExactRep-v3-final,2021.2.3,60.092686980583565,
,,,,,,,,76,0,76,0,,,,,,,,,,,,,,,,,,,,,,,,,,,,,,,,,,,,,,,,,,,,,,,,,,,,,1003.2115956000052,None,,,,,,,,,,,,,,,,,,,,,,,,,,,,,,,,,,,chance,46,77,silent,blue,1001.2077972000698,None,None,1001.2077972000698,None,,,,,,,,,,,,,,,,,,,,,,,,,,,,,,90YF,001,2023_Aug_31_1319,ExactRep-v3-final,2021.2.3,60.092686980583565,
,,,,,,,,77,0,77,0,,,,,,,,,,,,,,,,,,,,,,,,,,,,,,,,,,,,,,,,,,,,,,,,,,,,,1005.7137426000554,None,,,,,,,,,,,,,,,,,,,,,,,,,,,,,,,,,,,church,54,78,silent,blue,1003.7125267999945,None,None,1003.7125267999945,None,,,,,,,,,,,,,,,,,,,,,,,,,,,,,,90YF,001,2023_Aug_31_1319,ExactRep-v3-final,2021.2.3,60.092686980583565,
,,,,,,,,78,0,78,0,,,,,,,,,,,,,,,,,,,,,,,,,,,,,,,,,,,,,,,,,,,,,,,,,,,,,1008.2330848000711,None,,,,,,,,,,,,,,,,,,,,,,,,,,,,,,,,,,,quality,94,79,aloud,white,1006.2248171999818,None,None,1006.2248171999818,None,,,,,,,,,,,,,,,,,,,,,,,,,,,,,,90YF,001,2023_Aug_31_1319,ExactRep-v3-final,2021.2.3,60.092686980583565,
,,,,,,,,79,0,79,0,,,,,,,,,,,,,,,,,,,,,,,,,,,,,,,,,,,,,,,,,,,,,,,,,,,,,1010.7352197000291,None,,,,,,,,,,,,,,,,,,,,,,,,,,,,,,,,,,,soil,57,80,silent,blue,1008.7332392000826,None,None,1008.7332392000826,None,,,,,,,,,,,,,,,,,,,,,,,,,,,,,,90YF,001,2023_Aug_31_1319,ExactRep-v3-final,2021.2.3,60.092686980583565,
,,,,,,,,80,0,80,0,,,,,,,,,,,,,,,,,,,,,,,,,,,,,,,,,,,,,,,,,,,,,,,,,,,,,1013.2549207999837,None,,,,,,,,,,,,,,,,,,,,,,,,,,,,,,,,,,,hall,13,81,sing,red,1011.2396451000823,None,None,1011.2396451000823,None,,,,,,,,,,,,,,,,,,,,,,,,,,,,,,90YF,001,2023_Aug_31_1319,ExactRep-v3-final,2021.2.3,60.092686980583565,
,,,,,,,,81,0,81,0,,,,,,,,,,,,,,,,,,,,,,,,,,,,,,,,,,,,,,,,,,,,,,,,,,,,,1015.7574090000708,None,,,,,,,,,,,,,,,,,,,,,,,,,,,,,,,,,,,sea,22,82,sing,red,1013.756887900061,None,None,1013.756887900061,None,,,,,,,,,,,,,,,,,,,,,,,,,,,,,,90YF,001,2023_Aug_31_1319,ExactRep-v3-final,2021.2.3,60.092686980583565,
,,,,,,,,82,0,82,0,,,,,,,,,,,,,,,,,,,,,,,,,,,,,,,,,,,,,,,,,,,,,,,,,,,,,1018.2760540000163,None,,,,,,,,,,,,,,,,,,,,,,,,,,,,,,,,,,,winter,45,83,silent,blue,1016.2620192000177,None,None,1016.2620192000177,None,,,,,,,,,,,,,,,,,,,,,,,,,,,,,,90YF,001,2023_Aug_31_1319,ExactRep-v3-final,2021.2.3,60.092686980583565,
,,,,,,,,83,0,83,0,,,,,,,,,,,,,,,,,,,,,,,,,,,,,,,,,,,,,,,,,,,,,,,,,,,,,1020.7785334000364,None,,,,,,,,,,,,,,,,,,,,,,,,,,,,,,,,,,,prayer,95,84,aloud,white,1018.7765742000192,None,None,1018.7765742000192,None,,,,,,,,,,,,,,,,,,,,,,,,,,,,,,90YF,001,2023_Aug_31_1319,ExactRep-v3-final,2021.2.3,60.092686980583565,
,,,,,,,,84,0,84,0,,,,,,,,,,,,,,,,,,,,,,,,,,,,,,,,,,,,,,,,,,,,,,,,,,,,,1023.281545600039,None,,,,,,,,,,,,,,,,,,,,,,,,,,,,,,,,,,,freedom,86,85,aloud,white,1021.2797792999772,None,None,1021.2797792999772,None,,,,,,,,,,,,,,,,,,,,,,,,,,,,,,90YF,001,2023_Aug_31_1319,ExactRep-v3-final,2021.2.3,60.092686980583565,
,,,,,,,,85,0,85,0,,,,,,,,,,,,,,,,,,,,,,,,,,,,,,,,,,,,,,,,,,,,,,,,,,,,,1025.8003895999864,None,,,,,,,,,,,,,,,,,,,,,,,,,,,,,,,,,,,metal,21,86,sing,red,1023.7854193000821,None,None,1023.7854193000821,None,,,,,,,,,,,,,,,,,,,,,,,,,,,,,,90YF,001,2023_Aug_31_1319,ExactRep-v3-final,2021.2.3,60.092686980583565,
,,,,,,,,86,0,86,0,,,,,,,,,,,,,,,,,,,,,,,,,,,,,,,,,,,,,,,,,,,,,,,,,,,,,1028.3031624000287,None,,,,,,,,,,,,,,,,,,,,,,,,,,,,,,,,,,,origin,81,87,aloud,white,1026.3030890000518,None,None,1026.3030890000518,None,,,,,,,,,,,,,,,,,,,,,,,,,,,,,,90YF,001,2023_Aug_31_1319,ExactRep-v3-final,2021.2.3,60.092686980583565,
,,,,,,,,87,0,87,0,,,,,,,,,,,,,,,,,,,,,,,,,,,,,,,,,,,,,,,,,,,,,,,,,,,,,1030.8222592000384,None,,,,,,,,,,,,,,,,,,,,,,,,,,,,,,,,,,,salary,25,88,sing,red,1028.8071284000762,None,None,1028.8071284000762,None,,,,,,,,,,,,,,,,,,,,,,,,,,,,,,90YF,001,2023_Aug_31_1319,ExactRep-v3-final,2021.2.3,60.092686980583565,
,,,,,,,,88,0,88,0,,,,,,,,,,,,,,,,,,,,,,,,,,,,,,,,,,,,,,,,,,,,,,,,,,,,,1033.3250011000782,None,,,,,,,,,,,,,,,,,,,,,,,,,,,,,,,,,,,steam,118,89,aloud,white,1031.3254421000602,None,None,1031.3254421000602,None,,,,,,,,,,,,,,,,,,,,,,,,,,,,,,90YF,001,2023_Aug_31_1319,ExactRep-v3-final,2021.2.3,60.092686980583565,
,,,,,,,,89,0,89,0,,,,,,,,,,,,,,,,,,,,,,,,,,,,,,,,,,,,,,,,,,,,,,,,,,,,,1035.844042600016,None,,,,,,,,,,,,,,,,,,,,,,,,,,,,,,,,,,,fun,56,90,silent,blue,1033.832311000093,None,None,1033.832311000093,None,,,,,,,,,,,,,,,,,,,,,,,,,,,,,,90YF,001,2023_Aug_31_1319,ExactRep-v3-final,2021.2.3,60.092686980583565,
,,,,,,,,90,0,90,0,,,,,,,,,,,,,,,,,,,,,,,,,,,,,,,,,,,,,,,,,,,,,,,,,,,,,1038.346495200065,None,,,,,,,,,,,,,,,,,,,,,,,,,,,,,,,,,,,college,49,91,silent,blue,1036.344880299992,None,None,1036.344880299992,None,,,,,,,,,,,,,,,,,,,,,,,,,,,,,,90YF,001,2023_Aug_31_1319,ExactRep-v3-final,2021.2.3,60.092686980583565,
,,,,,,,,91,0,91,0,,,,,,,,,,,,,,,,,,,,,,,,,,,,,,,,,,,,,,,,,,,,,,,,,,,,,1040.8489090000512,None,,,,,,,,,,,,,,,,,,,,,,,,,,,,,,,,,,,friend,113,92,aloud,white,1038.8477036000695,None,None,1038.8477036000695,None,,,,,,,,,,,,,,,,,,,,,,,,,,,,,,90YF,001,2023_Aug_31_1319,ExactRep-v3-final,2021.2.3,60.092686980583565,
,,,,,,,,92,0,92,0,,,,,,,,,,,,,,,,,,,,,,,,,,,,,,,,,,,,,,,,,,,,,,,,,,,,,1043.3515372000402,None,,,,,,,,,,,,,,,,,,,,,,,,,,,,,,,,,,,rock,35,93,sing,red,1041.349895899999,None,None,1041.349895899999,None,,,,,,,,,,,,,,,,,,,,,,,,,,,,,,90YF,001,2023_Aug_31_1319,ExactRep-v3-final,2021.2.3,60.092686980583565,
,,,,,,,,93,0,93,0,,,,,,,,,,,,,,,,,,,,,,,,,,,,,,,,,,,,,,,,,,,,,,,,,,,,,1045.870744700078,None,,,,,,,,,,,,,,,,,,,,,,,,,,,,,,,,,,,string,82,94,aloud,white,1043.8552269000793,None,None,1043.8552269000793,None,,,,,,,,,,,,,,,,,,,,,,,,,,,,,,90YF,001,2023_Aug_31_1319,ExactRep-v3-final,2021.2.3,60.092686980583565,
,,,,,,,,94,0,94,0,,,,,,,,,,,,,,,,,,,,,,,,,,,,,,,,,,,,,,,,,,,,,,,,,,,,,1048.3728892999934,None,,,,,,,,,,,,,,,,,,,,,,,,,,,,,,,,,,,skin,83,95,aloud,white,1046.3732480000472,None,None,1046.3732480000472,None,,,,,,,,,,,,,,,,,,,,,,,,,,,,,,90YF,001,2023_Aug_31_1319,ExactRep-v3-final,2021.2.3,60.092686980583565,
,,,,,,,,95,0,95,0,,,,,,,,,,,,,,,,,,,,,,,,,,,,,,,,,,,,,,,,,,,,,,,,,,,,,1050.8921733000316,None,,,,,,,,,,,,,,,,,,,,,,,,,,,,,,,,,,,deed,23,96,sing,red,1048.879863500013,None,None,1048.879863500013,None,,,,,,,,,,,,,,,,,,,,,,,,,,,,,,90YF,001,2023_Aug_31_1319,ExactRep-v3-final,2021.2.3,60.092686980583565,
,,,,,,,,96,0,96,0,,,,,,,,,,,,,,,,,,,,,,,,,,,,,,,,,,,,,,,,,,,,,,,,,,,,,1053.3946544000646,None,,,,,,,,,,,,,,,,,,,,,,,,,,,,,,,,,,,coin,52,97,silent,blue,1051.394894200028,None,None,1051.394894200028,None,,,,,,,,,,,,,,,,,,,,,,,,,,,,,,90YF,001,2023_Aug_31_1319,ExactRep-v3-final,2021.2.3,60.092686980583565,
,,,,,,,,97,0,97,0,,,,,,,,,,,,,,,,,,,,,,,,,,,,,,,,,,,,,,,,,,,,,,,,,,,,,1055.897305099992,None,,,,,,,,,,,,,,,,,,,,,,,,,,,,,,,,,,,event,18,98,sing,red,1053.8970365000423,None,None,1053.8970365000423,None,,,,,,,,,,,,,,,,,,,,,,,,,,,,,,90YF,001,2023_Aug_31_1319,ExactRep-v3-final,2021.2.3,60.092686980583565,
,,,,,,,,98,0,98,0,,,,,,,,,,,,,,,,,,,,,,,,,,,,,,,,,,,,,,,,,,,,,,,,,,,,,1058.4168535000645,None,,,,,,,,,,,,,,,,,,,,,,,,,,,,,,,,,,,excuse,101,99,aloud,white,1056.4035622000229,None,None,1056.4035622000229,None,,,,,,,,,,,,,,,,,,,,,,,,,,,,,,90YF,001,2023_Aug_31_1319,ExactRep-v3-final,2021.2.3,60.092686980583565,
,,,,,,,,99,0,99,0,,,,,,,,,,,,,,,,,,,,,,,,,,,,,,,,,,,,,,,,,,,,,,,,,,,,,1060.9189458000474,None,,,,,,,,,,,,,,,,,,,,,,,,,,,,,,,,,,,ocean,15,100,sing,red,1058.917040899978,None,None,1058.917040899978,None,,,,,,,,,,,,,,,,,,,,,,,,,,,,,,90YF,001,2023_Aug_31_1319,ExactRep-v3-final,2021.2.3,60.092686980583565,
,,,,,,,,100,0,100,0,,,,,,,,,,,,,,,,,,,,,,,,,,,,,,,,,,,,,,,,,,,,,,,,,,,,,1063.4382274000673,None,,,,,,,,,,,,,,,,,,,,,,,,,,,,,,,,,,,shock,103,101,aloud,white,1061.4231955000432,None,None,1061.4231955000432,None,,,,,,,,,,,,,,,,,,,,,,,,,,,,,,90YF,001,2023_Aug_31_1319,ExactRep-v3-final,2021.2.3,60.092686980583565,
,,,,,,,,101,0,101,0,,,,,,,,,,,,,,,,,,,,,,,,,,,,,,,,,,,,,,,,,,,,,,,,,,,,,1065.9404892000603,None,,,,,,,,,,,,,,,,,,,,,,,,,,,,,,,,,,,boulder,65,102,silent,blue,1063.9392402999802,None,None,1063.9392402999802,None,,,,,,,,,,,,,,,,,,,,,,,,,,,,,,90YF,001,2023_Aug_31_1319,ExactRep-v3-final,2021.2.3,60.092686980583565,
,,,,,,,,102,0,102,0,,,,,,,,,,,,,,,,,,,,,,,,,,,,,,,,,,,,,,,,,,,,,,,,,,,,,1068.4598252000287,None,,,,,,,,,,,,,,,,,,,,,,,,,,,,,,,,,,,letter,29,103,sing,red,1066.4452103000367,None,None,1066.4452103000367,None,,,,,,,,,,,,,,,,,,,,,,,,,,,,,,90YF,001,2023_Aug_31_1319,ExactRep-v3-final,2021.2.3,60.092686980583565,
,,,,,,,,103,0,103,0,,,,,,,,,,,,,,,,,,,,,,,,,,,,,,,,,,,,,,,,,,,,,,,,,,,,,1070.962681600009,None,,,,,,,,,,,,,,,,,,,,,,,,,,,,,,,,,,,horse,10,104,sing,red,1068.9601553999819,None,None,1068.9601553999819,None,,,,,,,,,,,,,,,,,,,,,,,,,,,,,,90YF,001,2023_Aug_31_1319,ExactRep-v3-final,2021.2.3,60.092686980583565,
,,,,,,,,104,0,104,0,,,,,,,,,,,,,,,,,,,,,,,,,,,,,,,,,,,,,,,,,,,,,,,,,,,,,1073.4652578000678,None,,,,,,,,,,,,,,,,,,,,,,,,,,,,,,,,,,,king,108,105,aloud,white,1071.4649359000614,None,None,1071.4649359000614,None,,,,,,,,,,,,,,,,,,,,,,,,,,,,,,90YF,001,2023_Aug_31_1319,ExactRep-v3-final,2021.2.3,60.092686980583565,
,,,,,,,,105,0,105,0,,,,,,,,,,,,,,,,,,,,,,,,,,,,,,,,,,,,,,,,,,,,,,,,,,,,,1075.9676597000798,None,,,,,,,,,,,,,,,,,,,,,,,,,,,,,,,,,,,cash,102,106,aloud,white,1073.9674344999949,None,None,1073.9674344999949,None,,,,,,,,,,,,,,,,,,,,,,,,,,,,,,90YF,001,2023_Aug_31_1319,ExactRep-v3-final,2021.2.3,60.092686980583565,
,,,,,,,,106,0,106,0,,,,,,,,,,,,,,,,,,,,,,,,,,,,,,,,,,,,,,,,,,,,,,,,,,,,,1078.4866926000686,None,,,,,,,,,,,,,,,,,,,,,,,,,,,,,,,,,,,silence,58,107,silent,blue,1076.472623800044,None,None,1076.472623800044,None,,,,,,,,,,,,,,,,,,,,,,,,,,,,,,90YF,001,2023_Aug_31_1319,ExactRep-v3-final,2021.2.3,60.092686980583565,
,,,,,,,,107,0,107,0,,,,,,,,,,,,,,,,,,,,,,,,,,,,,,,,,,,,,,,,,,,,,,,,,,,,,1080.9892333000898,None,,,,,,,,,,,,,,,,,,,,,,,,,,,,,,,,,,,teacher,110,108,aloud,white,1078.9870292000705,None,None,1078.9870292000705,None,,,,,,,,,,,,,,,,,,,,,,,,,,,,,,90YF,001,2023_Aug_31_1319,ExactRep-v3-final,2021.2.3,60.092686980583565,
,,,,,,,,108,0,108,0,,,,,,,,,,,,,,,,,,,,,,,,,,,,,,,,,,,,,,,,,,,,,,,,,,,,,1083.5079944999889,None,,,,,,,,,,,,,,,,,,,,,,,,,,,,,,,,,,,chief,7,109,sing,red,1081.4934370000847,None,None,1081.4934370000847,None,,,,,,,,,,,,,,,,,,,,,,,,,,,,,,90YF,001,2023_Aug_31_1319,ExactRep-v3-final,2021.2.3,60.092686980583565,
,,,,,,,,109,0,109,0,,,,,,,,,,,,,,,,,,,,,,,,,,,,,,,,,,,,,,,,,,,,,,,,,,,,,1086.0107082000468,None,,,,,,,,,,,,,,,,,,,,,,,,,,,,,,,,,,,opinion,1,110,sing,red,1084.009293799987,None,None,1084.009293799987,None,,,,,,,,,,,,,,,,,,,,,,,,,,,,,,90YF,001,2023_Aug_31_1319,ExactRep-v3-final,2021.2.3,60.092686980583565,
,,,,,,,,110,0,110,0,,,,,,,,,,,,,,,,,,,,,,,,,,,,,,,,,,,,,,,,,,,,,,,,,,,,,1088.5129987000255,None,,,,,,,,,,,,,,,,,,,,,,,,,,,,,,,,,,,troops,51,111,silent,blue,1086.5124011000153,None,None,1086.5124011000153,None,,,,,,,,,,,,,,,,,,,,,,,,,,,,,,90YF,001,2023_Aug_31_1319,ExactRep-v3-final,2021.2.3,60.092686980583565,
,,,,,,,,111,0,111,0,,,,,,,,,,,,,,,,,,,,,,,,,,,,,,,,,,,,,,,,,,,,,,,,,,,,,1091.0154675000813,None,,,,,,,,,,,,,,,,,,,,,,,,,,,,,,,,,,,humour,0,112,sing,red,1089.0141153000295,None,None,1089.0141153000295,None,,,,,,,,,,,,,,,,,,,,,,,,,,,,,,90YF,001,2023_Aug_31_1319,ExactRep-v3-final,2021.2.3,60.092686980583565,
,,,,,,,,112,0,112,0,,,,,,,,,,,,,,,,,,,,,,,,,,,,,,,,,,,,,,,,,,,,,,,,,,,,,1093.5182113000192,None,,,,,,,,,,,,,,,,,,,,,,,,,,,,,,,,,,,kiss,112,113,aloud,white,1091.5167657000711,None,None,1091.5167657000711,None,,,,,,,,,,,,,,,,,,,,,,,,,,,,,,90YF,001,2023_Aug_31_1319,ExactRep-v3-final,2021.2.3,60.092686980583565,
,,,,,,,,113,0,113,0,,,,,,,,,,,,,,,,,,,,,,,,,,,,,,,,,,,,,,,,,,,,,,,,,,,,,1096.021026500035,None,,,,,,,,,,,,,,,,,,,,,,,,,,,,,,,,,,,temple,90,114,aloud,white,1094.0209407000802,None,None,1094.0209407000802,None,,,,,,,,,,,,,,,,,,,,,,,,,,,,,,90YF,001,2023_Aug_31_1319,ExactRep-v3-final,2021.2.3,60.092686980583565,
,,,,,,,,114,0,114,0,,,,,,,,,,,,,,,,,,,,,,,,,,,,,,,,,,,,,,,,,,,,,,,,,,,,,1098.53981690004,None,,,,,,,,,,,,,,,,,,,,,,,,,,,,,,,,,,,volume,28,115,sing,red,1096.524494400015,None,None,1096.524494400015,None,,,,,,,,,,,,,,,,,,,,,,,,,,,,,,90YF,001,2023_Aug_31_1319,ExactRep-v3-final,2021.2.3,60.092686980583565,
,,,,,,,,115,0,115,0,,,,,,,,,,,,,,,,,,,,,,,,,,,,,,,,,,,,,,,,,,,,,,,,,,,,,1101.042135900003,None,,,,,,,,,,,,,,,,,,,,,,,,,,,,,,,,,,,woman,73,116,silent,blue,1099.0400650000665,None,None,1099.0400650000665,None,,,,,,,,,,,,,,,,,,,,,,,,,,,,,,90YF,001,2023_Aug_31_1319,ExactRep-v3-final,2021.2.3,60.092686980583565,
,,,,,,,,116,0,116,0,,,,,,,,,,,,,,,,,,,,,,,,,,,,,,,,,,,,,,,,,,,,,,,,,,,,,1103.561832300038,None,,,,,,,,,,,,,,,,,,,,,,,,,,,,,,,,,,,heaven,60,117,silent,blue,1101.547484699986,None,None,1101.547484699986,None,,,,,,,,,,,,,,,,,,,,,,,,,,,,,,90YF,001,2023_Aug_31_1319,ExactRep-v3-final,2021.2.3,60.092686980583565,
,,,,,,,,117,0,117,0,,,,,,,,,,,,,,,,,,,,,,,,,,,,,,,,,,,,,,,,,,,,,,,,,,,,,1106.0809562000213,None,,,,,,,,,,,,,,,,,,,,,,,,,,,,,,,,,,,shame,67,118,silent,blue,1104.0731565000024,None,None,1104.0731565000024,None,,,,,,,,,,,,,,,,,,,,,,,,,,,,,,90YF,001,2023_Aug_31_1319,ExactRep-v3-final,2021.2.3,60.092686980583565,
,,,,,,,,118,0,118,0,,,,,,,,,,,,,,,,,,,,,,,,,,,,,,,,,,,,,,,,,,,,,,,,,,,,,1108.6003491000738,None,,,,,,,,,,,,,,,,,,,,,,,,,,,,,,,,,,,wine,48,119,silent,blue,1106.587540299981,None,None,1106.587540299981,None,,,,,,,,,,,,,,,,,,,,,,,,,,,,,,90YF,001,2023_Aug_31_1319,ExactRep-v3-final,2021.2.3,60.092686980583565,
,,,,,,,,119,0,119,0,,,,,,,,,,,,,,,,,,,,,,,,,,,,,,,,,,,,,,,,,,,,,,,,,,,,,1111.102429300081,None,,,,,,,,,,,,,,,,,,,,,,,,,,,,,,,,,,,priest,63,120,silent,blue,1109.1014794000657,None,None,1109.1014794000657,None,,,,,,,,,,,,,,,,,,,,,,,,,,,,,,90YF,001,2023_Aug_31_1319,ExactRep-v3-final,2021.2.3,60.092686980583565,
,,,,,,,,,,,,,,,,,,,,,,,,,,,,,,,,,,,,,,,,,,,,,,,,,,,,,,,,,,,,,,,,,,,,,,,,,,,,,,,,,,,,,,,,,,,,,,,,,,,,,,,,,,,,,,1111.603027000092,None,space,5.603554800036363,1121.579612600035,None,,,,,,,,,,,,,,,,,,,,,,,,90YF,001,2023_Aug_31_1319,ExactRep-v3-final,2021.2.3,60.092686980583565,
,,,,,,,,,,,,,,,,,,,,,,,,,,,,,,,,,,,,,,,,,,,,,,,,,,,,,,,,,,,,,,,,,,,,,,,,,,,,,,,,,,,,,,,,,,,,,,,,,,,,,,,,,,,,,,,,,,,,1127.2036128999898,None,space,25.40377830003854,1137.1795192999998,None,,,,,,,,,,,,,,,,,,90YF,001,2023_Aug_31_1319,ExactRep-v3-final,2021.2.3,60.092686980583565,
,,,,,,,,,,,,0,0,0,0,,,,,,,,,,,,,,,,,,,,,,,,,,,,,,,,,,,,,,,,,,,,,,,,,1168.7451366999885,None,,,,,,,,,,,,,,,,,,,,,,,,,,,,,,,,,,,,,,,,,,,,,,,,,,,,,,,,,advice,3,1,sing,old,red,1163.1166833000025,None,n,1163.1166833000025,None,"['n', 'return']","[3.7460871000075713, 5.586073099984787]",1163.1166833000025,None,,,90YF,001,2023_Aug_31_1319,ExactRep-v3-final,2021.2.3,60.092686980583565,
,,,,,,,,,,,,1,0,1,0,,,,,,,,,,,,,,,,,,,,,,,,,,,,,,,,,,,,,,,,,,,,,,,,,1181.6575579000637,None,,,,,,,,,,,,,,,,,,,,,,,,,,,,,,,,,,,,,,,,,,,,,,,,,,,,,,,,,forest,26,2,sing,old,red,1169.2712978000054,None,y,1169.2712978000054,None,"['y', 'return']","[11.455563300056383, 12.35160639998503]",1169.2712978000054,None,,,90YF,001,2023_Aug_31_1319,ExactRep-v3-final,2021.2.3,60.092686980583565,
,,,,,,,,,,,,2,0,2,0,,,,,,,,,,,,,,,,,,,,,,,,,,,,,,,,,,,,,,,,,,,,,,,,,1184.1590116000734,None,,,,,,,,,,,,,,,,,,,,,,,,,,,,,,,,,,,,,,,,,,,,,,,,,,,,,,,,,ocean,15,3,sing,old,red,1182.1583054000512,None,y,1182.1583054000512,None,"['y', 'return']","[1.4808626000303775, 1.9523878000909463]",1182.1583054000512,None,,,90YF,001,2023_Aug_31_1319,ExactRep-v3-final,2021.2.3,60.092686980583565,
,,,,,,,,,,,,3,0,3,0,,,,,,,,,,,,,,,,,,,,,,,,,,,,,,,,,,,,,,,,,,,,,,,,,1186.128662000061,None,,,,,,,,,,,,,,,,,,,,,,,,,,,,,,,,,,,,,,,,,,,,,,,,,,,,,,,,,quality,94,4,aloud,old,white,1184.6614230000414,None,y,1184.6614230000414,None,"['y', 'return']","[1.105399199994281, 1.425341899972409]",1184.6614230000414,None,,,90YF,001,2023_Aug_31_1319,ExactRep-v3-final,2021.2.3,60.092686980583565,
,,,,,,,,,,,,4,0,4,0,,,,,,,,,,,,,,,,,,,,,,,,,,,,,,,,,,,,,,,,,,,,,,,,,1188.1974731000373,None,,,,,,,,,,,,,,,,,,,,,,,,,,,,,,,,,,,,,,,,,,,,,,,,,,,,,,,,,storm,206,5,aloud,new,white,1186.6388144000666,None,n,1186.6388144000666,None,"['n', 'return']","[1.1359679999295622, 1.511992499930784]",1186.6388144000666,None,,,90YF,001,2023_Aug_31_1319,ExactRep-v3-final,2021.2.3,60.092686980583565,
,,,,,,,,,,,,5,0,5,0,,,,,,,,,,,,,,,,,,,,,,,,,,,,,,,,,,,,,,,,,,,,,,,,,1190.4157318000216,None,,,,,,,,,,,,,,,,,,,,,,,,,,,,,,,,,,,,,,,,,,,,,,,,,,,,,,,,,deed,23,6,sing,old,red,1188.7133767000632,None,y,1188.7133767000632,None,"['y', 'return']","[1.189391800086014, 1.6693854000186548]",1188.7133767000632,None,,,90YF,001,2023_Aug_31_1319,ExactRep-v3-final,2021.2.3,60.092686980583565,
,,,,,,,,,,,,6,0,6,0,,,,,,,,,,,,,,,,,,,,,,,,,,,,,,,,,,,,,,,,,,,,,,,,,1192.5012125000358,None,,,,,,,,,,,,,,,,,,,,,,,,,,,,,,,,,,,,,,,,,,,,,,,,,,,,,,,,,breast,160,7,aloud,new,white,1190.9397148999851,None,n,1190.9397148999851,None,"['n', 'return']","[1.0591235000174493, 1.5150822000578046]",1190.9397148999851,None,,,90YF,001,2023_Aug_31_1319,ExactRep-v3-final,2021.2.3,60.092686980583565,
,,,,,,,,,,,,7,0,7,0,,,,,,,,,,,,,,,,,,,,,,,,,,,,,,,,,,,,,,,,,,,,,,,,,1194.4697238000808,None,,,,,,,,,,,,,,,,,,,,,,,,,,,,,,,,,,,,,,,,,,,,,,,,,,,,,,,,,kiss,112,8,aloud,old,white,1193.010590000078,None,y,1193.010590000078,None,"['y', 'return']","[1.0602194999810308, 1.4121390999061987]",1193.010590000078,None,,,90YF,001,2023_Aug_31_1319,ExactRep-v3-final,2021.2.3,60.092686980583565,
,,,,,,,,,,,,8,0,8,0,,,,,,,,,,,,,,,,,,,,,,,,,,,,,,,,,,,,,,,,,,,,,,,,,1197.0898805999896,None,,,,,,,,,,,,,,,,,,,,,,,,,,,,,,,,,,,,,,,,,,,,,,,,,,,,,,,,,winter,45,9,silent,old,blue,1194.9817711000796,None,y,1194.9817711000796,None,"['y', 'return']","[1.6490106999408454, 2.073066300014034]",1194.9817711000796,None,,,90YF,001,2023_Aug_31_1319,ExactRep-v3-final,2021.2.3,60.092686980583565,
,,,,,,,,,,,,9,0,9,0,,,,,,,,,,,,,,,,,,,,,,,,,,,,,,,,,,,,,,,,,,,,,,,,,1198.890986500075,None,,,,,,,,,,,,,,,,,,,,,,,,,,,,,,,,,,,,,,,,,,,,,,,,,,,,,,,,,victory,156,10,silent,new,blue,1197.5949519000715,None,y,1197.5949519000715,None,"['y', 'return']","[0.9957898000720888, 1.2601677000056952]",1197.5949519000715,None,,,90YF,001,2023_Aug_31_1319,ExactRep-v3-final,2021.2.3,60.092686980583565,
,,,,,,,,,,,,10,0,10,0,,,,,,,,,,,,,,,,,,,,,,,,,,,,,,,,,,,,,,,,,,,,,,,,,1202.0610677000368,None,,,,,,,,,,,,,,,,,,,,,,,,,,,,,,,,,,,,,,,,,,,,,,,,,,,,,,,,,idea,38,11,sing,old,red,1199.392193900072,None,n,1199.392193900072,None,"['n', 'return']","[2.3506385000655428, 2.6306173000484705]",1199.392193900072,None,,,90YF,001,2023_Aug_31_1319,ExactRep-v3-final,2021.2.3,60.092686980583565,
,,,,,,,,,,,,11,0,11,0,,,,,,,,,,,,,,,,,,,,,,,,,,,,,,,,,,,,,,,,,,,,,,,,,1204.7139485999942,None,,,,,,,,,,,,,,,,,,,,,,,,,,,,,,,,,,,,,,,,,,,,,,,,,,,,,,,,,dawn,77,12,silent,old,blue,1202.5667714000447,None,n,1202.5667714000447,None,"['n', 'return']","[1.8239599999506027, 2.1120490999892354]",1202.5667714000447,None,,,90YF,001,2023_Aug_31_1319,ExactRep-v3-final,2021.2.3,60.092686980583565,
,,,,,,,,,,,,12,0,12,0,,,,,,,,,,,,,,,,,,,,,,,,,,,,,,,,,,,,,,,,,,,,,,,,,1206.7493998000864,None,,,,,,,,,,,,,,,,,,,,,,,,,,,,,,,,,,,,,,,,,,,,,,,,,,,,,,,,,chance,46,13,silent,old,blue,1205.223892900045,None,y,1205.223892900045,None,"['y', 'return']","[1.2231241000117734, 1.4869606000138447]",1205.223892900045,None,,,90YF,001,2023_Aug_31_1319,ExactRep-v3-final,2021.2.3,60.092686980583565,
,,,,,,,,,,,,13,0,13,0,,,,,,,,,,,,,,,,,,,,,,,,,,,,,,,,,,,,,,,,,,,,,,,,,1210.7369951000437,None,,,,,,,,,,,,,,,,,,,,,,,,,,,,,,,,,,,,,,,,,,,,,,,,,,,,,,,,,ship,16,14,sing,old,red,1207.2671368999872,None,n,1207.2671368999872,None,"['n', 'return']","[3.1636505000060424, 3.4196910000173375]",1207.2671368999872,None,,,90YF,001,2023_Aug_31_1319,ExactRep-v3-final,2021.2.3,60.092686980583565,
,,,,,,,,,,,,14,0,14,0,,,,,,,,,,,,,,,,,,,,,,,,,,,,,,,,,,,,,,,,,,,,,,,,,1212.7554295000155,None,,,,,,,,,,,,,,,,,,,,,,,,,,,,,,,,,,,,,,,,,,,,,,,,,,,,,,,,,science,43,15,silent,old,blue,1211.2576588999946,None,n,1211.2576588999946,None,"['n', 'return']","[1.2210972999455407, 1.4530518999090418]",1211.2576588999946,None,,,90YF,001,2023_Aug_31_1319,ExactRep-v3-final,2021.2.3,60.092686980583565,
,,,,,,,,,,,,15,0,15,0,,,,,,,,,,,,,,,,,,,,,,,,,,,,,,,,,,,,,,,,,,,,,,,,,1214.3726863000775,None,,,,,,,,,,,,,,,,,,,,,,,,,,,,,,,,,,,,,,,,,,,,,,,,,,,,,,,,,insect,42,16,silent,old,blue,1213.2731210000347,None,n,1213.2731210000347,None,"['n', 'return']","[0.8376064000185579, 1.0616647999268025]",1213.2731210000347,None,,,90YF,001,2023_Aug_31_1319,ExactRep-v3-final,2021.2.3,60.092686980583565,
,,,,,,,,,,,,16,0,16,0,,,,,,,,,,,,,,,,,,,,,,,,,,,,,,,,,,,,,,,,,,,,,,,,,1217.7592648999998,None,,,,,,,,,,,,,,,,,,,,,,,,,,,,,,,,,,,,,,,,,,,,,,,,,,,,,,,,,dollar,212,17,aloud,new,white,1214.878385500051,None,n,1214.878385500051,None,"['n', 'return']","[2.608308899914846, 2.840587899903767]",1214.878385500051,None,,,90YF,001,2023_Aug_31_1319,ExactRep-v3-final,2021.2.3,60.092686980583565,
,,,,,,,,,,,,17,0,17,0,,,,,,,,,,,,,,,,,,,,,,,,,,,,,,,,,,,,,,,,,,,,,,,,,1220.0790603000205,None,,,,,,,,,,,,,,,,,,,,,,,,,,,,,,,,,,,,,,,,,,,,,,,,,,,,,,,,,girl,137,18,silent,new,blue,1218.2726079000859,None,n,1218.2726079000859,None,"['n', 'return']","[1.5260218000039458, 1.7661438001086935]",1218.2726079000859,None,,,90YF,001,2023_Aug_31_1319,ExactRep-v3-final,2021.2.3,60.092686980583565,
,,,,,,,,,,,,18,0,18,0,,,,,,,,,,,,,,,,,,,,,,,,,,,,,,,,,,,,,,,,,,,,,,,,,1221.9312952000182,None,,,,,,,,,,,,,,,,,,,,,,,,,,,,,,,,,,,,,,,,,,,,,,,,,,,,,,,,,slave,4,19,sing,old,red,1220.5863048000028,None,y,1220.5863048000028,None,"['y', 'return']","[1.076464300043881, 1.3004864000249654]",1220.5863048000028,None,,,90YF,001,2023_Aug_31_1319,ExactRep-v3-final,2021.2.3,60.092686980583565,
,,,,,,,,,,,,19,0,19,0,,,,,,,,,,,,,,,,,,,,,,,,,,,,,,,,,,,,,,,,,,,,,,,,,1223.9329683000688,None,,,,,,,,,,,,,,,,,,,,,,,,,,,,,,,,,,,,,,,,,,,,,,,,,,,,,,,,,disease,32,20,sing,old,red,1222.4476685000118,None,y,1222.4476685000118,None,"['y', 'return']","[1.1589940999401733, 1.4390907000051811]",1222.4476685000118,None,,,90YF,001,2023_Aug_31_1319,ExactRep-v3-final,2021.2.3,60.092686980583565,
,,,,,,,,,,,,20,0,20,0,,,,,,,,,,,,,,,,,,,,,,,,,,,,,,,,,,,,,,,,,,,,,,,,,1226.9689501000103,None,,,,,,,,,,,,,,,,,,,,,,,,,,,,,,,,,,,,,,,,,,,,,,,,,,,,,,,,,street,76,21,silent,old,blue,1224.4377742999932,None,n,1224.4377742999932,None,"['n', 'return']","[2.248903700034134, 2.497028100071475]",1224.4377742999932,None,,,90YF,001,2023_Aug_31_1319,ExactRep-v3-final,2021.2.3,60.092686980583565,
,,,,,,,,,,,,21,0,21,0,,,,,,,,,,,,,,,,,,,,,,,,,,,,,,,,,,,,,,,,,,,,,,,,,1229.0041510000592,None,,,,,,,,,,,,,,,,,,,,,,,,,,,,,,,,,,,,,,,,,,,,,,,,,,,,,,,,,wine,48,22,silent,old,blue,1227.4780623000115,None,y,1227.4780623000115,None,"['y', 'return']","[1.2570416999515146, 1.4886438000248745]",1227.4780623000115,None,,,90YF,001,2023_Aug_31_1319,ExactRep-v3-final,2021.2.3,60.092686980583565,
,,,,,,,,,,,,22,0,22,0,,,,,,,,,,,,,,,,,,,,,,,,,,,,,,,,,,,,,,,,,,,,,,,,,1231.4067585000303,None,,,,,,,,,,,,,,,,,,,,,,,,,,,,,,,,,,,,,,,,,,,,,,,,,,,,,,,,,humour,0,23,sing,old,red,1229.512806700077,None,y,1229.512806700077,None,"['y', 'return']","[1.5658898000838235, 1.846000700024888]",1229.512806700077,None,,,90YF,001,2023_Aug_31_1319,ExactRep-v3-final,2021.2.3,60.092686980583565,
,,,,,,,,,,,,23,0,23,0,,,,,,,,,,,,,,,,,,,,,,,,,,,,,,,,,,,,,,,,,,,,,,,,,1234.3441829000367,None,,,,,,,,,,,,,,,,,,,,,,,,,,,,,,,,,,,,,,,,,,,,,,,,,,,,,,,,,ticket,196,24,aloud,new,white,1231.916475099977,None,y,1231.916475099977,None,"['y', 'return']","[2.1542549999430776, 2.38626979989931]",1231.916475099977,None,,,90YF,001,2023_Aug_31_1319,ExactRep-v3-final,2021.2.3,60.092686980583565,
,,,,,,,,,,,,24,0,24,0,,,,,,,,,,,,,,,,,,,,,,,,,,,,,,,,,,,,,,,,,,,,,,,,,1236.7459583000746,None,,,,,,,,,,,,,,,,,,,,,,,,,,,,,,,,,,,,,,,,,,,,,,,,,,,,,,,,,artist,203,25,sing,new,red,1234.8598142000847,None,n,1234.8598142000847,None,"['n', 'return']","[1.5949356000637636, 1.8430050000315532]",1234.8598142000847,None,,,90YF,001,2023_Aug_31_1319,ExactRep-v3-final,2021.2.3,60.092686980583565,
,,,,,,,,,,,,25,0,25,0,,,,,,,,,,,,,,,,,,,,,,,,,,,,,,,,,,,,,,,,,,,,,,,,,1240.1158405999886,None,,,,,,,,,,,,,,,,,,,,,,,,,,,,,,,,,,,,,,,,,,,,,,,,,,,,,,,,,student,218,26,aloud,new,white,1237.2536681999918,None,y,1237.2536681999918,None,"['y', 'return']","[2.6252615000121295, 2.817035699961707]",1237.2536681999918,None,,,90YF,001,2023_Aug_31_1319,ExactRep-v3-final,2021.2.3,60.092686980583565,
,,,,,,,,,,,,26,0,26,0,,,,,,,,,,,,,,,,,,,,,,,,,,,,,,,,,,,,,,,,,,,,,,,,,1241.9010647999821,None,,,,,,,,,,,,,,,,,,,,,,,,,,,,,,,,,,,,,,,,,,,,,,,,,,,,,,,,,duty,195,27,sing,new,red,1240.6215604000026,None,n,1240.6215604000026,None,"['n', 'return']","[0.9132480999687687, 1.2331660999916494]",1240.6215604000026,None,,,90YF,001,2023_Aug_31_1319,ExactRep-v3-final,2021.2.3,60.092686980583565,
,,,,,,,,,,,,27,0,27,0,,,,,,,,,,,,,,,,,,,,,,,,,,,,,,,,,,,,,,,,,,,,,,,,,1243.9532584000845,None,,,,,,,,,,,,,,,,,,,,,,,,,,,,,,,,,,,,,,,,,,,,,,,,,,,,,,,,,flood,209,28,sing,new,red,1242.4191999000032,None,y,1242.4191999000032,None,"['y', 'return']","[1.2435320999938995, 1.4995588000165299]",1242.4191999000032,None,,,90YF,001,2023_Aug_31_1319,ExactRep-v3-final,2021.2.3,60.092686980583565,
,,,,,,,,,,,,28,0,28,0,,,,,,,,,,,,,,,,,,,,,,,,,,,,,,,,,,,,,,,,,,,,,,,,,1246.1563941000495,None,,,,,,,,,,,,,,,,,,,,,,,,,,,,,,,,,,,,,,,,,,,,,,,,,,,,,,,,,trouble,146,29,silent,new,blue,1244.4628714000573,None,n,1244.4628714000573,None,"['n', 'return']","[1.3198506999760866, 1.6560578999342397]",1244.4628714000573,None,,,90YF,001,2023_Aug_31_1319,ExactRep-v3-final,2021.2.3,60.092686980583565,
,,,,,,,,,,,,29,0,29,0,,,,,,,,,,,,,,,,,,,,,,,,,,,,,,,,,,,,,,,,,,,,,,,,,1248.1410132000456,None,,,,,,,,,,,,,,,,,,,,,,,,,,,,,,,,,,,,,,,,,,,,,,,,,,,,,,,,,justice,19,30,sing,old,red,1246.6732576000504,None,y,1246.6732576000504,None,"['y', 'return']","[1.1335144999902695, 1.421417300007306]",1246.6732576000504,None,,,90YF,001,2023_Aug_31_1319,ExactRep-v3-final,2021.2.3,60.092686980583565,
,,,,,,,,,,,,30,0,30,0,,,,,,,,,,,,,,,,,,,,,,,,,,,,,,,,,,,,,,,,,,,,,,,,,1249.849227000028,None,,,,,,,,,,,,,,,,,,,,,,,,,,,,,,,,,,,,,,,,,,,,,,,,,,,,,,,,,letter,29,31,sing,old,red,1248.647156800027,None,y,1248.647156800027,None,"['y', 'return']","[0.9516511999536306, 1.1597116000484675]",1248.647156800027,None,,,90YF,001,2023_Aug_31_1319,ExactRep-v3-final,2021.2.3,60.092686980583565,
,,,,,,,,,,,,31,0,31,0,,,,,,,,,,,,,,,,,,,,,,,,,,,,,,,,,,,,,,,,,,,,,,,,,1253.1626019000541,None,,,,,,,,,,,,,,,,,,,,,,,,,,,,,,,,,,,,,,,,,,,,,,,,,,,,,,,,,money,192,32,aloud,new,white,1250.3654971000506,None,y,1250.3654971000506,None,"['y', 'return']","[2.545355699956417, 2.761635100003332]",1250.3654971000506,None,,,90YF,001,2023_Aug_31_1319,ExactRep-v3-final,2021.2.3,60.092686980583565,
,,,,,,,,,,,,32,0,32,0,,,,,,,,,,,,,,,,,,,,,,,,,,,,,,,,,,,,,,,,,,,,,,,,,1256.9330462000798,None,,,,,,,,,,,,,,,,,,,,,,,,,,,,,,,,,,,,,,,,,,,,,,,,,,,,,,,,,journal,133,33,silent,new,blue,1253.6804238000186,None,y,1253.6804238000186,None,"['y', 'return']","[2.9985458999872208, 3.2142338999547064]",1253.6804238000186,None,,,90YF,001,2023_Aug_31_1319,ExactRep-v3-final,2021.2.3,60.092686980583565,
,,,,,,,,,,,,33,0,33,0,,,,,,,,,,,,,,,,,,,,,,,,,,,,,,,,,,,,,,,,,,,,,,,,,1258.9177847000537,None,,,,,,,,,,,,,,,,,,,,,,,,,,,,,,,,,,,,,,,,,,,,,,,,,,,,,,,,,volume,28,34,sing,old,red,1257.4407887000125,None,y,1257.4407887000125,None,"['y', 'return']","[1.2218967999797314, 1.4380139999557287]",1257.4407887000125,None,,,90YF,001,2023_Aug_31_1319,ExactRep-v3-final,2021.2.3,60.092686980583565,
,,,,,,,,,,,,34,0,34,0,,,,,,,,,,,,,,,,,,,,,,,,,,,,,,,,,,,,,,,,,,,,,,,,,1260.7360238999827,None,,,,,,,,,,,,,,,,,,,,,,,,,,,,,,,,,,,,,,,,,,,,,,,,,,,,,,,,,cabin,217,35,sing,new,red,1259.4181063000578,None,n,1259.4181063000578,None,"['n', 'return']","[1.0846443000482395, 1.2687230000738055]",1259.4181063000578,None,,,90YF,001,2023_Aug_31_1319,ExactRep-v3-final,2021.2.3,60.092686980583565,
,,,,,,,,,,,,35,0,35,0,,,,,,,,,,,,,,,,,,,,,,,,,,,,,,,,,,,,,,,,,,,,,,,,,1262.7208715000888,None,,,,,,,,,,,,,,,,,,,,,,,,,,,,,,,,,,,,,,,,,,,,,,,,,,,,,,,,,board,162,36,aloud,new,white,1261.2475658000913,None,y,1261.2475658000913,None,"['y', 'return']","[1.2071426999755204, 1.4311619999352843]",1261.2475658000913,None,,,90YF,001,2023_Aug_31_1319,ExactRep-v3-final,2021.2.3,60.092686980583565,
,,,,,,,,,,,,36,0,36,0,,,,,,,,,,,,,,,,,,,,,,,,,,,,,,,,,,,,,,,,,,,,,,,,,1266.2577044999925,None,,,,,,,,,,,,,,,,,,,,,,,,,,,,,,,,,,,,,,,,,,,,,,,,,,,,,,,,,lake,8,37,sing,old,red,1263.2326639000094,None,n,1263.2326639000094,None,"['n', 'return']","[2.6620983999455348, 2.990265400032513]",1263.2326639000094,None,,,90YF,001,2023_Aug_31_1319,ExactRep-v3-final,2021.2.3,60.092686980583565,
,,,,,,,,,,,,37,0,37,0,,,,,,,,,,,,,,,,,,,,,,,,,,,,,,,,,,,,,,,,,,,,,,,,,1271.2138931000372,None,,,,,,,,,,,,,,,,,,,,,,,,,,,,,,,,,,,,,,,,,,,,,,,,,,,,,,,,,opinion,1,38,sing,old,red,1266.759682300035,None,n,1266.759682300035,None,"['y', 'backspace', 'n', 'return']","[2.4710468999110162, 3.4470408000051975, 4.183302899939008, 4.407060700003058]",1266.759682300035,None,,,90YF,001,2023_Aug_31_1319,ExactRep-v3-final,2021.2.3,60.092686980583565,
,,,,,,,,,,,,38,0,38,0,,,,,,,,,,,,,,,,,,,,,,,,,,,,,,,,,,,,,,,,,,,,,,,,,1273.0322662000544,None,,,,,,,,,,,,,,,,,,,,,,,,,,,,,,,,,,,,,,,,,,,,,,,,,,,,,,,,,hotel,220,39,aloud,new,white,1271.7207039999776,None,n,1271.7207039999776,None,"['n', 'return']","[1.0540012000128627, 1.2780641000717878]",1271.7207039999776,None,,,90YF,001,2023_Aug_31_1319,ExactRep-v3-final,2021.2.3,60.092686980583565,
,,,,,,,,,,,,39,0,39,0,,,,,,,,,,,,,,,,,,,,,,,,,,,,,,,,,,,,,,,,,,,,,,,,,1275.0670268000104,None,,,,,,,,,,,,,,,,,,,,,,,,,,,,,,,,,,,,,,,,,,,,,,,,,,,,,,,,,brain,210,40,aloud,new,white,1273.5422630000394,None,y,1273.5422630000394,None,"['y', 'return']","[1.2486603999277577, 1.4806614000117406]",1273.5422630000394,None,,,90YF,001,2023_Aug_31_1319,ExactRep-v3-final,2021.2.3,60.092686980583565,
,,,,,,,,,,,,40,0,40,0,,,,,,,,,,,,,,,,,,,,,,,,,,,,,,,,,,,,,,,,,,,,,,,,,1276.750805000076,None,,,,,,,,,,,,,,,,,,,,,,,,,,,,,,,,,,,,,,,,,,,,,,,,,,,,,,,,,engine,200,41,aloud,new,white,1275.5719963000156,None,n,1275.5719963000156,None,"['n', 'return']","[0.9627022000495344, 1.1386626000748947]",1275.5719963000156,None,,,90YF,001,2023_Aug_31_1319,ExactRep-v3-final,2021.2.3,60.092686980583565,
,,,,,,,,,,,,41,0,41,0,,,,,,,,,,,,,,,,,,,,,,,,,,,,,,,,,,,,,,,,,,,,,,,,,1280.3389339999994,None,,,,,,,,,,,,,,,,,,,,,,,,,,,,,,,,,,,,,,,,,,,,,,,,,,,,,,,,,person,70,42,silent,old,blue,1277.2621704000048,None,n,1277.2621704000048,None,"['n', 'return']","[2.8884678999893367, 3.032523400033824]",1277.2621704000048,None,,,90YF,001,2023_Aug_31_1319,ExactRep-v3-final,2021.2.3,60.092686980583565,
,,,,,,,,,,,,42,0,42,0,,,,,,,,,,,,,,,,,,,,,,,,,,,,,,,,,,,,,,,,,,,,,,,,,1282.257857699995,None,,,,,,,,,,,,,,,,,,,,,,,,,,,,,,,,,,,,,,,,,,,,,,,,,,,,,,,,,judge,232,43,aloud,new,white,1280.8401969000697,None,y,1280.8401969000697,None,"['y', 'return']","[1.1908896000823006, 1.374563300050795]",1280.8401969000697,None,,,90YF,001,2023_Aug_31_1319,ExactRep-v3-final,2021.2.3,60.092686980583565,
,,,,,,,,,,,,43,0,43,0,,,,,,,,,,,,,,,,,,,,,,,,,,,,,,,,,,,,,,,,,,,,,,,,,1284.6941162000876,None,,,,,,,,,,,,,,,,,,,,,,,,,,,,,,,,,,,,,,,,,,,,,,,,,,,,,,,,,soul,172,44,aloud,new,white,1282.7591204000637,None,y,1282.7591204000637,None,"['y', 'return']","[1.5196072000544518, 1.8956128000281751]",1282.7591204000637,None,,,90YF,001,2023_Aug_31_1319,ExactRep-v3-final,2021.2.3,60.092686980583565,
,,,,,,,,,,,,44,0,44,0,,,,,,,,,,,,,,,,,,,,,,,,,,,,,,,,,,,,,,,,,,,,,,,,,1287.0951569000026,None,,,,,,,,,,,,,,,,,,,,,,,,,,,,,,,,,,,,,,,,,,,,,,,,,,,,,,,,,hall,13,45,sing,old,red,1285.197714800015,None,n,1285.197714800015,None,"['n', 'return']","[1.136985499993898, 1.8489838000386953]",1285.197714800015,None,,,90YF,001,2023_Aug_31_1319,ExactRep-v3-final,2021.2.3,60.092686980583565,
,,,,,,,,,,,,45,0,45,0,,,,,,,,,,,,,,,,,,,,,,,,,,,,,,,,,,,,,,,,,,,,,,,,,1289.8490058000898,None,,,,,,,,,,,,,,,,,,,,,,,,,,,,,,,,,,,,,,,,,,,,,,,,,,,,,,,,,present,228,46,aloud,new,white,1287.6008158000186,None,n,1287.6008158000186,None,"['n', 'return']","[1.9659184999763966, 2.2139291999628767]",1287.6008158000186,None,,,90YF,001,2023_Aug_31_1319,ExactRep-v3-final,2021.2.3,60.092686980583565,
,,,,,,,,,,,,46,0,46,0,,,,,,,,,,,,,,,,,,,,,,,,,,,,,,,,,,,,,,,,,,,,,,,,,1292.3182678000303,None,,,,,,,,,,,,,,,,,,,,,,,,,,,,,,,,,,,,,,,,,,,,,,,,,,,,,,,,,lord,74,47,silent,old,blue,1290.3545888999943,None,y,1290.3545888999943,None,"['y', 'return']","[1.7400994000490755, 1.9162008999846876]",1290.3545888999943,None,,,90YF,001,2023_Aug_31_1319,ExactRep-v3-final,2021.2.3,60.092686980583565,
,,,,,,,,,,,,47,0,47,0,,,,,,,,,,,,,,,,,,,,,,,,,,,,,,,,,,,,,,,,,,,,,,,,,1294.7873132000677,None,,,,,,,,,,,,,,,,,,,,,,,,,,,,,,,,,,,,,,,,,,,,,,,,,,,,,,,,,murder,120,48,silent,new,blue,1292.8342046000762,None,y,1292.8342046000762,None,"['y', 'return']","[1.308548300061375, 1.9165945000713691]",1292.8342046000762,None,,,90YF,001,2023_Aug_31_1319,ExactRep-v3-final,2021.2.3,60.092686980583565,
,,,,,,,,,,,,48,0,48,0,,,,,,,,,,,,,,,,,,,,,,,,,,,,,,,,,,,,,,,,,,,,,,,,,1297.5234302000608,None,,,,,,,,,,,,,,,,,,,,,,,,,,,,,,,,,,,,,,,,,,,,,,,,,,,,,,,,,power,225,49,sing,new,red,1295.2973705000477,None,n,1295.2973705000477,None,"['n', 'return']","[1.9253514000447467, 2.181336000096053]",1295.2973705000477,None,,,90YF,001,2023_Aug_31_1319,ExactRep-v3-final,2021.2.3,60.092686980583565,
,,,,,,,,,,,,49,0,49,0,,,,,,,,,,,,,,,,,,,,,,,,,,,,,,,,,,,,,,,,,,,,,,,,,1301.2440076000057,None,,,,,,,,,,,,,,,,,,,,,,,,,,,,,,,,,,,,,,,,,,,,,,,,,,,,,,,,,fun,56,50,silent,old,blue,1298.039698400069,None,y,1298.039698400069,None,"['y', 'return']","[2.9672614000737667, 3.1672298000194132]",1298.039698400069,None,,,90YF,001,2023_Aug_31_1319,ExactRep-v3-final,2021.2.3,60.092686980583565,
,,,,,,,,,,,,50,0,50,0,,,,,,,,,,,,,,,,,,,,,,,,,,,,,,,,,,,,,,,,,,,,,,,,,1303.1123654000694,None,,,,,,,,,,,,,,,,,,,,,,,,,,,,,,,,,,,,,,,,,,,,,,,,,,,,,,,,,gift,145,51,silent,new,blue,1301.7608796000713,None,n,1301.7608796000713,None,"['n', 'return']","[1.0538543000584468, 1.3019362000050023]",1301.7608796000713,None,,,90YF,001,2023_Aug_31_1319,ExactRep-v3-final,2021.2.3,60.092686980583565,
,,,,,,,,,,,,51,0,51,0,,,,,,,,,,,,,,,,,,,,,,,,,,,,,,,,,,,,,,,,,,,,,,,,,1304.9128636000678,None,,,,,,,,,,,,,,,,,,,,,,,,,,,,,,,,,,,,,,,,,,,,,,,,,,,,,,,,,memory,116,52,aloud,old,white,1303.6201554000145,None,y,1303.6201554000145,None,"['y', 'return']","[1.0425632999977097, 1.258685400011018]",1303.6201554000145,None,,,90YF,001,2023_Aug_31_1319,ExactRep-v3-final,2021.2.3,60.092686980583565,
,,,,,,,,,,,,52,0,52,0,,,,,,,,,,,,,,,,,,,,,,,,,,,,,,,,,,,,,,,,,,,,,,,,,1308.0169461000478,None,,,,,,,,,,,,,,,,,,,,,,,,,,,,,,,,,,,,,,,,,,,,,,,,,,,,,,,,,bar,80,53,aloud,old,white,1305.4149918000912,None,n,1305.4149918000912,None,"['n', 'return']","[1.7519845999777317, 2.5677318000234663]",1305.4149918000912,None,,,90YF,001,2023_Aug_31_1319,ExactRep-v3-final,2021.2.3,60.092686980583565,
,,,,,,,,,,,,53,0,53,0,,,,,,,,,,,,,,,,,,,,,,,,,,,,,,,,,,,,,,,,,,,,,,,,,1310.952596200048,None,,,,,,,,,,,,,,,,,,,,,,,,,,,,,,,,,,,,,,,,,,,,,,,,,,,,,,,,,library,55,54,silent,old,blue,1308.5245546000078,None,y,1308.5245546000078,None,"['y', 'return']","[2.1461499000433832, 2.394395300070755]",1308.5245546000078,None,,,90YF,001,2023_Aug_31_1319,ExactRep-v3-final,2021.2.3,60.092686980583565,
,,,,,,,,,,,,54,0,54,0,,,,,,,,,,,,,,,,,,,,,,,,,,,,,,,,,,,,,,,,,,,,,,,,,1312.8557291000616,None,,,,,,,,,,,,,,,,,,,,,,,,,,,,,,,,,,,,,,,,,,,,,,,,,,,,,,,,,tool,134,55,silent,new,blue,1311.455202799989,None,n,1311.455202799989,None,"['n', 'return']","[1.0554655999876559, 1.35163539997302]",1311.455202799989,None,,,90YF,001,2023_Aug_31_1319,ExactRep-v3-final,2021.2.3,60.092686980583565,
,,,,,,,,,,,,55,0,55,0,,,,,,,,,,,,,,,,,,,,,,,,,,,,,,,,,,,,,,,,,,,,,,,,,1315.19227270002,None,,,,,,,,,,,,,,,,,,,,,,,,,,,,,,,,,,,,,,,,,,,,,,,,,,,,,,,,,flesh,219,56,sing,new,red,1313.3806028000545,None,n,1313.3806028000545,None,"['n', 'return']","[1.5460977000184357, 1.7621810999698937]",1313.3806028000545,None,,,90YF,001,2023_Aug_31_1319,ExactRep-v3-final,2021.2.3,60.092686980583565,
,,,,,,,,,,,,56,0,56,0,,,,,,,,,,,,,,,,,,,,,,,,,,,,,,,,,,,,,,,,,,,,,,,,,1318.5942165000597,None,,,,,,,,,,,,,,,,,,,,,,,,,,,,,,,,,,,,,,,,,,,,,,,,,,,,,,,,,dress,66,57,silent,old,blue,1315.7084548000712,None,n,1315.7084548000712,None,"['n', 'return']","[2.6102509000338614, 2.8504302999936044]",1315.7084548000712,None,,,90YF,001,2023_Aug_31_1319,ExactRep-v3-final,2021.2.3,60.092686980583565,
,,,,,,,,,,,,57,0,57,0,,,,,,,,,,,,,,,,,,,,,,,,,,,,,,,,,,,,,,,,,,,,,,,,,1320.8799567000242,None,,,,,,,,,,,,,,,,,,,,,,,,,,,,,,,,,,,,,,,,,,,,,,,,,,,,,,,,,nail,204,58,aloud,new,white,1319.0950772999786,None,n,1319.0950772999786,None,"['n', 'return']","[1.535625800024718, 1.7355879000388086]",1319.0950772999786,None,,,90YF,001,2023_Aug_31_1319,ExactRep-v3-final,2021.2.3,60.092686980583565,
,,,,,,,,,,,,58,0,58,0,,,,,,,,,,,,,,,,,,,,,,,,,,,,,,,,,,,,,,,,,,,,,,,,,1322.6830374000128,None,,,,,,,,,,,,,,,,,,,,,,,,,,,,,,,,,,,,,,,,,,,,,,,,,,,,,,,,,teacher,110,59,aloud,old,white,1321.3821233999915,None,y,1321.3821233999915,None,"['y', 'return']","[1.0728798999916762, 1.2566530000185594]",1321.3821233999915,None,,,90YF,001,2023_Aug_31_1319,ExactRep-v3-final,2021.2.3,60.092686980583565,
,,,,,,,,,,,,59,0,59,0,,,,,,,,,,,,,,,,,,,,,,,,,,,,,,,,,,,,,,,,,,,,,,,,,1325.250935100019,None,,,,,,,,,,,,,,,,,,,,,,,,,,,,,,,,,,,,,,,,,,,,,,,,,,,,,,,,,event,18,60,sing,old,red,1323.1993287000805,None,n,1323.1993287000805,None,"['n', 'return']","[1.8233978000935167, 2.00735369999893]",1323.1993287000805,None,,,90YF,001,2023_Aug_31_1319,ExactRep-v3-final,2021.2.3,60.092686980583565,
,,,,,,,,,,,,60,0,60,0,,,,,,,,,,,,,,,,,,,,,,,,,,,,,,,,,,,,,,,,,,,,,,,,,1328.5709568000166,None,,,,,,,,,,,,,,,,,,,,,,,,,,,,,,,,,,,,,,,,,,,,,,,,,,,,,,,,,palace,111,61,aloud,old,white,1325.752072100062,None,y,1325.752072100062,None,"['y', 'return']","[2.5586799000157043, 2.774707100004889]",1325.752072100062,None,,,90YF,001,2023_Aug_31_1319,ExactRep-v3-final,2021.2.3,60.092686980583565,
,,,,,,,,,,,,61,0,61,0,,,,,,,,,,,,,,,,,,,,,,,,,,,,,,,,,,,,,,,,,,,,,,,,,1330.990090599982,None,,,,,,,,,,,,,,,,,,,,,,,,,,,,,,,,,,,,,,,,,,,,,,,,,,,,,,,,,pipe,158,62,silent,new,blue,1329.0883617000654,None,n,1329.0883617000654,None,"['n', 'return']","[1.6703718000790104, 1.8543906999984756]",1329.0883617000654,None,,,90YF,001,2023_Aug_31_1319,ExactRep-v3-final,2021.2.3,60.092686980583565,
,,,,,,,,,,,,62,0,62,0,,,,,,,,,,,,,,,,,,,,,,,,,,,,,,,,,,,,,,,,,,,,,,,,,1333.7102518000174,None,,,,,,,,,,,,,,,,,,,,,,,,,,,,,,,,,,,,,,,,,,,,,,,,,,,,,,,,,valley,85,63,aloud,old,white,1331.496845900081,None,y,1331.496845900081,None,"['y', 'return']","[1.9497869999613613, 2.1658822000026703]",1331.496845900081,None,,,90YF,001,2023_Aug_31_1319,ExactRep-v3-final,2021.2.3,60.092686980583565,
,,,,,,,,,,,,63,0,63,0,,,,,,,,,,,,,,,,,,,,,,,,,,,,,,,,,,,,,,,,,,,,,,,,,1335.783563300036,None,,,,,,,,,,,,,,,,,,,,,,,,,,,,,,,,,,,,,,,,,,,,,,,,,,,,,,,,,shoes,238,64,aloud,new,white,1334.2435569000663,None,n,1334.2435569000663,None,"['n', 'return']","[1.2911467999219894, 1.4993241999763995]",1334.2435569000663,None,,,90YF,001,2023_Aug_31_1319,ExactRep-v3-final,2021.2.3,60.092686980583565,
,,,,,,,,,,,,64,0,64,0,,,,,,,,,,,,,,,,,,,,,,,,,,,,,,,,,,,,,,,,,,,,,,,,,1338.5487407000037,None,,,,,,,,,,,,,,,,,,,,,,,,,,,,,,,,,,,,,,,,,,,,,,,,,,,,,,,,,stone,183,65,sing,new,red,1336.2959751000162,None,n,1336.2959751000162,None,"['n', 'return']","[2.0386572999414057, 2.206848999951035]",1336.2959751000162,None,,,90YF,001,2023_Aug_31_1319,ExactRep-v3-final,2021.2.3,60.092686980583565,
,,,,,,,,,,,,65,0,65,0,,,,,,,,,,,,,,,,,,,,,,,,,,,,,,,,,,,,,,,,,,,,,,,,,1341.5644815000705,None,,,,,,,,,,,,,,,,,,,,,,,,,,,,,,,,,,,,,,,,,,,,,,,,,,,,,,,,,pole,27,66,sing,old,red,1339.063904599985,None,y,1339.063904599985,None,"['y', 'return']","[2.1830120000522584, 2.4388316000113264]",1339.063904599985,None,,,90YF,001,2023_Aug_31_1319,ExactRep-v3-final,2021.2.3,60.092686980583565,
,,,,,,,,,,,,66,0,66,0,,,,,,,,,,,,,,,,,,,,,,,,,,,,,,,,,,,,,,,,,,,,,,,,,1344.6206962000579,None,,,,,,,,,,,,,,,,,,,,,,,,,,,,,,,,,,,,,,,,,,,,,,,,,,,,,,,,,table,231,67,sing,new,red,1342.0677899000002,None,n,1342.0677899000002,None,"['n', 'return']","[2.259054300026037, 2.506918099941686]",1342.0677899000002,None,,,90YF,001,2023_Aug_31_1319,ExactRep-v3-final,2021.2.3,60.092686980583565,
,,,,,,,,,,,,67,0,67,0,,,,,,,,,,,,,,,,,,,,,,,,,,,,,,,,,,,,,,,,,,,,,,,,,1346.6233868000563,None,,,,,,,,,,,,,,,,,,,,,,,,,,,,,,,,,,,,,,,,,,,,,,,,,,,,,,,,,flag,117,68,aloud,old,white,1345.1276634000242,None,y,1345.1276634000242,None,"['y', 'return']","[1.2550234999507666, 1.4550528000108898]",1345.1276634000242,None,,,90YF,001,2023_Aug_31_1319,ExactRep-v3-final,2021.2.3,60.092686980583565,
,,,,,,,,,,,,68,0,68,0,,,,,,,,,,,,,,,,,,,,,,,,,,,,,,,,,,,,,,,,,,,,,,,,,1351.2269681000616,None,,,,,,,,,,,,,,,,,,,,,,,,,,,,,,,,,,,,,,,,,,,,,,,,,,,,,,,,,anger,127,69,silent,new,blue,1347.1563042000635,None,y,1347.1563042000635,None,"['y', 'return']","[3.8423550999723375, 4.026386299985461]",1347.1563042000635,None,,,90YF,001,2023_Aug_31_1319,ExactRep-v3-final,2021.2.3,60.092686980583565,
,,,,,,,,,,,,69,0,69,0,,,,,,,,,,,,,,,,,,,,,,,,,,,,,,,,,,,,,,,,,,,,,,,,,1354.1133381000254,None,,,,,,,,,,,,,,,,,,,,,,,,,,,,,,,,,,,,,,,,,,,,,,,,,,,,,,,,,coast,237,70,sing,new,red,1351.745144500048,None,y,1351.745144500048,None,"['y', 'return']","[2.10982829995919, 2.325633900007233]",1351.745144500048,None,,,90YF,001,2023_Aug_31_1319,ExactRep-v3-final,2021.2.3,60.092686980583565,
,,,,,,,,,,,,70,0,70,0,,,,,,,,,,,,,,,,,,,,,,,,,,,,,,,,,,,,,,,,,,,,,,,,,1355.8807809000136,None,,,,,,,,,,,,,,,,,,,,,,,,,,,,,,,,,,,,,,,,,,,,,,,,,,,,,,,,,soil,57,71,silent,old,blue,1354.6315708000911,None,n,1354.6315708000911,None,"['n', 'return']","[1.0231803000206128, 1.2071878000861034]",1354.6315708000911,None,,,90YF,001,2023_Aug_31_1319,ExactRep-v3-final,2021.2.3,60.092686980583565,
,,,,,,,,,,,,71,0,71,0,,,,,,,,,,,,,,,,,,,,,,,,,,,,,,,,,,,,,,,,,,,,,,,,,1358.851256199996,None,,,,,,,,,,,,,,,,,,,,,,,,,,,,,,,,,,,,,,,,,,,,,,,,,,,,,,,,,fortune,180,72,aloud,new,white,1356.3820357000222,None,n,1356.3820357000222,None,"['n', 'return']","[2.240726999938488, 2.432747000013478]",1356.3820357000222,None,,,90YF,001,2023_Aug_31_1319,ExactRep-v3-final,2021.2.3,60.092686980583565,
,,,,,,,,,,,,72,0,72,0,,,,,,,,,,,,,,,,,,,,,,,,,,,,,,,,,,,,,,,,,,,,,,,,,1360.6201800000854,None,,,,,,,,,,,,,,,,,,,,,,,,,,,,,,,,,,,,,,,,,,,,,,,,,,,,,,,,,month,169,73,sing,new,red,1359.3674014999997,None,n,1359.3674014999997,None,"['n', 'return']","[1.0156137000303715, 1.207285700016655]",1359.3674014999997,None,,,90YF,001,2023_Aug_31_1319,ExactRep-v3-final,2021.2.3,60.092686980583565,
,,,,,,,,,,,,73,0,73,0,,,,,,,,,,,,,,,,,,,,,,,,,,,,,,,,,,,,,,,,,,,,,,,,,1363.8077778000152,None,,,,,,,,,,,,,,,,,,,,,,,,,,,,,,,,,,,,,,,,,,,,,,,,,,,,,,,,,doctor,115,74,aloud,old,white,1361.1425373000093,None,n,1361.1425373000093,None,"['n', 'return']","[1.7280627000145614, 2.616203000070527]",1361.1425373000093,None,,,90YF,001,2023_Aug_31_1319,ExactRep-v3-final,2021.2.3,60.092686980583565,
,,,,,,,,,,,,74,0,74,0,,,,,,,,,,,,,,,,,,,,,,,,,,,,,,,,,,,,,,,,,,,,,,,,,1365.6918022000464,None,,,,,,,,,,,,,,,,,,,,,,,,,,,,,,,,,,,,,,,,,,,,,,,,,,,,,,,,,friend,113,75,aloud,old,white,1364.3302745000692,None,y,1364.3302745000692,None,"['y', 'return']","[1.1244793999940157, 1.3164552999660373]",1364.3302745000692,None,,,90YF,001,2023_Aug_31_1319,ExactRep-v3-final,2021.2.3,60.092686980583565,
,,,,,,,,,,,,75,0,75,0,,,,,,,,,,,,,,,,,,,,,,,,,,,,,,,,,,,,,,,,,,,,,,,,,1369.0782065000385,None,,,,,,,,,,,,,,,,,,,,,,,,,,,,,,,,,,,,,,,,,,,,,,,,,,,,,,,,,honour,71,76,silent,old,blue,1366.2170400000177,None,y,1366.2170400000177,None,"['y', 'return']","[2.6216414000373334, 2.813763700076379]",1366.2170400000177,None,,,90YF,001,2023_Aug_31_1319,ExactRep-v3-final,2021.2.3,60.092686980583565,
,,,,,,,,,,,,76,0,76,0,,,,,,,,,,,,,,,,,,,,,,,,,,,,,,,,,,,,,,,,,,,,,,,,,1372.3314772000303,None,,,,,,,,,,,,,,,,,,,,,,,,,,,,,,,,,,,,,,,,,,,,,,,,,,,,,,,,,prayer,95,77,aloud,old,white,1369.5959318000823,None,n,1369.5959318000823,None,"['n', 'return']","[2.4988161000655964, 2.6990158000262454]",1369.5959318000823,None,,,90YF,001,2023_Aug_31_1319,ExactRep-v3-final,2021.2.3,60.092686980583565,
,,,,,,,,,,,,77,0,77,0,,,,,,,,,,,,,,,,,,,,,,,,,,,,,,,,,,,,,,,,,,,,,,,,,1374.1002759999828,None,,,,,,,,,,,,,,,,,,,,,,,,,,,,,,,,,,,,,,,,,,,,,,,,,,,,,,,,,cottage,216,78,aloud,new,white,1372.862352300086,None,n,1372.862352300086,None,"['n', 'return']","[1.0168761999811977, 1.2005908000282943]",1372.862352300086,None,,,90YF,001,2023_Aug_31_1319,ExactRep-v3-final,2021.2.3,60.092686980583565,
,,,,,,,,,,,,78,0,78,0,,,,,,,,,,,,,,,,,,,,,,,,,,,,,,,,,,,,,,,,,,,,,,,,,1376.2354645000305,None,,,,,,,,,,,,,,,,,,,,,,,,,,,,,,,,,,,,,,,,,,,,,,,,,,,,,,,,,history,191,79,sing,new,red,1374.6250040000305,None,y,1374.6250040000305,None,"['y', 'return']","[1.3497435000026599, 1.5657187000615522]",1374.6250040000305,None,,,90YF,001,2023_Aug_31_1319,ExactRep-v3-final,2021.2.3,60.092686980583565,
,,,,,,,,,,,,79,0,79,0,,,,,,,,,,,,,,,,,,,,,,,,,,,,,,,,,,,,,,,,,,,,,,,,,1378.2041059000185,None,,,,,,,,,,,,,,,,,,,,,,,,,,,,,,,,,,,,,,,,,,,,,,,,,,,,,,,,,safety,135,80,silent,new,blue,1376.7457330999896,None,n,1376.7457330999896,None,"['n', 'return']","[1.2450183000182733, 1.4212292999727651]",1376.7457330999896,None,,,90YF,001,2023_Aug_31_1319,ExactRep-v3-final,2021.2.3,60.092686980583565,
,,,,,,,,,,,,80,0,80,0,,,,,,,,,,,,,,,,,,,,,,,,,,,,,,,,,,,,,,,,,,,,,,,,,1380.1729657000396,None,,,,,,,,,,,,,,,,,,,,,,,,,,,,,,,,,,,,,,,,,,,,,,,,,,,,,,,,,plant,62,81,silent,old,blue,1378.7212421000004,None,n,1378.7212421000004,None,"['n', 'return']","[1.2134497000370175, 1.4053814000217244]",1378.7212421000004,None,,,90YF,001,2023_Aug_31_1319,ExactRep-v3-final,2021.2.3,60.092686980583565,
,,,,,,,,,,,,81,0,81,0,,,,,,,,,,,,,,,,,,,,,,,,,,,,,,,,,,,,,,,,,,,,,,,,,1381.9912191000767,None,,,,,,,,,,,,,,,,,,,,,,,,,,,,,,,,,,,,,,,,,,,,,,,,,,,,,,,,,flower,166,82,aloud,new,white,1380.6900398000143,None,n,1380.6900398000143,None,"['n', 'return']","[1.0926593999611214, 1.2607503000181168]",1380.6900398000143,None,,,90YF,001,2023_Aug_31_1319,ExactRep-v3-final,2021.2.3,60.092686980583565,
,,,,,,,,,,,,82,0,82,0,,,,,,,,,,,,,,,,,,,,,,,,,,,,,,,,,,,,,,,,,,,,,,,,,1383.8763880000915,None,,,,,,,,,,,,,,,,,,,,,,,,,,,,,,,,,,,,,,,,,,,,,,,,,,,,,,,,,rod,69,83,silent,old,blue,1382.5074049000395,None,n,1382.5074049000395,None,"['n', 'return']","[1.1392148999730125, 1.323218800011091]",1382.5074049000395,None,,,90YF,001,2023_Aug_31_1319,ExactRep-v3-final,2021.2.3,60.092686980583565,
,,,,,,,,,,,,83,0,83,0,,,,,,,,,,,,,,,,,,,,,,,,,,,,,,,,,,,,,,,,,,,,,,,,,1385.4936203000834,None,,,,,,,,,,,,,,,,,,,,,,,,,,,,,,,,,,,,,,,,,,,,,,,,,,,,,,,,,colony,91,84,aloud,old,white,1384.3856664000778,None,y,1384.3856664000778,None,"['y', 'return']","[0.8930022000567988, 1.06101370009128]",1384.3856664000778,None,,,90YF,001,2023_Aug_31_1319,ExactRep-v3-final,2021.2.3,60.092686980583565,
,,,,,,,,,,,,84,0,84,0,,,,,,,,,,,,,,,,,,,,,,,,,,,,,,,,,,,,,,,,,,,,,,,,,1388.5310787000926,None,,,,,,,,,,,,,,,,,,,,,,,,,,,,,,,,,,,,,,,,,,,,,,,,,,,,,,,,,woman,73,85,silent,old,blue,1385.9956092999782,None,n,1385.9956092999782,None,"['n', 'return']","[2.3069946999894455, 2.4991317000240088]",1385.9956092999782,None,,,90YF,001,2023_Aug_31_1319,ExactRep-v3-final,2021.2.3,60.092686980583565,
,,,,,,,,,,,,85,0,85,0,,,,,,,,,,,,,,,,,,,,,,,,,,,,,,,,,,,,,,,,,,,,,,,,,1391.117019199999,None,,,,,,,,,,,,,,,,,,,,,,,,,,,,,,,,,,,,,,,,,,,,,,,,,,,,,,,,,cost,31,86,sing,old,red,1389.0379989000503,None,y,1389.0379989000503,None,"['y', 'return']","[1.8487063000211492, 2.0326171999331564]",1389.0379989000503,None,,,90YF,001,2023_Aug_31_1319,ExactRep-v3-final,2021.2.3,60.092686980583565,
,,,,,,,,,,,,86,0,86,0,,,,,,,,,,,,,,,,,,,,,,,,,,,,,,,,,,,,,,,,,,,,,,,,,1394.903605600004,None,,,,,,,,,,,,,,,,,,,,,,,,,,,,,,,,,,,,,,,,,,,,,,,,,,,,,,,,,green,174,87,aloud,new,white,1391.6247040000744,None,n,1391.6247040000744,None,"['n', 'return']","[3.0139628999168053, 3.2299521999666467]",1391.6247040000744,None,,,90YF,001,2023_Aug_31_1319,ExactRep-v3-final,2021.2.3,60.092686980583565,
,,,,,,,,,,,,87,0,87,0,,,,,,,,,,,,,,,,,,,,,,,,,,,,,,,,,,,,,,,,,,,,,,,,,1396.5724727000343,None,,,,,,,,,,,,,,,,,,,,,,,,,,,,,,,,,,,,,,,,,,,,,,,,,,,,,,,,,author,59,88,silent,old,blue,1395.405340300058,None,n,1395.405340300058,None,"['n', 'return']","[0.9453023000387475, 1.1213215999305248]",1395.405340300058,None,,,90YF,001,2023_Aug_31_1319,ExactRep-v3-final,2021.2.3,60.092686980583565,
,,,,,,,,,,,,88,0,88,0,,,,,,,,,,,,,,,,,,,,,,,,,,,,,,,,,,,,,,,,,,,,,,,,,1398.5910961000482,None,,,,,,,,,,,,,,,,,,,,,,,,,,,,,,,,,,,,,,,,,,,,,,,,,,,,,,,,,hour,164,89,aloud,new,white,1397.0901822000742,None,y,1397.0901822000742,None,"['y', 'return']","[1.2765643000602722, 1.46048490004614]",1397.0901822000742,None,,,90YF,001,2023_Aug_31_1319,ExactRep-v3-final,2021.2.3,60.092686980583565,
,,,,,,,,,,,,89,0,89,0,,,,,,,,,,,,,,,,,,,,,,,,,,,,,,,,,,,,,,,,,,,,,,,,,1401.0582939999877,None,,,,,,,,,,,,,,,,,,,,,,,,,,,,,,,,,,,,,,,,,,,,,,,,,,,,,,,,,fire,157,90,silent,new,blue,1399.1077572000213,None,n,1399.1077572000213,None,"['n', 'return']","[1.642856299993582, 1.9068679999327287]",1399.1077572000213,None,,,90YF,001,2023_Aug_31_1319,ExactRep-v3-final,2021.2.3,60.092686980583565,
,,,,,,,,,,,,90,0,90,0,,,,,,,,,,,,,,,,,,,,,,,,,,,,,,,,,,,,,,,,,,,,,,,,,1403.9963849000633,None,,,,,,,,,,,,,,,,,,,,,,,,,,,,,,,,,,,,,,,,,,,,,,,,,,,,,,,,,cotton,193,91,sing,new,red,1401.5743830000283,None,y,1401.5743830000283,None,"['y', 'return']","[2.144297600025311, 2.3762724000262097]",1401.5743830000283,None,,,90YF,001,2023_Aug_31_1319,ExactRep-v3-final,2021.2.3,60.092686980583565,
,,,,,,,,,,,,91,0,91,0,,,,,,,,,,,,,,,,,,,,,,,,,,,,,,,,,,,,,,,,,,,,,,,,,1407.916971400031,None,,,,,,,,,,,,,,,,,,,,,,,,,,,,,,,,,,,,,,,,,,,,,,,,,,,,,,,,,glory,233,92,sing,new,red,1404.5086643000832,None,n,1404.5086643000832,None,"['n', 'return']","[3.169987100060098, 3.3699812000850216]",1404.5086643000832,None,,,90YF,001,2023_Aug_31_1319,ExactRep-v3-final,2021.2.3,60.092686980583565,
,,,,,,,,,,,,92,0,92,0,,,,,,,,,,,,,,,,,,,,,,,,,,,,,,,,,,,,,,,,,,,,,,,,,1409.8683088000398,None,,,,,,,,,,,,,,,,,,,,,,,,,,,,,,,,,,,,,,,,,,,,,,,,,,,,,,,,,cash,102,93,aloud,old,white,1408.4326957000885,None,y,1408.4326957000885,None,"['y', 'return']","[1.205938300001435, 1.397933300002478]",1408.4326957000885,None,,,90YF,001,2023_Aug_31_1319,ExactRep-v3-final,2021.2.3,60.092686980583565,
,,,,,,,,,,,,93,0,93,0,,,,,,,,,,,,,,,,,,,,,,,,,,,,,,,,,,,,,,,,,,,,,,,,,1411.5211176000303,None,,,,,,,,,,,,,,,,,,,,,,,,,,,,,,,,,,,,,,,,,,,,,,,,,,,,,,,,,meat,12,94,sing,old,red,1410.3699904000387,None,y,1410.3699904000387,None,"['y', 'return']","[0.9326741999248043, 1.1089743999764323]",1410.3699904000387,None,,,90YF,001,2023_Aug_31_1319,ExactRep-v3-final,2021.2.3,60.092686980583565,
,,,,,,,,,,,,94,0,94,0,,,,,,,,,,,,,,,,,,,,,,,,,,,,,,,,,,,,,,,,,,,,,,,,,1414.273760400014,None,,,,,,,,,,,,,,,,,,,,,,,,,,,,,,,,,,,,,,,,,,,,,,,,,,,,,,,,,priest,63,95,silent,old,blue,1412.0402138000354,None,y,1412.0402138000354,None,"['y', 'return']","[2.0468628000235185, 2.198540800018236]",1412.0402138000354,None,,,90YF,001,2023_Aug_31_1319,ExactRep-v3-final,2021.2.3,60.092686980583565,
,,,,,,,,,,,,95,0,95,0,,,,,,,,,,,,,,,,,,,,,,,,,,,,,,,,,,,,,,,,,,,,,,,,,1418.727978900075,None,,,,,,,,,,,,,,,,,,,,,,,,,,,,,,,,,,,,,,,,,,,,,,,,,,,,,,,,,chair,224,96,aloud,new,white,1414.7989778000629,None,n,1414.7989778000629,None,"['n', 'return']","[3.647722699912265, 3.87970209994819]",1414.7989778000629,None,,,90YF,001,2023_Aug_31_1319,ExactRep-v3-final,2021.2.3,60.092686980583565,
,,,,,,,,,,,,96,0,96,0,,,,,,,,,,,,,,,,,,,,,,,,,,,,,,,,,,,,,,,,,,,,,,,,,1421.2471018000506,None,,,,,,,,,,,,,,,,,,,,,,,,,,,,,,,,,,,,,,,,,,,,,,,,,,,,,,,,,passion,130,97,silent,new,blue,1419.2389027000172,None,n,1419.2389027000172,None,"['n', 'return']","[1.775792000000365, 1.967816699994728]",1419.2389027000172,None,,,90YF,001,2023_Aug_31_1319,ExactRep-v3-final,2021.2.3,60.092686980583565,
,,,,,,,,,,,,97,0,97,0,,,,,,,,,,,,,,,,,,,,,,,,,,,,,,,,,,,,,,,,,,,,,,,,,1422.8491365000373,None,,,,,,,,,,,,,,,,,,,,,,,,,,,,,,,,,,,,,,,,,,,,,,,,,,,,,,,,,plain,39,98,silent,old,blue,1421.7550968000432,None,n,1421.7550968000432,None,"['n', 'return']","[0.8675848999992013, 1.0596059000818059]",1421.7550968000432,None,,,90YF,001,2023_Aug_31_1319,ExactRep-v3-final,2021.2.3,60.092686980583565,
,,,,,,,,,,,,98,0,98,0,,,,,,,,,,,,,,,,,,,,,,,,,,,,,,,,,,,,,,,,,,,,,,,,,1425.251032600063,None,,,,,,,,,,,,,,,,,,,,,,,,,,,,,,,,,,,,,,,,,,,,,,,,,,,,,,,,,form,140,99,silent,new,blue,1423.3734272000147,None,y,1423.3734272000147,None,"['y', 'return']","[1.6575363000156358, 1.8412965000607073]",1423.3734272000147,None,,,90YF,001,2023_Aug_31_1319,ExactRep-v3-final,2021.2.3,60.092686980583565,
,,,,,,,,,,,,99,0,99,0,,,,,,,,,,,,,,,,,,,,,,,,,,,,,,,,,,,,,,,,,,,,,,,,,1426.9528822000138,None,,,,,,,,,,,,,,,,,,,,,,,,,,,,,,,,,,,,,,,,,,,,,,,,,,,,,,,,,car,234,100,aloud,new,white,1425.7697522999952,None,n,1425.7697522999952,None,"['n', 'return']","[0.900934899924323, 1.1408872000174597]",1425.7697522999952,None,,,90YF,001,2023_Aug_31_1319,ExactRep-v3-final,2021.2.3,60.092686980583565,
,,,,,,,,,,,,100,0,100,0,,,,,,,,,,,,,,,,,,,,,,,,,,,,,,,,,,,,,,,,,,,,,,,,,1428.8544410000322,None,,,,,,,,,,,,,,,,,,,,,,,,,,,,,,,,,,,,,,,,,,,,,,,,,,,,,,,,,steam,118,101,aloud,old,white,1427.4605586000253,None,y,1427.4605586000253,None,"['y', 'return']","[1.1381294999737293, 1.3541570999659598]",1427.4605586000253,None,,,90YF,001,2023_Aug_31_1319,ExactRep-v3-final,2021.2.3,60.092686980583565,
,,,,,,,,,,,,101,0,101,0,,,,,,,,,,,,,,,,,,,,,,,,,,,,,,,,,,,,,,,,,,,,,,,,,1431.074233100051,None,,,,,,,,,,,,,,,,,,,,,,,,,,,,,,,,,,,,,,,,,,,,,,,,,,,,,,,,,bird,176,102,aloud,new,white,1429.3551567000104,None,n,1429.3551567000104,None,"['n', 'return']","[1.4354474999709055, 1.6754647999769077]",1429.3551567000104,None,,,90YF,001,2023_Aug_31_1319,ExactRep-v3-final,2021.2.3,60.092686980583565,
,,,,,,,,,,,,102,0,102,0,,,,,,,,,,,,,,,,,,,,,,,,,,,,,,,,,,,,,,,,,,,,,,,,,1433.3423627000302,None,,,,,,,,,,,,,,,,,,,,,,,,,,,,,,,,,,,,,,,,,,,,,,,,,,,,,,,,,freedom,86,103,aloud,old,white,1431.5945520000532,None,y,1431.5945520000532,None,"['y', 'return']","[1.340115899918601, 1.7001830999506637]",1431.5945520000532,None,,,90YF,001,2023_Aug_31_1319,ExactRep-v3-final,2021.2.3,60.092686980583565,
,,,,,,,,,,,,103,0,103,0,,,,,,,,,,,,,,,,,,,,,,,,,,,,,,,,,,,,,,,,,,,,,,,,,1436.1288011000725,None,,,,,,,,,,,,,,,,,,,,,,,,,,,,,,,,,,,,,,,,,,,,,,,,,,,,,,,,,speech,139,104,silent,new,blue,1433.8612776000518,None,n,1433.8612776000518,None,"['n', 'return']","[2.009365899953991, 2.2333570999326184]",1433.8612776000518,None,,,90YF,001,2023_Aug_31_1319,ExactRep-v3-final,2021.2.3,60.092686980583565,
,,,,,,,,,,,,104,0,104,0,,,,,,,,,,,,,,,,,,,,,,,,,,,,,,,,,,,,,,,,,,,,,,,,,1439.3148523999844,None,,,,,,,,,,,,,,,,,,,,,,,,,,,,,,,,,,,,,,,,,,,,,,,,,,,,,,,,,answer,211,105,sing,new,red,1436.6628039000789,None,y,1436.6628039000789,None,"['y', 'return']","[2.3759332000045106, 2.6158518999582157]",1436.6628039000789,None,,,90YF,001,2023_Aug_31_1319,ExactRep-v3-final,2021.2.3,60.092686980583565,
,,,,,,,,,,,,105,0,105,0,,,,,,,,,,,,,,,,,,,,,,,,,,,,,,,,,,,,,,,,,,,,,,,,,1443.25226009998,None,,,,,,,,,,,,,,,,,,,,,,,,,,,,,,,,,,,,,,,,,,,,,,,,,,,,,,,,,window,173,106,sing,new,red,1439.8237860000227,None,n,1439.8237860000227,None,"['n', 'return']","[3.1508521999930963, 3.38283220003359]",1439.8237860000227,None,,,90YF,001,2023_Aug_31_1319,ExactRep-v3-final,2021.2.3,60.092686980583565,
,,,,,,,,,,,,106,0,106,0,,,,,,,,,,,,,,,,,,,,,,,,,,,,,,,,,,,,,,,,,,,,,,,,,1447.2725805999944,None,,,,,,,,,,,,,,,,,,,,,,,,,,,,,,,,,,,,,,,,,,,,,,,,,,,,,,,,,thought,150,107,silent,new,blue,1443.7606243999908,None,n,1443.7606243999908,None,"['n', 'return']","[3.270103699993342, 3.4780327000189573]",1443.7606243999908,None,,,90YF,001,2023_Aug_31_1319,ExactRep-v3-final,2021.2.3,60.092686980583565,
,,,,,,,,,,,,107,0,107,0,,,,,,,,,,,,,,,,,,,,,,,,,,,,,,,,,,,,,,,,,,,,,,,,,1449.2080372000346,None,,,,,,,,,,,,,,,,,,,,,,,,,,,,,,,,,,,,,,,,,,,,,,,,,,,,,,,,,string,82,108,aloud,old,white,1447.7875698000425,None,y,1447.7875698000425,None,"['y', 'return']","[1.1232065999647602, 1.387252299929969]",1447.7875698000425,None,,,90YF,001,2023_Aug_31_1319,ExactRep-v3-final,2021.2.3,60.092686980583565,
,,,,,,,,,,,,108,0,108,0,,,,,,,,,,,,,,,,,,,,,,,,,,,,,,,,,,,,,,,,,,,,,,,,,1451.3102485000854,None,,,,,,,,,,,,,,,,,,,,,,,,,,,,,,,,,,,,,,,,,,,,,,,,,,,,,,,,,truth,167,109,sing,new,red,1449.7086014000233,None,y,1449.7086014000233,None,"['y', 'return']","[1.354128499981016, 1.5541502999840304]",1449.7086014000233,None,,,90YF,001,2023_Aug_31_1319,ExactRep-v3-final,2021.2.3,60.092686980583565,
,,,,,,,,,,,,109,0,109,0,,,,,,,,,,,,,,,,,,,,,,,,,,,,,,,,,,,,,,,,,,,,,,,,,1453.2438112000236,None,,,,,,,,,,,,,,,,,,,,,,,,,,,,,,,,,,,,,,,,,,,,,,,,,,,,,,,,,skin,83,110,aloud,old,white,1451.8157759000314,None,y,1451.8157759000314,None,"['y', 'return']","[1.214886499918066, 1.3909185000229627]",1451.8157759000314,None,,,90YF,001,2023_Aug_31_1319,ExactRep-v3-final,2021.2.3,60.092686980583565,
,,,,,,,,,,,,110,0,110,0,,,,,,,,,,,,,,,,,,,,,,,,,,,,,,,,,,,,,,,,,,,,,,,,,1456.0972198999953,None,,,,,,,,,,,,,,,,,,,,,,,,,,,,,,,,,,,,,,,,,,,,,,,,,,,,,,,,,boulder,65,111,silent,old,blue,1453.7517183000455,None,y,1453.7517183000455,None,"['y', 'return']","[2.1433091999497265, 2.303074699942954]",1453.7517183000455,None,,,90YF,001,2023_Aug_31_1319,ExactRep-v3-final,2021.2.3,60.092686980583565,
,,,,,,,,,,,,111,0,111,0,,,,,,,,,,,,,,,,,,,,,,,,,,,,,,,,,,,,,,,,,,,,,,,,,1458.7678710999899,None,,,,,,,,,,,,,,,,,,,,,,,,,,,,,,,,,,,,,,,,,,,,,,,,,,,,,,,,,poet,119,112,aloud,old,white,1456.597795800073,None,n,1456.597795800073,None,"['n', 'return']","[1.3848087000660598, 2.1290714000351727]",1456.597795800073,None,,,90YF,001,2023_Aug_31_1319,ExactRep-v3-final,2021.2.3,60.092686980583565,
,,,,,,,,,,,,112,0,112,0,,,,,,,,,,,,,,,,,,,,,,,,,,,,,,,,,,,,,,,,,,,,,,,,,1460.5694217000855,None,,,,,,,,,,,,,,,,,,,,,,,,,,,,,,,,,,,,,,,,,,,,,,,,,,,,,,,,,fur,109,113,aloud,old,white,1459.2751462000888,None,y,1459.2751462000888,None,"['y', 'return']","[1.0757253000047058, 1.2515451000072062]",1459.2751462000888,None,,,90YF,001,2023_Aug_31_1319,ExactRep-v3-final,2021.2.3,60.092686980583565,
,,,,,,,,,,,,113,0,113,0,,,,,,,,,,,,,,,,,,,,,,,,,,,,,,,,,,,,,,,,,,,,,,,,,1463.2387833000394,None,,,,,,,,,,,,,,,,,,,,,,,,,,,,,,,,,,,,,,,,,,,,,,,,,,,,,,,,,door,187,114,sing,new,red,1461.0855525999796,None,n,1461.0855525999796,None,"['n', 'return']","[1.7770943999057636, 2.1051202999660745]",1461.0855525999796,None,,,90YF,001,2023_Aug_31_1319,ExactRep-v3-final,2021.2.3,60.092686980583565,
,,,,,,,,,,,,114,0,114,0,,,,,,,,,,,,,,,,,,,,,,,,,,,,,,,,,,,,,,,,,,,,,,,,,1464.8403656000737,None,,,,,,,,,,,,,,,,,,,,,,,,,,,,,,,,,,,,,,,,,,,,,,,,,,,,,,,,,dust,122,115,silent,new,blue,1463.746657300042,None,n,1463.746657300042,None,"['n', 'return']","[0.8279901000205427, 1.0599286999786273]",1463.746657300042,None,,,90YF,001,2023_Aug_31_1319,ExactRep-v3-final,2021.2.3,60.092686980583565,
,,,,,,,,,,,,115,0,115,0,,,,,,,,,,,,,,,,,,,,,,,,,,,,,,,,,,,,,,,,,,,,,,,,,1468.0926792999962,None,,,,,,,,,,,,,,,,,,,,,,,,,,,,,,,,,,,,,,,,,,,,,,,,,,,,,,,,,sugar,129,116,silent,new,blue,1465.3420272000367,None,n,1465.3420272000367,None,"['n', 'return']","[2.5126446000067517, 2.7046440999256447]",1465.3420272000367,None,,,90YF,001,2023_Aug_31_1319,ExactRep-v3-final,2021.2.3,60.092686980583565,
,,,,,,,,,,,,116,0,116,0,,,,,,,,,,,,,,,,,,,,,,,,,,,,,,,,,,,,,,,,,,,,,,,,,1470.4631580000278,None,,,,,,,,,,,,,,,,,,,,,,,,,,,,,,,,,,,,,,,,,,,,,,,,,,,,,,,,,meeting,170,117,aloud,new,white,1468.6031794000883,None,y,1468.6031794000883,None,"['y', 'return']","[1.6034973000641912, 1.819482900085859]",1468.6031794000883,None,,,90YF,001,2023_Aug_31_1319,ExactRep-v3-final,2021.2.3,60.092686980583565,
,,,,,,,,,,,,117,0,117,0,,,,,,,,,,,,,,,,,,,,,,,,,,,,,,,,,,,,,,,,,,,,,,,,,1472.281258800067,None,,,,,,,,,,,,,,,,,,,,,,,,,,,,,,,,,,,,,,,,,,,,,,,,,,,,,,,,,devil,186,118,aloud,new,white,1470.9737786999904,None,y,1470.9737786999904,None,"['y', 'return']","[0.9130418000277132, 1.2729116999544203]",1470.9737786999904,None,,,90YF,001,2023_Aug_31_1319,ExactRep-v3-final,2021.2.3,60.092686980583565,
,,,,,,,,,,,,118,0,118,0,,,,,,,,,,,,,,,,,,,,,,,,,,,,,,,,,,,,,,,,,,,,,,,,,1476.6361687000608,None,,,,,,,,,,,,,,,,,,,,,,,,,,,,,,,,,,,,,,,,,,,,,,,,,,,,,,,,,coin,52,119,silent,old,blue,1472.797923700069,None,n,1472.797923700069,None,"['n', 'return']","[3.59277640003711, 3.801055100047961]",1472.797923700069,None,,,90YF,001,2023_Aug_31_1319,ExactRep-v3-final,2021.2.3,60.092686980583565,
,,,,,,,,,,,,119,0,119,0,,,,,,,,,,,,,,,,,,,,,,,,,,,,,,,,,,,,,,,,,,,,,,,,,1478.6541566000087,None,,,,,,,,,,,,,,,,,,,,,,,,,,,,,,,,,,,,,,,,,,,,,,,,,,,,,,,,,crime,50,120,silent,old,blue,1477.1578084999928,None,y,1477.1578084999928,None,"['y', 'return']","[1.200763300061226, 1.4568419000133872]",1477.1578084999928,None,,,90YF,001,2023_Aug_31_1319,ExactRep-v3-final,2021.2.3,60.092686980583565,
,,,,,,,,,,,,120,0,120,0,,,,,,,,,,,,,,,,,,,,,,,,,,,,,,,,,,,,,,,,,,,,,,,,,1481.2250806000084,None,,,,,,,,,,,,,,,,,,,,,,,,,,,,,,,,,,,,,,,,,,,,,,,,,,,,,,,,,series,179,121,sing,new,red,1479.1553265000694,None,n,1479.1553265000694,None,"['n', 'return']","[1.6672533000819385, 2.019330400042236]",1479.1553265000694,None,,,90YF,001,2023_Aug_31_1319,ExactRep-v3-final,2021.2.3,60.092686980583565,
,,,,,,,,,,,,121,0,121,0,,,,,,,,,,,,,,,,,,,,,,,,,,,,,,,,,,,,,,,,,,,,,,,,,1484.5102061000653,None,,,,,,,,,,,,,,,,,,,,,,,,,,,,,,,,,,,,,,,,,,,,,,,,,,,,,,,,,temple,90,122,aloud,old,white,1481.7604490000522,None,y,1481.7604490000522,None,"['y', 'return']","[1.6783511999528855, 2.7101776000345126]",1481.7604490000522,None,,,90YF,001,2023_Aug_31_1319,ExactRep-v3-final,2021.2.3,60.092686980583565,
,,,,,,,,,,,,122,0,122,0,,,,,,,,,,,,,,,,,,,,,,,,,,,,,,,,,,,,,,,,,,,,,,,,,1486.7458965000696,None,,,,,,,,,,,,,,,,,,,,,,,,,,,,,,,,,,,,,,,,,,,,,,,,,,,,,,,,,lip,214,123,aloud,new,white,1485.0279117000755,None,n,1485.0279117000755,None,"['n', 'return']","[1.4027346998918802, 1.6747886999510229]",1485.0279117000755,None,,,90YF,001,2023_Aug_31_1319,ExactRep-v3-final,2021.2.3,60.092686980583565,
,,,,,,,,,,,,123,0,123,0,,,,,,,,,,,,,,,,,,,,,,,,,,,,,,,,,,,,,,,,,,,,,,,,,1489.2481532000238,None,,,,,,,,,,,,,,,,,,,,,,,,,,,,,,,,,,,,,,,,,,,,,,,,,,,,,,,,,boy,198,124,aloud,new,white,1487.2635537000606,None,n,1487.2635537000606,None,"['n', 'return']","[1.7430753000080585, 1.9431069999700412]",1487.2635537000606,None,,,90YF,001,2023_Aug_31_1319,ExactRep-v3-final,2021.2.3,60.092686980583565,
,,,,,,,,,,,,124,0,124,0,,,,,,,,,,,,,,,,,,,,,,,,,,,,,,,,,,,,,,,,,,,,,,,,,1490.9000550000928,None,,,,,,,,,,,,,,,,,,,,,,,,,,,,,,,,,,,,,,,,,,,,,,,,,,,,,,,,,earth,132,125,silent,new,blue,1489.7653742000693,None,n,1489.7653742000693,None,"['n', 'return']","[0.8812849000096321, 1.0892499000765383]",1489.7653742000693,None,,,90YF,001,2023_Aug_31_1319,ExactRep-v3-final,2021.2.3,60.092686980583565,
,,,,,,,,,,,,125,0,125,0,,,,,,,,,,,,,,,,,,,,,,,,,,,,,,,,,,,,,,,,,,,,,,,,,1493.151861899998,None,,,,,,,,,,,,,,,,,,,,,,,,,,,,,,,,,,,,,,,,,,,,,,,,,,,,,,,,,party,221,126,sing,new,red,1491.4152522999793,None,n,1491.4152522999793,None,"['n', 'return']","[1.4714460000395775, 1.687366500031203]",1491.4152522999793,None,,,90YF,001,2023_Aug_31_1319,ExactRep-v3-final,2021.2.3,60.092686980583565,
,,,,,,,,,,,,126,0,126,0,,,,,,,,,,,,,,,,,,,,,,,,,,,,,,,,,,,,,,,,,,,,,,,,,1495.5708822000306,None,,,,,,,,,,,,,,,,,,,,,,,,,,,,,,,,,,,,,,,,,,,,,,,,,,,,,,,,,leader,138,127,silent,new,blue,1493.653836900019,None,n,1493.653836900019,None,"['n', 'return']","[1.6887964999768883, 1.880847799940966]",1493.653836900019,None,,,90YF,001,2023_Aug_31_1319,ExactRep-v3-final,2021.2.3,60.092686980583565,
,,,,,,,,,,,,127,0,127,0,,,,,,,,,,,,,,,,,,,,,,,,,,,,,,,,,,,,,,,,,,,,,,,,,1497.8240691000829,None,,,,,,,,,,,,,,,,,,,,,,,,,,,,,,,,,,,,,,,,,,,,,,,,,,,,,,,,,effort,144,128,silent,new,blue,1496.087216300075,None,n,1496.087216300075,None,"['n', 'return']","[1.4394169000443071, 1.6874704000074416]",1496.087216300075,None,,,90YF,001,2023_Aug_31_1319,ExactRep-v3-final,2021.2.3,60.092686980583565,
,,,,,,,,,,,,128,0,128,0,,,,,,,,,,,,,,,,,,,,,,,,,,,,,,,,,,,,,,,,,,,,,,,,,1500.2088374000741,None,,,,,,,,,,,,,,,,,,,,,,,,,,,,,,,,,,,,,,,,,,,,,,,,,,,,,,,,,army,61,129,silent,old,blue,1498.3459716000361,None,n,1498.3459716000361,None,"['n', 'return']","[1.6686676000244915, 1.8287183999782428]",1498.3459716000361,None,,,90YF,001,2023_Aug_31_1319,ExactRep-v3-final,2021.2.3,60.092686980583565,
,,,,,,,,,,,,129,0,129,0,,,,,,,,,,,,,,,,,,,,,,,,,,,,,,,,,,,,,,,,,,,,,,,,,1502.2443517000647,None,,,,,,,,,,,,,,,,,,,,,,,,,,,,,,,,,,,,,,,,,,,,,,,,,,,,,,,,,tree,125,130,silent,new,blue,1500.7137520000106,None,y,1500.7137520000106,None,"['y', 'return']","[1.2848283000057563, 1.4929460999555886]",1500.7137520000106,None,,,90YF,001,2023_Aug_31_1319,ExactRep-v3-final,2021.2.3,60.092686980583565,
