trials_fam.thisRepN,trials_fam.thisTrialN,trials_fam.thisN,trials_fam.thisIndex,trials_prc.thisRepN,trials_prc.thisTrialN,trials_prc.thisN,trials_prc.thisIndex,StudyLoop.thisRepN,StudyLoop.thisTrialN,StudyLoop.thisN,StudyLoop.thisIndex,TestLoop.thisRepN,TestLoop.thisTrialN,TestLoop.thisN,TestLoop.thisIndex,text_colortest.started,text_colortest.stopped,key_colortest.keys,key_colortest.rt,key_colortest.started,key_colortest.stopped,textCondition.started,textCondition.stopped,keyCondition.keys,keyCondition.rt,keyCondition.started,keyCondition.stopped,Condition_between,Condition_counterbal,keyWelcome.keys,keyWelcome.rt,keyWelcome.started,keyWelcome.stopped,welcome_a.started,welcome_a.stopped,welcome_b.started,welcome_b.stopped,welcome_c.started,welcome_c.stopped,welcome_d.started,welcome_d.stopped,welcome_e.started,welcome_e.stopped,welcome_f.started,welcome_f.stopped,key_resp_fam_inst.keys,key_resp_fam_inst.rt,key_resp_fam_inst.started,key_resp_fam_inst.stopped,fam_a.started,fam_a.stopped,fam_b.started,fam_b.stopped,fam_c.started,fam_c.stopped,fam_d.started,fam_d.stopped,fam_e.started,fam_e.stopped,fam_f.started,fam_f.stopped,text_famil.started,text_famil.stopped,textBlank500.started,textBlank500.stopped,key_resp_prc_inst.keys,key_resp_prc_inst.rt,key_resp_prc_inst.started,key_resp_prc_inst.stopped,prac_a.started,prac_a.stopped,prac_b.started,prac_b.stopped,prac_c.started,prac_c.stopped,prac_d.started,prac_d.stopped,prac_e.started,prac_e.stopped,prac_f.started,prac_f.stopped,text_prc_trial.started,text_prc_trial.stopped,key_resp_study_inst.keys,key_resp_study_inst.rt,key_resp_study_inst.started,key_resp_study_inst.stopped,crit_a.started,crit_a.stopped,crit_b.started,crit_b.stopped,crit_c.started,crit_c.stopped,crit_d.started,crit_d.stopped,crit_e.started,crit_e.stopped,crit_f.started,crit_f.stopped,study_word,study_num,study_order,study_type,word_color,textStudy.started,textStudy.stopped,keyStudy.keys,keyStudy.started,keyStudy.stopped,post_study.started,post_study.stopped,key_resp_post_study.keys,key_resp_post_study.rt,key_resp_post_study.started,key_resp_post_study.stopped,test_inst.started,test_inst.stopped,key_resp_test_inst.keys,key_resp_test_inst.rt,key_resp_test_inst.started,key_resp_test_inst.stopped,test_word,test_num,test_order,test_condition,old_new_test,word_color_test,textConf.started,textConf.stopped,Participant Response,textInput.started,textInput.stopped,keyResp.keys,keyResp.rt,keyResp.started,keyResp.stopped,textEnd.started,textEnd.stopped,participant,session,date,expName,psychopyVersion,frameRate,
,,,,,,,,,,,,,,,,48.989337200066075,None,n,0.9465228000190109,48.989337200066075,None,,,,,,,,,,,,,,,,,,,,,,,,,,,,,,,,,,,,,,,,,,,,,,,,,,,,,,,,,,,,,,,,,,,,,,,,,,,,,,,,,,,,,,,,,,,,,,,,,,,,,,,,,,,,,,,,,,,,,,91NA,001,2023_Aug_31_1442,ExactRep-v3-final,2021.2.3,59.907825814760606,
,,,,,,,,,,,,,,,,,,,,,,49.96082470007241,None,a,0.4710301000159234,49.96082470007241,None,,,,,,,,,,,,,,,,,,,,,,,,,,,,,,,,,,,,,,,,,,,,,,,,,,,,,,,,,,,,,,,,,,,,,,,,,,,,,,,,,,,,,,,,,,,,,,,,,,,,,,,,,,,,,,,,91NA,001,2023_Aug_31_1442,ExactRep-v3-final,2021.2.3,59.907825814760606,
,,,,,,,,,,,,,,,,,,,,,,,,,,,,whitefoils,a,space,766.2517055999488,60.564069600077346,None,,,,,,,,,,,,,,,,,,,,,,,,,,,,,,,,,,,,,,,,,,,,,,,,,,,,,,,,,,,,,,,,,,,,,,,,,,,,,,,,,,,,,,,,,,,,,,,,,,,,,,,,,,91NA,001,2023_Aug_31_1442,ExactRep-v3-final,2021.2.3,59.907825814760606,
,,,,,,,,,,,,,,,,,,,,,,,,,,,,,,,,,,50.6145022000419,None,50.6145022000419,None,50.6145022000419,None,50.6145022000419,None,50.6145022000419,None,50.6145022000419,None,space,15.8512329000514,836.9885644000024,None,,,,,,,,,,,,,,,,,,,,,,,,,,,,,,,,,,,,,,,,,,,,,,,,,,,,,,,,,,,,,,,,,,,,,,,,,,,,,,,,,,,,,,,,,,91NA,001,2023_Aug_31_1442,ExactRep-v3-final,2021.2.3,59.907825814760606,
0,0,0,0,,,,,,,,,,,,,,,,,,,,,,,,,,,,,,,,,,,,,,,,,,,,,,,826.9801212000893,None,826.9801212000893,None,826.9801212000893,None,826.9801212000893,None,826.9801212000893,None,826.9801212000893,None,852.9190638000146,None,854.915279100067,None,,,,,,,,,,,,,,,,,,,,,,,,,,,,,,,,,,,,,,,,,,,,,,,,,,,,,,,,,,,,,,,,,,,,,,,,,,91NA,001,2023_Aug_31_1442,ExactRep-v3-final,2021.2.3,59.907825814760606,
1,0,1,0,,,,,,,,,,,,,,,,,,,,,,,,,,,,,,,,,,,,,,,,,,,,,,,,,,,,,,,,,,,855.4439987000078,None,857.433813599986,None,,,,,,,,,,,,,,,,,,,,,,,,,,,,,,,,,,,,,,,,,,,,,,,,,,,,,,,,,,,,,,,,,,,,,,,,,,91NA,001,2023_Aug_31_1442,ExactRep-v3-final,2021.2.3,59.907825814760606,
2,0,2,0,,,,,,,,,,,,,,,,,,,,,,,,,,,,,,,,,,,,,,,,,,,,,,,,,,,,,,,,,,,857.9343107000459,None,859.9367769000819,None,,,,,,,,,,,,,,,,,,,,,,,,,,,,,,,,,,,,,,,,,,,,,,,,,,,,,,,,,,,,,,,,,,,,,,,,,,91NA,001,2023_Aug_31_1442,ExactRep-v3-final,2021.2.3,59.907825814760606,
3,0,3,0,,,,,,,,,,,,,,,,,,,,,,,,,,,,,,,,,,,,,,,,,,,,,,,,,,,,,,,,,,,860.4371935999952,None,862.438796200091,None,,,,,,,,,,,,,,,,,,,,,,,,,,,,,,,,,,,,,,,,,,,,,,,,,,,,,,,,,,,,,,,,,,,,,,,,,,91NA,001,2023_Aug_31_1442,ExactRep-v3-final,2021.2.3,59.907825814760606,
4,0,4,0,,,,,,,,,,,,,,,,,,,,,,,,,,,,,,,,,,,,,,,,,,,,,,,,,,,,,,,,,,,862.9397725000745,None,864.9414810000453,None,,,,,,,,,,,,,,,,,,,,,,,,,,,,,,,,,,,,,,,,,,,,,,,,,,,,,,,,,,,,,,,,,,,,,,,,,,91NA,001,2023_Aug_31_1442,ExactRep-v3-final,2021.2.3,59.907825814760606,
5,0,5,0,,,,,,,,,,,,,,,,,,,,,,,,,,,,,,,,,,,,,,,,,,,,,,,,,,,,,,,,,,,865.4507466000505,None,867.4608306000009,None,,,,,,,,,,,,,,,,,,,,,,,,,,,,,,,,,,,,,,,,,,,,,,,,,,,,,,,,,,,,,,,,,,,,,,,,,,91NA,001,2023_Aug_31_1442,ExactRep-v3-final,2021.2.3,59.907825814760606,
6,0,6,0,,,,,,,,,,,,,,,,,,,,,,,,,,,,,,,,,,,,,,,,,,,,,,,,,,,,,,,,,,,867.9610852000769,None,869.9632191000273,None,,,,,,,,,,,,,,,,,,,,,,,,,,,,,,,,,,,,,,,,,,,,,,,,,,,,,,,,,,,,,,,,,,,,,,,,,,91NA,001,2023_Aug_31_1442,ExactRep-v3-final,2021.2.3,59.907825814760606,
7,0,7,0,,,,,,,,,,,,,,,,,,,,,,,,,,,,,,,,,,,,,,,,,,,,,,,,,,,,,,,,,,,870.4661391000263,None,872.4660965000512,None,,,,,,,,,,,,,,,,,,,,,,,,,,,,,,,,,,,,,,,,,,,,,,,,,,,,,,,,,,,,,,,,,,,,,,,,,,91NA,001,2023_Aug_31_1442,ExactRep-v3-final,2021.2.3,59.907825814760606,
8,0,8,0,,,,,,,,,,,,,,,,,,,,,,,,,,,,,,,,,,,,,,,,,,,,,,,,,,,,,,,,,,,872.9665386000415,None,874.9681089000078,None,,,,,,,,,,,,,,,,,,,,,,,,,,,,,,,,,,,,,,,,,,,,,,,,,,,,,,,,,,,,,,,,,,,,,,,,,,91NA,001,2023_Aug_31_1442,ExactRep-v3-final,2021.2.3,59.907825814760606,
9,0,9,0,,,,,,,,,,,,,,,,,,,,,,,,,,,,,,,,,,,,,,,,,,,,,,,,,,,,,,,,,,,875.4691751000937,None,877.4704930000007,None,,,,,,,,,,,,,,,,,,,,,,,,,,,,,,,,,,,,,,,,,,,,,,,,,,,,,,,,,,,,,,,,,,,,,,,,,,91NA,001,2023_Aug_31_1442,ExactRep-v3-final,2021.2.3,59.907825814760606,
10,0,10,0,,,,,,,,,,,,,,,,,,,,,,,,,,,,,,,,,,,,,,,,,,,,,,,,,,,,,,,,,,,877.9709914000705,None,879.973396699992,None,,,,,,,,,,,,,,,,,,,,,,,,,,,,,,,,,,,,,,,,,,,,,,,,,,,,,,,,,,,,,,,,,,,,,,,,,,91NA,001,2023_Aug_31_1442,ExactRep-v3-final,2021.2.3,59.907825814760606,
11,0,11,0,,,,,,,,,,,,,,,,,,,,,,,,,,,,,,,,,,,,,,,,,,,,,,,,,,,,,,,,,,,880.4775901000248,None,882.4924432000844,None,,,,,,,,,,,,,,,,,,,,,,,,,,,,,,,,,,,,,,,,,,,,,,,,,,,,,,,,,,,,,,,,,,,,,,,,,,91NA,001,2023_Aug_31_1442,ExactRep-v3-final,2021.2.3,59.907825814760606,
12,0,12,0,,,,,,,,,,,,,,,,,,,,,,,,,,,,,,,,,,,,,,,,,,,,,,,,,,,,,,,,,,,882.9946586000733,None,884.9953399000224,None,,,,,,,,,,,,,,,,,,,,,,,,,,,,,,,,,,,,,,,,,,,,,,,,,,,,,,,,,,,,,,,,,,,,,,,,,,91NA,001,2023_Aug_31_1442,ExactRep-v3-final,2021.2.3,59.907825814760606,
13,0,13,0,,,,,,,,,,,,,,,,,,,,,,,,,,,,,,,,,,,,,,,,,,,,,,,,,,,,,,,,,,,885.5004238000838,None,887.5141499000601,None,,,,,,,,,,,,,,,,,,,,,,,,,,,,,,,,,,,,,,,,,,,,,,,,,,,,,,,,,,,,,,,,,,,,,,,,,,91NA,001,2023_Aug_31_1442,ExactRep-v3-final,2021.2.3,59.907825814760606,
14,0,14,0,,,,,,,,,,,,,,,,,,,,,,,,,,,,,,,,,,,,,,,,,,,,,,,,,,,,,,,,,,,888.0154522000812,None,890.0167541000992,None,,,,,,,,,,,,,,,,,,,,,,,,,,,,,,,,,,,,,,,,,,,,,,,,,,,,,,,,,,,,,,,,,,,,,,,,,,91NA,001,2023_Aug_31_1442,ExactRep-v3-final,2021.2.3,59.907825814760606,
,,,,,,,,,,,,,,,,,,,,,,,,,,,,,,,,,,,,,,,,,,,,,,,,,,,,,,,,,,,,,,,,,,space,18.501662699971348,900.6501283000689,None,,,,,,,,,,,,,,,,,,,,,,,,,,,,,,,,,,,,,,,,,,,,,,,,,,,,,,,,,,,,,,,,,,,,,,91NA,001,2023_Aug_31_1442,ExactRep-v3-final,2021.2.3,59.907825814760606,
,,,,0,0,0,0,,,,,,,,,,,,,,,,,,,,,,,,,,,,,,,,,,,,,,,,,,,,,,,,,,,,,,,,,921.2147230000701,None,,,,,890.668805400026,None,890.668805400026,None,890.668805400026,None,890.668805400026,None,890.668805400026,None,890.668805400026,None,919.2139882000629,None,,,,,,,,,,,,,,,,,,,,,,,,,,,,,,,,,,,,,,,,,,,,,,,,,,,,,,,,91NA,001,2023_Aug_31_1442,ExactRep-v3-final,2021.2.3,59.907825814760606,
,,,,1,0,1,0,,,,,,,,,,,,,,,,,,,,,,,,,,,,,,,,,,,,,,,,,,,,,,,,,,,,,,,,,923.7166169000557,None,,,,,,,,,,,,,,,,,921.7155019000638,None,,,,,,,,,,,,,,,,,,,,,,,,,,,,,,,,,,,,,,,,,,,,,,,,,,,,,,,,91NA,001,2023_Aug_31_1442,ExactRep-v3-final,2021.2.3,59.907825814760606,
,,,,2,0,2,0,,,,,,,,,,,,,,,,,,,,,,,,,,,,,,,,,,,,,,,,,,,,,,,,,,,,,,,,,926.2191104000667,None,,,,,,,,,,,,,,,,,924.2171989000635,None,,,,,,,,,,,,,,,,,,,,,,,,,,,,,,,,,,,,,,,,,,,,,,,,,,,,,,,,91NA,001,2023_Aug_31_1442,ExactRep-v3-final,2021.2.3,59.907825814760606,
,,,,3,0,3,0,,,,,,,,,,,,,,,,,,,,,,,,,,,,,,,,,,,,,,,,,,,,,,,,,,,,,,,,,928.7224652000004,None,,,,,,,,,,,,,,,,,926.7199847000884,None,,,,,,,,,,,,,,,,,,,,,,,,,,,,,,,,,,,,,,,,,,,,,,,,,,,,,,,,91NA,001,2023_Aug_31_1442,ExactRep-v3-final,2021.2.3,59.907825814760606,
,,,,4,0,4,0,,,,,,,,,,,,,,,,,,,,,,,,,,,,,,,,,,,,,,,,,,,,,,,,,,,,,,,,,931.2241993000498,None,,,,,,,,,,,,,,,,,929.2223203000613,None,,,,,,,,,,,,,,,,,,,,,,,,,,,,,,,,,,,,,,,,,,,,,,,,,,,,,,,,91NA,001,2023_Aug_31_1442,ExactRep-v3-final,2021.2.3,59.907825814760606,
,,,,5,0,5,0,,,,,,,,,,,,,,,,,,,,,,,,,,,,,,,,,,,,,,,,,,,,,,,,,,,,,,,,,933.7271892999997,None,,,,,,,,,,,,,,,,,931.7249239000957,None,,,,,,,,,,,,,,,,,,,,,,,,,,,,,,,,,,,,,,,,,,,,,,,,,,,,,,,,91NA,001,2023_Aug_31_1442,ExactRep-v3-final,2021.2.3,59.907825814760606,
,,,,6,0,6,0,,,,,,,,,,,,,,,,,,,,,,,,,,,,,,,,,,,,,,,,,,,,,,,,,,,,,,,,,936.2291691000573,None,,,,,,,,,,,,,,,,,934.2275385000976,None,,,,,,,,,,,,,,,,,,,,,,,,,,,,,,,,,,,,,,,,,,,,,,,,,,,,,,,,91NA,001,2023_Aug_31_1442,ExactRep-v3-final,2021.2.3,59.907825814760606,
,,,,7,0,7,0,,,,,,,,,,,,,,,,,,,,,,,,,,,,,,,,,,,,,,,,,,,,,,,,,,,,,,,,,938.7319837000687,None,,,,,,,,,,,,,,,,,936.7296334999846,None,,,,,,,,,,,,,,,,,,,,,,,,,,,,,,,,,,,,,,,,,,,,,,,,,,,,,,,,91NA,001,2023_Aug_31_1442,ExactRep-v3-final,2021.2.3,59.907825814760606,
,,,,8,0,8,0,,,,,,,,,,,,,,,,,,,,,,,,,,,,,,,,,,,,,,,,,,,,,,,,,,,,,,,,,941.2344522000058,None,,,,,,,,,,,,,,,,,939.2325900000287,None,,,,,,,,,,,,,,,,,,,,,,,,,,,,,,,,,,,,,,,,,,,,,,,,,,,,,,,,91NA,001,2023_Aug_31_1442,ExactRep-v3-final,2021.2.3,59.907825814760606,
,,,,9,0,9,0,,,,,,,,,,,,,,,,,,,,,,,,,,,,,,,,,,,,,,,,,,,,,,,,,,,,,,,,,943.7370836000191,None,,,,,,,,,,,,,,,,,941.7349898000248,None,,,,,,,,,,,,,,,,,,,,,,,,,,,,,,,,,,,,,,,,,,,,,,,,,,,,,,,,91NA,001,2023_Aug_31_1442,ExactRep-v3-final,2021.2.3,59.907825814760606,
,,,,10,0,10,0,,,,,,,,,,,,,,,,,,,,,,,,,,,,,,,,,,,,,,,,,,,,,,,,,,,,,,,,,946.2395480000414,None,,,,,,,,,,,,,,,,,944.2374839000404,None,,,,,,,,,,,,,,,,,,,,,,,,,,,,,,,,,,,,,,,,,,,,,,,,,,,,,,,,91NA,001,2023_Aug_31_1442,ExactRep-v3-final,2021.2.3,59.907825814760606,
,,,,11,0,11,0,,,,,,,,,,,,,,,,,,,,,,,,,,,,,,,,,,,,,,,,,,,,,,,,,,,,,,,,,948.7421250999905,None,,,,,,,,,,,,,,,,,946.739956800011,None,,,,,,,,,,,,,,,,,,,,,,,,,,,,,,,,,,,,,,,,,,,,,,,,,,,,,,,,91NA,001,2023_Aug_31_1442,ExactRep-v3-final,2021.2.3,59.907825814760606,
,,,,12,0,12,0,,,,,,,,,,,,,,,,,,,,,,,,,,,,,,,,,,,,,,,,,,,,,,,,,,,,,,,,,951.2443539000815,None,,,,,,,,,,,,,,,,,949.2425033000764,None,,,,,,,,,,,,,,,,,,,,,,,,,,,,,,,,,,,,,,,,,,,,,,,,,,,,,,,,91NA,001,2023_Aug_31_1442,ExactRep-v3-final,2021.2.3,59.907825814760606,
,,,,13,0,13,0,,,,,,,,,,,,,,,,,,,,,,,,,,,,,,,,,,,,,,,,,,,,,,,,,,,,,,,,,953.7466288000578,None,,,,,,,,,,,,,,,,,951.7450316000031,None,,,,,,,,,,,,,,,,,,,,,,,,,,,,,,,,,,,,,,,,,,,,,,,,,,,,,,,,91NA,001,2023_Aug_31_1442,ExactRep-v3-final,2021.2.3,59.907825814760606,
,,,,14,0,14,0,,,,,,,,,,,,,,,,,,,,,,,,,,,,,,,,,,,,,,,,,,,,,,,,,,,,,,,,,956.2496197000146,None,,,,,,,,,,,,,,,,,954.2471877000062,None,,,,,,,,,,,,,,,,,,,,,,,,,,,,,,,,,,,,,,,,,,,,,,,,,,,,,,,,91NA,001,2023_Aug_31_1442,ExactRep-v3-final,2021.2.3,59.907825814760606,
,,,,,,,,,,,,,,,,,,,,,,,,,,,,,,,,,,,,,,,,,,,,,,,,,,,,,,,,,,,,,,,,,,,,,,,,,,,,,,,,,,,,space,18.616038499982096,966.8556305000093,None,,,,,,,,,,,,,,,,,,,,,,,,,,,,,,,,,,,,,,,,,,,,,,,,,,,,91NA,001,2023_Aug_31_1442,ExactRep-v3-final,2021.2.3,59.907825814760606,
,,,,,,,,0,0,0,0,,,,,,,,,,,,,,,,,,,,,,,,,,,,,,,,,,,,,,,,,,,,,,,,,,,,,987.5468807000434,None,,,,,,,,,,,,,,,,,,,,,,,956.9100051000714,None,956.9100051000714,None,956.9100051000714,None,956.9100051000714,None,956.9100051000714,None,956.9100051000714,None,hotel,89,1,aloud,red,985.5471222000197,None,None,985.5471222000197,None,,,,,,,,,,,,,,,,,,,,,,,,,,,,,,91NA,001,2023_Aug_31_1442,ExactRep-v3-final,2021.2.3,59.907825814760606,
,,,,,,,,1,0,1,0,,,,,,,,,,,,,,,,,,,,,,,,,,,,,,,,,,,,,,,,,,,,,,,,,,,,,990.0665869000368,None,,,,,,,,,,,,,,,,,,,,,,,,,,,,,,,,,,,circle,65,2,silent,blue,988.0574303000467,None,None,988.0574303000467,None,,,,,,,,,,,,,,,,,,,,,,,,,,,,,,91NA,001,2023_Aug_31_1442,ExactRep-v3-final,2021.2.3,59.907825814760606,
,,,,,,,,2,0,2,0,,,,,,,,,,,,,,,,,,,,,,,,,,,,,,,,,,,,,,,,,,,,,,,,,,,,,992.5688764000079,None,,,,,,,,,,,,,,,,,,,,,,,,,,,,,,,,,,,steam,31,3,sing,white,990.5671150999842,None,None,990.5671150999842,None,,,,,,,,,,,,,,,,,,,,,,,,,,,,,,91NA,001,2023_Aug_31_1442,ExactRep-v3-final,2021.2.3,59.907825814760606,
,,,,,,,,3,0,3,0,,,,,,,,,,,,,,,,,,,,,,,,,,,,,,,,,,,,,,,,,,,,,,,,,,,,,995.0791888000676,None,,,,,,,,,,,,,,,,,,,,,,,,,,,,,,,,,,,lad,69,4,silent,blue,993.0704938999843,None,None,993.0704938999843,None,,,,,,,,,,,,,,,,,,,,,,,,,,,,,,91NA,001,2023_Aug_31_1442,ExactRep-v3-final,2021.2.3,59.907825814760606,
,,,,,,,,4,0,4,0,,,,,,,,,,,,,,,,,,,,,,,,,,,,,,,,,,,,,,,,,,,,,,,,,,,,,997.5905415000161,None,,,,,,,,,,,,,,,,,,,,,,,,,,,,,,,,,,,grief,108,5,aloud,red,995.5886761000147,None,None,995.5886761000147,None,,,,,,,,,,,,,,,,,,,,,,,,,,,,,,91NA,001,2023_Aug_31_1442,ExactRep-v3-final,2021.2.3,59.907825814760606,
,,,,,,,,5,0,5,0,,,,,,,,,,,,,,,,,,,,,,,,,,,,,,,,,,,,,,,,,,,,,,,,,,,,,1000.1098689000355,None,,,,,,,,,,,,,,,,,,,,,,,,,,,,,,,,,,,heaven,73,6,silent,blue,998.0951611000346,None,None,998.0951611000346,None,,,,,,,,,,,,,,,,,,,,,,,,,,,,,,91NA,001,2023_Aug_31_1442,ExactRep-v3-final,2021.2.3,59.907825814760606,
,,,,,,,,6,0,6,0,,,,,,,,,,,,,,,,,,,,,,,,,,,,,,,,,,,,,,,,,,,,,,,,,,,,,1002.6126374000451,None,,,,,,,,,,,,,,,,,,,,,,,,,,,,,,,,,,,mother,36,7,sing,white,1000.6124317999929,None,None,1000.6124317999929,None,,,,,,,,,,,,,,,,,,,,,,,,,,,,,,91NA,001,2023_Aug_31_1442,ExactRep-v3-final,2021.2.3,59.907825814760606,
,,,,,,,,7,0,7,0,,,,,,,,,,,,,,,,,,,,,,,,,,,,,,,,,,,,,,,,,,,,,,,,,,,,,1005.1317500000587,None,,,,,,,,,,,,,,,,,,,,,,,,,,,,,,,,,,,vision,27,8,sing,white,1003.1168876000447,None,None,1003.1168876000447,None,,,,,,,,,,,,,,,,,,,,,,,,,,,,,,91NA,001,2023_Aug_31_1442,ExactRep-v3-final,2021.2.3,59.907825814760606,
,,,,,,,,8,0,8,0,,,,,,,,,,,,,,,,,,,,,,,,,,,,,,,,,,,,,,,,,,,,,,,,,,,,,1007.6504893000238,None,,,,,,,,,,,,,,,,,,,,,,,,,,,,,,,,,,,beast,22,9,sing,white,1005.6363673000596,None,None,1005.6363673000596,None,,,,,,,,,,,,,,,,,,,,,,,,,,,,,,91NA,001,2023_Aug_31_1442,ExactRep-v3-final,2021.2.3,59.907825814760606,
,,,,,,,,9,0,9,0,,,,,,,,,,,,,,,,,,,,,,,,,,,,,,,,,,,,,,,,,,,,,,,,,,,,,1010.1700414000079,None,,,,,,,,,,,,,,,,,,,,,,,,,,,,,,,,,,,fault,2,10,sing,white,1008.1547191999853,None,None,1008.1547191999853,None,,,,,,,,,,,,,,,,,,,,,,,,,,,,,,91NA,001,2023_Aug_31_1442,ExactRep-v3-final,2021.2.3,59.907825814760606,
,,,,,,,,10,0,10,0,,,,,,,,,,,,,,,,,,,,,,,,,,,,,,,,,,,,,,,,,,,,,,,,,,,,,1012.6721603000769,None,,,,,,,,,,,,,,,,,,,,,,,,,,,,,,,,,,,health,45,11,silent,blue,1010.6701770999935,None,None,1010.6701770999935,None,,,,,,,,,,,,,,,,,,,,,,,,,,,,,,91NA,001,2023_Aug_31_1442,ExactRep-v3-final,2021.2.3,59.907825814760606,
,,,,,,,,11,0,11,0,,,,,,,,,,,,,,,,,,,,,,,,,,,,,,,,,,,,,,,,,,,,,,,,,,,,,1015.1748998000985,None,,,,,,,,,,,,,,,,,,,,,,,,,,,,,,,,,,,village,71,12,silent,blue,1013.1728933000704,None,None,1013.1728933000704,None,,,,,,,,,,,,,,,,,,,,,,,,,,,,,,91NA,001,2023_Aug_31_1442,ExactRep-v3-final,2021.2.3,59.907825814760606,
,,,,,,,,12,0,12,0,,,,,,,,,,,,,,,,,,,,,,,,,,,,,,,,,,,,,,,,,,,,,,,,,,,,,1017.6942497000564,None,,,,,,,,,,,,,,,,,,,,,,,,,,,,,,,,,,,shoes,113,13,aloud,red,1015.680181600037,None,None,1015.680181600037,None,,,,,,,,,,,,,,,,,,,,,,,,,,,,,,91NA,001,2023_Aug_31_1442,ExactRep-v3-final,2021.2.3,59.907825814760606,
,,,,,,,,13,0,13,0,,,,,,,,,,,,,,,,,,,,,,,,,,,,,,,,,,,,,,,,,,,,,,,,,,,,,1020.212937900098,None,,,,,,,,,,,,,,,,,,,,,,,,,,,,,,,,,,,army,34,14,sing,white,1018.2013755000662,None,None,1018.2013755000662,None,,,,,,,,,,,,,,,,,,,,,,,,,,,,,,91NA,001,2023_Aug_31_1442,ExactRep-v3-final,2021.2.3,59.907825814760606,
,,,,,,,,14,0,14,0,,,,,,,,,,,,,,,,,,,,,,,,,,,,,,,,,,,,,,,,,,,,,,,,,,,,,1022.7161532000173,None,,,,,,,,,,,,,,,,,,,,,,,,,,,,,,,,,,,money,99,15,aloud,red,1020.7137591000646,None,None,1020.7137591000646,None,,,,,,,,,,,,,,,,,,,,,,,,,,,,,,91NA,001,2023_Aug_31_1442,ExactRep-v3-final,2021.2.3,59.907825814760606,
,,,,,,,,15,0,15,0,,,,,,,,,,,,,,,,,,,,,,,,,,,,,,,,,,,,,,,,,,,,,,,,,,,,,1025.2348058000207,None,,,,,,,,,,,,,,,,,,,,,,,,,,,,,,,,,,,meadow,95,16,aloud,red,1023.2254810000304,None,None,1023.2254810000304,None,,,,,,,,,,,,,,,,,,,,,,,,,,,,,,91NA,001,2023_Aug_31_1442,ExactRep-v3-final,2021.2.3,59.907825814760606,
,,,,,,,,16,0,16,0,,,,,,,,,,,,,,,,,,,,,,,,,,,,,,,,,,,,,,,,,,,,,,,,,,,,,1027.7539030000335,None,,,,,,,,,,,,,,,,,,,,,,,,,,,,,,,,,,,letter,70,17,silent,blue,1025.7383085000329,None,None,1025.7383085000329,None,,,,,,,,,,,,,,,,,,,,,,,,,,,,,,91NA,001,2023_Aug_31_1442,ExactRep-v3-final,2021.2.3,59.907825814760606,
,,,,,,,,17,0,17,0,,,,,,,,,,,,,,,,,,,,,,,,,,,,,,,,,,,,,,,,,,,,,,,,,,,,,1030.2732441000408,None,,,,,,,,,,,,,,,,,,,,,,,,,,,,,,,,,,,table,80,18,aloud,red,1028.259394600056,None,None,1028.259394600056,None,,,,,,,,,,,,,,,,,,,,,,,,,,,,,,91NA,001,2023_Aug_31_1442,ExactRep-v3-final,2021.2.3,59.907825814760606,
,,,,,,,,18,0,18,0,,,,,,,,,,,,,,,,,,,,,,,,,,,,,,,,,,,,,,,,,,,,,,,,,,,,,1032.7757155,None,,,,,,,,,,,,,,,,,,,,,,,,,,,,,,,,,,,person,55,19,silent,blue,1030.7755001999903,None,None,1030.7755001999903,None,,,,,,,,,,,,,,,,,,,,,,,,,,,,,,91NA,001,2023_Aug_31_1442,ExactRep-v3-final,2021.2.3,59.907825814760606,
,,,,,,,,19,0,19,0,,,,,,,,,,,,,,,,,,,,,,,,,,,,,,,,,,,,,,,,,,,,,,,,,,,,,1035.2960102000507,None,,,,,,,,,,,,,,,,,,,,,,,,,,,,,,,,,,,glory,35,20,sing,white,1033.2796475000214,None,None,1033.2796475000214,None,,,,,,,,,,,,,,,,,,,,,,,,,,,,,,91NA,001,2023_Aug_31_1442,ExactRep-v3-final,2021.2.3,59.907825814760606,
,,,,,,,,20,0,20,0,,,,,,,,,,,,,,,,,,,,,,,,,,,,,,,,,,,,,,,,,,,,,,,,,,,,,1037.7971443000715,None,,,,,,,,,,,,,,,,,,,,,,,,,,,,,,,,,,,insect,66,21,silent,blue,1035.7978137000464,None,None,1035.7978137000464,None,,,,,,,,,,,,,,,,,,,,,,,,,,,,,,91NA,001,2023_Aug_31_1442,ExactRep-v3-final,2021.2.3,59.907825814760606,
,,,,,,,,21,0,21,0,,,,,,,,,,,,,,,,,,,,,,,,,,,,,,,,,,,,,,,,,,,,,,,,,,,,,1040.300494800089,None,,,,,,,,,,,,,,,,,,,,,,,,,,,,,,,,,,,event,102,22,aloud,red,1038.2981501000468,None,None,1038.2981501000468,None,,,,,,,,,,,,,,,,,,,,,,,,,,,,,,91NA,001,2023_Aug_31_1442,ExactRep-v3-final,2021.2.3,59.907825814760606,
,,,,,,,,22,0,22,0,,,,,,,,,,,,,,,,,,,,,,,,,,,,,,,,,,,,,,,,,,,,,,,,,,,,,1042.802317900001,None,,,,,,,,,,,,,,,,,,,,,,,,,,,,,,,,,,,blossom,87,23,aloud,red,1040.8026381999953,None,None,1040.8026381999953,None,,,,,,,,,,,,,,,,,,,,,,,,,,,,,,91NA,001,2023_Aug_31_1442,ExactRep-v3-final,2021.2.3,59.907825814760606,
,,,,,,,,23,0,23,0,,,,,,,,,,,,,,,,,,,,,,,,,,,,,,,,,,,,,,,,,,,,,,,,,,,,,1045.3050744000357,None,,,,,,,,,,,,,,,,,,,,,,,,,,,,,,,,,,,water,114,24,aloud,red,1043.3038033000194,None,None,1043.3038033000194,None,,,,,,,,,,,,,,,,,,,,,,,,,,,,,,91NA,001,2023_Aug_31_1442,ExactRep-v3-final,2021.2.3,59.907825814760606,
,,,,,,,,24,0,24,0,,,,,,,,,,,,,,,,,,,,,,,,,,,,,,,,,,,,,,,,,,,,,,,,,,,,,1047.8240723999916,None,,,,,,,,,,,,,,,,,,,,,,,,,,,,,,,,,,,potato,21,25,sing,white,1045.8100983999902,None,None,1045.8100983999902,None,,,,,,,,,,,,,,,,,,,,,,,,,,,,,,91NA,001,2023_Aug_31_1442,ExactRep-v3-final,2021.2.3,59.907825814760606,
,,,,,,,,25,0,25,0,,,,,,,,,,,,,,,,,,,,,,,,,,,,,,,,,,,,,,,,,,,,,,,,,,,,,1050.3265747000696,None,,,,,,,,,,,,,,,,,,,,,,,,,,,,,,,,,,,truth,86,26,aloud,red,1048.324431200046,None,None,1048.324431200046,None,,,,,,,,,,,,,,,,,,,,,,,,,,,,,,91NA,001,2023_Aug_31_1442,ExactRep-v3-final,2021.2.3,59.907825814760606,
,,,,,,,,26,0,26,0,,,,,,,,,,,,,,,,,,,,,,,,,,,,,,,,,,,,,,,,,,,,,,,,,,,,,1052.8290848000906,None,,,,,,,,,,,,,,,,,,,,,,,,,,,,,,,,,,,moment,51,27,silent,blue,1050.8290911000222,None,None,1050.8290911000222,None,,,,,,,,,,,,,,,,,,,,,,,,,,,,,,91NA,001,2023_Aug_31_1442,ExactRep-v3-final,2021.2.3,59.907825814760606,
,,,,,,,,27,0,27,0,,,,,,,,,,,,,,,,,,,,,,,,,,,,,,,,,,,,,,,,,,,,,,,,,,,,,1055.3487560000503,None,,,,,,,,,,,,,,,,,,,,,,,,,,,,,,,,,,,dawn,59,28,silent,blue,1053.3335045999847,None,None,1053.3335045999847,None,,,,,,,,,,,,,,,,,,,,,,,,,,,,,,91NA,001,2023_Aug_31_1442,ExactRep-v3-final,2021.2.3,59.907825814760606,
,,,,,,,,28,0,28,0,,,,,,,,,,,,,,,,,,,,,,,,,,,,,,,,,,,,,,,,,,,,,,,,,,,,,1057.8676644000225,None,,,,,,,,,,,,,,,,,,,,,,,,,,,,,,,,,,,shame,96,29,aloud,red,1055.8547079000855,None,None,1055.8547079000855,None,,,,,,,,,,,,,,,,,,,,,,,,,,,,,,91NA,001,2023_Aug_31_1442,ExactRep-v3-final,2021.2.3,59.907825814760606,
,,,,,,,,29,0,29,0,,,,,,,,,,,,,,,,,,,,,,,,,,,,,,,,,,,,,,,,,,,,,,,,,,,,,1060.3867975000758,None,,,,,,,,,,,,,,,,,,,,,,,,,,,,,,,,,,,board,49,30,silent,blue,1058.378888700041,None,None,1058.378888700041,None,,,,,,,,,,,,,,,,,,,,,,,,,,,,,,91NA,001,2023_Aug_31_1442,ExactRep-v3-final,2021.2.3,59.907825814760606,
,,,,,,,,30,0,30,0,,,,,,,,,,,,,,,,,,,,,,,,,,,,,,,,,,,,,,,,,,,,,,,,,,,,,1062.905680200085,None,,,,,,,,,,,,,,,,,,,,,,,,,,,,,,,,,,,book,23,31,sing,white,1060.8917035000632,None,None,1060.8917035000632,None,,,,,,,,,,,,,,,,,,,,,,,,,,,,,,91NA,001,2023_Aug_31_1442,ExactRep-v3-final,2021.2.3,59.907825814760606,
,,,,,,,,31,0,31,0,,,,,,,,,,,,,,,,,,,,,,,,,,,,,,,,,,,,,,,,,,,,,,,,,,,,,1065.408200600068,None,,,,,,,,,,,,,,,,,,,,,,,,,,,,,,,,,,,love,5,32,sing,white,1063.4063389000949,None,None,1063.4063389000949,None,,,,,,,,,,,,,,,,,,,,,,,,,,,,,,91NA,001,2023_Aug_31_1442,ExactRep-v3-final,2021.2.3,59.907825814760606,
,,,,,,,,32,0,32,0,,,,,,,,,,,,,,,,,,,,,,,,,,,,,,,,,,,,,,,,,,,,,,,,,,,,,1067.9273747000843,None,,,,,,,,,,,,,,,,,,,,,,,,,,,,,,,,,,,party,29,33,sing,white,1065.9143464000663,None,None,1065.9143464000663,None,,,,,,,,,,,,,,,,,,,,,,,,,,,,,,91NA,001,2023_Aug_31_1442,ExactRep-v3-final,2021.2.3,59.907825814760606,
,,,,,,,,33,0,33,0,,,,,,,,,,,,,,,,,,,,,,,,,,,,,,,,,,,,,,,,,,,,,,,,,,,,,1070.4471122000832,None,,,,,,,,,,,,,,,,,,,,,,,,,,,,,,,,,,,rock,91,34,aloud,red,1068.4325091000646,None,None,1068.4325091000646,None,,,,,,,,,,,,,,,,,,,,,,,,,,,,,,91NA,001,2023_Aug_31_1442,ExactRep-v3-final,2021.2.3,59.907825814760606,
,,,,,,,,34,0,34,0,,,,,,,,,,,,,,,,,,,,,,,,,,,,,,,,,,,,,,,,,,,,,,,,,,,,,1072.9491792999906,None,,,,,,,,,,,,,,,,,,,,,,,,,,,,,,,,,,,devil,17,35,sing,white,1070.9471130000893,None,None,1070.9471130000893,None,,,,,,,,,,,,,,,,,,,,,,,,,,,,,,91NA,001,2023_Aug_31_1442,ExactRep-v3-final,2021.2.3,59.907825814760606,
,,,,,,,,35,0,35,0,,,,,,,,,,,,,,,,,,,,,,,,,,,,,,,,,,,,,,,,,,,,,,,,,,,,,1075.4707123000408,None,,,,,,,,,,,,,,,,,,,,,,,,,,,,,,,,,,,journal,93,36,aloud,red,1073.455000200076,None,None,1073.455000200076,None,,,,,,,,,,,,,,,,,,,,,,,,,,,,,,91NA,001,2023_Aug_31_1442,ExactRep-v3-final,2021.2.3,59.907825814760606,
,,,,,,,,36,0,36,0,,,,,,,,,,,,,,,,,,,,,,,,,,,,,,,,,,,,,,,,,,,,,,,,,,,,,1077.9877606000518,None,,,,,,,,,,,,,,,,,,,,,,,,,,,,,,,,,,,cottage,94,37,aloud,red,1075.9760735000018,None,None,1075.9760735000018,None,,,,,,,,,,,,,,,,,,,,,,,,,,,,,,91NA,001,2023_Aug_31_1442,ExactRep-v3-final,2021.2.3,59.907825814760606,
,,,,,,,,37,0,37,0,,,,,,,,,,,,,,,,,,,,,,,,,,,,,,,,,,,,,,,,,,,,,,,,,,,,,1080.5093158000382,None,,,,,,,,,,,,,,,,,,,,,,,,,,,,,,,,,,,doctor,47,38,silent,blue,1078.4975391000044,None,None,1078.4975391000044,None,,,,,,,,,,,,,,,,,,,,,,,,,,,,,,91NA,001,2023_Aug_31_1442,ExactRep-v3-final,2021.2.3,59.907825814760606,
,,,,,,,,38,0,38,0,,,,,,,,,,,,,,,,,,,,,,,,,,,,,,,,,,,,,,,,,,,,,,,,,,,,,1083.0264824000187,None,,,,,,,,,,,,,,,,,,,,,,,,,,,,,,,,,,,length,14,39,sing,white,1081.0109901000978,None,None,1081.0109901000978,None,,,,,,,,,,,,,,,,,,,,,,,,,,,,,,91NA,001,2023_Aug_31_1442,ExactRep-v3-final,2021.2.3,59.907825814760606,
,,,,,,,,39,0,39,0,,,,,,,,,,,,,,,,,,,,,,,,,,,,,,,,,,,,,,,,,,,,,,,,,,,,,1085.528473100043,None,,,,,,,,,,,,,,,,,,,,,,,,,,,,,,,,,,,king,13,40,sing,white,1083.5265727000078,None,None,1083.5265727000078,None,,,,,,,,,,,,,,,,,,,,,,,,,,,,,,91NA,001,2023_Aug_31_1442,ExactRep-v3-final,2021.2.3,59.907825814760606,
,,,,,,,,40,0,40,0,,,,,,,,,,,,,,,,,,,,,,,,,,,,,,,,,,,,,,,,,,,,,,,,,,,,,1088.0308607000625,None,,,,,,,,,,,,,,,,,,,,,,,,,,,,,,,,,,,tool,52,41,silent,blue,1086.0309872000944,None,None,1086.0309872000944,None,,,,,,,,,,,,,,,,,,,,,,,,,,,,,,91NA,001,2023_Aug_31_1442,ExactRep-v3-final,2021.2.3,59.907825814760606,
,,,,,,,,41,0,41,0,,,,,,,,,,,,,,,,,,,,,,,,,,,,,,,,,,,,,,,,,,,,,,,,,,,,,1090.5500775000546,None,,,,,,,,,,,,,,,,,,,,,,,,,,,,,,,,,,,quality,104,42,aloud,red,1088.5377343000146,None,None,1088.5377343000146,None,,,,,,,,,,,,,,,,,,,,,,,,,,,,,,91NA,001,2023_Aug_31_1442,ExactRep-v3-final,2021.2.3,59.907825814760606,
,,,,,,,,42,0,42,0,,,,,,,,,,,,,,,,,,,,,,,,,,,,,,,,,,,,,,,,,,,,,,,,,,,,,1093.052825700026,None,,,,,,,,,,,,,,,,,,,,,,,,,,,,,,,,,,,excuse,58,43,silent,blue,1091.0526278000325,None,None,1091.0526278000325,None,,,,,,,,,,,,,,,,,,,,,,,,,,,,,,91NA,001,2023_Aug_31_1442,ExactRep-v3-final,2021.2.3,59.907825814760606,
,,,,,,,,43,0,43,0,,,,,,,,,,,,,,,,,,,,,,,,,,,,,,,,,,,,,,,,,,,,,,,,,,,,,1095.5550692999968,None,,,,,,,,,,,,,,,,,,,,,,,,,,,,,,,,,,,method,60,44,silent,blue,1093.5550041000824,None,None,1093.5550041000824,None,,,,,,,,,,,,,,,,,,,,,,,,,,,,,,91NA,001,2023_Aug_31_1442,ExactRep-v3-final,2021.2.3,59.907825814760606,
,,,,,,,,44,0,44,0,,,,,,,,,,,,,,,,,,,,,,,,,,,,,,,,,,,,,,,,,,,,,,,,,,,,,1098.0574092000024,None,,,,,,,,,,,,,,,,,,,,,,,,,,,,,,,,,,,fire,101,45,aloud,red,1096.0568755000131,None,None,1096.0568755000131,None,,,,,,,,,,,,,,,,,,,,,,,,,,,,,,91NA,001,2023_Aug_31_1442,ExactRep-v3-final,2021.2.3,59.907825814760606,
,,,,,,,,45,0,45,0,,,,,,,,,,,,,,,,,,,,,,,,,,,,,,,,,,,,,,,,,,,,,,,,,,,,,1100.5604544000234,None,,,,,,,,,,,,,,,,,,,,,,,,,,,,,,,,,,,lip,37,46,sing,white,1098.558228100068,None,None,1098.558228100068,None,,,,,,,,,,,,,,,,,,,,,,,,,,,,,,91NA,001,2023_Aug_31_1442,ExactRep-v3-final,2021.2.3,59.907825814760606,
,,,,,,,,46,0,46,0,,,,,,,,,,,,,,,,,,,,,,,,,,,,,,,,,,,,,,,,,,,,,,,,,,,,,1103.0627211000537,None,,,,,,,,,,,,,,,,,,,,,,,,,,,,,,,,,,,wine,112,47,aloud,red,1101.0602103000274,None,None,1101.0602103000274,None,,,,,,,,,,,,,,,,,,,,,,,,,,,,,,91NA,001,2023_Aug_31_1442,ExactRep-v3-final,2021.2.3,59.907825814760606,
,,,,,,,,47,0,47,0,,,,,,,,,,,,,,,,,,,,,,,,,,,,,,,,,,,,,,,,,,,,,,,,,,,,,1105.5653342000442,None,,,,,,,,,,,,,,,,,,,,,,,,,,,,,,,,,,,home,50,48,silent,blue,1103.5630454000784,None,None,1103.5630454000784,None,,,,,,,,,,,,,,,,,,,,,,,,,,,,,,91NA,001,2023_Aug_31_1442,ExactRep-v3-final,2021.2.3,59.907825814760606,
,,,,,,,,48,0,48,0,,,,,,,,,,,,,,,,,,,,,,,,,,,,,,,,,,,,,,,,,,,,,,,,,,,,,1108.0676324000815,None,,,,,,,,,,,,,,,,,,,,,,,,,,,,,,,,,,,freedom,76,49,silent,blue,1106.0675319000147,None,None,1106.0675319000147,None,,,,,,,,,,,,,,,,,,,,,,,,,,,,,,91NA,001,2023_Aug_31_1442,ExactRep-v3-final,2021.2.3,59.907825814760606,
,,,,,,,,49,0,49,0,,,,,,,,,,,,,,,,,,,,,,,,,,,,,,,,,,,,,,,,,,,,,,,,,,,,,1110.5699738000985,None,,,,,,,,,,,,,,,,,,,,,,,,,,,,,,,,,,,rod,98,50,aloud,red,1108.5699108000845,None,None,1108.5699108000845,None,,,,,,,,,,,,,,,,,,,,,,,,,,,,,,91NA,001,2023_Aug_31_1442,ExactRep-v3-final,2021.2.3,59.907825814760606,
,,,,,,,,50,0,50,0,,,,,,,,,,,,,,,,,,,,,,,,,,,,,,,,,,,,,,,,,,,,,,,,,,,,,1113.0893740000902,None,,,,,,,,,,,,,,,,,,,,,,,,,,,,,,,,,,,pupil,54,51,silent,blue,1111.0744202000787,None,None,1111.0744202000787,None,,,,,,,,,,,,,,,,,,,,,,,,,,,,,,91NA,001,2023_Aug_31_1442,ExactRep-v3-final,2021.2.3,59.907825814760606,
,,,,,,,,51,0,51,0,,,,,,,,,,,,,,,,,,,,,,,,,,,,,,,,,,,,,,,,,,,,,,,,,,,,,1115.609074600041,None,,,,,,,,,,,,,,,,,,,,,,,,,,,,,,,,,,,chief,103,52,aloud,red,1113.5951085000997,None,None,1113.5951085000997,None,,,,,,,,,,,,,,,,,,,,,,,,,,,,,,91NA,001,2023_Aug_31_1442,ExactRep-v3-final,2021.2.3,59.907825814760606,
,,,,,,,,52,0,52,0,,,,,,,,,,,,,,,,,,,,,,,,,,,,,,,,,,,,,,,,,,,,,,,,,,,,,1118.1110950000584,None,,,,,,,,,,,,,,,,,,,,,,,,,,,,,,,,,,,horse,88,53,aloud,red,1116.1088492000708,None,None,1116.1088492000708,None,,,,,,,,,,,,,,,,,,,,,,,,,,,,,,91NA,001,2023_Aug_31_1442,ExactRep-v3-final,2021.2.3,59.907825814760606,
,,,,,,,,53,0,53,0,,,,,,,,,,,,,,,,,,,,,,,,,,,,,,,,,,,,,,,,,,,,,,,,,,,,,1120.6133359000087,None,,,,,,,,,,,,,,,,,,,,,,,,,,,,,,,,,,,custom,115,54,aloud,red,1118.6133987000212,None,None,1118.6133987000212,None,,,,,,,,,,,,,,,,,,,,,,,,,,,,,,91NA,001,2023_Aug_31_1442,ExactRep-v3-final,2021.2.3,59.907825814760606,
,,,,,,,,54,0,54,0,,,,,,,,,,,,,,,,,,,,,,,,,,,,,,,,,,,,,,,,,,,,,,,,,,,,,1123.1157850000309,None,,,,,,,,,,,,,,,,,,,,,,,,,,,,,,,,,,,storm,85,55,aloud,red,1121.114397700061,None,None,1121.114397700061,None,,,,,,,,,,,,,,,,,,,,,,,,,,,,,,91NA,001,2023_Aug_31_1442,ExactRep-v3-final,2021.2.3,59.907825814760606,
,,,,,,,,55,0,55,0,,,,,,,,,,,,,,,,,,,,,,,,,,,,,,,,,,,,,,,,,,,,,,,,,,,,,1125.6350244000787,None,,,,,,,,,,,,,,,,,,,,,,,,,,,,,,,,,,,student,56,56,silent,blue,1123.621198000037,None,None,1123.621198000037,None,,,,,,,,,,,,,,,,,,,,,,,,,,,,,,91NA,001,2023_Aug_31_1442,ExactRep-v3-final,2021.2.3,59.907825814760606,
,,,,,,,,56,0,56,0,,,,,,,,,,,,,,,,,,,,,,,,,,,,,,,,,,,,,,,,,,,,,,,,,,,,,1128.1544274000917,None,,,,,,,,,,,,,,,,,,,,,,,,,,,,,,,,,,,ticket,111,57,aloud,red,1126.1429994000355,None,None,1126.1429994000355,None,,,,,,,,,,,,,,,,,,,,,,,,,,,,,,91NA,001,2023_Aug_31_1442,ExactRep-v3-final,2021.2.3,59.907825814760606,
,,,,,,,,57,0,57,0,,,,,,,,,,,,,,,,,,,,,,,,,,,,,,,,,,,,,,,,,,,,,,,,,,,,,1130.6571657999884,None,,,,,,,,,,,,,,,,,,,,,,,,,,,,,,,,,,,humour,40,58,silent,blue,1128.6568554000696,None,None,1128.6568554000696,None,,,,,,,,,,,,,,,,,,,,,,,,,,,,,,91NA,001,2023_Aug_31_1442,ExactRep-v3-final,2021.2.3,59.907825814760606,
,,,,,,,,58,0,58,0,,,,,,,,,,,,,,,,,,,,,,,,,,,,,,,,,,,,,,,,,,,,,,,,,,,,,1133.1760740000755,None,,,,,,,,,,,,,,,,,,,,,,,,,,,,,,,,,,,meat,106,59,aloud,red,1131.1616982000414,None,None,1131.1616982000414,None,,,,,,,,,,,,,,,,,,,,,,,,,,,,,,91NA,001,2023_Aug_31_1442,ExactRep-v3-final,2021.2.3,59.907825814760606,
,,,,,,,,59,0,59,0,,,,,,,,,,,,,,,,,,,,,,,,,,,,,,,,,,,,,,,,,,,,,,,,,,,,,1135.6783584000077,None,,,,,,,,,,,,,,,,,,,,,,,,,,,,,,,,,,,star,0,60,sing,white,1133.6769422000507,None,None,1133.6769422000507,None,,,,,,,,,,,,,,,,,,,,,,,,,,,,,,91NA,001,2023_Aug_31_1442,ExactRep-v3-final,2021.2.3,59.907825814760606,
,,,,,,,,60,0,60,0,,,,,,,,,,,,,,,,,,,,,,,,,,,,,,,,,,,,,,,,,,,,,,,,,,,,,1138.197842600057,None,,,,,,,,,,,,,,,,,,,,,,,,,,,,,,,,,,,apple,64,61,silent,blue,1136.1858095000498,None,None,1136.1858095000498,None,,,,,,,,,,,,,,,,,,,,,,,,,,,,,,91NA,001,2023_Aug_31_1442,ExactRep-v3-final,2021.2.3,59.907825814760606,
,,,,,,,,61,0,61,0,,,,,,,,,,,,,,,,,,,,,,,,,,,,,,,,,,,,,,,,,,,,,,,,,,,,,1140.6998872000258,None,,,,,,,,,,,,,,,,,,,,,,,,,,,,,,,,,,,fate,16,62,sing,white,1138.700086900033,None,None,1138.700086900033,None,,,,,,,,,,,,,,,,,,,,,,,,,,,,,,91NA,001,2023_Aug_31_1442,ExactRep-v3-final,2021.2.3,59.907825814760606,
,,,,,,,,62,0,62,0,,,,,,,,,,,,,,,,,,,,,,,,,,,,,,,,,,,,,,,,,,,,,,,,,,,,,1143.219293900067,None,,,,,,,,,,,,,,,,,,,,,,,,,,,,,,,,,,,corn,119,63,aloud,red,1141.2050231000176,None,None,1141.2050231000176,None,,,,,,,,,,,,,,,,,,,,,,,,,,,,,,91NA,001,2023_Aug_31_1442,ExactRep-v3-final,2021.2.3,59.907825814760606,
,,,,,,,,63,0,63,0,,,,,,,,,,,,,,,,,,,,,,,,,,,,,,,,,,,,,,,,,,,,,,,,,,,,,1145.7221399000846,None,,,,,,,,,,,,,,,,,,,,,,,,,,,,,,,,,,,doll,11,64,sing,white,1143.7195031000301,None,None,1143.7195031000301,None,,,,,,,,,,,,,,,,,,,,,,,,,,,,,,91NA,001,2023_Aug_31_1442,ExactRep-v3-final,2021.2.3,59.907825814760606,
,,,,,,,,64,0,64,0,,,,,,,,,,,,,,,,,,,,,,,,,,,,,,,,,,,,,,,,,,,,,,,,,,,,,1148.2409399000462,None,,,,,,,,,,,,,,,,,,,,,,,,,,,,,,,,,,,bowl,41,65,silent,blue,1146.2316589000402,None,None,1146.2316589000402,None,,,,,,,,,,,,,,,,,,,,,,,,,,,,,,91NA,001,2023_Aug_31_1442,ExactRep-v3-final,2021.2.3,59.907825814760606,
,,,,,,,,65,0,65,0,,,,,,,,,,,,,,,,,,,,,,,,,,,,,,,,,,,,,,,,,,,,,,,,,,,,,1150.7470367000205,None,,,,,,,,,,,,,,,,,,,,,,,,,,,,,,,,,,,cabin,42,66,silent,blue,1148.7439013000112,None,None,1148.7439013000112,None,,,,,,,,,,,,,,,,,,,,,,,,,,,,,,91NA,001,2023_Aug_31_1442,ExactRep-v3-final,2021.2.3,59.907825814760606,
,,,,,,,,66,0,66,0,,,,,,,,,,,,,,,,,,,,,,,,,,,,,,,,,,,,,,,,,,,,,,,,,,,,,1153.263758999994,None,,,,,,,,,,,,,,,,,,,,,,,,,,,,,,,,,,,hall,100,67,aloud,red,1151.263198700035,None,None,1151.263198700035,None,,,,,,,,,,,,,,,,,,,,,,,,,,,,,,91NA,001,2023_Aug_31_1442,ExactRep-v3-final,2021.2.3,59.907825814760606,
,,,,,,,,67,0,67,0,,,,,,,,,,,,,,,,,,,,,,,,,,,,,,,,,,,,,,,,,,,,,,,,,,,,,1155.7819805000909,None,,,,,,,,,,,,,,,,,,,,,,,,,,,,,,,,,,,coffee,90,68,aloud,red,1153.7688642999856,None,None,1153.7688642999856,None,,,,,,,,,,,,,,,,,,,,,,,,,,,,,,91NA,001,2023_Aug_31_1442,ExactRep-v3-final,2021.2.3,59.907825814760606,
,,,,,,,,68,0,68,0,,,,,,,,,,,,,,,,,,,,,,,,,,,,,,,,,,,,,,,,,,,,,,,,,,,,,1158.2842533000512,None,,,,,,,,,,,,,,,,,,,,,,,,,,,,,,,,,,,ship,68,69,silent,blue,1156.281935300096,None,None,1156.281935300096,None,,,,,,,,,,,,,,,,,,,,,,,,,,,,,,91NA,001,2023_Aug_31_1442,ExactRep-v3-final,2021.2.3,59.907825814760606,
,,,,,,,,69,0,69,0,,,,,,,,,,,,,,,,,,,,,,,,,,,,,,,,,,,,,,,,,,,,,,,,,,,,,1160.8033788000466,None,,,,,,,,,,,,,,,,,,,,,,,,,,,,,,,,,,,cotton,110,70,aloud,red,1158.7898597000167,None,None,1158.7898597000167,None,,,,,,,,,,,,,,,,,,,,,,,,,,,,,,91NA,001,2023_Aug_31_1442,ExactRep-v3-final,2021.2.3,59.907825814760606,
,,,,,,,,70,0,70,0,,,,,,,,,,,,,,,,,,,,,,,,,,,,,,,,,,,,,,,,,,,,,,,,,,,,,1163.3059607000323,None,,,,,,,,,,,,,,,,,,,,,,,,,,,,,,,,,,,spirit,6,71,sing,white,1161.3039609000552,None,None,1161.3039609000552,None,,,,,,,,,,,,,,,,,,,,,,,,,,,,,,91NA,001,2023_Aug_31_1442,ExactRep-v3-final,2021.2.3,59.907825814760606,
,,,,,,,,71,0,71,0,,,,,,,,,,,,,,,,,,,,,,,,,,,,,,,,,,,,,,,,,,,,,,,,,,,,,1165.8264282000018,None,,,,,,,,,,,,,,,,,,,,,,,,,,,,,,,,,,,speech,43,72,silent,blue,1163.8111627000617,None,None,1163.8111627000617,None,,,,,,,,,,,,,,,,,,,,,,,,,,,,,,91NA,001,2023_Aug_31_1442,ExactRep-v3-final,2021.2.3,59.907825814760606,
,,,,,,,,72,0,72,0,,,,,,,,,,,,,,,,,,,,,,,,,,,,,,,,,,,,,,,,,,,,,,,,,,,,,1168.327624800033,None,,,,,,,,,,,,,,,,,,,,,,,,,,,,,,,,,,,virtue,117,73,aloud,red,1166.3259485000744,None,None,1166.3259485000744,None,,,,,,,,,,,,,,,,,,,,,,,,,,,,,,91NA,001,2023_Aug_31_1442,ExactRep-v3-final,2021.2.3,59.907825814760606,
,,,,,,,,73,0,73,0,,,,,,,,,,,,,,,,,,,,,,,,,,,,,,,,,,,,,,,,,,,,,,,,,,,,,1170.8303741000127,None,,,,,,,,,,,,,,,,,,,,,,,,,,,,,,,,,,,college,9,74,sing,white,1168.8292741000187,None,None,1168.8292741000187,None,,,,,,,,,,,,,,,,,,,,,,,,,,,,,,91NA,001,2023_Aug_31_1442,ExactRep-v3-final,2021.2.3,59.907825814760606,
,,,,,,,,74,0,74,0,,,,,,,,,,,,,,,,,,,,,,,,,,,,,,,,,,,,,,,,,,,,,,,,,,,,,1173.3325953000458,None,,,,,,,,,,,,,,,,,,,,,,,,,,,,,,,,,,,grass,81,75,aloud,red,1171.333170900005,None,None,1171.333170900005,None,,,,,,,,,,,,,,,,,,,,,,,,,,,,,,91NA,001,2023_Aug_31_1442,ExactRep-v3-final,2021.2.3,59.907825814760606,
,,,,,,,,75,0,75,0,,,,,,,,,,,,,,,,,,,,,,,,,,,,,,,,,,,,,,,,,,,,,,,,,,,,,1175.8521845000796,None,,,,,,,,,,,,,,,,,,,,,,,,,,,,,,,,,,,power,3,76,sing,white,1173.847575300024,None,None,1173.847575300024,None,,,,,,,,,,,,,,,,,,,,,,,,,,,,,,91NA,001,2023_Aug_31_1442,ExactRep-v3-final,2021.2.3,59.907825814760606,
,,,,,,,,76,0,76,0,,,,,,,,,,,,,,,,,,,,,,,,,,,,,,,,,,,,,,,,,,,,,,,,,,,,,1178.354214400053,None,,,,,,,,,,,,,,,,,,,,,,,,,,,,,,,,,,,style,19,77,sing,white,1176.352294899989,None,None,1176.352294899989,None,,,,,,,,,,,,,,,,,,,,,,,,,,,,,,91NA,001,2023_Aug_31_1442,ExactRep-v3-final,2021.2.3,59.907825814760606,
,,,,,,,,77,0,77,0,,,,,,,,,,,,,,,,,,,,,,,,,,,,,,,,,,,,,,,,,,,,,,,,,,,,,1180.8572930000955,None,,,,,,,,,,,,,,,,,,,,,,,,,,,,,,,,,,,present,28,78,sing,white,1178.8579873000272,None,None,1178.8579873000272,None,,,,,,,,,,,,,,,,,,,,,,,,,,,,,,91NA,001,2023_Aug_31_1442,ExactRep-v3-final,2021.2.3,59.907825814760606,
,,,,,,,,78,0,78,0,,,,,,,,,,,,,,,,,,,,,,,,,,,,,,,,,,,,,,,,,,,,,,,,,,,,,1183.3773570000194,None,,,,,,,,,,,,,,,,,,,,,,,,,,,,,,,,,,,skin,44,79,silent,blue,1181.3648291000864,None,None,1181.3648291000864,None,,,,,,,,,,,,,,,,,,,,,,,,,,,,,,91NA,001,2023_Aug_31_1442,ExactRep-v3-final,2021.2.3,59.907825814760606,
,,,,,,,,79,0,79,0,,,,,,,,,,,,,,,,,,,,,,,,,,,,,,,,,,,,,,,,,,,,,,,,,,,,,1185.878890400054,None,,,,,,,,,,,,,,,,,,,,,,,,,,,,,,,,,,,fun,48,80,silent,blue,1183.8789503000444,None,None,1183.8789503000444,None,,,,,,,,,,,,,,,,,,,,,,,,,,,,,,91NA,001,2023_Aug_31_1442,ExactRep-v3-final,2021.2.3,59.907825814760606,
,,,,,,,,80,0,80,0,,,,,,,,,,,,,,,,,,,,,,,,,,,,,,,,,,,,,,,,,,,,,,,,,,,,,1188.3976559999865,None,,,,,,,,,,,,,,,,,,,,,,,,,,,,,,,,,,,series,24,81,sing,white,1186.383042100002,None,None,1186.383042100002,None,,,,,,,,,,,,,,,,,,,,,,,,,,,,,,91NA,001,2023_Aug_31_1442,ExactRep-v3-final,2021.2.3,59.907825814760606,
,,,,,,,,81,0,81,0,,,,,,,,,,,,,,,,,,,,,,,,,,,,,,,,,,,,,,,,,,,,,,,,,,,,,1190.900211500004,None,,,,,,,,,,,,,,,,,,,,,,,,,,,,,,,,,,,butter,116,82,aloud,red,1188.9010147000663,None,None,1188.9010147000663,None,,,,,,,,,,,,,,,,,,,,,,,,,,,,,,91NA,001,2023_Aug_31_1442,ExactRep-v3-final,2021.2.3,59.907825814760606,
,,,,,,,,82,0,82,0,,,,,,,,,,,,,,,,,,,,,,,,,,,,,,,,,,,,,,,,,,,,,,,,,,,,,1193.4029891000828,None,,,,,,,,,,,,,,,,,,,,,,,,,,,,,,,,,,,sea,78,83,silent,blue,1191.403351600049,None,None,1191.403351600049,None,,,,,,,,,,,,,,,,,,,,,,,,,,,,,,91NA,001,2023_Aug_31_1442,ExactRep-v3-final,2021.2.3,59.907825814760606,
,,,,,,,,83,0,83,0,,,,,,,,,,,,,,,,,,,,,,,,,,,,,,,,,,,,,,,,,,,,,,,,,,,,,1195.905180200003,None,,,,,,,,,,,,,,,,,,,,,,,,,,,,,,,,,,,soul,15,84,sing,white,1193.9049373000162,None,None,1193.9049373000162,None,,,,,,,,,,,,,,,,,,,,,,,,,,,,,,91NA,001,2023_Aug_31_1442,ExactRep-v3-final,2021.2.3,59.907825814760606,
,,,,,,,,84,0,84,0,,,,,,,,,,,,,,,,,,,,,,,,,,,,,,,,,,,,,,,,,,,,,,,,,,,,,1198.4246601000195,None,,,,,,,,,,,,,,,,,,,,,,,,,,,,,,,,,,,corner,97,85,aloud,red,1196.409227300086,None,None,1196.409227300086,None,,,,,,,,,,,,,,,,,,,,,,,,,,,,,,91NA,001,2023_Aug_31_1442,ExactRep-v3-final,2021.2.3,59.907825814760606,
,,,,,,,,85,0,85,0,,,,,,,,,,,,,,,,,,,,,,,,,,,,,,,,,,,,,,,,,,,,,,,,,,,,,1200.9270228000823,None,,,,,,,,,,,,,,,,,,,,,,,,,,,,,,,,,,,judge,84,86,aloud,red,1198.9250674000941,None,None,1198.9250674000941,None,,,,,,,,,,,,,,,,,,,,,,,,,,,,,,91NA,001,2023_Aug_31_1442,ExactRep-v3-final,2021.2.3,59.907825814760606,
,,,,,,,,86,0,86,0,,,,,,,,,,,,,,,,,,,,,,,,,,,,,,,,,,,,,,,,,,,,,,,,,,,,,1203.429345700075,None,,,,,,,,,,,,,,,,,,,,,,,,,,,,,,,,,,,library,4,87,sing,white,1201.4279081000714,None,None,1201.4279081000714,None,,,,,,,,,,,,,,,,,,,,,,,,,,,,,,91NA,001,2023_Aug_31_1442,ExactRep-v3-final,2021.2.3,59.907825814760606,
,,,,,,,,87,0,87,0,,,,,,,,,,,,,,,,,,,,,,,,,,,,,,,,,,,,,,,,,,,,,,,,,,,,,1205.9486560000805,None,,,,,,,,,,,,,,,,,,,,,,,,,,,,,,,,,,,moral,39,88,silent,blue,1203.9346795000602,None,None,1203.9346795000602,None,,,,,,,,,,,,,,,,,,,,,,,,,,,,,,91NA,001,2023_Aug_31_1442,ExactRep-v3-final,2021.2.3,59.907825814760606,
,,,,,,,,88,0,88,0,,,,,,,,,,,,,,,,,,,,,,,,,,,,,,,,,,,,,,,,,,,,,,,,,,,,,1208.4511718000285,None,,,,,,,,,,,,,,,,,,,,,,,,,,,,,,,,,,,mind,33,89,sing,white,1206.4499146000016,None,None,1206.4499146000016,None,,,,,,,,,,,,,,,,,,,,,,,,,,,,,,91NA,001,2023_Aug_31_1442,ExactRep-v3-final,2021.2.3,59.907825814760606,
,,,,,,,,89,0,89,0,,,,,,,,,,,,,,,,,,,,,,,,,,,,,,,,,,,,,,,,,,,,,,,,,,,,,1210.9704734000843,None,,,,,,,,,,,,,,,,,,,,,,,,,,,,,,,,,,,gift,82,90,aloud,red,1208.9565974000143,None,None,1208.9565974000143,None,,,,,,,,,,,,,,,,,,,,,,,,,,,,,,91NA,001,2023_Aug_31_1442,ExactRep-v3-final,2021.2.3,59.907825814760606,
,,,,,,,,90,0,90,0,,,,,,,,,,,,,,,,,,,,,,,,,,,,,,,,,,,,,,,,,,,,,,,,,,,,,1213.4744677999988,None,,,,,,,,,,,,,,,,,,,,,,,,,,,,,,,,,,,paper,18,91,sing,white,1211.4734292000066,None,None,1211.4734292000066,None,,,,,,,,,,,,,,,,,,,,,,,,,,,,,,91NA,001,2023_Aug_31_1442,ExactRep-v3-final,2021.2.3,59.907825814760606,
,,,,,,,,91,0,91,0,,,,,,,,,,,,,,,,,,,,,,,,,,,,,,,,,,,,,,,,,,,,,,,,,,,,,1215.9920233000303,None,,,,,,,,,,,,,,,,,,,,,,,,,,,,,,,,,,,street,75,92,silent,blue,1213.9781503000995,None,None,1213.9781503000995,None,,,,,,,,,,,,,,,,,,,,,,,,,,,,,,91NA,001,2023_Aug_31_1442,ExactRep-v3-final,2021.2.3,59.907825814760606,
,,,,,,,,92,0,92,0,,,,,,,,,,,,,,,,,,,,,,,,,,,,,,,,,,,,,,,,,,,,,,,,,,,,,1218.494759000023,None,,,,,,,,,,,,,,,,,,,,,,,,,,,,,,,,,,,teacher,74,93,silent,blue,1216.4923398999963,None,None,1216.4923398999963,None,,,,,,,,,,,,,,,,,,,,,,,,,,,,,,91NA,001,2023_Aug_31_1442,ExactRep-v3-final,2021.2.3,59.907825814760606,
,,,,,,,,93,0,93,0,,,,,,,,,,,,,,,,,,,,,,,,,,,,,,,,,,,,,,,,,,,,,,,,,,,,,1221.0137766000116,None,,,,,,,,,,,,,,,,,,,,,,,,,,,,,,,,,,,pole,62,94,silent,blue,1218.9993667000672,None,None,1218.9993667000672,None,,,,,,,,,,,,,,,,,,,,,,,,,,,,,,91NA,001,2023_Aug_31_1442,ExactRep-v3-final,2021.2.3,59.907825814760606,
,,,,,,,,94,0,94,0,,,,,,,,,,,,,,,,,,,,,,,,,,,,,,,,,,,,,,,,,,,,,,,,,,,,,1223.5160293000517,None,,,,,,,,,,,,,,,,,,,,,,,,,,,,,,,,,,,clock,30,95,sing,white,1221.5139582999982,None,None,1221.5139582999982,None,,,,,,,,,,,,,,,,,,,,,,,,,,,,,,91NA,001,2023_Aug_31_1442,ExactRep-v3-final,2021.2.3,59.907825814760606,
,,,,,,,,95,0,95,0,,,,,,,,,,,,,,,,,,,,,,,,,,,,,,,,,,,,,,,,,,,,,,,,,,,,,1226.0352936000563,None,,,,,,,,,,,,,,,,,,,,,,,,,,,,,,,,,,,effort,20,96,sing,white,1224.0249468000839,None,None,1224.0249468000839,None,,,,,,,,,,,,,,,,,,,,,,,,,,,,,,91NA,001,2023_Aug_31_1442,ExactRep-v3-final,2021.2.3,59.907825814760606,
,,,,,,,,96,0,96,0,,,,,,,,,,,,,,,,,,,,,,,,,,,,,,,,,,,,,,,,,,,,,,,,,,,,,1228.5383742999984,None,,,,,,,,,,,,,,,,,,,,,,,,,,,,,,,,,,,body,57,97,silent,blue,1226.5388970000204,None,None,1226.5388970000204,None,,,,,,,,,,,,,,,,,,,,,,,,,,,,,,91NA,001,2023_Aug_31_1442,ExactRep-v3-final,2021.2.3,59.907825814760606,
,,,,,,,,97,0,97,0,,,,,,,,,,,,,,,,,,,,,,,,,,,,,,,,,,,,,,,,,,,,,,,,,,,,,1231.0572856999934,None,,,,,,,,,,,,,,,,,,,,,,,,,,,,,,,,,,,duty,26,98,sing,white,1229.0425441000843,None,None,1229.0425441000843,None,,,,,,,,,,,,,,,,,,,,,,,,,,,,,,91NA,001,2023_Aug_31_1442,ExactRep-v3-final,2021.2.3,59.907825814760606,
,,,,,,,,98,0,98,0,,,,,,,,,,,,,,,,,,,,,,,,,,,,,,,,,,,,,,,,,,,,,,,,,,,,,1233.5594207000686,None,,,,,,,,,,,,,,,,,,,,,,,,,,,,,,,,,,,advice,32,99,sing,white,1231.5587471000617,None,None,1231.5587471000617,None,,,,,,,,,,,,,,,,,,,,,,,,,,,,,,91NA,001,2023_Aug_31_1442,ExactRep-v3-final,2021.2.3,59.907825814760606,
,,,,,,,,99,0,99,0,,,,,,,,,,,,,,,,,,,,,,,,,,,,,,,,,,,,,,,,,,,,,,,,,,,,,1236.080076500075,None,,,,,,,,,,,,,,,,,,,,,,,,,,,,,,,,,,,city,7,100,sing,white,1234.063891400001,None,None,1234.063891400001,None,,,,,,,,,,,,,,,,,,,,,,,,,,,,,,91NA,001,2023_Aug_31_1442,ExactRep-v3-final,2021.2.3,59.907825814760606,
,,,,,,,,100,0,100,0,,,,,,,,,,,,,,,,,,,,,,,,,,,,,,,,,,,,,,,,,,,,,,,,,,,,,1238.5844397000037,None,,,,,,,,,,,,,,,,,,,,,,,,,,,,,,,,,,,chance,12,101,sing,white,1236.5791127000703,None,None,1236.5791127000703,None,,,,,,,,,,,,,,,,,,,,,,,,,,,,,,91NA,001,2023_Aug_31_1442,ExactRep-v3-final,2021.2.3,59.907825814760606,
,,,,,,,,101,0,101,0,,,,,,,,,,,,,,,,,,,,,,,,,,,,,,,,,,,,,,,,,,,,,,,,,,,,,1241.117358700023,None,,,,,,,,,,,,,,,,,,,,,,,,,,,,,,,,,,,artist,92,102,aloud,red,1239.102825900074,None,None,1239.102825900074,None,,,,,,,,,,,,,,,,,,,,,,,,,,,,,,91NA,001,2023_Aug_31_1442,ExactRep-v3-final,2021.2.3,59.907825814760606,
,,,,,,,,102,0,102,0,,,,,,,,,,,,,,,,,,,,,,,,,,,,,,,,,,,,,,,,,,,,,,,,,,,,,1243.6196769000962,None,,,,,,,,,,,,,,,,,,,,,,,,,,,,,,,,,,,woman,105,103,aloud,red,1241.6203500000993,None,None,1241.6203500000993,None,,,,,,,,,,,,,,,,,,,,,,,,,,,,,,91NA,001,2023_Aug_31_1442,ExactRep-v3-final,2021.2.3,59.907825814760606,
,,,,,,,,103,0,103,0,,,,,,,,,,,,,,,,,,,,,,,,,,,,,,,,,,,,,,,,,,,,,,,,,,,,,1246.1221262000035,None,,,,,,,,,,,,,,,,,,,,,,,,,,,,,,,,,,,garden,53,104,silent,blue,1244.12270060007,None,None,1244.12270060007,None,,,,,,,,,,,,,,,,,,,,,,,,,,,,,,91NA,001,2023_Aug_31_1442,ExactRep-v3-final,2021.2.3,59.907825814760606,
,,,,,,,,104,0,104,0,,,,,,,,,,,,,,,,,,,,,,,,,,,,,,,,,,,,,,,,,,,,,,,,,,,,,1248.6243878999958,None,,,,,,,,,,,,,,,,,,,,,,,,,,,,,,,,,,,dollar,79,105,sing,white,1246.6229450000683,None,None,1246.6229450000683,None,,,,,,,,,,,,,,,,,,,,,,,,,,,,,,91NA,001,2023_Aug_31_1442,ExactRep-v3-final,2021.2.3,59.907825814760606,
,,,,,,,,105,0,105,0,,,,,,,,,,,,,,,,,,,,,,,,,,,,,,,,,,,,,,,,,,,,,,,,,,,,,1251.1439162000315,None,,,,,,,,,,,,,,,,,,,,,,,,,,,,,,,,,,,crime,61,106,silent,blue,1249.1284199000802,None,None,1249.1284199000802,None,,,,,,,,,,,,,,,,,,,,,,,,,,,,,,91NA,001,2023_Aug_31_1442,ExactRep-v3-final,2021.2.3,59.907825814760606,
,,,,,,,,106,0,106,0,,,,,,,,,,,,,,,,,,,,,,,,,,,,,,,,,,,,,,,,,,,,,,,,,,,,,1253.6463311000261,None,,,,,,,,,,,,,,,,,,,,,,,,,,,,,,,,,,,cost,109,107,aloud,red,1251.6449600000633,None,None,1251.6449600000633,None,,,,,,,,,,,,,,,,,,,,,,,,,,,,,,91NA,001,2023_Aug_31_1442,ExactRep-v3-final,2021.2.3,59.907825814760606,
,,,,,,,,107,0,107,0,,,,,,,,,,,,,,,,,,,,,,,,,,,,,,,,,,,,,,,,,,,,,,,,,,,,,1256.1489664000692,None,,,,,,,,,,,,,,,,,,,,,,,,,,,,,,,,,,,friend,107,108,aloud,red,1254.1489536000881,None,None,1254.1489536000881,None,,,,,,,,,,,,,,,,,,,,,,,,,,,,,,91NA,001,2023_Aug_31_1442,ExactRep-v3-final,2021.2.3,59.907825814760606,
,,,,,,,,108,0,108,0,,,,,,,,,,,,,,,,,,,,,,,,,,,,,,,,,,,,,,,,,,,,,,,,,,,,,1258.66812320007,None,,,,,,,,,,,,,,,,,,,,,,,,,,,,,,,,,,,lake,8,109,sing,white,1256.6540057000238,None,None,1256.6540057000238,None,,,,,,,,,,,,,,,,,,,,,,,,,,,,,,91NA,001,2023_Aug_31_1442,ExactRep-v3-final,2021.2.3,59.907825814760606,
,,,,,,,,109,0,109,0,,,,,,,,,,,,,,,,,,,,,,,,,,,,,,,,,,,,,,,,,,,,,,,,,,,,,1261.1706486000912,None,,,,,,,,,,,,,,,,,,,,,,,,,,,,,,,,,,,fact,72,110,silent,blue,1259.1713261000114,None,None,1259.1713261000114,None,,,,,,,,,,,,,,,,,,,,,,,,,,,,,,91NA,001,2023_Aug_31_1442,ExactRep-v3-final,2021.2.3,59.907825814760606,
,,,,,,,,110,0,110,0,,,,,,,,,,,,,,,,,,,,,,,,,,,,,,,,,,,,,,,,,,,,,,,,,,,,,1263.672739300062,None,,,,,,,,,,,,,,,,,,,,,,,,,,,,,,,,,,,volume,77,111,silent,blue,1261.6716236000648,None,None,1261.6716236000648,None,,,,,,,,,,,,,,,,,,,,,,,,,,,,,,91NA,001,2023_Aug_31_1442,ExactRep-v3-final,2021.2.3,59.907825814760606,
,,,,,,,,111,0,111,0,,,,,,,,,,,,,,,,,,,,,,,,,,,,,,,,,,,,,,,,,,,,,,,,,,,,,1266.1756180000957,None,,,,,,,,,,,,,,,,,,,,,,,,,,,,,,,,,,,murder,46,112,silent,blue,1264.1739176000701,None,None,1264.1739176000701,None,,,,,,,,,,,,,,,,,,,,,,,,,,,,,,91NA,001,2023_Aug_31_1442,ExactRep-v3-final,2021.2.3,59.907825814760606,
,,,,,,,,112,0,112,0,,,,,,,,,,,,,,,,,,,,,,,,,,,,,,,,,,,,,,,,,,,,,,,,,,,,,1268.6948316000635,None,,,,,,,,,,,,,,,,,,,,,,,,,,,,,,,,,,,temple,38,113,sing,white,1266.6887777000666,None,None,1266.6887777000666,None,,,,,,,,,,,,,,,,,,,,,,,,,,,,,,91NA,001,2023_Aug_31_1442,ExactRep-v3-final,2021.2.3,59.907825814760606,
,,,,,,,,113,0,113,0,,,,,,,,,,,,,,,,,,,,,,,,,,,,,,,,,,,,,,,,,,,,,,,,,,,,,1271.1970794000663,None,,,,,,,,,,,,,,,,,,,,,,,,,,,,,,,,,,,queen,1,114,sing,white,1269.1955708999885,None,None,1269.1955708999885,None,,,,,,,,,,,,,,,,,,,,,,,,,,,,,,91NA,001,2023_Aug_31_1442,ExactRep-v3-final,2021.2.3,59.907825814760606,
,,,,,,,,114,0,114,0,,,,,,,,,,,,,,,,,,,,,,,,,,,,,,,,,,,,,,,,,,,,,,,,,,,,,1273.6994978000876,None,,,,,,,,,,,,,,,,,,,,,,,,,,,,,,,,,,,hour,67,115,silent,blue,1271.6979404999875,None,None,1271.6979404999875,None,,,,,,,,,,,,,,,,,,,,,,,,,,,,,,91NA,001,2023_Aug_31_1442,ExactRep-v3-final,2021.2.3,59.907825814760606,
,,,,,,,,115,0,115,0,,,,,,,,,,,,,,,,,,,,,,,,,,,,,,,,,,,,,,,,,,,,,,,,,,,,,1276.2184792000335,None,,,,,,,,,,,,,,,,,,,,,,,,,,,,,,,,,,,window,10,116,sing,white,1274.2052740000654,None,None,1274.2052740000654,None,,,,,,,,,,,,,,,,,,,,,,,,,,,,,,91NA,001,2023_Aug_31_1442,ExactRep-v3-final,2021.2.3,59.907825814760606,
,,,,,,,,116,0,116,0,,,,,,,,,,,,,,,,,,,,,,,,,,,,,,,,,,,,,,,,,,,,,,,,,,,,,1278.721666400088,None,,,,,,,,,,,,,,,,,,,,,,,,,,,,,,,,,,,green,83,117,aloud,red,1276.7222538000206,None,None,1276.7222538000206,None,,,,,,,,,,,,,,,,,,,,,,,,,,,,,,91NA,001,2023_Aug_31_1442,ExactRep-v3-final,2021.2.3,59.907825814760606,
,,,,,,,,117,0,117,0,,,,,,,,,,,,,,,,,,,,,,,,,,,,,,,,,,,,,,,,,,,,,,,,,,,,,1281.2408025000477,None,,,,,,,,,,,,,,,,,,,,,,,,,,,,,,,,,,,hide,63,118,silent,blue,1279.2332608000142,None,None,1279.2332608000142,None,,,,,,,,,,,,,,,,,,,,,,,,,,,,,,91NA,001,2023_Aug_31_1442,ExactRep-v3-final,2021.2.3,59.907825814760606,
,,,,,,,,118,0,118,0,,,,,,,,,,,,,,,,,,,,,,,,,,,,,,,,,,,,,,,,,,,,,,,,,,,,,1283.7433942999924,None,,,,,,,,,,,,,,,,,,,,,,,,,,,,,,,,,,,coin,25,119,sing,white,1281.741013700026,None,None,1281.741013700026,None,,,,,,,,,,,,,,,,,,,,,,,,,,,,,,91NA,001,2023_Aug_31_1442,ExactRep-v3-final,2021.2.3,59.907825814760606,
,,,,,,,,119,0,119,0,,,,,,,,,,,,,,,,,,,,,,,,,,,,,,,,,,,,,,,,,,,,,,,,,,,,,1286.2456571999937,None,,,,,,,,,,,,,,,,,,,,,,,,,,,,,,,,,,,silence,118,120,aloud,red,1284.2456644000486,None,None,1284.2456644000486,None,,,,,,,,,,,,,,,,,,,,,,,,,,,,,,91NA,001,2023_Aug_31_1442,ExactRep-v3-final,2021.2.3,59.907825814760606,
,,,,,,,,,,,,,,,,,,,,,,,,,,,,,,,,,,,,,,,,,,,,,,,,,,,,,,,,,,,,,,,,,,,,,,,,,,,,,,,,,,,,,,,,,,,,,,,,,,,,,,,,,,,,,,1286.746322400053,None,space,1.636944800033234,1296.722859300091,None,,,,,,,,,,,,,,,,,,,,,,,,91NA,001,2023_Aug_31_1442,ExactRep-v3-final,2021.2.3,59.907825814760606,
,,,,,,,,,,,,,,,,,,,,,,,,,,,,,,,,,,,,,,,,,,,,,,,,,,,,,,,,,,,,,,,,,,,,,,,,,,,,,,,,,,,,,,,,,,,,,,,,,,,,,,,,,,,,,,,,,,,,1298.376640600036,None,space,31.496358799980953,1308.3520009000786,None,,,,,,,,,,,,,,,,,,91NA,001,2023_Aug_31_1442,ExactRep-v3-final,2021.2.3,59.907825814760606,
,,,,,,,,,,,,0,0,0,0,,,,,,,,,,,,,,,,,,,,,,,,,,,,,,,,,,,,,,,,,,,,,,,,,1349.9942952999845,None,,,,,,,,,,,,,,,,,,,,,,,,,,,,,,,,,,,,,,,,,,,,,,,,,,,,,,,,,chance,12,1,sing,old,yellow,1340.3780517000705,None,n,1340.3780517000705,None,"['n', 'return']","[7.861384199932218, 9.573361699935049]",1340.3780517000705,None,,,91NA,001,2023_Aug_31_1442,ExactRep-v3-final,2021.2.3,59.907825814760606,
,,,,,,,,,,,,1,0,1,0,,,,,,,,,,,,,,,,,,,,,,,,,,,,,,,,,,,,,,,,,,,,,,,,,1361.4889665000373,None,,,,,,,,,,,,,,,,,,,,,,,,,,,,,,,,,,,,,,,,,,,,,,,,,,,,,,,,,bar,197,2,sing,new,yellow,1350.5286245000316,None,n,1350.5286245000316,None,"['n', 'return']","[10.310827400069684, 10.910767300054431]",1350.5286245000316,None,,,91NA,001,2023_Aug_31_1442,ExactRep-v3-final,2021.2.3,59.907825814760606,
,,,,,,,,,,,,2,0,2,0,,,,,,,,,,,,,,,,,,,,,,,,,,,,,,,,,,,,,,,,,,,,,,,,,1363.5879870000063,None,,,,,,,,,,,,,,,,,,,,,,,,,,,,,,,,,,,,,,,,,,,,,,,,,,,,,,,,,horse,88,3,aloud,old,yellow,1362.006133100018,None,y,1362.006133100018,None,"['y', 'return']","[0.9612718999851495, 1.5213094999780878]",1362.006133100018,None,,,91NA,001,2023_Aug_31_1442,ExactRep-v3-final,2021.2.3,59.907825814760606,
,,,,,,,,,,,,3,0,3,0,,,,,,,,,,,,,,,,,,,,,,,,,,,,,,,,,,,,,,,,,,,,,,,,,1365.7769055000972,None,,,,,,,,,,,,,,,,,,,,,,,,,,,,,,,,,,,,,,,,,,,,,,,,,,,,,,,,,meat,106,4,aloud,old,yellow,1364.091315900092,None,y,1364.091315900092,None,"['y', 'return']","[1.2120966999791563, 1.644101900048554]",1364.091315900092,None,,,91NA,001,2023_Aug_31_1442,ExactRep-v3-final,2021.2.3,59.907825814760606,
,,,,,,,,,,,,4,0,4,0,,,,,,,,,,,,,,,,,,,,,,,,,,,,,,,,,,,,,,,,,,,,,,,,,1367.9451765000122,None,,,,,,,,,,,,,,,,,,,,,,,,,,,,,,,,,,,,,,,,,,,,,,,,,,,,,,,,,bowl,41,5,silent,old,yellow,1366.2936097000493,None,n,1366.2936097000493,None,"['n', 'return']","[1.2500284999841824, 1.6099935999372974]",1366.2936097000493,None,,,91NA,001,2023_Aug_31_1442,ExactRep-v3-final,2021.2.3,59.907825814760606,
,,,,,,,,,,,,5,0,5,0,,,,,,,,,,,,,,,,,,,,,,,,,,,,,,,,,,,,,,,,,,,,,,,,,1370.0140927000903,None,,,,,,,,,,,,,,,,,,,,,,,,,,,,,,,,,,,,,,,,,,,,,,,,,,,,,,,,,soul,15,6,sing,old,yellow,1368.4456011999864,None,y,1368.4456011999864,None,"['y', 'return']","[1.1618152000010014, 1.5297315999632701]",1368.4456011999864,None,,,91NA,001,2023_Aug_31_1442,ExactRep-v3-final,2021.2.3,59.907825814760606,
,,,,,,,,,,,,6,0,6,0,,,,,,,,,,,,,,,,,,,,,,,,,,,,,,,,,,,,,,,,,,,,,,,,,1373.4506418000674,None,,,,,,,,,,,,,,,,,,,,,,,,,,,,,,,,,,,,,,,,,,,,,,,,,,,,,,,,,sky,156,7,silent,new,yellow,1370.5178303000284,None,n,1370.5178303000284,None,"['n', 'return']","[2.137638199958019, 2.8978235999820754]",1370.5178303000284,None,,,91NA,001,2023_Aug_31_1442,ExactRep-v3-final,2021.2.3,59.907825814760606,
,,,,,,,,,,,,7,0,7,0,,,,,,,,,,,,,,,,,,,,,,,,,,,,,,,,,,,,,,,,,,,,,,,,,1375.6852865000255,None,,,,,,,,,,,,,,,,,,,,,,,,,,,,,,,,,,,,,,,,,,,,,,,,,,,,,,,,,girl,120,8,silent,new,yellow,1373.9576747000683,None,n,1373.9576747000683,None,"['n', 'return']","[1.3296292999293655, 1.6896390999900177]",1373.9576747000683,None,,,91NA,001,2023_Aug_31_1442,ExactRep-v3-final,2021.2.3,59.907825814760606,
,,,,,,,,,,,,8,0,8,0,,,,,,,,,,,,,,,,,,,,,,,,,,,,,,,,,,,,,,,,,,,,,,,,,1377.8216324000387,None,,,,,,,,,,,,,,,,,,,,,,,,,,,,,,,,,,,,,,,,,,,,,,,,,,,,,,,,,hour,67,9,silent,old,yellow,1376.1869665000122,None,y,1376.1869665000122,None,"['y', 'return']","[1.1327049999963492, 1.5883738999255002]",1376.1869665000122,None,,,91NA,001,2023_Aug_31_1442,ExactRep-v3-final,2021.2.3,59.907825814760606,
,,,,,,,,,,,,9,0,9,0,,,,,,,,,,,,,,,,,,,,,,,,,,,,,,,,,,,,,,,,,,,,,,,,,1379.8570721000433,None,,,,,,,,,,,,,,,,,,,,,,,,,,,,,,,,,,,,,,,,,,,,,,,,,,,,,,,,,charm,193,10,sing,new,yellow,1378.322667600005,None,n,1378.322667600005,None,"['n', 'return']","[1.1327736999373883, 1.4927759999409318]",1378.322667600005,None,,,91NA,001,2023_Aug_31_1442,ExactRep-v3-final,2021.2.3,59.907825814760606,
,,,,,,,,,,,,10,0,10,0,,,,,,,,,,,,,,,,,,,,,,,,,,,,,,,,,,,,,,,,,,,,,,,,,1382.109607100021,None,,,,,,,,,,,,,,,,,,,,,,,,,,,,,,,,,,,,,,,,,,,,,,,,,,,,,,,,,custom,115,11,aloud,old,yellow,1380.363661200041,None,y,1380.363661200041,None,"['y', 'return']","[1.355813100002706, 1.7076964000007138]",1380.363661200041,None,,,91NA,001,2023_Aug_31_1442,ExactRep-v3-final,2021.2.3,59.907825814760606,
,,,,,,,,,,,,11,0,11,0,,,,,,,,,,,,,,,,,,,,,,,,,,,,,,,,,,,,,,,,,,,,,,,,,1384.2770746999886,None,,,,,,,,,,,,,,,,,,,,,,,,,,,,,,,,,,,,,,,,,,,,,,,,,,,,,,,,,iron,165,12,sing,new,yellow,1382.611776100006,None,n,1382.611776100006,None,"['n', 'return']","[1.1237043999135494, 1.619632299989462]",1382.611776100006,None,,,91NA,001,2023_Aug_31_1442,ExactRep-v3-final,2021.2.3,59.907825814760606,
,,,,,,,,,,,,12,0,12,0,,,,,,,,,,,,,,,,,,,,,,,,,,,,,,,,,,,,,,,,,,,,,,,,,1386.3806619000388,None,,,,,,,,,,,,,,,,,,,,,,,,,,,,,,,,,,,,,,,,,,,,,,,,,,,,,,,,,cat,127,13,silent,new,yellow,1384.7787790000439,None,n,1384.7787790000439,None,"['n', 'return']","[1.1966702999779955, 1.5566840999526903]",1384.7787790000439,None,,,91NA,001,2023_Aug_31_1442,ExactRep-v3-final,2021.2.3,59.907825814760606,
,,,,,,,,,,,,13,0,13,0,,,,,,,,,,,,,,,,,,,,,,,,,,,,,,,,,,,,,,,,,,,,,,,,,1389.3165376000106,None,,,,,,,,,,,,,,,,,,,,,,,,,,,,,,,,,,,,,,,,,,,,,,,,,,,,,,,,,factory,160,14,aloud,new,yellow,1386.9154609000543,None,n,1386.9154609000543,None,"['n', 'return']","[1.9239430000307038, 2.355948399985209]",1386.9154609000543,None,,,91NA,001,2023_Aug_31_1442,ExactRep-v3-final,2021.2.3,59.907825814760606,
,,,,,,,,,,,,14,0,14,0,,,,,,,,,,,,,,,,,,,,,,,,,,,,,,,,,,,,,,,,,,,,,,,,,1391.5857676999876,None,,,,,,,,,,,,,,,,,,,,,,,,,,,,,,,,,,,,,,,,,,,,,,,,,,,,,,,,,dream,153,15,silent,new,yellow,1389.8210418000817,None,y,1389.8210418000817,None,"['y', 'return']","[1.3302518000127748, 1.7223669999511912]",1389.8210418000817,None,,,91NA,001,2023_Aug_31_1442,ExactRep-v3-final,2021.2.3,59.907825814760606,
,,,,,,,,,,,,15,0,15,0,,,,,,,,,,,,,,,,,,,,,,,,,,,,,,,,,,,,,,,,,,,,,,,,,1393.8034915000899,None,,,,,,,,,,,,,,,,,,,,,,,,,,,,,,,,,,,,,,,,,,,,,,,,,,,,,,,,,passion,167,16,sing,new,yellow,1392.103072200087,None,n,1392.103072200087,None,"['n', 'return']","[1.3203773000277579, 1.6564797000028193]",1392.103072200087,None,,,91NA,001,2023_Aug_31_1442,ExactRep-v3-final,2021.2.3,59.907825814760606,
,,,,,,,,,,,,16,0,16,0,,,,,,,,,,,,,,,,,,,,,,,,,,,,,,,,,,,,,,,,,,,,,,,,,1396.773934100056,None,,,,,,,,,,,,,,,,,,,,,,,,,,,,,,,,,,,,,,,,,,,,,,,,,,,,,,,,,life,194,17,aloud,new,yellow,1394.3047894000774,None,n,1394.3047894000774,None,"['n', 'return']","[2.0785388000076637, 2.430571599979885]",1394.3047894000774,None,,,91NA,001,2023_Aug_31_1442,ExactRep-v3-final,2021.2.3,59.907825814760606,
,,,,,,,,,,,,17,0,17,0,,,,,,,,,,,,,,,,,,,,,,,,,,,,,,,,,,,,,,,,,,,,,,,,,1398.8929301000899,None,,,,,,,,,,,,,,,,,,,,,,,,,,,,,,,,,,,,,,,,,,,,,,,,,,,,,,,,,dollar,79,18,sing,old,yellow,1397.284031099989,None,y,1397.284031099989,None,"['y', 'return']","[1.1793942999793217, 1.5716403999831527]",1397.284031099989,None,,,91NA,001,2023_Aug_31_1442,ExactRep-v3-final,2021.2.3,59.907825814760606,
,,,,,,,,,,,,18,0,18,0,,,,,,,,,,,,,,,,,,,,,,,,,,,,,,,,,,,,,,,,,,,,,,,,,1400.9285046000732,None,,,,,,,,,,,,,,,,,,,,,,,,,,,,,,,,,,,,,,,,,,,,,,,,,,,,,,,,,ticket,111,19,aloud,old,yellow,1399.399420300033,None,y,1399.399420300033,None,"['y', 'return']","[1.0959508999949321, 1.4799867999972776]",1399.399420300033,None,,,91NA,001,2023_Aug_31_1442,ExactRep-v3-final,2021.2.3,59.907825814760606,
,,,,,,,,,,,,19,0,19,0,,,,,,,,,,,,,,,,,,,,,,,,,,,,,,,,,,,,,,,,,,,,,,,,,1402.8636724000098,None,,,,,,,,,,,,,,,,,,,,,,,,,,,,,,,,,,,,,,,,,,,,,,,,,,,,,,,,,party,29,20,sing,old,yellow,1401.4539291000692,None,y,1401.4539291000692,None,"['y', 'return']","[0.9694805999752134, 1.3694765999680385]",1401.4539291000692,None,,,91NA,001,2023_Aug_31_1442,ExactRep-v3-final,2021.2.3,59.907825814760606,
,,,,,,,,,,,,20,0,20,0,,,,,,,,,,,,,,,,,,,,,,,,,,,,,,,,,,,,,,,,,,,,,,,,,1404.7155965000857,None,,,,,,,,,,,,,,,,,,,,,,,,,,,,,,,,,,,,,,,,,,,,,,,,,,,,,,,,,woman,105,21,aloud,old,yellow,1403.3671638000524,None,y,1403.3671638000524,None,"['y', 'return']","[0.9522061999887228, 1.304288599989377]",1403.3671638000524,None,,,91NA,001,2023_Aug_31_1442,ExactRep-v3-final,2021.2.3,59.907825814760606,
,,,,,,,,,,,,21,0,21,0,,,,,,,,,,,,,,,,,,,,,,,,,,,,,,,,,,,,,,,,,,,,,,,,,1409.9373598000966,None,,,,,,,,,,,,,,,,,,,,,,,,,,,,,,,,,,,,,,,,,,,,,,,,,,,,,,,,,justice,144,22,silent,new,yellow,1405.2325801000698,None,n,1405.2325801000698,None,"['y', 'backspace', 'n', 'return']","[2.2068274000193924, 3.9508028000127524, 4.334961300017312, 4.662710900069214]",1405.2325801000698,None,,,91NA,001,2023_Aug_31_1442,ExactRep-v3-final,2021.2.3,59.907825814760606,
,,,,,,,,,,,,22,0,22,0,,,,,,,,,,,,,,,,,,,,,,,,,,,,,,,,,,,,,,,,,,,,,,,,,1412.1060585000087,None,,,,,,,,,,,,,,,,,,,,,,,,,,,,,,,,,,,,,,,,,,,,,,,,,,,,,,,,,home,50,23,silent,old,yellow,1410.4473678000504,None,y,1410.4473678000504,None,"['y', 'return']","[1.2320959999924526, 1.6160360999638215]",1410.4473678000504,None,,,91NA,001,2023_Aug_31_1442,ExactRep-v3-final,2021.2.3,59.907825814760606,
,,,,,,,,,,,,23,0,23,0,,,,,,,,,,,,,,,,,,,,,,,,,,,,,,,,,,,,,,,,,,,,,,,,,1414.138446200057,None,,,,,,,,,,,,,,,,,,,,,,,,,,,,,,,,,,,,,,,,,,,,,,,,,,,,,,,,,teacher,74,24,silent,old,yellow,1412.6138869000133,None,y,1412.6138869000133,None,"['y', 'return']","[1.0814303000224754, 1.465430699987337]",1412.6138869000133,None,,,91NA,001,2023_Aug_31_1442,ExactRep-v3-final,2021.2.3,59.907825814760606,
,,,,,,,,,,,,24,0,24,0,,,,,,,,,,,,,,,,,,,,,,,,,,,,,,,,,,,,,,,,,,,,,,,,,1419.046652900055,None,,,,,,,,,,,,,,,,,,,,,,,,,,,,,,,,,,,,,,,,,,,,,,,,,,,,,,,,,idea,227,25,sing,new,yellow,1414.6556682999944,None,y,1414.6556682999944,None,"['y', 'return']","[4.063800900010392, 4.351759999990463]",1414.6556682999944,None,,,91NA,001,2023_Aug_31_1442,ExactRep-v3-final,2021.2.3,59.907825814760606,
,,,,,,,,,,,,25,0,25,0,,,,,,,,,,,,,,,,,,,,,,,,,,,,,,,,,,,,,,,,,,,,,,,,,1421.0161893999903,None,,,,,,,,,,,,,,,,,,,,,,,,,,,,,,,,,,,,,,,,,,,,,,,,,,,,,,,,,camp,212,26,aloud,new,yellow,1419.5704600000754,None,n,1419.5704600000754,None,"['n', 'return']","[1.1169727999949828, 1.4049555000383407]",1419.5704600000754,None,,,91NA,001,2023_Aug_31_1442,ExactRep-v3-final,2021.2.3,59.907825814760606,
,,,,,,,,,,,,26,0,26,0,,,,,,,,,,,,,,,,,,,,,,,,,,,,,,,,,,,,,,,,,,,,,,,,,1424.3849465000676,None,,,,,,,,,,,,,,,,,,,,,,,,,,,,,,,,,,,,,,,,,,,,,,,,,,,,,,,,,machine,203,27,sing,new,yellow,1421.5324664000655,None,y,1421.5324664000655,None,"['y', 'return']","[2.1868975000688806, 2.802967800060287]",1421.5324664000655,None,,,91NA,001,2023_Aug_31_1442,ExactRep-v3-final,2021.2.3,59.907825814760606,
,,,,,,,,,,,,27,0,27,0,,,,,,,,,,,,,,,,,,,,,,,,,,,,,,,,,,,,,,,,,,,,,,,,,1426.4535844000056,None,,,,,,,,,,,,,,,,,,,,,,,,,,,,,,,,,,,,,,,,,,,,,,,,,,,,,,,,,flood,169,28,sing,new,yellow,1424.9030213000951,None,n,1424.9030213000951,None,"['n', 'return']","[1.192413100041449, 1.5043917000293732]",1424.9030213000951,None,,,91NA,001,2023_Aug_31_1442,ExactRep-v3-final,2021.2.3,59.907825814760606,
,,,,,,,,,,,,28,0,28,0,,,,,,,,,,,,,,,,,,,,,,,,,,,,,,,,,,,,,,,,,,,,,,,,,1429.3055337000405,None,,,,,,,,,,,,,,,,,,,,,,,,,,,,,,,,,,,,,,,,,,,,,,,,,,,,,,,,,quality,104,29,aloud,old,yellow,1426.9617128000828,None,n,1426.9617128000828,None,"['n', 'return']","[1.9739326999988407, 2.301783600007184]",1426.9617128000828,None,,,91NA,001,2023_Aug_31_1442,ExactRep-v3-final,2021.2.3,59.907825814760606,
,,,,,,,,,,,,29,0,29,0,,,,,,,,,,,,,,,,,,,,,,,,,,,,,,,,,,,,,,,,,,,,,,,,,1431.3083170000464,None,,,,,,,,,,,,,,,,,,,,,,,,,,,,,,,,,,,,,,,,,,,,,,,,,,,,,,,,,army,34,30,sing,old,yellow,1429.8145465000998,None,y,1429.8145465000998,None,"['y', 'return']","[1.1048571000574157, 1.4487924000713974]",1429.8145465000998,None,,,91NA,001,2023_Aug_31_1442,ExactRep-v3-final,2021.2.3,59.907825814760606,
,,,,,,,,,,,,30,0,30,0,,,,,,,,,,,,,,,,,,,,,,,,,,,,,,,,,,,,,,,,,,,,,,,,,1433.6276682000607,None,,,,,,,,,,,,,,,,,,,,,,,,,,,,,,,,,,,,,,,,,,,,,,,,,,,,,,,,,hotel,89,31,aloud,old,yellow,1431.8176423000405,None,y,1431.8176423000405,None,"['y', 'return']","[1.3897199999773875, 1.773843599949032]",1431.8176423000405,None,,,91NA,001,2023_Aug_31_1442,ExactRep-v3-final,2021.2.3,59.907825814760606,
,,,,,,,,,,,,31,0,31,0,,,,,,,,,,,,,,,,,,,,,,,,,,,,,,,,,,,,,,,,,,,,,,,,,1435.6284938000608,None,,,,,,,,,,,,,,,,,,,,,,,,,,,,,,,,,,,,,,,,,,,,,,,,,,,,,,,,,breast,216,32,aloud,new,yellow,1434.134826600086,None,n,1434.134826600086,None,"['n', 'return']","[1.1525748000713065, 1.448578100069426]",1434.134826600086,None,,,91NA,001,2023_Aug_31_1442,ExactRep-v3-final,2021.2.3,59.907825814760606,
,,,,,,,,,,,,32,0,32,0,,,,,,,,,,,,,,,,,,,,,,,,,,,,,,,,,,,,,,,,,,,,,,,,,1437.8317192000104,None,,,,,,,,,,,,,,,,,,,,,,,,,,,,,,,,,,,,,,,,,,,,,,,,,,,,,,,,,dawn,59,33,silent,old,yellow,1436.1361330000218,None,y,1436.1361330000218,None,"['y', 'return']","[1.3593676999444142, 1.655268399976194]",1436.1361330000218,None,,,91NA,001,2023_Aug_31_1442,ExactRep-v3-final,2021.2.3,59.907825814760606,
,,,,,,,,,,,,33,0,33,0,,,,,,,,,,,,,,,,,,,,,,,,,,,,,,,,,,,,,,,,,,,,,,,,,1439.8004886000417,None,,,,,,,,,,,,,,,,,,,,,,,,,,,,,,,,,,,,,,,,,,,,,,,,,,,,,,,,,flower,225,34,sing,new,yellow,1438.3324917000718,None,n,1438.3324917000718,None,"['n', 'return']","[1.099150100024417, 1.426940600038506]",1438.3324917000718,None,,,91NA,001,2023_Aug_31_1442,ExactRep-v3-final,2021.2.3,59.907825814760606,
,,,,,,,,,,,,34,0,34,0,,,,,,,,,,,,,,,,,,,,,,,,,,,,,,,,,,,,,,,,,,,,,,,,,1441.735945200082,None,,,,,,,,,,,,,,,,,,,,,,,,,,,,,,,,,,,,,,,,,,,,,,,,,,,,,,,,,duty,26,35,sing,old,yellow,1440.3168964000652,None,y,1440.3168964000652,None,"['y', 'return']","[0.9944853000342846, 1.3705416000448167]",1440.3168964000652,None,,,91NA,001,2023_Aug_31_1442,ExactRep-v3-final,2021.2.3,59.907825814760606,
,,,,,,,,,,,,35,0,35,0,,,,,,,,,,,,,,,,,,,,,,,,,,,,,,,,,,,,,,,,,,,,,,,,,1444.737813899992,None,,,,,,,,,,,,,,,,,,,,,,,,,,,,,,,,,,,,,,,,,,,,,,,,,,,,,,,,,valley,220,36,aloud,new,yellow,1442.2519180000527,None,n,1442.2519180000527,None,"['n', 'return']","[1.1319231999805197, 2.4515462999697775]",1442.2519180000527,None,,,91NA,001,2023_Aug_31_1442,ExactRep-v3-final,2021.2.3,59.907825814760606,
,,,,,,,,,,,,36,0,36,0,,,,,,,,,,,,,,,,,,,,,,,,,,,,,,,,,,,,,,,,,,,,,,,,,1446.823937500012,None,,,,,,,,,,,,,,,,,,,,,,,,,,,,,,,,,,,,,,,,,,,,,,,,,,,,,,,,,lake,8,37,sing,old,yellow,1445.2398232000414,None,y,1445.2398232000414,None,"['y', 'return']","[1.1675802000099793, 1.5356354999821633]",1445.2398232000414,None,,,91NA,001,2023_Aug_31_1442,ExactRep-v3-final,2021.2.3,59.907825814760606,
,,,,,,,,,,,,37,0,37,0,,,,,,,,,,,,,,,,,,,,,,,,,,,,,,,,,,,,,,,,,,,,,,,,,1448.659307599999,None,,,,,,,,,,,,,,,,,,,,,,,,,,,,,,,,,,,,,,,,,,,,,,,,,,,,,,,,,potato,21,38,sing,old,yellow,1447.324856000021,None,y,1447.324856000021,None,"['y', 'return']","[0.9468976999633014, 1.2906266999198124]",1447.324856000021,None,,,91NA,001,2023_Aug_31_1442,ExactRep-v3-final,2021.2.3,59.907825814760606,
,,,,,,,,,,,,38,0,38,0,,,,,,,,,,,,,,,,,,,,,,,,,,,,,,,,,,,,,,,,,,,,,,,,,1450.5439792000689,None,,,,,,,,,,,,,,,,,,,,,,,,,,,,,,,,,,,,,,,,,,,,,,,,,,,,,,,,,judge,84,39,aloud,old,yellow,1449.1759406999918,None,y,1449.1759406999918,None,"['y', 'return']","[0.9676064000232145, 1.3195169999962673]",1449.1759406999918,None,,,91NA,001,2023_Aug_31_1442,ExactRep-v3-final,2021.2.3,59.907825814760606,
,,,,,,,,,,,,39,0,39,0,,,,,,,,,,,,,,,,,,,,,,,,,,,,,,,,,,,,,,,,,,,,,,,,,1452.6788872000761,None,,,,,,,,,,,,,,,,,,,,,,,,,,,,,,,,,,,,,,,,,,,,,,,,,,,,,,,,,poet,231,40,sing,new,yellow,1451.044890900026,None,n,1451.044890900026,None,"['n', 'return']","[1.2745492999674752, 1.5864096999866888]",1451.044890900026,None,,,91NA,001,2023_Aug_31_1442,ExactRep-v3-final,2021.2.3,59.907825814760606,
,,,,,,,,,,,,40,0,40,0,,,,,,,,,,,,,,,,,,,,,,,,,,,,,,,,,,,,,,,,,,,,,,,,,1454.515033200034,None,,,,,,,,,,,,,,,,,,,,,,,,,,,,,,,,,,,,,,,,,,,,,,,,,,,,,,,,,vision,27,41,sing,old,yellow,1453.1869673000183,None,y,1453.1869673000183,None,"['y', 'return']","[0.916399099980481, 1.2926466999342665]",1453.1869673000183,None,,,91NA,001,2023_Aug_31_1442,ExactRep-v3-final,2021.2.3,59.907825814760606,
,,,,,,,,,,,,41,0,41,0,,,,,,,,,,,,,,,,,,,,,,,,,,,,,,,,,,,,,,,,,,,,,,,,,1456.9668934000656,None,,,,,,,,,,,,,,,,,,,,,,,,,,,,,,,,,,,,,,,,,,,,,,,,,,,,,,,,,love,5,42,sing,old,yellow,1455.0325528000249,None,y,1455.0325528000249,None,"['y', 'return']","[1.631156999967061, 1.8948127999901772]",1455.0325528000249,None,,,91NA,001,2023_Aug_31_1442,ExactRep-v3-final,2021.2.3,59.907825814760606,
,,,,,,,,,,,,42,0,42,0,,,,,,,,,,,,,,,,,,,,,,,,,,,,,,,,,,,,,,,,,,,,,,,,,1460.6218919000821,None,,,,,,,,,,,,,,,,,,,,,,,,,,,,,,,,,,,,,,,,,,,,,,,,,,,,,,,,,paper,18,43,sing,old,yellow,1457.487294199993,None,n,1457.487294199993,None,"['n', 'return']","[2.8400683000218123, 3.0960514000616968]",1457.487294199993,None,,,91NA,001,2023_Aug_31_1442,ExactRep-v3-final,2021.2.3,59.907825814760606,
,,,,,,,,,,,,43,0,43,0,,,,,,,,,,,,,,,,,,,,,,,,,,,,,,,,,,,,,,,,,,,,,,,,,1462.673830899992,None,,,,,,,,,,,,,,,,,,,,,,,,,,,,,,,,,,,,,,,,,,,,,,,,,,,,,,,,,humour,40,44,silent,old,yellow,1461.138629400055,None,n,1461.138629400055,None,"['n', 'return']","[1.2368283999385312, 1.484776399913244]",1461.138629400055,None,,,91NA,001,2023_Aug_31_1442,ExactRep-v3-final,2021.2.3,59.907825814760606,
,,,,,,,,,,,,44,0,44,0,,,,,,,,,,,,,,,,,,,,,,,,,,,,,,,,,,,,,,,,,,,,,,,,,1464.508564800024,None,,,,,,,,,,,,,,,,,,,,,,,,,,,,,,,,,,,,,,,,,,,,,,,,,,,,,,,,,queen,1,45,sing,old,yellow,1463.1993961000117,None,y,1463.1993961000117,None,"['y', 'return']","[1.0240057000191882, 1.2721541000064462]",1463.1993961000117,None,,,91NA,001,2023_Aug_31_1442,ExactRep-v3-final,2021.2.3,59.907825814760606,
,,,,,,,,,,,,45,0,45,0,,,,,,,,,,,,,,,,,,,,,,,,,,,,,,,,,,,,,,,,,,,,,,,,,1466.5614891999867,None,,,,,,,,,,,,,,,,,,,,,,,,,,,,,,,,,,,,,,,,,,,,,,,,,,,,,,,,,cotton,110,46,aloud,old,yellow,1465.0248695000773,None,y,1465.0248695000773,None,"['y', 'return']","[1.2784309000708163, 1.4944093000376597]",1465.0248695000773,None,,,91NA,001,2023_Aug_31_1442,ExactRep-v3-final,2021.2.3,59.907825814760606,
,,,,,,,,,,,,46,0,46,0,,,,,,,,,,,,,,,,,,,,,,,,,,,,,,,,,,,,,,,,,,,,,,,,,1468.5790594000136,None,,,,,,,,,,,,,,,,,,,,,,,,,,,,,,,,,,,,,,,,,,,,,,,,,,,,,,,,,shore,217,47,sing,new,yellow,1467.0762616000138,None,n,1467.0762616000138,None,"['n', 'return']","[1.1951524999458343, 1.4673709999769926]",1467.0762616000138,None,,,91NA,001,2023_Aug_31_1442,ExactRep-v3-final,2021.2.3,59.907825814760606,
,,,,,,,,,,,,47,0,47,0,,,,,,,,,,,,,,,,,,,,,,,,,,,,,,,,,,,,,,,,,,,,,,,,,1470.7144318000646,None,,,,,,,,,,,,,,,,,,,,,,,,,,,,,,,,,,,,,,,,,,,,,,,,,,,,,,,,,author,229,48,sing,new,yellow,1469.0885526000056,None,n,1469.0885526000056,None,"['n', 'return']","[1.334815499954857, 1.5909130000509322]",1469.0885526000056,None,,,91NA,001,2023_Aug_31_1442,ExactRep-v3-final,2021.2.3,59.907825814760606,
,,,,,,,,,,,,48,0,48,0,,,,,,,,,,,,,,,,,,,,,,,,,,,,,,,,,,,,,,,,,,,,,,,,,1472.682818600093,None,,,,,,,,,,,,,,,,,,,,,,,,,,,,,,,,,,,,,,,,,,,,,,,,,,,,,,,,,kiss,135,49,silent,new,yellow,1471.220541000017,None,n,1471.220541000017,None,"['n', 'return']","[1.1628470999421552, 1.4189325999468565]",1471.220541000017,None,,,91NA,001,2023_Aug_31_1442,ExactRep-v3-final,2021.2.3,59.907825814760606,
,,,,,,,,,,,,49,0,49,0,,,,,,,,,,,,,,,,,,,,,,,,,,,,,,,,,,,,,,,,,,,,,,,,,1474.9015652000671,None,,,,,,,,,,,,,,,,,,,,,,,,,,,,,,,,,,,,,,,,,,,,,,,,,,,,,,,,,bottle,154,50,silent,new,yellow,1473.1840055000503,None,n,1473.1840055000503,None,"['n', 'return']","[1.383322799927555, 1.6713634999468923]",1473.1840055000503,None,,,91NA,001,2023_Aug_31_1442,ExactRep-v3-final,2021.2.3,59.907825814760606,
,,,,,,,,,,,,50,0,50,0,,,,,,,,,,,,,,,,,,,,,,,,,,,,,,,,,,,,,,,,,,,,,,,,,1476.7872025000397,None,,,,,,,,,,,,,,,,,,,,,,,,,,,,,,,,,,,,,,,,,,,,,,,,,,,,,,,,,board,49,51,silent,old,yellow,1475.40325209999,None,y,1475.40325209999,None,"['y', 'return']","[1.100098800030537, 1.3483220000052825]",1475.40325209999,None,,,91NA,001,2023_Aug_31_1442,ExactRep-v3-final,2021.2.3,59.907825814760606,
,,,,,,,,,,,,51,0,51,0,,,,,,,,,,,,,,,,,,,,,,,,,,,,,,,,,,,,,,,,,,,,,,,,,1478.6401023000944,None,,,,,,,,,,,,,,,,,,,,,,,,,,,,,,,,,,,,,,,,,,,,,,,,,,,,,,,,,diamond,143,52,silent,new,yellow,1477.312961800024,None,n,1477.312961800024,None,"['n', 'return']","[1.0387853999854997, 1.2865149000426754]",1477.312961800024,None,,,91NA,001,2023_Aug_31_1442,ExactRep-v3-final,2021.2.3,59.907825814760606,
,,,,,,,,,,,,52,0,52,0,,,,,,,,,,,,,,,,,,,,,,,,,,,,,,,,,,,,,,,,,,,,,,,,,1480.573563400074,None,,,,,,,,,,,,,,,,,,,,,,,,,,,,,,,,,,,,,,,,,,,,,,,,,,,,,,,,,mother,36,53,sing,old,yellow,1479.1661075000884,None,y,1479.1661075000884,None,"['y', 'return']","[1.1375028000911698, 1.3613021000055596]",1479.1661075000884,None,,,91NA,001,2023_Aug_31_1442,ExactRep-v3-final,2021.2.3,59.907825814760606,
,,,,,,,,,,,,53,0,53,0,,,,,,,,,,,,,,,,,,,,,,,,,,,,,,,,,,,,,,,,,,,,,,,,,1482.37615190004,None,,,,,,,,,,,,,,,,,,,,,,,,,,,,,,,,,,,,,,,,,,,,,,,,,,,,,,,,,cost,109,54,aloud,old,yellow,1481.0933425000403,None,y,1481.0933425000403,None,"['y', 'return']","[1.0420469000237063, 1.242025800049305]",1481.0933425000403,None,,,91NA,001,2023_Aug_31_1442,ExactRep-v3-final,2021.2.3,59.907825814760606,
,,,,,,,,,,,,54,0,54,0,,,,,,,,,,,,,,,,,,,,,,,,,,,,,,,,,,,,,,,,,,,,,,,,,1485.7468999000266,None,,,,,,,,,,,,,,,,,,,,,,,,,,,,,,,,,,,,,,,,,,,,,,,,,,,,,,,,,street,75,55,silent,old,yellow,1482.893707600073,None,n,1482.893707600073,None,"['n', 'return']","[2.625735600013286, 2.817775100003928]",1482.893707600073,None,,,91NA,001,2023_Aug_31_1442,ExactRep-v3-final,2021.2.3,59.907825814760606,
,,,,,,,,,,,,55,0,55,0,,,,,,,,,,,,,,,,,,,,,,,,,,,,,,,,,,,,,,,,,,,,,,,,,1487.6475532000186,None,,,,,,,,,,,,,,,,,,,,,,,,,,,,,,,,,,,,,,,,,,,,,,,,,,,,,,,,,fun,48,56,silent,old,yellow,1486.2687330000335,None,y,1486.2687330000335,None,"['y', 'return']","[1.114611899945885, 1.3387069000164047]",1486.2687330000335,None,,,91NA,001,2023_Aug_31_1442,ExactRep-v3-final,2021.2.3,59.907825814760606,
,,,,,,,,,,,,56,0,56,0,,,,,,,,,,,,,,,,,,,,,,,,,,,,,,,,,,,,,,,,,,,,,,,,,1489.9828882000875,None,,,,,,,,,,,,,,,,,,,,,,,,,,,,,,,,,,,,,,,,,,,,,,,,,,,,,,,,,season,124,57,silent,new,yellow,1488.1483496000292,None,n,1488.1483496000292,None,"['n', 'return']","[1.5710862999549136, 1.7872193999355659]",1488.1483496000292,None,,,91NA,001,2023_Aug_31_1442,ExactRep-v3-final,2021.2.3,59.907825814760606,
,,,,,,,,,,,,57,0,57,0,,,,,,,,,,,,,,,,,,,,,,,,,,,,,,,,,,,,,,,,,,,,,,,,,1492.1359473000048,None,,,,,,,,,,,,,,,,,,,,,,,,,,,,,,,,,,,,,,,,,,,,,,,,,,,,,,,,,month,130,58,silent,new,yellow,1490.4888033000752,None,n,1490.4888033000752,None,"['n', 'return']","[1.3270131999161094, 1.5986848999746144]",1490.4888033000752,None,,,91NA,001,2023_Aug_31_1442,ExactRep-v3-final,2021.2.3,59.907825814760606,
,,,,,,,,,,,,58,0,58,0,,,,,,,,,,,,,,,,,,,,,,,,,,,,,,,,,,,,,,,,,,,,,,,,,1494.2045754999854,None,,,,,,,,,,,,,,,,,,,,,,,,,,,,,,,,,,,,,,,,,,,,,,,,,,,,,,,,,woods,202,59,aloud,new,yellow,1492.6529310999904,None,n,1492.6529310999904,None,"['n', 'return']","[1.2827211000258103, 1.5063604000024498]",1492.6529310999904,None,,,91NA,001,2023_Aug_31_1442,ExactRep-v3-final,2021.2.3,59.907825814760606,
,,,,,,,,,,,,59,0,59,0,,,,,,,,,,,,,,,,,,,,,,,,,,,,,,,,,,,,,,,,,,,,,,,,,1496.1222130000824,None,,,,,,,,,,,,,,,,,,,,,,,,,,,,,,,,,,,,,,,,,,,,,,,,,,,,,,,,,seat,159,60,silent,new,yellow,1494.7085541000124,None,y,1494.7085541000124,None,"['y', 'return']","[1.138821900007315, 1.3708845999790356]",1494.7085541000124,None,,,91NA,001,2023_Aug_31_1442,ExactRep-v3-final,2021.2.3,59.907825814760606,
,,,,,,,,,,,,60,0,60,0,,,,,,,,,,,,,,,,,,,,,,,,,,,,,,,,,,,,,,,,,,,,,,,,,1497.941509300028,None,,,,,,,,,,,,,,,,,,,,,,,,,,,,,,,,,,,,,,,,,,,,,,,,,,,,,,,,,cottage,94,61,aloud,old,yellow,1496.6267001000233,None,y,1496.6267001000233,None,"['y', 'return']","[1.0610762999858707, 1.2686467999592423]",1496.6267001000233,None,,,91NA,001,2023_Aug_31_1442,ExactRep-v3-final,2021.2.3,59.907825814760606,
,,,,,,,,,,,,61,0,61,0,,,,,,,,,,,,,,,,,,,,,,,,,,,,,,,,,,,,,,,,,,,,,,,,,1499.9766019000672,None,,,,,,,,,,,,,,,,,,,,,,,,,,,,,,,,,,,,,,,,,,,,,,,,,,,,,,,,,world,131,62,silent,new,yellow,1498.4602447000798,None,n,1498.4602447000798,None,"['n', 'return']","[1.26724119996652, 1.4831405999138951]",1498.4602447000798,None,,,91NA,001,2023_Aug_31_1442,ExactRep-v3-final,2021.2.3,59.907825814760606,
,,,,,,,,,,,,62,0,62,0,,,,,,,,,,,,,,,,,,,,,,,,,,,,,,,,,,,,,,,,,,,,,,,,,1501.8291577000637,None,,,,,,,,,,,,,,,,,,,,,,,,,,,,,,,,,,,,,,,,,,,,,,,,,,,,,,,,,history,214,63,aloud,new,yellow,1500.4872149000876,None,y,1500.4872149000876,None,"['y', 'return']","[1.0722878000233322, 1.2960692000342533]",1500.4872149000876,None,,,91NA,001,2023_Aug_31_1442,ExactRep-v3-final,2021.2.3,59.907825814760606,
,,,,,,,,,,,,63,0,63,0,,,,,,,,,,,,,,,,,,,,,,,,,,,,,,,,,,,,,,,,,,,,,,,,,1503.614969999995,None,,,,,,,,,,,,,,,,,,,,,,,,,,,,,,,,,,,,,,,,,,,,,,,,,,,,,,,,,boy,145,64,silent,new,yellow,1502.3450923000928,None,n,1502.3450923000928,None,"['n', 'return']","[1.0062310000648722, 1.230335499974899]",1502.3450923000928,None,,,91NA,001,2023_Aug_31_1442,ExactRep-v3-final,2021.2.3,59.907825814760606,
,,,,,,,,,,,,64,0,64,0,,,,,,,,,,,,,,,,,,,,,,,,,,,,,,,,,,,,,,,,,,,,,,,,,1507.1009103000397,None,,,,,,,,,,,,,,,,,,,,,,,,,,,,,,,,,,,,,,,,,,,,,,,,,,,,,,,,,chair,201,65,sing,new,yellow,1504.1315891999984,None,y,1504.1315891999984,None,"['y', 'return']","[1.2517464000266045, 2.9237171000568196]",1504.1315891999984,None,,,91NA,001,2023_Aug_31_1442,ExactRep-v3-final,2021.2.3,59.907825814760606,
,,,,,,,,,,,,65,0,65,0,,,,,,,,,,,,,,,,,,,,,,,,,,,,,,,,,,,,,,,,,,,,,,,,,1509.1368693000404,None,,,,,,,,,,,,,,,,,,,,,,,,,,,,,,,,,,,,,,,,,,,,,,,,,,,,,,,,,butter,116,66,aloud,old,yellow,1507.6076321,None,n,1507.6076321,None,"['n', 'return']","[1.2637213000562042, 1.4797630000393838]",1507.6076321,None,,,91NA,001,2023_Aug_31_1442,ExactRep-v3-final,2021.2.3,59.907825814760606,
,,,,,,,,,,,,66,0,66,0,,,,,,,,,,,,,,,,,,,,,,,,,,,,,,,,,,,,,,,,,,,,,,,,,1511.3550684000365,None,,,,,,,,,,,,,,,,,,,,,,,,,,,,,,,,,,,,,,,,,,,,,,,,,,,,,,,,,door,199,67,sing,new,yellow,1509.653507900075,None,n,1509.653507900075,None,"['n', 'return']","[1.4177650000201538, 1.6662217000266537]",1509.653507900075,None,,,91NA,001,2023_Aug_31_1442,ExactRep-v3-final,2021.2.3,59.907825814760606,
,,,,,,,,,,,,67,0,67,0,,,,,,,,,,,,,,,,,,,,,,,,,,,,,,,,,,,,,,,,,,,,,,,,,1513.173797100084,None,,,,,,,,,,,,,,,,,,,,,,,,,,,,,,,,,,,,,,,,,,,,,,,,,,,,,,,,,meadow,95,68,aloud,old,yellow,1511.8630931000225,None,y,1511.8630931000225,None,"['y', 'return']","[1.0565469999564812, 1.272206800058484]",1511.8630931000225,None,,,91NA,001,2023_Aug_31_1442,ExactRep-v3-final,2021.2.3,59.907825814760606,
,,,,,,,,,,,,68,0,68,0,,,,,,,,,,,,,,,,,,,,,,,,,,,,,,,,,,,,,,,,,,,,,,,,,1515.792922600056,None,,,,,,,,,,,,,,,,,,,,,,,,,,,,,,,,,,,,,,,,,,,,,,,,,,,,,,,,,spirit,6,69,sing,old,yellow,1513.6909969000844,None,y,1513.6909969000844,None,"['y', 'return']","[1.2682689999928698, 2.0524337000679225]",1513.6909969000844,None,,,91NA,001,2023_Aug_31_1442,ExactRep-v3-final,2021.2.3,59.907825814760606,
,,,,,,,,,,,,69,0,69,0,,,,,,,,,,,,,,,,,,,,,,,,,,,,,,,,,,,,,,,,,,,,,,,,,1520.0478357000975,None,,,,,,,,,,,,,,,,,,,,,,,,,,,,,,,,,,,,,,,,,,,,,,,,,,,,,,,,,excuse,58,70,silent,old,yellow,1516.3102015000768,None,y,1516.3102015000768,None,"['n', 'backspace', 'y', 'return']","[1.513141000061296, 3.03323410009034, 3.369053900009021, 3.689162600087002]",1516.3102015000768,None,,,91NA,001,2023_Aug_31_1442,ExactRep-v3-final,2021.2.3,59.907825814760606,
,,,,,,,,,,,,70,0,70,0,,,,,,,,,,,,,,,,,,,,,,,,,,,,,,,,,,,,,,,,,,,,,,,,,1521.832147500012,None,,,,,,,,,,,,,,,,,,,,,,,,,,,,,,,,,,,,,,,,,,,,,,,,,,,,,,,,,devil,17,71,sing,old,yellow,1520.5689358999953,None,y,1520.5689358999953,None,"['y', 'return']","[1.0064268000423908, 1.2144482999574393]",1520.5689358999953,None,,,91NA,001,2023_Aug_31_1442,ExactRep-v3-final,2021.2.3,59.907825814760606,
,,,,,,,,,,,,71,0,71,0,,,,,,,,,,,,,,,,,,,,,,,,,,,,,,,,,,,,,,,,,,,,,,,,,1523.7177154000383,None,,,,,,,,,,,,,,,,,,,,,,,,,,,,,,,,,,,,,,,,,,,,,,,,,,,,,,,,,metal,149,72,silent,new,yellow,1522.3339294000762,None,n,1522.3339294000762,None,"['n', 'return']","[1.1137082000495866, 1.345385599997826]",1522.3339294000762,None,,,91NA,001,2023_Aug_31_1442,ExactRep-v3-final,2021.2.3,59.907825814760606,
,,,,,,,,,,,,72,0,72,0,,,,,,,,,,,,,,,,,,,,,,,,,,,,,,,,,,,,,,,,,,,,,,,,,1526.7104694000445,None,,,,,,,,,,,,,,,,,,,,,,,,,,,,,,,,,,,,,,,,,,,,,,,,,,,,,,,,,doctor,47,73,silent,old,yellow,1524.236430500052,None,n,1524.236430500052,None,"['n', 'return']","[2.2349144000327215, 2.4268242999678478]",1524.236430500052,None,,,91NA,001,2023_Aug_31_1442,ExactRep-v3-final,2021.2.3,59.907825814760606,
,,,,,,,,,,,,73,0,73,0,,,,,,,,,,,,,,,,,,,,,,,,,,,,,,,,,,,,,,,,,,,,,,,,,1528.4880169000244,None,,,,,,,,,,,,,,,,,,,,,,,,,,,,,,,,,,,,,,,,,,,,,,,,,,,,,,,,,power,3,74,sing,old,yellow,1527.2213125000708,None,y,1527.2213125000708,None,"['y', 'return']","[1.0100217000581324, 1.226124000037089]",1527.2213125000708,None,,,91NA,001,2023_Aug_31_1442,ExactRep-v3-final,2021.2.3,59.907825814760606,
,,,,,,,,,,,,74,0,74,0,,,,,,,,,,,,,,,,,,,,,,,,,,,,,,,,,,,,,,,,,,,,,,,,,1530.7918324000202,None,,,,,,,,,,,,,,,,,,,,,,,,,,,,,,,,,,,,,,,,,,,,,,,,,,,,,,,,,cash,206,75,aloud,new,yellow,1528.989673400065,None,n,1528.989673400065,None,"['n', 'return']","[1.5376988000934944, 1.7537789000198245]",1528.989673400065,None,,,91NA,001,2023_Aug_31_1442,ExactRep-v3-final,2021.2.3,59.907825814760606,
,,,,,,,,,,,,75,0,75,0,,,,,,,,,,,,,,,,,,,,,,,,,,,,,,,,,,,,,,,,,,,,,,,,,1534.3447365000611,None,,,,,,,,,,,,,,,,,,,,,,,,,,,,,,,,,,,,,,,,,,,,,,,,,,,,,,,,,meeting,196,76,aloud,new,yellow,1531.3195233000442,None,n,1531.3195233000442,None,"['n', 'return']","[2.75181380007416, 2.9839417000766844]",1531.3195233000442,None,,,91NA,001,2023_Aug_31_1442,ExactRep-v3-final,2021.2.3,59.907825814760606,
,,,,,,,,,,,,76,0,76,0,,,,,,,,,,,,,,,,,,,,,,,,,,,,,,,,,,,,,,,,,,,,,,,,,1536.7978573000291,None,,,,,,,,,,,,,,,,,,,,,,,,,,,,,,,,,,,,,,,,,,,,,,,,,,,,,,,,,lord,204,77,aloud,new,yellow,1534.8609400000423,None,n,1534.8609400000423,None,"['n', 'return']","[1.6664456999860704, 1.8903496999992058]",1534.8609400000423,None,,,91NA,001,2023_Aug_31_1442,ExactRep-v3-final,2021.2.3,59.907825814760606,
,,,,,,,,,,,,77,0,77,0,,,,,,,,,,,,,,,,,,,,,,,,,,,,,,,,,,,,,,,,,,,,,,,,,1540.0337877999991,None,,,,,,,,,,,,,,,,,,,,,,,,,,,,,,,,,,,,,,,,,,,,,,,,,,,,,,,,,sugar,205,78,sing,new,yellow,1537.3146826000884,None,n,1537.3146826000884,None,"['n', 'return']","[2.4367284000618383, 2.6766545000718907]",1537.3146826000884,None,,,91NA,001,2023_Aug_31_1442,ExactRep-v3-final,2021.2.3,59.907825814760606,
,,,,,,,,,,,,78,0,78,0,,,,,,,,,,,,,,,,,,,,,,,,,,,,,,,,,,,,,,,,,,,,,,,,,1542.4028973000823,None,,,,,,,,,,,,,,,,,,,,,,,,,,,,,,,,,,,,,,,,,,,,,,,,,,,,,,,,,memory,211,79,sing,new,yellow,1540.5513255000114,None,y,1540.5513255000114,None,"['y', 'return']","[1.448455199948512, 1.816270799958147]",1540.5513255000114,None,,,91NA,001,2023_Aug_31_1442,ExactRep-v3-final,2021.2.3,59.907825814760606,
,,,,,,,,,,,,79,0,79,0,,,,,,,,,,,,,,,,,,,,,,,,,,,,,,,,,,,,,,,,,,,,,,,,,1544.2729284000816,None,,,,,,,,,,,,,,,,,,,,,,,,,,,,,,,,,,,,,,,,,,,,,,,,,,,,,,,,,plain,163,80,sing,new,yellow,1542.9196031000465,None,n,1542.9196031000465,None,"['n', 'return']","[1.071772399940528, 1.3117507999995723]",1542.9196031000465,None,,,91NA,001,2023_Aug_31_1442,ExactRep-v3-final,2021.2.3,59.907825814760606,
,,,,,,,,,,,,80,0,80,0,,,,,,,,,,,,,,,,,,,,,,,,,,,,,,,,,,,,,,,,,,,,,,,,,1547.0240135000786,None,,,,,,,,,,,,,,,,,,,,,,,,,,,,,,,,,,,,,,,,,,,,,,,,,,,,,,,,,corner,97,81,aloud,old,yellow,1544.807027700008,None,y,1544.807027700008,None,"['y', 'return']","[1.9123019999824464, 2.168361200019717]",1544.807027700008,None,,,91NA,001,2023_Aug_31_1442,ExactRep-v3-final,2021.2.3,59.907825814760606,
,,,,,,,,,,,,81,0,81,0,,,,,,,,,,,,,,,,,,,,,,,,,,,,,,,,,,,,,,,,,,,,,,,,,1553.8809067000402,None,,,,,,,,,,,,,,,,,,,,,,,,,,,,,,,,,,,,,,,,,,,,,,,,,,,,,,,,,leader,173,82,sing,new,yellow,1547.5431606000056,None,n,1547.5431606000056,None,"['n', 'return']","[5.832042400026694, 6.288074800046161]",1547.5431606000056,None,,,91NA,001,2023_Aug_31_1442,ExactRep-v3-final,2021.2.3,59.907825814760606,
,,,,,,,,,,,,82,0,82,0,,,,,,,,,,,,,,,,,,,,,,,,,,,,,,,,,,,,,,,,,,,,,,,,,1555.7332458000164,None,,,,,,,,,,,,,,,,,,,,,,,,,,,,,,,,,,,,,,,,,,,,,,,,,,,,,,,,,crime,61,83,silent,old,yellow,1554.3821377001004,None,y,1554.3821377001004,None,"['y', 'return']","[1.08920200006105, 1.313624200061895]",1554.3821377001004,None,,,91NA,001,2023_Aug_31_1442,ExactRep-v3-final,2021.2.3,59.907825814760606,
,,,,,,,,,,,,83,0,83,0,,,,,,,,,,,,,,,,,,,,,,,,,,,,,,,,,,,,,,,,,,,,,,,,,1559.8536718999967,None,,,,,,,,,,,,,,,,,,,,,,,,,,,,,,,,,,,,,,,,,,,,,,,,,,,,,,,,,hall,100,84,aloud,old,yellow,1556.2638460000744,None,y,1556.2638460000744,None,"['y', 'return']","[3.2394795999862254, 3.5514136999845505]",1556.2638460000744,None,,,91NA,001,2023_Aug_31_1442,ExactRep-v3-final,2021.2.3,59.907825814760606,
,,,,,,,,,,,,84,0,84,0,,,,,,,,,,,,,,,,,,,,,,,,,,,,,,,,,,,,,,,,,,,,,,,,,1561.6220496000024,None,,,,,,,,,,,,,,,,,,,,,,,,,,,,,,,,,,,,,,,,,,,,,,,,,,,,,,,,,fur,233,85,sing,new,yellow,1560.3546283000614,None,n,1560.3546283000614,None,"['n', 'return']","[1.0448672000784427, 1.2207422000356019]",1560.3546283000614,None,,,91NA,001,2023_Aug_31_1442,ExactRep-v3-final,2021.2.3,59.907825814760606,
,,,,,,,,,,,,85,0,85,0,,,,,,,,,,,,,,,,,,,,,,,,,,,,,,,,,,,,,,,,,,,,,,,,,1563.6395421000198,None,,,,,,,,,,,,,,,,,,,,,,,,,,,,,,,,,,,,,,,,,,,,,,,,,,,,,,,,,rod,98,86,aloud,old,yellow,1562.1379912000848,None,y,1562.1379912000848,None,"['y', 'return']","[1.2053984000813216, 1.4532877000747249]",1562.1379912000848,None,,,91NA,001,2023_Aug_31_1442,ExactRep-v3-final,2021.2.3,59.907825814760606,
,,,,,,,,,,,,86,0,86,0,,,,,,,,,,,,,,,,,,,,,,,,,,,,,,,,,,,,,,,,,,,,,,,,,1565.5594401999842,None,,,,,,,,,,,,,,,,,,,,,,,,,,,,,,,,,,,,,,,,,,,,,,,,,,,,,,,,,gift,82,87,aloud,old,yellow,1564.1417240999872,None,y,1564.1417240999872,None,"['y', 'return']","[1.1376861999742687, 1.3776537999510765]",1564.1417240999872,None,,,91NA,001,2023_Aug_31_1442,ExactRep-v3-final,2021.2.3,59.907825814760606,
,,,,,,,,,,,,87,0,87,0,,,,,,,,,,,,,,,,,,,,,,,,,,,,,,,,,,,,,,,,,,,,,,,,,1567.7280435999855,None,,,,,,,,,,,,,,,,,,,,,,,,,,,,,,,,,,,,,,,,,,,,,,,,,,,,,,,,,skin,44,88,silent,old,yellow,1566.0704672000138,None,y,1566.0704672000138,None,"['y', 'return']","[1.3848677000496536, 1.6088703999994323]",1566.0704672000138,None,,,91NA,001,2023_Aug_31_1442,ExactRep-v3-final,2021.2.3,59.907825814760606,
,,,,,,,,,,,,88,0,88,0,,,,,,,,,,,,,,,,,,,,,,,,,,,,,,,,,,,,,,,,,,,,,,,,,1569.6304290000116,None,,,,,,,,,,,,,,,,,,,,,,,,,,,,,,,,,,,,,,,,,,,,,,,,,,,,,,,,,master,198,89,aloud,new,yellow,1568.2346146000782,None,n,1568.2346146000782,None,"['n', 'return']","[1.1326809000456706, 1.3487394000403583]",1568.2346146000782,None,,,91NA,001,2023_Aug_31_1442,ExactRep-v3-final,2021.2.3,59.907825814760606,
,,,,,,,,,,,,89,0,89,0,,,,,,,,,,,,,,,,,,,,,,,,,,,,,,,,,,,,,,,,,,,,,,,,,1571.8979629999958,None,,,,,,,,,,,,,,,,,,,,,,,,,,,,,,,,,,,,,,,,,,,,,,,,,,,,,,,,,blood,218,90,aloud,new,yellow,1570.1559350000462,None,n,1570.1559350000462,None,"['n', 'return']","[1.4914220999926329, 1.7076743999496102]",1570.1559350000462,None,,,91NA,001,2023_Aug_31_1442,ExactRep-v3-final,2021.2.3,59.907825814760606,
,,,,,,,,,,,,90,0,90,0,,,,,,,,,,,,,,,,,,,,,,,,,,,,,,,,,,,,,,,,,,,,,,,,,1573.80125150003,None,,,,,,,,,,,,,,,,,,,,,,,,,,,,,,,,,,,,,,,,,,,,,,,,,,,,,,,,,maiden,230,91,aloud,new,yellow,1572.4189039000776,None,n,1572.4189039000776,None,"['n', 'return']","[1.1245182000566274, 1.332577500026673]",1572.4189039000776,None,,,91NA,001,2023_Aug_31_1442,ExactRep-v3-final,2021.2.3,59.907825814760606,
,,,,,,,,,,,,91,0,91,0,,,,,,,,,,,,,,,,,,,,,,,,,,,,,,,,,,,,,,,,,,,,,,,,,1577.0876873000525,None,,,,,,,,,,,,,,,,,,,,,,,,,,,,,,,,,,,,,,,,,,,,,,,,,,,,,,,,,honour,180,92,aloud,new,yellow,1574.3163470000727,None,n,1574.3163470000727,None,"['n', 'return']","[2.4672688000136986, 2.7230436999816447]",1574.3163470000727,None,,,91NA,001,2023_Aug_31_1442,ExactRep-v3-final,2021.2.3,59.907825814760606,
,,,,,,,,,,,,92,0,92,0,,,,,,,,,,,,,,,,,,,,,,,,,,,,,,,,,,,,,,,,,,,,,,,,,1579.4230772000737,None,,,,,,,,,,,,,,,,,,,,,,,,,,,,,,,,,,,,,,,,,,,,,,,,,,,,,,,,,flag,150,93,silent,new,yellow,1577.5936036000494,None,n,1577.5936036000494,None,"['n', 'return']","[1.3658363999566063, 1.7817816999740899]",1577.5936036000494,None,,,91NA,001,2023_Aug_31_1442,ExactRep-v3-final,2021.2.3,59.907825814760606,
,,,,,,,,,,,,93,0,93,0,,,,,,,,,,,,,,,,,,,,,,,,,,,,,,,,,,,,,,,,,,,,,,,,,1581.4255898999982,None,,,,,,,,,,,,,,,,,,,,,,,,,,,,,,,,,,,,,,,,,,,,,,,,,,,,,,,,,thought,136,94,silent,new,yellow,1579.9360015999991,None,n,1579.9360015999991,None,"['n', 'return']","[1.1914301000069827, 1.439397200010717]",1579.9360015999991,None,,,91NA,001,2023_Aug_31_1442,ExactRep-v3-final,2021.2.3,59.907825814760606,
,,,,,,,,,,,,94,0,94,0,,,,,,,,,,,,,,,,,,,,,,,,,,,,,,,,,,,,,,,,,,,,,,,,,1583.4596826999914,None,,,,,,,,,,,,,,,,,,,,,,,,,,,,,,,,,,,,,,,,,,,,,,,,,,,,,,,,,trouble,158,95,silent,new,yellow,1581.9426498000976,None,y,1581.9426498000976,None,"['y', 'return']","[1.248916000011377, 1.4726435000775382]",1581.9426498000976,None,,,91NA,001,2023_Aug_31_1442,ExactRep-v3-final,2021.2.3,59.907825814760606,
,,,,,,,,,,,,95,0,95,0,,,,,,,,,,,,,,,,,,,,,,,,,,,,,,,,,,,,,,,,,,,,,,,,,1585.545915900031,None,,,,,,,,,,,,,,,,,,,,,,,,,,,,,,,,,,,,,,,,,,,,,,,,,,,,,,,,,friend,107,96,aloud,old,yellow,1583.9824162999867,None,y,1583.9824162999867,None,"['y', 'return']","[1.216878000064753, 1.529038600041531]",1583.9824162999867,None,,,91NA,001,2023_Aug_31_1442,ExactRep-v3-final,2021.2.3,59.907825814760606,
,,,,,,,,,,,,96,0,96,0,,,,,,,,,,,,,,,,,,,,,,,,,,,,,,,,,,,,,,,,,,,,,,,,,1587.4135807000566,None,,,,,,,,,,,,,,,,,,,,,,,,,,,,,,,,,,,,,,,,,,,,,,,,,,,,,,,,,salary,195,97,sing,new,yellow,1586.0636393000605,None,n,1586.0636393000605,None,"['n', 'return']","[1.047631600056775, 1.3036100000608712]",1586.0636393000605,None,,,91NA,001,2023_Aug_31_1442,ExactRep-v3-final,2021.2.3,59.907825814760606,
,,,,,,,,,,,,97,0,97,0,,,,,,,,,,,,,,,,,,,,,,,,,,,,,,,,,,,,,,,,,,,,,,,,,1589.7500026000198,None,,,,,,,,,,,,,,,,,,,,,,,,,,,,,,,,,,,,,,,,,,,,,,,,,,,,,,,,,tree,155,98,silent,new,yellow,1587.9147711000405,None,n,1587.9147711000405,None,"['n', 'return']","[1.556481899926439, 1.7966459000017494]",1587.9147711000405,None,,,91NA,001,2023_Aug_31_1442,ExactRep-v3-final,2021.2.3,59.907825814760606,
,,,,,,,,,,,,98,0,98,0,,,,,,,,,,,,,,,,,,,,,,,,,,,,,,,,,,,,,,,,,,,,,,,,,1591.7185401000315,None,,,,,,,,,,,,,,,,,,,,,,,,,,,,,,,,,,,,,,,,,,,,,,,,,,,,,,,,,string,126,99,silent,new,yellow,1590.2565707000904,None,n,1590.2565707000904,None,"['n', 'return']","[1.1752393000060692, 1.4228035000851378]",1590.2565707000904,None,,,91NA,001,2023_Aug_31_1442,ExactRep-v3-final,2021.2.3,59.907825814760606,
,,,,,,,,,,,,99,0,99,0,,,,,,,,,,,,,,,,,,,,,,,,,,,,,,,,,,,,,,,,,,,,,,,,,1593.8540915000485,None,,,,,,,,,,,,,,,,,,,,,,,,,,,,,,,,,,,,,,,,,,,,,,,,,,,,,,,,,death,200,100,aloud,new,yellow,1592.2198444000678,None,n,1592.2198444000678,None,"['n', 'return']","[1.3155656000599265, 1.5875055000651628]",1592.2198444000678,None,,,91NA,001,2023_Aug_31_1442,ExactRep-v3-final,2021.2.3,59.907825814760606,
,,,,,,,,,,,,100,0,100,0,,,,,,,,,,,,,,,,,,,,,,,,,,,,,,,,,,,,,,,,,,,,,,,,,1598.6747795999981,None,,,,,,,,,,,,,,,,,,,,,,,,,,,,,,,,,,,,,,,,,,,,,,,,,,,,,,,,,coast,207,101,sing,new,yellow,1594.3552389000542,None,n,1594.3552389000542,None,"['n', 'return']","[3.428122900077142, 4.276009900029749]",1594.3552389000542,None,,,91NA,001,2023_Aug_31_1442,ExactRep-v3-final,2021.2.3,59.907825814760606,
,,,,,,,,,,,,101,0,101,0,,,,,,,,,,,,,,,,,,,,,,,,,,,,,,,,,,,,,,,,,,,,,,,,,1602.112649000017,None,,,,,,,,,,,,,,,,,,,,,,,,,,,,,,,,,,,,,,,,,,,,,,,,,,,,,,,,,coin,25,102,sing,old,yellow,1599.1763736000285,None,y,1599.1763736000285,None,"['y', 'return']","[2.6309015000006184, 2.8949514999985695]",1599.1763736000285,None,,,91NA,001,2023_Aug_31_1442,ExactRep-v3-final,2021.2.3,59.907825814760606,
,,,,,,,,,,,,102,0,102,0,,,,,,,,,,,,,,,,,,,,,,,,,,,,,,,,,,,,,,,,,,,,,,,,,1606.2154391000513,None,,,,,,,,,,,,,,,,,,,,,,,,,,,,,,,,,,,,,,,,,,,,,,,,,,,,,,,,,sea,78,103,silent,old,yellow,1602.6406324000563,None,n,1602.6406324000563,None,"['n', 'return']","[3.1426587000023574, 3.5266775999916717]",1602.6406324000563,None,,,91NA,001,2023_Aug_31_1442,ExactRep-v3-final,2021.2.3,59.907825814760606,
,,,,,,,,,,,,103,0,103,0,,,,,,,,,,,,,,,,,,,,,,,,,,,,,,,,,,,,,,,,,,,,,,,,,1609.0864521000767,None,,,,,,,,,,,,,,,,,,,,,,,,,,,,,,,,,,,,,,,,,,,,,,,,,,,,,,,,,shadow,148,104,silent,new,yellow,1606.7270870000357,None,n,1606.7270870000357,None,"['n', 'return']","[2.000248200027272, 2.3122507999651134]",1606.7270870000357,None,,,91NA,001,2023_Aug_31_1442,ExactRep-v3-final,2021.2.3,59.907825814760606,
,,,,,,,,,,,,104,0,104,0,,,,,,,,,,,,,,,,,,,,,,,,,,,,,,,,,,,,,,,,,,,,,,,,,1611.0718650000636,None,,,,,,,,,,,,,,,,,,,,,,,,,,,,,,,,,,,,,,,,,,,,,,,,,,,,,,,,,priest,123,105,silent,new,yellow,1609.593878100044,None,n,1609.593878100044,None,"['n', 'return']","[1.2614798999857157, 1.4375184000236914]",1609.593878100044,None,,,91NA,001,2023_Aug_31_1442,ExactRep-v3-final,2021.2.3,59.907825814760606,
,,,,,,,,,,,,105,0,105,0,,,,,,,,,,,,,,,,,,,,,,,,,,,,,,,,,,,,,,,,,,,,,,,,,1613.3562175000552,None,,,,,,,,,,,,,,,,,,,,,,,,,,,,,,,,,,,,,,,,,,,,,,,,,,,,,,,,,prison,147,106,silent,new,yellow,1611.5890152000356,None,n,1611.5890152000356,None,"['n', 'return']","[1.5307457000017166, 1.7222228000173345]",1611.5890152000356,None,,,91NA,001,2023_Aug_31_1442,ExactRep-v3-final,2021.2.3,59.907825814760606,
,,,,,,,,,,,,106,0,106,0,,,,,,,,,,,,,,,,,,,,,,,,,,,,,,,,,,,,,,,,,,,,,,,,,1615.3083904000232,None,,,,,,,,,,,,,,,,,,,,,,,,,,,,,,,,,,,,,,,,,,,,,,,,,,,,,,,,,lip,37,107,sing,old,yellow,1613.8576830000384,None,y,1613.8576830000384,None,"['y', 'return']","[1.1817781999707222, 1.4055705999489874]",1613.8576830000384,None,,,91NA,001,2023_Aug_31_1442,ExactRep-v3-final,2021.2.3,59.907825814760606,
,,,,,,,,,,,,107,0,107,0,,,,,,,,,,,,,,,,,,,,,,,,,,,,,,,,,,,,,,,,,,,,,,,,,1617.5460165000986,None,,,,,,,,,,,,,,,,,,,,,,,,,,,,,,,,,,,,,,,,,,,,,,,,,,,,,,,,,science,146,108,silent,new,yellow,1615.8096654000692,None,n,1615.8096654000692,None,"['n', 'return']","[1.477569300099276, 1.6935753000434488]",1615.8096654000692,None,,,91NA,001,2023_Aug_31_1442,ExactRep-v3-final,2021.2.3,59.907825814760606,
,,,,,,,,,,,,108,0,108,0,,,,,,,,,,,,,,,,,,,,,,,,,,,,,,,,,,,,,,,,,,,,,,,,,1619.6803581001004,None,,,,,,,,,,,,,,,,,,,,,,,,,,,,,,,,,,,,,,,,,,,,,,,,,,,,,,,,,form,226,109,aloud,new,yellow,1618.0691111000488,None,n,1618.0691111000488,None,"['n', 'return']","[1.3543264999752864, 1.5702966999961063]",1618.0691111000488,None,,,91NA,001,2023_Aug_31_1442,ExactRep-v3-final,2021.2.3,59.907825814760606,
,,,,,,,,,,,,109,0,109,0,,,,,,,,,,,,,,,,,,,,,,,,,,,,,,,,,,,,,,,,,,,,,,,,,1621.7489400000777,None,,,,,,,,,,,,,,,,,,,,,,,,,,,,,,,,,,,,,,,,,,,,,,,,,,,,,,,,,child,125,110,silent,new,yellow,1620.1890699000796,None,n,1620.1890699000796,None,"['n', 'return']","[1.3463047000113875, 1.5142000000923872]",1620.1890699000796,None,,,91NA,001,2023_Aug_31_1442,ExactRep-v3-final,2021.2.3,59.907825814760606,
,,,,,,,,,,,,110,0,110,0,,,,,,,,,,,,,,,,,,,,,,,,,,,,,,,,,,,,,,,,,,,,,,,,,1623.7996536000865,None,,,,,,,,,,,,,,,,,,,,,,,,,,,,,,,,,,,,,,,,,,,,,,,,,,,,,,,,,tool,52,111,silent,old,yellow,1622.2660592000466,None,n,1622.2660592000466,None,"['n', 'return']","[1.2852151999250054, 1.4852394999470562]",1622.2660592000466,None,,,91NA,001,2023_Aug_31_1442,ExactRep-v3-final,2021.2.3,59.907825814760606,
,,,,,,,,,,,,111,0,111,0,,,,,,,,,,,,,,,,,,,,,,,,,,,,,,,,,,,,,,,,,,,,,,,,,1625.9685255000368,None,,,,,,,,,,,,,,,,,,,,,,,,,,,,,,,,,,,,,,,,,,,,,,,,,,,,,,,,,grass,81,112,aloud,old,yellow,1624.3114768000087,None,y,1624.3114768000087,None,"['y', 'return']","[1.391908899997361, 1.6159210000187159]",1624.3114768000087,None,,,91NA,001,2023_Aug_31_1442,ExactRep-v3-final,2021.2.3,59.907825814760606,
,,,,,,,,,,,,112,0,112,0,,,,,,,,,,,,,,,,,,,,,,,,,,,,,,,,,,,,,,,,,,,,,,,,,1630.1406513000838,None,,,,,,,,,,,,,,,,,,,,,,,,,,,,,,,,,,,,,,,,,,,,,,,,,,,,,,,,,officer,208,113,aloud,new,yellow,1626.4764543999918,None,y,1626.4764543999918,None,"['n', 'backspace', 'y', 'return']","[1.827088400023058, 3.026936999987811, 3.3469108999706805, 3.6271934000542387]",1626.4764543999918,None,,,91NA,001,2023_Aug_31_1442,ExactRep-v3-final,2021.2.3,59.907825814760606,
,,,,,,,,,,,,113,0,113,0,,,,,,,,,,,,,,,,,,,,,,,,,,,,,,,,,,,,,,,,,,,,,,,,,1632.3928547000978,None,,,,,,,,,,,,,,,,,,,,,,,,,,,,,,,,,,,,,,,,,,,,,,,,,,,,,,,,,fault,2,114,sing,old,yellow,1630.6504293000326,None,n,1630.6504293000326,None,"['n', 'return']","[1.4688822000753134, 1.6928432000568137]",1630.6504293000326,None,,,91NA,001,2023_Aug_31_1442,ExactRep-v3-final,2021.2.3,59.907825814760606,
,,,,,,,,,,,,114,0,114,0,,,,,,,,,,,,,,,,,,,,,,,,,,,,,,,,,,,,,,,,,,,,,,,,,1634.4616271000123,None,,,,,,,,,,,,,,,,,,,,,,,,,,,,,,,,,,,,,,,,,,,,,,,,,,,,,,,,,beast,22,115,sing,old,yellow,1632.9103042000206,None,y,1632.9103042000206,None,"['y', 'return']","[1.3049627000000328, 1.5129644999979064]",1632.9103042000206,None,,,91NA,001,2023_Aug_31_1442,ExactRep-v3-final,2021.2.3,59.907825814760606,
,,,,,,,,,,,,115,0,115,0,,,,,,,,,,,,,,,,,,,,,,,,,,,,,,,,,,,,,,,,,,,,,,,,,1636.3300654999912,None,,,,,,,,,,,,,,,,,,,,,,,,,,,,,,,,,,,,,,,,,,,,,,,,,,,,,,,,,prayer,182,116,aloud,new,yellow,1634.9788864000002,None,n,1634.9788864000002,None,"['n', 'return']","[1.1004282999783754, 1.3163545000134036]",1634.9788864000002,None,,,91NA,001,2023_Aug_31_1442,ExactRep-v3-final,2021.2.3,59.907825814760606,
,,,,,,,,,,,,116,0,116,0,,,,,,,,,,,,,,,,,,,,,,,,,,,,,,,,,,,,,,,,,,,,,,,,,1638.1806698000291,None,,,,,,,,,,,,,,,,,,,,,,,,,,,,,,,,,,,,,,,,,,,,,,,,,,,,,,,,,person,55,117,silent,old,yellow,1636.8463888000697,None,y,1636.8463888000697,None,"['y', 'return']","[1.081355500034988, 1.2888679000316188]",1636.8463888000697,None,,,91NA,001,2023_Aug_31_1442,ExactRep-v3-final,2021.2.3,59.907825814760606,
,,,,,,,,,,,,117,0,117,0,,,,,,,,,,,,,,,,,,,,,,,,,,,,,,,,,,,,,,,,,,,,,,,,,1640.0832277000882,None,,,,,,,,,,,,,,,,,,,,,,,,,,,,,,,,,,,,,,,,,,,,,,,,,,,,,,,,,cattle,239,118,sing,new,yellow,1638.682887700037,None,n,1638.682887700037,None,"['n', 'return']","[1.172495299950242, 1.3563857999397442]",1638.682887700037,None,,,91NA,001,2023_Aug_31_1442,ExactRep-v3-final,2021.2.3,59.907825814760606,
,,,,,,,,,,,,118,0,118,0,,,,,,,,,,,,,,,,,,,,,,,,,,,,,,,,,,,,,,,,,,,,,,,,,1644.9881033999845,None,,,,,,,,,,,,,,,,,,,,,,,,,,,,,,,,,,,,,,,,,,,,,,,,,,,,,,,,,artist,92,119,aloud,old,yellow,1640.584514999995,None,y,1640.584514999995,None,"['y', 'return']","[4.150884100003168, 4.358773199957795]",1640.584514999995,None,,,91NA,001,2023_Aug_31_1442,ExactRep-v3-final,2021.2.3,59.907825814760606,
,,,,,,,,,,,,119,0,119,0,,,,,,,,,,,,,,,,,,,,,,,,,,,,,,,,,,,,,,,,,,,,,,,,,1646.7070250000106,None,,,,,,,,,,,,,,,,,,,,,,,,,,,,,,,,,,,,,,,,,,,,,,,,,,,,,,,,,table,80,120,aloud,old,yellow,1645.4956378000788,None,y,1645.4956378000788,None,"['y', 'return']","[0.9597555000800639, 1.1759238000959158]",1645.4956378000788,None,,,91NA,001,2023_Aug_31_1442,ExactRep-v3-final,2021.2.3,59.907825814760606,
,,,,,,,,,,,,120,0,120,0,,,,,,,,,,,,,,,,,,,,,,,,,,,,,,,,,,,,,,,,,,,,,,,,,1649.7095407000743,None,,,,,,,,,,,,,,,,,,,,,,,,,,,,,,,,,,,,,,,,,,,,,,,,,,,,,,,,,dust,209,121,sing,new,yellow,1647.2245481000282,None,n,1647.2245481000282,None,"['n', 'return']","[2.2388168999459594, 2.4468515999615192]",1647.2245481000282,None,,,91NA,001,2023_Aug_31_1442,ExactRep-v3-final,2021.2.3,59.907825814760606,
,,,,,,,,,,,,121,0,121,0,,,,,,,,,,,,,,,,,,,,,,,,,,,,,,,,,,,,,,,,,,,,,,,,,1652.5128515000688,None,,,,,,,,,,,,,,,,,,,,,,,,,,,,,,,,,,,,,,,,,,,,,,,,,,,,,,,,,earth,162,122,aloud,new,yellow,1650.2107860000106,None,n,1650.2107860000106,None,"['n', 'return']","[1.5649249999551103, 2.260539799928665]",1650.2107860000106,None,,,91NA,001,2023_Aug_31_1442,ExactRep-v3-final,2021.2.3,59.907825814760606,
,,,,,,,,,,,,122,0,122,0,,,,,,,,,,,,,,,,,,,,,,,,,,,,,,,,,,,,,,,,,,,,,,,,,1654.6654515000992,None,,,,,,,,,,,,,,,,,,,,,,,,,,,,,,,,,,,,,,,,,,,,,,,,,,,,,,,,,star,0,123,sing,old,yellow,1653.0202619000338,None,n,1653.0202619000338,None,"['n', 'return']","[1.371028000023216, 1.5950728999450803]",1653.0202619000338,None,,,91NA,001,2023_Aug_31_1442,ExactRep-v3-final,2021.2.3,59.907825814760606,
,,,,,,,,,,,,123,0,123,0,,,,,,,,,,,,,,,,,,,,,,,,,,,,,,,,,,,,,,,,,,,,,,,,,1658.668543900014,None,,,,,,,,,,,,,,,,,,,,,,,,,,,,,,,,,,,,,,,,,,,,,,,,,,,,,,,,,body,57,124,silent,old,yellow,1655.182500099996,None,n,1655.182500099996,None,"['n', 'return']","[3.21695140004158, 3.4407825999660417]",1655.182500099996,None,,,91NA,001,2023_Aug_31_1442,ExactRep-v3-final,2021.2.3,59.907825814760606,
,,,,,,,,,,,,124,0,124,0,,,,,,,,,,,,,,,,,,,,,,,,,,,,,,,,,,,,,,,,,,,,,,,,,1660.4375725000864,None,,,,,,,,,,,,,,,,,,,,,,,,,,,,,,,,,,,,,,,,,,,,,,,,,,,,,,,,,church,213,125,sing,new,yellow,1659.1694095000857,None,n,1659.1694095000857,None,"['n', 'return']","[1.0379288999829441, 1.2298624999821186]",1659.1694095000857,None,,,91NA,001,2023_Aug_31_1442,ExactRep-v3-final,2021.2.3,59.907825814760606,
,,,,,,,,,,,,125,0,125,0,,,,,,,,,,,,,,,,,,,,,,,,,,,,,,,,,,,,,,,,,,,,,,,,,1662.3898067000555,None,,,,,,,,,,,,,,,,,,,,,,,,,,,,,,,,,,,,,,,,,,,,,,,,,,,,,,,,,flesh,121,126,silent,new,yellow,1660.9546656000894,None,n,1660.9546656000894,None,"['n', 'return']","[1.1646550999721512, 1.3966134000802413]",1660.9546656000894,None,,,91NA,001,2023_Aug_31_1442,ExactRep-v3-final,2021.2.3,59.907825814760606,
,,,,,,,,,,,,126,0,126,0,,,,,,,,,,,,,,,,,,,,,,,,,,,,,,,,,,,,,,,,,,,,,,,,,1664.291837900062,None,,,,,,,,,,,,,,,,,,,,,,,,,,,,,,,,,,,,,,,,,,,,,,,,,,,,,,,,,pupil,54,127,silent,old,yellow,1662.9080283000367,None,y,1662.9080283000367,None,"['y', 'return']","[1.1152386999456212, 1.3394625999499112]",1662.9080283000367,None,,,91NA,001,2023_Aug_31_1442,ExactRep-v3-final,2021.2.3,59.907825814760606,
,,,,,,,,,,,,127,0,127,0,,,,,,,,,,,,,,,,,,,,,,,,,,,,,,,,,,,,,,,,,,,,,,,,,1666.44383080001,None,,,,,,,,,,,,,,,,,,,,,,,,,,,,,,,,,,,,,,,,,,,,,,,,,,,,,,,,,opinion,190,128,aloud,new,yellow,1664.808706699987,None,n,1664.808706699987,None,"['n', 'return']","[1.3905921999830753, 1.5988096999935806]",1664.808706699987,None,,,91NA,001,2023_Aug_31_1442,ExactRep-v3-final,2021.2.3,59.907825814760606,
,,,,,,,,,,,,128,0,128,0,,,,,,,,,,,,,,,,,,,,,,,,,,,,,,,,,,,,,,,,,,,,,,,,,1668.2106773999985,None,,,,,,,,,,,,,,,,,,,,,,,,,,,,,,,,,,,,,,,,,,,,,,,,,,,,,,,,,effort,20,129,sing,old,yellow,1666.9521023000125,None,y,1666.9521023000125,None,"['y', 'return']","[0.9992395000299439, 1.2151573000010103]",1666.9521023000125,None,,,91NA,001,2023_Aug_31_1442,ExactRep-v3-final,2021.2.3,59.907825814760606,
