trials_fam.thisRepN,trials_fam.thisTrialN,trials_fam.thisN,trials_fam.thisIndex,trials_prc.thisRepN,trials_prc.thisTrialN,trials_prc.thisN,trials_prc.thisIndex,StudyLoop.thisRepN,StudyLoop.thisTrialN,StudyLoop.thisN,StudyLoop.thisIndex,TestLoop.thisRepN,TestLoop.thisTrialN,TestLoop.thisN,TestLoop.thisIndex,text_colortest.started,text_colortest.stopped,key_colortest.keys,key_colortest.rt,key_colortest.started,key_colortest.stopped,textCondition.started,textCondition.stopped,keyCondition.keys,keyCondition.rt,keyCondition.started,keyCondition.stopped,Condition_between,Condition_counterbal,keyWelcome.keys,keyWelcome.rt,keyWelcome.started,keyWelcome.stopped,welcome_a.started,welcome_a.stopped,welcome_b.started,welcome_b.stopped,welcome_c.started,welcome_c.stopped,welcome_d.started,welcome_d.stopped,welcome_e.started,welcome_e.stopped,welcome_f.started,welcome_f.stopped,key_resp_fam_inst.keys,key_resp_fam_inst.rt,key_resp_fam_inst.started,key_resp_fam_inst.stopped,fam_a.started,fam_a.stopped,fam_b.started,fam_b.stopped,fam_c.started,fam_c.stopped,fam_d.started,fam_d.stopped,fam_e.started,fam_e.stopped,fam_f.started,fam_f.stopped,text_famil.started,text_famil.stopped,textBlank500.started,textBlank500.stopped,key_resp_prc_inst.keys,key_resp_prc_inst.rt,key_resp_prc_inst.started,key_resp_prc_inst.stopped,prac_a.started,prac_a.stopped,prac_b.started,prac_b.stopped,prac_c.started,prac_c.stopped,prac_d.started,prac_d.stopped,prac_e.started,prac_e.stopped,prac_f.started,prac_f.stopped,text_prc_trial.started,text_prc_trial.stopped,key_resp_study_inst.keys,key_resp_study_inst.rt,key_resp_study_inst.started,key_resp_study_inst.stopped,crit_a.started,crit_a.stopped,crit_b.started,crit_b.stopped,crit_c.started,crit_c.stopped,crit_d.started,crit_d.stopped,crit_e.started,crit_e.stopped,crit_f.started,crit_f.stopped,study_word,study_num,study_order,study_type,word_color,textStudy.started,textStudy.stopped,keyStudy.keys,keyStudy.started,keyStudy.stopped,post_study.started,post_study.stopped,key_resp_post_study.keys,key_resp_post_study.rt,key_resp_post_study.started,key_resp_post_study.stopped,test_inst.started,test_inst.stopped,key_resp_test_inst.keys,key_resp_test_inst.rt,key_resp_test_inst.started,key_resp_test_inst.stopped,test_word,test_num,test_order,test_condition,old_new_test,word_color_test,textConf.started,textConf.stopped,Participant Response,textInput.started,textInput.stopped,keyResp.keys,keyResp.rt,keyResp.started,keyResp.stopped,textEnd.started,textEnd.stopped,participant,session,date,expName,psychopyVersion,frameRate,
,,,,,,,,,,,,,,,,24.567766099935398,None,n,62.08676480001304,24.567766099935398,None,,,,,,,,,,,,,,,,,,,,,,,,,,,,,,,,,,,,,,,,,,,,,,,,,,,,,,,,,,,,,,,,,,,,,,,,,,,,,,,,,,,,,,,,,,,,,,,,,,,,,,,,,,,,,,,,,,,,,,92NB,001,2023_Sep_01_1251,ExactRep-v3-final,2021.2.3,59.38933512436155,
,,,,,,,,,,,,,,,,,,,,,,86.67077199998312,None,b,5.063705199980177,86.67077199998312,None,,,,,,,,,,,,,,,,,,,,,,,,,,,,,,,,,,,,,,,,,,,,,,,,,,,,,,,,,,,,,,,,,,,,,,,,,,,,,,,,,,,,,,,,,,,,,,,,,,,,,,,,,,,,,,,,92NB,001,2023_Sep_01_1251,ExactRep-v3-final,2021.2.3,59.38933512436155,
,,,,,,,,,,,,,,,,,,,,,,,,,,,,whitefoils,b,space,179.71029110008385,101.93626569991466,None,,,,,,,,,,,,,,,,,,,,,,,,,,,,,,,,,,,,,,,,,,,,,,,,,,,,,,,,,,,,,,,,,,,,,,,,,,,,,,,,,,,,,,,,,,,,,,,,,,,,,,,,,,92NB,001,2023_Sep_01_1251,ExactRep-v3-final,2021.2.3,59.38933512436155,
,,,,,,,,,,,,,,,,,,,,,,,,,,,,,,,,,,91.9678009999916,None,91.9678009999916,None,91.9678009999916,None,91.9678009999916,None,91.9678009999916,None,91.9678009999916,None,space,3.0996206999989226,291.8666022999678,None,,,,,,,,,,,,,,,,,,,,,,,,,,,,,,,,,,,,,,,,,,,,,,,,,,,,,,,,,,,,,,,,,,,,,,,,,,,,,,,,,,,,,,,,,,92NB,001,2023_Sep_01_1251,ExactRep-v3-final,2021.2.3,59.38933512436155,
0,0,0,0,,,,,,,,,,,,,,,,,,,,,,,,,,,,,,,,,,,,,,,,,,,,,,,281.88007449998986,None,281.88007449998986,None,281.88007449998986,None,281.88007449998986,None,281.88007449998986,None,281.88007449998986,None,295.0767161999829,None,297.0807428000262,None,,,,,,,,,,,,,,,,,,,,,,,,,,,,,,,,,,,,,,,,,,,,,,,,,,,,,,,,,,,,,,,,,,,,,,,,,,92NB,001,2023_Sep_01_1251,ExactRep-v3-final,2021.2.3,59.38933512436155,
1,0,1,0,,,,,,,,,,,,,,,,,,,,,,,,,,,,,,,,,,,,,,,,,,,,,,,,,,,,,,,,,,,297.6099695999874,None,299.6001921999268,None,,,,,,,,,,,,,,,,,,,,,,,,,,,,,,,,,,,,,,,,,,,,,,,,,,,,,,,,,,,,,,,,,,,,,,,,,,92NB,001,2023_Sep_01_1251,ExactRep-v3-final,2021.2.3,59.38933512436155,
2,0,2,0,,,,,,,,,,,,,,,,,,,,,,,,,,,,,,,,,,,,,,,,,,,,,,,,,,,,,,,,,,,300.1056612000102,None,302.1189982999349,None,,,,,,,,,,,,,,,,,,,,,,,,,,,,,,,,,,,,,,,,,,,,,,,,,,,,,,,,,,,,,,,,,,,,,,,,,,92NB,001,2023_Sep_01_1251,ExactRep-v3-final,2021.2.3,59.38933512436155,
3,0,3,0,,,,,,,,,,,,,,,,,,,,,,,,,,,,,,,,,,,,,,,,,,,,,,,,,,,,,,,,,,,302.62003290001303,None,304.6212707000086,None,,,,,,,,,,,,,,,,,,,,,,,,,,,,,,,,,,,,,,,,,,,,,,,,,,,,,,,,,,,,,,,,,,,,,,,,,,92NB,001,2023_Sep_01_1251,ExactRep-v3-final,2021.2.3,59.38933512436155,
4,0,4,0,,,,,,,,,,,,,,,,,,,,,,,,,,,,,,,,,,,,,,,,,,,,,,,,,,,,,,,,,,,305.13422469992656,None,307.14108590001706,None,,,,,,,,,,,,,,,,,,,,,,,,,,,,,,,,,,,,,,,,,,,,,,,,,,,,,,,,,,,,,,,,,,,,,,,,,,92NB,001,2023_Sep_01_1251,ExactRep-v3-final,2021.2.3,59.38933512436155,
5,0,5,0,,,,,,,,,,,,,,,,,,,,,,,,,,,,,,,,,,,,,,,,,,,,,,,,,,,,,,,,,,,307.6414003999671,None,309.64340830000583,None,,,,,,,,,,,,,,,,,,,,,,,,,,,,,,,,,,,,,,,,,,,,,,,,,,,,,,,,,,,,,,,,,,,,,,,,,,92NB,001,2023_Sep_01_1251,ExactRep-v3-final,2021.2.3,59.38933512436155,
6,0,6,0,,,,,,,,,,,,,,,,,,,,,,,,,,,,,,,,,,,,,,,,,,,,,,,,,,,,,,,,,,,310.1476410999894,None,312.16236279997975,None,,,,,,,,,,,,,,,,,,,,,,,,,,,,,,,,,,,,,,,,,,,,,,,,,,,,,,,,,,,,,,,,,,,,,,,,,,92NB,001,2023_Sep_01_1251,ExactRep-v3-final,2021.2.3,59.38933512436155,
7,0,7,0,,,,,,,,,,,,,,,,,,,,,,,,,,,,,,,,,,,,,,,,,,,,,,,,,,,,,,,,,,,312.66288409999106,None,314.66458909993526,None,,,,,,,,,,,,,,,,,,,,,,,,,,,,,,,,,,,,,,,,,,,,,,,,,,,,,,,,,,,,,,,,,,,,,,,,,,92NB,001,2023_Sep_01_1251,ExactRep-v3-final,2021.2.3,59.38933512436155,
8,0,8,0,,,,,,,,,,,,,,,,,,,,,,,,,,,,,,,,,,,,,,,,,,,,,,,,,,,,,,,,,,,315.16569649998564,None,317.1671474999748,None,,,,,,,,,,,,,,,,,,,,,,,,,,,,,,,,,,,,,,,,,,,,,,,,,,,,,,,,,,,,,,,,,,,,,,,,,,92NB,001,2023_Sep_01_1251,ExactRep-v3-final,2021.2.3,59.38933512436155,
9,0,9,0,,,,,,,,,,,,,,,,,,,,,,,,,,,,,,,,,,,,,,,,,,,,,,,,,,,,,,,,,,,317.66765529999975,None,319.671989299939,None,,,,,,,,,,,,,,,,,,,,,,,,,,,,,,,,,,,,,,,,,,,,,,,,,,,,,,,,,,,,,,,,,,,,,,,,,,92NB,001,2023_Sep_01_1251,ExactRep-v3-final,2021.2.3,59.38933512436155,
10,0,10,0,,,,,,,,,,,,,,,,,,,,,,,,,,,,,,,,,,,,,,,,,,,,,,,,,,,,,,,,,,,320.18964959995355,None,322.188864500029,None,,,,,,,,,,,,,,,,,,,,,,,,,,,,,,,,,,,,,,,,,,,,,,,,,,,,,,,,,,,,,,,,,,,,,,,,,,92NB,001,2023_Sep_01_1251,ExactRep-v3-final,2021.2.3,59.38933512436155,
11,0,11,0,,,,,,,,,,,,,,,,,,,,,,,,,,,,,,,,,,,,,,,,,,,,,,,,,,,,,,,,,,,322.68951559998095,None,324.6914484000299,None,,,,,,,,,,,,,,,,,,,,,,,,,,,,,,,,,,,,,,,,,,,,,,,,,,,,,,,,,,,,,,,,,,,,,,,,,,92NB,001,2023_Sep_01_1251,ExactRep-v3-final,2021.2.3,59.38933512436155,
12,0,12,0,,,,,,,,,,,,,,,,,,,,,,,,,,,,,,,,,,,,,,,,,,,,,,,,,,,,,,,,,,,325.2024742999347,None,327.2104781999951,None,,,,,,,,,,,,,,,,,,,,,,,,,,,,,,,,,,,,,,,,,,,,,,,,,,,,,,,,,,,,,,,,,,,,,,,,,,92NB,001,2023_Sep_01_1251,ExactRep-v3-final,2021.2.3,59.38933512436155,
13,0,13,0,,,,,,,,,,,,,,,,,,,,,,,,,,,,,,,,,,,,,,,,,,,,,,,,,,,,,,,,,,,327.71130740002263,None,329.7130670999177,None,,,,,,,,,,,,,,,,,,,,,,,,,,,,,,,,,,,,,,,,,,,,,,,,,,,,,,,,,,,,,,,,,,,,,,,,,,92NB,001,2023_Sep_01_1251,ExactRep-v3-final,2021.2.3,59.38933512436155,
14,0,14,0,,,,,,,,,,,,,,,,,,,,,,,,,,,,,,,,,,,,,,,,,,,,,,,,,,,,,,,,,,,330.216276000021,None,332.2157112000277,None,,,,,,,,,,,,,,,,,,,,,,,,,,,,,,,,,,,,,,,,,,,,,,,,,,,,,,,,,,,,,,,,,,,,,,,,,,92NB,001,2023_Sep_01_1251,ExactRep-v3-final,2021.2.3,59.38933512436155,
,,,,,,,,,,,,,,,,,,,,,,,,,,,,,,,,,,,,,,,,,,,,,,,,,,,,,,,,,,,,,,,,,,space,3.1101391999982297,342.8320526999887,None,,,,,,,,,,,,,,,,,,,,,,,,,,,,,,,,,,,,,,,,,,,,,,,,,,,,,,,,,,,,,,,,,,,,,,92NB,001,2023_Sep_01_1251,ExactRep-v3-final,2021.2.3,59.38933512436155,
,,,,0,0,0,0,,,,,,,,,,,,,,,,,,,,,,,,,,,,,,,,,,,,,,,,,,,,,,,,,,,,,,,,,347.9977845000103,None,,,,,332.8577019999502,None,332.8577019999502,None,332.8577019999502,None,332.8577019999502,None,332.8577019999502,None,332.8577019999502,None,345.9989200999262,None,,,,,,,,,,,,,,,,,,,,,,,,,,,,,,,,,,,,,,,,,,,,,,,,,,,,,,,,92NB,001,2023_Sep_01_1251,ExactRep-v3-final,2021.2.3,59.38933512436155,
,,,,1,0,1,0,,,,,,,,,,,,,,,,,,,,,,,,,,,,,,,,,,,,,,,,,,,,,,,,,,,,,,,,,350.50042940001003,None,,,,,,,,,,,,,,,,,348.49826849997044,None,,,,,,,,,,,,,,,,,,,,,,,,,,,,,,,,,,,,,,,,,,,,,,,,,,,,,,,,92NB,001,2023_Sep_01_1251,ExactRep-v3-final,2021.2.3,59.38933512436155,
,,,,2,0,2,0,,,,,,,,,,,,,,,,,,,,,,,,,,,,,,,,,,,,,,,,,,,,,,,,,,,,,,,,,353.00291359995026,None,,,,,,,,,,,,,,,,,351.00347090000287,None,,,,,,,,,,,,,,,,,,,,,,,,,,,,,,,,,,,,,,,,,,,,,,,,,,,,,,,,92NB,001,2023_Sep_01_1251,ExactRep-v3-final,2021.2.3,59.38933512436155,
,,,,3,0,3,0,,,,,,,,,,,,,,,,,,,,,,,,,,,,,,,,,,,,,,,,,,,,,,,,,,,,,,,,,355.50610479991883,None,,,,,,,,,,,,,,,,,353.5034253000049,None,,,,,,,,,,,,,,,,,,,,,,,,,,,,,,,,,,,,,,,,,,,,,,,,,,,,,,,,92NB,001,2023_Sep_01_1251,ExactRep-v3-final,2021.2.3,59.38933512436155,
,,,,4,0,4,0,,,,,,,,,,,,,,,,,,,,,,,,,,,,,,,,,,,,,,,,,,,,,,,,,,,,,,,,,358.0081588999601,None,,,,,,,,,,,,,,,,,356.0068616999779,None,,,,,,,,,,,,,,,,,,,,,,,,,,,,,,,,,,,,,,,,,,,,,,,,,,,,,,,,92NB,001,2023_Sep_01_1251,ExactRep-v3-final,2021.2.3,59.38933512436155,
,,,,5,0,5,0,,,,,,,,,,,,,,,,,,,,,,,,,,,,,,,,,,,,,,,,,,,,,,,,,,,,,,,,,360.5104433000088,None,,,,,,,,,,,,,,,,,358.5089857999701,None,,,,,,,,,,,,,,,,,,,,,,,,,,,,,,,,,,,,,,,,,,,,,,,,,,,,,,,,92NB,001,2023_Sep_01_1251,ExactRep-v3-final,2021.2.3,59.38933512436155,
,,,,6,0,6,0,,,,,,,,,,,,,,,,,,,,,,,,,,,,,,,,,,,,,,,,,,,,,,,,,,,,,,,,,363.0133315999992,None,,,,,,,,,,,,,,,,,361.01091870001983,None,,,,,,,,,,,,,,,,,,,,,,,,,,,,,,,,,,,,,,,,,,,,,,,,,,,,,,,,92NB,001,2023_Sep_01_1251,ExactRep-v3-final,2021.2.3,59.38933512436155,
,,,,7,0,7,0,,,,,,,,,,,,,,,,,,,,,,,,,,,,,,,,,,,,,,,,,,,,,,,,,,,,,,,,,365.51530480000656,None,,,,,,,,,,,,,,,,,363.5137434999924,None,,,,,,,,,,,,,,,,,,,,,,,,,,,,,,,,,,,,,,,,,,,,,,,,,,,,,,,,92NB,001,2023_Sep_01_1251,ExactRep-v3-final,2021.2.3,59.38933512436155,
,,,,8,0,8,0,,,,,,,,,,,,,,,,,,,,,,,,,,,,,,,,,,,,,,,,,,,,,,,,,,,,,,,,,368.01776479999535,None,,,,,,,,,,,,,,,,,366.0159116999712,None,,,,,,,,,,,,,,,,,,,,,,,,,,,,,,,,,,,,,,,,,,,,,,,,,,,,,,,,92NB,001,2023_Sep_01_1251,ExactRep-v3-final,2021.2.3,59.38933512436155,
,,,,9,0,9,0,,,,,,,,,,,,,,,,,,,,,,,,,,,,,,,,,,,,,,,,,,,,,,,,,,,,,,,,,370.5213970999466,None,,,,,,,,,,,,,,,,,368.5184249000158,None,,,,,,,,,,,,,,,,,,,,,,,,,,,,,,,,,,,,,,,,,,,,,,,,,,,,,,,,92NB,001,2023_Sep_01_1251,ExactRep-v3-final,2021.2.3,59.38933512436155,
,,,,10,0,10,0,,,,,,,,,,,,,,,,,,,,,,,,,,,,,,,,,,,,,,,,,,,,,,,,,,,,,,,,,373.023329299991,None,,,,,,,,,,,,,,,,,371.0211221999489,None,,,,,,,,,,,,,,,,,,,,,,,,,,,,,,,,,,,,,,,,,,,,,,,,,,,,,,,,92NB,001,2023_Sep_01_1251,ExactRep-v3-final,2021.2.3,59.38933512436155,
,,,,11,0,11,0,,,,,,,,,,,,,,,,,,,,,,,,,,,,,,,,,,,,,,,,,,,,,,,,,,,,,,,,,375.52596899995115,None,,,,,,,,,,,,,,,,,373.52337940002326,None,,,,,,,,,,,,,,,,,,,,,,,,,,,,,,,,,,,,,,,,,,,,,,,,,,,,,,,,92NB,001,2023_Sep_01_1251,ExactRep-v3-final,2021.2.3,59.38933512436155,
,,,,12,0,12,0,,,,,,,,,,,,,,,,,,,,,,,,,,,,,,,,,,,,,,,,,,,,,,,,,,,,,,,,,378.02780209993944,None,,,,,,,,,,,,,,,,,376.02589219994843,None,,,,,,,,,,,,,,,,,,,,,,,,,,,,,,,,,,,,,,,,,,,,,,,,,,,,,,,,92NB,001,2023_Sep_01_1251,ExactRep-v3-final,2021.2.3,59.38933512436155,
,,,,13,0,13,0,,,,,,,,,,,,,,,,,,,,,,,,,,,,,,,,,,,,,,,,,,,,,,,,,,,,,,,,,380.53068009996787,None,,,,,,,,,,,,,,,,,378.52839280001353,None,,,,,,,,,,,,,,,,,,,,,,,,,,,,,,,,,,,,,,,,,,,,,,,,,,,,,,,,92NB,001,2023_Sep_01_1251,ExactRep-v3-final,2021.2.3,59.38933512436155,
,,,,14,0,14,0,,,,,,,,,,,,,,,,,,,,,,,,,,,,,,,,,,,,,,,,,,,,,,,,,,,,,,,,,383.032911599963,None,,,,,,,,,,,,,,,,,381.0307636000216,None,,,,,,,,,,,,,,,,,,,,,,,,,,,,,,,,,,,,,,,,,,,,,,,,,,,,,,,,92NB,001,2023_Sep_01_1251,ExactRep-v3-final,2021.2.3,59.38933512436155,
,,,,,,,,,,,,,,,,,,,,,,,,,,,,,,,,,,,,,,,,,,,,,,,,,,,,,,,,,,,,,,,,,,,,,,,,,,,,,,,,,,,,space,12.470157600007951,393.6799391999375,None,,,,,,,,,,,,,,,,,,,,,,,,,,,,,,,,,,,,,,,,,,,,,,,,,,,,92NB,001,2023_Sep_01_1251,ExactRep-v3-final,2021.2.3,59.38933512436155,
,,,,,,,,0,0,0,0,,,,,,,,,,,,,,,,,,,,,,,,,,,,,,,,,,,,,,,,,,,,,,,,,,,,,408.2748958999291,None,,,,,,,,,,,,,,,,,,,,,,,383.69227210001554,None,383.69227210001554,None,383.69227210001554,None,383.69227210001554,None,383.69227210001554,None,383.69227210001554,None,star,83,1,aloud,red,406.26185619994067,None,None,406.26185619994067,None,,,,,,,,,,,,,,,,,,,,,,,,,,,,,,92NB,001,2023_Sep_01_1251,ExactRep-v3-final,2021.2.3,59.38933512436155,
,,,,,,,,1,0,1,0,,,,,,,,,,,,,,,,,,,,,,,,,,,,,,,,,,,,,,,,,,,,,,,,,,,,,410.77774960000534,None,,,,,,,,,,,,,,,,,,,,,,,,,,,,,,,,,,,lord,94,2,aloud,red,408.7753090999322,None,None,408.7753090999322,None,,,,,,,,,,,,,,,,,,,,,,,,,,,,,,92NB,001,2023_Sep_01_1251,ExactRep-v3-final,2021.2.3,59.38933512436155,
,,,,,,,,2,0,2,0,,,,,,,,,,,,,,,,,,,,,,,,,,,,,,,,,,,,,,,,,,,,,,,,,,,,,413.2798011000268,None,,,,,,,,,,,,,,,,,,,,,,,,,,,,,,,,,,,devil,111,3,aloud,red,411.27987600001507,None,None,411.27987600001507,None,,,,,,,,,,,,,,,,,,,,,,,,,,,,,,92NB,001,2023_Sep_01_1251,ExactRep-v3-final,2021.2.3,59.38933512436155,
,,,,,,,,3,0,3,0,,,,,,,,,,,,,,,,,,,,,,,,,,,,,,,,,,,,,,,,,,,,,,,,,,,,,415.7822859999724,None,,,,,,,,,,,,,,,,,,,,,,,,,,,,,,,,,,,house,7,4,sing,blue,413.78203819994815,None,None,413.78203819994815,None,,,,,,,,,,,,,,,,,,,,,,,,,,,,,,92NB,001,2023_Sep_01_1251,ExactRep-v3-final,2021.2.3,59.38933512436155,
,,,,,,,,4,0,4,0,,,,,,,,,,,,,,,,,,,,,,,,,,,,,,,,,,,,,,,,,,,,,,,,,,,,,418.2847403999185,None,,,,,,,,,,,,,,,,,,,,,,,,,,,,,,,,,,,diamond,39,5,silent,white,416.28495529992506,None,None,416.28495529992506,None,,,,,,,,,,,,,,,,,,,,,,,,,,,,,,92NB,001,2023_Sep_01_1251,ExactRep-v3-final,2021.2.3,59.38933512436155,
,,,,,,,,5,0,5,0,,,,,,,,,,,,,,,,,,,,,,,,,,,,,,,,,,,,,,,,,,,,,,,,,,,,,420.7875842999201,None,,,,,,,,,,,,,,,,,,,,,,,,,,,,,,,,,,,love,75,6,silent,white,418.7859783999156,None,None,418.7859783999156,None,,,,,,,,,,,,,,,,,,,,,,,,,,,,,,92NB,001,2023_Sep_01_1251,ExactRep-v3-final,2021.2.3,59.38933512436155,
,,,,,,,,6,0,6,0,,,,,,,,,,,,,,,,,,,,,,,,,,,,,,,,,,,,,,,,,,,,,,,,,,,,,423.30645729997195,None,,,,,,,,,,,,,,,,,,,,,,,,,,,,,,,,,,,butter,30,7,sing,blue,421.2915263000177,None,None,421.2915263000177,None,,,,,,,,,,,,,,,,,,,,,,,,,,,,,,92NB,001,2023_Sep_01_1251,ExactRep-v3-final,2021.2.3,59.38933512436155,
,,,,,,,,7,0,7,0,,,,,,,,,,,,,,,,,,,,,,,,,,,,,,,,,,,,,,,,,,,,,,,,,,,,,425.81006679998245,None,,,,,,,,,,,,,,,,,,,,,,,,,,,,,,,,,,,virtue,6,8,sing,blue,423.806753700017,None,None,423.806753700017,None,,,,,,,,,,,,,,,,,,,,,,,,,,,,,,92NB,001,2023_Sep_01_1251,ExactRep-v3-final,2021.2.3,59.38933512436155,
,,,,,,,,8,0,8,0,,,,,,,,,,,,,,,,,,,,,,,,,,,,,,,,,,,,,,,,,,,,,,,,,,,,,428.3117014999734,None,,,,,,,,,,,,,,,,,,,,,,,,,,,,,,,,,,,bottle,34,9,sing,blue,426.3114238999551,None,None,426.3114238999551,None,,,,,,,,,,,,,,,,,,,,,,,,,,,,,,92NB,001,2023_Sep_01_1251,ExactRep-v3-final,2021.2.3,59.38933512436155,
,,,,,,,,9,0,9,0,,,,,,,,,,,,,,,,,,,,,,,,,,,,,,,,,,,,,,,,,,,,,,,,,,,,,430.83089869993273,None,,,,,,,,,,,,,,,,,,,,,,,,,,,,,,,,,,,factory,45,10,silent,white,428.8160724999616,None,None,428.8160724999616,None,,,,,,,,,,,,,,,,,,,,,,,,,,,,,,92NB,001,2023_Sep_01_1251,ExactRep-v3-final,2021.2.3,59.38933512436155,
,,,,,,,,10,0,10,0,,,,,,,,,,,,,,,,,,,,,,,,,,,,,,,,,,,,,,,,,,,,,,,,,,,,,433.33346499991603,None,,,,,,,,,,,,,,,,,,,,,,,,,,,,,,,,,,,thought,16,11,sing,blue,431.3310431999853,None,None,431.3310431999853,None,,,,,,,,,,,,,,,,,,,,,,,,,,,,,,92NB,001,2023_Sep_01_1251,ExactRep-v3-final,2021.2.3,59.38933512436155,
,,,,,,,,11,0,11,0,,,,,,,,,,,,,,,,,,,,,,,,,,,,,,,,,,,,,,,,,,,,,,,,,,,,,435.83562020002864,None,,,,,,,,,,,,,,,,,,,,,,,,,,,,,,,,,,,chair,114,12,aloud,red,433.83424440003,None,None,433.83424440003,None,,,,,,,,,,,,,,,,,,,,,,,,,,,,,,92NB,001,2023_Sep_01_1251,ExactRep-v3-final,2021.2.3,59.38933512436155,
,,,,,,,,12,0,12,0,,,,,,,,,,,,,,,,,,,,,,,,,,,,,,,,,,,,,,,,,,,,,,,,,,,,,438.33854789996985,None,,,,,,,,,,,,,,,,,,,,,,,,,,,,,,,,,,,trouble,25,13,sing,blue,436.3380890999688,None,None,436.3380890999688,None,,,,,,,,,,,,,,,,,,,,,,,,,,,,,,92NB,001,2023_Sep_01_1251,ExactRep-v3-final,2021.2.3,59.38933512436155,
,,,,,,,,13,0,13,0,,,,,,,,,,,,,,,,,,,,,,,,,,,,,,,,,,,,,,,,,,,,,,,,,,,,,440.8578791000182,None,,,,,,,,,,,,,,,,,,,,,,,,,,,,,,,,,,,justice,95,14,aloud,red,438.84565879998263,None,None,438.84565879998263,None,,,,,,,,,,,,,,,,,,,,,,,,,,,,,,92NB,001,2023_Sep_01_1251,ExactRep-v3-final,2021.2.3,59.38933512436155,
,,,,,,,,14,0,14,0,,,,,,,,,,,,,,,,,,,,,,,,,,,,,,,,,,,,,,,,,,,,,,,,,,,,,443.37685469991993,None,,,,,,,,,,,,,,,,,,,,,,,,,,,,,,,,,,,mercy,81,15,aloud,red,441.3620915999636,None,None,441.3620915999636,None,,,,,,,,,,,,,,,,,,,,,,,,,,,,,,92NB,001,2023_Sep_01_1251,ExactRep-v3-final,2021.2.3,59.38933512436155,
,,,,,,,,15,0,15,0,,,,,,,,,,,,,,,,,,,,,,,,,,,,,,,,,,,,,,,,,,,,,,,,,,,,,445.8790645999834,None,,,,,,,,,,,,,,,,,,,,,,,,,,,,,,,,,,,army,66,16,silent,white,443.877124199993,None,None,443.877124199993,None,,,,,,,,,,,,,,,,,,,,,,,,,,,,,,92NB,001,2023_Sep_01_1251,ExactRep-v3-final,2021.2.3,59.38933512436155,
,,,,,,,,16,0,16,0,,,,,,,,,,,,,,,,,,,,,,,,,,,,,,,,,,,,,,,,,,,,,,,,,,,,,448.3983368999325,None,,,,,,,,,,,,,,,,,,,,,,,,,,,,,,,,,,,sky,102,17,aloud,red,446.3837422999786,None,None,446.3837422999786,None,,,,,,,,,,,,,,,,,,,,,,,,,,,,,,92NB,001,2023_Sep_01_1251,ExactRep-v3-final,2021.2.3,59.38933512436155,
,,,,,,,,17,0,17,0,,,,,,,,,,,,,,,,,,,,,,,,,,,,,,,,,,,,,,,,,,,,,,,,,,,,,450.9006764999358,None,,,,,,,,,,,,,,,,,,,,,,,,,,,,,,,,,,,freedom,86,18,aloud,red,448.8990860999329,None,None,448.8990860999329,None,,,,,,,,,,,,,,,,,,,,,,,,,,,,,,92NB,001,2023_Sep_01_1251,ExactRep-v3-final,2021.2.3,59.38933512436155,
,,,,,,,,18,0,18,0,,,,,,,,,,,,,,,,,,,,,,,,,,,,,,,,,,,,,,,,,,,,,,,,,,,,,453.40345149999484,None,,,,,,,,,,,,,,,,,,,,,,,,,,,,,,,,,,,owner,57,19,silent,white,451.4036692000227,None,None,451.4036692000227,None,,,,,,,,,,,,,,,,,,,,,,,,,,,,,,92NB,001,2023_Sep_01_1251,ExactRep-v3-final,2021.2.3,59.38933512436155,
,,,,,,,,19,0,19,0,,,,,,,,,,,,,,,,,,,,,,,,,,,,,,,,,,,,,,,,,,,,,,,,,,,,,455.9059994999552,None,,,,,,,,,,,,,,,,,,,,,,,,,,,,,,,,,,,dress,4,20,sing,blue,453.9040824000258,None,None,453.9040824000258,None,,,,,,,,,,,,,,,,,,,,,,,,,,,,,,92NB,001,2023_Sep_01_1251,ExactRep-v3-final,2021.2.3,59.38933512436155,
,,,,,,,,20,0,20,0,,,,,,,,,,,,,,,,,,,,,,,,,,,,,,,,,,,,,,,,,,,,,,,,,,,,,458.42499490000773,None,,,,,,,,,,,,,,,,,,,,,,,,,,,,,,,,,,,grief,93,21,aloud,red,456.4099401999265,None,None,456.4099401999265,None,,,,,,,,,,,,,,,,,,,,,,,,,,,,,,92NB,001,2023_Sep_01_1251,ExactRep-v3-final,2021.2.3,59.38933512436155,
,,,,,,,,21,0,21,0,,,,,,,,,,,,,,,,,,,,,,,,,,,,,,,,,,,,,,,,,,,,,,,,,,,,,460.944172599935,None,,,,,,,,,,,,,,,,,,,,,,,,,,,,,,,,,,,poet,113,22,aloud,red,458.94075850001536,None,None,458.94075850001536,None,,,,,,,,,,,,,,,,,,,,,,,,,,,,,,92NB,001,2023_Sep_01_1251,ExactRep-v3-final,2021.2.3,59.38933512436155,
,,,,,,,,22,0,22,0,,,,,,,,,,,,,,,,,,,,,,,,,,,,,,,,,,,,,,,,,,,,,,,,,,,,,463.4470547999954,None,,,,,,,,,,,,,,,,,,,,,,,,,,,,,,,,,,,ship,62,23,silent,white,461.4450467999559,None,None,461.4450467999559,None,,,,,,,,,,,,,,,,,,,,,,,,,,,,,,92NB,001,2023_Sep_01_1251,ExactRep-v3-final,2021.2.3,59.38933512436155,
,,,,,,,,23,0,23,0,,,,,,,,,,,,,,,,,,,,,,,,,,,,,,,,,,,,,,,,,,,,,,,,,,,,,465.9532372999238,None,,,,,,,,,,,,,,,,,,,,,,,,,,,,,,,,,,,cotton,26,24,sing,blue,463.9480214000214,None,None,463.9480214000214,None,,,,,,,,,,,,,,,,,,,,,,,,,,,,,,92NB,001,2023_Sep_01_1251,ExactRep-v3-final,2021.2.3,59.38933512436155,
,,,,,,,,24,0,24,0,,,,,,,,,,,,,,,,,,,,,,,,,,,,,,,,,,,,,,,,,,,,,,,,,,,,,468.46887869993225,None,,,,,,,,,,,,,,,,,,,,,,,,,,,,,,,,,,,girl,23,25,sing,blue,466.469232799951,None,None,466.469232799951,None,,,,,,,,,,,,,,,,,,,,,,,,,,,,,,92NB,001,2023_Sep_01_1251,ExactRep-v3-final,2021.2.3,59.38933512436155,
,,,,,,,,25,0,25,0,,,,,,,,,,,,,,,,,,,,,,,,,,,,,,,,,,,,,,,,,,,,,,,,,,,,,470.9891156000085,None,,,,,,,,,,,,,,,,,,,,,,,,,,,,,,,,,,,water,36,26,sing,blue,468.97241369995754,None,None,468.97241369995754,None,,,,,,,,,,,,,,,,,,,,,,,,,,,,,,92NB,001,2023_Sep_01_1251,ExactRep-v3-final,2021.2.3,59.38933512436155,
,,,,,,,,26,0,26,0,,,,,,,,,,,,,,,,,,,,,,,,,,,,,,,,,,,,,,,,,,,,,,,,,,,,,473.49015949992463,None,,,,,,,,,,,,,,,,,,,,,,,,,,,,,,,,,,,king,10,27,sing,blue,471.4900937000057,None,None,471.4900937000057,None,,,,,,,,,,,,,,,,,,,,,,,,,,,,,,92NB,001,2023_Sep_01_1251,ExactRep-v3-final,2021.2.3,59.38933512436155,
,,,,,,,,27,0,27,0,,,,,,,,,,,,,,,,,,,,,,,,,,,,,,,,,,,,,,,,,,,,,,,,,,,,,476.009128900012,None,,,,,,,,,,,,,,,,,,,,,,,,,,,,,,,,,,,gold,70,28,silent,white,473.9953909999458,None,None,473.9953909999458,None,,,,,,,,,,,,,,,,,,,,,,,,,,,,,,92NB,001,2023_Sep_01_1251,ExactRep-v3-final,2021.2.3,59.38933512436155,
,,,,,,,,28,0,28,0,,,,,,,,,,,,,,,,,,,,,,,,,,,,,,,,,,,,,,,,,,,,,,,,,,,,,478.5119033999508,None,,,,,,,,,,,,,,,,,,,,,,,,,,,,,,,,,,,string,44,29,silent,white,476.5097018999513,None,None,476.5097018999513,None,,,,,,,,,,,,,,,,,,,,,,,,,,,,,,92NB,001,2023_Sep_01_1251,ExactRep-v3-final,2021.2.3,59.38933512436155,
,,,,,,,,29,0,29,0,,,,,,,,,,,,,,,,,,,,,,,,,,,,,,,,,,,,,,,,,,,,,,,,,,,,,481.0307591999881,None,,,,,,,,,,,,,,,,,,,,,,,,,,,,,,,,,,,steam,15,30,sing,blue,479.0172304000007,None,None,479.0172304000007,None,,,,,,,,,,,,,,,,,,,,,,,,,,,,,,92NB,001,2023_Sep_01_1251,ExactRep-v3-final,2021.2.3,59.38933512436155,
,,,,,,,,30,0,30,0,,,,,,,,,,,,,,,,,,,,,,,,,,,,,,,,,,,,,,,,,,,,,,,,,,,,,483.53337580000516,None,,,,,,,,,,,,,,,,,,,,,,,,,,,,,,,,,,,mind,64,31,silent,white,481.53127369994763,None,None,481.53127369994763,None,,,,,,,,,,,,,,,,,,,,,,,,,,,,,,92NB,001,2023_Sep_01_1251,ExactRep-v3-final,2021.2.3,59.38933512436155,
,,,,,,,,31,0,31,0,,,,,,,,,,,,,,,,,,,,,,,,,,,,,,,,,,,,,,,,,,,,,,,,,,,,,486.0526517999824,None,,,,,,,,,,,,,,,,,,,,,,,,,,,,,,,,,,,metal,29,32,sing,blue,484.0423493999988,None,None,484.0423493999988,None,,,,,,,,,,,,,,,,,,,,,,,,,,,,,,92NB,001,2023_Sep_01_1251,ExactRep-v3-final,2021.2.3,59.38933512436155,
,,,,,,,,32,0,32,0,,,,,,,,,,,,,,,,,,,,,,,,,,,,,,,,,,,,,,,,,,,,,,,,,,,,,488.5550017999485,None,,,,,,,,,,,,,,,,,,,,,,,,,,,,,,,,,,,humour,18,33,sing,blue,486.55289980000816,None,None,486.55289980000816,None,,,,,,,,,,,,,,,,,,,,,,,,,,,,,,92NB,001,2023_Sep_01_1251,ExactRep-v3-final,2021.2.3,59.38933512436155,
,,,,,,,,33,0,33,0,,,,,,,,,,,,,,,,,,,,,,,,,,,,,,,,,,,,,,,,,,,,,,,,,,,,,491.07477199996356,None,,,,,,,,,,,,,,,,,,,,,,,,,,,,,,,,,,,effort,20,34,sing,blue,489.05919409997296,None,None,489.05919409997296,None,,,,,,,,,,,,,,,,,,,,,,,,,,,,,,92NB,001,2023_Sep_01_1251,ExactRep-v3-final,2021.2.3,59.38933512436155,
,,,,,,,,34,0,34,0,,,,,,,,,,,,,,,,,,,,,,,,,,,,,,,,,,,,,,,,,,,,,,,,,,,,,493.5766362999566,None,,,,,,,,,,,,,,,,,,,,,,,,,,,,,,,,,,,library,3,35,sing,blue,491.57479300000705,None,None,491.57479300000705,None,,,,,,,,,,,,,,,,,,,,,,,,,,,,,,92NB,001,2023_Sep_01_1251,ExactRep-v3-final,2021.2.3,59.38933512436155,
,,,,,,,,35,0,35,0,,,,,,,,,,,,,,,,,,,,,,,,,,,,,,,,,,,,,,,,,,,,,,,,,,,,,496.07927540002856,None,,,,,,,,,,,,,,,,,,,,,,,,,,,,,,,,,,,crime,88,36,aloud,red,494.0777439000085,None,None,494.0777439000085,None,,,,,,,,,,,,,,,,,,,,,,,,,,,,,,92NB,001,2023_Sep_01_1251,ExactRep-v3-final,2021.2.3,59.38933512436155,
,,,,,,,,36,0,36,0,,,,,,,,,,,,,,,,,,,,,,,,,,,,,,,,,,,,,,,,,,,,,,,,,,,,,498.5816373999696,None,,,,,,,,,,,,,,,,,,,,,,,,,,,,,,,,,,,seat,22,37,sing,blue,496.5800831000088,None,None,496.5800831000088,None,,,,,,,,,,,,,,,,,,,,,,,,,,,,,,92NB,001,2023_Sep_01_1251,ExactRep-v3-final,2021.2.3,59.38933512436155,
,,,,,,,,37,0,37,0,,,,,,,,,,,,,,,,,,,,,,,,,,,,,,,,,,,,,,,,,,,,,,,,,,,,,501.0841441999655,None,,,,,,,,,,,,,,,,,,,,,,,,,,,,,,,,,,,sea,17,38,sing,blue,499.0823603000026,None,None,499.0823603000026,None,,,,,,,,,,,,,,,,,,,,,,,,,,,,,,92NB,001,2023_Sep_01_1251,ExactRep-v3-final,2021.2.3,59.38933512436155,
,,,,,,,,38,0,38,0,,,,,,,,,,,,,,,,,,,,,,,,,,,,,,,,,,,,,,,,,,,,,,,,,,,,,503.6034669999499,None,,,,,,,,,,,,,,,,,,,,,,,,,,,,,,,,,,,speech,43,39,silent,white,501.5972384000197,None,None,501.5972384000197,None,,,,,,,,,,,,,,,,,,,,,,,,,,,,,,92NB,001,2023_Sep_01_1251,ExactRep-v3-final,2021.2.3,59.38933512436155,
,,,,,,,,39,0,39,0,,,,,,,,,,,,,,,,,,,,,,,,,,,,,,,,,,,,,,,,,,,,,,,,,,,,,506.1061022999929,None,,,,,,,,,,,,,,,,,,,,,,,,,,,,,,,,,,,volume,56,40,silent,white,504.1044270999264,None,None,504.1044270999264,None,,,,,,,,,,,,,,,,,,,,,,,,,,,,,,92NB,001,2023_Sep_01_1251,ExactRep-v3-final,2021.2.3,59.38933512436155,
,,,,,,,,40,0,40,0,,,,,,,,,,,,,,,,,,,,,,,,,,,,,,,,,,,,,,,,,,,,,,,,,,,,,508.6085236999206,None,,,,,,,,,,,,,,,,,,,,,,,,,,,,,,,,,,,present,41,41,silent,white,506.60907090001274,None,None,506.60907090001274,None,,,,,,,,,,,,,,,,,,,,,,,,,,,,,,92NB,001,2023_Sep_01_1251,ExactRep-v3-final,2021.2.3,59.38933512436155,
,,,,,,,,41,0,41,0,,,,,,,,,,,,,,,,,,,,,,,,,,,,,,,,,,,,,,,,,,,,,,,,,,,,,511.1110504999524,None,,,,,,,,,,,,,,,,,,,,,,,,,,,,,,,,,,,machine,49,42,silent,white,509.1111625999911,None,None,509.1111625999911,None,,,,,,,,,,,,,,,,,,,,,,,,,,,,,,92NB,001,2023_Sep_01_1251,ExactRep-v3-final,2021.2.3,59.38933512436155,
,,,,,,,,42,0,42,0,,,,,,,,,,,,,,,,,,,,,,,,,,,,,,,,,,,,,,,,,,,,,,,,,,,,,513.6300321000163,None,,,,,,,,,,,,,,,,,,,,,,,,,,,,,,,,,,,valley,50,43,silent,white,511.6156757000135,None,None,511.6156757000135,None,,,,,,,,,,,,,,,,,,,,,,,,,,,,,,92NB,001,2023_Sep_01_1251,ExactRep-v3-final,2021.2.3,59.38933512436155,
,,,,,,,,43,0,43,0,,,,,,,,,,,,,,,,,,,,,,,,,,,,,,,,,,,,,,,,,,,,,,,,,,,,,516.149304099963,None,,,,,,,,,,,,,,,,,,,,,,,,,,,,,,,,,,,prison,54,44,silent,white,514.1390718999319,None,None,514.1390718999319,None,,,,,,,,,,,,,,,,,,,,,,,,,,,,,,92NB,001,2023_Sep_01_1251,ExactRep-v3-final,2021.2.3,59.38933512436155,
,,,,,,,,44,0,44,0,,,,,,,,,,,,,,,,,,,,,,,,,,,,,,,,,,,,,,,,,,,,,,,,,,,,,518.6519055999815,None,,,,,,,,,,,,,,,,,,,,,,,,,,,,,,,,,,,dust,74,45,silent,white,516.6500622999156,None,None,516.6500622999156,None,,,,,,,,,,,,,,,,,,,,,,,,,,,,,,92NB,001,2023_Sep_01_1251,ExactRep-v3-final,2021.2.3,59.38933512436155,
,,,,,,,,45,0,45,0,,,,,,,,,,,,,,,,,,,,,,,,,,,,,,,,,,,,,,,,,,,,,,,,,,,,,521.1543233999982,None,,,,,,,,,,,,,,,,,,,,,,,,,,,,,,,,,,,plant,0,46,sing,blue,519.1529518999159,None,None,519.1529518999159,None,,,,,,,,,,,,,,,,,,,,,,,,,,,,,,92NB,001,2023_Sep_01_1251,ExactRep-v3-final,2021.2.3,59.38933512436155,
,,,,,,,,46,0,46,0,,,,,,,,,,,,,,,,,,,,,,,,,,,,,,,,,,,,,,,,,,,,,,,,,,,,,523.6566614999902,None,,,,,,,,,,,,,,,,,,,,,,,,,,,,,,,,,,,friend,33,47,sing,blue,521.6550291000167,None,None,521.6550291000167,None,,,,,,,,,,,,,,,,,,,,,,,,,,,,,,92NB,001,2023_Sep_01_1251,ExactRep-v3-final,2021.2.3,59.38933512436155,
,,,,,,,,47,0,47,0,,,,,,,,,,,,,,,,,,,,,,,,,,,,,,,,,,,,,,,,,,,,,,,,,,,,,526.1591334999539,None,,,,,,,,,,,,,,,,,,,,,,,,,,,,,,,,,,,lip,87,48,aloud,red,524.1587206999538,None,None,524.1587206999538,None,,,,,,,,,,,,,,,,,,,,,,,,,,,,,,92NB,001,2023_Sep_01_1251,ExactRep-v3-final,2021.2.3,59.38933512436155,
,,,,,,,,48,0,48,0,,,,,,,,,,,,,,,,,,,,,,,,,,,,,,,,,,,,,,,,,,,,,,,,,,,,,528.6616640000138,None,,,,,,,,,,,,,,,,,,,,,,,,,,,,,,,,,,,passion,84,49,aloud,red,526.660848999978,None,None,526.660848999978,None,,,,,,,,,,,,,,,,,,,,,,,,,,,,,,92NB,001,2023_Sep_01_1251,ExactRep-v3-final,2021.2.3,59.38933512436155,
,,,,,,,,49,0,49,0,,,,,,,,,,,,,,,,,,,,,,,,,,,,,,,,,,,,,,,,,,,,,,,,,,,,,531.1644579999847,None,,,,,,,,,,,,,,,,,,,,,,,,,,,,,,,,,,,corner,63,50,silent,white,529.1628940999508,None,None,529.1628940999508,None,,,,,,,,,,,,,,,,,,,,,,,,,,,,,,92NB,001,2023_Sep_01_1251,ExactRep-v3-final,2021.2.3,59.38933512436155,
,,,,,,,,50,0,50,0,,,,,,,,,,,,,,,,,,,,,,,,,,,,,,,,,,,,,,,,,,,,,,,,,,,,,533.6668101999676,None,,,,,,,,,,,,,,,,,,,,,,,,,,,,,,,,,,,winter,104,51,aloud,red,531.6668999999529,None,None,531.6668999999529,None,,,,,,,,,,,,,,,,,,,,,,,,,,,,,,92NB,001,2023_Sep_01_1251,ExactRep-v3-final,2021.2.3,59.38933512436155,
,,,,,,,,51,0,51,0,,,,,,,,,,,,,,,,,,,,,,,,,,,,,,,,,,,,,,,,,,,,,,,,,,,,,536.1694532999536,None,,,,,,,,,,,,,,,,,,,,,,,,,,,,,,,,,,,coast,71,52,silent,white,534.1699432999594,None,None,534.1699432999594,None,,,,,,,,,,,,,,,,,,,,,,,,,,,,,,92NB,001,2023_Sep_01_1251,ExactRep-v3-final,2021.2.3,59.38933512436155,
,,,,,,,,52,0,52,0,,,,,,,,,,,,,,,,,,,,,,,,,,,,,,,,,,,,,,,,,,,,,,,,,,,,,538.6883780999342,None,,,,,,,,,,,,,,,,,,,,,,,,,,,,,,,,,,,paper,76,53,silent,white,536.6736879999517,None,None,536.6736879999517,None,,,,,,,,,,,,,,,,,,,,,,,,,,,,,,92NB,001,2023_Sep_01_1251,ExactRep-v3-final,2021.2.3,59.38933512436155,
,,,,,,,,53,0,53,0,,,,,,,,,,,,,,,,,,,,,,,,,,,,,,,,,,,,,,,,,,,,,,,,,,,,,541.1912952000275,None,,,,,,,,,,,,,,,,,,,,,,,,,,,,,,,,,,,lad,96,54,aloud,red,539.1910734999692,None,None,539.1910734999692,None,,,,,,,,,,,,,,,,,,,,,,,,,,,,,,92NB,001,2023_Sep_01_1251,ExactRep-v3-final,2021.2.3,59.38933512436155,
,,,,,,,,54,0,54,0,,,,,,,,,,,,,,,,,,,,,,,,,,,,,,,,,,,,,,,,,,,,,,,,,,,,,543.7102844999172,None,,,,,,,,,,,,,,,,,,,,,,,,,,,,,,,,,,,coin,13,55,sing,blue,541.704340599943,None,None,541.704340599943,None,,,,,,,,,,,,,,,,,,,,,,,,,,,,,,92NB,001,2023_Sep_01_1251,ExactRep-v3-final,2021.2.3,59.38933512436155,
,,,,,,,,55,0,55,0,,,,,,,,,,,,,,,,,,,,,,,,,,,,,,,,,,,,,,,,,,,,,,,,,,,,,546.2127008999232,None,,,,,,,,,,,,,,,,,,,,,,,,,,,,,,,,,,,shock,60,56,silent,white,544.2112853999715,None,None,544.2112853999715,None,,,,,,,,,,,,,,,,,,,,,,,,,,,,,,92NB,001,2023_Sep_01_1251,ExactRep-v3-final,2021.2.3,59.38933512436155,
,,,,,,,,56,0,56,0,,,,,,,,,,,,,,,,,,,,,,,,,,,,,,,,,,,,,,,,,,,,,,,,,,,,,548.7315894999774,None,,,,,,,,,,,,,,,,,,,,,,,,,,,,,,,,,,,storm,91,57,aloud,red,546.7286896000151,None,None,546.7286896000151,None,,,,,,,,,,,,,,,,,,,,,,,,,,,,,,92NB,001,2023_Sep_01_1251,ExactRep-v3-final,2021.2.3,59.38933512436155,
,,,,,,,,57,0,57,0,,,,,,,,,,,,,,,,,,,,,,,,,,,,,,,,,,,,,,,,,,,,,,,,,,,,,551.234476499958,None,,,,,,,,,,,,,,,,,,,,,,,,,,,,,,,,,,,style,11,58,sing,blue,549.232007100014,None,None,549.232007100014,None,,,,,,,,,,,,,,,,,,,,,,,,,,,,,,92NB,001,2023_Sep_01_1251,ExactRep-v3-final,2021.2.3,59.38933512436155,
,,,,,,,,58,0,58,0,,,,,,,,,,,,,,,,,,,,,,,,,,,,,,,,,,,,,,,,,,,,,,,,,,,,,553.7366493999725,None,,,,,,,,,,,,,,,,,,,,,,,,,,,,,,,,,,,priest,117,59,aloud,red,551.7361333000008,None,None,551.7361333000008,None,,,,,,,,,,,,,,,,,,,,,,,,,,,,,,92NB,001,2023_Sep_01_1251,ExactRep-v3-final,2021.2.3,59.38933512436155,
,,,,,,,,59,0,59,0,,,,,,,,,,,,,,,,,,,,,,,,,,,,,,,,,,,,,,,,,,,,,,,,,,,,,556.239288099925,None,,,,,,,,,,,,,,,,,,,,,,,,,,,,,,,,,,,insect,116,60,aloud,red,554.2379338999745,None,None,554.2379338999745,None,,,,,,,,,,,,,,,,,,,,,,,,,,,,,,92NB,001,2023_Sep_01_1251,ExactRep-v3-final,2021.2.3,59.38933512436155,
,,,,,,,,60,0,60,0,,,,,,,,,,,,,,,,,,,,,,,,,,,,,,,,,,,,,,,,,,,,,,,,,,,,,558.7418867999222,None,,,,,,,,,,,,,,,,,,,,,,,,,,,,,,,,,,,glory,108,61,aloud,red,556.7401494999649,None,None,556.7401494999649,None,,,,,,,,,,,,,,,,,,,,,,,,,,,,,,92NB,001,2023_Sep_01_1251,ExactRep-v3-final,2021.2.3,59.38933512436155,
,,,,,,,,61,0,61,0,,,,,,,,,,,,,,,,,,,,,,,,,,,,,,,,,,,,,,,,,,,,,,,,,,,,,561.2444056000095,None,,,,,,,,,,,,,,,,,,,,,,,,,,,,,,,,,,,gift,73,62,silent,white,559.2440395000158,None,None,559.2440395000158,None,,,,,,,,,,,,,,,,,,,,,,,,,,,,,,92NB,001,2023_Sep_01_1251,ExactRep-v3-final,2021.2.3,59.38933512436155,
,,,,,,,,62,0,62,0,,,,,,,,,,,,,,,,,,,,,,,,,,,,,,,,,,,,,,,,,,,,,,,,,,,,,563.7467049999395,None,,,,,,,,,,,,,,,,,,,,,,,,,,,,,,,,,,,hope,46,63,silent,white,561.7470781999873,None,None,561.7470781999873,None,,,,,,,,,,,,,,,,,,,,,,,,,,,,,,92NB,001,2023_Sep_01_1251,ExactRep-v3-final,2021.2.3,59.38933512436155,
,,,,,,,,63,0,63,0,,,,,,,,,,,,,,,,,,,,,,,,,,,,,,,,,,,,,,,,,,,,,,,,,,,,,566.249354199972,None,,,,,,,,,,,,,,,,,,,,,,,,,,,,,,,,,,,fire,24,64,sing,blue,564.248994100024,None,None,564.248994100024,None,,,,,,,,,,,,,,,,,,,,,,,,,,,,,,92NB,001,2023_Sep_01_1251,ExactRep-v3-final,2021.2.3,59.38933512436155,
,,,,,,,,64,0,64,0,,,,,,,,,,,,,,,,,,,,,,,,,,,,,,,,,,,,,,,,,,,,,,,,,,,,,568.7516270999331,None,,,,,,,,,,,,,,,,,,,,,,,,,,,,,,,,,,,square,67,65,silent,white,566.7515207999386,None,None,566.7515207999386,None,,,,,,,,,,,,,,,,,,,,,,,,,,,,,,92NB,001,2023_Sep_01_1251,ExactRep-v3-final,2021.2.3,59.38933512436155,
,,,,,,,,65,0,65,0,,,,,,,,,,,,,,,,,,,,,,,,,,,,,,,,,,,,,,,,,,,,,,,,,,,,,571.2543756000232,None,,,,,,,,,,,,,,,,,,,,,,,,,,,,,,,,,,,person,72,66,silent,white,569.2538040999789,None,None,569.2538040999789,None,,,,,,,,,,,,,,,,,,,,,,,,,,,,,,92NB,001,2023_Sep_01_1251,ExactRep-v3-final,2021.2.3,59.38933512436155,
,,,,,,,,66,0,66,0,,,,,,,,,,,,,,,,,,,,,,,,,,,,,,,,,,,,,,,,,,,,,,,,,,,,,573.7733636000194,None,,,,,,,,,,,,,,,,,,,,,,,,,,,,,,,,,,,picture,61,67,silent,white,571.7599383000052,None,None,571.7599383000052,None,,,,,,,,,,,,,,,,,,,,,,,,,,,,,,92NB,001,2023_Sep_01_1251,ExactRep-v3-final,2021.2.3,59.38933512436155,
,,,,,,,,67,0,67,0,,,,,,,,,,,,,,,,,,,,,,,,,,,,,,,,,,,,,,,,,,,,,,,,,,,,,576.2759276999859,None,,,,,,,,,,,,,,,,,,,,,,,,,,,,,,,,,,,book,37,68,sing,blue,574.2736713999184,None,None,574.2736713999184,None,,,,,,,,,,,,,,,,,,,,,,,,,,,,,,92NB,001,2023_Sep_01_1251,ExactRep-v3-final,2021.2.3,59.38933512436155,
,,,,,,,,68,0,68,0,,,,,,,,,,,,,,,,,,,,,,,,,,,,,,,,,,,,,,,,,,,,,,,,,,,,,578.778747699922,None,,,,,,,,,,,,,,,,,,,,,,,,,,,,,,,,,,,cottage,48,69,silent,white,576.7772955999244,None,None,576.7772955999244,None,,,,,,,,,,,,,,,,,,,,,,,,,,,,,,92NB,001,2023_Sep_01_1251,ExactRep-v3-final,2021.2.3,59.38933512436155,
,,,,,,,,69,0,69,0,,,,,,,,,,,,,,,,,,,,,,,,,,,,,,,,,,,,,,,,,,,,,,,,,,,,,581.2815092999954,None,,,,,,,,,,,,,,,,,,,,,,,,,,,,,,,,,,,origin,32,70,sing,blue,579.2797832000069,None,None,579.2797832000069,None,,,,,,,,,,,,,,,,,,,,,,,,,,,,,,92NB,001,2023_Sep_01_1251,ExactRep-v3-final,2021.2.3,59.38933512436155,
,,,,,,,,70,0,70,0,,,,,,,,,,,,,,,,,,,,,,,,,,,,,,,,,,,,,,,,,,,,,,,,,,,,,583.8000504999654,None,,,,,,,,,,,,,,,,,,,,,,,,,,,,,,,,,,,stone,97,71,aloud,red,581.7867933999514,None,None,581.7867933999514,None,,,,,,,,,,,,,,,,,,,,,,,,,,,,,,92NB,001,2023_Sep_01_1251,ExactRep-v3-final,2021.2.3,59.38933512436155,
,,,,,,,,71,0,71,0,,,,,,,,,,,,,,,,,,,,,,,,,,,,,,,,,,,,,,,,,,,,,,,,,,,,,586.3025676999241,None,,,,,,,,,,,,,,,,,,,,,,,,,,,,,,,,,,,moment,5,72,sing,blue,584.3007418999914,None,None,584.3007418999914,None,,,,,,,,,,,,,,,,,,,,,,,,,,,,,,92NB,001,2023_Sep_01_1251,ExactRep-v3-final,2021.2.3,59.38933512436155,
,,,,,,,,72,0,72,0,,,,,,,,,,,,,,,,,,,,,,,,,,,,,,,,,,,,,,,,,,,,,,,,,,,,,588.8217457999708,None,,,,,,,,,,,,,,,,,,,,,,,,,,,,,,,,,,,pride,110,73,aloud,red,586.808002899983,None,None,586.808002899983,None,,,,,,,,,,,,,,,,,,,,,,,,,,,,,,92NB,001,2023_Sep_01_1251,ExactRep-v3-final,2021.2.3,59.38933512436155,
,,,,,,,,73,0,73,0,,,,,,,,,,,,,,,,,,,,,,,,,,,,,,,,,,,,,,,,,,,,,,,,,,,,,591.3243127999594,None,,,,,,,,,,,,,,,,,,,,,,,,,,,,,,,,,,,series,118,74,aloud,red,589.3220743000275,None,None,589.3220743000275,None,,,,,,,,,,,,,,,,,,,,,,,,,,,,,,92NB,001,2023_Sep_01_1251,ExactRep-v3-final,2021.2.3,59.38933512436155,
,,,,,,,,74,0,74,0,,,,,,,,,,,,,,,,,,,,,,,,,,,,,,,,,,,,,,,,,,,,,,,,,,,,,593.8435858999146,None,,,,,,,,,,,,,,,,,,,,,,,,,,,,,,,,,,,quality,40,75,silent,white,591.8298174999654,None,None,591.8298174999654,None,,,,,,,,,,,,,,,,,,,,,,,,,,,,,,92NB,001,2023_Sep_01_1251,ExactRep-v3-final,2021.2.3,59.38933512436155,
,,,,,,,,75,0,75,0,,,,,,,,,,,,,,,,,,,,,,,,,,,,,,,,,,,,,,,,,,,,,,,,,,,,,596.3462685999693,None,,,,,,,,,,,,,,,,,,,,,,,,,,,,,,,,,,,safety,2,76,sing,blue,594.3439689999213,None,None,594.3439689999213,None,,,,,,,,,,,,,,,,,,,,,,,,,,,,,,92NB,001,2023_Sep_01_1251,ExactRep-v3-final,2021.2.3,59.38933512436155,
,,,,,,,,76,0,76,0,,,,,,,,,,,,,,,,,,,,,,,,,,,,,,,,,,,,,,,,,,,,,,,,,,,,,598.865415600012,None,,,,,,,,,,,,,,,,,,,,,,,,,,,,,,,,,,,silence,52,77,silent,white,596.8594040999888,None,None,596.8594040999888,None,,,,,,,,,,,,,,,,,,,,,,,,,,,,,,92NB,001,2023_Sep_01_1251,ExactRep-v3-final,2021.2.3,59.38933512436155,
,,,,,,,,77,0,77,0,,,,,,,,,,,,,,,,,,,,,,,,,,,,,,,,,,,,,,,,,,,,,,,,,,,,,601.367448200006,None,,,,,,,,,,,,,,,,,,,,,,,,,,,,,,,,,,,table,51,78,silent,white,599.3677372999955,None,None,599.3677372999955,None,,,,,,,,,,,,,,,,,,,,,,,,,,,,,,92NB,001,2023_Sep_01_1251,ExactRep-v3-final,2021.2.3,59.38933512436155,
,,,,,,,,78,0,78,0,,,,,,,,,,,,,,,,,,,,,,,,,,,,,,,,,,,,,,,,,,,,,,,,,,,,,603.8703560000286,None,,,,,,,,,,,,,,,,,,,,,,,,,,,,,,,,,,,bar,31,79,sing,blue,601.8678613000084,None,None,601.8678613000084,None,,,,,,,,,,,,,,,,,,,,,,,,,,,,,,92NB,001,2023_Sep_01_1251,ExactRep-v3-final,2021.2.3,59.38933512436155,
,,,,,,,,79,0,79,0,,,,,,,,,,,,,,,,,,,,,,,,,,,,,,,,,,,,,,,,,,,,,,,,,,,,,606.3897465999471,None,,,,,,,,,,,,,,,,,,,,,,,,,,,,,,,,,,,answer,77,80,silent,white,604.3750496000284,None,None,604.3750496000284,None,,,,,,,,,,,,,,,,,,,,,,,,,,,,,,92NB,001,2023_Sep_01_1251,ExactRep-v3-final,2021.2.3,59.38933512436155,
,,,,,,,,80,0,80,0,,,,,,,,,,,,,,,,,,,,,,,,,,,,,,,,,,,,,,,,,,,,,,,,,,,,,608.9084306999575,None,,,,,,,,,,,,,,,,,,,,,,,,,,,,,,,,,,,pole,78,81,silent,white,606.8955537999282,None,None,606.8955537999282,None,,,,,,,,,,,,,,,,,,,,,,,,,,,,,,92NB,001,2023_Sep_01_1251,ExactRep-v3-final,2021.2.3,59.38933512436155,
,,,,,,,,81,0,81,0,,,,,,,,,,,,,,,,,,,,,,,,,,,,,,,,,,,,,,,,,,,,,,,,,,,,,611.4110288999509,None,,,,,,,,,,,,,,,,,,,,,,,,,,,,,,,,,,,idea,100,82,aloud,red,609.408890599967,None,None,609.408890599967,None,,,,,,,,,,,,,,,,,,,,,,,,,,,,,,92NB,001,2023_Sep_01_1251,ExactRep-v3-final,2021.2.3,59.38933512436155,
,,,,,,,,82,0,82,0,,,,,,,,,,,,,,,,,,,,,,,,,,,,,,,,,,,,,,,,,,,,,,,,,,,,,613.9304947999772,None,,,,,,,,,,,,,,,,,,,,,,,,,,,,,,,,,,,officer,21,83,sing,blue,611.9166017000098,None,None,611.9166017000098,None,,,,,,,,,,,,,,,,,,,,,,,,,,,,,,92NB,001,2023_Sep_01_1251,ExactRep-v3-final,2021.2.3,59.38933512436155,
,,,,,,,,83,0,83,0,,,,,,,,,,,,,,,,,,,,,,,,,,,,,,,,,,,,,,,,,,,,,,,,,,,,,616.4326825999888,None,,,,,,,,,,,,,,,,,,,,,,,,,,,,,,,,,,,home,58,84,silent,white,614.4305008000229,None,None,614.4305008000229,None,,,,,,,,,,,,,,,,,,,,,,,,,,,,,,92NB,001,2023_Sep_01_1251,ExactRep-v3-final,2021.2.3,59.38933512436155,
,,,,,,,,84,0,84,0,,,,,,,,,,,,,,,,,,,,,,,,,,,,,,,,,,,,,,,,,,,,,,,,,,,,,618.9516883000033,None,,,,,,,,,,,,,,,,,,,,,,,,,,,,,,,,,,,fun,99,85,aloud,red,616.9396366999717,None,None,616.9396366999717,None,,,,,,,,,,,,,,,,,,,,,,,,,,,,,,92NB,001,2023_Sep_01_1251,ExactRep-v3-final,2021.2.3,59.38933512436155,
,,,,,,,,85,0,85,0,,,,,,,,,,,,,,,,,,,,,,,,,,,,,,,,,,,,,,,,,,,,,,,,,,,,,621.4712244999828,None,,,,,,,,,,,,,,,,,,,,,,,,,,,,,,,,,,,troops,55,86,silent,white,619.4556144999806,None,None,619.4556144999806,None,,,,,,,,,,,,,,,,,,,,,,,,,,,,,,92NB,001,2023_Sep_01_1251,ExactRep-v3-final,2021.2.3,59.38933512436155,
,,,,,,,,86,0,86,0,,,,,,,,,,,,,,,,,,,,,,,,,,,,,,,,,,,,,,,,,,,,,,,,,,,,,623.973461800022,None,,,,,,,,,,,,,,,,,,,,,,,,,,,,,,,,,,,anger,82,87,aloud,red,621.9739996999269,None,None,621.9739996999269,None,,,,,,,,,,,,,,,,,,,,,,,,,,,,,,92NB,001,2023_Sep_01_1251,ExactRep-v3-final,2021.2.3,59.38933512436155,
,,,,,,,,87,0,87,0,,,,,,,,,,,,,,,,,,,,,,,,,,,,,,,,,,,,,,,,,,,,,,,,,,,,,626.4762770999223,None,,,,,,,,,,,,,,,,,,,,,,,,,,,,,,,,,,,law,90,88,aloud,red,624.4742807999719,None,None,624.4742807999719,None,,,,,,,,,,,,,,,,,,,,,,,,,,,,,,92NB,001,2023_Sep_01_1251,ExactRep-v3-final,2021.2.3,59.38933512436155,
,,,,,,,,88,0,88,0,,,,,,,,,,,,,,,,,,,,,,,,,,,,,,,,,,,,,,,,,,,,,,,,,,,,,628.9964207999874,None,,,,,,,,,,,,,,,,,,,,,,,,,,,,,,,,,,,month,68,89,silent,white,626.9844528000103,None,None,626.9844528000103,None,,,,,,,,,,,,,,,,,,,,,,,,,,,,,,92NB,001,2023_Sep_01_1251,ExactRep-v3-final,2021.2.3,59.38933512436155,
,,,,,,,,89,0,89,0,,,,,,,,,,,,,,,,,,,,,,,,,,,,,,,,,,,,,,,,,,,,,,,,,,,,,631.5145346999634,None,,,,,,,,,,,,,,,,,,,,,,,,,,,,,,,,,,,season,106,90,aloud,red,629.4990009999601,None,None,629.4990009999601,None,,,,,,,,,,,,,,,,,,,,,,,,,,,,,,92NB,001,2023_Sep_01_1251,ExactRep-v3-final,2021.2.3,59.38933512436155,
,,,,,,,,90,0,90,0,,,,,,,,,,,,,,,,,,,,,,,,,,,,,,,,,,,,,,,,,,,,,,,,,,,,,634.0167757999152,None,,,,,,,,,,,,,,,,,,,,,,,,,,,,,,,,,,,honour,89,91,aloud,red,632.0154815999558,None,None,632.0154815999558,None,,,,,,,,,,,,,,,,,,,,,,,,,,,,,,92NB,001,2023_Sep_01_1251,ExactRep-v3-final,2021.2.3,59.38933512436155,
,,,,,,,,91,0,91,0,,,,,,,,,,,,,,,,,,,,,,,,,,,,,,,,,,,,,,,,,,,,,,,,,,,,,636.5229640000034,None,,,,,,,,,,,,,,,,,,,,,,,,,,,,,,,,,,,fur,47,92,silent,white,634.5178905000212,None,None,634.5178905000212,None,,,,,,,,,,,,,,,,,,,,,,,,,,,,,,92NB,001,2023_Sep_01_1251,ExactRep-v3-final,2021.2.3,59.38933512436155,
,,,,,,,,92,0,92,0,,,,,,,,,,,,,,,,,,,,,,,,,,,,,,,,,,,,,,,,,,,,,,,,,,,,,639.0388964000158,None,,,,,,,,,,,,,,,,,,,,,,,,,,,,,,,,,,,corn,101,93,aloud,red,637.0326311999233,None,None,637.0326311999233,None,,,,,,,,,,,,,,,,,,,,,,,,,,,,,,92NB,001,2023_Sep_01_1251,ExactRep-v3-final,2021.2.3,59.38933512436155,
,,,,,,,,93,0,93,0,,,,,,,,,,,,,,,,,,,,,,,,,,,,,,,,,,,,,,,,,,,,,,,,,,,,,641.5580237000249,None,,,,,,,,,,,,,,,,,,,,,,,,,,,,,,,,,,,disease,59,94,silent,white,639.5433186999289,None,None,639.5433186999289,None,,,,,,,,,,,,,,,,,,,,,,,,,,,,,,92NB,001,2023_Sep_01_1251,ExactRep-v3-final,2021.2.3,59.38933512436155,
,,,,,,,,94,0,94,0,,,,,,,,,,,,,,,,,,,,,,,,,,,,,,,,,,,,,,,,,,,,,,,,,,,,,644.060860699974,None,,,,,,,,,,,,,,,,,,,,,,,,,,,,,,,,,,,hide,9,95,sing,blue,642.0607981999638,None,None,642.0607981999638,None,,,,,,,,,,,,,,,,,,,,,,,,,,,,,,92NB,001,2023_Sep_01_1251,ExactRep-v3-final,2021.2.3,59.38933512436155,
,,,,,,,,95,0,95,0,,,,,,,,,,,,,,,,,,,,,,,,,,,,,,,,,,,,,,,,,,,,,,,,,,,,,646.562760700006,None,,,,,,,,,,,,,,,,,,,,,,,,,,,,,,,,,,,village,79,96,sing,blue,644.5629430999979,None,None,644.5629430999979,None,,,,,,,,,,,,,,,,,,,,,,,,,,,,,,92NB,001,2023_Sep_01_1251,ExactRep-v3-final,2021.2.3,59.38933512436155,
,,,,,,,,96,0,96,0,,,,,,,,,,,,,,,,,,,,,,,,,,,,,,,,,,,,,,,,,,,,,,,,,,,,,649.0820259000175,None,,,,,,,,,,,,,,,,,,,,,,,,,,,,,,,,,,,vessel,19,97,sing,blue,647.0710387999425,None,None,647.0710387999425,None,,,,,,,,,,,,,,,,,,,,,,,,,,,,,,92NB,001,2023_Sep_01_1251,ExactRep-v3-final,2021.2.3,59.38933512436155,
,,,,,,,,97,0,97,0,,,,,,,,,,,,,,,,,,,,,,,,,,,,,,,,,,,,,,,,,,,,,,,,,,,,,651.584618599969,None,,,,,,,,,,,,,,,,,,,,,,,,,,,,,,,,,,,plain,38,98,sing,blue,649.584478899953,None,None,649.584478899953,None,,,,,,,,,,,,,,,,,,,,,,,,,,,,,,92NB,001,2023_Sep_01_1251,ExactRep-v3-final,2021.2.3,59.38933512436155,
,,,,,,,,98,0,98,0,,,,,,,,,,,,,,,,,,,,,,,,,,,,,,,,,,,,,,,,,,,,,,,,,,,,,654.0874147999566,None,,,,,,,,,,,,,,,,,,,,,,,,,,,,,,,,,,,maiden,42,99,silent,white,652.0870306999423,None,None,652.0870306999423,None,,,,,,,,,,,,,,,,,,,,,,,,,,,,,,92NB,001,2023_Sep_01_1251,ExactRep-v3-final,2021.2.3,59.38933512436155,
,,,,,,,,99,0,99,0,,,,,,,,,,,,,,,,,,,,,,,,,,,,,,,,,,,,,,,,,,,,,,,,,,,,,656.6062789999414,None,,,,,,,,,,,,,,,,,,,,,,,,,,,,,,,,,,,avenue,119,100,aloud,red,654.5921776000177,None,None,654.5921776000177,None,,,,,,,,,,,,,,,,,,,,,,,,,,,,,,92NB,001,2023_Sep_01_1251,ExactRep-v3-final,2021.2.3,59.38933512436155,
,,,,,,,,100,0,100,0,,,,,,,,,,,,,,,,,,,,,,,,,,,,,,,,,,,,,,,,,,,,,,,,,,,,,659.1084922999144,None,,,,,,,,,,,,,,,,,,,,,,,,,,,,,,,,,,,river,28,101,sing,blue,657.1064975999761,None,None,657.1064975999761,None,,,,,,,,,,,,,,,,,,,,,,,,,,,,,,92NB,001,2023_Sep_01_1251,ExactRep-v3-final,2021.2.3,59.38933512436155,
,,,,,,,,101,0,101,0,,,,,,,,,,,,,,,,,,,,,,,,,,,,,,,,,,,,,,,,,,,,,,,,,,,,,661.6110164999263,None,,,,,,,,,,,,,,,,,,,,,,,,,,,,,,,,,,,woman,80,102,aloud,red,659.6095765000209,None,None,659.6095765000209,None,,,,,,,,,,,,,,,,,,,,,,,,,,,,,,92NB,001,2023_Sep_01_1251,ExactRep-v3-final,2021.2.3,59.38933512436155,
,,,,,,,,102,0,102,0,,,,,,,,,,,,,,,,,,,,,,,,,,,,,,,,,,,,,,,,,,,,,,,,,,,,,664.1137819000287,None,,,,,,,,,,,,,,,,,,,,,,,,,,,,,,,,,,,student,98,103,aloud,red,662.1117264999775,None,None,662.1117264999775,None,,,,,,,,,,,,,,,,,,,,,,,,,,,,,,92NB,001,2023_Sep_01_1251,ExactRep-v3-final,2021.2.3,59.38933512436155,
,,,,,,,,103,0,103,0,,,,,,,,,,,,,,,,,,,,,,,,,,,,,,,,,,,,,,,,,,,,,,,,,,,,,666.6160889000166,None,,,,,,,,,,,,,,,,,,,,,,,,,,,,,,,,,,,money,65,104,silent,white,664.616122999927,None,None,664.616122999927,None,,,,,,,,,,,,,,,,,,,,,,,,,,,,,,92NB,001,2023_Sep_01_1251,ExactRep-v3-final,2021.2.3,59.38933512436155,
,,,,,,,,104,0,104,0,,,,,,,,,,,,,,,,,,,,,,,,,,,,,,,,,,,,,,,,,,,,,,,,,,,,,669.1188283999218,None,,,,,,,,,,,,,,,,,,,,,,,,,,,,,,,,,,,flag,112,105,aloud,red,667.1169342999347,None,None,667.1169342999347,None,,,,,,,,,,,,,,,,,,,,,,,,,,,,,,92NB,001,2023_Sep_01_1251,ExactRep-v3-final,2021.2.3,59.38933512436155,
,,,,,,,,105,0,105,0,,,,,,,,,,,,,,,,,,,,,,,,,,,,,,,,,,,,,,,,,,,,,,,,,,,,,671.6377030999865,None,,,,,,,,,,,,,,,,,,,,,,,,,,,,,,,,,,,slave,107,106,aloud,red,669.6229773999657,None,None,669.6229773999657,None,,,,,,,,,,,,,,,,,,,,,,,,,,,,,,92NB,001,2023_Sep_01_1251,ExactRep-v3-final,2021.2.3,59.38933512436155,
,,,,,,,,106,0,106,0,,,,,,,,,,,,,,,,,,,,,,,,,,,,,,,,,,,,,,,,,,,,,,,,,,,,,674.1403491999954,None,,,,,,,,,,,,,,,,,,,,,,,,,,,,,,,,,,,heaven,53,107,silent,white,672.1403168999823,None,None,672.1403168999823,None,,,,,,,,,,,,,,,,,,,,,,,,,,,,,,92NB,001,2023_Sep_01_1251,ExactRep-v3-final,2021.2.3,59.38933512436155,
,,,,,,,,107,0,107,0,,,,,,,,,,,,,,,,,,,,,,,,,,,,,,,,,,,,,,,,,,,,,,,,,,,,,676.6426588000031,None,,,,,,,,,,,,,,,,,,,,,,,,,,,,,,,,,,,boulder,115,108,aloud,red,674.6411114999792,None,None,674.6411114999792,None,,,,,,,,,,,,,,,,,,,,,,,,,,,,,,92NB,001,2023_Sep_01_1251,ExactRep-v3-final,2021.2.3,59.38933512436155,
,,,,,,,,108,0,108,0,,,,,,,,,,,,,,,,,,,,,,,,,,,,,,,,,,,,,,,,,,,,,,,,,,,,,679.1455825999146,None,,,,,,,,,,,,,,,,,,,,,,,,,,,,,,,,,,,toy,85,109,aloud,red,677.1435570999747,None,None,677.1435570999747,None,,,,,,,,,,,,,,,,,,,,,,,,,,,,,,92NB,001,2023_Sep_01_1251,ExactRep-v3-final,2021.2.3,59.38933512436155,
,,,,,,,,109,0,109,0,,,,,,,,,,,,,,,,,,,,,,,,,,,,,,,,,,,,,,,,,,,,,,,,,,,,,681.6477575999452,None,,,,,,,,,,,,,,,,,,,,,,,,,,,,,,,,,,,dollar,69,110,silent,white,679.6460851000156,None,None,679.6460851000156,None,,,,,,,,,,,,,,,,,,,,,,,,,,,,,,92NB,001,2023_Sep_01_1251,ExactRep-v3-final,2021.2.3,59.38933512436155,
,,,,,,,,110,0,110,0,,,,,,,,,,,,,,,,,,,,,,,,,,,,,,,,,,,,,,,,,,,,,,,,,,,,,684.1503002999816,None,,,,,,,,,,,,,,,,,,,,,,,,,,,,,,,,,,,arm,1,111,sing,blue,682.1491406999994,None,None,682.1491406999994,None,,,,,,,,,,,,,,,,,,,,,,,,,,,,,,92NB,001,2023_Sep_01_1251,ExactRep-v3-final,2021.2.3,59.38933512436155,
,,,,,,,,111,0,111,0,,,,,,,,,,,,,,,,,,,,,,,,,,,,,,,,,,,,,,,,,,,,,,,,,,,,,686.6528448999161,None,,,,,,,,,,,,,,,,,,,,,,,,,,,,,,,,,,,cash,27,112,sing,blue,684.6512234000256,None,None,684.6512234000256,None,,,,,,,,,,,,,,,,,,,,,,,,,,,,,,92NB,001,2023_Sep_01_1251,ExactRep-v3-final,2021.2.3,59.38933512436155,
,,,,,,,,112,0,112,0,,,,,,,,,,,,,,,,,,,,,,,,,,,,,,,,,,,,,,,,,,,,,,,,,,,,,689.1551395999268,None,,,,,,,,,,,,,,,,,,,,,,,,,,,,,,,,,,,market,105,113,aloud,red,687.1538810000056,None,None,687.1538810000056,None,,,,,,,,,,,,,,,,,,,,,,,,,,,,,,92NB,001,2023_Sep_01_1251,ExactRep-v3-final,2021.2.3,59.38933512436155,
,,,,,,,,113,0,113,0,,,,,,,,,,,,,,,,,,,,,,,,,,,,,,,,,,,,,,,,,,,,,,,,,,,,,691.6583616000134,None,,,,,,,,,,,,,,,,,,,,,,,,,,,,,,,,,,,garden,12,114,sing,blue,689.6561830999563,None,None,689.6561830999563,None,,,,,,,,,,,,,,,,,,,,,,,,,,,,,,92NB,001,2023_Sep_01_1251,ExactRep-v3-final,2021.2.3,59.38933512436155,
,,,,,,,,114,0,114,0,,,,,,,,,,,,,,,,,,,,,,,,,,,,,,,,,,,,,,,,,,,,,,,,,,,,,694.1772482999368,None,,,,,,,,,,,,,,,,,,,,,,,,,,,,,,,,,,,custom,35,115,sing,blue,692.1624076999724,None,None,692.1624076999724,None,,,,,,,,,,,,,,,,,,,,,,,,,,,,,,92NB,001,2023_Sep_01_1251,ExactRep-v3-final,2021.2.3,59.38933512436155,
,,,,,,,,115,0,115,0,,,,,,,,,,,,,,,,,,,,,,,,,,,,,,,,,,,,,,,,,,,,,,,,,,,,,696.6964255999774,None,,,,,,,,,,,,,,,,,,,,,,,,,,,,,,,,,,,artist,109,116,aloud,red,694.6930738999508,None,None,694.6930738999508,None,,,,,,,,,,,,,,,,,,,,,,,,,,,,,,92NB,001,2023_Sep_01_1251,ExactRep-v3-final,2021.2.3,59.38933512436155,
,,,,,,,,116,0,116,0,,,,,,,,,,,,,,,,,,,,,,,,,,,,,,,,,,,,,,,,,,,,,,,,,,,,,699.1994032999501,None,,,,,,,,,,,,,,,,,,,,,,,,,,,,,,,,,,,forest,8,117,sing,blue,697.1988735999912,None,None,697.1988735999912,None,,,,,,,,,,,,,,,,,,,,,,,,,,,,,,92NB,001,2023_Sep_01_1251,ExactRep-v3-final,2021.2.3,59.38933512436155,
,,,,,,,,117,0,117,0,,,,,,,,,,,,,,,,,,,,,,,,,,,,,,,,,,,,,,,,,,,,,,,,,,,,,701.7190353999613,None,,,,,,,,,,,,,,,,,,,,,,,,,,,,,,,,,,,meadow,14,118,sing,blue,699.703772299923,None,None,699.703772299923,None,,,,,,,,,,,,,,,,,,,,,,,,,,,,,,92NB,001,2023_Sep_01_1251,ExactRep-v3-final,2021.2.3,59.38933512436155,
,,,,,,,,118,0,118,0,,,,,,,,,,,,,,,,,,,,,,,,,,,,,,,,,,,,,,,,,,,,,,,,,,,,,704.2206338000251,None,,,,,,,,,,,,,,,,,,,,,,,,,,,,,,,,,,,kiss,103,119,aloud,red,702.2205267000245,None,None,702.2205267000245,None,,,,,,,,,,,,,,,,,,,,,,,,,,,,,,92NB,001,2023_Sep_01_1251,ExactRep-v3-final,2021.2.3,59.38933512436155,
,,,,,,,,119,0,119,0,,,,,,,,,,,,,,,,,,,,,,,,,,,,,,,,,,,,,,,,,,,,,,,,,,,,,706.7395072999643,None,,,,,,,,,,,,,,,,,,,,,,,,,,,,,,,,,,,opinion,92,120,aloud,red,704.7257012999617,None,None,704.7257012999617,None,,,,,,,,,,,,,,,,,,,,,,,,,,,,,,92NB,001,2023_Sep_01_1251,ExactRep-v3-final,2021.2.3,59.38933512436155,
,,,,,,,,,,,,,,,,,,,,,,,,,,,,,,,,,,,,,,,,,,,,,,,,,,,,,,,,,,,,,,,,,,,,,,,,,,,,,,,,,,,,,,,,,,,,,,,,,,,,,,,,,,,,,,707.2399162999354,None,space,18.268387299962342,717.2181008999469,None,,,,,,,,,,,,,,,,,,,,,,,,92NB,001,2023_Sep_01_1251,ExactRep-v3-final,2021.2.3,59.38933512436155,
,,,,,,,,,,,,,,,,,,,,,,,,,,,,,,,,,,,,,,,,,,,,,,,,,,,,,,,,,,,,,,,,,,,,,,,,,,,,,,,,,,,,,,,,,,,,,,,,,,,,,,,,,,,,,,,,,,,,735.5031438999576,None,space,2.71102319995407,745.4795203999383,None,,,,,,,,,,,,,,,,,,92NB,001,2023_Sep_01_1251,ExactRep-v3-final,2021.2.3,59.38933512436155,
,,,,,,,,,,,,0,0,0,0,,,,,,,,,,,,,,,,,,,,,,,,,,,,,,,,,,,,,,,,,,,,,,,,,756.1576908000279,None,,,,,,,,,,,,,,,,,,,,,,,,,,,,,,,,,,,,,,,,,,,,,,,,,,,,,,,,,dawn,159,1,silent,new,yellow,748.7232867999701,None,n,748.7232867999701,None,"['n', 'return']","[3.4667278999695554, 7.394716999959201]",748.7232867999701,None,,,92NB,001,2023_Sep_01_1251,ExactRep-v3-final,2021.2.3,59.38933512436155,
,,,,,,,,,,,,1,0,1,0,,,,,,,,,,,,,,,,,,,,,,,,,,,,,,,,,,,,,,,,,,,,,,,,,758.2427529999986,None,,,,,,,,,,,,,,,,,,,,,,,,,,,,,,,,,,,,,,,,,,,,,,,,,,,,,,,,,time,134,2,silent,new,yellow,756.6731464000186,None,y,756.6731464000186,None,"['y', 'return']","[1.092987300013192, 1.5248205000534654]",756.6731464000186,None,,,92NB,001,2023_Sep_01_1251,ExactRep-v3-final,2021.2.3,59.38933512436155,
,,,,,,,,,,,,2,0,2,0,,,,,,,,,,,,,,,,,,,,,,,,,,,,,,,,,,,,,,,,,,,,,,,,,760.5118220000295,None,,,,,,,,,,,,,,,,,,,,,,,,,,,,,,,,,,,,,,,,,,,,,,,,,,,,,,,,,plant,0,3,sing,old,yellow,758.7608103000093,None,y,758.7608103000093,None,"['y', 'return']","[1.3491324000060558, 1.7173232000786811]",758.7608103000093,None,,,92NB,001,2023_Sep_01_1251,ExactRep-v3-final,2021.2.3,59.38933512436155,
,,,,,,,,,,,,3,0,3,0,,,,,,,,,,,,,,,,,,,,,,,,,,,,,,,,,,,,,,,,,,,,,,,,,762.9640021999367,None,,,,,,,,,,,,,,,,,,,,,,,,,,,,,,,,,,,,,,,,,,,,,,,,,,,,,,,,,wine,120,4,silent,new,yellow,761.0394751999993,None,y,761.0394751999993,None,"['y', 'return']","[1.5505504000466317, 1.878514499985613]",761.0394751999993,None,,,92NB,001,2023_Sep_01_1251,ExactRep-v3-final,2021.2.3,59.38933512436155,
,,,,,,,,,,,,4,0,4,0,,,,,,,,,,,,,,,,,,,,,,,,,,,,,,,,,,,,,,,,,,,,,,,,,764.6494643000187,None,,,,,,,,,,,,,,,,,,,,,,,,,,,,,,,,,,,,,,,,,,,,,,,,,,,,,,,,,iron,222,5,aloud,new,yellow,763.4799413000001,None,y,763.4799413000001,None,"['y', 'return']","[0.789937200024724, 1.134117600042373]",763.4799413000001,None,,,92NB,001,2023_Sep_01_1251,ExactRep-v3-final,2021.2.3,59.38933512436155,
,,,,,,,,,,,,5,0,5,0,,,,,,,,,,,,,,,,,,,,,,,,,,,,,,,,,,,,,,,,,,,,,,,,,767.1508703000145,None,,,,,,,,,,,,,,,,,,,,,,,,,,,,,,,,,,,,,,,,,,,,,,,,,,,,,,,,,quality,40,6,silent,old,yellow,765.1667585999239,None,y,765.1667585999239,None,"['y', 'return']","[1.6071606000186875, 1.9432147999759763]",765.1667585999239,None,,,92NB,001,2023_Sep_01_1251,ExactRep-v3-final,2021.2.3,59.38933512436155,
,,,,,,,,,,,,6,0,6,0,,,,,,,,,,,,,,,,,,,,,,,,,,,,,,,,,,,,,,,,,,,,,,,,,769.2708457999397,None,,,,,,,,,,,,,,,,,,,,,,,,,,,,,,,,,,,,,,,,,,,,,,,,,,,,,,,,,ticket,160,7,aloud,new,yellow,767.6522868999746,None,n,767.6522868999746,None,"['n', 'return']","[1.2577371000079438, 1.5778343999991193]",767.6522868999746,None,,,92NB,001,2023_Sep_01_1251,ExactRep-v3-final,2021.2.3,59.38933512436155,
,,,,,,,,,,,,7,0,7,0,,,,,,,,,,,,,,,,,,,,,,,,,,,,,,,,,,,,,,,,,,,,,,,,,771.4890515999869,None,,,,,,,,,,,,,,,,,,,,,,,,,,,,,,,,,,,,,,,,,,,,,,,,,,,,,,,,,disease,59,8,silent,old,yellow,769.7958402999211,None,n,769.7958402999211,None,"['n', 'return']","[1.3380701000569388, 1.6501370000187308]",769.7958402999211,None,,,92NB,001,2023_Sep_01_1251,ExactRep-v3-final,2021.2.3,59.38933512436155,
,,,,,,,,,,,,8,0,8,0,,,,,,,,,,,,,,,,,,,,,,,,,,,,,,,,,,,,,,,,,,,,,,,,,773.2740307999775,None,,,,,,,,,,,,,,,,,,,,,,,,,,,,,,,,,,,,,,,,,,,,,,,,,,,,,,,,,army,66,9,silent,old,yellow,772.0053181999829,None,y,772.0053181999829,None,"['y', 'return']","[0.9366910000098869, 1.2326672999188304]",772.0053181999829,None,,,92NB,001,2023_Sep_01_1251,ExactRep-v3-final,2021.2.3,59.38933512436155,
,,,,,,,,,,,,9,0,9,0,,,,,,,,,,,,,,,,,,,,,,,,,,,,,,,,,,,,,,,,,,,,,,,,,775.0597443999723,None,,,,,,,,,,,,,,,,,,,,,,,,,,,,,,,,,,,,,,,,,,,,,,,,,,,,,,,,,crime,88,10,aloud,old,yellow,773.775842999923,None,y,773.775842999923,None,"['y', 'return']","[0.9502058000070974, 1.2465587999904528]",773.775842999923,None,,,92NB,001,2023_Sep_01_1251,ExactRep-v3-final,2021.2.3,59.38933512436155,
,,,,,,,,,,,,10,0,10,0,,,,,,,,,,,,,,,,,,,,,,,,,,,,,,,,,,,,,,,,,,,,,,,,,777.2617129000137,None,,,,,,,,,,,,,,,,,,,,,,,,,,,,,,,,,,,,,,,,,,,,,,,,,,,,,,,,,valley,50,11,silent,old,yellow,775.5833474999527,None,n,775.5833474999527,None,"['n', 'return']","[1.3985489999176934, 1.6386601999402046]",775.5833474999527,None,,,92NB,001,2023_Sep_01_1251,ExactRep-v3-final,2021.2.3,59.38933512436155,
,,,,,,,,,,,,11,0,11,0,,,,,,,,,,,,,,,,,,,,,,,,,,,,,,,,,,,,,,,,,,,,,,,,,779.8976768000284,None,,,,,,,,,,,,,,,,,,,,,,,,,,,,,,,,,,,,,,,,,,,,,,,,,,,,,,,,,insect,116,12,aloud,old,yellow,777.7779816000257,None,n,777.7779816000257,None,"['n', 'return']","[1.788085800013505, 2.076164400088601]",777.7779816000257,None,,,92NB,001,2023_Sep_01_1251,ExactRep-v3-final,2021.2.3,59.38933512436155,
,,,,,,,,,,,,12,0,12,0,,,,,,,,,,,,,,,,,,,,,,,,,,,,,,,,,,,,,,,,,,,,,,,,,782.0144318999955,None,,,,,,,,,,,,,,,,,,,,,,,,,,,,,,,,,,,,,,,,,,,,,,,,,,,,,,,,,charm,123,13,silent,new,yellow,780.4143488999689,None,n,780.4143488999689,None,"['n', 'return']","[1.2796421999810264, 1.5515684999991208]",780.4143488999689,None,,,92NB,001,2023_Sep_01_1251,ExactRep-v3-final,2021.2.3,59.38933512436155,
,,,,,,,,,,,,13,0,13,0,,,,,,,,,,,,,,,,,,,,,,,,,,,,,,,,,,,,,,,,,,,,,,,,,784.0514375999337,None,,,,,,,,,,,,,,,,,,,,,,,,,,,,,,,,,,,,,,,,,,,,,,,,,,,,,,,,,safety,2,14,sing,old,yellow,782.5202953999396,None,y,782.5202953999396,None,"['y', 'return']","[1.197684499900788, 1.4856082999613136]",782.5202953999396,None,,,92NB,001,2023_Sep_01_1251,ExactRep-v3-final,2021.2.3,59.38933512436155,
,,,,,,,,,,,,14,0,14,0,,,,,,,,,,,,,,,,,,,,,,,,,,,,,,,,,,,,,,,,,,,,,,,,,786.4374184999615,None,,,,,,,,,,,,,,,,,,,,,,,,,,,,,,,,,,,,,,,,,,,,,,,,,,,,,,,,,table,51,15,silent,old,yellow,784.5813114999328,None,n,784.5813114999328,None,"['n', 'return']","[1.5605590000050142, 1.8167160999728367]",784.5813114999328,None,,,92NB,001,2023_Sep_01_1251,ExactRep-v3-final,2021.2.3,59.38933512436155,
,,,,,,,,,,,,15,0,15,0,,,,,,,,,,,,,,,,,,,,,,,,,,,,,,,,,,,,,,,,,,,,,,,,,788.755943999975,None,,,,,,,,,,,,,,,,,,,,,,,,,,,,,,,,,,,,,,,,,,,,,,,,,,,,,,,,,present,41,16,silent,old,yellow,786.9443253999343,None,n,786.9443253999343,None,"['n', 'return']","[1.477723199990578, 1.76559460000135]",786.9443253999343,None,,,92NB,001,2023_Sep_01_1251,ExactRep-v3-final,2021.2.3,59.38933512436155,
,,,,,,,,,,,,16,0,16,0,,,,,,,,,,,,,,,,,,,,,,,,,,,,,,,,,,,,,,,,,,,,,,,,,791.4586288999999,None,,,,,,,,,,,,,,,,,,,,,,,,,,,,,,,,,,,,,,,,,,,,,,,,,,,,,,,,,moment,5,17,sing,old,yellow,789.2578392999712,None,n,789.2578392999712,None,"['n', 'return']","[1.8841508999466896, 2.156270599924028]",789.2578392999712,None,,,92NB,001,2023_Sep_01_1251,ExactRep-v3-final,2021.2.3,59.38933512436155,
,,,,,,,,,,,,17,0,17,0,,,,,,,,,,,,,,,,,,,,,,,,,,,,,,,,,,,,,,,,,,,,,,,,,793.61080819997,None,,,,,,,,,,,,,,,,,,,,,,,,,,,,,,,,,,,,,,,,,,,,,,,,,,,,,,,,,mind,64,18,silent,old,yellow,791.9597724999767,None,n,791.9597724999767,None,"['n', 'return']","[1.3583042999962345, 1.6144515000050887]",791.9597724999767,None,,,92NB,001,2023_Sep_01_1251,ExactRep-v3-final,2021.2.3,59.38933512436155,
,,,,,,,,,,,,18,0,18,0,,,,,,,,,,,,,,,,,,,,,,,,,,,,,,,,,,,,,,,,,,,,,,,,,795.7296240000287,None,,,,,,,,,,,,,,,,,,,,,,,,,,,,,,,,,,,,,,,,,,,,,,,,,,,,,,,,,flower,188,19,aloud,new,yellow,794.1291971999453,None,n,794.1291971999453,None,"['n', 'return']","[1.2766601999755949, 1.5649400000693277]",794.1291971999453,None,,,92NB,001,2023_Sep_01_1251,ExactRep-v3-final,2021.2.3,59.38933512436155,
,,,,,,,,,,,,19,0,19,0,,,,,,,,,,,,,,,,,,,,,,,,,,,,,,,,,,,,,,,,,,,,,,,,,797.6824121000245,None,,,,,,,,,,,,,,,,,,,,,,,,,,,,,,,,,,,,,,,,,,,,,,,,,,,,,,,,,door,230,20,aloud,new,yellow,796.2553201999981,None,y,796.2553201999981,None,"['y', 'return']","[1.1026723999530077, 1.3827457999577746]",796.2553201999981,None,,,92NB,001,2023_Sep_01_1251,ExactRep-v3-final,2021.2.3,59.38933512436155,
,,,,,,,,,,,,20,0,20,0,,,,,,,,,,,,,,,,,,,,,,,,,,,,,,,,,,,,,,,,,,,,,,,,,799.3836861000163,None,,,,,,,,,,,,,,,,,,,,,,,,,,,,,,,,,,,,,,,,,,,,,,,,,,,,,,,,,rod,140,21,silent,new,yellow,798.2142056999728,None,n,798.2142056999728,None,"['n', 'return']","[0.8477855999954045, 1.1357560000615194]",798.2142056999728,None,,,92NB,001,2023_Sep_01_1251,ExactRep-v3-final,2021.2.3,59.38933512436155,
,,,,,,,,,,,,21,0,21,0,,,,,,,,,,,,,,,,,,,,,,,,,,,,,,,,,,,,,,,,,,,,,,,,,801.6696620000293,None,,,,,,,,,,,,,,,,,,,,,,,,,,,,,,,,,,,,,,,,,,,,,,,,,,,,,,,,,butter,30,22,sing,old,yellow,799.8997350999853,None,n,799.8997350999853,None,"['n', 'return']","[1.458307099994272, 1.7302784000057727]",799.8997350999853,None,,,92NB,001,2023_Sep_01_1251,ExactRep-v3-final,2021.2.3,59.38933512436155,
,,,,,,,,,,,,22,0,22,0,,,,,,,,,,,,,,,,,,,,,,,,,,,,,,,,,,,,,,,,,,,,,,,,,804.8559286999516,None,,,,,,,,,,,,,,,,,,,,,,,,,,,,,,,,,,,,,,,,,,,,,,,,,,,,,,,,,advice,226,23,aloud,new,yellow,802.1870512999594,None,y,802.1870512999594,None,"['y', 'return']","[2.435022799996659, 2.634940900024958]",802.1870512999594,None,,,92NB,001,2023_Sep_01_1251,ExactRep-v3-final,2021.2.3,59.38933512436155,
,,,,,,,,,,,,23,0,23,0,,,,,,,,,,,,,,,,,,,,,,,,,,,,,,,,,,,,,,,,,,,,,,,,,807.05794530001,None,,,,,,,,,,,,,,,,,,,,,,,,,,,,,,,,,,,,,,,,,,,,,,,,,,,,,,,,,dream,143,24,silent,new,yellow,805.3733575999504,None,n,805.3733575999504,None,"['n', 'return']","[1.352580999955535, 1.6488015999784693]",805.3733575999504,None,,,92NB,001,2023_Sep_01_1251,ExactRep-v3-final,2021.2.3,59.38933512436155,
,,,,,,,,,,,,24,0,24,0,,,,,,,,,,,,,,,,,,,,,,,,,,,,,,,,,,,,,,,,,,,,,,,,,809.1769125999417,None,,,,,,,,,,,,,,,,,,,,,,,,,,,,,,,,,,,,,,,,,,,,,,,,,,,,,,,,,length,178,25,aloud,new,yellow,807.5749674999388,None,n,807.5749674999388,None,"['n', 'return']","[1.2470723000587896, 1.5670505999587476]",807.5749674999388,None,,,92NB,001,2023_Sep_01_1251,ExactRep-v3-final,2021.2.3,59.38933512436155,
,,,,,,,,,,,,25,0,25,0,,,,,,,,,,,,,,,,,,,,,,,,,,,,,,,,,,,,,,,,,,,,,,,,,811.228282499942,None,,,,,,,,,,,,,,,,,,,,,,,,,,,,,,,,,,,,,,,,,,,,,,,,,,,,,,,,,camp,204,26,aloud,new,yellow,809.694818799966,None,n,809.694818799966,None,"['n', 'return']","[1.1911342999665067, 1.49516940000467]",809.694818799966,None,,,92NB,001,2023_Sep_01_1251,ExactRep-v3-final,2021.2.3,59.38933512436155,
,,,,,,,,,,,,26,0,26,0,,,,,,,,,,,,,,,,,,,,,,,,,,,,,,,,,,,,,,,,,,,,,,,,,814.4156377000036,None,,,,,,,,,,,,,,,,,,,,,,,,,,,,,,,,,,,,,,,,,,,,,,,,,,,,,,,,,tree,121,27,silent,new,yellow,811.7429924999597,None,n,811.7429924999597,None,"['n', 'return']","[2.366856399923563, 2.638971999986097]",811.7429924999597,None,,,92NB,001,2023_Sep_01_1251,ExactRep-v3-final,2021.2.3,59.38933512436155,
,,,,,,,,,,,,27,0,27,0,,,,,,,,,,,,,,,,,,,,,,,,,,,,,,,,,,,,,,,,,,,,,,,,,817.2348901999649,None,,,,,,,,,,,,,,,,,,,,,,,,,,,,,,,,,,,,,,,,,,,,,,,,,,,,,,,,,colony,132,28,silent,new,yellow,814.935009400011,None,n,814.935009400011,None,"['n', 'return']","[1.9830069000599906, 2.263226700015366]",814.935009400011,None,,,92NB,001,2023_Sep_01_1251,ExactRep-v3-final,2021.2.3,59.38933512436155,
,,,,,,,,,,,,28,0,28,0,,,,,,,,,,,,,,,,,,,,,,,,,,,,,,,,,,,,,,,,,,,,,,,,,819.6538819000125,None,,,,,,,,,,,,,,,,,,,,,,,,,,,,,,,,,,,,,,,,,,,,,,,,,,,,,,,,,hope,46,29,silent,old,yellow,817.7521329999436,None,y,817.7521329999436,None,"['y', 'return']","[1.5662128999829292, 1.8538453000364825]",817.7521329999436,None,,,92NB,001,2023_Sep_01_1251,ExactRep-v3-final,2021.2.3,59.38933512436155,
,,,,,,,,,,,,29,0,29,0,,,,,,,,,,,,,,,,,,,,,,,,,,,,,,,,,,,,,,,,,,,,,,,,,821.4393917999696,None,,,,,,,,,,,,,,,,,,,,,,,,,,,,,,,,,,,,,,,,,,,,,,,,,,,,,,,,,child,165,30,sing,new,yellow,820.1715298999334,None,n,820.1715298999334,None,"['n', 'return']","[0.8986247000284493, 1.2264596000313759]",820.1715298999334,None,,,92NB,001,2023_Sep_01_1251,ExactRep-v3-final,2021.2.3,59.38933512436155,
,,,,,,,,,,,,30,0,30,0,,,,,,,,,,,,,,,,,,,,,,,,,,,,,,,,,,,,,,,,,,,,,,,,,823.2396047000075,None,,,,,,,,,,,,,,,,,,,,,,,,,,,,,,,,,,,,,,,,,,,,,,,,,,,,,,,,,car,125,31,silent,new,yellow,821.9567538999254,None,n,821.9567538999254,None,"['n', 'return']","[0.9211611000355333, 1.2412409000098705]",821.9567538999254,None,,,92NB,001,2023_Sep_01_1251,ExactRep-v3-final,2021.2.3,59.38933512436155,
,,,,,,,,,,,,31,0,31,0,,,,,,,,,,,,,,,,,,,,,,,,,,,,,,,,,,,,,,,,,,,,,,,,,825.5090764999622,None,,,,,,,,,,,,,,,,,,,,,,,,,,,,,,,,,,,,,,,,,,,,,,,,,,,,,,,,,cash,27,32,sing,old,yellow,823.7417199999327,None,n,823.7417199999327,None,"['n', 'return']","[1.4163687999825925, 1.7282503000460565]",823.7417199999327,None,,,92NB,001,2023_Sep_01_1251,ExactRep-v3-final,2021.2.3,59.38933512436155,
,,,,,,,,,,,,32,0,32,0,,,,,,,,,,,,,,,,,,,,,,,,,,,,,,,,,,,,,,,,,,,,,,,,,827.4117067999905,None,,,,,,,,,,,,,,,,,,,,,,,,,,,,,,,,,,,,,,,,,,,,,,,,,,,,,,,,,animal,145,33,silent,new,yellow,826.0119278000202,None,n,826.0119278000202,None,"['n', 'return']","[1.0739700000267476, 1.362362000043504]",826.0119278000202,None,,,92NB,001,2023_Sep_01_1251,ExactRep-v3-final,2021.2.3,59.38933512436155,
,,,,,,,,,,,,33,0,33,0,,,,,,,,,,,,,,,,,,,,,,,,,,,,,,,,,,,,,,,,,,,,,,,,,829.1627684999257,None,,,,,,,,,,,,,,,,,,,,,,,,,,,,,,,,,,,,,,,,,,,,,,,,,,,,,,,,,beast,195,34,sing,new,yellow,827.9276496999664,None,n,827.9276496999664,None,"['n', 'return']","[0.9023058000020683, 1.1986035000300035]",827.9276496999664,None,,,92NB,001,2023_Sep_01_1251,ExactRep-v3-final,2021.2.3,59.38933512436155,
,,,,,,,,,,,,34,0,34,0,,,,,,,,,,,,,,,,,,,,,,,,,,,,,,,,,,,,,,,,,,,,,,,,,830.9317642999813,None,,,,,,,,,,,,,,,,,,,,,,,,,,,,,,,,,,,,,,,,,,,,,,,,,,,,,,,,,board,173,35,sing,new,yellow,829.6647154999664,None,n,829.6647154999664,None,"['n', 'return']","[0.9092455999925733, 1.2211496999952942]",829.6647154999664,None,,,92NB,001,2023_Sep_01_1251,ExactRep-v3-final,2021.2.3,59.38933512436155,
,,,,,,,,,,,,35,0,35,0,,,,,,,,,,,,,,,,,,,,,,,,,,,,,,,,,,,,,,,,,,,,,,,,,832.6337490000296,None,,,,,,,,,,,,,,,,,,,,,,,,,,,,,,,,,,,,,,,,,,,,,,,,,,,,,,,,,sugar,237,36,sing,new,yellow,831.4489517000038,None,n,831.4489517000038,None,"['n', 'return']","[0.8370433999225497, 1.1492575999582186]",831.4489517000038,None,,,92NB,001,2023_Sep_01_1251,ExactRep-v3-final,2021.2.3,59.38933512436155,
,,,,,,,,,,,,36,0,36,0,,,,,,,,,,,,,,,,,,,,,,,,,,,,,,,,,,,,,,,,,,,,,,,,,835.2204785000067,None,,,,,,,,,,,,,,,,,,,,,,,,,,,,,,,,,,,,,,,,,,,,,,,,,,,,,,,,,flood,181,37,sing,new,yellow,833.1487776000286,None,n,833.1487776000286,None,"['n', 'return']","[1.7131773999426514, 2.025100199971348]",833.1487776000286,None,,,92NB,001,2023_Sep_01_1251,ExactRep-v3-final,2021.2.3,59.38933512436155,
,,,,,,,,,,,,37,0,37,0,,,,,,,,,,,,,,,,,,,,,,,,,,,,,,,,,,,,,,,,,,,,,,,,,836.8378494000062,None,,,,,,,,,,,,,,,,,,,,,,,,,,,,,,,,,,,,,,,,,,,,,,,,,,,,,,,,,ship,62,38,silent,old,yellow,835.7373042999534,None,y,835.7373042999534,None,"['y', 'return']","[0.7648526999400929, 1.0606995000271127]",835.7373042999534,None,,,92NB,001,2023_Sep_01_1251,ExactRep-v3-final,2021.2.3,59.38933512436155,
,,,,,,,,,,,,38,0,38,0,,,,,,,,,,,,,,,,,,,,,,,,,,,,,,,,,,,,,,,,,,,,,,,,,838.6060615999158,None,,,,,,,,,,,,,,,,,,,,,,,,,,,,,,,,,,,,,,,,,,,,,,,,,,,,,,,,,victory,227,39,sing,new,yellow,837.3557620999636,None,y,837.3557620999636,None,"['y', 'return']","[0.9306090000318363, 1.2102614999748766]",837.3557620999636,None,,,92NB,001,2023_Sep_01_1251,ExactRep-v3-final,2021.2.3,59.38933512436155,
,,,,,,,,,,,,39,0,39,0,,,,,,,,,,,,,,,,,,,,,,,,,,,,,,,,,,,,,,,,,,,,,,,,,840.2575049999868,None,,,,,,,,,,,,,,,,,,,,,,,,,,,,,,,,,,,,,,,,,,,,,,,,,,,,,,,,,breast,131,40,silent,new,yellow,839.1079508999828,None,n,839.1079508999828,None,"['n', 'return']","[0.8420055999886245, 1.1060696999775246]",839.1079508999828,None,,,92NB,001,2023_Sep_01_1251,ExactRep-v3-final,2021.2.3,59.38933512436155,
,,,,,,,,,,,,40,0,40,0,,,,,,,,,,,,,,,,,,,,,,,,,,,,,,,,,,,,,,,,,,,,,,,,,842.0076197999297,None,,,,,,,,,,,,,,,,,,,,,,,,,,,,,,,,,,,,,,,,,,,,,,,,,,,,,,,,,garden,12,41,sing,old,yellow,840.7594477999955,None,y,840.7594477999955,None,"['y', 'return']","[0.9105052000377327, 1.2146797000896186]",840.7594477999955,None,,,92NB,001,2023_Sep_01_1251,ExactRep-v3-final,2021.2.3,59.38933512436155,
,,,,,,,,,,,,41,0,41,0,,,,,,,,,,,,,,,,,,,,,,,,,,,,,,,,,,,,,,,,,,,,,,,,,843.8280156999826,None,,,,,,,,,,,,,,,,,,,,,,,,,,,,,,,,,,,,,,,,,,,,,,,,,,,,,,,,,weapon,157,42,silent,new,yellow,842.5135265999706,None,n,842.5135265999706,None,"['n', 'return']","[0.9644795000785962, 1.2683644000208005]",842.5135265999706,None,,,92NB,001,2023_Sep_01_1251,ExactRep-v3-final,2021.2.3,59.38933512436155,
,,,,,,,,,,,,42,0,42,0,,,,,,,,,,,,,,,,,,,,,,,,,,,,,,,,,,,,,,,,,,,,,,,,,845.6618702999549,None,,,,,,,,,,,,,,,,,,,,,,,,,,,,,,,,,,,,,,,,,,,,,,,,,,,,,,,,,excuse,215,43,sing,new,yellow,844.3474692999152,None,n,844.3474692999152,None,"['n', 'return']","[0.9544994999887422, 1.2746694000670686]",844.3474692999152,None,,,92NB,001,2023_Sep_01_1251,ExactRep-v3-final,2021.2.3,59.38933512436155,
,,,,,,,,,,,,43,0,43,0,,,,,,,,,,,,,,,,,,,,,,,,,,,,,,,,,,,,,,,,,,,,,,,,,847.7318218,None,,,,,,,,,,,,,,,,,,,,,,,,,,,,,,,,,,,,,,,,,,,,,,,,,,,,,,,,,amount,201,44,sing,new,yellow,846.1645752999466,None,n,846.1645752999466,None,"['n', 'return']","[1.217447999981232, 1.5213258999865502]",846.1645752999466,None,,,92NB,001,2023_Sep_01_1251,ExactRep-v3-final,2021.2.3,59.38933512436155,
,,,,,,,,,,,,44,0,44,0,,,,,,,,,,,,,,,,,,,,,,,,,,,,,,,,,,,,,,,,,,,,,,,,,850.2835673999507,None,,,,,,,,,,,,,,,,,,,,,,,,,,,,,,,,,,,,,,,,,,,,,,,,,,,,,,,,,library,3,45,sing,old,yellow,848.2386569000082,None,n,848.2386569000082,None,"['n', 'return']","[1.735394199960865, 2.0072977000381798]",848.2386569000082,None,,,92NB,001,2023_Sep_01_1251,ExactRep-v3-final,2021.2.3,59.38933512436155,
,,,,,,,,,,,,45,0,45,0,,,,,,,,,,,,,,,,,,,,,,,,,,,,,,,,,,,,,,,,,,,,,,,,,853.3704806999303,None,,,,,,,,,,,,,,,,,,,,,,,,,,,,,,,,,,,,,,,,,,,,,,,,,,,,,,,,,air,219,46,sing,new,yellow,850.7853176000062,None,n,850.7853176000062,None,"['n', 'return']","[2.236700400011614, 2.54890679998789]",850.7853176000062,None,,,92NB,001,2023_Sep_01_1251,ExactRep-v3-final,2021.2.3,59.38933512436155,
,,,,,,,,,,,,46,0,46,0,,,,,,,,,,,,,,,,,,,,,,,,,,,,,,,,,,,,,,,,,,,,,,,,,855.2899815000128,None,,,,,,,,,,,,,,,,,,,,,,,,,,,,,,,,,,,,,,,,,,,,,,,,,,,,,,,,,potato,150,47,silent,new,yellow,853.8728241999634,None,n,853.8728241999634,None,"['n', 'return']","[1.0531400999752805, 1.3732737000100315]",853.8728241999634,None,,,92NB,001,2023_Sep_01_1251,ExactRep-v3-final,2021.2.3,59.38933512436155,
,,,,,,,,,,,,47,0,47,0,,,,,,,,,,,,,,,,,,,,,,,,,,,,,,,,,,,,,,,,,,,,,,,,,857.4085581999971,None,,,,,,,,,,,,,,,,,,,,,,,,,,,,,,,,,,,,,,,,,,,,,,,,,,,,,,,,,girl,23,48,sing,old,yellow,855.8068088999717,None,y,855.8068088999717,None,"['y', 'return']","[1.2712067000102252, 1.5671020000008866]",855.8068088999717,None,,,92NB,001,2023_Sep_01_1251,ExactRep-v3-final,2021.2.3,59.38933512436155,
,,,,,,,,,,,,48,0,48,0,,,,,,,,,,,,,,,,,,,,,,,,,,,,,,,,,,,,,,,,,,,,,,,,,859.8113956999732,None,,,,,,,,,,,,,,,,,,,,,,,,,,,,,,,,,,,,,,,,,,,,,,,,,,,,,,,,,answer,77,49,silent,old,yellow,857.931028699968,None,y,857.931028699968,None,"['y', 'return']","[1.5149932000786066, 1.834926100098528]",857.931028699968,None,,,92NB,001,2023_Sep_01_1251,ExactRep-v3-final,2021.2.3,59.38933512436155,
,,,,,,,,,,,,49,0,49,0,,,,,,,,,,,,,,,,,,,,,,,,,,,,,,,,,,,,,,,,,,,,,,,,,861.5794824999757,None,,,,,,,,,,,,,,,,,,,,,,,,,,,,,,,,,,,,,,,,,,,,,,,,,,,,,,,,,stone,97,50,aloud,old,yellow,860.3378326999955,None,y,860.3378326999955,None,"['y', 'return']","[0.8281599000329152, 1.2046053999802098]",860.3378326999955,None,,,92NB,001,2023_Sep_01_1251,ExactRep-v3-final,2021.2.3,59.38933512436155,
,,,,,,,,,,,,50,0,50,0,,,,,,,,,,,,,,,,,,,,,,,,,,,,,,,,,,,,,,,,,,,,,,,,,863.5131871999474,None,,,,,,,,,,,,,,,,,,,,,,,,,,,,,,,,,,,,,,,,,,,,,,,,,,,,,,,,,fact,223,51,sing,new,yellow,862.096405099961,None,n,862.096405099961,None,"['n', 'return']","[1.0695370000321418, 1.3735158999916166]",862.096405099961,None,,,92NB,001,2023_Sep_01_1251,ExactRep-v3-final,2021.2.3,59.38933512436155,
,,,,,,,,,,,,51,0,51,0,,,,,,,,,,,,,,,,,,,,,,,,,,,,,,,,,,,,,,,,,,,,,,,,,866.2669193999609,None,,,,,,,,,,,,,,,,,,,,,,,,,,,,,,,,,,,,,,,,,,,,,,,,,,,,,,,,,wife,228,52,aloud,new,yellow,864.01535589993,None,n,864.01535589993,None,"['n', 'return']","[1.91865989996586, 2.2148313999641687]",864.01535589993,None,,,92NB,001,2023_Sep_01_1251,ExactRep-v3-final,2021.2.3,59.38933512436155,
,,,,,,,,,,,,52,0,52,0,,,,,,,,,,,,,,,,,,,,,,,,,,,,,,,,,,,,,,,,,,,,,,,,,868.8529362999834,None,,,,,,,,,,,,,,,,,,,,,,,,,,,,,,,,,,,,,,,,,,,,,,,,,,,,,,,,,spirit,169,53,sing,new,yellow,866.7689270999981,None,n,866.7689270999981,None,"['n', 'return']","[1.725016999989748, 2.045061800046824]",866.7689270999981,None,,,92NB,001,2023_Sep_01_1251,ExactRep-v3-final,2021.2.3,59.38933512436155,
,,,,,,,,,,,,53,0,53,0,,,,,,,,,,,,,,,,,,,,,,,,,,,,,,,,,,,,,,,,,,,,,,,,,870.7714410999324,None,,,,,,,,,,,,,,,,,,,,,,,,,,,,,,,,,,,,,,,,,,,,,,,,,,,,,,,,,meeting,174,54,aloud,new,yellow,869.3704815999372,None,n,869.3704815999372,None,"['n', 'return']","[1.0114695000229403, 1.3635378000326455]",869.3704815999372,None,,,92NB,001,2023_Sep_01_1251,ExactRep-v3-final,2021.2.3,59.38933512436155,
,,,,,,,,,,,,54,0,54,0,,,,,,,,,,,,,,,,,,,,,,,,,,,,,,,,,,,,,,,,,,,,,,,,,873.6735025999369,None,,,,,,,,,,,,,,,,,,,,,,,,,,,,,,,,,,,,,,,,,,,,,,,,,,,,,,,,,science,127,55,silent,new,yellow,871.2893152999459,None,y,871.2893152999459,None,"['y', 'return']","[2.1005932999541983, 2.3408154000062495]",871.2893152999459,None,,,92NB,001,2023_Sep_01_1251,ExactRep-v3-final,2021.2.3,59.38933512436155,
,,,,,,,,,,,,55,0,55,0,,,,,,,,,,,,,,,,,,,,,,,,,,,,,,,,,,,,,,,,,,,,,,,,,875.4765989999287,None,,,,,,,,,,,,,,,,,,,,,,,,,,,,,,,,,,,,,,,,,,,,,,,,,,,,,,,,,hall,126,56,silent,new,yellow,874.1754893999314,None,n,874.1754893999314,None,"['n', 'return']","[0.9264626000076532, 1.26249730004929]",874.1754893999314,None,,,92NB,001,2023_Sep_01_1251,ExactRep-v3-final,2021.2.3,59.38933512436155,
,,,,,,,,,,,,56,0,56,0,,,,,,,,,,,,,,,,,,,,,,,,,,,,,,,,,,,,,,,,,,,,,,,,,877.4449906999944,None,,,,,,,,,,,,,,,,,,,,,,,,,,,,,,,,,,,,,,,,,,,,,,,,,,,,,,,,,chair,114,57,aloud,old,yellow,875.9935128999641,None,y,875.9935128999641,None,"['y', 'return']","[1.1005163999507204, 1.4044658999191597]",875.9935128999641,None,,,92NB,001,2023_Sep_01_1251,ExactRep-v3-final,2021.2.3,59.38933512436155,
,,,,,,,,,,,,57,0,57,0,,,,,,,,,,,,,,,,,,,,,,,,,,,,,,,,,,,,,,,,,,,,,,,,,880.0640708999708,None,,,,,,,,,,,,,,,,,,,,,,,,,,,,,,,,,,,,,,,,,,,,,,,,,,,,,,,,,power,138,58,silent,new,yellow,877.9625650999369,None,y,877.9625650999369,None,"['y', 'return']","[1.7794488000217825, 2.0594325000420213]",877.9625650999369,None,,,92NB,001,2023_Sep_01_1251,ExactRep-v3-final,2021.2.3,59.38933512436155,
,,,,,,,,,,,,58,0,58,0,,,,,,,,,,,,,,,,,,,,,,,,,,,,,,,,,,,,,,,,,,,,,,,,,881.7985543999821,None,,,,,,,,,,,,,,,,,,,,,,,,,,,,,,,,,,,,,,,,,,,,,,,,,,,,,,,,,book,37,59,sing,old,yellow,880.5654188999906,None,n,880.5654188999906,None,"['n', 'return']","[0.8245283000869676, 1.1845660000108182]",880.5654188999906,None,,,92NB,001,2023_Sep_01_1251,ExactRep-v3-final,2021.2.3,59.38933512436155,
,,,,,,,,,,,,59,0,59,0,,,,,,,,,,,,,,,,,,,,,,,,,,,,,,,,,,,,,,,,,,,,,,,,,884.8200493999757,None,,,,,,,,,,,,,,,,,,,,,,,,,,,,,,,,,,,,,,,,,,,,,,,,,,,,,,,,,author,207,60,sing,new,yellow,882.3009671999607,None,n,882.3009671999607,None,"['n', 'return']","[2.2009696000022814, 2.473142599919811]",882.3009671999607,None,,,92NB,001,2023_Sep_01_1251,ExactRep-v3-final,2021.2.3,59.38933512436155,
,,,,,,,,,,,,60,0,60,0,,,,,,,,,,,,,,,,,,,,,,,,,,,,,,,,,,,,,,,,,,,,,,,,,886.5877192999469,None,,,,,,,,,,,,,,,,,,,,,,,,,,,,,,,,,,,,,,,,,,,,,,,,,,,,,,,,,fun,99,61,aloud,old,yellow,885.3359348999802,None,n,885.3359348999802,None,"['n', 'return']","[0.8940090999240056, 1.205952599993907]",885.3359348999802,None,,,92NB,001,2023_Sep_01_1251,ExactRep-v3-final,2021.2.3,59.38933512436155,
,,,,,,,,,,,,61,0,61,0,,,,,,,,,,,,,,,,,,,,,,,,,,,,,,,,,,,,,,,,,,,,,,,,,888.3215165999718,None,,,,,,,,,,,,,,,,,,,,,,,,,,,,,,,,,,,,,,,,,,,,,,,,,,,,,,,,,dust,74,62,silent,old,yellow,887.1047451000195,None,n,887.1047451000195,None,"['n', 'return']","[0.8211417000275105, 1.1732541000237688]",887.1047451000195,None,,,92NB,001,2023_Sep_01_1251,ExactRep-v3-final,2021.2.3,59.38933512436155,
,,,,,,,,,,,,62,0,62,0,,,,,,,,,,,,,,,,,,,,,,,,,,,,,,,,,,,,,,,,,,,,,,,,,890.2409709999338,None,,,,,,,,,,,,,,,,,,,,,,,,,,,,,,,,,,,,,,,,,,,,,,,,,,,,,,,,,sky,102,63,aloud,old,yellow,888.823461699998,None,n,888.823461699998,None,"['n', 'return']","[1.030612500035204, 1.3825659999856725]",888.823461699998,None,,,92NB,001,2023_Sep_01_1251,ExactRep-v3-final,2021.2.3,59.38933512436155,
,,,,,,,,,,,,63,0,63,0,,,,,,,,,,,,,,,,,,,,,,,,,,,,,,,,,,,,,,,,,,,,,,,,,892.8590132999234,None,,,,,,,,,,,,,,,,,,,,,,,,,,,,,,,,,,,,,,,,,,,,,,,,,,,,,,,,,grief,93,64,aloud,old,yellow,890.7604499999434,None,y,890.7604499999434,None,"['y', 'return']","[1.7334717999910936, 2.0615404000272974]",890.7604499999434,None,,,92NB,001,2023_Sep_01_1251,ExactRep-v3-final,2021.2.3,59.38933512436155,
,,,,,,,,,,,,64,0,64,0,,,,,,,,,,,,,,,,,,,,,,,,,,,,,,,,,,,,,,,,,,,,,,,,,894.5624431999167,None,,,,,,,,,,,,,,,,,,,,,,,,,,,,,,,,,,,,,,,,,,,,,,,,,,,,,,,,,wheat,200,65,aloud,new,yellow,893.3683531000279,None,n,893.3683531000279,None,"['n', 'return']","[0.7897794001037255, 1.1495589000405744]",893.3683531000279,None,,,92NB,001,2023_Sep_01_1251,ExactRep-v3-final,2021.2.3,59.38933512436155,
,,,,,,,,,,,,65,0,65,0,,,,,,,,,,,,,,,,,,,,,,,,,,,,,,,,,,,,,,,,,,,,,,,,,896.5474096999969,None,,,,,,,,,,,,,,,,,,,,,,,,,,,,,,,,,,,,,,,,,,,,,,,,,,,,,,,,,soul,235,66,sing,new,yellow,895.090171799995,None,n,895.090171799995,None,"['n', 'return']","[1.1237754999892786, 1.4117279999190941]",895.090171799995,None,,,92NB,001,2023_Sep_01_1251,ExactRep-v3-final,2021.2.3,59.38933512436155,
,,,,,,,,,,,,66,0,66,0,,,,,,,,,,,,,,,,,,,,,,,,,,,,,,,,,,,,,,,,,,,,,,,,,898.2490489999764,None,,,,,,,,,,,,,,,,,,,,,,,,,,,,,,,,,,,,,,,,,,,,,,,,,,,,,,,,,vessel,19,67,sing,old,yellow,897.0647070999257,None,y,897.0647070999257,None,"['y', 'return']","[0.7653627999825403, 1.1494453999912366]",897.0647070999257,None,,,92NB,001,2023_Sep_01_1251,ExactRep-v3-final,2021.2.3,59.38933512436155,
,,,,,,,,,,,,67,0,67,0,,,,,,,,,,,,,,,,,,,,,,,,,,,,,,,,,,,,,,,,,,,,,,,,,900.634673899971,None,,,,,,,,,,,,,,,,,,,,,,,,,,,,,,,,,,,,,,,,,,,,,,,,,,,,,,,,,origin,32,68,sing,old,yellow,898.7507683000294,None,y,898.7507683000294,None,"['y', 'return']","[1.5591698000207543, 1.8474297999637201]",898.7507683000294,None,,,92NB,001,2023_Sep_01_1251,ExactRep-v3-final,2021.2.3,59.38933512436155,
,,,,,,,,,,,,68,0,68,0,,,,,,,,,,,,,,,,,,,,,,,,,,,,,,,,,,,,,,,,,,,,,,,,,902.4188577999594,None,,,,,,,,,,,,,,,,,,,,,,,,,,,,,,,,,,,,,,,,,,,,,,,,,,,,,,,,,journal,162,69,aloud,new,yellow,901.1520901999902,None,n,901.1520901999902,None,"['n', 'return']","[0.8937806999310851, 1.2297808999428526]",901.1520901999902,None,,,92NB,001,2023_Sep_01_1251,ExactRep-v3-final,2021.2.3,59.38933512436155,
,,,,,,,,,,,,69,0,69,0,,,,,,,,,,,,,,,,,,,,,,,,,,,,,,,,,,,,,,,,,,,,,,,,,905.0397576999385,None,,,,,,,,,,,,,,,,,,,,,,,,,,,,,,,,,,,,,,,,,,,,,,,,,,,,,,,,,pride,110,70,aloud,old,yellow,902.9218476000242,None,n,902.9218476000242,None,"['n', 'return']","[1.7963463000487536, 2.084095200058073]",902.9218476000242,None,,,92NB,001,2023_Sep_01_1251,ExactRep-v3-final,2021.2.3,59.38933512436155,
,,,,,,,,,,,,70,0,70,0,,,,,,,,,,,,,,,,,,,,,,,,,,,,,,,,,,,,,,,,,,,,,,,,,907.2573705000104,None,,,,,,,,,,,,,,,,,,,,,,,,,,,,,,,,,,,,,,,,,,,,,,,,,,,,,,,,,bowl,198,71,aloud,new,yellow,905.5552075000014,None,n,905.5552075000014,None,"['n', 'return']","[1.370722199906595, 1.6668718999717385]",905.5552075000014,None,,,92NB,001,2023_Sep_01_1251,ExactRep-v3-final,2021.2.3,59.38933512436155,
,,,,,,,,,,,,71,0,71,0,,,,,,,,,,,,,,,,,,,,,,,,,,,,,,,,,,,,,,,,,,,,,,,,,909.0766737000085,None,,,,,,,,,,,,,,,,,,,,,,,,,,,,,,,,,,,,,,,,,,,,,,,,,,,,,,,,,diamond,39,72,silent,old,yellow,907.7591220999602,None,n,907.7591220999602,None,"['n', 'return']","[0.9588784999214113, 1.2789074999745935]",907.7591220999602,None,,,92NB,001,2023_Sep_01_1251,ExactRep-v3-final,2021.2.3,59.38933512436155,
,,,,,,,,,,,,72,0,72,0,,,,,,,,,,,,,,,,,,,,,,,,,,,,,,,,,,,,,,,,,,,,,,,,,911.3615679999348,None,,,,,,,,,,,,,,,,,,,,,,,,,,,,,,,,,,,,,,,,,,,,,,,,,,,,,,,,,justice,95,73,aloud,old,yellow,909.5943256999599,None,y,909.5943256999599,None,"['y', 'return']","[1.4196079999674112, 1.72372639994137]",909.5943256999599,None,,,92NB,001,2023_Sep_01_1251,ExactRep-v3-final,2021.2.3,59.38933512436155,
,,,,,,,,,,,,73,0,73,0,,,,,,,,,,,,,,,,,,,,,,,,,,,,,,,,,,,,,,,,,,,,,,,,,913.0469394000247,None,,,,,,,,,,,,,,,,,,,,,,,,,,,,,,,,,,,,,,,,,,,,,,,,,,,,,,,,,brain,148,74,silent,new,yellow,911.8632405999815,None,n,911.8632405999815,None,"['n', 'return']","[0.8386561999795958, 1.1506988999899477]",911.8632405999815,None,,,92NB,001,2023_Sep_01_1251,ExactRep-v3-final,2021.2.3,59.38933512436155,
,,,,,,,,,,,,74,0,74,0,,,,,,,,,,,,,,,,,,,,,,,,,,,,,,,,,,,,,,,,,,,,,,,,,914.9489016999723,None,,,,,,,,,,,,,,,,,,,,,,,,,,,,,,,,,,,,,,,,,,,,,,,,,,,,,,,,,hour,133,75,silent,new,yellow,913.5627032999182,None,n,913.5627032999182,None,"['n', 'return']","[1.0272291000001132, 1.3473133000079542]",913.5627032999182,None,,,92NB,001,2023_Sep_01_1251,ExactRep-v3-final,2021.2.3,59.38933512436155,
,,,,,,,,,,,,75,0,75,0,,,,,,,,,,,,,,,,,,,,,,,,,,,,,,,,,,,,,,,,,,,,,,,,,916.8509539000224,None,,,,,,,,,,,,,,,,,,,,,,,,,,,,,,,,,,,,,,,,,,,,,,,,,,,,,,,,,chance,144,76,silent,new,yellow,915.4666803999571,None,n,915.4666803999571,None,"['n', 'return']","[0.9953304999507964, 1.3474602999631315]",915.4666803999571,None,,,92NB,001,2023_Sep_01_1251,ExactRep-v3-final,2021.2.3,59.38933512436155,
,,,,,,,,,,,,76,0,76,0,,,,,,,,,,,,,,,,,,,,,,,,,,,,,,,,,,,,,,,,,,,,,,,,,918.7185790999793,None,,,,,,,,,,,,,,,,,,,,,,,,,,,,,,,,,,,,,,,,,,,,,,,,,,,,,,,,,woman,80,77,aloud,old,yellow,917.3688689999981,None,y,917.3688689999981,None,"['y', 'return']","[1.0210025000851601, 1.3010976000223309]",917.3688689999981,None,,,92NB,001,2023_Sep_01_1251,ExactRep-v3-final,2021.2.3,59.38933512436155,
,,,,,,,,,,,,77,0,77,0,,,,,,,,,,,,,,,,,,,,,,,,,,,,,,,,,,,,,,,,,,,,,,,,,920.4710254999809,None,,,,,,,,,,,,,,,,,,,,,,,,,,,,,,,,,,,,,,,,,,,,,,,,,,,,,,,,,winter,104,78,aloud,old,yellow,919.2289619999938,None,y,919.2289619999938,None,"['y', 'return']","[0.8651135999243706, 1.2009926999453455]",919.2289619999938,None,,,92NB,001,2023_Sep_01_1251,ExactRep-v3-final,2021.2.3,59.38933512436155,
,,,,,,,,,,,,78,0,78,0,,,,,,,,,,,,,,,,,,,,,,,,,,,,,,,,,,,,,,,,,,,,,,,,,922.23954650003,None,,,,,,,,,,,,,,,,,,,,,,,,,,,,,,,,,,,,,,,,,,,,,,,,,,,,,,,,,coffee,158,79,silent,new,yellow,920.987901299959,None,n,920.987901299959,None,"['n', 'return']","[0.8900059999432415, 1.2180637000128627]",920.987901299959,None,,,92NB,001,2023_Sep_01_1251,ExactRep-v3-final,2021.2.3,59.38933512436155,
,,,,,,,,,,,,79,0,79,0,,,,,,,,,,,,,,,,,,,,,,,,,,,,,,,,,,,,,,,,,,,,,,,,,923.8965452000266,None,,,,,,,,,,,,,,,,,,,,,,,,,,,,,,,,,,,,,,,,,,,,,,,,,,,,,,,,,metal,29,80,sing,old,yellow,922.7660188999726,None,n,922.7660188999726,None,"['n', 'return']","[0.7438892000354826, 1.0879412000067532]",922.7660188999726,None,,,92NB,001,2023_Sep_01_1251,ExactRep-v3-final,2021.2.3,59.38933512436155,
,,,,,,,,,,,,80,0,80,0,,,,,,,,,,,,,,,,,,,,,,,,,,,,,,,,,,,,,,,,,,,,,,,,,925.5597053000238,None,,,,,,,,,,,,,,,,,,,,,,,,,,,,,,,,,,,,,,,,,,,,,,,,,,,,,,,,,salary,218,81,aloud,new,yellow,924.4092524999287,None,n,924.4092524999287,None,"['n', 'return']","[0.7167099999496713, 1.1166596000548452]",924.4092524999287,None,,,92NB,001,2023_Sep_01_1251,ExactRep-v3-final,2021.2.3,59.38933512436155,
,,,,,,,,,,,,81,0,81,0,,,,,,,,,,,,,,,,,,,,,,,,,,,,,,,,,,,,,,,,,,,,,,,,,927.4461386000039,None,,,,,,,,,,,,,,,,,,,,,,,,,,,,,,,,,,,,,,,,,,,,,,,,,,,,,,,,,avenue,119,82,aloud,old,yellow,926.077669100021,None,y,926.077669100021,None,"['y', 'return']","[0.9922407999401912, 1.3282510000281036]",926.077669100021,None,,,92NB,001,2023_Sep_01_1251,ExactRep-v3-final,2021.2.3,59.38933512436155,
,,,,,,,,,,,,82,0,82,0,,,,,,,,,,,,,,,,,,,,,,,,,,,,,,,,,,,,,,,,,,,,,,,,,929.9805248000193,None,,,,,,,,,,,,,,,,,,,,,,,,,,,,,,,,,,,,,,,,,,,,,,,,,,,,,,,,,slave,107,83,aloud,old,yellow,927.962503299932,None,y,927.962503299932,None,"['y', 'return']","[1.7233951999805868, 1.979448699974455]",927.962503299932,None,,,92NB,001,2023_Sep_01_1251,ExactRep-v3-final,2021.2.3,59.38933512436155,
,,,,,,,,,,,,83,0,83,0,,,,,,,,,,,,,,,,,,,,,,,,,,,,,,,,,,,,,,,,,,,,,,,,,931.8995656999759,None,,,,,,,,,,,,,,,,,,,,,,,,,,,,,,,,,,,,,,,,,,,,,,,,,,,,,,,,,river,28,84,sing,old,yellow,930.5146073999349,None,y,930.5146073999349,None,"['y', 'return']","[1.0592899000039324, 1.3392532999860123]",930.5146073999349,None,,,92NB,001,2023_Sep_01_1251,ExactRep-v3-final,2021.2.3,59.38933512436155,
,,,,,,,,,,,,84,0,84,0,,,,,,,,,,,,,,,,,,,,,,,,,,,,,,,,,,,,,,,,,,,,,,,,,933.7017196000088,None,,,,,,,,,,,,,,,,,,,,,,,,,,,,,,,,,,,,,,,,,,,,,,,,,,,,,,,,,speech,43,85,silent,old,yellow,932.4281757000135,None,n,932.4281757000135,None,"['n', 'return']","[0.9138205000199378, 1.2257755999453366]",932.4281757000135,None,,,92NB,001,2023_Sep_01_1251,ExactRep-v3-final,2021.2.3,59.38933512436155,
,,,,,,,,,,,,85,0,85,0,,,,,,,,,,,,,,,,,,,,,,,,,,,,,,,,,,,,,,,,,,,,,,,,,935.6699658000143,None,,,,,,,,,,,,,,,,,,,,,,,,,,,,,,,,,,,,,,,,,,,,,,,,,,,,,,,,,street,166,86,aloud,new,yellow,934.2348139999667,None,y,934.2348139999667,None,"['y', 'return']","[1.099397600046359, 1.395143400062807]",934.2348139999667,None,,,92NB,001,2023_Sep_01_1251,ExactRep-v3-final,2021.2.3,59.38933512436155,
,,,,,,,,,,,,86,0,86,0,,,,,,,,,,,,,,,,,,,,,,,,,,,,,,,,,,,,,,,,,,,,,,,,,937.3547872999916,None,,,,,,,,,,,,,,,,,,,,,,,,,,,,,,,,,,,,,,,,,,,,,,,,,,,,,,,,,event,185,87,sing,new,yellow,936.187441600021,None,n,936.187441600021,None,"['n', 'return']","[0.7784024000866339, 1.1225316000636667]",936.187441600021,None,,,92NB,001,2023_Sep_01_1251,ExactRep-v3-final,2021.2.3,59.38933512436155,
,,,,,,,,,,,,87,0,87,0,,,,,,,,,,,,,,,,,,,,,,,,,,,,,,,,,,,,,,,,,,,,,,,,,939.1234977999702,None,,,,,,,,,,,,,,,,,,,,,,,,,,,,,,,,,,,,,,,,,,,,,,,,,,,,,,,,,master,217,88,sing,new,yellow,937.872304599965,None,n,937.872304599965,None,"['n', 'return']","[0.8055954999290407, 1.2057729000225663]",937.872304599965,None,,,92NB,001,2023_Sep_01_1251,ExactRep-v3-final,2021.2.3,59.38933512436155,
,,,,,,,,,,,,88,0,88,0,,,,,,,,,,,,,,,,,,,,,,,,,,,,,,,,,,,,,,,,,,,,,,,,,941.1585952999303,None,,,,,,,,,,,,,,,,,,,,,,,,,,,,,,,,,,,,,,,,,,,,,,,,,,,,,,,,,picture,61,89,silent,old,yellow,939.6414733999409,None,n,939.6414733999409,None,"['n', 'return']","[1.1405093999346718, 1.4764810999622568]",939.6414733999409,None,,,92NB,001,2023_Sep_01_1251,ExactRep-v3-final,2021.2.3,59.38933512436155,
,,,,,,,,,,,,89,0,89,0,,,,,,,,,,,,,,,,,,,,,,,,,,,,,,,,,,,,,,,,,,,,,,,,,943.6275483999634,None,,,,,,,,,,,,,,,,,,,,,,,,,,,,,,,,,,,,,,,,,,,,,,,,,,,,,,,,,officer,21,90,sing,old,yellow,941.6759225999704,None,y,941.6759225999704,None,"['y', 'return']","[1.569990499992855, 1.9059354999335483]",941.6759225999704,None,,,92NB,001,2023_Sep_01_1251,ExactRep-v3-final,2021.2.3,59.38933512436155,
,,,,,,,,,,,,90,0,90,0,,,,,,,,,,,,,,,,,,,,,,,,,,,,,,,,,,,,,,,,,,,,,,,,,945.294950600015,None,,,,,,,,,,,,,,,,,,,,,,,,,,,,,,,,,,,,,,,,,,,,,,,,,,,,,,,,,sea,17,91,sing,old,yellow,944.1388389000203,None,y,944.1388389000203,None,"['y', 'return']","[0.7950557000003755, 1.1152219000505283]",944.1388389000203,None,,,92NB,001,2023_Sep_01_1251,ExactRep-v3-final,2021.2.3,59.38933512436155,
,,,,,,,,,,,,91,0,91,0,,,,,,,,,,,,,,,,,,,,,,,,,,,,,,,,,,,,,,,,,,,,,,,,,947.0814929999178,None,,,,,,,,,,,,,,,,,,,,,,,,,,,,,,,,,,,,,,,,,,,,,,,,,,,,,,,,,fur,47,92,silent,old,yellow,945.7972712999908,None,n,945.7972712999908,None,"['n', 'return']","[0.9206108000362292, 1.2407463000854477]",945.7972712999908,None,,,92NB,001,2023_Sep_01_1251,ExactRep-v3-final,2021.2.3,59.38933512436155,
,,,,,,,,,,,,92,0,92,0,,,,,,,,,,,,,,,,,,,,,,,,,,,,,,,,,,,,,,,,,,,,,,,,,949.5835224000039,None,,,,,,,,,,,,,,,,,,,,,,,,,,,,,,,,,,,,,,,,,,,,,,,,,,,,,,,,,machine,49,93,silent,old,yellow,947.5987438999582,None,y,947.5987438999582,None,"['y', 'return']","[1.6071907000150532, 1.9352468999568373]",947.5987438999582,None,,,92NB,001,2023_Sep_01_1251,ExactRep-v3-final,2021.2.3,59.38933512436155,
,,,,,,,,,,,,93,0,93,0,,,,,,,,,,,,,,,,,,,,,,,,,,,,,,,,,,,,,,,,,,,,,,,,,952.0358556000283,None,,,,,,,,,,,,,,,,,,,,,,,,,,,,,,,,,,,,,,,,,,,,,,,,,,,,,,,,,poet,113,94,aloud,old,yellow,950.1009087000275,None,n,950.1009087000275,None,"['n', 'return']","[1.6090039000846446, 1.8890165999764577]",950.1009087000275,None,,,92NB,001,2023_Sep_01_1251,ExactRep-v3-final,2021.2.3,59.38933512436155,
,,,,,,,,,,,,94,0,94,0,,,,,,,,,,,,,,,,,,,,,,,,,,,,,,,,,,,,,,,,,,,,,,,,,953.7540079000173,None,,,,,,,,,,,,,,,,,,,,,,,,,,,,,,,,,,,,,,,,,,,,,,,,,,,,,,,,,cattle,153,95,silent,new,yellow,952.5378310999367,None,n,952.5378310999367,None,"['n', 'return']","[0.835989800048992, 1.1721503000007942]",952.5378310999367,None,,,92NB,001,2023_Sep_01_1251,ExactRep-v3-final,2021.2.3,59.38933512436155,
,,,,,,,,,,,,95,0,95,0,,,,,,,,,,,,,,,,,,,,,,,,,,,,,,,,,,,,,,,,,,,,,,,,,955.7738301999634,None,,,,,,,,,,,,,,,,,,,,,,,,,,,,,,,,,,,,,,,,,,,,,,,,,,,,,,,,,honour,89,96,aloud,old,yellow,954.2560778999468,None,y,954.2560778999468,None,"['y', 'return']","[1.1818833999568596, 1.4698533000191674]",954.2560778999468,None,,,92NB,001,2023_Sep_01_1251,ExactRep-v3-final,2021.2.3,59.38933512436155,
,,,,,,,,,,,,96,0,96,0,,,,,,,,,,,,,,,,,,,,,,,,,,,,,,,,,,,,,,,,,,,,,,,,,957.4758808999322,None,,,,,,,,,,,,,,,,,,,,,,,,,,,,,,,,,,,,,,,,,,,,,,,,,,,,,,,,,shame,214,97,aloud,new,yellow,956.2906568999169,None,n,956.2906568999169,None,"['n', 'return']","[0.8112690000561997, 1.139257900067605]",956.2906568999169,None,,,92NB,001,2023_Sep_01_1251,ExactRep-v3-final,2021.2.3,59.38933512436155,
,,,,,,,,,,,,97,0,97,0,,,,,,,,,,,,,,,,,,,,,,,,,,,,,,,,,,,,,,,,,,,,,,,,,959.2420757999644,None,,,,,,,,,,,,,,,,,,,,,,,,,,,,,,,,,,,,,,,,,,,,,,,,,,,,,,,,,apple,196,98,aloud,new,yellow,957.9927675999934,None,n,957.9927675999934,None,"['n', 'return']","[0.8691423999844119, 1.2052631999831647]",957.9927675999934,None,,,92NB,001,2023_Sep_01_1251,ExactRep-v3-final,2021.2.3,59.38933512436155,
,,,,,,,,,,,,98,0,98,0,,,,,,,,,,,,,,,,,,,,,,,,,,,,,,,,,,,,,,,,,,,,,,,,,960.9450359999901,None,,,,,,,,,,,,,,,,,,,,,,,,,,,,,,,,,,,,,,,,,,,,,,,,,,,,,,,,,hotel,229,99,sing,new,yellow,959.7448789000046,None,n,959.7448789000046,None,"['n', 'return']","[0.8293991000391543, 1.1653389000566676]",959.7448789000046,None,,,92NB,001,2023_Sep_01_1251,ExactRep-v3-final,2021.2.3,59.38933512436155,
,,,,,,,,,,,,99,0,99,0,,,,,,,,,,,,,,,,,,,,,,,,,,,,,,,,,,,,,,,,,,,,,,,,,962.8290208999533,None,,,,,,,,,,,,,,,,,,,,,,,,,,,,,,,,,,,,,,,,,,,,,,,,,,,,,,,,,devil,111,100,aloud,old,yellow,961.4627820999594,None,n,961.4627820999594,None,"['n', 'return']","[0.8951131999492645, 1.3271337000187486]",961.4627820999594,None,,,92NB,001,2023_Sep_01_1251,ExactRep-v3-final,2021.2.3,59.38933512436155,
,,,,,,,,,,,,100,0,100,0,,,,,,,,,,,,,,,,,,,,,,,,,,,,,,,,,,,,,,,,,,,,,,,,,964.3154449999565,None,,,,,,,,,,,,,,,,,,,,,,,,,,,,,,,,,,,,,,,,,,,,,,,,,,,,,,,,,chief,211,101,sing,new,yellow,963.3377182999393,None,n,963.3377182999393,None,"['n', 'return']","[0.6042929000686854, 0.9321575000649318]",963.3377182999393,None,,,92NB,001,2023_Sep_01_1251,ExactRep-v3-final,2021.2.3,59.38933512436155,
,,,,,,,,,,,,101,0,101,0,,,,,,,,,,,,,,,,,,,,,,,,,,,,,,,,,,,,,,,,,,,,,,,,,966.3169496000046,None,,,,,,,,,,,,,,,,,,,,,,,,,,,,,,,,,,,,,,,,,,,,,,,,,,,,,,,,,money,65,102,silent,old,yellow,964.8329622999299,None,n,964.8329622999299,None,"['n', 'return']","[1.165176899987273, 1.4450421000365168]",964.8329622999299,None,,,92NB,001,2023_Sep_01_1251,ExactRep-v3-final,2021.2.3,59.38933512436155,
,,,,,,,,,,,,102,0,102,0,,,,,,,,,,,,,,,,,,,,,,,,,,,,,,,,,,,,,,,,,,,,,,,,,967.985543299932,None,,,,,,,,,,,,,,,,,,,,,,,,,,,,,,,,,,,,,,,,,,,,,,,,,,,,,,,,,earth,183,103,sing,new,yellow,966.8186807999155,None,n,966.8186807999155,None,"['n', 'return']","[0.7871739000547677, 1.1314567000372335]",966.8186807999155,None,,,92NB,001,2023_Sep_01_1251,ExactRep-v3-final,2021.2.3,59.38933512436155,
,,,,,,,,,,,,103,0,103,0,,,,,,,,,,,,,,,,,,,,,,,,,,,,,,,,,,,,,,,,,,,,,,,,,969.6205036999891,None,,,,,,,,,,,,,,,,,,,,,,,,,,,,,,,,,,,,,,,,,,,,,,,,,,,,,,,,,silence,52,104,silent,old,yellow,968.503822300001,None,n,968.503822300001,None,"['n', 'return']","[0.7423065000912175, 1.0701606000075117]",968.503822300001,None,,,92NB,001,2023_Sep_01_1251,ExactRep-v3-final,2021.2.3,59.38933512436155,
,,,,,,,,,,,,104,0,104,0,,,,,,,,,,,,,,,,,,,,,,,,,,,,,,,,,,,,,,,,,,,,,,,,,971.3555680999998,None,,,,,,,,,,,,,,,,,,,,,,,,,,,,,,,,,,,,,,,,,,,,,,,,,,,,,,,,,bird,161,105,sing,new,yellow,970.1376499999315,None,n,970.1376499999315,None,"['n', 'return']","[0.860261800000444, 1.1721945999888703]",970.1376499999315,None,,,92NB,001,2023_Sep_01_1251,ExactRep-v3-final,2021.2.3,59.38933512436155,
,,,,,,,,,,,,105,0,105,0,,,,,,,,,,,,,,,,,,,,,,,,,,,,,,,,,,,,,,,,,,,,,,,,,973.1238385000033,None,,,,,,,,,,,,,,,,,,,,,,,,,,,,,,,,,,,,,,,,,,,,,,,,,,,,,,,,,friend,33,106,sing,old,yellow,971.8734284000238,None,y,971.8734284000238,None,"['y', 'return']","[0.9325570000801235, 1.212415900081396]",971.8734284000238,None,,,92NB,001,2023_Sep_01_1251,ExactRep-v3-final,2021.2.3,59.38933512436155,
,,,,,,,,,,,,106,0,106,0,,,,,,,,,,,,,,,,,,,,,,,,,,,,,,,,,,,,,,,,,,,,,,,,,975.4260318999877,None,,,,,,,,,,,,,,,,,,,,,,,,,,,,,,,,,,,,,,,,,,,,,,,,,,,,,,,,,history,171,107,sing,new,yellow,973.6399885999272,None,y,973.6399885999272,None,"['y', 'return']","[1.4379142000107095, 1.7499429000308737]",973.6399885999272,None,,,92NB,001,2023_Sep_01_1251,ExactRep-v3-final,2021.2.3,59.38933512436155,
,,,,,,,,,,,,107,0,107,0,,,,,,,,,,,,,,,,,,,,,,,,,,,,,,,,,,,,,,,,,,,,,,,,,977.12801580003,None,,,,,,,,,,,,,,,,,,,,,,,,,,,,,,,,,,,,,,,,,,,,,,,,,,,,,,,,,queen,129,108,silent,new,yellow,975.9280101999175,None,n,975.9280101999175,None,"['n', 'return']","[0.8220307000447065, 1.1579409999540076]",975.9280101999175,None,,,92NB,001,2023_Sep_01_1251,ExactRep-v3-final,2021.2.3,59.38933512436155,
,,,,,,,,,,,,108,0,108,0,,,,,,,,,,,,,,,,,,,,,,,,,,,,,,,,,,,,,,,,,,,,,,,,,978.7959748000139,None,,,,,,,,,,,,,,,,,,,,,,,,,,,,,,,,,,,,,,,,,,,,,,,,,,,,,,,,,city,202,109,aloud,new,yellow,977.645398600027,None,n,977.645398600027,None,"['n', 'return']","[0.7683971000369638, 1.1044951000949368]",977.645398600027,None,,,92NB,001,2023_Sep_01_1251,ExactRep-v3-final,2021.2.3,59.38933512436155,
,,,,,,,,,,,,109,0,109,0,,,,,,,,,,,,,,,,,,,,,,,,,,,,,,,,,,,,,,,,,,,,,,,,,980.3978511999594,None,,,,,,,,,,,,,,,,,,,,,,,,,,,,,,,,,,,,,,,,,,,,,,,,,,,,,,,,,shoes,128,110,silent,new,yellow,979.3128097999142,None,n,979.3128097999142,None,"['n', 'return']","[0.701132999965921, 1.0371386000188068]",979.3128097999142,None,,,92NB,001,2023_Sep_01_1251,ExactRep-v3-final,2021.2.3,59.38933512436155,
,,,,,,,,,,,,110,0,110,0,,,,,,,,,,,,,,,,,,,,,,,,,,,,,,,,,,,,,,,,,,,,,,,,,982.1158588000108,None,,,,,,,,,,,,,,,,,,,,,,,,,,,,,,,,,,,,,,,,,,,,,,,,,,,,,,,,,volume,56,111,silent,old,yellow,980.908010300016,None,n,980.908010300016,None,"['n', 'return']","[0.8339158000890166, 1.1618539000628516]",980.908010300016,None,,,92NB,001,2023_Sep_01_1251,ExactRep-v3-final,2021.2.3,59.38933512436155,
,,,,,,,,,,,,111,0,111,0,,,,,,,,,,,,,,,,,,,,,,,,,,,,,,,,,,,,,,,,,,,,,,,,,984.0518663999392,None,,,,,,,,,,,,,,,,,,,,,,,,,,,,,,,,,,,,,,,,,,,,,,,,,,,,,,,,,lad,96,112,aloud,old,yellow,982.6169846999692,None,y,982.6169846999692,None,"['y', 'return']","[1.1329816000070423, 1.388848999980837]",982.6169846999692,None,,,92NB,001,2023_Sep_01_1251,ExactRep-v3-final,2021.2.3,59.38933512436155,
,,,,,,,,,,,,112,0,112,0,,,,,,,,,,,,,,,,,,,,,,,,,,,,,,,,,,,,,,,,,,,,,,,,,985.7354391999543,None,,,,,,,,,,,,,,,,,,,,,,,,,,,,,,,,,,,,,,,,,,,,,,,,,,,,,,,,,student,98,113,aloud,old,yellow,984.5689045999898,None,y,984.5689045999898,None,"['y', 'return']","[0.8289698999142274, 1.1250524999340996]",984.5689045999898,None,,,92NB,001,2023_Sep_01_1251,ExactRep-v3-final,2021.2.3,59.38933512436155,
,,,,,,,,,,,,113,0,113,0,,,,,,,,,,,,,,,,,,,,,,,,,,,,,,,,,,,,,,,,,,,,,,,,,987.5404095000122,None,,,,,,,,,,,,,,,,,,,,,,,,,,,,,,,,,,,,,,,,,,,,,,,,,,,,,,,,,mercy,81,114,aloud,old,yellow,986.2373602000298,None,y,986.2373602000298,None,"['y', 'return']","[0.9365845000138506, 1.25644679996185]",986.2373602000298,None,,,92NB,001,2023_Sep_01_1251,ExactRep-v3-final,2021.2.3,59.38933512436155,
,,,,,,,,,,,,114,0,114,0,,,,,,,,,,,,,,,,,,,,,,,,,,,,,,,,,,,,,,,,,,,,,,,,,989.5236939999741,None,,,,,,,,,,,,,,,,,,,,,,,,,,,,,,,,,,,,,,,,,,,,,,,,,,,,,,,,,grass,193,115,sing,new,yellow,988.0553380999481,None,n,988.0553380999481,None,"['n', 'return']","[1.1266543000238016, 1.4308705000439659]",988.0553380999481,None,,,92NB,001,2023_Sep_01_1251,ExactRep-v3-final,2021.2.3,59.38933512436155,
,,,,,,,,,,,,115,0,115,0,,,,,,,,,,,,,,,,,,,,,,,,,,,,,,,,,,,,,,,,,,,,,,,,,991.2585069999332,None,,,,,,,,,,,,,,,,,,,,,,,,,,,,,,,,,,,,,,,,,,,,,,,,,,,,,,,,,fortune,141,116,silent,new,yellow,990.0413638999453,None,n,990.0413638999453,None,"['n', 'return']","[0.8445470000151545, 1.1726362999761477]",990.0413638999453,None,,,92NB,001,2023_Sep_01_1251,ExactRep-v3-final,2021.2.3,59.38933512436155,
,,,,,,,,,,,,116,0,116,0,,,,,,,,,,,,,,,,,,,,,,,,,,,,,,,,,,,,,,,,,,,,,,,,,992.793759000022,None,,,,,,,,,,,,,,,,,,,,,,,,,,,,,,,,,,,,,,,,,,,,,,,,,,,,,,,,,cost,163,117,sing,new,yellow,991.7759396999609,None,n,991.7759396999609,None,"['n', 'return']","[0.6459140999941155, 0.9740363999735564]",991.7759396999609,None,,,92NB,001,2023_Sep_01_1251,ExactRep-v3-final,2021.2.3,59.38933512436155,
,,,,,,,,,,,,117,0,117,0,,,,,,,,,,,,,,,,,,,,,,,,,,,,,,,,,,,,,,,,,,,,,,,,,994.7618050000165,None,,,,,,,,,,,,,,,,,,,,,,,,,,,,,,,,,,,,,,,,,,,,,,,,,,,,,,,,,king,10,118,sing,old,yellow,993.3108405999374,None,n,993.3108405999374,None,"['n', 'return']","[1.127067800029181, 1.4151341000106186]",993.3108405999374,None,,,92NB,001,2023_Sep_01_1251,ExactRep-v3-final,2021.2.3,59.38933512436155,
,,,,,,,,,,,,118,0,118,0,,,,,,,,,,,,,,,,,,,,,,,,,,,,,,,,,,,,,,,,,,,,,,,,,996.4974799000192,None,,,,,,,,,,,,,,,,,,,,,,,,,,,,,,,,,,,,,,,,,,,,,,,,,,,,,,,,,lord,94,119,aloud,old,yellow,995.2629472999834,None,y,995.2629472999834,None,"['y', 'return']","[0.8631051999982446, 1.1991044000023976]",995.2629472999834,None,,,92NB,001,2023_Sep_01_1251,ExactRep-v3-final,2021.2.3,59.38933512436155,
,,,,,,,,,,,,119,0,119,0,,,,,,,,,,,,,,,,,,,,,,,,,,,,,,,,,,,,,,,,,,,,,,,,,998.2811814999441,None,,,,,,,,,,,,,,,,,,,,,,,,,,,,,,,,,,,,,,,,,,,,,,,,,,,,,,,,,health,236,120,aloud,new,yellow,997.0146412999602,None,n,997.0146412999602,None,"['n', 'return']","[0.9592787999426946, 1.2316163999494165]",997.0146412999602,None,,,92NB,001,2023_Sep_01_1251,ExactRep-v3-final,2021.2.3,59.38933512436155,
,,,,,,,,,,,,120,0,120,0,,,,,,,,,,,,,,,,,,,,,,,,,,,,,,,,,,,,,,,,,,,,,,,,,1000.1171996999765,None,,,,,,,,,,,,,,,,,,,,,,,,,,,,,,,,,,,,,,,,,,,,,,,,,,,,,,,,,passion,84,121,aloud,old,yellow,998.7848927999148,None,y,998.7848927999148,None,"['y', 'return']","[0.933098700013943, 1.2851152999792248]",998.7848927999148,None,,,92NB,001,2023_Sep_01_1251,ExactRep-v3-final,2021.2.3,59.38933512436155,
,,,,,,,,,,,,121,0,121,0,,,,,,,,,,,,,,,,,,,,,,,,,,,,,,,,,,,,,,,,,,,,,,,,,1001.9196220999584,None,,,,,,,,,,,,,,,,,,,,,,,,,,,,,,,,,,,,,,,,,,,,,,,,,,,,,,,,,theory,180,122,aloud,new,yellow,1000.6186431000242,None,n,1000.6186431000242,None,"['n', 'return']","[0.9152919000480324, 1.2512415000237525]",1000.6186431000242,None,,,92NB,001,2023_Sep_01_1251,ExactRep-v3-final,2021.2.3,59.38933512436155,
,,,,,,,,,,,,122,0,122,0,,,,,,,,,,,,,,,,,,,,,,,,,,,,,,,,,,,,,,,,,,,,,,,,,1003.9546548000071,None,,,,,,,,,,,,,,,,,,,,,,,,,,,,,,,,,,,,,,,,,,,,,,,,,,,,,,,,,water,36,123,sing,old,yellow,1002.4526774999686,None,n,1002.4526774999686,None,"['n', 'return']","[1.0972415000433102, 1.465453900047578]",1002.4526774999686,None,,,92NB,001,2023_Sep_01_1251,ExactRep-v3-final,2021.2.3,59.38933512436155,
,,,,,,,,,,,,123,0,123,0,,,,,,,,,,,,,,,,,,,,,,,,,,,,,,,,,,,,,,,,,,,,,,,,,1005.8368630999466,None,,,,,,,,,,,,,,,,,,,,,,,,,,,,,,,,,,,,,,,,,,,,,,,,,,,,,,,,,boy,233,124,sing,new,yellow,1004.471140999929,None,n,1004.471140999929,None,"['n', 'return']","[0.9907415000488982, 1.3187573000323027]",1004.471140999929,None,,,92NB,001,2023_Sep_01_1251,ExactRep-v3-final,2021.2.3,59.38933512436155,
,,,,,,,,,,,,124,0,124,0,,,,,,,,,,,,,,,,,,,,,,,,,,,,,,,,,,,,,,,,,,,,,,,,,1007.6749767999863,None,,,,,,,,,,,,,,,,,,,,,,,,,,,,,,,,,,,,,,,,,,,,,,,,,,,,,,,,,method,212,125,aloud,new,yellow,1006.3487685000291,None,n,1006.3487685000291,None,"['n', 'return']","[0.9691909999819472, 1.2894163999008015]",1006.3487685000291,None,,,92NB,001,2023_Sep_01_1251,ExactRep-v3-final,2021.2.3,59.38933512436155,
,,,,,,,,,,,,125,0,125,0,,,,,,,,,,,,,,,,,,,,,,,,,,,,,,,,,,,,,,,,,,,,,,,,,1009.676969800028,None,,,,,,,,,,,,,,,,,,,,,,,,,,,,,,,,,,,,,,,,,,,,,,,,,,,,,,,,,storm,91,126,aloud,old,yellow,1008.1824165999424,None,y,1008.1824165999424,None,"['y', 'return']","[1.1273655000841245, 1.4555652000708506]",1008.1824165999424,None,,,92NB,001,2023_Sep_01_1251,ExactRep-v3-final,2021.2.3,59.38933512436155,
,,,,,,,,,,,,126,0,126,0,,,,,,,,,,,,,,,,,,,,,,,,,,,,,,,,,,,,,,,,,,,,,,,,,1011.6126859999495,None,,,,,,,,,,,,,,,,,,,,,,,,,,,,,,,,,,,,,,,,,,,,,,,,,,,,,,,,,church,139,127,silent,new,yellow,1010.1945892999647,None,n,1010.1945892999647,None,"['n', 'return']","[1.0033457999816164, 1.379290199954994]",1010.1945892999647,None,,,92NB,001,2023_Sep_01_1251,ExactRep-v3-final,2021.2.3,59.38933512436155,
,,,,,,,,,,,,127,0,127,0,,,,,,,,,,,,,,,,,,,,,,,,,,,,,,,,,,,,,,,,,,,,,,,,,1013.664820499951,None,,,,,,,,,,,,,,,,,,,,,,,,,,,,,,,,,,,,,,,,,,,,,,,,,,,,,,,,,steam,15,128,sing,old,yellow,1012.1313622000162,None,y,1012.1313622000162,None,"['y', 'return']","[1.14668519992847, 1.4906505999388173]",1012.1313622000162,None,,,92NB,001,2023_Sep_01_1251,ExactRep-v3-final,2021.2.3,59.38933512436155,
,,,,,,,,,,,,128,0,128,0,,,,,,,,,,,,,,,,,,,,,,,,,,,,,,,,,,,,,,,,,,,,,,,,,1015.3817793999333,None,,,,,,,,,,,,,,,,,,,,,,,,,,,,,,,,,,,,,,,,,,,,,,,,,,,,,,,,,pupil,124,129,silent,new,yellow,1014.1817383000161,None,n,1014.1817383000161,None,"['n', 'return']","[0.8322169000748545, 1.1521919000661]",1014.1817383000161,None,,,92NB,001,2023_Sep_01_1251,ExactRep-v3-final,2021.2.3,59.38933512436155,
,,,,,,,,,,,,129,0,129,0,,,,,,,,,,,,,,,,,,,,,,,,,,,,,,,,,,,,,,,,,,,,,,,,,1017.5349711999297,None,,,,,,,,,,,,,,,,,,,,,,,,,,,,,,,,,,,,,,,,,,,,,,,,,,,,,,,,,custom,35,130,sing,old,yellow,1015.8843427000102,None,n,1015.8843427000102,None,"['n', 'return']","[1.3138537000631914, 1.601559100090526]",1015.8843427000102,None,,,92NB,001,2023_Sep_01_1251,ExactRep-v3-final,2021.2.3,59.38933512436155,
,,,,,,,,,,,,130,0,130,0,,,,,,,,,,,,,,,,,,,,,,,,,,,,,,,,,,,,,,,,,,,,,,,,,1019.2020116000203,None,,,,,,,,,,,,,,,,,,,,,,,,,,,,,,,,,,,,,,,,,,,,,,,,,,,,,,,,,home,58,131,silent,old,yellow,1018.042574299965,None,n,1018.042574299965,None,"['n', 'return']","[0.8194094999926165, 1.1154582999879494]",1018.042574299965,None,,,92NB,001,2023_Sep_01_1251,ExactRep-v3-final,2021.2.3,59.38933512436155,
