trials_fam.thisRepN,trials_fam.thisTrialN,trials_fam.thisN,trials_fam.thisIndex,trials_prc.thisRepN,trials_prc.thisTrialN,trials_prc.thisN,trials_prc.thisIndex,StudyLoop.thisRepN,StudyLoop.thisTrialN,StudyLoop.thisN,StudyLoop.thisIndex,TestLoop.thisRepN,TestLoop.thisTrialN,TestLoop.thisN,TestLoop.thisIndex,text_colortest.started,text_colortest.stopped,key_colortest.keys,key_colortest.rt,key_colortest.started,key_colortest.stopped,textCondition.started,textCondition.stopped,keyCondition.keys,keyCondition.rt,keyCondition.started,keyCondition.stopped,Condition_between,Condition_counterbal,keyWelcome.keys,keyWelcome.rt,keyWelcome.started,keyWelcome.stopped,welcome_a.started,welcome_a.stopped,welcome_b.started,welcome_b.stopped,welcome_c.started,welcome_c.stopped,welcome_d.started,welcome_d.stopped,welcome_e.started,welcome_e.stopped,welcome_f.started,welcome_f.stopped,key_resp_fam_inst.keys,key_resp_fam_inst.rt,key_resp_fam_inst.started,key_resp_fam_inst.stopped,fam_a.started,fam_a.stopped,fam_b.started,fam_b.stopped,fam_c.started,fam_c.stopped,fam_d.started,fam_d.stopped,fam_e.started,fam_e.stopped,fam_f.started,fam_f.stopped,text_famil.started,text_famil.stopped,textBlank500.started,textBlank500.stopped,key_resp_prc_inst.keys,key_resp_prc_inst.rt,key_resp_prc_inst.started,key_resp_prc_inst.stopped,prac_a.started,prac_a.stopped,prac_b.started,prac_b.stopped,prac_c.started,prac_c.stopped,prac_d.started,prac_d.stopped,prac_e.started,prac_e.stopped,prac_f.started,prac_f.stopped,text_prc_trial.started,text_prc_trial.stopped,key_resp_study_inst.keys,key_resp_study_inst.rt,key_resp_study_inst.started,key_resp_study_inst.stopped,crit_a.started,crit_a.stopped,crit_b.started,crit_b.stopped,crit_c.started,crit_c.stopped,crit_d.started,crit_d.stopped,crit_e.started,crit_e.stopped,crit_f.started,crit_f.stopped,study_word,study_num,study_order,study_type,word_color,textStudy.started,textStudy.stopped,keyStudy.keys,keyStudy.started,keyStudy.stopped,post_study.started,post_study.stopped,key_resp_post_study.keys,key_resp_post_study.rt,key_resp_post_study.started,key_resp_post_study.stopped,test_inst.started,test_inst.stopped,key_resp_test_inst.keys,key_resp_test_inst.rt,key_resp_test_inst.started,key_resp_test_inst.stopped,test_word,test_num,test_order,test_condition,old_new_test,word_color_test,textConf.started,textConf.stopped,Participant Response,textInput.started,textInput.stopped,keyResp.keys,keyResp.rt,keyResp.started,keyResp.stopped,textEnd.started,textEnd.stopped,participant,session,date,expName,psychopyVersion,frameRate,
,,,,,,,,,,,,,,,,722.6595029000891,None,n,0.8738431999227032,722.6595029000891,None,,,,,,,,,,,,,,,,,,,,,,,,,,,,,,,,,,,,,,,,,,,,,,,,,,,,,,,,,,,,,,,,,,,,,,,,,,,,,,,,,,,,,,,,,,,,,,,,,,,,,,,,,,,,,,,,,,,,,,93NC,001,2023_Sep_01_1324,ExactRep-v3-final,2021.2.3,59.89164403526763,
,,,,,,,,,,,,,,,,,,,,,,723.5576727000298,None,c,0.6157887000590563,723.5576727000298,None,,,,,,,,,,,,,,,,,,,,,,,,,,,,,,,,,,,,,,,,,,,,,,,,,,,,,,,,,,,,,,,,,,,,,,,,,,,,,,,,,,,,,,,,,,,,,,,,,,,,,,,,,,,,,,,,93NC,001,2023_Sep_01_1324,ExactRep-v3-final,2021.2.3,59.89164403526763,
,,,,,,,,,,,,,,,,,,,,,,,,,,,,whitefoils,c,space,202.09741649997886,734.2917863000184,None,,,,,,,,,,,,,,,,,,,,,,,,,,,,,,,,,,,,,,,,,,,,,,,,,,,,,,,,,,,,,,,,,,,,,,,,,,,,,,,,,,,,,,,,,,,,,,,,,,,,,,,,,,93NC,001,2023_Sep_01_1324,ExactRep-v3-final,2021.2.3,59.89164403526763,
,,,,,,,,,,,,,,,,,,,,,,,,,,,,,,,,,,724.3519272999838,None,724.3519272999838,None,724.3519272999838,None,724.3519272999838,None,724.3519272999838,None,724.3519272999838,None,space,10.351994799915701,946.5411059000762,None,,,,,,,,,,,,,,,,,,,,,,,,,,,,,,,,,,,,,,,,,,,,,,,,,,,,,,,,,,,,,,,,,,,,,,,,,,,,,,,,,,,,,,,,,,93NC,001,2023_Sep_01_1324,ExactRep-v3-final,2021.2.3,59.89164403526763,
0,0,0,0,,,,,,,,,,,,,,,,,,,,,,,,,,,,,,,,,,,,,,,,,,,,,,,936.5707936000545,None,936.5707936000545,None,936.5707936000545,None,936.5707936000545,None,936.5707936000545,None,936.5707936000545,None,957.0480070000049,None,959.0423616000917,None,,,,,,,,,,,,,,,,,,,,,,,,,,,,,,,,,,,,,,,,,,,,,,,,,,,,,,,,,,,,,,,,,,,,,,,,,,93NC,001,2023_Sep_01_1324,ExactRep-v3-final,2021.2.3,59.89164403526763,
1,0,1,0,,,,,,,,,,,,,,,,,,,,,,,,,,,,,,,,,,,,,,,,,,,,,,,,,,,,,,,,,,,959.5431190000381,None,961.5449327999959,None,,,,,,,,,,,,,,,,,,,,,,,,,,,,,,,,,,,,,,,,,,,,,,,,,,,,,,,,,,,,,,,,,,,,,,,,,,93NC,001,2023_Sep_01_1324,ExactRep-v3-final,2021.2.3,59.89164403526763,
2,0,2,0,,,,,,,,,,,,,,,,,,,,,,,,,,,,,,,,,,,,,,,,,,,,,,,,,,,,,,,,,,,962.0534617999801,None,964.0640236000763,None,,,,,,,,,,,,,,,,,,,,,,,,,,,,,,,,,,,,,,,,,,,,,,,,,,,,,,,,,,,,,,,,,,,,,,,,,,93NC,001,2023_Sep_01_1324,ExactRep-v3-final,2021.2.3,59.89164403526763,
3,0,3,0,,,,,,,,,,,,,,,,,,,,,,,,,,,,,,,,,,,,,,,,,,,,,,,,,,,,,,,,,,,964.5645139000844,None,966.5666042000521,None,,,,,,,,,,,,,,,,,,,,,,,,,,,,,,,,,,,,,,,,,,,,,,,,,,,,,,,,,,,,,,,,,,,,,,,,,,93NC,001,2023_Sep_01_1324,ExactRep-v3-final,2021.2.3,59.89164403526763,
4,0,4,0,,,,,,,,,,,,,,,,,,,,,,,,,,,,,,,,,,,,,,,,,,,,,,,,,,,,,,,,,,,967.0709509000881,None,969.0861119000474,None,,,,,,,,,,,,,,,,,,,,,,,,,,,,,,,,,,,,,,,,,,,,,,,,,,,,,,,,,,,,,,,,,,,,,,,,,,93NC,001,2023_Sep_01_1324,ExactRep-v3-final,2021.2.3,59.89164403526763,
5,0,5,0,,,,,,,,,,,,,,,,,,,,,,,,,,,,,,,,,,,,,,,,,,,,,,,,,,,,,,,,,,,969.58703350008,None,971.5882813000353,None,,,,,,,,,,,,,,,,,,,,,,,,,,,,,,,,,,,,,,,,,,,,,,,,,,,,,,,,,,,,,,,,,,,,,,,,,,93NC,001,2023_Sep_01_1324,ExactRep-v3-final,2021.2.3,59.89164403526763,
6,0,6,0,,,,,,,,,,,,,,,,,,,,,,,,,,,,,,,,,,,,,,,,,,,,,,,,,,,,,,,,,,,972.0894672999857,None,974.0909347999841,None,,,,,,,,,,,,,,,,,,,,,,,,,,,,,,,,,,,,,,,,,,,,,,,,,,,,,,,,,,,,,,,,,,,,,,,,,,93NC,001,2023_Sep_01_1324,ExactRep-v3-final,2021.2.3,59.89164403526763,
7,0,7,0,,,,,,,,,,,,,,,,,,,,,,,,,,,,,,,,,,,,,,,,,,,,,,,,,,,,,,,,,,,974.5915296000894,None,976.593778599985,None,,,,,,,,,,,,,,,,,,,,,,,,,,,,,,,,,,,,,,,,,,,,,,,,,,,,,,,,,,,,,,,,,,,,,,,,,,93NC,001,2023_Sep_01_1324,ExactRep-v3-final,2021.2.3,59.89164403526763,
8,0,8,0,,,,,,,,,,,,,,,,,,,,,,,,,,,,,,,,,,,,,,,,,,,,,,,,,,,,,,,,,,,977.094435499981,None,979.0960887999972,None,,,,,,,,,,,,,,,,,,,,,,,,,,,,,,,,,,,,,,,,,,,,,,,,,,,,,,,,,,,,,,,,,,,,,,,,,,93NC,001,2023_Sep_01_1324,ExactRep-v3-final,2021.2.3,59.89164403526763,
9,0,9,0,,,,,,,,,,,,,,,,,,,,,,,,,,,,,,,,,,,,,,,,,,,,,,,,,,,,,,,,,,,979.5965790000046,None,981.5985175999813,None,,,,,,,,,,,,,,,,,,,,,,,,,,,,,,,,,,,,,,,,,,,,,,,,,,,,,,,,,,,,,,,,,,,,,,,,,,93NC,001,2023_Sep_01_1324,ExactRep-v3-final,2021.2.3,59.89164403526763,
10,0,10,0,,,,,,,,,,,,,,,,,,,,,,,,,,,,,,,,,,,,,,,,,,,,,,,,,,,,,,,,,,,982.0988708999939,None,984.1006862000795,None,,,,,,,,,,,,,,,,,,,,,,,,,,,,,,,,,,,,,,,,,,,,,,,,,,,,,,,,,,,,,,,,,,,,,,,,,,93NC,001,2023_Sep_01_1324,ExactRep-v3-final,2021.2.3,59.89164403526763,
11,0,11,0,,,,,,,,,,,,,,,,,,,,,,,,,,,,,,,,,,,,,,,,,,,,,,,,,,,,,,,,,,,984.6016117000254,None,986.6033204999985,None,,,,,,,,,,,,,,,,,,,,,,,,,,,,,,,,,,,,,,,,,,,,,,,,,,,,,,,,,,,,,,,,,,,,,,,,,,93NC,001,2023_Sep_01_1324,ExactRep-v3-final,2021.2.3,59.89164403526763,
12,0,12,0,,,,,,,,,,,,,,,,,,,,,,,,,,,,,,,,,,,,,,,,,,,,,,,,,,,,,,,,,,,987.1042293000501,None,989.106230000034,None,,,,,,,,,,,,,,,,,,,,,,,,,,,,,,,,,,,,,,,,,,,,,,,,,,,,,,,,,,,,,,,,,,,,,,,,,,93NC,001,2023_Sep_01_1324,ExactRep-v3-final,2021.2.3,59.89164403526763,
13,0,13,0,,,,,,,,,,,,,,,,,,,,,,,,,,,,,,,,,,,,,,,,,,,,,,,,,,,,,,,,,,,989.6059849000303,None,991.6085597000783,None,,,,,,,,,,,,,,,,,,,,,,,,,,,,,,,,,,,,,,,,,,,,,,,,,,,,,,,,,,,,,,,,,,,,,,,,,,93NC,001,2023_Sep_01_1324,ExactRep-v3-final,2021.2.3,59.89164403526763,
14,0,14,0,,,,,,,,,,,,,,,,,,,,,,,,,,,,,,,,,,,,,,,,,,,,,,,,,,,,,,,,,,,992.1084637000458,None,994.1108375000767,None,,,,,,,,,,,,,,,,,,,,,,,,,,,,,,,,,,,,,,,,,,,,,,,,,,,,,,,,,,,,,,,,,,,,,,,,,,93NC,001,2023_Sep_01_1324,ExactRep-v3-final,2021.2.3,59.89164403526763,
,,,,,,,,,,,,,,,,,,,,,,,,,,,,,,,,,,,,,,,,,,,,,,,,,,,,,,,,,,,,,,,,,,space,6.086839099996723,1004.7502761000069,None,,,,,,,,,,,,,,,,,,,,,,,,,,,,,,,,,,,,,,,,,,,,,,,,,,,,,,,,,,,,,,,,,,,,,,93NC,001,2023_Sep_01_1324,ExactRep-v3-final,2021.2.3,59.89164403526763,
,,,,0,0,0,0,,,,,,,,,,,,,,,,,,,,,,,,,,,,,,,,,,,,,,,,,,,,,,,,,,,,,,,,,1012.9463087000186,None,,,,,994.7344868000364,None,994.7344868000364,None,994.7344868000364,None,994.7344868000364,None,994.7344868000364,None,994.7344868000364,None,1010.9411576000275,None,,,,,,,,,,,,,,,,,,,,,,,,,,,,,,,,,,,,,,,,,,,,,,,,,,,,,,,,93NC,001,2023_Sep_01_1324,ExactRep-v3-final,2021.2.3,59.89164403526763,
,,,,1,0,1,0,,,,,,,,,,,,,,,,,,,,,,,,,,,,,,,,,,,,,,,,,,,,,,,,,,,,,,,,,1015.4488608000102,None,,,,,,,,,,,,,,,,,1013.446809999994,None,,,,,,,,,,,,,,,,,,,,,,,,,,,,,,,,,,,,,,,,,,,,,,,,,,,,,,,,93NC,001,2023_Sep_01_1324,ExactRep-v3-final,2021.2.3,59.89164403526763,
,,,,2,0,2,0,,,,,,,,,,,,,,,,,,,,,,,,,,,,,,,,,,,,,,,,,,,,,,,,,,,,,,,,,1017.9513016000856,None,,,,,,,,,,,,,,,,,1015.9492824000772,None,,,,,,,,,,,,,,,,,,,,,,,,,,,,,,,,,,,,,,,,,,,,,,,,,,,,,,,,93NC,001,2023_Sep_01_1324,ExactRep-v3-final,2021.2.3,59.89164403526763,
,,,,3,0,3,0,,,,,,,,,,,,,,,,,,,,,,,,,,,,,,,,,,,,,,,,,,,,,,,,,,,,,,,,,1020.4537541000172,None,,,,,,,,,,,,,,,,,1018.4518135000253,None,,,,,,,,,,,,,,,,,,,,,,,,,,,,,,,,,,,,,,,,,,,,,,,,,,,,,,,,93NC,001,2023_Sep_01_1324,ExactRep-v3-final,2021.2.3,59.89164403526763,
,,,,4,0,4,0,,,,,,,,,,,,,,,,,,,,,,,,,,,,,,,,,,,,,,,,,,,,,,,,,,,,,,,,,1022.9561539000133,None,,,,,,,,,,,,,,,,,1020.9541924999794,None,,,,,,,,,,,,,,,,,,,,,,,,,,,,,,,,,,,,,,,,,,,,,,,,,,,,,,,,93NC,001,2023_Sep_01_1324,ExactRep-v3-final,2021.2.3,59.89164403526763,
,,,,5,0,5,0,,,,,,,,,,,,,,,,,,,,,,,,,,,,,,,,,,,,,,,,,,,,,,,,,,,,,,,,,1025.458823400084,None,,,,,,,,,,,,,,,,,1023.4566025000531,None,,,,,,,,,,,,,,,,,,,,,,,,,,,,,,,,,,,,,,,,,,,,,,,,,,,,,,,,93NC,001,2023_Sep_01_1324,ExactRep-v3-final,2021.2.3,59.89164403526763,
,,,,6,0,6,0,,,,,,,,,,,,,,,,,,,,,,,,,,,,,,,,,,,,,,,,,,,,,,,,,,,,,,,,,1027.9617502000183,None,,,,,,,,,,,,,,,,,1025.9592828000896,None,,,,,,,,,,,,,,,,,,,,,,,,,,,,,,,,,,,,,,,,,,,,,,,,,,,,,,,,93NC,001,2023_Sep_01_1324,ExactRep-v3-final,2021.2.3,59.89164403526763,
,,,,7,0,7,0,,,,,,,,,,,,,,,,,,,,,,,,,,,,,,,,,,,,,,,,,,,,,,,,,,,,,,,,,1030.46407300001,None,,,,,,,,,,,,,,,,,1028.4623933000257,None,,,,,,,,,,,,,,,,,,,,,,,,,,,,,,,,,,,,,,,,,,,,,,,,,,,,,,,,93NC,001,2023_Sep_01_1324,ExactRep-v3-final,2021.2.3,59.89164403526763,
,,,,8,0,8,0,,,,,,,,,,,,,,,,,,,,,,,,,,,,,,,,,,,,,,,,,,,,,,,,,,,,,,,,,1032.9664709999925,None,,,,,,,,,,,,,,,,,1030.9645385000622,None,,,,,,,,,,,,,,,,,,,,,,,,,,,,,,,,,,,,,,,,,,,,,,,,,,,,,,,,93NC,001,2023_Sep_01_1324,ExactRep-v3-final,2021.2.3,59.89164403526763,
,,,,9,0,9,0,,,,,,,,,,,,,,,,,,,,,,,,,,,,,,,,,,,,,,,,,,,,,,,,,,,,,,,,,1035.4691959000193,None,,,,,,,,,,,,,,,,,1033.4670765000628,None,,,,,,,,,,,,,,,,,,,,,,,,,,,,,,,,,,,,,,,,,,,,,,,,,,,,,,,,93NC,001,2023_Sep_01_1324,ExactRep-v3-final,2021.2.3,59.89164403526763,
,,,,10,0,10,0,,,,,,,,,,,,,,,,,,,,,,,,,,,,,,,,,,,,,,,,,,,,,,,,,,,,,,,,,1037.971280100057,None,,,,,,,,,,,,,,,,,1035.9698309000814,None,,,,,,,,,,,,,,,,,,,,,,,,,,,,,,,,,,,,,,,,,,,,,,,,,,,,,,,,93NC,001,2023_Sep_01_1324,ExactRep-v3-final,2021.2.3,59.89164403526763,
,,,,11,0,11,0,,,,,,,,,,,,,,,,,,,,,,,,,,,,,,,,,,,,,,,,,,,,,,,,,,,,,,,,,1040.4738389999839,None,,,,,,,,,,,,,,,,,1038.4718225999968,None,,,,,,,,,,,,,,,,,,,,,,,,,,,,,,,,,,,,,,,,,,,,,,,,,,,,,,,,93NC,001,2023_Sep_01_1324,ExactRep-v3-final,2021.2.3,59.89164403526763,
,,,,12,0,12,0,,,,,,,,,,,,,,,,,,,,,,,,,,,,,,,,,,,,,,,,,,,,,,,,,,,,,,,,,1042.9762599000242,None,,,,,,,,,,,,,,,,,1040.9743516000453,None,,,,,,,,,,,,,,,,,,,,,,,,,,,,,,,,,,,,,,,,,,,,,,,,,,,,,,,,93NC,001,2023_Sep_01_1324,ExactRep-v3-final,2021.2.3,59.89164403526763,
,,,,13,0,13,0,,,,,,,,,,,,,,,,,,,,,,,,,,,,,,,,,,,,,,,,,,,,,,,,,,,,,,,,,1045.478798700031,None,,,,,,,,,,,,,,,,,1043.4768115000334,None,,,,,,,,,,,,,,,,,,,,,,,,,,,,,,,,,,,,,,,,,,,,,,,,,,,,,,,,93NC,001,2023_Sep_01_1324,ExactRep-v3-final,2021.2.3,59.89164403526763,
,,,,14,0,14,0,,,,,,,,,,,,,,,,,,,,,,,,,,,,,,,,,,,,,,,,,,,,,,,,,,,,,,,,,1047.981242000009,None,,,,,,,,,,,,,,,,,1045.9792533,None,,,,,,,,,,,,,,,,,,,,,,,,,,,,,,,,,,,,,,,,,,,,,,,,,,,,,,,,93NC,001,2023_Sep_01_1324,ExactRep-v3-final,2021.2.3,59.89164403526763,
,,,,,,,,,,,,,,,,,,,,,,,,,,,,,,,,,,,,,,,,,,,,,,,,,,,,,,,,,,,,,,,,,,,,,,,,,,,,,,,,,,,,space,13.168601299985312,1058.5887103000423,None,,,,,,,,,,,,,,,,,,,,,,,,,,,,,,,,,,,,,,,,,,,,,,,,,,,,93NC,001,2023_Sep_01_1324,ExactRep-v3-final,2021.2.3,59.89164403526763,
,,,,,,,,0,0,0,0,,,,,,,,,,,,,,,,,,,,,,,,,,,,,,,,,,,,,,,,,,,,,,,,,,,,,1073.8236610000022,None,,,,,,,,,,,,,,,,,,,,,,,1048.6282558999956,None,1048.6282558999956,None,1048.6282558999956,None,1048.6282558999956,None,1048.6282558999956,None,1048.6282558999956,None,corn,78,1,silent,red,1071.8233839999884,None,None,1071.8233839999884,None,,,,,,,,,,,,,,,,,,,,,,,,,,,,,,93NC,001,2023_Sep_01_1324,ExactRep-v3-final,2021.2.3,59.89164403526763,
,,,,,,,,1,0,1,0,,,,,,,,,,,,,,,,,,,,,,,,,,,,,,,,,,,,,,,,,,,,,,,,,,,,,1076.342940500006,None,,,,,,,,,,,,,,,,,,,,,,,,,,,,,,,,,,,artist,105,2,aloud,blue,1074.3396044999827,None,None,1074.3396044999827,None,,,,,,,,,,,,,,,,,,,,,,,,,,,,,,93NC,001,2023_Sep_01_1324,ExactRep-v3-final,2021.2.3,59.89164403526763,
,,,,,,,,2,0,2,0,,,,,,,,,,,,,,,,,,,,,,,,,,,,,,,,,,,,,,,,,,,,,,,,,,,,,1078.8457129000453,None,,,,,,,,,,,,,,,,,,,,,,,,,,,,,,,,,,,shore,30,3,sing,white,1076.8452520000283,None,None,1076.8452520000283,None,,,,,,,,,,,,,,,,,,,,,,,,,,,,,,93NC,001,2023_Sep_01_1324,ExactRep-v3-final,2021.2.3,59.89164403526763,
,,,,,,,,3,0,3,0,,,,,,,,,,,,,,,,,,,,,,,,,,,,,,,,,,,,,,,,,,,,,,,,,,,,,1081.3481254000217,None,,,,,,,,,,,,,,,,,,,,,,,,,,,,,,,,,,,volume,117,4,aloud,blue,1079.3483312000753,None,None,1079.3483312000753,None,,,,,,,,,,,,,,,,,,,,,,,,,,,,,,93NC,001,2023_Sep_01_1324,ExactRep-v3-final,2021.2.3,59.89164403526763,
,,,,,,,,4,0,4,0,,,,,,,,,,,,,,,,,,,,,,,,,,,,,,,,,,,,,,,,,,,,,,,,,,,,,1083.8503665000899,None,,,,,,,,,,,,,,,,,,,,,,,,,,,,,,,,,,,trouble,0,5,sing,white,1081.8485529000172,None,None,1081.8485529000172,None,,,,,,,,,,,,,,,,,,,,,,,,,,,,,,93NC,001,2023_Sep_01_1324,ExactRep-v3-final,2021.2.3,59.89164403526763,
,,,,,,,,5,0,5,0,,,,,,,,,,,,,,,,,,,,,,,,,,,,,,,,,,,,,,,,,,,,,,,,,,,,,1086.3533890000544,None,,,,,,,,,,,,,,,,,,,,,,,,,,,,,,,,,,,letter,116,6,aloud,blue,1084.3514549999963,None,None,1084.3514549999963,None,,,,,,,,,,,,,,,,,,,,,,,,,,,,,,93NC,001,2023_Sep_01_1324,ExactRep-v3-final,2021.2.3,59.89164403526763,
,,,,,,,,6,0,6,0,,,,,,,,,,,,,,,,,,,,,,,,,,,,,,,,,,,,,,,,,,,,,,,,,,,,,1088.8721094999928,None,,,,,,,,,,,,,,,,,,,,,,,,,,,,,,,,,,,coin,95,7,aloud,blue,1086.8576524000382,None,None,1086.8576524000382,None,,,,,,,,,,,,,,,,,,,,,,,,,,,,,,93NC,001,2023_Sep_01_1324,ExactRep-v3-final,2021.2.3,59.89164403526763,
,,,,,,,,7,0,7,0,,,,,,,,,,,,,,,,,,,,,,,,,,,,,,,,,,,,,,,,,,,,,,,,,,,,,1091.3746666000225,None,,,,,,,,,,,,,,,,,,,,,,,,,,,,,,,,,,,machine,26,8,sing,white,1089.3726262000855,None,None,1089.3726262000855,None,,,,,,,,,,,,,,,,,,,,,,,,,,,,,,93NC,001,2023_Sep_01_1324,ExactRep-v3-final,2021.2.3,59.89164403526763,
,,,,,,,,8,0,8,0,,,,,,,,,,,,,,,,,,,,,,,,,,,,,,,,,,,,,,,,,,,,,,,,,,,,,1093.877598799998,None,,,,,,,,,,,,,,,,,,,,,,,,,,,,,,,,,,,kiss,109,9,aloud,blue,1091.8773992999922,None,None,1091.8773992999922,None,,,,,,,,,,,,,,,,,,,,,,,,,,,,,,93NC,001,2023_Sep_01_1324,ExactRep-v3-final,2021.2.3,59.89164403526763,
,,,,,,,,9,0,9,0,,,,,,,,,,,,,,,,,,,,,,,,,,,,,,,,,,,,,,,,,,,,,,,,,,,,,1096.3797649000771,None,,,,,,,,,,,,,,,,,,,,,,,,,,,,,,,,,,,coast,27,10,sing,white,1094.3781698000384,None,None,1094.3781698000384,None,,,,,,,,,,,,,,,,,,,,,,,,,,,,,,93NC,001,2023_Sep_01_1324,ExactRep-v3-final,2021.2.3,59.89164403526763,
,,,,,,,,10,0,10,0,,,,,,,,,,,,,,,,,,,,,,,,,,,,,,,,,,,,,,,,,,,,,,,,,,,,,1098.882120900089,None,,,,,,,,,,,,,,,,,,,,,,,,,,,,,,,,,,,speech,99,11,aloud,blue,1096.8821449000388,None,None,1096.8821449000388,None,,,,,,,,,,,,,,,,,,,,,,,,,,,,,,93NC,001,2023_Sep_01_1324,ExactRep-v3-final,2021.2.3,59.89164403526763,
,,,,,,,,11,0,11,0,,,,,,,,,,,,,,,,,,,,,,,,,,,,,,,,,,,,,,,,,,,,,,,,,,,,,1101.384818600025,None,,,,,,,,,,,,,,,,,,,,,,,,,,,,,,,,,,,student,103,12,aloud,blue,1099.3833529000403,None,None,1099.3833529000403,None,,,,,,,,,,,,,,,,,,,,,,,,,,,,,,93NC,001,2023_Sep_01_1324,ExactRep-v3-final,2021.2.3,59.89164403526763,
,,,,,,,,12,0,12,0,,,,,,,,,,,,,,,,,,,,,,,,,,,,,,,,,,,,,,,,,,,,,,,,,,,,,1103.9039436000166,None,,,,,,,,,,,,,,,,,,,,,,,,,,,,,,,,,,,cottage,19,13,sing,white,1101.8889836000744,None,None,1101.8889836000744,None,,,,,,,,,,,,,,,,,,,,,,,,,,,,,,93NC,001,2023_Sep_01_1324,ExactRep-v3-final,2021.2.3,59.89164403526763,
,,,,,,,,13,0,13,0,,,,,,,,,,,,,,,,,,,,,,,,,,,,,,,,,,,,,,,,,,,,,,,,,,,,,1106.40636490006,None,,,,,,,,,,,,,,,,,,,,,,,,,,,,,,,,,,,blood,96,14,aloud,blue,1104.4043429000303,None,None,1104.4043429000303,None,,,,,,,,,,,,,,,,,,,,,,,,,,,,,,93NC,001,2023_Sep_01_1324,ExactRep-v3-final,2021.2.3,59.89164403526763,
,,,,,,,,14,0,14,0,,,,,,,,,,,,,,,,,,,,,,,,,,,,,,,,,,,,,,,,,,,,,,,,,,,,,1108.9088614999782,None,,,,,,,,,,,,,,,,,,,,,,,,,,,,,,,,,,,honour,14,15,sing,white,1106.9089145000326,None,None,1106.9089145000326,None,,,,,,,,,,,,,,,,,,,,,,,,,,,,,,93NC,001,2023_Sep_01_1324,ExactRep-v3-final,2021.2.3,59.89164403526763,
,,,,,,,,15,0,15,0,,,,,,,,,,,,,,,,,,,,,,,,,,,,,,,,,,,,,,,,,,,,,,,,,,,,,1111.4114798000082,None,,,,,,,,,,,,,,,,,,,,,,,,,,,,,,,,,,,ability,115,16,aloud,blue,1109.411307799979,None,None,1109.411307799979,None,,,,,,,,,,,,,,,,,,,,,,,,,,,,,,93NC,001,2023_Sep_01_1324,ExactRep-v3-final,2021.2.3,59.89164403526763,
,,,,,,,,16,0,16,0,,,,,,,,,,,,,,,,,,,,,,,,,,,,,,,,,,,,,,,,,,,,,,,,,,,,,1113.9144342000363,None,,,,,,,,,,,,,,,,,,,,,,,,,,,,,,,,,,,sea,51,17,silent,red,1111.9123850000324,None,None,1111.9123850000324,None,,,,,,,,,,,,,,,,,,,,,,,,,,,,,,93NC,001,2023_Sep_01_1324,ExactRep-v3-final,2021.2.3,59.89164403526763,
,,,,,,,,17,0,17,0,,,,,,,,,,,,,,,,,,,,,,,,,,,,,,,,,,,,,,,,,,,,,,,,,,,,,1116.416476399987,None,,,,,,,,,,,,,,,,,,,,,,,,,,,,,,,,,,,cost,21,18,sing,white,1114.4157394000795,None,None,1114.4157394000795,None,,,,,,,,,,,,,,,,,,,,,,,,,,,,,,93NC,001,2023_Sep_01_1324,ExactRep-v3-final,2021.2.3,59.89164403526763,
,,,,,,,,18,0,18,0,,,,,,,,,,,,,,,,,,,,,,,,,,,,,,,,,,,,,,,,,,,,,,,,,,,,,1118.9188366000308,None,,,,,,,,,,,,,,,,,,,,,,,,,,,,,,,,,,,animal,40,19,silent,red,1116.9173126000678,None,None,1116.9173126000678,None,,,,,,,,,,,,,,,,,,,,,,,,,,,,,,93NC,001,2023_Sep_01_1324,ExactRep-v3-final,2021.2.3,59.89164403526763,
,,,,,,,,19,0,19,0,,,,,,,,,,,,,,,,,,,,,,,,,,,,,,,,,,,,,,,,,,,,,,,,,,,,,1121.4216825000476,None,,,,,,,,,,,,,,,,,,,,,,,,,,,,,,,,,,,prison,110,20,aloud,blue,1119.4203644000227,None,None,1119.4203644000227,None,,,,,,,,,,,,,,,,,,,,,,,,,,,,,,93NC,001,2023_Sep_01_1324,ExactRep-v3-final,2021.2.3,59.89164403526763,
,,,,,,,,20,0,20,0,,,,,,,,,,,,,,,,,,,,,,,,,,,,,,,,,,,,,,,,,,,,,,,,,,,,,1123.9404920000816,None,,,,,,,,,,,,,,,,,,,,,,,,,,,,,,,,,,,method,90,21,aloud,blue,1121.9265069999965,None,None,1121.9265069999965,None,,,,,,,,,,,,,,,,,,,,,,,,,,,,,,93NC,001,2023_Sep_01_1324,ExactRep-v3-final,2021.2.3,59.89164403526763,
,,,,,,,,21,0,21,0,,,,,,,,,,,,,,,,,,,,,,,,,,,,,,,,,,,,,,,,,,,,,,,,,,,,,1126.4601103999885,None,,,,,,,,,,,,,,,,,,,,,,,,,,,,,,,,,,,flood,3,22,sing,white,1124.4529507000698,None,None,1124.4529507000698,None,,,,,,,,,,,,,,,,,,,,,,,,,,,,,,93NC,001,2023_Sep_01_1324,ExactRep-v3-final,2021.2.3,59.89164403526763,
,,,,,,,,22,0,22,0,,,,,,,,,,,,,,,,,,,,,,,,,,,,,,,,,,,,,,,,,,,,,,,,,,,,,1128.9626417000545,None,,,,,,,,,,,,,,,,,,,,,,,,,,,,,,,,,,,temple,118,23,aloud,blue,1126.9632040000288,None,None,1126.9632040000288,None,,,,,,,,,,,,,,,,,,,,,,,,,,,,,,93NC,001,2023_Sep_01_1324,ExactRep-v3-final,2021.2.3,59.89164403526763,
,,,,,,,,23,0,23,0,,,,,,,,,,,,,,,,,,,,,,,,,,,,,,,,,,,,,,,,,,,,,,,,,,,,,1131.4816005000612,None,,,,,,,,,,,,,,,,,,,,,,,,,,,,,,,,,,,queen,25,24,sing,white,1129.4702910000924,None,None,1129.4702910000924,None,,,,,,,,,,,,,,,,,,,,,,,,,,,,,,93NC,001,2023_Sep_01_1324,ExactRep-v3-final,2021.2.3,59.89164403526763,
,,,,,,,,24,0,24,0,,,,,,,,,,,,,,,,,,,,,,,,,,,,,,,,,,,,,,,,,,,,,,,,,,,,,1134.0007423000643,None,,,,,,,,,,,,,,,,,,,,,,,,,,,,,,,,,,,silence,87,25,aloud,blue,1131.9855890000472,None,None,1131.9855890000472,None,,,,,,,,,,,,,,,,,,,,,,,,,,,,,,93NC,001,2023_Sep_01_1324,ExactRep-v3-final,2021.2.3,59.89164403526763,
,,,,,,,,25,0,25,0,,,,,,,,,,,,,,,,,,,,,,,,,,,,,,,,,,,,,,,,,,,,,,,,,,,,,1136.5033277000766,None,,,,,,,,,,,,,,,,,,,,,,,,,,,,,,,,,,,king,85,26,aloud,blue,1134.5023432000307,None,None,1134.5023432000307,None,,,,,,,,,,,,,,,,,,,,,,,,,,,,,,93NC,001,2023_Sep_01_1324,ExactRep-v3-final,2021.2.3,59.89164403526763,
,,,,,,,,26,0,26,0,,,,,,,,,,,,,,,,,,,,,,,,,,,,,,,,,,,,,,,,,,,,,,,,,,,,,1139.0055078000296,None,,,,,,,,,,,,,,,,,,,,,,,,,,,,,,,,,,,factory,23,27,sing,white,1137.0062965999823,None,None,1137.0062965999823,None,,,,,,,,,,,,,,,,,,,,,,,,,,,,,,93NC,001,2023_Sep_01_1324,ExactRep-v3-final,2021.2.3,59.89164403526763,
,,,,,,,,27,0,27,0,,,,,,,,,,,,,,,,,,,,,,,,,,,,,,,,,,,,,,,,,,,,,,,,,,,,,1141.5245594000444,None,,,,,,,,,,,,,,,,,,,,,,,,,,,,,,,,,,,green,22,28,sing,white,1139.5189869999886,None,None,1139.5189869999886,None,,,,,,,,,,,,,,,,,,,,,,,,,,,,,,93NC,001,2023_Sep_01_1324,ExactRep-v3-final,2021.2.3,59.89164403526763,
,,,,,,,,28,0,28,0,,,,,,,,,,,,,,,,,,,,,,,,,,,,,,,,,,,,,,,,,,,,,,,,,,,,,1144.0275862000417,None,,,,,,,,,,,,,,,,,,,,,,,,,,,,,,,,,,,dress,13,29,sing,white,1142.0251776999794,None,None,1142.0251776999794,None,,,,,,,,,,,,,,,,,,,,,,,,,,,,,,93NC,001,2023_Sep_01_1324,ExactRep-v3-final,2021.2.3,59.89164403526763,
,,,,,,,,29,0,29,0,,,,,,,,,,,,,,,,,,,,,,,,,,,,,,,,,,,,,,,,,,,,,,,,,,,,,1146.5465996999992,None,,,,,,,,,,,,,,,,,,,,,,,,,,,,,,,,,,,health,112,30,aloud,blue,1144.531181700062,None,None,1144.531181700062,None,,,,,,,,,,,,,,,,,,,,,,,,,,,,,,93NC,001,2023_Sep_01_1324,ExactRep-v3-final,2021.2.3,59.89164403526763,
,,,,,,,,30,0,30,0,,,,,,,,,,,,,,,,,,,,,,,,,,,,,,,,,,,,,,,,,,,,,,,,,,,,,1149.065895000007,None,,,,,,,,,,,,,,,,,,,,,,,,,,,,,,,,,,,mother,92,31,aloud,blue,1147.0625566000817,None,None,1147.0625566000817,None,,,,,,,,,,,,,,,,,,,,,,,,,,,,,,93NC,001,2023_Sep_01_1324,ExactRep-v3-final,2021.2.3,59.89164403526763,
,,,,,,,,31,0,31,0,,,,,,,,,,,,,,,,,,,,,,,,,,,,,,,,,,,,,,,,,,,,,,,,,,,,,1151.5846869000234,None,,,,,,,,,,,,,,,,,,,,,,,,,,,,,,,,,,,salary,62,32,silent,red,1149.5801743000047,None,None,1149.5801743000047,None,,,,,,,,,,,,,,,,,,,,,,,,,,,,,,93NC,001,2023_Sep_01_1324,ExactRep-v3-final,2021.2.3,59.89164403526763,
,,,,,,,,32,0,32,0,,,,,,,,,,,,,,,,,,,,,,,,,,,,,,,,,,,,,,,,,,,,,,,,,,,,,1154.0870383000001,None,,,,,,,,,,,,,,,,,,,,,,,,,,,,,,,,,,,chance,18,33,sing,white,1152.0860284999944,None,None,1152.0860284999944,None,,,,,,,,,,,,,,,,,,,,,,,,,,,,,,93NC,001,2023_Sep_01_1324,ExactRep-v3-final,2021.2.3,59.89164403526763,
,,,,,,,,33,0,33,0,,,,,,,,,,,,,,,,,,,,,,,,,,,,,,,,,,,,,,,,,,,,,,,,,,,,,1156.6063827000326,None,,,,,,,,,,,,,,,,,,,,,,,,,,,,,,,,,,,freedom,55,34,silent,red,1154.5953559000045,None,None,1154.5953559000045,None,,,,,,,,,,,,,,,,,,,,,,,,,,,,,,93NC,001,2023_Sep_01_1324,ExactRep-v3-final,2021.2.3,59.89164403526763,
,,,,,,,,34,0,34,0,,,,,,,,,,,,,,,,,,,,,,,,,,,,,,,,,,,,,,,,,,,,,,,,,,,,,1159.1087915999815,None,,,,,,,,,,,,,,,,,,,,,,,,,,,,,,,,,,,engine,56,35,silent,red,1157.1071142000146,None,None,1157.1071142000146,None,,,,,,,,,,,,,,,,,,,,,,,,,,,,,,93NC,001,2023_Sep_01_1324,ExactRep-v3-final,2021.2.3,59.89164403526763,
,,,,,,,,35,0,35,0,,,,,,,,,,,,,,,,,,,,,,,,,,,,,,,,,,,,,,,,,,,,,,,,,,,,,1161.6116918000625,None,,,,,,,,,,,,,,,,,,,,,,,,,,,,,,,,,,,village,37,36,sing,white,1159.6104288999923,None,None,1159.6104288999923,None,,,,,,,,,,,,,,,,,,,,,,,,,,,,,,93NC,001,2023_Sep_01_1324,ExactRep-v3-final,2021.2.3,59.89164403526763,
,,,,,,,,36,0,36,0,,,,,,,,,,,,,,,,,,,,,,,,,,,,,,,,,,,,,,,,,,,,,,,,,,,,,1164.1140805000905,None,,,,,,,,,,,,,,,,,,,,,,,,,,,,,,,,,,,theory,2,37,sing,white,1162.112376700039,None,None,1162.112376700039,None,,,,,,,,,,,,,,,,,,,,,,,,,,,,,,93NC,001,2023_Sep_01_1324,ExactRep-v3-final,2021.2.3,59.89164403526763,
,,,,,,,,37,0,37,0,,,,,,,,,,,,,,,,,,,,,,,,,,,,,,,,,,,,,,,,,,,,,,,,,,,,,1166.616769800079,None,,,,,,,,,,,,,,,,,,,,,,,,,,,,,,,,,,,disease,59,38,silent,red,1164.6147864999948,None,None,1164.6147864999948,None,,,,,,,,,,,,,,,,,,,,,,,,,,,,,,93NC,001,2023_Sep_01_1324,ExactRep-v3-final,2021.2.3,59.89164403526763,
,,,,,,,,38,0,38,0,,,,,,,,,,,,,,,,,,,,,,,,,,,,,,,,,,,,,,,,,,,,,,,,,,,,,1169.135960399988,None,,,,,,,,,,,,,,,,,,,,,,,,,,,,,,,,,,,bottle,100,39,aloud,blue,1167.120432500029,None,None,1167.120432500029,None,,,,,,,,,,,,,,,,,,,,,,,,,,,,,,93NC,001,2023_Sep_01_1324,ExactRep-v3-final,2021.2.3,59.89164403526763,
,,,,,,,,39,0,39,0,,,,,,,,,,,,,,,,,,,,,,,,,,,,,,,,,,,,,,,,,,,,,,,,,,,,,1171.6388593000593,None,,,,,,,,,,,,,,,,,,,,,,,,,,,,,,,,,,,seat,35,40,sing,white,1169.6360918000573,None,None,1169.6360918000573,None,,,,,,,,,,,,,,,,,,,,,,,,,,,,,,93NC,001,2023_Sep_01_1324,ExactRep-v3-final,2021.2.3,59.89164403526763,
,,,,,,,,40,0,40,0,,,,,,,,,,,,,,,,,,,,,,,,,,,,,,,,,,,,,,,,,,,,,,,,,,,,,1174.142579199979,None,,,,,,,,,,,,,,,,,,,,,,,,,,,,,,,,,,,maiden,106,41,aloud,blue,1172.1387179000303,None,None,1172.1387179000303,None,,,,,,,,,,,,,,,,,,,,,,,,,,,,,,93NC,001,2023_Sep_01_1324,ExactRep-v3-final,2021.2.3,59.89164403526763,
,,,,,,,,41,0,41,0,,,,,,,,,,,,,,,,,,,,,,,,,,,,,,,,,,,,,,,,,,,,,,,,,,,,,1176.6765253000194,None,,,,,,,,,,,,,,,,,,,,,,,,,,,,,,,,,,,city,94,42,aloud,blue,1174.664791300078,None,None,1174.664791300078,None,,,,,,,,,,,,,,,,,,,,,,,,,,,,,,93NC,001,2023_Sep_01_1324,ExactRep-v3-final,2021.2.3,59.89164403526763,
,,,,,,,,42,0,42,0,,,,,,,,,,,,,,,,,,,,,,,,,,,,,,,,,,,,,,,,,,,,,,,,,,,,,1179.179148800089,None,,,,,,,,,,,,,,,,,,,,,,,,,,,,,,,,,,,doll,34,43,sing,white,1177.1771446000785,None,None,1177.1771446000785,None,,,,,,,,,,,,,,,,,,,,,,,,,,,,,,93NC,001,2023_Sep_01_1324,ExactRep-v3-final,2021.2.3,59.89164403526763,
,,,,,,,,43,0,43,0,,,,,,,,,,,,,,,,,,,,,,,,,,,,,,,,,,,,,,,,,,,,,,,,,,,,,1181.698711300036,None,,,,,,,,,,,,,,,,,,,,,,,,,,,,,,,,,,,table,42,44,silent,red,1179.684334999998,None,None,1179.684334999998,None,,,,,,,,,,,,,,,,,,,,,,,,,,,,,,93NC,001,2023_Sep_01_1324,ExactRep-v3-final,2021.2.3,59.89164403526763,
,,,,,,,,44,0,44,0,,,,,,,,,,,,,,,,,,,,,,,,,,,,,,,,,,,,,,,,,,,,,,,,,,,,,1184.200871200068,None,,,,,,,,,,,,,,,,,,,,,,,,,,,,,,,,,,,hotel,6,45,sing,white,1182.1987723000348,None,None,1182.1987723000348,None,,,,,,,,,,,,,,,,,,,,,,,,,,,,,,93NC,001,2023_Sep_01_1324,ExactRep-v3-final,2021.2.3,59.89164403526763,
,,,,,,,,45,0,45,0,,,,,,,,,,,,,,,,,,,,,,,,,,,,,,,,,,,,,,,,,,,,,,,,,,,,,1186.7030170999933,None,,,,,,,,,,,,,,,,,,,,,,,,,,,,,,,,,,,life,77,46,silent,red,1184.7034955000272,None,None,1184.7034955000272,None,,,,,,,,,,,,,,,,,,,,,,,,,,,,,,93NC,001,2023_Sep_01_1324,ExactRep-v3-final,2021.2.3,59.89164403526763,
,,,,,,,,46,0,46,0,,,,,,,,,,,,,,,,,,,,,,,,,,,,,,,,,,,,,,,,,,,,,,,,,,,,,1189.2056586000836,None,,,,,,,,,,,,,,,,,,,,,,,,,,,,,,,,,,,metal,81,47,aloud,blue,1187.2060584999854,None,None,1187.2060584999854,None,,,,,,,,,,,,,,,,,,,,,,,,,,,,,,93NC,001,2023_Sep_01_1324,ExactRep-v3-final,2021.2.3,59.89164403526763,
,,,,,,,,47,0,47,0,,,,,,,,,,,,,,,,,,,,,,,,,,,,,,,,,,,,,,,,,,,,,,,,,,,,,1191.708373200032,None,,,,,,,,,,,,,,,,,,,,,,,,,,,,,,,,,,,body,89,48,aloud,blue,1189.7066500000656,None,None,1189.7066500000656,None,,,,,,,,,,,,,,,,,,,,,,,,,,,,,,93NC,001,2023_Sep_01_1324,ExactRep-v3-final,2021.2.3,59.89164403526763,
,,,,,,,,48,0,48,0,,,,,,,,,,,,,,,,,,,,,,,,,,,,,,,,,,,,,,,,,,,,,,,,,,,,,1194.210655300063,None,,,,,,,,,,,,,,,,,,,,,,,,,,,,,,,,,,,amount,65,49,silent,red,1192.2104891000781,None,None,1192.2104891000781,None,,,,,,,,,,,,,,,,,,,,,,,,,,,,,,93NC,001,2023_Sep_01_1324,ExactRep-v3-final,2021.2.3,59.89164403526763,
,,,,,,,,49,0,49,0,,,,,,,,,,,,,,,,,,,,,,,,,,,,,,,,,,,,,,,,,,,,,,,,,,,,,1196.7135496999836,None,,,,,,,,,,,,,,,,,,,,,,,,,,,,,,,,,,,lip,45,50,silent,red,1194.7115625999868,None,None,1194.7115625999868,None,,,,,,,,,,,,,,,,,,,,,,,,,,,,,,93NC,001,2023_Sep_01_1324,ExactRep-v3-final,2021.2.3,59.89164403526763,
,,,,,,,,50,0,50,0,,,,,,,,,,,,,,,,,,,,,,,,,,,,,,,,,,,,,,,,,,,,,,,,,,,,,1199.2321770000271,None,,,,,,,,,,,,,,,,,,,,,,,,,,,,,,,,,,,quality,31,51,sing,white,1197.2176123000681,None,None,1197.2176123000681,None,,,,,,,,,,,,,,,,,,,,,,,,,,,,,,93NC,001,2023_Sep_01_1324,ExactRep-v3-final,2021.2.3,59.89164403526763,
,,,,,,,,51,0,51,0,,,,,,,,,,,,,,,,,,,,,,,,,,,,,,,,,,,,,,,,,,,,,,,,,,,,,1201.7350285000866,None,,,,,,,,,,,,,,,,,,,,,,,,,,,,,,,,,,,dawn,72,52,silent,red,1199.7350874000695,None,None,1199.7350874000695,None,,,,,,,,,,,,,,,,,,,,,,,,,,,,,,93NC,001,2023_Sep_01_1324,ExactRep-v3-final,2021.2.3,59.89164403526763,
,,,,,,,,52,0,52,0,,,,,,,,,,,,,,,,,,,,,,,,,,,,,,,,,,,,,,,,,,,,,,,,,,,,,1204.2374771999894,None,,,,,,,,,,,,,,,,,,,,,,,,,,,,,,,,,,,virtue,86,53,aloud,blue,1202.2358969000634,None,None,1202.2358969000634,None,,,,,,,,,,,,,,,,,,,,,,,,,,,,,,93NC,001,2023_Sep_01_1324,ExactRep-v3-final,2021.2.3,59.89164403526763,
,,,,,,,,53,0,53,0,,,,,,,,,,,,,,,,,,,,,,,,,,,,,,,,,,,,,,,,,,,,,,,,,,,,,1206.7401437000372,None,,,,,,,,,,,,,,,,,,,,,,,,,,,,,,,,,,,avenue,15,54,sing,white,1204.738309700042,None,None,1204.738309700042,None,,,,,,,,,,,,,,,,,,,,,,,,,,,,,,93NC,001,2023_Sep_01_1324,ExactRep-v3-final,2021.2.3,59.89164403526763,
,,,,,,,,54,0,54,0,,,,,,,,,,,,,,,,,,,,,,,,,,,,,,,,,,,,,,,,,,,,,,,,,,,,,1209.2422375000315,None,,,,,,,,,,,,,,,,,,,,,,,,,,,,,,,,,,,leader,46,55,silent,red,1207.24263350002,None,None,1207.24263350002,None,,,,,,,,,,,,,,,,,,,,,,,,,,,,,,93NC,001,2023_Sep_01_1324,ExactRep-v3-final,2021.2.3,59.89164403526763,
,,,,,,,,55,0,55,0,,,,,,,,,,,,,,,,,,,,,,,,,,,,,,,,,,,,,,,,,,,,,,,,,,,,,1211.745024300064,None,,,,,,,,,,,,,,,,,,,,,,,,,,,,,,,,,,,ship,83,56,aloud,blue,1209.7432961000595,None,None,1209.7432961000595,None,,,,,,,,,,,,,,,,,,,,,,,,,,,,,,93NC,001,2023_Sep_01_1324,ExactRep-v3-final,2021.2.3,59.89164403526763,
,,,,,,,,56,0,56,0,,,,,,,,,,,,,,,,,,,,,,,,,,,,,,,,,,,,,,,,,,,,,,,,,,,,,1214.2472569000674,None,,,,,,,,,,,,,,,,,,,,,,,,,,,,,,,,,,,flower,28,57,sing,white,1212.2470794999972,None,None,1212.2470794999972,None,,,,,,,,,,,,,,,,,,,,,,,,,,,,,,93NC,001,2023_Sep_01_1324,ExactRep-v3-final,2021.2.3,59.89164403526763,
,,,,,,,,57,0,57,0,,,,,,,,,,,,,,,,,,,,,,,,,,,,,,,,,,,,,,,,,,,,,,,,,,,,,1216.7501654999796,None,,,,,,,,,,,,,,,,,,,,,,,,,,,,,,,,,,,tree,5,58,sing,white,1214.7483540000394,None,None,1214.7483540000394,None,,,,,,,,,,,,,,,,,,,,,,,,,,,,,,93NC,001,2023_Sep_01_1324,ExactRep-v3-final,2021.2.3,59.89164403526763,
,,,,,,,,58,0,58,0,,,,,,,,,,,,,,,,,,,,,,,,,,,,,,,,,,,,,,,,,,,,,,,,,,,,,1219.2691952000605,None,,,,,,,,,,,,,,,,,,,,,,,,,,,,,,,,,,,world,70,59,silent,red,1217.2539515000535,None,None,1217.2539515000535,None,,,,,,,,,,,,,,,,,,,,,,,,,,,,,,93NC,001,2023_Sep_01_1324,ExactRep-v3-final,2021.2.3,59.89164403526763,
,,,,,,,,59,0,59,0,,,,,,,,,,,,,,,,,,,,,,,,,,,,,,,,,,,,,,,,,,,,,,,,,,,,,1221.7716867000563,None,,,,,,,,,,,,,,,,,,,,,,,,,,,,,,,,,,,lord,17,60,sing,white,1219.7696055000415,None,None,1219.7696055000415,None,,,,,,,,,,,,,,,,,,,,,,,,,,,,,,93NC,001,2023_Sep_01_1324,ExactRep-v3-final,2021.2.3,59.89164403526763,
,,,,,,,,60,0,60,0,,,,,,,,,,,,,,,,,,,,,,,,,,,,,,,,,,,,,,,,,,,,,,,,,,,,,1224.274627899984,None,,,,,,,,,,,,,,,,,,,,,,,,,,,,,,,,,,,moment,32,61,sing,white,1222.2730563000077,None,None,1222.2730563000077,None,,,,,,,,,,,,,,,,,,,,,,,,,,,,,,93NC,001,2023_Sep_01_1324,ExactRep-v3-final,2021.2.3,59.89164403526763,
,,,,,,,,61,0,61,0,,,,,,,,,,,,,,,,,,,,,,,,,,,,,,,,,,,,,,,,,,,,,,,,,,,,,1226.7766370000318,None,,,,,,,,,,,,,,,,,,,,,,,,,,,,,,,,,,,hide,107,62,aloud,blue,1224.776948200073,None,None,1224.776948200073,None,,,,,,,,,,,,,,,,,,,,,,,,,,,,,,93NC,001,2023_Sep_01_1324,ExactRep-v3-final,2021.2.3,59.89164403526763,
,,,,,,,,62,0,62,0,,,,,,,,,,,,,,,,,,,,,,,,,,,,,,,,,,,,,,,,,,,,,,,,,,,,,1229.2790245000506,None,,,,,,,,,,,,,,,,,,,,,,,,,,,,,,,,,,,car,57,63,silent,red,1227.2774768000236,None,None,1227.2774768000236,None,,,,,,,,,,,,,,,,,,,,,,,,,,,,,,93NC,001,2023_Sep_01_1324,ExactRep-v3-final,2021.2.3,59.89164403526763,
,,,,,,,,63,0,63,0,,,,,,,,,,,,,,,,,,,,,,,,,,,,,,,,,,,,,,,,,,,,,,,,,,,,,1231.7815246999962,None,,,,,,,,,,,,,,,,,,,,,,,,,,,,,,,,,,,law,68,64,silent,red,1229.7800640000496,None,None,1229.7800640000496,None,,,,,,,,,,,,,,,,,,,,,,,,,,,,,,93NC,001,2023_Sep_01_1324,ExactRep-v3-final,2021.2.3,59.89164403526763,
,,,,,,,,64,0,64,0,,,,,,,,,,,,,,,,,,,,,,,,,,,,,,,,,,,,,,,,,,,,,,,,,,,,,1234.2844003000064,None,,,,,,,,,,,,,,,,,,,,,,,,,,,,,,,,,,,house,80,65,aloud,blue,1232.281655000057,None,None,1232.281655000057,None,,,,,,,,,,,,,,,,,,,,,,,,,,,,,,93NC,001,2023_Sep_01_1324,ExactRep-v3-final,2021.2.3,59.89164403526763,
,,,,,,,,65,0,65,0,,,,,,,,,,,,,,,,,,,,,,,,,,,,,,,,,,,,,,,,,,,,,,,,,,,,,1236.787185400026,None,,,,,,,,,,,,,,,,,,,,,,,,,,,,,,,,,,,gift,58,66,silent,red,1234.7868548000697,None,None,1234.7868548000697,None,,,,,,,,,,,,,,,,,,,,,,,,,,,,,,93NC,001,2023_Sep_01_1324,ExactRep-v3-final,2021.2.3,59.89164403526763,
,,,,,,,,66,0,66,0,,,,,,,,,,,,,,,,,,,,,,,,,,,,,,,,,,,,,,,,,,,,,,,,,,,,,1239.3058395000407,None,,,,,,,,,,,,,,,,,,,,,,,,,,,,,,,,,,,master,36,67,sing,white,1237.2913287000265,None,None,1237.2913287000265,None,,,,,,,,,,,,,,,,,,,,,,,,,,,,,,93NC,001,2023_Sep_01_1324,ExactRep-v3-final,2021.2.3,59.89164403526763,
,,,,,,,,67,0,67,0,,,,,,,,,,,,,,,,,,,,,,,,,,,,,,,,,,,,,,,,,,,,,,,,,,,,,1241.8081801000517,None,,,,,,,,,,,,,,,,,,,,,,,,,,,,,,,,,,,crime,74,68,silent,red,1239.8064313000068,None,None,1239.8064313000068,None,,,,,,,,,,,,,,,,,,,,,,,,,,,,,,93NC,001,2023_Sep_01_1324,ExactRep-v3-final,2021.2.3,59.89164403526763,
,,,,,,,,68,0,68,0,,,,,,,,,,,,,,,,,,,,,,,,,,,,,,,,,,,,,,,,,,,,,,,,,,,,,1244.3110097000608,None,,,,,,,,,,,,,,,,,,,,,,,,,,,,,,,,,,,custom,9,69,sing,white,1242.3093663000036,None,None,1242.3093663000036,None,,,,,,,,,,,,,,,,,,,,,,,,,,,,,,93NC,001,2023_Sep_01_1324,ExactRep-v3-final,2021.2.3,59.89164403526763,
,,,,,,,,69,0,69,0,,,,,,,,,,,,,,,,,,,,,,,,,,,,,,,,,,,,,,,,,,,,,,,,,,,,,1246.8302792999893,None,,,,,,,,,,,,,,,,,,,,,,,,,,,,,,,,,,,pupil,8,70,sing,white,1244.8149565000786,None,None,1244.8149565000786,None,,,,,,,,,,,,,,,,,,,,,,,,,,,,,,93NC,001,2023_Sep_01_1324,ExactRep-v3-final,2021.2.3,59.89164403526763,
,,,,,,,,70,0,70,0,,,,,,,,,,,,,,,,,,,,,,,,,,,,,,,,,,,,,,,,,,,,,,,,,,,,,1249.3326857000357,None,,,,,,,,,,,,,,,,,,,,,,,,,,,,,,,,,,,glory,73,71,silent,red,1247.3330850000493,None,None,1247.3330850000493,None,,,,,,,,,,,,,,,,,,,,,,,,,,,,,,93NC,001,2023_Sep_01_1324,ExactRep-v3-final,2021.2.3,59.89164403526763,
,,,,,,,,71,0,71,0,,,,,,,,,,,,,,,,,,,,,,,,,,,,,,,,,,,,,,,,,,,,,,,,,,,,,1251.8350163000869,None,,,,,,,,,,,,,,,,,,,,,,,,,,,,,,,,,,,stone,43,72,silent,red,1249.834390400094,None,None,1249.834390400094,None,,,,,,,,,,,,,,,,,,,,,,,,,,,,,,93NC,001,2023_Sep_01_1324,ExactRep-v3-final,2021.2.3,59.89164403526763,
,,,,,,,,72,0,72,0,,,,,,,,,,,,,,,,,,,,,,,,,,,,,,,,,,,,,,,,,,,,,,,,,,,,,1254.3374086000258,None,,,,,,,,,,,,,,,,,,,,,,,,,,,,,,,,,,,breast,12,73,sing,white,1252.3354594000848,None,None,1252.3354594000848,None,,,,,,,,,,,,,,,,,,,,,,,,,,,,,,93NC,001,2023_Sep_01_1324,ExactRep-v3-final,2021.2.3,59.89164403526763,
,,,,,,,,73,0,73,0,,,,,,,,,,,,,,,,,,,,,,,,,,,,,,,,,,,,,,,,,,,,,,,,,,,,,1256.840003099991,None,,,,,,,,,,,,,,,,,,,,,,,,,,,,,,,,,,,month,41,74,silent,red,1254.8382543000625,None,None,1254.8382543000625,None,,,,,,,,,,,,,,,,,,,,,,,,,,,,,,93NC,001,2023_Sep_01_1324,ExactRep-v3-final,2021.2.3,59.89164403526763,
,,,,,,,,74,0,74,0,,,,,,,,,,,,,,,,,,,,,,,,,,,,,,,,,,,,,,,,,,,,,,,,,,,,,1259.3424272000557,None,,,,,,,,,,,,,,,,,,,,,,,,,,,,,,,,,,,horse,7,75,sing,white,1257.3413616000907,None,None,1257.3413616000907,None,,,,,,,,,,,,,,,,,,,,,,,,,,,,,,93NC,001,2023_Sep_01_1324,ExactRep-v3-final,2021.2.3,59.89164403526763,
,,,,,,,,75,0,75,0,,,,,,,,,,,,,,,,,,,,,,,,,,,,,,,,,,,,,,,,,,,,,,,,,,,,,1261.8450149000855,None,,,,,,,,,,,,,,,,,,,,,,,,,,,,,,,,,,,book,29,76,sing,white,1259.8433717000298,None,None,1259.8433717000298,None,,,,,,,,,,,,,,,,,,,,,,,,,,,,,,93NC,001,2023_Sep_01_1324,ExactRep-v3-final,2021.2.3,59.89164403526763,
,,,,,,,,76,0,76,0,,,,,,,,,,,,,,,,,,,,,,,,,,,,,,,,,,,,,,,,,,,,,,,,,,,,,1264.3477791000623,None,,,,,,,,,,,,,,,,,,,,,,,,,,,,,,,,,,,cabin,66,77,silent,red,1262.3464448000304,None,None,1262.3464448000304,None,,,,,,,,,,,,,,,,,,,,,,,,,,,,,,93NC,001,2023_Sep_01_1324,ExactRep-v3-final,2021.2.3,59.89164403526763,
,,,,,,,,77,0,77,0,,,,,,,,,,,,,,,,,,,,,,,,,,,,,,,,,,,,,,,,,,,,,,,,,,,,,1266.8668403000338,None,,,,,,,,,,,,,,,,,,,,,,,,,,,,,,,,,,,flesh,104,78,aloud,blue,1264.8516419000225,None,None,1264.8516419000225,None,,,,,,,,,,,,,,,,,,,,,,,,,,,,,,93NC,001,2023_Sep_01_1324,ExactRep-v3-final,2021.2.3,59.89164403526763,
,,,,,,,,78,0,78,0,,,,,,,,,,,,,,,,,,,,,,,,,,,,,,,,,,,,,,,,,,,,,,,,,,,,,1269.3692203999963,None,,,,,,,,,,,,,,,,,,,,,,,,,,,,,,,,,,,beast,102,79,aloud,blue,1267.367047399981,None,None,1267.367047399981,None,,,,,,,,,,,,,,,,,,,,,,,,,,,,,,93NC,001,2023_Sep_01_1324,ExactRep-v3-final,2021.2.3,59.89164403526763,
,,,,,,,,79,0,79,0,,,,,,,,,,,,,,,,,,,,,,,,,,,,,,,,,,,,,,,,,,,,,,,,,,,,,1271.8717246000888,None,,,,,,,,,,,,,,,,,,,,,,,,,,,,,,,,,,,humour,76,80,silent,red,1269.8701024000766,None,None,1269.8701024000766,None,,,,,,,,,,,,,,,,,,,,,,,,,,,,,,93NC,001,2023_Sep_01_1324,ExactRep-v3-final,2021.2.3,59.89164403526763,
,,,,,,,,80,0,80,0,,,,,,,,,,,,,,,,,,,,,,,,,,,,,,,,,,,,,,,,,,,,,,,,,,,,,1274.3908663000911,None,,,,,,,,,,,,,,,,,,,,,,,,,,,,,,,,,,,meat,93,81,aloud,blue,1272.3780585000059,None,None,1272.3780585000059,None,,,,,,,,,,,,,,,,,,,,,,,,,,,,,,93NC,001,2023_Sep_01_1324,ExactRep-v3-final,2021.2.3,59.89164403526763,
,,,,,,,,81,0,81,0,,,,,,,,,,,,,,,,,,,,,,,,,,,,,,,,,,,,,,,,,,,,,,,,,,,,,1276.8932196000824,None,,,,,,,,,,,,,,,,,,,,,,,,,,,,,,,,,,,door,60,82,silent,red,1274.8914506,None,None,1274.8914506,None,,,,,,,,,,,,,,,,,,,,,,,,,,,,,,93NC,001,2023_Sep_01_1324,ExactRep-v3-final,2021.2.3,59.89164403526763,
,,,,,,,,82,0,82,0,,,,,,,,,,,,,,,,,,,,,,,,,,,,,,,,,,,,,,,,,,,,,,,,,,,,,1279.3955828000326,None,,,,,,,,,,,,,,,,,,,,,,,,,,,,,,,,,,,person,114,83,aloud,blue,1277.3942017999943,None,None,1277.3942017999943,None,,,,,,,,,,,,,,,,,,,,,,,,,,,,,,93NC,001,2023_Sep_01_1324,ExactRep-v3-final,2021.2.3,59.89164403526763,
,,,,,,,,83,0,83,0,,,,,,,,,,,,,,,,,,,,,,,,,,,,,,,,,,,,,,,,,,,,,,,,,,,,,1281.898213700042,None,,,,,,,,,,,,,,,,,,,,,,,,,,,,,,,,,,,hope,101,84,aloud,blue,1279.8968766999897,None,None,1279.8968766999897,None,,,,,,,,,,,,,,,,,,,,,,,,,,,,,,93NC,001,2023_Sep_01_1324,ExactRep-v3-final,2021.2.3,59.89164403526763,
,,,,,,,,84,0,84,0,,,,,,,,,,,,,,,,,,,,,,,,,,,,,,,,,,,,,,,,,,,,,,,,,,,,,1284.4178895000368,None,,,,,,,,,,,,,,,,,,,,,,,,,,,,,,,,,,,river,20,85,sing,white,1282.4130613000598,None,None,1282.4130613000598,None,,,,,,,,,,,,,,,,,,,,,,,,,,,,,,93NC,001,2023_Sep_01_1324,ExactRep-v3-final,2021.2.3,59.89164403526763,
,,,,,,,,85,0,85,0,,,,,,,,,,,,,,,,,,,,,,,,,,,,,,,,,,,,,,,,,,,,,,,,,,,,,1286.9200454000384,None,,,,,,,,,,,,,,,,,,,,,,,,,,,,,,,,,,,board,113,86,aloud,blue,1284.9180529000005,None,None,1284.9180529000005,None,,,,,,,,,,,,,,,,,,,,,,,,,,,,,,93NC,001,2023_Sep_01_1324,ExactRep-v3-final,2021.2.3,59.89164403526763,
,,,,,,,,86,0,86,0,,,,,,,,,,,,,,,,,,,,,,,,,,,,,,,,,,,,,,,,,,,,,,,,,,,,,1289.422364099999,None,,,,,,,,,,,,,,,,,,,,,,,,,,,,,,,,,,,thought,24,87,sing,white,1287.4211322000483,None,None,1287.4211322000483,None,,,,,,,,,,,,,,,,,,,,,,,,,,,,,,93NC,001,2023_Sep_01_1324,ExactRep-v3-final,2021.2.3,59.89164403526763,
,,,,,,,,87,0,87,0,,,,,,,,,,,,,,,,,,,,,,,,,,,,,,,,,,,,,,,,,,,,,,,,,,,,,1291.9251219000435,None,,,,,,,,,,,,,,,,,,,,,,,,,,,,,,,,,,,girl,33,88,sing,white,1289.923345200019,None,None,1289.923345200019,None,,,,,,,,,,,,,,,,,,,,,,,,,,,,,,93NC,001,2023_Sep_01_1324,ExactRep-v3-final,2021.2.3,59.89164403526763,
,,,,,,,,88,0,88,0,,,,,,,,,,,,,,,,,,,,,,,,,,,,,,,,,,,,,,,,,,,,,,,,,,,,,1294.4280823000008,None,,,,,,,,,,,,,,,,,,,,,,,,,,,,,,,,,,,dust,54,89,silent,red,1292.4257705000928,None,None,1292.4257705000928,None,,,,,,,,,,,,,,,,,,,,,,,,,,,,,,93NC,001,2023_Sep_01_1324,ExactRep-v3-final,2021.2.3,59.89164403526763,
,,,,,,,,89,0,89,0,,,,,,,,,,,,,,,,,,,,,,,,,,,,,,,,,,,,,,,,,,,,,,,,,,,,,1296.930383900064,None,,,,,,,,,,,,,,,,,,,,,,,,,,,,,,,,,,,murder,75,90,silent,red,1294.9288615999976,None,None,1294.9288615999976,None,,,,,,,,,,,,,,,,,,,,,,,,,,,,,,93NC,001,2023_Sep_01_1324,ExactRep-v3-final,2021.2.3,59.89164403526763,
,,,,,,,,90,0,90,0,,,,,,,,,,,,,,,,,,,,,,,,,,,,,,,,,,,,,,,,,,,,,,,,,,,,,1299.4491928999778,None,,,,,,,,,,,,,,,,,,,,,,,,,,,,,,,,,,,effort,52,91,silent,red,1297.4344477000413,None,None,1297.4344477000413,None,,,,,,,,,,,,,,,,,,,,,,,,,,,,,,93NC,001,2023_Sep_01_1324,ExactRep-v3-final,2021.2.3,59.89164403526763,
,,,,,,,,91,0,91,0,,,,,,,,,,,,,,,,,,,,,,,,,,,,,,,,,,,,,,,,,,,,,,,,,,,,,1301.952184200054,None,,,,,,,,,,,,,,,,,,,,,,,,,,,,,,,,,,,vessel,61,92,silent,red,1299.9495752999792,None,None,1299.9495752999792,None,,,,,,,,,,,,,,,,,,,,,,,,,,,,,,93NC,001,2023_Sep_01_1324,ExactRep-v3-final,2021.2.3,59.89164403526763,
,,,,,,,,92,0,92,0,,,,,,,,,,,,,,,,,,,,,,,,,,,,,,,,,,,,,,,,,,,,,,,,,,,,,1304.4546789000742,None,,,,,,,,,,,,,,,,,,,,,,,,,,,,,,,,,,,cash,10,93,sing,white,1302.4547043000348,None,None,1302.4547043000348,None,,,,,,,,,,,,,,,,,,,,,,,,,,,,,,93NC,001,2023_Sep_01_1324,ExactRep-v3-final,2021.2.3,59.89164403526763,
,,,,,,,,93,0,93,0,,,,,,,,,,,,,,,,,,,,,,,,,,,,,,,,,,,,,,,,,,,,,,,,,,,,,1306.9735285000643,None,,,,,,,,,,,,,,,,,,,,,,,,,,,,,,,,,,,heaven,79,94,sing,white,1304.9701113000046,None,None,1304.9701113000046,None,,,,,,,,,,,,,,,,,,,,,,,,,,,,,,93NC,001,2023_Sep_01_1324,ExactRep-v3-final,2021.2.3,59.89164403526763,
,,,,,,,,94,0,94,0,,,,,,,,,,,,,,,,,,,,,,,,,,,,,,,,,,,,,,,,,,,,,,,,,,,,,1309.492440400063,None,,,,,,,,,,,,,,,,,,,,,,,,,,,,,,,,,,,charm,1,95,sing,white,1307.4783302000724,None,None,1307.4783302000724,None,,,,,,,,,,,,,,,,,,,,,,,,,,,,,,93NC,001,2023_Sep_01_1324,ExactRep-v3-final,2021.2.3,59.89164403526763,
,,,,,,,,95,0,95,0,,,,,,,,,,,,,,,,,,,,,,,,,,,,,,,,,,,,,,,,,,,,,,,,,,,,,1311.9960669000866,None,,,,,,,,,,,,,,,,,,,,,,,,,,,,,,,,,,,window,44,96,silent,red,1309.9934409999987,None,None,1309.9934409999987,None,,,,,,,,,,,,,,,,,,,,,,,,,,,,,,93NC,001,2023_Sep_01_1324,ExactRep-v3-final,2021.2.3,59.89164403526763,
,,,,,,,,96,0,96,0,,,,,,,,,,,,,,,,,,,,,,,,,,,,,,,,,,,,,,,,,,,,,,,,,,,,,1314.4979175000917,None,,,,,,,,,,,,,,,,,,,,,,,,,,,,,,,,,,,string,50,97,silent,red,1312.49726990005,None,None,1312.49726990005,None,,,,,,,,,,,,,,,,,,,,,,,,,,,,,,93NC,001,2023_Sep_01_1324,ExactRep-v3-final,2021.2.3,59.89164403526763,
,,,,,,,,97,0,97,0,,,,,,,,,,,,,,,,,,,,,,,,,,,,,,,,,,,,,,,,,,,,,,,,,,,,,1317.0166271000635,None,,,,,,,,,,,,,,,,,,,,,,,,,,,,,,,,,,,mind,48,98,silent,red,1315.0008110000053,None,None,1315.0008110000053,None,,,,,,,,,,,,,,,,,,,,,,,,,,,,,,93NC,001,2023_Sep_01_1324,ExactRep-v3-final,2021.2.3,59.89164403526763,
,,,,,,,,98,0,98,0,,,,,,,,,,,,,,,,,,,,,,,,,,,,,,,,,,,,,,,,,,,,,,,,,,,,,1319.5195690999972,None,,,,,,,,,,,,,,,,,,,,,,,,,,,,,,,,,,,chief,98,99,aloud,blue,1317.5171656000894,None,None,1317.5171656000894,None,,,,,,,,,,,,,,,,,,,,,,,,,,,,,,93NC,001,2023_Sep_01_1324,ExactRep-v3-final,2021.2.3,59.89164403526763,
,,,,,,,,99,0,99,0,,,,,,,,,,,,,,,,,,,,,,,,,,,,,,,,,,,,,,,,,,,,,,,,,,,,,1322.0216295000864,None,,,,,,,,,,,,,,,,,,,,,,,,,,,,,,,,,,,weapon,84,100,aloud,blue,1320.0212918000761,None,None,1320.0212918000761,None,,,,,,,,,,,,,,,,,,,,,,,,,,,,,,93NC,001,2023_Sep_01_1324,ExactRep-v3-final,2021.2.3,59.89164403526763,
,,,,,,,,100,0,100,0,,,,,,,,,,,,,,,,,,,,,,,,,,,,,,,,,,,,,,,,,,,,,,,,,,,,,1324.5243827999802,None,,,,,,,,,,,,,,,,,,,,,,,,,,,,,,,,,,,fact,71,101,silent,red,1322.5222214000532,None,None,1322.5222214000532,None,,,,,,,,,,,,,,,,,,,,,,,,,,,,,,93NC,001,2023_Sep_01_1324,ExactRep-v3-final,2021.2.3,59.89164403526763,
,,,,,,,,101,0,101,0,,,,,,,,,,,,,,,,,,,,,,,,,,,,,,,,,,,,,,,,,,,,,,,,,,,,,1327.0435839000857,None,,,,,,,,,,,,,,,,,,,,,,,,,,,,,,,,,,,sugar,63,102,silent,red,1325.0282807000913,None,None,1325.0282807000913,None,,,,,,,,,,,,,,,,,,,,,,,,,,,,,,93NC,001,2023_Sep_01_1324,ExactRep-v3-final,2021.2.3,59.89164403526763,
,,,,,,,,102,0,102,0,,,,,,,,,,,,,,,,,,,,,,,,,,,,,,,,,,,,,,,,,,,,,,,,,,,,,1329.5626238000114,None,,,,,,,,,,,,,,,,,,,,,,,,,,,,,,,,,,,butter,82,103,aloud,blue,1327.549066800042,None,None,1327.549066800042,None,,,,,,,,,,,,,,,,,,,,,,,,,,,,,,93NC,001,2023_Sep_01_1324,ExactRep-v3-final,2021.2.3,59.89164403526763,
,,,,,,,,103,0,103,0,,,,,,,,,,,,,,,,,,,,,,,,,,,,,,,,,,,,,,,,,,,,,,,,,,,,,1332.0649792000186,None,,,,,,,,,,,,,,,,,,,,,,,,,,,,,,,,,,,boulder,64,104,silent,red,1330.0630049000029,None,None,1330.0630049000029,None,,,,,,,,,,,,,,,,,,,,,,,,,,,,,,93NC,001,2023_Sep_01_1324,ExactRep-v3-final,2021.2.3,59.89164403526763,
,,,,,,,,104,0,104,0,,,,,,,,,,,,,,,,,,,,,,,,,,,,,,,,,,,,,,,,,,,,,,,,,,,,,1334.5674944000784,None,,,,,,,,,,,,,,,,,,,,,,,,,,,,,,,,,,,forest,4,105,sing,white,1332.566050500027,None,None,1332.566050500027,None,,,,,,,,,,,,,,,,,,,,,,,,,,,,,,93NC,001,2023_Sep_01_1324,ExactRep-v3-final,2021.2.3,59.89164403526763,
,,,,,,,,105,0,105,0,,,,,,,,,,,,,,,,,,,,,,,,,,,,,,,,,,,,,,,,,,,,,,,,,,,,,1337.0700004000682,None,,,,,,,,,,,,,,,,,,,,,,,,,,,,,,,,,,,storm,119,106,aloud,blue,1335.0684588000877,None,None,1335.0684588000877,None,,,,,,,,,,,,,,,,,,,,,,,,,,,,,,93NC,001,2023_Sep_01_1324,ExactRep-v3-final,2021.2.3,59.89164403526763,
,,,,,,,,106,0,106,0,,,,,,,,,,,,,,,,,,,,,,,,,,,,,,,,,,,,,,,,,,,,,,,,,,,,,1339.5725128999911,None,,,,,,,,,,,,,,,,,,,,,,,,,,,,,,,,,,,star,49,107,silent,red,1337.5714408000931,None,None,1337.5714408000931,None,,,,,,,,,,,,,,,,,,,,,,,,,,,,,,93NC,001,2023_Sep_01_1324,ExactRep-v3-final,2021.2.3,59.89164403526763,
,,,,,,,,107,0,107,0,,,,,,,,,,,,,,,,,,,,,,,,,,,,,,,,,,,,,,,,,,,,,,,,,,,,,1342.0749788000248,None,,,,,,,,,,,,,,,,,,,,,,,,,,,,,,,,,,,deed,111,108,aloud,blue,1340.0734618999995,None,None,1340.0734618999995,None,,,,,,,,,,,,,,,,,,,,,,,,,,,,,,93NC,001,2023_Sep_01_1324,ExactRep-v3-final,2021.2.3,59.89164403526763,
,,,,,,,,108,0,108,0,,,,,,,,,,,,,,,,,,,,,,,,,,,,,,,,,,,,,,,,,,,,,,,,,,,,,1344.578097700025,None,,,,,,,,,,,,,,,,,,,,,,,,,,,,,,,,,,,anger,53,109,silent,red,1342.576070100069,None,None,1342.576070100069,None,,,,,,,,,,,,,,,,,,,,,,,,,,,,,,93NC,001,2023_Sep_01_1324,ExactRep-v3-final,2021.2.3,59.89164403526763,
,,,,,,,,109,0,109,0,,,,,,,,,,,,,,,,,,,,,,,,,,,,,,,,,,,,,,,,,,,,,,,,,,,,,1347.0801261999877,None,,,,,,,,,,,,,,,,,,,,,,,,,,,,,,,,,,,fun,91,110,aloud,blue,1345.0802218000172,None,None,1345.0802218000172,None,,,,,,,,,,,,,,,,,,,,,,,,,,,,,,93NC,001,2023_Sep_01_1324,ExactRep-v3-final,2021.2.3,59.89164403526763,
,,,,,,,,110,0,110,0,,,,,,,,,,,,,,,,,,,,,,,,,,,,,,,,,,,,,,,,,,,,,,,,,,,,,1349.5827399999835,None,,,,,,,,,,,,,,,,,,,,,,,,,,,,,,,,,,,idea,38,111,sing,white,1347.582776300027,None,None,1347.582776300027,None,,,,,,,,,,,,,,,,,,,,,,,,,,,,,,93NC,001,2023_Sep_01_1324,ExactRep-v3-final,2021.2.3,59.89164403526763,
,,,,,,,,111,0,111,0,,,,,,,,,,,,,,,,,,,,,,,,,,,,,,,,,,,,,,,,,,,,,,,,,,,,,1352.1014937000582,None,,,,,,,,,,,,,,,,,,,,,,,,,,,,,,,,,,,justice,108,112,aloud,blue,1350.0983625000808,None,None,1350.0983625000808,None,,,,,,,,,,,,,,,,,,,,,,,,,,,,,,93NC,001,2023_Sep_01_1324,ExactRep-v3-final,2021.2.3,59.89164403526763,
,,,,,,,,112,0,112,0,,,,,,,,,,,,,,,,,,,,,,,,,,,,,,,,,,,,,,,,,,,,,,,,,,,,,1354.621342400089,None,,,,,,,,,,,,,,,,,,,,,,,,,,,,,,,,,,,picture,11,113,sing,white,1352.6076328000054,None,None,1352.6076328000054,None,,,,,,,,,,,,,,,,,,,,,,,,,,,,,,93NC,001,2023_Sep_01_1324,ExactRep-v3-final,2021.2.3,59.89164403526763,
,,,,,,,,113,0,113,0,,,,,,,,,,,,,,,,,,,,,,,,,,,,,,,,,,,,,,,,,,,,,,,,,,,,,1357.1400252000894,None,,,,,,,,,,,,,,,,,,,,,,,,,,,,,,,,,,,boy,97,114,aloud,blue,1355.1254150000168,None,None,1355.1254150000168,None,,,,,,,,,,,,,,,,,,,,,,,,,,,,,,93NC,001,2023_Sep_01_1324,ExactRep-v3-final,2021.2.3,59.89164403526763,
,,,,,,,,114,0,114,0,,,,,,,,,,,,,,,,,,,,,,,,,,,,,,,,,,,,,,,,,,,,,,,,,,,,,1359.659018300008,None,,,,,,,,,,,,,,,,,,,,,,,,,,,,,,,,,,,apple,47,115,silent,red,1357.640534200007,None,None,1357.640534200007,None,,,,,,,,,,,,,,,,,,,,,,,,,,,,,,93NC,001,2023_Sep_01_1324,ExactRep-v3-final,2021.2.3,59.89164403526763,
,,,,,,,,115,0,115,0,,,,,,,,,,,,,,,,,,,,,,,,,,,,,,,,,,,,,,,,,,,,,,,,,,,,,1362.178875099984,None,,,,,,,,,,,,,,,,,,,,,,,,,,,,,,,,,,,owner,88,116,aloud,blue,1360.1646141000092,None,None,1360.1646141000092,None,,,,,,,,,,,,,,,,,,,,,,,,,,,,,,93NC,001,2023_Sep_01_1324,ExactRep-v3-final,2021.2.3,59.89164403526763,
,,,,,,,,116,0,116,0,,,,,,,,,,,,,,,,,,,,,,,,,,,,,,,,,,,,,,,,,,,,,,,,,,,,,1364.680956199998,None,,,,,,,,,,,,,,,,,,,,,,,,,,,,,,,,,,,origin,39,117,silent,red,1362.6788730000844,None,None,1362.6788730000844,None,,,,,,,,,,,,,,,,,,,,,,,,,,,,,,93NC,001,2023_Sep_01_1324,ExactRep-v3-final,2021.2.3,59.89164403526763,
,,,,,,,,117,0,117,0,,,,,,,,,,,,,,,,,,,,,,,,,,,,,,,,,,,,,,,,,,,,,,,,,,,,,1367.183537300094,None,,,,,,,,,,,,,,,,,,,,,,,,,,,,,,,,,,,cattle,67,118,silent,red,1365.1819660000037,None,None,1365.1819660000037,None,,,,,,,,,,,,,,,,,,,,,,,,,,,,,,93NC,001,2023_Sep_01_1324,ExactRep-v3-final,2021.2.3,59.89164403526763,
,,,,,,,,118,0,118,0,,,,,,,,,,,,,,,,,,,,,,,,,,,,,,,,,,,,,,,,,,,,,,,,,,,,,1369.6861181000713,None,,,,,,,,,,,,,,,,,,,,,,,,,,,,,,,,,,,shame,16,119,sing,white,1367.6863370999927,None,None,1367.6863370999927,None,,,,,,,,,,,,,,,,,,,,,,,,,,,,,,93NC,001,2023_Sep_01_1324,ExactRep-v3-final,2021.2.3,59.89164403526763,
,,,,,,,,119,0,119,0,,,,,,,,,,,,,,,,,,,,,,,,,,,,,,,,,,,,,,,,,,,,,,,,,,,,,1372.1886934000067,None,,,,,,,,,,,,,,,,,,,,,,,,,,,,,,,,,,,hour,69,120,silent,red,1370.18862000003,None,None,1370.18862000003,None,,,,,,,,,,,,,,,,,,,,,,,,,,,,,,93NC,001,2023_Sep_01_1324,ExactRep-v3-final,2021.2.3,59.89164403526763,
,,,,,,,,,,,,,,,,,,,,,,,,,,,,,,,,,,,,,,,,,,,,,,,,,,,,,,,,,,,,,,,,,,,,,,,,,,,,,,,,,,,,,,,,,,,,,,,,,,,,,,,,,,,,,,1372.6891164000845,None,space,31.562681899988092,1382.6667823999887,None,,,,,,,,,,,,,,,,,,,,,,,,93NC,001,2023_Sep_01_1324,ExactRep-v3-final,2021.2.3,59.89164403526763,
,,,,,,,,,,,,,,,,,,,,,,,,,,,,,,,,,,,,,,,,,,,,,,,,,,,,,,,,,,,,,,,,,,,,,,,,,,,,,,,,,,,,,,,,,,,,,,,,,,,,,,,,,,,,,,,,,,,,1414.2474147999892,None,space,0.11638269992545247,1424.2251717000036,None,,,,,,,,,,,,,,,,,,93NC,001,2023_Sep_01_1324,ExactRep-v3-final,2021.2.3,59.89164403526763,
,,,,,,,,,,,,0,0,0,0,,,,,,,,,,,,,,,,,,,,,,,,,,,,,,,,,,,,,,,,,,,,,,,,,1431.9663294000784,None,,,,,,,,,,,,,,,,,,,,,,,,,,,,,,,,,,,,,,,,,,,,,,,,,,,,,,,,,heaven,79,1,sing,old,yellow,1424.8742792999838,None,y,1424.8742792999838,None,"['y', 'return']","[1.2186880999943241, 7.050712700001895]",1424.8742792999838,None,,,93NC,001,2023_Sep_01_1324,ExactRep-v3-final,2021.2.3,59.89164403526763,
,,,,,,,,,,,,1,0,1,0,,,,,,,,,,,,,,,,,,,,,,,,,,,,,,,,,,,,,,,,,,,,,,,,,1440.6420852000592,None,,,,,,,,,,,,,,,,,,,,,,,,,,,,,,,,,,,,,,,,,,,,,,,,,,,,,,,,,garden,128,2,silent,new,yellow,1432.4840618000599,None,y,1432.4840618000599,None,"['y', 'return']","[7.256916099926457, 8.120978999999352]",1432.4840618000599,None,,,93NC,001,2023_Sep_01_1324,ExactRep-v3-final,2021.2.3,59.89164403526763,
,,,,,,,,,,,,2,0,2,0,,,,,,,,,,,,,,,,,,,,,,,,,,,,,,,,,,,,,,,,,,,,,,,,,1443.7947601000778,None,,,,,,,,,,,,,,,,,,,,,,,,,,,,,,,,,,,,,,,,,,,,,,,,,,,,,,,,,memory,138,3,silent,new,yellow,1441.1590299999807,None,y,1441.1590299999807,None,"['y', 'return']","[1.9740549999987707, 2.5899375000735745]",1441.1590299999807,None,,,93NC,001,2023_Sep_01_1324,ExactRep-v3-final,2021.2.3,59.89164403526763,
,,,,,,,,,,,,3,0,3,0,,,,,,,,,,,,,,,,,,,,,,,,,,,,,,,,,,,,,,,,,,,,,,,,,1449.0834862000775,None,,,,,,,,,,,,,,,,,,,,,,,,,,,,,,,,,,,,,,,,,,,,,,,,,,,,,,,,,speech,99,4,aloud,old,yellow,1444.312457800028,None,y,1444.312457800028,None,"['y', 'return']","[3.084497099975124, 4.72455899999477]",1444.312457800028,None,,,93NC,001,2023_Sep_01_1324,ExactRep-v3-final,2021.2.3,59.89164403526763,
,,,,,,,,,,,,4,0,4,0,,,,,,,,,,,,,,,,,,,,,,,,,,,,,,,,,,,,,,,,,,,,,,,,,1453.251400600071,None,,,,,,,,,,,,,,,,,,,,,,,,,,,,,,,,,,,,,,,,,,,,,,,,,,,,,,,,,paper,221,5,sing,new,yellow,1449.6011532000266,None,n,1449.6011532000266,None,"['n', 'return']","[2.2278118999674916, 3.5958347999257967]",1449.6011532000266,None,,,93NC,001,2023_Sep_01_1324,ExactRep-v3-final,2021.2.3,59.89164403526763,
,,,,,,,,,,,,5,0,5,0,,,,,,,,,,,,,,,,,,,,,,,,,,,,,,,,,,,,,,,,,,,,,,,,,1457.6751716000726,None,,,,,,,,,,,,,,,,,,,,,,,,,,,,,,,,,,,,,,,,,,,,,,,,,,,,,,,,,flag,205,6,sing,new,yellow,1453.754970400012,None,y,1453.754970400012,None,"['y', 'return']","[3.306010099942796, 3.8819966999581084]",1453.754970400012,None,,,93NC,001,2023_Sep_01_1324,ExactRep-v3-final,2021.2.3,59.89164403526763,
,,,,,,,,,,,,6,0,6,0,,,,,,,,,,,,,,,,,,,,,,,,,,,,,,,,,,,,,,,,,,,,,,,,,1462.1964708000887,None,,,,,,,,,,,,,,,,,,,,,,,,,,,,,,,,,,,,,,,,,,,,,,,,,,,,,,,,,theory,2,7,sing,old,yellow,1458.1772700999863,None,y,1458.1772700999863,None,"['y', 'return']","[2.8676643000217155, 3.9797202000627294]",1458.1772700999863,None,,,93NC,001,2023_Sep_01_1324,ExactRep-v3-final,2021.2.3,59.89164403526763,
,,,,,,,,,,,,7,0,7,0,,,,,,,,,,,,,,,,,,,,,,,,,,,,,,,,,,,,,,,,,,,,,,,,,1464.8490274000214,None,,,,,,,,,,,,,,,,,,,,,,,,,,,,,,,,,,,,,,,,,,,,,,,,,,,,,,,,,meat,93,8,aloud,old,yellow,1462.6970056000864,None,y,1462.6970056000864,None,"['y', 'return']","[1.5319576000329107, 2.1160739000188187]",1462.6970056000864,None,,,93NC,001,2023_Sep_01_1324,ExactRep-v3-final,2021.2.3,59.89164403526763,
,,,,,,,,,,,,8,0,8,0,,,,,,,,,,,,,,,,,,,,,,,,,,,,,,,,,,,,,,,,,,,,,,,,,1478.2294338999782,None,,,,,,,,,,,,,,,,,,,,,,,,,,,,,,,,,,,,,,,,,,,,,,,,,,,,,,,,,horse,7,9,sing,old,yellow,1465.3504619000014,None,n,1465.3504619000014,None,"['n', 'return']","[11.838498099939898, 12.83054550003726]",1465.3504619000014,None,,,93NC,001,2023_Sep_01_1324,ExactRep-v3-final,2021.2.3,59.89164403526763,
,,,,,,,,,,,,9,0,9,0,,,,,,,,,,,,,,,,,,,,,,,,,,,,,,,,,,,,,,,,,,,,,,,,,1482.5834783000173,None,,,,,,,,,,,,,,,,,,,,,,,,,,,,,,,,,,,,,,,,,,,,,,,,,,,,,,,,,history,229,10,sing,new,yellow,1478.7462997999974,None,y,1478.7462997999974,None,"['y', 'return']","[3.0186192999826744, 3.7946910000173375]",1478.7462997999974,None,,,93NC,001,2023_Sep_01_1324,ExactRep-v3-final,2021.2.3,59.89164403526763,
,,,,,,,,,,,,10,0,10,0,,,,,,,,,,,,,,,,,,,,,,,,,,,,,,,,,,,,,,,,,,,,,,,,,1485.3703290000558,None,,,,,,,,,,,,,,,,,,,,,,,,,,,,,,,,,,,,,,,,,,,,,,,,,,,,,,,,,master,36,11,sing,old,yellow,1483.0899666000623,None,y,1483.0899666000623,None,"['y', 'return']","[1.4270419999957085, 2.2432076999684796]",1483.0899666000623,None,,,93NC,001,2023_Sep_01_1324,ExactRep-v3-final,2021.2.3,59.89164403526763,
,,,,,,,,,,,,11,0,11,0,,,,,,,,,,,,,,,,,,,,,,,,,,,,,,,,,,,,,,,,,,,,,,,,,1487.838583500008,None,,,,,,,,,,,,,,,,,,,,,,,,,,,,,,,,,,,,,,,,,,,,,,,,,,,,,,,,,author,142,12,silent,new,yellow,1485.8871652000817,None,y,1485.8871652000817,None,"['y', 'return']","[1.2937919000396505, 1.9098002000246197]",1485.8871652000817,None,,,93NC,001,2023_Sep_01_1324,ExactRep-v3-final,2021.2.3,59.89164403526763,
,,,,,,,,,,,,12,0,12,0,,,,,,,,,,,,,,,,,,,,,,,,,,,,,,,,,,,,,,,,,,,,,,,,,1490.307990900008,None,,,,,,,,,,,,,,,,,,,,,,,,,,,,,,,,,,,,,,,,,,,,,,,,,,,,,,,,,lord,17,13,sing,old,yellow,1488.345991200069,None,y,1488.345991200069,None,"['y', 'return']","[1.3710001999279484, 1.9150251999963075]",1488.345991200069,None,,,93NC,001,2023_Sep_01_1324,ExactRep-v3-final,2021.2.3,59.89164403526763,
,,,,,,,,,,,,13,0,13,0,,,,,,,,,,,,,,,,,,,,,,,,,,,,,,,,,,,,,,,,,,,,,,,,,1500.46783530002,None,,,,,,,,,,,,,,,,,,,,,,,,,,,,,,,,,,,,,,,,,,,,,,,,,,,,,,,,,safety,175,14,sing,new,yellow,1490.8257314000512,None,n,1490.8257314000512,None,"['n', 'return']","[8.843305899994448, 9.603272999986075]",1490.8257314000512,None,,,93NC,001,2023_Sep_01_1324,ExactRep-v3-final,2021.2.3,59.89164403526763,
,,,,,,,,,,,,14,0,14,0,,,,,,,,,,,,,,,,,,,,,,,,,,,,,,,,,,,,,,,,,,,,,,,,,1504.7061764000682,None,,,,,,,,,,,,,,,,,,,,,,,,,,,,,,,,,,,,,,,,,,,,,,,,,,,,,,,,,city,94,15,aloud,old,yellow,1500.9693344000261,None,n,1500.9693344000261,None,"['n', 'return']","[3.2196116000413895, 3.691742700058967]",1500.9693344000261,None,,,93NC,001,2023_Sep_01_1324,ExactRep-v3-final,2021.2.3,59.89164403526763,
,,,,,,,,,,,,15,0,15,0,,,,,,,,,,,,,,,,,,,,,,,,,,,,,,,,,,,,,,,,,,,,,,,,,1507.4421263000695,None,,,,,,,,,,,,,,,,,,,,,,,,,,,,,,,,,,,,,,,,,,,,,,,,,,,,,,,,,judge,208,16,aloud,new,yellow,1505.2237223000266,None,n,1505.2237223000266,None,"['n', 'return']","[1.8773422000231221, 2.1815097000217065]",1505.2237223000266,None,,,93NC,001,2023_Sep_01_1324,ExactRep-v3-final,2021.2.3,59.89164403526763,
,,,,,,,,,,,,16,0,16,0,,,,,,,,,,,,,,,,,,,,,,,,,,,,,,,,,,,,,,,,,,,,,,,,,1514.4152876000153,None,,,,,,,,,,,,,,,,,,,,,,,,,,,,,,,,,,,,,,,,,,,,,,,,,,,,,,,,,custom,9,17,sing,old,yellow,1507.9685962999938,None,n,1507.9685962999938,None,"['n', 'return']","[5.844415000057779, 6.404322999995202]",1507.9685962999938,None,,,93NC,001,2023_Sep_01_1324,ExactRep-v3-final,2021.2.3,59.89164403526763,
,,,,,,,,,,,,17,0,17,0,,,,,,,,,,,,,,,,,,,,,,,,,,,,,,,,,,,,,,,,,,,,,,,,,1516.917130600079,None,,,,,,,,,,,,,,,,,,,,,,,,,,,,,,,,,,,,,,,,,,,,,,,,,,,,,,,,,door,60,18,silent,old,yellow,1514.916266300017,None,y,1514.916266300017,None,"['y', 'return']","[1.5126214999472722, 1.9608764000004157]",1514.916266300017,None,,,93NC,001,2023_Sep_01_1324,ExactRep-v3-final,2021.2.3,59.89164403526763,
,,,,,,,,,,,,18,0,18,0,,,,,,,,,,,,,,,,,,,,,,,,,,,,,,,,,,,,,,,,,,,,,,,,,1526.310502300039,None,,,,,,,,,,,,,,,,,,,,,,,,,,,,,,,,,,,,,,,,,,,,,,,,,,,,,,,,,earth,234,19,aloud,new,yellow,1517.419798100018,None,n,1517.419798100018,None,"['n', 'return']","[7.809146899962798, 8.841304500005208]",1517.419798100018,None,,,93NC,001,2023_Sep_01_1324,ExactRep-v3-final,2021.2.3,59.89164403526763,
,,,,,,,,,,,,19,0,19,0,,,,,,,,,,,,,,,,,,,,,,,,,,,,,,,,,,,,,,,,,,,,,,,,,1529.8138469000114,None,,,,,,,,,,,,,,,,,,,,,,,,,,,,,,,,,,,,,,,,,,,,,,,,,,,,,,,,,house,80,20,aloud,old,yellow,1526.8191476000939,None,y,1526.8191476000939,None,"['y', 'return']","[2.641809800057672, 2.961825800011866]",1526.8191476000939,None,,,93NC,001,2023_Sep_01_1324,ExactRep-v3-final,2021.2.3,59.89164403526763,
,,,,,,,,,,,,20,0,20,0,,,,,,,,,,,,,,,,,,,,,,,,,,,,,,,,,,,,,,,,,,,,,,,,,1538.2879588999785,None,,,,,,,,,,,,,,,,,,,,,,,,,,,,,,,,,,,,,,,,,,,,,,,,,,,,,,,,,clock,124,21,silent,new,yellow,1530.3234201000305,None,n,1530.3234201000305,None,"['n', 'return']","[7.513623000006191, 7.929595199995674]",1530.3234201000305,None,,,93NC,001,2023_Sep_01_1324,ExactRep-v3-final,2021.2.3,59.89164403526763,
,,,,,,,,,,,,21,0,21,0,,,,,,,,,,,,,,,,,,,,,,,,,,,,,,,,,,,,,,,,,,,,,,,,,1540.7052813000046,None,,,,,,,,,,,,,,,,,,,,,,,,,,,,,,,,,,,,,,,,,,,,,,,,,,,,,,,,,fault,207,22,sing,new,yellow,1538.7940748999827,None,n,1538.7940748999827,None,"['n', 'return']","[1.498948200023733, 1.8589442999800667]",1538.7940748999827,None,,,93NC,001,2023_Sep_01_1324,ExactRep-v3-final,2021.2.3,59.89164403526763,
,,,,,,,,,,,,22,0,22,0,,,,,,,,,,,,,,,,,,,,,,,,,,,,,,,,,,,,,,,,,,,,,,,,,1547.3983666000422,None,,,,,,,,,,,,,,,,,,,,,,,,,,,,,,,,,,,,,,,,,,,,,,,,,,,,,,,,,length,126,23,silent,new,yellow,1541.2079085999867,None,n,1541.2079085999867,None,"['n', 'return']","[5.837423200020567, 6.1412563000340015]",1541.2079085999867,None,,,93NC,001,2023_Sep_01_1324,ExactRep-v3-final,2021.2.3,59.89164403526763,
,,,,,,,,,,,,23,0,23,0,,,,,,,,,,,,,,,,,,,,,,,,,,,,,,,,,,,,,,,,,,,,,,,,,1550.3002437000396,None,,,,,,,,,,,,,,,,,,,,,,,,,,,,,,,,,,,,,,,,,,,,,,,,,,,,,,,,,shadow,218,24,aloud,new,yellow,1547.9163338000653,None,n,1547.9163338000653,None,"['n', 'return']","[2.000620000064373, 2.3366204000776634]",1547.9163338000653,None,,,93NC,001,2023_Sep_01_1324,ExactRep-v3-final,2021.2.3,59.89164403526763,
,,,,,,,,,,,,24,0,24,0,,,,,,,,,,,,,,,,,,,,,,,,,,,,,,,,,,,,,,,,,,,,,,,,,1552.8542551000137,None,,,,,,,,,,,,,,,,,,,,,,,,,,,,,,,,,,,,,,,,,,,,,,,,,,,,,,,,,bar,152,25,silent,new,yellow,1550.8123934000032,None,n,1550.8123934000032,None,"['n', 'return']","[1.6728703000117093, 1.9925594000378624]",1550.8123934000032,None,,,93NC,001,2023_Sep_01_1324,ExactRep-v3-final,2021.2.3,59.89164403526763,
,,,,,,,,,,,,25,0,25,0,,,,,,,,,,,,,,,,,,,,,,,,,,,,,,,,,,,,,,,,,,,,,,,,,1558.575795700075,None,,,,,,,,,,,,,,,,,,,,,,,,,,,,,,,,,,,,,,,,,,,,,,,,,,,,,,,,,cash,10,26,sing,old,yellow,1553.3699096000055,None,n,1553.3699096000055,None,"['n', 'return']","[4.683039800031111, 5.1631483000237495]",1553.3699096000055,None,,,93NC,001,2023_Sep_01_1324,ExactRep-v3-final,2021.2.3,59.89164403526763,
,,,,,,,,,,,,26,0,26,0,,,,,,,,,,,,,,,,,,,,,,,,,,,,,,,,,,,,,,,,,,,,,,,,,1573.0739029999822,None,,,,,,,,,,,,,,,,,,,,,,,,,,,,,,,,,,,,,,,,,,,,,,,,,,,,,,,,,excuse,168,27,aloud,new,yellow,1559.0833670999855,None,n,1559.0833670999855,None,"['y', 'backspace', 'n', 'return']","[9.897656899993308, 12.913621400017291, 13.609727600007318, 13.953953200019896]",1559.0833670999855,None,,,93NC,001,2023_Sep_01_1324,ExactRep-v3-final,2021.2.3,59.89164403526763,
,,,,,,,,,,,,27,0,27,0,,,,,,,,,,,,,,,,,,,,,,,,,,,,,,,,,,,,,,,,,,,,,,,,,1575.4094785000198,None,,,,,,,,,,,,,,,,,,,,,,,,,,,,,,,,,,,,,,,,,,,,,,,,,,,,,,,,,victory,223,28,sing,new,yellow,1573.5917093000608,None,y,1573.5917093000608,None,"['y', 'return']","[1.4452159000793472, 1.7815113000106066]",1573.5917093000608,None,,,93NC,001,2023_Sep_01_1324,ExactRep-v3-final,2021.2.3,59.89164403526763,
,,,,,,,,,,,,28,0,28,0,,,,,,,,,,,,,,,,,,,,,,,,,,,,,,,,,,,,,,,,,,,,,,,,,1577.2951517000329,None,,,,,,,,,,,,,,,,,,,,,,,,,,,,,,,,,,,,,,,,,,,,,,,,,,,,,,,,,money,188,29,aloud,new,yellow,1575.9114518000279,None,y,1575.9114518000279,None,"['y', 'return']","[1.0297002999577671, 1.3496767999604344]",1575.9114518000279,None,,,93NC,001,2023_Sep_01_1324,ExactRep-v3-final,2021.2.3,59.89164403526763,
,,,,,,,,,,,,29,0,29,0,,,,,,,,,,,,,,,,,,,,,,,,,,,,,,,,,,,,,,,,,,,,,,,,,1582.166351400083,None,,,,,,,,,,,,,,,,,,,,,,,,,,,,,,,,,,,,,,,,,,,,,,,,,,,,,,,,,camp,226,30,aloud,new,yellow,1577.8155031000497,None,y,1577.8155031000497,None,"['y', 'return']","[3.693412800086662, 4.3014841000549495]",1577.8155031000497,None,,,93NC,001,2023_Sep_01_1324,ExactRep-v3-final,2021.2.3,59.89164403526763,
,,,,,,,,,,,,30,0,30,0,,,,,,,,,,,,,,,,,,,,,,,,,,,,,,,,,,,,,,,,,,,,,,,,,1593.860380200087,None,,,,,,,,,,,,,,,,,,,,,,,,,,,,,,,,,,,,,,,,,,,,,,,,,,,,,,,,,silence,87,31,aloud,old,yellow,1582.6841161000775,None,y,1582.6841161000775,None,"['n', 'backspace', 'n', 'backspace', 'return', 'y', 'return']","[1.304755000048317, 5.904818900045939, 6.688886400079355, 7.800878599984571, 8.552736600046046, 10.296796300099231, 11.128931000013836]",1582.6841161000775,None,,,93NC,001,2023_Sep_01_1324,ExactRep-v3-final,2021.2.3,59.89164403526763,
,,,,,,,,,,,,31,0,31,0,,,,,,,,,,,,,,,,,,,,,,,,,,,,,,,,,,,,,,,,,,,,,,,,,1598.9329224000685,None,,,,,,,,,,,,,,,,,,,,,,,,,,,,,,,,,,,,,,,,,,,,,,,,,,,,,,,,,disease,59,32,silent,old,yellow,1594.36300760007,None,n,1594.36300760007,None,"['n', 'return']","[3.7859832000685856, 4.529966700007208]",1594.36300760007,None,,,93NC,001,2023_Sep_01_1324,ExactRep-v3-final,2021.2.3,59.89164403526763,
,,,,,,,,,,,,32,0,32,0,,,,,,,,,,,,,,,,,,,,,,,,,,,,,,,,,,,,,,,,,,,,,,,,,1602.303342900006,None,,,,,,,,,,,,,,,,,,,,,,,,,,,,,,,,,,,,,,,,,,,,,,,,,,,,,,,,,mercy,224,33,aloud,new,yellow,1599.4340876000933,None,y,1599.4340876000933,None,"['y', 'return']","[2.442820700001903, 2.8349824000615627]",1599.4340876000933,None,,,93NC,001,2023_Sep_01_1324,ExactRep-v3-final,2021.2.3,59.89164403526763,
,,,,,,,,,,,,33,0,33,0,,,,,,,,,,,,,,,,,,,,,,,,,,,,,,,,,,,,,,,,,,,,,,,,,1605.4059821000556,None,,,,,,,,,,,,,,,,,,,,,,,,,,,,,,,,,,,,,,,,,,,,,,,,,,,,,,,,,book,29,34,sing,old,yellow,1602.8205287000164,None,y,1602.8205287000164,None,"['y', 'return']","[2.0884069999447092, 2.5523991000372916]",1602.8205287000164,None,,,93NC,001,2023_Sep_01_1324,ExactRep-v3-final,2021.2.3,59.89164403526763,
,,,,,,,,,,,,34,0,34,0,,,,,,,,,,,,,,,,,,,,,,,,,,,,,,,,,,,,,,,,,,,,,,,,,1611.7296508,None,,,,,,,,,,,,,,,,,,,,,,,,,,,,,,,,,,,,,,,,,,,,,,,,,,,,,,,,,plain,131,35,silent,new,yellow,1605.908299600007,None,n,1605.908299600007,None,"['n', 'return']","[5.416940200026147, 5.776641699951142]",1605.908299600007,None,,,93NC,001,2023_Sep_01_1324,ExactRep-v3-final,2021.2.3,59.89164403526763,
,,,,,,,,,,,,35,0,35,0,,,,,,,,,,,,,,,,,,,,,,,,,,,,,,,,,,,,,,,,,,,,,,,,,1619.069271699991,None,,,,,,,,,,,,,,,,,,,,,,,,,,,,,,,,,,,,,,,,,,,,,,,,,,,,,,,,,storm,119,36,aloud,old,yellow,1612.2453421000391,None,y,1612.2453421000391,None,"['y', 'return']","[6.35960129997693, 6.77562999993097]",1612.2453421000391,None,,,93NC,001,2023_Sep_01_1324,ExactRep-v3-final,2021.2.3,59.89164403526763,
,,,,,,,,,,,,36,0,36,0,,,,,,,,,,,,,,,,,,,,,,,,,,,,,,,,,,,,,,,,,,,,,,,,,1632.2166998999892,None,,,,,,,,,,,,,,,,,,,,,,,,,,,,,,,,,,,,,,,,,,,,,,,,,,,,,,,,,fate,189,37,sing,new,yellow,1619.5703083000844,None,n,1619.5703083000844,None,"['n', 'return']","[9.802611500024796, 12.610832500038669]",1619.5703083000844,None,,,93NC,001,2023_Sep_01_1324,ExactRep-v3-final,2021.2.3,59.89164403526763,
,,,,,,,,,,,,37,0,37,0,,,,,,,,,,,,,,,,,,,,,,,,,,,,,,,,,,,,,,,,,,,,,,,,,1638.5060516999802,None,,,,,,,,,,,,,,,,,,,,,,,,,,,,,,,,,,,,,,,,,,,,,,,,,,,,,,,,,winter,146,38,silent,new,yellow,1632.7341658000369,None,n,1632.7341658000369,None,"['n', 'return']","[4.766996499965899, 5.735125200008042]",1632.7341658000369,None,,,93NC,001,2023_Sep_01_1324,ExactRep-v3-final,2021.2.3,59.89164403526763,
,,,,,,,,,,,,38,0,38,0,,,,,,,,,,,,,,,,,,,,,,,,,,,,,,,,,,,,,,,,,,,,,,,,,1643.2940556000685,None,,,,,,,,,,,,,,,,,,,,,,,,,,,,,,,,,,,,,,,,,,,,,,,,,,,,,,,,,soul,195,39,sing,new,yellow,1639.022427799995,None,y,1639.022427799995,None,"['y', 'return']","[2.6225053999805823, 4.23846969997976]",1639.022427799995,None,,,93NC,001,2023_Sep_01_1324,ExactRep-v3-final,2021.2.3,59.89164403526763,
,,,,,,,,,,,,39,0,39,0,,,,,,,,,,,,,,,,,,,,,,,,,,,,,,,,,,,,,,,,,,,,,,,,,1647.6819366000127,None,,,,,,,,,,,,,,,,,,,,,,,,,,,,,,,,,,,,,,,,,,,,,,,,,,,,,,,,,deed,111,40,aloud,old,yellow,1643.8010340000037,None,n,1643.8010340000037,None,"['n', 'return']","[3.307861699955538, 3.8441090000560507]",1643.8010340000037,None,,,93NC,001,2023_Sep_01_1324,ExactRep-v3-final,2021.2.3,59.89164403526763,
,,,,,,,,,,,,40,0,40,0,,,,,,,,,,,,,,,,,,,,,,,,,,,,,,,,,,,,,,,,,,,,,,,,,1654.3384483000264,None,,,,,,,,,,,,,,,,,,,,,,,,,,,,,,,,,,,,,,,,,,,,,,,,,,,,,,,,,artist,105,41,aloud,old,yellow,1648.1983570000157,None,y,1648.1983570000157,None,"['y', 'return']","[5.486581500037573, 6.094542799983174]",1648.1983570000157,None,,,93NC,001,2023_Sep_01_1324,ExactRep-v3-final,2021.2.3,59.89164403526763,
,,,,,,,,,,,,41,0,41,0,,,,,,,,,,,,,,,,,,,,,,,,,,,,,,,,,,,,,,,,,,,,,,,,,1660.177504100022,None,,,,,,,,,,,,,,,,,,,,,,,,,,,,,,,,,,,,,,,,,,,,,,,,,,,,,,,,,priest,171,42,sing,new,yellow,1654.8562488000607,None,n,1654.8562488000607,None,"['n', 'return']","[4.26066690008156, 5.284817600040697]",1654.8562488000607,None,,,93NC,001,2023_Sep_01_1324,ExactRep-v3-final,2021.2.3,59.89164403526763,
,,,,,,,,,,,,42,0,42,0,,,,,,,,,,,,,,,,,,,,,,,,,,,,,,,,,,,,,,,,,,,,,,,,,1663.110941800056,None,,,,,,,,,,,,,,,,,,,,,,,,,,,,,,,,,,,,,,,,,,,,,,,,,,,,,,,,,ship,83,43,aloud,old,yellow,1660.6786422000732,None,y,1660.6786422000732,None,"['y', 'return']","[2.014569799997844, 2.3742560000391677]",1660.6786422000732,None,,,93NC,001,2023_Sep_01_1324,ExactRep-v3-final,2021.2.3,59.89164403526763,
,,,,,,,,,,,,43,0,43,0,,,,,,,,,,,,,,,,,,,,,,,,,,,,,,,,,,,,,,,,,,,,,,,,,1680.4313170000678,None,,,,,,,,,,,,,,,,,,,,,,,,,,,,,,,,,,,,,,,,,,,,,,,,,,,,,,,,,boy,97,44,aloud,old,yellow,1663.6151172000682,None,n,1663.6151172000682,None,"['n', 'return']","[16.48586469993461, 16.773961099912412]",1663.6151172000682,None,,,93NC,001,2023_Sep_01_1324,ExactRep-v3-final,2021.2.3,59.89164403526763,
,,,,,,,,,,,,44,0,44,0,,,,,,,,,,,,,,,,,,,,,,,,,,,,,,,,,,,,,,,,,,,,,,,,,1687.070749500068,None,,,,,,,,,,,,,,,,,,,,,,,,,,,,,,,,,,,,,,,,,,,,,,,,,,,,,,,,,gift,58,45,silent,old,yellow,1680.948882900062,None,n,1680.948882900062,None,"['n', 'return']","[5.672009899979457, 6.0879859999986365]",1680.948882900062,None,,,93NC,001,2023_Sep_01_1324,ExactRep-v3-final,2021.2.3,59.89164403526763,
,,,,,,,,,,,,45,0,45,0,,,,,,,,,,,,,,,,,,,,,,,,,,,,,,,,,,,,,,,,,,,,,,,,,1690.6580220999895,None,,,,,,,,,,,,,,,,,,,,,,,,,,,,,,,,,,,,,,,,,,,,,,,,,,,,,,,,,girl,33,46,sing,old,yellow,1687.5722173000686,None,n,1687.5722173000686,None,"['n', 'return']","[2.640639999997802, 3.0489293000428006]",1687.5722173000686,None,,,93NC,001,2023_Sep_01_1324,ExactRep-v3-final,2021.2.3,59.89164403526763,
,,,,,,,,,,,,46,0,46,0,,,,,,,,,,,,,,,,,,,,,,,,,,,,,,,,,,,,,,,,,,,,,,,,,1696.4972298999783,None,,,,,,,,,,,,,,,,,,,,,,,,,,,,,,,,,,,,,,,,,,,,,,,,,,,,,,,,,lake,122,47,silent,new,yellow,1691.1753319000127,None,y,1691.1753319000127,None,"['y', 'return']","[4.565533300046809, 5.285581900039688]",1691.1753319000127,None,,,93NC,001,2023_Sep_01_1324,ExactRep-v3-final,2021.2.3,59.89164403526763,
,,,,,,,,,,,,47,0,47,0,,,,,,,,,,,,,,,,,,,,,,,,,,,,,,,,,,,,,,,,,,,,,,,,,1706.0570147000253,None,,,,,,,,,,,,,,,,,,,,,,,,,,,,,,,,,,,,,,,,,,,,,,,,,,,,,,,,,air,161,48,sing,new,yellow,1697.0149332000874,None,n,1697.0149332000874,None,"['n', 'return']","[8.526105900062248, 9.006211700034328]",1697.0149332000874,None,,,93NC,001,2023_Sep_01_1324,ExactRep-v3-final,2021.2.3,59.89164403526763,
,,,,,,,,,,,,48,0,48,0,,,,,,,,,,,,,,,,,,,,,,,,,,,,,,,,,,,,,,,,,,,,,,,,,1710.8622819000157,None,,,,,,,,,,,,,,,,,,,,,,,,,,,,,,,,,,,,,,,,,,,,,,,,,,,,,,,,,fire,220,49,aloud,new,yellow,1706.57492620009,None,n,1706.57492620009,None,"['n', 'return']","[3.7738778000930324, 4.253938000067137]",1706.57492620009,None,,,93NC,001,2023_Sep_01_1324,ExactRep-v3-final,2021.2.3,59.89164403526763,
,,,,,,,,,,,,49,0,49,0,,,,,,,,,,,,,,,,,,,,,,,,,,,,,,,,,,,,,,,,,,,,,,,,,1716.6510027000913,None,,,,,,,,,,,,,,,,,,,,,,,,,,,,,,,,,,,,,,,,,,,,,,,,,,,,,,,,,dawn,72,50,silent,old,yellow,1711.3794115000637,None,n,1711.3794115000637,None,"['n', 'return']","[4.537561500095762, 5.225466500036418]",1711.3794115000637,None,,,93NC,001,2023_Sep_01_1324,ExactRep-v3-final,2021.2.3,59.89164403526763,
,,,,,,,,,,,,50,0,50,0,,,,,,,,,,,,,,,,,,,,,,,,,,,,,,,,,,,,,,,,,,,,,,,,,1721.3388832000783,None,,,,,,,,,,,,,,,,,,,,,,,,,,,,,,,,,,,,,,,,,,,,,,,,,,,,,,,,,style,172,51,aloud,new,yellow,1717.1733296000166,None,y,1717.1733296000166,None,"['y', 'return']","[3.679744799970649, 4.119501000037417]",1717.1733296000166,None,,,93NC,001,2023_Sep_01_1324,ExactRep-v3-final,2021.2.3,59.89164403526763,
,,,,,,,,,,,,51,0,51,0,,,,,,,,,,,,,,,,,,,,,,,,,,,,,,,,,,,,,,,,,,,,,,,,,1730.2479236000217,None,,,,,,,,,,,,,,,,,,,,,,,,,,,,,,,,,,,,,,,,,,,,,,,,,,,,,,,,,friend,137,52,silent,new,yellow,1721.8513942999998,None,n,1721.8513942999998,None,"['n', 'return']","[7.497678799903952, 8.353437899961136]",1721.8513942999998,None,,,93NC,001,2023_Sep_01_1324,ExactRep-v3-final,2021.2.3,59.89164403526763,
,,,,,,,,,,,,52,0,52,0,,,,,,,,,,,,,,,,,,,,,,,,,,,,,,,,,,,,,,,,,,,,,,,,,1734.5182726000203,None,,,,,,,,,,,,,,,,,,,,,,,,,,,,,,,,,,,,,,,,,,,,,,,,,,,,,,,,,shoes,182,53,aloud,new,yellow,1730.7650919000152,None,y,1730.7650919000152,None,"['y', 'return']","[3.216439099982381, 3.719812299939804]",1730.7650919000152,None,,,93NC,001,2023_Sep_01_1324,ExactRep-v3-final,2021.2.3,59.89164403526763,
,,,,,,,,,,,,53,0,53,0,,,,,,,,,,,,,,,,,,,,,,,,,,,,,,,,,,,,,,,,,,,,,,,,,1737.6541633000597,None,,,,,,,,,,,,,,,,,,,,,,,,,,,,,,,,,,,,,,,,,,,,,,,,,,,,,,,,,weapon,84,54,aloud,old,yellow,1735.020433000056,None,y,1735.020433000056,None,"['y', 'return']","[1.8967195000732318, 2.6003916000481695]",1735.020433000056,None,,,93NC,001,2023_Sep_01_1324,ExactRep-v3-final,2021.2.3,59.89164403526763,
,,,,,,,,,,,,54,0,54,0,,,,,,,,,,,,,,,,,,,,,,,,,,,,,,,,,,,,,,,,,,,,,,,,,1741.2252590000862,None,,,,,,,,,,,,,,,,,,,,,,,,,,,,,,,,,,,,,,,,,,,,,,,,,,,,,,,,,freedom,55,55,silent,old,yellow,1738.1672680000775,None,y,1738.1672680000775,None,"['y', 'return']","[2.485497400048189, 3.0216276000719517]",1738.1672680000775,None,,,93NC,001,2023_Sep_01_1324,ExactRep-v3-final,2021.2.3,59.89164403526763,
,,,,,,,,,,,,55,0,55,0,,,,,,,,,,,,,,,,,,,,,,,,,,,,,,,,,,,,,,,,,,,,,,,,,1743.9126510000788,None,,,,,,,,,,,,,,,,,,,,,,,,,,,,,,,,,,,,,,,,,,,,,,,,,,,,,,,,,glory,73,56,silent,old,yellow,1741.742871500086,None,y,1741.742871500086,None,"['y', 'return']","[1.605928000062704, 2.126000800053589]",1741.742871500086,None,,,93NC,001,2023_Sep_01_1324,ExactRep-v3-final,2021.2.3,59.89164403526763,
,,,,,,,,,,,,56,0,56,0,,,,,,,,,,,,,,,,,,,,,,,,,,,,,,,,,,,,,,,,,,,,,,,,,1747.381420699996,None,,,,,,,,,,,,,,,,,,,,,,,,,,,,,,,,,,,,,,,,,,,,,,,,,,,,,,,,,crime,74,57,silent,old,yellow,1744.4377190000378,None,n,1744.4377190000378,None,"['n', 'return']","[2.1271321000531316, 2.8952198999468237]",1744.4377190000378,None,,,93NC,001,2023_Sep_01_1324,ExactRep-v3-final,2021.2.3,59.89164403526763,
,,,,,,,,,,,,57,0,57,0,,,,,,,,,,,,,,,,,,,,,,,,,,,,,,,,,,,,,,,,,,,,,,,,,1753.738025000086,None,,,,,,,,,,,,,,,,,,,,,,,,,,,,,,,,,,,,,,,,,,,,,,,,,,,,,,,,,pupil,8,58,sing,old,yellow,1747.898904300062,None,y,1747.898904300062,None,"['y', 'return']","[5.40998849994503, 5.793940499890596]",1747.898904300062,None,,,93NC,001,2023_Sep_01_1324,ExactRep-v3-final,2021.2.3,59.89164403526763,
,,,,,,,,,,,,58,0,58,0,,,,,,,,,,,,,,,,,,,,,,,,,,,,,,,,,,,,,,,,,,,,,,,,,1762.9138994000386,None,,,,,,,,,,,,,,,,,,,,,,,,,,,,,,,,,,,,,,,,,,,,,,,,,,,,,,,,,dust,54,59,silent,old,yellow,1754.2601740000537,None,y,1754.2601740000537,None,"['y', 'return']","[8.176718999980949, 8.608659100020304]",1754.2601740000537,None,,,93NC,001,2023_Sep_01_1324,ExactRep-v3-final,2021.2.3,59.89164403526763,
,,,,,,,,,,,,59,0,59,0,,,,,,,,,,,,,,,,,,,,,,,,,,,,,,,,,,,,,,,,,,,,,,,,,1765.8831689000363,None,,,,,,,,,,,,,,,,,,,,,,,,,,,,,,,,,,,,,,,,,,,,,,,,,,,,,,,,,humour,76,60,silent,old,yellow,1763.4312470000004,None,n,1763.4312470000004,None,"['n', 'return']","[1.8696277999551967, 2.4135628000367433]",1763.4312470000004,None,,,93NC,001,2023_Sep_01_1324,ExactRep-v3-final,2021.2.3,59.89164403526763,
,,,,,,,,,,,,60,0,60,0,,,,,,,,,,,,,,,,,,,,,,,,,,,,,,,,,,,,,,,,,,,,,,,,,1771.1855467000278,None,,,,,,,,,,,,,,,,,,,,,,,,,,,,,,,,,,,,,,,,,,,,,,,,,,,,,,,,,form,214,61,aloud,new,yellow,1766.3840950999875,None,n,1766.3840950999875,None,"['n', 'return']","[4.356758399982937, 4.740799200022593]",1766.3840950999875,None,,,93NC,001,2023_Sep_01_1324,ExactRep-v3-final,2021.2.3,59.89164403526763,
,,,,,,,,,,,,61,0,61,0,,,,,,,,,,,,,,,,,,,,,,,,,,,,,,,,,,,,,,,,,,,,,,,,,1783.5332426000386,None,,,,,,,,,,,,,,,,,,,,,,,,,,,,,,,,,,,,,,,,,,,,,,,,,,,,,,,,,doctor,173,62,sing,new,yellow,1771.6889425000409,None,n,1771.6889425000409,None,"['n', 'return']","[8.979898999910802, 11.803998799994588]",1771.6889425000409,None,,,93NC,001,2023_Sep_01_1324,ExactRep-v3-final,2021.2.3,59.89164403526763,
,,,,,,,,,,,,62,0,62,0,,,,,,,,,,,,,,,,,,,,,,,,,,,,,,,,,,,,,,,,,,,,,,,,,1786.5045715000015,None,,,,,,,,,,,,,,,,,,,,,,,,,,,,,,,,,,,,,,,,,,,,,,,,,,,,,,,,,toy,160,63,aloud,new,yellow,1784.0349942999892,None,n,1784.0349942999892,None,"['n', 'return']","[1.8580668000504375, 2.4259089999832213]",1784.0349942999892,None,,,93NC,001,2023_Sep_01_1324,ExactRep-v3-final,2021.2.3,59.89164403526763,
,,,,,,,,,,,,63,0,63,0,,,,,,,,,,,,,,,,,,,,,,,,,,,,,,,,,,,,,,,,,,,,,,,,,1795.9299312999938,None,,,,,,,,,,,,,,,,,,,,,,,,,,,,,,,,,,,,,,,,,,,,,,,,,,,,,,,,,apple,47,64,silent,old,yellow,1787.0318625000073,None,n,1787.0318625000073,None,"['y', 'backspace', 'n', 'return']","[5.845049499999732, 7.628948800032958, 8.205040500033647, 8.852965300087817]",1787.0318625000073,None,,,93NC,001,2023_Sep_01_1324,ExactRep-v3-final,2021.2.3,59.89164403526763,
,,,,,,,,,,,,64,0,64,0,,,,,,,,,,,,,,,,,,,,,,,,,,,,,,,,,,,,,,,,,,,,,,,,,1800.2673873000313,None,,,,,,,,,,,,,,,,,,,,,,,,,,,,,,,,,,,,,,,,,,,,,,,,,,,,,,,,,truth,145,65,silent,new,yellow,1796.4480077000335,None,y,1796.4480077000335,None,"['y', 'return']","[3.0848605999490246, 3.780890299938619]",1796.4480077000335,None,,,93NC,001,2023_Sep_01_1324,ExactRep-v3-final,2021.2.3,59.89164403526763,
,,,,,,,,,,,,65,0,65,0,,,,,,,,,,,,,,,,,,,,,,,,,,,,,,,,,,,,,,,,,,,,,,,,,1816.7003360000672,None,,,,,,,,,,,,,,,,,,,,,,,,,,,,,,,,,,,,,,,,,,,,,,,,,,,,,,,,,effort,52,66,silent,old,yellow,1800.770869800006,None,n,1800.770869800006,None,"['n', 'return']","[10.458059199969284, 15.88997829996515]",1800.770869800006,None,,,93NC,001,2023_Sep_01_1324,ExactRep-v3-final,2021.2.3,59.89164403526763,
,,,,,,,,,,,,66,0,66,0,,,,,,,,,,,,,,,,,,,,,,,,,,,,,,,,,,,,,,,,,,,,,,,,,1822.2229228999931,None,,,,,,,,,,,,,,,,,,,,,,,,,,,,,,,,,,,,,,,,,,,,,,,,,,,,,,,,,teacher,184,67,aloud,new,yellow,1817.213400800014,None,y,1817.213400800014,None,"['y', 'return']","[4.511565699940547, 4.967567799962126]",1817.213400800014,None,,,93NC,001,2023_Sep_01_1324,ExactRep-v3-final,2021.2.3,59.89164403526763,
,,,,,,,,,,,,67,0,67,0,,,,,,,,,,,,,,,,,,,,,,,,,,,,,,,,,,,,,,,,,,,,,,,,,1831.629479299998,None,,,,,,,,,,,,,,,,,,,,,,,,,,,,,,,,,,,,,,,,,,,,,,,,,,,,,,,,,pipe,164,68,aloud,new,yellow,1822.739109300077,None,n,1822.739109300077,None,"['n', 'return']","[7.953798500006087, 8.841794100007974]",1822.739109300077,None,,,93NC,001,2023_Sep_01_1324,ExactRep-v3-final,2021.2.3,59.89164403526763,
,,,,,,,,,,,,68,0,68,0,,,,,,,,,,,,,,,,,,,,,,,,,,,,,,,,,,,,,,,,,,,,,,,,,1841.7583979000337,None,,,,,,,,,,,,,,,,,,,,,,,,,,,,,,,,,,,,,,,,,,,,,,,,,,,,,,,,,lad,167,69,sing,new,yellow,1832.1325235000113,None,n,1832.1325235000113,None,"['n', 'return']","[8.280300699989311, 9.592446599970572]",1832.1325235000113,None,,,93NC,001,2023_Sep_01_1324,ExactRep-v3-final,2021.2.3,59.89164403526763,
,,,,,,,,,,,,69,0,69,0,,,,,,,,,,,,,,,,,,,,,,,,,,,,,,,,,,,,,,,,,,,,,,,,,1844.561923900037,None,,,,,,,,,,,,,,,,,,,,,,,,,,,,,,,,,,,,,,,,,,,,,,,,,,,,,,,,,pole,127,70,silent,new,yellow,1842.2597417000216,None,n,1842.2597417000216,None,"['n', 'return']","[1.9131104999687523, 2.2653966000070795]",1842.2597417000216,None,,,93NC,001,2023_Sep_01_1324,ExactRep-v3-final,2021.2.3,59.89164403526763,
,,,,,,,,,,,,70,0,70,0,,,,,,,,,,,,,,,,,,,,,,,,,,,,,,,,,,,,,,,,,,,,,,,,,1847.8814694000175,None,,,,,,,,,,,,,,,,,,,,,,,,,,,,,,,,,,,,,,,,,,,,,,,,,,,,,,,,,dress,13,71,sing,old,yellow,1845.0801223000744,None,y,1845.0801223000744,None,"['y', 'return']","[2.364767700084485, 2.756673700059764]",1845.0801223000744,None,,,93NC,001,2023_Sep_01_1324,ExactRep-v3-final,2021.2.3,59.89164403526763,
,,,,,,,,,,,,71,0,71,0,,,,,,,,,,,,,,,,,,,,,,,,,,,,,,,,,,,,,,,,,,,,,,,,,1859.2098691000137,None,,,,,,,,,,,,,,,,,,,,,,,,,,,,,,,,,,,,,,,,,,,,,,,,,,,,,,,,,death,134,72,silent,new,yellow,1848.3833925999934,None,n,1848.3833925999934,None,"['y', 'backspace', 'n', 'return']","[4.989469700027257, 8.069672900019214, 10.429460400016978, 10.789756200043485]",1848.3833925999934,None,,,93NC,001,2023_Sep_01_1324,ExactRep-v3-final,2021.2.3,59.89164403526763,
,,,,,,,,,,,,72,0,72,0,,,,,,,,,,,,,,,,,,,,,,,,,,,,,,,,,,,,,,,,,,,,,,,,,1864.615220900043,None,,,,,,,,,,,,,,,,,,,,,,,,,,,,,,,,,,,,,,,,,,,,,,,,,,,,,,,,,hall,156,73,silent,new,yellow,1859.7270659999922,None,y,1859.7270659999922,None,"['y', 'return']","[4.493821499985643, 4.853737200028263]",1859.7270659999922,None,,,93NC,001,2023_Sep_01_1324,ExactRep-v3-final,2021.2.3,59.89164403526763,
,,,,,,,,,,,,73,0,73,0,,,,,,,,,,,,,,,,,,,,,,,,,,,,,,,,,,,,,,,,,,,,,,,,,1868.6523525000084,None,,,,,,,,,,,,,,,,,,,,,,,,,,,,,,,,,,,,,,,,,,,,,,,,,,,,,,,,,science,212,74,aloud,new,yellow,1865.1311477000127,None,y,1865.1311477000127,None,"['y', 'return']","[2.9937536000506952, 3.4816966999787837]",1865.1311477000127,None,,,93NC,001,2023_Sep_01_1324,ExactRep-v3-final,2021.2.3,59.89164403526763,
,,,,,,,,,,,,74,0,74,0,,,,,,,,,,,,,,,,,,,,,,,,,,,,,,,,,,,,,,,,,,,,,,,,,1871.3380544000538,None,,,,,,,,,,,,,,,,,,,,,,,,,,,,,,,,,,,,,,,,,,,,,,,,,,,,,,,,,doll,34,75,sing,old,yellow,1869.1534107000334,None,y,1869.1534107000334,None,"['y', 'return']","[1.291430199984461, 2.139385199989192]",1869.1534107000334,None,,,93NC,001,2023_Sep_01_1324,ExactRep-v3-final,2021.2.3,59.89164403526763,
,,,,,,,,,,,,75,0,75,0,,,,,,,,,,,,,,,,,,,,,,,,,,,,,,,,,,,,,,,,,,,,,,,,,1876.2606558999978,None,,,,,,,,,,,,,,,,,,,,,,,,,,,,,,,,,,,,,,,,,,,,,,,,,,,,,,,,,chair,120,76,silent,new,yellow,1871.8400902000722,None,y,1871.8400902000722,None,"['y', 'return']","[3.8127977000549436, 4.372828599996865]",1871.8400902000722,None,,,93NC,001,2023_Sep_01_1324,ExactRep-v3-final,2021.2.3,59.89164403526763,
,,,,,,,,,,,,76,0,76,0,,,,,,,,,,,,,,,,,,,,,,,,,,,,,,,,,,,,,,,,,,,,,,,,,1880.497818700038,None,,,,,,,,,,,,,,,,,,,,,,,,,,,,,,,,,,,,,,,,,,,,,,,,,,,,,,,,,meeting,183,77,sing,new,yellow,1876.7780340000754,None,y,1876.7780340000754,None,"['y', 'return']","[3.2428094000788406, 3.6747667000163347]",1876.7780340000754,None,,,93NC,001,2023_Sep_01_1324,ExactRep-v3-final,2021.2.3,59.89164403526763,
,,,,,,,,,,,,77,0,77,0,,,,,,,,,,,,,,,,,,,,,,,,,,,,,,,,,,,,,,,,,,,,,,,,,1891.7759741999907,None,,,,,,,,,,,,,,,,,,,,,,,,,,,,,,,,,,,,,,,,,,,,,,,,,,,,,,,,,plant,174,78,aloud,new,yellow,1881.0155506000156,None,n,1881.0155506000156,None,"['n', 'return']","[7.821581199998036, 10.725383799988776]",1881.0155506000156,None,,,93NC,001,2023_Sep_01_1324,ExactRep-v3-final,2021.2.3,59.89164403526763,
,,,,,,,,,,,,78,0,78,0,,,,,,,,,,,,,,,,,,,,,,,,,,,,,,,,,,,,,,,,,,,,,,,,,1903.453819700051,None,,,,,,,,,,,,,,,,,,,,,,,,,,,,,,,,,,,,,,,,,,,,,,,,,,,,,,,,,nail,154,79,silent,new,yellow,1892.2912830000278,None,y,1892.2912830000278,None,"['y', 'return']","[10.241809500032105, 11.113534600008279]",1892.2912830000278,None,,,93NC,001,2023_Sep_01_1324,ExactRep-v3-final,2021.2.3,59.89164403526763,
,,,,,,,,,,,,79,0,79,0,,,,,,,,,,,,,,,,,,,,,,,,,,,,,,,,,,,,,,,,,,,,,,,,,1906.6403369000182,None,,,,,,,,,,,,,,,,,,,,,,,,,,,,,,,,,,,,,,,,,,,,,,,,,,,,,,,,,love,125,80,silent,new,yellow,1903.9720098000253,None,y,1903.9720098000253,None,"['y', 'return']","[2.160794800030999, 2.624924200004898]",1903.9720098000253,None,,,93NC,001,2023_Sep_01_1324,ExactRep-v3-final,2021.2.3,59.89164403526763,
,,,,,,,,,,,,80,0,80,0,,,,,,,,,,,,,,,,,,,,,,,,,,,,,,,,,,,,,,,,,,,,,,,,,1915.465102700051,None,,,,,,,,,,,,,,,,,,,,,,,,,,,,,,,,,,,,,,,,,,,,,,,,,,,,,,,,,person,114,81,aloud,old,yellow,1907.1497498999815,None,y,1907.1497498999815,None,"['y', 'return']","[7.83908559998963, 8.271249599987641]",1907.1497498999815,None,,,93NC,001,2023_Sep_01_1324,ExactRep-v3-final,2021.2.3,59.89164403526763,
,,,,,,,,,,,,81,0,81,0,,,,,,,,,,,,,,,,,,,,,,,,,,,,,,,,,,,,,,,,,,,,,,,,,1917.9855364999967,None,,,,,,,,,,,,,,,,,,,,,,,,,,,,,,,,,,,,,,,,,,,,,,,,,,,,,,,,,blossom,186,82,aloud,new,yellow,1915.9674588000635,None,n,1915.9674588000635,None,"['n', 'return']","[1.3893576000118628, 1.9813896000850946]",1915.9674588000635,None,,,93NC,001,2023_Sep_01_1324,ExactRep-v3-final,2021.2.3,59.89164403526763,
,,,,,,,,,,,,82,0,82,0,,,,,,,,,,,,,,,,,,,,,,,,,,,,,,,,,,,,,,,,,,,,,,,,,1920.6544270000886,None,,,,,,,,,,,,,,,,,,,,,,,,,,,,,,,,,,,,,,,,,,,,,,,,,,,,,,,,,avenue,15,83,sing,old,yellow,1918.5023624000605,None,y,1918.5023624000605,None,"['y', 'return']","[1.2545563000021502, 2.1184259000001475]",1918.5023624000605,None,,,93NC,001,2023_Sep_01_1324,ExactRep-v3-final,2021.2.3,59.89164403526763,
,,,,,,,,,,,,83,0,83,0,,,,,,,,,,,,,,,,,,,,,,,,,,,,,,,,,,,,,,,,,,,,,,,,,1926.2264878000133,None,,,,,,,,,,,,,,,,,,,,,,,,,,,,,,,,,,,,,,,,,,,,,,,,,,,,,,,,,wheat,193,84,sing,new,yellow,1921.1561781000346,None,n,1921.1561781000346,None,"['y', 'backspace', 'n', 'return']","[2.52053989993874, 4.240594199975021, 4.704613799927756, 5.032581500010565]",1921.1561781000346,None,,,93NC,001,2023_Sep_01_1324,ExactRep-v3-final,2021.2.3,59.89164403526763,
,,,,,,,,,,,,84,0,84,0,,,,,,,,,,,,,,,,,,,,,,,,,,,,,,,,,,,,,,,,,,,,,,,,,1934.7007637000643,None,,,,,,,,,,,,,,,,,,,,,,,,,,,,,,,,,,,,,,,,,,,,,,,,,,,,,,,,,ability,115,85,aloud,old,yellow,1926.7282687000697,None,y,1926.7282687000697,None,"['y', 'return']","[5.05250850005541, 7.9325340000214055]",1926.7282687000697,None,,,93NC,001,2023_Sep_01_1324,ExactRep-v3-final,2021.2.3,59.89164403526763,
,,,,,,,,,,,,85,0,85,0,,,,,,,,,,,,,,,,,,,,,,,,,,,,,,,,,,,,,,,,,,,,,,,,,1941.8776920000091,None,,,,,,,,,,,,,,,,,,,,,,,,,,,,,,,,,,,,,,,,,,,,,,,,,,,,,,,,,string,50,86,silent,old,yellow,1935.2033711000113,None,n,1935.2033711000113,None,"['n', 'return']","[5.833440899965353, 6.633409100002609]",1935.2033711000113,None,,,93NC,001,2023_Sep_01_1324,ExactRep-v3-final,2021.2.3,59.89164403526763,
,,,,,,,,,,,,86,0,86,0,,,,,,,,,,,,,,,,,,,,,,,,,,,,,,,,,,,,,,,,,,,,,,,,,1949.983882999979,None,,,,,,,,,,,,,,,,,,,,,,,,,,,,,,,,,,,,,,,,,,,,,,,,,,,,,,,,,bird,239,87,sing,new,yellow,1942.3931136000901,None,y,1942.3931136000901,None,"['y', 'return']","[7.067691800068133, 7.547708900063299]",1942.3931136000901,None,,,93NC,001,2023_Sep_01_1324,ExactRep-v3-final,2021.2.3,59.89164403526763,
,,,,,,,,,,,,87,0,87,0,,,,,,,,,,,,,,,,,,,,,,,,,,,,,,,,,,,,,,,,,,,,,,,,,1953.0022542000515,None,,,,,,,,,,,,,,,,,,,,,,,,,,,,,,,,,,,,,,,,,,,,,,,,,,,,,,,,,flower,28,88,sing,old,yellow,1950.5022382000461,None,y,1950.5022382000461,None,"['y', 'return']","[1.8065573999192566, 2.45457569998689]",1950.5022382000461,None,,,93NC,001,2023_Sep_01_1324,ExactRep-v3-final,2021.2.3,59.89164403526763,
,,,,,,,,,,,,88,0,88,0,,,,,,,,,,,,,,,,,,,,,,,,,,,,,,,,,,,,,,,,,,,,,,,,,1971.9890049999813,None,,,,,,,,,,,,,,,,,,,,,,,,,,,,,,,,,,,,,,,,,,,,,,,,,,,,,,,,,butter,82,89,aloud,old,yellow,1953.5042081000283,None,n,1953.5042081000283,None,"['n', 'return']","[16.052617399953306, 18.436625199974515]",1953.5042081000283,None,,,93NC,001,2023_Sep_01_1324,ExactRep-v3-final,2021.2.3,59.89164403526763,
,,,,,,,,,,,,89,0,89,0,,,,,,,,,,,,,,,,,,,,,,,,,,,,,,,,,,,,,,,,,,,,,,,,,1975.5438786000013,None,,,,,,,,,,,,,,,,,,,,,,,,,,,,,,,,,,,,,,,,,,,,,,,,,,,,,,,,,law,68,90,silent,old,yellow,1972.4964895000448,None,y,1972.4964895000448,None,"['y', 'return']","[2.6122456999728456, 2.996363000012934]",1972.4964895000448,None,,,93NC,001,2023_Sep_01_1324,ExactRep-v3-final,2021.2.3,59.89164403526763,
,,,,,,,,,,,,90,0,90,0,,,,,,,,,,,,,,,,,,,,,,,,,,,,,,,,,,,,,,,,,,,,,,,,,1980.0132316000527,None,,,,,,,,,,,,,,,,,,,,,,,,,,,,,,,,,,,,,,,,,,,,,,,,,,,,,,,,,insect,165,91,sing,new,yellow,1976.0630148000782,None,y,1976.0630148000782,None,"['y', 'return']","[3.525793100008741, 3.901796100079082]",1976.0630148000782,None,,,93NC,001,2023_Sep_01_1324,ExactRep-v3-final,2021.2.3,59.89164403526763,
,,,,,,,,,,,,91,0,91,0,,,,,,,,,,,,,,,,,,,,,,,,,,,,,,,,,,,,,,,,,,,,,,,,,1987.0207867000718,None,,,,,,,,,,,,,,,,,,,,,,,,,,,,,,,,,,,,,,,,,,,,,,,,,,,,,,,,,origin,39,92,silent,old,yellow,1980.515364299994,None,n,1980.515364299994,None,"['n', 'return']","[5.641394800040871, 6.465469500049949]",1980.515364299994,None,,,93NC,001,2023_Sep_01_1324,ExactRep-v3-final,2021.2.3,59.89164403526763,
,,,,,,,,,,,,92,0,92,0,,,,,,,,,,,,,,,,,,,,,,,,,,,,,,,,,,,,,,,,,,,,,,,,,1992.3280282000778,None,,,,,,,,,,,,,,,,,,,,,,,,,,,,,,,,,,,,,,,,,,,,,,,,,,,,,,,,,village,37,93,sing,old,yellow,1987.5387286000187,None,y,1987.5387286000187,None,"['y', 'return']","[4.242057199939154, 4.754086700035259]",1987.5387286000187,None,,,93NC,001,2023_Sep_01_1324,ExactRep-v3-final,2021.2.3,59.89164403526763,
,,,,,,,,,,,,93,0,93,0,,,,,,,,,,,,,,,,,,,,,,,,,,,,,,,,,,,,,,,,,,,,,,,,,2002.0523865000578,None,,,,,,,,,,,,,,,,,,,,,,,,,,,,,,,,,,,,,,,,,,,,,,,,,,,,,,,,,grief,178,94,aloud,new,yellow,1992.8432538000634,None,y,1992.8432538000634,None,"['y', 'return']","[8.641582699958235, 9.16957609995734]",1992.8432538000634,None,,,93NC,001,2023_Sep_01_1324,ExactRep-v3-final,2021.2.3,59.89164403526763,
,,,,,,,,,,,,94,0,94,0,,,,,,,,,,,,,,,,,,,,,,,,,,,,,,,,,,,,,,,,,,,,,,,,,2006.9408725000685,None,,,,,,,,,,,,,,,,,,,,,,,,,,,,,,,,,,,,,,,,,,,,,,,,,,,,,,,,,cabin,66,95,silent,old,yellow,2002.5651649000356,None,n,2002.5651649000356,None,"['n', 'return']","[3.895553799928166, 4.327640899922699]",2002.5651649000356,None,,,93NC,001,2023_Sep_01_1324,ExactRep-v3-final,2021.2.3,59.89164403526763,
,,,,,,,,,,,,95,0,95,0,,,,,,,,,,,,,,,,,,,,,,,,,,,,,,,,,,,,,,,,,,,,,,,,,2016.9503944000462,None,,,,,,,,,,,,,,,,,,,,,,,,,,,,,,,,,,,,,,,,,,,,,,,,,,,,,,,,,fun,91,96,aloud,old,yellow,2007.457949200063,None,n,2007.457949200063,None,"['n', 'return']","[8.642819399945438, 9.450878700008616]",2007.457949200063,None,,,93NC,001,2023_Sep_01_1324,ExactRep-v3-final,2021.2.3,59.89164403526763,
,,,,,,,,,,,,96,0,96,0,,,,,,,,,,,,,,,,,,,,,,,,,,,,,,,,,,,,,,,,,,,,,,,,,2020.5887907000724,None,,,,,,,,,,,,,,,,,,,,,,,,,,,,,,,,,,,,,,,,,,,,,,,,,,,,,,,,,fortune,140,97,silent,new,yellow,2017.4522819999838,None,y,2017.4522819999838,None,"['y', 'return']","[2.7124812999973074, 3.0965383000439033]",2017.4522819999838,None,,,93NC,001,2023_Sep_01_1324,ExactRep-v3-final,2021.2.3,59.89164403526763,
,,,,,,,,,,,,97,0,97,0,,,,,,,,,,,,,,,,,,,,,,,,,,,,,,,,,,,,,,,,,,,,,,,,,2026.1253211000003,None,,,,,,,,,,,,,,,,,,,,,,,,,,,,,,,,,,,,,,,,,,,,,,,,,,,,,,,,,animal,40,98,silent,old,yellow,2021.1068496999796,None,y,2021.1068496999796,None,"['y', 'return']","[4.617805500049144, 4.986092900042422]",2021.1068496999796,None,,,93NC,001,2023_Sep_01_1324,ExactRep-v3-final,2021.2.3,59.89164403526763,
,,,,,,,,,,,,98,0,98,0,,,,,,,,,,,,,,,,,,,,,,,,,,,,,,,,,,,,,,,,,,,,,,,,,2034.8181691000937,None,,,,,,,,,,,,,,,,,,,,,,,,,,,,,,,,,,,,,,,,,,,,,,,,,,,,,,,,,ticket,159,99,silent,new,yellow,2026.6327756000683,None,n,2026.6327756000683,None,"['n', 'return']","[7.764051100006327, 8.148087700014003]",2026.6327756000683,None,,,93NC,001,2023_Sep_01_1324,ExactRep-v3-final,2021.2.3,59.89164403526763,
,,,,,,,,,,,,99,0,99,0,,,,,,,,,,,,,,,,,,,,,,,,,,,,,,,,,,,,,,,,,,,,,,,,,2046.9304708000273,None,,,,,,,,,,,,,,,,,,,,,,,,,,,,,,,,,,,,,,,,,,,,,,,,,,,,,,,,,amount,65,100,silent,old,yellow,2035.3200822999934,None,y,2035.3200822999934,None,"['n', 'backspace', 'y', 'return']","[5.108759599970654, 9.508587799966335, 10.436691500013694, 11.564696099958383]",2035.3200822999934,None,,,93NC,001,2023_Sep_01_1324,ExactRep-v3-final,2021.2.3,59.89164403526763,
,,,,,,,,,,,,100,0,100,0,,,,,,,,,,,,,,,,,,,,,,,,,,,,,,,,,,,,,,,,,,,,,,,,,2049.6496287999908,None,,,,,,,,,,,,,,,,,,,,,,,,,,,,,,,,,,,,,,,,,,,,,,,,,,,,,,,,,letter,116,101,aloud,old,yellow,2047.438450000016,None,y,2047.438450000016,None,"['y', 'return']","[1.8383632999612018, 2.1663061999715865]",2047.438450000016,None,,,93NC,001,2023_Sep_01_1324,ExactRep-v3-final,2021.2.3,59.89164403526763,
,,,,,,,,,,,,101,0,101,0,,,,,,,,,,,,,,,,,,,,,,,,,,,,,,,,,,,,,,,,,,,,,,,,,2061.6782336999895,None,,,,,,,,,,,,,,,,,,,,,,,,,,,,,,,,,,,,,,,,,,,,,,,,,,,,,,,,,grass,162,102,aloud,new,yellow,2050.1517495000735,None,n,2050.1517495000735,None,"['y', 'backspace', 'n', 'return']","[5.732955100014806, 10.596972200088203, 11.109181300038472, 11.48501900001429]",2050.1517495000735,None,,,93NC,001,2023_Sep_01_1324,ExactRep-v3-final,2021.2.3,59.89164403526763,
,,,,,,,,,,,,102,0,102,0,,,,,,,,,,,,,,,,,,,,,,,,,,,,,,,,,,,,,,,,,,,,,,,,,2065.3990395000437,None,,,,,,,,,,,,,,,,,,,,,,,,,,,,,,,,,,,,,,,,,,,,,,,,,,,,,,,,,anger,53,103,silent,old,yellow,2062.1802916000597,None,n,2062.1802916000597,None,"['n', 'return']","[2.768497999990359, 3.18448180006817]",2062.1802916000597,None,,,93NC,001,2023_Sep_01_1324,ExactRep-v3-final,2021.2.3,59.89164403526763,
,,,,,,,,,,,,103,0,103,0,,,,,,,,,,,,,,,,,,,,,,,,,,,,,,,,,,,,,,,,,,,,,,,,,2069.519099700032,None,,,,,,,,,,,,,,,,,,,,,,,,,,,,,,,,,,,,,,,,,,,,,,,,,,,,,,,,,journal,158,104,silent,new,yellow,2065.916657200083,None,n,2065.916657200083,None,"['n', 'return']","[2.8881409999448806, 3.5682107999455184]",2065.916657200083,None,,,93NC,001,2023_Sep_01_1324,ExactRep-v3-final,2021.2.3,59.89164403526763,
,,,,,,,,,,,,104,0,104,0,,,,,,,,,,,,,,,,,,,,,,,,,,,,,,,,,,,,,,,,,,,,,,,,,2074.05811870005,None,,,,,,,,,,,,,,,,,,,,,,,,,,,,,,,,,,,,,,,,,,,,,,,,,,,,,,,,,ocean,180,105,aloud,new,yellow,2070.0209542000666,None,y,2070.0209542000666,None,"['y', 'return']","[3.543803400010802, 3.991994700045325]",2070.0209542000666,None,,,93NC,001,2023_Sep_01_1324,ExactRep-v3-final,2021.2.3,59.89164403526763,
,,,,,,,,,,,,105,0,105,0,,,,,,,,,,,,,,,,,,,,,,,,,,,,,,,,,,,,,,,,,,,,,,,,,2077.044725100044,None,,,,,,,,,,,,,,,,,,,,,,,,,,,,,,,,,,,,,,,,,,,,,,,,,,,,,,,,,coast,27,106,sing,old,yellow,2074.5750673000002,None,y,2074.5750673000002,None,"['y', 'return']","[1.9418316000374034, 2.4217187999747694]",2074.5750673000002,None,,,93NC,001,2023_Sep_01_1324,ExactRep-v3-final,2021.2.3,59.89164403526763,
,,,,,,,,,,,,106,0,106,0,,,,,,,,,,,,,,,,,,,,,,,,,,,,,,,,,,,,,,,,,,,,,,,,,2081.1311039000284,None,,,,,,,,,,,,,,,,,,,,,,,,,,,,,,,,,,,,,,,,,,,,,,,,,,,,,,,,,answer,201,107,sing,new,yellow,2077.5618053000653,None,n,2077.5618053000653,None,"['n', 'return']","[3.018944399897009, 3.522907199920155]",2077.5618053000653,None,,,93NC,001,2023_Sep_01_1324,ExactRep-v3-final,2021.2.3,59.89164403526763,
,,,,,,,,,,,,107,0,107,0,,,,,,,,,,,,,,,,,,,,,,,,,,,,,,,,,,,,,,,,,,,,,,,,,2087.9880243000807,None,,,,,,,,,,,,,,,,,,,,,,,,,,,,,,,,,,,,,,,,,,,,,,,,,,,,,,,,,water,233,108,sing,new,yellow,2081.6426393000875,None,y,2081.6426393000875,None,"['y', 'return']","[5.50613550003618, 6.298137200064957]",2081.6426393000875,None,,,93NC,001,2023_Sep_01_1324,ExactRep-v3-final,2021.2.3,59.89164403526763,
,,,,,,,,,,,,108,0,108,0,,,,,,,,,,,,,,,,,,,,,,,,,,,,,,,,,,,,,,,,,,,,,,,,,2090.4739451000933,None,,,,,,,,,,,,,,,,,,,,,,,,,,,,,,,,,,,,,,,,,,,,,,,,,,,,,,,,,murder,75,109,silent,old,yellow,2088.4899521000916,None,y,2088.4899521000916,None,"['y', 'return']","[1.4187731000129133, 1.947140800068155]",2088.4899521000916,None,,,93NC,001,2023_Sep_01_1324,ExactRep-v3-final,2021.2.3,59.89164403526763,
,,,,,,,,,,,,109,0,109,0,,,,,,,,,,,,,,,,,,,,,,,,,,,,,,,,,,,,,,,,,,,,,,,,,2096.5972043999936,None,,,,,,,,,,,,,,,,,,,,,,,,,,,,,,,,,,,,,,,,,,,,,,,,,,,,,,,,,street,236,110,aloud,new,yellow,2090.991729000001,None,y,2090.991729000001,None,"['y', 'return']","[5.124974100035615, 5.557017100043595]",2090.991729000001,None,,,93NC,001,2023_Sep_01_1324,ExactRep-v3-final,2021.2.3,59.89164403526763,
,,,,,,,,,,,,110,0,110,0,,,,,,,,,,,,,,,,,,,,,,,,,,,,,,,,,,,,,,,,,,,,,,,,,2099.615313800052,None,,,,,,,,,,,,,,,,,,,,,,,,,,,,,,,,,,,,,,,,,,,,,,,,,,,,,,,,,troops,210,111,aloud,new,yellow,2097.1132916000206,None,n,2097.1132916000206,None,"['n', 'return']","[1.8915617000311613, 2.4677787999389693]",2097.1132916000206,None,,,93NC,001,2023_Sep_01_1324,ExactRep-v3-final,2021.2.3,59.89164403526763,
,,,,,,,,,,,,111,0,111,0,,,,,,,,,,,,,,,,,,,,,,,,,,,,,,,,,,,,,,,,,,,,,,,,,2103.737180300057,None,,,,,,,,,,,,,,,,,,,,,,,,,,,,,,,,,,,,,,,,,,,,,,,,,,,,,,,,,season,132,112,silent,new,yellow,2100.1225734000327,None,y,2100.1225734000327,None,"['y', 'return']","[3.098170100012794, 3.578202100005001]",2100.1225734000327,None,,,93NC,001,2023_Sep_01_1324,ExactRep-v3-final,2021.2.3,59.89164403526763,
,,,,,,,,,,,,112,0,112,0,,,,,,,,,,,,,,,,,,,,,,,,,,,,,,,,,,,,,,,,,,,,,,,,,2108.5420491000405,None,,,,,,,,,,,,,,,,,,,,,,,,,,,,,,,,,,,,,,,,,,,,,,,,,,,,,,,,,shore,30,113,sing,old,yellow,2104.2552211000584,None,y,2104.2552211000584,None,"['y', 'return']","[3.7975184998940676, 4.253574699978344]",2104.2552211000584,None,,,93NC,001,2023_Sep_01_1324,ExactRep-v3-final,2021.2.3,59.89164403526763,
,,,,,,,,,,,,113,0,113,0,,,,,,,,,,,,,,,,,,,,,,,,,,,,,,,,,,,,,,,,,,,,,,,,,2112.563282500021,None,,,,,,,,,,,,,,,,,,,,,,,,,,,,,,,,,,,,,,,,,,,,,,,,,,,,,,,,,valley,213,114,sing,new,yellow,2109.0603292000014,None,n,2109.0603292000014,None,"['n', 'return']","[2.9204344999743626, 3.456322900019586]",2109.0603292000014,None,,,93NC,001,2023_Sep_01_1324,ExactRep-v3-final,2021.2.3,59.89164403526763,
,,,,,,,,,,,,114,0,114,0,,,,,,,,,,,,,,,,,,,,,,,,,,,,,,,,,,,,,,,,,,,,,,,,,2121.8884123000316,None,,,,,,,,,,,,,,,,,,,,,,,,,,,,,,,,,,,,,,,,,,,,,,,,,,,,,,,,,opinion,129,115,silent,new,yellow,2113.079614300048,None,n,2113.079614300048,None,"['n', 'return']","[8.285134500009008, 8.76519309997093]",2113.079614300048,None,,,93NC,001,2023_Sep_01_1324,ExactRep-v3-final,2021.2.3,59.89164403526763,
,,,,,,,,,,,,115,0,115,0,,,,,,,,,,,,,,,,,,,,,,,,,,,,,,,,,,,,,,,,,,,,,,,,,2125.6930517000146,None,,,,,,,,,,,,,,,,,,,,,,,,,,,,,,,,,,,,,,,,,,,,,,,,,,,,,,,,,fact,71,116,silent,old,yellow,2122.38968370005,None,y,2122.38968370005,None,"['y', 'return']","[2.671060199965723, 3.2550643999129534]",2122.38968370005,None,,,93NC,001,2023_Sep_01_1324,ExactRep-v3-final,2021.2.3,59.89164403526763,
,,,,,,,,,,,,116,0,116,0,,,,,,,,,,,,,,,,,,,,,,,,,,,,,,,,,,,,,,,,,,,,,,,,,2136.4200657000765,None,,,,,,,,,,,,,,,,,,,,,,,,,,,,,,,,,,,,,,,,,,,,,,,,,,,,,,,,,life,77,117,silent,old,yellow,2126.2101286000106,None,y,2126.2101286000106,None,"['y', 'return']","[9.378621999989264, 10.162628300022334]",2126.2101286000106,None,,,93NC,001,2023_Sep_01_1324,ExactRep-v3-final,2021.2.3,59.89164403526763,
,,,,,,,,,,,,117,0,117,0,,,,,,,,,,,,,,,,,,,,,,,,,,,,,,,,,,,,,,,,,,,,,,,,,2139.53916689998,None,,,,,,,,,,,,,,,,,,,,,,,,,,,,,,,,,,,,,,,,,,,,,,,,,,,,,,,,,corn,78,118,silent,old,yellow,2136.9274991999846,None,y,2136.9274991999846,None,"['y', 'return']","[1.9892785000847653, 2.5732461999868974]",2136.9274991999846,None,,,93NC,001,2023_Sep_01_1324,ExactRep-v3-final,2021.2.3,59.89164403526763,
,,,,,,,,,,,,118,0,118,0,,,,,,,,,,,,,,,,,,,,,,,,,,,,,,,,,,,,,,,,,,,,,,,,,2144.1604149000486,None,,,,,,,,,,,,,,,,,,,,,,,,,,,,,,,,,,,,,,,,,,,,,,,,,,,,,,,,,coffee,177,119,sing,new,yellow,2140.04856200004,None,n,2140.04856200004,None,"['n', 'return']","[3.612232599989511, 4.068375100032426]",2140.04856200004,None,,,93NC,001,2023_Sep_01_1324,ExactRep-v3-final,2021.2.3,59.89164403526763,
,,,,,,,,,,,,119,0,119,0,,,,,,,,,,,,,,,,,,,,,,,,,,,,,,,,,,,,,,,,,,,,,,,,,2151.0179244000465,None,,,,,,,,,,,,,,,,,,,,,,,,,,,,,,,,,,,,,,,,,,,,,,,,,,,,,,,,,lip,45,120,silent,old,yellow,2144.662270000088,None,n,2144.662270000088,None,"['n', 'return']","[5.44647059997078, 6.310544500011019]",2144.662270000088,None,,,93NC,001,2023_Sep_01_1324,ExactRep-v3-final,2021.2.3,59.89164403526763,
,,,,,,,,,,,,120,0,120,0,,,,,,,,,,,,,,,,,,,,,,,,,,,,,,,,,,,,,,,,,,,,,,,,,2156.742186599993,None,,,,,,,,,,,,,,,,,,,,,,,,,,,,,,,,,,,,,,,,,,,,,,,,,,,,,,,,,library,139,121,silent,new,yellow,2151.5357771000126,None,y,2151.5357771000126,None,"['y', 'return']","[4.621139699942432, 5.165007799980231]",2151.5357771000126,None,,,93NC,001,2023_Sep_01_1324,ExactRep-v3-final,2021.2.3,59.89164403526763,
,,,,,,,,,,,,121,0,121,0,,,,,,,,,,,,,,,,,,,,,,,,,,,,,,,,,,,,,,,,,,,,,,,,,2168.40172980004,None,,,,,,,,,,,,,,,,,,,,,,,,,,,,,,,,,,,,,,,,,,,,,,,,,,,,,,,,,diamond,185,122,sing,new,yellow,2157.2581563000567,None,y,2157.2581563000567,None,"['n', 'backspace', 'y', 'return']","[5.034679199918173, 10.346544799976982, 10.746559399995022, 11.098730199970305]",2157.2581563000567,None,,,93NC,001,2023_Sep_01_1324,ExactRep-v3-final,2021.2.3,59.89164403526763,
,,,,,,,,,,,,122,0,122,0,,,,,,,,,,,,,,,,,,,,,,,,,,,,,,,,,,,,,,,,,,,,,,,,,2171.171803000034,None,,,,,,,,,,,,,,,,,,,,,,,,,,,,,,,,,,,,,,,,,,,,,,,,,,,,,,,,,sky,204,123,aloud,new,yellow,2168.918775600032,None,y,2168.918775600032,None,"['y', 'return']","[1.8063861000118777, 2.2139816000126302]",2168.918775600032,None,,,93NC,001,2023_Sep_01_1324,ExactRep-v3-final,2021.2.3,59.89164403526763,
,,,,,,,,,,,,123,0,123,0,,,,,,,,,,,,,,,,,,,,,,,,,,,,,,,,,,,,,,,,,,,,,,,,,2174.4412054000422,None,,,,,,,,,,,,,,,,,,,,,,,,,,,,,,,,,,,,,,,,,,,,,,,,,,,,,,,,,shock,198,124,aloud,new,yellow,2171.68892580003,None,y,2171.68892580003,None,"['y', 'return']","[2.3322030999697745, 2.707804900011979]",2171.68892580003,None,,,93NC,001,2023_Sep_01_1324,ExactRep-v3-final,2021.2.3,59.89164403526763,
,,,,,,,,,,,,124,0,124,0,,,,,,,,,,,,,,,,,,,,,,,,,,,,,,,,,,,,,,,,,,,,,,,,,2179.262578800088,None,,,,,,,,,,,,,,,,,,,,,,,,,,,,,,,,,,,,,,,,,,,,,,,,,,,,,,,,,home,148,125,silent,new,yellow,2174.9514292000094,None,y,2174.9514292000094,None,"['y', 'return']","[3.533409700030461, 4.269308099988848]",2174.9514292000094,None,,,93NC,001,2023_Sep_01_1324,ExactRep-v3-final,2021.2.3,59.89164403526763,
,,,,,,,,,,,,125,0,125,0,,,,,,,,,,,,,,,,,,,,,,,,,,,,,,,,,,,,,,,,,,,,,,,,,2181.897791500087,None,,,,,,,,,,,,,,,,,,,,,,,,,,,,,,,,,,,,,,,,,,,,,,,,,,,,,,,,,breast,12,126,sing,old,yellow,2179.7872775000287,None,y,2179.7872775000287,None,"['y', 'return']","[1.5135822999291122, 2.0654250999214128]",2179.7872775000287,None,,,93NC,001,2023_Sep_01_1324,ExactRep-v3-final,2021.2.3,59.89164403526763,
,,,,,,,,,,,,126,0,126,0,,,,,,,,,,,,,,,,,,,,,,,,,,,,,,,,,,,,,,,,,,,,,,,,,2189.97333050007,None,,,,,,,,,,,,,,,,,,,,,,,,,,,,,,,,,,,,,,,,,,,,,,,,,,,,,,,,,arm,187,127,sing,new,yellow,2182.399877100019,None,n,2182.399877100019,None,"['n', 'return']","[5.87685869995039, 7.532869499991648]",2182.399877100019,None,,,93NC,001,2023_Sep_01_1324,ExactRep-v3-final,2021.2.3,59.89164403526763,
,,,,,,,,,,,,127,0,127,0,,,,,,,,,,,,,,,,,,,,,,,,,,,,,,,,,,,,,,,,,,,,,,,,,2193.1932073000353,None,,,,,,,,,,,,,,,,,,,,,,,,,,,,,,,,,,,,,,,,,,,,,,,,,,,,,,,,,idea,38,128,sing,old,yellow,2190.499505700078,None,y,2190.499505700078,None,"['y', 'return']","[1.9291657999856398, 2.6572500999318436]",2190.499505700078,None,,,93NC,001,2023_Sep_01_1324,ExactRep-v3-final,2021.2.3,59.89164403526763,
,,,,,,,,,,,,128,0,128,0,,,,,,,,,,,,,,,,,,,,,,,,,,,,,,,,,,,,,,,,,,,,,,,,,2196.930237599998,None,,,,,,,,,,,,,,,,,,,,,,,,,,,,,,,,,,,,,,,,,,,,,,,,,,,,,,,,,cotton,136,129,silent,new,yellow,2193.710827999981,None,y,2193.710827999981,None,"['y', 'return']","[1.8858028000686318, 3.1819810000015423]",2193.710827999981,None,,,93NC,001,2023_Sep_01_1324,ExactRep-v3-final,2021.2.3,59.89164403526763,
