trials_fam.thisRepN,trials_fam.thisTrialN,trials_fam.thisN,trials_fam.thisIndex,trials_prc.thisRepN,trials_prc.thisTrialN,trials_prc.thisN,trials_prc.thisIndex,StudyLoop.thisRepN,StudyLoop.thisTrialN,StudyLoop.thisN,StudyLoop.thisIndex,TestLoop.thisRepN,TestLoop.thisTrialN,TestLoop.thisN,TestLoop.thisIndex,text_colortest.started,text_colortest.stopped,key_colortest.keys,key_colortest.rt,key_colortest.started,key_colortest.stopped,textCondition.started,textCondition.stopped,keyCondition.keys,keyCondition.rt,keyCondition.started,keyCondition.stopped,Condition_between,Condition_counterbal,keyWelcome.keys,keyWelcome.rt,keyWelcome.started,keyWelcome.stopped,welcome_a.started,welcome_a.stopped,welcome_b.started,welcome_b.stopped,welcome_c.started,welcome_c.stopped,welcome_d.started,welcome_d.stopped,welcome_e.started,welcome_e.stopped,welcome_f.started,welcome_f.stopped,key_resp_fam_inst.keys,key_resp_fam_inst.rt,key_resp_fam_inst.started,key_resp_fam_inst.stopped,fam_a.started,fam_a.stopped,fam_b.started,fam_b.stopped,fam_c.started,fam_c.stopped,fam_d.started,fam_d.stopped,fam_e.started,fam_e.stopped,fam_f.started,fam_f.stopped,text_famil.started,text_famil.stopped,textBlank500.started,textBlank500.stopped,key_resp_prc_inst.keys,key_resp_prc_inst.rt,key_resp_prc_inst.started,key_resp_prc_inst.stopped,prac_a.started,prac_a.stopped,prac_b.started,prac_b.stopped,prac_c.started,prac_c.stopped,prac_d.started,prac_d.stopped,prac_e.started,prac_e.stopped,prac_f.started,prac_f.stopped,text_prc_trial.started,text_prc_trial.stopped,key_resp_study_inst.keys,key_resp_study_inst.rt,key_resp_study_inst.started,key_resp_study_inst.stopped,crit_a.started,crit_a.stopped,crit_b.started,crit_b.stopped,crit_c.started,crit_c.stopped,crit_d.started,crit_d.stopped,crit_e.started,crit_e.stopped,crit_f.started,crit_f.stopped,study_word,study_num,study_order,study_type,word_color,textStudy.started,textStudy.stopped,keyStudy.keys,keyStudy.started,keyStudy.stopped,post_study.started,post_study.stopped,key_resp_post_study.keys,key_resp_post_study.rt,key_resp_post_study.started,key_resp_post_study.stopped,test_inst.started,test_inst.stopped,key_resp_test_inst.keys,key_resp_test_inst.rt,key_resp_test_inst.started,key_resp_test_inst.stopped,test_word,test_num,test_order,test_condition,old_new_test,word_color_test,textConf.started,textConf.stopped,Participant Response,textInput.started,textInput.stopped,keyResp.keys,keyResp.rt,keyResp.started,keyResp.stopped,textEnd.started,textEnd.stopped,participant,session,date,expName,psychopyVersion,frameRate,
,,,,,,,,,,,,,,,,82.92925050004851,None,n,0.7118171999463812,82.92925050004851,None,,,,,,,,,,,,,,,,,,,,,,,,,,,,,,,,,,,,,,,,,,,,,,,,,,,,,,,,,,,,,,,,,,,,,,,,,,,,,,,,,,,,,,,,,,,,,,,,,,,,,,,,,,,,,,,,,,,,,,94ND,001,2023_Sep_01_1421,ExactRep-v3-final,2021.2.3,59.98368442532989,
,,,,,,,,,,,,,,,,,,,,,,83.65819430002011,None,d,2.982792899943888,83.65819430002011,None,,,,,,,,,,,,,,,,,,,,,,,,,,,,,,,,,,,,,,,,,,,,,,,,,,,,,,,,,,,,,,,,,,,,,,,,,,,,,,,,,,,,,,,,,,,,,,,,,,,,,,,,,,,,,,,,94ND,001,2023_Sep_01_1421,ExactRep-v3-final,2021.2.3,59.98368442532989,
,,,,,,,,,,,,,,,,,,,,,,,,,,,,whitefoils,d,space,356.5218587999698,96.79092180007137,None,,,,,,,,,,,,,,,,,,,,,,,,,,,,,,,,,,,,,,,,,,,,,,,,,,,,,,,,,,,,,,,,,,,,,,,,,,,,,,,,,,,,,,,,,,,,,,,,,,,,,,,,,,94ND,001,2023_Sep_01_1421,ExactRep-v3-final,2021.2.3,59.98368442532989,
,,,,,,,,,,,,,,,,,,,,,,,,,,,,,,,,,,86.82970210001804,None,86.82970210001804,None,86.82970210001804,None,86.82970210001804,None,86.82970210001804,None,86.82970210001804,None,space,22.115318599971943,463.51733090006746,None,,,,,,,,,,,,,,,,,,,,,,,,,,,,,,,,,,,,,,,,,,,,,,,,,,,,,,,,,,,,,,,,,,,,,,,,,,,,,,,,,,,,,,,,,,94ND,001,2023_Sep_01_1421,ExactRep-v3-final,2021.2.3,59.98368442532989,
0,0,0,0,,,,,,,,,,,,,,,,,,,,,,,,,,,,,,,,,,,,,,,,,,,,,,,453.54572230007034,None,453.54572230007034,None,453.54572230007034,None,453.54572230007034,None,453.54572230007034,None,453.54572230007034,None,485.7444789999863,None,487.7448316999944,None,,,,,,,,,,,,,,,,,,,,,,,,,,,,,,,,,,,,,,,,,,,,,,,,,,,,,,,,,,,,,,,,,,,,,,,,,,94ND,001,2023_Sep_01_1421,ExactRep-v3-final,2021.2.3,59.98368442532989,
1,0,1,0,,,,,,,,,,,,,,,,,,,,,,,,,,,,,,,,,,,,,,,,,,,,,,,,,,,,,,,,,,,488.2531606000848,None,490.264221200021,None,,,,,,,,,,,,,,,,,,,,,,,,,,,,,,,,,,,,,,,,,,,,,,,,,,,,,,,,,,,,,,,,,,,,,,,,,,94ND,001,2023_Sep_01_1421,ExactRep-v3-final,2021.2.3,59.98368442532989,
2,0,2,0,,,,,,,,,,,,,,,,,,,,,,,,,,,,,,,,,,,,,,,,,,,,,,,,,,,,,,,,,,,490.7662507999921,None,492.76668260002043,None,,,,,,,,,,,,,,,,,,,,,,,,,,,,,,,,,,,,,,,,,,,,,,,,,,,,,,,,,,,,,,,,,,,,,,,,,,94ND,001,2023_Sep_01_1421,ExactRep-v3-final,2021.2.3,59.98368442532989,
3,0,3,0,,,,,,,,,,,,,,,,,,,,,,,,,,,,,,,,,,,,,,,,,,,,,,,,,,,,,,,,,,,493.2737058000639,None,495.28571369999554,None,,,,,,,,,,,,,,,,,,,,,,,,,,,,,,,,,,,,,,,,,,,,,,,,,,,,,,,,,,,,,,,,,,,,,,,,,,94ND,001,2023_Sep_01_1421,ExactRep-v3-final,2021.2.3,59.98368442532989,
4,0,4,0,,,,,,,,,,,,,,,,,,,,,,,,,,,,,,,,,,,,,,,,,,,,,,,,,,,,,,,,,,,495.78619930008426,None,497.78824250004254,None,,,,,,,,,,,,,,,,,,,,,,,,,,,,,,,,,,,,,,,,,,,,,,,,,,,,,,,,,,,,,,,,,,,,,,,,,,94ND,001,2023_Sep_01_1421,ExactRep-v3-final,2021.2.3,59.98368442532989,
5,0,5,0,,,,,,,,,,,,,,,,,,,,,,,,,,,,,,,,,,,,,,,,,,,,,,,,,,,,,,,,,,,498.28866010007914,None,500.29086240008473,None,,,,,,,,,,,,,,,,,,,,,,,,,,,,,,,,,,,,,,,,,,,,,,,,,,,,,,,,,,,,,,,,,,,,,,,,,,94ND,001,2023_Sep_01_1421,ExactRep-v3-final,2021.2.3,59.98368442532989,
6,0,6,0,,,,,,,,,,,,,,,,,,,,,,,,,,,,,,,,,,,,,,,,,,,,,,,,,,,,,,,,,,,500.79095160006545,None,502.79321340005845,None,,,,,,,,,,,,,,,,,,,,,,,,,,,,,,,,,,,,,,,,,,,,,,,,,,,,,,,,,,,,,,,,,,,,,,,,,,94ND,001,2023_Sep_01_1421,ExactRep-v3-final,2021.2.3,59.98368442532989,
7,0,7,0,,,,,,,,,,,,,,,,,,,,,,,,,,,,,,,,,,,,,,,,,,,,,,,,,,,,,,,,,,,503.29392030008603,None,505.29559470003005,None,,,,,,,,,,,,,,,,,,,,,,,,,,,,,,,,,,,,,,,,,,,,,,,,,,,,,,,,,,,,,,,,,,,,,,,,,,94ND,001,2023_Sep_01_1421,ExactRep-v3-final,2021.2.3,59.98368442532989,
8,0,8,0,,,,,,,,,,,,,,,,,,,,,,,,,,,,,,,,,,,,,,,,,,,,,,,,,,,,,,,,,,,505.79694810009096,None,507.7984551000409,None,,,,,,,,,,,,,,,,,,,,,,,,,,,,,,,,,,,,,,,,,,,,,,,,,,,,,,,,,,,,,,,,,,,,,,,,,,94ND,001,2023_Sep_01_1421,ExactRep-v3-final,2021.2.3,59.98368442532989,
9,0,9,0,,,,,,,,,,,,,,,,,,,,,,,,,,,,,,,,,,,,,,,,,,,,,,,,,,,,,,,,,,,508.30138269998133,None,510.30118499998935,None,,,,,,,,,,,,,,,,,,,,,,,,,,,,,,,,,,,,,,,,,,,,,,,,,,,,,,,,,,,,,,,,,,,,,,,,,,94ND,001,2023_Sep_01_1421,ExactRep-v3-final,2021.2.3,59.98368442532989,
10,0,10,0,,,,,,,,,,,,,,,,,,,,,,,,,,,,,,,,,,,,,,,,,,,,,,,,,,,,,,,,,,,510.80637580004986,None,512.8200828999979,None,,,,,,,,,,,,,,,,,,,,,,,,,,,,,,,,,,,,,,,,,,,,,,,,,,,,,,,,,,,,,,,,,,,,,,,,,,94ND,001,2023_Sep_01_1421,ExactRep-v3-final,2021.2.3,59.98368442532989,
11,0,11,0,,,,,,,,,,,,,,,,,,,,,,,,,,,,,,,,,,,,,,,,,,,,,,,,,,,,,,,,,,,513.3204093000386,None,515.3224110000301,None,,,,,,,,,,,,,,,,,,,,,,,,,,,,,,,,,,,,,,,,,,,,,,,,,,,,,,,,,,,,,,,,,,,,,,,,,,94ND,001,2023_Sep_01_1421,ExactRep-v3-final,2021.2.3,59.98368442532989,
12,0,12,0,,,,,,,,,,,,,,,,,,,,,,,,,,,,,,,,,,,,,,,,,,,,,,,,,,,,,,,,,,,515.8229223000817,None,517.8247032000218,None,,,,,,,,,,,,,,,,,,,,,,,,,,,,,,,,,,,,,,,,,,,,,,,,,,,,,,,,,,,,,,,,,,,,,,,,,,94ND,001,2023_Sep_01_1421,ExactRep-v3-final,2021.2.3,59.98368442532989,
13,0,13,0,,,,,,,,,,,,,,,,,,,,,,,,,,,,,,,,,,,,,,,,,,,,,,,,,,,,,,,,,,,518.325413200073,None,520.327442400041,None,,,,,,,,,,,,,,,,,,,,,,,,,,,,,,,,,,,,,,,,,,,,,,,,,,,,,,,,,,,,,,,,,,,,,,,,,,94ND,001,2023_Sep_01_1421,ExactRep-v3-final,2021.2.3,59.98368442532989,
14,0,14,0,,,,,,,,,,,,,,,,,,,,,,,,,,,,,,,,,,,,,,,,,,,,,,,,,,,,,,,,,,,520.828242000076,None,522.8297199000372,None,,,,,,,,,,,,,,,,,,,,,,,,,,,,,,,,,,,,,,,,,,,,,,,,,,,,,,,,,,,,,,,,,,,,,,,,,,94ND,001,2023_Sep_01_1421,ExactRep-v3-final,2021.2.3,59.98368442532989,
,,,,,,,,,,,,,,,,,,,,,,,,,,,,,,,,,,,,,,,,,,,,,,,,,,,,,,,,,,,,,,,,,,space,33.25025799998548,533.4304376000073,None,,,,,,,,,,,,,,,,,,,,,,,,,,,,,,,,,,,,,,,,,,,,,,,,,,,,,,,,,,,,,,,,,,,,,,94ND,001,2023_Sep_01_1421,ExactRep-v3-final,2021.2.3,59.98368442532989,
,,,,0,0,0,0,,,,,,,,,,,,,,,,,,,,,,,,,,,,,,,,,,,,,,,,,,,,,,,,,,,,,,,,,568.7590554000344,None,,,,,523.4685251000337,None,523.4685251000337,None,523.4685251000337,None,523.4685251000337,None,523.4685251000337,None,523.4685251000337,None,566.7597141000442,None,,,,,,,,,,,,,,,,,,,,,,,,,,,,,,,,,,,,,,,,,,,,,,,,,,,,,,,,94ND,001,2023_Sep_01_1421,ExactRep-v3-final,2021.2.3,59.98368442532989,
,,,,1,0,1,0,,,,,,,,,,,,,,,,,,,,,,,,,,,,,,,,,,,,,,,,,,,,,,,,,,,,,,,,,571.2616616000887,None,,,,,,,,,,,,,,,,,569.2596415000735,None,,,,,,,,,,,,,,,,,,,,,,,,,,,,,,,,,,,,,,,,,,,,,,,,,,,,,,,,94ND,001,2023_Sep_01_1421,ExactRep-v3-final,2021.2.3,59.98368442532989,
,,,,2,0,2,0,,,,,,,,,,,,,,,,,,,,,,,,,,,,,,,,,,,,,,,,,,,,,,,,,,,,,,,,,573.7640205000062,None,,,,,,,,,,,,,,,,,571.7625022000866,None,,,,,,,,,,,,,,,,,,,,,,,,,,,,,,,,,,,,,,,,,,,,,,,,,,,,,,,,94ND,001,2023_Sep_01_1421,ExactRep-v3-final,2021.2.3,59.98368442532989,
,,,,3,0,3,0,,,,,,,,,,,,,,,,,,,,,,,,,,,,,,,,,,,,,,,,,,,,,,,,,,,,,,,,,576.2668465999886,None,,,,,,,,,,,,,,,,,574.2646124000894,None,,,,,,,,,,,,,,,,,,,,,,,,,,,,,,,,,,,,,,,,,,,,,,,,,,,,,,,,94ND,001,2023_Sep_01_1421,ExactRep-v3-final,2021.2.3,59.98368442532989,
,,,,4,0,4,0,,,,,,,,,,,,,,,,,,,,,,,,,,,,,,,,,,,,,,,,,,,,,,,,,,,,,,,,,578.76935279998,None,,,,,,,,,,,,,,,,,576.7699114000425,None,,,,,,,,,,,,,,,,,,,,,,,,,,,,,,,,,,,,,,,,,,,,,,,,,,,,,,,,94ND,001,2023_Sep_01_1421,ExactRep-v3-final,2021.2.3,59.98368442532989,
,,,,5,0,5,0,,,,,,,,,,,,,,,,,,,,,,,,,,,,,,,,,,,,,,,,,,,,,,,,,,,,,,,,,581.2717545999913,None,,,,,,,,,,,,,,,,,579.2695867000148,None,,,,,,,,,,,,,,,,,,,,,,,,,,,,,,,,,,,,,,,,,,,,,,,,,,,,,,,,94ND,001,2023_Sep_01_1421,ExactRep-v3-final,2021.2.3,59.98368442532989,
,,,,6,0,6,0,,,,,,,,,,,,,,,,,,,,,,,,,,,,,,,,,,,,,,,,,,,,,,,,,,,,,,,,,583.7745621000649,None,,,,,,,,,,,,,,,,,581.7723084000172,None,,,,,,,,,,,,,,,,,,,,,,,,,,,,,,,,,,,,,,,,,,,,,,,,,,,,,,,,94ND,001,2023_Sep_01_1421,ExactRep-v3-final,2021.2.3,59.98368442532989,
,,,,7,0,7,0,,,,,,,,,,,,,,,,,,,,,,,,,,,,,,,,,,,,,,,,,,,,,,,,,,,,,,,,,586.2932653999887,None,,,,,,,,,,,,,,,,,584.2794697000645,None,,,,,,,,,,,,,,,,,,,,,,,,,,,,,,,,,,,,,,,,,,,,,,,,,,,,,,,,94ND,001,2023_Sep_01_1421,ExactRep-v3-final,2021.2.3,59.98368442532989,
,,,,8,0,8,0,,,,,,,,,,,,,,,,,,,,,,,,,,,,,,,,,,,,,,,,,,,,,,,,,,,,,,,,,588.7956491999794,None,,,,,,,,,,,,,,,,,586.793669500039,None,,,,,,,,,,,,,,,,,,,,,,,,,,,,,,,,,,,,,,,,,,,,,,,,,,,,,,,,94ND,001,2023_Sep_01_1421,ExactRep-v3-final,2021.2.3,59.98368442532989,
,,,,9,0,9,0,,,,,,,,,,,,,,,,,,,,,,,,,,,,,,,,,,,,,,,,,,,,,,,,,,,,,,,,,591.2984852000372,None,,,,,,,,,,,,,,,,,589.2963060000911,None,,,,,,,,,,,,,,,,,,,,,,,,,,,,,,,,,,,,,,,,,,,,,,,,,,,,,,,,94ND,001,2023_Sep_01_1421,ExactRep-v3-final,2021.2.3,59.98368442532989,
,,,,10,0,10,0,,,,,,,,,,,,,,,,,,,,,,,,,,,,,,,,,,,,,,,,,,,,,,,,,,,,,,,,,593.8006026999792,None,,,,,,,,,,,,,,,,,591.7985816000728,None,,,,,,,,,,,,,,,,,,,,,,,,,,,,,,,,,,,,,,,,,,,,,,,,,,,,,,,,94ND,001,2023_Sep_01_1421,ExactRep-v3-final,2021.2.3,59.98368442532989,
,,,,11,0,11,0,,,,,,,,,,,,,,,,,,,,,,,,,,,,,,,,,,,,,,,,,,,,,,,,,,,,,,,,,596.3030977000017,None,,,,,,,,,,,,,,,,,594.3013902000384,None,,,,,,,,,,,,,,,,,,,,,,,,,,,,,,,,,,,,,,,,,,,,,,,,,,,,,,,,94ND,001,2023_Sep_01_1421,ExactRep-v3-final,2021.2.3,59.98368442532989,
,,,,12,0,12,0,,,,,,,,,,,,,,,,,,,,,,,,,,,,,,,,,,,,,,,,,,,,,,,,,,,,,,,,,598.8062231000513,None,,,,,,,,,,,,,,,,,596.8046920000343,None,,,,,,,,,,,,,,,,,,,,,,,,,,,,,,,,,,,,,,,,,,,,,,,,,,,,,,,,94ND,001,2023_Sep_01_1421,ExactRep-v3-final,2021.2.3,59.98368442532989,
,,,,13,0,13,0,,,,,,,,,,,,,,,,,,,,,,,,,,,,,,,,,,,,,,,,,,,,,,,,,,,,,,,,,601.3087996999966,None,,,,,,,,,,,,,,,,,599.3067232000176,None,,,,,,,,,,,,,,,,,,,,,,,,,,,,,,,,,,,,,,,,,,,,,,,,,,,,,,,,94ND,001,2023_Sep_01_1421,ExactRep-v3-final,2021.2.3,59.98368442532989,
,,,,14,0,14,0,,,,,,,,,,,,,,,,,,,,,,,,,,,,,,,,,,,,,,,,,,,,,,,,,,,,,,,,,603.8111497000791,None,,,,,,,,,,,,,,,,,601.8092428999953,None,,,,,,,,,,,,,,,,,,,,,,,,,,,,,,,,,,,,,,,,,,,,,,,,,,,,,,,,94ND,001,2023_Sep_01_1421,ExactRep-v3-final,2021.2.3,59.98368442532989,
,,,,,,,,,,,,,,,,,,,,,,,,,,,,,,,,,,,,,,,,,,,,,,,,,,,,,,,,,,,,,,,,,,,,,,,,,,,,,,,,,,,,space,72.8994714000728,614.4131002000067,None,,,,,,,,,,,,,,,,,,,,,,,,,,,,,,,,,,,,,,,,,,,,,,,,,,,,94ND,001,2023_Sep_01_1421,ExactRep-v3-final,2021.2.3,59.98368442532989,
,,,,,,,,0,0,0,0,,,,,,,,,,,,,,,,,,,,,,,,,,,,,,,,,,,,,,,,,,,,,,,,,,,,,689.429604300065,None,,,,,,,,,,,,,,,,,,,,,,,604.4869312000228,None,604.4869312000228,None,604.4869312000228,None,604.4869312000228,None,604.4869312000228,None,604.4869312000228,None,poet,58,1,silent,white,687.4273937999969,None,None,687.4273937999969,None,,,,,,,,,,,,,,,,,,,,,,,,,,,,,,94ND,001,2023_Sep_01_1421,ExactRep-v3-final,2021.2.3,59.98368442532989,
,,,,,,,,1,0,1,0,,,,,,,,,,,,,,,,,,,,,,,,,,,,,,,,,,,,,,,,,,,,,,,,,,,,,691.9318532000761,None,,,,,,,,,,,,,,,,,,,,,,,,,,,,,,,,,,,boy,61,2,silent,white,689.930174499983,None,None,689.930174499983,None,,,,,,,,,,,,,,,,,,,,,,,,,,,,,,94ND,001,2023_Sep_01_1421,ExactRep-v3-final,2021.2.3,59.98368442532989,
,,,,,,,,2,0,2,0,,,,,,,,,,,,,,,,,,,,,,,,,,,,,,,,,,,,,,,,,,,,,,,,,,,,,694.435103100026,None,,,,,,,,,,,,,,,,,,,,,,,,,,,,,,,,,,,owner,55,3,silent,white,692.4348408000078,None,None,692.4348408000078,None,,,,,,,,,,,,,,,,,,,,,,,,,,,,,,94ND,001,2023_Sep_01_1421,ExactRep-v3-final,2021.2.3,59.98368442532989,
,,,,,,,,3,0,3,0,,,,,,,,,,,,,,,,,,,,,,,,,,,,,,,,,,,,,,,,,,,,,,,,,,,,,696.9550191999879,None,,,,,,,,,,,,,,,,,,,,,,,,,,,,,,,,,,,length,17,4,sing,red,694.9425958000356,None,None,694.9425958000356,None,,,,,,,,,,,,,,,,,,,,,,,,,,,,,,94ND,001,2023_Sep_01_1421,ExactRep-v3-final,2021.2.3,59.98368442532989,
,,,,,,,,4,0,4,0,,,,,,,,,,,,,,,,,,,,,,,,,,,,,,,,,,,,,,,,,,,,,,,,,,,,,699.4742023000726,None,,,,,,,,,,,,,,,,,,,,,,,,,,,,,,,,,,,prison,66,5,silent,white,697.4585608000634,None,None,697.4585608000634,None,,,,,,,,,,,,,,,,,,,,,,,,,,,,,,94ND,001,2023_Sep_01_1421,ExactRep-v3-final,2021.2.3,59.98368442532989,
,,,,,,,,5,0,5,0,,,,,,,,,,,,,,,,,,,,,,,,,,,,,,,,,,,,,,,,,,,,,,,,,,,,,701.9760488000466,None,,,,,,,,,,,,,,,,,,,,,,,,,,,,,,,,,,,boulder,110,6,aloud,blue,699.9762019000482,None,None,699.9762019000482,None,,,,,,,,,,,,,,,,,,,,,,,,,,,,,,94ND,001,2023_Sep_01_1421,ExactRep-v3-final,2021.2.3,59.98368442532989,
,,,,,,,,6,0,6,0,,,,,,,,,,,,,,,,,,,,,,,,,,,,,,,,,,,,,,,,,,,,,,,,,,,,,704.4948569000699,None,,,,,,,,,,,,,,,,,,,,,,,,,,,,,,,,,,,valley,46,7,silent,white,702.483152700006,None,None,702.483152700006,None,,,,,,,,,,,,,,,,,,,,,,,,,,,,,,94ND,001,2023_Sep_01_1421,ExactRep-v3-final,2021.2.3,59.98368442532989,
,,,,,,,,7,0,7,0,,,,,,,,,,,,,,,,,,,,,,,,,,,,,,,,,,,,,,,,,,,,,,,,,,,,,706.9972953000106,None,,,,,,,,,,,,,,,,,,,,,,,,,,,,,,,,,,,moral,95,8,aloud,blue,704.9978288999991,None,None,704.9978288999991,None,,,,,,,,,,,,,,,,,,,,,,,,,,,,,,94ND,001,2023_Sep_01_1421,ExactRep-v3-final,2021.2.3,59.98368442532989,
,,,,,,,,8,0,8,0,,,,,,,,,,,,,,,,,,,,,,,,,,,,,,,,,,,,,,,,,,,,,,,,,,,,,709.4999170000665,None,,,,,,,,,,,,,,,,,,,,,,,,,,,,,,,,,,,chair,16,9,sing,red,707.4998962000245,None,None,707.4998962000245,None,,,,,,,,,,,,,,,,,,,,,,,,,,,,,,94ND,001,2023_Sep_01_1421,ExactRep-v3-final,2021.2.3,59.98368442532989,
,,,,,,,,9,0,9,0,,,,,,,,,,,,,,,,,,,,,,,,,,,,,,,,,,,,,,,,,,,,,,,,,,,,,712.0194124000845,None,,,,,,,,,,,,,,,,,,,,,,,,,,,,,,,,,,,rock,62,10,silent,white,710.0083839000436,None,None,710.0083839000436,None,,,,,,,,,,,,,,,,,,,,,,,,,,,,,,94ND,001,2023_Sep_01_1421,ExactRep-v3-final,2021.2.3,59.98368442532989,
,,,,,,,,10,0,10,0,,,,,,,,,,,,,,,,,,,,,,,,,,,,,,,,,,,,,,,,,,,,,,,,,,,,,714.5259950000327,None,,,,,,,,,,,,,,,,,,,,,,,,,,,,,,,,,,,arm,111,11,aloud,blue,712.5217405000003,None,None,712.5217405000003,None,,,,,,,,,,,,,,,,,,,,,,,,,,,,,,94ND,001,2023_Sep_01_1421,ExactRep-v3-final,2021.2.3,59.98368442532989,
,,,,,,,,11,0,11,0,,,,,,,,,,,,,,,,,,,,,,,,,,,,,,,,,,,,,,,,,,,,,,,,,,,,,717.0407859000843,None,,,,,,,,,,,,,,,,,,,,,,,,,,,,,,,,,,,stone,90,12,aloud,blue,715.0404813000932,None,None,715.0404813000932,None,,,,,,,,,,,,,,,,,,,,,,,,,,,,,,94ND,001,2023_Sep_01_1421,ExactRep-v3-final,2021.2.3,59.98368442532989,
,,,,,,,,12,0,12,0,,,,,,,,,,,,,,,,,,,,,,,,,,,,,,,,,,,,,,,,,,,,,,,,,,,,,719.5596001000376,None,,,,,,,,,,,,,,,,,,,,,,,,,,,,,,,,,,,party,15,13,sing,red,717.5448859999888,None,None,717.5448859999888,None,,,,,,,,,,,,,,,,,,,,,,,,,,,,,,94ND,001,2023_Sep_01_1421,ExactRep-v3-final,2021.2.3,59.98368442532989,
,,,,,,,,13,0,13,0,,,,,,,,,,,,,,,,,,,,,,,,,,,,,,,,,,,,,,,,,,,,,,,,,,,,,722.0621801000088,None,,,,,,,,,,,,,,,,,,,,,,,,,,,,,,,,,,,butter,18,14,sing,red,720.0601612000028,None,None,720.0601612000028,None,,,,,,,,,,,,,,,,,,,,,,,,,,,,,,94ND,001,2023_Sep_01_1421,ExactRep-v3-final,2021.2.3,59.98368442532989,
,,,,,,,,14,0,14,0,,,,,,,,,,,,,,,,,,,,,,,,,,,,,,,,,,,,,,,,,,,,,,,,,,,,,724.5651109000901,None,,,,,,,,,,,,,,,,,,,,,,,,,,,,,,,,,,,cabin,100,15,aloud,blue,722.5634305999847,None,None,722.5634305999847,None,,,,,,,,,,,,,,,,,,,,,,,,,,,,,,94ND,001,2023_Sep_01_1421,ExactRep-v3-final,2021.2.3,59.98368442532989,
,,,,,,,,15,0,15,0,,,,,,,,,,,,,,,,,,,,,,,,,,,,,,,,,,,,,,,,,,,,,,,,,,,,,727.0671764999861,None,,,,,,,,,,,,,,,,,,,,,,,,,,,,,,,,,,,meadow,34,16,sing,red,725.0658777999924,None,None,725.0658777999924,None,,,,,,,,,,,,,,,,,,,,,,,,,,,,,,94ND,001,2023_Sep_01_1421,ExactRep-v3-final,2021.2.3,59.98368442532989,
,,,,,,,,16,0,16,0,,,,,,,,,,,,,,,,,,,,,,,,,,,,,,,,,,,,,,,,,,,,,,,,,,,,,729.5700264000334,None,,,,,,,,,,,,,,,,,,,,,,,,,,,,,,,,,,,blood,41,17,silent,white,727.5686627000105,None,None,727.5686627000105,None,,,,,,,,,,,,,,,,,,,,,,,,,,,,,,94ND,001,2023_Sep_01_1421,ExactRep-v3-final,2021.2.3,59.98368442532989,
,,,,,,,,17,0,17,0,,,,,,,,,,,,,,,,,,,,,,,,,,,,,,,,,,,,,,,,,,,,,,,,,,,,,732.0893036000198,None,,,,,,,,,,,,,,,,,,,,,,,,,,,,,,,,,,,letter,48,18,silent,white,730.0743011999875,None,None,730.0743011999875,None,,,,,,,,,,,,,,,,,,,,,,,,,,,,,,94ND,001,2023_Sep_01_1421,ExactRep-v3-final,2021.2.3,59.98368442532989,
,,,,,,,,18,0,18,0,,,,,,,,,,,,,,,,,,,,,,,,,,,,,,,,,,,,,,,,,,,,,,,,,,,,,734.5922100000316,None,,,,,,,,,,,,,,,,,,,,,,,,,,,,,,,,,,,devil,3,19,sing,red,732.5921301000053,None,None,732.5921301000053,None,,,,,,,,,,,,,,,,,,,,,,,,,,,,,,94ND,001,2023_Sep_01_1421,ExactRep-v3-final,2021.2.3,59.98368442532989,
,,,,,,,,19,0,19,0,,,,,,,,,,,,,,,,,,,,,,,,,,,,,,,,,,,,,,,,,,,,,,,,,,,,,737.0937859000405,None,,,,,,,,,,,,,,,,,,,,,,,,,,,,,,,,,,,tool,53,20,silent,white,735.0919158000033,None,None,735.0919158000033,None,,,,,,,,,,,,,,,,,,,,,,,,,,,,,,94ND,001,2023_Sep_01_1421,ExactRep-v3-final,2021.2.3,59.98368442532989,
,,,,,,,,20,0,20,0,,,,,,,,,,,,,,,,,,,,,,,,,,,,,,,,,,,,,,,,,,,,,,,,,,,,,739.5968046000926,None,,,,,,,,,,,,,,,,,,,,,,,,,,,,,,,,,,,house,114,21,aloud,blue,737.5947671000613,None,None,737.5947671000613,None,,,,,,,,,,,,,,,,,,,,,,,,,,,,,,94ND,001,2023_Sep_01_1421,ExactRep-v3-final,2021.2.3,59.98368442532989,
,,,,,,,,21,0,21,0,,,,,,,,,,,,,,,,,,,,,,,,,,,,,,,,,,,,,,,,,,,,,,,,,,,,,742.1000497000059,None,,,,,,,,,,,,,,,,,,,,,,,,,,,,,,,,,,,breast,81,22,aloud,blue,740.0974096000427,None,None,740.0974096000427,None,,,,,,,,,,,,,,,,,,,,,,,,,,,,,,94ND,001,2023_Sep_01_1421,ExactRep-v3-final,2021.2.3,59.98368442532989,
,,,,,,,,22,0,22,0,,,,,,,,,,,,,,,,,,,,,,,,,,,,,,,,,,,,,,,,,,,,,,,,,,,,,744.6013807000127,None,,,,,,,,,,,,,,,,,,,,,,,,,,,,,,,,,,,green,5,23,sing,red,742.5997545000864,None,None,742.5997545000864,None,,,,,,,,,,,,,,,,,,,,,,,,,,,,,,94ND,001,2023_Sep_01_1421,ExactRep-v3-final,2021.2.3,59.98368442532989,
,,,,,,,,23,0,23,0,,,,,,,,,,,,,,,,,,,,,,,,,,,,,,,,,,,,,,,,,,,,,,,,,,,,,747.1043000000063,None,,,,,,,,,,,,,,,,,,,,,,,,,,,,,,,,,,,author,72,24,silent,white,745.103768400033,None,None,745.103768400033,None,,,,,,,,,,,,,,,,,,,,,,,,,,,,,,94ND,001,2023_Sep_01_1421,ExactRep-v3-final,2021.2.3,59.98368442532989,
,,,,,,,,24,0,24,0,,,,,,,,,,,,,,,,,,,,,,,,,,,,,,,,,,,,,,,,,,,,,,,,,,,,,749.6062318000477,None,,,,,,,,,,,,,,,,,,,,,,,,,,,,,,,,,,,student,25,25,sing,red,747.6048568000551,None,None,747.6048568000551,None,,,,,,,,,,,,,,,,,,,,,,,,,,,,,,94ND,001,2023_Sep_01_1421,ExactRep-v3-final,2021.2.3,59.98368442532989,
,,,,,,,,25,0,25,0,,,,,,,,,,,,,,,,,,,,,,,,,,,,,,,,,,,,,,,,,,,,,,,,,,,,,752.1090971999802,None,,,,,,,,,,,,,,,,,,,,,,,,,,,,,,,,,,,lord,1,26,sing,red,750.1084730000002,None,None,750.1084730000002,None,,,,,,,,,,,,,,,,,,,,,,,,,,,,,,94ND,001,2023_Sep_01_1421,ExactRep-v3-final,2021.2.3,59.98368442532989,
,,,,,,,,26,0,26,0,,,,,,,,,,,,,,,,,,,,,,,,,,,,,,,,,,,,,,,,,,,,,,,,,,,,,754.6290934000863,None,,,,,,,,,,,,,,,,,,,,,,,,,,,,,,,,,,,quality,97,27,aloud,blue,752.6134501000633,None,None,752.6134501000633,None,,,,,,,,,,,,,,,,,,,,,,,,,,,,,,94ND,001,2023_Sep_01_1421,ExactRep-v3-final,2021.2.3,59.98368442532989,
,,,,,,,,27,0,27,0,,,,,,,,,,,,,,,,,,,,,,,,,,,,,,,,,,,,,,,,,,,,,,,,,,,,,757.1305543000344,None,,,,,,,,,,,,,,,,,,,,,,,,,,,,,,,,,,,month,10,28,sing,red,755.1312896000454,None,None,755.1312896000454,None,,,,,,,,,,,,,,,,,,,,,,,,,,,,,,94ND,001,2023_Sep_01_1421,ExactRep-v3-final,2021.2.3,59.98368442532989,
,,,,,,,,28,0,28,0,,,,,,,,,,,,,,,,,,,,,,,,,,,,,,,,,,,,,,,,,,,,,,,,,,,,,759.6329061000142,None,,,,,,,,,,,,,,,,,,,,,,,,,,,,,,,,,,,vision,96,29,aloud,blue,757.6316371000139,None,None,757.6316371000139,None,,,,,,,,,,,,,,,,,,,,,,,,,,,,,,94ND,001,2023_Sep_01_1421,ExactRep-v3-final,2021.2.3,59.98368442532989,
,,,,,,,,29,0,29,0,,,,,,,,,,,,,,,,,,,,,,,,,,,,,,,,,,,,,,,,,,,,,,,,,,,,,762.152507700026,None,,,,,,,,,,,,,,,,,,,,,,,,,,,,,,,,,,,church,57,30,silent,white,760.1478661000729,None,None,760.1478661000729,None,,,,,,,,,,,,,,,,,,,,,,,,,,,,,,94ND,001,2023_Sep_01_1421,ExactRep-v3-final,2021.2.3,59.98368442532989,
,,,,,,,,30,0,30,0,,,,,,,,,,,,,,,,,,,,,,,,,,,,,,,,,,,,,,,,,,,,,,,,,,,,,764.6547030999791,None,,,,,,,,,,,,,,,,,,,,,,,,,,,,,,,,,,,leader,77,31,silent,white,762.6527329999954,None,None,762.6527329999954,None,,,,,,,,,,,,,,,,,,,,,,,,,,,,,,94ND,001,2023_Sep_01_1421,ExactRep-v3-final,2021.2.3,59.98368442532989,
,,,,,,,,31,0,31,0,,,,,,,,,,,,,,,,,,,,,,,,,,,,,,,,,,,,,,,,,,,,,,,,,,,,,767.1572093000868,None,,,,,,,,,,,,,,,,,,,,,,,,,,,,,,,,,,,glory,54,32,silent,white,765.1559760000091,None,None,765.1559760000091,None,,,,,,,,,,,,,,,,,,,,,,,,,,,,,,94ND,001,2023_Sep_01_1421,ExactRep-v3-final,2021.2.3,59.98368442532989,
,,,,,,,,32,0,32,0,,,,,,,,,,,,,,,,,,,,,,,,,,,,,,,,,,,,,,,,,,,,,,,,,,,,,769.6597047999967,None,,,,,,,,,,,,,,,,,,,,,,,,,,,,,,,,,,,ticket,113,33,aloud,blue,767.6603792000096,None,None,767.6603792000096,None,,,,,,,,,,,,,,,,,,,,,,,,,,,,,,94ND,001,2023_Sep_01_1421,ExactRep-v3-final,2021.2.3,59.98368442532989,
,,,,,,,,33,0,33,0,,,,,,,,,,,,,,,,,,,,,,,,,,,,,,,,,,,,,,,,,,,,,,,,,,,,,772.162395899999,None,,,,,,,,,,,,,,,,,,,,,,,,,,,,,,,,,,,dress,83,34,aloud,blue,770.1609023000346,None,None,770.1609023000346,None,,,,,,,,,,,,,,,,,,,,,,,,,,,,,,94ND,001,2023_Sep_01_1421,ExactRep-v3-final,2021.2.3,59.98368442532989,
,,,,,,,,34,0,34,0,,,,,,,,,,,,,,,,,,,,,,,,,,,,,,,,,,,,,,,,,,,,,,,,,,,,,774.6826378999976,None,,,,,,,,,,,,,,,,,,,,,,,,,,,,,,,,,,,fact,49,35,silent,white,772.6665782000637,None,None,772.6665782000637,None,,,,,,,,,,,,,,,,,,,,,,,,,,,,,,94ND,001,2023_Sep_01_1421,ExactRep-v3-final,2021.2.3,59.98368442532989,
,,,,,,,,35,0,35,0,,,,,,,,,,,,,,,,,,,,,,,,,,,,,,,,,,,,,,,,,,,,,,,,,,,,,777.1837118000258,None,,,,,,,,,,,,,,,,,,,,,,,,,,,,,,,,,,,fate,87,36,aloud,blue,775.1846421000082,None,None,775.1846421000082,None,,,,,,,,,,,,,,,,,,,,,,,,,,,,,,94ND,001,2023_Sep_01_1421,ExactRep-v3-final,2021.2.3,59.98368442532989,
,,,,,,,,36,0,36,0,,,,,,,,,,,,,,,,,,,,,,,,,,,,,,,,,,,,,,,,,,,,,,,,,,,,,779.6868701000931,None,,,,,,,,,,,,,,,,,,,,,,,,,,,,,,,,,,,shadow,91,37,aloud,blue,777.684952700045,None,None,777.684952700045,None,,,,,,,,,,,,,,,,,,,,,,,,,,,,,,94ND,001,2023_Sep_01_1421,ExactRep-v3-final,2021.2.3,59.98368442532989,
,,,,,,,,37,0,37,0,,,,,,,,,,,,,,,,,,,,,,,,,,,,,,,,,,,,,,,,,,,,,,,,,,,,,782.1890433999943,None,,,,,,,,,,,,,,,,,,,,,,,,,,,,,,,,,,,iron,89,38,aloud,blue,780.18713570002,None,None,780.18713570002,None,,,,,,,,,,,,,,,,,,,,,,,,,,,,,,94ND,001,2023_Sep_01_1421,ExactRep-v3-final,2021.2.3,59.98368442532989,
,,,,,,,,38,0,38,0,,,,,,,,,,,,,,,,,,,,,,,,,,,,,,,,,,,,,,,,,,,,,,,,,,,,,784.6915633000899,None,,,,,,,,,,,,,,,,,,,,,,,,,,,,,,,,,,,army,6,39,sing,red,782.6903384000761,None,None,782.6903384000761,None,,,,,,,,,,,,,,,,,,,,,,,,,,,,,,94ND,001,2023_Sep_01_1421,ExactRep-v3-final,2021.2.3,59.98368442532989,
,,,,,,,,39,0,39,0,,,,,,,,,,,,,,,,,,,,,,,,,,,,,,,,,,,,,,,,,,,,,,,,,,,,,787.1939483000897,None,,,,,,,,,,,,,,,,,,,,,,,,,,,,,,,,,,,market,73,40,silent,white,785.1928222000133,None,None,785.1928222000133,None,,,,,,,,,,,,,,,,,,,,,,,,,,,,,,94ND,001,2023_Sep_01_1421,ExactRep-v3-final,2021.2.3,59.98368442532989,
,,,,,,,,40,0,40,0,,,,,,,,,,,,,,,,,,,,,,,,,,,,,,,,,,,,,,,,,,,,,,,,,,,,,789.6968807000667,None,,,,,,,,,,,,,,,,,,,,,,,,,,,,,,,,,,,shoes,59,41,silent,white,787.6948855000082,None,None,787.6948855000082,None,,,,,,,,,,,,,,,,,,,,,,,,,,,,,,94ND,001,2023_Sep_01_1421,ExactRep-v3-final,2021.2.3,59.98368442532989,
,,,,,,,,41,0,41,0,,,,,,,,,,,,,,,,,,,,,,,,,,,,,,,,,,,,,,,,,,,,,,,,,,,,,792.1988093000837,None,,,,,,,,,,,,,,,,,,,,,,,,,,,,,,,,,,,moment,109,42,aloud,blue,790.1974806000944,None,None,790.1974806000944,None,,,,,,,,,,,,,,,,,,,,,,,,,,,,,,94ND,001,2023_Sep_01_1421,ExactRep-v3-final,2021.2.3,59.98368442532989,
,,,,,,,,42,0,42,0,,,,,,,,,,,,,,,,,,,,,,,,,,,,,,,,,,,,,,,,,,,,,,,,,,,,,794.7015475999797,None,,,,,,,,,,,,,,,,,,,,,,,,,,,,,,,,,,,winter,93,43,aloud,blue,792.7003568999935,None,None,792.7003568999935,None,,,,,,,,,,,,,,,,,,,,,,,,,,,,,,94ND,001,2023_Sep_01_1421,ExactRep-v3-final,2021.2.3,59.98368442532989,
,,,,,,,,43,0,43,0,,,,,,,,,,,,,,,,,,,,,,,,,,,,,,,,,,,,,,,,,,,,,,,,,,,,,797.2038739999989,None,,,,,,,,,,,,,,,,,,,,,,,,,,,,,,,,,,,opinion,67,44,silent,white,795.2025995000731,None,None,795.2025995000731,None,,,,,,,,,,,,,,,,,,,,,,,,,,,,,,94ND,001,2023_Sep_01_1421,ExactRep-v3-final,2021.2.3,59.98368442532989,
,,,,,,,,44,0,44,0,,,,,,,,,,,,,,,,,,,,,,,,,,,,,,,,,,,,,,,,,,,,,,,,,,,,,799.7066327000502,None,,,,,,,,,,,,,,,,,,,,,,,,,,,,,,,,,,,soil,33,45,sing,red,797.704914300004,None,None,797.704914300004,None,,,,,,,,,,,,,,,,,,,,,,,,,,,,,,94ND,001,2023_Sep_01_1421,ExactRep-v3-final,2021.2.3,59.98368442532989,
,,,,,,,,45,0,45,0,,,,,,,,,,,,,,,,,,,,,,,,,,,,,,,,,,,,,,,,,,,,,,,,,,,,,802.2255659000948,None,,,,,,,,,,,,,,,,,,,,,,,,,,,,,,,,,,,love,94,46,aloud,blue,800.2107820999809,None,None,800.2107820999809,None,,,,,,,,,,,,,,,,,,,,,,,,,,,,,,94ND,001,2023_Sep_01_1421,ExactRep-v3-final,2021.2.3,59.98368442532989,
,,,,,,,,46,0,46,0,,,,,,,,,,,,,,,,,,,,,,,,,,,,,,,,,,,,,,,,,,,,,,,,,,,,,804.7281987000024,None,,,,,,,,,,,,,,,,,,,,,,,,,,,,,,,,,,,doctor,7,47,sing,red,802.7260934000369,None,None,802.7260934000369,None,,,,,,,,,,,,,,,,,,,,,,,,,,,,,,94ND,001,2023_Sep_01_1421,ExactRep-v3-final,2021.2.3,59.98368442532989,
,,,,,,,,47,0,47,0,,,,,,,,,,,,,,,,,,,,,,,,,,,,,,,,,,,,,,,,,,,,,,,,,,,,,807.2309391000308,None,,,,,,,,,,,,,,,,,,,,,,,,,,,,,,,,,,,anger,4,48,sing,red,805.22905980004,None,None,805.22905980004,None,,,,,,,,,,,,,,,,,,,,,,,,,,,,,,94ND,001,2023_Sep_01_1421,ExactRep-v3-final,2021.2.3,59.98368442532989,
,,,,,,,,48,0,48,0,,,,,,,,,,,,,,,,,,,,,,,,,,,,,,,,,,,,,,,,,,,,,,,,,,,,,809.7329780000728,None,,,,,,,,,,,,,,,,,,,,,,,,,,,,,,,,,,,square,102,49,aloud,blue,807.7323679000838,None,None,807.7323679000838,None,,,,,,,,,,,,,,,,,,,,,,,,,,,,,,94ND,001,2023_Sep_01_1421,ExactRep-v3-final,2021.2.3,59.98368442532989,
,,,,,,,,49,0,49,0,,,,,,,,,,,,,,,,,,,,,,,,,,,,,,,,,,,,,,,,,,,,,,,,,,,,,812.2356673000613,None,,,,,,,,,,,,,,,,,,,,,,,,,,,,,,,,,,,teacher,43,50,silent,white,810.2342159000691,None,None,810.2342159000691,None,,,,,,,,,,,,,,,,,,,,,,,,,,,,,,94ND,001,2023_Sep_01_1421,ExactRep-v3-final,2021.2.3,59.98368442532989,
,,,,,,,,50,0,50,0,,,,,,,,,,,,,,,,,,,,,,,,,,,,,,,,,,,,,,,,,,,,,,,,,,,,,814.7382339000469,None,,,,,,,,,,,,,,,,,,,,,,,,,,,,,,,,,,,truth,65,51,silent,white,812.7368904000614,None,None,812.7368904000614,None,,,,,,,,,,,,,,,,,,,,,,,,,,,,,,94ND,001,2023_Sep_01_1421,ExactRep-v3-final,2021.2.3,59.98368442532989,
,,,,,,,,51,0,51,0,,,,,,,,,,,,,,,,,,,,,,,,,,,,,,,,,,,,,,,,,,,,,,,,,,,,,817.2407033999916,None,,,,,,,,,,,,,,,,,,,,,,,,,,,,,,,,,,,duty,117,52,aloud,blue,815.240977599984,None,None,815.240977599984,None,,,,,,,,,,,,,,,,,,,,,,,,,,,,,,94ND,001,2023_Sep_01_1421,ExactRep-v3-final,2021.2.3,59.98368442532989,
,,,,,,,,52,0,52,0,,,,,,,,,,,,,,,,,,,,,,,,,,,,,,,,,,,,,,,,,,,,,,,,,,,,,819.7596659000264,None,,,,,,,,,,,,,,,,,,,,,,,,,,,,,,,,,,,crime,50,53,silent,white,817.7450262000784,None,None,817.7450262000784,None,,,,,,,,,,,,,,,,,,,,,,,,,,,,,,94ND,001,2023_Sep_01_1421,ExactRep-v3-final,2021.2.3,59.98368442532989,
,,,,,,,,53,0,53,0,,,,,,,,,,,,,,,,,,,,,,,,,,,,,,,,,,,,,,,,,,,,,,,,,,,,,822.2789280000143,None,,,,,,,,,,,,,,,,,,,,,,,,,,,,,,,,,,,child,32,54,sing,red,820.2641672000755,None,None,820.2641672000755,None,,,,,,,,,,,,,,,,,,,,,,,,,,,,,,94ND,001,2023_Sep_01_1421,ExactRep-v3-final,2021.2.3,59.98368442532989,
,,,,,,,,54,0,54,0,,,,,,,,,,,,,,,,,,,,,,,,,,,,,,,,,,,,,,,,,,,,,,,,,,,,,824.7815658000764,None,,,,,,,,,,,,,,,,,,,,,,,,,,,,,,,,,,,water,88,55,aloud,blue,822.7795939000789,None,None,822.7795939000789,None,,,,,,,,,,,,,,,,,,,,,,,,,,,,,,94ND,001,2023_Sep_01_1421,ExactRep-v3-final,2021.2.3,59.98368442532989,
,,,,,,,,55,0,55,0,,,,,,,,,,,,,,,,,,,,,,,,,,,,,,,,,,,,,,,,,,,,,,,,,,,,,827.28384560009,None,,,,,,,,,,,,,,,,,,,,,,,,,,,,,,,,,,,seat,9,56,sing,red,825.2821590000531,None,None,825.2821590000531,None,,,,,,,,,,,,,,,,,,,,,,,,,,,,,,94ND,001,2023_Sep_01_1421,ExactRep-v3-final,2021.2.3,59.98368442532989,
,,,,,,,,56,0,56,0,,,,,,,,,,,,,,,,,,,,,,,,,,,,,,,,,,,,,,,,,,,,,,,,,,,,,829.8033581000054,None,,,,,,,,,,,,,,,,,,,,,,,,,,,,,,,,,,,grass,11,57,sing,red,827.7884868000401,None,None,827.7884868000401,None,,,,,,,,,,,,,,,,,,,,,,,,,,,,,,94ND,001,2023_Sep_01_1421,ExactRep-v3-final,2021.2.3,59.98368442532989,
,,,,,,,,57,0,57,0,,,,,,,,,,,,,,,,,,,,,,,,,,,,,,,,,,,,,,,,,,,,,,,,,,,,,832.322482699994,None,,,,,,,,,,,,,,,,,,,,,,,,,,,,,,,,,,,humour,80,58,aloud,blue,830.3112766999984,None,None,830.3112766999984,None,,,,,,,,,,,,,,,,,,,,,,,,,,,,,,94ND,001,2023_Sep_01_1421,ExactRep-v3-final,2021.2.3,59.98368442532989,
,,,,,,,,58,0,58,0,,,,,,,,,,,,,,,,,,,,,,,,,,,,,,,,,,,,,,,,,,,,,,,,,,,,,834.8264931000303,None,,,,,,,,,,,,,,,,,,,,,,,,,,,,,,,,,,,charm,98,59,aloud,blue,832.8231228999794,None,None,832.8231228999794,None,,,,,,,,,,,,,,,,,,,,,,,,,,,,,,94ND,001,2023_Sep_01_1421,ExactRep-v3-final,2021.2.3,59.98368442532989,
,,,,,,,,59,0,59,0,,,,,,,,,,,,,,,,,,,,,,,,,,,,,,,,,,,,,,,,,,,,,,,,,,,,,837.3275537000736,None,,,,,,,,,,,,,,,,,,,,,,,,,,,,,,,,,,,mind,22,60,sing,red,835.3273521000519,None,None,835.3273521000519,None,,,,,,,,,,,,,,,,,,,,,,,,,,,,,,94ND,001,2023_Sep_01_1421,ExactRep-v3-final,2021.2.3,59.98368442532989,
,,,,,,,,60,0,60,0,,,,,,,,,,,,,,,,,,,,,,,,,,,,,,,,,,,,,,,,,,,,,,,,,,,,,839.83003740001,None,,,,,,,,,,,,,,,,,,,,,,,,,,,,,,,,,,,lip,60,61,silent,white,837.8303382000886,None,None,837.8303382000886,None,,,,,,,,,,,,,,,,,,,,,,,,,,,,,,94ND,001,2023_Sep_01_1421,ExactRep-v3-final,2021.2.3,59.98368442532989,
,,,,,,,,61,0,61,0,,,,,,,,,,,,,,,,,,,,,,,,,,,,,,,,,,,,,,,,,,,,,,,,,,,,,842.3329235999845,None,,,,,,,,,,,,,,,,,,,,,,,,,,,,,,,,,,,method,99,62,aloud,blue,840.332592700026,None,None,840.332592700026,None,,,,,,,,,,,,,,,,,,,,,,,,,,,,,,94ND,001,2023_Sep_01_1421,ExactRep-v3-final,2021.2.3,59.98368442532989,
,,,,,,,,62,0,62,0,,,,,,,,,,,,,,,,,,,,,,,,,,,,,,,,,,,,,,,,,,,,,,,,,,,,,844.8348060999997,None,,,,,,,,,,,,,,,,,,,,,,,,,,,,,,,,,,,mercy,86,63,aloud,blue,842.8354590000818,None,None,842.8354590000818,None,,,,,,,,,,,,,,,,,,,,,,,,,,,,,,94ND,001,2023_Sep_01_1421,ExactRep-v3-final,2021.2.3,59.98368442532989,
,,,,,,,,63,0,63,0,,,,,,,,,,,,,,,,,,,,,,,,,,,,,,,,,,,,,,,,,,,,,,,,,,,,,847.3373701000819,None,,,,,,,,,,,,,,,,,,,,,,,,,,,,,,,,,,,camp,85,64,aloud,blue,845.3372213999974,None,None,845.3372213999974,None,,,,,,,,,,,,,,,,,,,,,,,,,,,,,,94ND,001,2023_Sep_01_1421,ExactRep-v3-final,2021.2.3,59.98368442532989,
,,,,,,,,64,0,64,0,,,,,,,,,,,,,,,,,,,,,,,,,,,,,,,,,,,,,,,,,,,,,,,,,,,,,849.8399989000754,None,,,,,,,,,,,,,,,,,,,,,,,,,,,,,,,,,,,window,14,65,sing,red,847.8387678000145,None,None,847.8387678000145,None,,,,,,,,,,,,,,,,,,,,,,,,,,,,,,94ND,001,2023_Sep_01_1421,ExactRep-v3-final,2021.2.3,59.98368442532989,
,,,,,,,,65,0,65,0,,,,,,,,,,,,,,,,,,,,,,,,,,,,,,,,,,,,,,,,,,,,,,,,,,,,,852.3424911000766,None,,,,,,,,,,,,,,,,,,,,,,,,,,,,,,,,,,,fire,74,66,silent,white,850.3429840999888,None,None,850.3429840999888,None,,,,,,,,,,,,,,,,,,,,,,,,,,,,,,94ND,001,2023_Sep_01_1421,ExactRep-v3-final,2021.2.3,59.98368442532989,
,,,,,,,,66,0,66,0,,,,,,,,,,,,,,,,,,,,,,,,,,,,,,,,,,,,,,,,,,,,,,,,,,,,,854.861466200091,None,,,,,,,,,,,,,,,,,,,,,,,,,,,,,,,,,,,bottle,82,67,aloud,blue,852.8517920000013,None,None,852.8517920000013,None,,,,,,,,,,,,,,,,,,,,,,,,,,,,,,94ND,001,2023_Sep_01_1421,ExactRep-v3-final,2021.2.3,59.98368442532989,
,,,,,,,,67,0,67,0,,,,,,,,,,,,,,,,,,,,,,,,,,,,,,,,,,,,,,,,,,,,,,,,,,,,,857.3638782000635,None,,,,,,,,,,,,,,,,,,,,,,,,,,,,,,,,,,,library,103,68,aloud,blue,855.3623139000265,None,None,855.3623139000265,None,,,,,,,,,,,,,,,,,,,,,,,,,,,,,,94ND,001,2023_Sep_01_1421,ExactRep-v3-final,2021.2.3,59.98368442532989,
,,,,,,,,68,0,68,0,,,,,,,,,,,,,,,,,,,,,,,,,,,,,,,,,,,,,,,,,,,,,,,,,,,,,859.8679985000053,None,,,,,,,,,,,,,,,,,,,,,,,,,,,,,,,,,,,trouble,69,69,silent,white,857.8649449000368,None,None,857.8649449000368,None,,,,,,,,,,,,,,,,,,,,,,,,,,,,,,94ND,001,2023_Sep_01_1421,ExactRep-v3-final,2021.2.3,59.98368442532989,
,,,,,,,,69,0,69,0,,,,,,,,,,,,,,,,,,,,,,,,,,,,,,,,,,,,,,,,,,,,,,,,,,,,,862.3855865000514,None,,,,,,,,,,,,,,,,,,,,,,,,,,,,,,,,,,,series,75,70,silent,white,860.3840076000197,None,None,860.3840076000197,None,,,,,,,,,,,,,,,,,,,,,,,,,,,,,,94ND,001,2023_Sep_01_1421,ExactRep-v3-final,2021.2.3,59.98368442532989,
,,,,,,,,70,0,70,0,,,,,,,,,,,,,,,,,,,,,,,,,,,,,,,,,,,,,,,,,,,,,,,,,,,,,864.8881458999822,None,,,,,,,,,,,,,,,,,,,,,,,,,,,,,,,,,,,theory,56,71,silent,white,862.8868970000185,None,None,862.8868970000185,None,,,,,,,,,,,,,,,,,,,,,,,,,,,,,,94ND,001,2023_Sep_01_1421,ExactRep-v3-final,2021.2.3,59.98368442532989,
,,,,,,,,71,0,71,0,,,,,,,,,,,,,,,,,,,,,,,,,,,,,,,,,,,,,,,,,,,,,,,,,,,,,867.3906209000852,None,,,,,,,,,,,,,,,,,,,,,,,,,,,,,,,,,,,time,112,72,aloud,blue,865.3890435000649,None,None,865.3890435000649,None,,,,,,,,,,,,,,,,,,,,,,,,,,,,,,94ND,001,2023_Sep_01_1421,ExactRep-v3-final,2021.2.3,59.98368442532989,
,,,,,,,,72,0,72,0,,,,,,,,,,,,,,,,,,,,,,,,,,,,,,,,,,,,,,,,,,,,,,,,,,,,,869.8931837000418,None,,,,,,,,,,,,,,,,,,,,,,,,,,,,,,,,,,,factory,51,73,silent,white,867.8921577000292,None,None,867.8921577000292,None,,,,,,,,,,,,,,,,,,,,,,,,,,,,,,94ND,001,2023_Sep_01_1421,ExactRep-v3-final,2021.2.3,59.98368442532989,
,,,,,,,,73,0,73,0,,,,,,,,,,,,,,,,,,,,,,,,,,,,,,,,,,,,,,,,,,,,,,,,,,,,,872.3955615999876,None,,,,,,,,,,,,,,,,,,,,,,,,,,,,,,,,,,,priest,84,74,aloud,blue,870.3948680000613,None,None,870.3948680000613,None,,,,,,,,,,,,,,,,,,,,,,,,,,,,,,94ND,001,2023_Sep_01_1421,ExactRep-v3-final,2021.2.3,59.98368442532989,
,,,,,,,,74,0,74,0,,,,,,,,,,,,,,,,,,,,,,,,,,,,,,,,,,,,,,,,,,,,,,,,,,,,,874.898142100079,None,,,,,,,,,,,,,,,,,,,,,,,,,,,,,,,,,,,artist,27,75,sing,red,872.8961314000189,None,None,872.8961314000189,None,,,,,,,,,,,,,,,,,,,,,,,,,,,,,,94ND,001,2023_Sep_01_1421,ExactRep-v3-final,2021.2.3,59.98368442532989,
,,,,,,,,75,0,75,0,,,,,,,,,,,,,,,,,,,,,,,,,,,,,,,,,,,,,,,,,,,,,,,,,,,,,877.4006417000201,None,,,,,,,,,,,,,,,,,,,,,,,,,,,,,,,,,,,meat,8,76,sing,red,875.3987907000119,None,None,875.3987907000119,None,,,,,,,,,,,,,,,,,,,,,,,,,,,,,,94ND,001,2023_Sep_01_1421,ExactRep-v3-final,2021.2.3,59.98368442532989,
,,,,,,,,76,0,76,0,,,,,,,,,,,,,,,,,,,,,,,,,,,,,,,,,,,,,,,,,,,,,,,,,,,,,879.903148500016,None,,,,,,,,,,,,,,,,,,,,,,,,,,,,,,,,,,,present,119,77,aloud,blue,877.9022096000845,None,None,877.9022096000845,None,,,,,,,,,,,,,,,,,,,,,,,,,,,,,,94ND,001,2023_Sep_01_1421,ExactRep-v3-final,2021.2.3,59.98368442532989,
,,,,,,,,77,0,77,0,,,,,,,,,,,,,,,,,,,,,,,,,,,,,,,,,,,,,,,,,,,,,,,,,,,,,882.4054873000132,None,,,,,,,,,,,,,,,,,,,,,,,,,,,,,,,,,,,friend,28,78,sing,red,880.4048467000248,None,None,880.4048467000248,None,,,,,,,,,,,,,,,,,,,,,,,,,,,,,,94ND,001,2023_Sep_01_1421,ExactRep-v3-final,2021.2.3,59.98368442532989,
,,,,,,,,78,0,78,0,,,,,,,,,,,,,,,,,,,,,,,,,,,,,,,,,,,,,,,,,,,,,,,,,,,,,884.9087294000201,None,,,,,,,,,,,,,,,,,,,,,,,,,,,,,,,,,,,history,24,79,sing,red,882.9066948000109,None,None,882.9066948000109,None,,,,,,,,,,,,,,,,,,,,,,,,,,,,,,94ND,001,2023_Sep_01_1421,ExactRep-v3-final,2021.2.3,59.98368442532989,
,,,,,,,,79,0,79,0,,,,,,,,,,,,,,,,,,,,,,,,,,,,,,,,,,,,,,,,,,,,,,,,,,,,,887.4276204000926,None,,,,,,,,,,,,,,,,,,,,,,,,,,,,,,,,,,,advice,79,80,sing,red,885.412470899988,None,None,885.412470899988,None,,,,,,,,,,,,,,,,,,,,,,,,,,,,,,94ND,001,2023_Sep_01_1421,ExactRep-v3-final,2021.2.3,59.98368442532989,
,,,,,,,,80,0,80,0,,,,,,,,,,,,,,,,,,,,,,,,,,,,,,,,,,,,,,,,,,,,,,,,,,,,,889.9300020000665,None,,,,,,,,,,,,,,,,,,,,,,,,,,,,,,,,,,,paper,101,81,aloud,blue,887.9279665000504,None,None,887.9279665000504,None,,,,,,,,,,,,,,,,,,,,,,,,,,,,,,94ND,001,2023_Sep_01_1421,ExactRep-v3-final,2021.2.3,59.98368442532989,
,,,,,,,,81,0,81,0,,,,,,,,,,,,,,,,,,,,,,,,,,,,,,,,,,,,,,,,,,,,,,,,,,,,,892.4323549000546,None,,,,,,,,,,,,,,,,,,,,,,,,,,,,,,,,,,,city,21,82,sing,red,890.4305235000793,None,None,890.4305235000793,None,,,,,,,,,,,,,,,,,,,,,,,,,,,,,,94ND,001,2023_Sep_01_1421,ExactRep-v3-final,2021.2.3,59.98368442532989,
,,,,,,,,82,0,82,0,,,,,,,,,,,,,,,,,,,,,,,,,,,,,,,,,,,,,,,,,,,,,,,,,,,,,894.9346099999966,None,,,,,,,,,,,,,,,,,,,,,,,,,,,,,,,,,,,village,116,83,aloud,blue,892.9331036000513,None,None,892.9331036000513,None,,,,,,,,,,,,,,,,,,,,,,,,,,,,,,94ND,001,2023_Sep_01_1421,ExactRep-v3-final,2021.2.3,59.98368442532989,
,,,,,,,,83,0,83,0,,,,,,,,,,,,,,,,,,,,,,,,,,,,,,,,,,,,,,,,,,,,,,,,,,,,,897.4374998999992,None,,,,,,,,,,,,,,,,,,,,,,,,,,,,,,,,,,,coffee,40,84,silent,white,895.4366240000818,None,None,895.4366240000818,None,,,,,,,,,,,,,,,,,,,,,,,,,,,,,,94ND,001,2023_Sep_01_1421,ExactRep-v3-final,2021.2.3,59.98368442532989,
,,,,,,,,84,0,84,0,,,,,,,,,,,,,,,,,,,,,,,,,,,,,,,,,,,,,,,,,,,,,,,,,,,,,899.9397938000038,None,,,,,,,,,,,,,,,,,,,,,,,,,,,,,,,,,,,cash,45,85,silent,white,897.9380504000001,None,None,897.9380504000001,None,,,,,,,,,,,,,,,,,,,,,,,,,,,,,,94ND,001,2023_Sep_01_1421,ExactRep-v3-final,2021.2.3,59.98368442532989,
,,,,,,,,85,0,85,0,,,,,,,,,,,,,,,,,,,,,,,,,,,,,,,,,,,,,,,,,,,,,,,,,,,,,902.4423260000767,None,,,,,,,,,,,,,,,,,,,,,,,,,,,,,,,,,,,master,20,86,sing,red,900.4412484000204,None,None,900.4412484000204,None,,,,,,,,,,,,,,,,,,,,,,,,,,,,,,94ND,001,2023_Sep_01_1421,ExactRep-v3-final,2021.2.3,59.98368442532989,
,,,,,,,,86,0,86,0,,,,,,,,,,,,,,,,,,,,,,,,,,,,,,,,,,,,,,,,,,,,,,,,,,,,,904.9447881000815,None,,,,,,,,,,,,,,,,,,,,,,,,,,,,,,,,,,,meeting,26,87,sing,red,902.9429946000455,None,None,902.9429946000455,None,,,,,,,,,,,,,,,,,,,,,,,,,,,,,,94ND,001,2023_Sep_01_1421,ExactRep-v3-final,2021.2.3,59.98368442532989,
,,,,,,,,87,0,87,0,,,,,,,,,,,,,,,,,,,,,,,,,,,,,,,,,,,,,,,,,,,,,,,,,,,,,907.4473172000144,None,,,,,,,,,,,,,,,,,,,,,,,,,,,,,,,,,,,silence,19,88,sing,red,905.4460996000562,None,None,905.4460996000562,None,,,,,,,,,,,,,,,,,,,,,,,,,,,,,,94ND,001,2023_Sep_01_1421,ExactRep-v3-final,2021.2.3,59.98368442532989,
,,,,,,,,88,0,88,0,,,,,,,,,,,,,,,,,,,,,,,,,,,,,,,,,,,,,,,,,,,,,,,,,,,,,909.9498339000857,None,,,,,,,,,,,,,,,,,,,,,,,,,,,,,,,,,,,gold,35,89,sing,red,907.9477801000467,None,None,907.9477801000467,None,,,,,,,,,,,,,,,,,,,,,,,,,,,,,,94ND,001,2023_Sep_01_1421,ExactRep-v3-final,2021.2.3,59.98368442532989,
,,,,,,,,89,0,89,0,,,,,,,,,,,,,,,,,,,,,,,,,,,,,,,,,,,,,,,,,,,,,,,,,,,,,912.4690288000274,None,,,,,,,,,,,,,,,,,,,,,,,,,,,,,,,,,,,nail,39,90,silent,white,910.4538356000558,None,None,910.4538356000558,None,,,,,,,,,,,,,,,,,,,,,,,,,,,,,,94ND,001,2023_Sep_01_1421,ExactRep-v3-final,2021.2.3,59.98368442532989,
,,,,,,,,90,0,90,0,,,,,,,,,,,,,,,,,,,,,,,,,,,,,,,,,,,,,,,,,,,,,,,,,,,,,914.9885416000616,None,,,,,,,,,,,,,,,,,,,,,,,,,,,,,,,,,,,colony,118,91,aloud,blue,912.9741231000517,None,None,912.9741231000517,None,,,,,,,,,,,,,,,,,,,,,,,,,,,,,,94ND,001,2023_Sep_01_1421,ExactRep-v3-final,2021.2.3,59.98368442532989,
,,,,,,,,91,0,91,0,,,,,,,,,,,,,,,,,,,,,,,,,,,,,,,,,,,,,,,,,,,,,,,,,,,,,917.4911845000461,None,,,,,,,,,,,,,,,,,,,,,,,,,,,,,,,,,,,river,63,92,silent,white,915.4920229000272,None,None,915.4920229000272,None,,,,,,,,,,,,,,,,,,,,,,,,,,,,,,94ND,001,2023_Sep_01_1421,ExactRep-v3-final,2021.2.3,59.98368442532989,
,,,,,,,,92,0,92,0,,,,,,,,,,,,,,,,,,,,,,,,,,,,,,,,,,,,,,,,,,,,,,,,,,,,,919.9930423999904,None,,,,,,,,,,,,,,,,,,,,,,,,,,,,,,,,,,,speech,42,93,silent,white,917.9914582000347,None,None,917.9914582000347,None,,,,,,,,,,,,,,,,,,,,,,,,,,,,,,94ND,001,2023_Sep_01_1421,ExactRep-v3-final,2021.2.3,59.98368442532989,
,,,,,,,,93,0,93,0,,,,,,,,,,,,,,,,,,,,,,,,,,,,,,,,,,,,,,,,,,,,,,,,,,,,,922.495662100031,None,,,,,,,,,,,,,,,,,,,,,,,,,,,,,,,,,,,avenue,92,94,aloud,blue,920.4945201000664,None,None,920.4945201000664,None,,,,,,,,,,,,,,,,,,,,,,,,,,,,,,94ND,001,2023_Sep_01_1421,ExactRep-v3-final,2021.2.3,59.98368442532989,
,,,,,,,,94,0,94,0,,,,,,,,,,,,,,,,,,,,,,,,,,,,,,,,,,,,,,,,,,,,,,,,,,,,,924.9981951999944,None,,,,,,,,,,,,,,,,,,,,,,,,,,,,,,,,,,,animal,76,95,silent,white,922.9967359000584,None,None,922.9967359000584,None,,,,,,,,,,,,,,,,,,,,,,,,,,,,,,94ND,001,2023_Sep_01_1421,ExactRep-v3-final,2021.2.3,59.98368442532989,
,,,,,,,,95,0,95,0,,,,,,,,,,,,,,,,,,,,,,,,,,,,,,,,,,,,,,,,,,,,,,,,,,,,,927.5006626000395,None,,,,,,,,,,,,,,,,,,,,,,,,,,,,,,,,,,,honour,44,96,silent,white,925.4993504000595,None,None,925.4993504000595,None,,,,,,,,,,,,,,,,,,,,,,,,,,,,,,94ND,001,2023_Sep_01_1421,ExactRep-v3-final,2021.2.3,59.98368442532989,
,,,,,,,,96,0,96,0,,,,,,,,,,,,,,,,,,,,,,,,,,,,,,,,,,,,,,,,,,,,,,,,,,,,,930.003211800009,None,,,,,,,,,,,,,,,,,,,,,,,,,,,,,,,,,,,freedom,68,97,silent,white,928.0029922000831,None,None,928.0029922000831,None,,,,,,,,,,,,,,,,,,,,,,,,,,,,,,94ND,001,2023_Sep_01_1421,ExactRep-v3-final,2021.2.3,59.98368442532989,
,,,,,,,,97,0,97,0,,,,,,,,,,,,,,,,,,,,,,,,,,,,,,,,,,,,,,,,,,,,,,,,,,,,,932.5060391000006,None,,,,,,,,,,,,,,,,,,,,,,,,,,,,,,,,,,,pole,37,98,sing,red,930.5040895000566,None,None,930.5040895000566,None,,,,,,,,,,,,,,,,,,,,,,,,,,,,,,94ND,001,2023_Sep_01_1421,ExactRep-v3-final,2021.2.3,59.98368442532989,
,,,,,,,,98,0,98,0,,,,,,,,,,,,,,,,,,,,,,,,,,,,,,,,,,,,,,,,,,,,,,,,,,,,,935.0248869000934,None,,,,,,,,,,,,,,,,,,,,,,,,,,,,,,,,,,,wheat,107,99,aloud,blue,933.0108795000706,None,None,933.0108795000706,None,,,,,,,,,,,,,,,,,,,,,,,,,,,,,,94ND,001,2023_Sep_01_1421,ExactRep-v3-final,2021.2.3,59.98368442532989,
,,,,,,,,99,0,99,0,,,,,,,,,,,,,,,,,,,,,,,,,,,,,,,,,,,,,,,,,,,,,,,,,,,,,937.5276340000564,None,,,,,,,,,,,,,,,,,,,,,,,,,,,,,,,,,,,memory,29,100,sing,red,935.5257071000524,None,None,935.5257071000524,None,,,,,,,,,,,,,,,,,,,,,,,,,,,,,,94ND,001,2023_Sep_01_1421,ExactRep-v3-final,2021.2.3,59.98368442532989,
,,,,,,,,100,0,100,0,,,,,,,,,,,,,,,,,,,,,,,,,,,,,,,,,,,,,,,,,,,,,,,,,,,,,940.0302762000356,None,,,,,,,,,,,,,,,,,,,,,,,,,,,,,,,,,,,string,70,101,silent,white,938.028215300059,None,None,938.028215300059,None,,,,,,,,,,,,,,,,,,,,,,,,,,,,,,94ND,001,2023_Sep_01_1421,ExactRep-v3-final,2021.2.3,59.98368442532989,
,,,,,,,,101,0,101,0,,,,,,,,,,,,,,,,,,,,,,,,,,,,,,,,,,,,,,,,,,,,,,,,,,,,,942.5329997000517,None,,,,,,,,,,,,,,,,,,,,,,,,,,,,,,,,,,,lake,52,102,silent,white,940.5311473000329,None,None,940.5311473000329,None,,,,,,,,,,,,,,,,,,,,,,,,,,,,,,94ND,001,2023_Sep_01_1421,ExactRep-v3-final,2021.2.3,59.98368442532989,
,,,,,,,,102,0,102,0,,,,,,,,,,,,,,,,,,,,,,,,,,,,,,,,,,,,,,,,,,,,,,,,,,,,,945.0355352000333,None,,,,,,,,,,,,,,,,,,,,,,,,,,,,,,,,,,,passion,13,103,sing,red,943.0334322000854,None,None,943.0334322000854,None,,,,,,,,,,,,,,,,,,,,,,,,,,,,,,94ND,001,2023_Sep_01_1421,ExactRep-v3-final,2021.2.3,59.98368442532989,
,,,,,,,,103,0,103,0,,,,,,,,,,,,,,,,,,,,,,,,,,,,,,,,,,,,,,,,,,,,,,,,,,,,,947.5376073000953,None,,,,,,,,,,,,,,,,,,,,,,,,,,,,,,,,,,,bird,78,104,silent,white,945.5379275000887,None,None,945.5379275000887,None,,,,,,,,,,,,,,,,,,,,,,,,,,,,,,94ND,001,2023_Sep_01_1421,ExactRep-v3-final,2021.2.3,59.98368442532989,
,,,,,,,,104,0,104,0,,,,,,,,,,,,,,,,,,,,,,,,,,,,,,,,,,,,,,,,,,,,,,,,,,,,,950.0403532000491,None,,,,,,,,,,,,,,,,,,,,,,,,,,,,,,,,,,,tree,64,105,silent,white,948.0398778000381,None,None,948.0398778000381,None,,,,,,,,,,,,,,,,,,,,,,,,,,,,,,94ND,001,2023_Sep_01_1421,ExactRep-v3-final,2021.2.3,59.98368442532989,
,,,,,,,,105,0,105,0,,,,,,,,,,,,,,,,,,,,,,,,,,,,,,,,,,,,,,,,,,,,,,,,,,,,,952.5423958000029,None,,,,,,,,,,,,,,,,,,,,,,,,,,,,,,,,,,,wife,23,106,sing,red,950.542039400083,None,None,950.542039400083,None,,,,,,,,,,,,,,,,,,,,,,,,,,,,,,94ND,001,2023_Sep_01_1421,ExactRep-v3-final,2021.2.3,59.98368442532989,
,,,,,,,,106,0,106,0,,,,,,,,,,,,,,,,,,,,,,,,,,,,,,,,,,,,,,,,,,,,,,,,,,,,,955.0506143000675,None,,,,,,,,,,,,,,,,,,,,,,,,,,,,,,,,,,,dust,31,107,sing,red,953.0430529000005,None,None,953.0430529000005,None,,,,,,,,,,,,,,,,,,,,,,,,,,,,,,94ND,001,2023_Sep_01_1421,ExactRep-v3-final,2021.2.3,59.98368442532989,
,,,,,,,,107,0,107,0,,,,,,,,,,,,,,,,,,,,,,,,,,,,,,,,,,,,,,,,,,,,,,,,,,,,,957.5812999000773,None,,,,,,,,,,,,,,,,,,,,,,,,,,,,,,,,,,,officer,104,108,aloud,blue,955.5681896000169,None,None,955.5681896000169,None,,,,,,,,,,,,,,,,,,,,,,,,,,,,,,94ND,001,2023_Sep_01_1421,ExactRep-v3-final,2021.2.3,59.98368442532989,
,,,,,,,,108,0,108,0,,,,,,,,,,,,,,,,,,,,,,,,,,,,,,,,,,,,,,,,,,,,,,,,,,,,,960.0832159999991,None,,,,,,,,,,,,,,,,,,,,,,,,,,,,,,,,,,,clock,47,109,silent,white,958.0816898000194,None,None,958.0816898000194,None,,,,,,,,,,,,,,,,,,,,,,,,,,,,,,94ND,001,2023_Sep_01_1421,ExactRep-v3-final,2021.2.3,59.98368442532989,
,,,,,,,,109,0,109,0,,,,,,,,,,,,,,,,,,,,,,,,,,,,,,,,,,,,,,,,,,,,,,,,,,,,,962.6024888000684,None,,,,,,,,,,,,,,,,,,,,,,,,,,,,,,,,,,,form,0,110,sing,red,960.5883978999918,None,None,960.5883978999918,None,,,,,,,,,,,,,,,,,,,,,,,,,,,,,,94ND,001,2023_Sep_01_1421,ExactRep-v3-final,2021.2.3,59.98368442532989,
,,,,,,,,110,0,110,0,,,,,,,,,,,,,,,,,,,,,,,,,,,,,,,,,,,,,,,,,,,,,,,,,,,,,965.1061468999833,None,,,,,,,,,,,,,,,,,,,,,,,,,,,,,,,,,,,person,106,111,aloud,blue,963.105978100095,None,None,963.105978100095,None,,,,,,,,,,,,,,,,,,,,,,,,,,,,,,94ND,001,2023_Sep_01_1421,ExactRep-v3-final,2021.2.3,59.98368442532989,
,,,,,,,,111,0,111,0,,,,,,,,,,,,,,,,,,,,,,,,,,,,,,,,,,,,,,,,,,,,,,,,,,,,,967.6240816999925,None,,,,,,,,,,,,,,,,,,,,,,,,,,,,,,,,,,,brain,36,112,sing,red,965.6094262000406,None,None,965.6094262000406,None,,,,,,,,,,,,,,,,,,,,,,,,,,,,,,94ND,001,2023_Sep_01_1421,ExactRep-v3-final,2021.2.3,59.98368442532989,
,,,,,,,,112,0,112,0,,,,,,,,,,,,,,,,,,,,,,,,,,,,,,,,,,,,,,,,,,,,,,,,,,,,,970.126583000063,None,,,,,,,,,,,,,,,,,,,,,,,,,,,,,,,,,,,woods,38,113,sing,red,968.1250313000055,None,None,968.1250313000055,None,,,,,,,,,,,,,,,,,,,,,,,,,,,,,,94ND,001,2023_Sep_01_1421,ExactRep-v3-final,2021.2.3,59.98368442532989,
,,,,,,,,113,0,113,0,,,,,,,,,,,,,,,,,,,,,,,,,,,,,,,,,,,,,,,,,,,,,,,,,,,,,972.645780300023,None,,,,,,,,,,,,,,,,,,,,,,,,,,,,,,,,,,,shore,30,114,sing,red,970.6323427000316,None,None,970.6323427000316,None,,,,,,,,,,,,,,,,,,,,,,,,,,,,,,94ND,001,2023_Sep_01_1421,ExactRep-v3-final,2021.2.3,59.98368442532989,
,,,,,,,,114,0,114,0,,,,,,,,,,,,,,,,,,,,,,,,,,,,,,,,,,,,,,,,,,,,,,,,,,,,,975.148758299998,None,,,,,,,,,,,,,,,,,,,,,,,,,,,,,,,,,,,fortune,2,115,sing,red,973.1466633999953,None,None,973.1466633999953,None,,,,,,,,,,,,,,,,,,,,,,,,,,,,,,94ND,001,2023_Sep_01_1421,ExactRep-v3-final,2021.2.3,59.98368442532989,
,,,,,,,,115,0,115,0,,,,,,,,,,,,,,,,,,,,,,,,,,,,,,,,,,,,,,,,,,,,,,,,,,,,,977.6510450000642,None,,,,,,,,,,,,,,,,,,,,,,,,,,,,,,,,,,,season,115,116,aloud,blue,975.6498223000672,None,None,975.6498223000672,None,,,,,,,,,,,,,,,,,,,,,,,,,,,,,,94ND,001,2023_Sep_01_1421,ExactRep-v3-final,2021.2.3,59.98368442532989,
,,,,,,,,116,0,116,0,,,,,,,,,,,,,,,,,,,,,,,,,,,,,,,,,,,,,,,,,,,,,,,,,,,,,980.1699682000326,None,,,,,,,,,,,,,,,,,,,,,,,,,,,,,,,,,,,metal,105,117,aloud,blue,978.1567170000635,None,None,978.1567170000635,None,,,,,,,,,,,,,,,,,,,,,,,,,,,,,,94ND,001,2023_Sep_01_1421,ExactRep-v3-final,2021.2.3,59.98368442532989,
,,,,,,,,117,0,117,0,,,,,,,,,,,,,,,,,,,,,,,,,,,,,,,,,,,,,,,,,,,,,,,,,,,,,982.6724158000434,None,,,,,,,,,,,,,,,,,,,,,,,,,,,,,,,,,,,book,12,118,sing,red,980.6709150000243,None,None,980.6709150000243,None,,,,,,,,,,,,,,,,,,,,,,,,,,,,,,94ND,001,2023_Sep_01_1421,ExactRep-v3-final,2021.2.3,59.98368442532989,
,,,,,,,,118,0,118,0,,,,,,,,,,,,,,,,,,,,,,,,,,,,,,,,,,,,,,,,,,,,,,,,,,,,,985.1750875000143,None,,,,,,,,,,,,,,,,,,,,,,,,,,,,,,,,,,,table,71,119,silent,white,983.1734348000027,None,None,983.1734348000027,None,,,,,,,,,,,,,,,,,,,,,,,,,,,,,,94ND,001,2023_Sep_01_1421,ExactRep-v3-final,2021.2.3,59.98368442532989,
,,,,,,,,119,0,119,0,,,,,,,,,,,,,,,,,,,,,,,,,,,,,,,,,,,,,,,,,,,,,,,,,,,,,987.6945641000057,None,,,,,,,,,,,,,,,,,,,,,,,,,,,,,,,,,,,soul,108,120,aloud,blue,985.6788979000412,None,None,985.6788979000412,None,,,,,,,,,,,,,,,,,,,,,,,,,,,,,,94ND,001,2023_Sep_01_1421,ExactRep-v3-final,2021.2.3,59.98368442532989,
,,,,,,,,,,,,,,,,,,,,,,,,,,,,,,,,,,,,,,,,,,,,,,,,,,,,,,,,,,,,,,,,,,,,,,,,,,,,,,,,,,,,,,,,,,,,,,,,,,,,,,,,,,,,,,988.1946696999948,None,space,3.2292455000570044,998.1716834000545,None,,,,,,,,,,,,,,,,,,,,,,,,94ND,001,2023_Sep_01_1421,ExactRep-v3-final,2021.2.3,59.98368442532989,
,,,,,,,,,,,,,,,,,,,,,,,,,,,,,,,,,,,,,,,,,,,,,,,,,,,,,,,,,,,,,,,,,,,,,,,,,,,,,,,,,,,,,,,,,,,,,,,,,,,,,,,,,,,,,,,,,,,,1001.4262852000538,None,space,56.45524339994881,1011.4023653999902,None,,,,,,,,,,,,,,,,,,94ND,001,2023_Sep_01_1421,ExactRep-v3-final,2021.2.3,59.98368442532989,
,,,,,,,,,,,,0,0,0,0,,,,,,,,,,,,,,,,,,,,,,,,,,,,,,,,,,,,,,,,,,,,,,,,,1071.3463716000551,None,,,,,,,,,,,,,,,,,,,,,,,,,,,,,,,,,,,,,,,,,,,,,,,,,,,,,,,,,picture,198,1,aloud,new,yellow,1068.4030443000374,None,y,1068.4030443000374,None,"['y', 'return']","[1.717451100004837, 2.909485200070776]",1068.4030443000374,None,,,94ND,001,2023_Sep_01_1421,ExactRep-v3-final,2021.2.3,59.98368442532989,
,,,,,,,,,,,,1,0,1,0,,,,,,,,,,,,,,,,,,,,,,,,,,,,,,,,,,,,,,,,,,,,,,,,,1073.7966076000594,None,,,,,,,,,,,,,,,,,,,,,,,,,,,,,,,,,,,,,,,,,,,,,,,,,,,,,,,,,dream,171,2,sing,new,yellow,1071.8623944000574,None,n,1071.8623944000574,None,"['n', 'return']","[1.13816339999903, 1.8900303998962045]",1071.8623944000574,None,,,94ND,001,2023_Sep_01_1421,ExactRep-v3-final,2021.2.3,59.98368442532989,
,,,,,,,,,,,,2,0,2,0,,,,,,,,,,,,,,,,,,,,,,,,,,,,,,,,,,,,,,,,,,,,,,,,,1076.0000953000272,None,,,,,,,,,,,,,,,,,,,,,,,,,,,,,,,,,,,,,,,,,,,,,,,,,,,,,,,,,star,185,3,sing,new,yellow,1074.2994060000638,None,n,1074.2994060000638,None,"['n', 'return']","[1.045146599994041, 1.6611093000974506]",1074.2994060000638,None,,,94ND,001,2023_Sep_01_1421,ExactRep-v3-final,2021.2.3,59.98368442532989,
,,,,,,,,,,,,3,0,3,0,,,,,,,,,,,,,,,,,,,,,,,,,,,,,,,,,,,,,,,,,,,,,,,,,1078.8536336000543,None,,,,,,,,,,,,,,,,,,,,,,,,,,,,,,,,,,,,,,,,,,,,,,,,,,,,,,,,,letter,48,4,silent,old,yellow,1076.5023727000225,None,y,1076.5023727000225,None,"['y', 'return']","[1.8741484999191016, 2.314425799995661]",1076.5023727000225,None,,,94ND,001,2023_Sep_01_1421,ExactRep-v3-final,2021.2.3,59.98368442532989,
,,,,,,,,,,,,4,0,4,0,,,,,,,,,,,,,,,,,,,,,,,,,,,,,,,,,,,,,,,,,,,,,,,,,1080.9555087999906,None,,,,,,,,,,,,,,,,,,,,,,,,,,,,,,,,,,,,,,,,,,,,,,,,,,,,,,,,,gold,35,5,sing,old,yellow,1079.3705435000593,None,y,1079.3705435000593,None,"['y', 'return']","[1.1421852998901159, 1.5420320999110118]",1079.3705435000593,None,,,94ND,001,2023_Sep_01_1421,ExactRep-v3-final,2021.2.3,59.98368442532989,
,,,,,,,,,,,,5,0,5,0,,,,,,,,,,,,,,,,,,,,,,,,,,,,,,,,,,,,,,,,,,,,,,,,,1084.025807900005,None,,,,,,,,,,,,,,,,,,,,,,,,,,,,,,,,,,,,,,,,,,,,,,,,,,,,,,,,,event,175,6,sing,new,yellow,1081.4704573000781,None,y,1081.4704573000781,None,"['y', 'return']","[2.1460365999955684, 2.51405130000785]",1081.4704573000781,None,,,94ND,001,2023_Sep_01_1421,ExactRep-v3-final,2021.2.3,59.98368442532989,
,,,,,,,,,,,,6,0,6,0,,,,,,,,,,,,,,,,,,,,,,,,,,,,,,,,,,,,,,,,,,,,,,,,,1086.3265636999859,None,,,,,,,,,,,,,,,,,,,,,,,,,,,,,,,,,,,,,,,,,,,,,,,,,,,,,,,,,leader,77,7,silent,old,yellow,1084.5418100000825,None,y,1084.5418100000825,None,"['y', 'return']","[1.3947701000142843, 1.7466661999933422]",1084.5418100000825,None,,,94ND,001,2023_Sep_01_1421,ExactRep-v3-final,2021.2.3,59.98368442532989,
,,,,,,,,,,,,7,0,7,0,,,,,,,,,,,,,,,,,,,,,,,,,,,,,,,,,,,,,,,,,,,,,,,,,1088.7299660000717,None,,,,,,,,,,,,,,,,,,,,,,,,,,,,,,,,,,,,,,,,,,,,,,,,,,,,,,,,,pupil,172,8,aloud,new,yellow,1086.828939100029,None,n,1086.828939100029,None,"['n', 'return']","[1.4035904000047594, 1.8595614999067038]",1086.828939100029,None,,,94ND,001,2023_Sep_01_1421,ExactRep-v3-final,2021.2.3,59.98368442532989,
,,,,,,,,,,,,8,0,8,0,,,,,,,,,,,,,,,,,,,,,,,,,,,,,,,,,,,,,,,,,,,,,,,,,1091.1159120000666,None,,,,,,,,,,,,,,,,,,,,,,,,,,,,,,,,,,,,,,,,,,,,,,,,,,,,,,,,,air,193,9,sing,new,yellow,1089.2475901000435,None,n,1089.2475901000435,None,"['n', 'return']","[1.3128464999608696, 1.824996699928306]",1089.2475901000435,None,,,94ND,001,2023_Sep_01_1421,ExactRep-v3-final,2021.2.3,59.98368442532989,
,,,,,,,,,,,,9,0,9,0,,,,,,,,,,,,,,,,,,,,,,,,,,,,,,,,,,,,,,,,,,,,,,,,,1093.234575200011,None,,,,,,,,,,,,,,,,,,,,,,,,,,,,,,,,,,,,,,,,,,,,,,,,,,,,,,,,,bowl,188,10,aloud,new,yellow,1091.6331850000424,None,n,1091.6331850000424,None,"['n', 'return']","[1.143357599969022, 1.5673396999482065]",1091.6331850000424,None,,,94ND,001,2023_Sep_01_1421,ExactRep-v3-final,2021.2.3,59.98368442532989,
,,,,,,,,,,,,10,0,10,0,,,,,,,,,,,,,,,,,,,,,,,,,,,,,,,,,,,,,,,,,,,,,,,,,1095.3187611000612,None,,,,,,,,,,,,,,,,,,,,,,,,,,,,,,,,,,,,,,,,,,,,,,,,,,,,,,,,,answer,205,11,sing,new,yellow,1093.7508217000868,None,y,1093.7508217000868,None,"['y', 'return']","[1.15365470002871, 1.5217325000558048]",1093.7508217000868,None,,,94ND,001,2023_Sep_01_1421,ExactRep-v3-final,2021.2.3,59.98368442532989,
,,,,,,,,,,,,11,0,11,0,,,,,,,,,,,,,,,,,,,,,,,,,,,,,,,,,,,,,,,,,,,,,,,,,1097.4385816000868,None,,,,,,,,,,,,,,,,,,,,,,,,,,,,,,,,,,,,,,,,,,,,,,,,,,,,,,,,,soil,33,12,sing,old,yellow,1095.8241969000082,None,y,1095.8241969000082,None,"['y', 'return']","[1.1523414000403136, 1.5762252999702469]",1095.8241969000082,None,,,94ND,001,2023_Sep_01_1421,ExactRep-v3-final,2021.2.3,59.98368442532989,
,,,,,,,,,,,,12,0,12,0,,,,,,,,,,,,,,,,,,,,,,,,,,,,,,,,,,,,,,,,,,,,,,,,,1099.3254399000434,None,,,,,,,,,,,,,,,,,,,,,,,,,,,,,,,,,,,,,,,,,,,,,,,,,,,,,,,,,month,10,13,sing,old,yellow,1097.9548390000127,None,y,1097.9548390000127,None,"['y', 'return']","[0.9498866000212729, 1.3337258000392467]",1097.9548390000127,None,,,94ND,001,2023_Sep_01_1421,ExactRep-v3-final,2021.2.3,59.98368442532989,
,,,,,,,,,,,,13,0,13,0,,,,,,,,,,,,,,,,,,,,,,,,,,,,,,,,,,,,,,,,,,,,,,,,,1101.145185100031,None,,,,,,,,,,,,,,,,,,,,,,,,,,,,,,,,,,,,,,,,,,,,,,,,,,,,,,,,,meat,8,14,sing,old,yellow,1099.841309200041,None,y,1099.841309200041,None,"['y', 'return']","[0.9031756999902427, 1.2631206999067217]",1099.841309200041,None,,,94ND,001,2023_Sep_01_1421,ExactRep-v3-final,2021.2.3,59.98368442532989,
,,,,,,,,,,,,14,0,14,0,,,,,,,,,,,,,,,,,,,,,,,,,,,,,,,,,,,,,,,,,,,,,,,,,1103.695407900028,None,,,,,,,,,,,,,,,,,,,,,,,,,,,,,,,,,,,,,,,,,,,,,,,,,,,,,,,,,chair,16,15,sing,old,yellow,1101.660093500046,None,y,1101.660093500046,None,"['y', 'return']","[1.6204628999112174, 1.9964240998961031]",1101.660093500046,None,,,94ND,001,2023_Sep_01_1421,ExactRep-v3-final,2021.2.3,59.98368442532989,
,,,,,,,,,,,,15,0,15,0,,,,,,,,,,,,,,,,,,,,,,,,,,,,,,,,,,,,,,,,,,,,,,,,,1105.5968986999942,None,,,,,,,,,,,,,,,,,,,,,,,,,,,,,,,,,,,,,,,,,,,,,,,,,,,,,,,,,cash,45,16,silent,old,yellow,1104.2112572999904,None,n,1104.2112572999904,None,"['n', 'return']","[1.0533277000067756, 1.3492498999694362]",1104.2112572999904,None,,,94ND,001,2023_Sep_01_1421,ExactRep-v3-final,2021.2.3,59.98368442532989,
,,,,,,,,,,,,16,0,16,0,,,,,,,,,,,,,,,,,,,,,,,,,,,,,,,,,,,,,,,,,,,,,,,,,1107.5812968000537,None,,,,,,,,,,,,,,,,,,,,,,,,,,,,,,,,,,,,,,,,,,,,,,,,,,,,,,,,,ticket,113,17,aloud,old,yellow,1106.1140967999818,None,y,1106.1140967999818,None,"['y', 'return']","[1.078571500023827, 1.4303627000190318]",1106.1140967999818,None,,,94ND,001,2023_Sep_01_1421,ExactRep-v3-final,2021.2.3,59.98368442532989,
,,,,,,,,,,,,17,0,17,0,,,,,,,,,,,,,,,,,,,,,,,,,,,,,,,,,,,,,,,,,,,,,,,,,1109.6812312999973,None,,,,,,,,,,,,,,,,,,,,,,,,,,,,,,,,,,,,,,,,,,,,,,,,,,,,,,,,,avenue,92,18,aloud,old,yellow,1108.0829147000331,None,y,1108.0829147000331,None,"['y', 'return']","[1.1978937999811023, 1.5415621999418363]",1108.0829147000331,None,,,94ND,001,2023_Sep_01_1421,ExactRep-v3-final,2021.2.3,59.98368442532989,
,,,,,,,,,,,,18,0,18,0,,,,,,,,,,,,,,,,,,,,,,,,,,,,,,,,,,,,,,,,,,,,,,,,,1111.6180648000445,None,,,,,,,,,,,,,,,,,,,,,,,,,,,,,,,,,,,,,,,,,,,,,,,,,,,,,,,,,meadow,34,19,sing,old,yellow,1110.1848944000667,None,n,1110.1848944000667,None,"['n', 'return']","[1.0956259000813589, 1.3915665000677109]",1110.1848944000667,None,,,94ND,001,2023_Sep_01_1421,ExactRep-v3-final,2021.2.3,59.98368442532989,
,,,,,,,,,,,,19,0,19,0,,,,,,,,,,,,,,,,,,,,,,,,,,,,,,,,,,,,,,,,,,,,,,,,,1114.8896865000715,None,,,,,,,,,,,,,,,,,,,,,,,,,,,,,,,,,,,,,,,,,,,,,,,,,,,,,,,,,home,210,20,aloud,new,yellow,1112.1208277000114,None,y,1112.1208277000114,None,"['y', 'return']","[1.511643199948594, 2.719692899961956]",1112.1208277000114,None,,,94ND,001,2023_Sep_01_1421,ExactRep-v3-final,2021.2.3,59.98368442532989,
,,,,,,,,,,,,20,0,20,0,,,,,,,,,,,,,,,,,,,,,,,,,,,,,,,,,,,,,,,,,,,,,,,,,1116.6585955000482,None,,,,,,,,,,,,,,,,,,,,,,,,,,,,,,,,,,,,,,,,,,,,,,,,,,,,,,,,,horse,209,21,sing,new,yellow,1115.393307600054,None,n,1115.393307600054,None,"['n', 'return']","[0.9191566000226885, 1.2311670000199229]",1115.393307600054,None,,,94ND,001,2023_Sep_01_1421,ExactRep-v3-final,2021.2.3,59.98368442532989,
,,,,,,,,,,,,21,0,21,0,,,,,,,,,,,,,,,,,,,,,,,,,,,,,,,,,,,,,,,,,,,,,,,,,1118.8101860000752,None,,,,,,,,,,,,,,,,,,,,,,,,,,,,,,,,,,,,,,,,,,,,,,,,,,,,,,,,,hope,158,22,silent,new,yellow,1117.1800775000593,None,n,1117.1800775000593,None,"['n', 'return']","[1.1883873000042513, 1.5964350999565795]",1117.1800775000593,None,,,94ND,001,2023_Sep_01_1421,ExactRep-v3-final,2021.2.3,59.98368442532989,
,,,,,,,,,,,,22,0,22,0,,,,,,,,,,,,,,,,,,,,,,,,,,,,,,,,,,,,,,,,,,,,,,,,,1120.7787884999998,None,,,,,,,,,,,,,,,,,,,,,,,,,,,,,,,,,,,,,,,,,,,,,,,,,,,,,,,,,dust,31,23,sing,old,yellow,1119.3404911999824,None,y,1119.3404911999824,None,"['y', 'return']","[1.0362287999596447, 1.396133599919267]",1119.3404911999824,None,,,94ND,001,2023_Sep_01_1421,ExactRep-v3-final,2021.2.3,59.98368442532989,
,,,,,,,,,,,,23,0,23,0,,,,,,,,,,,,,,,,,,,,,,,,,,,,,,,,,,,,,,,,,,,,,,,,,1122.796216399991,None,,,,,,,,,,,,,,,,,,,,,,,,,,,,,,,,,,,,,,,,,,,,,,,,,,,,,,,,,machine,137,24,silent,new,yellow,1121.2960029999958,None,n,1121.2960029999958,None,"['n', 'return']","[1.1284576000180095, 1.464661999954842]",1121.2960029999958,None,,,94ND,001,2023_Sep_01_1421,ExactRep-v3-final,2021.2.3,59.98368442532989,
,,,,,,,,,,,,24,0,24,0,,,,,,,,,,,,,,,,,,,,,,,,,,,,,,,,,,,,,,,,,,,,,,,,,1124.7486718000146,None,,,,,,,,,,,,,,,,,,,,,,,,,,,,,,,,,,,,,,,,,,,,,,,,,,,,,,,,,stone,90,25,aloud,old,yellow,1123.2990214000456,None,n,1123.2990214000456,None,"['n', 'return']","[1.0854504999006167, 1.4137083999812603]",1123.2990214000456,None,,,94ND,001,2023_Sep_01_1421,ExactRep-v3-final,2021.2.3,59.98368442532989,
,,,,,,,,,,,,25,0,25,0,,,,,,,,,,,,,,,,,,,,,,,,,,,,,,,,,,,,,,,,,,,,,,,,,1126.5009429000784,None,,,,,,,,,,,,,,,,,,,,,,,,,,,,,,,,,,,,,,,,,,,,,,,,,,,,,,,,,valley,46,26,silent,old,yellow,1125.2499506000895,None,y,1125.2499506000895,None,"['y', 'return']","[0.9105088000651449, 1.214589299983345]",1125.2499506000895,None,,,94ND,001,2023_Sep_01_1421,ExactRep-v3-final,2021.2.3,59.98368442532989,
,,,,,,,,,,,,26,0,26,0,,,,,,,,,,,,,,,,,,,,,,,,,,,,,,,,,,,,,,,,,,,,,,,,,1128.0195744000375,None,,,,,,,,,,,,,,,,,,,,,,,,,,,,,,,,,,,,,,,,,,,,,,,,,,,,,,,,,window,14,27,sing,old,yellow,1127.018705100054,None,y,1127.018705100054,None,"['y', 'return']","[0.6377211000071838, 0.9657784999581054]",1127.018705100054,None,,,94ND,001,2023_Sep_01_1421,ExactRep-v3-final,2021.2.3,59.98368442532989,
,,,,,,,,,,,,27,0,27,0,,,,,,,,,,,,,,,,,,,,,,,,,,,,,,,,,,,,,,,,,,,,,,,,,1130.254687400069,None,,,,,,,,,,,,,,,,,,,,,,,,,,,,,,,,,,,,,,,,,,,,,,,,,,,,,,,,,grass,11,28,sing,old,yellow,1128.5354726000223,None,y,1128.5354726000223,None,"['y', 'return']","[1.2970443000085652, 1.6729774000123143]",1128.5354726000223,None,,,94ND,001,2023_Sep_01_1421,ExactRep-v3-final,2021.2.3,59.98368442532989,
,,,,,,,,,,,,28,0,28,0,,,,,,,,,,,,,,,,,,,,,,,,,,,,,,,,,,,,,,,,,,,,,,,,,1132.02353710006,None,,,,,,,,,,,,,,,,,,,,,,,,,,,,,,,,,,,,,,,,,,,,,,,,,,,,,,,,,coin,234,29,aloud,new,yellow,1130.7614585000556,None,n,1130.7614585000556,None,"['n', 'return']","[0.9430334999924526, 1.2230545999482274]",1130.7614585000556,None,,,94ND,001,2023_Sep_01_1421,ExactRep-v3-final,2021.2.3,59.98368442532989,
,,,,,,,,,,,,29,0,29,0,,,,,,,,,,,,,,,,,,,,,,,,,,,,,,,,,,,,,,,,,,,,,,,,,1133.974157000077,None,,,,,,,,,,,,,,,,,,,,,,,,,,,,,,,,,,,,,,,,,,,,,,,,,,,,,,,,,origin,195,30,sing,new,yellow,1132.540718000033,None,n,1132.540718000033,None,"['n', 'return']","[1.0997190999332815, 1.395730199990794]",1132.540718000033,None,,,94ND,001,2023_Sep_01_1421,ExactRep-v3-final,2021.2.3,59.98368442532989,
,,,,,,,,,,,,30,0,30,0,,,,,,,,,,,,,,,,,,,,,,,,,,,,,,,,,,,,,,,,,,,,,,,,,1135.67685300007,None,,,,,,,,,,,,,,,,,,,,,,,,,,,,,,,,,,,,,,,,,,,,,,,,,,,,,,,,,fact,49,31,silent,old,yellow,1134.4770607000683,None,y,1134.4770607000683,None,"['y', 'return']","[0.859439600026235, 1.1553561000619084]",1134.4770607000683,None,,,94ND,001,2023_Sep_01_1421,ExactRep-v3-final,2021.2.3,59.98368442532989,
,,,,,,,,,,,,31,0,31,0,,,,,,,,,,,,,,,,,,,,,,,,,,,,,,,,,,,,,,,,,,,,,,,,,1137.127290799981,None,,,,,,,,,,,,,,,,,,,,,,,,,,,,,,,,,,,,,,,,,,,,,,,,,,,,,,,,,money,232,32,aloud,new,yellow,1136.1935174000682,None,y,1136.1935174000682,None,"['y', 'return']","[0.5830186000093818, 0.8949977000011131]",1136.1935174000682,None,,,94ND,001,2023_Sep_01_1421,ExactRep-v3-final,2021.2.3,59.98368442532989,
,,,,,,,,,,,,32,0,32,0,,,,,,,,,,,,,,,,,,,,,,,,,,,,,,,,,,,,,,,,,,,,,,,,,1140.798018899979,None,,,,,,,,,,,,,,,,,,,,,,,,,,,,,,,,,,,,,,,,,,,,,,,,,,,,,,,,,spirit,167,33,sing,new,yellow,1137.6299675999908,None,n,1137.6299675999908,None,"['y', 'backspace', 'n', 'return']","[0.49849649996031076, 1.7467368999496102, 2.3544895000522956, 3.1224606999894604]",1137.6299675999908,None,,,94ND,001,2023_Sep_01_1421,ExactRep-v3-final,2021.2.3,59.98368442532989,
,,,,,,,,,,,,33,0,33,0,,,,,,,,,,,,,,,,,,,,,,,,,,,,,,,,,,,,,,,,,,,,,,,,,1142.667851599981,None,,,,,,,,,,,,,,,,,,,,,,,,,,,,,,,,,,,,,,,,,,,,,,,,,,,,,,,,,cat,149,34,silent,new,yellow,1141.2996024000458,None,n,1141.2996024000458,None,"['n', 'return']","[1.020951599930413, 1.3330315999919549]",1141.2996024000458,None,,,94ND,001,2023_Sep_01_1421,ExactRep-v3-final,2021.2.3,59.98368442532989,
,,,,,,,,,,,,34,0,34,0,,,,,,,,,,,,,,,,,,,,,,,,,,,,,,,,,,,,,,,,,,,,,,,,,1144.6856748000719,None,,,,,,,,,,,,,,,,,,,,,,,,,,,,,,,,,,,,,,,,,,,,,,,,,,,,,,,,,plant,123,35,silent,new,yellow,1143.1849005999975,None,n,1143.1849005999975,None,"['n', 'return']","[1.23183359997347, 1.4556048000231385]",1143.1849005999975,None,,,94ND,001,2023_Sep_01_1421,ExactRep-v3-final,2021.2.3,59.98368442532989,
,,,,,,,,,,,,35,0,35,0,,,,,,,,,,,,,,,,,,,,,,,,,,,,,,,,,,,,,,,,,,,,,,,,,1146.4864965000888,None,,,,,,,,,,,,,,,,,,,,,,,,,,,,,,,,,,,,,,,,,,,,,,,,,,,,,,,,,kiss,206,36,aloud,new,yellow,1145.1877391000744,None,n,1145.1877391000744,None,"['n', 'return']","[0.9486954000312835, 1.2607456999830902]",1145.1877391000744,None,,,94ND,001,2023_Sep_01_1421,ExactRep-v3-final,2021.2.3,59.98368442532989,
,,,,,,,,,,,,36,0,36,0,,,,,,,,,,,,,,,,,,,,,,,,,,,,,,,,,,,,,,,,,,,,,,,,,1149.1581025000196,None,,,,,,,,,,,,,,,,,,,,,,,,,,,,,,,,,,,,,,,,,,,,,,,,,,,,,,,,,door,157,37,silent,new,yellow,1146.9957028999925,None,y,1146.9957028999925,None,"['y', 'return']","[1.8207414000062272, 2.116713299998082]",1146.9957028999925,None,,,94ND,001,2023_Sep_01_1421,ExactRep-v3-final,2021.2.3,59.98368442532989,
,,,,,,,,,,,,37,0,37,0,,,,,,,,,,,,,,,,,,,,,,,,,,,,,,,,,,,,,,,,,,,,,,,,,1151.1756388000213,None,,,,,,,,,,,,,,,,,,,,,,,,,,,,,,,,,,,,,,,,,,,,,,,,,,,,,,,,,trouble,69,38,silent,old,yellow,1149.6745705000358,None,n,1149.6745705000358,None,"['n', 'return']","[1.1258993999799713, 1.461930299992673]",1149.6745705000358,None,,,94ND,001,2023_Sep_01_1421,ExactRep-v3-final,2021.2.3,59.98368442532989,
,,,,,,,,,,,,38,0,38,0,,,,,,,,,,,,,,,,,,,,,,,,,,,,,,,,,,,,,,,,,,,,,,,,,1153.0598788000643,None,,,,,,,,,,,,,,,,,,,,,,,,,,,,,,,,,,,,,,,,,,,,,,,,,,,,,,,,,vessel,146,39,silent,new,yellow,1151.6926666999934,None,n,1151.6926666999934,None,"['n', 'return']","[1.0277850000420585, 1.3236970000434667]",1151.6926666999934,None,,,94ND,001,2023_Sep_01_1421,ExactRep-v3-final,2021.2.3,59.98368442532989,
,,,,,,,,,,,,39,0,39,0,,,,,,,,,,,,,,,,,,,,,,,,,,,,,,,,,,,,,,,,,,,,,,,,,1154.845933200093,None,,,,,,,,,,,,,,,,,,,,,,,,,,,,,,,,,,,,,,,,,,,,,,,,,,,,,,,,,flood,162,40,aloud,new,yellow,1153.5626960999798,None,n,1153.5626960999798,None,"['n', 'return']","[0.9418450000230223, 1.23777839995455]",1153.5626960999798,None,,,94ND,001,2023_Sep_01_1421,ExactRep-v3-final,2021.2.3,59.98368442532989,
,,,,,,,,,,,,40,0,40,0,,,,,,,,,,,,,,,,,,,,,,,,,,,,,,,,,,,,,,,,,,,,,,,,,1156.5463558000047,None,,,,,,,,,,,,,,,,,,,,,,,,,,,,,,,,,,,,,,,,,,,,,,,,,,,,,,,,,water,88,41,aloud,old,yellow,1155.3639378000516,None,y,1155.3639378000516,None,"['y', 'return']","[0.8925128999399021, 1.1406275999033824]",1155.3639378000516,None,,,94ND,001,2023_Sep_01_1421,ExactRep-v3-final,2021.2.3,59.98368442532989,
,,,,,,,,,,,,41,0,41,0,,,,,,,,,,,,,,,,,,,,,,,,,,,,,,,,,,,,,,,,,,,,,,,,,1158.5011323000072,None,,,,,,,,,,,,,,,,,,,,,,,,,,,,,,,,,,,,,,,,,,,,,,,,,,,,,,,,,weapon,200,42,aloud,new,yellow,1157.04930720001,None,y,1157.04930720001,None,"['y', 'return']","[1.1431490000104532, 1.4071960999863222]",1157.04930720001,None,,,94ND,001,2023_Sep_01_1421,ExactRep-v3-final,2021.2.3,59.98368442532989,
,,,,,,,,,,,,42,0,42,0,,,,,,,,,,,,,,,,,,,,,,,,,,,,,,,,,,,,,,,,,,,,,,,,,1160.318785200012,None,,,,,,,,,,,,,,,,,,,,,,,,,,,,,,,,,,,,,,,,,,,,,,,,,,,,,,,,,book,12,43,sing,old,yellow,1159.033845200087,None,y,1159.033845200087,None,"['y', 'return']","[0.9506035000085831, 1.2465659999288619]",1159.033845200087,None,,,94ND,001,2023_Sep_01_1421,ExactRep-v3-final,2021.2.3,59.98368442532989,
,,,,,,,,,,,,43,0,43,0,,,,,,,,,,,,,,,,,,,,,,,,,,,,,,,,,,,,,,,,,,,,,,,,,1162.1689517000923,None,,,,,,,,,,,,,,,,,,,,,,,,,,,,,,,,,,,,,,,,,,,,,,,,,,,,,,,,,queen,213,44,sing,new,yellow,1160.8359634000808,None,n,1160.8359634000808,None,"['n', 'return']","[1.00442740006838, 1.2845855000196025]",1160.8359634000808,None,,,94ND,001,2023_Sep_01_1421,ExactRep-v3-final,2021.2.3,59.98368442532989,
,,,,,,,,,,,,44,0,44,0,,,,,,,,,,,,,,,,,,,,,,,,,,,,,,,,,,,,,,,,,,,,,,,,,1163.9895480000414,None,,,,,,,,,,,,,,,,,,,,,,,,,,,,,,,,,,,,,,,,,,,,,,,,,,,,,,,,,product,159,45,silent,new,yellow,1162.671611900092,None,n,1162.671611900092,None,"['n', 'return']","[0.9848578000674024, 1.281036000000313]",1162.671611900092,None,,,94ND,001,2023_Sep_01_1421,ExactRep-v3-final,2021.2.3,59.98368442532989,
,,,,,,,,,,,,45,0,45,0,,,,,,,,,,,,,,,,,,,,,,,,,,,,,,,,,,,,,,,,,,,,,,,,,1166.056555200019,None,,,,,,,,,,,,,,,,,,,,,,,,,,,,,,,,,,,,,,,,,,,,,,,,,,,,,,,,,person,106,46,aloud,old,yellow,1164.5161843000678,None,n,1164.5161843000678,None,"['n', 'return']","[1.1162716000108048, 1.4922828000271693]",1164.5161843000678,None,,,94ND,001,2023_Sep_01_1421,ExactRep-v3-final,2021.2.3,59.98368442532989,
,,,,,,,,,,,,46,0,46,0,,,,,,,,,,,,,,,,,,,,,,,,,,,,,,,,,,,,,,,,,,,,,,,,,1167.790739200078,None,,,,,,,,,,,,,,,,,,,,,,,,,,,,,,,,,,,,,,,,,,,,,,,,,,,,,,,,,volume,132,47,silent,new,yellow,1166.5584925999865,None,n,1166.5584925999865,None,"['n', 'return']","[0.9780158000066876, 1.1859545999905095]",1166.5584925999865,None,,,94ND,001,2023_Sep_01_1421,ExactRep-v3-final,2021.2.3,59.98368442532989,
,,,,,,,,,,,,47,0,47,0,,,,,,,,,,,,,,,,,,,,,,,,,,,,,,,,,,,,,,,,,,,,,,,,,1169.895966400043,None,,,,,,,,,,,,,,,,,,,,,,,,,,,,,,,,,,,,,,,,,,,,,,,,,,,,,,,,,blossom,174,48,aloud,new,yellow,1168.2936246000463,None,y,1168.2936246000463,None,"['y', 'return']","[1.3227878001052886, 1.5627688000677153]",1168.2936246000463,None,,,94ND,001,2023_Sep_01_1421,ExactRep-v3-final,2021.2.3,59.98368442532989,
,,,,,,,,,,,,48,0,48,0,,,,,,,,,,,,,,,,,,,,,,,,,,,,,,,,,,,,,,,,,,,,,,,,,1172.3127493000356,None,,,,,,,,,,,,,,,,,,,,,,,,,,,,,,,,,,,,,,,,,,,,,,,,,,,,,,,,,coast,161,49,sing,new,yellow,1170.4124035000568,None,n,1170.4124035000568,None,"['n', 'return']","[1.380225499975495, 1.8521168999141082]",1170.4124035000568,None,,,94ND,001,2023_Sep_01_1421,ExactRep-v3-final,2021.2.3,59.98368442532989,
,,,,,,,,,,,,49,0,49,0,,,,,,,,,,,,,,,,,,,,,,,,,,,,,,,,,,,,,,,,,,,,,,,,,1174.0818756000372,None,,,,,,,,,,,,,,,,,,,,,,,,,,,,,,,,,,,,,,,,,,,,,,,,,,,,,,,,,student,25,50,sing,old,yellow,1172.8150264000287,None,y,1172.8150264000287,None,"['y', 'return']","[0.9534367999294773, 1.2255264999112114]",1172.8150264000287,None,,,94ND,001,2023_Sep_01_1421,ExactRep-v3-final,2021.2.3,59.98368442532989,
,,,,,,,,,,,,50,0,50,0,,,,,,,,,,,,,,,,,,,,,,,,,,,,,,,,,,,,,,,,,,,,,,,,,1175.916557300021,None,,,,,,,,,,,,,,,,,,,,,,,,,,,,,,,,,,,,,,,,,,,,,,,,,,,,,,,,,cabin,100,51,aloud,old,yellow,1174.598602800048,None,y,1174.598602800048,None,"['y', 'return']","[0.9378687998978421, 1.28218489990104]",1174.598602800048,None,,,94ND,001,2023_Sep_01_1421,ExactRep-v3-final,2021.2.3,59.98368442532989,
,,,,,,,,,,,,51,0,51,0,,,,,,,,,,,,,,,,,,,,,,,,,,,,,,,,,,,,,,,,,,,,,,,,,1177.36782829999,None,,,,,,,,,,,,,,,,,,,,,,,,,,,,,,,,,,,,,,,,,,,,,,,,,,,,,,,,,present,119,52,aloud,old,yellow,1176.4179437999846,None,y,1176.4179437999846,None,"['y', 'return']","[0.6543914000503719, 0.9106059999903664]",1176.4179437999846,None,,,94ND,001,2023_Sep_01_1421,ExactRep-v3-final,2021.2.3,59.98368442532989,
,,,,,,,,,,,,52,0,52,0,,,,,,,,,,,,,,,,,,,,,,,,,,,,,,,,,,,,,,,,,,,,,,,,,1178.8035049000755,None,,,,,,,,,,,,,,,,,,,,,,,,,,,,,,,,,,,,,,,,,,,,,,,,,,,,,,,,,meeting,26,53,sing,old,yellow,1177.87038019998,None,y,1177.87038019998,None,"['y', 'return']","[0.6660780999809504, 0.8981561000691727]",1177.87038019998,None,,,94ND,001,2023_Sep_01_1421,ExactRep-v3-final,2021.2.3,59.98368442532989,
,,,,,,,,,,,,53,0,53,0,,,,,,,,,,,,,,,,,,,,,,,,,,,,,,,,,,,,,,,,,,,,,,,,,1180.5426993999863,None,,,,,,,,,,,,,,,,,,,,,,,,,,,,,,,,,,,,,,,,,,,,,,,,,,,,,,,,,soul,108,54,aloud,old,yellow,1179.3207352000754,None,y,1179.3207352000754,None,"['y', 'return']","[0.9437107000267133, 1.183623900054954]",1179.3207352000754,None,,,94ND,001,2023_Sep_01_1421,ExactRep-v3-final,2021.2.3,59.98368442532989,
,,,,,,,,,,,,54,0,54,0,,,,,,,,,,,,,,,,,,,,,,,,,,,,,,,,,,,,,,,,,,,,,,,,,1182.039250700036,None,,,,,,,,,,,,,,,,,,,,,,,,,,,,,,,,,,,,,,,,,,,,,,,,,,,,,,,,,tool,53,55,silent,old,yellow,1181.055423200014,None,y,1181.055423200014,None,"['y', 'return']","[0.6250149999978021, 0.9370591000188142]",1181.055423200014,None,,,94ND,001,2023_Sep_01_1421,ExactRep-v3-final,2021.2.3,59.98368442532989,
,,,,,,,,,,,,55,0,55,0,,,,,,,,,,,,,,,,,,,,,,,,,,,,,,,,,,,,,,,,,,,,,,,,,1183.7585953000234,None,,,,,,,,,,,,,,,,,,,,,,,,,,,,,,,,,,,,,,,,,,,,,,,,,,,,,,,,,shock,220,56,aloud,new,yellow,1182.5417062999913,None,n,1182.5417062999913,None,"['n', 'return']","[0.9227914999937639, 1.1786659000208601]",1182.5417062999913,None,,,94ND,001,2023_Sep_01_1421,ExactRep-v3-final,2021.2.3,59.98368442532989,
,,,,,,,,,,,,56,0,56,0,,,,,,,,,,,,,,,,,,,,,,,,,,,,,,,,,,,,,,,,,,,,,,,,,1185.8591919000028,None,,,,,,,,,,,,,,,,,,,,,,,,,,,,,,,,,,,,,,,,,,,,,,,,,,,,,,,,,glory,54,57,silent,old,yellow,1184.2759558000835,None,n,1184.2759558000835,None,"['n', 'return']","[1.2685015000170097, 1.5405245000729337]",1184.2759558000835,None,,,94ND,001,2023_Sep_01_1421,ExactRep-v3-final,2021.2.3,59.98368442532989,
,,,,,,,,,,,,57,0,57,0,,,,,,,,,,,,,,,,,,,,,,,,,,,,,,,,,,,,,,,,,,,,,,,,,1188.5629248000914,None,,,,,,,,,,,,,,,,,,,,,,,,,,,,,,,,,,,,,,,,,,,,,,,,,,,,,,,,,church,57,58,silent,old,yellow,1186.3612335000653,None,n,1186.3612335000653,None,"['n', 'return']","[1.7512228999985382, 2.1592230000533164]",1186.3612335000653,None,,,94ND,001,2023_Sep_01_1421,ExactRep-v3-final,2021.2.3,59.98368442532989,
,,,,,,,,,,,,58,0,58,0,,,,,,,,,,,,,,,,,,,,,,,,,,,,,,,,,,,,,,,,,,,,,,,,,1191.5160272000358,None,,,,,,,,,,,,,,,,,,,,,,,,,,,,,,,,,,,,,,,,,,,,,,,,,,,,,,,,,library,103,59,aloud,old,yellow,1189.0646509000799,None,y,1189.0646509000799,None,"['y', 'return']","[2.127796799992211, 2.416038900031708]",1189.0646509000799,None,,,94ND,001,2023_Sep_01_1421,ExactRep-v3-final,2021.2.3,59.98368442532989,
,,,,,,,,,,,,59,0,59,0,,,,,,,,,,,,,,,,,,,,,,,,,,,,,,,,,,,,,,,,,,,,,,,,,1193.7337450000923,None,,,,,,,,,,,,,,,,,,,,,,,,,,,,,,,,,,,,,,,,,,,,,,,,,,,,,,,,,woman,228,60,aloud,new,yellow,1192.0253306999803,None,n,1192.0253306999803,None,"['n', 'return']","[1.439422200084664, 1.6630538000026718]",1192.0253306999803,None,,,94ND,001,2023_Sep_01_1421,ExactRep-v3-final,2021.2.3,59.98368442532989,
,,,,,,,,,,,,60,0,60,0,,,,,,,,,,,,,,,,,,,,,,,,,,,,,,,,,,,,,,,,,,,,,,,,,1195.769932400086,None,,,,,,,,,,,,,,,,,,,,,,,,,,,,,,,,,,,,,,,,,,,,,,,,,,,,,,,,,forest,134,61,silent,new,yellow,1194.2368726000423,None,y,1194.2368726000423,None,"['y', 'return']","[1.1798952999524772, 1.4916176999686286]",1194.2368726000423,None,,,94ND,001,2023_Sep_01_1421,ExactRep-v3-final,2021.2.3,59.98368442532989,
,,,,,,,,,,,,61,0,61,0,,,,,,,,,,,,,,,,,,,,,,,,,,,,,,,,,,,,,,,,,,,,,,,,,1197.7554098999826,None,,,,,,,,,,,,,,,,,,,,,,,,,,,,,,,,,,,,,,,,,,,,,,,,,,,,,,,,,table,71,62,silent,old,yellow,1196.27193180006,None,y,1196.27193180006,None,"['y', 'return']","[1.1765102000208572, 1.4405287000117823]",1196.27193180006,None,,,94ND,001,2023_Sep_01_1421,ExactRep-v3-final,2021.2.3,59.98368442532989,
,,,,,,,,,,,,62,0,62,0,,,,,,,,,,,,,,,,,,,,,,,,,,,,,,,,,,,,,,,,,,,,,,,,,1199.573989800061,None,,,,,,,,,,,,,,,,,,,,,,,,,,,,,,,,,,,,,,,,,,,,,,,,,,,,,,,,,troops,128,63,silent,new,yellow,1198.2739086000947,None,n,1198.2739086000947,None,"['n', 'return']","[0.966558700078167, 1.2544919999781996]",1198.2739086000947,None,,,94ND,001,2023_Sep_01_1421,ExactRep-v3-final,2021.2.3,59.98368442532989,
,,,,,,,,,,,,63,0,63,0,,,,,,,,,,,,,,,,,,,,,,,,,,,,,,,,,,,,,,,,,,,,,,,,,1201.5087532000616,None,,,,,,,,,,,,,,,,,,,,,,,,,,,,,,,,,,,,,,,,,,,,,,,,,,,,,,,,,honour,44,64,silent,old,yellow,1200.0908971000463,None,y,1200.0908971000463,None,"['y', 'return']","[1.0775384999578819, 1.381798299960792]",1200.0908971000463,None,,,94ND,001,2023_Sep_01_1421,ExactRep-v3-final,2021.2.3,59.98368442532989,
,,,,,,,,,,,,64,0,64,0,,,,,,,,,,,,,,,,,,,,,,,,,,,,,,,,,,,,,,,,,,,,,,,,,1203.5784153999994,None,,,,,,,,,,,,,,,,,,,,,,,,,,,,,,,,,,,,,,,,,,,,,,,,,,,,,,,,,car,180,65,aloud,new,yellow,1202.0096600999823,None,n,1202.0096600999823,None,"['n', 'return']","[1.326861200039275, 1.5347916000755504]",1202.0096600999823,None,,,94ND,001,2023_Sep_01_1421,ExactRep-v3-final,2021.2.3,59.98368442532989,
,,,,,,,,,,,,65,0,65,0,,,,,,,,,,,,,,,,,,,,,,,,,,,,,,,,,,,,,,,,,,,,,,,,,1205.179497800069,None,,,,,,,,,,,,,,,,,,,,,,,,,,,,,,,,,,,,,,,,,,,,,,,,,,,,,,,,,amount,181,66,sing,new,yellow,1204.0955684999935,None,n,1204.0955684999935,None,"['n', 'return']","[0.7929759999969974, 1.0409156000241637]",1204.0955684999935,None,,,94ND,001,2023_Sep_01_1421,ExactRep-v3-final,2021.2.3,59.98368442532989,
,,,,,,,,,,,,66,0,66,0,,,,,,,,,,,,,,,,,,,,,,,,,,,,,,,,,,,,,,,,,,,,,,,,,1207.282230300014,None,,,,,,,,,,,,,,,,,,,,,,,,,,,,,,,,,,,,,,,,,,,,,,,,,,,,,,,,,bar,154,67,silent,new,yellow,1205.7113783999812,None,y,1205.7113783999812,None,"['y', 'return']","[1.2731622999999672, 1.53704659990035]",1205.7113783999812,None,,,94ND,001,2023_Sep_01_1421,ExactRep-v3-final,2021.2.3,59.98368442532989,
,,,,,,,,,,,,67,0,67,0,,,,,,,,,,,,,,,,,,,,,,,,,,,,,,,,,,,,,,,,,,,,,,,,,1209.467485100031,None,,,,,,,,,,,,,,,,,,,,,,,,,,,,,,,,,,,,,,,,,,,,,,,,,,,,,,,,,love,94,68,aloud,old,yellow,1207.7989592000376,None,n,1207.7989592000376,None,"['n', 'return']","[1.2734304999466985, 1.625602399930358]",1207.7989592000376,None,,,94ND,001,2023_Sep_01_1421,ExactRep-v3-final,2021.2.3,59.98368442532989,
,,,,,,,,,,,,68,0,68,0,,,,,,,,,,,,,,,,,,,,,,,,,,,,,,,,,,,,,,,,,,,,,,,,,1211.3192314000335,None,,,,,,,,,,,,,,,,,,,,,,,,,,,,,,,,,,,,,,,,,,,,,,,,,,,,,,,,,passion,13,69,sing,old,yellow,1209.9834488000488,None,y,1209.9834488000488,None,"['y', 'return']","[1.0090168999740854, 1.2970422999933362]",1209.9834488000488,None,,,94ND,001,2023_Sep_01_1421,ExactRep-v3-final,2021.2.3,59.98368442532989,
,,,,,,,,,,,,69,0,69,0,,,,,,,,,,,,,,,,,,,,,,,,,,,,,,,,,,,,,,,,,,,,,,,,,1213.0373275000602,None,,,,,,,,,,,,,,,,,,,,,,,,,,,,,,,,,,,,,,,,,,,,,,,,,,,,,,,,,advice,79,70,sing,old,yellow,1211.8366394999903,None,n,1211.8366394999903,None,"['n', 'return']","[0.8518474999582395, 1.1640861000632867]",1211.8366394999903,None,,,94ND,001,2023_Sep_01_1421,ExactRep-v3-final,2021.2.3,59.98368442532989,
,,,,,,,,,,,,70,0,70,0,,,,,,,,,,,,,,,,,,,,,,,,,,,,,,,,,,,,,,,,,,,,,,,,,1216.4078523000935,None,,,,,,,,,,,,,,,,,,,,,,,,,,,,,,,,,,,,,,,,,,,,,,,,,,,,,,,,,market,73,71,silent,old,yellow,1213.5417713000206,None,n,1213.5417713000206,None,"['n', 'return']","[2.5226505999453366, 2.8266989999683574]",1213.5417713000206,None,,,94ND,001,2023_Sep_01_1421,ExactRep-v3-final,2021.2.3,59.98368442532989,
,,,,,,,,,,,,71,0,71,0,,,,,,,,,,,,,,,,,,,,,,,,,,,,,,,,,,,,,,,,,,,,,,,,,1219.0102848000824,None,,,,,,,,,,,,,,,,,,,,,,,,,,,,,,,,,,,,,,,,,,,,,,,,,,,,,,,,,child,32,72,sing,old,yellow,1216.9244053000584,None,y,1216.9244053000584,None,"['y', 'return']","[1.7640675998991355, 2.0521591999568045]",1216.9244053000584,None,,,94ND,001,2023_Sep_01_1421,ExactRep-v3-final,2021.2.3,59.98368442532989,
,,,,,,,,,,,,72,0,72,0,,,,,,,,,,,,,,,,,,,,,,,,,,,,,,,,,,,,,,,,,,,,,,,,,1221.2796172000235,None,,,,,,,,,,,,,,,,,,,,,,,,,,,,,,,,,,,,,,,,,,,,,,,,,,,,,,,,,theory,56,73,silent,old,yellow,1219.5438444000902,None,n,1219.5438444000902,None,"['n', 'return']","[1.3846072999294847, 1.688597899978049]",1219.5438444000902,None,,,94ND,001,2023_Sep_01_1421,ExactRep-v3-final,2021.2.3,59.98368442532989,
,,,,,,,,,,,,73,0,73,0,,,,,,,,,,,,,,,,,,,,,,,,,,,,,,,,,,,,,,,,,,,,,,,,,1223.0978754999815,None,,,,,,,,,,,,,,,,,,,,,,,,,,,,,,,,,,,,,,,,,,,,,,,,,,,,,,,,,shadow,91,74,aloud,old,yellow,1221.79729830008,None,y,1221.79729830008,None,"['y', 'return']","[1.0111684000585228, 1.2591405999846756]",1221.79729830008,None,,,94ND,001,2023_Sep_01_1421,ExactRep-v3-final,2021.2.3,59.98368442532989,
,,,,,,,,,,,,74,0,74,0,,,,,,,,,,,,,,,,,,,,,,,,,,,,,,,,,,,,,,,,,,,,,,,,,1224.7494450000813,None,,,,,,,,,,,,,,,,,,,,,,,,,,,,,,,,,,,,,,,,,,,,,,,,,,,,,,,,,season,115,75,aloud,old,yellow,1223.6146076000296,None,y,1223.6146076000296,None,"['y', 'return']","[0.777826500008814, 1.0899060999508947]",1223.6146076000296,None,,,94ND,001,2023_Sep_01_1421,ExactRep-v3-final,2021.2.3,59.98368442532989,
,,,,,,,,,,,,75,0,75,0,,,,,,,,,,,,,,,,,,,,,,,,,,,,,,,,,,,,,,,,,,,,,,,,,1227.018395000021,None,,,,,,,,,,,,,,,,,,,,,,,,,,,,,,,,,,,,,,,,,,,,,,,,,,,,,,,,,hall,212,76,aloud,new,yellow,1225.2714902000735,None,n,1225.2714902000735,None,"['n', 'return']","[1.3849895999301225, 1.6970353999640793]",1225.2714902000735,None,,,94ND,001,2023_Sep_01_1421,ExactRep-v3-final,2021.2.3,59.98368442532989,
,,,,,,,,,,,,76,0,76,0,,,,,,,,,,,,,,,,,,,,,,,,,,,,,,,,,,,,,,,,,,,,,,,,,1228.9365030000918,None,,,,,,,,,,,,,,,,,,,,,,,,,,,,,,,,,,,,,,,,,,,,,,,,,,,,,,,,,series,75,77,silent,old,yellow,1227.5439572000178,None,y,1227.5439572000178,None,"['y', 'return']","[1.0965618999907747, 1.3524852999253199]",1227.5439572000178,None,,,94ND,001,2023_Sep_01_1421,ExactRep-v3-final,2021.2.3,59.98368442532989,
,,,,,,,,,,,,77,0,77,0,,,,,,,,,,,,,,,,,,,,,,,,,,,,,,,,,,,,,,,,,,,,,,,,,1230.6385967000388,None,,,,,,,,,,,,,,,,,,,,,,,,,,,,,,,,,,,,,,,,,,,,,,,,,,,,,,,,,street,148,78,silent,new,yellow,1229.4383084999863,None,n,1229.4383084999863,None,"['n', 'return']","[0.8820951000088826, 1.162085899966769]",1229.4383084999863,None,,,94ND,001,2023_Sep_01_1421,ExactRep-v3-final,2021.2.3,59.98368442532989,
,,,,,,,,,,,,78,0,78,0,,,,,,,,,,,,,,,,,,,,,,,,,,,,,,,,,,,,,,,,,,,,,,,,,1232.2718523000367,None,,,,,,,,,,,,,,,,,,,,,,,,,,,,,,,,,,,,,,,,,,,,,,,,,,,,,,,,,style,150,79,silent,new,yellow,1231.1554751000367,None,n,1231.1554751000367,None,"['n', 'return']","[0.7729806000133976, 1.0769873999524862]",1231.1554751000367,None,,,94ND,001,2023_Sep_01_1421,ExactRep-v3-final,2021.2.3,59.98368442532989,
,,,,,,,,,,,,79,0,79,0,,,,,,,,,,,,,,,,,,,,,,,,,,,,,,,,,,,,,,,,,,,,,,,,,1233.9258999000303,None,,,,,,,,,,,,,,,,,,,,,,,,,,,,,,,,,,,,,,,,,,,,,,,,,,,,,,,,,murder,189,80,sing,new,yellow,1232.7749281000579,None,n,1232.7749281000579,None,"['n', 'return']","[0.7695230999961495, 1.1135742000769824]",1232.7749281000579,None,,,94ND,001,2023_Sep_01_1421,ExactRep-v3-final,2021.2.3,59.98368442532989,
,,,,,,,,,,,,80,0,80,0,,,,,,,,,,,,,,,,,,,,,,,,,,,,,,,,,,,,,,,,,,,,,,,,,1235.4097898000618,None,,,,,,,,,,,,,,,,,,,,,,,,,,,,,,,,,,,,,,,,,,,,,,,,,,,,,,,,,death,131,81,silent,new,yellow,1234.4429119999986,None,n,1234.4429119999986,None,"['n', 'return']","[0.5816214999649674, 0.9335226999828592]",1234.4429119999986,None,,,94ND,001,2023_Sep_01_1421,ExactRep-v3-final,2021.2.3,59.98368442532989,
,,,,,,,,,,,,81,0,81,0,,,,,,,,,,,,,,,,,,,,,,,,,,,,,,,,,,,,,,,,,,,,,,,,,1237.3103346000426,None,,,,,,,,,,,,,,,,,,,,,,,,,,,,,,,,,,,,,,,,,,,,,,,,,,,,,,,,,fortune,2,82,sing,old,yellow,1235.9273156999843,None,y,1235.9273156999843,None,"['y', 'return']","[1.089188100071624, 1.3451433000154793]",1235.9273156999843,None,,,94ND,001,2023_Sep_01_1421,ExactRep-v3-final,2021.2.3,59.98368442532989,
,,,,,,,,,,,,82,0,82,0,,,,,,,,,,,,,,,,,,,,,,,,,,,,,,,,,,,,,,,,,,,,,,,,,1239.1805089000845,None,,,,,,,,,,,,,,,,,,,,,,,,,,,,,,,,,,,,,,,,,,,,,,,,,,,,,,,,,ocean,182,83,aloud,new,yellow,1237.8134201000212,None,n,1237.8134201000212,None,"['n', 'return']","[0.9793195999227464, 1.3230827000224963]",1237.8134201000212,None,,,94ND,001,2023_Sep_01_1421,ExactRep-v3-final,2021.2.3,59.98368442532989,
,,,,,,,,,,,,83,0,83,0,,,,,,,,,,,,,,,,,,,,,,,,,,,,,,,,,,,,,,,,,,,,,,,,,1241.031685700058,None,,,,,,,,,,,,,,,,,,,,,,,,,,,,,,,,,,,,,,,,,,,,,,,,,,,,,,,,,disease,197,84,sing,new,yellow,1239.6978855000343,None,y,1239.6978855000343,None,"['y', 'return']","[1.0466666999273002, 1.2945054000010714]",1239.6978855000343,None,,,94ND,001,2023_Sep_01_1421,ExactRep-v3-final,2021.2.3,59.98368442532989,
,,,,,,,,,,,,84,0,84,0,,,,,,,,,,,,,,,,,,,,,,,,,,,,,,,,,,,,,,,,,,,,,,,,,1242.9839444999816,None,,,,,,,,,,,,,,,,,,,,,,,,,,,,,,,,,,,,,,,,,,,,,,,,,,,,,,,,,corn,231,85,sing,new,yellow,1241.533806500025,None,n,1241.533806500025,None,"['n', 'return']","[1.1385861999588087, 1.4026993999723345]",1241.533806500025,None,,,94ND,001,2023_Sep_01_1421,ExactRep-v3-final,2021.2.3,59.98368442532989,
,,,,,,,,,,,,85,0,85,0,,,,,,,,,,,,,,,,,,,,,,,,,,,,,,,,,,,,,,,,,,,,,,,,,1244.9191521999892,None,,,,,,,,,,,,,,,,,,,,,,,,,,,,,,,,,,,,,,,,,,,,,,,,,,,,,,,,,heaven,196,86,aloud,new,yellow,1243.4856635000324,None,n,1243.4856635000324,None,"['n', 'return']","[1.0667705999221653, 1.3948205999331549]",1243.4856635000324,None,,,94ND,001,2023_Sep_01_1421,ExactRep-v3-final,2021.2.3,59.98368442532989,
,,,,,,,,,,,,86,0,86,0,,,,,,,,,,,,,,,,,,,,,,,,,,,,,,,,,,,,,,,,,,,,,,,,,1246.5039292000001,None,,,,,,,,,,,,,,,,,,,,,,,,,,,,,,,,,,,,,,,,,,,,,,,,,,,,,,,,,camp,85,87,aloud,old,yellow,1245.4202361000935,None,n,1245.4202361000935,None,"['n', 'return']","[0.5642619000282139, 1.036254100035876]",1245.4202361000935,None,,,94ND,001,2023_Sep_01_1421,ExactRep-v3-final,2021.2.3,59.98368442532989,
,,,,,,,,,,,,87,0,87,0,,,,,,,,,,,,,,,,,,,,,,,,,,,,,,,,,,,,,,,,,,,,,,,,,1248.3724772999994,None,,,,,,,,,,,,,,,,,,,,,,,,,,,,,,,,,,,,,,,,,,,,,,,,,,,,,,,,,life,166,88,aloud,new,yellow,1247.0062653000932,None,y,1247.0062653000932,None,"['y', 'return']","[1.082177700009197, 1.3221636000089347]",1247.0062653000932,None,,,94ND,001,2023_Sep_01_1421,ExactRep-v3-final,2021.2.3,59.98368442532989,
,,,,,,,,,,,,88,0,88,0,,,,,,,,,,,,,,,,,,,,,,,,,,,,,,,,,,,,,,,,,,,,,,,,,1250.8767659000587,None,,,,,,,,,,,,,,,,,,,,,,,,,,,,,,,,,,,,,,,,,,,,,,,,,,,,,,,,,brain,36,89,sing,old,yellow,1248.8746215000283,None,n,1248.8746215000283,None,"['n', 'return']","[1.1418532999232411, 1.9659291999414563]",1248.8746215000283,None,,,94ND,001,2023_Sep_01_1421,ExactRep-v3-final,2021.2.3,59.98368442532989,
,,,,,,,,,,,,89,0,89,0,,,,,,,,,,,,,,,,,,,,,,,,,,,,,,,,,,,,,,,,,,,,,,,,,1253.2447949000634,None,,,,,,,,,,,,,,,,,,,,,,,,,,,,,,,,,,,,,,,,,,,,,,,,,,,,,,,,,justice,179,90,sing,new,yellow,1251.3954733000137,None,n,1251.3954733000137,None,"['n', 'return']","[1.5329517000354826, 1.8131720999954268]",1251.3954733000137,None,,,94ND,001,2023_Sep_01_1421,ExactRep-v3-final,2021.2.3,59.98368442532989,
,,,,,,,,,,,,90,0,90,0,,,,,,,,,,,,,,,,,,,,,,,,,,,,,,,,,,,,,,,,,,,,,,,,,1255.9969264999963,None,,,,,,,,,,,,,,,,,,,,,,,,,,,,,,,,,,,,,,,,,,,,,,,,,,,,,,,,,anger,4,91,sing,old,yellow,1253.7596982000396,None,n,1253.7596982000396,None,"['return', 'n', 'return']","[1.2087239000247791, 1.8647280000150204, 2.192784499959089]",1253.7596982000396,None,,,94ND,001,2023_Sep_01_1421,ExactRep-v3-final,2021.2.3,59.98368442532989,
,,,,,,,,,,,,91,0,91,0,,,,,,,,,,,,,,,,,,,,,,,,,,,,,,,,,,,,,,,,,,,,,,,,,1257.8488457000349,None,,,,,,,,,,,,,,,,,,,,,,,,,,,,,,,,,,,,,,,,,,,,,,,,,,,,,,,,,poet,58,92,silent,old,yellow,1256.498265100061,None,n,1256.498265100061,None,"['n', 'return']","[0.9742450000485405, 1.3022269000066444]",1256.498265100061,None,,,94ND,001,2023_Sep_01_1421,ExactRep-v3-final,2021.2.3,59.98368442532989,
,,,,,,,,,,,,92,0,92,0,,,,,,,,,,,,,,,,,,,,,,,,,,,,,,,,,,,,,,,,,,,,,,,,,1259.6838931000093,None,,,,,,,,,,,,,,,,,,,,,,,,,,,,,,,,,,,,,,,,,,,,,,,,,,,,,,,,,humour,80,93,aloud,old,yellow,1258.366872600047,None,y,1258.366872600047,None,"['y', 'return']","[1.0096499999053776, 1.2817879999056458]",1258.366872600047,None,,,94ND,001,2023_Sep_01_1421,ExactRep-v3-final,2021.2.3,59.98368442532989,
,,,,,,,,,,,,93,0,93,0,,,,,,,,,,,,,,,,,,,,,,,,,,,,,,,,,,,,,,,,,,,,,,,,,1261.4025304000825,None,,,,,,,,,,,,,,,,,,,,,,,,,,,,,,,,,,,,,,,,,,,,,,,,,,,,,,,,,salary,201,94,sing,new,yellow,1260.2006971000228,None,n,1260.2006971000228,None,"['n', 'return']","[0.9037275000009686, 1.167778700008057]",1260.2006971000228,None,,,94ND,001,2023_Sep_01_1421,ExactRep-v3-final,2021.2.3,59.98368442532989,
,,,,,,,,,,,,94,0,94,0,,,,,,,,,,,,,,,,,,,,,,,,,,,,,,,,,,,,,,,,,,,,,,,,,1262.8877310000826,None,,,,,,,,,,,,,,,,,,,,,,,,,,,,,,,,,,,,,,,,,,,,,,,,,,,,,,,,,author,72,95,silent,old,yellow,1261.9195104000391,None,n,1261.9195104000391,None,"['n', 'return']","[0.5929027999518439, 0.9289510999806225]",1261.9195104000391,None,,,94ND,001,2023_Sep_01_1421,ExactRep-v3-final,2021.2.3,59.98368442532989,
,,,,,,,,,,,,95,0,95,0,,,,,,,,,,,,,,,,,,,,,,,,,,,,,,,,,,,,,,,,,,,,,,,,,1264.4725439000176,None,,,,,,,,,,,,,,,,,,,,,,,,,,,,,,,,,,,,,,,,,,,,,,,,,,,,,,,,,palace,129,96,silent,new,yellow,1263.40378719999,None,n,1263.40378719999,None,"['n', 'return']","[0.7086050000507385, 1.0286232000216842]",1263.40378719999,None,,,94ND,001,2023_Sep_01_1421,ExactRep-v3-final,2021.2.3,59.98368442532989,
,,,,,,,,,,,,96,0,96,0,,,,,,,,,,,,,,,,,,,,,,,,,,,,,,,,,,,,,,,,,,,,,,,,,1266.273895499995,None,,,,,,,,,,,,,,,,,,,,,,,,,,,,,,,,,,,,,,,,,,,,,,,,,,,,,,,,,lad,124,97,silent,new,yellow,1264.9896429000655,None,n,1264.9896429000655,None,"['n', 'return']","[0.9148010000353679, 1.242820900049992]",1264.9896429000655,None,,,94ND,001,2023_Sep_01_1421,ExactRep-v3-final,2021.2.3,59.98368442532989,
,,,,,,,,,,,,97,0,97,0,,,,,,,,,,,,,,,,,,,,,,,,,,,,,,,,,,,,,,,,,,,,,,,,,1267.9076990000904,None,,,,,,,,,,,,,,,,,,,,,,,,,,,,,,,,,,,,,,,,,,,,,,,,,,,,,,,,,flag,194,98,aloud,new,yellow,1266.7916405000724,None,n,1266.7916405000724,None,"['n', 'return']","[0.7047412000829354, 1.0728178001008928]",1266.7916405000724,None,,,94ND,001,2023_Sep_01_1421,ExactRep-v3-final,2021.2.3,59.98368442532989,
,,,,,,,,,,,,98,0,98,0,,,,,,,,,,,,,,,,,,,,,,,,,,,,,,,,,,,,,,,,,,,,,,,,,1269.727658100077,None,,,,,,,,,,,,,,,,,,,,,,,,,,,,,,,,,,,,,,,,,,,,,,,,,,,,,,,,,prison,66,99,silent,old,yellow,1268.4107001000084,None,n,1268.4107001000084,None,"['n', 'return']","[0.9097241000272334, 1.2697620999533683]",1268.4107001000084,None,,,94ND,001,2023_Sep_01_1421,ExactRep-v3-final,2021.2.3,59.98368442532989,
,,,,,,,,,,,,99,0,99,0,,,,,,,,,,,,,,,,,,,,,,,,,,,,,,,,,,,,,,,,,,,,,,,,,1271.8293722000672,None,,,,,,,,,,,,,,,,,,,,,,,,,,,,,,,,,,,,,,,,,,,,,,,,,,,,,,,,,iron,89,100,aloud,old,yellow,1270.2446963000111,None,n,1270.2446963000111,None,"['n', 'return']","[0.6597529000137001, 1.5398134000133723]",1270.2446963000111,None,,,94ND,001,2023_Sep_01_1421,ExactRep-v3-final,2021.2.3,59.98368442532989,
,,,,,,,,,,,,100,0,100,0,,,,,,,,,,,,,,,,,,,,,,,,,,,,,,,,,,,,,,,,,,,,,,,,,1273.6809317000443,None,,,,,,,,,,,,,,,,,,,,,,,,,,,,,,,,,,,,,,,,,,,,,,,,,,,,,,,,,mercy,86,101,aloud,old,yellow,1272.3394514999818,None,y,1272.3394514999818,None,"['y', 'return']","[1.0368940000189468, 1.2929532000562176]",1272.3394514999818,None,,,94ND,001,2023_Sep_01_1421,ExactRep-v3-final,2021.2.3,59.98368442532989,
,,,,,,,,,,,,101,0,101,0,,,,,,,,,,,,,,,,,,,,,,,,,,,,,,,,,,,,,,,,,,,,,,,,,1275.867218200001,None,,,,,,,,,,,,,,,,,,,,,,,,,,,,,,,,,,,,,,,,,,,,,,,,,,,,,,,,,college,208,102,aloud,new,yellow,1274.1832612000871,None,n,1274.1832612000871,None,"['n', 'return']","[1.0252518000779673, 1.6490730000659823]",1274.1832612000871,None,,,94ND,001,2023_Sep_01_1421,ExactRep-v3-final,2021.2.3,59.98368442532989,
,,,,,,,,,,,,102,0,102,0,,,,,,,,,,,,,,,,,,,,,,,,,,,,,,,,,,,,,,,,,,,,,,,,,1278.2859761000145,None,,,,,,,,,,,,,,,,,,,,,,,,,,,,,,,,,,,,,,,,,,,,,,,,,,,,,,,,,breast,81,103,aloud,old,yellow,1276.3829179999884,None,y,1276.3829179999884,None,"['y', 'return']","[1.6337652000365779, 1.8574980000266805]",1276.3829179999884,None,,,94ND,001,2023_Sep_01_1421,ExactRep-v3-final,2021.2.3,59.98368442532989,
,,,,,,,,,,,,103,0,103,0,,,,,,,,,,,,,,,,,,,,,,,,,,,,,,,,,,,,,,,,,,,,,,,,,1280.771782200085,None,,,,,,,,,,,,,,,,,,,,,,,,,,,,,,,,,,,,,,,,,,,,,,,,,,,,,,,,,diamond,143,104,silent,new,yellow,1278.8135621000547,None,n,1278.8135621000547,None,"['n', 'return']","[1.1468338000122458, 1.9231136000016704]",1278.8135621000547,None,,,94ND,001,2023_Sep_01_1421,ExactRep-v3-final,2021.2.3,59.98368442532989,
,,,,,,,,,,,,104,0,104,0,,,,,,,,,,,,,,,,,,,,,,,,,,,,,,,,,,,,,,,,,,,,,,,,,1282.5224591000006,None,,,,,,,,,,,,,,,,,,,,,,,,,,,,,,,,,,,,,,,,,,,,,,,,,,,,,,,,,dress,83,105,aloud,old,yellow,1281.2894001000095,None,n,1281.2894001000095,None,"['n', 'return']","[0.8789927000179887, 1.1909722000127658]",1281.2894001000095,None,,,94ND,001,2023_Sep_01_1421,ExactRep-v3-final,2021.2.3,59.98368442532989,
,,,,,,,,,,,,105,0,105,0,,,,,,,,,,,,,,,,,,,,,,,,,,,,,,,,,,,,,,,,,,,,,,,,,1284.142467900063,None,,,,,,,,,,,,,,,,,,,,,,,,,,,,,,,,,,,,,,,,,,,,,,,,,,,,,,,,,method,99,106,aloud,old,yellow,1283.0253607000923,None,y,1283.0253607000923,None,"['y', 'return']","[0.7831133999861777, 1.0794151000445709]",1283.0253607000923,None,,,94ND,001,2023_Sep_01_1421,ExactRep-v3-final,2021.2.3,59.98368442532989,
,,,,,,,,,,,,106,0,106,0,,,,,,,,,,,,,,,,,,,,,,,,,,,,,,,,,,,,,,,,,,,,,,,,,1286.2774258999852,None,,,,,,,,,,,,,,,,,,,,,,,,,,,,,,,,,,,,,,,,,,,,,,,,,,,,,,,,,winter,93,107,aloud,old,yellow,1284.657876900048,None,y,1284.657876900048,None,"['y', 'return']","[1.3105284000048414, 1.582819000002928]",1284.657876900048,None,,,94ND,001,2023_Sep_01_1421,ExactRep-v3-final,2021.2.3,59.98368442532989,
,,,,,,,,,,,,107,0,107,0,,,,,,,,,,,,,,,,,,,,,,,,,,,,,,,,,,,,,,,,,,,,,,,,,1288.346689500031,None,,,,,,,,,,,,,,,,,,,,,,,,,,,,,,,,,,,,,,,,,,,,,,,,,,,,,,,,,wine,199,108,sing,new,yellow,1286.7953856000677,None,n,1286.7953856000677,None,"['n', 'return']","[1.2050973000004888, 1.509033799986355]",1286.7953856000677,None,,,94ND,001,2023_Sep_01_1421,ExactRep-v3-final,2021.2.3,59.98368442532989,
,,,,,,,,,,,,108,0,108,0,,,,,,,,,,,,,,,,,,,,,,,,,,,,,,,,,,,,,,,,,,,,,,,,,1291.232477499987,None,,,,,,,,,,,,,,,,,,,,,,,,,,,,,,,,,,,,,,,,,,,,,,,,,,,,,,,,,ship,133,109,silent,new,yellow,1288.8636149000376,None,n,1288.8636149000376,None,"['n', 'return']","[2.040764799923636, 2.3208669999148697]",1288.8636149000376,None,,,94ND,001,2023_Sep_01_1421,ExactRep-v3-final,2021.2.3,59.98368442532989,
,,,,,,,,,,,,109,0,109,0,,,,,,,,,,,,,,,,,,,,,,,,,,,,,,,,,,,,,,,,,,,,,,,,,1295.0189692000858,None,,,,,,,,,,,,,,,,,,,,,,,,,,,,,,,,,,,,,,,,,,,,,,,,,,,,,,,,,chance,177,110,sing,new,yellow,1291.7483742000768,None,y,1291.7483742000768,None,"['y', 'return']","[2.2682957000797614, 3.236175800091587]",1291.7483742000768,None,,,94ND,001,2023_Sep_01_1421,ExactRep-v3-final,2021.2.3,59.98368442532989,
,,,,,,,,,,,,110,0,110,0,,,,,,,,,,,,,,,,,,,,,,,,,,,,,,,,,,,,,,,,,,,,,,,,,1297.0380016000709,None,,,,,,,,,,,,,,,,,,,,,,,,,,,,,,,,,,,,,,,,,,,,,,,,,,,,,,,,,shore,30,111,sing,old,yellow,1295.519713100046,None,n,1295.519713100046,None,"['n', 'return']","[1.176697799935937, 1.4726671999087557]",1295.519713100046,None,,,94ND,001,2023_Sep_01_1421,ExactRep-v3-final,2021.2.3,59.98368442532989,
,,,,,,,,,,,,111,0,111,0,,,,,,,,,,,,,,,,,,,,,,,,,,,,,,,,,,,,,,,,,,,,,,,,,1298.789511900046,None,,,,,,,,,,,,,,,,,,,,,,,,,,,,,,,,,,,,,,,,,,,,,,,,,,,,,,,,,party,15,112,sing,old,yellow,1297.5393906000536,None,y,1297.5393906000536,None,"['y', 'return']","[0.9170583999948576, 1.2049715999746695]",1297.5393906000536,None,,,94ND,001,2023_Sep_01_1421,ExactRep-v3-final,2021.2.3,59.98368442532989,
,,,,,,,,,,,,112,0,112,0,,,,,,,,,,,,,,,,,,,,,,,,,,,,,,,,,,,,,,,,,,,,,,,,,1300.4758051000535,None,,,,,,,,,,,,,,,,,,,,,,,,,,,,,,,,,,,,,,,,,,,,,,,,,,,,,,,,,dollar,214,113,aloud,new,yellow,1299.296045800089,None,n,1299.296045800089,None,"['n', 'return']","[0.8484717999817804, 1.1443619999336079]",1299.296045800089,None,,,94ND,001,2023_Sep_01_1421,ExactRep-v3-final,2021.2.3,59.98368442532989,
,,,,,,,,,,,,113,0,113,0,,,,,,,,,,,,,,,,,,,,,,,,,,,,,,,,,,,,,,,,,,,,,,,,,1302.76044610003,None,,,,,,,,,,,,,,,,,,,,,,,,,,,,,,,,,,,,,,,,,,,,,,,,,,,,,,,,,storm,217,114,sing,new,yellow,1300.9920212000143,None,n,1300.9920212000143,None,"['n', 'return']","[1.4164705999428406, 1.7284622000297531]",1300.9920212000143,None,,,94ND,001,2023_Sep_01_1421,ExactRep-v3-final,2021.2.3,59.98368442532989,
,,,,,,,,,,,,114,0,114,0,,,,,,,,,,,,,,,,,,,,,,,,,,,,,,,,,,,,,,,,,,,,,,,,,1304.4788381999824,None,,,,,,,,,,,,,,,,,,,,,,,,,,,,,,,,,,,,,,,,,,,,,,,,,,,,,,,,,cost,229,115,sing,new,yellow,1303.2774971000617,None,n,1303.2774971000617,None,"['n', 'return']","[0.7790617001010105, 1.1629232000559568]",1303.2774971000617,None,,,94ND,001,2023_Sep_01_1421,ExactRep-v3-final,2021.2.3,59.98368442532989,
,,,,,,,,,,,,115,0,115,0,,,,,,,,,,,,,,,,,,,,,,,,,,,,,,,,,,,,,,,,,,,,,,,,,1306.9812305000378,None,,,,,,,,,,,,,,,,,,,,,,,,,,,,,,,,,,,,,,,,,,,,,,,,,,,,,,,,,crime,50,116,silent,old,yellow,1305.0105894000735,None,n,1305.0105894000735,None,"['n', 'return']","[1.6378901000134647, 1.9341224000090733]",1305.0105894000735,None,,,94ND,001,2023_Sep_01_1421,ExactRep-v3-final,2021.2.3,59.98368442532989,
,,,,,,,,,,,,116,0,116,0,,,,,,,,,,,,,,,,,,,,,,,,,,,,,,,,,,,,,,,,,,,,,,,,,1309.018657800043,None,,,,,,,,,,,,,,,,,,,,,,,,,,,,,,,,,,,,,,,,,,,,,,,,,,,,,,,,,friend,28,117,sing,old,yellow,1307.4989267000929,None,y,1307.4989267000929,None,"['y', 'return']","[1.2374703000532463, 1.4695184000302106]",1307.4989267000929,None,,,94ND,001,2023_Sep_01_1421,ExactRep-v3-final,2021.2.3,59.98368442532989,
,,,,,,,,,,,,117,0,117,0,,,,,,,,,,,,,,,,,,,,,,,,,,,,,,,,,,,,,,,,,,,,,,,,,1311.1866900000023,None,,,,,,,,,,,,,,,,,,,,,,,,,,,,,,,,,,,,,,,,,,,,,,,,,,,,,,,,,effort,211,118,sing,new,yellow,1309.5532195999986,None,n,1309.5532195999986,None,"['n', 'return']","[1.0551260999636725, 1.5912434000056237]",1309.5532195999986,None,,,94ND,001,2023_Sep_01_1421,ExactRep-v3-final,2021.2.3,59.98368442532989,
,,,,,,,,,,,,118,0,118,0,,,,,,,,,,,,,,,,,,,,,,,,,,,,,,,,,,,,,,,,,,,,,,,,,1313.0875054000644,None,,,,,,,,,,,,,,,,,,,,,,,,,,,,,,,,,,,,,,,,,,,,,,,,,,,,,,,,,owner,55,119,silent,old,yellow,1311.7031447000336,None,n,1311.7031447000336,None,"['n', 'return']","[1.0332637999672443, 1.3372887999285012]",1311.7031447000336,None,,,94ND,001,2023_Sep_01_1421,ExactRep-v3-final,2021.2.3,59.98368442532989,
,,,,,,,,,,,,119,0,119,0,,,,,,,,,,,,,,,,,,,,,,,,,,,,,,,,,,,,,,,,,,,,,,,,,1314.7557960000122,None,,,,,,,,,,,,,,,,,,,,,,,,,,,,,,,,,,,,,,,,,,,,,,,,,,,,,,,,,flesh,204,120,aloud,new,yellow,1313.6176086000632,None,n,1313.6176086000632,None,"['n', 'return']","[0.6627773999935016, 1.102995799970813]",1313.6176086000632,None,,,94ND,001,2023_Sep_01_1421,ExactRep-v3-final,2021.2.3,59.98368442532989,
,,,,,,,,,,,,120,0,120,0,,,,,,,,,,,,,,,,,,,,,,,,,,,,,,,,,,,,,,,,,,,,,,,,,1316.607415100094,None,,,,,,,,,,,,,,,,,,,,,,,,,,,,,,,,,,,,,,,,,,,,,,,,,,,,,,,,,garden,173,121,sing,new,yellow,1315.27307320002,None,n,1315.27307320002,None,"['n', 'return']","[0.7593221999704838, 1.2873707000399008]",1315.27307320002,None,,,94ND,001,2023_Sep_01_1421,ExactRep-v3-final,2021.2.3,59.98368442532989,
,,,,,,,,,,,,121,0,121,0,,,,,,,,,,,,,,,,,,,,,,,,,,,,,,,,,,,,,,,,,,,,,,,,,1318.8754429999972,None,,,,,,,,,,,,,,,,,,,,,,,,,,,,,,,,,,,,,,,,,,,,,,,,,,,,,,,,,thought,224,122,aloud,new,yellow,1317.1239640000276,None,n,1317.1239640000276,None,"['n', 'return']","[1.444428400020115, 1.7164918999187648]",1317.1239640000276,None,,,94ND,001,2023_Sep_01_1421,ExactRep-v3-final,2021.2.3,59.98368442532989,
,,,,,,,,,,,,122,0,122,0,,,,,,,,,,,,,,,,,,,,,,,,,,,,,,,,,,,,,,,,,,,,,,,,,1320.4118838000577,None,,,,,,,,,,,,,,,,,,,,,,,,,,,,,,,,,,,,,,,,,,,,,,,,,,,,,,,,,maiden,126,123,silent,new,yellow,1319.3773365999805,None,n,1319.3773365999805,None,"['n', 'return']","[0.6230712999822572, 0.9912191999610513]",1319.3773365999805,None,,,94ND,001,2023_Sep_01_1421,ExactRep-v3-final,2021.2.3,59.98368442532989,
,,,,,,,,,,,,123,0,123,0,,,,,,,,,,,,,,,,,,,,,,,,,,,,,,,,,,,,,,,,,,,,,,,,,1322.1127816999797,None,,,,,,,,,,,,,,,,,,,,,,,,,,,,,,,,,,,,,,,,,,,,,,,,,,,,,,,,,mother,225,124,sing,new,yellow,1320.9287141000386,None,n,1320.9287141000386,None,"['n', 'return']","[0.6396701999474317, 1.1358030999545008]",1320.9287141000386,None,,,94ND,001,2023_Sep_01_1421,ExactRep-v3-final,2021.2.3,59.98368442532989,
,,,,,,,,,,,,124,0,124,0,,,,,,,,,,,,,,,,,,,,,,,,,,,,,,,,,,,,,,,,,,,,,,,,,1323.9826060000341,None,,,,,,,,,,,,,,,,,,,,,,,,,,,,,,,,,,,,,,,,,,,,,,,,,,,,,,,,,moment,109,125,aloud,old,yellow,1322.6146760000847,None,y,1322.6146760000847,None,"['y', 'return']","[1.0656890000682324, 1.3216794000472873]",1322.6146760000847,None,,,94ND,001,2023_Sep_01_1421,ExactRep-v3-final,2021.2.3,59.98368442532989,
,,,,,,,,,,,,125,0,125,0,,,,,,,,,,,,,,,,,,,,,,,,,,,,,,,,,,,,,,,,,,,,,,,,,1325.749956900021,None,,,,,,,,,,,,,,,,,,,,,,,,,,,,,,,,,,,,,,,,,,,,,,,,,,,,,,,,,excuse,237,126,sing,new,yellow,1324.5008022000547,None,n,1324.5008022000547,None,"['n', 'return']","[0.9797419999958947, 1.2035525999963284]",1324.5008022000547,None,,,94ND,001,2023_Sep_01_1421,ExactRep-v3-final,2021.2.3,59.98368442532989,
,,,,,,,,,,,,126,0,126,0,,,,,,,,,,,,,,,,,,,,,,,,,,,,,,,,,,,,,,,,,,,,,,,,,1327.468602100038,None,,,,,,,,,,,,,,,,,,,,,,,,,,,,,,,,,,,,,,,,,,,,,,,,,,,,,,,,,freedom,68,127,silent,old,yellow,1326.2519587000133,None,y,1326.2519587000133,None,"['y', 'return']","[0.9484693999402225, 1.1805171000305563]",1326.2519587000133,None,,,94ND,001,2023_Sep_01_1421,ExactRep-v3-final,2021.2.3,59.98368442532989,
,,,,,,,,,,,,127,0,127,0,,,,,,,,,,,,,,,,,,,,,,,,,,,,,,,,,,,,,,,,,,,,,,,,,1329.6875232000602,None,,,,,,,,,,,,,,,,,,,,,,,,,,,,,,,,,,,,,,,,,,,,,,,,,,,,,,,,,charm,98,128,aloud,old,yellow,1327.9862193000736,None,n,1327.9862193000736,None,"['n', 'return']","[1.4144992000656202, 1.6622464000247419]",1327.9862193000736,None,,,94ND,001,2023_Sep_01_1421,ExactRep-v3-final,2021.2.3,59.98368442532989,
,,,,,,,,,,,,128,0,128,0,,,,,,,,,,,,,,,,,,,,,,,,,,,,,,,,,,,,,,,,,,,,,,,,,1332.1730199999874,None,,,,,,,,,,,,,,,,,,,,,,,,,,,,,,,,,,,,,,,,,,,,,,,,,,,,,,,,,paper,101,129,aloud,old,yellow,1330.2056936000008,None,n,1330.2056936000008,None,"['n', 'return']","[1.0827352999476716, 1.9307609000243247]",1330.2056936000008,None,,,94ND,001,2023_Sep_01_1421,ExactRep-v3-final,2021.2.3,59.98368442532989,
,,,,,,,,,,,,129,0,129,0,,,,,,,,,,,,,,,,,,,,,,,,,,,,,,,,,,,,,,,,,,,,,,,,,1334.290870900033,None,,,,,,,,,,,,,,,,,,,,,,,,,,,,,,,,,,,,,,,,,,,,,,,,,,,,,,,,,lake,52,130,silent,old,yellow,1332.6749335000059,None,y,1332.6749335000059,None,"['y', 'return']","[1.317457600031048, 1.573606799938716]",1332.6749335000059,None,,,94ND,001,2023_Sep_01_1421,ExactRep-v3-final,2021.2.3,59.98368442532989,
