trials_fam.thisRepN,trials_fam.thisTrialN,trials_fam.thisN,trials_fam.thisIndex,trials_prc.thisRepN,trials_prc.thisTrialN,trials_prc.thisN,trials_prc.thisIndex,StudyLoop.thisRepN,StudyLoop.thisTrialN,StudyLoop.thisN,StudyLoop.thisIndex,TestLoop.thisRepN,TestLoop.thisTrialN,TestLoop.thisN,TestLoop.thisIndex,text_colortest.started,text_colortest.stopped,key_colortest.keys,key_colortest.rt,key_colortest.started,key_colortest.stopped,textCondition.started,textCondition.stopped,keyCondition.keys,keyCondition.rt,keyCondition.started,keyCondition.stopped,Condition_between,Condition_counterbal,keyWelcome.keys,keyWelcome.rt,keyWelcome.started,keyWelcome.stopped,welcome_a.started,welcome_a.stopped,welcome_b.started,welcome_b.stopped,welcome_c.started,welcome_c.stopped,welcome_d.started,welcome_d.stopped,welcome_e.started,welcome_e.stopped,welcome_f.started,welcome_f.stopped,key_resp_fam_inst.keys,key_resp_fam_inst.rt,key_resp_fam_inst.started,key_resp_fam_inst.stopped,fam_a.started,fam_a.stopped,fam_b.started,fam_b.stopped,fam_c.started,fam_c.stopped,fam_d.started,fam_d.stopped,fam_e.started,fam_e.stopped,fam_f.started,fam_f.stopped,text_famil.started,text_famil.stopped,textBlank500.started,textBlank500.stopped,key_resp_prc_inst.keys,key_resp_prc_inst.rt,key_resp_prc_inst.started,key_resp_prc_inst.stopped,prac_a.started,prac_a.stopped,prac_b.started,prac_b.stopped,prac_c.started,prac_c.stopped,prac_d.started,prac_d.stopped,prac_e.started,prac_e.stopped,prac_f.started,prac_f.stopped,text_prc_trial.started,text_prc_trial.stopped,key_resp_study_inst.keys,key_resp_study_inst.rt,key_resp_study_inst.started,key_resp_study_inst.stopped,crit_a.started,crit_a.stopped,crit_b.started,crit_b.stopped,crit_c.started,crit_c.stopped,crit_d.started,crit_d.stopped,crit_e.started,crit_e.stopped,crit_f.started,crit_f.stopped,study_word,study_num,study_order,study_type,word_color,textStudy.started,textStudy.stopped,keyStudy.keys,keyStudy.started,keyStudy.stopped,post_study.started,post_study.stopped,key_resp_post_study.keys,key_resp_post_study.rt,key_resp_post_study.started,key_resp_post_study.stopped,test_inst.started,test_inst.stopped,key_resp_test_inst.keys,key_resp_test_inst.rt,key_resp_test_inst.started,key_resp_test_inst.stopped,test_word,test_num,test_order,test_condition,old_new_test,word_color_test,textConf.started,textConf.stopped,Participant Response,textInput.started,textInput.stopped,keyResp.keys,keyResp.rt,keyResp.started,keyResp.stopped,textEnd.started,textEnd.stopped,participant,session,date,expName,psychopyVersion,frameRate,
,,,,,,,,,,,,,,,,17.290096699958667,None,n,1.2422532001510262,17.290096699958667,None,,,,,,,,,,,,,,,,,,,,,,,,,,,,,,,,,,,,,,,,,,,,,,,,,,,,,,,,,,,,,,,,,,,,,,,,,,,,,,,,,,,,,,,,,,,,,,,,,,,,,,,,,,,,,,,,,,,,,,95,001,2023_Sep_06_1158,ExactRep-v3-final,2021.2.3,59.937305547578696,
,,,,,,,,,,,,,,,,,,,,,,18.56592099997215,None,e,1.4383147000335157,18.56592099997215,None,,,,,,,,,,,,,,,,,,,,,,,,,,,,,,,,,,,,,,,,,,,,,,,,,,,,,,,,,,,,,,,,,,,,,,,,,,,,,,,,,,,,,,,,,,,,,,,,,,,,,,,,,,,,,,,,95,001,2023_Sep_06_1158,ExactRep-v3-final,2021.2.3,59.937305547578696,
,,,,,,,,,,,,,,,,,,,,,,,,,,,,whitefoils,e,space,50.3620219998993,30.17789030005224,None,,,,,,,,,,,,,,,,,,,,,,,,,,,,,,,,,,,,,,,,,,,,,,,,,,,,,,,,,,,,,,,,,,,,,,,,,,,,,,,,,,,,,,,,,,,,,,,,,,,,,,,,,,95,001,2023_Sep_06_1158,ExactRep-v3-final,2021.2.3,59.937305547578696,
,,,,,,,,,,,,,,,,,,,,,,,,,,,,,,,,,,20.208540400024503,None,20.208540400024503,None,20.208540400024503,None,20.208540400024503,None,20.208540400024503,None,20.208540400024503,None,space,15.469495000084862,90.71861299988814,None,,,,,,,,,,,,,,,,,,,,,,,,,,,,,,,,,,,,,,,,,,,,,,,,,,,,,,,,,,,,,,,,,,,,,,,,,,,,,,,,,,,,,,,,,,95,001,2023_Sep_06_1158,ExactRep-v3-final,2021.2.3,59.937305547578696,
0,0,0,0,,,,,,,,,,,,,,,,,,,,,,,,,,,,,,,,,,,,,,,,,,,,,,,80.75520309992135,None,80.75520309992135,None,80.75520309992135,None,80.75520309992135,None,80.75520309992135,None,80.75520309992135,None,106.31248309998773,None,108.30560999992304,None,,,,,,,,,,,,,,,,,,,,,,,,,,,,,,,,,,,,,,,,,,,,,,,,,,,,,,,,,,,,,,,,,,,,,,,,,,95,001,2023_Sep_06_1158,ExactRep-v3-final,2021.2.3,59.937305547578696,
1,0,1,0,,,,,,,,,,,,,,,,,,,,,,,,,,,,,,,,,,,,,,,,,,,,,,,,,,,,,,,,,,,108.80602600006387,None,110.80907640000805,None,,,,,,,,,,,,,,,,,,,,,,,,,,,,,,,,,,,,,,,,,,,,,,,,,,,,,,,,,,,,,,,,,,,,,,,,,,95,001,2023_Sep_06_1158,ExactRep-v3-final,2021.2.3,59.937305547578696,
2,0,2,0,,,,,,,,,,,,,,,,,,,,,,,,,,,,,,,,,,,,,,,,,,,,,,,,,,,,,,,,,,,111.308835899923,None,113.31078370008618,None,,,,,,,,,,,,,,,,,,,,,,,,,,,,,,,,,,,,,,,,,,,,,,,,,,,,,,,,,,,,,,,,,,,,,,,,,,95,001,2023_Sep_06_1158,ExactRep-v3-final,2021.2.3,59.937305547578696,
3,0,3,0,,,,,,,,,,,,,,,,,,,,,,,,,,,,,,,,,,,,,,,,,,,,,,,,,,,,,,,,,,,113.83888159994967,None,115.82966320007108,None,,,,,,,,,,,,,,,,,,,,,,,,,,,,,,,,,,,,,,,,,,,,,,,,,,,,,,,,,,,,,,,,,,,,,,,,,,95,001,2023_Sep_06_1158,ExactRep-v3-final,2021.2.3,59.937305547578696,
4,0,4,0,,,,,,,,,,,,,,,,,,,,,,,,,,,,,,,,,,,,,,,,,,,,,,,,,,,,,,,,,,,116.33875130000524,None,118.34943740000017,None,,,,,,,,,,,,,,,,,,,,,,,,,,,,,,,,,,,,,,,,,,,,,,,,,,,,,,,,,,,,,,,,,,,,,,,,,,95,001,2023_Sep_06_1158,ExactRep-v3-final,2021.2.3,59.937305547578696,
5,0,5,0,,,,,,,,,,,,,,,,,,,,,,,,,,,,,,,,,,,,,,,,,,,,,,,,,,,,,,,,,,,118.84973250003532,None,120.85175839997828,None,,,,,,,,,,,,,,,,,,,,,,,,,,,,,,,,,,,,,,,,,,,,,,,,,,,,,,,,,,,,,,,,,,,,,,,,,,95,001,2023_Sep_06_1158,ExactRep-v3-final,2021.2.3,59.937305547578696,
6,0,6,0,,,,,,,,,,,,,,,,,,,,,,,,,,,,,,,,,,,,,,,,,,,,,,,,,,,,,,,,,,,121.3523706998676,None,123.35399010009132,None,,,,,,,,,,,,,,,,,,,,,,,,,,,,,,,,,,,,,,,,,,,,,,,,,,,,,,,,,,,,,,,,,,,,,,,,,,95,001,2023_Sep_06_1158,ExactRep-v3-final,2021.2.3,59.937305547578696,
7,0,7,0,,,,,,,,,,,,,,,,,,,,,,,,,,,,,,,,,,,,,,,,,,,,,,,,,,,,,,,,,,,123.85585259995423,None,125.85666779987514,None,,,,,,,,,,,,,,,,,,,,,,,,,,,,,,,,,,,,,,,,,,,,,,,,,,,,,,,,,,,,,,,,,,,,,,,,,,95,001,2023_Sep_06_1158,ExactRep-v3-final,2021.2.3,59.937305547578696,
8,0,8,0,,,,,,,,,,,,,,,,,,,,,,,,,,,,,,,,,,,,,,,,,,,,,,,,,,,,,,,,,,,126.35942230001092,None,128.35926559986547,None,,,,,,,,,,,,,,,,,,,,,,,,,,,,,,,,,,,,,,,,,,,,,,,,,,,,,,,,,,,,,,,,,,,,,,,,,,95,001,2023_Sep_06_1158,ExactRep-v3-final,2021.2.3,59.937305547578696,
9,0,9,0,,,,,,,,,,,,,,,,,,,,,,,,,,,,,,,,,,,,,,,,,,,,,,,,,,,,,,,,,,,128.85989909991622,None,130.86163889989257,None,,,,,,,,,,,,,,,,,,,,,,,,,,,,,,,,,,,,,,,,,,,,,,,,,,,,,,,,,,,,,,,,,,,,,,,,,,95,001,2023_Sep_06_1158,ExactRep-v3-final,2021.2.3,59.937305547578696,
10,0,10,0,,,,,,,,,,,,,,,,,,,,,,,,,,,,,,,,,,,,,,,,,,,,,,,,,,,,,,,,,,,131.36322809988633,None,133.3643982000649,None,,,,,,,,,,,,,,,,,,,,,,,,,,,,,,,,,,,,,,,,,,,,,,,,,,,,,,,,,,,,,,,,,,,,,,,,,,95,001,2023_Sep_06_1158,ExactRep-v3-final,2021.2.3,59.937305547578696,
11,0,11,0,,,,,,,,,,,,,,,,,,,,,,,,,,,,,,,,,,,,,,,,,,,,,,,,,,,,,,,,,,,133.86919700005092,None,135.88342100009322,None,,,,,,,,,,,,,,,,,,,,,,,,,,,,,,,,,,,,,,,,,,,,,,,,,,,,,,,,,,,,,,,,,,,,,,,,,,95,001,2023_Sep_06_1158,ExactRep-v3-final,2021.2.3,59.937305547578696,
12,0,12,0,,,,,,,,,,,,,,,,,,,,,,,,,,,,,,,,,,,,,,,,,,,,,,,,,,,,,,,,,,,136.38598480005749,None,138.38545729988255,None,,,,,,,,,,,,,,,,,,,,,,,,,,,,,,,,,,,,,,,,,,,,,,,,,,,,,,,,,,,,,,,,,,,,,,,,,,95,001,2023_Sep_06_1158,ExactRep-v3-final,2021.2.3,59.937305547578696,
13,0,13,0,,,,,,,,,,,,,,,,,,,,,,,,,,,,,,,,,,,,,,,,,,,,,,,,,,,,,,,,,,,138.88863239996135,None,140.88820499996655,None,,,,,,,,,,,,,,,,,,,,,,,,,,,,,,,,,,,,,,,,,,,,,,,,,,,,,,,,,,,,,,,,,,,,,,,,,,95,001,2023_Sep_06_1158,ExactRep-v3-final,2021.2.3,59.937305547578696,
14,0,14,0,,,,,,,,,,,,,,,,,,,,,,,,,,,,,,,,,,,,,,,,,,,,,,,,,,,,,,,,,,,141.38891329988837,None,143.39075269992463,None,,,,,,,,,,,,,,,,,,,,,,,,,,,,,,,,,,,,,,,,,,,,,,,,,,,,,,,,,,,,,,,,,,,,,,,,,,95,001,2023_Sep_06_1158,ExactRep-v3-final,2021.2.3,59.937305547578696,
,,,,,,,,,,,,,,,,,,,,,,,,,,,,,,,,,,,,,,,,,,,,,,,,,,,,,,,,,,,,,,,,,,space,19.74903990002349,154.0309468000196,None,,,,,,,,,,,,,,,,,,,,,,,,,,,,,,,,,,,,,,,,,,,,,,,,,,,,,,,,,,,,,,,,,,,,,,95,001,2023_Sep_06_1158,ExactRep-v3-final,2021.2.3,59.937305547578696,
,,,,0,0,0,0,,,,,,,,,,,,,,,,,,,,,,,,,,,,,,,,,,,,,,,,,,,,,,,,,,,,,,,,,175.8729898999445,None,,,,,144.04597510001622,None,144.04597510001622,None,144.04597510001622,None,144.04597510001622,None,144.04597510001622,None,144.04597510001622,None,173.86293859989382,None,,,,,,,,,,,,,,,,,,,,,,,,,,,,,,,,,,,,,,,,,,,,,,,,,,,,,,,,95,001,2023_Sep_06_1158,ExactRep-v3-final,2021.2.3,59.937305547578696,
,,,,1,0,1,0,,,,,,,,,,,,,,,,,,,,,,,,,,,,,,,,,,,,,,,,,,,,,,,,,,,,,,,,,178.37580809998326,None,,,,,,,,,,,,,,,,,176.37357779988088,None,,,,,,,,,,,,,,,,,,,,,,,,,,,,,,,,,,,,,,,,,,,,,,,,,,,,,,,,95,001,2023_Sep_06_1158,ExactRep-v3-final,2021.2.3,59.937305547578696,
,,,,2,0,2,0,,,,,,,,,,,,,,,,,,,,,,,,,,,,,,,,,,,,,,,,,,,,,,,,,,,,,,,,,180.87839569989592,None,,,,,,,,,,,,,,,,,178.87636879994534,None,,,,,,,,,,,,,,,,,,,,,,,,,,,,,,,,,,,,,,,,,,,,,,,,,,,,,,,,95,001,2023_Sep_06_1158,ExactRep-v3-final,2021.2.3,59.937305547578696,
,,,,3,0,3,0,,,,,,,,,,,,,,,,,,,,,,,,,,,,,,,,,,,,,,,,,,,,,,,,,,,,,,,,,183.38045739987865,None,,,,,,,,,,,,,,,,,181.37882800004445,None,,,,,,,,,,,,,,,,,,,,,,,,,,,,,,,,,,,,,,,,,,,,,,,,,,,,,,,,95,001,2023_Sep_06_1158,ExactRep-v3-final,2021.2.3,59.937305547578696,
,,,,4,0,4,0,,,,,,,,,,,,,,,,,,,,,,,,,,,,,,,,,,,,,,,,,,,,,,,,,,,,,,,,,185.88301729992963,None,,,,,,,,,,,,,,,,,183.88108259998262,None,,,,,,,,,,,,,,,,,,,,,,,,,,,,,,,,,,,,,,,,,,,,,,,,,,,,,,,,95,001,2023_Sep_06_1158,ExactRep-v3-final,2021.2.3,59.937305547578696,
,,,,5,0,5,0,,,,,,,,,,,,,,,,,,,,,,,,,,,,,,,,,,,,,,,,,,,,,,,,,,,,,,,,,188.3858832998667,None,,,,,,,,,,,,,,,,,186.38390480005182,None,,,,,,,,,,,,,,,,,,,,,,,,,,,,,,,,,,,,,,,,,,,,,,,,,,,,,,,,95,001,2023_Sep_06_1158,ExactRep-v3-final,2021.2.3,59.937305547578696,
,,,,6,0,6,0,,,,,,,,,,,,,,,,,,,,,,,,,,,,,,,,,,,,,,,,,,,,,,,,,,,,,,,,,190.88795050000772,None,,,,,,,,,,,,,,,,,188.88591529987752,None,,,,,,,,,,,,,,,,,,,,,,,,,,,,,,,,,,,,,,,,,,,,,,,,,,,,,,,,95,001,2023_Sep_06_1158,ExactRep-v3-final,2021.2.3,59.937305547578696,
,,,,7,0,7,0,,,,,,,,,,,,,,,,,,,,,,,,,,,,,,,,,,,,,,,,,,,,,,,,,,,,,,,,,193.39054049993865,None,,,,,,,,,,,,,,,,,191.38853770005517,None,,,,,,,,,,,,,,,,,,,,,,,,,,,,,,,,,,,,,,,,,,,,,,,,,,,,,,,,95,001,2023_Sep_06_1158,ExactRep-v3-final,2021.2.3,59.937305547578696,
,,,,8,0,8,0,,,,,,,,,,,,,,,,,,,,,,,,,,,,,,,,,,,,,,,,,,,,,,,,,,,,,,,,,195.8929127000738,None,,,,,,,,,,,,,,,,,193.89161619986407,None,,,,,,,,,,,,,,,,,,,,,,,,,,,,,,,,,,,,,,,,,,,,,,,,,,,,,,,,95,001,2023_Sep_06_1158,ExactRep-v3-final,2021.2.3,59.937305547578696,
,,,,9,0,9,0,,,,,,,,,,,,,,,,,,,,,,,,,,,,,,,,,,,,,,,,,,,,,,,,,,,,,,,,,198.39550610003062,None,,,,,,,,,,,,,,,,,196.39354509999976,None,,,,,,,,,,,,,,,,,,,,,,,,,,,,,,,,,,,,,,,,,,,,,,,,,,,,,,,,95,001,2023_Sep_06_1158,ExactRep-v3-final,2021.2.3,59.937305547578696,
,,,,10,0,10,0,,,,,,,,,,,,,,,,,,,,,,,,,,,,,,,,,,,,,,,,,,,,,,,,,,,,,,,,,200.89804230001755,None,,,,,,,,,,,,,,,,,198.89600840001367,None,,,,,,,,,,,,,,,,,,,,,,,,,,,,,,,,,,,,,,,,,,,,,,,,,,,,,,,,95,001,2023_Sep_06_1158,ExactRep-v3-final,2021.2.3,59.937305547578696,
,,,,11,0,11,0,,,,,,,,,,,,,,,,,,,,,,,,,,,,,,,,,,,,,,,,,,,,,,,,,,,,,,,,,203.4015853998717,None,,,,,,,,,,,,,,,,,201.3991467000451,None,,,,,,,,,,,,,,,,,,,,,,,,,,,,,,,,,,,,,,,,,,,,,,,,,,,,,,,,95,001,2023_Sep_06_1158,ExactRep-v3-final,2021.2.3,59.937305547578696,
,,,,12,0,12,0,,,,,,,,,,,,,,,,,,,,,,,,,,,,,,,,,,,,,,,,,,,,,,,,,,,,,,,,,205.9034070998896,None,,,,,,,,,,,,,,,,,203.90148769994266,None,,,,,,,,,,,,,,,,,,,,,,,,,,,,,,,,,,,,,,,,,,,,,,,,,,,,,,,,95,001,2023_Sep_06_1158,ExactRep-v3-final,2021.2.3,59.937305547578696,
,,,,13,0,13,0,,,,,,,,,,,,,,,,,,,,,,,,,,,,,,,,,,,,,,,,,,,,,,,,,,,,,,,,,208.40594359999523,None,,,,,,,,,,,,,,,,,206.4041071999818,None,,,,,,,,,,,,,,,,,,,,,,,,,,,,,,,,,,,,,,,,,,,,,,,,,,,,,,,,95,001,2023_Sep_06_1158,ExactRep-v3-final,2021.2.3,59.937305547578696,
,,,,14,0,14,0,,,,,,,,,,,,,,,,,,,,,,,,,,,,,,,,,,,,,,,,,,,,,,,,,,,,,,,,,210.90800020005554,None,,,,,,,,,,,,,,,,,208.90660139988177,None,,,,,,,,,,,,,,,,,,,,,,,,,,,,,,,,,,,,,,,,,,,,,,,,,,,,,,,,95,001,2023_Sep_06_1158,ExactRep-v3-final,2021.2.3,59.937305547578696,
,,,,,,,,,,,,,,,,,,,,,,,,,,,,,,,,,,,,,,,,,,,,,,,,,,,,,,,,,,,,,,,,,,,,,,,,,,,,,,,,,,,,space,20.40260299993679,221.5377378000412,None,,,,,,,,,,,,,,,,,,,,,,,,,,,,,,,,,,,,,,,,,,,,,,,,,,,,95,001,2023_Sep_06_1158,ExactRep-v3-final,2021.2.3,59.937305547578696,
,,,,,,,,0,0,0,0,,,,,,,,,,,,,,,,,,,,,,,,,,,,,,,,,,,,,,,,,,,,,,,,,,,,,244.02465309994295,None,,,,,,,,,,,,,,,,,,,,,,,211.5501244000625,None,211.5501244000625,None,211.5501244000625,None,211.5501244000625,None,211.5501244000625,None,211.5501244000625,None,picture,73,1,silent,red,242.0146647999063,None,None,242.0146647999063,None,,,,,,,,,,,,,,,,,,,,,,,,,,,,,,95,001,2023_Sep_06_1158,ExactRep-v3-final,2021.2.3,59.937305547578696,
,,,,,,,,1,0,1,0,,,,,,,,,,,,,,,,,,,,,,,,,,,,,,,,,,,,,,,,,,,,,,,,,,,,,246.52738910005428,None,,,,,,,,,,,,,,,,,,,,,,,,,,,,,,,,,,,troops,90,2,aloud,white,244.52584349992685,None,None,244.52584349992685,None,,,,,,,,,,,,,,,,,,,,,,,,,,,,,,95,001,2023_Sep_06_1158,ExactRep-v3-final,2021.2.3,59.937305547578696,
,,,,,,,,2,0,2,0,,,,,,,,,,,,,,,,,,,,,,,,,,,,,,,,,,,,,,,,,,,,,,,,,,,,,249.04628619994037,None,,,,,,,,,,,,,,,,,,,,,,,,,,,,,,,,,,,pipe,76,3,silent,red,247.0309307000134,None,None,247.0309307000134,None,,,,,,,,,,,,,,,,,,,,,,,,,,,,,,95,001,2023_Sep_06_1158,ExactRep-v3-final,2021.2.3,59.937305547578696,
,,,,,,,,3,0,3,0,,,,,,,,,,,,,,,,,,,,,,,,,,,,,,,,,,,,,,,,,,,,,,,,,,,,,251.5487583000213,None,,,,,,,,,,,,,,,,,,,,,,,,,,,,,,,,,,,cottage,67,4,silent,red,249.54905879986472,None,None,249.54905879986472,None,,,,,,,,,,,,,,,,,,,,,,,,,,,,,,95,001,2023_Sep_06_1158,ExactRep-v3-final,2021.2.3,59.937305547578696,
,,,,,,,,4,0,4,0,,,,,,,,,,,,,,,,,,,,,,,,,,,,,,,,,,,,,,,,,,,,,,,,,,,,,254.0512766998727,None,,,,,,,,,,,,,,,,,,,,,,,,,,,,,,,,,,,length,33,5,sing,blue,252.0497699000407,None,None,252.0497699000407,None,,,,,,,,,,,,,,,,,,,,,,,,,,,,,,95,001,2023_Sep_06_1158,ExactRep-v3-final,2021.2.3,59.937305547578696,
,,,,,,,,5,0,5,0,,,,,,,,,,,,,,,,,,,,,,,,,,,,,,,,,,,,,,,,,,,,,,,,,,,,,256.5705701999832,None,,,,,,,,,,,,,,,,,,,,,,,,,,,,,,,,,,,opinion,77,6,silent,red,254.55838209996,None,None,254.55838209996,None,,,,,,,,,,,,,,,,,,,,,,,,,,,,,,95,001,2023_Sep_06_1158,ExactRep-v3-final,2021.2.3,59.937305547578696,
,,,,,,,,6,0,6,0,,,,,,,,,,,,,,,,,,,,,,,,,,,,,,,,,,,,,,,,,,,,,,,,,,,,,259.0729473999236,None,,,,,,,,,,,,,,,,,,,,,,,,,,,,,,,,,,,sugar,70,7,silent,red,257.07062090002,None,None,257.07062090002,None,,,,,,,,,,,,,,,,,,,,,,,,,,,,,,95,001,2023_Sep_06_1158,ExactRep-v3-final,2021.2.3,59.937305547578696,
,,,,,,,,7,0,7,0,,,,,,,,,,,,,,,,,,,,,,,,,,,,,,,,,,,,,,,,,,,,,,,,,,,,,261.5930506000295,None,,,,,,,,,,,,,,,,,,,,,,,,,,,,,,,,,,,leader,1,8,sing,blue,259.5771866000723,None,None,259.5771866000723,None,,,,,,,,,,,,,,,,,,,,,,,,,,,,,,95,001,2023_Sep_06_1158,ExactRep-v3-final,2021.2.3,59.937305547578696,
,,,,,,,,8,0,8,0,,,,,,,,,,,,,,,,,,,,,,,,,,,,,,,,,,,,,,,,,,,,,,,,,,,,,264.09509309986606,None,,,,,,,,,,,,,,,,,,,,,,,,,,,,,,,,,,,event,78,9,silent,red,262.093341199914,None,None,262.093341199914,None,,,,,,,,,,,,,,,,,,,,,,,,,,,,,,95,001,2023_Sep_06_1158,ExactRep-v3-final,2021.2.3,59.937305547578696,
,,,,,,,,9,0,9,0,,,,,,,,,,,,,,,,,,,,,,,,,,,,,,,,,,,,,,,,,,,,,,,,,,,,,266.6136034000665,None,,,,,,,,,,,,,,,,,,,,,,,,,,,,,,,,,,,star,106,10,aloud,white,264.60658190003596,None,None,264.60658190003596,None,,,,,,,,,,,,,,,,,,,,,,,,,,,,,,95,001,2023_Sep_06_1158,ExactRep-v3-final,2021.2.3,59.937305547578696,
,,,,,,,,10,0,10,0,,,,,,,,,,,,,,,,,,,,,,,,,,,,,,,,,,,,,,,,,,,,,,,,,,,,,269.1330323999282,None,,,,,,,,,,,,,,,,,,,,,,,,,,,,,,,,,,,crime,41,11,silent,red,267.127759499941,None,None,267.127759499941,None,,,,,,,,,,,,,,,,,,,,,,,,,,,,,,95,001,2023_Sep_06_1158,ExactRep-v3-final,2021.2.3,59.937305547578696,
,,,,,,,,11,0,11,0,,,,,,,,,,,,,,,,,,,,,,,,,,,,,,,,,,,,,,,,,,,,,,,,,,,,,271.6523627000861,None,,,,,,,,,,,,,,,,,,,,,,,,,,,,,,,,,,,lad,25,12,sing,blue,269.6383100999519,None,None,269.6383100999519,None,,,,,,,,,,,,,,,,,,,,,,,,,,,,,,95,001,2023_Sep_06_1158,ExactRep-v3-final,2021.2.3,59.937305547578696,
,,,,,,,,12,0,12,0,,,,,,,,,,,,,,,,,,,,,,,,,,,,,,,,,,,,,,,,,,,,,,,,,,,,,274.17112839990295,None,,,,,,,,,,,,,,,,,,,,,,,,,,,,,,,,,,,excuse,16,13,sing,blue,272.1636459999718,None,None,272.1636459999718,None,,,,,,,,,,,,,,,,,,,,,,,,,,,,,,95,001,2023_Sep_06_1158,ExactRep-v3-final,2021.2.3,59.937305547578696,
,,,,,,,,13,0,13,0,,,,,,,,,,,,,,,,,,,,,,,,,,,,,,,,,,,,,,,,,,,,,,,,,,,,,276.69026509998366,None,,,,,,,,,,,,,,,,,,,,,,,,,,,,,,,,,,,love,105,14,aloud,white,274.68194120004773,None,None,274.68194120004773,None,,,,,,,,,,,,,,,,,,,,,,,,,,,,,,95,001,2023_Sep_06_1158,ExactRep-v3-final,2021.2.3,59.937305547578696,
,,,,,,,,14,0,14,0,,,,,,,,,,,,,,,,,,,,,,,,,,,,,,,,,,,,,,,,,,,,,,,,,,,,,279.2096390000079,None,,,,,,,,,,,,,,,,,,,,,,,,,,,,,,,,,,,colony,59,15,silent,red,277.20794459991157,None,None,277.20794459991157,None,,,,,,,,,,,,,,,,,,,,,,,,,,,,,,95,001,2023_Sep_06_1158,ExactRep-v3-final,2021.2.3,59.937305547578696,
,,,,,,,,15,0,15,0,,,,,,,,,,,,,,,,,,,,,,,,,,,,,,,,,,,,,,,,,,,,,,,,,,,,,281.71242529992014,None,,,,,,,,,,,,,,,,,,,,,,,,,,,,,,,,,,,pupil,115,16,aloud,white,279.7123954000417,None,None,279.7123954000417,None,,,,,,,,,,,,,,,,,,,,,,,,,,,,,,95,001,2023_Sep_06_1158,ExactRep-v3-final,2021.2.3,59.937305547578696,
,,,,,,,,16,0,16,0,,,,,,,,,,,,,,,,,,,,,,,,,,,,,,,,,,,,,,,,,,,,,,,,,,,,,284.23111649998464,None,,,,,,,,,,,,,,,,,,,,,,,,,,,,,,,,,,,flesh,118,17,aloud,white,282.22095500002615,None,None,282.22095500002615,None,,,,,,,,,,,,,,,,,,,,,,,,,,,,,,95,001,2023_Sep_06_1158,ExactRep-v3-final,2021.2.3,59.937305547578696,
,,,,,,,,17,0,17,0,,,,,,,,,,,,,,,,,,,,,,,,,,,,,,,,,,,,,,,,,,,,,,,,,,,,,286.7507670999039,None,,,,,,,,,,,,,,,,,,,,,,,,,,,,,,,,,,,king,92,18,aloud,white,284.7376117000822,None,None,284.7376117000822,None,,,,,,,,,,,,,,,,,,,,,,,,,,,,,,95,001,2023_Sep_06_1158,ExactRep-v3-final,2021.2.3,59.937305547578696,
,,,,,,,,18,0,18,0,,,,,,,,,,,,,,,,,,,,,,,,,,,,,,,,,,,,,,,,,,,,,,,,,,,,,289.2695569000207,None,,,,,,,,,,,,,,,,,,,,,,,,,,,,,,,,,,,author,14,19,sing,blue,287.2593823999632,None,None,287.2593823999632,None,,,,,,,,,,,,,,,,,,,,,,,,,,,,,,95,001,2023_Sep_06_1158,ExactRep-v3-final,2021.2.3,59.937305547578696,
,,,,,,,,19,0,19,0,,,,,,,,,,,,,,,,,,,,,,,,,,,,,,,,,,,,,,,,,,,,,,,,,,,,,291.7720746998675,None,,,,,,,,,,,,,,,,,,,,,,,,,,,,,,,,,,,priest,22,20,sing,blue,289.7699627999682,None,None,289.7699627999682,None,,,,,,,,,,,,,,,,,,,,,,,,,,,,,,95,001,2023_Sep_06_1158,ExactRep-v3-final,2021.2.3,59.937305547578696,
,,,,,,,,20,0,20,0,,,,,,,,,,,,,,,,,,,,,,,,,,,,,,,,,,,,,,,,,,,,,,,,,,,,,294.2750760000199,None,,,,,,,,,,,,,,,,,,,,,,,,,,,,,,,,,,,virtue,87,21,aloud,white,292.27295719995163,None,None,292.27295719995163,None,,,,,,,,,,,,,,,,,,,,,,,,,,,,,,95,001,2023_Sep_06_1158,ExactRep-v3-final,2021.2.3,59.937305547578696,
,,,,,,,,21,0,21,0,,,,,,,,,,,,,,,,,,,,,,,,,,,,,,,,,,,,,,,,,,,,,,,,,,,,,296.77706989995204,None,,,,,,,,,,,,,,,,,,,,,,,,,,,,,,,,,,,devil,18,22,sing,blue,294.7777422000654,None,None,294.7777422000654,None,,,,,,,,,,,,,,,,,,,,,,,,,,,,,,95,001,2023_Sep_06_1158,ExactRep-v3-final,2021.2.3,59.937305547578696,
,,,,,,,,22,0,22,0,,,,,,,,,,,,,,,,,,,,,,,,,,,,,,,,,,,,,,,,,,,,,,,,,,,,,299.2962559000589,None,,,,,,,,,,,,,,,,,,,,,,,,,,,,,,,,,,,woman,54,23,silent,red,297.28069459996186,None,None,297.28069459996186,None,,,,,,,,,,,,,,,,,,,,,,,,,,,,,,95,001,2023_Sep_06_1158,ExactRep-v3-final,2021.2.3,59.937305547578696,
,,,,,,,,23,0,23,0,,,,,,,,,,,,,,,,,,,,,,,,,,,,,,,,,,,,,,,,,,,,,,,,,,,,,301.8002980998717,None,,,,,,,,,,,,,,,,,,,,,,,,,,,,,,,,,,,grief,111,24,aloud,white,299.79663500003517,None,None,299.79663500003517,None,,,,,,,,,,,,,,,,,,,,,,,,,,,,,,95,001,2023_Sep_06_1158,ExactRep-v3-final,2021.2.3,59.937305547578696,
,,,,,,,,24,0,24,0,,,,,,,,,,,,,,,,,,,,,,,,,,,,,,,,,,,,,,,,,,,,,,,,,,,,,304.31786759989336,None,,,,,,,,,,,,,,,,,,,,,,,,,,,,,,,,,,,lord,57,25,silent,red,302.3041872999165,None,None,302.3041872999165,None,,,,,,,,,,,,,,,,,,,,,,,,,,,,,,95,001,2023_Sep_06_1158,ExactRep-v3-final,2021.2.3,59.937305547578696,
,,,,,,,,25,0,25,0,,,,,,,,,,,,,,,,,,,,,,,,,,,,,,,,,,,,,,,,,,,,,,,,,,,,,306.83711920003407,None,,,,,,,,,,,,,,,,,,,,,,,,,,,,,,,,,,,humour,100,26,aloud,white,304.83350900001824,None,None,304.83350900001824,None,,,,,,,,,,,,,,,,,,,,,,,,,,,,,,95,001,2023_Sep_06_1158,ExactRep-v3-final,2021.2.3,59.937305547578696,
,,,,,,,,26,0,26,0,,,,,,,,,,,,,,,,,,,,,,,,,,,,,,,,,,,,,,,,,,,,,,,,,,,,,309.33960419986397,None,,,,,,,,,,,,,,,,,,,,,,,,,,,,,,,,,,,form,93,27,aloud,white,307.3382552000694,None,None,307.3382552000694,None,,,,,,,,,,,,,,,,,,,,,,,,,,,,,,95,001,2023_Sep_06_1158,ExactRep-v3-final,2021.2.3,59.937305547578696,
,,,,,,,,27,0,27,0,,,,,,,,,,,,,,,,,,,,,,,,,,,,,,,,,,,,,,,,,,,,,,,,,,,,,311.8421185000334,None,,,,,,,,,,,,,,,,,,,,,,,,,,,,,,,,,,,prison,89,28,aloud,white,309.84234520001337,None,None,309.84234520001337,None,,,,,,,,,,,,,,,,,,,,,,,,,,,,,,95,001,2023_Sep_06_1158,ExactRep-v3-final,2021.2.3,59.937305547578696,
,,,,,,,,28,0,28,0,,,,,,,,,,,,,,,,,,,,,,,,,,,,,,,,,,,,,,,,,,,,,,,,,,,,,314.34453950007446,None,,,,,,,,,,,,,,,,,,,,,,,,,,,,,,,,,,,beast,23,29,sing,blue,312.3446124000475,None,None,312.3446124000475,None,,,,,,,,,,,,,,,,,,,,,,,,,,,,,,95,001,2023_Sep_06_1158,ExactRep-v3-final,2021.2.3,59.937305547578696,
,,,,,,,,29,0,29,0,,,,,,,,,,,,,,,,,,,,,,,,,,,,,,,,,,,,,,,,,,,,,,,,,,,,,316.86384000000544,None,,,,,,,,,,,,,,,,,,,,,,,,,,,,,,,,,,,ticket,81,30,aloud,white,314.85026540001854,None,None,314.85026540001854,None,,,,,,,,,,,,,,,,,,,,,,,,,,,,,,95,001,2023_Sep_06_1158,ExactRep-v3-final,2021.2.3,59.937305547578696,
,,,,,,,,30,0,30,0,,,,,,,,,,,,,,,,,,,,,,,,,,,,,,,,,,,,,,,,,,,,,,,,,,,,,319.38304389989935,None,,,,,,,,,,,,,,,,,,,,,,,,,,,,,,,,,,,meat,34,31,sing,blue,317.3679195998702,None,None,317.3679195998702,None,,,,,,,,,,,,,,,,,,,,,,,,,,,,,,95,001,2023_Sep_06_1158,ExactRep-v3-final,2021.2.3,59.937305547578696,
,,,,,,,,31,0,31,0,,,,,,,,,,,,,,,,,,,,,,,,,,,,,,,,,,,,,,,,,,,,,,,,,,,,,321.9024940999225,None,,,,,,,,,,,,,,,,,,,,,,,,,,,,,,,,,,,poet,84,32,aloud,white,319.8900125999935,None,None,319.8900125999935,None,,,,,,,,,,,,,,,,,,,,,,,,,,,,,,95,001,2023_Sep_06_1158,ExactRep-v3-final,2021.2.3,59.937305547578696,
,,,,,,,,32,0,32,0,,,,,,,,,,,,,,,,,,,,,,,,,,,,,,,,,,,,,,,,,,,,,,,,,,,,,324.4215734999161,None,,,,,,,,,,,,,,,,,,,,,,,,,,,,,,,,,,,village,72,33,silent,red,322.41313709993847,None,None,322.41313709993847,None,,,,,,,,,,,,,,,,,,,,,,,,,,,,,,95,001,2023_Sep_06_1158,ExactRep-v3-final,2021.2.3,59.937305547578696,
,,,,,,,,33,0,33,0,,,,,,,,,,,,,,,,,,,,,,,,,,,,,,,,,,,,,,,,,,,,,,,,,,,,,326.92406550003216,None,,,,,,,,,,,,,,,,,,,,,,,,,,,,,,,,,,,corner,30,34,sing,blue,324.92430919990875,None,None,324.92430919990875,None,,,,,,,,,,,,,,,,,,,,,,,,,,,,,,95,001,2023_Sep_06_1158,ExactRep-v3-final,2021.2.3,59.937305547578696,
,,,,,,,,34,0,34,0,,,,,,,,,,,,,,,,,,,,,,,,,,,,,,,,,,,,,,,,,,,,,,,,,,,,,329.44340529991314,None,,,,,,,,,,,,,,,,,,,,,,,,,,,,,,,,,,,student,101,35,aloud,white,327.4280081000179,None,None,327.4280081000179,None,,,,,,,,,,,,,,,,,,,,,,,,,,,,,,95,001,2023_Sep_06_1158,ExactRep-v3-final,2021.2.3,59.937305547578696,
,,,,,,,,35,0,35,0,,,,,,,,,,,,,,,,,,,,,,,,,,,,,,,,,,,,,,,,,,,,,,,,,,,,,331.94590119994245,None,,,,,,,,,,,,,,,,,,,,,,,,,,,,,,,,,,,chance,99,36,aloud,white,329.9438183000311,None,None,329.9438183000311,None,,,,,,,,,,,,,,,,,,,,,,,,,,,,,,95,001,2023_Sep_06_1158,ExactRep-v3-final,2021.2.3,59.937305547578696,
,,,,,,,,36,0,36,0,,,,,,,,,,,,,,,,,,,,,,,,,,,,,,,,,,,,,,,,,,,,,,,,,,,,,334.4650981000159,None,,,,,,,,,,,,,,,,,,,,,,,,,,,,,,,,,,,arm,66,37,silent,red,332.45067550009117,None,None,332.45067550009117,None,,,,,,,,,,,,,,,,,,,,,,,,,,,,,,95,001,2023_Sep_06_1158,ExactRep-v3-final,2021.2.3,59.937305547578696,
,,,,,,,,37,0,37,0,,,,,,,,,,,,,,,,,,,,,,,,,,,,,,,,,,,,,,,,,,,,,,,,,,,,,336.98491070000455,None,,,,,,,,,,,,,,,,,,,,,,,,,,,,,,,,,,,justice,37,38,sing,blue,334.96858770004474,None,None,334.96858770004474,None,,,,,,,,,,,,,,,,,,,,,,,,,,,,,,95,001,2023_Sep_06_1158,ExactRep-v3-final,2021.2.3,59.937305547578696,
,,,,,,,,38,0,38,0,,,,,,,,,,,,,,,,,,,,,,,,,,,,,,,,,,,,,,,,,,,,,,,,,,,,,339.48662059986964,None,,,,,,,,,,,,,,,,,,,,,,,,,,,,,,,,,,,advice,21,39,sing,blue,337.4868594999425,None,None,337.4868594999425,None,,,,,,,,,,,,,,,,,,,,,,,,,,,,,,95,001,2023_Sep_06_1158,ExactRep-v3-final,2021.2.3,59.937305547578696,
,,,,,,,,39,0,39,0,,,,,,,,,,,,,,,,,,,,,,,,,,,,,,,,,,,,,,,,,,,,,,,,,,,,,342.005429700017,None,,,,,,,,,,,,,,,,,,,,,,,,,,,,,,,,,,,coast,28,40,sing,blue,339.9904217000585,None,None,339.9904217000585,None,,,,,,,,,,,,,,,,,,,,,,,,,,,,,,95,001,2023_Sep_06_1158,ExactRep-v3-final,2021.2.3,59.937305547578696,
,,,,,,,,40,0,40,0,,,,,,,,,,,,,,,,,,,,,,,,,,,,,,,,,,,,,,,,,,,,,,,,,,,,,344.50798520003445,None,,,,,,,,,,,,,,,,,,,,,,,,,,,,,,,,,,,green,114,41,aloud,white,342.50738550000824,None,None,342.50738550000824,None,,,,,,,,,,,,,,,,,,,,,,,,,,,,,,95,001,2023_Sep_06_1158,ExactRep-v3-final,2021.2.3,59.937305547578696,
,,,,,,,,41,0,41,0,,,,,,,,,,,,,,,,,,,,,,,,,,,,,,,,,,,,,,,,,,,,,,,,,,,,,347.0108441999182,None,,,,,,,,,,,,,,,,,,,,,,,,,,,,,,,,,,,spirit,117,42,aloud,white,345.0089314999059,None,None,345.0089314999059,None,,,,,,,,,,,,,,,,,,,,,,,,,,,,,,95,001,2023_Sep_06_1158,ExactRep-v3-final,2021.2.3,59.937305547578696,
,,,,,,,,42,0,42,0,,,,,,,,,,,,,,,,,,,,,,,,,,,,,,,,,,,,,,,,,,,,,,,,,,,,,349.5171799999662,None,,,,,,,,,,,,,,,,,,,,,,,,,,,,,,,,,,,pride,32,43,sing,blue,347.51489729993045,None,None,347.51489729993045,None,,,,,,,,,,,,,,,,,,,,,,,,,,,,,,95,001,2023_Sep_06_1158,ExactRep-v3-final,2021.2.3,59.937305547578696,
,,,,,,,,43,0,43,0,,,,,,,,,,,,,,,,,,,,,,,,,,,,,,,,,,,,,,,,,,,,,,,,,,,,,352.0490089999512,None,,,,,,,,,,,,,,,,,,,,,,,,,,,,,,,,,,,square,91,44,aloud,white,350.0342711000703,None,None,350.0342711000703,None,,,,,,,,,,,,,,,,,,,,,,,,,,,,,,95,001,2023_Sep_06_1158,ExactRep-v3-final,2021.2.3,59.937305547578696,
,,,,,,,,44,0,44,0,,,,,,,,,,,,,,,,,,,,,,,,,,,,,,,,,,,,,,,,,,,,,,,,,,,,,354.55164900003,None,,,,,,,,,,,,,,,,,,,,,,,,,,,,,,,,,,,garden,13,45,sing,blue,352.54948749998584,None,None,352.54948749998584,None,,,,,,,,,,,,,,,,,,,,,,,,,,,,,,95,001,2023_Sep_06_1158,ExactRep-v3-final,2021.2.3,59.937305547578696,
,,,,,,,,45,0,45,0,,,,,,,,,,,,,,,,,,,,,,,,,,,,,,,,,,,,,,,,,,,,,,,,,,,,,357.05386049998924,None,,,,,,,,,,,,,,,,,,,,,,,,,,,,,,,,,,,car,88,46,aloud,white,355.0524651000742,None,None,355.0524651000742,None,,,,,,,,,,,,,,,,,,,,,,,,,,,,,,95,001,2023_Sep_06_1158,ExactRep-v3-final,2021.2.3,59.937305547578696,
,,,,,,,,46,0,46,0,,,,,,,,,,,,,,,,,,,,,,,,,,,,,,,,,,,,,,,,,,,,,,,,,,,,,359.5741635998711,None,,,,,,,,,,,,,,,,,,,,,,,,,,,,,,,,,,,army,15,47,sing,blue,357.5589057998732,None,None,357.5589057998732,None,,,,,,,,,,,,,,,,,,,,,,,,,,,,,,95,001,2023_Sep_06_1158,ExactRep-v3-final,2021.2.3,59.937305547578696,
,,,,,,,,47,0,47,0,,,,,,,,,,,,,,,,,,,,,,,,,,,,,,,,,,,,,,,,,,,,,,,,,,,,,362.09255350008607,None,,,,,,,,,,,,,,,,,,,,,,,,,,,,,,,,,,,sea,51,48,silent,red,360.07704550004564,None,None,360.07704550004564,None,,,,,,,,,,,,,,,,,,,,,,,,,,,,,,95,001,2023_Sep_06_1158,ExactRep-v3-final,2021.2.3,59.937305547578696,
,,,,,,,,48,0,48,0,,,,,,,,,,,,,,,,,,,,,,,,,,,,,,,,,,,,,,,,,,,,,,,,,,,,,364.5948298999574,None,,,,,,,,,,,,,,,,,,,,,,,,,,,,,,,,,,,mercy,53,49,silent,red,362.59460010007024,None,None,362.59460010007024,None,,,,,,,,,,,,,,,,,,,,,,,,,,,,,,95,001,2023_Sep_06_1158,ExactRep-v3-final,2021.2.3,59.937305547578696,
,,,,,,,,49,0,49,0,,,,,,,,,,,,,,,,,,,,,,,,,,,,,,,,,,,,,,,,,,,,,,,,,,,,,367.1143535000738,None,,,,,,,,,,,,,,,,,,,,,,,,,,,,,,,,,,,bird,95,50,aloud,white,365.09933890006505,None,None,365.09933890006505,None,,,,,,,,,,,,,,,,,,,,,,,,,,,,,,95,001,2023_Sep_06_1158,ExactRep-v3-final,2021.2.3,59.937305547578696,
,,,,,,,,50,0,50,0,,,,,,,,,,,,,,,,,,,,,,,,,,,,,,,,,,,,,,,,,,,,,,,,,,,,,369.63320409995504,None,,,,,,,,,,,,,,,,,,,,,,,,,,,,,,,,,,,hall,63,51,silent,red,367.6189828000497,None,None,367.6189828000497,None,,,,,,,,,,,,,,,,,,,,,,,,,,,,,,95,001,2023_Sep_06_1158,ExactRep-v3-final,2021.2.3,59.937305547578696,
,,,,,,,,51,0,51,0,,,,,,,,,,,,,,,,,,,,,,,,,,,,,,,,,,,,,,,,,,,,,,,,,,,,,372.1524862998631,None,,,,,,,,,,,,,,,,,,,,,,,,,,,,,,,,,,,death,86,52,aloud,white,370.14947509998456,None,None,370.14947509998456,None,,,,,,,,,,,,,,,,,,,,,,,,,,,,,,95,001,2023_Sep_06_1158,ExactRep-v3-final,2021.2.3,59.937305547578696,
,,,,,,,,52,0,52,0,,,,,,,,,,,,,,,,,,,,,,,,,,,,,,,,,,,,,,,,,,,,,,,,,,,,,374.65506540006027,None,,,,,,,,,,,,,,,,,,,,,,,,,,,,,,,,,,,air,11,53,sing,blue,372.6538253999315,None,None,372.6538253999315,None,,,,,,,,,,,,,,,,,,,,,,,,,,,,,,95,001,2023_Sep_06_1158,ExactRep-v3-final,2021.2.3,59.937305547578696,
,,,,,,,,53,0,53,0,,,,,,,,,,,,,,,,,,,,,,,,,,,,,,,,,,,,,,,,,,,,,,,,,,,,,377.17439149995334,None,,,,,,,,,,,,,,,,,,,,,,,,,,,,,,,,,,,blood,0,54,sing,blue,375.15930179995485,None,None,375.15930179995485,None,,,,,,,,,,,,,,,,,,,,,,,,,,,,,,95,001,2023_Sep_06_1158,ExactRep-v3-final,2021.2.3,59.937305547578696,
,,,,,,,,54,0,54,0,,,,,,,,,,,,,,,,,,,,,,,,,,,,,,,,,,,,,,,,,,,,,,,,,,,,,379.69325520005077,None,,,,,,,,,,,,,,,,,,,,,,,,,,,,,,,,,,,shadow,74,55,silent,red,377.67910810001194,None,None,377.67910810001194,None,,,,,,,,,,,,,,,,,,,,,,,,,,,,,,95,001,2023_Sep_06_1158,ExactRep-v3-final,2021.2.3,59.937305547578696,
,,,,,,,,55,0,55,0,,,,,,,,,,,,,,,,,,,,,,,,,,,,,,,,,,,,,,,,,,,,,,,,,,,,,382.1951979000587,None,,,,,,,,,,,,,,,,,,,,,,,,,,,,,,,,,,,wheat,48,56,silent,red,380.19435220002197,None,None,380.19435220002197,None,,,,,,,,,,,,,,,,,,,,,,,,,,,,,,95,001,2023_Sep_06_1158,ExactRep-v3-final,2021.2.3,59.937305547578696,
,,,,,,,,56,0,56,0,,,,,,,,,,,,,,,,,,,,,,,,,,,,,,,,,,,,,,,,,,,,,,,,,,,,,384.6986138999928,None,,,,,,,,,,,,,,,,,,,,,,,,,,,,,,,,,,,paper,55,57,silent,red,382.6977274999954,None,None,382.6977274999954,None,,,,,,,,,,,,,,,,,,,,,,,,,,,,,,95,001,2023_Sep_06_1158,ExactRep-v3-final,2021.2.3,59.937305547578696,
,,,,,,,,57,0,57,0,,,,,,,,,,,,,,,,,,,,,,,,,,,,,,,,,,,,,,,,,,,,,,,,,,,,,387.20080329990014,None,,,,,,,,,,,,,,,,,,,,,,,,,,,,,,,,,,,murder,94,58,aloud,white,385.200704799965,None,None,385.200704799965,None,,,,,,,,,,,,,,,,,,,,,,,,,,,,,,95,001,2023_Sep_06_1158,ExactRep-v3-final,2021.2.3,59.937305547578696,
,,,,,,,,58,0,58,0,,,,,,,,,,,,,,,,,,,,,,,,,,,,,,,,,,,,,,,,,,,,,,,,,,,,,389.71957860002294,None,,,,,,,,,,,,,,,,,,,,,,,,,,,,,,,,,,,steam,46,59,silent,red,387.70513699995354,None,None,387.70513699995354,None,,,,,,,,,,,,,,,,,,,,,,,,,,,,,,95,001,2023_Sep_06_1158,ExactRep-v3-final,2021.2.3,59.937305547578696,
,,,,,,,,59,0,59,0,,,,,,,,,,,,,,,,,,,,,,,,,,,,,,,,,,,,,,,,,,,,,,,,,,,,,392.22244630008936,None,,,,,,,,,,,,,,,,,,,,,,,,,,,,,,,,,,,journal,38,60,sing,blue,390.2208179999143,None,None,390.2208179999143,None,,,,,,,,,,,,,,,,,,,,,,,,,,,,,,95,001,2023_Sep_06_1158,ExactRep-v3-final,2021.2.3,59.937305547578696,
,,,,,,,,60,0,60,0,,,,,,,,,,,,,,,,,,,,,,,,,,,,,,,,,,,,,,,,,,,,,,,,,,,,,394.72501370008104,None,,,,,,,,,,,,,,,,,,,,,,,,,,,,,,,,,,,tool,12,61,sing,blue,392.72290940000676,None,None,392.72290940000676,None,,,,,,,,,,,,,,,,,,,,,,,,,,,,,,95,001,2023_Sep_06_1158,ExactRep-v3-final,2021.2.3,59.937305547578696,
,,,,,,,,61,0,61,0,,,,,,,,,,,,,,,,,,,,,,,,,,,,,,,,,,,,,,,,,,,,,,,,,,,,,397.2444511000067,None,,,,,,,,,,,,,,,,,,,,,,,,,,,,,,,,,,,mother,102,62,aloud,white,395.2309260999318,None,None,395.2309260999318,None,,,,,,,,,,,,,,,,,,,,,,,,,,,,,,95,001,2023_Sep_06_1158,ExactRep-v3-final,2021.2.3,59.937305547578696,
,,,,,,,,62,0,62,0,,,,,,,,,,,,,,,,,,,,,,,,,,,,,,,,,,,,,,,,,,,,,,,,,,,,,399.74680379987694,None,,,,,,,,,,,,,,,,,,,,,,,,,,,,,,,,,,,grass,58,63,silent,red,397.74521369999275,None,None,397.74521369999275,None,,,,,,,,,,,,,,,,,,,,,,,,,,,,,,95,001,2023_Sep_06_1158,ExactRep-v3-final,2021.2.3,59.937305547578696,
,,,,,,,,63,0,63,0,,,,,,,,,,,,,,,,,,,,,,,,,,,,,,,,,,,,,,,,,,,,,,,,,,,,,402.249358400004,None,,,,,,,,,,,,,,,,,,,,,,,,,,,,,,,,,,,speech,56,64,silent,red,400.2477669999935,None,None,400.2477669999935,None,,,,,,,,,,,,,,,,,,,,,,,,,,,,,,95,001,2023_Sep_06_1158,ExactRep-v3-final,2021.2.3,59.937305547578696,
,,,,,,,,64,0,64,0,,,,,,,,,,,,,,,,,,,,,,,,,,,,,,,,,,,,,,,,,,,,,,,,,,,,,404.7686393999029,None,,,,,,,,,,,,,,,,,,,,,,,,,,,,,,,,,,,toy,64,65,silent,red,402.75350170000456,None,None,402.75350170000456,None,,,,,,,,,,,,,,,,,,,,,,,,,,,,,,95,001,2023_Sep_06_1158,ExactRep-v3-final,2021.2.3,59.937305547578696,
,,,,,,,,65,0,65,0,,,,,,,,,,,,,,,,,,,,,,,,,,,,,,,,,,,,,,,,,,,,,,,,,,,,,407.2708882999141,None,,,,,,,,,,,,,,,,,,,,,,,,,,,,,,,,,,,butter,43,66,silent,red,405.2686457000673,None,None,405.2686457000673,None,,,,,,,,,,,,,,,,,,,,,,,,,,,,,,95,001,2023_Sep_06_1158,ExactRep-v3-final,2021.2.3,59.937305547578696,
,,,,,,,,66,0,66,0,,,,,,,,,,,,,,,,,,,,,,,,,,,,,,,,,,,,,,,,,,,,,,,,,,,,,409.77325159986503,None,,,,,,,,,,,,,,,,,,,,,,,,,,,,,,,,,,,woods,5,67,sing,blue,407.77296800003387,None,None,407.77296800003387,None,,,,,,,,,,,,,,,,,,,,,,,,,,,,,,95,001,2023_Sep_06_1158,ExactRep-v3-final,2021.2.3,59.937305547578696,
,,,,,,,,67,0,67,0,,,,,,,,,,,,,,,,,,,,,,,,,,,,,,,,,,,,,,,,,,,,,,,,,,,,,412.2927681999281,None,,,,,,,,,,,,,,,,,,,,,,,,,,,,,,,,,,,apple,80,68,aloud,white,410.2785767999012,None,None,410.2785767999012,None,,,,,,,,,,,,,,,,,,,,,,,,,,,,,,95,001,2023_Sep_06_1158,ExactRep-v3-final,2021.2.3,59.937305547578696,
,,,,,,,,68,0,68,0,,,,,,,,,,,,,,,,,,,,,,,,,,,,,,,,,,,,,,,,,,,,,,,,,,,,,414.81199249997735,None,,,,,,,,,,,,,,,,,,,,,,,,,,,,,,,,,,,silence,107,69,aloud,white,412.79981920006685,None,None,412.79981920006685,None,,,,,,,,,,,,,,,,,,,,,,,,,,,,,,95,001,2023_Sep_06_1158,ExactRep-v3-final,2021.2.3,59.937305547578696,
,,,,,,,,69,0,69,0,,,,,,,,,,,,,,,,,,,,,,,,,,,,,,,,,,,,,,,,,,,,,,,,,,,,,417.3308085000608,None,,,,,,,,,,,,,,,,,,,,,,,,,,,,,,,,,,,trouble,82,70,aloud,white,415.31857090000995,None,None,415.31857090000995,None,,,,,,,,,,,,,,,,,,,,,,,,,,,,,,95,001,2023_Sep_06_1158,ExactRep-v3-final,2021.2.3,59.937305547578696,
,,,,,,,,70,0,70,0,,,,,,,,,,,,,,,,,,,,,,,,,,,,,,,,,,,,,,,,,,,,,,,,,,,,,419.8335587999318,None,,,,,,,,,,,,,,,,,,,,,,,,,,,,,,,,,,,diamond,98,71,aloud,white,417.83120870008133,None,None,417.83120870008133,None,,,,,,,,,,,,,,,,,,,,,,,,,,,,,,95,001,2023_Sep_06_1158,ExactRep-v3-final,2021.2.3,59.937305547578696,
,,,,,,,,71,0,71,0,,,,,,,,,,,,,,,,,,,,,,,,,,,,,,,,,,,,,,,,,,,,,,,,,,,,,422.35285439994186,None,,,,,,,,,,,,,,,,,,,,,,,,,,,,,,,,,,,stone,119,72,aloud,white,420.33736680005677,None,None,420.33736680005677,None,,,,,,,,,,,,,,,,,,,,,,,,,,,,,,95,001,2023_Sep_06_1158,ExactRep-v3-final,2021.2.3,59.937305547578696,
,,,,,,,,72,0,72,0,,,,,,,,,,,,,,,,,,,,,,,,,,,,,,,,,,,,,,,,,,,,,,,,,,,,,424.8720118000638,None,,,,,,,,,,,,,,,,,,,,,,,,,,,,,,,,,,,library,42,73,silent,red,422.85698989988305,None,None,422.85698989988305,None,,,,,,,,,,,,,,,,,,,,,,,,,,,,,,95,001,2023_Sep_06_1158,ExactRep-v3-final,2021.2.3,59.937305547578696,
,,,,,,,,73,0,73,0,,,,,,,,,,,,,,,,,,,,,,,,,,,,,,,,,,,,,,,,,,,,,,,,,,,,,427.3742400999181,None,,,,,,,,,,,,,,,,,,,,,,,,,,,,,,,,,,,disease,2,74,sing,blue,425.37523170001805,None,None,425.37523170001805,None,,,,,,,,,,,,,,,,,,,,,,,,,,,,,,95,001,2023_Sep_06_1158,ExactRep-v3-final,2021.2.3,59.937305547578696,
,,,,,,,,74,0,74,0,,,,,,,,,,,,,,,,,,,,,,,,,,,,,,,,,,,,,,,,,,,,,,,,,,,,,429.87673819996417,None,,,,,,,,,,,,,,,,,,,,,,,,,,,,,,,,,,,season,3,75,sing,blue,427.87685130001046,None,None,427.87685130001046,None,,,,,,,,,,,,,,,,,,,,,,,,,,,,,,95,001,2023_Sep_06_1158,ExactRep-v3-final,2021.2.3,59.937305547578696,
,,,,,,,,75,0,75,0,,,,,,,,,,,,,,,,,,,,,,,,,,,,,,,,,,,,,,,,,,,,,,,,,,,,,432.3792552999221,None,,,,,,,,,,,,,,,,,,,,,,,,,,,,,,,,,,,gift,97,76,aloud,white,430.37914959993213,None,None,430.37914959993213,None,,,,,,,,,,,,,,,,,,,,,,,,,,,,,,95,001,2023_Sep_06_1158,ExactRep-v3-final,2021.2.3,59.937305547578696,
,,,,,,,,76,0,76,0,,,,,,,,,,,,,,,,,,,,,,,,,,,,,,,,,,,,,,,,,,,,,,,,,,,,,434.88154069986194,None,,,,,,,,,,,,,,,,,,,,,,,,,,,,,,,,,,,cattle,27,77,sing,blue,432.881629700074,None,None,432.881629700074,None,,,,,,,,,,,,,,,,,,,,,,,,,,,,,,95,001,2023_Sep_06_1158,ExactRep-v3-final,2021.2.3,59.937305547578696,
,,,,,,,,77,0,77,0,,,,,,,,,,,,,,,,,,,,,,,,,,,,,,,,,,,,,,,,,,,,,,,,,,,,,437.40085099986754,None,,,,,,,,,,,,,,,,,,,,,,,,,,,,,,,,,,,gold,17,78,sing,blue,435.3864323999733,None,None,435.3864323999733,None,,,,,,,,,,,,,,,,,,,,,,,,,,,,,,95,001,2023_Sep_06_1158,ExactRep-v3-final,2021.2.3,59.937305547578696,
,,,,,,,,78,0,78,0,,,,,,,,,,,,,,,,,,,,,,,,,,,,,,,,,,,,,,,,,,,,,,,,,,,,,439.90351410000585,None,,,,,,,,,,,,,,,,,,,,,,,,,,,,,,,,,,,money,4,79,sing,blue,437.90170089993626,None,None,437.90170089993626,None,,,,,,,,,,,,,,,,,,,,,,,,,,,,,,95,001,2023_Sep_06_1158,ExactRep-v3-final,2021.2.3,59.937305547578696,
,,,,,,,,79,0,79,0,,,,,,,,,,,,,,,,,,,,,,,,,,,,,,,,,,,,,,,,,,,,,,,,,,,,,442.4223784999922,None,,,,,,,,,,,,,,,,,,,,,,,,,,,,,,,,,,,hour,10,80,sing,blue,440.4079613999929,None,None,440.4079613999929,None,,,,,,,,,,,,,,,,,,,,,,,,,,,,,,95,001,2023_Sep_06_1158,ExactRep-v3-final,2021.2.3,59.937305547578696,
,,,,,,,,80,0,80,0,,,,,,,,,,,,,,,,,,,,,,,,,,,,,,,,,,,,,,,,,,,,,,,,,,,,,444.92528409999795,None,,,,,,,,,,,,,,,,,,,,,,,,,,,,,,,,,,,rod,112,81,aloud,white,442.9233289998956,None,None,442.9233289998956,None,,,,,,,,,,,,,,,,,,,,,,,,,,,,,,95,001,2023_Sep_06_1158,ExactRep-v3-final,2021.2.3,59.937305547578696,
,,,,,,,,81,0,81,0,,,,,,,,,,,,,,,,,,,,,,,,,,,,,,,,,,,,,,,,,,,,,,,,,,,,,447.4445918998681,None,,,,,,,,,,,,,,,,,,,,,,,,,,,,,,,,,,,amount,50,82,silent,red,445.43026759987697,None,None,445.43026759987697,None,,,,,,,,,,,,,,,,,,,,,,,,,,,,,,95,001,2023_Sep_06_1158,ExactRep-v3-final,2021.2.3,59.937305547578696,
,,,,,,,,82,0,82,0,,,,,,,,,,,,,,,,,,,,,,,,,,,,,,,,,,,,,,,,,,,,,,,,,,,,,449.94708719989285,None,,,,,,,,,,,,,,,,,,,,,,,,,,,,,,,,,,,volume,113,83,aloud,white,447.94733399990946,None,None,447.94733399990946,None,,,,,,,,,,,,,,,,,,,,,,,,,,,,,,95,001,2023_Sep_06_1158,ExactRep-v3-final,2021.2.3,59.937305547578696,
,,,,,,,,83,0,83,0,,,,,,,,,,,,,,,,,,,,,,,,,,,,,,,,,,,,,,,,,,,,,,,,,,,,,452.46588389994577,None,,,,,,,,,,,,,,,,,,,,,,,,,,,,,,,,,,,heaven,108,84,aloud,white,450.453096000012,None,None,450.453096000012,None,,,,,,,,,,,,,,,,,,,,,,,,,,,,,,95,001,2023_Sep_06_1158,ExactRep-v3-final,2021.2.3,59.937305547578696,
,,,,,,,,84,0,84,0,,,,,,,,,,,,,,,,,,,,,,,,,,,,,,,,,,,,,,,,,,,,,,,,,,,,,454.96883159992285,None,,,,,,,,,,,,,,,,,,,,,,,,,,,,,,,,,,,rock,24,85,sing,blue,452.9667593999766,None,None,452.9667593999766,None,,,,,,,,,,,,,,,,,,,,,,,,,,,,,,95,001,2023_Sep_06_1158,ExactRep-v3-final,2021.2.3,59.937305547578696,
,,,,,,,,85,0,85,0,,,,,,,,,,,,,,,,,,,,,,,,,,,,,,,,,,,,,,,,,,,,,,,,,,,,,457.4874579999596,None,,,,,,,,,,,,,,,,,,,,,,,,,,,,,,,,,,,life,96,86,aloud,white,455.48212910001166,None,None,455.48212910001166,None,,,,,,,,,,,,,,,,,,,,,,,,,,,,,,95,001,2023_Sep_06_1158,ExactRep-v3-final,2021.2.3,59.937305547578696,
,,,,,,,,86,0,86,0,,,,,,,,,,,,,,,,,,,,,,,,,,,,,,,,,,,,,,,,,,,,,,,,,,,,,459.99023839994334,None,,,,,,,,,,,,,,,,,,,,,,,,,,,,,,,,,,,storm,47,87,silent,red,457.98833959992044,None,None,457.98833959992044,None,,,,,,,,,,,,,,,,,,,,,,,,,,,,,,95,001,2023_Sep_06_1158,ExactRep-v3-final,2021.2.3,59.937305547578696,
,,,,,,,,87,0,87,0,,,,,,,,,,,,,,,,,,,,,,,,,,,,,,,,,,,,,,,,,,,,,,,,,,,,,462.5092807998881,None,,,,,,,,,,,,,,,,,,,,,,,,,,,,,,,,,,,charm,62,88,silent,red,460.49421679996885,None,None,460.49421679996885,None,,,,,,,,,,,,,,,,,,,,,,,,,,,,,,95,001,2023_Sep_06_1158,ExactRep-v3-final,2021.2.3,59.937305547578696,
,,,,,,,,88,0,88,0,,,,,,,,,,,,,,,,,,,,,,,,,,,,,,,,,,,,,,,,,,,,,,,,,,,,,465.0116659998894,None,,,,,,,,,,,,,,,,,,,,,,,,,,,,,,,,,,,ocean,71,89,silent,red,463.0120574000757,None,None,463.0120574000757,None,,,,,,,,,,,,,,,,,,,,,,,,,,,,,,95,001,2023_Sep_06_1158,ExactRep-v3-final,2021.2.3,59.937305547578696,
,,,,,,,,89,0,89,0,,,,,,,,,,,,,,,,,,,,,,,,,,,,,,,,,,,,,,,,,,,,,,,,,,,,,467.51477049989626,None,,,,,,,,,,,,,,,,,,,,,,,,,,,,,,,,,,,boulder,116,90,aloud,white,465.51277839997783,None,None,465.51277839997783,None,,,,,,,,,,,,,,,,,,,,,,,,,,,,,,95,001,2023_Sep_06_1158,ExactRep-v3-final,2021.2.3,59.937305547578696,
,,,,,,,,90,0,90,0,,,,,,,,,,,,,,,,,,,,,,,,,,,,,,,,,,,,,,,,,,,,,,,,,,,,,470.01674930006266,None,,,,,,,,,,,,,,,,,,,,,,,,,,,,,,,,,,,street,40,91,silent,red,468.01643140008673,None,None,468.01643140008673,None,,,,,,,,,,,,,,,,,,,,,,,,,,,,,,95,001,2023_Sep_06_1158,ExactRep-v3-final,2021.2.3,59.937305547578696,
,,,,,,,,91,0,91,0,,,,,,,,,,,,,,,,,,,,,,,,,,,,,,,,,,,,,,,,,,,,,,,,,,,,,472.5196843999438,None,,,,,,,,,,,,,,,,,,,,,,,,,,,,,,,,,,,fate,29,92,sing,blue,470.51966360001825,None,None,470.51966360001825,None,,,,,,,,,,,,,,,,,,,,,,,,,,,,,,95,001,2023_Sep_06_1158,ExactRep-v3-final,2021.2.3,59.937305547578696,
,,,,,,,,92,0,92,0,,,,,,,,,,,,,,,,,,,,,,,,,,,,,,,,,,,,,,,,,,,,,,,,,,,,,475.0219731000252,None,,,,,,,,,,,,,,,,,,,,,,,,,,,,,,,,,,,skin,75,93,silent,red,473.02253389987163,None,None,473.02253389987163,None,,,,,,,,,,,,,,,,,,,,,,,,,,,,,,95,001,2023_Sep_06_1158,ExactRep-v3-final,2021.2.3,59.937305547578696,
,,,,,,,,93,0,93,0,,,,,,,,,,,,,,,,,,,,,,,,,,,,,,,,,,,,,,,,,,,,,,,,,,,,,477.5241674000863,None,,,,,,,,,,,,,,,,,,,,,,,,,,,,,,,,,,,body,36,94,sing,blue,475.52278529992327,None,None,475.52278529992327,None,,,,,,,,,,,,,,,,,,,,,,,,,,,,,,95,001,2023_Sep_06_1158,ExactRep-v3-final,2021.2.3,59.937305547578696,
,,,,,,,,94,0,94,0,,,,,,,,,,,,,,,,,,,,,,,,,,,,,,,,,,,,,,,,,,,,,,,,,,,,,480.04347030003555,None,,,,,,,,,,,,,,,,,,,,,,,,,,,,,,,,,,,theory,69,95,silent,red,478.0297918000724,None,None,478.0297918000724,None,,,,,,,,,,,,,,,,,,,,,,,,,,,,,,95,001,2023_Sep_06_1158,ExactRep-v3-final,2021.2.3,59.937305547578696,
,,,,,,,,95,0,95,0,,,,,,,,,,,,,,,,,,,,,,,,,,,,,,,,,,,,,,,,,,,,,,,,,,,,,482.54599849996157,None,,,,,,,,,,,,,,,,,,,,,,,,,,,,,,,,,,,plain,26,96,sing,blue,480.54478330002166,None,None,480.54478330002166,None,,,,,,,,,,,,,,,,,,,,,,,,,,,,,,95,001,2023_Sep_06_1158,ExactRep-v3-final,2021.2.3,59.937305547578696,
,,,,,,,,96,0,96,0,,,,,,,,,,,,,,,,,,,,,,,,,,,,,,,,,,,,,,,,,,,,,,,,,,,,,485.04845130001195,None,,,,,,,,,,,,,,,,,,,,,,,,,,,,,,,,,,,teacher,31,97,sing,blue,483.04672139999457,None,None,483.04672139999457,None,,,,,,,,,,,,,,,,,,,,,,,,,,,,,,95,001,2023_Sep_06_1158,ExactRep-v3-final,2021.2.3,59.937305547578696,
,,,,,,,,97,0,97,0,,,,,,,,,,,,,,,,,,,,,,,,,,,,,,,,,,,,,,,,,,,,,,,,,,,,,487.5512824000325,None,,,,,,,,,,,,,,,,,,,,,,,,,,,,,,,,,,,pole,60,98,silent,red,485.5494041000493,None,None,485.5494041000493,None,,,,,,,,,,,,,,,,,,,,,,,,,,,,,,95,001,2023_Sep_06_1158,ExactRep-v3-final,2021.2.3,59.937305547578696,
,,,,,,,,98,0,98,0,,,,,,,,,,,,,,,,,,,,,,,,,,,,,,,,,,,,,,,,,,,,,,,,,,,,,490.0704258000478,None,,,,,,,,,,,,,,,,,,,,,,,,,,,,,,,,,,,shoes,79,99,sing,blue,488.0561869998928,None,None,488.0561869998928,None,,,,,,,,,,,,,,,,,,,,,,,,,,,,,,95,001,2023_Sep_06_1158,ExactRep-v3-final,2021.2.3,59.937305547578696,
,,,,,,,,99,0,99,0,,,,,,,,,,,,,,,,,,,,,,,,,,,,,,,,,,,,,,,,,,,,,,,,,,,,,492.5730489999987,None,,,,,,,,,,,,,,,,,,,,,,,,,,,,,,,,,,,house,83,100,aloud,white,490.5708202999085,None,None,490.5708202999085,None,,,,,,,,,,,,,,,,,,,,,,,,,,,,,,95,001,2023_Sep_06_1158,ExactRep-v3-final,2021.2.3,59.937305547578696,
,,,,,,,,100,0,100,0,,,,,,,,,,,,,,,,,,,,,,,,,,,,,,,,,,,,,,,,,,,,,,,,,,,,,495.0917269999627,None,,,,,,,,,,,,,,,,,,,,,,,,,,,,,,,,,,,shore,8,101,sing,blue,493.07810029992834,None,None,493.07810029992834,None,,,,,,,,,,,,,,,,,,,,,,,,,,,,,,95,001,2023_Sep_06_1158,ExactRep-v3-final,2021.2.3,59.937305547578696,
,,,,,,,,101,0,101,0,,,,,,,,,,,,,,,,,,,,,,,,,,,,,,,,,,,,,,,,,,,,,,,,,,,,,497.611419999972,None,,,,,,,,,,,,,,,,,,,,,,,,,,,,,,,,,,,glory,68,102,silent,red,495.6052977000363,None,None,495.6052977000363,None,,,,,,,,,,,,,,,,,,,,,,,,,,,,,,95,001,2023_Sep_06_1158,ExactRep-v3-final,2021.2.3,59.937305547578696,
,,,,,,,,102,0,102,0,,,,,,,,,,,,,,,,,,,,,,,,,,,,,,,,,,,,,,,,,,,,,,,,,,,,,500.1141699999571,None,,,,,,,,,,,,,,,,,,,,,,,,,,,,,,,,,,,hope,45,103,silent,red,498.11134479986504,None,None,498.11134479986504,None,,,,,,,,,,,,,,,,,,,,,,,,,,,,,,95,001,2023_Sep_06_1158,ExactRep-v3-final,2021.2.3,59.937305547578696,
,,,,,,,,103,0,103,0,,,,,,,,,,,,,,,,,,,,,,,,,,,,,,,,,,,,,,,,,,,,,,,,,,,,,502.63264209986664,None,,,,,,,,,,,,,,,,,,,,,,,,,,,,,,,,,,,soil,85,104,aloud,white,500.61925429990515,None,None,500.61925429990515,None,,,,,,,,,,,,,,,,,,,,,,,,,,,,,,95,001,2023_Sep_06_1158,ExactRep-v3-final,2021.2.3,59.937305547578696,
,,,,,,,,104,0,104,0,,,,,,,,,,,,,,,,,,,,,,,,,,,,,,,,,,,,,,,,,,,,,,,,,,,,,505.1520775000099,None,,,,,,,,,,,,,,,,,,,,,,,,,,,,,,,,,,,fire,49,105,silent,red,503.138008199865,None,None,503.138008199865,None,,,,,,,,,,,,,,,,,,,,,,,,,,,,,,95,001,2023_Sep_06_1158,ExactRep-v3-final,2021.2.3,59.937305547578696,
,,,,,,,,105,0,105,0,,,,,,,,,,,,,,,,,,,,,,,,,,,,,,,,,,,,,,,,,,,,,,,,,,,,,507.6544437999837,None,,,,,,,,,,,,,,,,,,,,,,,,,,,,,,,,,,,valley,39,106,silent,red,505.6529103999492,None,None,505.6529103999492,None,,,,,,,,,,,,,,,,,,,,,,,,,,,,,,95,001,2023_Sep_06_1158,ExactRep-v3-final,2021.2.3,59.937305547578696,
,,,,,,,,106,0,106,0,,,,,,,,,,,,,,,,,,,,,,,,,,,,,,,,,,,,,,,,,,,,,,,,,,,,,510.1568533000536,None,,,,,,,,,,,,,,,,,,,,,,,,,,,,,,,,,,,church,52,107,silent,red,508.1552913999185,None,None,508.1552913999185,None,,,,,,,,,,,,,,,,,,,,,,,,,,,,,,95,001,2023_Sep_06_1158,ExactRep-v3-final,2021.2.3,59.937305547578696,
,,,,,,,,107,0,107,0,,,,,,,,,,,,,,,,,,,,,,,,,,,,,,,,,,,,,,,,,,,,,,,,,,,,,512.6759323000442,None,,,,,,,,,,,,,,,,,,,,,,,,,,,,,,,,,,,shame,9,108,sing,blue,510.6621616000775,None,None,510.6621616000775,None,,,,,,,,,,,,,,,,,,,,,,,,,,,,,,95,001,2023_Sep_06_1158,ExactRep-v3-final,2021.2.3,59.937305547578696,
,,,,,,,,108,0,108,0,,,,,,,,,,,,,,,,,,,,,,,,,,,,,,,,,,,,,,,,,,,,,,,,,,,,,515.1784071000293,None,,,,,,,,,,,,,,,,,,,,,,,,,,,,,,,,,,,wine,7,109,sing,blue,513.1764583999757,None,None,513.1764583999757,None,,,,,,,,,,,,,,,,,,,,,,,,,,,,,,95,001,2023_Sep_06_1158,ExactRep-v3-final,2021.2.3,59.937305547578696,
,,,,,,,,109,0,109,0,,,,,,,,,,,,,,,,,,,,,,,,,,,,,,,,,,,,,,,,,,,,,,,,,,,,,517.6809378000908,None,,,,,,,,,,,,,,,,,,,,,,,,,,,,,,,,,,,tree,61,110,silent,red,515.6799703999422,None,None,515.6799703999422,None,,,,,,,,,,,,,,,,,,,,,,,,,,,,,,95,001,2023_Sep_06_1158,ExactRep-v3-final,2021.2.3,59.937305547578696,
,,,,,,,,110,0,110,0,,,,,,,,,,,,,,,,,,,,,,,,,,,,,,,,,,,,,,,,,,,,,,,,,,,,,520.1834082999267,None,,,,,,,,,,,,,,,,,,,,,,,,,,,,,,,,,,,clock,110,111,aloud,white,518.1818408998661,None,None,518.1818408998661,None,,,,,,,,,,,,,,,,,,,,,,,,,,,,,,95,001,2023_Sep_06_1158,ExactRep-v3-final,2021.2.3,59.937305547578696,
,,,,,,,,111,0,111,0,,,,,,,,,,,,,,,,,,,,,,,,,,,,,,,,,,,,,,,,,,,,,,,,,,,,,522.6860098000616,None,,,,,,,,,,,,,,,,,,,,,,,,,,,,,,,,,,,effort,20,112,sing,blue,520.6843956999946,None,None,520.6843956999946,None,,,,,,,,,,,,,,,,,,,,,,,,,,,,,,95,001,2023_Sep_06_1158,ExactRep-v3-final,2021.2.3,59.937305547578696,
,,,,,,,,112,0,112,0,,,,,,,,,,,,,,,,,,,,,,,,,,,,,,,,,,,,,,,,,,,,,,,,,,,,,525.1888248999603,None,,,,,,,,,,,,,,,,,,,,,,,,,,,,,,,,,,,soul,104,113,aloud,white,523.186805699952,None,None,523.186805699952,None,,,,,,,,,,,,,,,,,,,,,,,,,,,,,,95,001,2023_Sep_06_1158,ExactRep-v3-final,2021.2.3,59.937305547578696,
,,,,,,,,113,0,113,0,,,,,,,,,,,,,,,,,,,,,,,,,,,,,,,,,,,,,,,,,,,,,,,,,,,,,527.7077699999791,None,,,,,,,,,,,,,,,,,,,,,,,,,,,,,,,,,,,forest,35,114,sing,blue,525.6944764000364,None,None,525.6944764000364,None,,,,,,,,,,,,,,,,,,,,,,,,,,,,,,95,001,2023_Sep_06_1158,ExactRep-v3-final,2021.2.3,59.937305547578696,
,,,,,,,,114,0,114,0,,,,,,,,,,,,,,,,,,,,,,,,,,,,,,,,,,,,,,,,,,,,,,,,,,,,,530.2105342000723,None,,,,,,,,,,,,,,,,,,,,,,,,,,,,,,,,,,,fortune,103,115,aloud,white,528.2086692999583,None,None,528.2086692999583,None,,,,,,,,,,,,,,,,,,,,,,,,,,,,,,95,001,2023_Sep_06_1158,ExactRep-v3-final,2021.2.3,59.937305547578696,
,,,,,,,,115,0,115,0,,,,,,,,,,,,,,,,,,,,,,,,,,,,,,,,,,,,,,,,,,,,,,,,,,,,,532.7131612999365,None,,,,,,,,,,,,,,,,,,,,,,,,,,,,,,,,,,,fault,6,116,sing,blue,530.7138569999952,None,None,530.7138569999952,None,,,,,,,,,,,,,,,,,,,,,,,,,,,,,,95,001,2023_Sep_06_1158,ExactRep-v3-final,2021.2.3,59.937305547578696,
,,,,,,,,116,0,116,0,,,,,,,,,,,,,,,,,,,,,,,,,,,,,,,,,,,,,,,,,,,,,,,,,,,,,535.2151075999718,None,,,,,,,,,,,,,,,,,,,,,,,,,,,,,,,,,,,breast,19,117,sing,blue,533.2137265000492,None,None,533.2137265000492,None,,,,,,,,,,,,,,,,,,,,,,,,,,,,,,95,001,2023_Sep_06_1158,ExactRep-v3-final,2021.2.3,59.937305547578696,
,,,,,,,,117,0,117,0,,,,,,,,,,,,,,,,,,,,,,,,,,,,,,,,,,,,,,,,,,,,,,,,,,,,,537.7344122999348,None,,,,,,,,,,,,,,,,,,,,,,,,,,,,,,,,,,,memory,65,118,silent,red,535.7205344000831,None,None,535.7205344000831,None,,,,,,,,,,,,,,,,,,,,,,,,,,,,,,95,001,2023_Sep_06_1158,ExactRep-v3-final,2021.2.3,59.937305547578696,
,,,,,,,,118,0,118,0,,,,,,,,,,,,,,,,,,,,,,,,,,,,,,,,,,,,,,,,,,,,,,,,,,,,,540.2539862000849,None,,,,,,,,,,,,,,,,,,,,,,,,,,,,,,,,,,,truth,109,119,aloud,white,538.2385402000509,None,None,538.2385402000509,None,,,,,,,,,,,,,,,,,,,,,,,,,,,,,,95,001,2023_Sep_06_1158,ExactRep-v3-final,2021.2.3,59.937305547578696,
,,,,,,,,119,0,119,0,,,,,,,,,,,,,,,,,,,,,,,,,,,,,,,,,,,,,,,,,,,,,,,,,,,,,542.7563427998684,None,,,,,,,,,,,,,,,,,,,,,,,,,,,,,,,,,,,bar,44,120,silent,red,540.755375900073,None,None,540.755375900073,None,,,,,,,,,,,,,,,,,,,,,,,,,,,,,,95,001,2023_Sep_06_1158,ExactRep-v3-final,2021.2.3,59.937305547578696,
,,,,,,,,,,,,,,,,,,,,,,,,,,,,,,,,,,,,,,,,,,,,,,,,,,,,,,,,,,,,,,,,,,,,,,,,,,,,,,,,,,,,,,,,,,,,,,,,,,,,,,,,,,,,,,543.2564479000866,None,space,0.13032129989005625,553.2336780999321,None,,,,,,,,,,,,,,,,,,,,,,,,95,001,2023_Sep_06_1158,ExactRep-v3-final,2021.2.3,59.937305547578696,
,,,,,,,,,,,,,,,,,,,,,,,,,,,,,,,,,,,,,,,,,,,,,,,,,,,,,,,,,,,,,,,,,,,,,,,,,,,,,,,,,,,,,,,,,,,,,,,,,,,,,,,,,,,,,,,,,,,,553.383836099878,None,space,26.604318999918178,563.3599189999513,None,,,,,,,,,,,,,,,,,,95,001,2023_Sep_06_1158,ExactRep-v3-final,2021.2.3,59.937305547578696,
,,,,,,,,,,,,0,0,0,0,,,,,,,,,,,,,,,,,,,,,,,,,,,,,,,,,,,,,,,,,,,,,,,,,596.0101401000284,None,,,,,,,,,,,,,,,,,,,,,,,,,,,,,,,,,,,,,,,,,,,,,,,,,,,,,,,,,blood,0,1,sing,old,yellow,590.5035701000597,None,y,590.5035701000597,None,"['y', 'return']","[1.8522840000223368, 5.46014770003967]",590.5035701000597,None,,,95,001,2023_Sep_06_1158,ExactRep-v3-final,2021.2.3,59.937305547578696,
,,,,,,,,,,,,1,0,1,0,,,,,,,,,,,,,,,,,,,,,,,,,,,,,,,,,,,,,,,,,,,,,,,,,598.6135730000678,None,,,,,,,,,,,,,,,,,,,,,,,,,,,,,,,,,,,,,,,,,,,,,,,,,,,,,,,,,memory,65,2,silent,old,yellow,596.5249673998915,None,n,596.5249673998915,None,"['n', 'return']","[1.6468431998509914, 2.0388618998695165]",596.5249673998915,None,,,95,001,2023_Sep_06_1158,ExactRep-v3-final,2021.2.3,59.937305547578696,
,,,,,,,,,,,,2,0,2,0,,,,,,,,,,,,,,,,,,,,,,,,,,,,,,,,,,,,,,,,,,,,,,,,,600.2485521999188,None,,,,,,,,,,,,,,,,,,,,,,,,,,,,,,,,,,,,,,,,,,,,,,,,,,,,,,,,,hope,45,3,silent,old,yellow,599.1293788000476,None,n,599.1293788000476,None,"['n', 'return']","[0.7864131000824273, 1.0824027000926435]",599.1293788000476,None,,,95,001,2023_Sep_06_1158,ExactRep-v3-final,2021.2.3,59.937305547578696,
,,,,,,,,,,,,3,0,3,0,,,,,,,,,,,,,,,,,,,,,,,,,,,,,,,,,,,,,,,,,,,,,,,,,602.1334402000066,None,,,,,,,,,,,,,,,,,,,,,,,,,,,,,,,,,,,,,,,,,,,,,,,,,,,,,,,,,apple,80,4,aloud,old,yellow,600.7657391000539,None,y,600.7657391000539,None,"['y', 'return']","[1.0782761999871582, 1.3341061999090016]",600.7657391000539,None,,,95,001,2023_Sep_06_1158,ExactRep-v3-final,2021.2.3,59.937305547578696,
,,,,,,,,,,,,4,0,4,0,,,,,,,,,,,,,,,,,,,,,,,,,,,,,,,,,,,,,,,,,,,,,,,,,603.6683684000745,None,,,,,,,,,,,,,,,,,,,,,,,,,,,,,,,,,,,,,,,,,,,,,,,,,,,,,,,,,flesh,118,5,aloud,old,yellow,602.6344689999241,None,y,602.6344689999241,None,"['y', 'return']","[0.6573648999910802, 0.9933480001054704]",602.6344689999241,None,,,95,001,2023_Sep_06_1158,ExactRep-v3-final,2021.2.3,59.937305547578696,
,,,,,,,,,,,,5,0,5,0,,,,,,,,,,,,,,,,,,,,,,,,,,,,,,,,,,,,,,,,,,,,,,,,,605.4205179999117,None,,,,,,,,,,,,,,,,,,,,,,,,,,,,,,,,,,,,,,,,,,,,,,,,,,,,,,,,,master,191,6,sing,new,yellow,604.1827187000308,None,n,604.1827187000308,None,"['n', 'return']","[0.9333949000574648, 1.1891711000353098]",604.1827187000308,None,,,95,001,2023_Sep_06_1158,ExactRep-v3-final,2021.2.3,59.937305547578696,
,,,,,,,,,,,,6,0,6,0,,,,,,,,,,,,,,,,,,,,,,,,,,,,,,,,,,,,,,,,,,,,,,,,,606.9215396000072,None,,,,,,,,,,,,,,,,,,,,,,,,,,,,,,,,,,,,,,,,,,,,,,,,,,,,,,,,,grief,111,7,aloud,old,yellow,605.9374059999827,None,y,605.9374059999827,None,"['y', 'return']","[0.6663925000466406, 0.9383471000473946]",605.9374059999827,None,,,95,001,2023_Sep_06_1158,ExactRep-v3-final,2021.2.3,59.937305547578696,
,,,,,,,,,,,,7,0,7,0,,,,,,,,,,,,,,,,,,,,,,,,,,,,,,,,,,,,,,,,,,,,,,,,,608.7913635000587,None,,,,,,,,,,,,,,,,,,,,,,,,,,,,,,,,,,,,,,,,,,,,,,,,,,,,,,,,,pupil,115,8,aloud,old,yellow,607.4316318000201,None,y,607.4316318000201,None,"['y', 'return']","[1.0362100000493228, 1.31624750001356]",607.4316318000201,None,,,95,001,2023_Sep_06_1158,ExactRep-v3-final,2021.2.3,59.937305547578696,
,,,,,,,,,,,,8,0,8,0,,,,,,,,,,,,,,,,,,,,,,,,,,,,,,,,,,,,,,,,,,,,,,,,,610.7924285999034,None,,,,,,,,,,,,,,,,,,,,,,,,,,,,,,,,,,,,,,,,,,,,,,,,,,,,,,,,,life,96,9,aloud,old,yellow,609.314635500079,None,y,609.314635500079,None,"['y', 'return']","[1.153146999888122, 1.4413925998378545]",609.314635500079,None,,,95,001,2023_Sep_06_1158,ExactRep-v3-final,2021.2.3,59.937305547578696,
,,,,,,,,,,,,9,0,9,0,,,,,,,,,,,,,,,,,,,,,,,,,,,,,,,,,,,,,,,,,,,,,,,,,612.5113339000382,None,,,,,,,,,,,,,,,,,,,,,,,,,,,,,,,,,,,,,,,,,,,,,,,,,,,,,,,,,factory,127,10,silent,new,yellow,611.2979333999101,None,n,611.2979333999101,None,"['n', 'return']","[0.9458748998586088, 1.169838799862191]",611.2979333999101,None,,,95,001,2023_Sep_06_1158,ExactRep-v3-final,2021.2.3,59.937305547578696,
,,,,,,,,,,,,10,0,10,0,,,,,,,,,,,,,,,,,,,,,,,,,,,,,,,,,,,,,,,,,,,,,,,,,614.0125072998926,None,,,,,,,,,,,,,,,,,,,,,,,,,,,,,,,,,,,,,,,,,,,,,,,,,,,,,,,,,fate,29,11,sing,old,yellow,613.026763800066,None,y,613.026763800066,None,"['y', 'return']","[0.6410696001257747, 0.9370544999837875]",613.026763800066,None,,,95,001,2023_Sep_06_1158,ExactRep-v3-final,2021.2.3,59.937305547578696,
,,,,,,,,,,,,11,0,11,0,,,,,,,,,,,,,,,,,,,,,,,,,,,,,,,,,,,,,,,,,,,,,,,,,615.5296155998949,None,,,,,,,,,,,,,,,,,,,,,,,,,,,,,,,,,,,,,,,,,,,,,,,,,,,,,,,,,doctor,178,12,aloud,new,yellow,614.5230999998748,None,n,614.5230999998748,None,"['n', 'return']","[0.7445953998249024, 0.9606288999784738]",614.5230999998748,None,,,95,001,2023_Sep_06_1158,ExactRep-v3-final,2021.2.3,59.937305547578696,
,,,,,,,,,,,,12,0,12,0,,,,,,,,,,,,,,,,,,,,,,,,,,,,,,,,,,,,,,,,,,,,,,,,,617.2317063000519,None,,,,,,,,,,,,,,,,,,,,,,,,,,,,,,,,,,,,,,,,,,,,,,,,,,,,,,,,,world,149,13,silent,new,yellow,616.0318310998846,None,n,616.0318310998846,None,"['n', 'return']","[0.7320139000657946, 1.1640105000697076]",616.0318310998846,None,,,95,001,2023_Sep_06_1158,ExactRep-v3-final,2021.2.3,59.937305547578696,
,,,,,,,,,,,,13,0,13,0,,,,,,,,,,,,,,,,,,,,,,,,,,,,,,,,,,,,,,,,,,,,,,,,,618.5824672000017,None,,,,,,,,,,,,,,,,,,,,,,,,,,,,,,,,,,,,,,,,,,,,,,,,,,,,,,,,,nail,136,14,silent,new,yellow,617.7410905999132,None,n,617.7410905999132,None,"['n', 'return']","[0.5747187999077141, 0.8069874998182058]",617.7410905999132,None,,,95,001,2023_Sep_06_1158,ExactRep-v3-final,2021.2.3,59.937305547578696,
,,,,,,,,,,,,14,0,14,0,,,,,,,,,,,,,,,,,,,,,,,,,,,,,,,,,,,,,,,,,,,,,,,,,620.3350690999068,None,,,,,,,,,,,,,,,,,,,,,,,,,,,,,,,,,,,,,,,,,,,,,,,,,,,,,,,,,fact,141,15,silent,new,yellow,619.0841957000084,None,n,619.0841957000084,None,"['n', 'return']","[0.9276213000994176, 1.2077466000337154]",619.0841957000084,None,,,95,001,2023_Sep_06_1158,ExactRep-v3-final,2021.2.3,59.937305547578696,
,,,,,,,,,,,,15,0,15,0,,,,,,,,,,,,,,,,,,,,,,,,,,,,,,,,,,,,,,,,,,,,,,,,,622.5875228000805,None,,,,,,,,,,,,,,,,,,,,,,,,,,,,,,,,,,,,,,,,,,,,,,,,,,,,,,,,,picture,73,16,silent,old,yellow,620.8492775999475,None,y,620.8492775999475,None,"['y', 'return']","[1.48255220009014, 1.690629200078547]",620.8492775999475,None,,,95,001,2023_Sep_06_1158,ExactRep-v3-final,2021.2.3,59.937305547578696,
,,,,,,,,,,,,16,0,16,0,,,,,,,,,,,,,,,,,,,,,,,,,,,,,,,,,,,,,,,,,,,,,,,,,623.9555917999242,None,,,,,,,,,,,,,,,,,,,,,,,,,,,,,,,,,,,,,,,,,,,,,,,,,,,,,,,,,cat,146,17,silent,new,yellow,623.1044808998704,None,n,623.1044808998704,None,"['n', 'return']","[0.6434239000082016, 0.8033952000550926]",623.1044808998704,None,,,95,001,2023_Sep_06_1158,ExactRep-v3-final,2021.2.3,59.937305547578696,
,,,,,,,,,,,,17,0,17,0,,,,,,,,,,,,,,,,,,,,,,,,,,,,,,,,,,,,,,,,,,,,,,,,,625.9074452999048,None,,,,,,,,,,,,,,,,,,,,,,,,,,,,,,,,,,,,,,,,,,,,,,,,,,,,,,,,,power,209,18,sing,new,yellow,624.4684033000376,None,n,624.4684033000376,None,"['n', 'return']","[1.0793864999432117, 1.3994464001152664]",624.4684033000376,None,,,95,001,2023_Sep_06_1158,ExactRep-v3-final,2021.2.3,59.937305547578696,
,,,,,,,,,,,,18,0,18,0,,,,,,,,,,,,,,,,,,,,,,,,,,,,,,,,,,,,,,,,,,,,,,,,,629.6609934000298,None,,,,,,,,,,,,,,,,,,,,,,,,,,,,,,,,,,,,,,,,,,,,,,,,,,,,,,,,,horse,154,19,silent,new,yellow,626.4160362000111,None,n,626.4160362000111,None,"['n', 'return']","[2.971863199956715, 3.195742900017649]",626.4160362000111,None,,,95,001,2023_Sep_06_1158,ExactRep-v3-final,2021.2.3,59.937305547578696,
,,,,,,,,,,,,19,0,19,0,,,,,,,,,,,,,,,,,,,,,,,,,,,,,,,,,,,,,,,,,,,,,,,,,632.4135986000765,None,,,,,,,,,,,,,,,,,,,,,,,,,,,,,,,,,,,,,,,,,,,,,,,,,,,,,,,,,tree,61,20,silent,old,yellow,630.1649694999214,None,n,630.1649694999214,None,"['n', 'return']","[1.990881800185889, 2.2070168000645936]",630.1649694999214,None,,,95,001,2023_Sep_06_1158,ExactRep-v3-final,2021.2.3,59.937305547578696,
,,,,,,,,,,,,20,0,20,0,,,,,,,,,,,,,,,,,,,,,,,,,,,,,,,,,,,,,,,,,,,,,,,,,635.1326562000904,None,,,,,,,,,,,,,,,,,,,,,,,,,,,,,,,,,,,,,,,,,,,,,,,,,,,,,,,,,present,122,21,silent,new,yellow,632.9145202999935,None,y,632.9145202999935,None,"['y', 'return']","[1.945279800100252, 2.1692294999957085]",632.9145202999935,None,,,95,001,2023_Sep_06_1158,ExactRep-v3-final,2021.2.3,59.937305547578696,
,,,,,,,,,,,,21,0,21,0,,,,,,,,,,,,,,,,,,,,,,,,,,,,,,,,,,,,,,,,,,,,,,,,,637.0183961999137,None,,,,,,,,,,,,,,,,,,,,,,,,,,,,,,,,,,,,,,,,,,,,,,,,,,,,,,,,,child,159,22,silent,new,yellow,635.6408748000395,None,y,635.6408748000395,None,"['y', 'return']","[1.1389033999294043, 1.338996399892494]",635.6408748000395,None,,,95,001,2023_Sep_06_1158,ExactRep-v3-final,2021.2.3,59.937305547578696,
,,,,,,,,,,,,22,0,22,0,,,,,,,,,,,,,,,,,,,,,,,,,,,,,,,,,,,,,,,,,,,,,,,,,638.4530760000926,None,,,,,,,,,,,,,,,,,,,,,,,,,,,,,,,,,,,,,,,,,,,,,,,,,,,,,,,,,kiss,148,23,silent,new,yellow,637.5347579999361,None,n,637.5347579999361,None,"['n', 'return']","[0.6850644000805914, 0.8850829000584781]",637.5347579999361,None,,,95,001,2023_Sep_06_1158,ExactRep-v3-final,2021.2.3,59.937305547578696,
,,,,,,,,,,,,23,0,23,0,,,,,,,,,,,,,,,,,,,,,,,,,,,,,,,,,,,,,,,,,,,,,,,,,640.0380128000397,None,,,,,,,,,,,,,,,,,,,,,,,,,,,,,,,,,,,,,,,,,,,,,,,,,,,,,,,,,meat,34,24,sing,old,yellow,638.9538972000591,None,y,638.9538972000591,None,"['y', 'return']","[0.841881399974227, 1.0498965000733733]",638.9538972000591,None,,,95,001,2023_Sep_06_1158,ExactRep-v3-final,2021.2.3,59.937305547578696,
,,,,,,,,,,,,24,0,24,0,,,,,,,,,,,,,,,,,,,,,,,,,,,,,,,,,,,,,,,,,,,,,,,,,643.3913364999462,None,,,,,,,,,,,,,,,,,,,,,,,,,,,,,,,,,,,,,,,,,,,,,,,,,,,,,,,,,letter,168,25,aloud,new,yellow,640.5388259999454,None,y,640.5388259999454,None,"['y', 'return']","[2.4969746000133455, 2.817189499968663]",640.5388259999454,None,,,95,001,2023_Sep_06_1158,ExactRep-v3-final,2021.2.3,59.937305547578696,
,,,,,,,,,,,,25,0,25,0,,,,,,,,,,,,,,,,,,,,,,,,,,,,,,,,,,,,,,,,,,,,,,,,,645.6937450000551,None,,,,,,,,,,,,,,,,,,,,,,,,,,,,,,,,,,,,,,,,,,,,,,,,,,,,,,,,,dream,220,26,aloud,new,yellow,643.8920014000032,None,n,643.8920014000032,None,"['n', 'return']","[1.5117005999200046, 1.7598296999931335]",643.8920014000032,None,,,95,001,2023_Sep_06_1158,ExactRep-v3-final,2021.2.3,59.937305547578696,
,,,,,,,,,,,,26,0,26,0,,,,,,,,,,,,,,,,,,,,,,,,,,,,,,,,,,,,,,,,,,,,,,,,,649.8813837000635,None,,,,,,,,,,,,,,,,,,,,,,,,,,,,,,,,,,,,,,,,,,,,,,,,,,,,,,,,,forest,35,27,sing,old,yellow,646.2247096998617,None,y,646.2247096998617,None,"['y', 'return']","[3.435131400125101, 3.611063300166279]",646.2247096998617,None,,,95,001,2023_Sep_06_1158,ExactRep-v3-final,2021.2.3,59.937305547578696,
,,,,,,,,,,,,27,0,27,0,,,,,,,,,,,,,,,,,,,,,,,,,,,,,,,,,,,,,,,,,,,,,,,,,651.8834561998956,None,,,,,,,,,,,,,,,,,,,,,,,,,,,,,,,,,,,,,,,,,,,,,,,,,,,,,,,,,advice,21,28,sing,old,yellow,650.4010483000893,None,y,650.4010483000893,None,"['y', 'return']","[1.2347339000552893, 1.4427348000463098]",650.4010483000893,None,,,95,001,2023_Sep_06_1158,ExactRep-v3-final,2021.2.3,59.937305547578696,
,,,,,,,,,,,,28,0,28,0,,,,,,,,,,,,,,,,,,,,,,,,,,,,,,,,,,,,,,,,,,,,,,,,,653.4002076000907,None,,,,,,,,,,,,,,,,,,,,,,,,,,,,,,,,,,,,,,,,,,,,,,,,,,,,,,,,,woman,54,29,silent,old,yellow,652.4041319000535,None,y,652.4041319000535,None,"['y', 'return']","[0.7677293999586254, 0.9516539999749511]",652.4041319000535,None,,,95,001,2023_Sep_06_1158,ExactRep-v3-final,2021.2.3,59.937305547578696,
,,,,,,,,,,,,29,0,29,0,,,,,,,,,,,,,,,,,,,,,,,,,,,,,,,,,,,,,,,,,,,,,,,,,655.2865543998778,None,,,,,,,,,,,,,,,,,,,,,,,,,,,,,,,,,,,,,,,,,,,,,,,,,,,,,,,,,machine,198,30,aloud,new,yellow,653.9157143998891,None,n,653.9157143998891,None,"['n', 'return']","[1.0005524000152946, 1.328163999831304]",653.9157143998891,None,,,95,001,2023_Sep_06_1158,ExactRep-v3-final,2021.2.3,59.937305547578696,
,,,,,,,,,,,,30,0,30,0,,,,,,,,,,,,,,,,,,,,,,,,,,,,,,,,,,,,,,,,,,,,,,,,,656.8214475999121,None,,,,,,,,,,,,,,,,,,,,,,,,,,,,,,,,,,,,,,,,,,,,,,,,,,,,,,,,,rock,24,31,sing,old,yellow,655.7872806000523,None,n,655.7872806000523,None,"['n', 'return']","[0.7846199001651257, 1.0005266000516713]",655.7872806000523,None,,,95,001,2023_Sep_06_1158,ExactRep-v3-final,2021.2.3,59.937305547578696,
,,,,,,,,,,,,31,0,31,0,,,,,,,,,,,,,,,,,,,,,,,,,,,,,,,,,,,,,,,,,,,,,,,,,660.4084840000141,None,,,,,,,,,,,,,,,,,,,,,,,,,,,,,,,,,,,,,,,,,,,,,,,,,,,,,,,,,soul,104,32,aloud,old,yellow,657.3220907999203,None,n,657.3220907999203,None,"['n', 'return']","[2.8098419001325965, 3.0499529000371695]",657.3220907999203,None,,,95,001,2023_Sep_06_1158,ExactRep-v3-final,2021.2.3,59.937305547578696,
,,,,,,,,,,,,32,0,32,0,,,,,,,,,,,,,,,,,,,,,,,,,,,,,,,,,,,,,,,,,,,,,,,,,663.6938161998987,None,,,,,,,,,,,,,,,,,,,,,,,,,,,,,,,,,,,,,,,,,,,,,,,,,,,,,,,,,book,212,33,aloud,new,yellow,660.9317985000089,None,n,660.9317985000089,None,"['n', 'return']","[2.4801267001312226, 2.7200170001015067]",660.9317985000089,None,,,95,001,2023_Sep_06_1158,ExactRep-v3-final,2021.2.3,59.937305547578696,
,,,,,,,,,,,,33,0,33,0,,,,,,,,,,,,,,,,,,,,,,,,,,,,,,,,,,,,,,,,,,,,,,,,,665.0964806000702,None,,,,,,,,,,,,,,,,,,,,,,,,,,,,,,,,,,,,,,,,,,,,,,,,,,,,,,,,,temple,162,34,aloud,new,yellow,664.1965790998656,None,n,664.1965790998656,None,"['n', 'return']","[0.6632459999527782, 0.863371100043878]",664.1965790998656,None,,,95,001,2023_Sep_06_1158,ExactRep-v3-final,2021.2.3,59.937305547578696,
,,,,,,,,,,,,34,0,34,0,,,,,,,,,,,,,,,,,,,,,,,,,,,,,,,,,,,,,,,,,,,,,,,,,668.8505821998697,None,,,,,,,,,,,,,,,,,,,,,,,,,,,,,,,,,,,,,,,,,,,,,,,,,,,,,,,,,time,142,35,silent,new,yellow,665.5976625999901,None,n,665.5976625999901,None,"['n', 'return']","[1.2621586001478136, 3.2141219000332057]",665.5976625999901,None,,,95,001,2023_Sep_06_1158,ExactRep-v3-final,2021.2.3,59.937305547578696,
,,,,,,,,,,,,35,0,35,0,,,,,,,,,,,,,,,,,,,,,,,,,,,,,,,,,,,,,,,,,,,,,,,,,670.2849220999051,None,,,,,,,,,,,,,,,,,,,,,,,,,,,,,,,,,,,,,,,,,,,,,,,,,,,,,,,,,storm,47,36,silent,old,yellow,669.3776128999889,None,n,669.3776128999889,None,"['n', 'return']","[0.6661676000803709, 0.8661774001084268]",669.3776128999889,None,,,95,001,2023_Sep_06_1158,ExactRep-v3-final,2021.2.3,59.937305547578696,
,,,,,,,,,,,,36,0,36,0,,,,,,,,,,,,,,,,,,,,,,,,,,,,,,,,,,,,,,,,,,,,,,,,,672.6541925000492,None,,,,,,,,,,,,,,,,,,,,,,,,,,,,,,,,,,,,,,,,,,,,,,,,,,,,,,,,,amount,50,37,silent,old,yellow,670.7928492999636,None,n,670.7928492999636,None,"['n', 'return']","[1.3789399000816047, 1.819017200032249]",670.7928492999636,None,,,95,001,2023_Sep_06_1158,ExactRep-v3-final,2021.2.3,59.937305547578696,
,,,,,,,,,,,,37,0,37,0,,,,,,,,,,,,,,,,,,,,,,,,,,,,,,,,,,,,,,,,,,,,,,,,,674.1055932000745,None,,,,,,,,,,,,,,,,,,,,,,,,,,,,,,,,,,,,,,,,,,,,,,,,,,,,,,,,,bird,95,38,aloud,old,yellow,673.1588745000772,None,y,673.1588745000772,None,"['y', 'return']","[0.7489973001647741, 0.9008945000823587]",673.1588745000772,None,,,95,001,2023_Sep_06_1158,ExactRep-v3-final,2021.2.3,59.937305547578696,
,,,,,,,,,,,,38,0,38,0,,,,,,,,,,,,,,,,,,,,,,,,,,,,,,,,,,,,,,,,,,,,,,,,,676.3245290999766,None,,,,,,,,,,,,,,,,,,,,,,,,,,,,,,,,,,,,,,,,,,,,,,,,,,,,,,,,,person,167,39,sing,new,yellow,674.6227118000388,None,y,674.6227118000388,None,"['y', 'return']","[1.533133399905637, 1.6613050000742078]",674.6227118000388,None,,,95,001,2023_Sep_06_1158,ExactRep-v3-final,2021.2.3,59.937305547578696,
,,,,,,,,,,,,39,0,39,0,,,,,,,,,,,,,,,,,,,,,,,,,,,,,,,,,,,,,,,,,,,,,,,,,678.5264975999016,None,,,,,,,,,,,,,,,,,,,,,,,,,,,,,,,,,,,,,,,,,,,,,,,,,,,,,,,,,board,174,40,aloud,new,yellow,676.8593299998902,None,n,676.8593299998902,None,"['n', 'return']","[1.4246377998497337, 1.6244745999574661]",676.8593299998902,None,,,95,001,2023_Sep_06_1158,ExactRep-v3-final,2021.2.3,59.937305547578696,
,,,,,,,,,,,,40,0,40,0,,,,,,,,,,,,,,,,,,,,,,,,,,,,,,,,,,,,,,,,,,,,,,,,,679.9446813999675,None,,,,,,,,,,,,,,,,,,,,,,,,,,,,,,,,,,,,,,,,,,,,,,,,,,,,,,,,,hour,10,41,sing,old,yellow,679.0520919000264,None,n,679.0520919000264,None,"['n', 'return']","[0.6717652999795973, 0.8558893001172692]",679.0520919000264,None,,,95,001,2023_Sep_06_1158,ExactRep-v3-final,2021.2.3,59.937305547578696,
,,,,,,,,,,,,41,0,41,0,,,,,,,,,,,,,,,,,,,,,,,,,,,,,,,,,,,,,,,,,,,,,,,,,682.0958207999356,None,,,,,,,,,,,,,,,,,,,,,,,,,,,,,,,,,,,,,,,,,,,,,,,,,,,,,,,,,corner,30,42,sing,old,yellow,680.4457711998839,None,n,680.4457711998839,None,"['n', 'return']","[1.414428599877283, 1.6143298000097275]",680.4457711998839,None,,,95,001,2023_Sep_06_1158,ExactRep-v3-final,2021.2.3,59.937305547578696,
,,,,,,,,,,,,42,0,42,0,,,,,,,,,,,,,,,,,,,,,,,,,,,,,,,,,,,,,,,,,,,,,,,,,683.5653287000023,None,,,,,,,,,,,,,,,,,,,,,,,,,,,,,,,,,,,,,,,,,,,,,,,,,,,,,,,,,sea,51,43,silent,old,yellow,682.6161664000247,None,n,682.6161664000247,None,"['n', 'return']","[0.7476038997992873, 0.9156155998352915]",682.6161664000247,None,,,95,001,2023_Sep_06_1158,ExactRep-v3-final,2021.2.3,59.937305547578696,
,,,,,,,,,,,,43,0,43,0,,,,,,,,,,,,,,,,,,,,,,,,,,,,,,,,,,,,,,,,,,,,,,,,,686.1333214000333,None,,,,,,,,,,,,,,,,,,,,,,,,,,,,,,,,,,,,,,,,,,,,,,,,,,,,,,,,,money,4,44,sing,old,yellow,684.0925763000268,None,y,684.0925763000268,None,"['y', 'return']","[1.8790960998740047, 2.0072741999756545]",684.0925763000268,None,,,95,001,2023_Sep_06_1158,ExactRep-v3-final,2021.2.3,59.937305547578696,
,,,,,,,,,,,,44,0,44,0,,,,,,,,,,,,,,,,,,,,,,,,,,,,,,,,,,,,,,,,,,,,,,,,,687.7358128998894,None,,,,,,,,,,,,,,,,,,,,,,,,,,,,,,,,,,,,,,,,,,,,,,,,,,,,,,,,,moral,160,45,aloud,new,yellow,686.6347360999789,None,y,686.6347360999789,None,"['y', 'return']","[0.9049767998512834, 1.065268199890852]",686.6347360999789,None,,,95,001,2023_Sep_06_1158,ExactRep-v3-final,2021.2.3,59.937305547578696,
,,,,,,,,,,,,45,0,45,0,,,,,,,,,,,,,,,,,,,,,,,,,,,,,,,,,,,,,,,,,,,,,,,,,689.1205778000876,None,,,,,,,,,,,,,,,,,,,,,,,,,,,,,,,,,,,,,,,,,,,,,,,,,,,,,,,,,winter,172,46,aloud,new,yellow,688.248985900078,None,n,688.248985900078,None,"['n', 'return']","[0.6828523001167923, 0.8349941000342369]",688.248985900078,None,,,95,001,2023_Sep_06_1158,ExactRep-v3-final,2021.2.3,59.937305547578696,
,,,,,,,,,,,,46,0,46,0,,,,,,,,,,,,,,,,,,,,,,,,,,,,,,,,,,,,,,,,,,,,,,,,,690.4554087000433,None,,,,,,,,,,,,,,,,,,,,,,,,,,,,,,,,,,,,,,,,,,,,,,,,,,,,,,,,,poet,84,47,aloud,old,yellow,689.6297619000543,None,n,689.6297619000543,None,"['n', 'return']","[0.6299880999140441, 0.7902426000218838]",689.6297619000543,None,,,95,001,2023_Sep_06_1158,ExactRep-v3-final,2021.2.3,59.937305547578696,
,,,,,,,,,,,,47,0,47,0,,,,,,,,,,,,,,,,,,,,,,,,,,,,,,,,,,,,,,,,,,,,,,,,,691.7237048998941,None,,,,,,,,,,,,,,,,,,,,,,,,,,,,,,,,,,,,,,,,,,,,,,,,,,,,,,,,,camp,150,48,silent,new,yellow,690.9906214999501,None,n,690.9906214999501,None,"['n', 'return']","[0.5411894998978823, 0.6851935999002308]",690.9906214999501,None,,,95,001,2023_Sep_06_1158,ExactRep-v3-final,2021.2.3,59.937305547578696,
,,,,,,,,,,,,48,0,48,0,,,,,,,,,,,,,,,,,,,,,,,,,,,,,,,,,,,,,,,,,,,,,,,,,693.1578691999894,None,,,,,,,,,,,,,,,,,,,,,,,,,,,,,,,,,,,,,,,,,,,,,,,,,,,,,,,,,cabin,193,49,sing,new,yellow,692.2393296998926,None,n,692.2393296998926,None,"['n', 'return']","[0.7004150000866503, 0.87654950004071]",692.2393296998926,None,,,95,001,2023_Sep_06_1158,ExactRep-v3-final,2021.2.3,59.937305547578696,
,,,,,,,,,,,,49,0,49,0,,,,,,,,,,,,,,,,,,,,,,,,,,,,,,,,,,,,,,,,,,,,,,,,,694.626330900006,None,,,,,,,,,,,,,,,,,,,,,,,,,,,,,,,,,,,,,,,,,,,,,,,,,,,,,,,,,officer,211,50,sing,new,yellow,693.6750020999461,None,n,693.6750020999461,None,"['n', 'return']","[0.7208682000637054, 0.9127860001754016]",693.6750020999461,None,,,95,001,2023_Sep_06_1158,ExactRep-v3-final,2021.2.3,59.937305547578696,
,,,,,,,,,,,,50,0,50,0,,,,,,,,,,,,,,,,,,,,,,,,,,,,,,,,,,,,,,,,,,,,,,,,,696.4116917999927,None,,,,,,,,,,,,,,,,,,,,,,,,,,,,,,,,,,,,,,,,,,,,,,,,,,,,,,,,,bottle,192,51,aloud,new,yellow,695.1369757000357,None,n,695.1369757000357,None,"['n', 'return']","[1.082777600036934, 1.2348869999404997]",695.1369757000357,None,,,95,001,2023_Sep_06_1158,ExactRep-v3-final,2021.2.3,59.937305547578696,
,,,,,,,,,,,,51,0,51,0,,,,,,,,,,,,,,,,,,,,,,,,,,,,,,,,,,,,,,,,,,,,,,,,,697.8295595999807,None,,,,,,,,,,,,,,,,,,,,,,,,,,,,,,,,,,,,,,,,,,,,,,,,,,,,,,,,,excuse,16,52,sing,old,yellow,696.9272880000062,None,y,696.9272880000062,None,"['y', 'return']","[0.7244887999258935, 0.8606169000267982]",696.9272880000062,None,,,95,001,2023_Sep_06_1158,ExactRep-v3-final,2021.2.3,59.937305547578696,
,,,,,,,,,,,,52,0,52,0,,,,,,,,,,,,,,,,,,,,,,,,,,,,,,,,,,,,,,,,,,,,,,,,,699.0637431000359,None,,,,,,,,,,,,,,,,,,,,,,,,,,,,,,,,,,,,,,,,,,,,,,,,,,,,,,,,,fault,6,53,sing,old,yellow,698.3463101999369,None,y,698.3463101999369,None,"['y', 'return']","[0.5374519000761211, 0.6818305000197142]",698.3463101999369,None,,,95,001,2023_Sep_06_1158,ExactRep-v3-final,2021.2.3,59.937305547578696,
,,,,,,,,,,,,53,0,53,0,,,,,,,,,,,,,,,,,,,,,,,,,,,,,,,,,,,,,,,,,,,,,,,,,700.6655202000402,None,,,,,,,,,,,,,,,,,,,,,,,,,,,,,,,,,,,,,,,,,,,,,,,,,,,,,,,,,butter,43,54,silent,old,yellow,699.5746384998783,None,y,699.5746384998783,None,"['y', 'return']","[0.9331565999891609, 1.0533058000728488]",699.5746384998783,None,,,95,001,2023_Sep_06_1158,ExactRep-v3-final,2021.2.3,59.937305547578696,
,,,,,,,,,,,,54,0,54,0,,,,,,,,,,,,,,,,,,,,,,,,,,,,,,,,,,,,,,,,,,,,,,,,,702.3669590000063,None,,,,,,,,,,,,,,,,,,,,,,,,,,,,,,,,,,,,,,,,,,,,,,,,,,,,,,,,,method,210,55,aloud,new,yellow,701.1961733000353,None,y,701.1961733000353,None,"['y', 'return']","[0.9995744999032468, 1.1357070999220014]",701.1961733000353,None,,,95,001,2023_Sep_06_1158,ExactRep-v3-final,2021.2.3,59.937305547578696,
,,,,,,,,,,,,55,0,55,0,,,,,,,,,,,,,,,,,,,,,,,,,,,,,,,,,,,,,,,,,,,,,,,,,705.1537323000375,None,,,,,,,,,,,,,,,,,,,,,,,,,,,,,,,,,,,,,,,,,,,,,,,,,,,,,,,,,library,42,56,silent,old,yellow,702.8678186999168,None,n,702.8678186999168,None,"['n', 'return']","[1.9920022001024336, 2.239892200101167]",702.8678186999168,None,,,95,001,2023_Sep_06_1158,ExactRep-v3-final,2021.2.3,59.937305547578696,
,,,,,,,,,,,,56,0,56,0,,,,,,,,,,,,,,,,,,,,,,,,,,,,,,,,,,,,,,,,,,,,,,,,,706.5877274998929,None,,,,,,,,,,,,,,,,,,,,,,,,,,,,,,,,,,,,,,,,,,,,,,,,,,,,,,,,,flag,144,57,silent,new,yellow,705.6705986000597,None,n,705.6705986000597,None,"['n', 'return']","[0.7091678001452237, 0.8692715000361204]",705.6705986000597,None,,,95,001,2023_Sep_06_1158,ExactRep-v3-final,2021.2.3,59.937305547578696,
,,,,,,,,,,,,57,0,57,0,,,,,,,,,,,,,,,,,,,,,,,,,,,,,,,,,,,,,,,,,,,,,,,,,708.7398290000856,None,,,,,,,,,,,,,,,,,,,,,,,,,,,,,,,,,,,,,,,,,,,,,,,,,,,,,,,,,circle,219,58,sing,new,yellow,707.0886568999849,None,n,707.0886568999849,None,"['n', 'return']","[1.419113100040704, 1.6031332998536527]",707.0886568999849,None,,,95,001,2023_Sep_06_1158,ExactRep-v3-final,2021.2.3,59.937305547578696,
,,,,,,,,,,,,58,0,58,0,,,,,,,,,,,,,,,,,,,,,,,,,,,,,,,,,,,,,,,,,,,,,,,,,710.4585581000429,None,,,,,,,,,,,,,,,,,,,,,,,,,,,,,,,,,,,,,,,,,,,,,,,,,,,,,,,,,ticket,81,59,aloud,old,yellow,709.2410933000501,None,n,709.2410933000501,None,"['n', 'return']","[0.938815499888733, 1.1707019999157637]",709.2410933000501,None,,,95,001,2023_Sep_06_1158,ExactRep-v3-final,2021.2.3,59.937305547578696,
,,,,,,,,,,,,59,0,59,0,,,,,,,,,,,,,,,,,,,,,,,,,,,,,,,,,,,,,,,,,,,,,,,,,712.0119077998679,None,,,,,,,,,,,,,,,,,,,,,,,,,,,,,,,,,,,,,,,,,,,,,,,,,,,,,,,,,water,143,60,silent,new,yellow,710.9601737998892,None,y,710.9601737998892,None,"['y', 'return']","[0.8118250998668373, 1.0037345997989178]",710.9601737998892,None,,,95,001,2023_Sep_06_1158,ExactRep-v3-final,2021.2.3,59.937305547578696,
,,,,,,,,,,,,60,0,60,0,,,,,,,,,,,,,,,,,,,,,,,,,,,,,,,,,,,,,,,,,,,,,,,,,713.4115021000616,None,,,,,,,,,,,,,,,,,,,,,,,,,,,,,,,,,,,,,,,,,,,,,,,,,,,,,,,,,safety,171,61,sing,new,yellow,712.5353703999426,None,n,712.5353703999426,None,"['n', 'return']","[0.6924038999713957, 0.8364919999148697]",712.5353703999426,None,,,95,001,2023_Sep_06_1158,ExactRep-v3-final,2021.2.3,59.937305547578696,
,,,,,,,,,,,,61,0,61,0,,,,,,,,,,,,,,,,,,,,,,,,,,,,,,,,,,,,,,,,,,,,,,,,,716.5304735000245,None,,,,,,,,,,,,,,,,,,,,,,,,,,,,,,,,,,,,,,,,,,,,,,,,,,,,,,,,,opinion,77,62,silent,old,yellow,713.9205905999988,None,y,713.9205905999988,None,"['y', 'return']","[2.4191990999970585, 2.5632623001001775]",713.9205905999988,None,,,95,001,2023_Sep_06_1158,ExactRep-v3-final,2021.2.3,59.937305547578696,
,,,,,,,,,,,,62,0,62,0,,,,,,,,,,,,,,,,,,,,,,,,,,,,,,,,,,,,,,,,,,,,,,,,,720.0855821999721,None,,,,,,,,,,,,,,,,,,,,,,,,,,,,,,,,,,,,,,,,,,,,,,,,,,,,,,,,,product,153,63,silent,new,yellow,717.0453015998937,None,y,717.0453015998937,None,"['y', 'return']","[2.8145015998743474, 2.9985809000208974]",717.0453015998937,None,,,95,001,2023_Sep_06_1158,ExactRep-v3-final,2021.2.3,59.937305547578696,
,,,,,,,,,,,,63,0,63,0,,,,,,,,,,,,,,,,,,,,,,,,,,,,,,,,,,,,,,,,,,,,,,,,,721.5368274999782,None,,,,,,,,,,,,,,,,,,,,,,,,,,,,,,,,,,,,,,,,,,,,,,,,,,,,,,,,,lip,189,64,sing,new,yellow,720.6079424000345,None,n,720.6079424000345,None,"['n', 'return']","[0.7478946000337601, 0.8921175000723451]",720.6079424000345,None,,,95,001,2023_Sep_06_1158,ExactRep-v3-final,2021.2.3,59.937305547578696,
,,,,,,,,,,,,64,0,64,0,,,,,,,,,,,,,,,,,,,,,,,,,,,,,,,,,,,,,,,,,,,,,,,,,723.3544926999602,None,,,,,,,,,,,,,,,,,,,,,,,,,,,,,,,,,,,,,,,,,,,,,,,,,,,,,,,,,wife,138,65,silent,new,yellow,722.0537596999202,None,y,722.0537596999202,None,"['y', 'return']","[1.1660685997921973, 1.2620192999020219]",722.0537596999202,None,,,95,001,2023_Sep_06_1158,ExactRep-v3-final,2021.2.3,59.937305547578696,
,,,,,,,,,,,,65,0,65,0,,,,,,,,,,,,,,,,,,,,,,,,,,,,,,,,,,,,,,,,,,,,,,,,,724.872618699912,None,,,,,,,,,,,,,,,,,,,,,,,,,,,,,,,,,,,,,,,,,,,,,,,,,,,,,,,,,pole,60,66,silent,old,yellow,723.855677699903,None,y,723.855677699903,None,"['y', 'return']","[0.8440886000171304, 0.9723410999868065]",723.855677699903,None,,,95,001,2023_Sep_06_1158,ExactRep-v3-final,2021.2.3,59.937305547578696,
,,,,,,,,,,,,66,0,66,0,,,,,,,,,,,,,,,,,,,,,,,,,,,,,,,,,,,,,,,,,,,,,,,,,726.5409248000942,None,,,,,,,,,,,,,,,,,,,,,,,,,,,,,,,,,,,,,,,,,,,,,,,,,,,,,,,,,cottage,67,67,silent,old,yellow,725.374797699973,None,y,725.374797699973,None,"['y', 'return']","[0.997034499887377, 1.1250741998665035]",725.374797699973,None,,,95,001,2023_Sep_06_1158,ExactRep-v3-final,2021.2.3,59.937305547578696,
,,,,,,,,,,,,67,0,67,0,,,,,,,,,,,,,,,,,,,,,,,,,,,,,,,,,,,,,,,,,,,,,,,,,729.0773892998695,None,,,,,,,,,,,,,,,,,,,,,,,,,,,,,,,,,,,,,,,,,,,,,,,,,,,,,,,,,bar,44,68,silent,old,yellow,727.0416204999201,None,y,727.0416204999201,None,"['y', 'return']","[1.8421716999728233, 1.9862424000166357]",727.0416204999201,None,,,95,001,2023_Sep_06_1158,ExactRep-v3-final,2021.2.3,59.937305547578696,
,,,,,,,,,,,,68,0,68,0,,,,,,,,,,,,,,,,,,,,,,,,,,,,,,,,,,,,,,,,,,,,,,,,,730.6955009000376,None,,,,,,,,,,,,,,,,,,,,,,,,,,,,,,,,,,,,,,,,,,,,,,,,,,,,,,,,,virtue,87,69,aloud,old,yellow,729.5988447999116,None,y,729.5988447999116,None,"['y', 'return']","[0.8769961998332292, 1.0611499999649823]",729.5988447999116,None,,,95,001,2023_Sep_06_1158,ExactRep-v3-final,2021.2.3,59.937305547578696,
,,,,,,,,,,,,69,0,69,0,,,,,,,,,,,,,,,,,,,,,,,,,,,,,,,,,,,,,,,,,,,,,,,,,732.4137327000499,None,,,,,,,,,,,,,,,,,,,,,,,,,,,,,,,,,,,,,,,,,,,,,,,,,,,,,,,,,justice,37,70,sing,old,yellow,731.2050113000441,None,y,731.2050113000441,None,"['y', 'return']","[1.0147511002141982, 1.166791400173679]",731.2050113000441,None,,,95,001,2023_Sep_06_1158,ExactRep-v3-final,2021.2.3,59.937305547578696,
,,,,,,,,,,,,70,0,70,0,,,,,,,,,,,,,,,,,,,,,,,,,,,,,,,,,,,,,,,,,,,,,,,,,734.9997248,None,,,,,,,,,,,,,,,,,,,,,,,,,,,,,,,,,,,,,,,,,,,,,,,,,,,,,,,,,garden,13,71,sing,old,yellow,732.930983700091,None,y,732.930983700091,None,"['y', 'return']","[1.6887234000023454, 2.0248744001146406]",732.930983700091,None,,,95,001,2023_Sep_06_1158,ExactRep-v3-final,2021.2.3,59.937305547578696,
,,,,,,,,,,,,71,0,71,0,,,,,,,,,,,,,,,,,,,,,,,,,,,,,,,,,,,,,,,,,,,,,,,,,737.4026975999586,None,,,,,,,,,,,,,,,,,,,,,,,,,,,,,,,,,,,,,,,,,,,,,,,,,,,,,,,,,friend,180,72,aloud,new,yellow,735.5055257000495,None,n,735.5055257000495,None,"['n', 'return']","[1.530255899997428, 1.858269500080496]",735.5055257000495,None,,,95,001,2023_Sep_06_1158,ExactRep-v3-final,2021.2.3,59.937305547578696,
,,,,,,,,,,,,72,0,72,0,,,,,,,,,,,,,,,,,,,,,,,,,,,,,,,,,,,,,,,,,,,,,,,,,739.0703453000169,None,,,,,,,,,,,,,,,,,,,,,,,,,,,,,,,,,,,,,,,,,,,,,,,,,,,,,,,,,bowl,182,73,aloud,new,yellow,737.9266548000742,None,n,737.9266548000742,None,"['n', 'return']","[0.909106999868527, 1.1091195000335574]",737.9266548000742,None,,,95,001,2023_Sep_06_1158,ExactRep-v3-final,2021.2.3,59.937305547578696,
,,,,,,,,,,,,73,0,73,0,,,,,,,,,,,,,,,,,,,,,,,,,,,,,,,,,,,,,,,,,,,,,,,,,740.5548852998763,None,,,,,,,,,,,,,,,,,,,,,,,,,,,,,,,,,,,,,,,,,,,,,,,,,,,,,,,,,prayer,137,74,silent,new,yellow,739.5818082999904,None,y,739.5818082999904,None,"['y', 'return']","[0.8060012001078576, 0.9340820000506938]",739.5818082999904,None,,,95,001,2023_Sep_06_1158,ExactRep-v3-final,2021.2.3,59.937305547578696,
,,,,,,,,,,,,74,0,74,0,,,,,,,,,,,,,,,,,,,,,,,,,,,,,,,,,,,,,,,,,,,,,,,,,741.8907337000128,None,,,,,,,,,,,,,,,,,,,,,,,,,,,,,,,,,,,,,,,,,,,,,,,,,,,,,,,,,passion,197,75,sing,new,yellow,741.056289399974,None,y,741.056289399974,None,"['y', 'return']","[0.6835628000553697, 0.7874811000656337]",741.056289399974,None,,,95,001,2023_Sep_06_1158,ExactRep-v3-final,2021.2.3,59.937305547578696,
,,,,,,,,,,,,75,0,75,0,,,,,,,,,,,,,,,,,,,,,,,,,,,,,,,,,,,,,,,,,,,,,,,,,743.3079466000199,None,,,,,,,,,,,,,,,,,,,,,,,,,,,,,,,,,,,,,,,,,,,,,,,,,,,,,,,,,body,36,76,sing,old,yellow,742.4062954999972,None,y,742.4062954999972,None,"['y', 'return']","[0.7335874999407679, 0.8615951999090612]",742.4062954999972,None,,,95,001,2023_Sep_06_1158,ExactRep-v3-final,2021.2.3,59.937305547578696,
,,,,,,,,,,,,76,0,76,0,,,,,,,,,,,,,,,,,,,,,,,,,,,,,,,,,,,,,,,,,,,,,,,,,744.6427247000393,None,,,,,,,,,,,,,,,,,,,,,,,,,,,,,,,,,,,,,,,,,,,,,,,,,,,,,,,,,house,83,77,aloud,old,yellow,743.8254432999529,None,y,743.8254432999529,None,"['y', 'return']","[0.594323500059545, 0.7784564001485705]",743.8254432999529,None,,,95,001,2023_Sep_06_1158,ExactRep-v3-final,2021.2.3,59.937305547578696,
,,,,,,,,,,,,77,0,77,0,,,,,,,,,,,,,,,,,,,,,,,,,,,,,,,,,,,,,,,,,,,,,,,,,745.9441996000241,None,,,,,,,,,,,,,,,,,,,,,,,,,,,,,,,,,,,,,,,,,,,,,,,,,,,,,,,,,stone,119,78,aloud,old,yellow,745.1598207000643,None,y,745.1598207000643,None,"['y', 'return']","[0.6279428999405354, 0.74005790008232]",745.1598207000643,None,,,95,001,2023_Sep_06_1158,ExactRep-v3-final,2021.2.3,59.937305547578696,
,,,,,,,,,,,,78,0,78,0,,,,,,,,,,,,,,,,,,,,,,,,,,,,,,,,,,,,,,,,,,,,,,,,,747.4288627998903,None,,,,,,,,,,,,,,,,,,,,,,,,,,,,,,,,,,,,,,,,,,,,,,,,,,,,,,,,,shadow,74,79,silent,old,yellow,746.4616207999643,None,y,746.4616207999643,None,"['y', 'return']","[0.7902333000674844, 0.9181822000537068]",746.4616207999643,None,,,95,001,2023_Sep_06_1158,ExactRep-v3-final,2021.2.3,59.937305547578696,
,,,,,,,,,,,,79,0,79,0,,,,,,,,,,,,,,,,,,,,,,,,,,,,,,,,,,,,,,,,,,,,,,,,,748.8636179999448,None,,,,,,,,,,,,,,,,,,,,,,,,,,,,,,,,,,,,,,,,,,,,,,,,,,,,,,,,,ability,166,80,aloud,new,yellow,747.9377641000319,None,n,747.9377641000319,None,"['n', 'return']","[0.7300168999936432, 0.8901482000946999]",747.9377641000319,None,,,95,001,2023_Sep_06_1158,ExactRep-v3-final,2021.2.3,59.937305547578696,
,,,,,,,,,,,,80,0,80,0,,,,,,,,,,,,,,,,,,,,,,,,,,,,,,,,,,,,,,,,,,,,,,,,,750.3814697000198,None,,,,,,,,,,,,,,,,,,,,,,,,,,,,,,,,,,,,,,,,,,,,,,,,,,,,,,,,,engine,204,81,aloud,new,yellow,749.3714582000393,None,y,749.3714582000393,None,"['y', 'return']","[0.8162812998052686, 0.9604095998220146]",749.3714582000393,None,,,95,001,2023_Sep_06_1158,ExactRep-v3-final,2021.2.3,59.937305547578696,
,,,,,,,,,,,,81,0,81,0,,,,,,,,,,,,,,,,,,,,,,,,,,,,,,,,,,,,,,,,,,,,,,,,,751.5996284999419,None,,,,,,,,,,,,,,,,,,,,,,,,,,,,,,,,,,,,,,,,,,,,,,,,,,,,,,,,,prison,89,82,aloud,old,yellow,750.8827341999859,None,y,750.8827341999859,None,"['y', 'return']","[0.5530425000470132, 0.6814115000888705]",750.8827341999859,None,,,95,001,2023_Sep_06_1158,ExactRep-v3-final,2021.2.3,59.937305547578696,
,,,,,,,,,,,,82,0,82,0,,,,,,,,,,,,,,,,,,,,,,,,,,,,,,,,,,,,,,,,,,,,,,,,,753.018879899988,None,,,,,,,,,,,,,,,,,,,,,,,,,,,,,,,,,,,,,,,,,,,,,,,,,,,,,,,,,lad,25,83,sing,old,yellow,752.1167961999308,None,y,752.1167961999308,None,"['y', 'return']","[0.7509991000406444, 0.8631042002234608]",752.1167961999308,None,,,95,001,2023_Sep_06_1158,ExactRep-v3-final,2021.2.3,59.937305547578696,
,,,,,,,,,,,,83,0,83,0,,,,,,,,,,,,,,,,,,,,,,,,,,,,,,,,,,,,,,,,,,,,,,,,,754.3525717000011,None,,,,,,,,,,,,,,,,,,,,,,,,,,,,,,,,,,,,,,,,,,,,,,,,,,,,,,,,,dust,200,84,aloud,new,yellow,753.5337867999915,None,y,753.5337867999915,None,"['y', 'return']","[0.6699479001108557, 0.7741068000905216]",753.5337867999915,None,,,95,001,2023_Sep_06_1158,ExactRep-v3-final,2021.2.3,59.937305547578696,
,,,,,,,,,,,,84,0,84,0,,,,,,,,,,,,,,,,,,,,,,,,,,,,,,,,,,,,,,,,,,,,,,,,,755.7536535998806,None,,,,,,,,,,,,,,,,,,,,,,,,,,,,,,,,,,,,,,,,,,,,,,,,,,,,,,,,,iron,230,85,aloud,new,yellow,754.8684399998747,None,n,754.8684399998747,None,"['n', 'return']","[0.6793211000040174, 0.8392587001435459]",754.8684399998747,None,,,95,001,2023_Sep_06_1158,ExactRep-v3-final,2021.2.3,59.937305547578696,
,,,,,,,,,,,,85,0,85,0,,,,,,,,,,,,,,,,,,,,,,,,,,,,,,,,,,,,,,,,,,,,,,,,,758.2228276999667,None,,,,,,,,,,,,,,,,,,,,,,,,,,,,,,,,,,,,,,,,,,,,,,,,,,,,,,,,,dawn,222,86,aloud,new,yellow,756.2714537000284,None,n,756.2714537000284,None,"['n', 'return']","[1.7562980998773128, 1.9084395999088883]",756.2714537000284,None,,,95,001,2023_Sep_06_1158,ExactRep-v3-final,2021.2.3,59.937305547578696,
,,,,,,,,,,,,86,0,86,0,,,,,,,,,,,,,,,,,,,,,,,,,,,,,,,,,,,,,,,,,,,,,,,,,759.44269419997,None,,,,,,,,,,,,,,,,,,,,,,,,,,,,,,,,,,,,,,,,,,,,,,,,,,,,,,,,,church,52,87,silent,old,yellow,758.7305570000317,None,y,758.7305570000317,None,"['y', 'return']","[0.5613128999248147, 0.6733605000190437]",758.7305570000317,None,,,95,001,2023_Sep_06_1158,ExactRep-v3-final,2021.2.3,59.937305547578696,
,,,,,,,,,,,,87,0,87,0,,,,,,,,,,,,,,,,,,,,,,,,,,,,,,,,,,,,,,,,,,,,,,,,,760.7084375000559,None,,,,,,,,,,,,,,,,,,,,,,,,,,,,,,,,,,,,,,,,,,,,,,,,,,,,,,,,,pipe,76,88,silent,old,yellow,759.957042499911,None,y,759.957042499911,None,"['y', 'return']","[0.5667700998019427, 0.7028287998400629]",759.957042499911,None,,,95,001,2023_Sep_06_1158,ExactRep-v3-final,2021.2.3,59.937305547578696,
,,,,,,,,,,,,88,0,88,0,,,,,,,,,,,,,,,,,,,,,,,,,,,,,,,,,,,,,,,,,,,,,,,,,761.9263567000162,None,,,,,,,,,,,,,,,,,,,,,,,,,,,,,,,,,,,,,,,,,,,,,,,,,,,,,,,,,heaven,108,89,aloud,old,yellow,761.2098035998642,None,y,761.2098035998642,None,"['y', 'return']","[0.5463331998325884, 0.6740910999942571]",761.2098035998642,None,,,95,001,2023_Sep_06_1158,ExactRep-v3-final,2021.2.3,59.937305547578696,
,,,,,,,,,,,,89,0,89,0,,,,,,,,,,,,,,,,,,,,,,,,,,,,,,,,,,,,,,,,,,,,,,,,,763.1613803999498,None,,,,,,,,,,,,,,,,,,,,,,,,,,,,,,,,,,,,,,,,,,,,,,,,,,,,,,,,,judge,236,90,aloud,new,yellow,762.4337166999467,None,y,762.4337166999467,None,"['y', 'return']","[0.5300598000176251, 0.6819786000996828]",762.4337166999467,None,,,95,001,2023_Sep_06_1158,ExactRep-v3-final,2021.2.3,59.937305547578696,
,,,,,,,,,,,,90,0,90,0,,,,,,,,,,,,,,,,,,,,,,,,,,,,,,,,,,,,,,,,,,,,,,,,,764.3292618999258,None,,,,,,,,,,,,,,,,,,,,,,,,,,,,,,,,,,,,,,,,,,,,,,,,,,,,,,,,,metal,202,91,aloud,new,yellow,763.6782863000408,None,y,763.6782863000408,None,"['y', 'return']","[0.4854444998782128, 0.6137838999275118]",763.6782863000408,None,,,95,001,2023_Sep_06_1158,ExactRep-v3-final,2021.2.3,59.937305547578696,
,,,,,,,,,,,,91,0,91,0,,,,,,,,,,,,,,,,,,,,,,,,,,,,,,,,,,,,,,,,,,,,,,,,,765.8806211000774,None,,,,,,,,,,,,,,,,,,,,,,,,,,,,,,,,,,,,,,,,,,,,,,,,,,,,,,,,,hall,63,92,silent,old,yellow,764.8544284999371,None,y,764.8544284999371,None,"['y', 'return']","[0.8453327999450266, 0.9813152998685837]",764.8544284999371,None,,,95,001,2023_Sep_06_1158,ExactRep-v3-final,2021.2.3,59.937305547578696,
,,,,,,,,,,,,92,0,92,0,,,,,,,,,,,,,,,,,,,,,,,,,,,,,,,,,,,,,,,,,,,,,,,,,769.9177476000041,None,,,,,,,,,,,,,,,,,,,,,,,,,,,,,,,,,,,,,,,,,,,,,,,,,,,,,,,,,theory,69,93,silent,old,yellow,766.3986068000086,None,y,766.3986068000086,None,"['y', 'return']","[3.325150999939069, 3.485159100033343]",766.3986068000086,None,,,95,001,2023_Sep_06_1158,ExactRep-v3-final,2021.2.3,59.937305547578696,
,,,,,,,,,,,,93,0,93,0,,,,,,,,,,,,,,,,,,,,,,,,,,,,,,,,,,,,,,,,,,,,,,,,,771.4192604999989,None,,,,,,,,,,,,,,,,,,,,,,,,,,,,,,,,,,,,,,,,,,,,,,,,,,,,,,,,,science,207,94,sing,new,yellow,770.419445999898,None,n,770.419445999898,None,"['n', 'return']","[0.7923423999454826, 0.952373499982059]",770.419445999898,None,,,95,001,2023_Sep_06_1158,ExactRep-v3-final,2021.2.3,59.937305547578696,
,,,,,,,,,,,,94,0,94,0,,,,,,,,,,,,,,,,,,,,,,,,,,,,,,,,,,,,,,,,,,,,,,,,,772.8711800999008,None,,,,,,,,,,,,,,,,,,,,,,,,,,,,,,,,,,,,,,,,,,,,,,,,,,,,,,,,,colony,59,95,silent,old,yellow,771.9354232000187,None,n,771.9354232000187,None,"['n', 'return']","[0.7243301998823881, 0.9003985999152064]",771.9354232000187,None,,,95,001,2023_Sep_06_1158,ExactRep-v3-final,2021.2.3,59.937305547578696,
,,,,,,,,,,,,95,0,95,0,,,,,,,,,,,,,,,,,,,,,,,,,,,,,,,,,,,,,,,,,,,,,,,,,774.0887104999274,None,,,,,,,,,,,,,,,,,,,,,,,,,,,,,,,,,,,,,,,,,,,,,,,,,,,,,,,,,valley,39,96,silent,old,yellow,773.3883891000878,None,n,773.3883891000878,None,"['n', 'return']","[0.5194173001218587, 0.6635616000276059]",773.3883891000878,None,,,95,001,2023_Sep_06_1158,ExactRep-v3-final,2021.2.3,59.937305547578696,
,,,,,,,,,,,,96,0,96,0,,,,,,,,,,,,,,,,,,,,,,,,,,,,,,,,,,,,,,,,,,,,,,,,,777.8257488999516,None,,,,,,,,,,,,,,,,,,,,,,,,,,,,,,,,,,,,,,,,,,,,,,,,,,,,,,,,,maiden,157,97,silent,new,yellow,774.6058892998844,None,y,774.6058892998844,None,"['n', 'y', 'backspace', 'y', 'return']","[0.6698884000070393, 1.4778666000347584, 2.421883499948308, 2.845859199995175, 3.1738460999913514]",774.6058892998844,None,,,95,001,2023_Sep_06_1158,ExactRep-v3-final,2021.2.3,59.937305547578696,
,,,,,,,,,,,,97,0,97,0,,,,,,,,,,,,,,,,,,,,,,,,,,,,,,,,,,,,,,,,,,,,,,,,,779.7443466999102,None,,,,,,,,,,,,,,,,,,,,,,,,,,,,,,,,,,,,,,,,,,,,,,,,,,,,,,,,,star,106,98,aloud,old,yellow,778.3300767999608,None,n,778.3300767999608,None,"['n', 'return']","[1.2176069000270218, 1.3776511000469327]",778.3300767999608,None,,,95,001,2023_Sep_06_1158,ExactRep-v3-final,2021.2.3,59.937305547578696,
,,,,,,,,,,,,98,0,98,0,,,,,,,,,,,,,,,,,,,,,,,,,,,,,,,,,,,,,,,,,,,,,,,,,781.1968378999736,None,,,,,,,,,,,,,,,,,,,,,,,,,,,,,,,,,,,,,,,,,,,,,,,,,,,,,,,,,season,3,99,sing,old,yellow,780.2697091998998,None,n,780.2697091998998,None,"['n', 'return']","[0.7101036000531167, 0.8781115999445319]",780.2697091998998,None,,,95,001,2023_Sep_06_1158,ExactRep-v3-final,2021.2.3,59.937305547578696,
,,,,,,,,,,,,99,0,99,0,,,,,,,,,,,,,,,,,,,,,,,,,,,,,,,,,,,,,,,,,,,,,,,,,782.4476663998794,None,,,,,,,,,,,,,,,,,,,,,,,,,,,,,,,,,,,,,,,,,,,,,,,,,,,,,,,,,cash,164,100,aloud,new,yellow,781.7181498000864,None,n,781.7181498000864,None,"['n', 'return']","[0.5418199999257922, 0.6938543000724167]",781.7181498000864,None,,,95,001,2023_Sep_06_1158,ExactRep-v3-final,2021.2.3,59.937305547578696,
,,,,,,,,,,,,100,0,100,0,,,,,,,,,,,,,,,,,,,,,,,,,,,,,,,,,,,,,,,,,,,,,,,,,784.0153097000439,None,,,,,,,,,,,,,,,,,,,,,,,,,,,,,,,,,,,,,,,,,,,,,,,,,,,,,,,,,fire,49,101,silent,old,yellow,782.9722287999466,None,n,782.9722287999466,None,"['n', 'return']","[0.8475284001324326, 1.0077641000971198]",782.9722287999466,None,,,95,001,2023_Sep_06_1158,ExactRep-v3-final,2021.2.3,59.937305547578696,
,,,,,,,,,,,,101,0,101,0,,,,,,,,,,,,,,,,,,,,,,,,,,,,,,,,,,,,,,,,,,,,,,,,,788.2524444998708,None,,,,,,,,,,,,,,,,,,,,,,,,,,,,,,,,,,,,,,,,,,,,,,,,,,,,,,,,,chance,99,102,aloud,old,yellow,784.5324522000737,None,n,784.5324522000737,None,"['n', 'y', 'return']","[1.423253000015393, 2.8952911000233144, 3.6793392000254244]",784.5324522000737,None,,,95,001,2023_Sep_06_1158,ExactRep-v3-final,2021.2.3,59.937305547578696,
,,,,,,,,,,,,102,0,102,0,,,,,,,,,,,,,,,,,,,,,,,,,,,,,,,,,,,,,,,,,,,,,,,,,789.8876163999084,None,,,,,,,,,,,,,,,,,,,,,,,,,,,,,,,,,,,,,,,,,,,,,,,,,,,,,,,,,author,14,103,sing,old,yellow,788.7547432999127,None,y,788.7547432999127,None,"['y', 'return']","[0.9849904999136925, 1.0891913999803364]",788.7547432999127,None,,,95,001,2023_Sep_06_1158,ExactRep-v3-final,2021.2.3,59.937305547578696,
,,,,,,,,,,,,103,0,103,0,,,,,,,,,,,,,,,,,,,,,,,,,,,,,,,,,,,,,,,,,,,,,,,,,791.0896147000603,None,,,,,,,,,,,,,,,,,,,,,,,,,,,,,,,,,,,,,,,,,,,,,,,,,,,,,,,,,avenue,224,104,aloud,new,yellow,790.3882955999579,None,y,790.3882955999579,None,"['y', 'return']","[0.5355150001123548, 0.6554028000682592]",790.3882955999579,None,,,95,001,2023_Sep_06_1158,ExactRep-v3-final,2021.2.3,59.937305547578696,
,,,,,,,,,,,,104,0,104,0,,,,,,,,,,,,,,,,,,,,,,,,,,,,,,,,,,,,,,,,,,,,,,,,,792.9065966999624,None,,,,,,,,,,,,,,,,,,,,,,,,,,,,,,,,,,,,,,,,,,,,,,,,,,,,,,,,,skin,75,105,silent,old,yellow,791.6135509999003,None,y,791.6135509999003,None,"['y', 'return']","[1.1261903999838978, 1.2543625999242067]",791.6135509999003,None,,,95,001,2023_Sep_06_1158,ExactRep-v3-final,2021.2.3,59.937305547578696,
,,,,,,,,,,,,105,0,105,0,,,,,,,,,,,,,,,,,,,,,,,,,,,,,,,,,,,,,,,,,,,,,,,,,794.3254315999802,None,,,,,,,,,,,,,,,,,,,,,,,,,,,,,,,,,,,,,,,,,,,,,,,,,,,,,,,,,diamond,98,106,aloud,old,yellow,793.4151759999804,None,y,793.4151759999804,None,"['y', 'return']","[0.7326573999598622, 0.8607238000258803]",793.4151759999804,None,,,95,001,2023_Sep_06_1158,ExactRep-v3-final,2021.2.3,59.937305547578696,
,,,,,,,,,,,,106,0,106,0,,,,,,,,,,,,,,,,,,,,,,,,,,,,,,,,,,,,,,,,,,,,,,,,,797.1617431999184,None,,,,,,,,,,,,,,,,,,,,,,,,,,,,,,,,,,,,,,,,,,,,,,,,,,,,,,,,,history,181,107,sing,new,yellow,794.8397601000033,None,y,794.8397601000033,None,"['y', 'return']","[1.2280365000478923, 2.2839724000077695]",794.8397601000033,None,,,95,001,2023_Sep_06_1158,ExactRep-v3-final,2021.2.3,59.937305547578696,
,,,,,,,,,,,,107,0,107,0,,,,,,,,,,,,,,,,,,,,,,,,,,,,,,,,,,,,,,,,,,,,,,,,,799.5646426000167,None,,,,,,,,,,,,,,,,,,,,,,,,,,,,,,,,,,,,,,,,,,,,,,,,,,,,,,,,,chief,158,108,silent,new,yellow,797.6709421998821,None,n,797.6709421998821,None,"['n', 'return']","[1.4288735000882298, 1.8528106999583542]",797.6709421998821,None,,,95,001,2023_Sep_06_1158,ExactRep-v3-final,2021.2.3,59.937305547578696,
,,,,,,,,,,,,108,0,108,0,,,,,,,,,,,,,,,,,,,,,,,,,,,,,,,,,,,,,,,,,,,,,,,,,800.9808209000621,None,,,,,,,,,,,,,,,,,,,,,,,,,,,,,,,,,,,,,,,,,,,,,,,,,,,,,,,,,shoes,79,109,sing,old,yellow,800.0928412999492,None,n,800.0928412999492,None,"['n', 'return']","[0.719210600014776, 0.8550265000667423]",800.0928412999492,None,,,95,001,2023_Sep_06_1158,ExactRep-v3-final,2021.2.3,59.937305547578696,
,,,,,,,,,,,,109,0,109,0,,,,,,,,,,,,,,,,,,,,,,,,,,,,,,,,,,,,,,,,,,,,,,,,,802.4670784999616,None,,,,,,,,,,,,,,,,,,,,,,,,,,,,,,,,,,,,,,,,,,,,,,,,,,,,,,,,,volume,113,110,aloud,old,yellow,801.4842920999508,None,n,801.4842920999508,None,"['n', 'return']","[0.8074517999775708, 0.9434413998387754]",801.4842920999508,None,,,95,001,2023_Sep_06_1158,ExactRep-v3-final,2021.2.3,59.937305547578696,
,,,,,,,,,,,,110,0,110,0,,,,,,,,,,,,,,,,,,,,,,,,,,,,,,,,,,,,,,,,,,,,,,,,,804.0017591998912,None,,,,,,,,,,,,,,,,,,,,,,,,,,,,,,,,,,,,,,,,,,,,,,,,,,,,,,,,,girl,131,111,silent,new,yellow,802.9714271000121,None,n,802.9714271000121,None,"['n', 'return']","[0.8483818999957293, 0.992320500081405]",802.9714271000121,None,,,95,001,2023_Sep_06_1158,ExactRep-v3-final,2021.2.3,59.937305547578696,
,,,,,,,,,,,,111,0,111,0,,,,,,,,,,,,,,,,,,,,,,,,,,,,,,,,,,,,,,,,,,,,,,,,,805.3698887000792,None,,,,,,,,,,,,,,,,,,,,,,,,,,,,,,,,,,,,,,,,,,,,,,,,,,,,,,,,,rod,112,112,aloud,old,yellow,804.5126370999496,None,y,804.5126370999496,None,"['y', 'return']","[0.6751503001432866, 0.8111918000504375]",804.5126370999496,None,,,95,001,2023_Sep_06_1158,ExactRep-v3-final,2021.2.3,59.937305547578696,
,,,,,,,,,,,,112,0,112,0,,,,,,,,,,,,,,,,,,,,,,,,,,,,,,,,,,,,,,,,,,,,,,,,,806.7713250999805,None,,,,,,,,,,,,,,,,,,,,,,,,,,,,,,,,,,,,,,,,,,,,,,,,,,,,,,,,,coast,28,113,sing,old,yellow,805.8715810999274,None,y,805.8715810999274,None,"['y', 'return']","[0.764402800006792, 0.8601587999146432]",805.8715810999274,None,,,95,001,2023_Sep_06_1158,ExactRep-v3-final,2021.2.3,59.937305547578696,
,,,,,,,,,,,,113,0,113,0,,,,,,,,,,,,,,,,,,,,,,,,,,,,,,,,,,,,,,,,,,,,,,,,,808.6230013999157,None,,,,,,,,,,,,,,,,,,,,,,,,,,,,,,,,,,,,,,,,,,,,,,,,,,,,,,,,,square,91,114,aloud,old,yellow,807.2807970000431,None,y,807.2807970000431,None,"['y', 'return']","[0.8029555999673903, 1.3071695000398904]",807.2807970000431,None,,,95,001,2023_Sep_06_1158,ExactRep-v3-final,2021.2.3,59.937305547578696,
,,,,,,,,,,,,114,0,114,0,,,,,,,,,,,,,,,,,,,,,,,,,,,,,,,,,,,,,,,,,,,,,,,,,809.9410383999348,None,,,,,,,,,,,,,,,,,,,,,,,,,,,,,,,,,,,,,,,,,,,,,,,,,,,,,,,,,table,195,115,sing,new,yellow,809.1345875998959,None,y,809.1345875998959,None,"['y', 'return']","[0.5972233000211418, 0.7652424999978393]",809.1345875998959,None,,,95,001,2023_Sep_06_1158,ExactRep-v3-final,2021.2.3,59.937305547578696,
,,,,,,,,,,,,115,0,115,0,,,,,,,,,,,,,,,,,,,,,,,,,,,,,,,,,,,,,,,,,,,,,,,,,811.3424956998788,None,,,,,,,,,,,,,,,,,,,,,,,,,,,,,,,,,,,,,,,,,,,,,,,,,,,,,,,,,queen,233,116,sing,new,yellow,810.442747599911,None,y,810.442747599911,None,"['y', 'return']","[0.7369277002289891, 0.8650729001965374]",810.442747599911,None,,,95,001,2023_Sep_06_1158,ExactRep-v3-final,2021.2.3,59.937305547578696,
,,,,,,,,,,,,116,0,116,0,,,,,,,,,,,,,,,,,,,,,,,,,,,,,,,,,,,,,,,,,,,,,,,,,813.0246991999447,None,,,,,,,,,,,,,,,,,,,,,,,,,,,,,,,,,,,,,,,,,,,,,,,,,,,,,,,,,answer,123,117,silent,new,yellow,811.8436133000068,None,y,811.8436133000068,None,"['y', 'return']","[0.7840573999565095, 1.1201460000593215]",811.8436133000068,None,,,95,001,2023_Sep_06_1158,ExactRep-v3-final,2021.2.3,59.937305547578696,
,,,,,,,,,,,,117,0,117,0,,,,,,,,,,,,,,,,,,,,,,,,,,,,,,,,,,,,,,,,,,,,,,,,,814.2624717999715,None,,,,,,,,,,,,,,,,,,,,,,,,,,,,,,,,,,,,,,,,,,,,,,,,,,,,,,,,,plain,26,118,sing,old,yellow,813.52844429994,None,y,813.52844429994,None,"['y', 'return']","[0.5872293999418616, 0.6913816998712718]",813.52844429994,None,,,95,001,2023_Sep_06_1158,ExactRep-v3-final,2021.2.3,59.937305547578696,
,,,,,,,,,,,,118,0,118,0,,,,,,,,,,,,,,,,,,,,,,,,,,,,,,,,,,,,,,,,,,,,,,,,,815.8476672000252,None,,,,,,,,,,,,,,,,,,,,,,,,,,,,,,,,,,,,,,,,,,,,,,,,,,,,,,,,,earth,231,119,sing,new,yellow,814.7793193000834,None,n,814.7793193000834,None,"['n', 'return']","[0.8563860000576824, 1.0244648999068886]",814.7793193000834,None,,,95,001,2023_Sep_06_1158,ExactRep-v3-final,2021.2.3,59.937305547578696,
,,,,,,,,,,,,119,0,119,0,,,,,,,,,,,,,,,,,,,,,,,,,,,,,,,,,,,,,,,,,,,,,,,,,817.3994956000242,None,,,,,,,,,,,,,,,,,,,,,,,,,,,,,,,,,,,,,,,,,,,,,,,,,,,,,,,,,door,238,120,aloud,new,yellow,816.3637657999061,None,n,816.3637657999061,None,"['n', 'return']","[0.8799358999822289, 1.0000531000550836]",816.3637657999061,None,,,95,001,2023_Sep_06_1158,ExactRep-v3-final,2021.2.3,59.937305547578696,
,,,,,,,,,,,,120,0,120,0,,,,,,,,,,,,,,,,,,,,,,,,,,,,,,,,,,,,,,,,,,,,,,,,,818.8669461000245,None,,,,,,,,,,,,,,,,,,,,,,,,,,,,,,,,,,,,,,,,,,,,,,,,,,,,,,,,,mind,216,121,aloud,new,yellow,817.9146692999639,None,n,817.9146692999639,None,"['n', 'return']","[0.7770690000616014, 0.9050853999797255]",817.9146692999639,None,,,95,001,2023_Sep_06_1158,ExactRep-v3-final,2021.2.3,59.937305547578696,
,,,,,,,,,,,,121,0,121,0,,,,,,,,,,,,,,,,,,,,,,,,,,,,,,,,,,,,,,,,,,,,,,,,,820.5854408999439,None,,,,,,,,,,,,,,,,,,,,,,,,,,,,,,,,,,,,,,,,,,,,,,,,,,,,,,,,,fun,217,122,sing,new,yellow,819.3857203000225,None,n,819.3857203000225,None,"['n', 'return']","[1.018043200019747, 1.1622959000524133]",819.3857203000225,None,,,95,001,2023_Sep_06_1158,ExactRep-v3-final,2021.2.3,59.937305547578696,
,,,,,,,,,,,,122,0,122,0,,,,,,,,,,,,,,,,,,,,,,,,,,,,,,,,,,,,,,,,,,,,,,,,,821.8196260998957,None,,,,,,,,,,,,,,,,,,,,,,,,,,,,,,,,,,,,,,,,,,,,,,,,,,,,,,,,,tool,12,123,sing,old,yellow,821.1022369000129,None,y,821.1022369000129,None,"['y', 'return']","[0.5735205998644233, 0.6776748998090625]",821.1022369000129,None,,,95,001,2023_Sep_06_1158,ExactRep-v3-final,2021.2.3,59.937305547578696,
,,,,,,,,,,,,123,0,123,0,,,,,,,,,,,,,,,,,,,,,,,,,,,,,,,,,,,,,,,,,,,,,,,,,823.587727899896,None,,,,,,,,,,,,,,,,,,,,,,,,,,,,,,,,,,,,,,,,,,,,,,,,,,,,,,,,,shore,8,124,sing,old,yellow,822.3338756000157,None,y,822.3338756000157,None,"['y', 'return']","[1.0538182999007404, 1.2059679999947548]",822.3338756000157,None,,,95,001,2023_Sep_06_1158,ExactRep-v3-final,2021.2.3,59.937305547578696,
,,,,,,,,,,,,124,0,124,0,,,,,,,,,,,,,,,,,,,,,,,,,,,,,,,,,,,,,,,,,,,,,,,,,825.1398324999027,None,,,,,,,,,,,,,,,,,,,,,,,,,,,,,,,,,,,,,,,,,,,,,,,,,,,,,,,,,green,114,125,aloud,old,yellow,824.0959353998769,None,n,824.0959353998769,None,"['n', 'return']","[0.8357836999930441, 0.9958885000087321]",824.0959353998769,None,,,95,001,2023_Sep_06_1158,ExactRep-v3-final,2021.2.3,59.937305547578696,
,,,,,,,,,,,,125,0,125,0,,,,,,,,,,,,,,,,,,,,,,,,,,,,,,,,,,,,,,,,,,,,,,,,,826.7254810000304,None,,,,,,,,,,,,,,,,,,,,,,,,,,,,,,,,,,,,,,,,,,,,,,,,,,,,,,,,,flower,121,126,silent,new,yellow,825.649681000039,None,n,825.649681000039,None,"['n', 'return']","[0.890031699789688, 1.0260552999097854]",825.649681000039,None,,,95,001,2023_Sep_06_1158,ExactRep-v3-final,2021.2.3,59.937305547578696,
,,,,,,,,,,,,126,0,126,0,,,,,,,,,,,,,,,,,,,,,,,,,,,,,,,,,,,,,,,,,,,,,,,,,828.4096768999007,None,,,,,,,,,,,,,,,,,,,,,,,,,,,,,,,,,,,,,,,,,,,,,,,,,,,,,,,,,hide,221,127,sing,new,yellow,827.2480573998764,None,n,827.2480573998764,None,"['n', 'return']","[1.027692399919033, 1.1236541999969631]",827.2480573998764,None,,,95,001,2023_Sep_06_1158,ExactRep-v3-final,2021.2.3,59.937305547578696,
,,,,,,,,,,,,127,0,127,0,,,,,,,,,,,,,,,,,,,,,,,,,,,,,,,,,,,,,,,,,,,,,,,,,829.8945112999063,None,,,,,,,,,,,,,,,,,,,,,,,,,,,,,,,,,,,,,,,,,,,,,,,,,,,,,,,,,honour,124,128,silent,new,yellow,828.9268294000067,None,y,828.9268294000067,None,"['y', 'return']","[0.8048369998577982, 0.9328185999765992]",828.9268294000067,None,,,95,001,2023_Sep_06_1158,ExactRep-v3-final,2021.2.3,59.937305547578696,
,,,,,,,,,,,,128,0,128,0,,,,,,,,,,,,,,,,,,,,,,,,,,,,,,,,,,,,,,,,,,,,,,,,,833.1644939999096,None,,,,,,,,,,,,,,,,,,,,,,,,,,,,,,,,,,,,,,,,,,,,,,,,,,,,,,,,,window,161,129,sing,new,yellow,830.3955620999914,None,n,830.3955620999914,None,"['n', 'return']","[2.5042100998107344, 2.7282078999560326]",830.3955620999914,None,,,95,001,2023_Sep_06_1158,ExactRep-v3-final,2021.2.3,59.937305547578696,
,,,,,,,,,,,,129,0,129,0,,,,,,,,,,,,,,,,,,,,,,,,,,,,,,,,,,,,,,,,,,,,,,,,,834.7659946000203,None,,,,,,,,,,,,,,,,,,,,,,,,,,,,,,,,,,,,,,,,,,,,,,,,,,,,,,,,,air,11,130,sing,old,yellow,833.6713914000429,None,n,833.6713914000429,None,"['n', 'return']","[0.9482646000105888, 1.060324399964884]",833.6713914000429,None,,,95,001,2023_Sep_06_1158,ExactRep-v3-final,2021.2.3,59.937305547578696,
,,,,,,,,,,,,130,0,130,0,,,,,,,,,,,,,,,,,,,,,,,,,,,,,,,,,,,,,,,,,,,,,,,,,836.3674220000394,None,,,,,,,,,,,,,,,,,,,,,,,,,,,,,,,,,,,,,,,,,,,,,,,,,,,,,,,,,duty,130,131,silent,new,yellow,835.2725849000271,None,n,835.2725849000271,None,"['n', 'return']","[0.7230979998130351, 1.0593734998255968]",835.2725849000271,None,,,95,001,2023_Sep_06_1158,ExactRep-v3-final,2021.2.3,59.937305547578696,
,,,,,,,,,,,,131,0,131,0,,,,,,,,,,,,,,,,,,,,,,,,,,,,,,,,,,,,,,,,,,,,,,,,,837.6188129000366,None,,,,,,,,,,,,,,,,,,,,,,,,,,,,,,,,,,,,,,,,,,,,,,,,,,,,,,,,,boy,133,132,silent,new,yellow,836.8684135999065,None,n,836.8684135999065,None,"['n', 'return']","[0.5913146999664605, 0.7114625999238342]",836.8684135999065,None,,,95,001,2023_Sep_06_1158,ExactRep-v3-final,2021.2.3,59.937305547578696,
