trials_fam.thisRepN,trials_fam.thisTrialN,trials_fam.thisN,trials_fam.thisIndex,trials_prc.thisRepN,trials_prc.thisTrialN,trials_prc.thisN,trials_prc.thisIndex,StudyLoop.thisRepN,StudyLoop.thisTrialN,StudyLoop.thisN,StudyLoop.thisIndex,TestLoop.thisRepN,TestLoop.thisTrialN,TestLoop.thisN,TestLoop.thisIndex,text_colortest.started,text_colortest.stopped,key_colortest.keys,key_colortest.rt,key_colortest.started,key_colortest.stopped,textCondition.started,textCondition.stopped,keyCondition.keys,keyCondition.rt,keyCondition.started,keyCondition.stopped,Condition_between,Condition_counterbal,keyWelcome.keys,keyWelcome.rt,keyWelcome.started,keyWelcome.stopped,welcome_a.started,welcome_a.stopped,welcome_b.started,welcome_b.stopped,welcome_c.started,welcome_c.stopped,welcome_d.started,welcome_d.stopped,welcome_e.started,welcome_e.stopped,welcome_f.started,welcome_f.stopped,key_resp_fam_inst.keys,key_resp_fam_inst.rt,key_resp_fam_inst.started,key_resp_fam_inst.stopped,fam_a.started,fam_a.stopped,fam_b.started,fam_b.stopped,fam_c.started,fam_c.stopped,fam_d.started,fam_d.stopped,fam_e.started,fam_e.stopped,fam_f.started,fam_f.stopped,text_famil.started,text_famil.stopped,textBlank500.started,textBlank500.stopped,key_resp_prc_inst.keys,key_resp_prc_inst.rt,key_resp_prc_inst.started,key_resp_prc_inst.stopped,prac_a.started,prac_a.stopped,prac_b.started,prac_b.stopped,prac_c.started,prac_c.stopped,prac_d.started,prac_d.stopped,prac_e.started,prac_e.stopped,prac_f.started,prac_f.stopped,text_prc_trial.started,text_prc_trial.stopped,key_resp_study_inst.keys,key_resp_study_inst.rt,key_resp_study_inst.started,key_resp_study_inst.stopped,crit_a.started,crit_a.stopped,crit_b.started,crit_b.stopped,crit_c.started,crit_c.stopped,crit_d.started,crit_d.stopped,crit_e.started,crit_e.stopped,crit_f.started,crit_f.stopped,study_word,study_num,study_order,study_type,word_color,textStudy.started,textStudy.stopped,keyStudy.keys,keyStudy.started,keyStudy.stopped,post_study.started,post_study.stopped,key_resp_post_study.keys,key_resp_post_study.rt,key_resp_post_study.started,key_resp_post_study.stopped,test_inst.started,test_inst.stopped,key_resp_test_inst.keys,key_resp_test_inst.rt,key_resp_test_inst.started,key_resp_test_inst.stopped,test_word,test_num,test_order,test_condition,old_new_test,word_color_test,textConf.started,textConf.stopped,Participant Response,textInput.started,textInput.stopped,keyResp.keys,keyResp.rt,keyResp.started,keyResp.stopped,textEnd.started,textEnd.stopped,participant,session,date,expName,psychopyVersion,frameRate,
,,,,,,,,,,,,,,,,70.32377419993281,None,n,1.4959126999601722,70.32377419993281,None,,,,,,,,,,,,,,,,,,,,,,,,,,,,,,,,,,,,,,,,,,,,,,,,,,,,,,,,,,,,,,,,,,,,,,,,,,,,,,,,,,,,,,,,,,,,,,,,,,,,,,,,,,,,,,,,,,,,,,96NF,001,2023_Sep_07_0846,ExactRep-v3-final,2021.2.3,59.98735468108056,
,,,,,,,,,,,,,,,,,,,,,,71.84559380006976,None,f,2.0220625000074506,71.84559380006976,None,,,,,,,,,,,,,,,,,,,,,,,,,,,,,,,,,,,,,,,,,,,,,,,,,,,,,,,,,,,,,,,,,,,,,,,,,,,,,,,,,,,,,,,,,,,,,,,,,,,,,,,,,,,,,,,,96NF,001,2023_Sep_07_0846,ExactRep-v3-final,2021.2.3,59.98735468108056,
,,,,,,,,,,,,,,,,,,,,,,,,,,,,whitefoils,f,space,1768.9134351999965,84.03352389996871,None,,,,,,,,,,,,,,,,,,,,,,,,,,,,,,,,,,,,,,,,,,,,,,,,,,,,,,,,,,,,,,,,,,,,,,,,,,,,,,,,,,,,,,,,,,,,,,,,,,,,,,,,,,96NF,001,2023_Sep_07_0846,ExactRep-v3-final,2021.2.3,59.98735468108056,
,,,,,,,,,,,,,,,,,,,,,,,,,,,,,,,,,,74.07837189990096,None,74.07837189990096,None,74.07837189990096,None,74.07837189990096,None,74.07837189990096,None,74.07837189990096,None,space,22.235954399919137,1863.167037300067,None,,,,,,,,,,,,,,,,,,,,,,,,,,,,,,,,,,,,,,,,,,,,,,,,,,,,,,,,,,,,,,,,,,,,,,,,,,,,,,,,,,,,,,,,,,96NF,001,2023_Sep_07_0846,ExactRep-v3-final,2021.2.3,59.98735468108056,
0,0,0,0,,,,,,,,,,,,,,,,,,,,,,,,,,,,,,,,,,,,,,,,,,,,,,,1853.1462785999756,None,1853.1462785999756,None,1853.1462785999756,None,1853.1462785999756,None,1853.1462785999756,None,1853.1462785999756,None,1885.514289200073,None,1887.509158599889,None,,,,,,,,,,,,,,,,,,,,,,,,,,,,,,,,,,,,,,,,,,,,,,,,,,,,,,,,,,,,,,,,,,,,,,,,,,96NF,001,2023_Sep_07_0846,ExactRep-v3-final,2021.2.3,59.98735468108056,
1,0,1,0,,,,,,,,,,,,,,,,,,,,,,,,,,,,,,,,,,,,,,,,,,,,,,,,,,,,,,,,,,,1888.0078108001035,None,1890.0116512998939,None,,,,,,,,,,,,,,,,,,,,,,,,,,,,,,,,,,,,,,,,,,,,,,,,,,,,,,,,,,,,,,,,,,,,,,,,,,96NF,001,2023_Sep_07_0846,ExactRep-v3-final,2021.2.3,59.98735468108056,
2,0,2,0,,,,,,,,,,,,,,,,,,,,,,,,,,,,,,,,,,,,,,,,,,,,,,,,,,,,,,,,,,,1890.5190489001106,None,1892.5312520000152,None,,,,,,,,,,,,,,,,,,,,,,,,,,,,,,,,,,,,,,,,,,,,,,,,,,,,,,,,,,,,,,,,,,,,,,,,,,96NF,001,2023_Sep_07_0846,ExactRep-v3-final,2021.2.3,59.98735468108056,
3,0,3,0,,,,,,,,,,,,,,,,,,,,,,,,,,,,,,,,,,,,,,,,,,,,,,,,,,,,,,,,,,,1893.0314178001136,None,1895.0335391999688,None,,,,,,,,,,,,,,,,,,,,,,,,,,,,,,,,,,,,,,,,,,,,,,,,,,,,,,,,,,,,,,,,,,,,,,,,,,96NF,001,2023_Sep_07_0846,ExactRep-v3-final,2021.2.3,59.98735468108056,
4,0,4,0,,,,,,,,,,,,,,,,,,,,,,,,,,,,,,,,,,,,,,,,,,,,,,,,,,,,,,,,,,,1895.5338395000435,None,1897.5357301998883,None,,,,,,,,,,,,,,,,,,,,,,,,,,,,,,,,,,,,,,,,,,,,,,,,,,,,,,,,,,,,,,,,,,,,,,,,,,96NF,001,2023_Sep_07_0846,ExactRep-v3-final,2021.2.3,59.98735468108056,
5,0,5,0,,,,,,,,,,,,,,,,,,,,,,,,,,,,,,,,,,,,,,,,,,,,,,,,,,,,,,,,,,,1898.0366966000292,None,1900.0384301999584,None,,,,,,,,,,,,,,,,,,,,,,,,,,,,,,,,,,,,,,,,,,,,,,,,,,,,,,,,,,,,,,,,,,,,,,,,,,96NF,001,2023_Sep_07_0846,ExactRep-v3-final,2021.2.3,59.98735468108056,
6,0,6,0,,,,,,,,,,,,,,,,,,,,,,,,,,,,,,,,,,,,,,,,,,,,,,,,,,,,,,,,,,,1900.5385328999255,None,1902.540672800038,None,,,,,,,,,,,,,,,,,,,,,,,,,,,,,,,,,,,,,,,,,,,,,,,,,,,,,,,,,,,,,,,,,,,,,,,,,,96NF,001,2023_Sep_07_0846,ExactRep-v3-final,2021.2.3,59.98735468108056,
7,0,7,0,,,,,,,,,,,,,,,,,,,,,,,,,,,,,,,,,,,,,,,,,,,,,,,,,,,,,,,,,,,1903.0454482000787,None,1905.060072900029,None,,,,,,,,,,,,,,,,,,,,,,,,,,,,,,,,,,,,,,,,,,,,,,,,,,,,,,,,,,,,,,,,,,,,,,,,,,96NF,001,2023_Sep_07_0846,ExactRep-v3-final,2021.2.3,59.98735468108056,
8,0,8,0,,,,,,,,,,,,,,,,,,,,,,,,,,,,,,,,,,,,,,,,,,,,,,,,,,,,,,,,,,,1905.5606645001099,None,1907.5625444999896,None,,,,,,,,,,,,,,,,,,,,,,,,,,,,,,,,,,,,,,,,,,,,,,,,,,,,,,,,,,,,,,,,,,,,,,,,,,96NF,001,2023_Sep_07_0846,ExactRep-v3-final,2021.2.3,59.98735468108056,
9,0,9,0,,,,,,,,,,,,,,,,,,,,,,,,,,,,,,,,,,,,,,,,,,,,,,,,,,,,,,,,,,,1908.0667659000028,None,1910.0819347999059,None,,,,,,,,,,,,,,,,,,,,,,,,,,,,,,,,,,,,,,,,,,,,,,,,,,,,,,,,,,,,,,,,,,,,,,,,,,96NF,001,2023_Sep_07_0846,ExactRep-v3-final,2021.2.3,59.98735468108056,
10,0,10,0,,,,,,,,,,,,,,,,,,,,,,,,,,,,,,,,,,,,,,,,,,,,,,,,,,,,,,,,,,,1910.5841961000115,None,1912.5844447000418,None,,,,,,,,,,,,,,,,,,,,,,,,,,,,,,,,,,,,,,,,,,,,,,,,,,,,,,,,,,,,,,,,,,,,,,,,,,96NF,001,2023_Sep_07_0846,ExactRep-v3-final,2021.2.3,59.98735468108056,
11,0,11,0,,,,,,,,,,,,,,,,,,,,,,,,,,,,,,,,,,,,,,,,,,,,,,,,,,,,,,,,,,,1913.0875615999103,None,1915.0868772999384,None,,,,,,,,,,,,,,,,,,,,,,,,,,,,,,,,,,,,,,,,,,,,,,,,,,,,,,,,,,,,,,,,,,,,,,,,,,96NF,001,2023_Sep_07_0846,ExactRep-v3-final,2021.2.3,59.98735468108056,
12,0,12,0,,,,,,,,,,,,,,,,,,,,,,,,,,,,,,,,,,,,,,,,,,,,,,,,,,,,,,,,,,,1915.5875442000106,None,1917.5891831000336,None,,,,,,,,,,,,,,,,,,,,,,,,,,,,,,,,,,,,,,,,,,,,,,,,,,,,,,,,,,,,,,,,,,,,,,,,,,96NF,001,2023_Sep_07_0846,ExactRep-v3-final,2021.2.3,59.98735468108056,
13,0,13,0,,,,,,,,,,,,,,,,,,,,,,,,,,,,,,,,,,,,,,,,,,,,,,,,,,,,,,,,,,,1918.0996962999925,None,1920.108338699909,None,,,,,,,,,,,,,,,,,,,,,,,,,,,,,,,,,,,,,,,,,,,,,,,,,,,,,,,,,,,,,,,,,,,,,,,,,,96NF,001,2023_Sep_07_0846,ExactRep-v3-final,2021.2.3,59.98735468108056,
14,0,14,0,,,,,,,,,,,,,,,,,,,,,,,,,,,,,,,,,,,,,,,,,,,,,,,,,,,,,,,,,,,1920.6094861999154,None,1922.61078680004,None,,,,,,,,,,,,,,,,,,,,,,,,,,,,,,,,,,,,,,,,,,,,,,,,,,,,,,,,,,,,,,,,,,,,,,,,,,96NF,001,2023_Sep_07_0846,ExactRep-v3-final,2021.2.3,59.98735468108056,
,,,,,,,,,,,,,,,,,,,,,,,,,,,,,,,,,,,,,,,,,,,,,,,,,,,,,,,,,,,,,,,,,,space,3.214553900063038,1933.1806057000067,None,,,,,,,,,,,,,,,,,,,,,,,,,,,,,,,,,,,,,,,,,,,,,,,,,,,,,,,,,,,,,,,,,,,,,,96NF,001,2023_Sep_07_0846,ExactRep-v3-final,2021.2.3,59.98735468108056,
,,,,0,0,0,0,,,,,,,,,,,,,,,,,,,,,,,,,,,,,,,,,,,,,,,,,,,,,,,,,,,,,,,,,1938.4767314998899,None,,,,,1923.23534870008,None,1923.23534870008,None,1923.23534870008,None,1923.23534870008,None,1923.23534870008,None,1923.23534870008,None,1936.4642912000418,None,,,,,,,,,,,,,,,,,,,,,,,,,,,,,,,,,,,,,,,,,,,,,,,,,,,,,,,,96NF,001,2023_Sep_07_0846,ExactRep-v3-final,2021.2.3,59.98735468108056,
,,,,1,0,1,0,,,,,,,,,,,,,,,,,,,,,,,,,,,,,,,,,,,,,,,,,,,,,,,,,,,,,,,,,1940.9794675000012,None,,,,,,,,,,,,,,,,,1938.9772638999857,None,,,,,,,,,,,,,,,,,,,,,,,,,,,,,,,,,,,,,,,,,,,,,,,,,,,,,,,,96NF,001,2023_Sep_07_0846,ExactRep-v3-final,2021.2.3,59.98735468108056,
,,,,2,0,2,0,,,,,,,,,,,,,,,,,,,,,,,,,,,,,,,,,,,,,,,,,,,,,,,,,,,,,,,,,1943.4816266999114,None,,,,,,,,,,,,,,,,,1941.4800382000394,None,,,,,,,,,,,,,,,,,,,,,,,,,,,,,,,,,,,,,,,,,,,,,,,,,,,,,,,,96NF,001,2023_Sep_07_0846,ExactRep-v3-final,2021.2.3,59.98735468108056,
,,,,3,0,3,0,,,,,,,,,,,,,,,,,,,,,,,,,,,,,,,,,,,,,,,,,,,,,,,,,,,,,,,,,1945.984259400051,None,,,,,,,,,,,,,,,,,1943.982183800079,None,,,,,,,,,,,,,,,,,,,,,,,,,,,,,,,,,,,,,,,,,,,,,,,,,,,,,,,,96NF,001,2023_Sep_07_0846,ExactRep-v3-final,2021.2.3,59.98735468108056,
,,,,4,0,4,0,,,,,,,,,,,,,,,,,,,,,,,,,,,,,,,,,,,,,,,,,,,,,,,,,,,,,,,,,1948.4867084000725,None,,,,,,,,,,,,,,,,,1946.4841630999,None,,,,,,,,,,,,,,,,,,,,,,,,,,,,,,,,,,,,,,,,,,,,,,,,,,,,,,,,96NF,001,2023_Sep_07_0846,ExactRep-v3-final,2021.2.3,59.98735468108056,
,,,,5,0,5,0,,,,,,,,,,,,,,,,,,,,,,,,,,,,,,,,,,,,,,,,,,,,,,,,,,,,,,,,,1950.9894423999358,None,,,,,,,,,,,,,,,,,1948.987210100051,None,,,,,,,,,,,,,,,,,,,,,,,,,,,,,,,,,,,,,,,,,,,,,,,,,,,,,,,,96NF,001,2023_Sep_07_0846,ExactRep-v3-final,2021.2.3,59.98735468108056,
,,,,6,0,6,0,,,,,,,,,,,,,,,,,,,,,,,,,,,,,,,,,,,,,,,,,,,,,,,,,,,,,,,,,1953.4919914999045,None,,,,,,,,,,,,,,,,,1951.4900815000292,None,,,,,,,,,,,,,,,,,,,,,,,,,,,,,,,,,,,,,,,,,,,,,,,,,,,,,,,,96NF,001,2023_Sep_07_0846,ExactRep-v3-final,2021.2.3,59.98735468108056,
,,,,7,0,7,0,,,,,,,,,,,,,,,,,,,,,,,,,,,,,,,,,,,,,,,,,,,,,,,,,,,,,,,,,1955.9943458999041,None,,,,,,,,,,,,,,,,,1953.9925778000616,None,,,,,,,,,,,,,,,,,,,,,,,,,,,,,,,,,,,,,,,,,,,,,,,,,,,,,,,,96NF,001,2023_Sep_07_0846,ExactRep-v3-final,2021.2.3,59.98735468108056,
,,,,8,0,8,0,,,,,,,,,,,,,,,,,,,,,,,,,,,,,,,,,,,,,,,,,,,,,,,,,,,,,,,,,1958.4965015000198,None,,,,,,,,,,,,,,,,,1956.494892100105,None,,,,,,,,,,,,,,,,,,,,,,,,,,,,,,,,,,,,,,,,,,,,,,,,,,,,,,,,96NF,001,2023_Sep_07_0846,ExactRep-v3-final,2021.2.3,59.98735468108056,
,,,,9,0,9,0,,,,,,,,,,,,,,,,,,,,,,,,,,,,,,,,,,,,,,,,,,,,,,,,,,,,,,,,,1960.9990435999352,None,,,,,,,,,,,,,,,,,1958.9971139000263,None,,,,,,,,,,,,,,,,,,,,,,,,,,,,,,,,,,,,,,,,,,,,,,,,,,,,,,,,96NF,001,2023_Sep_07_0846,ExactRep-v3-final,2021.2.3,59.98735468108056,
,,,,10,0,10,0,,,,,,,,,,,,,,,,,,,,,,,,,,,,,,,,,,,,,,,,,,,,,,,,,,,,,,,,,1963.501483200118,None,,,,,,,,,,,,,,,,,1961.4994801001158,None,,,,,,,,,,,,,,,,,,,,,,,,,,,,,,,,,,,,,,,,,,,,,,,,,,,,,,,,96NF,001,2023_Sep_07_0846,ExactRep-v3-final,2021.2.3,59.98735468108056,
,,,,11,0,11,0,,,,,,,,,,,,,,,,,,,,,,,,,,,,,,,,,,,,,,,,,,,,,,,,,,,,,,,,,1966.0042441000696,None,,,,,,,,,,,,,,,,,1964.0021222999785,None,,,,,,,,,,,,,,,,,,,,,,,,,,,,,,,,,,,,,,,,,,,,,,,,,,,,,,,,96NF,001,2023_Sep_07_0846,ExactRep-v3-final,2021.2.3,59.98735468108056,
,,,,12,0,12,0,,,,,,,,,,,,,,,,,,,,,,,,,,,,,,,,,,,,,,,,,,,,,,,,,,,,,,,,,1968.5066237000283,None,,,,,,,,,,,,,,,,,1966.5046316001099,None,,,,,,,,,,,,,,,,,,,,,,,,,,,,,,,,,,,,,,,,,,,,,,,,,,,,,,,,96NF,001,2023_Sep_07_0846,ExactRep-v3-final,2021.2.3,59.98735468108056,
,,,,13,0,13,0,,,,,,,,,,,,,,,,,,,,,,,,,,,,,,,,,,,,,,,,,,,,,,,,,,,,,,,,,1971.009156800108,None,,,,,,,,,,,,,,,,,1969.0071626999415,None,,,,,,,,,,,,,,,,,,,,,,,,,,,,,,,,,,,,,,,,,,,,,,,,,,,,,,,,96NF,001,2023_Sep_07_0846,ExactRep-v3-final,2021.2.3,59.98735468108056,
,,,,14,0,14,0,,,,,,,,,,,,,,,,,,,,,,,,,,,,,,,,,,,,,,,,,,,,,,,,,,,,,,,,,1973.5118561000563,None,,,,,,,,,,,,,,,,,1971.5094194998965,None,,,,,,,,,,,,,,,,,,,,,,,,,,,,,,,,,,,,,,,,,,,,,,,,,,,,,,,,96NF,001,2023_Sep_07_0846,ExactRep-v3-final,2021.2.3,59.98735468108056,
,,,,,,,,,,,,,,,,,,,,,,,,,,,,,,,,,,,,,,,,,,,,,,,,,,,,,,,,,,,,,,,,,,,,,,,,,,,,,,,,,,,,space,0.8411238000262529,1984.1462079999037,None,,,,,,,,,,,,,,,,,,,,,,,,,,,,,,,,,,,,,,,,,,,,,,,,,,,,96NF,001,2023_Sep_07_0846,ExactRep-v3-final,2021.2.3,59.98735468108056,
,,,,,,,,0,0,0,0,,,,,,,,,,,,,,,,,,,,,,,,,,,,,,,,,,,,,,,,,,,,,,,,,,,,,1987.0750732000452,None,,,,,,,,,,,,,,,,,,,,,,,1974.1584065998904,None,1974.1584065998904,None,1974.1584065998904,None,1974.1584065998904,None,1974.1584065998904,None,1974.1584065998904,None,blossom,29,1,sing,red,1985.060547699919,None,None,1985.060547699919,None,,,,,,,,,,,,,,,,,,,,,,,,,,,,,,96NF,001,2023_Sep_07_0846,ExactRep-v3-final,2021.2.3,59.98735468108056,
,,,,,,,,1,0,1,0,,,,,,,,,,,,,,,,,,,,,,,,,,,,,,,,,,,,,,,,,,,,,,,,,,,,,1989.5779403999913,None,,,,,,,,,,,,,,,,,,,,,,,,,,,,,,,,,,,sugar,116,2,aloud,white,1987.5757830999792,None,None,1987.5757830999792,None,,,,,,,,,,,,,,,,,,,,,,,,,,,,,,96NF,001,2023_Sep_07_0846,ExactRep-v3-final,2021.2.3,59.98735468108056,
,,,,,,,,2,0,2,0,,,,,,,,,,,,,,,,,,,,,,,,,,,,,,,,,,,,,,,,,,,,,,,,,,,,,1992.080439799931,None,,,,,,,,,,,,,,,,,,,,,,,,,,,,,,,,,,,shadow,97,3,aloud,white,1990.0809239000082,None,None,1990.0809239000082,None,,,,,,,,,,,,,,,,,,,,,,,,,,,,,,96NF,001,2023_Sep_07_0846,ExactRep-v3-final,2021.2.3,59.98735468108056,
,,,,,,,,3,0,3,0,,,,,,,,,,,,,,,,,,,,,,,,,,,,,,,,,,,,,,,,,,,,,,,,,,,,,1994.599402199965,None,,,,,,,,,,,,,,,,,,,,,,,,,,,,,,,,,,,pipe,26,4,sing,red,1992.585334399948,None,None,1992.585334399948,None,,,,,,,,,,,,,,,,,,,,,,,,,,,,,,96NF,001,2023_Sep_07_0846,ExactRep-v3-final,2021.2.3,59.98735468108056,
,,,,,,,,4,0,4,0,,,,,,,,,,,,,,,,,,,,,,,,,,,,,,,,,,,,,,,,,,,,,,,,,,,,,1997.1033749000635,None,,,,,,,,,,,,,,,,,,,,,,,,,,,,,,,,,,,paper,60,5,silent,blue,1995.1000959998928,None,None,1995.1000959998928,None,,,,,,,,,,,,,,,,,,,,,,,,,,,,,,96NF,001,2023_Sep_07_0846,ExactRep-v3-final,2021.2.3,59.98735468108056,
,,,,,,,,5,0,5,0,,,,,,,,,,,,,,,,,,,,,,,,,,,,,,,,,,,,,,,,,,,,,,,,,,,,,1999.6209358000197,None,,,,,,,,,,,,,,,,,,,,,,,,,,,,,,,,,,,rock,94,6,aloud,white,1997.6193107999861,None,None,1997.6193107999861,None,,,,,,,,,,,,,,,,,,,,,,,,,,,,,,96NF,001,2023_Sep_07_0846,ExactRep-v3-final,2021.2.3,59.98735468108056,
,,,,,,,,6,0,6,0,,,,,,,,,,,,,,,,,,,,,,,,,,,,,,,,,,,,,,,,,,,,,,,,,,,,,2002.12345189997,None,,,,,,,,,,,,,,,,,,,,,,,,,,,,,,,,,,,salary,62,7,silent,blue,2000.121802699985,None,None,2000.121802699985,None,,,,,,,,,,,,,,,,,,,,,,,,,,,,,,96NF,001,2023_Sep_07_0846,ExactRep-v3-final,2021.2.3,59.98735468108056,
,,,,,,,,7,0,7,0,,,,,,,,,,,,,,,,,,,,,,,,,,,,,,,,,,,,,,,,,,,,,,,,,,,,,2004.6262034000829,None,,,,,,,,,,,,,,,,,,,,,,,,,,,,,,,,,,,prayer,73,8,silent,blue,2002.6258652000688,None,None,2002.6258652000688,None,,,,,,,,,,,,,,,,,,,,,,,,,,,,,,96NF,001,2023_Sep_07_0846,ExactRep-v3-final,2021.2.3,59.98735468108056,
,,,,,,,,8,0,8,0,,,,,,,,,,,,,,,,,,,,,,,,,,,,,,,,,,,,,,,,,,,,,,,,,,,,,2007.1456460999325,None,,,,,,,,,,,,,,,,,,,,,,,,,,,,,,,,,,,truth,76,9,silent,blue,2005.137832700042,None,None,2005.137832700042,None,,,,,,,,,,,,,,,,,,,,,,,,,,,,,,96NF,001,2023_Sep_07_0846,ExactRep-v3-final,2021.2.3,59.98735468108056,
,,,,,,,,9,0,9,0,,,,,,,,,,,,,,,,,,,,,,,,,,,,,,,,,,,,,,,,,,,,,,,,,,,,,2009.6480205000844,None,,,,,,,,,,,,,,,,,,,,,,,,,,,,,,,,,,,horse,53,10,silent,blue,2007.645447100047,None,None,2007.645447100047,None,,,,,,,,,,,,,,,,,,,,,,,,,,,,,,96NF,001,2023_Sep_07_0846,ExactRep-v3-final,2021.2.3,59.98735468108056,
,,,,,,,,10,0,10,0,,,,,,,,,,,,,,,,,,,,,,,,,,,,,,,,,,,,,,,,,,,,,,,,,,,,,2012.1503570999485,None,,,,,,,,,,,,,,,,,,,,,,,,,,,,,,,,,,,stone,34,11,sing,red,2010.1509392000735,None,None,2010.1509392000735,None,,,,,,,,,,,,,,,,,,,,,,,,,,,,,,96NF,001,2023_Sep_07_0846,ExactRep-v3-final,2021.2.3,59.98735468108056,
,,,,,,,,11,0,11,0,,,,,,,,,,,,,,,,,,,,,,,,,,,,,,,,,,,,,,,,,,,,,,,,,,,,,2014.669284600066,None,,,,,,,,,,,,,,,,,,,,,,,,,,,,,,,,,,,garden,85,12,aloud,white,2012.654467599932,None,None,2012.654467599932,None,,,,,,,,,,,,,,,,,,,,,,,,,,,,,,96NF,001,2023_Sep_07_0846,ExactRep-v3-final,2021.2.3,59.98735468108056,
,,,,,,,,12,0,12,0,,,,,,,,,,,,,,,,,,,,,,,,,,,,,,,,,,,,,,,,,,,,,,,,,,,,,2017.1721359000076,None,,,,,,,,,,,,,,,,,,,,,,,,,,,,,,,,,,,power,42,13,silent,blue,2015.1727458999958,None,None,2015.1727458999958,None,,,,,,,,,,,,,,,,,,,,,,,,,,,,,,96NF,001,2023_Sep_07_0846,ExactRep-v3-final,2021.2.3,59.98735468108056,
,,,,,,,,13,0,13,0,,,,,,,,,,,,,,,,,,,,,,,,,,,,,,,,,,,,,,,,,,,,,,,,,,,,,2019.6912531000562,None,,,,,,,,,,,,,,,,,,,,,,,,,,,,,,,,,,,circle,48,14,silent,blue,2017.6765368999913,None,None,2017.6765368999913,None,,,,,,,,,,,,,,,,,,,,,,,,,,,,,,96NF,001,2023_Sep_07_0846,ExactRep-v3-final,2021.2.3,59.98735468108056,
,,,,,,,,14,0,14,0,,,,,,,,,,,,,,,,,,,,,,,,,,,,,,,,,,,,,,,,,,,,,,,,,,,,,2022.2107255000155,None,,,,,,,,,,,,,,,,,,,,,,,,,,,,,,,,,,,money,104,15,aloud,white,2020.2002624000888,None,None,2020.2002624000888,None,,,,,,,,,,,,,,,,,,,,,,,,,,,,,,96NF,001,2023_Sep_07_0846,ExactRep-v3-final,2021.2.3,59.98735468108056,
,,,,,,,,15,0,15,0,,,,,,,,,,,,,,,,,,,,,,,,,,,,,,,,,,,,,,,,,,,,,,,,,,,,,2024.7296790999826,None,,,,,,,,,,,,,,,,,,,,,,,,,,,,,,,,,,,window,41,16,silent,blue,2022.7262043000665,None,None,2022.7262043000665,None,,,,,,,,,,,,,,,,,,,,,,,,,,,,,,96NF,001,2023_Sep_07_0846,ExactRep-v3-final,2021.2.3,59.98735468108056,
,,,,,,,,16,0,16,0,,,,,,,,,,,,,,,,,,,,,,,,,,,,,,,,,,,,,,,,,,,,,,,,,,,,,2027.2488053999841,None,,,,,,,,,,,,,,,,,,,,,,,,,,,,,,,,,,,kiss,56,17,silent,blue,2025.236162800109,None,None,2025.236162800109,None,,,,,,,,,,,,,,,,,,,,,,,,,,,,,,96NF,001,2023_Sep_07_0846,ExactRep-v3-final,2021.2.3,59.98735468108056,
,,,,,,,,17,0,17,0,,,,,,,,,,,,,,,,,,,,,,,,,,,,,,,,,,,,,,,,,,,,,,,,,,,,,2029.768068100093,None,,,,,,,,,,,,,,,,,,,,,,,,,,,,,,,,,,,plain,10,18,sing,red,2027.7531562999357,None,None,2027.7531562999357,None,,,,,,,,,,,,,,,,,,,,,,,,,,,,,,96NF,001,2023_Sep_07_0846,ExactRep-v3-final,2021.2.3,59.98735468108056,
,,,,,,,,18,0,18,0,,,,,,,,,,,,,,,,,,,,,,,,,,,,,,,,,,,,,,,,,,,,,,,,,,,,,2032.287209500093,None,,,,,,,,,,,,,,,,,,,,,,,,,,,,,,,,,,,palace,74,19,silent,blue,2030.2775876000524,None,None,2030.2775876000524,None,,,,,,,,,,,,,,,,,,,,,,,,,,,,,,96NF,001,2023_Sep_07_0846,ExactRep-v3-final,2021.2.3,59.98735468108056,
,,,,,,,,19,0,19,0,,,,,,,,,,,,,,,,,,,,,,,,,,,,,,,,,,,,,,,,,,,,,,,,,,,,,2034.8064286001027,None,,,,,,,,,,,,,,,,,,,,,,,,,,,,,,,,,,,idea,82,20,aloud,white,2032.7954543000087,None,None,2032.7954543000087,None,,,,,,,,,,,,,,,,,,,,,,,,,,,,,,96NF,001,2023_Sep_07_0846,ExactRep-v3-final,2021.2.3,59.98735468108056,
,,,,,,,,20,0,20,0,,,,,,,,,,,,,,,,,,,,,,,,,,,,,,,,,,,,,,,,,,,,,,,,,,,,,2037.325426199939,None,,,,,,,,,,,,,,,,,,,,,,,,,,,,,,,,,,,cost,31,21,sing,red,2035.3096878998913,None,None,2035.3096878998913,None,,,,,,,,,,,,,,,,,,,,,,,,,,,,,,96NF,001,2023_Sep_07_0846,ExactRep-v3-final,2021.2.3,59.98735468108056,
,,,,,,,,21,0,21,0,,,,,,,,,,,,,,,,,,,,,,,,,,,,,,,,,,,,,,,,,,,,,,,,,,,,,2039.827821899904,None,,,,,,,,,,,,,,,,,,,,,,,,,,,,,,,,,,,body,65,22,silent,blue,2037.8263542000204,None,None,2037.8263542000204,None,,,,,,,,,,,,,,,,,,,,,,,,,,,,,,96NF,001,2023_Sep_07_0846,ExactRep-v3-final,2021.2.3,59.98735468108056,
,,,,,,,,22,0,22,0,,,,,,,,,,,,,,,,,,,,,,,,,,,,,,,,,,,,,,,,,,,,,,,,,,,,,2042.3303751999047,None,,,,,,,,,,,,,,,,,,,,,,,,,,,,,,,,,,,potato,3,23,sing,red,2040.3308786998969,None,None,2040.3308786998969,None,,,,,,,,,,,,,,,,,,,,,,,,,,,,,,96NF,001,2023_Sep_07_0846,ExactRep-v3-final,2021.2.3,59.98735468108056,
,,,,,,,,23,0,23,0,,,,,,,,,,,,,,,,,,,,,,,,,,,,,,,,,,,,,,,,,,,,,,,,,,,,,2044.8329805999529,None,,,,,,,,,,,,,,,,,,,,,,,,,,,,,,,,,,,water,69,24,silent,blue,2042.8326693999115,None,None,2042.8326693999115,None,,,,,,,,,,,,,,,,,,,,,,,,,,,,,,96NF,001,2023_Sep_07_0846,ExactRep-v3-final,2021.2.3,59.98735468108056,
,,,,,,,,24,0,24,0,,,,,,,,,,,,,,,,,,,,,,,,,,,,,,,,,,,,,,,,,,,,,,,,,,,,,2047.3524515000172,None,,,,,,,,,,,,,,,,,,,,,,,,,,,,,,,,,,,moral,99,25,aloud,white,2045.3382476998959,None,None,2045.3382476998959,None,,,,,,,,,,,,,,,,,,,,,,,,,,,,,,96NF,001,2023_Sep_07_0846,ExactRep-v3-final,2021.2.3,59.98735468108056,
,,,,,,,,25,0,25,0,,,,,,,,,,,,,,,,,,,,,,,,,,,,,,,,,,,,,,,,,,,,,,,,,,,,,2049.8545450000092,None,,,,,,,,,,,,,,,,,,,,,,,,,,,,,,,,,,,wheat,1,26,sing,red,2047.8523832000792,None,None,2047.8523832000792,None,,,,,,,,,,,,,,,,,,,,,,,,,,,,,,96NF,001,2023_Sep_07_0846,ExactRep-v3-final,2021.2.3,59.98735468108056,
,,,,,,,,26,0,26,0,,,,,,,,,,,,,,,,,,,,,,,,,,,,,,,,,,,,,,,,,,,,,,,,,,,,,2052.3570089000277,None,,,,,,,,,,,,,,,,,,,,,,,,,,,,,,,,,,,tree,96,27,aloud,white,2050.356816699961,None,None,2050.356816699961,None,,,,,,,,,,,,,,,,,,,,,,,,,,,,,,96NF,001,2023_Sep_07_0846,ExactRep-v3-final,2021.2.3,59.98735468108056,
,,,,,,,,27,0,27,0,,,,,,,,,,,,,,,,,,,,,,,,,,,,,,,,,,,,,,,,,,,,,,,,,,,,,2054.876057300018,None,,,,,,,,,,,,,,,,,,,,,,,,,,,,,,,,,,,series,7,28,sing,red,2052.8606918998994,None,None,2052.8606918998994,None,,,,,,,,,,,,,,,,,,,,,,,,,,,,,,96NF,001,2023_Sep_07_0846,ExactRep-v3-final,2021.2.3,59.98735468108056,
,,,,,,,,28,0,28,0,,,,,,,,,,,,,,,,,,,,,,,,,,,,,,,,,,,,,,,,,,,,,,,,,,,,,2057.378912199987,None,,,,,,,,,,,,,,,,,,,,,,,,,,,,,,,,,,,murder,47,29,silent,blue,2055.376570600085,None,None,2055.376570600085,None,,,,,,,,,,,,,,,,,,,,,,,,,,,,,,96NF,001,2023_Sep_07_0846,ExactRep-v3-final,2021.2.3,59.98735468108056,
,,,,,,,,29,0,29,0,,,,,,,,,,,,,,,,,,,,,,,,,,,,,,,,,,,,,,,,,,,,,,,,,,,,,2059.897703900002,None,,,,,,,,,,,,,,,,,,,,,,,,,,,,,,,,,,,insect,80,30,aloud,white,2057.882961000083,None,None,2057.882961000083,None,,,,,,,,,,,,,,,,,,,,,,,,,,,,,,96NF,001,2023_Sep_07_0846,ExactRep-v3-final,2021.2.3,59.98735468108056,
,,,,,,,,30,0,30,0,,,,,,,,,,,,,,,,,,,,,,,,,,,,,,,,,,,,,,,,,,,,,,,,,,,,,2062.4002874,None,,,,,,,,,,,,,,,,,,,,,,,,,,,,,,,,,,,letter,37,31,sing,red,2060.398289799923,None,None,2060.398289799923,None,,,,,,,,,,,,,,,,,,,,,,,,,,,,,,96NF,001,2023_Sep_07_0846,ExactRep-v3-final,2021.2.3,59.98735468108056,
,,,,,,,,31,0,31,0,,,,,,,,,,,,,,,,,,,,,,,,,,,,,,,,,,,,,,,,,,,,,,,,,,,,,2064.90304809995,None,,,,,,,,,,,,,,,,,,,,,,,,,,,,,,,,,,,speech,66,32,silent,blue,2062.903412200045,None,None,2062.903412200045,None,,,,,,,,,,,,,,,,,,,,,,,,,,,,,,96NF,001,2023_Sep_07_0846,ExactRep-v3-final,2021.2.3,59.98735468108056,
,,,,,,,,32,0,32,0,,,,,,,,,,,,,,,,,,,,,,,,,,,,,,,,,,,,,,,,,,,,,,,,,,,,,2067.4102376000956,None,,,,,,,,,,,,,,,,,,,,,,,,,,,,,,,,,,,mercy,6,33,sing,red,2065.405770299956,None,None,2065.405770299956,None,,,,,,,,,,,,,,,,,,,,,,,,,,,,,,96NF,001,2023_Sep_07_0846,ExactRep-v3-final,2021.2.3,59.98735468108056,
,,,,,,,,33,0,33,0,,,,,,,,,,,,,,,,,,,,,,,,,,,,,,,,,,,,,,,,,,,,,,,,,,,,,2069.940799199976,None,,,,,,,,,,,,,,,,,,,,,,,,,,,,,,,,,,,toy,87,34,aloud,white,2067.922343299957,None,None,2067.922343299957,None,,,,,,,,,,,,,,,,,,,,,,,,,,,,,,96NF,001,2023_Sep_07_0846,ExactRep-v3-final,2021.2.3,59.98735468108056,
,,,,,,,,34,0,34,0,,,,,,,,,,,,,,,,,,,,,,,,,,,,,,,,,,,,,,,,,,,,,,,,,,,,,2072.44383740006,None,,,,,,,,,,,,,,,,,,,,,,,,,,,,,,,,,,,hope,50,35,silent,blue,2070.4439260999206,None,None,2070.4439260999206,None,,,,,,,,,,,,,,,,,,,,,,,,,,,,,,96NF,001,2023_Sep_07_0846,ExactRep-v3-final,2021.2.3,59.98735468108056,
,,,,,,,,35,0,35,0,,,,,,,,,,,,,,,,,,,,,,,,,,,,,,,,,,,,,,,,,,,,,,,,,,,,,2074.963149599964,None,,,,,,,,,,,,,,,,,,,,,,,,,,,,,,,,,,,theory,81,36,aloud,white,2072.9477685000747,None,None,2072.9477685000747,None,,,,,,,,,,,,,,,,,,,,,,,,,,,,,,96NF,001,2023_Sep_07_0846,ExactRep-v3-final,2021.2.3,59.98735468108056,
,,,,,,,,36,0,36,0,,,,,,,,,,,,,,,,,,,,,,,,,,,,,,,,,,,,,,,,,,,,,,,,,,,,,2077.4655059000943,None,,,,,,,,,,,,,,,,,,,,,,,,,,,,,,,,,,,science,84,37,aloud,white,2075.4662788999267,None,None,2075.4662788999267,None,,,,,,,,,,,,,,,,,,,,,,,,,,,,,,96NF,001,2023_Sep_07_0846,ExactRep-v3-final,2021.2.3,59.98735468108056,
,,,,,,,,37,0,37,0,,,,,,,,,,,,,,,,,,,,,,,,,,,,,,,,,,,,,,,,,,,,,,,,,,,,,2079.9848396999296,None,,,,,,,,,,,,,,,,,,,,,,,,,,,,,,,,,,,master,35,38,sing,red,2077.969281699974,None,None,2077.969281699974,None,,,,,,,,,,,,,,,,,,,,,,,,,,,,,,96NF,001,2023_Sep_07_0846,ExactRep-v3-final,2021.2.3,59.98735468108056,
,,,,,,,,38,0,38,0,,,,,,,,,,,,,,,,,,,,,,,,,,,,,,,,,,,,,,,,,,,,,,,,,,,,,2082.5042409000453,None,,,,,,,,,,,,,,,,,,,,,,,,,,,,,,,,,,,fate,113,39,aloud,white,2080.48857460008,None,None,2080.48857460008,None,,,,,,,,,,,,,,,,,,,,,,,,,,,,,,96NF,001,2023_Sep_07_0846,ExactRep-v3-final,2021.2.3,59.98735468108056,
,,,,,,,,39,0,39,0,,,,,,,,,,,,,,,,,,,,,,,,,,,,,,,,,,,,,,,,,,,,,,,,,,,,,2085.0063509000465,None,,,,,,,,,,,,,,,,,,,,,,,,,,,,,,,,,,,board,49,40,silent,blue,2083.0047291999217,None,None,2083.0047291999217,None,,,,,,,,,,,,,,,,,,,,,,,,,,,,,,96NF,001,2023_Sep_07_0846,ExactRep-v3-final,2021.2.3,59.98735468108056,
,,,,,,,,40,0,40,0,,,,,,,,,,,,,,,,,,,,,,,,,,,,,,,,,,,,,,,,,,,,,,,,,,,,,2087.508722800063,None,,,,,,,,,,,,,,,,,,,,,,,,,,,,,,,,,,,moment,86,41,aloud,white,2085.5076419999823,None,None,2085.5076419999823,None,,,,,,,,,,,,,,,,,,,,,,,,,,,,,,96NF,001,2023_Sep_07_0846,ExactRep-v3-final,2021.2.3,59.98735468108056,
,,,,,,,,41,0,41,0,,,,,,,,,,,,,,,,,,,,,,,,,,,,,,,,,,,,,,,,,,,,,,,,,,,,,2090.0111875000875,None,,,,,,,,,,,,,,,,,,,,,,,,,,,,,,,,,,,shame,75,42,silent,blue,2088.0098425000906,None,None,2088.0098425000906,None,,,,,,,,,,,,,,,,,,,,,,,,,,,,,,96NF,001,2023_Sep_07_0846,ExactRep-v3-final,2021.2.3,59.98735468108056,
,,,,,,,,42,0,42,0,,,,,,,,,,,,,,,,,,,,,,,,,,,,,,,,,,,,,,,,,,,,,,,,,,,,,2092.513667500112,None,,,,,,,,,,,,,,,,,,,,,,,,,,,,,,,,,,,history,108,43,aloud,white,2090.51254149992,None,None,2090.51254149992,None,,,,,,,,,,,,,,,,,,,,,,,,,,,,,,96NF,001,2023_Sep_07_0846,ExactRep-v3-final,2021.2.3,59.98735468108056,
,,,,,,,,43,0,43,0,,,,,,,,,,,,,,,,,,,,,,,,,,,,,,,,,,,,,,,,,,,,,,,,,,,,,2095.0166829000227,None,,,,,,,,,,,,,,,,,,,,,,,,,,,,,,,,,,,meadow,4,44,sing,red,2093.0151545999106,None,None,2093.0151545999106,None,,,,,,,,,,,,,,,,,,,,,,,,,,,,,,96NF,001,2023_Sep_07_0846,ExactRep-v3-final,2021.2.3,59.98735468108056,
,,,,,,,,44,0,44,0,,,,,,,,,,,,,,,,,,,,,,,,,,,,,,,,,,,,,,,,,,,,,,,,,,,,,2097.5357188000344,None,,,,,,,,,,,,,,,,,,,,,,,,,,,,,,,,,,,sky,16,45,sing,red,2095.52204099996,None,None,2095.52204099996,None,,,,,,,,,,,,,,,,,,,,,,,,,,,,,,96NF,001,2023_Sep_07_0846,ExactRep-v3-final,2021.2.3,59.98735468108056,
,,,,,,,,45,0,45,0,,,,,,,,,,,,,,,,,,,,,,,,,,,,,,,,,,,,,,,,,,,,,,,,,,,,,2100.0382942999713,None,,,,,,,,,,,,,,,,,,,,,,,,,,,,,,,,,,,ocean,115,46,aloud,white,2098.038621600019,None,None,2098.038621600019,None,,,,,,,,,,,,,,,,,,,,,,,,,,,,,,96NF,001,2023_Sep_07_0846,ExactRep-v3-final,2021.2.3,59.98735468108056,
,,,,,,,,46,0,46,0,,,,,,,,,,,,,,,,,,,,,,,,,,,,,,,,,,,,,,,,,,,,,,,,,,,,,2102.557448599953,None,,,,,,,,,,,,,,,,,,,,,,,,,,,,,,,,,,,hour,100,47,aloud,white,2100.542047099909,None,None,2100.542047099909,None,,,,,,,,,,,,,,,,,,,,,,,,,,,,,,96NF,001,2023_Sep_07_0846,ExactRep-v3-final,2021.2.3,59.98735468108056,
,,,,,,,,47,0,47,0,,,,,,,,,,,,,,,,,,,,,,,,,,,,,,,,,,,,,,,,,,,,,,,,,,,,,2105.0598643999547,None,,,,,,,,,,,,,,,,,,,,,,,,,,,,,,,,,,,table,68,48,silent,blue,2103.0578731000423,None,None,2103.0578731000423,None,,,,,,,,,,,,,,,,,,,,,,,,,,,,,,96NF,001,2023_Sep_07_0846,ExactRep-v3-final,2021.2.3,59.98735468108056,
,,,,,,,,48,0,48,0,,,,,,,,,,,,,,,,,,,,,,,,,,,,,,,,,,,,,,,,,,,,,,,,,,,,,2107.565259899944,None,,,,,,,,,,,,,,,,,,,,,,,,,,,,,,,,,,,health,72,49,silent,blue,2105.5638844999485,None,None,2105.5638844999485,None,,,,,,,,,,,,,,,,,,,,,,,,,,,,,,96NF,001,2023_Sep_07_0846,ExactRep-v3-final,2021.2.3,59.98735468108056,
,,,,,,,,49,0,49,0,,,,,,,,,,,,,,,,,,,,,,,,,,,,,,,,,,,,,,,,,,,,,,,,,,,,,2110.0877978999633,None,,,,,,,,,,,,,,,,,,,,,,,,,,,,,,,,,,,cabin,112,50,aloud,white,2108.082674500067,None,None,2108.082674500067,None,,,,,,,,,,,,,,,,,,,,,,,,,,,,,,96NF,001,2023_Sep_07_0846,ExactRep-v3-final,2021.2.3,59.98735468108056,
,,,,,,,,50,0,50,0,,,,,,,,,,,,,,,,,,,,,,,,,,,,,,,,,,,,,,,,,,,,,,,,,,,,,2112.600738900015,None,,,,,,,,,,,,,,,,,,,,,,,,,,,,,,,,,,,bottle,67,51,silent,blue,2110.6016295000445,None,None,2110.6016295000445,None,,,,,,,,,,,,,,,,,,,,,,,,,,,,,,96NF,001,2023_Sep_07_0846,ExactRep-v3-final,2021.2.3,59.98735468108056,
,,,,,,,,51,0,51,0,,,,,,,,,,,,,,,,,,,,,,,,,,,,,,,,,,,,,,,,,,,,,,,,,,,,,2115.1201061001047,None,,,,,,,,,,,,,,,,,,,,,,,,,,,,,,,,,,,memory,52,52,silent,blue,2113.1046156999655,None,None,2113.1046156999655,None,,,,,,,,,,,,,,,,,,,,,,,,,,,,,,96NF,001,2023_Sep_07_0846,ExactRep-v3-final,2021.2.3,59.98735468108056,
,,,,,,,,52,0,52,0,,,,,,,,,,,,,,,,,,,,,,,,,,,,,,,,,,,,,,,,,,,,,,,,,,,,,2117.6225008999463,None,,,,,,,,,,,,,,,,,,,,,,,,,,,,,,,,,,,plant,61,53,silent,blue,2115.6203560000286,None,None,2115.6203560000286,None,,,,,,,,,,,,,,,,,,,,,,,,,,,,,,96NF,001,2023_Sep_07_0846,ExactRep-v3-final,2021.2.3,59.98735468108056,
,,,,,,,,53,0,53,0,,,,,,,,,,,,,,,,,,,,,,,,,,,,,,,,,,,,,,,,,,,,,,,,,,,,,2120.142364300089,None,,,,,,,,,,,,,,,,,,,,,,,,,,,,,,,,,,,fact,118,54,aloud,white,2118.127777500078,None,None,2118.127777500078,None,,,,,,,,,,,,,,,,,,,,,,,,,,,,,,96NF,001,2023_Sep_07_0846,ExactRep-v3-final,2021.2.3,59.98735468108056,
,,,,,,,,54,0,54,0,,,,,,,,,,,,,,,,,,,,,,,,,,,,,,,,,,,,,,,,,,,,,,,,,,,,,2122.660813699942,None,,,,,,,,,,,,,,,,,,,,,,,,,,,,,,,,,,,soil,28,55,sing,red,2120.646250900114,None,None,2120.646250900114,None,,,,,,,,,,,,,,,,,,,,,,,,,,,,,,96NF,001,2023_Sep_07_0846,ExactRep-v3-final,2021.2.3,59.98735468108056,
,,,,,,,,55,0,55,0,,,,,,,,,,,,,,,,,,,,,,,,,,,,,,,,,,,,,,,,,,,,,,,,,,,,,2125.1796552001033,None,,,,,,,,,,,,,,,,,,,,,,,,,,,,,,,,,,,crime,95,56,aloud,white,2123.166002199985,None,None,2123.166002199985,None,,,,,,,,,,,,,,,,,,,,,,,,,,,,,,96NF,001,2023_Sep_07_0846,ExactRep-v3-final,2021.2.3,59.98735468108056,
,,,,,,,,56,0,56,0,,,,,,,,,,,,,,,,,,,,,,,,,,,,,,,,,,,,,,,,,,,,,,,,,,,,,2127.68207910005,None,,,,,,,,,,,,,,,,,,,,,,,,,,,,,,,,,,,present,101,57,aloud,white,2125.680124100065,None,None,2125.680124100065,None,,,,,,,,,,,,,,,,,,,,,,,,,,,,,,96NF,001,2023_Sep_07_0846,ExactRep-v3-final,2021.2.3,59.98735468108056,
,,,,,,,,57,0,57,0,,,,,,,,,,,,,,,,,,,,,,,,,,,,,,,,,,,,,,,,,,,,,,,,,,,,,2130.1846259001177,None,,,,,,,,,,,,,,,,,,,,,,,,,,,,,,,,,,,forest,93,58,aloud,white,2128.182805800112,None,None,2128.182805800112,None,,,,,,,,,,,,,,,,,,,,,,,,,,,,,,96NF,001,2023_Sep_07_0846,ExactRep-v3-final,2021.2.3,59.98735468108056,
,,,,,,,,58,0,58,0,,,,,,,,,,,,,,,,,,,,,,,,,,,,,,,,,,,,,,,,,,,,,,,,,,,,,2132.6871406000573,None,,,,,,,,,,,,,,,,,,,,,,,,,,,,,,,,,,,wife,57,59,silent,blue,2130.6858391999267,None,None,2130.6858391999267,None,,,,,,,,,,,,,,,,,,,,,,,,,,,,,,96NF,001,2023_Sep_07_0846,ExactRep-v3-final,2021.2.3,59.98735468108056,
,,,,,,,,59,0,59,0,,,,,,,,,,,,,,,,,,,,,,,,,,,,,,,,,,,,,,,,,,,,,,,,,,,,,2135.1906671999022,None,,,,,,,,,,,,,,,,,,,,,,,,,,,,,,,,,,,machine,2,60,sing,red,2133.1882352000102,None,None,2133.1882352000102,None,,,,,,,,,,,,,,,,,,,,,,,,,,,,,,96NF,001,2023_Sep_07_0846,ExactRep-v3-final,2021.2.3,59.98735468108056,
,,,,,,,,60,0,60,0,,,,,,,,,,,,,,,,,,,,,,,,,,,,,,,,,,,,,,,,,,,,,,,,,,,,,2137.6921496998984,None,,,,,,,,,,,,,,,,,,,,,,,,,,,,,,,,,,,teacher,9,61,sing,red,2135.6901871999726,None,None,2135.6901871999726,None,,,,,,,,,,,,,,,,,,,,,,,,,,,,,,96NF,001,2023_Sep_07_0846,ExactRep-v3-final,2021.2.3,59.98735468108056,
,,,,,,,,61,0,61,0,,,,,,,,,,,,,,,,,,,,,,,,,,,,,,,,,,,,,,,,,,,,,,,,,,,,,2140.1946151000448,None,,,,,,,,,,,,,,,,,,,,,,,,,,,,,,,,,,,disease,43,62,silent,blue,2138.193651099922,None,None,2138.193651099922,None,,,,,,,,,,,,,,,,,,,,,,,,,,,,,,96NF,001,2023_Sep_07_0846,ExactRep-v3-final,2021.2.3,59.98735468108056,
,,,,,,,,62,0,62,0,,,,,,,,,,,,,,,,,,,,,,,,,,,,,,,,,,,,,,,,,,,,,,,,,,,,,2142.6976393999066,None,,,,,,,,,,,,,,,,,,,,,,,,,,,,,,,,,,,flesh,19,63,sing,red,2140.696151500102,None,None,2140.696151500102,None,,,,,,,,,,,,,,,,,,,,,,,,,,,,,,96NF,001,2023_Sep_07_0846,ExactRep-v3-final,2021.2.3,59.98735468108056,
,,,,,,,,63,0,63,0,,,,,,,,,,,,,,,,,,,,,,,,,,,,,,,,,,,,,,,,,,,,,,,,,,,,,2145.1999812999275,None,,,,,,,,,,,,,,,,,,,,,,,,,,,,,,,,,,,earth,64,64,silent,blue,2143.1995377999265,None,None,2143.1995377999265,None,,,,,,,,,,,,,,,,,,,,,,,,,,,,,,96NF,001,2023_Sep_07_0846,ExactRep-v3-final,2021.2.3,59.98735468108056,
,,,,,,,,64,0,64,0,,,,,,,,,,,,,,,,,,,,,,,,,,,,,,,,,,,,,,,,,,,,,,,,,,,,,2147.7189233999234,None,,,,,,,,,,,,,,,,,,,,,,,,,,,,,,,,,,,child,89,65,aloud,white,2145.7031996001024,None,None,2145.7031996001024,None,,,,,,,,,,,,,,,,,,,,,,,,,,,,,,96NF,001,2023_Sep_07_0846,ExactRep-v3-final,2021.2.3,59.98735468108056,
,,,,,,,,65,0,65,0,,,,,,,,,,,,,,,,,,,,,,,,,,,,,,,,,,,,,,,,,,,,,,,,,,,,,2150.238003599923,None,,,,,,,,,,,,,,,,,,,,,,,,,,,,,,,,,,,ticket,27,66,sing,red,2148.2226213999093,None,None,2148.2226213999093,None,,,,,,,,,,,,,,,,,,,,,,,,,,,,,,96NF,001,2023_Sep_07_0846,ExactRep-v3-final,2021.2.3,59.98735468108056,
,,,,,,,,66,0,66,0,,,,,,,,,,,,,,,,,,,,,,,,,,,,,,,,,,,,,,,,,,,,,,,,,,,,,2152.7410206000786,None,,,,,,,,,,,,,,,,,,,,,,,,,,,,,,,,,,,market,33,67,sing,red,2150.741726899985,None,None,2150.741726899985,None,,,,,,,,,,,,,,,,,,,,,,,,,,,,,,96NF,001,2023_Sep_07_0846,ExactRep-v3-final,2021.2.3,59.98735468108056,
,,,,,,,,67,0,67,0,,,,,,,,,,,,,,,,,,,,,,,,,,,,,,,,,,,,,,,,,,,,,,,,,,,,,2155.2430954000447,None,,,,,,,,,,,,,,,,,,,,,,,,,,,,,,,,,,,lip,15,68,sing,red,2153.2428353999276,None,None,2153.2428353999276,None,,,,,,,,,,,,,,,,,,,,,,,,,,,,,,96NF,001,2023_Sep_07_0846,ExactRep-v3-final,2021.2.3,59.98735468108056,
,,,,,,,,68,0,68,0,,,,,,,,,,,,,,,,,,,,,,,,,,,,,,,,,,,,,,,,,,,,,,,,,,,,,2157.7454727001023,None,,,,,,,,,,,,,,,,,,,,,,,,,,,,,,,,,,,mother,25,69,sing,red,2155.7448619999923,None,None,2155.7448619999923,None,,,,,,,,,,,,,,,,,,,,,,,,,,,,,,96NF,001,2023_Sep_07_0846,ExactRep-v3-final,2021.2.3,59.98735468108056,
,,,,,,,,69,0,69,0,,,,,,,,,,,,,,,,,,,,,,,,,,,,,,,,,,,,,,,,,,,,,,,,,,,,,2160.2646558000706,None,,,,,,,,,,,,,,,,,,,,,,,,,,,,,,,,,,,victory,71,70,silent,blue,2158.2564985998906,None,None,2158.2564985998906,None,,,,,,,,,,,,,,,,,,,,,,,,,,,,,,96NF,001,2023_Sep_07_0846,ExactRep-v3-final,2021.2.3,59.98735468108056,
,,,,,,,,70,0,70,0,,,,,,,,,,,,,,,,,,,,,,,,,,,,,,,,,,,,,,,,,,,,,,,,,,,,,2162.7672610001173,None,,,,,,,,,,,,,,,,,,,,,,,,,,,,,,,,,,,boulder,102,71,aloud,white,2160.7651595000643,None,None,2160.7651595000643,None,,,,,,,,,,,,,,,,,,,,,,,,,,,,,,96NF,001,2023_Sep_07_0846,ExactRep-v3-final,2021.2.3,59.98735468108056,
,,,,,,,,71,0,71,0,,,,,,,,,,,,,,,,,,,,,,,,,,,,,,,,,,,,,,,,,,,,,,,,,,,,,2165.2698369999416,None,,,,,,,,,,,,,,,,,,,,,,,,,,,,,,,,,,,safety,79,72,sing,red,2163.2682445999235,None,None,2163.2682445999235,None,,,,,,,,,,,,,,,,,,,,,,,,,,,,,,96NF,001,2023_Sep_07_0846,ExactRep-v3-final,2021.2.3,59.98735468108056,
,,,,,,,,72,0,72,0,,,,,,,,,,,,,,,,,,,,,,,,,,,,,,,,,,,,,,,,,,,,,,,,,,,,,2167.788882300025,None,,,,,,,,,,,,,,,,,,,,,,,,,,,,,,,,,,,charm,32,73,sing,red,2165.7827743000817,None,None,2165.7827743000817,None,,,,,,,,,,,,,,,,,,,,,,,,,,,,,,96NF,001,2023_Sep_07_0846,ExactRep-v3-final,2021.2.3,59.98735468108056,
,,,,,,,,73,0,73,0,,,,,,,,,,,,,,,,,,,,,,,,,,,,,,,,,,,,,,,,,,,,,,,,,,,,,2170.29168340005,None,,,,,,,,,,,,,,,,,,,,,,,,,,,,,,,,,,,life,22,74,sing,red,2168.28980639996,None,None,2168.28980639996,None,,,,,,,,,,,,,,,,,,,,,,,,,,,,,,96NF,001,2023_Sep_07_0846,ExactRep-v3-final,2021.2.3,59.98735468108056,
,,,,,,,,74,0,74,0,,,,,,,,,,,,,,,,,,,,,,,,,,,,,,,,,,,,,,,,,,,,,,,,,,,,,2172.7939619000535,None,,,,,,,,,,,,,,,,,,,,,,,,,,,,,,,,,,,mind,24,75,sing,red,2170.7923952001147,None,None,2170.7923952001147,None,,,,,,,,,,,,,,,,,,,,,,,,,,,,,,96NF,001,2023_Sep_07_0846,ExactRep-v3-final,2021.2.3,59.98735468108056,
,,,,,,,,75,0,75,0,,,,,,,,,,,,,,,,,,,,,,,,,,,,,,,,,,,,,,,,,,,,,,,,,,,,,2175.2964292999823,None,,,,,,,,,,,,,,,,,,,,,,,,,,,,,,,,,,,maiden,40,76,silent,blue,2173.2950710000005,None,None,2173.2950710000005,None,,,,,,,,,,,,,,,,,,,,,,,,,,,,,,96NF,001,2023_Sep_07_0846,ExactRep-v3-final,2021.2.3,59.98735468108056,
,,,,,,,,76,0,76,0,,,,,,,,,,,,,,,,,,,,,,,,,,,,,,,,,,,,,,,,,,,,,,,,,,,,,2177.8155875001103,None,,,,,,,,,,,,,,,,,,,,,,,,,,,,,,,,,,,glory,30,77,sing,red,2175.809942800086,None,None,2175.809942800086,None,,,,,,,,,,,,,,,,,,,,,,,,,,,,,,96NF,001,2023_Sep_07_0846,ExactRep-v3-final,2021.2.3,59.98735468108056,
,,,,,,,,77,0,77,0,,,,,,,,,,,,,,,,,,,,,,,,,,,,,,,,,,,,,,,,,,,,,,,,,,,,,2180.318156500114,None,,,,,,,,,,,,,,,,,,,,,,,,,,,,,,,,,,,vision,18,78,sing,red,2178.316616399912,None,None,2178.316616399912,None,,,,,,,,,,,,,,,,,,,,,,,,,,,,,,96NF,001,2023_Sep_07_0846,ExactRep-v3-final,2021.2.3,59.98735468108056,
,,,,,,,,78,0,78,0,,,,,,,,,,,,,,,,,,,,,,,,,,,,,,,,,,,,,,,,,,,,,,,,,,,,,2182.8372937000822,None,,,,,,,,,,,,,,,,,,,,,,,,,,,,,,,,,,,lake,88,79,aloud,white,2180.8229322000407,None,None,2180.8229322000407,None,,,,,,,,,,,,,,,,,,,,,,,,,,,,,,96NF,001,2023_Sep_07_0846,ExactRep-v3-final,2021.2.3,59.98735468108056,
,,,,,,,,79,0,79,0,,,,,,,,,,,,,,,,,,,,,,,,,,,,,,,,,,,,,,,,,,,,,,,,,,,,,2185.3401997999754,None,,,,,,,,,,,,,,,,,,,,,,,,,,,,,,,,,,,cotton,14,80,sing,red,2183.337639699923,None,None,2183.337639699923,None,,,,,,,,,,,,,,,,,,,,,,,,,,,,,,96NF,001,2023_Sep_07_0846,ExactRep-v3-final,2021.2.3,59.98735468108056,
,,,,,,,,80,0,80,0,,,,,,,,,,,,,,,,,,,,,,,,,,,,,,,,,,,,,,,,,,,,,,,,,,,,,2187.8589317000005,None,,,,,,,,,,,,,,,,,,,,,,,,,,,,,,,,,,,woman,38,81,sing,red,2185.844018300064,None,None,2185.844018300064,None,,,,,,,,,,,,,,,,,,,,,,,,,,,,,,96NF,001,2023_Sep_07_0846,ExactRep-v3-final,2021.2.3,59.98735468108056,
,,,,,,,,81,0,81,0,,,,,,,,,,,,,,,,,,,,,,,,,,,,,,,,,,,,,,,,,,,,,,,,,,,,,2190.361720100045,None,,,,,,,,,,,,,,,,,,,,,,,,,,,,,,,,,,,library,114,82,aloud,white,2188.3608460999094,None,None,2188.3608460999094,None,,,,,,,,,,,,,,,,,,,,,,,,,,,,,,96NF,001,2023_Sep_07_0846,ExactRep-v3-final,2021.2.3,59.98735468108056,
,,,,,,,,82,0,82,0,,,,,,,,,,,,,,,,,,,,,,,,,,,,,,,,,,,,,,,,,,,,,,,,,,,,,2192.8808873998933,None,,,,,,,,,,,,,,,,,,,,,,,,,,,,,,,,,,,weapon,63,83,silent,blue,2190.865846999921,None,None,2190.865846999921,None,,,,,,,,,,,,,,,,,,,,,,,,,,,,,,96NF,001,2023_Sep_07_0846,ExactRep-v3-final,2021.2.3,59.98735468108056,
,,,,,,,,83,0,83,0,,,,,,,,,,,,,,,,,,,,,,,,,,,,,,,,,,,,,,,,,,,,,,,,,,,,,2195.3831809998956,None,,,,,,,,,,,,,,,,,,,,,,,,,,,,,,,,,,,flower,51,84,silent,blue,2193.3815985000692,None,None,2193.3815985000692,None,,,,,,,,,,,,,,,,,,,,,,,,,,,,,,96NF,001,2023_Sep_07_0846,ExactRep-v3-final,2021.2.3,59.98735468108056,
,,,,,,,,84,0,84,0,,,,,,,,,,,,,,,,,,,,,,,,,,,,,,,,,,,,,,,,,,,,,,,,,,,,,2197.8859302999917,None,,,,,,,,,,,,,,,,,,,,,,,,,,,,,,,,,,,humour,106,85,aloud,white,2195.8840079999063,None,None,2195.8840079999063,None,,,,,,,,,,,,,,,,,,,,,,,,,,,,,,96NF,001,2023_Sep_07_0846,ExactRep-v3-final,2021.2.3,59.98735468108056,
,,,,,,,,85,0,85,0,,,,,,,,,,,,,,,,,,,,,,,,,,,,,,,,,,,,,,,,,,,,,,,,,,,,,2200.404658799991,None,,,,,,,,,,,,,,,,,,,,,,,,,,,,,,,,,,,blood,105,86,aloud,white,2198.390142899938,None,None,2198.390142899938,None,,,,,,,,,,,,,,,,,,,,,,,,,,,,,,96NF,001,2023_Sep_07_0846,ExactRep-v3-final,2021.2.3,59.98735468108056,
,,,,,,,,86,0,86,0,,,,,,,,,,,,,,,,,,,,,,,,,,,,,,,,,,,,,,,,,,,,,,,,,,,,,2202.9077685000375,None,,,,,,,,,,,,,,,,,,,,,,,,,,,,,,,,,,,corn,110,87,aloud,white,2200.9052687999792,None,None,2200.9052687999792,None,,,,,,,,,,,,,,,,,,,,,,,,,,,,,,96NF,001,2023_Sep_07_0846,ExactRep-v3-final,2021.2.3,59.98735468108056,
,,,,,,,,87,0,87,0,,,,,,,,,,,,,,,,,,,,,,,,,,,,,,,,,,,,,,,,,,,,,,,,,,,,,2205.4267523000017,None,,,,,,,,,,,,,,,,,,,,,,,,,,,,,,,,,,,month,36,88,sing,red,2203.411866399925,None,None,2203.411866399925,None,,,,,,,,,,,,,,,,,,,,,,,,,,,,,,96NF,001,2023_Sep_07_0846,ExactRep-v3-final,2021.2.3,59.98735468108056,
,,,,,,,,88,0,88,0,,,,,,,,,,,,,,,,,,,,,,,,,,,,,,,,,,,,,,,,,,,,,,,,,,,,,2207.9458802998997,None,,,,,,,,,,,,,,,,,,,,,,,,,,,,,,,,,,,volume,12,89,sing,red,2205.9304675001185,None,None,2205.9304675001185,None,,,,,,,,,,,,,,,,,,,,,,,,,,,,,,96NF,001,2023_Sep_07_0846,ExactRep-v3-final,2021.2.3,59.98735468108056,
,,,,,,,,89,0,89,0,,,,,,,,,,,,,,,,,,,,,,,,,,,,,,,,,,,,,,,,,,,,,,,,,,,,,2210.4483060999773,None,,,,,,,,,,,,,,,,,,,,,,,,,,,,,,,,,,,advice,5,90,sing,red,2208.448890300002,None,None,2208.448890300002,None,,,,,,,,,,,,,,,,,,,,,,,,,,,,,,96NF,001,2023_Sep_07_0846,ExactRep-v3-final,2021.2.3,59.98735468108056,
,,,,,,,,90,0,90,0,,,,,,,,,,,,,,,,,,,,,,,,,,,,,,,,,,,,,,,,,,,,,,,,,,,,,2212.9506210999098,None,,,,,,,,,,,,,,,,,,,,,,,,,,,,,,,,,,,book,17,91,sing,red,2210.948970800033,None,None,2210.948970800033,None,,,,,,,,,,,,,,,,,,,,,,,,,,,,,,96NF,001,2023_Sep_07_0846,ExactRep-v3-final,2021.2.3,59.98735468108056,
,,,,,,,,91,0,91,0,,,,,,,,,,,,,,,,,,,,,,,,,,,,,,,,,,,,,,,,,,,,,,,,,,,,,2215.453220800031,None,,,,,,,,,,,,,,,,,,,,,,,,,,,,,,,,,,,ability,23,92,sing,red,2213.4518001000397,None,None,2213.4518001000397,None,,,,,,,,,,,,,,,,,,,,,,,,,,,,,,96NF,001,2023_Sep_07_0846,ExactRep-v3-final,2021.2.3,59.98735468108056,
,,,,,,,,92,0,92,0,,,,,,,,,,,,,,,,,,,,,,,,,,,,,,,,,,,,,,,,,,,,,,,,,,,,,2217.9556191000156,None,,,,,,,,,,,,,,,,,,,,,,,,,,,,,,,,,,,form,117,93,aloud,white,2215.953790999949,None,None,2215.953790999949,None,,,,,,,,,,,,,,,,,,,,,,,,,,,,,,96NF,001,2023_Sep_07_0846,ExactRep-v3-final,2021.2.3,59.98735468108056,
,,,,,,,,93,0,93,0,,,,,,,,,,,,,,,,,,,,,,,,,,,,,,,,,,,,,,,,,,,,,,,,,,,,,2220.4581194000784,None,,,,,,,,,,,,,,,,,,,,,,,,,,,,,,,,,,,vessel,111,94,aloud,white,2218.4575481000356,None,None,2218.4575481000356,None,,,,,,,,,,,,,,,,,,,,,,,,,,,,,,96NF,001,2023_Sep_07_0846,ExactRep-v3-final,2021.2.3,59.98735468108056,
,,,,,,,,94,0,94,0,,,,,,,,,,,,,,,,,,,,,,,,,,,,,,,,,,,,,,,,,,,,,,,,,,,,,2222.977627000073,None,,,,,,,,,,,,,,,,,,,,,,,,,,,,,,,,,,,quality,78,95,silent,blue,2220.9691242999397,None,None,2220.9691242999397,None,,,,,,,,,,,,,,,,,,,,,,,,,,,,,,96NF,001,2023_Sep_07_0846,ExactRep-v3-final,2021.2.3,59.98735468108056,
,,,,,,,,95,0,95,0,,,,,,,,,,,,,,,,,,,,,,,,,,,,,,,,,,,,,,,,,,,,,,,,,,,,,2225.4800535000395,None,,,,,,,,,,,,,,,,,,,,,,,,,,,,,,,,,,,time,70,96,silent,blue,2223.4794062001165,None,None,2223.4794062001165,None,,,,,,,,,,,,,,,,,,,,,,,,,,,,,,96NF,001,2023_Sep_07_0846,ExactRep-v3-final,2021.2.3,59.98735468108056,
,,,,,,,,96,0,96,0,,,,,,,,,,,,,,,,,,,,,,,,,,,,,,,,,,,,,,,,,,,,,,,,,,,,,2227.9825355000794,None,,,,,,,,,,,,,,,,,,,,,,,,,,,,,,,,,,,village,77,97,silent,blue,2225.982952600112,None,None,2225.982952600112,None,,,,,,,,,,,,,,,,,,,,,,,,,,,,,,96NF,001,2023_Sep_07_0846,ExactRep-v3-final,2021.2.3,59.98735468108056,
,,,,,,,,97,0,97,0,,,,,,,,,,,,,,,,,,,,,,,,,,,,,,,,,,,,,,,,,,,,,,,,,,,,,2230.4851236999966,None,,,,,,,,,,,,,,,,,,,,,,,,,,,,,,,,,,,method,119,98,aloud,white,2228.485580000095,None,None,2228.485580000095,None,,,,,,,,,,,,,,,,,,,,,,,,,,,,,,96NF,001,2023_Sep_07_0846,ExactRep-v3-final,2021.2.3,59.98735468108056,
,,,,,,,,98,0,98,0,,,,,,,,,,,,,,,,,,,,,,,,,,,,,,,,,,,,,,,,,,,,,,,,,,,,,2233.00413320004,None,,,,,,,,,,,,,,,,,,,,,,,,,,,,,,,,,,,event,45,99,silent,blue,2230.9903408000246,None,None,2230.9903408000246,None,,,,,,,,,,,,,,,,,,,,,,,,,,,,,,96NF,001,2023_Sep_07_0846,ExactRep-v3-final,2021.2.3,59.98735468108056,
,,,,,,,,99,0,99,0,,,,,,,,,,,,,,,,,,,,,,,,,,,,,,,,,,,,,,,,,,,,,,,,,,,,,2235.506910199998,None,,,,,,,,,,,,,,,,,,,,,,,,,,,,,,,,,,,hide,91,100,aloud,white,2233.504995299969,None,None,2233.504995299969,None,,,,,,,,,,,,,,,,,,,,,,,,,,,,,,96NF,001,2023_Sep_07_0846,ExactRep-v3-final,2021.2.3,59.98735468108056,
,,,,,,,,100,0,100,0,,,,,,,,,,,,,,,,,,,,,,,,,,,,,,,,,,,,,,,,,,,,,,,,,,,,,2238.0281537000556,None,,,,,,,,,,,,,,,,,,,,,,,,,,,,,,,,,,,queen,20,101,sing,red,2236.0122193999123,None,None,2236.0122193999123,None,,,,,,,,,,,,,,,,,,,,,,,,,,,,,,96NF,001,2023_Sep_07_0846,ExactRep-v3-final,2021.2.3,59.98735468108056,
,,,,,,,,101,0,101,0,,,,,,,,,,,,,,,,,,,,,,,,,,,,,,,,,,,,,,,,,,,,,,,,,,,,,2240.528556199977,None,,,,,,,,,,,,,,,,,,,,,,,,,,,,,,,,,,,doll,103,102,aloud,white,2238.5281861000694,None,None,2238.5281861000694,None,,,,,,,,,,,,,,,,,,,,,,,,,,,,,,96NF,001,2023_Sep_07_0846,ExactRep-v3-final,2021.2.3,59.98735468108056,
,,,,,,,,102,0,102,0,,,,,,,,,,,,,,,,,,,,,,,,,,,,,,,,,,,,,,,,,,,,,,,,,,,,,2243.047707000049,None,,,,,,,,,,,,,,,,,,,,,,,,,,,,,,,,,,,apple,11,103,sing,red,2241.032817099942,None,None,2241.032817099942,None,,,,,,,,,,,,,,,,,,,,,,,,,,,,,,96NF,001,2023_Sep_07_0846,ExactRep-v3-final,2021.2.3,59.98735468108056,
,,,,,,,,103,0,103,0,,,,,,,,,,,,,,,,,,,,,,,,,,,,,,,,,,,,,,,,,,,,,,,,,,,,,2245.549868900096,None,,,,,,,,,,,,,,,,,,,,,,,,,,,,,,,,,,,city,90,104,aloud,white,2243.547850599978,None,None,2243.547850599978,None,,,,,,,,,,,,,,,,,,,,,,,,,,,,,,96NF,001,2023_Sep_07_0846,ExactRep-v3-final,2021.2.3,59.98735468108056,
,,,,,,,,104,0,104,0,,,,,,,,,,,,,,,,,,,,,,,,,,,,,,,,,,,,,,,,,,,,,,,,,,,,,2248.0527071000542,None,,,,,,,,,,,,,,,,,,,,,,,,,,,,,,,,,,,style,107,105,aloud,white,2246.0508461000863,None,None,2246.0508461000863,None,,,,,,,,,,,,,,,,,,,,,,,,,,,,,,96NF,001,2023_Sep_07_0846,ExactRep-v3-final,2021.2.3,59.98735468108056,
,,,,,,,,105,0,105,0,,,,,,,,,,,,,,,,,,,,,,,,,,,,,,,,,,,,,,,,,,,,,,,,,,,,,2250.5714666000567,None,,,,,,,,,,,,,,,,,,,,,,,,,,,,,,,,,,,square,109,106,aloud,white,2248.5575317998882,None,None,2248.5575317998882,None,,,,,,,,,,,,,,,,,,,,,,,,,,,,,,96NF,001,2023_Sep_07_0846,ExactRep-v3-final,2021.2.3,59.98735468108056,
,,,,,,,,106,0,106,0,,,,,,,,,,,,,,,,,,,,,,,,,,,,,,,,,,,,,,,,,,,,,,,,,,,,,2253.0910728001036,None,,,,,,,,,,,,,,,,,,,,,,,,,,,,,,,,,,,coin,21,107,sing,red,2251.077203700086,None,None,2251.077203700086,None,,,,,,,,,,,,,,,,,,,,,,,,,,,,,,96NF,001,2023_Sep_07_0846,ExactRep-v3-final,2021.2.3,59.98735468108056,
,,,,,,,,107,0,107,0,,,,,,,,,,,,,,,,,,,,,,,,,,,,,,,,,,,,,,,,,,,,,,,,,,,,,2255.5932235000655,None,,,,,,,,,,,,,,,,,,,,,,,,,,,,,,,,,,,temple,83,108,aloud,white,2253.5913188999984,None,None,2253.5913188999984,None,,,,,,,,,,,,,,,,,,,,,,,,,,,,,,96NF,001,2023_Sep_07_0846,ExactRep-v3-final,2021.2.3,59.98735468108056,
,,,,,,,,108,0,108,0,,,,,,,,,,,,,,,,,,,,,,,,,,,,,,,,,,,,,,,,,,,,,,,,,,,,,2258.0960357000586,None,,,,,,,,,,,,,,,,,,,,,,,,,,,,,,,,,,,flag,98,109,aloud,white,2256.0960075000767,None,None,2256.0960075000767,None,,,,,,,,,,,,,,,,,,,,,,,,,,,,,,96NF,001,2023_Sep_07_0846,ExactRep-v3-final,2021.2.3,59.98735468108056,
,,,,,,,,109,0,109,0,,,,,,,,,,,,,,,,,,,,,,,,,,,,,,,,,,,,,,,,,,,,,,,,,,,,,2260.6151934999507,None,,,,,,,,,,,,,,,,,,,,,,,,,,,,,,,,,,,cash,44,110,silent,blue,2258.6002541999333,None,None,2258.6002541999333,None,,,,,,,,,,,,,,,,,,,,,,,,,,,,,,96NF,001,2023_Sep_07_0846,ExactRep-v3-final,2021.2.3,59.98735468108056,
,,,,,,,,110,0,110,0,,,,,,,,,,,,,,,,,,,,,,,,,,,,,,,,,,,,,,,,,,,,,,,,,,,,,2263.1175005999394,None,,,,,,,,,,,,,,,,,,,,,,,,,,,,,,,,,,,coast,55,111,silent,blue,2261.117525700014,None,None,2261.117525700014,None,,,,,,,,,,,,,,,,,,,,,,,,,,,,,,96NF,001,2023_Sep_07_0846,ExactRep-v3-final,2021.2.3,59.98735468108056,
,,,,,,,,111,0,111,0,,,,,,,,,,,,,,,,,,,,,,,,,,,,,,,,,,,,,,,,,,,,,,,,,,,,,2265.6197864999995,None,,,,,,,,,,,,,,,,,,,,,,,,,,,,,,,,,,,coffee,39,112,silent,blue,2263.6183899999596,None,None,2263.6183899999596,None,,,,,,,,,,,,,,,,,,,,,,,,,,,,,,96NF,001,2023_Sep_07_0846,ExactRep-v3-final,2021.2.3,59.98735468108056,
,,,,,,,,112,0,112,0,,,,,,,,,,,,,,,,,,,,,,,,,,,,,,,,,,,,,,,,,,,,,,,,,,,,,2268.1223510000855,None,,,,,,,,,,,,,,,,,,,,,,,,,,,,,,,,,,,hotel,8,113,sing,red,2266.120875600027,None,None,2266.120875600027,None,,,,,,,,,,,,,,,,,,,,,,,,,,,,,,96NF,001,2023_Sep_07_0846,ExactRep-v3-final,2021.2.3,59.98735468108056,
,,,,,,,,113,0,113,0,,,,,,,,,,,,,,,,,,,,,,,,,,,,,,,,,,,,,,,,,,,,,,,,,,,,,2270.6421087000053,None,,,,,,,,,,,,,,,,,,,,,,,,,,,,,,,,,,,breast,92,114,aloud,white,2268.628135100007,None,None,2268.628135100007,None,,,,,,,,,,,,,,,,,,,,,,,,,,,,,,96NF,001,2023_Sep_07_0846,ExactRep-v3-final,2021.2.3,59.98735468108056,
,,,,,,,,114,0,114,0,,,,,,,,,,,,,,,,,,,,,,,,,,,,,,,,,,,,,,,,,,,,,,,,,,,,,2273.161260300083,None,,,,,,,,,,,,,,,,,,,,,,,,,,,,,,,,,,,journal,59,115,silent,blue,2271.162646499928,None,None,2271.162646499928,None,,,,,,,,,,,,,,,,,,,,,,,,,,,,,,96NF,001,2023_Sep_07_0846,ExactRep-v3-final,2021.2.3,59.98735468108056,
,,,,,,,,115,0,115,0,,,,,,,,,,,,,,,,,,,,,,,,,,,,,,,,,,,,,,,,,,,,,,,,,,,,,2275.680263800081,None,,,,,,,,,,,,,,,,,,,,,,,,,,,,,,,,,,,doctor,46,116,silent,blue,2273.6686205998994,None,None,2273.6686205998994,None,,,,,,,,,,,,,,,,,,,,,,,,,,,,,,96NF,001,2023_Sep_07_0846,ExactRep-v3-final,2021.2.3,59.98735468108056,
,,,,,,,,116,0,116,0,,,,,,,,,,,,,,,,,,,,,,,,,,,,,,,,,,,,,,,,,,,,,,,,,,,,,2278.199355999939,None,,,,,,,,,,,,,,,,,,,,,,,,,,,,,,,,,,,hall,0,117,sing,red,2276.189572399948,None,None,2276.189572399948,None,,,,,,,,,,,,,,,,,,,,,,,,,,,,,,96NF,001,2023_Sep_07_0846,ExactRep-v3-final,2021.2.3,59.98735468108056,
,,,,,,,,117,0,117,0,,,,,,,,,,,,,,,,,,,,,,,,,,,,,,,,,,,,,,,,,,,,,,,,,,,,,2280.718526999932,None,,,,,,,,,,,,,,,,,,,,,,,,,,,,,,,,,,,gift,13,118,sing,red,2278.7153181999456,None,None,2278.7153181999456,None,,,,,,,,,,,,,,,,,,,,,,,,,,,,,,96NF,001,2023_Sep_07_0846,ExactRep-v3-final,2021.2.3,59.98735468108056,
,,,,,,,,118,0,118,0,,,,,,,,,,,,,,,,,,,,,,,,,,,,,,,,,,,,,,,,,,,,,,,,,,,,,2283.23784899991,None,,,,,,,,,,,,,,,,,,,,,,,,,,,,,,,,,,,green,54,119,silent,blue,2281.226902199909,None,None,2281.226902199909,None,,,,,,,,,,,,,,,,,,,,,,,,,,,,,,96NF,001,2023_Sep_07_0846,ExactRep-v3-final,2021.2.3,59.98735468108056,
,,,,,,,,119,0,119,0,,,,,,,,,,,,,,,,,,,,,,,,,,,,,,,,,,,,,,,,,,,,,,,,,,,,,2285.7403313000686,None,,,,,,,,,,,,,,,,,,,,,,,,,,,,,,,,,,,honour,58,120,silent,blue,2283.73797919997,None,None,2283.73797919997,None,,,,,,,,,,,,,,,,,,,,,,,,,,,,,,96NF,001,2023_Sep_07_0846,ExactRep-v3-final,2021.2.3,59.98735468108056,
,,,,,,,,,,,,,,,,,,,,,,,,,,,,,,,,,,,,,,,,,,,,,,,,,,,,,,,,,,,,,,,,,,,,,,,,,,,,,,,,,,,,,,,,,,,,,,,,,,,,,,,,,,,,,,2286.2407897000667,None,space,1.3288990000728518,2296.2184395000804,None,,,,,,,,,,,,,,,,,,,,,,,,96NF,001,2023_Sep_07_0846,ExactRep-v3-final,2021.2.3,59.98735468108056,
,,,,,,,,,,,,,,,,,,,,,,,,,,,,,,,,,,,,,,,,,,,,,,,,,,,,,,,,,,,,,,,,,,,,,,,,,,,,,,,,,,,,,,,,,,,,,,,,,,,,,,,,,,,,,,,,,,,,2297.5708484998904,None,space,18.024768099887297,2307.5464290000964,None,,,,,,,,,,,,,,,,,,96NF,001,2023_Sep_07_0846,ExactRep-v3-final,2021.2.3,59.98735468108056,
,,,,,,,,,,,,0,0,0,0,,,,,,,,,,,,,,,,,,,,,,,,,,,,,,,,,,,,,,,,,,,,,,,,,2329.852866299916,None,,,,,,,,,,,,,,,,,,,,,,,,,,,,,,,,,,,,,,,,,,,,,,,,,,,,,,,,,market,33,1,sing,old,yellow,2326.1110572998878,None,y,2326.1110572998878,None,"['y', 'return']","[2.627735299989581, 3.70778839988634]",2326.1110572998878,None,,,96NF,001,2023_Sep_07_0846,ExactRep-v3-final,2021.2.3,59.98735468108056,
,,,,,,,,,,,,1,0,1,0,,,,,,,,,,,,,,,,,,,,,,,,,,,,,,,,,,,,,,,,,,,,,,,,,2334.173635300016,None,,,,,,,,,,,,,,,,,,,,,,,,,,,,,,,,,,,,,,,,,,,,,,,,,,,,,,,,,artist,236,2,aloud,new,yellow,2330.3785665999167,None,n,2330.3785665999167,None,"['n', 'return']","[2.648225300014019, 3.760177900083363]",2330.3785665999167,None,,,96NF,001,2023_Sep_07_0846,ExactRep-v3-final,2021.2.3,59.98735468108056,
,,,,,,,,,,,,2,0,2,0,,,,,,,,,,,,,,,,,,,,,,,,,,,,,,,,,,,,,,,,,,,,,,,,,2336.742634499911,None,,,,,,,,,,,,,,,,,,,,,,,,,,,,,,,,,,,,,,,,,,,,,,,,,,,,,,,,,lake,88,3,aloud,old,yellow,2334.691024699947,None,y,2334.691024699947,None,"['y', 'return']","[1.439901900012046, 2.0079467000905424]",2334.691024699947,None,,,96NF,001,2023_Sep_07_0846,ExactRep-v3-final,2021.2.3,59.98735468108056,
,,,,,,,,,,,,3,0,3,0,,,,,,,,,,,,,,,,,,,,,,,,,,,,,,,,,,,,,,,,,,,,,,,,,2339.5119568998925,None,,,,,,,,,,,,,,,,,,,,,,,,,,,,,,,,,,,,,,,,,,,,,,,,,,,,,,,,,thought,226,4,aloud,new,yellow,2337.2683602999896,None,n,2337.2683602999896,None,"['n', 'return']","[1.7504934999160469, 2.1984415999613702]",2337.2683602999896,None,,,96NF,001,2023_Sep_07_0846,ExactRep-v3-final,2021.2.3,59.98735468108056,
,,,,,,,,,,,,4,0,4,0,,,,,,,,,,,,,,,,,,,,,,,,,,,,,,,,,,,,,,,,,,,,,,,,,2342.0646271998994,None,,,,,,,,,,,,,,,,,,,,,,,,,,,,,,,,,,,,,,,,,,,,,,,,,,,,,,,,,prayer,73,5,silent,old,yellow,2340.0295571000315,None,y,2340.0295571000315,None,"['y', 'return']","[1.5012999000027776, 1.9892550001386553]",2340.0295571000315,None,,,96NF,001,2023_Sep_07_0846,ExactRep-v3-final,2021.2.3,59.98735468108056,
,,,,,,,,,,,,5,0,5,0,,,,,,,,,,,,,,,,,,,,,,,,,,,,,,,,,,,,,,,,,,,,,,,,,2344.8339496001136,None,,,,,,,,,,,,,,,,,,,,,,,,,,,,,,,,,,,,,,,,,,,,,,,,,,,,,,,,,horse,53,6,silent,old,yellow,2342.5861953001004,None,y,2342.5861953001004,None,"['y', 'return']","[1.2646118002012372, 2.2086250002030283]",2342.5861953001004,None,,,96NF,001,2023_Sep_07_0846,ExactRep-v3-final,2021.2.3,59.98735468108056,
,,,,,,,,,,,,6,0,6,0,,,,,,,,,,,,,,,,,,,,,,,,,,,,,,,,,,,,,,,,,,,,,,,,,2346.8682158999145,None,,,,,,,,,,,,,,,,,,,,,,,,,,,,,,,,,,,,,,,,,,,,,,,,,,,,,,,,,breast,92,7,aloud,old,yellow,2345.3514700001106,None,y,2345.3514700001106,None,"['y', 'return']","[1.0993830000516027, 1.4754463999997824]",2345.3514700001106,None,,,96NF,001,2023_Sep_07_0846,ExactRep-v3-final,2021.2.3,59.98735468108056,
,,,,,,,,,,,,7,0,7,0,,,,,,,,,,,,,,,,,,,,,,,,,,,,,,,,,,,,,,,,,,,,,,,,,2350.288925100118,None,,,,,,,,,,,,,,,,,,,,,,,,,,,,,,,,,,,,,,,,,,,,,,,,,,,,,,,,,circle,48,8,silent,old,yellow,2347.3739145,None,n,2347.3739145,None,"['n', 'return']","[1.7889761000405997, 2.868981200037524]",2347.3739145,None,,,96NF,001,2023_Sep_07_0846,ExactRep-v3-final,2021.2.3,59.98735468108056,
,,,,,,,,,,,,8,0,8,0,,,,,,,,,,,,,,,,,,,,,,,,,,,,,,,,,,,,,,,,,,,,,,,,,2353.0254887999035,None,,,,,,,,,,,,,,,,,,,,,,,,,,,,,,,,,,,,,,,,,,,,,,,,,,,,,,,,,clock,124,9,silent,new,yellow,2350.7901723000687,None,n,2350.7901723000687,None,"['n', 'return']","[1.796622599940747, 2.196733099874109]",2350.7901723000687,None,,,96NF,001,2023_Sep_07_0846,ExactRep-v3-final,2021.2.3,59.98735468108056,
,,,,,,,,,,,,9,0,9,0,,,,,,,,,,,,,,,,,,,,,,,,,,,,,,,,,,,,,,,,,,,,,,,,,2355.1609535000753,None,,,,,,,,,,,,,,,,,,,,,,,,,,,,,,,,,,,,,,,,,,,,,,,,,,,,,,,,,earth,64,10,silent,old,yellow,2353.5423389999196,None,y,2353.5423389999196,None,"['y', 'return']","[1.212543800007552, 1.580460699973628]",2353.5423389999196,None,,,96NF,001,2023_Sep_07_0846,ExactRep-v3-final,2021.2.3,59.98735468108056,
,,,,,,,,,,,,10,0,10,0,,,,,,,,,,,,,,,,,,,,,,,,,,,,,,,,,,,,,,,,,,,,,,,,,2357.546484499937,None,,,,,,,,,,,,,,,,,,,,,,,,,,,,,,,,,,,,,,,,,,,,,,,,,,,,,,,,,moment,86,11,aloud,old,yellow,2355.678519499954,None,y,2355.678519499954,None,"['y', 'return']","[1.3563072998076677, 1.8203594000078738]",2355.678519499954,None,,,96NF,001,2023_Sep_07_0846,ExactRep-v3-final,2021.2.3,59.98735468108056,
,,,,,,,,,,,,11,0,11,0,,,,,,,,,,,,,,,,,,,,,,,,,,,,,,,,,,,,,,,,,,,,,,,,,2360.366813499946,None,,,,,,,,,,,,,,,,,,,,,,,,,,,,,,,,,,,,,,,,,,,,,,,,,,,,,,,,,diamond,197,12,sing,new,yellow,2358.0474634000566,None,n,2358.0474634000566,None,"['n', 'return']","[1.4833233000244945, 2.2754595999140292]",2358.0474634000566,None,,,96NF,001,2023_Sep_07_0846,ExactRep-v3-final,2021.2.3,59.98735468108056,
,,,,,,,,,,,,12,0,12,0,,,,,,,,,,,,,,,,,,,,,,,,,,,,,,,,,,,,,,,,,,,,,,,,,2366.9220282000024,None,,,,,,,,,,,,,,,,,,,,,,,,,,,,,,,,,,,,,,,,,,,,,,,,,,,,,,,,,ability,23,13,sing,old,yellow,2360.883410200011,None,y,2360.883410200011,None,"['y', 'return']","[5.431572100147605, 5.991462800186127]",2360.883410200011,None,,,96NF,001,2023_Sep_07_0846,ExactRep-v3-final,2021.2.3,59.98735468108056,
,,,,,,,,,,,,13,0,13,0,,,,,,,,,,,,,,,,,,,,,,,,,,,,,,,,,,,,,,,,,,,,,,,,,2369.2753445999697,None,,,,,,,,,,,,,,,,,,,,,,,,,,,,,,,,,,,,,,,,,,,,,,,,,,,,,,,,,deed,186,14,aloud,new,yellow,2367.4235652999487,None,n,2367.4235652999487,None,"['n', 'return']","[1.3632196998223662, 1.8111831999849528]",2367.4235652999487,None,,,96NF,001,2023_Sep_07_0846,ExactRep-v3-final,2021.2.3,59.98735468108056,
,,,,,,,,,,,,14,0,14,0,,,,,,,,,,,,,,,,,,,,,,,,,,,,,,,,,,,,,,,,,,,,,,,,,2371.4427344999276,None,,,,,,,,,,,,,,,,,,,,,,,,,,,,,,,,,,,,,,,,,,,,,,,,,,,,,,,,,pipe,26,15,sing,old,yellow,2369.792550599901,None,y,2369.792550599901,None,"['y', 'return']","[1.2102916999720037, 1.6022879001684487]",2369.792550599901,None,,,96NF,001,2023_Sep_07_0846,ExactRep-v3-final,2021.2.3,59.98735468108056,
,,,,,,,,,,,,15,0,15,0,,,,,,,,,,,,,,,,,,,,,,,,,,,,,,,,,,,,,,,,,,,,,,,,,2373.913206700003,None,,,,,,,,,,,,,,,,,,,,,,,,,,,,,,,,,,,,,,,,,,,,,,,,,,,,,,,,,seat,224,16,aloud,new,yellow,2371.949864800088,None,n,2371.949864800088,None,"['n', 'return']","[1.293044300051406, 1.9249402000568807]",2371.949864800088,None,,,96NF,001,2023_Sep_07_0846,ExactRep-v3-final,2021.2.3,59.98735468108056,
,,,,,,,,,,,,16,0,16,0,,,,,,,,,,,,,,,,,,,,,,,,,,,,,,,,,,,,,,,,,,,,,,,,,2376.0318112000823,None,,,,,,,,,,,,,,,,,,,,,,,,,,,,,,,,,,,,,,,,,,,,,,,,,,,,,,,,,money,104,17,aloud,old,yellow,2374.4408384000417,None,y,2374.4408384000417,None,"['y', 'return']","[1.1704158999491483, 1.5541546000167727]",2374.4408384000417,None,,,96NF,001,2023_Sep_07_0846,ExactRep-v3-final,2021.2.3,59.98735468108056,
,,,,,,,,,,,,17,0,17,0,,,,,,,,,,,,,,,,,,,,,,,,,,,,,,,,,,,,,,,,,,,,,,,,,2378.8850696000736,None,,,,,,,,,,,,,,,,,,,,,,,,,,,,,,,,,,,,,,,,,,,,,,,,,,,,,,,,,ocean,115,18,aloud,old,yellow,2376.5396799000446,None,y,2376.5396799000446,None,"['y', 'return']","[1.895086099859327, 2.31117230001837]",2376.5396799000446,None,,,96NF,001,2023_Sep_07_0846,ExactRep-v3-final,2021.2.3,59.98735468108056,
,,,,,,,,,,,,18,0,18,0,,,,,,,,,,,,,,,,,,,,,,,,,,,,,,,,,,,,,,,,,,,,,,,,,2381.20372999995,None,,,,,,,,,,,,,,,,,,,,,,,,,,,,,,,,,,,,,,,,,,,,,,,,,,,,,,,,,ticket,27,19,sing,old,yellow,2379.4116316,None,y,2379.4116316,None,"['y', 'return']","[1.327211800031364, 1.7513012001290917]",2379.4116316,None,,,96NF,001,2023_Sep_07_0846,ExactRep-v3-final,2021.2.3,59.98735468108056,
,,,,,,,,,,,,19,0,19,0,,,,,,,,,,,,,,,,,,,,,,,,,,,,,,,,,,,,,,,,,,,,,,,,,2383.622528699925,None,,,,,,,,,,,,,,,,,,,,,,,,,,,,,,,,,,,,,,,,,,,,,,,,,,,,,,,,,coffee,39,20,silent,old,yellow,2381.7118351000827,None,y,2381.7118351000827,None,"['y', 'return']","[1.2989966999739408, 1.8670212000142783]",2381.7118351000827,None,,,96NF,001,2023_Sep_07_0846,ExactRep-v3-final,2021.2.3,59.98735468108056,
,,,,,,,,,,,,20,0,20,0,,,,,,,,,,,,,,,,,,,,,,,,,,,,,,,,,,,,,,,,,,,,,,,,,2389.061413699994,None,,,,,,,,,,,,,,,,,,,,,,,,,,,,,,,,,,,,,,,,,,,,,,,,,,,,,,,,,insect,80,21,aloud,old,yellow,2384.12366640009,None,y,2384.12366640009,None,"['y', 'return']","[4.159165900200605, 4.895208000205457]",2384.12366640009,None,,,96NF,001,2023_Sep_07_0846,ExactRep-v3-final,2021.2.3,59.98735468108056,
,,,,,,,,,,,,21,0,21,0,,,,,,,,,,,,,,,,,,,,,,,,,,,,,,,,,,,,,,,,,,,,,,,,,2391.6808801000006,None,,,,,,,,,,,,,,,,,,,,,,,,,,,,,,,,,,,,,,,,,,,,,,,,,,,,,,,,,prison,164,22,aloud,new,yellow,2389.5623379000463,None,n,2389.5623379000463,None,"['n', 'return']","[1.680818699998781, 2.0804053999017924]",2389.5623379000463,None,,,96NF,001,2023_Sep_07_0846,ExactRep-v3-final,2021.2.3,59.98735468108056,
,,,,,,,,,,,,22,0,22,0,,,,,,,,,,,,,,,,,,,,,,,,,,,,,,,,,,,,,,,,,,,,,,,,,2393.7825726999436,None,,,,,,,,,,,,,,,,,,,,,,,,,,,,,,,,,,,,,,,,,,,,,,,,,,,,,,,,,house,227,23,sing,new,yellow,2392.198764400091,None,y,2392.198764400091,None,"['y', 'return']","[1.1321465000510216, 1.5400695002172142]",2392.198764400091,None,,,96NF,001,2023_Sep_07_0846,ExactRep-v3-final,2021.2.3,59.98735468108056,
,,,,,,,,,,,,23,0,23,0,,,,,,,,,,,,,,,,,,,,,,,,,,,,,,,,,,,,,,,,,,,,,,,,,2395.9188192000147,None,,,,,,,,,,,,,,,,,,,,,,,,,,,,,,,,,,,,,,,,,,,,,,,,,,,,,,,,,vessel,111,24,aloud,old,yellow,2394.2840090000536,None,y,2394.2840090000536,None,"['y', 'return']","[1.1509030999150127, 1.5909849000163376]",2394.2840090000536,None,,,96NF,001,2023_Sep_07_0846,ExactRep-v3-final,2021.2.3,59.98735468108056,
,,,,,,,,,,,,24,0,24,0,,,,,,,,,,,,,,,,,,,,,,,,,,,,,,,,,,,,,,,,,,,,,,,,,2399.3558388999663,None,,,,,,,,,,,,,,,,,,,,,,,,,,,,,,,,,,,,,,,,,,,,,,,,,,,,,,,,,steam,177,25,sing,new,yellow,2396.4354811001103,None,n,2396.4354811001103,None,"['n', 'return']","[2.4233139001298696, 2.8793588001281023]",2396.4354811001103,None,,,96NF,001,2023_Sep_07_0846,ExactRep-v3-final,2021.2.3,59.98735468108056,
,,,,,,,,,,,,25,0,25,0,,,,,,,,,,,,,,,,,,,,,,,,,,,,,,,,,,,,,,,,,,,,,,,,,2401.5543547999114,None,,,,,,,,,,,,,,,,,,,,,,,,,,,,,,,,,,,,,,,,,,,,,,,,,,,,,,,,,skin,207,26,sing,new,yellow,2399.8759274000768,None,n,2399.8759274000768,None,"['n', 'return']","[1.1829413999803364, 1.623030300019309]",2399.8759274000768,None,,,96NF,001,2023_Sep_07_0846,ExactRep-v3-final,2021.2.3,59.98735468108056,
,,,,,,,,,,,,26,0,26,0,,,,,,,,,,,,,,,,,,,,,,,,,,,,,,,,,,,,,,,,,,,,,,,,,2404.076656300109,None,,,,,,,,,,,,,,,,,,,,,,,,,,,,,,,,,,,,,,,,,,,,,,,,,,,,,,,,,shame,75,27,silent,old,yellow,2402.0613386998884,None,n,2402.0613386998884,None,"['n', 'return']","[1.5415722001343966, 1.9735791001003236]",2402.0613386998884,None,,,96NF,001,2023_Sep_07_0846,ExactRep-v3-final,2021.2.3,59.98735468108056,
,,,,,,,,,,,,27,0,27,0,,,,,,,,,,,,,,,,,,,,,,,,,,,,,,,,,,,,,,,,,,,,,,,,,2408.6813866000157,None,,,,,,,,,,,,,,,,,,,,,,,,,,,,,,,,,,,,,,,,,,,,,,,,,,,,,,,,,street,147,28,silent,new,yellow,2404.59271560004,None,y,2404.59271560004,None,"['y', 'return']","[3.6420749998651445, 4.042086299974471]",2404.59271560004,None,,,96NF,001,2023_Sep_07_0846,ExactRep-v3-final,2021.2.3,59.98735468108056,
,,,,,,,,,,,,28,0,28,0,,,,,,,,,,,,,,,,,,,,,,,,,,,,,,,,,,,,,,,,,,,,,,,,,2411.0665909999516,None,,,,,,,,,,,,,,,,,,,,,,,,,,,,,,,,,,,,,,,,,,,,,,,,,,,,,,,,,anger,184,29,aloud,new,yellow,2409.198593399953,None,n,2409.198593399953,None,"['n', 'return']","[1.388147999998182, 1.8282306999899447]",2409.198593399953,None,,,96NF,001,2023_Sep_07_0846,ExactRep-v3-final,2021.2.3,59.98735468108056,
,,,,,,,,,,,,29,0,29,0,,,,,,,,,,,,,,,,,,,,,,,,,,,,,,,,,,,,,,,,,,,,,,,,,2413.3689671000466,None,,,,,,,,,,,,,,,,,,,,,,,,,,,,,,,,,,,,,,,,,,,,,,,,,,,,,,,,,maiden,40,30,silent,old,yellow,2411.567603399977,None,y,2411.567603399977,None,"['y', 'return']","[1.3551773000508547, 1.7552048000507057]",2411.567603399977,None,,,96NF,001,2023_Sep_07_0846,ExactRep-v3-final,2021.2.3,59.98735468108056,
,,,,,,,,,,,,30,0,30,0,,,,,,,,,,,,,,,,,,,,,,,,,,,,,,,,,,,,,,,,,,,,,,,,,2418.841963799903,None,,,,,,,,,,,,,,,,,,,,,,,,,,,,,,,,,,,,,,,,,,,,,,,,,,,,,,,,,excuse,126,31,silent,new,yellow,2413.8846096000634,None,n,2413.8846096000634,None,"['n', 'return']","[4.142231599893421, 4.918232099851593]",2413.8846096000634,None,,,96NF,001,2023_Sep_07_0846,ExactRep-v3-final,2021.2.3,59.98735468108056,
,,,,,,,,,,,,31,0,31,0,,,,,,,,,,,,,,,,,,,,,,,,,,,,,,,,,,,,,,,,,,,,,,,,,2420.893810800044,None,,,,,,,,,,,,,,,,,,,,,,,,,,,,,,,,,,,,,,,,,,,,,,,,,,,,,,,,,moral,99,32,aloud,old,yellow,2419.358378400095,None,y,2419.358378400095,None,"['y', 'return']","[1.1325835001189262, 1.4925422000233084]",2419.358378400095,None,,,96NF,001,2023_Sep_07_0846,ExactRep-v3-final,2021.2.3,59.98735468108056,
,,,,,,,,,,,,32,0,32,0,,,,,,,,,,,,,,,,,,,,,,,,,,,,,,,,,,,,,,,,,,,,,,,,,2423.595951100113,None,,,,,,,,,,,,,,,,,,,,,,,,,,,,,,,,,,,,,,,,,,,,,,,,,,,,,,,,,cottage,213,33,sing,new,yellow,2421.410564400023,None,y,2421.410564400023,None,"['y', 'return']","[1.736270499881357, 2.1442868998274207]",2421.410564400023,None,,,96NF,001,2023_Sep_07_0846,ExactRep-v3-final,2021.2.3,59.98735468108056,
,,,,,,,,,,,,33,0,33,0,,,,,,,,,,,,,,,,,,,,,,,,,,,,,,,,,,,,,,,,,,,,,,,,,2426.981223100098,None,,,,,,,,,,,,,,,,,,,,,,,,,,,,,,,,,,,,,,,,,,,,,,,,,,,,,,,,,hide,91,34,aloud,old,yellow,2424.1127716999035,None,n,2424.1127716999035,None,"['n', 'return']","[2.362035400001332, 2.82622449984774]",2424.1127716999035,None,,,96NF,001,2023_Sep_07_0846,ExactRep-v3-final,2021.2.3,59.98735468108056,
,,,,,,,,,,,,34,0,34,0,,,,,,,,,,,,,,,,,,,,,,,,,,,,,,,,,,,,,,,,,,,,,,,,,2431.97072089999,None,,,,,,,,,,,,,,,,,,,,,,,,,,,,,,,,,,,,,,,,,,,,,,,,,,,,,,,,,dress,234,35,aloud,new,yellow,2427.483538399916,None,y,2427.483538399916,None,"['y', 'return']","[4.079292899928987, 4.447282999986783]",2427.483538399916,None,,,96NF,001,2023_Sep_07_0846,ExactRep-v3-final,2021.2.3,59.98735468108056,
,,,,,,,,,,,,35,0,35,0,,,,,,,,,,,,,,,,,,,,,,,,,,,,,,,,,,,,,,,,,,,,,,,,,2435.124032099964,None,,,,,,,,,,,,,,,,,,,,,,,,,,,,,,,,,,,,,,,,,,,,,,,,,,,,,,,,,hotel,8,36,sing,old,yellow,2432.489762299927,None,y,2432.489762299927,None,"['y', 'return']","[2.161084800027311, 2.5850883000530303]",2432.489762299927,None,,,96NF,001,2023_Sep_07_0846,ExactRep-v3-final,2021.2.3,59.98735468108056,
,,,,,,,,,,,,36,0,36,0,,,,,,,,,,,,,,,,,,,,,,,,,,,,,,,,,,,,,,,,,,,,,,,,,2438.193876999896,None,,,,,,,,,,,,,,,,,,,,,,,,,,,,,,,,,,,,,,,,,,,,,,,,,,,,,,,,,city,90,37,aloud,old,yellow,2435.629469699925,None,y,2435.629469699925,None,"['y', 'return']","[2.205480699893087, 2.517415100010112]",2435.629469699925,None,,,96NF,001,2023_Sep_07_0846,ExactRep-v3-final,2021.2.3,59.98735468108056,
,,,,,,,,,,,,37,0,37,0,,,,,,,,,,,,,,,,,,,,,,,,,,,,,,,,,,,,,,,,,,,,,,,,,2440.2451875999104,None,,,,,,,,,,,,,,,,,,,,,,,,,,,,,,,,,,,,,,,,,,,,,,,,,,,,,,,,,doll,103,38,aloud,old,yellow,2438.710628000088,None,y,2438.710628000088,None,"['y', 'return']","[1.1163897002115846, 1.5004264002200216]",2438.710628000088,None,,,96NF,001,2023_Sep_07_0846,ExactRep-v3-final,2021.2.3,59.98735468108056,
,,,,,,,,,,,,38,0,38,0,,,,,,,,,,,,,,,,,,,,,,,,,,,,,,,,,,,,,,,,,,,,,,,,,2444.8504139001016,None,,,,,,,,,,,,,,,,,,,,,,,,,,,,,,,,,,,,,,,,,,,,,,,,,,,,,,,,,dollar,200,39,aloud,new,yellow,2440.746741699986,None,y,2440.746741699986,None,"['y', 'return']","[3.640095700044185, 4.056152299977839]",2440.746741699986,None,,,96NF,001,2023_Sep_07_0846,ExactRep-v3-final,2021.2.3,59.98735468108056,
,,,,,,,,,,,,39,0,39,0,,,,,,,,,,,,,,,,,,,,,,,,,,,,,,,,,,,,,,,,,,,,,,,,,2448.2539558000863,None,,,,,,,,,,,,,,,,,,,,,,,,,,,,,,,,,,,,,,,,,,,,,,,,,,,,,,,,,temple,83,40,aloud,old,yellow,2445.351590000093,None,y,2445.351590000093,None,"['y', 'return']","[2.4594578000251204, 2.8593012001365423]",2445.351590000093,None,,,96NF,001,2023_Sep_07_0846,ExactRep-v3-final,2021.2.3,59.98735468108056,
,,,,,,,,,,,,40,0,40,0,,,,,,,,,,,,,,,,,,,,,,,,,,,,,,,,,,,,,,,,,,,,,,,,,2455.694615500048,None,,,,,,,,,,,,,,,,,,,,,,,,,,,,,,,,,,,,,,,,,,,,,,,,,,,,,,,,,season,193,41,sing,new,yellow,2448.7630183999427,None,y,2448.7630183999427,None,"['n', 'backspace', 'y', 'return']","[2.871775999898091, 4.351800499949604, 6.42377799982205, 6.88780999998562]",2448.7630183999427,None,,,96NF,001,2023_Sep_07_0846,ExactRep-v3-final,2021.2.3,59.98735468108056,
,,,,,,,,,,,,41,0,41,0,,,,,,,,,,,,,,,,,,,,,,,,,,,,,,,,,,,,,,,,,,,,,,,,,2458.981068599969,None,,,,,,,,,,,,,,,,,,,,,,,,,,,,,,,,,,,,,,,,,,,,,,,,,,,,,,,,,salary,62,42,silent,old,yellow,2456.2203257998917,None,y,2456.2203257998917,None,"['y', 'return']","[2.3425106999929994, 2.718637099955231]",2456.2203257998917,None,,,96NF,001,2023_Sep_07_0846,ExactRep-v3-final,2021.2.3,59.98735468108056,
,,,,,,,,,,,,42,0,42,0,,,,,,,,,,,,,,,,,,,,,,,,,,,,,,,,,,,,,,,,,,,,,,,,,2461.150367300026,None,,,,,,,,,,,,,,,,,,,,,,,,,,,,,,,,,,,,,,,,,,,,,,,,,,,,,,,,,ship,182,43,aloud,new,yellow,2459.4817089000717,None,y,2459.4817089000717,None,"['y', 'return']","[1.2812779999803752, 1.6251222998835146]",2459.4817089000717,None,,,96NF,001,2023_Sep_07_0846,ExactRep-v3-final,2021.2.3,59.98735468108056,
,,,,,,,,,,,,43,0,43,0,,,,,,,,,,,,,,,,,,,,,,,,,,,,,,,,,,,,,,,,,,,,,,,,,2463.2190574000124,None,,,,,,,,,,,,,,,,,,,,,,,,,,,,,,,,,,,,,,,,,,,,,,,,,,,,,,,,,journal,59,44,silent,old,yellow,2461.66785670002,None,y,2461.66785670002,None,"['y', 'return']","[1.1750202998518944, 1.502986199920997]",2461.66785670002,None,,,96NF,001,2023_Sep_07_0846,ExactRep-v3-final,2021.2.3,59.98735468108056,
,,,,,,,,,,,,44,0,44,0,,,,,,,,,,,,,,,,,,,,,,,,,,,,,,,,,,,,,,,,,,,,,,,,,2468.041029300075,None,,,,,,,,,,,,,,,,,,,,,,,,,,,,,,,,,,,,,,,,,,,,,,,,,,,,,,,,,corn,110,45,aloud,old,yellow,2463.7366007000674,None,y,2463.7366007000674,None,"['y', 'return']","[3.40238120011054, 4.266450700117275]",2463.7366007000674,None,,,96NF,001,2023_Sep_07_0846,ExactRep-v3-final,2021.2.3,59.98735468108056,
,,,,,,,,,,,,45,0,45,0,,,,,,,,,,,,,,,,,,,,,,,,,,,,,,,,,,,,,,,,,,,,,,,,,2471.910747200018,None,,,,,,,,,,,,,,,,,,,,,,,,,,,,,,,,,,,,,,,,,,,,,,,,,,,,,,,,,girl,190,46,aloud,new,yellow,2468.5569541000295,None,n,2468.5569541000295,None,"['n', 'return']","[2.8379260001238436, 3.317917900159955]",2468.5569541000295,None,,,96NF,001,2023_Sep_07_0846,ExactRep-v3-final,2021.2.3,59.98735468108056,
,,,,,,,,,,,,46,0,46,0,,,,,,,,,,,,,,,,,,,,,,,,,,,,,,,,,,,,,,,,,,,,,,,,,2474.045315500116,None,,,,,,,,,,,,,,,,,,,,,,,,,,,,,,,,,,,,,,,,,,,,,,,,,,,,,,,,,honour,58,47,silent,old,yellow,2472.428420000011,None,y,2472.428420000011,None,"['y', 'return']","[1.2144147001672536, 1.582680500112474]",2472.428420000011,None,,,96NF,001,2023_Sep_07_0846,ExactRep-v3-final,2021.2.3,59.98735468108056,
,,,,,,,,,,,,47,0,47,0,,,,,,,,,,,,,,,,,,,,,,,,,,,,,,,,,,,,,,,,,,,,,,,,,2476.0318257999606,None,,,,,,,,,,,,,,,,,,,,,,,,,,,,,,,,,,,,,,,,,,,,,,,,,,,,,,,,,table,68,48,silent,old,yellow,2474.5473947001155,None,y,2474.5473947001155,None,"['y', 'return']","[1.023461600067094, 1.4393273000605404]",2474.5473947001155,None,,,96NF,001,2023_Sep_07_0846,ExactRep-v3-final,2021.2.3,59.98735468108056,
,,,,,,,,,,,,48,0,48,0,,,,,,,,,,,,,,,,,,,,,,,,,,,,,,,,,,,,,,,,,,,,,,,,,2478.7846470000222,None,,,,,,,,,,,,,,,,,,,,,,,,,,,,,,,,,,,,,,,,,,,,,,,,,,,,,,,,,village,77,49,silent,old,yellow,2476.553601700114,None,y,2476.553601700114,None,"['y', 'return']","[1.8091637999750674, 2.1936259001959115]",2476.553601700114,None,,,96NF,001,2023_Sep_07_0846,ExactRep-v3-final,2021.2.3,59.98735468108056,
,,,,,,,,,,,,49,0,49,0,,,,,,,,,,,,,,,,,,,,,,,,,,,,,,,,,,,,,,,,,,,,,,,,,2480.919925000053,None,,,,,,,,,,,,,,,,,,,,,,,,,,,,,,,,,,,,,,,,,,,,,,,,,,,,,,,,,speech,66,50,silent,old,yellow,2479.3016341999173,None,n,2479.3016341999173,None,"['n', 'return']","[1.245173200033605, 1.5813843000214547]",2479.3016341999173,None,,,96NF,001,2023_Sep_07_0846,ExactRep-v3-final,2021.2.3,59.98735468108056,
,,,,,,,,,,,,50,0,50,0,,,,,,,,,,,,,,,,,,,,,,,,,,,,,,,,,,,,,,,,,,,,,,,,,2484.423644900089,None,,,,,,,,,,,,,,,,,,,,,,,,,,,,,,,,,,,,,,,,,,,,,,,,,,,,,,,,,opinion,152,51,silent,new,yellow,2481.4374734999146,None,n,2481.4374734999146,None,"['n', 'return']","[2.3972804001532495, 2.949379099998623]",2481.4374734999146,None,,,96NF,001,2023_Sep_07_0846,ExactRep-v3-final,2021.2.3,59.98735468108056,
,,,,,,,,,,,,51,0,51,0,,,,,,,,,,,,,,,,,,,,,,,,,,,,,,,,,,,,,,,,,,,,,,,,,2486.3753442000598,None,,,,,,,,,,,,,,,,,,,,,,,,,,,,,,,,,,,,,,,,,,,,,,,,,,,,,,,,,coin,21,52,sing,old,yellow,2484.9399892000947,None,y,2484.9399892000947,None,"['y', 'return']","[1.031080799875781, 1.3907955999020487]",2484.9399892000947,None,,,96NF,001,2023_Sep_07_0846,ExactRep-v3-final,2021.2.3,59.98735468108056,
,,,,,,,,,,,,52,0,52,0,,,,,,,,,,,,,,,,,,,,,,,,,,,,,,,,,,,,,,,,,,,,,,,,,2488.8110265999567,None,,,,,,,,,,,,,,,,,,,,,,,,,,,,,,,,,,,,,,,,,,,,,,,,,,,,,,,,,law,144,53,silent,new,yellow,2486.904048800003,None,n,2486.904048800003,None,"['n', 'return']","[1.458846899913624, 1.8587805000133812]",2486.904048800003,None,,,96NF,001,2023_Sep_07_0846,ExactRep-v3-final,2021.2.3,59.98735468108056,
,,,,,,,,,,,,53,0,53,0,,,,,,,,,,,,,,,,,,,,,,,,,,,,,,,,,,,,,,,,,,,,,,,,,2492.315382000059,None,,,,,,,,,,,,,,,,,,,,,,,,,,,,,,,,,,,,,,,,,,,,,,,,,,,,,,,,,life,22,54,sing,old,yellow,2489.3159314000513,None,y,2489.3159314000513,None,"['y', 'return']","[2.102978100068867, 2.958890400128439]",2489.3159314000513,None,,,96NF,001,2023_Sep_07_0846,ExactRep-v3-final,2021.2.3,59.98735468108056,
,,,,,,,,,,,,54,0,54,0,,,,,,,,,,,,,,,,,,,,,,,,,,,,,,,,,,,,,,,,,,,,,,,,,2497.1696266999934,None,,,,,,,,,,,,,,,,,,,,,,,,,,,,,,,,,,,,,,,,,,,,,,,,,,,,,,,,,form,117,55,aloud,old,yellow,2492.8372967999894,None,y,2492.8372967999894,None,"['y', 'return']","[3.805529600009322, 4.29356660018675]",2492.8372967999894,None,,,96NF,001,2023_Sep_07_0846,ExactRep-v3-final,2021.2.3,59.98735468108056,
,,,,,,,,,,,,55,0,55,0,,,,,,,,,,,,,,,,,,,,,,,,,,,,,,,,,,,,,,,,,,,,,,,,,2499.3549411999993,None,,,,,,,,,,,,,,,,,,,,,,,,,,,,,,,,,,,,,,,,,,,,,,,,,,,,,,,,,coast,55,56,silent,old,yellow,2497.679513900075,None,y,2497.679513900075,None,"['y', 'return']","[1.1472304000053555, 1.6273247001226991]",2497.679513900075,None,,,96NF,001,2023_Sep_07_0846,ExactRep-v3-final,2021.2.3,59.98735468108056,
,,,,,,,,,,,,56,0,56,0,,,,,,,,,,,,,,,,,,,,,,,,,,,,,,,,,,,,,,,,,,,,,,,,,2501.8908400000073,None,,,,,,,,,,,,,,,,,,,,,,,,,,,,,,,,,,,,,,,,,,,,,,,,,,,,,,,,,party,138,57,silent,new,yellow,2499.863428399898,None,n,2499.863428399898,None,"['n', 'return']","[1.4992725001648068, 1.9873575000092387]",2499.863428399898,None,,,96NF,001,2023_Sep_07_0846,ExactRep-v3-final,2021.2.3,59.98735468108056,
,,,,,,,,,,,,57,0,57,0,,,,,,,,,,,,,,,,,,,,,,,,,,,,,,,,,,,,,,,,,,,,,,,,,2506.5787492999807,None,,,,,,,,,,,,,,,,,,,,,,,,,,,,,,,,,,,,,,,,,,,,,,,,,,,,,,,,,slave,149,58,silent,new,yellow,2502.4026345999446,None,n,2502.4026345999446,None,"['n', 'return']","[3.128193800104782, 4.136164800031111]",2502.4026345999446,None,,,96NF,001,2023_Sep_07_0846,ExactRep-v3-final,2021.2.3,59.98735468108056,
,,,,,,,,,,,,58,0,58,0,,,,,,,,,,,,,,,,,,,,,,,,,,,,,,,,,,,,,,,,,,,,,,,,,2508.9482313999906,None,,,,,,,,,,,,,,,,,,,,,,,,,,,,,,,,,,,,,,,,,,,,,,,,,,,,,,,,,plain,10,59,sing,old,yellow,2507.0906742000952,None,y,2507.0906742000952,None,"['y', 'return']","[1.3600056001450866, 1.8081287001259625]",2507.0906742000952,None,,,96NF,001,2023_Sep_07_0846,ExactRep-v3-final,2021.2.3,59.98735468108056,
,,,,,,,,,,,,59,0,59,0,,,,,,,,,,,,,,,,,,,,,,,,,,,,,,,,,,,,,,,,,,,,,,,,,2511.084577899892,None,,,,,,,,,,,,,,,,,,,,,,,,,,,,,,,,,,,,,,,,,,,,,,,,,,,,,,,,,cat,208,60,aloud,new,yellow,2509.472425200045,None,n,2509.472425200045,None,"['n', 'return']","[1.1863519998732954, 1.57042169990018]",2509.472425200045,None,,,96NF,001,2023_Sep_07_0846,ExactRep-v3-final,2021.2.3,59.98735468108056,
,,,,,,,,,,,,60,0,60,0,,,,,,,,,,,,,,,,,,,,,,,,,,,,,,,,,,,,,,,,,,,,,,,,,2515.2208159000147,None,,,,,,,,,,,,,,,,,,,,,,,,,,,,,,,,,,,,,,,,,,,,,,,,,,,,,,,,,origin,238,61,aloud,new,yellow,2511.6007423999254,None,n,2511.6007423999254,None,"['n', 'return']","[2.8101073999423534, 3.578061999985948]",2511.6007423999254,None,,,96NF,001,2023_Sep_07_0846,ExactRep-v3-final,2021.2.3,59.98735468108056,
,,,,,,,,,,,,61,0,61,0,,,,,,,,,,,,,,,,,,,,,,,,,,,,,,,,,,,,,,,,,,,,,,,,,2520.926332199946,None,,,,,,,,,,,,,,,,,,,,,,,,,,,,,,,,,,,,,,,,,,,,,,,,,,,,,,,,,picture,169,62,sing,new,yellow,2515.738779899897,None,y,2515.738779899897,None,"['y', 'return']","[4.216287400107831, 5.143991700140759]",2515.738779899897,None,,,96NF,001,2023_Sep_07_0846,ExactRep-v3-final,2021.2.3,59.98735468108056,
,,,,,,,,,,,,62,0,62,0,,,,,,,,,,,,,,,,,,,,,,,,,,,,,,,,,,,,,,,,,,,,,,,,,2524.747068699915,None,,,,,,,,,,,,,,,,,,,,,,,,,,,,,,,,,,,,,,,,,,,,,,,,,,,,,,,,,letter,37,63,sing,old,yellow,2521.4277892999817,None,y,2521.4277892999817,None,"['y', 'return']","[2.8390702998731285, 3.271029599942267]",2521.4277892999817,None,,,96NF,001,2023_Sep_07_0846,ExactRep-v3-final,2021.2.3,59.98735468108056,
,,,,,,,,,,,,63,0,63,0,,,,,,,,,,,,,,,,,,,,,,,,,,,,,,,,,,,,,,,,,,,,,,,,,2527.0158645000774,None,,,,,,,,,,,,,,,,,,,,,,,,,,,,,,,,,,,,,,,,,,,,,,,,,,,,,,,,,fate,113,64,aloud,old,yellow,2525.258747499902,None,y,2525.258747499902,None,"['y', 'return']","[1.2800817999523133, 1.7205161999445409]",2525.258747499902,None,,,96NF,001,2023_Sep_07_0846,ExactRep-v3-final,2021.2.3,59.98735468108056,
,,,,,,,,,,,,64,0,64,0,,,,,,,,,,,,,,,,,,,,,,,,,,,,,,,,,,,,,,,,,,,,,,,,,2529.168635699898,None,,,,,,,,,,,,,,,,,,,,,,,,,,,,,,,,,,,,,,,,,,,,,,,,,,,,,,,,,pole,233,65,sing,new,yellow,2527.5241539001,None,y,2527.5241539001,None,"['y', 'return']","[1.2068155999295413, 1.5987920998595655]",2527.5241539001,None,,,96NF,001,2023_Sep_07_0846,ExactRep-v3-final,2021.2.3,59.98735468108056,
,,,,,,,,,,,,65,0,65,0,,,,,,,,,,,,,,,,,,,,,,,,,,,,,,,,,,,,,,,,,,,,,,,,,2536.375618400052,None,,,,,,,,,,,,,,,,,,,,,,,,,,,,,,,,,,,,,,,,,,,,,,,,,,,,,,,,,tool,183,66,sing,new,yellow,2529.7019030998927,None,y,2529.7019030998927,None,"['n', 'backspace', 'y', 'return']","[1.3490587999112904, 5.068860600003973, 6.269016799982637, 6.628928000107408]",2529.7019030998927,None,,,96NF,001,2023_Sep_07_0846,ExactRep-v3-final,2021.2.3,59.98735468108056,
,,,,,,,,,,,,66,0,66,0,,,,,,,,,,,,,,,,,,,,,,,,,,,,,,,,,,,,,,,,,,,,,,,,,2539.0454259000253,None,,,,,,,,,,,,,,,,,,,,,,,,,,,,,,,,,,,,,,,,,,,,,,,,,,,,,,,,,death,121,67,silent,new,yellow,2536.89274140005,None,n,2536.89274140005,None,"['n', 'return']","[1.693945299834013, 2.1021984999533743]",2536.89274140005,None,,,96NF,001,2023_Sep_07_0846,ExactRep-v3-final,2021.2.3,59.98735468108056,
,,,,,,,,,,,,67,0,67,0,,,,,,,,,,,,,,,,,,,,,,,,,,,,,,,,,,,,,,,,,,,,,,,,,2542.19484989997,None,,,,,,,,,,,,,,,,,,,,,,,,,,,,,,,,,,,,,,,,,,,,,,,,,,,,,,,,,water,69,68,silent,old,yellow,2539.5702418000437,None,n,2539.5702418000437,None,"['n', 'return']","[1.9605669998563826, 2.5765335999894887]",2539.5702418000437,None,,,96NF,001,2023_Sep_07_0846,ExactRep-v3-final,2021.2.3,59.98735468108056,
,,,,,,,,,,,,68,0,68,0,,,,,,,,,,,,,,,,,,,,,,,,,,,,,,,,,,,,,,,,,,,,,,,,,2544.4004267000128,None,,,,,,,,,,,,,,,,,,,,,,,,,,,,,,,,,,,,,,,,,,,,,,,,,,,,,,,,,master,35,69,sing,old,yellow,2542.701676100027,None,y,2542.701676100027,None,"['y', 'return']","[1.2531848999205977, 1.6530670998618007]",2542.701676100027,None,,,96NF,001,2023_Sep_07_0846,ExactRep-v3-final,2021.2.3,59.98735468108056,
,,,,,,,,,,,,69,0,69,0,,,,,,,,,,,,,,,,,,,,,,,,,,,,,,,,,,,,,,,,,,,,,,,,,2551.974141600076,None,,,,,,,,,,,,,,,,,,,,,,,,,,,,,,,,,,,,,,,,,,,,,,,,,,,,,,,,,passion,231,70,sing,new,yellow,2544.92067459994,None,n,2544.92067459994,None,"['n', 'return']","[6.466364900115877, 7.018308799946681]",2544.92067459994,None,,,96NF,001,2023_Sep_07_0846,ExactRep-v3-final,2021.2.3,59.98735468108056,
,,,,,,,,,,,,70,0,70,0,,,,,,,,,,,,,,,,,,,,,,,,,,,,,,,,,,,,,,,,,,,,,,,,,2554.6607339999173,None,,,,,,,,,,,,,,,,,,,,,,,,,,,,,,,,,,,,,,,,,,,,,,,,,,,,,,,,,wheat,1,71,sing,old,yellow,2552.4834185999352,None,y,2552.4834185999352,None,"['y', 'return']","[1.7434880000073463, 2.1353686000220478]",2552.4834185999352,None,,,96NF,001,2023_Sep_07_0846,ExactRep-v3-final,2021.2.3,59.98735468108056,
,,,,,,,,,,,,71,0,71,0,,,,,,,,,,,,,,,,,,,,,,,,,,,,,,,,,,,,,,,,,,,,,,,,,2560.7160646999255,None,,,,,,,,,,,,,,,,,,,,,,,,,,,,,,,,,,,,,,,,,,,,,,,,,,,,,,,,,book,17,72,sing,old,yellow,2555.176291000098,None,y,2555.176291000098,None,"['y', 'return']","[5.018552500056103, 5.498513299971819]",2555.176291000098,None,,,96NF,001,2023_Sep_07_0846,ExactRep-v3-final,2021.2.3,59.98735468108056,
,,,,,,,,,,,,72,0,72,0,,,,,,,,,,,,,,,,,,,,,,,,,,,,,,,,,,,,,,,,,,,,,,,,,2563.635875399923,None,,,,,,,,,,,,,,,,,,,,,,,,,,,,,,,,,,,,,,,,,,,,,,,,,,,,,,,,,car,189,73,sing,new,yellow,2561.2166550999973,None,n,2561.2166550999973,None,"['n', 'return']","[1.8663184999022633, 2.3701833998784423]",2561.2166550999973,None,,,96NF,001,2023_Sep_07_0846,ExactRep-v3-final,2021.2.3,59.98735468108056,
,,,,,,,,,,,,73,0,73,0,,,,,,,,,,,,,,,,,,,,,,,,,,,,,,,,,,,,,,,,,,,,,,,,,2565.9547866000794,None,,,,,,,,,,,,,,,,,,,,,,,,,,,,,,,,,,,,,,,,,,,,,,,,,,,,,,,,,justice,131,74,silent,new,yellow,2564.1452999000903,None,n,2564.1452999000903,None,"['n', 'return']","[1.3534661999437958, 1.7694728998467326]",2564.1452999000903,None,,,96NF,001,2023_Sep_07_0846,ExactRep-v3-final,2021.2.3,59.98735468108056,
,,,,,,,,,,,,74,0,74,0,,,,,,,,,,,,,,,,,,,,,,,,,,,,,,,,,,,,,,,,,,,,,,,,,2568.958248999901,None,,,,,,,,,,,,,,,,,,,,,,,,,,,,,,,,,,,,,,,,,,,,,,,,,,,,,,,,,bottle,67,75,silent,old,yellow,2566.4711933000945,None,n,2566.4711933000945,None,"['n', 'return']","[1.947593200020492, 2.4516281001269817]",2566.4711933000945,None,,,96NF,001,2023_Sep_07_0846,ExactRep-v3-final,2021.2.3,59.98735468108056,
,,,,,,,,,,,,75,0,75,0,,,,,,,,,,,,,,,,,,,,,,,,,,,,,,,,,,,,,,,,,,,,,,,,,2572.274824199965,None,,,,,,,,,,,,,,,,,,,,,,,,,,,,,,,,,,,,,,,,,,,,,,,,,,,,,,,,,metal,141,76,silent,new,yellow,2569.474805299891,None,n,2569.474805299891,None,"['n', 'return']","[2.1360180999618024, 2.7439945000223815]",2569.474805299891,None,,,96NF,001,2023_Sep_07_0846,ExactRep-v3-final,2021.2.3,59.98735468108056,
,,,,,,,,,,,,76,0,76,0,,,,,,,,,,,,,,,,,,,,,,,,,,,,,,,,,,,,,,,,,,,,,,,,,2574.963808800094,None,,,,,,,,,,,,,,,,,,,,,,,,,,,,,,,,,,,,,,,,,,,,,,,,,,,,,,,,,board,49,77,silent,old,yellow,2572.79741930007,None,y,2572.79741930007,None,"['y', 'return']","[1.677378499880433, 2.117349399952218]",2572.79741930007,None,,,96NF,001,2023_Sep_07_0846,ExactRep-v3-final,2021.2.3,59.98735468108056,
,,,,,,,,,,,,77,0,77,0,,,,,,,,,,,,,,,,,,,,,,,,,,,,,,,,,,,,,,,,,,,,,,,,,2577.413295000093,None,,,,,,,,,,,,,,,,,,,,,,,,,,,,,,,,,,,,,,,,,,,,,,,,,,,,,,,,,potato,3,78,sing,old,yellow,2575.4721955000423,None,n,2575.4721955000423,None,"['n', 'return']","[1.4185709001030773, 1.8907862000633031]",2575.4721955000423,None,,,96NF,001,2023_Sep_07_0846,ExactRep-v3-final,2021.2.3,59.98735468108056,
,,,,,,,,,,,,78,0,78,0,,,,,,,,,,,,,,,,,,,,,,,,,,,,,,,,,,,,,,,,,,,,,,,,,2580.886583100073,None,,,,,,,,,,,,,,,,,,,,,,,,,,,,,,,,,,,,,,,,,,,,,,,,,,,,,,,,,boy,215,79,sing,new,yellow,2577.928888600087,None,n,2577.928888600087,None,"['n', 'return']","[2.1380660999566317, 2.9139105000067502]",2577.928888600087,None,,,96NF,001,2023_Sep_07_0846,ExactRep-v3-final,2021.2.3,59.98735468108056,
,,,,,,,,,,,,79,0,79,0,,,,,,,,,,,,,,,,,,,,,,,,,,,,,,,,,,,,,,,,,,,,,,,,,2583.2387747999746,None,,,,,,,,,,,,,,,,,,,,,,,,,,,,,,,,,,,,,,,,,,,,,,,,,,,,,,,,,garden,85,80,aloud,old,yellow,2581.4165541999973,None,y,2581.4165541999973,None,"['y', 'return']","[1.3783075998071581, 1.7781832998152822]",2581.4165541999973,None,,,96NF,001,2023_Sep_07_0846,ExactRep-v3-final,2021.2.3,59.98735468108056,
,,,,,,,,,,,,80,0,80,0,,,,,,,,,,,,,,,,,,,,,,,,,,,,,,,,,,,,,,,,,,,,,,,,,2586.191323899897,None,,,,,,,,,,,,,,,,,,,,,,,,,,,,,,,,,,,,,,,,,,,,,,,,,,,,,,,,,flesh,19,81,sing,old,yellow,2583.7566845000256,None,y,2583.7566845000256,None,"['y', 'return']","[1.438049300108105, 2.398292599944398]",2583.7566845000256,None,,,96NF,001,2023_Sep_07_0846,ExactRep-v3-final,2021.2.3,59.98735468108056,
,,,,,,,,,,,,81,0,81,0,,,,,,,,,,,,,,,,,,,,,,,,,,,,,,,,,,,,,,,,,,,,,,,,,2589.127925100038,None,,,,,,,,,,,,,,,,,,,,,,,,,,,,,,,,,,,,,,,,,,,,,,,,,,,,,,,,,flower,51,82,silent,old,yellow,2586.6925230000634,None,y,2586.6925230000634,None,"['y', 'return']","[1.8702450001146644, 2.3985614001285285]",2586.6925230000634,None,,,96NF,001,2023_Sep_07_0846,ExactRep-v3-final,2021.2.3,59.98735468108056,
,,,,,,,,,,,,82,0,82,0,,,,,,,,,,,,,,,,,,,,,,,,,,,,,,,,,,,,,,,,,,,,,,,,,2591.1964899001177,None,,,,,,,,,,,,,,,,,,,,,,,,,,,,,,,,,,,,,,,,,,,,,,,,,,,,,,,,,blossom,29,83,sing,old,yellow,2589.6456687001046,None,y,2589.6456687001046,None,"['y', 'return']","[1.1010767000261694, 1.5091985000763088]",2589.6456687001046,None,,,96NF,001,2023_Sep_07_0846,ExactRep-v3-final,2021.2.3,59.98735468108056,
,,,,,,,,,,,,83,0,83,0,,,,,,,,,,,,,,,,,,,,,,,,,,,,,,,,,,,,,,,,,,,,,,,,,2597.1359194999095,None,,,,,,,,,,,,,,,,,,,,,,,,,,,,,,,,,,,,,,,,,,,,,,,,,,,,,,,,,grass,229,84,sing,new,yellow,2591.706604300067,None,n,2591.706604300067,None,"['n', 'return']","[4.712204300099984, 5.384113100124523]",2591.706604300067,None,,,96NF,001,2023_Sep_07_0846,ExactRep-v3-final,2021.2.3,59.98735468108056,
,,,,,,,,,,,,84,0,84,0,,,,,,,,,,,,,,,,,,,,,,,,,,,,,,,,,,,,,,,,,,,,,,,,,2599.7893586000428,None,,,,,,,,,,,,,,,,,,,,,,,,,,,,,,,,,,,,,,,,,,,,,,,,,,,,,,,,,winter,153,85,silent,new,yellow,2597.6534998000134,None,n,2597.6534998000134,None,"['n', 'return']","[1.3493204000405967, 2.1012038001790643]",2597.6534998000134,None,,,96NF,001,2023_Sep_07_0846,ExactRep-v3-final,2021.2.3,59.98735468108056,
,,,,,,,,,,,,85,0,85,0,,,,,,,,,,,,,,,,,,,,,,,,,,,,,,,,,,,,,,,,,,,,,,,,,2604.0765043001156,None,,,,,,,,,,,,,,,,,,,,,,,,,,,,,,,,,,,,,,,,,,,,,,,,,,,,,,,,,spirit,128,86,silent,new,yellow,2600.3059501999523,None,y,2600.3059501999523,None,"['y', 'return']","[3.2010411000810564, 3.728831300046295]",2600.3059501999523,None,,,96NF,001,2023_Sep_07_0846,ExactRep-v3-final,2021.2.3,59.98735468108056,
,,,,,,,,,,,,86,0,86,0,,,,,,,,,,,,,,,,,,,,,,,,,,,,,,,,,,,,,,,,,,,,,,,,,2607.512771999929,None,,,,,,,,,,,,,,,,,,,,,,,,,,,,,,,,,,,,,,,,,,,,,,,,,,,,,,,,,square,109,87,aloud,old,yellow,2604.5998583999462,None,y,2604.5998583999462,None,"['y', 'return']","[2.4430422000586987, 2.8748457999899983]",2604.5998583999462,None,,,96NF,001,2023_Sep_07_0846,ExactRep-v3-final,2021.2.3,59.98735468108056,
,,,,,,,,,,,,87,0,87,0,,,,,,,,,,,,,,,,,,,,,,,,,,,,,,,,,,,,,,,,,,,,,,,,,2611.8844123000745,None,,,,,,,,,,,,,,,,,,,,,,,,,,,,,,,,,,,,,,,,,,,,,,,,,,,,,,,,,nail,125,88,silent,new,yellow,2608.013669299893,None,n,2608.013669299893,None,"['n', 'return']","[3.0131025000009686, 3.8290961000602692]",2608.013669299893,None,,,96NF,001,2023_Sep_07_0846,ExactRep-v3-final,2021.2.3,59.98735468108056,
,,,,,,,,,,,,88,0,88,0,,,,,,,,,,,,,,,,,,,,,,,,,,,,,,,,,,,,,,,,,,,,,,,,,2615.7213127000723,None,,,,,,,,,,,,,,,,,,,,,,,,,,,,,,,,,,,,,,,,,,,,,,,,,,,,,,,,,cost,31,89,sing,old,yellow,2612.4004621000495,None,y,2612.4004621000495,None,"['y', 'return']","[2.6982835000380874, 3.2822348000481725]",2612.4004621000495,None,,,96NF,001,2023_Sep_07_0846,ExactRep-v3-final,2021.2.3,59.98735468108056,
,,,,,,,,,,,,89,0,89,0,,,,,,,,,,,,,,,,,,,,,,,,,,,,,,,,,,,,,,,,,,,,,,,,,2623.7458124998957,None,,,,,,,,,,,,,,,,,,,,,,,,,,,,,,,,,,,,,,,,,,,,,,,,,,,,,,,,,soul,191,90,sing,new,yellow,2616.226703400025,None,n,2616.226703400025,None,"['n', 'return']","[5.656039299909025, 7.472085499903187]",2616.226703400025,None,,,96NF,001,2023_Sep_07_0846,ExactRep-v3-final,2021.2.3,59.98735468108056,
,,,,,,,,,,,,90,0,90,0,,,,,,,,,,,,,,,,,,,,,,,,,,,,,,,,,,,,,,,,,,,,,,,,,2626.9989130999893,None,,,,,,,,,,,,,,,,,,,,,,,,,,,,,,,,,,,,,,,,,,,,,,,,,,,,,,,,,flood,205,91,sing,new,yellow,2624.263213499915,None,n,2624.263213499915,None,"['n', 'return']","[2.0996965998783708, 2.691515199840069]",2624.263213499915,None,,,96NF,001,2023_Sep_07_0846,ExactRep-v3-final,2021.2.3,59.98735468108056,
,,,,,,,,,,,,91,0,91,0,,,,,,,,,,,,,,,,,,,,,,,,,,,,,,,,,,,,,,,,,,,,,,,,,2634.9905777999666,None,,,,,,,,,,,,,,,,,,,,,,,,,,,,,,,,,,,,,,,,,,,,,,,,,,,,,,,,,fortune,180,92,aloud,new,yellow,2627.4998926001135,None,n,2627.4998926001135,None,"['n', 'return']","[5.887098300037906, 7.446917100111023]",2627.4998926001135,None,,,96NF,001,2023_Sep_07_0846,ExactRep-v3-final,2021.2.3,59.98735468108056,
,,,,,,,,,,,,92,0,92,0,,,,,,,,,,,,,,,,,,,,,,,,,,,,,,,,,,,,,,,,,,,,,,,,,2637.241611500038,None,,,,,,,,,,,,,,,,,,,,,,,,,,,,,,,,,,,,,,,,,,,,,,,,,,,,,,,,,door,134,93,silent,new,yellow,2635.5071413000114,None,n,2635.5071413000114,None,"['n', 'return']","[1.2236043000593781, 1.6956072000321]",2635.5071413000114,None,,,96NF,001,2023_Sep_07_0846,ExactRep-v3-final,2021.2.3,59.98735468108056,
,,,,,,,,,,,,93,0,93,0,,,,,,,,,,,,,,,,,,,,,,,,,,,,,,,,,,,,,,,,,,,,,,,,,2639.5278831000905,None,,,,,,,,,,,,,,,,,,,,,,,,,,,,,,,,,,,,,,,,,,,,,,,,,,,,,,,,,method,119,94,aloud,old,yellow,2637.744396199938,None,y,2637.744396199938,None,"['y', 'return']","[1.3304723999463022, 1.7467210998293012]",2637.744396199938,None,,,96NF,001,2023_Sep_07_0846,ExactRep-v3-final,2021.2.3,59.98735468108056,
,,,,,,,,,,,,94,0,94,0,,,,,,,,,,,,,,,,,,,,,,,,,,,,,,,,,,,,,,,,,,,,,,,,,2642.0974322000984,None,,,,,,,,,,,,,,,,,,,,,,,,,,,,,,,,,,,,,,,,,,,,,,,,,,,,,,,,,time,70,95,silent,old,yellow,2640.0384752999526,None,n,2640.0384752999526,None,"['n', 'return']","[1.4523515000473708, 2.0203671001363546]",2640.0384752999526,None,,,96NF,001,2023_Sep_07_0846,ExactRep-v3-final,2021.2.3,59.98735468108056,
,,,,,,,,,,,,95,0,95,0,,,,,,,,,,,,,,,,,,,,,,,,,,,,,,,,,,,,,,,,,,,,,,,,,2644.249878899893,None,,,,,,,,,,,,,,,,,,,,,,,,,,,,,,,,,,,,,,,,,,,,,,,,,,,,,,,,,gift,13,96,sing,old,yellow,2642.6142166999634,None,y,2642.6142166999634,None,"['y', 'return']","[1.1885194999631494, 1.588563400087878]",2642.6142166999634,None,,,96NF,001,2023_Sep_07_0846,ExactRep-v3-final,2021.2.3,59.98735468108056,
,,,,,,,,,,,,96,0,96,0,,,,,,,,,,,,,,,,,,,,,,,,,,,,,,,,,,,,,,,,,,,,,,,,,2656.645603599958,None,,,,,,,,,,,,,,,,,,,,,,,,,,,,,,,,,,,,,,,,,,,,,,,,,,,,,,,,,camp,173,97,sing,new,yellow,2644.766800200101,None,n,2644.766800200101,None,"['n', 'return']","[10.835959900170565, 11.835942400153726]",2644.766800200101,None,,,96NF,001,2023_Sep_07_0846,ExactRep-v3-final,2021.2.3,59.98735468108056,
,,,,,,,,,,,,97,0,97,0,,,,,,,,,,,,,,,,,,,,,,,,,,,,,,,,,,,,,,,,,,,,,,,,,2658.9643534000497,None,,,,,,,,,,,,,,,,,,,,,,,,,,,,,,,,,,,,,,,,,,,,,,,,,,,,,,,,,freedom,170,98,aloud,new,yellow,2657.1625518999062,None,n,2657.1625518999062,None,"['n', 'return']","[1.304209099849686, 1.7522680000402033]",2657.1625518999062,None,,,96NF,001,2023_Sep_07_0846,ExactRep-v3-final,2021.2.3,59.98735468108056,
,,,,,,,,,,,,98,0,98,0,,,,,,,,,,,,,,,,,,,,,,,,,,,,,,,,,,,,,,,,,,,,,,,,,2661.2655187000055,None,,,,,,,,,,,,,,,,,,,,,,,,,,,,,,,,,,,,,,,,,,,,,,,,,,,,,,,,,window,41,99,silent,old,yellow,2659.4820034001023,None,y,2659.4820034001023,None,"['y', 'return']","[1.216757900081575, 1.7369393999688327]",2659.4820034001023,None,,,96NF,001,2023_Sep_07_0846,ExactRep-v3-final,2021.2.3,59.98735468108056,
,,,,,,,,,,,,99,0,99,0,,,,,,,,,,,,,,,,,,,,,,,,,,,,,,,,,,,,,,,,,,,,,,,,,2667.1229439999443,None,,,,,,,,,,,,,,,,,,,,,,,,,,,,,,,,,,,,,,,,,,,,,,,,,,,,,,,,,sugar,116,100,aloud,old,yellow,2661.7668087999336,None,y,2661.7668087999336,None,"['y', 'return']","[4.787838899996132, 5.307944100117311]",2661.7668087999336,None,,,96NF,001,2023_Sep_07_0846,ExactRep-v3-final,2021.2.3,59.98735468108056,
,,,,,,,,,,,,100,0,100,0,,,,,,,,,,,,,,,,,,,,,,,,,,,,,,,,,,,,,,,,,,,,,,,,,2671.6434190000873,None,,,,,,,,,,,,,,,,,,,,,,,,,,,,,,,,,,,,,,,,,,,,,,,,,,,,,,,,,quality,78,101,silent,old,yellow,2667.657215300016,None,n,2667.657215300016,None,"['n', 'return']","[2.9133390998467803, 3.937488899799064]",2667.657215300016,None,,,96NF,001,2023_Sep_07_0846,ExactRep-v3-final,2021.2.3,59.98735468108056,
,,,,,,,,,,,,101,0,101,0,,,,,,,,,,,,,,,,,,,,,,,,,,,,,,,,,,,,,,,,,,,,,,,,,2688.8774689000566,None,,,,,,,,,,,,,,,,,,,,,,,,,,,,,,,,,,,,,,,,,,,,,,,,,,,,,,,,,toy,87,102,aloud,old,yellow,2672.145255499985,None,y,2672.145255499985,None,"['y', 'return']","[16.10544139984995, 16.689498199848458]",2672.145255499985,None,,,96NF,001,2023_Sep_07_0846,ExactRep-v3-final,2021.2.3,59.98735468108056,
,,,,,,,,,,,,102,0,102,0,,,,,,,,,,,,,,,,,,,,,,,,,,,,,,,,,,,,,,,,,,,,,,,,,2691.330657500075,None,,,,,,,,,,,,,,,,,,,,,,,,,,,,,,,,,,,,,,,,,,,,,,,,,,,,,,,,,avenue,136,103,silent,new,yellow,2689.3979388999287,None,n,2689.3979388999287,None,"['n', 'return']","[1.2526948999147862, 1.892758399946615]",2689.3979388999287,None,,,96NF,001,2023_Sep_07_0846,ExactRep-v3-final,2021.2.3,59.98735468108056,
,,,,,,,,,,,,103,0,103,0,,,,,,,,,,,,,,,,,,,,,,,,,,,,,,,,,,,,,,,,,,,,,,,,,2693.649401899893,None,,,,,,,,,,,,,,,,,,,,,,,,,,,,,,,,,,,,,,,,,,,,,,,,,,,,,,,,,fur,135,104,silent,new,yellow,2691.8547644999344,None,n,2691.8547644999344,None,"['n', 'return']","[1.18796640005894, 1.7559143998660147]",2691.8547644999344,None,,,96NF,001,2023_Sep_07_0846,ExactRep-v3-final,2021.2.3,59.98735468108056,
,,,,,,,,,,,,104,0,104,0,,,,,,,,,,,,,,,,,,,,,,,,,,,,,,,,,,,,,,,,,,,,,,,,,2701.9234949999955,None,,,,,,,,,,,,,,,,,,,,,,,,,,,,,,,,,,,,,,,,,,,,,,,,,,,,,,,,,pupil,161,105,sing,new,yellow,2694.1657137,None,y,2694.1657137,None,"['y', 'return']","[7.229010599898174, 7.725015899864957]",2694.1657137,None,,,96NF,001,2023_Sep_07_0846,ExactRep-v3-final,2021.2.3,59.98735468108056,
,,,,,,,,,,,,105,0,105,0,,,,,,,,,,,,,,,,,,,,,,,,,,,,,,,,,,,,,,,,,,,,,,,,,2704.509861000115,None,,,,,,,,,,,,,,,,,,,,,,,,,,,,,,,,,,,,,,,,,,,,,,,,,,,,,,,,,student,225,106,sing,new,yellow,2702.433265000116,None,y,2702.433265000116,None,"['y', 'return']","[1.6254755000118166, 2.033528400119394]",2702.433265000116,None,,,96NF,001,2023_Sep_07_0846,ExactRep-v3-final,2021.2.3,59.98735468108056,
,,,,,,,,,,,,106,0,106,0,,,,,,,,,,,,,,,,,,,,,,,,,,,,,,,,,,,,,,,,,,,,,,,,,2706.5155642000027,None,,,,,,,,,,,,,,,,,,,,,,,,,,,,,,,,,,,,,,,,,,,,,,,,,,,,,,,,,woman,38,107,sing,old,yellow,2705.027417700039,None,y,2705.027417700039,None,"['y', 'return']","[1.0554339999798685, 1.4392623999156058]",2705.027417700039,None,,,96NF,001,2023_Sep_07_0846,ExactRep-v3-final,2021.2.3,59.98735468108056,
,,,,,,,,,,,,107,0,107,0,,,,,,,,,,,,,,,,,,,,,,,,,,,,,,,,,,,,,,,,,,,,,,,,,2708.9305509999394,None,,,,,,,,,,,,,,,,,,,,,,,,,,,,,,,,,,,,,,,,,,,,,,,,,,,,,,,,,college,167,108,sing,new,yellow,2707.0354772999417,None,n,2707.0354772999417,None,"['n', 'return']","[1.431271000066772, 1.8552687999326736]",2707.0354772999417,None,,,96NF,001,2023_Sep_07_0846,ExactRep-v3-final,2021.2.3,59.98735468108056,
,,,,,,,,,,,,108,0,108,0,,,,,,,,,,,,,,,,,,,,,,,,,,,,,,,,,,,,,,,,,,,,,,,,,2711.5003992998973,None,,,,,,,,,,,,,,,,,,,,,,,,,,,,,,,,,,,,,,,,,,,,,,,,,,,,,,,,,chair,216,109,aloud,new,yellow,2709.4316948999185,None,n,2709.4316948999185,None,"['n', 'return']","[1.3629710001405329, 2.034980700118467]",2709.4316948999185,None,,,96NF,001,2023_Sep_07_0846,ExactRep-v3-final,2021.2.3,59.98735468108056,
,,,,,,,,,,,,109,0,109,0,,,,,,,,,,,,,,,,,,,,,,,,,,,,,,,,,,,,,,,,,,,,,,,,,2713.9859148000833,None,,,,,,,,,,,,,,,,,,,,,,,,,,,,,,,,,,,,,,,,,,,,,,,,,,,,,,,,,weapon,63,110,silent,old,yellow,2712.0163988000713,None,y,2712.0163988000713,None,"['y', 'return']","[1.5463239001110196, 1.9223398000467569]",2712.0163988000713,None,,,96NF,001,2023_Sep_07_0846,ExactRep-v3-final,2021.2.3,59.98735468108056,
,,,,,,,,,,,,110,0,110,0,,,,,,,,,,,,,,,,,,,,,,,,,,,,,,,,,,,,,,,,,,,,,,,,,2716.7388251998927,None,,,,,,,,,,,,,,,,,,,,,,,,,,,,,,,,,,,,,,,,,,,,,,,,,,,,,,,,,memory,52,111,silent,old,yellow,2714.5034827000927,None,y,2714.5034827000927,None,"['y', 'return']","[1.771241100039333, 2.1872868000064045]",2714.5034827000927,None,,,96NF,001,2023_Sep_07_0846,ExactRep-v3-final,2021.2.3,59.98735468108056,
,,,,,,,,,,,,111,0,111,0,,,,,,,,,,,,,,,,,,,,,,,,,,,,,,,,,,,,,,,,,,,,,,,,,2719.3579361999873,None,,,,,,,,,,,,,,,,,,,,,,,,,,,,,,,,,,,,,,,,,,,,,,,,,,,,,,,,,star,151,112,silent,new,yellow,2717.248185199918,None,n,2717.248185199918,None,"['n', 'return']","[1.6665282000321895, 2.0747398999519646]",2717.248185199918,None,,,96NF,001,2023_Sep_07_0846,ExactRep-v3-final,2021.2.3,59.98735468108056,
,,,,,,,,,,,,112,0,112,0,,,,,,,,,,,,,,,,,,,,,,,,,,,,,,,,,,,,,,,,,,,,,,,,,2721.643154700054,None,,,,,,,,,,,,,,,,,,,,,,,,,,,,,,,,,,,,,,,,,,,,,,,,,,,,,,,,,style,107,113,aloud,old,yellow,2719.860197500093,None,y,2719.860197500093,None,"['y', 'return']","[1.206543100066483, 1.734586700098589]",2719.860197500093,None,,,96NF,001,2023_Sep_07_0846,ExactRep-v3-final,2021.2.3,59.98735468108056,
,,,,,,,,,,,,113,0,113,0,,,,,,,,,,,,,,,,,,,,,,,,,,,,,,,,,,,,,,,,,,,,,,,,,2724.2464868999086,None,,,,,,,,,,,,,,,,,,,,,,,,,,,,,,,,,,,,,,,,,,,,,,,,,,,,,,,,,shore,235,114,sing,new,yellow,2722.1542052000295,None,n,2722.1542052000295,None,"['n', 'return']","[1.4645897999871522, 2.0567693999037147]",2722.1542052000295,None,,,96NF,001,2023_Sep_07_0846,ExactRep-v3-final,2021.2.3,59.98735468108056,
,,,,,,,,,,,,114,0,114,0,,,,,,,,,,,,,,,,,,,,,,,,,,,,,,,,,,,,,,,,,,,,,,,,,2729.0517031000927,None,,,,,,,,,,,,,,,,,,,,,,,,,,,,,,,,,,,,,,,,,,,,,,,,,,,,,,,,,disease,43,115,silent,old,yellow,2724.762415099889,None,y,2724.762415099889,None,"['y', 'return']","[3.7847925999667495, 4.2403757001738995]",2724.762415099889,None,,,96NF,001,2023_Sep_07_0846,ExactRep-v3-final,2021.2.3,59.98735468108056,
,,,,,,,,,,,,115,0,115,0,,,,,,,,,,,,,,,,,,,,,,,,,,,,,,,,,,,,,,,,,,,,,,,,,2732.5210879999213,None,,,,,,,,,,,,,,,,,,,,,,,,,,,,,,,,,,,,,,,,,,,,,,,,,,,,,,,,,truth,76,116,silent,old,yellow,2729.5685515999794,None,y,2729.5685515999794,None,"['y', 'return']","[2.386145700002089, 2.9141133001539856]",2729.5685515999794,None,,,96NF,001,2023_Sep_07_0846,ExactRep-v3-final,2021.2.3,59.98735468108056,
,,,,,,,,,,,,116,0,116,0,,,,,,,,,,,,,,,,,,,,,,,,,,,,,,,,,,,,,,,,,,,,,,,,,2734.5062979001086,None,,,,,,,,,,,,,,,,,,,,,,,,,,,,,,,,,,,,,,,,,,,,,,,,,,,,,,,,,mother,25,117,sing,old,yellow,2733.0383921000175,None,y,2733.0383921000175,None,"['y', 'return']","[0.9882743000052869, 1.4203618001192808]",2733.0383921000175,None,,,96NF,001,2023_Sep_07_0846,ExactRep-v3-final,2021.2.3,59.98735468108056,
,,,,,,,,,,,,117,0,117,0,,,,,,,,,,,,,,,,,,,,,,,,,,,,,,,,,,,,,,,,,,,,,,,,,2736.858188800048,None,,,,,,,,,,,,,,,,,,,,,,,,,,,,,,,,,,,,,,,,,,,,,,,,,,,,,,,,,product,204,118,aloud,new,yellow,2735.007550999988,None,y,2735.007550999988,None,"['y', 'return']","[1.4191302000544965, 1.80330690019764]",2735.007550999988,None,,,96NF,001,2023_Sep_07_0846,ExactRep-v3-final,2021.2.3,59.98735468108056,
,,,,,,,,,,,,118,0,118,0,,,,,,,,,,,,,,,,,,,,,,,,,,,,,,,,,,,,,,,,,,,,,,,,,2739.747762700077,None,,,,,,,,,,,,,,,,,,,,,,,,,,,,,,,,,,,,,,,,,,,,,,,,,,,,,,,,,doctor,46,119,silent,old,yellow,2737.3593615000136,None,n,2737.3593615000136,None,"['n', 'return']","[1.9633923000656068, 2.3473227000795305]",2737.3593615000136,None,,,96NF,001,2023_Sep_07_0846,ExactRep-v3-final,2021.2.3,59.98735468108056,
,,,,,,,,,,,,119,0,119,0,,,,,,,,,,,,,,,,,,,,,,,,,,,,,,,,,,,,,,,,,,,,,,,,,2742.1142907000612,None,,,,,,,,,,,,,,,,,,,,,,,,,,,,,,,,,,,,,,,,,,,,,,,,,,,,,,,,,fire,158,120,silent,new,yellow,2740.269534799969,None,n,2740.269534799969,None,"['n', 'return']","[1.3492068001069129, 1.7971793999895453]",2740.269534799969,None,,,96NF,001,2023_Sep_07_0846,ExactRep-v3-final,2021.2.3,59.98735468108056,
,,,,,,,,,,,,120,0,120,0,,,,,,,,,,,,,,,,,,,,,,,,,,,,,,,,,,,,,,,,,,,,,,,,,2744.7495448000263,None,,,,,,,,,,,,,,,,,,,,,,,,,,,,,,,,,,,,,,,,,,,,,,,,,,,,,,,,,paper,60,121,silent,old,yellow,2742.61712719989,None,y,2742.61712719989,None,"['y', 'return']","[1.6976189999841154, 2.097798600094393]",2742.61712719989,None,,,96NF,001,2023_Sep_07_0846,ExactRep-v3-final,2021.2.3,59.98735468108056,
,,,,,,,,,,,,121,0,121,0,,,,,,,,,,,,,,,,,,,,,,,,,,,,,,,,,,,,,,,,,,,,,,,,,2747.169820100069,None,,,,,,,,,,,,,,,,,,,,,,,,,,,,,,,,,,,,,,,,,,,,,,,,,,,,,,,,,fault,171,122,sing,new,yellow,2745.2556839999743,None,n,2745.2556839999743,None,"['n', 'return']","[1.5151693001389503, 1.8750960000324994]",2745.2556839999743,None,,,96NF,001,2023_Sep_07_0846,ExactRep-v3-final,2021.2.3,59.98735468108056,
,,,,,,,,,,,,122,0,122,0,,,,,,,,,,,,,,,,,,,,,,,,,,,,,,,,,,,,,,,,,,,,,,,,,2749.4868614000734,None,,,,,,,,,,,,,,,,,,,,,,,,,,,,,,,,,,,,,,,,,,,,,,,,,,,,,,,,,idea,82,123,aloud,old,yellow,2747.686519399984,None,y,2747.686519399984,None,"['y', 'return']","[1.3162596998736262, 1.756317300023511]",2747.686519399984,None,,,96NF,001,2023_Sep_07_0846,ExactRep-v3-final,2021.2.3,59.98735468108056,
,,,,,,,,,,,,123,0,123,0,,,,,,,,,,,,,,,,,,,,,,,,,,,,,,,,,,,,,,,,,,,,,,,,,2751.8082131999545,None,,,,,,,,,,,,,,,,,,,,,,,,,,,,,,,,,,,,,,,,,,,,,,,,,,,,,,,,,shock,176,124,aloud,new,yellow,2749.993777600117,None,n,2749.993777600117,None,"['n', 'return']","[1.273019599961117, 1.7689247999805957]",2749.993777600117,None,,,96NF,001,2023_Sep_07_0846,ExactRep-v3-final,2021.2.3,59.98735468108056,
,,,,,,,,,,,,124,0,124,0,,,,,,,,,,,,,,,,,,,,,,,,,,,,,,,,,,,,,,,,,,,,,,,,,2756.979084599996,None,,,,,,,,,,,,,,,,,,,,,,,,,,,,,,,,,,,,,,,,,,,,,,,,,,,,,,,,,dawn,210,125,aloud,new,yellow,2752.335067600012,None,n,2752.335067600012,None,"['n', 'return']","[4.2276240000501275, 4.595647000009194]",2752.335067600012,None,,,96NF,001,2023_Sep_07_0846,ExactRep-v3-final,2021.2.3,59.98735468108056,
,,,,,,,,,,,,125,0,125,0,,,,,,,,,,,,,,,,,,,,,,,,,,,,,,,,,,,,,,,,,,,,,,,,,2761.0163688000757,None,,,,,,,,,,,,,,,,,,,,,,,,,,,,,,,,,,,,,,,,,,,,,,,,,,,,,,,,,gold,148,126,silent,new,yellow,2757.495170600014,None,y,2757.495170600014,None,"['y', 'return']","[3.0036116000264883, 3.4755901999305934]",2757.495170600014,None,,,96NF,001,2023_Sep_07_0846,ExactRep-v3-final,2021.2.3,59.98735468108056,
,,,,,,,,,,,,126,0,126,0,,,,,,,,,,,,,,,,,,,,,,,,,,,,,,,,,,,,,,,,,,,,,,,,,2763.652510799933,None,,,,,,,,,,,,,,,,,,,,,,,,,,,,,,,,,,,,,,,,,,,,,,,,,,,,,,,,,dream,239,127,sing,new,yellow,2761.5331967999227,None,y,2761.5331967999227,None,"['y', 'return']","[1.669608399970457, 2.0695232001598924]",2761.5331967999227,None,,,96NF,001,2023_Sep_07_0846,ExactRep-v3-final,2021.2.3,59.98735468108056,
,,,,,,,,,,,,127,0,127,0,,,,,,,,,,,,,,,,,,,,,,,,,,,,,,,,,,,,,,,,,,,,,,,,,2765.687501600012,None,,,,,,,,,,,,,,,,,,,,,,,,,,,,,,,,,,,,,,,,,,,,,,,,,,,,,,,,,soil,28,128,sing,old,yellow,2764.170921300072,None,y,2764.170921300072,None,"['y', 'return']","[1.1117332999128848, 1.4720554000232369]",2764.170921300072,None,,,96NF,001,2023_Sep_07_0846,ExactRep-v3-final,2021.2.3,59.98735468108056,
,,,,,,,,,,,,128,0,128,0,,,,,,,,,,,,,,,,,,,,,,,,,,,,,,,,,,,,,,,,,,,,,,,,,2772.5945397999603,None,,,,,,,,,,,,,,,,,,,,,,,,,,,,,,,,,,,,,,,,,,,,,,,,,,,,,,,,,month,36,129,sing,old,yellow,2766.205607800046,None,y,2766.205607800046,None,"['y', 'return']","[5.7970960000529885, 6.349206400103867]",2766.205607800046,None,,,96NF,001,2023_Sep_07_0846,ExactRep-v3-final,2021.2.3,59.98735468108056,
,,,,,,,,,,,,129,0,129,0,,,,,,,,,,,,,,,,,,,,,,,,,,,,,,,,,,,,,,,,,,,,,,,,,2778.450512100011,None,,,,,,,,,,,,,,,,,,,,,,,,,,,,,,,,,,,,,,,,,,,,,,,,,,,,,,,,,river,194,130,aloud,new,yellow,2773.1121584000066,None,n,2773.1121584000066,None,"['n', 'return']","[3.186639199964702, 5.29060439998284]",2773.1121584000066,None,,,96NF,001,2023_Sep_07_0846,ExactRep-v3-final,2021.2.3,59.98735468108056,
