trials_fam.thisRepN,trials_fam.thisTrialN,trials_fam.thisN,trials_fam.thisIndex,trials_prc.thisRepN,trials_prc.thisTrialN,trials_prc.thisN,trials_prc.thisIndex,StudyLoop.thisRepN,StudyLoop.thisTrialN,StudyLoop.thisN,StudyLoop.thisIndex,TestLoop.thisRepN,TestLoop.thisTrialN,TestLoop.thisN,TestLoop.thisIndex,text_colortest.started,text_colortest.stopped,key_colortest.keys,key_colortest.rt,key_colortest.started,key_colortest.stopped,textCondition.started,textCondition.stopped,keyCondition.keys,keyCondition.rt,keyCondition.started,keyCondition.stopped,Condition_between,Condition_counterbal,keyWelcome.keys,keyWelcome.rt,keyWelcome.started,keyWelcome.stopped,welcome_a.started,welcome_a.stopped,welcome_b.started,welcome_b.stopped,welcome_c.started,welcome_c.stopped,welcome_d.started,welcome_d.stopped,welcome_e.started,welcome_e.stopped,welcome_f.started,welcome_f.stopped,key_resp_fam_inst.keys,key_resp_fam_inst.rt,key_resp_fam_inst.started,key_resp_fam_inst.stopped,fam_a.started,fam_a.stopped,fam_b.started,fam_b.stopped,fam_c.started,fam_c.stopped,fam_d.started,fam_d.stopped,fam_e.started,fam_e.stopped,fam_f.started,fam_f.stopped,text_famil.started,text_famil.stopped,textBlank500.started,textBlank500.stopped,key_resp_prc_inst.keys,key_resp_prc_inst.rt,key_resp_prc_inst.started,key_resp_prc_inst.stopped,prac_a.started,prac_a.stopped,prac_b.started,prac_b.stopped,prac_c.started,prac_c.stopped,prac_d.started,prac_d.stopped,prac_e.started,prac_e.stopped,prac_f.started,prac_f.stopped,text_prc_trial.started,text_prc_trial.stopped,key_resp_study_inst.keys,key_resp_study_inst.rt,key_resp_study_inst.started,key_resp_study_inst.stopped,crit_a.started,crit_a.stopped,crit_b.started,crit_b.stopped,crit_c.started,crit_c.stopped,crit_d.started,crit_d.stopped,crit_e.started,crit_e.stopped,crit_f.started,crit_f.stopped,study_word,study_num,study_order,study_type,word_color,textStudy.started,textStudy.stopped,keyStudy.keys,keyStudy.started,keyStudy.stopped,post_study.started,post_study.stopped,key_resp_post_study.keys,key_resp_post_study.rt,key_resp_post_study.started,key_resp_post_study.stopped,test_inst.started,test_inst.stopped,key_resp_test_inst.keys,key_resp_test_inst.rt,key_resp_test_inst.started,key_resp_test_inst.stopped,test_word,test_num,test_order,test_condition,old_new_test,word_color_test,textConf.started,textConf.stopped,Participant Response,textInput.started,textInput.stopped,keyResp.keys,keyResp.rt,keyResp.started,keyResp.stopped,textEnd.started,textEnd.stopped,participant,session,date,expName,psychopyVersion,frameRate,
,,,,,,,,,,,,,,,,19.97259039990604,None,n,1.1255715999286622,19.97259039990604,None,,,,,,,,,,,,,,,,,,,,,,,,,,,,,,,,,,,,,,,,,,,,,,,,,,,,,,,,,,,,,,,,,,,,,,,,,,,,,,,,,,,,,,,,,,,,,,,,,,,,,,,,,,,,,,,,,,,,,,97NA,001,2023_Sep_07_0939,ExactRep-v3-final,2021.2.3,59.88475784262094,
,,,,,,,,,,,,,,,,,,,,,,21.125432499917224,None,a,1.1807834999635816,21.125432499917224,None,,,,,,,,,,,,,,,,,,,,,,,,,,,,,,,,,,,,,,,,,,,,,,,,,,,,,,,,,,,,,,,,,,,,,,,,,,,,,,,,,,,,,,,,,,,,,,,,,,,,,,,,,,,,,,,,97NA,001,2023_Sep_07_0939,ExactRep-v3-final,2021.2.3,59.88475784262094,
,,,,,,,,,,,,,,,,,,,,,,,,,,,,whitefoils,a,space,1129.3285429999232,32.45707150013186,None,,,,,,,,,,,,,,,,,,,,,,,,,,,,,,,,,,,,,,,,,,,,,,,,,,,,,,,,,,,,,,,,,,,,,,,,,,,,,,,,,,,,,,,,,,,,,,,,,,,,,,,,,,97NA,001,2023_Sep_07_0939,ExactRep-v3-final,2021.2.3,59.88475784262094,
,,,,,,,,,,,,,,,,,,,,,,,,,,,,,,,,,,22.477287499932572,None,22.477287499932572,None,22.477287499932572,None,22.477287499932572,None,22.477287499932572,None,22.477287499932572,None,space,7.6381773999892175,1171.9873538000975,None,,,,,,,,,,,,,,,,,,,,,,,,,,,,,,,,,,,,,,,,,,,,,,,,,,,,,,,,,,,,,,,,,,,,,,,,,,,,,,,,,,,,,,,,,,97NA,001,2023_Sep_07_0939,ExactRep-v3-final,2021.2.3,59.88475784262094,
0,0,0,0,,,,,,,,,,,,,,,,,,,,,,,,,,,,,,,,,,,,,,,,,,,,,,,1161.9788333000615,None,1161.9788333000615,None,1161.9788333000615,None,1161.9788333000615,None,1161.9788333000615,None,1161.9788333000615,None,1179.7355605999473,None,1181.7343329000287,None,,,,,,,,,,,,,,,,,,,,,,,,,,,,,,,,,,,,,,,,,,,,,,,,,,,,,,,,,,,,,,,,,,,,,,,,,,97NA,001,2023_Sep_07_0939,ExactRep-v3-final,2021.2.3,59.88475784262094,
1,0,1,0,,,,,,,,,,,,,,,,,,,,,,,,,,,,,,,,,,,,,,,,,,,,,,,,,,,,,,,,,,,1182.2346667000093,None,1184.2367233000696,None,,,,,,,,,,,,,,,,,,,,,,,,,,,,,,,,,,,,,,,,,,,,,,,,,,,,,,,,,,,,,,,,,,,,,,,,,,97NA,001,2023_Sep_07_0939,ExactRep-v3-final,2021.2.3,59.88475784262094,
2,0,2,0,,,,,,,,,,,,,,,,,,,,,,,,,,,,,,,,,,,,,,,,,,,,,,,,,,,,,,,,,,,1184.7668421000708,None,1186.7558319000527,None,,,,,,,,,,,,,,,,,,,,,,,,,,,,,,,,,,,,,,,,,,,,,,,,,,,,,,,,,,,,,,,,,,,,,,,,,,97NA,001,2023_Sep_07_0939,ExactRep-v3-final,2021.2.3,59.88475784262094,
3,0,3,0,,,,,,,,,,,,,,,,,,,,,,,,,,,,,,,,,,,,,,,,,,,,,,,,,,,,,,,,,,,1187.2564205001108,None,1189.2585807000287,None,,,,,,,,,,,,,,,,,,,,,,,,,,,,,,,,,,,,,,,,,,,,,,,,,,,,,,,,,,,,,,,,,,,,,,,,,,97NA,001,2023_Sep_07_0939,ExactRep-v3-final,2021.2.3,59.88475784262094,
4,0,4,0,,,,,,,,,,,,,,,,,,,,,,,,,,,,,,,,,,,,,,,,,,,,,,,,,,,,,,,,,,,1189.758854900021,None,1191.7606087999884,None,,,,,,,,,,,,,,,,,,,,,,,,,,,,,,,,,,,,,,,,,,,,,,,,,,,,,,,,,,,,,,,,,,,,,,,,,,97NA,001,2023_Sep_07_0939,ExactRep-v3-final,2021.2.3,59.88475784262094,
5,0,5,0,,,,,,,,,,,,,,,,,,,,,,,,,,,,,,,,,,,,,,,,,,,,,,,,,,,,,,,,,,,1192.2622126000933,None,1194.2636351999827,None,,,,,,,,,,,,,,,,,,,,,,,,,,,,,,,,,,,,,,,,,,,,,,,,,,,,,,,,,,,,,,,,,,,,,,,,,,97NA,001,2023_Sep_07_0939,ExactRep-v3-final,2021.2.3,59.88475784262094,
6,0,6,0,,,,,,,,,,,,,,,,,,,,,,,,,,,,,,,,,,,,,,,,,,,,,,,,,,,,,,,,,,,1194.7640090999193,None,1196.7660073000006,None,,,,,,,,,,,,,,,,,,,,,,,,,,,,,,,,,,,,,,,,,,,,,,,,,,,,,,,,,,,,,,,,,,,,,,,,,,97NA,001,2023_Sep_07_0939,ExactRep-v3-final,2021.2.3,59.88475784262094,
7,0,7,0,,,,,,,,,,,,,,,,,,,,,,,,,,,,,,,,,,,,,,,,,,,,,,,,,,,,,,,,,,,1197.2699029999785,None,1199.2850055999588,None,,,,,,,,,,,,,,,,,,,,,,,,,,,,,,,,,,,,,,,,,,,,,,,,,,,,,,,,,,,,,,,,,,,,,,,,,,97NA,001,2023_Sep_07_0939,ExactRep-v3-final,2021.2.3,59.88475784262094,
8,0,8,0,,,,,,,,,,,,,,,,,,,,,,,,,,,,,,,,,,,,,,,,,,,,,,,,,,,,,,,,,,,1199.7855901999865,None,1201.7875264999457,None,,,,,,,,,,,,,,,,,,,,,,,,,,,,,,,,,,,,,,,,,,,,,,,,,,,,,,,,,,,,,,,,,,,,,,,,,,97NA,001,2023_Sep_07_0939,ExactRep-v3-final,2021.2.3,59.88475784262094,
9,0,9,0,,,,,,,,,,,,,,,,,,,,,,,,,,,,,,,,,,,,,,,,,,,,,,,,,,,,,,,,,,,1202.288298000116,None,1204.290033499943,None,,,,,,,,,,,,,,,,,,,,,,,,,,,,,,,,,,,,,,,,,,,,,,,,,,,,,,,,,,,,,,,,,,,,,,,,,,97NA,001,2023_Sep_07_0939,ExactRep-v3-final,2021.2.3,59.88475784262094,
10,0,10,0,,,,,,,,,,,,,,,,,,,,,,,,,,,,,,,,,,,,,,,,,,,,,,,,,,,,,,,,,,,1204.8070654000621,None,1206.8096797000617,None,,,,,,,,,,,,,,,,,,,,,,,,,,,,,,,,,,,,,,,,,,,,,,,,,,,,,,,,,,,,,,,,,,,,,,,,,,97NA,001,2023_Sep_07_0939,ExactRep-v3-final,2021.2.3,59.88475784262094,
11,0,11,0,,,,,,,,,,,,,,,,,,,,,,,,,,,,,,,,,,,,,,,,,,,,,,,,,,,,,,,,,,,1207.3096736001316,None,1209.3119757000823,None,,,,,,,,,,,,,,,,,,,,,,,,,,,,,,,,,,,,,,,,,,,,,,,,,,,,,,,,,,,,,,,,,,,,,,,,,,97NA,001,2023_Sep_07_0939,ExactRep-v3-final,2021.2.3,59.88475784262094,
12,0,12,0,,,,,,,,,,,,,,,,,,,,,,,,,,,,,,,,,,,,,,,,,,,,,,,,,,,,,,,,,,,1209.8122789000627,None,1211.8153399000876,None,,,,,,,,,,,,,,,,,,,,,,,,,,,,,,,,,,,,,,,,,,,,,,,,,,,,,,,,,,,,,,,,,,,,,,,,,,97NA,001,2023_Sep_07_0939,ExactRep-v3-final,2021.2.3,59.88475784262094,
13,0,13,0,,,,,,,,,,,,,,,,,,,,,,,,,,,,,,,,,,,,,,,,,,,,,,,,,,,,,,,,,,,1212.3150619999506,None,1214.3170074000955,None,,,,,,,,,,,,,,,,,,,,,,,,,,,,,,,,,,,,,,,,,,,,,,,,,,,,,,,,,,,,,,,,,,,,,,,,,,97NA,001,2023_Sep_07_0939,ExactRep-v3-final,2021.2.3,59.88475784262094,
14,0,14,0,,,,,,,,,,,,,,,,,,,,,,,,,,,,,,,,,,,,,,,,,,,,,,,,,,,,,,,,,,,1214.8174878999125,None,1216.818976999959,None,,,,,,,,,,,,,,,,,,,,,,,,,,,,,,,,,,,,,,,,,,,,,,,,,,,,,,,,,,,,,,,,,,,,,,,,,,97NA,001,2023_Sep_07_0939,ExactRep-v3-final,2021.2.3,59.88475784262094,
,,,,,,,,,,,,,,,,,,,,,,,,,,,,,,,,,,,,,,,,,,,,,,,,,,,,,,,,,,,,,,,,,,space,20.121638600016013,1227.511891799979,None,,,,,,,,,,,,,,,,,,,,,,,,,,,,,,,,,,,,,,,,,,,,,,,,,,,,,,,,,,,,,,,,,,,,,,97NA,001,2023_Sep_07_0939,ExactRep-v3-final,2021.2.3,59.88475784262094,
,,,,0,0,0,0,,,,,,,,,,,,,,,,,,,,,,,,,,,,,,,,,,,,,,,,,,,,,,,,,,,,,,,,,1249.7358377000783,None,,,,,1217.500050399918,None,1217.500050399918,None,1217.500050399918,None,1217.500050399918,None,1217.500050399918,None,1217.500050399918,None,1247.7217709000688,None,,,,,,,,,,,,,,,,,,,,,,,,,,,,,,,,,,,,,,,,,,,,,,,,,,,,,,,,97NA,001,2023_Sep_07_0939,ExactRep-v3-final,2021.2.3,59.88475784262094,
,,,,1,0,1,0,,,,,,,,,,,,,,,,,,,,,,,,,,,,,,,,,,,,,,,,,,,,,,,,,,,,,,,,,1252.239022700116,None,,,,,,,,,,,,,,,,,1250.2359784001019,None,,,,,,,,,,,,,,,,,,,,,,,,,,,,,,,,,,,,,,,,,,,,,,,,,,,,,,,,97NA,001,2023_Sep_07_0939,ExactRep-v3-final,2021.2.3,59.88475784262094,
,,,,2,0,2,0,,,,,,,,,,,,,,,,,,,,,,,,,,,,,,,,,,,,,,,,,,,,,,,,,,,,,,,,,1254.7407478999812,None,,,,,,,,,,,,,,,,,1252.7387427999638,None,,,,,,,,,,,,,,,,,,,,,,,,,,,,,,,,,,,,,,,,,,,,,,,,,,,,,,,,97NA,001,2023_Sep_07_0939,ExactRep-v3-final,2021.2.3,59.88475784262094,
,,,,3,0,3,0,,,,,,,,,,,,,,,,,,,,,,,,,,,,,,,,,,,,,,,,,,,,,,,,,,,,,,,,,1257.243242100114,None,,,,,,,,,,,,,,,,,1255.2412557001226,None,,,,,,,,,,,,,,,,,,,,,,,,,,,,,,,,,,,,,,,,,,,,,,,,,,,,,,,,97NA,001,2023_Sep_07_0939,ExactRep-v3-final,2021.2.3,59.88475784262094,
,,,,4,0,4,0,,,,,,,,,,,,,,,,,,,,,,,,,,,,,,,,,,,,,,,,,,,,,,,,,,,,,,,,,1259.745765300002,None,,,,,,,,,,,,,,,,,1257.7432850999758,None,,,,,,,,,,,,,,,,,,,,,,,,,,,,,,,,,,,,,,,,,,,,,,,,,,,,,,,,97NA,001,2023_Sep_07_0939,ExactRep-v3-final,2021.2.3,59.88475784262094,
,,,,5,0,5,0,,,,,,,,,,,,,,,,,,,,,,,,,,,,,,,,,,,,,,,,,,,,,,,,,,,,,,,,,1262.2478197999299,None,,,,,,,,,,,,,,,,,1260.2463519999292,None,,,,,,,,,,,,,,,,,,,,,,,,,,,,,,,,,,,,,,,,,,,,,,,,,,,,,,,,97NA,001,2023_Sep_07_0939,ExactRep-v3-final,2021.2.3,59.88475784262094,
,,,,6,0,6,0,,,,,,,,,,,,,,,,,,,,,,,,,,,,,,,,,,,,,,,,,,,,,,,,,,,,,,,,,1264.7503486000933,None,,,,,,,,,,,,,,,,,1262.7487131999806,None,,,,,,,,,,,,,,,,,,,,,,,,,,,,,,,,,,,,,,,,,,,,,,,,,,,,,,,,97NA,001,2023_Sep_07_0939,ExactRep-v3-final,2021.2.3,59.88475784262094,
,,,,7,0,7,0,,,,,,,,,,,,,,,,,,,,,,,,,,,,,,,,,,,,,,,,,,,,,,,,,,,,,,,,,1267.25323510007,None,,,,,,,,,,,,,,,,,1265.2540561999194,None,,,,,,,,,,,,,,,,,,,,,,,,,,,,,,,,,,,,,,,,,,,,,,,,,,,,,,,,97NA,001,2023_Sep_07_0939,ExactRep-v3-final,2021.2.3,59.88475784262094,
,,,,8,0,8,0,,,,,,,,,,,,,,,,,,,,,,,,,,,,,,,,,,,,,,,,,,,,,,,,,,,,,,,,,1269.7556449999101,None,,,,,,,,,,,,,,,,,1267.756112900097,None,,,,,,,,,,,,,,,,,,,,,,,,,,,,,,,,,,,,,,,,,,,,,,,,,,,,,,,,97NA,001,2023_Sep_07_0939,ExactRep-v3-final,2021.2.3,59.88475784262094,
,,,,9,0,9,0,,,,,,,,,,,,,,,,,,,,,,,,,,,,,,,,,,,,,,,,,,,,,,,,,,,,,,,,,1272.2578966000583,None,,,,,,,,,,,,,,,,,1270.2558673999738,None,,,,,,,,,,,,,,,,,,,,,,,,,,,,,,,,,,,,,,,,,,,,,,,,,,,,,,,,97NA,001,2023_Sep_07_0939,ExactRep-v3-final,2021.2.3,59.88475784262094,
,,,,10,0,10,0,,,,,,,,,,,,,,,,,,,,,,,,,,,,,,,,,,,,,,,,,,,,,,,,,,,,,,,,,1274.7607305999845,None,,,,,,,,,,,,,,,,,1272.7582956000697,None,,,,,,,,,,,,,,,,,,,,,,,,,,,,,,,,,,,,,,,,,,,,,,,,,,,,,,,,97NA,001,2023_Sep_07_0939,ExactRep-v3-final,2021.2.3,59.88475784262094,
,,,,11,0,11,0,,,,,,,,,,,,,,,,,,,,,,,,,,,,,,,,,,,,,,,,,,,,,,,,,,,,,,,,,1277.2632039000746,None,,,,,,,,,,,,,,,,,1275.261197600048,None,,,,,,,,,,,,,,,,,,,,,,,,,,,,,,,,,,,,,,,,,,,,,,,,,,,,,,,,97NA,001,2023_Sep_07_0939,ExactRep-v3-final,2021.2.3,59.88475784262094,
,,,,12,0,12,0,,,,,,,,,,,,,,,,,,,,,,,,,,,,,,,,,,,,,,,,,,,,,,,,,,,,,,,,,1279.7655392999295,None,,,,,,,,,,,,,,,,,1277.7636983999982,None,,,,,,,,,,,,,,,,,,,,,,,,,,,,,,,,,,,,,,,,,,,,,,,,,,,,,,,,97NA,001,2023_Sep_07_0939,ExactRep-v3-final,2021.2.3,59.88475784262094,
,,,,13,0,13,0,,,,,,,,,,,,,,,,,,,,,,,,,,,,,,,,,,,,,,,,,,,,,,,,,,,,,,,,,1282.2846154000144,None,,,,,,,,,,,,,,,,,1280.2691814999562,None,,,,,,,,,,,,,,,,,,,,,,,,,,,,,,,,,,,,,,,,,,,,,,,,,,,,,,,,97NA,001,2023_Sep_07_0939,ExactRep-v3-final,2021.2.3,59.88475784262094,
,,,,14,0,14,0,,,,,,,,,,,,,,,,,,,,,,,,,,,,,,,,,,,,,,,,,,,,,,,,,,,,,,,,,1284.787230100017,None,,,,,,,,,,,,,,,,,1282.7854140000418,None,,,,,,,,,,,,,,,,,,,,,,,,,,,,,,,,,,,,,,,,,,,,,,,,,,,,,,,,97NA,001,2023_Sep_07_0939,ExactRep-v3-final,2021.2.3,59.88475784262094,
,,,,,,,,,,,,,,,,,,,,,,,,,,,,,,,,,,,,,,,,,,,,,,,,,,,,,,,,,,,,,,,,,,,,,,,,,,,,,,,,,,,,space,25.641022499883547,1295.3844071999192,None,,,,,,,,,,,,,,,,,,,,,,,,,,,,,,,,,,,,,,,,,,,,,,,,,,,,97NA,001,2023_Sep_07_0939,ExactRep-v3-final,2021.2.3,59.88475784262094,
,,,,,,,,0,0,0,0,,,,,,,,,,,,,,,,,,,,,,,,,,,,,,,,,,,,,,,,,,,,,,,,,,,,,1323.125664500054,None,,,,,,,,,,,,,,,,,,,,,,,1285.4403540000785,None,1285.4403540000785,None,1285.4403540000785,None,1285.4403540000785,None,1285.4403540000785,None,1285.4403540000785,None,theory,34,1,sing,white,1321.122964099981,None,None,1321.122964099981,None,,,,,,,,,,,,,,,,,,,,,,,,,,,,,,97NA,001,2023_Sep_07_0939,ExactRep-v3-final,2021.2.3,59.88475784262094,
,,,,,,,,1,0,1,0,,,,,,,,,,,,,,,,,,,,,,,,,,,,,,,,,,,,,,,,,,,,,,,,,,,,,1325.6457917001098,None,,,,,,,,,,,,,,,,,,,,,,,,,,,,,,,,,,,product,85,2,aloud,red,1323.6317600999027,None,None,1323.6317600999027,None,,,,,,,,,,,,,,,,,,,,,,,,,,,,,,97NA,001,2023_Sep_07_0939,ExactRep-v3-final,2021.2.3,59.88475784262094,
,,,,,,,,2,0,2,0,,,,,,,,,,,,,,,,,,,,,,,,,,,,,,,,,,,,,,,,,,,,,,,,,,,,,1328.1639422001317,None,,,,,,,,,,,,,,,,,,,,,,,,,,,,,,,,,,,valley,11,3,sing,white,1326.1487334000412,None,None,1326.1487334000412,None,,,,,,,,,,,,,,,,,,,,,,,,,,,,,,97NA,001,2023_Sep_07_0939,ExactRep-v3-final,2021.2.3,59.88475784262094,
,,,,,,,,3,0,3,0,,,,,,,,,,,,,,,,,,,,,,,,,,,,,,,,,,,,,,,,,,,,,,,,,,,,,1330.6666649000254,None,,,,,,,,,,,,,,,,,,,,,,,,,,,,,,,,,,,season,105,4,aloud,red,1328.6664048999082,None,None,1328.6664048999082,None,,,,,,,,,,,,,,,,,,,,,,,,,,,,,,97NA,001,2023_Sep_07_0939,ExactRep-v3-final,2021.2.3,59.88475784262094,
,,,,,,,,4,0,4,0,,,,,,,,,,,,,,,,,,,,,,,,,,,,,,,,,,,,,,,,,,,,,,,,,,,,,1333.1690446999855,None,,,,,,,,,,,,,,,,,,,,,,,,,,,,,,,,,,,meeting,26,5,sing,white,1331.1688030001242,None,None,1331.1688030001242,None,,,,,,,,,,,,,,,,,,,,,,,,,,,,,,97NA,001,2023_Sep_07_0939,ExactRep-v3-final,2021.2.3,59.88475784262094,
,,,,,,,,5,0,5,0,,,,,,,,,,,,,,,,,,,,,,,,,,,,,,,,,,,,,,,,,,,,,,,,,,,,,1335.688118299935,None,,,,,,,,,,,,,,,,,,,,,,,,,,,,,,,,,,,lad,71,6,silent,blue,1333.6825516999234,None,None,1333.6825516999234,None,,,,,,,,,,,,,,,,,,,,,,,,,,,,,,97NA,001,2023_Sep_07_0939,ExactRep-v3-final,2021.2.3,59.88475784262094,
,,,,,,,,6,0,6,0,,,,,,,,,,,,,,,,,,,,,,,,,,,,,,,,,,,,,,,,,,,,,,,,,,,,,1338.1904148000758,None,,,,,,,,,,,,,,,,,,,,,,,,,,,,,,,,,,,gold,39,7,silent,blue,1336.18830109993,None,None,1336.18830109993,None,,,,,,,,,,,,,,,,,,,,,,,,,,,,,,97NA,001,2023_Sep_07_0939,ExactRep-v3-final,2021.2.3,59.88475784262094,
,,,,,,,,7,0,7,0,,,,,,,,,,,,,,,,,,,,,,,,,,,,,,,,,,,,,,,,,,,,,,,,,,,,,1340.7096388000064,None,,,,,,,,,,,,,,,,,,,,,,,,,,,,,,,,,,,victory,33,8,sing,white,1338.6958838999271,None,None,1338.6958838999271,None,,,,,,,,,,,,,,,,,,,,,,,,,,,,,,97NA,001,2023_Sep_07_0939,ExactRep-v3-final,2021.2.3,59.88475784262094,
,,,,,,,,8,0,8,0,,,,,,,,,,,,,,,,,,,,,,,,,,,,,,,,,,,,,,,,,,,,,,,,,,,,,1343.2122098999098,None,,,,,,,,,,,,,,,,,,,,,,,,,,,,,,,,,,,nail,77,9,silent,blue,1341.2121695000678,None,None,1341.2121695000678,None,,,,,,,,,,,,,,,,,,,,,,,,,,,,,,97NA,001,2023_Sep_07_0939,ExactRep-v3-final,2021.2.3,59.88475784262094,
,,,,,,,,9,0,9,0,,,,,,,,,,,,,,,,,,,,,,,,,,,,,,,,,,,,,,,,,,,,,,,,,,,,,1345.7145350000355,None,,,,,,,,,,,,,,,,,,,,,,,,,,,,,,,,,,,blossom,114,10,aloud,red,1343.7149370000698,None,None,1343.7149370000698,None,,,,,,,,,,,,,,,,,,,,,,,,,,,,,,97NA,001,2023_Sep_07_0939,ExactRep-v3-final,2021.2.3,59.88475784262094,
,,,,,,,,10,0,10,0,,,,,,,,,,,,,,,,,,,,,,,,,,,,,,,,,,,,,,,,,,,,,,,,,,,,,1348.2339184000157,None,,,,,,,,,,,,,,,,,,,,,,,,,,,,,,,,,,,fact,92,11,aloud,red,1346.2226752999704,None,None,1346.2226752999704,None,,,,,,,,,,,,,,,,,,,,,,,,,,,,,,97NA,001,2023_Sep_07_0939,ExactRep-v3-final,2021.2.3,59.88475784262094,
,,,,,,,,11,0,11,0,,,,,,,,,,,,,,,,,,,,,,,,,,,,,,,,,,,,,,,,,,,,,,,,,,,,,1350.753180900123,None,,,,,,,,,,,,,,,,,,,,,,,,,,,,,,,,,,,blood,87,12,aloud,red,1348.7414472000673,None,None,1348.7414472000673,None,,,,,,,,,,,,,,,,,,,,,,,,,,,,,,97NA,001,2023_Sep_07_0939,ExactRep-v3-final,2021.2.3,59.88475784262094,
,,,,,,,,12,0,12,0,,,,,,,,,,,,,,,,,,,,,,,,,,,,,,,,,,,,,,,,,,,,,,,,,,,,,1353.255465599941,None,,,,,,,,,,,,,,,,,,,,,,,,,,,,,,,,,,,college,65,13,silent,blue,1351.2541996999644,None,None,1351.2541996999644,None,,,,,,,,,,,,,,,,,,,,,,,,,,,,,,97NA,001,2023_Sep_07_0939,ExactRep-v3-final,2021.2.3,59.88475784262094,
,,,,,,,,13,0,13,0,,,,,,,,,,,,,,,,,,,,,,,,,,,,,,,,,,,,,,,,,,,,,,,,,,,,,1355.774913399946,None,,,,,,,,,,,,,,,,,,,,,,,,,,,,,,,,,,,prison,107,14,aloud,red,1353.760002600029,None,None,1353.760002600029,None,,,,,,,,,,,,,,,,,,,,,,,,,,,,,,97NA,001,2023_Sep_07_0939,ExactRep-v3-final,2021.2.3,59.88475784262094,
,,,,,,,,14,0,14,0,,,,,,,,,,,,,,,,,,,,,,,,,,,,,,,,,,,,,,,,,,,,,,,,,,,,,1358.2770833999384,None,,,,,,,,,,,,,,,,,,,,,,,,,,,,,,,,,,,poet,18,15,sing,white,1356.276834799908,None,None,1356.276834799908,None,,,,,,,,,,,,,,,,,,,,,,,,,,,,,,97NA,001,2023_Sep_07_0939,ExactRep-v3-final,2021.2.3,59.88475784262094,
,,,,,,,,15,0,15,0,,,,,,,,,,,,,,,,,,,,,,,,,,,,,,,,,,,,,,,,,,,,,,,,,,,,,1360.7964946001302,None,,,,,,,,,,,,,,,,,,,,,,,,,,,,,,,,,,,answer,63,16,silent,blue,1358.7859601001255,None,None,1358.7859601001255,None,,,,,,,,,,,,,,,,,,,,,,,,,,,,,,97NA,001,2023_Sep_07_0939,ExactRep-v3-final,2021.2.3,59.88475784262094,
,,,,,,,,16,0,16,0,,,,,,,,,,,,,,,,,,,,,,,,,,,,,,,,,,,,,,,,,,,,,,,,,,,,,1363.2990999000613,None,,,,,,,,,,,,,,,,,,,,,,,,,,,,,,,,,,,salary,82,17,aloud,red,1361.299179899972,None,None,1361.299179899972,None,,,,,,,,,,,,,,,,,,,,,,,,,,,,,,97NA,001,2023_Sep_07_0939,ExactRep-v3-final,2021.2.3,59.88475784262094,
,,,,,,,,17,0,17,0,,,,,,,,,,,,,,,,,,,,,,,,,,,,,,,,,,,,,,,,,,,,,,,,,,,,,1365.8182346001267,None,,,,,,,,,,,,,,,,,,,,,,,,,,,,,,,,,,,chance,24,18,sing,white,1363.8030115999281,None,None,1363.8030115999281,None,,,,,,,,,,,,,,,,,,,,,,,,,,,,,,97NA,001,2023_Sep_07_0939,ExactRep-v3-final,2021.2.3,59.88475784262094,
,,,,,,,,18,0,18,0,,,,,,,,,,,,,,,,,,,,,,,,,,,,,,,,,,,,,,,,,,,,,,,,,,,,,1368.3206736999564,None,,,,,,,,,,,,,,,,,,,,,,,,,,,,,,,,,,,meat,57,19,silent,blue,1366.3196596999187,None,None,1366.3196596999187,None,,,,,,,,,,,,,,,,,,,,,,,,,,,,,,97NA,001,2023_Sep_07_0939,ExactRep-v3-final,2021.2.3,59.88475784262094,
,,,,,,,,19,0,19,0,,,,,,,,,,,,,,,,,,,,,,,,,,,,,,,,,,,,,,,,,,,,,,,,,,,,,1370.8231230000965,None,,,,,,,,,,,,,,,,,,,,,,,,,,,,,,,,,,,hide,32,20,sing,white,1368.8231524000876,None,None,1368.8231524000876,None,,,,,,,,,,,,,,,,,,,,,,,,,,,,,,97NA,001,2023_Sep_07_0939,ExactRep-v3-final,2021.2.3,59.88475784262094,
,,,,,,,,20,0,20,0,,,,,,,,,,,,,,,,,,,,,,,,,,,,,,,,,,,,,,,,,,,,,,,,,,,,,1373.342081299983,None,,,,,,,,,,,,,,,,,,,,,,,,,,,,,,,,,,,house,8,21,sing,white,1371.327342600096,None,None,1371.327342600096,None,,,,,,,,,,,,,,,,,,,,,,,,,,,,,,97NA,001,2023_Sep_07_0939,ExactRep-v3-final,2021.2.3,59.88475784262094,
,,,,,,,,21,0,21,0,,,,,,,,,,,,,,,,,,,,,,,,,,,,,,,,,,,,,,,,,,,,,,,,,,,,,1375.845017899992,None,,,,,,,,,,,,,,,,,,,,,,,,,,,,,,,,,,,hall,106,22,aloud,red,1373.8458106000908,None,None,1373.8458106000908,None,,,,,,,,,,,,,,,,,,,,,,,,,,,,,,97NA,001,2023_Sep_07_0939,ExactRep-v3-final,2021.2.3,59.88475784262094,
,,,,,,,,22,0,22,0,,,,,,,,,,,,,,,,,,,,,,,,,,,,,,,,,,,,,,,,,,,,,,,,,,,,,1378.3505911000539,None,,,,,,,,,,,,,,,,,,,,,,,,,,,,,,,,,,,duty,113,23,aloud,red,1376.3463707000483,None,None,1376.3463707000483,None,,,,,,,,,,,,,,,,,,,,,,,,,,,,,,97NA,001,2023_Sep_07_0939,ExactRep-v3-final,2021.2.3,59.88475784262094,
,,,,,,,,23,0,23,0,,,,,,,,,,,,,,,,,,,,,,,,,,,,,,,,,,,,,,,,,,,,,,,,,,,,,1380.8832894000225,None,,,,,,,,,,,,,,,,,,,,,,,,,,,,,,,,,,,pipe,3,24,sing,white,1378.8713517000433,None,None,1378.8713517000433,None,,,,,,,,,,,,,,,,,,,,,,,,,,,,,,97NA,001,2023_Sep_07_0939,ExactRep-v3-final,2021.2.3,59.88475784262094,
,,,,,,,,24,0,24,0,,,,,,,,,,,,,,,,,,,,,,,,,,,,,,,,,,,,,,,,,,,,,,,,,,,,,1383.4021224000026,None,,,,,,,,,,,,,,,,,,,,,,,,,,,,,,,,,,,meadow,6,25,sing,white,1381.3909454999957,None,None,1381.3909454999957,None,,,,,,,,,,,,,,,,,,,,,,,,,,,,,,97NA,001,2023_Sep_07_0939,ExactRep-v3-final,2021.2.3,59.88475784262094,
,,,,,,,,25,0,25,0,,,,,,,,,,,,,,,,,,,,,,,,,,,,,,,,,,,,,,,,,,,,,,,,,,,,,1385.904855800094,None,,,,,,,,,,,,,,,,,,,,,,,,,,,,,,,,,,,fault,14,26,sing,white,1383.903029100038,None,None,1383.903029100038,None,,,,,,,,,,,,,,,,,,,,,,,,,,,,,,97NA,001,2023_Sep_07_0939,ExactRep-v3-final,2021.2.3,59.88475784262094,
,,,,,,,,26,0,26,0,,,,,,,,,,,,,,,,,,,,,,,,,,,,,,,,,,,,,,,,,,,,,,,,,,,,,1388.407585900044,None,,,,,,,,,,,,,,,,,,,,,,,,,,,,,,,,,,,cattle,20,27,sing,white,1386.4073145999573,None,None,1386.4073145999573,None,,,,,,,,,,,,,,,,,,,,,,,,,,,,,,97NA,001,2023_Sep_07_0939,ExactRep-v3-final,2021.2.3,59.88475784262094,
,,,,,,,,27,0,27,0,,,,,,,,,,,,,,,,,,,,,,,,,,,,,,,,,,,,,,,,,,,,,,,,,,,,,1390.9268499000464,None,,,,,,,,,,,,,,,,,,,,,,,,,,,,,,,,,,,woods,9,28,sing,white,1388.9114737999626,None,None,1388.9114737999626,None,,,,,,,,,,,,,,,,,,,,,,,,,,,,,,97NA,001,2023_Sep_07_0939,ExactRep-v3-final,2021.2.3,59.88475784262094,
,,,,,,,,28,0,28,0,,,,,,,,,,,,,,,,,,,,,,,,,,,,,,,,,,,,,,,,,,,,,,,,,,,,,1393.4288455999922,None,,,,,,,,,,,,,,,,,,,,,,,,,,,,,,,,,,,grass,2,29,sing,white,1391.4300369999837,None,None,1391.4300369999837,None,,,,,,,,,,,,,,,,,,,,,,,,,,,,,,97NA,001,2023_Sep_07_0939,ExactRep-v3-final,2021.2.3,59.88475784262094,
,,,,,,,,29,0,29,0,,,,,,,,,,,,,,,,,,,,,,,,,,,,,,,,,,,,,,,,,,,,,,,,,,,,,1395.9317616999615,None,,,,,,,,,,,,,,,,,,,,,,,,,,,,,,,,,,,law,86,30,aloud,red,1393.9301720000803,None,None,1393.9301720000803,None,,,,,,,,,,,,,,,,,,,,,,,,,,,,,,97NA,001,2023_Sep_07_0939,ExactRep-v3-final,2021.2.3,59.88475784262094,
,,,,,,,,30,0,30,0,,,,,,,,,,,,,,,,,,,,,,,,,,,,,,,,,,,,,,,,,,,,,,,,,,,,,1398.4505284999032,None,,,,,,,,,,,,,,,,,,,,,,,,,,,,,,,,,,,quality,117,31,aloud,red,1396.442371699959,None,None,1396.442371699959,None,,,,,,,,,,,,,,,,,,,,,,,,,,,,,,97NA,001,2023_Sep_07_0939,ExactRep-v3-final,2021.2.3,59.88475784262094,
,,,,,,,,31,0,31,0,,,,,,,,,,,,,,,,,,,,,,,,,,,,,,,,,,,,,,,,,,,,,,,,,,,,,1400.9697360999417,None,,,,,,,,,,,,,,,,,,,,,,,,,,,,,,,,,,,form,112,32,aloud,red,1398.9542082999833,None,None,1398.9542082999833,None,,,,,,,,,,,,,,,,,,,,,,,,,,,,,,97NA,001,2023_Sep_07_0939,ExactRep-v3-final,2021.2.3,59.88475784262094,
,,,,,,,,32,0,32,0,,,,,,,,,,,,,,,,,,,,,,,,,,,,,,,,,,,,,,,,,,,,,,,,,,,,,1403.4721647000406,None,,,,,,,,,,,,,,,,,,,,,,,,,,,,,,,,,,,trouble,115,33,aloud,red,1401.4704215999227,None,None,1401.4704215999227,None,,,,,,,,,,,,,,,,,,,,,,,,,,,,,,97NA,001,2023_Sep_07_0939,ExactRep-v3-final,2021.2.3,59.88475784262094,
,,,,,,,,33,0,33,0,,,,,,,,,,,,,,,,,,,,,,,,,,,,,,,,,,,,,,,,,,,,,,,,,,,,,1405.9747415001038,None,,,,,,,,,,,,,,,,,,,,,,,,,,,,,,,,,,,iron,88,34,aloud,red,1403.9729993001092,None,None,1403.9729993001092,None,,,,,,,,,,,,,,,,,,,,,,,,,,,,,,97NA,001,2023_Sep_07_0939,ExactRep-v3-final,2021.2.3,59.88475784262094,
,,,,,,,,34,0,34,0,,,,,,,,,,,,,,,,,,,,,,,,,,,,,,,,,,,,,,,,,,,,,,,,,,,,,1408.4938197999727,None,,,,,,,,,,,,,,,,,,,,,,,,,,,,,,,,,,,safety,61,35,silent,blue,1406.480044899974,None,None,1406.480044899974,None,,,,,,,,,,,,,,,,,,,,,,,,,,,,,,97NA,001,2023_Sep_07_0939,ExactRep-v3-final,2021.2.3,59.88475784262094,
,,,,,,,,35,0,35,0,,,,,,,,,,,,,,,,,,,,,,,,,,,,,,,,,,,,,,,,,,,,,,,,,,,,,1411.0133648999035,None,,,,,,,,,,,,,,,,,,,,,,,,,,,,,,,,,,,disease,96,36,aloud,red,1408.9985647001304,None,None,1408.9985647001304,None,,,,,,,,,,,,,,,,,,,,,,,,,,,,,,97NA,001,2023_Sep_07_0939,ExactRep-v3-final,2021.2.3,59.88475784262094,
,,,,,,,,36,0,36,0,,,,,,,,,,,,,,,,,,,,,,,,,,,,,,,,,,,,,,,,,,,,,,,,,,,,,1413.5156121000182,None,,,,,,,,,,,,,,,,,,,,,,,,,,,,,,,,,,,deed,103,37,aloud,red,1411.5142020001076,None,None,1411.5142020001076,None,,,,,,,,,,,,,,,,,,,,,,,,,,,,,,97NA,001,2023_Sep_07_0939,ExactRep-v3-final,2021.2.3,59.88475784262094,
,,,,,,,,37,0,37,0,,,,,,,,,,,,,,,,,,,,,,,,,,,,,,,,,,,,,,,,,,,,,,,,,,,,,1416.035946100019,None,,,,,,,,,,,,,,,,,,,,,,,,,,,,,,,,,,,shock,45,38,silent,blue,1414.0291005000472,None,None,1414.0291005000472,None,,,,,,,,,,,,,,,,,,,,,,,,,,,,,,97NA,001,2023_Sep_07_0939,ExactRep-v3-final,2021.2.3,59.88475784262094,
,,,,,,,,38,0,38,0,,,,,,,,,,,,,,,,,,,,,,,,,,,,,,,,,,,,,,,,,,,,,,,,,,,,,1418.5376196999568,None,,,,,,,,,,,,,,,,,,,,,,,,,,,,,,,,,,,length,80,39,aloud,red,1416.5380599999335,None,None,1416.5380599999335,None,,,,,,,,,,,,,,,,,,,,,,,,,,,,,,97NA,001,2023_Sep_07_0939,ExactRep-v3-final,2021.2.3,59.88475784262094,
,,,,,,,,39,0,39,0,,,,,,,,,,,,,,,,,,,,,,,,,,,,,,,,,,,,,,,,,,,,,,,,,,,,,1421.0566114000976,None,,,,,,,,,,,,,,,,,,,,,,,,,,,,,,,,,,,plain,17,40,sing,white,1419.0427457999904,None,None,1419.0427457999904,None,,,,,,,,,,,,,,,,,,,,,,,,,,,,,,97NA,001,2023_Sep_07_0939,ExactRep-v3-final,2021.2.3,59.88475784262094,
,,,,,,,,40,0,40,0,,,,,,,,,,,,,,,,,,,,,,,,,,,,,,,,,,,,,,,,,,,,,,,,,,,,,1423.5592712000944,None,,,,,,,,,,,,,,,,,,,,,,,,,,,,,,,,,,,officer,5,41,sing,white,1421.5596872000024,None,None,1421.5596872000024,None,,,,,,,,,,,,,,,,,,,,,,,,,,,,,,97NA,001,2023_Sep_07_0939,ExactRep-v3-final,2021.2.3,59.88475784262094,
,,,,,,,,41,0,41,0,,,,,,,,,,,,,,,,,,,,,,,,,,,,,,,,,,,,,,,,,,,,,,,,,,,,,1426.0783349999692,None,,,,,,,,,,,,,,,,,,,,,,,,,,,,,,,,,,,ability,4,42,sing,white,1424.0633485999424,None,None,1424.0633485999424,None,,,,,,,,,,,,,,,,,,,,,,,,,,,,,,97NA,001,2023_Sep_07_0939,ExactRep-v3-final,2021.2.3,59.88475784262094,
,,,,,,,,42,0,42,0,,,,,,,,,,,,,,,,,,,,,,,,,,,,,,,,,,,,,,,,,,,,,,,,,,,,,1428.5806919001043,None,,,,,,,,,,,,,,,,,,,,,,,,,,,,,,,,,,,month,53,43,silent,blue,1426.5809893000405,None,None,1426.5809893000405,None,,,,,,,,,,,,,,,,,,,,,,,,,,,,,,97NA,001,2023_Sep_07_0939,ExactRep-v3-final,2021.2.3,59.88475784262094,
,,,,,,,,43,0,43,0,,,,,,,,,,,,,,,,,,,,,,,,,,,,,,,,,,,,,,,,,,,,,,,,,,,,,1431.100106799975,None,,,,,,,,,,,,,,,,,,,,,,,,,,,,,,,,,,,series,60,44,silent,blue,1429.0871164000127,None,None,1429.0871164000127,None,,,,,,,,,,,,,,,,,,,,,,,,,,,,,,97NA,001,2023_Sep_07_0939,ExactRep-v3-final,2021.2.3,59.88475784262094,
,,,,,,,,44,0,44,0,,,,,,,,,,,,,,,,,,,,,,,,,,,,,,,,,,,,,,,,,,,,,,,,,,,,,1433.6025253999978,None,,,,,,,,,,,,,,,,,,,,,,,,,,,,,,,,,,,amount,110,45,aloud,red,1431.6000471999869,None,None,1431.6000471999869,None,,,,,,,,,,,,,,,,,,,,,,,,,,,,,,97NA,001,2023_Sep_07_0939,ExactRep-v3-final,2021.2.3,59.88475784262094,
,,,,,,,,45,0,45,0,,,,,,,,,,,,,,,,,,,,,,,,,,,,,,,,,,,,,,,,,,,,,,,,,,,,,1436.104828899959,None,,,,,,,,,,,,,,,,,,,,,,,,,,,,,,,,,,,charm,101,46,aloud,red,1434.1055040999781,None,None,1434.1055040999781,None,,,,,,,,,,,,,,,,,,,,,,,,,,,,,,97NA,001,2023_Sep_07_0939,ExactRep-v3-final,2021.2.3,59.88475784262094,
,,,,,,,,46,0,46,0,,,,,,,,,,,,,,,,,,,,,,,,,,,,,,,,,,,,,,,,,,,,,,,,,,,,,1438.6072843000293,None,,,,,,,,,,,,,,,,,,,,,,,,,,,,,,,,,,,love,62,47,silent,blue,1436.6056782999076,None,None,1436.6056782999076,None,,,,,,,,,,,,,,,,,,,,,,,,,,,,,,97NA,001,2023_Sep_07_0939,ExactRep-v3-final,2021.2.3,59.88475784262094,
,,,,,,,,47,0,47,0,,,,,,,,,,,,,,,,,,,,,,,,,,,,,,,,,,,,,,,,,,,,,,,,,,,,,1441.1101190999616,None,,,,,,,,,,,,,,,,,,,,,,,,,,,,,,,,,,,origin,89,48,aloud,red,1439.1084276000038,None,None,1439.1084276000038,None,,,,,,,,,,,,,,,,,,,,,,,,,,,,,,97NA,001,2023_Sep_07_0939,ExactRep-v3-final,2021.2.3,59.88475784262094,
,,,,,,,,48,0,48,0,,,,,,,,,,,,,,,,,,,,,,,,,,,,,,,,,,,,,,,,,,,,,,,,,,,,,1443.6290059001185,None,,,,,,,,,,,,,,,,,,,,,,,,,,,,,,,,,,,idea,109,49,aloud,red,1441.613886800129,None,None,1441.613886800129,None,,,,,,,,,,,,,,,,,,,,,,,,,,,,,,97NA,001,2023_Sep_07_0939,ExactRep-v3-final,2021.2.3,59.88475784262094,
,,,,,,,,49,0,49,0,,,,,,,,,,,,,,,,,,,,,,,,,,,,,,,,,,,,,,,,,,,,,,,,,,,,,1446.1315744000021,None,,,,,,,,,,,,,,,,,,,,,,,,,,,,,,,,,,,humour,12,50,sing,white,1444.132528899936,None,None,1444.132528899936,None,,,,,,,,,,,,,,,,,,,,,,,,,,,,,,97NA,001,2023_Sep_07_0939,ExactRep-v3-final,2021.2.3,59.88475784262094,
,,,,,,,,50,0,50,0,,,,,,,,,,,,,,,,,,,,,,,,,,,,,,,,,,,,,,,,,,,,,,,,,,,,,1448.633957900107,None,,,,,,,,,,,,,,,,,,,,,,,,,,,,,,,,,,,sugar,22,51,sing,white,1446.6322343999054,None,None,1446.6322343999054,None,,,,,,,,,,,,,,,,,,,,,,,,,,,,,,97NA,001,2023_Sep_07_0939,ExactRep-v3-final,2021.2.3,59.88475784262094,
,,,,,,,,51,0,51,0,,,,,,,,,,,,,,,,,,,,,,,,,,,,,,,,,,,,,,,,,,,,,,,,,,,,,1451.136645300081,None,,,,,,,,,,,,,,,,,,,,,,,,,,,,,,,,,,,shoes,78,52,silent,blue,1449.1369207000826,None,None,1449.1369207000826,None,,,,,,,,,,,,,,,,,,,,,,,,,,,,,,97NA,001,2023_Sep_07_0939,ExactRep-v3-final,2021.2.3,59.88475784262094,
,,,,,,,,52,0,52,0,,,,,,,,,,,,,,,,,,,,,,,,,,,,,,,,,,,,,,,,,,,,,,,,,,,,,1453.6389914001338,None,,,,,,,,,,,,,,,,,,,,,,,,,,,,,,,,,,,soul,28,53,sing,white,1451.6381765999831,None,None,1451.6381765999831,None,,,,,,,,,,,,,,,,,,,,,,,,,,,,,,97NA,001,2023_Sep_07_0939,ExactRep-v3-final,2021.2.3,59.88475784262094,
,,,,,,,,53,0,53,0,,,,,,,,,,,,,,,,,,,,,,,,,,,,,,,,,,,,,,,,,,,,,,,,,,,,,1456.1414660001174,None,,,,,,,,,,,,,,,,,,,,,,,,,,,,,,,,,,,door,10,54,sing,white,1454.1400029999204,None,None,1454.1400029999204,None,,,,,,,,,,,,,,,,,,,,,,,,,,,,,,97NA,001,2023_Sep_07_0939,ExactRep-v3-final,2021.2.3,59.88475784262094,
,,,,,,,,54,0,54,0,,,,,,,,,,,,,,,,,,,,,,,,,,,,,,,,,,,,,,,,,,,,,,,,,,,,,1458.6443879001308,None,,,,,,,,,,,,,,,,,,,,,,,,,,,,,,,,,,,dollar,119,55,aloud,red,1456.6424392999616,None,None,1456.6424392999616,None,,,,,,,,,,,,,,,,,,,,,,,,,,,,,,97NA,001,2023_Sep_07_0939,ExactRep-v3-final,2021.2.3,59.88475784262094,
,,,,,,,,55,0,55,0,,,,,,,,,,,,,,,,,,,,,,,,,,,,,,,,,,,,,,,,,,,,,,,,,,,,,1461.1464297999628,None,,,,,,,,,,,,,,,,,,,,,,,,,,,,,,,,,,,event,98,56,aloud,red,1459.1467158999294,None,None,1459.1467158999294,None,,,,,,,,,,,,,,,,,,,,,,,,,,,,,,97NA,001,2023_Sep_07_0939,ExactRep-v3-final,2021.2.3,59.88475784262094,
,,,,,,,,56,0,56,0,,,,,,,,,,,,,,,,,,,,,,,,,,,,,,,,,,,,,,,,,,,,,,,,,,,,,1463.665543799987,None,,,,,,,,,,,,,,,,,,,,,,,,,,,,,,,,,,,fire,50,57,silent,blue,1461.6512476000935,None,None,1461.6512476000935,None,,,,,,,,,,,,,,,,,,,,,,,,,,,,,,97NA,001,2023_Sep_07_0939,ExactRep-v3-final,2021.2.3,59.88475784262094,
,,,,,,,,57,0,57,0,,,,,,,,,,,,,,,,,,,,,,,,,,,,,,,,,,,,,,,,,,,,,,,,,,,,,1466.1683265001047,None,,,,,,,,,,,,,,,,,,,,,,,,,,,,,,,,,,,potato,68,58,silent,blue,1464.166174000129,None,None,1464.166174000129,None,,,,,,,,,,,,,,,,,,,,,,,,,,,,,,97NA,001,2023_Sep_07_0939,ExactRep-v3-final,2021.2.3,59.88475784262094,
,,,,,,,,58,0,58,0,,,,,,,,,,,,,,,,,,,,,,,,,,,,,,,,,,,,,,,,,,,,,,,,,,,,,1468.6707918001339,None,,,,,,,,,,,,,,,,,,,,,,,,,,,,,,,,,,,tool,0,59,sing,white,1466.6705778001342,None,None,1466.6705778001342,None,,,,,,,,,,,,,,,,,,,,,,,,,,,,,,97NA,001,2023_Sep_07_0939,ExactRep-v3-final,2021.2.3,59.88475784262094,
,,,,,,,,59,0,59,0,,,,,,,,,,,,,,,,,,,,,,,,,,,,,,,,,,,,,,,,,,,,,,,,,,,,,1471.173485999927,None,,,,,,,,,,,,,,,,,,,,,,,,,,,,,,,,,,,freedom,118,60,aloud,red,1469.1715935999528,None,None,1469.1715935999528,None,,,,,,,,,,,,,,,,,,,,,,,,,,,,,,97NA,001,2023_Sep_07_0939,ExactRep-v3-final,2021.2.3,59.88475784262094,
,,,,,,,,60,0,60,0,,,,,,,,,,,,,,,,,,,,,,,,,,,,,,,,,,,,,,,,,,,,,,,,,,,,,1473.692276299931,None,,,,,,,,,,,,,,,,,,,,,,,,,,,,,,,,,,,factory,81,61,aloud,red,1471.6845327001065,None,None,1471.6845327001065,None,,,,,,,,,,,,,,,,,,,,,,,,,,,,,,97NA,001,2023_Sep_07_0939,ExactRep-v3-final,2021.2.3,59.88475784262094,
,,,,,,,,61,0,61,0,,,,,,,,,,,,,,,,,,,,,,,,,,,,,,,,,,,,,,,,,,,,,,,,,,,,,1476.195099600125,None,,,,,,,,,,,,,,,,,,,,,,,,,,,,,,,,,,,pride,100,62,aloud,red,1474.1934398000594,None,None,1474.1934398000594,None,,,,,,,,,,,,,,,,,,,,,,,,,,,,,,97NA,001,2023_Sep_07_0939,ExactRep-v3-final,2021.2.3,59.88475784262094,
,,,,,,,,62,0,62,0,,,,,,,,,,,,,,,,,,,,,,,,,,,,,,,,,,,,,,,,,,,,,,,,,,,,,1478.6974893000443,None,,,,,,,,,,,,,,,,,,,,,,,,,,,,,,,,,,,boulder,27,63,sing,white,1476.698084200034,None,None,1476.698084200034,None,,,,,,,,,,,,,,,,,,,,,,,,,,,,,,97NA,001,2023_Sep_07_0939,ExactRep-v3-final,2021.2.3,59.88475784262094,
,,,,,,,,63,0,63,0,,,,,,,,,,,,,,,,,,,,,,,,,,,,,,,,,,,,,,,,,,,,,,,,,,,,,1481.216611500131,None,,,,,,,,,,,,,,,,,,,,,,,,,,,,,,,,,,,doll,19,64,sing,white,1479.259566700086,None,None,1479.259566700086,None,,,,,,,,,,,,,,,,,,,,,,,,,,,,,,97NA,001,2023_Sep_07_0939,ExactRep-v3-final,2021.2.3,59.88475784262094,
,,,,,,,,64,0,64,0,,,,,,,,,,,,,,,,,,,,,,,,,,,,,,,,,,,,,,,,,,,,,,,,,,,,,1483.719425200019,None,,,,,,,,,,,,,,,,,,,,,,,,,,,,,,,,,,,maiden,36,65,sing,white,1481.7201579001267,None,None,1481.7201579001267,None,,,,,,,,,,,,,,,,,,,,,,,,,,,,,,97NA,001,2023_Sep_07_0939,ExactRep-v3-final,2021.2.3,59.88475784262094,
,,,,,,,,65,0,65,0,,,,,,,,,,,,,,,,,,,,,,,,,,,,,,,,,,,,,,,,,,,,,,,,,,,,,1486.238203600049,None,,,,,,,,,,,,,,,,,,,,,,,,,,,,,,,,,,,string,25,66,sing,white,1484.2243695999496,None,None,1484.2243695999496,None,,,,,,,,,,,,,,,,,,,,,,,,,,,,,,97NA,001,2023_Sep_07_0939,ExactRep-v3-final,2021.2.3,59.88475784262094,
,,,,,,,,66,0,66,0,,,,,,,,,,,,,,,,,,,,,,,,,,,,,,,,,,,,,,,,,,,,,,,,,,,,,1488.7409358001314,None,,,,,,,,,,,,,,,,,,,,,,,,,,,,,,,,,,,passion,108,67,aloud,red,1486.7387407000642,None,None,1486.7387407000642,None,,,,,,,,,,,,,,,,,,,,,,,,,,,,,,97NA,001,2023_Sep_07_0939,ExactRep-v3-final,2021.2.3,59.88475784262094,
,,,,,,,,67,0,67,0,,,,,,,,,,,,,,,,,,,,,,,,,,,,,,,,,,,,,,,,,,,,,,,,,,,,,1491.2600336999167,None,,,,,,,,,,,,,,,,,,,,,,,,,,,,,,,,,,,devil,43,68,silent,blue,1489.2454937999137,None,None,1489.2454937999137,None,,,,,,,,,,,,,,,,,,,,,,,,,,,,,,97NA,001,2023_Sep_07_0939,ExactRep-v3-final,2021.2.3,59.88475784262094,
,,,,,,,,68,0,68,0,,,,,,,,,,,,,,,,,,,,,,,,,,,,,,,,,,,,,,,,,,,,,,,,,,,,,1493.762730400078,None,,,,,,,,,,,,,,,,,,,,,,,,,,,,,,,,,,,silence,73,69,silent,blue,1491.7608856000006,None,None,1491.7608856000006,None,,,,,,,,,,,,,,,,,,,,,,,,,,,,,,97NA,001,2023_Sep_07_0939,ExactRep-v3-final,2021.2.3,59.88475784262094,
,,,,,,,,69,0,69,0,,,,,,,,,,,,,,,,,,,,,,,,,,,,,,,,,,,,,,,,,,,,,,,,,,,,,1496.2817120000254,None,,,,,,,,,,,,,,,,,,,,,,,,,,,,,,,,,,,bird,95,70,aloud,red,1494.2663396000862,None,None,1494.2663396000862,None,,,,,,,,,,,,,,,,,,,,,,,,,,,,,,97NA,001,2023_Sep_07_0939,ExactRep-v3-final,2021.2.3,59.88475784262094,
,,,,,,,,70,0,70,0,,,,,,,,,,,,,,,,,,,,,,,,,,,,,,,,,,,,,,,,,,,,,,,,,,,,,1498.7840867000632,None,,,,,,,,,,,,,,,,,,,,,,,,,,,,,,,,,,,library,79,71,sing,white,1496.7824578001164,None,None,1496.7824578001164,None,,,,,,,,,,,,,,,,,,,,,,,,,,,,,,97NA,001,2023_Sep_07_0939,ExactRep-v3-final,2021.2.3,59.88475784262094,
,,,,,,,,71,0,71,0,,,,,,,,,,,,,,,,,,,,,,,,,,,,,,,,,,,,,,,,,,,,,,,,,,,,,1501.3034383999184,None,,,,,,,,,,,,,,,,,,,,,,,,,,,,,,,,,,,coin,59,72,silent,blue,1499.291627400089,None,None,1499.291627400089,None,,,,,,,,,,,,,,,,,,,,,,,,,,,,,,97NA,001,2023_Sep_07_0939,ExactRep-v3-final,2021.2.3,59.88475784262094,
,,,,,,,,72,0,72,0,,,,,,,,,,,,,,,,,,,,,,,,,,,,,,,,,,,,,,,,,,,,,,,,,,,,,1503.8226697999053,None,,,,,,,,,,,,,,,,,,,,,,,,,,,,,,,,,,,pupil,47,73,silent,blue,1501.8107249999885,None,None,1501.8107249999885,None,,,,,,,,,,,,,,,,,,,,,,,,,,,,,,97NA,001,2023_Sep_07_0939,ExactRep-v3-final,2021.2.3,59.88475784262094,
,,,,,,,,73,0,73,0,,,,,,,,,,,,,,,,,,,,,,,,,,,,,,,,,,,,,,,,,,,,,,,,,,,,,1506.341686300002,None,,,,,,,,,,,,,,,,,,,,,,,,,,,,,,,,,,,plant,1,74,sing,white,1504.3299116000999,None,None,1504.3299116000999,None,,,,,,,,,,,,,,,,,,,,,,,,,,,,,,97NA,001,2023_Sep_07_0939,ExactRep-v3-final,2021.2.3,59.88475784262094,
,,,,,,,,74,0,74,0,,,,,,,,,,,,,,,,,,,,,,,,,,,,,,,,,,,,,,,,,,,,,,,,,,,,,1508.84417019994,None,,,,,,,,,,,,,,,,,,,,,,,,,,,,,,,,,,,life,70,75,silent,blue,1506.8424352000002,None,None,1506.8424352000002,None,,,,,,,,,,,,,,,,,,,,,,,,,,,,,,97NA,001,2023_Sep_07_0939,ExactRep-v3-final,2021.2.3,59.88475784262094,
,,,,,,,,75,0,75,0,,,,,,,,,,,,,,,,,,,,,,,,,,,,,,,,,,,,,,,,,,,,,,,,,,,,,1511.3465734000783,None,,,,,,,,,,,,,,,,,,,,,,,,,,,,,,,,,,,window,67,76,silent,blue,1509.345163699938,None,None,1509.345163699938,None,,,,,,,,,,,,,,,,,,,,,,,,,,,,,,97NA,001,2023_Sep_07_0939,ExactRep-v3-final,2021.2.3,59.88475784262094,
,,,,,,,,76,0,76,0,,,,,,,,,,,,,,,,,,,,,,,,,,,,,,,,,,,,,,,,,,,,,,,,,,,,,1513.8662554000039,None,,,,,,,,,,,,,,,,,,,,,,,,,,,,,,,,,,,mother,84,77,aloud,red,1511.8506768001243,None,None,1511.8506768001243,None,,,,,,,,,,,,,,,,,,,,,,,,,,,,,,97NA,001,2023_Sep_07_0939,ExactRep-v3-final,2021.2.3,59.88475784262094,
,,,,,,,,77,0,77,0,,,,,,,,,,,,,,,,,,,,,,,,,,,,,,,,,,,,,,,,,,,,,,,,,,,,,1516.3854996999726,None,,,,,,,,,,,,,,,,,,,,,,,,,,,,,,,,,,,wife,38,78,sing,white,1514.3704993999563,None,None,1514.3704993999563,None,,,,,,,,,,,,,,,,,,,,,,,,,,,,,,97NA,001,2023_Sep_07_0939,ExactRep-v3-final,2021.2.3,59.88475784262094,
,,,,,,,,78,0,78,0,,,,,,,,,,,,,,,,,,,,,,,,,,,,,,,,,,,,,,,,,,,,,,,,,,,,,1518.905279000057,None,,,,,,,,,,,,,,,,,,,,,,,,,,,,,,,,,,,justice,97,79,aloud,red,1516.8915176000446,None,None,1516.8915176000446,None,,,,,,,,,,,,,,,,,,,,,,,,,,,,,,97NA,001,2023_Sep_07_0939,ExactRep-v3-final,2021.2.3,59.88475784262094,
,,,,,,,,79,0,79,0,,,,,,,,,,,,,,,,,,,,,,,,,,,,,,,,,,,,,,,,,,,,,,,,,,,,,1521.406569099985,None,,,,,,,,,,,,,,,,,,,,,,,,,,,,,,,,,,,air,69,80,silent,blue,1519.407077900134,None,None,1519.407077900134,None,,,,,,,,,,,,,,,,,,,,,,,,,,,,,,97NA,001,2023_Sep_07_0939,ExactRep-v3-final,2021.2.3,59.88475784262094,
,,,,,,,,80,0,80,0,,,,,,,,,,,,,,,,,,,,,,,,,,,,,,,,,,,,,,,,,,,,,,,,,,,,,1523.9261706001125,None,,,,,,,,,,,,,,,,,,,,,,,,,,,,,,,,,,,teacher,74,81,silent,blue,1521.9202358999755,None,None,1521.9202358999755,None,,,,,,,,,,,,,,,,,,,,,,,,,,,,,,97NA,001,2023_Sep_07_0939,ExactRep-v3-final,2021.2.3,59.88475784262094,
,,,,,,,,81,0,81,0,,,,,,,,,,,,,,,,,,,,,,,,,,,,,,,,,,,,,,,,,,,,,,,,,,,,,1526.428607000038,None,,,,,,,,,,,,,,,,,,,,,,,,,,,,,,,,,,,woman,35,82,sing,white,1524.426387600135,None,None,1524.426387600135,None,,,,,,,,,,,,,,,,,,,,,,,,,,,,,,97NA,001,2023_Sep_07_0939,ExactRep-v3-final,2021.2.3,59.88475784262094,
,,,,,,,,82,0,82,0,,,,,,,,,,,,,,,,,,,,,,,,,,,,,,,,,,,,,,,,,,,,,,,,,,,,,1528.9478287000675,None,,,,,,,,,,,,,,,,,,,,,,,,,,,,,,,,,,,cat,111,83,aloud,red,1526.9328832000028,None,None,1526.9328832000028,None,,,,,,,,,,,,,,,,,,,,,,,,,,,,,,97NA,001,2023_Sep_07_0939,ExactRep-v3-final,2021.2.3,59.88475784262094,
,,,,,,,,83,0,83,0,,,,,,,,,,,,,,,,,,,,,,,,,,,,,,,,,,,,,,,,,,,,,,,,,,,,,1531.4500478000846,None,,,,,,,,,,,,,,,,,,,,,,,,,,,,,,,,,,,student,30,84,sing,white,1529.4500428999308,None,None,1529.4500428999308,None,,,,,,,,,,,,,,,,,,,,,,,,,,,,,,97NA,001,2023_Sep_07_0939,ExactRep-v3-final,2021.2.3,59.88475784262094,
,,,,,,,,84,0,84,0,,,,,,,,,,,,,,,,,,,,,,,,,,,,,,,,,,,,,,,,,,,,,,,,,,,,,1533.9697805999313,None,,,,,,,,,,,,,,,,,,,,,,,,,,,,,,,,,,,river,54,85,silent,blue,1531.95536240004,None,None,1531.95536240004,None,,,,,,,,,,,,,,,,,,,,,,,,,,,,,,97NA,001,2023_Sep_07_0939,ExactRep-v3-final,2021.2.3,59.88475784262094,
,,,,,,,,85,0,85,0,,,,,,,,,,,,,,,,,,,,,,,,,,,,,,,,,,,,,,,,,,,,,,,,,,,,,1536.4721890999936,None,,,,,,,,,,,,,,,,,,,,,,,,,,,,,,,,,,,temple,94,86,aloud,red,1534.4725144999102,None,None,1534.4725144999102,None,,,,,,,,,,,,,,,,,,,,,,,,,,,,,,97NA,001,2023_Sep_07_0939,ExactRep-v3-final,2021.2.3,59.88475784262094,
,,,,,,,,86,0,86,0,,,,,,,,,,,,,,,,,,,,,,,,,,,,,,,,,,,,,,,,,,,,,,,,,,,,,1538.9743369999342,None,,,,,,,,,,,,,,,,,,,,,,,,,,,,,,,,,,,opinion,51,87,silent,blue,1536.9743218999356,None,None,1536.9743218999356,None,,,,,,,,,,,,,,,,,,,,,,,,,,,,,,97NA,001,2023_Sep_07_0939,ExactRep-v3-final,2021.2.3,59.88475784262094,
,,,,,,,,87,0,87,0,,,,,,,,,,,,,,,,,,,,,,,,,,,,,,,,,,,,,,,,,,,,,,,,,,,,,1541.477031599963,None,,,,,,,,,,,,,,,,,,,,,,,,,,,,,,,,,,,steam,64,88,silent,blue,1539.4768352000974,None,None,1539.4768352000974,None,,,,,,,,,,,,,,,,,,,,,,,,,,,,,,97NA,001,2023_Sep_07_0939,ExactRep-v3-final,2021.2.3,59.88475784262094,
,,,,,,,,88,0,88,0,,,,,,,,,,,,,,,,,,,,,,,,,,,,,,,,,,,,,,,,,,,,,,,,,,,,,1543.979408300016,None,,,,,,,,,,,,,,,,,,,,,,,,,,,,,,,,,,,master,66,89,silent,blue,1541.9776443999726,None,None,1541.9776443999726,None,,,,,,,,,,,,,,,,,,,,,,,,,,,,,,97NA,001,2023_Sep_07_0939,ExactRep-v3-final,2021.2.3,59.88475784262094,
,,,,,,,,89,0,89,0,,,,,,,,,,,,,,,,,,,,,,,,,,,,,,,,,,,,,,,,,,,,,,,,,,,,,1546.4820779000875,None,,,,,,,,,,,,,,,,,,,,,,,,,,,,,,,,,,,avenue,52,90,silent,blue,1544.4802590000909,None,None,1544.4802590000909,None,,,,,,,,,,,,,,,,,,,,,,,,,,,,,,97NA,001,2023_Sep_07_0939,ExactRep-v3-final,2021.2.3,59.88475784262094,
,,,,,,,,90,0,90,0,,,,,,,,,,,,,,,,,,,,,,,,,,,,,,,,,,,,,,,,,,,,,,,,,,,,,1549.0011928000022,None,,,,,,,,,,,,,,,,,,,,,,,,,,,,,,,,,,,effort,13,91,sing,white,1546.9870428000577,None,None,1546.9870428000577,None,,,,,,,,,,,,,,,,,,,,,,,,,,,,,,97NA,001,2023_Sep_07_0939,ExactRep-v3-final,2021.2.3,59.88475784262094,
,,,,,,,,91,0,91,0,,,,,,,,,,,,,,,,,,,,,,,,,,,,,,,,,,,,,,,,,,,,,,,,,,,,,1551.5030783000402,None,,,,,,,,,,,,,,,,,,,,,,,,,,,,,,,,,,,cabin,48,92,silent,blue,1549.503990400117,None,None,1549.503990400117,None,,,,,,,,,,,,,,,,,,,,,,,,,,,,,,97NA,001,2023_Sep_07_0939,ExactRep-v3-final,2021.2.3,59.88475784262094,
,,,,,,,,92,0,92,0,,,,,,,,,,,,,,,,,,,,,,,,,,,,,,,,,,,,,,,,,,,,,,,,,,,,,1554.0062889999244,None,,,,,,,,,,,,,,,,,,,,,,,,,,,,,,,,,,,boy,44,93,silent,blue,1552.0041517999489,None,None,1552.0041517999489,None,,,,,,,,,,,,,,,,,,,,,,,,,,,,,,97NA,001,2023_Sep_07_0939,ExactRep-v3-final,2021.2.3,59.88475784262094,
,,,,,,,,93,0,93,0,,,,,,,,,,,,,,,,,,,,,,,,,,,,,,,,,,,,,,,,,,,,,,,,,,,,,1556.5254307000432,None,,,,,,,,,,,,,,,,,,,,,,,,,,,,,,,,,,,street,56,94,silent,blue,1554.5103903999552,None,None,1554.5103903999552,None,,,,,,,,,,,,,,,,,,,,,,,,,,,,,,97NA,001,2023_Sep_07_0939,ExactRep-v3-final,2021.2.3,59.88475784262094,
,,,,,,,,94,0,94,0,,,,,,,,,,,,,,,,,,,,,,,,,,,,,,,,,,,,,,,,,,,,,,,,,,,,,1559.0296471000183,None,,,,,,,,,,,,,,,,,,,,,,,,,,,,,,,,,,,friend,76,95,silent,blue,1557.027720999904,None,None,1557.027720999904,None,,,,,,,,,,,,,,,,,,,,,,,,,,,,,,97NA,001,2023_Sep_07_0939,ExactRep-v3-final,2021.2.3,59.88475784262094,
,,,,,,,,95,0,95,0,,,,,,,,,,,,,,,,,,,,,,,,,,,,,,,,,,,,,,,,,,,,,,,,,,,,,1561.546773900045,None,,,,,,,,,,,,,,,,,,,,,,,,,,,,,,,,,,,speech,15,96,sing,white,1559.545361299999,None,None,1559.545361299999,None,,,,,,,,,,,,,,,,,,,,,,,,,,,,,,97NA,001,2023_Sep_07_0939,ExactRep-v3-final,2021.2.3,59.88475784262094,
,,,,,,,,96,0,96,0,,,,,,,,,,,,,,,,,,,,,,,,,,,,,,,,,,,,,,,,,,,,,,,,,,,,,1564.066058000084,None,,,,,,,,,,,,,,,,,,,,,,,,,,,,,,,,,,,cotton,7,97,sing,white,1562.052251599962,None,None,1562.052251599962,None,,,,,,,,,,,,,,,,,,,,,,,,,,,,,,97NA,001,2023_Sep_07_0939,ExactRep-v3-final,2021.2.3,59.88475784262094,
,,,,,,,,97,0,97,0,,,,,,,,,,,,,,,,,,,,,,,,,,,,,,,,,,,,,,,,,,,,,,,,,,,,,1566.5685324999504,None,,,,,,,,,,,,,,,,,,,,,,,,,,,,,,,,,,,storm,29,98,sing,white,1564.5667340001091,None,None,1564.5667340001091,None,,,,,,,,,,,,,,,,,,,,,,,,,,,,,,97NA,001,2023_Sep_07_0939,ExactRep-v3-final,2021.2.3,59.88475784262094,
,,,,,,,,98,0,98,0,,,,,,,,,,,,,,,,,,,,,,,,,,,,,,,,,,,,,,,,,,,,,,,,,,,,,1569.071071299957,None,,,,,,,,,,,,,,,,,,,,,,,,,,,,,,,,,,,dawn,99,99,aloud,red,1567.0689195001032,None,None,1567.0689195001032,None,,,,,,,,,,,,,,,,,,,,,,,,,,,,,,97NA,001,2023_Sep_07_0939,ExactRep-v3-final,2021.2.3,59.88475784262094,
,,,,,,,,99,0,99,0,,,,,,,,,,,,,,,,,,,,,,,,,,,,,,,,,,,,,,,,,,,,,,,,,,,,,1571.5762678999454,None,,,,,,,,,,,,,,,,,,,,,,,,,,,,,,,,,,,memory,23,100,sing,white,1569.572004900081,None,None,1569.572004900081,None,,,,,,,,,,,,,,,,,,,,,,,,,,,,,,97NA,001,2023_Sep_07_0939,ExactRep-v3-final,2021.2.3,59.88475784262094,
,,,,,,,,100,0,100,0,,,,,,,,,,,,,,,,,,,,,,,,,,,,,,,,,,,,,,,,,,,,,,,,,,,,,1574.092660699971,None,,,,,,,,,,,,,,,,,,,,,,,,,,,,,,,,,,,wine,55,101,silent,blue,1572.0933544000145,None,None,1572.0933544000145,None,,,,,,,,,,,,,,,,,,,,,,,,,,,,,,97NA,001,2023_Sep_07_0939,ExactRep-v3-final,2021.2.3,59.88475784262094,
,,,,,,,,101,0,101,0,,,,,,,,,,,,,,,,,,,,,,,,,,,,,,,,,,,,,,,,,,,,,,,,,,,,,1576.5956198999193,None,,,,,,,,,,,,,,,,,,,,,,,,,,,,,,,,,,,table,16,102,sing,white,1574.5934927000199,None,None,1574.5934927000199,None,,,,,,,,,,,,,,,,,,,,,,,,,,,,,,97NA,001,2023_Sep_07_0939,ExactRep-v3-final,2021.2.3,59.88475784262094,
,,,,,,,,102,0,102,0,,,,,,,,,,,,,,,,,,,,,,,,,,,,,,,,,,,,,,,,,,,,,,,,,,,,,1579.1169429000001,None,,,,,,,,,,,,,,,,,,,,,,,,,,,,,,,,,,,dream,31,103,sing,white,1577.0997530999593,None,None,1577.0997530999593,None,,,,,,,,,,,,,,,,,,,,,,,,,,,,,,97NA,001,2023_Sep_07_0939,ExactRep-v3-final,2021.2.3,59.88475784262094,
,,,,,,,,103,0,103,0,,,,,,,,,,,,,,,,,,,,,,,,,,,,,,,,,,,,,,,,,,,,,,,,,,,,,1581.6170526000205,None,,,,,,,,,,,,,,,,,,,,,,,,,,,,,,,,,,,honour,21,104,sing,white,1579.6172432999592,None,None,1579.6172432999592,None,,,,,,,,,,,,,,,,,,,,,,,,,,,,,,97NA,001,2023_Sep_07_0939,ExactRep-v3-final,2021.2.3,59.88475784262094,
,,,,,,,,104,0,104,0,,,,,,,,,,,,,,,,,,,,,,,,,,,,,,,,,,,,,,,,,,,,,,,,,,,,,1584.1361936000176,None,,,,,,,,,,,,,,,,,,,,,,,,,,,,,,,,,,,bar,90,105,aloud,red,1582.121546200011,None,None,1582.121546200011,None,,,,,,,,,,,,,,,,,,,,,,,,,,,,,,97NA,001,2023_Sep_07_0939,ExactRep-v3-final,2021.2.3,59.88475784262094,
,,,,,,,,105,0,105,0,,,,,,,,,,,,,,,,,,,,,,,,,,,,,,,,,,,,,,,,,,,,,,,,,,,,,1586.6386899999343,None,,,,,,,,,,,,,,,,,,,,,,,,,,,,,,,,,,,cash,46,106,silent,blue,1584.637060200097,None,None,1584.637060200097,None,,,,,,,,,,,,,,,,,,,,,,,,,,,,,,97NA,001,2023_Sep_07_0939,ExactRep-v3-final,2021.2.3,59.88475784262094,
,,,,,,,,106,0,106,0,,,,,,,,,,,,,,,,,,,,,,,,,,,,,,,,,,,,,,,,,,,,,,,,,,,,,1589.1411069000605,None,,,,,,,,,,,,,,,,,,,,,,,,,,,,,,,,,,,cost,58,107,silent,blue,1587.1414882000536,None,None,1587.1414882000536,None,,,,,,,,,,,,,,,,,,,,,,,,,,,,,,97NA,001,2023_Sep_07_0939,ExactRep-v3-final,2021.2.3,59.88475784262094,
,,,,,,,,107,0,107,0,,,,,,,,,,,,,,,,,,,,,,,,,,,,,,,,,,,,,,,,,,,,,,,,,,,,,1591.64369669999,None,,,,,,,,,,,,,,,,,,,,,,,,,,,,,,,,,,,flag,41,108,silent,blue,1589.6430814000778,None,None,1589.6430814000778,None,,,,,,,,,,,,,,,,,,,,,,,,,,,,,,97NA,001,2023_Sep_07_0939,ExactRep-v3-final,2021.2.3,59.88475784262094,
,,,,,,,,108,0,108,0,,,,,,,,,,,,,,,,,,,,,,,,,,,,,,,,,,,,,,,,,,,,,,,,,,,,,1594.1463484999258,None,,,,,,,,,,,,,,,,,,,,,,,,,,,,,,,,,,,weapon,42,109,silent,blue,1592.1466562999412,None,None,1592.1466562999412,None,,,,,,,,,,,,,,,,,,,,,,,,,,,,,,97NA,001,2023_Sep_07_0939,ExactRep-v3-final,2021.2.3,59.88475784262094,
,,,,,,,,109,0,109,0,,,,,,,,,,,,,,,,,,,,,,,,,,,,,,,,,,,,,,,,,,,,,,,,,,,,,1596.6654246000107,None,,,,,,,,,,,,,,,,,,,,,,,,,,,,,,,,,,,truth,102,110,aloud,red,1594.651600399986,None,None,1594.651600399986,None,,,,,,,,,,,,,,,,,,,,,,,,,,,,,,97NA,001,2023_Sep_07_0939,ExactRep-v3-final,2021.2.3,59.88475784262094,
,,,,,,,,110,0,110,0,,,,,,,,,,,,,,,,,,,,,,,,,,,,,,,,,,,,,,,,,,,,,,,,,,,,,1599.1846952999476,None,,,,,,,,,,,,,,,,,,,,,,,,,,,,,,,,,,,excuse,75,111,silent,blue,1597.1715236001182,None,None,1597.1715236001182,None,,,,,,,,,,,,,,,,,,,,,,,,,,,,,,97NA,001,2023_Sep_07_0939,ExactRep-v3-final,2021.2.3,59.88475784262094,
,,,,,,,,111,0,111,0,,,,,,,,,,,,,,,,,,,,,,,,,,,,,,,,,,,,,,,,,,,,,,,,,,,,,1601.6871829000302,None,,,,,,,,,,,,,,,,,,,,,,,,,,,,,,,,,,,earth,40,112,silent,blue,1599.6872392001096,None,None,1599.6872392001096,None,,,,,,,,,,,,,,,,,,,,,,,,,,,,,,97NA,001,2023_Sep_07_0939,ExactRep-v3-final,2021.2.3,59.88475784262094,
,,,,,,,,112,0,112,0,,,,,,,,,,,,,,,,,,,,,,,,,,,,,,,,,,,,,,,,,,,,,,,,,,,,,1604.18937440007,None,,,,,,,,,,,,,,,,,,,,,,,,,,,,,,,,,,,dust,83,113,aloud,red,1602.190189700108,None,None,1602.190189700108,None,,,,,,,,,,,,,,,,,,,,,,,,,,,,,,97NA,001,2023_Sep_07_0939,ExactRep-v3-final,2021.2.3,59.88475784262094,
,,,,,,,,113,0,113,0,,,,,,,,,,,,,,,,,,,,,,,,,,,,,,,,,,,,,,,,,,,,,,,,,,,,,1606.7089591999538,None,,,,,,,,,,,,,,,,,,,,,,,,,,,,,,,,,,,hotel,93,114,aloud,red,1604.6947818999179,None,None,1604.6947818999179,None,,,,,,,,,,,,,,,,,,,,,,,,,,,,,,97NA,001,2023_Sep_07_0939,ExactRep-v3-final,2021.2.3,59.88475784262094,
,,,,,,,,114,0,114,0,,,,,,,,,,,,,,,,,,,,,,,,,,,,,,,,,,,,,,,,,,,,,,,,,,,,,1609.2113940999843,None,,,,,,,,,,,,,,,,,,,,,,,,,,,,,,,,,,,time,91,115,aloud,red,1607.2121824000496,None,None,1607.2121824000496,None,,,,,,,,,,,,,,,,,,,,,,,,,,,,,,97NA,001,2023_Sep_07_0939,ExactRep-v3-final,2021.2.3,59.88475784262094,
,,,,,,,,115,0,115,0,,,,,,,,,,,,,,,,,,,,,,,,,,,,,,,,,,,,,,,,,,,,,,,,,,,,,1611.7302502000239,None,,,,,,,,,,,,,,,,,,,,,,,,,,,,,,,,,,,doctor,104,116,aloud,red,1609.7164384999778,None,None,1609.7164384999778,None,,,,,,,,,,,,,,,,,,,,,,,,,,,,,,97NA,001,2023_Sep_07_0939,ExactRep-v3-final,2021.2.3,59.88475784262094,
,,,,,,,,116,0,116,0,,,,,,,,,,,,,,,,,,,,,,,,,,,,,,,,,,,,,,,,,,,,,,,,,,,,,1614.2497604000382,None,,,,,,,,,,,,,,,,,,,,,,,,,,,,,,,,,,,tree,37,117,sing,white,1612.2409129999578,None,None,1612.2409129999578,None,,,,,,,,,,,,,,,,,,,,,,,,,,,,,,97NA,001,2023_Sep_07_0939,ExactRep-v3-final,2021.2.3,59.88475784262094,
,,,,,,,,117,0,117,0,,,,,,,,,,,,,,,,,,,,,,,,,,,,,,,,,,,,,,,,,,,,,,,,,,,,,1616.7687905000057,None,,,,,,,,,,,,,,,,,,,,,,,,,,,,,,,,,,,flower,72,118,silent,blue,1614.7540249000303,None,None,1614.7540249000303,None,,,,,,,,,,,,,,,,,,,,,,,,,,,,,,97NA,001,2023_Sep_07_0939,ExactRep-v3-final,2021.2.3,59.88475784262094,
,,,,,,,,118,0,118,0,,,,,,,,,,,,,,,,,,,,,,,,,,,,,,,,,,,,,,,,,,,,,,,,,,,,,1619.271132200025,None,,,,,,,,,,,,,,,,,,,,,,,,,,,,,,,,,,,seat,49,119,silent,blue,1617.2696108999662,None,None,1617.2696108999662,None,,,,,,,,,,,,,,,,,,,,,,,,,,,,,,97NA,001,2023_Sep_07_0939,ExactRep-v3-final,2021.2.3,59.88475784262094,
,,,,,,,,119,0,119,0,,,,,,,,,,,,,,,,,,,,,,,,,,,,,,,,,,,,,,,,,,,,,,,,,,,,,1621.7904340999667,None,,,,,,,,,,,,,,,,,,,,,,,,,,,,,,,,,,,health,116,120,aloud,red,1619.7757268999703,None,None,1619.7757268999703,None,,,,,,,,,,,,,,,,,,,,,,,,,,,,,,97NA,001,2023_Sep_07_0939,ExactRep-v3-final,2021.2.3,59.88475784262094,
,,,,,,,,,,,,,,,,,,,,,,,,,,,,,,,,,,,,,,,,,,,,,,,,,,,,,,,,,,,,,,,,,,,,,,,,,,,,,,,,,,,,,,,,,,,,,,,,,,,,,,,,,,,,,,1622.290945300134,None,space,0.22106269979849458,1632.268809299916,None,,,,,,,,,,,,,,,,,,,,,,,,97NA,001,2023_Sep_07_0939,ExactRep-v3-final,2021.2.3,59.88475784262094,
,,,,,,,,,,,,,,,,,,,,,,,,,,,,,,,,,,,,,,,,,,,,,,,,,,,,,,,,,,,,,,,,,,,,,,,,,,,,,,,,,,,,,,,,,,,,,,,,,,,,,,,,,,,,,,,,,,,,1632.5193608999252,None,space,38.21806950005703,1642.4956046999432,None,,,,,,,,,,,,,,,,,,97NA,001,2023_Sep_07_0939,ExactRep-v3-final,2021.2.3,59.88475784262094,
,,,,,,,,,,,,0,0,0,0,,,,,,,,,,,,,,,,,,,,,,,,,,,,,,,,,,,,,,,,,,,,,,,,,1685.1719816999976,None,,,,,,,,,,,,,,,,,,,,,,,,,,,,,,,,,,,,,,,,,,,,,,,,,,,,,,,,,circle,142,1,silent,new,yellow,1681.2464062999934,None,n,1681.2464062999934,None,"['n', 'return']","[2.3788936999626458, 3.8908659999724478]",1681.2464062999934,None,,,97NA,001,2023_Sep_07_0939,ExactRep-v3-final,2021.2.3,59.88475784262094,
,,,,,,,,,,,,1,0,1,0,,,,,,,,,,,,,,,,,,,,,,,,,,,,,,,,,,,,,,,,,,,,,,,,,1687.6245665000752,None,,,,,,,,,,,,,,,,,,,,,,,,,,,,,,,,,,,,,,,,,,,,,,,,,,,,,,,,,mercy,163,2,sing,new,yellow,1685.6818311999086,None,n,1685.6818311999086,None,"['n', 'return']","[1.3680112999863923, 1.9035950999241322]",1685.6818311999086,None,,,97NA,001,2023_Sep_07_0939,ExactRep-v3-final,2021.2.3,59.88475784262094,
,,,,,,,,,,,,2,0,2,0,,,,,,,,,,,,,,,,,,,,,,,,,,,,,,,,,,,,,,,,,,,,,,,,,1692.1293866999913,None,,,,,,,,,,,,,,,,,,,,,,,,,,,,,,,,,,,,,,,,,,,,,,,,,,,,,,,,,officer,5,3,sing,old,yellow,1688.1453617000952,None,n,1688.1453617000952,None,"['n', 'return']","[3.528003300074488, 3.936143800150603]",1688.1453617000952,None,,,97NA,001,2023_Sep_07_0939,ExactRep-v3-final,2021.2.3,59.88475784262094,
,,,,,,,,,,,,3,0,3,0,,,,,,,,,,,,,,,,,,,,,,,,,,,,,,,,,,,,,,,,,,,,,,,,,1694.3948735999875,None,,,,,,,,,,,,,,,,,,,,,,,,,,,,,,,,,,,,,,,,,,,,,,,,,,,,,,,,,poet,18,4,sing,old,yellow,1692.64551390009,None,y,1692.64551390009,None,"['y', 'return']","[1.2838093999307603, 1.700359599897638]",1692.64551390009,None,,,97NA,001,2023_Sep_07_0939,ExactRep-v3-final,2021.2.3,59.88475784262094,
,,,,,,,,,,,,4,0,4,0,,,,,,,,,,,,,,,,,,,,,,,,,,,,,,,,,,,,,,,,,,,,,,,,,1696.683473299956,None,,,,,,,,,,,,,,,,,,,,,,,,,,,,,,,,,,,,,,,,,,,,,,,,,,,,,,,,,duty,113,5,aloud,old,yellow,1694.9060659001116,None,y,1694.9060659001116,None,"['y', 'return']","[1.2794544999487698, 1.735429499996826]",1694.9060659001116,None,,,97NA,001,2023_Sep_07_0939,ExactRep-v3-final,2021.2.3,59.88475784262094,
,,,,,,,,,,,,5,0,5,0,,,,,,,,,,,,,,,,,,,,,,,,,,,,,,,,,,,,,,,,,,,,,,,,,1698.6192360999994,None,,,,,,,,,,,,,,,,,,,,,,,,,,,,,,,,,,,,,,,,,,,,,,,,,,,,,,,,,troops,239,6,sing,new,yellow,1697.2005620999262,None,n,1697.2005620999262,None,"['n', 'return']","[0.9929722000379115, 1.376858999952674]",1697.2005620999262,None,,,97NA,001,2023_Sep_07_0939,ExactRep-v3-final,2021.2.3,59.88475784262094,
,,,,,,,,,,,,6,0,6,0,,,,,,,,,,,,,,,,,,,,,,,,,,,,,,,,,,,,,,,,,,,,,,,,,1700.6205877000466,None,,,,,,,,,,,,,,,,,,,,,,,,,,,,,,,,,,,,,,,,,,,,,,,,,,,,,,,,,iron,88,7,aloud,old,yellow,1699.1346521000378,None,y,1699.1346521000378,None,"['y', 'return']","[1.0747881999704987, 1.450985400006175]",1699.1346521000378,None,,,97NA,001,2023_Sep_07_0939,ExactRep-v3-final,2021.2.3,59.88475784262094,
,,,,,,,,,,,,7,0,7,0,,,,,,,,,,,,,,,,,,,,,,,,,,,,,,,,,,,,,,,,,,,,,,,,,1702.8552977000363,None,,,,,,,,,,,,,,,,,,,,,,,,,,,,,,,,,,,,,,,,,,,,,,,,,,,,,,,,,master,66,8,silent,old,yellow,1701.128440800123,None,n,1701.128440800123,None,"['n', 'return']","[1.313008800148964, 1.689021100057289]",1701.128440800123,None,,,97NA,001,2023_Sep_07_0939,ExactRep-v3-final,2021.2.3,59.88475784262094,
,,,,,,,,,,,,8,0,8,0,,,,,,,,,,,,,,,,,,,,,,,,,,,,,,,,,,,,,,,,,,,,,,,,,1704.9584703999572,None,,,,,,,,,,,,,,,,,,,,,,,,,,,,,,,,,,,,,,,,,,,,,,,,,,,,,,,,,heaven,154,9,silent,new,yellow,1703.3573261001147,None,n,1703.3573261001147,None,"['n', 'return']","[1.2041762000881135, 1.5560401000548154]",1703.3573261001147,None,,,97NA,001,2023_Sep_07_0939,ExactRep-v3-final,2021.2.3,59.88475784262094,
,,,,,,,,,,,,9,0,9,0,,,,,,,,,,,,,,,,,,,,,,,,,,,,,,,,,,,,,,,,,,,,,,,,,1706.977184999967,None,,,,,,,,,,,,,,,,,,,,,,,,,,,,,,,,,,,,,,,,,,,,,,,,,,,,,,,,,fact,92,10,aloud,old,yellow,1705.483506300021,None,y,1705.483506300021,None,"['y', 'return']","[1.0218734999652952, 1.4539898000657558]",1705.483506300021,None,,,97NA,001,2023_Sep_07_0939,ExactRep-v3-final,2021.2.3,59.88475784262094,
,,,,,,,,,,,,10,0,10,0,,,,,,,,,,,,,,,,,,,,,,,,,,,,,,,,,,,,,,,,,,,,,,,,,1708.9960231001023,None,,,,,,,,,,,,,,,,,,,,,,,,,,,,,,,,,,,,,,,,,,,,,,,,,,,,,,,,,money,181,11,sing,new,yellow,1707.4931171999779,None,y,1707.4931171999779,None,"['y', 'return']","[1.1084227000828832, 1.468275099992752]",1707.4931171999779,None,,,97NA,001,2023_Sep_07_0939,ExactRep-v3-final,2021.2.3,59.88475784262094,
,,,,,,,,,,,,11,0,11,0,,,,,,,,,,,,,,,,,,,,,,,,,,,,,,,,,,,,,,,,,,,,,,,,,1710.8976251001004,None,,,,,,,,,,,,,,,,,,,,,,,,,,,,,,,,,,,,,,,,,,,,,,,,,,,,,,,,,animal,235,12,sing,new,yellow,1709.5215376999695,None,n,1709.5215376999695,None,"['n', 'return']","[0.9998554000630975, 1.3277948999311775]",1709.5215376999695,None,,,97NA,001,2023_Sep_07_0939,ExactRep-v3-final,2021.2.3,59.88475784262094,
,,,,,,,,,,,,12,0,12,0,,,,,,,,,,,,,,,,,,,,,,,,,,,,,,,,,,,,,,,,,,,,,,,,,1713.149747400079,None,,,,,,,,,,,,,,,,,,,,,,,,,,,,,,,,,,,,,,,,,,,,,,,,,,,,,,,,,slave,237,13,sing,new,yellow,1711.4256581999362,None,n,1711.4256581999362,None,"['n', 'return']","[1.3517535999417305, 1.6797996000386775]",1711.4256581999362,None,,,97NA,001,2023_Sep_07_0939,ExactRep-v3-final,2021.2.3,59.88475784262094,
,,,,,,,,,,,,13,0,13,0,,,,,,,,,,,,,,,,,,,,,,,,,,,,,,,,,,,,,,,,,,,,,,,,,1715.101413999917,None,,,,,,,,,,,,,,,,,,,,,,,,,,,,,,,,,,,,,,,,,,,,,,,,,,,,,,,,,table,16,14,sing,old,yellow,1713.6792123001069,None,y,1713.6792123001069,None,"['y', 'return']","[0.9703291000332683, 1.3861483000218868]",1713.6792123001069,None,,,97NA,001,2023_Sep_07_0939,ExactRep-v3-final,2021.2.3,59.88475784262094,
,,,,,,,,,,,,14,0,14,0,,,,,,,,,,,,,,,,,,,,,,,,,,,,,,,,,,,,,,,,,,,,,,,,,1716.987165800063,None,,,,,,,,,,,,,,,,,,,,,,,,,,,,,,,,,,,,,,,,,,,,,,,,,,,,,,,,,freedom,118,15,aloud,old,yellow,1715.602864400018,None,y,1715.602864400018,None,"['y', 'return']","[0.9664721998851746, 1.3346354998648167]",1715.602864400018,None,,,97NA,001,2023_Sep_07_0939,ExactRep-v3-final,2021.2.3,59.88475784262094,
,,,,,,,,,,,,15,0,15,0,,,,,,,,,,,,,,,,,,,,,,,,,,,,,,,,,,,,,,,,,,,,,,,,,1718.8557456000708,None,,,,,,,,,,,,,,,,,,,,,,,,,,,,,,,,,,,,,,,,,,,,,,,,,,,,,,,,,window,67,16,silent,old,yellow,1717.512679199921,None,y,1717.512679199921,None,"['y', 'return']","[0.9367682000156492, 1.304655299987644]",1717.512679199921,None,,,97NA,001,2023_Sep_07_0939,ExactRep-v3-final,2021.2.3,59.88475784262094,
,,,,,,,,,,,,16,0,16,0,,,,,,,,,,,,,,,,,,,,,,,,,,,,,,,,,,,,,,,,,,,,,,,,,1722.0923011000268,None,,,,,,,,,,,,,,,,,,,,,,,,,,,,,,,,,,,,,,,,,,,,,,,,,,,,,,,,,fire,50,17,silent,old,yellow,1719.380392299965,None,y,1719.380392299965,None,"['y', 'return']","[2.324967599939555, 2.6771327999886125]",1719.380392299965,None,,,97NA,001,2023_Sep_07_0939,ExactRep-v3-final,2021.2.3,59.88475784262094,
,,,,,,,,,,,,17,0,17,0,,,,,,,,,,,,,,,,,,,,,,,,,,,,,,,,,,,,,,,,,,,,,,,,,1723.9956044000573,None,,,,,,,,,,,,,,,,,,,,,,,,,,,,,,,,,,,,,,,,,,,,,,,,,,,,,,,,,fortune,186,18,aloud,new,yellow,1722.605787300039,None,n,1722.605787300039,None,"['n', 'return']","[0.9956506998278201, 1.3476584998425096]",1722.605787300039,None,,,97NA,001,2023_Sep_07_0939,ExactRep-v3-final,2021.2.3,59.88475784262094,
,,,,,,,,,,,,18,0,18,0,,,,,,,,,,,,,,,,,,,,,,,,,,,,,,,,,,,,,,,,,,,,,,,,,1727.8144799999427,None,,,,,,,,,,,,,,,,,,,,,,,,,,,,,,,,,,,,,,,,,,,,,,,,,,,,,,,,,shoes,78,19,silent,old,yellow,1724.522439399967,None,n,1724.522439399967,None,"['n', 'return']","[2.8389405999332666, 3.246937699848786]",1724.522439399967,None,,,97NA,001,2023_Sep_07_0939,ExactRep-v3-final,2021.2.3,59.88475784262094,
,,,,,,,,,,,,19,0,19,0,,,,,,,,,,,,,,,,,,,,,,,,,,,,,,,,,,,,,,,,,,,,,,,,,1729.7503903000616,None,,,,,,,,,,,,,,,,,,,,,,,,,,,,,,,,,,,,,,,,,,,,,,,,,,,,,,,,,grief,158,20,silent,new,yellow,1728.3224454000592,None,n,1728.3224454000592,None,"['n', 'return']","[0.998933799797669, 1.382908099796623]",1728.3224454000592,None,,,97NA,001,2023_Sep_07_0939,ExactRep-v3-final,2021.2.3,59.88475784262094,
,,,,,,,,,,,,20,0,20,0,,,,,,,,,,,,,,,,,,,,,,,,,,,,,,,,,,,,,,,,,,,,,,,,,1731.9675400000997,None,,,,,,,,,,,,,,,,,,,,,,,,,,,,,,,,,,,,,,,,,,,,,,,,,,,,,,,,,child,192,21,aloud,new,yellow,1730.2719119000249,None,y,1730.2719119000249,None,"['y', 'return']","[1.2733926998917013, 1.6494964000303298]",1730.2719119000249,None,,,97NA,001,2023_Sep_07_0939,ExactRep-v3-final,2021.2.3,59.88475784262094,
,,,,,,,,,,,,21,0,21,0,,,,,,,,,,,,,,,,,,,,,,,,,,,,,,,,,,,,,,,,,,,,,,,,,1733.987541400129,None,,,,,,,,,,,,,,,,,,,,,,,,,,,,,,,,,,,,,,,,,,,,,,,,,,,,,,,,,event,98,22,aloud,old,yellow,1732.4716096001212,None,y,1732.4716096001212,None,"['y', 'return']","[1.1218150001950562, 1.4817735000979155]",1732.4716096001212,None,,,97NA,001,2023_Sep_07_0939,ExactRep-v3-final,2021.2.3,59.88475784262094,
,,,,,,,,,,,,22,0,22,0,,,,,,,,,,,,,,,,,,,,,,,,,,,,,,,,,,,,,,,,,,,,,,,,,1736.6894986999687,None,,,,,,,,,,,,,,,,,,,,,,,,,,,,,,,,,,,,,,,,,,,,,,,,,,,,,,,,,board,216,23,aloud,new,yellow,1734.50533620012,None,n,1734.50533620012,None,"['n', 'return']","[1.7840474999975413, 2.1440850000362843]",1734.50533620012,None,,,97NA,001,2023_Sep_07_0939,ExactRep-v3-final,2021.2.3,59.88475784262094,
,,,,,,,,,,,,23,0,23,0,,,,,,,,,,,,,,,,,,,,,,,,,,,,,,,,,,,,,,,,,,,,,,,,,1738.7418319999706,None,,,,,,,,,,,,,,,,,,,,,,,,,,,,,,,,,,,,,,,,,,,,,,,,,,,,,,,,,woman,35,24,sing,old,yellow,1737.1978879000526,None,y,1737.1978879000526,None,"['y', 'return']","[1.1237151001114398, 1.5078642000444233]",1737.1978879000526,None,,,97NA,001,2023_Sep_07_0939,ExactRep-v3-final,2021.2.3,59.88475784262094,
,,,,,,,,,,,,24,0,24,0,,,,,,,,,,,,,,,,,,,,,,,,,,,,,,,,,,,,,,,,,,,,,,,,,1742.2108811000362,None,,,,,,,,,,,,,,,,,,,,,,,,,,,,,,,,,,,,,,,,,,,,,,,,,,,,,,,,,ticket,217,25,sing,new,yellow,1739.24922899995,None,n,1739.24922899995,None,"['n', 'return']","[2.544189300155267, 2.9201531000435352]",1739.24922899995,None,,,97NA,001,2023_Sep_07_0939,ExactRep-v3-final,2021.2.3,59.88475784262094,
,,,,,,,,,,,,25,0,25,0,,,,,,,,,,,,,,,,,,,,,,,,,,,,,,,,,,,,,,,,,,,,,,,,,1744.281079800101,None,,,,,,,,,,,,,,,,,,,,,,,,,,,,,,,,,,,,,,,,,,,,,,,,,,,,,,,,,chance,24,26,sing,old,yellow,1742.7274058000185,None,y,1742.7274058000185,None,"['y', 'return']","[1.1619617000687867, 1.506042799912393]",1742.7274058000185,None,,,97NA,001,2023_Sep_07_0939,ExactRep-v3-final,2021.2.3,59.88475784262094,
,,,,,,,,,,,,26,0,26,0,,,,,,,,,,,,,,,,,,,,,,,,,,,,,,,,,,,,,,,,,,,,,,,,,1746.1551771999802,None,,,,,,,,,,,,,,,,,,,,,,,,,,,,,,,,,,,,,,,,,,,,,,,,,,,,,,,,,vision,137,27,silent,new,yellow,1744.8134757999796,None,n,1744.8134757999796,None,"['n', 'return']","[0.9559545998927206, 1.2998981999699026]",1744.8134757999796,None,,,97NA,001,2023_Sep_07_0939,ExactRep-v3-final,2021.2.3,59.88475784262094,
,,,,,,,,,,,,27,0,27,0,,,,,,,,,,,,,,,,,,,,,,,,,,,,,,,,,,,,,,,,,,,,,,,,,1749.034457599977,None,,,,,,,,,,,,,,,,,,,,,,,,,,,,,,,,,,,,,,,,,,,,,,,,,,,,,,,,,spirit,138,28,silent,new,yellow,1746.6864010000136,None,y,1746.6864010000136,None,"['y', 'return']","[1.955131399910897, 2.3070145999081433]",1746.6864010000136,None,,,97NA,001,2023_Sep_07_0939,ExactRep-v3-final,2021.2.3,59.88475784262094,
,,,,,,,,,,,,28,0,28,0,,,,,,,,,,,,,,,,,,,,,,,,,,,,,,,,,,,,,,,,,,,,,,,,,1750.771052800119,None,,,,,,,,,,,,,,,,,,,,,,,,,,,,,,,,,,,,,,,,,,,,,,,,,,,,,,,,,breast,238,29,aloud,new,yellow,1749.5414209999144,None,n,1749.5414209999144,None,"['n', 'return']","[0.8603060999885201, 1.1880771000869572]",1749.5414209999144,None,,,97NA,001,2023_Sep_07_0939,ExactRep-v3-final,2021.2.3,59.88475784262094,
,,,,,,,,,,,,29,0,29,0,,,,,,,,,,,,,,,,,,,,,,,,,,,,,,,,,,,,,,,,,,,,,,,,,1754.1574389999732,None,,,,,,,,,,,,,,,,,,,,,,,,,,,,,,,,,,,,,,,,,,,,,,,,,,,,,,,,,letter,139,30,silent,new,yellow,1751.281659899978,None,n,1751.281659899978,None,"['n', 'return']","[2.519782399991527, 2.839713199995458]",1751.281659899978,None,,,97NA,001,2023_Sep_07_0939,ExactRep-v3-final,2021.2.3,59.88475784262094,
,,,,,,,,,,,,30,0,30,0,,,,,,,,,,,,,,,,,,,,,,,,,,,,,,,,,,,,,,,,,,,,,,,,,1756.109322000062,None,,,,,,,,,,,,,,,,,,,,,,,,,,,,,,,,,,,,,,,,,,,,,,,,,,,,,,,,,shame,149,31,silent,new,yellow,1754.682897400111,None,n,1754.682897400111,None,"['n', 'return']","[1.0384882998187095, 1.3824950999114662]",1754.682897400111,None,,,97NA,001,2023_Sep_07_0939,ExactRep-v3-final,2021.2.3,59.88475784262094,
,,,,,,,,,,,,31,0,31,0,,,,,,,,,,,,,,,,,,,,,,,,,,,,,,,,,,,,,,,,,,,,,,,,,1758.8791306999046,None,,,,,,,,,,,,,,,,,,,,,,,,,,,,,,,,,,,,,,,,,,,,,,,,,,,,,,,,,murder,208,32,aloud,new,yellow,1756.6172394999303,None,n,1756.6172394999303,None,"['n', 'return']","[1.544164399849251, 2.2244951999746263]",1756.6172394999303,None,,,97NA,001,2023_Sep_07_0939,ExactRep-v3-final,2021.2.3,59.88475784262094,
,,,,,,,,,,,,32,0,32,0,,,,,,,,,,,,,,,,,,,,,,,,,,,,,,,,,,,,,,,,,,,,,,,,,1760.664180800086,None,,,,,,,,,,,,,,,,,,,,,,,,,,,,,,,,,,,,,,,,,,,,,,,,,,,,,,,,,advice,214,33,aloud,new,yellow,1759.3959598999936,None,n,1759.3959598999936,None,"['n', 'return']","[0.9174224000889808, 1.2294825999997556]",1759.3959598999936,None,,,97NA,001,2023_Sep_07_0939,ExactRep-v3-final,2021.2.3,59.88475784262094,
,,,,,,,,,,,,33,0,33,0,,,,,,,,,,,,,,,,,,,,,,,,,,,,,,,,,,,,,,,,,,,,,,,,,1762.5161427001003,None,,,,,,,,,,,,,,,,,,,,,,,,,,,,,,,,,,,,,,,,,,,,,,,,,,,,,,,,,book,225,34,sing,new,yellow,1761.1792312001344,None,n,1761.1792312001344,None,"['n', 'return']","[0.9503303000237793, 1.2941284000407904]",1761.1792312001344,None,,,97NA,001,2023_Sep_07_0939,ExactRep-v3-final,2021.2.3,59.88475784262094,
,,,,,,,,,,,,34,0,34,0,,,,,,,,,,,,,,,,,,,,,,,,,,,,,,,,,,,,,,,,,,,,,,,,,1764.4512370999437,None,,,,,,,,,,,,,,,,,,,,,,,,,,,,,,,,,,,,,,,,,,,,,,,,,,,,,,,,,star,224,35,aloud,new,yellow,1763.0320765001234,None,n,1763.0320765001234,None,"['n', 'return']","[0.9692424999084324, 1.3694404000416398]",1763.0320765001234,None,,,97NA,001,2023_Sep_07_0939,ExactRep-v3-final,2021.2.3,59.88475784262094,
,,,,,,,,,,,,35,0,35,0,,,,,,,,,,,,,,,,,,,,,,,,,,,,,,,,,,,,,,,,,,,,,,,,,1766.470374800032,None,,,,,,,,,,,,,,,,,,,,,,,,,,,,,,,,,,,,,,,,,,,,,,,,,,,,,,,,,bottle,156,36,silent,new,yellow,1764.96817560005,None,n,1764.96817560005,None,"['n', 'return']","[1.0412858999334276, 1.4652437998447567]",1764.96817560005,None,,,97NA,001,2023_Sep_07_0939,ExactRep-v3-final,2021.2.3,59.88475784262094,
,,,,,,,,,,,,36,0,36,0,,,,,,,,,,,,,,,,,,,,,,,,,,,,,,,,,,,,,,,,,,,,,,,,,1769.022173000034,None,,,,,,,,,,,,,,,,,,,,,,,,,,,,,,,,,,,,,,,,,,,,,,,,,,,,,,,,,flower,72,37,silent,old,yellow,1766.994921500096,None,y,1766.994921500096,None,"['y', 'return']","[1.614494699984789, 1.9907114000525326]",1766.994921500096,None,,,97NA,001,2023_Sep_07_0939,ExactRep-v3-final,2021.2.3,59.88475784262094,
,,,,,,,,,,,,37,0,37,0,,,,,,,,,,,,,,,,,,,,,,,,,,,,,,,,,,,,,,,,,,,,,,,,,1770.8910463999491,None,,,,,,,,,,,,,,,,,,,,,,,,,,,,,,,,,,,,,,,,,,,,,,,,,,,,,,,,,moral,188,38,aloud,new,yellow,1769.5334218000062,None,n,1769.5334218000062,None,"['n', 'return']","[0.963972199941054, 1.3159906000364572]",1769.5334218000062,None,,,97NA,001,2023_Sep_07_0939,ExactRep-v3-final,2021.2.3,59.88475784262094,
,,,,,,,,,,,,38,0,38,0,,,,,,,,,,,,,,,,,,,,,,,,,,,,,,,,,,,,,,,,,,,,,,,,,1773.6771361001302,None,,,,,,,,,,,,,,,,,,,,,,,,,,,,,,,,,,,,,,,,,,,,,,,,,,,,,,,,,thought,196,39,aloud,new,yellow,1771.4083368000574,None,y,1771.4083368000574,None,"['y', 'return']","[1.8089995000045747, 2.225069400155917]",1771.4083368000574,None,,,97NA,001,2023_Sep_07_0939,ExactRep-v3-final,2021.2.3,59.88475784262094,
,,,,,,,,,,,,39,0,39,0,,,,,,,,,,,,,,,,,,,,,,,,,,,,,,,,,,,,,,,,,,,,,,,,,1775.6455775001086,None,,,,,,,,,,,,,,,,,,,,,,,,,,,,,,,,,,,,,,,,,,,,,,,,,,,,,,,,,string,25,40,sing,old,yellow,1774.1942094000988,None,y,1774.1942094000988,None,"['y', 'return']","[1.0312119000591338, 1.4071235000155866]",1774.1942094000988,None,,,97NA,001,2023_Sep_07_0939,ExactRep-v3-final,2021.2.3,59.88475784262094,
,,,,,,,,,,,,40,0,40,0,,,,,,,,,,,,,,,,,,,,,,,,,,,,,,,,,,,,,,,,,,,,,,,,,1777.564028599998,None,,,,,,,,,,,,,,,,,,,,,,,,,,,,,,,,,,,,,,,,,,,,,,,,,,,,,,,,,horse,182,41,aloud,new,yellow,1776.1462938000914,None,n,1776.1462938000914,None,"['n', 'return']","[1.015347700100392, 1.3751426001545042]",1776.1462938000914,None,,,97NA,001,2023_Sep_07_0939,ExactRep-v3-final,2021.2.3,59.88475784262094,
,,,,,,,,,,,,41,0,41,0,,,,,,,,,,,,,,,,,,,,,,,,,,,,,,,,,,,,,,,,,,,,,,,,,1779.4661743999459,None,,,,,,,,,,,,,,,,,,,,,,,,,,,,,,,,,,,,,,,,,,,,,,,,,,,,,,,,,sugar,22,42,sing,old,yellow,1778.0659066999797,None,y,1778.0659066999797,None,"['y', 'return']","[1.0075611001811922, 1.3595620000269264]",1778.0659066999797,None,,,97NA,001,2023_Sep_07_0939,ExactRep-v3-final,2021.2.3,59.88475784262094,
,,,,,,,,,,,,42,0,42,0,,,,,,,,,,,,,,,,,,,,,,,,,,,,,,,,,,,,,,,,,,,,,,,,,1782.6024563000537,None,,,,,,,,,,,,,,,,,,,,,,,,,,,,,,,,,,,,,,,,,,,,,,,,,,,,,,,,,car,233,43,sing,new,yellow,1779.9836790000554,None,y,1779.9836790000554,None,"['y', 'return']","[2.1456832999829203, 2.569687900133431]",1779.9836790000554,None,,,97NA,001,2023_Sep_07_0939,ExactRep-v3-final,2021.2.3,59.88475784262094,
,,,,,,,,,,,,43,0,43,0,,,,,,,,,,,,,,,,,,,,,,,,,,,,,,,,,,,,,,,,,,,,,,,,,1784.4543920999859,None,,,,,,,,,,,,,,,,,,,,,,,,,,,,,,,,,,,,,,,,,,,,,,,,,,,,,,,,,machine,122,44,silent,new,yellow,1783.1107294999529,None,n,1783.1107294999529,None,"['n', 'return']","[0.9386372999288142, 1.2985892998985946]",1783.1107294999529,None,,,97NA,001,2023_Sep_07_0939,ExactRep-v3-final,2021.2.3,59.88475784262094,
,,,,,,,,,,,,44,0,44,0,,,,,,,,,,,,,,,,,,,,,,,,,,,,,,,,,,,,,,,,,,,,,,,,,1786.3896015000064,None,,,,,,,,,,,,,,,,,,,,,,,,,,,,,,,,,,,,,,,,,,,,,,,,,,,,,,,,,clock,227,45,sing,new,yellow,1784.9630410999525,None,n,1784.9630410999525,None,"['n', 'return']","[1.0463322999421507, 1.390443000011146]",1784.9630410999525,None,,,97NA,001,2023_Sep_07_0939,ExactRep-v3-final,2021.2.3,59.88475784262094,
,,,,,,,,,,,,45,0,45,0,,,,,,,,,,,,,,,,,,,,,,,,,,,,,,,,,,,,,,,,,,,,,,,,,1788.3751648000907,None,,,,,,,,,,,,,,,,,,,,,,,,,,,,,,,,,,,,,,,,,,,,,,,,,,,,,,,,,soul,28,46,sing,old,yellow,1786.9071764999535,None,y,1786.9071764999535,None,"['y', 'return']","[1.0702241000253707, 1.4221302999649197]",1786.9071764999535,None,,,97NA,001,2023_Sep_07_0939,ExactRep-v3-final,2021.2.3,59.88475784262094,
,,,,,,,,,,,,46,0,46,0,,,,,,,,,,,,,,,,,,,,,,,,,,,,,,,,,,,,,,,,,,,,,,,,,1790.3436247000936,None,,,,,,,,,,,,,,,,,,,,,,,,,,,,,,,,,,,,,,,,,,,,,,,,,,,,,,,,,safety,61,47,silent,old,yellow,1788.892364700092,None,y,1788.892364700092,None,"['y', 'return']","[1.0689956999849528, 1.4049617999698967]",1788.892364700092,None,,,97NA,001,2023_Sep_07_0939,ExactRep-v3-final,2021.2.3,59.88475784262094,
,,,,,,,,,,,,47,0,47,0,,,,,,,,,,,,,,,,,,,,,,,,,,,,,,,,,,,,,,,,,,,,,,,,,1792.5961758000776,None,,,,,,,,,,,,,,,,,,,,,,,,,,,,,,,,,,,,,,,,,,,,,,,,,,,,,,,,,effort,13,48,sing,old,yellow,1790.8611280000769,None,y,1790.8611280000769,None,"['y', 'return']","[1.3002252001315355, 1.69234269997105]",1790.8611280000769,None,,,97NA,001,2023_Sep_07_0939,ExactRep-v3-final,2021.2.3,59.88475784262094,
,,,,,,,,,,,,48,0,48,0,,,,,,,,,,,,,,,,,,,,,,,,,,,,,,,,,,,,,,,,,,,,,,,,,1795.532006100053,None,,,,,,,,,,,,,,,,,,,,,,,,,,,,,,,,,,,,,,,,,,,,,,,,,,,,,,,,,hide,32,49,sing,old,yellow,1793.11718140007,None,n,1793.11718140007,None,"['n', 'return']","[2.0447772999759763, 2.3722779999952763]",1793.11718140007,None,,,97NA,001,2023_Sep_07_0939,ExactRep-v3-final,2021.2.3,59.88475784262094,
,,,,,,,,,,,,49,0,49,0,,,,,,,,,,,,,,,,,,,,,,,,,,,,,,,,,,,,,,,,,,,,,,,,,1797.2670477000065,None,,,,,,,,,,,,,,,,,,,,,,,,,,,,,,,,,,,,,,,,,,,,,,,,,,,,,,,,,coast,193,50,sing,new,yellow,1796.0326229999773,None,n,1796.0326229999773,None,"['n', 'return']","[0.8490936001762748, 1.2006572000682354]",1796.0326229999773,None,,,97NA,001,2023_Sep_07_0939,ExactRep-v3-final,2021.2.3,59.88475784262094,
,,,,,,,,,,,,50,0,50,0,,,,,,,,,,,,,,,,,,,,,,,,,,,,,,,,,,,,,,,,,,,,,,,,,1799.1191185000353,None,,,,,,,,,,,,,,,,,,,,,,,,,,,,,,,,,,,,,,,,,,,,,,,,,,,,,,,,,prayer,194,51,aloud,new,yellow,1797.773650499992,None,n,1797.773650499992,None,"['n', 'return']","[0.971802500076592, 1.2996953001711518]",1797.773650499992,None,,,97NA,001,2023_Sep_07_0939,ExactRep-v3-final,2021.2.3,59.88475784262094,
,,,,,,,,,,,,51,0,51,0,,,,,,,,,,,,,,,,,,,,,,,,,,,,,,,,,,,,,,,,,,,,,,,,,1801.7896002999041,None,,,,,,,,,,,,,,,,,,,,,,,,,,,,,,,,,,,,,,,,,,,,,,,,,,,,,,,,,quality,117,52,aloud,old,yellow,1799.6364734000526,None,n,1799.6364734000526,None,"['n', 'return']","[1.8047821000218391, 2.1169235999695957]",1799.6364734000526,None,,,97NA,001,2023_Sep_07_0939,ExactRep-v3-final,2021.2.3,59.88475784262094,
,,,,,,,,,,,,52,0,52,0,,,,,,,,,,,,,,,,,,,,,,,,,,,,,,,,,,,,,,,,,,,,,,,,,1804.024325300008,None,,,,,,,,,,,,,,,,,,,,,,,,,,,,,,,,,,,,,,,,,,,,,,,,,,,,,,,,,length,80,53,aloud,old,yellow,1802.3265748999547,None,y,1802.3265748999547,None,"['y', 'return']","[1.2188029999379069, 1.6508567999117076]",1802.3265748999547,None,,,97NA,001,2023_Sep_07_0939,ExactRep-v3-final,2021.2.3,59.88475784262094,
,,,,,,,,,,,,53,0,53,0,,,,,,,,,,,,,,,,,,,,,,,,,,,,,,,,,,,,,,,,,,,,,,,,,1806.009032000089,None,,,,,,,,,,,,,,,,,,,,,,,,,,,,,,,,,,,,,,,,,,,,,,,,,,,,,,,,,cotton,7,54,sing,old,yellow,1804.5399100999348,None,y,1804.5399100999348,None,"['y', 'return']","[1.0774471999611706, 1.4215070998761803]",1804.5399100999348,None,,,97NA,001,2023_Sep_07_0939,ExactRep-v3-final,2021.2.3,59.88475784262094,
,,,,,,,,,,,,54,0,54,0,,,,,,,,,,,,,,,,,,,,,,,,,,,,,,,,,,,,,,,,,,,,,,,,,1807.8111864000093,None,,,,,,,,,,,,,,,,,,,,,,,,,,,,,,,,,,,,,,,,,,,,,,,,,,,,,,,,,wheat,183,55,sing,new,yellow,1806.5128721999936,None,n,1806.5128721999936,None,"['n', 'return']","[0.9524203999899328, 1.2485649001318961]",1806.5128721999936,None,,,97NA,001,2023_Sep_07_0939,ExactRep-v3-final,2021.2.3,59.88475784262094,
,,,,,,,,,,,,55,0,55,0,,,,,,,,,,,,,,,,,,,,,,,,,,,,,,,,,,,,,,,,,,,,,,,,,1809.6463727999944,None,,,,,,,,,,,,,,,,,,,,,,,,,,,,,,,,,,,,,,,,,,,,,,,,,,,,,,,,,door,10,56,sing,old,yellow,1808.3168691999745,None,y,1808.3168691999745,None,"['y', 'return']","[0.9725662998389453, 1.2844316000118852]",1808.3168691999745,None,,,97NA,001,2023_Sep_07_0939,ExactRep-v3-final,2021.2.3,59.88475784262094,
,,,,,,,,,,,,56,0,56,0,,,,,,,,,,,,,,,,,,,,,,,,,,,,,,,,,,,,,,,,,,,,,,,,,1811.3482143001165,None,,,,,,,,,,,,,,,,,,,,,,,,,,,,,,,,,,,,,,,,,,,,,,,,,,,,,,,,,queen,168,57,aloud,new,yellow,1810.1559254000895,None,n,1810.1559254000895,None,"['n', 'return']","[0.8454092999454588, 1.1495135999284685]",1810.1559254000895,None,,,97NA,001,2023_Sep_07_0939,ExactRep-v3-final,2021.2.3,59.88475784262094,
,,,,,,,,,,,,57,0,57,0,,,,,,,,,,,,,,,,,,,,,,,,,,,,,,,,,,,,,,,,,,,,,,,,,1814.1014290999155,None,,,,,,,,,,,,,,,,,,,,,,,,,,,,,,,,,,,,,,,,,,,,,,,,,,,,,,,,,health,116,58,aloud,old,yellow,1811.8743034000508,None,y,1811.8743034000508,None,"['y', 'return']","[1.8790823998861015, 2.191188700031489]",1811.8743034000508,None,,,97NA,001,2023_Sep_07_0939,ExactRep-v3-final,2021.2.3,59.88475784262094,
,,,,,,,,,,,,58,0,58,0,,,,,,,,,,,,,,,,,,,,,,,,,,,,,,,,,,,,,,,,,,,,,,,,,1818.5716117001139,None,,,,,,,,,,,,,,,,,,,,,,,,,,,,,,,,,,,,,,,,,,,,,,,,,,,,,,,,,dollar,119,59,aloud,old,yellow,1814.6308432000224,None,y,1814.6308432000224,None,"['y', 'return']","[3.354687900049612, 3.898490099934861]",1814.6308432000224,None,,,97NA,001,2023_Sep_07_0939,ExactRep-v3-final,2021.2.3,59.88475784262094,
,,,,,,,,,,,,59,0,59,0,,,,,,,,,,,,,,,,,,,,,,,,,,,,,,,,,,,,,,,,,,,,,,,,,1820.2734942999668,None,,,,,,,,,,,,,,,,,,,,,,,,,,,,,,,,,,,,,,,,,,,,,,,,,,,,,,,,,city,191,60,sing,new,yellow,1819.0770332000684,None,n,1819.0770332000684,None,"['n', 'return']","[0.7883254999760538, 1.1564247000496835]",1819.0770332000684,None,,,97NA,001,2023_Sep_07_0939,ExactRep-v3-final,2021.2.3,59.88475784262094,
,,,,,,,,,,,,60,0,60,0,,,,,,,,,,,,,,,,,,,,,,,,,,,,,,,,,,,,,,,,,,,,,,,,,1822.2089816001244,None,,,,,,,,,,,,,,,,,,,,,,,,,,,,,,,,,,,,,,,,,,,,,,,,,,,,,,,,,body,212,61,aloud,new,yellow,1820.7910957999993,None,y,1820.7910957999993,None,"['y', 'return']","[0.9942534000147134, 1.370419300161302]",1820.7910957999993,None,,,97NA,001,2023_Sep_07_0939,ExactRep-v3-final,2021.2.3,59.88475784262094,
,,,,,,,,,,,,61,0,61,0,,,,,,,,,,,,,,,,,,,,,,,,,,,,,,,,,,,,,,,,,,,,,,,,,1825.3789071000647,None,,,,,,,,,,,,,,,,,,,,,,,,,,,,,,,,,,,,,,,,,,,,,,,,,,,,,,,,,wife,38,62,sing,old,yellow,1822.725717100082,None,y,1822.725717100082,None,"['y', 'return']","[2.203636300051585, 2.6196485001128167]",1822.725717100082,None,,,97NA,001,2023_Sep_07_0939,ExactRep-v3-final,2021.2.3,59.88475784262094,
,,,,,,,,,,,,62,0,62,0,,,,,,,,,,,,,,,,,,,,,,,,,,,,,,,,,,,,,,,,,,,,,,,,,1827.29626740003,None,,,,,,,,,,,,,,,,,,,,,,,,,,,,,,,,,,,,,,,,,,,,,,,,,,,,,,,,,history,166,63,aloud,new,yellow,1825.896258099936,None,n,1825.896258099936,None,"['n', 'return']","[0.9771030999254435, 1.361110399942845]",1825.896258099936,None,,,97NA,001,2023_Sep_07_0939,ExactRep-v3-final,2021.2.3,59.88475784262094,
,,,,,,,,,,,,63,0,63,0,,,,,,,,,,,,,,,,,,,,,,,,,,,,,,,,,,,,,,,,,,,,,,,,,1829.1982102999464,None,,,,,,,,,,,,,,,,,,,,,,,,,,,,,,,,,,,,,,,,,,,,,,,,,,,,,,,,,author,159,64,silent,new,yellow,1827.7980088000186,None,n,1827.7980088000186,None,"['n', 'return']","[0.9474080000072718, 1.363266299944371]",1827.7980088000186,None,,,97NA,001,2023_Sep_07_0939,ExactRep-v3-final,2021.2.3,59.88475784262094,
,,,,,,,,,,,,64,0,64,0,,,,,,,,,,,,,,,,,,,,,,,,,,,,,,,,,,,,,,,,,,,,,,,,,1831.0840867001098,None,,,,,,,,,,,,,,,,,,,,,,,,,,,,,,,,,,,,,,,,,,,,,,,,,,,,,,,,,rock,218,65,aloud,new,yellow,1829.7040715999901,None,n,1829.7040715999901,None,"['n', 'return']","[0.9615561000537127, 1.337322800187394]",1829.7040715999901,None,,,97NA,001,2023_Sep_07_0939,ExactRep-v3-final,2021.2.3,59.88475784262094,
,,,,,,,,,,,,65,0,65,0,,,,,,,,,,,,,,,,,,,,,,,,,,,,,,,,,,,,,,,,,,,,,,,,,1832.9861492000055,None,,,,,,,,,,,,,,,,,,,,,,,,,,,,,,,,,,,,,,,,,,,,,,,,,,,,,,,,,metal,210,66,aloud,new,yellow,1831.6149373999797,None,n,1831.6149373999797,None,"['n', 'return']","[1.0104535000864416, 1.3224412999115884]",1831.6149373999797,None,,,97NA,001,2023_Sep_07_0939,ExactRep-v3-final,2021.2.3,59.88475784262094,
,,,,,,,,,,,,66,0,66,0,,,,,,,,,,,,,,,,,,,,,,,,,,,,,,,,,,,,,,,,,,,,,,,,,1835.4550922999624,None,,,,,,,,,,,,,,,,,,,,,,,,,,,,,,,,,,,,,,,,,,,,,,,,,,,,,,,,,library,79,67,sing,old,yellow,1833.487378800055,None,y,1833.487378800055,None,"['y', 'return']","[1.5779604001436383, 1.9298946999479085]",1833.487378800055,None,,,97NA,001,2023_Sep_07_0939,ExactRep-v3-final,2021.2.3,59.88475784262094,
,,,,,,,,,,,,67,0,67,0,,,,,,,,,,,,,,,,,,,,,,,,,,,,,,,,,,,,,,,,,,,,,,,,,1837.2071561000776,None,,,,,,,,,,,,,,,,,,,,,,,,,,,,,,,,,,,,,,,,,,,,,,,,,,,,,,,,,lip,140,68,silent,new,yellow,1835.955969200004,None,n,1835.955969200004,None,"['n', 'return']","[0.8454034999012947, 1.2133935999590904]",1835.955969200004,None,,,97NA,001,2023_Sep_07_0939,ExactRep-v3-final,2021.2.3,59.88475784262094,
,,,,,,,,,,,,68,0,68,0,,,,,,,,,,,,,,,,,,,,,,,,,,,,,,,,,,,,,,,,,,,,,,,,,1839.625529400073,None,,,,,,,,,,,,,,,,,,,,,,,,,,,,,,,,,,,,,,,,,,,,,,,,,,,,,,,,,lake,172,69,aloud,new,yellow,1837.7234982000664,None,n,1837.7234982000664,None,"['n', 'return']","[1.5418965998105705, 1.861837700009346]",1837.7234982000664,None,,,97NA,001,2023_Sep_07_0939,ExactRep-v3-final,2021.2.3,59.88475784262094,
,,,,,,,,,,,,69,0,69,0,,,,,,,,,,,,,,,,,,,,,,,,,,,,,,,,,,,,,,,,,,,,,,,,,1841.6116245000158,None,,,,,,,,,,,,,,,,,,,,,,,,,,,,,,,,,,,,,,,,,,,,,,,,,,,,,,,,,bar,90,70,aloud,old,yellow,1840.1271560001187,None,y,1840.1271560001187,None,"['y', 'return']","[1.130402100039646, 1.4502141000702977]",1840.1271560001187,None,,,97NA,001,2023_Sep_07_0939,ExactRep-v3-final,2021.2.3,59.88475784262094,
,,,,,,,,,,,,70,0,70,0,,,,,,,,,,,,,,,,,,,,,,,,,,,,,,,,,,,,,,,,,,,,,,,,,1843.7971429000609,None,,,,,,,,,,,,,,,,,,,,,,,,,,,,,,,,,,,,,,,,,,,,,,,,,,,,,,,,,market,195,71,sing,new,yellow,1842.1185733999591,None,n,1842.1185733999591,None,"['n', 'return']","[1.3628512998111546, 1.6430480999406427]",1842.1185733999591,None,,,97NA,001,2023_Sep_07_0939,ExactRep-v3-final,2021.2.3,59.88475784262094,
,,,,,,,,,,,,71,0,71,0,,,,,,,,,,,,,,,,,,,,,,,,,,,,,,,,,,,,,,,,,,,,,,,,,1845.78245040006,None,,,,,,,,,,,,,,,,,,,,,,,,,,,,,,,,,,,,,,,,,,,,,,,,,,,,,,,,,apple,147,72,silent,new,yellow,1844.3048902999144,None,y,1844.3048902999144,None,"['y', 'return']","[1.112485900055617, 1.4406792998779565]",1844.3048902999144,None,,,97NA,001,2023_Sep_07_0939,ExactRep-v3-final,2021.2.3,59.88475784262094,
,,,,,,,,,,,,72,0,72,0,,,,,,,,,,,,,,,,,,,,,,,,,,,,,,,,,,,,,,,,,,,,,,,,,1848.7684917999431,None,,,,,,,,,,,,,,,,,,,,,,,,,,,,,,,,,,,,,,,,,,,,,,,,,,,,,,,,,month,53,73,silent,old,yellow,1846.2995118999388,None,n,1846.2995118999388,None,"['n', 'return']","[2.101843899814412, 2.4299232999328524]",1846.2995118999388,None,,,97NA,001,2023_Sep_07_0939,ExactRep-v3-final,2021.2.3,59.88475784262094,
,,,,,,,,,,,,73,0,73,0,,,,,,,,,,,,,,,,,,,,,,,,,,,,,,,,,,,,,,,,,,,,,,,,,1850.5868647999596,None,,,,,,,,,,,,,,,,,,,,,,,,,,,,,,,,,,,,,,,,,,,,,,,,,,,,,,,,,time,91,74,aloud,old,yellow,1849.2743232999928,None,y,1849.2743232999928,None,"['y', 'return']","[0.9670056998729706, 1.2789835999719799]",1849.2743232999928,None,,,97NA,001,2023_Sep_07_0939,ExactRep-v3-final,2021.2.3,59.88475784262094,
,,,,,,,,,,,,74,0,74,0,,,,,,,,,,,,,,,,,,,,,,,,,,,,,,,,,,,,,,,,,,,,,,,,,1852.4383231000975,None,,,,,,,,,,,,,,,,,,,,,,,,,,,,,,,,,,,,,,,,,,,,,,,,,,,,,,,,,storm,29,75,sing,old,yellow,1851.0875872001052,None,y,1851.0875872001052,None,"['y', 'return']","[0.9697454001288861, 1.3057003000285476]",1851.0875872001052,None,,,97NA,001,2023_Sep_07_0939,ExactRep-v3-final,2021.2.3,59.88475784262094,
,,,,,,,,,,,,75,0,75,0,,,,,,,,,,,,,,,,,,,,,,,,,,,,,,,,,,,,,,,,,,,,,,,,,1854.274353099987,None,,,,,,,,,,,,,,,,,,,,,,,,,,,,,,,,,,,,,,,,,,,,,,,,,,,,,,,,,blood,87,76,aloud,old,yellow,1852.945389600005,None,y,1852.945389600005,None,"['y', 'return']","[0.9439278000500053, 1.2880509998649359]",1852.945389600005,None,,,97NA,001,2023_Sep_07_0939,ExactRep-v3-final,2021.2.3,59.88475784262094,
,,,,,,,,,,,,76,0,76,0,,,,,,,,,,,,,,,,,,,,,,,,,,,,,,,,,,,,,,,,,,,,,,,,,1856.0762424001005,None,,,,,,,,,,,,,,,,,,,,,,,,,,,,,,,,,,,,,,,,,,,,,,,,,,,,,,,,,ability,4,77,sing,old,yellow,1854.7902752000373,None,y,1854.7902752000373,None,"['y', 'return']","[0.9070603000000119, 1.2431074001360685]",1854.7902752000373,None,,,97NA,001,2023_Sep_07_0939,ExactRep-v3-final,2021.2.3,59.88475784262094,
,,,,,,,,,,,,77,0,77,0,,,,,,,,,,,,,,,,,,,,,,,,,,,,,,,,,,,,,,,,,,,,,,,,,1857.7782861001324,None,,,,,,,,,,,,,,,,,,,,,,,,,,,,,,,,,,,,,,,,,,,,,,,,,,,,,,,,,hour,215,78,sing,new,yellow,1856.6013380000368,None,y,1856.6013380000368,None,"['y', 'return']","[0.8401752000208944, 1.1359949000179768]",1856.6013380000368,None,,,97NA,001,2023_Sep_07_0939,ExactRep-v3-final,2021.2.3,59.88475784262094,
,,,,,,,,,,,,78,0,78,0,,,,,,,,,,,,,,,,,,,,,,,,,,,,,,,,,,,,,,,,,,,,,,,,,1859.9629518000875,None,,,,,,,,,,,,,,,,,,,,,,,,,,,,,,,,,,,,,,,,,,,,,,,,,,,,,,,,,potato,68,79,silent,old,yellow,1858.3058623999823,None,y,1858.3058623999823,None,"['y', 'return']","[1.3516357999760658, 1.623529199976474]",1858.3058623999823,None,,,97NA,001,2023_Sep_07_0939,ExactRep-v3-final,2021.2.3,59.88475784262094,
,,,,,,,,,,,,79,0,79,0,,,,,,,,,,,,,,,,,,,,,,,,,,,,,,,,,,,,,,,,,,,,,,,,,1861.7544293000828,None,,,,,,,,,,,,,,,,,,,,,,,,,,,,,,,,,,,,,,,,,,,,,,,,,,,,,,,,,avenue,52,80,silent,old,yellow,1860.4640486999415,None,n,1860.4640486999415,None,"['n', 'return']","[0.8413629001006484, 1.2411919999867678]",1860.4640486999415,None,,,97NA,001,2023_Sep_07_0939,ExactRep-v3-final,2021.2.3,59.88475784262094,
,,,,,,,,,,,,80,0,80,0,,,,,,,,,,,,,,,,,,,,,,,,,,,,,,,,,,,,,,,,,,,,,,,,,1864.2013161000796,None,,,,,,,,,,,,,,,,,,,,,,,,,,,,,,,,,,,,,,,,,,,,,,,,,,,,,,,,,street,56,81,silent,old,yellow,1862.2658186999615,None,n,1862.2658186999615,None,"['n', 'return']","[1.5355175998993218, 1.8956227998714894]",1862.2658186999615,None,,,97NA,001,2023_Sep_07_0939,ExactRep-v3-final,2021.2.3,59.88475784262094,
,,,,,,,,,,,,81,0,81,0,,,,,,,,,,,,,,,,,,,,,,,,,,,,,,,,,,,,,,,,,,,,,,,,,1865.9860914999153,None,,,,,,,,,,,,,,,,,,,,,,,,,,,,,,,,,,,,,,,,,,,,,,,,,,,,,,,,,dream,31,82,sing,old,yellow,1864.7312322000507,None,y,1864.7312322000507,None,"['y', 'return']","[0.9260674000252038, 1.214183900039643]",1864.7312322000507,None,,,97NA,001,2023_Sep_07_0939,ExactRep-v3-final,2021.2.3,59.88475784262094,
,,,,,,,,,,,,82,0,82,0,,,,,,,,,,,,,,,,,,,,,,,,,,,,,,,,,,,,,,,,,,,,,,,,,1867.6540538999252,None,,,,,,,,,,,,,,,,,,,,,,,,,,,,,,,,,,,,,,,,,,,,,,,,,,,,,,,,,earth,40,83,silent,old,yellow,1866.508385800058,None,n,1866.508385800058,None,"['n', 'return']","[0.8049892999697477, 1.109211799921468]",1866.508385800058,None,,,97NA,001,2023_Sep_07_0939,ExactRep-v3-final,2021.2.3,59.88475784262094,
,,,,,,,,,,,,83,0,83,0,,,,,,,,,,,,,,,,,,,,,,,,,,,,,,,,,,,,,,,,,,,,,,,,,1869.70535319997,None,,,,,,,,,,,,,,,,,,,,,,,,,,,,,,,,,,,,,,,,,,,,,,,,,,,,,,,,,salary,82,84,aloud,old,yellow,1868.1554592999164,None,y,1868.1554592999164,None,"['y', 'return']","[1.1819265999365598, 1.5018596998415887]",1868.1554592999164,None,,,97NA,001,2023_Sep_07_0939,ExactRep-v3-final,2021.2.3,59.88475784262094,
,,,,,,,,,,,,84,0,84,0,,,,,,,,,,,,,,,,,,,,,,,,,,,,,,,,,,,,,,,,,,,,,,,,,1871.441290100105,None,,,,,,,,,,,,,,,,,,,,,,,,,,,,,,,,,,,,,,,,,,,,,,,,,,,,,,,,,owner,203,85,sing,new,yellow,1870.212653500028,None,n,1870.212653500028,None,"['n', 'return']","[0.8447718999814242, 1.1887662999797612]",1870.212653500028,None,,,97NA,001,2023_Sep_07_0939,ExactRep-v3-final,2021.2.3,59.88475784262094,
,,,,,,,,,,,,85,0,85,0,,,,,,,,,,,,,,,,,,,,,,,,,,,,,,,,,,,,,,,,,,,,,,,,,1873.22587319999,None,,,,,,,,,,,,,,,,,,,,,,,,,,,,,,,,,,,,,,,,,,,,,,,,,,,,,,,,,plant,1,86,sing,old,yellow,1871.9469008999877,None,y,1871.9469008999877,None,"['y', 'return']","[0.958691000007093, 1.2384474000427872]",1871.9469008999877,None,,,97NA,001,2023_Sep_07_0939,ExactRep-v3-final,2021.2.3,59.88475784262094,
,,,,,,,,,,,,86,0,86,0,,,,,,,,,,,,,,,,,,,,,,,,,,,,,,,,,,,,,,,,,,,,,,,,,1875.2283866000362,None,,,,,,,,,,,,,,,,,,,,,,,,,,,,,,,,,,,,,,,,,,,,,,,,,,,,,,,,,journal,164,87,aloud,new,yellow,1873.737553199986,None,n,1873.737553199986,None,"['n', 'return']","[1.1040775999426842, 1.4478873999323696]",1873.737553199986,None,,,97NA,001,2023_Sep_07_0939,ExactRep-v3-final,2021.2.3,59.88475784262094,
,,,,,,,,,,,,87,0,87,0,,,,,,,,,,,,,,,,,,,,,,,,,,,,,,,,,,,,,,,,,,,,,,,,,1877.0973227999639,None,,,,,,,,,,,,,,,,,,,,,,,,,,,,,,,,,,,,,,,,,,,,,,,,,,,,,,,,,cottage,155,88,silent,new,yellow,1875.7347840000875,None,n,1875.7347840000875,None,"['n', 'return']","[1.026801300002262, 1.3144725000020117]",1875.7347840000875,None,,,97NA,001,2023_Sep_07_0939,ExactRep-v3-final,2021.2.3,59.88475784262094,
,,,,,,,,,,,,88,0,88,0,,,,,,,,,,,,,,,,,,,,,,,,,,,,,,,,,,,,,,,,,,,,,,,,,1879.6158654999454,None,,,,,,,,,,,,,,,,,,,,,,,,,,,,,,,,,,,,,,,,,,,,,,,,,,,,,,,,,water,190,89,aloud,new,yellow,1877.6140022000764,None,n,1877.6140022000764,None,"['n', 'n', 'return']","[1.0594121001195163, 1.2995281999465078, 1.9634237999562174]",1877.6140022000764,None,,,97NA,001,2023_Sep_07_0939,ExactRep-v3-final,2021.2.3,59.88475784262094,
,,,,,,,,,,,,89,0,89,0,,,,,,,,,,,,,,,,,,,,,,,,,,,,,,,,,,,,,,,,,,,,,,,,,1881.517376499949,None,,,,,,,,,,,,,,,,,,,,,,,,,,,,,,,,,,,,,,,,,,,,,,,,,,,,,,,,,priest,231,90,sing,new,yellow,1880.1228467000183,None,n,1880.1228467000183,None,"['n', 'return']","[1.0705355999525636, 1.3588062000926584]",1880.1228467000183,None,,,97NA,001,2023_Sep_07_0939,ExactRep-v3-final,2021.2.3,59.88475784262094,
,,,,,,,,,,,,90,0,90,0,,,,,,,,,,,,,,,,,,,,,,,,,,,,,,,,,,,,,,,,,,,,,,,,,1883.6239453000017,None,,,,,,,,,,,,,,,,,,,,,,,,,,,,,,,,,,,,,,,,,,,,,,,,,,,,,,,,,beast,121,91,silent,new,yellow,1882.0257673999295,None,n,1882.0257673999295,None,"['n', 'return']","[1.1995868999511003, 1.5594866999890655]",1882.0257673999295,None,,,97NA,001,2023_Sep_07_0939,ExactRep-v3-final,2021.2.3,59.88475784262094,
,,,,,,,,,,,,91,0,91,0,,,,,,,,,,,,,,,,,,,,,,,,,,,,,,,,,,,,,,,,,,,,,,,,,1885.8877014999744,None,,,,,,,,,,,,,,,,,,,,,,,,,,,,,,,,,,,,,,,,,,,,,,,,,,,,,,,,,devil,43,92,silent,old,yellow,1884.1366922999732,None,y,1884.1366922999732,None,"['y', 'return']","[1.3686758000403643, 1.7048784999642521]",1884.1366922999732,None,,,97NA,001,2023_Sep_07_0939,ExactRep-v3-final,2021.2.3,59.88475784262094,
,,,,,,,,,,,,92,0,92,0,,,,,,,,,,,,,,,,,,,,,,,,,,,,,,,,,,,,,,,,,,,,,,,,,1887.8899232000113,None,,,,,,,,,,,,,,,,,,,,,,,,,,,,,,,,,,,,,,,,,,,,,,,,,,,,,,,,,deed,103,93,aloud,old,yellow,1886.394844800001,None,n,1886.394844800001,None,"['n', 'return']","[1.0544812001753598, 1.4544797001872212]",1886.394844800001,None,,,97NA,001,2023_Sep_07_0939,ExactRep-v3-final,2021.2.3,59.88475784262094,
,,,,,,,,,,,,93,0,93,0,,,,,,,,,,,,,,,,,,,,,,,,,,,,,,,,,,,,,,,,,,,,,,,,,1891.395300900098,None,,,,,,,,,,,,,,,,,,,,,,,,,,,,,,,,,,,,,,,,,,,,,,,,,,,,,,,,,shock,45,94,silent,old,yellow,1888.4007129000966,None,n,1888.4007129000966,None,"['n', 'return']","[2.6729788999073207, 2.9446932999417186]",1888.4007129000966,None,,,97NA,001,2023_Sep_07_0939,ExactRep-v3-final,2021.2.3,59.88475784262094,
,,,,,,,,,,,,94,0,94,0,,,,,,,,,,,,,,,,,,,,,,,,,,,,,,,,,,,,,,,,,,,,,,,,,1893.6955629999284,None,,,,,,,,,,,,,,,,,,,,,,,,,,,,,,,,,,,,,,,,,,,,,,,,,,,,,,,,,forest,120,95,silent,new,yellow,1891.9296888001263,None,y,1891.9296888001263,None,"['y', 'return']","[1.4317224000114948, 1.719677299959585]",1891.9296888001263,None,,,97NA,001,2023_Sep_07_0939,ExactRep-v3-final,2021.2.3,59.88475784262094,
,,,,,,,,,,,,95,0,95,0,,,,,,,,,,,,,,,,,,,,,,,,,,,,,,,,,,,,,,,,,,,,,,,,,1895.4313713000156,None,,,,,,,,,,,,,,,,,,,,,,,,,,,,,,,,,,,,,,,,,,,,,,,,,,,,,,,,,pride,100,96,aloud,old,yellow,1894.2052744999528,None,y,1894.2052744999528,None,"['y', 'return']","[0.9161727998871356, 1.1881082998588681]",1894.2052744999528,None,,,97NA,001,2023_Sep_07_0939,ExactRep-v3-final,2021.2.3,59.88475784262094,
,,,,,,,,,,,,96,0,96,0,,,,,,,,,,,,,,,,,,,,,,,,,,,,,,,,,,,,,,,,,,,,,,,,,1898.2345714000985,None,,,,,,,,,,,,,,,,,,,,,,,,,,,,,,,,,,,,,,,,,,,,,,,,,,,,,,,,,judge,133,97,silent,new,yellow,1895.9381288001314,None,y,1895.9381288001314,None,"['y', 'return']","[1.935176600003615, 2.263214100152254]",1895.9381288001314,None,,,97NA,001,2023_Sep_07_0939,ExactRep-v3-final,2021.2.3,59.88475784262094,
,,,,,,,,,,,,97,0,97,0,,,,,,,,,,,,,,,,,,,,,,,,,,,,,,,,,,,,,,,,,,,,,,,,,1900.4535096001346,None,,,,,,,,,,,,,,,,,,,,,,,,,,,,,,,,,,,,,,,,,,,,,,,,,,,,,,,,,air,69,98,silent,old,yellow,1898.7348873000592,None,y,1898.7348873000592,None,"['y', 'return']","[1.4184529001358896, 1.6744377999566495]",1898.7348873000592,None,,,97NA,001,2023_Sep_07_0939,ExactRep-v3-final,2021.2.3,59.88475784262094,
,,,,,,,,,,,,98,0,98,0,,,,,,,,,,,,,,,,,,,,,,,,,,,,,,,,,,,,,,,,,,,,,,,,,1902.121707299957,None,,,,,,,,,,,,,,,,,,,,,,,,,,,,,,,,,,,,,,,,,,,,,,,,,,,,,,,,,power,198,99,aloud,new,yellow,1900.9542916999198,None,n,1900.9542916999198,None,"['n', 'return']","[0.8310616000089794, 1.1190348998643458]",1900.9542916999198,None,,,97NA,001,2023_Sep_07_0939,ExactRep-v3-final,2021.2.3,59.88475784262094,
,,,,,,,,,,,,99,0,99,0,,,,,,,,,,,,,,,,,,,,,,,,,,,,,,,,,,,,,,,,,,,,,,,,,1903.9404007999692,None,,,,,,,,,,,,,,,,,,,,,,,,,,,,,,,,,,,,,,,,,,,,,,,,,,,,,,,,,colony,211,100,sing,new,yellow,1902.6225469000638,None,n,1902.6225469000638,None,"['n', 'return']","[0.9627471999265254, 1.282833700068295]",1902.6225469000638,None,,,97NA,001,2023_Sep_07_0939,ExactRep-v3-final,2021.2.3,59.88475784262094,
,,,,,,,,,,,,100,0,100,0,,,,,,,,,,,,,,,,,,,,,,,,,,,,,,,,,,,,,,,,,,,,,,,,,1905.7753107999451,None,,,,,,,,,,,,,,,,,,,,,,,,,,,,,,,,,,,,,,,,,,,,,,,,,,,,,,,,,amount,110,101,aloud,old,yellow,1904.4582658999134,None,n,1904.4582658999134,None,"['n', 'return']","[0.9751597000285983, 1.2790252000559121]",1904.4582658999134,None,,,97NA,001,2023_Sep_07_0939,ExactRep-v3-final,2021.2.3,59.88475784262094,
,,,,,,,,,,,,101,0,101,0,,,,,,,,,,,,,,,,,,,,,,,,,,,,,,,,,,,,,,,,,,,,,,,,,1908.0613692000043,None,,,,,,,,,,,,,,,,,,,,,,,,,,,,,,,,,,,,,,,,,,,,,,,,,,,,,,,,,anger,170,102,aloud,new,yellow,1906.2833700999618,None,n,1906.2833700999618,None,"['n', 'return']","[1.438095899997279, 1.7421626998111606]",1906.2833700999618,None,,,97NA,001,2023_Sep_07_0939,ExactRep-v3-final,2021.2.3,59.88475784262094,
,,,,,,,,,,,,102,0,102,0,,,,,,,,,,,,,,,,,,,,,,,,,,,,,,,,,,,,,,,,,,,,,,,,,1911.9314914001152,None,,,,,,,,,,,,,,,,,,,,,,,,,,,,,,,,,,,,,,,,,,,,,,,,,,,,,,,,,product,85,103,aloud,old,yellow,1908.5782423000783,None,y,1908.5782423000783,None,"['y', 'return']","[3.047068699961528, 3.31124519999139]",1908.5782423000783,None,,,97NA,001,2023_Sep_07_0939,ExactRep-v3-final,2021.2.3,59.88475784262094,
,,,,,,,,,,,,103,0,103,0,,,,,,,,,,,,,,,,,,,,,,,,,,,,,,,,,,,,,,,,,,,,,,,,,1913.733449100051,None,,,,,,,,,,,,,,,,,,,,,,,,,,,,,,,,,,,,,,,,,,,,,,,,,,,,,,,,,person,171,104,sing,new,yellow,1912.4428284000605,None,n,1912.4428284000605,None,"['n', 'return']","[0.9665606000926346, 1.2466423001606017]",1912.4428284000605,None,,,97NA,001,2023_Sep_07_0939,ExactRep-v3-final,2021.2.3,59.88475784262094,
,,,,,,,,,,,,104,0,104,0,,,,,,,,,,,,,,,,,,,,,,,,,,,,,,,,,,,,,,,,,,,,,,,,,1915.5017073000781,None,,,,,,,,,,,,,,,,,,,,,,,,,,,,,,,,,,,,,,,,,,,,,,,,,,,,,,,,,theory,34,105,sing,old,yellow,1914.2512419000268,None,y,1914.2512419000268,None,"['y', 'return']","[0.9420829000882804, 1.214126800186932]",1914.2512419000268,None,,,97NA,001,2023_Sep_07_0939,ExactRep-v3-final,2021.2.3,59.88475784262094,
,,,,,,,,,,,,105,0,105,0,,,,,,,,,,,,,,,,,,,,,,,,,,,,,,,,,,,,,,,,,,,,,,,,,1917.0372699999716,None,,,,,,,,,,,,,,,,,,,,,,,,,,,,,,,,,,,,,,,,,,,,,,,,,,,,,,,,,cat,111,106,aloud,old,yellow,1916.007011800073,None,y,1916.007011800073,None,"['y', 'return']","[0.7223074999637902, 0.9863897999748588]",1916.007011800073,None,,,97NA,001,2023_Sep_07_0939,ExactRep-v3-final,2021.2.3,59.88475784262094,
,,,,,,,,,,,,106,0,106,0,,,,,,,,,,,,,,,,,,,,,,,,,,,,,,,,,,,,,,,,,,,,,,,,,1918.8892709000502,None,,,,,,,,,,,,,,,,,,,,,,,,,,,,,,,,,,,,,,,,,,,,,,,,,,,,,,,,,teacher,74,107,silent,old,yellow,1917.553185600089,None,n,1917.553185600089,None,"['n', 'return']","[1.016548799816519, 1.2881703998427838]",1917.553185600089,None,,,97NA,001,2023_Sep_07_0939,ExactRep-v3-final,2021.2.3,59.88475784262094,
,,,,,,,,,,,,107,0,107,0,,,,,,,,,,,,,,,,,,,,,,,,,,,,,,,,,,,,,,,,,,,,,,,,,1920.8877073000185,None,,,,,,,,,,,,,,,,,,,,,,,,,,,,,,,,,,,,,,,,,,,,,,,,,,,,,,,,,world,135,108,silent,new,yellow,1919.4241885999218,None,n,1919.4241885999218,None,"['n', 'return']","[1.137040900066495, 1.4011277998797596]",1919.4241885999218,None,,,97NA,001,2023_Sep_07_0939,ExactRep-v3-final,2021.2.3,59.88475784262094,
,,,,,,,,,,,,108,0,108,0,,,,,,,,,,,,,,,,,,,,,,,,,,,,,,,,,,,,,,,,,,,,,,,,,1922.6926134000532,None,,,,,,,,,,,,,,,,,,,,,,,,,,,,,,,,,,,,,,,,,,,,,,,,,,,,,,,,,bird,95,109,aloud,old,yellow,1921.401519899955,None,y,1921.401519899955,None,"['y', 'return']","[0.9837878998368979, 1.24782619997859]",1921.401519899955,None,,,97NA,001,2023_Sep_07_0939,ExactRep-v3-final,2021.2.3,59.88475784262094,
,,,,,,,,,,,,109,0,109,0,,,,,,,,,,,,,,,,,,,,,,,,,,,,,,,,,,,,,,,,,,,,,,,,,1924.5611473999452,None,,,,,,,,,,,,,,,,,,,,,,,,,,,,,,,,,,,,,,,,,,,,,,,,,,,,,,,,,dawn,99,110,aloud,old,yellow,1923.20831310004,None,y,1923.20831310004,None,"['y', 'return']","[1.0171314000617713, 1.3050228001084179]",1923.20831310004,None,,,97NA,001,2023_Sep_07_0939,ExactRep-v3-final,2021.2.3,59.88475784262094,
,,,,,,,,,,,,110,0,110,0,,,,,,,,,,,,,,,,,,,,,,,,,,,,,,,,,,,,,,,,,,,,,,,,,1926.3127846000716,None,,,,,,,,,,,,,,,,,,,,,,,,,,,,,,,,,,,,,,,,,,,,,,,,,,,,,,,,,sea,131,111,silent,new,yellow,1925.0665480000898,None,n,1925.0665480000898,None,"['n', 'return']","[0.9027587999589741, 1.1987807999830693]",1925.0665480000898,None,,,97NA,001,2023_Sep_07_0939,ExactRep-v3-final,2021.2.3,59.88475784262094,
,,,,,,,,,,,,111,0,111,0,,,,,,,,,,,,,,,,,,,,,,,,,,,,,,,,,,,,,,,,,,,,,,,,,1928.4979972001165,None,,,,,,,,,,,,,,,,,,,,,,,,,,,,,,,,,,,,,,,,,,,,,,,,,,,,,,,,,lord,220,112,aloud,new,yellow,1926.8198822999839,None,y,1926.8198822999839,None,"['y', 'return']","[1.3894662000238895, 1.6374709999654442]",1926.8198822999839,None,,,97NA,001,2023_Sep_07_0939,ExactRep-v3-final,2021.2.3,59.88475784262094,
,,,,,,,,,,,,112,0,112,0,,,,,,,,,,,,,,,,,,,,,,,,,,,,,,,,,,,,,,,,,,,,,,,,,1930.1322377999313,None,,,,,,,,,,,,,,,,,,,,,,,,,,,,,,,,,,,,,,,,,,,,,,,,,,,,,,,,,hotel,93,113,aloud,old,yellow,1928.999102700036,None,y,1928.999102700036,None,"['y', 'return']","[0.8422354999929667, 1.0983949999790639]",1928.999102700036,None,,,97NA,001,2023_Sep_07_0939,ExactRep-v3-final,2021.2.3,59.88475784262094,
,,,,,,,,,,,,113,0,113,0,,,,,,,,,,,,,,,,,,,,,,,,,,,,,,,,,,,,,,,,,,,,,,,,,1931.935287399916,None,,,,,,,,,,,,,,,,,,,,,,,,,,,,,,,,,,,,,,,,,,,,,,,,,,,,,,,,,stone,174,114,aloud,new,yellow,1930.6410233001225,None,n,1930.6410233001225,None,"['n', 'return']","[0.9204114000312984, 1.2482481999322772]",1930.6410233001225,None,,,97NA,001,2023_Sep_07_0939,ExactRep-v3-final,2021.2.3,59.88475784262094,
,,,,,,,,,,,,114,0,114,0,,,,,,,,,,,,,,,,,,,,,,,,,,,,,,,,,,,,,,,,,,,,,,,,,1933.7038771999069,None,,,,,,,,,,,,,,,,,,,,,,,,,,,,,,,,,,,,,,,,,,,,,,,,,,,,,,,,,virtue,185,115,sing,new,yellow,1932.4469387000427,None,n,1932.4469387000427,None,"['n', 'return']","[0.9544651000760496, 1.2103253998793662]",1932.4469387000427,None,,,97NA,001,2023_Sep_07_0939,ExactRep-v3-final,2021.2.3,59.88475784262094,
,,,,,,,,,,,,115,0,115,0,,,,,,,,,,,,,,,,,,,,,,,,,,,,,,,,,,,,,,,,,,,,,,,,,1937.3571442000102,None,,,,,,,,,,,,,,,,,,,,,,,,,,,,,,,,,,,,,,,,,,,,,,,,,,,,,,,,,glory,145,116,silent,new,yellow,1934.2242874000221,None,n,1934.2242874000221,None,"['n', 'return']","[2.3371083000674844, 3.0891291999723762]",1934.2242874000221,None,,,97NA,001,2023_Sep_07_0939,ExactRep-v3-final,2021.2.3,59.88475784262094,
,,,,,,,,,,,,116,0,116,0,,,,,,,,,,,,,,,,,,,,,,,,,,,,,,,,,,,,,,,,,,,,,,,,,1939.7598874999676,None,,,,,,,,,,,,,,,,,,,,,,,,,,,,,,,,,,,,,,,,,,,,,,,,,,,,,,,,,paper,184,117,aloud,new,yellow,1937.8649822999723,None,n,1937.8649822999723,None,"['n', 'return']","[0.8084134999662638, 1.8562926999293268]",1937.8649822999723,None,,,97NA,001,2023_Sep_07_0939,ExactRep-v3-final,2021.2.3,59.88475784262094,
,,,,,,,,,,,,117,0,117,0,,,,,,,,,,,,,,,,,,,,,,,,,,,,,,,,,,,,,,,,,,,,,,,,,1941.6949694999494,None,,,,,,,,,,,,,,,,,,,,,,,,,,,,,,,,,,,,,,,,,,,,,,,,,,,,,,,,,tool,0,118,sing,old,yellow,1940.2760425999295,None,y,1940.2760425999295,None,"['y', 'return']","[1.0132812999654561, 1.3732457000296563]",1940.2760425999295,None,,,97NA,001,2023_Sep_07_0939,ExactRep-v3-final,2021.2.3,59.88475784262094,
,,,,,,,,,,,,118,0,118,0,,,,,,,,,,,,,,,,,,,,,,,,,,,,,,,,,,,,,,,,,,,,,,,,,1943.6633367000613,None,,,,,,,,,,,,,,,,,,,,,,,,,,,,,,,,,,,,,,,,,,,,,,,,,,,,,,,,,shadow,169,119,sing,new,yellow,1942.2200961001217,None,n,1942.2200961001217,None,"['n', 'return']","[1.1171845998615026, 1.4051727999467403]",1942.2200961001217,None,,,97NA,001,2023_Sep_07_0939,ExactRep-v3-final,2021.2.3,59.88475784262094,
,,,,,,,,,,,,119,0,119,0,,,,,,,,,,,,,,,,,,,,,,,,,,,,,,,,,,,,,,,,,,,,,,,,,1945.9989670000505,None,,,,,,,,,,,,,,,,,,,,,,,,,,,,,,,,,,,,,,,,,,,,,,,,,,,,,,,,,weapon,42,120,silent,old,yellow,1944.1640993000474,None,n,1944.1640993000474,None,"['n', 'return']","[1.5332206999883056, 1.7971143000759184]",1944.1640993000474,None,,,97NA,001,2023_Sep_07_0939,ExactRep-v3-final,2021.2.3,59.88475784262094,
,,,,,,,,,,,,120,0,120,0,,,,,,,,,,,,,,,,,,,,,,,,,,,,,,,,,,,,,,,,,,,,,,,,,1947.600999899907,None,,,,,,,,,,,,,,,,,,,,,,,,,,,,,,,,,,,,,,,,,,,,,,,,,,,,,,,,,fate,153,121,silent,new,yellow,1946.5161107000895,None,n,1946.5161107000895,None,"['n', 'return']","[0.789286799961701, 1.0452176998369396]",1946.5161107000895,None,,,97NA,001,2023_Sep_07_0939,ExactRep-v3-final,2021.2.3,59.88475784262094,
,,,,,,,,,,,,121,0,121,0,,,,,,,,,,,,,,,,,,,,,,,,,,,,,,,,,,,,,,,,,,,,,,,,,1949.5530373000074,None,,,,,,,,,,,,,,,,,,,,,,,,,,,,,,,,,,,,,,,,,,,,,,,,,,,,,,,,,soil,132,122,silent,new,yellow,1948.1169253999833,None,n,1948.1169253999833,None,"['n', 'return']","[1.0924018998630345, 1.388411299791187]",1948.1169253999833,None,,,97NA,001,2023_Sep_07_0939,ExactRep-v3-final,2021.2.3,59.88475784262094,
,,,,,,,,,,,,122,0,122,0,,,,,,,,,,,,,,,,,,,,,,,,,,,,,,,,,,,,,,,,,,,,,,,,,1951.504493500106,None,,,,,,,,,,,,,,,,,,,,,,,,,,,,,,,,,,,,,,,,,,,,,,,,,,,,,,,,,meat,57,123,silent,old,yellow,1950.0773263999727,None,y,1950.0773263999727,None,"['y', 'return']","[1.0759072001092136, 1.3799986999947578]",1950.0773263999727,None,,,97NA,001,2023_Sep_07_0939,ExactRep-v3-final,2021.2.3,59.88475784262094,
,,,,,,,,,,,,123,0,123,0,,,,,,,,,,,,,,,,,,,,,,,,,,,,,,,,,,,,,,,,,,,,,,,,,1953.9074494999368,None,,,,,,,,,,,,,,,,,,,,,,,,,,,,,,,,,,,,,,,,,,,,,,,,,,,,,,,,,custom,162,124,aloud,new,yellow,1952.0103861999232,None,n,1952.0103861999232,None,"['n', 'return']","[1.559334099991247, 1.8629763999488205]",1952.0103861999232,None,,,97NA,001,2023_Sep_07_0939,ExactRep-v3-final,2021.2.3,59.88475784262094,
,,,,,,,,,,,,124,0,124,0,,,,,,,,,,,,,,,,,,,,,,,,,,,,,,,,,,,,,,,,,,,,,,,,,1956.2262903999072,None,,,,,,,,,,,,,,,,,,,,,,,,,,,,,,,,,,,,,,,,,,,,,,,,,,,,,,,,,silence,73,125,silent,old,yellow,1954.4244500000495,None,n,1954.4244500000495,None,"['n', 'return']","[1.4888367999810725, 1.7609312999993563]",1954.4244500000495,None,,,97NA,001,2023_Sep_07_0939,ExactRep-v3-final,2021.2.3,59.88475784262094,
,,,,,,,,,,,,125,0,125,0,,,,,,,,,,,,,,,,,,,,,,,,,,,,,,,,,,,,,,,,,,,,,,,,,1972.0913156000897,None,,,,,,,,,,,,,,,,,,,,,,,,,,,,,,,,,,,,,,,,,,,,,,,,,,,,,,,,,disease,96,126,aloud,old,yellow,1956.7430362000596,None,y,1956.7430362000596,None,"['backspace', 'backspace', 'return', 'y', 'return']","[2.6743427999317646, 4.4662483998108655, 8.09039539983496, 15.002233600011095, 15.30633129994385]",1956.7430362000596,None,,,97NA,001,2023_Sep_07_0939,ExactRep-v3-final,2021.2.3,59.88475784262094,
,,,,,,,,,,,,126,0,126,0,,,,,,,,,,,,,,,,,,,,,,,,,,,,,,,,,,,,,,,,,,,,,,,,,1974.0610362000298,None,,,,,,,,,,,,,,,,,,,,,,,,,,,,,,,,,,,,,,,,,,,,,,,,,,,,,,,,,humour,12,127,sing,old,yellow,1972.5959216000047,None,y,1972.5959216000047,None,"['y', 'return']","[1.109415699960664, 1.4214067000430077]",1972.5959216000047,None,,,97NA,001,2023_Sep_07_0939,ExactRep-v3-final,2021.2.3,59.88475784262094,
,,,,,,,,,,,,127,0,127,0,,,,,,,,,,,,,,,,,,,,,,,,,,,,,,,,,,,,,,,,,,,,,,,,,1976.4963635001332,None,,,,,,,,,,,,,,,,,,,,,,,,,,,,,,,,,,,,,,,,,,,,,,,,,,,,,,,,,palace,223,128,sing,new,yellow,1974.5903990000952,None,n,1974.5903990000952,None,"['n', 'return']","[1.2269593998789787, 1.8669526998419315]",1974.5903990000952,None,,,97NA,001,2023_Sep_07_0939,ExactRep-v3-final,2021.2.3,59.88475784262094,
,,,,,,,,,,,,128,0,128,0,,,,,,,,,,,,,,,,,,,,,,,,,,,,,,,,,,,,,,,,,,,,,,,,,1980.1665101000108,None,,,,,,,,,,,,,,,,,,,,,,,,,,,,,,,,,,,,,,,,,,,,,,,,,,,,,,,,,temple,94,129,aloud,old,yellow,1977.0038735000417,None,y,1977.0038735000417,None,"['y', 'return']","[1.2776457001455128, 3.1257162999827415]",1977.0038735000417,None,,,97NA,001,2023_Sep_07_0939,ExactRep-v3-final,2021.2.3,59.88475784262094,
