trials_fam.thisRepN,trials_fam.thisTrialN,trials_fam.thisN,trials_fam.thisIndex,trials_prc.thisRepN,trials_prc.thisTrialN,trials_prc.thisN,trials_prc.thisIndex,StudyLoop.thisRepN,StudyLoop.thisTrialN,StudyLoop.thisN,StudyLoop.thisIndex,TestLoop.thisRepN,TestLoop.thisTrialN,TestLoop.thisN,TestLoop.thisIndex,text_colortest.started,text_colortest.stopped,key_colortest.keys,key_colortest.rt,key_colortest.started,key_colortest.stopped,textCondition.started,textCondition.stopped,keyCondition.keys,keyCondition.rt,keyCondition.started,keyCondition.stopped,Condition_between,Condition_counterbal,keyWelcome.keys,keyWelcome.rt,keyWelcome.started,keyWelcome.stopped,welcome_a.started,welcome_a.stopped,welcome_b.started,welcome_b.stopped,welcome_c.started,welcome_c.stopped,welcome_d.started,welcome_d.stopped,welcome_e.started,welcome_e.stopped,welcome_f.started,welcome_f.stopped,key_resp_fam_inst.keys,key_resp_fam_inst.rt,key_resp_fam_inst.started,key_resp_fam_inst.stopped,fam_a.started,fam_a.stopped,fam_b.started,fam_b.stopped,fam_c.started,fam_c.stopped,fam_d.started,fam_d.stopped,fam_e.started,fam_e.stopped,fam_f.started,fam_f.stopped,text_famil.started,text_famil.stopped,textBlank500.started,textBlank500.stopped,key_resp_prc_inst.keys,key_resp_prc_inst.rt,key_resp_prc_inst.started,key_resp_prc_inst.stopped,prac_a.started,prac_a.stopped,prac_b.started,prac_b.stopped,prac_c.started,prac_c.stopped,prac_d.started,prac_d.stopped,prac_e.started,prac_e.stopped,prac_f.started,prac_f.stopped,text_prc_trial.started,text_prc_trial.stopped,key_resp_study_inst.keys,key_resp_study_inst.rt,key_resp_study_inst.started,key_resp_study_inst.stopped,crit_a.started,crit_a.stopped,crit_b.started,crit_b.stopped,crit_c.started,crit_c.stopped,crit_d.started,crit_d.stopped,crit_e.started,crit_e.stopped,crit_f.started,crit_f.stopped,study_word,study_num,study_order,study_type,word_color,textStudy.started,textStudy.stopped,keyStudy.keys,keyStudy.started,keyStudy.stopped,post_study.started,post_study.stopped,key_resp_post_study.keys,key_resp_post_study.rt,key_resp_post_study.started,key_resp_post_study.stopped,test_inst.started,test_inst.stopped,key_resp_test_inst.keys,key_resp_test_inst.rt,key_resp_test_inst.started,key_resp_test_inst.stopped,test_word,test_num,test_order,test_condition,old_new_test,word_color_test,textConf.started,textConf.stopped,Participant Response,textInput.started,textInput.stopped,keyResp.keys,keyResp.rt,keyResp.started,keyResp.stopped,textEnd.started,textEnd.stopped,participant,session,date,expName,psychopyVersion,frameRate,
,,,,,,,,,,,,,,,,22.347555099986494,None,n,0.8747513999696821,22.347555099986494,None,,,,,,,,,,,,,,,,,,,,,,,,,,,,,,,,,,,,,,,,,,,,,,,,,,,,,,,,,,,,,,,,,,,,,,,,,,,,,,,,,,,,,,,,,,,,,,,,,,,,,,,,,,,,,,,,,,,,,,98NB,001,2023_Sep_08_1248,ExactRep-v3-final,2021.2.3,59.92319044165627,
,,,,,,,,,,,,,,,,,,,,,,23.24075400014408,None,b,1.9496722999028862,23.24075400014408,None,,,,,,,,,,,,,,,,,,,,,,,,,,,,,,,,,,,,,,,,,,,,,,,,,,,,,,,,,,,,,,,,,,,,,,,,,,,,,,,,,,,,,,,,,,,,,,,,,,,,,,,,,,,,,,,,98NB,001,2023_Sep_08_1248,ExactRep-v3-final,2021.2.3,59.92319044165627,
,,,,,,,,,,,,,,,,,,,,,,,,,,,,whitefoils,b,space,677.1284839001019,35.42999790003523,None,,,,,,,,,,,,,,,,,,,,,,,,,,,,,,,,,,,,,,,,,,,,,,,,,,,,,,,,,,,,,,,,,,,,,,,,,,,,,,,,,,,,,,,,,,,,,,,,,,,,,,,,,,98NB,001,2023_Sep_08_1248,ExactRep-v3-final,2021.2.3,59.92319044165627,
,,,,,,,,,,,,,,,,,,,,,,,,,,,,,,,,,,25.460190100129694,None,25.460190100129694,None,25.460190100129694,None,25.460190100129694,None,25.460190100129694,None,25.460190100129694,None,space,33.98358440003358,722.7584943000693,None,,,,,,,,,,,,,,,,,,,,,,,,,,,,,,,,,,,,,,,,,,,,,,,,,,,,,,,,,,,,,,,,,,,,,,,,,,,,,,,,,,,,,,,,,,98NB,001,2023_Sep_08_1248,ExactRep-v3-final,2021.2.3,59.92319044165627,
0,0,0,0,,,,,,,,,,,,,,,,,,,,,,,,,,,,,,,,,,,,,,,,,,,,,,,712.7657683000434,None,712.7657683000434,None,712.7657683000434,None,712.7657683000434,None,712.7657683000434,None,712.7657683000434,None,756.8359256000258,None,758.8249707000796,None,,,,,,,,,,,,,,,,,,,,,,,,,,,,,,,,,,,,,,,,,,,,,,,,,,,,,,,,,,,,,,,,,,,,,,,,,,98NB,001,2023_Sep_08_1248,ExactRep-v3-final,2021.2.3,59.92319044165627,
1,0,1,0,,,,,,,,,,,,,,,,,,,,,,,,,,,,,,,,,,,,,,,,,,,,,,,,,,,,,,,,,,,759.3310090000741,None,761.3442846001126,None,,,,,,,,,,,,,,,,,,,,,,,,,,,,,,,,,,,,,,,,,,,,,,,,,,,,,,,,,,,,,,,,,,,,,,,,,,98NB,001,2023_Sep_08_1248,ExactRep-v3-final,2021.2.3,59.92319044165627,
2,0,2,0,,,,,,,,,,,,,,,,,,,,,,,,,,,,,,,,,,,,,,,,,,,,,,,,,,,,,,,,,,,761.8470791999716,None,763.8465042000171,None,,,,,,,,,,,,,,,,,,,,,,,,,,,,,,,,,,,,,,,,,,,,,,,,,,,,,,,,,,,,,,,,,,,,,,,,,,98NB,001,2023_Sep_08_1248,ExactRep-v3-final,2021.2.3,59.92319044165627,
3,0,3,0,,,,,,,,,,,,,,,,,,,,,,,,,,,,,,,,,,,,,,,,,,,,,,,,,,,,,,,,,,,764.35141140013,None,766.3668045999948,None,,,,,,,,,,,,,,,,,,,,,,,,,,,,,,,,,,,,,,,,,,,,,,,,,,,,,,,,,,,,,,,,,,,,,,,,,,98NB,001,2023_Sep_08_1248,ExactRep-v3-final,2021.2.3,59.92319044165627,
4,0,4,0,,,,,,,,,,,,,,,,,,,,,,,,,,,,,,,,,,,,,,,,,,,,,,,,,,,,,,,,,,,766.8811072001699,None,768.8849994000047,None,,,,,,,,,,,,,,,,,,,,,,,,,,,,,,,,,,,,,,,,,,,,,,,,,,,,,,,,,,,,,,,,,,,,,,,,,,98NB,001,2023_Sep_08_1248,ExactRep-v3-final,2021.2.3,59.92319044165627,
5,0,5,0,,,,,,,,,,,,,,,,,,,,,,,,,,,,,,,,,,,,,,,,,,,,,,,,,,,,,,,,,,,769.385245700134,None,771.387376600178,None,,,,,,,,,,,,,,,,,,,,,,,,,,,,,,,,,,,,,,,,,,,,,,,,,,,,,,,,,,,,,,,,,,,,,,,,,,98NB,001,2023_Sep_08_1248,ExactRep-v3-final,2021.2.3,59.92319044165627,
6,0,6,0,,,,,,,,,,,,,,,,,,,,,,,,,,,,,,,,,,,,,,,,,,,,,,,,,,,,,,,,,,,771.8900393999647,None,773.8901879000477,None,,,,,,,,,,,,,,,,,,,,,,,,,,,,,,,,,,,,,,,,,,,,,,,,,,,,,,,,,,,,,,,,,,,,,,,,,,98NB,001,2023_Sep_08_1248,ExactRep-v3-final,2021.2.3,59.92319044165627,
7,0,7,0,,,,,,,,,,,,,,,,,,,,,,,,,,,,,,,,,,,,,,,,,,,,,,,,,,,,,,,,,,,774.3944898000918,None,776.409325200133,None,,,,,,,,,,,,,,,,,,,,,,,,,,,,,,,,,,,,,,,,,,,,,,,,,,,,,,,,,,,,,,,,,,,,,,,,,,98NB,001,2023_Sep_08_1248,ExactRep-v3-final,2021.2.3,59.92319044165627,
8,0,8,0,,,,,,,,,,,,,,,,,,,,,,,,,,,,,,,,,,,,,,,,,,,,,,,,,,,,,,,,,,,776.910941200098,None,778.9118460000027,None,,,,,,,,,,,,,,,,,,,,,,,,,,,,,,,,,,,,,,,,,,,,,,,,,,,,,,,,,,,,,,,,,,,,,,,,,,98NB,001,2023_Sep_08_1248,ExactRep-v3-final,2021.2.3,59.92319044165627,
9,0,9,0,,,,,,,,,,,,,,,,,,,,,,,,,,,,,,,,,,,,,,,,,,,,,,,,,,,,,,,,,,,779.41475490015,None,781.4138263000641,None,,,,,,,,,,,,,,,,,,,,,,,,,,,,,,,,,,,,,,,,,,,,,,,,,,,,,,,,,,,,,,,,,,,,,,,,,,98NB,001,2023_Sep_08_1248,ExactRep-v3-final,2021.2.3,59.92319044165627,
10,0,10,0,,,,,,,,,,,,,,,,,,,,,,,,,,,,,,,,,,,,,,,,,,,,,,,,,,,,,,,,,,,781.9150608000346,None,783.9168229000643,None,,,,,,,,,,,,,,,,,,,,,,,,,,,,,,,,,,,,,,,,,,,,,,,,,,,,,,,,,,,,,,,,,,,,,,,,,,98NB,001,2023_Sep_08_1248,ExactRep-v3-final,2021.2.3,59.92319044165627,
11,0,11,0,,,,,,,,,,,,,,,,,,,,,,,,,,,,,,,,,,,,,,,,,,,,,,,,,,,,,,,,,,,784.4205155000091,None,786.4360514001455,None,,,,,,,,,,,,,,,,,,,,,,,,,,,,,,,,,,,,,,,,,,,,,,,,,,,,,,,,,,,,,,,,,,,,,,,,,,98NB,001,2023_Sep_08_1248,ExactRep-v3-final,2021.2.3,59.92319044165627,
12,0,12,0,,,,,,,,,,,,,,,,,,,,,,,,,,,,,,,,,,,,,,,,,,,,,,,,,,,,,,,,,,,786.9383301001508,None,788.9384900999721,None,,,,,,,,,,,,,,,,,,,,,,,,,,,,,,,,,,,,,,,,,,,,,,,,,,,,,,,,,,,,,,,,,,,,,,,,,,98NB,001,2023_Sep_08_1248,ExactRep-v3-final,2021.2.3,59.92319044165627,
13,0,13,0,,,,,,,,,,,,,,,,,,,,,,,,,,,,,,,,,,,,,,,,,,,,,,,,,,,,,,,,,,,789.4390074000694,None,791.4408226001542,None,,,,,,,,,,,,,,,,,,,,,,,,,,,,,,,,,,,,,,,,,,,,,,,,,,,,,,,,,,,,,,,,,,,,,,,,,,98NB,001,2023_Sep_08_1248,ExactRep-v3-final,2021.2.3,59.92319044165627,
14,0,14,0,,,,,,,,,,,,,,,,,,,,,,,,,,,,,,,,,,,,,,,,,,,,,,,,,,,,,,,,,,,791.9428620000836,None,793.9443302999716,None,,,,,,,,,,,,,,,,,,,,,,,,,,,,,,,,,,,,,,,,,,,,,,,,,,,,,,,,,,,,,,,,,,,,,,,,,,98NB,001,2023_Sep_08_1248,ExactRep-v3-final,2021.2.3,59.92319044165627,
,,,,,,,,,,,,,,,,,,,,,,,,,,,,,,,,,,,,,,,,,,,,,,,,,,,,,,,,,,,,,,,,,,space,21.924014599993825,804.5622161000501,None,,,,,,,,,,,,,,,,,,,,,,,,,,,,,,,,,,,,,,,,,,,,,,,,,,,,,,,,,,,,,,,,,,,,,,98NB,001,2023_Sep_08_1248,ExactRep-v3-final,2021.2.3,59.92319044165627,
,,,,0,0,0,0,,,,,,,,,,,,,,,,,,,,,,,,,,,,,,,,,,,,,,,,,,,,,,,,,,,,,,,,,828.561439699959,None,,,,,794.5992543001194,None,794.5992543001194,None,794.5992543001194,None,794.5992543001194,None,794.5992543001194,None,794.5992543001194,None,826.5571089000441,None,,,,,,,,,,,,,,,,,,,,,,,,,,,,,,,,,,,,,,,,,,,,,,,,,,,,,,,,98NB,001,2023_Sep_08_1248,ExactRep-v3-final,2021.2.3,59.92319044165627,
,,,,1,0,1,0,,,,,,,,,,,,,,,,,,,,,,,,,,,,,,,,,,,,,,,,,,,,,,,,,,,,,,,,,831.0636643001344,None,,,,,,,,,,,,,,,,,829.0617849000264,None,,,,,,,,,,,,,,,,,,,,,,,,,,,,,,,,,,,,,,,,,,,,,,,,,,,,,,,,98NB,001,2023_Sep_08_1248,ExactRep-v3-final,2021.2.3,59.92319044165627,
,,,,2,0,2,0,,,,,,,,,,,,,,,,,,,,,,,,,,,,,,,,,,,,,,,,,,,,,,,,,,,,,,,,,833.5661981001031,None,,,,,,,,,,,,,,,,,831.5639696000144,None,,,,,,,,,,,,,,,,,,,,,,,,,,,,,,,,,,,,,,,,,,,,,,,,,,,,,,,,98NB,001,2023_Sep_08_1248,ExactRep-v3-final,2021.2.3,59.92319044165627,
,,,,3,0,3,0,,,,,,,,,,,,,,,,,,,,,,,,,,,,,,,,,,,,,,,,,,,,,,,,,,,,,,,,,836.0687765001785,None,,,,,,,,,,,,,,,,,834.066791200079,None,,,,,,,,,,,,,,,,,,,,,,,,,,,,,,,,,,,,,,,,,,,,,,,,,,,,,,,,98NB,001,2023_Sep_08_1248,ExactRep-v3-final,2021.2.3,59.92319044165627,
,,,,4,0,4,0,,,,,,,,,,,,,,,,,,,,,,,,,,,,,,,,,,,,,,,,,,,,,,,,,,,,,,,,,838.5714160001371,None,,,,,,,,,,,,,,,,,836.5690981999505,None,,,,,,,,,,,,,,,,,,,,,,,,,,,,,,,,,,,,,,,,,,,,,,,,,,,,,,,,98NB,001,2023_Sep_08_1248,ExactRep-v3-final,2021.2.3,59.92319044165627,
,,,,5,0,5,0,,,,,,,,,,,,,,,,,,,,,,,,,,,,,,,,,,,,,,,,,,,,,,,,,,,,,,,,,841.0739450000692,None,,,,,,,,,,,,,,,,,839.0743399001658,None,,,,,,,,,,,,,,,,,,,,,,,,,,,,,,,,,,,,,,,,,,,,,,,,,,,,,,,,98NB,001,2023_Sep_08_1248,ExactRep-v3-final,2021.2.3,59.92319044165627,
,,,,6,0,6,0,,,,,,,,,,,,,,,,,,,,,,,,,,,,,,,,,,,,,,,,,,,,,,,,,,,,,,,,,843.5764540000819,None,,,,,,,,,,,,,,,,,841.5742818000726,None,,,,,,,,,,,,,,,,,,,,,,,,,,,,,,,,,,,,,,,,,,,,,,,,,,,,,,,,98NB,001,2023_Sep_08_1248,ExactRep-v3-final,2021.2.3,59.92319044165627,
,,,,7,0,7,0,,,,,,,,,,,,,,,,,,,,,,,,,,,,,,,,,,,,,,,,,,,,,,,,,,,,,,,,,846.0787568001542,None,,,,,,,,,,,,,,,,,844.077213200042,None,,,,,,,,,,,,,,,,,,,,,,,,,,,,,,,,,,,,,,,,,,,,,,,,,,,,,,,,98NB,001,2023_Sep_08_1248,ExactRep-v3-final,2021.2.3,59.92319044165627,
,,,,8,0,8,0,,,,,,,,,,,,,,,,,,,,,,,,,,,,,,,,,,,,,,,,,,,,,,,,,,,,,,,,,848.5815648999996,None,,,,,,,,,,,,,,,,,846.579176899977,None,,,,,,,,,,,,,,,,,,,,,,,,,,,,,,,,,,,,,,,,,,,,,,,,,,,,,,,,98NB,001,2023_Sep_08_1248,ExactRep-v3-final,2021.2.3,59.92319044165627,
,,,,9,0,9,0,,,,,,,,,,,,,,,,,,,,,,,,,,,,,,,,,,,,,,,,,,,,,,,,,,,,,,,,,851.0837444001809,None,,,,,,,,,,,,,,,,,849.0817738000769,None,,,,,,,,,,,,,,,,,,,,,,,,,,,,,,,,,,,,,,,,,,,,,,,,,,,,,,,,98NB,001,2023_Sep_08_1248,ExactRep-v3-final,2021.2.3,59.92319044165627,
,,,,10,0,10,0,,,,,,,,,,,,,,,,,,,,,,,,,,,,,,,,,,,,,,,,,,,,,,,,,,,,,,,,,853.5863161000889,None,,,,,,,,,,,,,,,,,851.5846002001781,None,,,,,,,,,,,,,,,,,,,,,,,,,,,,,,,,,,,,,,,,,,,,,,,,,,,,,,,,98NB,001,2023_Sep_08_1248,ExactRep-v3-final,2021.2.3,59.92319044165627,
,,,,11,0,11,0,,,,,,,,,,,,,,,,,,,,,,,,,,,,,,,,,,,,,,,,,,,,,,,,,,,,,,,,,856.0888841999695,None,,,,,,,,,,,,,,,,,854.086877200054,None,,,,,,,,,,,,,,,,,,,,,,,,,,,,,,,,,,,,,,,,,,,,,,,,,,,,,,,,98NB,001,2023_Sep_08_1248,ExactRep-v3-final,2021.2.3,59.92319044165627,
,,,,12,0,12,0,,,,,,,,,,,,,,,,,,,,,,,,,,,,,,,,,,,,,,,,,,,,,,,,,,,,,,,,,858.5914197000675,None,,,,,,,,,,,,,,,,,856.5895617001224,None,,,,,,,,,,,,,,,,,,,,,,,,,,,,,,,,,,,,,,,,,,,,,,,,,,,,,,,,98NB,001,2023_Sep_08_1248,ExactRep-v3-final,2021.2.3,59.92319044165627,
,,,,13,0,13,0,,,,,,,,,,,,,,,,,,,,,,,,,,,,,,,,,,,,,,,,,,,,,,,,,,,,,,,,,861.1103336000815,None,,,,,,,,,,,,,,,,,859.094646200072,None,,,,,,,,,,,,,,,,,,,,,,,,,,,,,,,,,,,,,,,,,,,,,,,,,,,,,,,,98NB,001,2023_Sep_08_1248,ExactRep-v3-final,2021.2.3,59.92319044165627,
,,,,14,0,14,0,,,,,,,,,,,,,,,,,,,,,,,,,,,,,,,,,,,,,,,,,,,,,,,,,,,,,,,,,863.6129505999852,None,,,,,,,,,,,,,,,,,861.6112724000122,None,,,,,,,,,,,,,,,,,,,,,,,,,,,,,,,,,,,,,,,,,,,,,,,,,,,,,,,,98NB,001,2023_Sep_08_1248,ExactRep-v3-final,2021.2.3,59.92319044165627,
,,,,,,,,,,,,,,,,,,,,,,,,,,,,,,,,,,,,,,,,,,,,,,,,,,,,,,,,,,,,,,,,,,,,,,,,,,,,,,,,,,,,space,19.517975099850446,874.22375380015,None,,,,,,,,,,,,,,,,,,,,,,,,,,,,,,,,,,,,,,,,,,,,,,,,,,,,98NB,001,2023_Sep_08_1248,ExactRep-v3-final,2021.2.3,59.92319044165627,
,,,,,,,,0,0,0,0,,,,,,,,,,,,,,,,,,,,,,,,,,,,,,,,,,,,,,,,,,,,,,,,,,,,,895.8282012999989,None,,,,,,,,,,,,,,,,,,,,,,,864.2699576001614,None,864.2699576001614,None,864.2699576001614,None,864.2699576001614,None,864.2699576001614,None,864.2699576001614,None,factory,10,1,sing,blue,893.8281602000352,None,None,893.8281602000352,None,,,,,,,,,,,,,,,,,,,,,,,,,,,,,,98NB,001,2023_Sep_08_1248,ExactRep-v3-final,2021.2.3,59.92319044165627,
,,,,,,,,1,0,1,0,,,,,,,,,,,,,,,,,,,,,,,,,,,,,,,,,,,,,,,,,,,,,,,,,,,,,898.3310812001582,None,,,,,,,,,,,,,,,,,,,,,,,,,,,,,,,,,,,silence,75,2,silent,white,896.3307289001532,None,None,896.3307289001532,None,,,,,,,,,,,,,,,,,,,,,,,,,,,,,,98NB,001,2023_Sep_08_1248,ExactRep-v3-final,2021.2.3,59.92319044165627,
,,,,,,,,2,0,2,0,,,,,,,,,,,,,,,,,,,,,,,,,,,,,,,,,,,,,,,,,,,,,,,,,,,,,900.8335721001495,None,,,,,,,,,,,,,,,,,,,,,,,,,,,,,,,,,,,love,26,3,sing,blue,898.8337916000746,None,None,898.8337916000746,None,,,,,,,,,,,,,,,,,,,,,,,,,,,,,,98NB,001,2023_Sep_08_1248,ExactRep-v3-final,2021.2.3,59.92319044165627,
,,,,,,,,3,0,3,0,,,,,,,,,,,,,,,,,,,,,,,,,,,,,,,,,,,,,,,,,,,,,,,,,,,,,903.3523528000806,None,,,,,,,,,,,,,,,,,,,,,,,,,,,,,,,,,,,science,99,4,aloud,red,901.338675300125,None,None,901.338675300125,None,,,,,,,,,,,,,,,,,,,,,,,,,,,,,,98NB,001,2023_Sep_08_1248,ExactRep-v3-final,2021.2.3,59.92319044165627,
,,,,,,,,4,0,4,0,,,,,,,,,,,,,,,,,,,,,,,,,,,,,,,,,,,,,,,,,,,,,,,,,,,,,905.8549558001105,None,,,,,,,,,,,,,,,,,,,,,,,,,,,,,,,,,,,money,46,5,silent,white,903.8534131001215,None,None,903.8534131001215,None,,,,,,,,,,,,,,,,,,,,,,,,,,,,,,98NB,001,2023_Sep_08_1248,ExactRep-v3-final,2021.2.3,59.92319044165627,
,,,,,,,,5,0,5,0,,,,,,,,,,,,,,,,,,,,,,,,,,,,,,,,,,,,,,,,,,,,,,,,,,,,,908.3743596000131,None,,,,,,,,,,,,,,,,,,,,,,,,,,,,,,,,,,,present,30,6,sing,blue,906.3668633000925,None,None,906.3668633000925,None,,,,,,,,,,,,,,,,,,,,,,,,,,,,,,98NB,001,2023_Sep_08_1248,ExactRep-v3-final,2021.2.3,59.92319044165627,
,,,,,,,,6,0,6,0,,,,,,,,,,,,,,,,,,,,,,,,,,,,,,,,,,,,,,,,,,,,,,,,,,,,,910.8767131001223,None,,,,,,,,,,,,,,,,,,,,,,,,,,,,,,,,,,,custom,64,7,silent,white,908.8758882000111,None,None,908.8758882000111,None,,,,,,,,,,,,,,,,,,,,,,,,,,,,,,98NB,001,2023_Sep_08_1248,ExactRep-v3-final,2021.2.3,59.92319044165627,
,,,,,,,,7,0,7,0,,,,,,,,,,,,,,,,,,,,,,,,,,,,,,,,,,,,,,,,,,,,,,,,,,,,,913.3963846000843,None,,,,,,,,,,,,,,,,,,,,,,,,,,,,,,,,,,,vision,111,8,aloud,red,911.3926679999568,None,None,911.3926679999568,None,,,,,,,,,,,,,,,,,,,,,,,,,,,,,,98NB,001,2023_Sep_08_1248,ExactRep-v3-final,2021.2.3,59.92319044165627,
,,,,,,,,8,0,8,0,,,,,,,,,,,,,,,,,,,,,,,,,,,,,,,,,,,,,,,,,,,,,,,,,,,,,915.9152967000846,None,,,,,,,,,,,,,,,,,,,,,,,,,,,,,,,,,,,church,31,9,sing,blue,913.90516760014,None,None,913.90516760014,None,,,,,,,,,,,,,,,,,,,,,,,,,,,,,,98NB,001,2023_Sep_08_1248,ExactRep-v3-final,2021.2.3,59.92319044165627,
,,,,,,,,9,0,9,0,,,,,,,,,,,,,,,,,,,,,,,,,,,,,,,,,,,,,,,,,,,,,,,,,,,,,918.434514899971,None,,,,,,,,,,,,,,,,,,,,,,,,,,,,,,,,,,,series,77,10,silent,white,916.4311727001332,None,None,916.4311727001332,None,,,,,,,,,,,,,,,,,,,,,,,,,,,,,,98NB,001,2023_Sep_08_1248,ExactRep-v3-final,2021.2.3,59.92319044165627,
,,,,,,,,10,0,10,0,,,,,,,,,,,,,,,,,,,,,,,,,,,,,,,,,,,,,,,,,,,,,,,,,,,,,920.9366950001568,None,,,,,,,,,,,,,,,,,,,,,,,,,,,,,,,,,,,anger,40,11,silent,white,918.9347159999888,None,None,918.9347159999888,None,,,,,,,,,,,,,,,,,,,,,,,,,,,,,,98NB,001,2023_Sep_08_1248,ExactRep-v3-final,2021.2.3,59.92319044165627,
,,,,,,,,11,0,11,0,,,,,,,,,,,,,,,,,,,,,,,,,,,,,,,,,,,,,,,,,,,,,,,,,,,,,923.4558892000932,None,,,,,,,,,,,,,,,,,,,,,,,,,,,,,,,,,,,woman,81,12,aloud,red,921.445635800017,None,None,921.445635800017,None,,,,,,,,,,,,,,,,,,,,,,,,,,,,,,98NB,001,2023_Sep_08_1248,ExactRep-v3-final,2021.2.3,59.92319044165627,
,,,,,,,,12,0,12,0,,,,,,,,,,,,,,,,,,,,,,,,,,,,,,,,,,,,,,,,,,,,,,,,,,,,,925.9588754000142,None,,,,,,,,,,,,,,,,,,,,,,,,,,,,,,,,,,,queen,116,13,aloud,red,923.9584529001731,None,None,923.9584529001731,None,,,,,,,,,,,,,,,,,,,,,,,,,,,,,,98NB,001,2023_Sep_08_1248,ExactRep-v3-final,2021.2.3,59.92319044165627,
,,,,,,,,13,0,13,0,,,,,,,,,,,,,,,,,,,,,,,,,,,,,,,,,,,,,,,,,,,,,,,,,,,,,928.4615293000825,None,,,,,,,,,,,,,,,,,,,,,,,,,,,,,,,,,,,winter,105,14,aloud,red,926.461065400159,None,None,926.461065400159,None,,,,,,,,,,,,,,,,,,,,,,,,,,,,,,98NB,001,2023_Sep_08_1248,ExactRep-v3-final,2021.2.3,59.92319044165627,
,,,,,,,,14,0,14,0,,,,,,,,,,,,,,,,,,,,,,,,,,,,,,,,,,,,,,,,,,,,,,,,,,,,,930.9801181000657,None,,,,,,,,,,,,,,,,,,,,,,,,,,,,,,,,,,,shadow,79,15,sing,blue,928.9661689000204,None,None,928.9661689000204,None,,,,,,,,,,,,,,,,,,,,,,,,,,,,,,98NB,001,2023_Sep_08_1248,ExactRep-v3-final,2021.2.3,59.92319044165627,
,,,,,,,,15,0,15,0,,,,,,,,,,,,,,,,,,,,,,,,,,,,,,,,,,,,,,,,,,,,,,,,,,,,,933.482728900155,None,,,,,,,,,,,,,,,,,,,,,,,,,,,,,,,,,,,opinion,85,16,aloud,red,931.4824467001017,None,None,931.4824467001017,None,,,,,,,,,,,,,,,,,,,,,,,,,,,,,,98NB,001,2023_Sep_08_1248,ExactRep-v3-final,2021.2.3,59.92319044165627,
,,,,,,,,16,0,16,0,,,,,,,,,,,,,,,,,,,,,,,,,,,,,,,,,,,,,,,,,,,,,,,,,,,,,936.0022724000737,None,,,,,,,,,,,,,,,,,,,,,,,,,,,,,,,,,,,power,37,17,sing,blue,933.9878777000122,None,None,933.9878777000122,None,,,,,,,,,,,,,,,,,,,,,,,,,,,,,,98NB,001,2023_Sep_08_1248,ExactRep-v3-final,2021.2.3,59.92319044165627,
,,,,,,,,17,0,17,0,,,,,,,,,,,,,,,,,,,,,,,,,,,,,,,,,,,,,,,,,,,,,,,,,,,,,938.5047973999754,None,,,,,,,,,,,,,,,,,,,,,,,,,,,,,,,,,,,spirit,13,18,sing,blue,936.5038251001388,None,None,936.5038251001388,None,,,,,,,,,,,,,,,,,,,,,,,,,,,,,,98NB,001,2023_Sep_08_1248,ExactRep-v3-final,2021.2.3,59.92319044165627,
,,,,,,,,18,0,18,0,,,,,,,,,,,,,,,,,,,,,,,,,,,,,,,,,,,,,,,,,,,,,,,,,,,,,941.0068942999933,None,,,,,,,,,,,,,,,,,,,,,,,,,,,,,,,,,,,vessel,21,19,sing,blue,939.0072157999966,None,None,939.0072157999966,None,,,,,,,,,,,,,,,,,,,,,,,,,,,,,,98NB,001,2023_Sep_08_1248,ExactRep-v3-final,2021.2.3,59.92319044165627,
,,,,,,,,19,0,19,0,,,,,,,,,,,,,,,,,,,,,,,,,,,,,,,,,,,,,,,,,,,,,,,,,,,,,943.5092555000447,None,,,,,,,,,,,,,,,,,,,,,,,,,,,,,,,,,,,fun,106,20,aloud,red,941.5072819001507,None,None,941.5072819001507,None,,,,,,,,,,,,,,,,,,,,,,,,,,,,,,98NB,001,2023_Sep_08_1248,ExactRep-v3-final,2021.2.3,59.92319044165627,
,,,,,,,,20,0,20,0,,,,,,,,,,,,,,,,,,,,,,,,,,,,,,,,,,,,,,,,,,,,,,,,,,,,,946.012295700144,None,,,,,,,,,,,,,,,,,,,,,,,,,,,,,,,,,,,truth,112,21,aloud,red,944.0101568000391,None,None,944.0101568000391,None,,,,,,,,,,,,,,,,,,,,,,,,,,,,,,98NB,001,2023_Sep_08_1248,ExactRep-v3-final,2021.2.3,59.92319044165627,
,,,,,,,,21,0,21,0,,,,,,,,,,,,,,,,,,,,,,,,,,,,,,,,,,,,,,,,,,,,,,,,,,,,,948.5148410000838,None,,,,,,,,,,,,,,,,,,,,,,,,,,,,,,,,,,,grass,67,22,silent,white,946.5147188000847,None,None,946.5147188000847,None,,,,,,,,,,,,,,,,,,,,,,,,,,,,,,98NB,001,2023_Sep_08_1248,ExactRep-v3-final,2021.2.3,59.92319044165627,
,,,,,,,,22,0,22,0,,,,,,,,,,,,,,,,,,,,,,,,,,,,,,,,,,,,,,,,,,,,,,,,,,,,,951.0346103999764,None,,,,,,,,,,,,,,,,,,,,,,,,,,,,,,,,,,,fur,17,23,sing,blue,949.0188379001338,None,None,949.0188379001338,None,,,,,,,,,,,,,,,,,,,,,,,,,,,,,,98NB,001,2023_Sep_08_1248,ExactRep-v3-final,2021.2.3,59.92319044165627,
,,,,,,,,23,0,23,0,,,,,,,,,,,,,,,,,,,,,,,,,,,,,,,,,,,,,,,,,,,,,,,,,,,,,953.552891400177,None,,,,,,,,,,,,,,,,,,,,,,,,,,,,,,,,,,,lord,92,24,aloud,red,951.5375342001207,None,None,951.5375342001207,None,,,,,,,,,,,,,,,,,,,,,,,,,,,,,,98NB,001,2023_Sep_08_1248,ExactRep-v3-final,2021.2.3,59.92319044165627,
,,,,,,,,24,0,24,0,,,,,,,,,,,,,,,,,,,,,,,,,,,,,,,,,,,,,,,,,,,,,,,,,,,,,956.0551034000237,None,,,,,,,,,,,,,,,,,,,,,,,,,,,,,,,,,,,fate,44,25,silent,white,954.0557514999527,None,None,954.0557514999527,None,,,,,,,,,,,,,,,,,,,,,,,,,,,,,,98NB,001,2023_Sep_08_1248,ExactRep-v3-final,2021.2.3,59.92319044165627,
,,,,,,,,25,0,25,0,,,,,,,,,,,,,,,,,,,,,,,,,,,,,,,,,,,,,,,,,,,,,,,,,,,,,958.5742975000758,None,,,,,,,,,,,,,,,,,,,,,,,,,,,,,,,,,,,flood,9,26,sing,blue,956.5605335000437,None,None,956.5605335000437,None,,,,,,,,,,,,,,,,,,,,,,,,,,,,,,98NB,001,2023_Sep_08_1248,ExactRep-v3-final,2021.2.3,59.92319044165627,
,,,,,,,,26,0,26,0,,,,,,,,,,,,,,,,,,,,,,,,,,,,,,,,,,,,,,,,,,,,,,,,,,,,,961.0768981000874,None,,,,,,,,,,,,,,,,,,,,,,,,,,,,,,,,,,,beast,115,27,aloud,red,959.0749348001555,None,None,959.0749348001555,None,,,,,,,,,,,,,,,,,,,,,,,,,,,,,,98NB,001,2023_Sep_08_1248,ExactRep-v3-final,2021.2.3,59.92319044165627,
,,,,,,,,27,0,27,0,,,,,,,,,,,,,,,,,,,,,,,,,,,,,,,,,,,,,,,,,,,,,,,,,,,,,963.595894300146,None,,,,,,,,,,,,,,,,,,,,,,,,,,,,,,,,,,,picture,12,28,sing,blue,961.5822235001251,None,None,961.5822235001251,None,,,,,,,,,,,,,,,,,,,,,,,,,,,,,,98NB,001,2023_Sep_08_1248,ExactRep-v3-final,2021.2.3,59.92319044165627,
,,,,,,,,28,0,28,0,,,,,,,,,,,,,,,,,,,,,,,,,,,,,,,,,,,,,,,,,,,,,,,,,,,,,966.0984906000085,None,,,,,,,,,,,,,,,,,,,,,,,,,,,,,,,,,,,paper,25,29,sing,blue,964.0965307999868,None,None,964.0965307999868,None,,,,,,,,,,,,,,,,,,,,,,,,,,,,,,98NB,001,2023_Sep_08_1248,ExactRep-v3-final,2021.2.3,59.92319044165627,
,,,,,,,,29,0,29,0,,,,,,,,,,,,,,,,,,,,,,,,,,,,,,,,,,,,,,,,,,,,,,,,,,,,,968.6010617001448,None,,,,,,,,,,,,,,,,,,,,,,,,,,,,,,,,,,,square,87,30,aloud,red,966.6010398000944,None,None,966.6010398000944,None,,,,,,,,,,,,,,,,,,,,,,,,,,,,,,98NB,001,2023_Sep_08_1248,ExactRep-v3-final,2021.2.3,59.92319044165627,
,,,,,,,,30,0,30,0,,,,,,,,,,,,,,,,,,,,,,,,,,,,,,,,,,,,,,,,,,,,,,,,,,,,,971.1205019000918,None,,,,,,,,,,,,,,,,,,,,,,,,,,,,,,,,,,,flower,45,31,silent,white,969.1063302999828,None,None,969.1063302999828,None,,,,,,,,,,,,,,,,,,,,,,,,,,,,,,98NB,001,2023_Sep_08_1248,ExactRep-v3-final,2021.2.3,59.92319044165627,
,,,,,,,,31,0,31,0,,,,,,,,,,,,,,,,,,,,,,,,,,,,,,,,,,,,,,,,,,,,,,,,,,,,,973.639779600082,None,,,,,,,,,,,,,,,,,,,,,,,,,,,,,,,,,,,lad,34,32,sing,blue,971.6242693001404,None,None,971.6242693001404,None,,,,,,,,,,,,,,,,,,,,,,,,,,,,,,98NB,001,2023_Sep_08_1248,ExactRep-v3-final,2021.2.3,59.92319044165627,
,,,,,,,,32,0,32,0,,,,,,,,,,,,,,,,,,,,,,,,,,,,,,,,,,,,,,,,,,,,,,,,,,,,,976.141825000057,None,,,,,,,,,,,,,,,,,,,,,,,,,,,,,,,,,,,house,38,33,sing,blue,974.1399521001149,None,None,974.1399521001149,None,,,,,,,,,,,,,,,,,,,,,,,,,,,,,,98NB,001,2023_Sep_08_1248,ExactRep-v3-final,2021.2.3,59.92319044165627,
,,,,,,,,33,0,33,0,,,,,,,,,,,,,,,,,,,,,,,,,,,,,,,,,,,,,,,,,,,,,,,,,,,,,978.6443714001216,None,,,,,,,,,,,,,,,,,,,,,,,,,,,,,,,,,,,blossom,58,34,silent,white,976.6425346001051,None,None,976.6425346001051,None,,,,,,,,,,,,,,,,,,,,,,,,,,,,,,98NB,001,2023_Sep_08_1248,ExactRep-v3-final,2021.2.3,59.92319044165627,
,,,,,,,,34,0,34,0,,,,,,,,,,,,,,,,,,,,,,,,,,,,,,,,,,,,,,,,,,,,,,,,,,,,,981.1635195000563,None,,,,,,,,,,,,,,,,,,,,,,,,,,,,,,,,,,,butter,74,35,silent,white,979.1490762000903,None,None,979.1490762000903,None,,,,,,,,,,,,,,,,,,,,,,,,,,,,,,98NB,001,2023_Sep_08_1248,ExactRep-v3-final,2021.2.3,59.92319044165627,
,,,,,,,,35,0,35,0,,,,,,,,,,,,,,,,,,,,,,,,,,,,,,,,,,,,,,,,,,,,,,,,,,,,,983.6829616001341,None,,,,,,,,,,,,,,,,,,,,,,,,,,,,,,,,,,,skin,5,36,sing,blue,981.6728533001151,None,None,981.6728533001151,None,,,,,,,,,,,,,,,,,,,,,,,,,,,,,,98NB,001,2023_Sep_08_1248,ExactRep-v3-final,2021.2.3,59.92319044165627,
,,,,,,,,36,0,36,0,,,,,,,,,,,,,,,,,,,,,,,,,,,,,,,,,,,,,,,,,,,,,,,,,,,,,986.1853952000383,None,,,,,,,,,,,,,,,,,,,,,,,,,,,,,,,,,,,body,70,37,silent,white,984.1852101001423,None,None,984.1852101001423,None,,,,,,,,,,,,,,,,,,,,,,,,,,,,,,98NB,001,2023_Sep_08_1248,ExactRep-v3-final,2021.2.3,59.92319044165627,
,,,,,,,,37,0,37,0,,,,,,,,,,,,,,,,,,,,,,,,,,,,,,,,,,,,,,,,,,,,,,,,,,,,,988.6877923000138,None,,,,,,,,,,,,,,,,,,,,,,,,,,,,,,,,,,,duty,50,38,silent,white,986.6882599999662,None,None,986.6882599999662,None,,,,,,,,,,,,,,,,,,,,,,,,,,,,,,98NB,001,2023_Sep_08_1248,ExactRep-v3-final,2021.2.3,59.92319044165627,
,,,,,,,,38,0,38,0,,,,,,,,,,,,,,,,,,,,,,,,,,,,,,,,,,,,,,,,,,,,,,,,,,,,,991.2073793001473,None,,,,,,,,,,,,,,,,,,,,,,,,,,,,,,,,,,,disease,42,39,silent,white,989.2019234001637,None,None,989.2019234001637,None,,,,,,,,,,,,,,,,,,,,,,,,,,,,,,98NB,001,2023_Sep_08_1248,ExactRep-v3-final,2021.2.3,59.92319044165627,
,,,,,,,,39,0,39,0,,,,,,,,,,,,,,,,,,,,,,,,,,,,,,,,,,,,,,,,,,,,,,,,,,,,,993.7096627999563,None,,,,,,,,,,,,,,,,,,,,,,,,,,,,,,,,,,,fact,97,40,aloud,red,991.7093030000106,None,None,991.7093030000106,None,,,,,,,,,,,,,,,,,,,,,,,,,,,,,,98NB,001,2023_Sep_08_1248,ExactRep-v3-final,2021.2.3,59.92319044165627,
,,,,,,,,40,0,40,0,,,,,,,,,,,,,,,,,,,,,,,,,,,,,,,,,,,,,,,,,,,,,,,,,,,,,996.2288305000402,None,,,,,,,,,,,,,,,,,,,,,,,,,,,,,,,,,,,animal,113,41,aloud,red,994.2254562000744,None,None,994.2254562000744,None,,,,,,,,,,,,,,,,,,,,,,,,,,,,,,98NB,001,2023_Sep_08_1248,ExactRep-v3-final,2021.2.3,59.92319044165627,
,,,,,,,,41,0,41,0,,,,,,,,,,,,,,,,,,,,,,,,,,,,,,,,,,,,,,,,,,,,,,,,,,,,,998.7310363999568,None,,,,,,,,,,,,,,,,,,,,,,,,,,,,,,,,,,,shame,107,42,aloud,red,996.7293557000812,None,None,996.7293557000812,None,,,,,,,,,,,,,,,,,,,,,,,,,,,,,,98NB,001,2023_Sep_08_1248,ExactRep-v3-final,2021.2.3,59.92319044165627,
,,,,,,,,42,0,42,0,,,,,,,,,,,,,,,,,,,,,,,,,,,,,,,,,,,,,,,,,,,,,,,,,,,,,1001.250533600105,None,,,,,,,,,,,,,,,,,,,,,,,,,,,,,,,,,,,length,53,43,silent,white,999.2353570000269,None,None,999.2353570000269,None,,,,,,,,,,,,,,,,,,,,,,,,,,,,,,98NB,001,2023_Sep_08_1248,ExactRep-v3-final,2021.2.3,59.92319044165627,
,,,,,,,,43,0,43,0,,,,,,,,,,,,,,,,,,,,,,,,,,,,,,,,,,,,,,,,,,,,,,,,,,,,,1003.7530547999777,None,,,,,,,,,,,,,,,,,,,,,,,,,,,,,,,,,,,ship,89,44,aloud,red,1001.7529500999954,None,None,1001.7529500999954,None,,,,,,,,,,,,,,,,,,,,,,,,,,,,,,98NB,001,2023_Sep_08_1248,ExactRep-v3-final,2021.2.3,59.92319044165627,
,,,,,,,,44,0,44,0,,,,,,,,,,,,,,,,,,,,,,,,,,,,,,,,,,,,,,,,,,,,,,,,,,,,,1006.2708739000373,None,,,,,,,,,,,,,,,,,,,,,,,,,,,,,,,,,,,iron,32,45,sing,blue,1004.2572125000879,None,None,1004.2572125000879,None,,,,,,,,,,,,,,,,,,,,,,,,,,,,,,98NB,001,2023_Sep_08_1248,ExactRep-v3-final,2021.2.3,59.92319044165627,
,,,,,,,,45,0,45,0,,,,,,,,,,,,,,,,,,,,,,,,,,,,,,,,,,,,,,,,,,,,,,,,,,,,,1008.7744857000653,None,,,,,,,,,,,,,,,,,,,,,,,,,,,,,,,,,,,salary,102,46,aloud,red,1006.7746212000493,None,None,1006.7746212000493,None,,,,,,,,,,,,,,,,,,,,,,,,,,,,,,98NB,001,2023_Sep_08_1248,ExactRep-v3-final,2021.2.3,59.92319044165627,
,,,,,,,,46,0,46,0,,,,,,,,,,,,,,,,,,,,,,,,,,,,,,,,,,,,,,,,,,,,,,,,,,,,,1011.2938995000441,None,,,,,,,,,,,,,,,,,,,,,,,,,,,,,,,,,,,rock,41,47,silent,white,1009.2889348999597,None,None,1009.2889348999597,None,,,,,,,,,,,,,,,,,,,,,,,,,,,,,,98NB,001,2023_Sep_08_1248,ExactRep-v3-final,2021.2.3,59.92319044165627,
,,,,,,,,47,0,47,0,,,,,,,,,,,,,,,,,,,,,,,,,,,,,,,,,,,,,,,,,,,,,,,,,,,,,1013.7961578001268,None,,,,,,,,,,,,,,,,,,,,,,,,,,,,,,,,,,,sugar,109,48,aloud,red,1011.7940420000814,None,None,1011.7940420000814,None,,,,,,,,,,,,,,,,,,,,,,,,,,,,,,98NB,001,2023_Sep_08_1248,ExactRep-v3-final,2021.2.3,59.92319044165627,
,,,,,,,,48,0,48,0,,,,,,,,,,,,,,,,,,,,,,,,,,,,,,,,,,,,,,,,,,,,,,,,,,,,,1016.2986129000783,None,,,,,,,,,,,,,,,,,,,,,,,,,,,,,,,,,,,dollar,24,49,sing,blue,1014.2970980000682,None,None,1014.2970980000682,None,,,,,,,,,,,,,,,,,,,,,,,,,,,,,,98NB,001,2023_Sep_08_1248,ExactRep-v3-final,2021.2.3,59.92319044165627,
,,,,,,,,49,0,49,0,,,,,,,,,,,,,,,,,,,,,,,,,,,,,,,,,,,,,,,,,,,,,,,,,,,,,1018.8016838000622,None,,,,,,,,,,,,,,,,,,,,,,,,,,,,,,,,,,,glory,104,50,aloud,red,1016.7992549999617,None,None,1016.7992549999617,None,,,,,,,,,,,,,,,,,,,,,,,,,,,,,,98NB,001,2023_Sep_08_1248,ExactRep-v3-final,2021.2.3,59.92319044165627,
,,,,,,,,50,0,50,0,,,,,,,,,,,,,,,,,,,,,,,,,,,,,,,,,,,,,,,,,,,,,,,,,,,,,1021.3041533001233,None,,,,,,,,,,,,,,,,,,,,,,,,,,,,,,,,,,,pupil,0,51,sing,blue,1019.3039123001508,None,None,1019.3039123001508,None,,,,,,,,,,,,,,,,,,,,,,,,,,,,,,98NB,001,2023_Sep_08_1248,ExactRep-v3-final,2021.2.3,59.92319044165627,
,,,,,,,,51,0,51,0,,,,,,,,,,,,,,,,,,,,,,,,,,,,,,,,,,,,,,,,,,,,,,,,,,,,,1023.8229531000834,None,,,,,,,,,,,,,,,,,,,,,,,,,,,,,,,,,,,moment,62,52,silent,white,1021.8082791999914,None,None,1021.8082791999914,None,,,,,,,,,,,,,,,,,,,,,,,,,,,,,,98NB,001,2023_Sep_08_1248,ExactRep-v3-final,2021.2.3,59.92319044165627,
,,,,,,,,52,0,52,0,,,,,,,,,,,,,,,,,,,,,,,,,,,,,,,,,,,,,,,,,,,,,,,,,,,,,1026.3420158999506,None,,,,,,,,,,,,,,,,,,,,,,,,,,,,,,,,,,,leader,35,53,sing,blue,1024.3345713999588,None,None,1024.3345713999588,None,,,,,,,,,,,,,,,,,,,,,,,,,,,,,,98NB,001,2023_Sep_08_1248,ExactRep-v3-final,2021.2.3,59.92319044165627,
,,,,,,,,53,0,53,0,,,,,,,,,,,,,,,,,,,,,,,,,,,,,,,,,,,,,,,,,,,,,,,,,,,,,1028.844893899979,None,,,,,,,,,,,,,,,,,,,,,,,,,,,,,,,,,,,street,103,54,aloud,red,1026.842558400007,None,None,1026.842558400007,None,,,,,,,,,,,,,,,,,,,,,,,,,,,,,,98NB,001,2023_Sep_08_1248,ExactRep-v3-final,2021.2.3,59.92319044165627,
,,,,,,,,54,0,54,0,,,,,,,,,,,,,,,,,,,,,,,,,,,,,,,,,,,,,,,,,,,,,,,,,,,,,1031.347500400152,None,,,,,,,,,,,,,,,,,,,,,,,,,,,,,,,,,,,advice,93,55,aloud,red,1029.347246499965,None,None,1029.347246499965,None,,,,,,,,,,,,,,,,,,,,,,,,,,,,,,98NB,001,2023_Sep_08_1248,ExactRep-v3-final,2021.2.3,59.92319044165627,
,,,,,,,,55,0,55,0,,,,,,,,,,,,,,,,,,,,,,,,,,,,,,,,,,,,,,,,,,,,,,,,,,,,,1033.8672476001084,None,,,,,,,,,,,,,,,,,,,,,,,,,,,,,,,,,,,circle,57,56,silent,white,1031.8523985999636,None,None,1031.8523985999636,None,,,,,,,,,,,,,,,,,,,,,,,,,,,,,,98NB,001,2023_Sep_08_1248,ExactRep-v3-final,2021.2.3,59.92319044165627,
,,,,,,,,56,0,56,0,,,,,,,,,,,,,,,,,,,,,,,,,,,,,,,,,,,,,,,,,,,,,,,,,,,,,1036.3686437001452,None,,,,,,,,,,,,,,,,,,,,,,,,,,,,,,,,,,,dust,61,57,silent,white,1034.3690645000897,None,None,1034.3690645000897,None,,,,,,,,,,,,,,,,,,,,,,,,,,,,,,98NB,001,2023_Sep_08_1248,ExactRep-v3-final,2021.2.3,59.92319044165627,
,,,,,,,,57,0,57,0,,,,,,,,,,,,,,,,,,,,,,,,,,,,,,,,,,,,,,,,,,,,,,,,,,,,,1038.871058500139,None,,,,,,,,,,,,,,,,,,,,,,,,,,,,,,,,,,,plant,66,58,silent,white,1036.8718579001725,None,None,1036.8718579001725,None,,,,,,,,,,,,,,,,,,,,,,,,,,,,,,98NB,001,2023_Sep_08_1248,ExactRep-v3-final,2021.2.3,59.92319044165627,
,,,,,,,,58,0,58,0,,,,,,,,,,,,,,,,,,,,,,,,,,,,,,,,,,,,,,,,,,,,,,,,,,,,,1041.3908633999527,None,,,,,,,,,,,,,,,,,,,,,,,,,,,,,,,,,,,cash,15,59,sing,blue,1039.3774484000169,None,None,1039.3774484000169,None,,,,,,,,,,,,,,,,,,,,,,,,,,,,,,98NB,001,2023_Sep_08_1248,ExactRep-v3-final,2021.2.3,59.92319044165627,
,,,,,,,,59,0,59,0,,,,,,,,,,,,,,,,,,,,,,,,,,,,,,,,,,,,,,,,,,,,,,,,,,,,,1043.8928759000264,None,,,,,,,,,,,,,,,,,,,,,,,,,,,,,,,,,,,meat,47,60,silent,white,1041.8923221000005,None,None,1041.8923221000005,None,,,,,,,,,,,,,,,,,,,,,,,,,,,,,,98NB,001,2023_Sep_08_1248,ExactRep-v3-final,2021.2.3,59.92319044165627,
,,,,,,,,60,0,60,0,,,,,,,,,,,,,,,,,,,,,,,,,,,,,,,,,,,,,,,,,,,,,,,,,,,,,1046.4120184001513,None,,,,,,,,,,,,,,,,,,,,,,,,,,,,,,,,,,,door,69,61,silent,white,1044.3976923001464,None,None,1044.3976923001464,None,,,,,,,,,,,,,,,,,,,,,,,,,,,,,,98NB,001,2023_Sep_08_1248,ExactRep-v3-final,2021.2.3,59.92319044165627,
,,,,,,,,61,0,61,0,,,,,,,,,,,,,,,,,,,,,,,,,,,,,,,,,,,,,,,,,,,,,,,,,,,,,1048.9143422001507,None,,,,,,,,,,,,,,,,,,,,,,,,,,,,,,,,,,,product,48,62,silent,white,1046.9125873001758,None,None,1046.9125873001758,None,,,,,,,,,,,,,,,,,,,,,,,,,,,,,,98NB,001,2023_Sep_08_1248,ExactRep-v3-final,2021.2.3,59.92319044165627,
,,,,,,,,62,0,62,0,,,,,,,,,,,,,,,,,,,,,,,,,,,,,,,,,,,,,,,,,,,,,,,,,,,,,1051.4340038001537,None,,,,,,,,,,,,,,,,,,,,,,,,,,,,,,,,,,,judge,28,63,sing,blue,1049.4357994999737,None,None,1049.4357994999737,None,,,,,,,,,,,,,,,,,,,,,,,,,,,,,,98NB,001,2023_Sep_08_1248,ExactRep-v3-final,2021.2.3,59.92319044165627,
,,,,,,,,63,0,63,0,,,,,,,,,,,,,,,,,,,,,,,,,,,,,,,,,,,,,,,,,,,,,,,,,,,,,1053.9364744001068,None,,,,,,,,,,,,,,,,,,,,,,,,,,,,,,,,,,,tool,59,64,silent,white,1051.9370345000643,None,None,1051.9370345000643,None,,,,,,,,,,,,,,,,,,,,,,,,,,,,,,98NB,001,2023_Sep_08_1248,ExactRep-v3-final,2021.2.3,59.92319044165627,
,,,,,,,,64,0,64,0,,,,,,,,,,,,,,,,,,,,,,,,,,,,,,,,,,,,,,,,,,,,,,,,,,,,,1056.4553763000295,None,,,,,,,,,,,,,,,,,,,,,,,,,,,,,,,,,,,mother,91,65,aloud,red,1054.4405652000569,None,None,1054.4405652000569,None,,,,,,,,,,,,,,,,,,,,,,,,,,,,,,98NB,001,2023_Sep_08_1248,ExactRep-v3-final,2021.2.3,59.92319044165627,
,,,,,,,,65,0,65,0,,,,,,,,,,,,,,,,,,,,,,,,,,,,,,,,,,,,,,,,,,,,,,,,,,,,,1058.957831399981,None,,,,,,,,,,,,,,,,,,,,,,,,,,,,,,,,,,,virtue,60,66,silent,white,1056.9562073000707,None,None,1056.9562073000707,None,,,,,,,,,,,,,,,,,,,,,,,,,,,,,,98NB,001,2023_Sep_08_1248,ExactRep-v3-final,2021.2.3,59.92319044165627,
,,,,,,,,66,0,66,0,,,,,,,,,,,,,,,,,,,,,,,,,,,,,,,,,,,,,,,,,,,,,,,,,,,,,1061.4605872000102,None,,,,,,,,,,,,,,,,,,,,,,,,,,,,,,,,,,,author,98,67,aloud,red,1059.4609209999908,None,None,1059.4609209999908,None,,,,,,,,,,,,,,,,,,,,,,,,,,,,,,98NB,001,2023_Sep_08_1248,ExactRep-v3-final,2021.2.3,59.92319044165627,
,,,,,,,,67,0,67,0,,,,,,,,,,,,,,,,,,,,,,,,,,,,,,,,,,,,,,,,,,,,,,,,,,,,,1063.962817599997,None,,,,,,,,,,,,,,,,,,,,,,,,,,,,,,,,,,,effort,6,68,sing,blue,1061.9629850001074,None,None,1061.9629850001074,None,,,,,,,,,,,,,,,,,,,,,,,,,,,,,,98NB,001,2023_Sep_08_1248,ExactRep-v3-final,2021.2.3,59.92319044165627,
,,,,,,,,68,0,68,0,,,,,,,,,,,,,,,,,,,,,,,,,,,,,,,,,,,,,,,,,,,,,,,,,,,,,1066.482344500022,None,,,,,,,,,,,,,,,,,,,,,,,,,,,,,,,,,,,woods,86,69,aloud,red,1064.4753050000872,None,None,1064.4753050000872,None,,,,,,,,,,,,,,,,,,,,,,,,,,,,,,98NB,001,2023_Sep_08_1248,ExactRep-v3-final,2021.2.3,59.92319044165627,
,,,,,,,,69,0,69,0,,,,,,,,,,,,,,,,,,,,,,,,,,,,,,,,,,,,,,,,,,,,,,,,,,,,,1068.9845638000406,None,,,,,,,,,,,,,,,,,,,,,,,,,,,,,,,,,,,machine,63,70,silent,white,1066.9851822999772,None,None,1066.9851822999772,None,,,,,,,,,,,,,,,,,,,,,,,,,,,,,,98NB,001,2023_Sep_08_1248,ExactRep-v3-final,2021.2.3,59.92319044165627,
,,,,,,,,70,0,70,0,,,,,,,,,,,,,,,,,,,,,,,,,,,,,,,,,,,,,,,,,,,,,,,,,,,,,1071.5038598000538,None,,,,,,,,,,,,,,,,,,,,,,,,,,,,,,,,,,,dress,55,71,silent,white,1069.489091400057,None,None,1069.489091400057,None,,,,,,,,,,,,,,,,,,,,,,,,,,,,,,98NB,001,2023_Sep_08_1248,ExactRep-v3-final,2021.2.3,59.92319044165627,
,,,,,,,,71,0,71,0,,,,,,,,,,,,,,,,,,,,,,,,,,,,,,,,,,,,,,,,,,,,,,,,,,,,,1074.023128699977,None,,,,,,,,,,,,,,,,,,,,,,,,,,,,,,,,,,,forest,49,72,silent,white,1072.0168331000023,None,None,1072.0168331000023,None,,,,,,,,,,,,,,,,,,,,,,,,,,,,,,98NB,001,2023_Sep_08_1248,ExactRep-v3-final,2021.2.3,59.92319044165627,
,,,,,,,,72,0,72,0,,,,,,,,,,,,,,,,,,,,,,,,,,,,,,,,,,,,,,,,,,,,,,,,,,,,,1076.5254337999504,None,,,,,,,,,,,,,,,,,,,,,,,,,,,,,,,,,,,breast,84,73,aloud,red,1074.523378700018,None,None,1074.523378700018,None,,,,,,,,,,,,,,,,,,,,,,,,,,,,,,98NB,001,2023_Sep_08_1248,ExactRep-v3-final,2021.2.3,59.92319044165627,
,,,,,,,,73,0,73,0,,,,,,,,,,,,,,,,,,,,,,,,,,,,,,,,,,,,,,,,,,,,,,,,,,,,,1079.027905400144,None,,,,,,,,,,,,,,,,,,,,,,,,,,,,,,,,,,,thought,117,74,aloud,red,1077.0267048999667,None,None,1077.0267048999667,None,,,,,,,,,,,,,,,,,,,,,,,,,,,,,,98NB,001,2023_Sep_08_1248,ExactRep-v3-final,2021.2.3,59.92319044165627,
,,,,,,,,74,0,74,0,,,,,,,,,,,,,,,,,,,,,,,,,,,,,,,,,,,,,,,,,,,,,,,,,,,,,1081.5474678999744,None,,,,,,,,,,,,,,,,,,,,,,,,,,,,,,,,,,,star,18,75,sing,blue,1079.534479800146,None,None,1079.534479800146,None,,,,,,,,,,,,,,,,,,,,,,,,,,,,,,98NB,001,2023_Sep_08_1248,ExactRep-v3-final,2021.2.3,59.92319044165627,
,,,,,,,,75,0,75,0,,,,,,,,,,,,,,,,,,,,,,,,,,,,,,,,,,,,,,,,,,,,,,,,,,,,,1084.06627940014,None,,,,,,,,,,,,,,,,,,,,,,,,,,,,,,,,,,,temple,71,76,silent,white,1082.0506362000015,None,None,1082.0506362000015,None,,,,,,,,,,,,,,,,,,,,,,,,,,,,,,98NB,001,2023_Sep_08_1248,ExactRep-v3-final,2021.2.3,59.92319044165627,
,,,,,,,,76,0,76,0,,,,,,,,,,,,,,,,,,,,,,,,,,,,,,,,,,,,,,,,,,,,,,,,,,,,,1086.5688742999919,None,,,,,,,,,,,,,,,,,,,,,,,,,,,,,,,,,,,river,16,77,sing,blue,1084.5668441001326,None,None,1084.5668441001326,None,,,,,,,,,,,,,,,,,,,,,,,,,,,,,,98NB,001,2023_Sep_08_1248,ExactRep-v3-final,2021.2.3,59.92319044165627,
,,,,,,,,77,0,77,0,,,,,,,,,,,,,,,,,,,,,,,,,,,,,,,,,,,,,,,,,,,,,,,,,,,,,1089.0712250000797,None,,,,,,,,,,,,,,,,,,,,,,,,,,,,,,,,,,,devil,33,78,sing,blue,1087.0701665000524,None,None,1087.0701665000524,None,,,,,,,,,,,,,,,,,,,,,,,,,,,,,,98NB,001,2023_Sep_08_1248,ExactRep-v3-final,2021.2.3,59.92319044165627,
,,,,,,,,78,0,78,0,,,,,,,,,,,,,,,,,,,,,,,,,,,,,,,,,,,,,,,,,,,,,,,,,,,,,1091.5738819001708,None,,,,,,,,,,,,,,,,,,,,,,,,,,,,,,,,,,,origin,72,79,silent,white,1089.5721558001824,None,None,1089.5721558001824,None,,,,,,,,,,,,,,,,,,,,,,,,,,,,,,98NB,001,2023_Sep_08_1248,ExactRep-v3-final,2021.2.3,59.92319044165627,
,,,,,,,,79,0,79,0,,,,,,,,,,,,,,,,,,,,,,,,,,,,,,,,,,,,,,,,,,,,,,,,,,,,,1094.0768628001679,None,,,,,,,,,,,,,,,,,,,,,,,,,,,,,,,,,,,cost,65,80,silent,white,1092.074429700151,None,None,1092.074429700151,None,,,,,,,,,,,,,,,,,,,,,,,,,,,,,,98NB,001,2023_Sep_08_1248,ExactRep-v3-final,2021.2.3,59.92319044165627,
,,,,,,,,80,0,80,0,,,,,,,,,,,,,,,,,,,,,,,,,,,,,,,,,,,,,,,,,,,,,,,,,,,,,1096.5956242999528,None,,,,,,,,,,,,,,,,,,,,,,,,,,,,,,,,,,,charm,7,81,sing,blue,1094.5885238000192,None,None,1094.5885238000192,None,,,,,,,,,,,,,,,,,,,,,,,,,,,,,,98NB,001,2023_Sep_08_1248,ExactRep-v3-final,2021.2.3,59.92319044165627,
,,,,,,,,81,0,81,0,,,,,,,,,,,,,,,,,,,,,,,,,,,,,,,,,,,,,,,,,,,,,,,,,,,,,1099.0979077001102,None,,,,,,,,,,,,,,,,,,,,,,,,,,,,,,,,,,,cat,39,82,silent,white,1097.0967227001674,None,None,1097.0967227001674,None,,,,,,,,,,,,,,,,,,,,,,,,,,,,,,98NB,001,2023_Sep_08_1248,ExactRep-v3-final,2021.2.3,59.92319044165627,
,,,,,,,,82,0,82,0,,,,,,,,,,,,,,,,,,,,,,,,,,,,,,,,,,,,,,,,,,,,,,,,,,,,,1101.600458299974,None,,,,,,,,,,,,,,,,,,,,,,,,,,,,,,,,,,,troops,88,83,aloud,red,1099.5989610999823,None,None,1099.5989610999823,None,,,,,,,,,,,,,,,,,,,,,,,,,,,,,,98NB,001,2023_Sep_08_1248,ExactRep-v3-final,2021.2.3,59.92319044165627,
,,,,,,,,83,0,83,0,,,,,,,,,,,,,,,,,,,,,,,,,,,,,,,,,,,,,,,,,,,,,,,,,,,,,1104.102877400117,None,,,,,,,,,,,,,,,,,,,,,,,,,,,,,,,,,,,student,14,84,sing,blue,1102.1013021001127,None,None,1102.1013021001127,None,,,,,,,,,,,,,,,,,,,,,,,,,,,,,,98NB,001,2023_Sep_08_1248,ExactRep-v3-final,2021.2.3,59.92319044165627,
,,,,,,,,84,0,84,0,,,,,,,,,,,,,,,,,,,,,,,,,,,,,,,,,,,,,,,,,,,,,,,,,,,,,1106.6226198000368,None,,,,,,,,,,,,,,,,,,,,,,,,,,,,,,,,,,,wife,43,85,silent,white,1104.6076689001638,None,None,1104.6076689001638,None,,,,,,,,,,,,,,,,,,,,,,,,,,,,,,98NB,001,2023_Sep_08_1248,ExactRep-v3-final,2021.2.3,59.92319044165627,
,,,,,,,,85,0,85,0,,,,,,,,,,,,,,,,,,,,,,,,,,,,,,,,,,,,,,,,,,,,,,,,,,,,,1109.1248715000693,None,,,,,,,,,,,,,,,,,,,,,,,,,,,,,,,,,,,army,29,86,sing,blue,1107.1231836001389,None,None,1107.1231836001389,None,,,,,,,,,,,,,,,,,,,,,,,,,,,,,,98NB,001,2023_Sep_08_1248,ExactRep-v3-final,2021.2.3,59.92319044165627,
,,,,,,,,86,0,86,0,,,,,,,,,,,,,,,,,,,,,,,,,,,,,,,,,,,,,,,,,,,,,,,,,,,,,1111.6270896000788,None,,,,,,,,,,,,,,,,,,,,,,,,,,,,,,,,,,,heaven,51,87,silent,white,1109.6271341000684,None,None,1109.6271341000684,None,,,,,,,,,,,,,,,,,,,,,,,,,,,,,,98NB,001,2023_Sep_08_1248,ExactRep-v3-final,2021.2.3,59.92319044165627,
,,,,,,,,87,0,87,0,,,,,,,,,,,,,,,,,,,,,,,,,,,,,,,,,,,,,,,,,,,,,,,,,,,,,1114.1478434000164,None,,,,,,,,,,,,,,,,,,,,,,,,,,,,,,,,,,,corn,36,88,sing,blue,1112.1322004999965,None,None,1112.1322004999965,None,,,,,,,,,,,,,,,,,,,,,,,,,,,,,,98NB,001,2023_Sep_08_1248,ExactRep-v3-final,2021.2.3,59.92319044165627,
,,,,,,,,88,0,88,0,,,,,,,,,,,,,,,,,,,,,,,,,,,,,,,,,,,,,,,,,,,,,,,,,,,,,1116.648953499971,None,,,,,,,,,,,,,,,,,,,,,,,,,,,,,,,,,,,mind,80,89,aloud,red,1114.649974900065,None,None,1114.649974900065,None,,,,,,,,,,,,,,,,,,,,,,,,,,,,,,98NB,001,2023_Sep_08_1248,ExactRep-v3-final,2021.2.3,59.92319044165627,
,,,,,,,,89,0,89,0,,,,,,,,,,,,,,,,,,,,,,,,,,,,,,,,,,,,,,,,,,,,,,,,,,,,,1119.1513948000502,None,,,,,,,,,,,,,,,,,,,,,,,,,,,,,,,,,,,passion,56,90,silent,white,1117.1499377000146,None,None,1117.1499377000146,None,,,,,,,,,,,,,,,,,,,,,,,,,,,,,,98NB,001,2023_Sep_08_1248,ExactRep-v3-final,2021.2.3,59.92319044165627,
,,,,,,,,90,0,90,0,,,,,,,,,,,,,,,,,,,,,,,,,,,,,,,,,,,,,,,,,,,,,,,,,,,,,1121.6708664000034,None,,,,,,,,,,,,,,,,,,,,,,,,,,,,,,,,,,,insect,27,91,sing,blue,1119.6559685000684,None,None,1119.6559685000684,None,,,,,,,,,,,,,,,,,,,,,,,,,,,,,,98NB,001,2023_Sep_08_1248,ExactRep-v3-final,2021.2.3,59.92319044165627,
,,,,,,,,91,0,91,0,,,,,,,,,,,,,,,,,,,,,,,,,,,,,,,,,,,,,,,,,,,,,,,,,,,,,1124.173166200053,None,,,,,,,,,,,,,,,,,,,,,,,,,,,,,,,,,,,master,1,92,sing,blue,1122.1737161001656,None,None,1122.1737161001656,None,,,,,,,,,,,,,,,,,,,,,,,,,,,,,,98NB,001,2023_Sep_08_1248,ExactRep-v3-final,2021.2.3,59.92319044165627,
,,,,,,,,92,0,92,0,,,,,,,,,,,,,,,,,,,,,,,,,,,,,,,,,,,,,,,,,,,,,,,,,,,,,1126.6922329000663,None,,,,,,,,,,,,,,,,,,,,,,,,,,,,,,,,,,,diamond,54,93,silent,white,1124.6862419000827,None,None,1124.6862419000827,None,,,,,,,,,,,,,,,,,,,,,,,,,,,,,,98NB,001,2023_Sep_08_1248,ExactRep-v3-final,2021.2.3,59.92319044165627,
,,,,,,,,93,0,93,0,,,,,,,,,,,,,,,,,,,,,,,,,,,,,,,,,,,,,,,,,,,,,,,,,,,,,1129.211410399992,None,,,,,,,,,,,,,,,,,,,,,,,,,,,,,,,,,,,cottage,82,94,aloud,red,1127.2009543001186,None,None,1127.2009543001186,None,,,,,,,,,,,,,,,,,,,,,,,,,,,,,,98NB,001,2023_Sep_08_1248,ExactRep-v3-final,2021.2.3,59.92319044165627,
,,,,,,,,94,0,94,0,,,,,,,,,,,,,,,,,,,,,,,,,,,,,,,,,,,,,,,,,,,,,,,,,,,,,1131.7305921001825,None,,,,,,,,,,,,,,,,,,,,,,,,,,,,,,,,,,,hour,90,95,aloud,red,1129.715052000014,None,None,1129.715052000014,None,,,,,,,,,,,,,,,,,,,,,,,,,,,,,,98NB,001,2023_Sep_08_1248,ExactRep-v3-final,2021.2.3,59.92319044165627,
,,,,,,,,95,0,95,0,,,,,,,,,,,,,,,,,,,,,,,,,,,,,,,,,,,,,,,,,,,,,,,,,,,,,1134.2337923999876,None,,,,,,,,,,,,,,,,,,,,,,,,,,,,,,,,,,,college,52,96,silent,white,1132.2310428000055,None,None,1132.2310428000055,None,,,,,,,,,,,,,,,,,,,,,,,,,,,,,,98NB,001,2023_Sep_08_1248,ExactRep-v3-final,2021.2.3,59.92319044165627,
,,,,,,,,96,0,96,0,,,,,,,,,,,,,,,,,,,,,,,,,,,,,,,,,,,,,,,,,,,,,,,,,,,,,1136.7363522001542,None,,,,,,,,,,,,,,,,,,,,,,,,,,,,,,,,,,,victory,73,97,silent,white,1134.7347224999685,None,None,1134.7347224999685,None,,,,,,,,,,,,,,,,,,,,,,,,,,,,,,98NB,001,2023_Sep_08_1248,ExactRep-v3-final,2021.2.3,59.92319044165627,
,,,,,,,,97,0,97,0,,,,,,,,,,,,,,,,,,,,,,,,,,,,,,,,,,,,,,,,,,,,,,,,,,,,,1139.238805100089,None,,,,,,,,,,,,,,,,,,,,,,,,,,,,,,,,,,,chief,4,98,sing,blue,1137.2366131001618,None,None,1137.2366131001618,None,,,,,,,,,,,,,,,,,,,,,,,,,,,,,,98NB,001,2023_Sep_08_1248,ExactRep-v3-final,2021.2.3,59.92319044165627,
,,,,,,,,98,0,98,0,,,,,,,,,,,,,,,,,,,,,,,,,,,,,,,,,,,,,,,,,,,,,,,,,,,,,1141.75757970009,None,,,,,,,,,,,,,,,,,,,,,,,,,,,,,,,,,,,amount,108,99,aloud,red,1139.751372900093,None,None,1139.751372900093,None,,,,,,,,,,,,,,,,,,,,,,,,,,,,,,98NB,001,2023_Sep_08_1248,ExactRep-v3-final,2021.2.3,59.92319044165627,
,,,,,,,,99,0,99,0,,,,,,,,,,,,,,,,,,,,,,,,,,,,,,,,,,,,,,,,,,,,,,,,,,,,,1144.2764525001403,None,,,,,,,,,,,,,,,,,,,,,,,,,,,,,,,,,,,hide,83,100,aloud,red,1142.2609226000495,None,None,1142.2609226000495,None,,,,,,,,,,,,,,,,,,,,,,,,,,,,,,98NB,001,2023_Sep_08_1248,ExactRep-v3-final,2021.2.3,59.92319044165627,
,,,,,,,,100,0,100,0,,,,,,,,,,,,,,,,,,,,,,,,,,,,,,,,,,,,,,,,,,,,,,,,,,,,,1146.7790765999816,None,,,,,,,,,,,,,,,,,,,,,,,,,,,,,,,,,,,board,94,101,aloud,red,1144.776885600062,None,None,1144.776885600062,None,,,,,,,,,,,,,,,,,,,,,,,,,,,,,,98NB,001,2023_Sep_08_1248,ExactRep-v3-final,2021.2.3,59.92319044165627,
,,,,,,,,101,0,101,0,,,,,,,,,,,,,,,,,,,,,,,,,,,,,,,,,,,,,,,,,,,,,,,,,,,,,1149.299328100169,None,,,,,,,,,,,,,,,,,,,,,,,,,,,,,,,,,,,table,76,102,silent,white,1147.292643000139,None,None,1147.292643000139,None,,,,,,,,,,,,,,,,,,,,,,,,,,,,,,98NB,001,2023_Sep_08_1248,ExactRep-v3-final,2021.2.3,59.92319044165627,
,,,,,,,,102,0,102,0,,,,,,,,,,,,,,,,,,,,,,,,,,,,,,,,,,,,,,,,,,,,,,,,,,,,,1151.800610500155,None,,,,,,,,,,,,,,,,,,,,,,,,,,,,,,,,,,,poet,20,103,sing,blue,1149.7990211001597,None,None,1149.7990211001597,None,,,,,,,,,,,,,,,,,,,,,,,,,,,,,,98NB,001,2023_Sep_08_1248,ExactRep-v3-final,2021.2.3,59.92319044165627,
,,,,,,,,103,0,103,0,,,,,,,,,,,,,,,,,,,,,,,,,,,,,,,,,,,,,,,,,,,,,,,,,,,,,1154.3030077000149,None,,,,,,,,,,,,,,,,,,,,,,,,,,,,,,,,,,,law,3,104,sing,blue,1152.3016175001394,None,None,1152.3016175001394,None,,,,,,,,,,,,,,,,,,,,,,,,,,,,,,98NB,001,2023_Sep_08_1248,ExactRep-v3-final,2021.2.3,59.92319044165627,
,,,,,,,,104,0,104,0,,,,,,,,,,,,,,,,,,,,,,,,,,,,,,,,,,,,,,,,,,,,,,,,,,,,,1156.8224792000838,None,,,,,,,,,,,,,,,,,,,,,,,,,,,,,,,,,,,window,96,105,aloud,red,1154.809041999979,None,None,1154.809041999979,None,,,,,,,,,,,,,,,,,,,,,,,,,,,,,,98NB,001,2023_Sep_08_1248,ExactRep-v3-final,2021.2.3,59.92319044165627,
,,,,,,,,105,0,105,0,,,,,,,,,,,,,,,,,,,,,,,,,,,,,,,,,,,,,,,,,,,,,,,,,,,,,1159.3247927001212,None,,,,,,,,,,,,,,,,,,,,,,,,,,,,,,,,,,,quality,119,106,aloud,red,1157.3255290000234,None,None,1157.3255290000234,None,,,,,,,,,,,,,,,,,,,,,,,,,,,,,,98NB,001,2023_Sep_08_1248,ExactRep-v3-final,2021.2.3,59.92319044165627,
,,,,,,,,106,0,106,0,,,,,,,,,,,,,,,,,,,,,,,,,,,,,,,,,,,,,,,,,,,,,,,,,,,,,1161.8445117000956,None,,,,,,,,,,,,,,,,,,,,,,,,,,,,,,,,,,,month,114,107,aloud,red,1159.838261500001,None,None,1159.838261500001,None,,,,,,,,,,,,,,,,,,,,,,,,,,,,,,98NB,001,2023_Sep_08_1248,ExactRep-v3-final,2021.2.3,59.92319044165627,
,,,,,,,,107,0,107,0,,,,,,,,,,,,,,,,,,,,,,,,,,,,,,,,,,,,,,,,,,,,,,,,,,,,,1164.3634357999545,None,,,,,,,,,,,,,,,,,,,,,,,,,,,,,,,,,,,water,11,108,sing,blue,1162.3479277000297,None,None,1162.3479277000297,None,,,,,,,,,,,,,,,,,,,,,,,,,,,,,,98NB,001,2023_Sep_08_1248,ExactRep-v3-final,2021.2.3,59.92319044165627,
,,,,,,,,108,0,108,0,,,,,,,,,,,,,,,,,,,,,,,,,,,,,,,,,,,,,,,,,,,,,,,,,,,,,1166.882567499997,None,,,,,,,,,,,,,,,,,,,,,,,,,,,,,,,,,,,cabin,2,109,sing,blue,1164.8673652000725,None,None,1164.8673652000725,None,,,,,,,,,,,,,,,,,,,,,,,,,,,,,,98NB,001,2023_Sep_08_1248,ExactRep-v3-final,2021.2.3,59.92319044165627,
,,,,,,,,109,0,109,0,,,,,,,,,,,,,,,,,,,,,,,,,,,,,,,,,,,,,,,,,,,,,,,,,,,,,1169.3851561001502,None,,,,,,,,,,,,,,,,,,,,,,,,,,,,,,,,,,,person,101,110,aloud,red,1167.3849141001701,None,None,1167.3849141001701,None,,,,,,,,,,,,,,,,,,,,,,,,,,,,,,98NB,001,2023_Sep_08_1248,ExactRep-v3-final,2021.2.3,59.92319044165627,
,,,,,,,,110,0,110,0,,,,,,,,,,,,,,,,,,,,,,,,,,,,,,,,,,,,,,,,,,,,,,,,,,,,,1171.9043151000515,None,,,,,,,,,,,,,,,,,,,,,,,,,,,,,,,,,,,prison,8,111,sing,blue,1169.889278799994,None,None,1169.889278799994,None,,,,,,,,,,,,,,,,,,,,,,,,,,,,,,98NB,001,2023_Sep_08_1248,ExactRep-v3-final,2021.2.3,59.92319044165627,
,,,,,,,,111,0,111,0,,,,,,,,,,,,,,,,,,,,,,,,,,,,,,,,,,,,,,,,,,,,,,,,,,,,,1174.4065249999985,None,,,,,,,,,,,,,,,,,,,,,,,,,,,,,,,,,,,dream,118,112,aloud,red,1172.4040864000563,None,None,1172.4040864000563,None,,,,,,,,,,,,,,,,,,,,,,,,,,,,,,98NB,001,2023_Sep_08_1248,ExactRep-v3-final,2021.2.3,59.92319044165627,
,,,,,,,,112,0,112,0,,,,,,,,,,,,,,,,,,,,,,,,,,,,,,,,,,,,,,,,,,,,,,,,,,,,,1176.9262298000976,None,,,,,,,,,,,,,,,,,,,,,,,,,,,,,,,,,,,world,110,113,aloud,red,1174.910757600097,None,None,1174.910757600097,None,,,,,,,,,,,,,,,,,,,,,,,,,,,,,,98NB,001,2023_Sep_08_1248,ExactRep-v3-final,2021.2.3,59.92319044165627,
,,,,,,,,113,0,113,0,,,,,,,,,,,,,,,,,,,,,,,,,,,,,,,,,,,,,,,,,,,,,,,,,,,,,1179.4282746999525,None,,,,,,,,,,,,,,,,,,,,,,,,,,,,,,,,,,,string,100,114,aloud,red,1177.426793700084,None,None,1177.426793700084,None,,,,,,,,,,,,,,,,,,,,,,,,,,,,,,98NB,001,2023_Sep_08_1248,ExactRep-v3-final,2021.2.3,59.92319044165627,
,,,,,,,,114,0,114,0,,,,,,,,,,,,,,,,,,,,,,,,,,,,,,,,,,,,,,,,,,,,,,,,,,,,,1181.9309050999582,None,,,,,,,,,,,,,,,,,,,,,,,,,,,,,,,,,,,teacher,78,115,silent,white,1179.9310934001114,None,None,1179.9310934001114,None,,,,,,,,,,,,,,,,,,,,,,,,,,,,,,98NB,001,2023_Sep_08_1248,ExactRep-v3-final,2021.2.3,59.92319044165627,
,,,,,,,,115,0,115,0,,,,,,,,,,,,,,,,,,,,,,,,,,,,,,,,,,,,,,,,,,,,,,,,,,,,,1184.4332016999833,None,,,,,,,,,,,,,,,,,,,,,,,,,,,,,,,,,,,sky,68,116,silent,white,1182.4337606001645,None,None,1182.4337606001645,None,,,,,,,,,,,,,,,,,,,,,,,,,,,,,,98NB,001,2023_Sep_08_1248,ExactRep-v3-final,2021.2.3,59.92319044165627,
,,,,,,,,116,0,116,0,,,,,,,,,,,,,,,,,,,,,,,,,,,,,,,,,,,,,,,,,,,,,,,,,,,,,1186.9357640000526,None,,,,,,,,,,,,,,,,,,,,,,,,,,,,,,,,,,,camp,22,117,sing,blue,1184.93412910006,None,None,1184.93412910006,None,,,,,,,,,,,,,,,,,,,,,,,,,,,,,,98NB,001,2023_Sep_08_1248,ExactRep-v3-final,2021.2.3,59.92319044165627,
,,,,,,,,117,0,117,0,,,,,,,,,,,,,,,,,,,,,,,,,,,,,,,,,,,,,,,,,,,,,,,,,,,,,1189.4383480001707,None,,,,,,,,,,,,,,,,,,,,,,,,,,,,,,,,,,,colony,95,118,aloud,red,1187.438019500114,None,None,1187.438019500114,None,,,,,,,,,,,,,,,,,,,,,,,,,,,,,,98NB,001,2023_Sep_08_1248,ExactRep-v3-final,2021.2.3,59.92319044165627,
,,,,,,,,118,0,118,0,,,,,,,,,,,,,,,,,,,,,,,,,,,,,,,,,,,,,,,,,,,,,,,,,,,,,1191.9576982001308,None,,,,,,,,,,,,,,,,,,,,,,,,,,,,,,,,,,,doll,23,119,sing,blue,1189.942741499981,None,None,1189.942741499981,None,,,,,,,,,,,,,,,,,,,,,,,,,,,,,,98NB,001,2023_Sep_08_1248,ExactRep-v3-final,2021.2.3,59.92319044165627,
,,,,,,,,119,0,119,0,,,,,,,,,,,,,,,,,,,,,,,,,,,,,,,,,,,,,,,,,,,,,,,,,,,,,1194.4598419000395,None,,,,,,,,,,,,,,,,,,,,,,,,,,,,,,,,,,,ocean,19,120,sing,blue,1192.459037099965,None,None,1192.459037099965,None,,,,,,,,,,,,,,,,,,,,,,,,,,,,,,98NB,001,2023_Sep_08_1248,ExactRep-v3-final,2021.2.3,59.92319044165627,
,,,,,,,,,,,,,,,,,,,,,,,,,,,,,,,,,,,,,,,,,,,,,,,,,,,,,,,,,,,,,,,,,,,,,,,,,,,,,,,,,,,,,,,,,,,,,,,,,,,,,,,,,,,,,,1194.9604405001737,None,space,0.9879269998054951,1204.9381226000842,None,,,,,,,,,,,,,,,,,,,,,,,,98NB,001,2023_Sep_08_1248,ExactRep-v3-final,2021.2.3,59.92319044165627,
,,,,,,,,,,,,,,,,,,,,,,,,,,,,,,,,,,,,,,,,,,,,,,,,,,,,,,,,,,,,,,,,,,,,,,,,,,,,,,,,,,,,,,,,,,,,,,,,,,,,,,,,,,,,,,,,,,,,1205.9564261999913,None,space,29.105412700213492,1215.9325780000072,None,,,,,,,,,,,,,,,,,,98NB,001,2023_Sep_08_1248,ExactRep-v3-final,2021.2.3,59.92319044165627,
,,,,,,,,,,,,0,0,0,0,,,,,,,,,,,,,,,,,,,,,,,,,,,,,,,,,,,,,,,,,,,,,,,,,1248.632898000069,None,,,,,,,,,,,,,,,,,,,,,,,,,,,,,,,,,,,,,,,,,,,,,,,,,,,,,,,,,board,94,1,aloud,old,yellow,1245.5735031999648,None,y,1245.5735031999648,None,"['y', 'return']","[1.9043487999588251, 3.0161923998966813]",1245.5735031999648,None,,,98NB,001,2023_Sep_08_1248,ExactRep-v3-final,2021.2.3,59.92319044165627,
,,,,,,,,,,,,1,0,1,0,,,,,,,,,,,,,,,,,,,,,,,,,,,,,,,,,,,,,,,,,,,,,,,,,1251.1844181001652,None,,,,,,,,,,,,,,,,,,,,,,,,,,,,,,,,,,,,,,,,,,,,,,,,,,,,,,,,,air,231,2,sing,new,yellow,1249.1500599000137,None,n,1249.1500599000137,None,"['n', 'return']","[1.5195823998656124, 1.9916817999910563]",1249.1500599000137,None,,,98NB,001,2023_Sep_08_1248,ExactRep-v3-final,2021.2.3,59.92319044165627,
,,,,,,,,,,,,2,0,2,0,,,,,,,,,,,,,,,,,,,,,,,,,,,,,,,,,,,,,,,,,,,,,,,,,1253.8034483001102,None,,,,,,,,,,,,,,,,,,,,,,,,,,,,,,,,,,,,,,,,,,,,,,,,,,,,,,,,,love,26,3,sing,old,yellow,1251.685164200142,None,y,1251.685164200142,None,"['y', 'return']","[1.568472000071779, 2.072424399899319]",1251.685164200142,None,,,98NB,001,2023_Sep_08_1248,ExactRep-v3-final,2021.2.3,59.92319044165627,
,,,,,,,,,,,,3,0,3,0,,,,,,,,,,,,,,,,,,,,,,,,,,,,,,,,,,,,,,,,,,,,,,,,,1256.823971700156,None,,,,,,,,,,,,,,,,,,,,,,,,,,,,,,,,,,,,,,,,,,,,,,,,,,,,,,,,,letter,179,4,sing,new,yellow,1254.3052471000701,None,y,1254.3052471000701,None,"['y', 'return']","[2.0603895999956876, 2.48454049997963]",1254.3052471000701,None,,,98NB,001,2023_Sep_08_1248,ExactRep-v3-final,2021.2.3,59.92319044165627,
,,,,,,,,,,,,4,0,4,0,,,,,,,,,,,,,,,,,,,,,,,,,,,,,,,,,,,,,,,,,,,,,,,,,1259.4753109000158,None,,,,,,,,,,,,,,,,,,,,,,,,,,,,,,,,,,,,,,,,,,,,,,,,,,,,,,,,,fire,200,5,aloud,new,yellow,1257.340368800098,None,n,1257.340368800098,None,"['n', 'return']","[1.5532845000270754, 2.089297099970281]",1257.340368800098,None,,,98NB,001,2023_Sep_08_1248,ExactRep-v3-final,2021.2.3,59.92319044165627,
,,,,,,,,,,,,5,0,5,0,,,,,,,,,,,,,,,,,,,,,,,,,,,,,,,,,,,,,,,,,,,,,,,,,1263.8639553000685,None,,,,,,,,,,,,,,,,,,,,,,,,,,,,,,,,,,,,,,,,,,,,,,,,,,,,,,,,,death,122,6,silent,new,yellow,1259.977959800046,None,y,1259.977959800046,None,"['y', 'return']","[3.371678499970585, 3.8436739000026137]",1259.977959800046,None,,,98NB,001,2023_Sep_08_1248,ExactRep-v3-final,2021.2.3,59.92319044165627,
,,,,,,,,,,,,6,0,6,0,,,,,,,,,,,,,,,,,,,,,,,,,,,,,,,,,,,,,,,,,,,,,,,,,1266.6835719000082,None,,,,,,,,,,,,,,,,,,,,,,,,,,,,,,,,,,,,,,,,,,,,,,,,,,,,,,,,,prayer,125,7,silent,new,yellow,1264.3657019000966,None,n,1264.3657019000966,None,"['n', 'return']","[1.4320187999401242, 2.279924200149253]",1264.3657019000966,None,,,98NB,001,2023_Sep_08_1248,ExactRep-v3-final,2021.2.3,59.92319044165627,
,,,,,,,,,,,,7,0,7,0,,,,,,,,,,,,,,,,,,,,,,,,,,,,,,,,,,,,,,,,,,,,,,,,,1270.7875924000982,None,,,,,,,,,,,,,,,,,,,,,,,,,,,,,,,,,,,,,,,,,,,,,,,,,,,,,,,,,honour,228,8,aloud,new,yellow,1267.2007404000033,None,n,1267.2007404000033,None,"['n', 'return']","[1.6449003999587148, 3.5488747998606414]",1267.2007404000033,None,,,98NB,001,2023_Sep_08_1248,ExactRep-v3-final,2021.2.3,59.92319044165627,
,,,,,,,,,,,,8,0,8,0,,,,,,,,,,,,,,,,,,,,,,,,,,,,,,,,,,,,,,,,,,,,,,,,,1277.7113279001787,None,,,,,,,,,,,,,,,,,,,,,,,,,,,,,,,,,,,,,,,,,,,,,,,,,,,,,,,,,car,196,9,aloud,new,yellow,1271.3066347001586,None,y,1271.3066347001586,None,"['y', 'return']","[5.890949000138789, 6.3630254000891]",1271.3066347001586,None,,,98NB,001,2023_Sep_08_1248,ExactRep-v3-final,2021.2.3,59.92319044165627,
,,,,,,,,,,,,9,0,9,0,,,,,,,,,,,,,,,,,,,,,,,,,,,,,,,,,,,,,,,,,,,,,,,,,1281.0649415000807,None,,,,,,,,,,,,,,,,,,,,,,,,,,,,,,,,,,,,,,,,,,,,,,,,,,,,,,,,,sky,68,10,silent,old,yellow,1278.2198934000917,None,y,1278.2198934000917,None,"['y', 'return']","[2.393774399999529, 2.8017405001446605]",1278.2198934000917,None,,,98NB,001,2023_Sep_08_1248,ExactRep-v3-final,2021.2.3,59.92319044165627,
,,,,,,,,,,,,10,0,10,0,,,,,,,,,,,,,,,,,,,,,,,,,,,,,,,,,,,,,,,,,,,,,,,,,1283.4502252000384,None,,,,,,,,,,,,,,,,,,,,,,,,,,,,,,,,,,,,,,,,,,,,,,,,,,,,,,,,,breast,84,11,aloud,old,yellow,1281.5819198000245,None,y,1281.5819198000245,None,"['y', 'return']","[1.2957847998477519, 1.8320588998030871]",1281.5819198000245,None,,,98NB,001,2023_Sep_08_1248,ExactRep-v3-final,2021.2.3,59.92319044165627,
,,,,,,,,,,,,11,0,11,0,,,,,,,,,,,,,,,,,,,,,,,,,,,,,,,,,,,,,,,,,,,,,,,,,1285.986747100018,None,,,,,,,,,,,,,,,,,,,,,,,,,,,,,,,,,,,,,,,,,,,,,,,,,,,,,,,,,coast,201,12,sing,new,yellow,1283.9520297001582,None,y,1283.9520297001582,None,"['y', 'return']","[1.485603200038895, 1.9897201000712812]",1283.9520297001582,None,,,98NB,001,2023_Sep_08_1248,ExactRep-v3-final,2021.2.3,59.92319044165627,
,,,,,,,,,,,,12,0,12,0,,,,,,,,,,,,,,,,,,,,,,,,,,,,,,,,,,,,,,,,,,,,,,,,,1288.6025792001747,None,,,,,,,,,,,,,,,,,,,,,,,,,,,,,,,,,,,,,,,,,,,,,,,,,,,,,,,,,forest,49,13,silent,old,yellow,1286.497232900001,None,y,1286.497232900001,None,"['y', 'return']","[1.5483830000739545, 2.044416799908504]",1286.497232900001,None,,,98NB,001,2023_Sep_08_1248,ExactRep-v3-final,2021.2.3,59.92319044165627,
,,,,,,,,,,,,13,0,13,0,,,,,,,,,,,,,,,,,,,,,,,,,,,,,,,,,,,,,,,,,,,,,,,,,1291.2750393000897,None,,,,,,,,,,,,,,,,,,,,,,,,,,,,,,,,,,,,,,,,,,,,,,,,,,,,,,,,,shadow,79,14,sing,old,yellow,1289.1147535999771,None,y,1289.1147535999771,None,"['y', 'return']","[1.6911253000143915, 2.114843500079587]",1289.1147535999771,None,,,98NB,001,2023_Sep_08_1248,ExactRep-v3-final,2021.2.3,59.92319044165627,
,,,,,,,,,,,,14,0,14,0,,,,,,,,,,,,,,,,,,,,,,,,,,,,,,,,,,,,,,,,,,,,,,,,,1293.710586000001,None,,,,,,,,,,,,,,,,,,,,,,,,,,,,,,,,,,,,,,,,,,,,,,,,,,,,,,,,,freedom,169,15,sing,new,yellow,1291.7797247001436,None,n,1291.7797247001436,None,"['n', 'return']","[1.393923700088635, 1.881868900032714]",1291.7797247001436,None,,,98NB,001,2023_Sep_08_1248,ExactRep-v3-final,2021.2.3,59.92319044165627,
,,,,,,,,,,,,15,0,15,0,,,,,,,,,,,,,,,,,,,,,,,,,,,,,,,,,,,,,,,,,,,,,,,,,1296.8303972000722,None,,,,,,,,,,,,,,,,,,,,,,,,,,,,,,,,,,,,,,,,,,,,,,,,,,,,,,,,,house,38,16,sing,old,yellow,1294.217775200028,None,y,1294.217775200028,None,"['y', 'return']","[2.171840399969369, 2.5718709998764098]",1294.217775200028,None,,,98NB,001,2023_Sep_08_1248,ExactRep-v3-final,2021.2.3,59.92319044165627,
,,,,,,,,,,,,16,0,16,0,,,,,,,,,,,,,,,,,,,,,,,,,,,,,,,,,,,,,,,,,,,,,,,,,1299.1497520999983,None,,,,,,,,,,,,,,,,,,,,,,,,,,,,,,,,,,,,,,,,,,,,,,,,,,,,,,,,,book,220,17,aloud,new,yellow,1297.3612683000974,None,n,1297.3612683000974,None,"['n', 'return']","[1.3243891999591142, 1.7403669999912381]",1297.3612683000974,None,,,98NB,001,2023_Sep_08_1248,ExactRep-v3-final,2021.2.3,59.92319044165627,
,,,,,,,,,,,,17,0,17,0,,,,,,,,,,,,,,,,,,,,,,,,,,,,,,,,,,,,,,,,,,,,,,,,,1302.0326160001568,None,,,,,,,,,,,,,,,,,,,,,,,,,,,,,,,,,,,,,,,,,,,,,,,,,,,,,,,,,friend,148,18,silent,new,yellow,1299.6748305000365,None,n,1299.6748305000365,None,"['n', 'return']","[1.78678989992477, 2.298778699943796]",1299.6748305000365,None,,,98NB,001,2023_Sep_08_1248,ExactRep-v3-final,2021.2.3,59.92319044165627,
,,,,,,,,,,,,18,0,18,0,,,,,,,,,,,,,,,,,,,,,,,,,,,,,,,,,,,,,,,,,,,,,,,,,1304.7372733000666,None,,,,,,,,,,,,,,,,,,,,,,,,,,,,,,,,,,,,,,,,,,,,,,,,,,,,,,,,,stone,161,19,sing,new,yellow,1302.5406156999525,None,n,1302.5406156999525,None,"['n', 'return']","[1.7050089000258595, 2.1530119001399726]",1302.5406156999525,None,,,98NB,001,2023_Sep_08_1248,ExactRep-v3-final,2021.2.3,59.92319044165627,
,,,,,,,,,,,,19,0,19,0,,,,,,,,,,,,,,,,,,,,,,,,,,,,,,,,,,,,,,,,,,,,,,,,,1307.7066941000521,None,,,,,,,,,,,,,,,,,,,,,,,,,,,,,,,,,,,,,,,,,,,,,,,,,,,,,,,,,machine,63,20,silent,old,yellow,1305.239024600014,None,n,1305.239024600014,None,"['n', 'return']","[1.542591999983415, 2.430564299924299]",1305.239024600014,None,,,98NB,001,2023_Sep_08_1248,ExactRep-v3-final,2021.2.3,59.92319044165627,
,,,,,,,,,,,,20,0,20,0,,,,,,,,,,,,,,,,,,,,,,,,,,,,,,,,,,,,,,,,,,,,,,,,,1312.5963238000404,None,,,,,,,,,,,,,,,,,,,,,,,,,,,,,,,,,,,,,,,,,,,,,,,,,,,,,,,,,mind,80,21,aloud,old,yellow,1308.209007400088,None,y,1308.209007400088,None,"['y', 'return']","[3.636653499910608, 4.340684999944642]",1308.209007400088,None,,,98NB,001,2023_Sep_08_1248,ExactRep-v3-final,2021.2.3,59.92319044165627,
,,,,,,,,,,,,21,0,21,0,,,,,,,,,,,,,,,,,,,,,,,,,,,,,,,,,,,,,,,,,,,,,,,,,1315.5992291001603,None,,,,,,,,,,,,,,,,,,,,,,,,,,,,,,,,,,,,,,,,,,,,,,,,,,,,,,,,,series,77,22,silent,old,yellow,1313.1019016001374,None,y,1313.1019016001374,None,"['y', 'return']","[2.015724099939689, 2.463802999816835]",1313.1019016001374,None,,,98NB,001,2023_Sep_08_1248,ExactRep-v3-final,2021.2.3,59.92319044165627,
,,,,,,,,,,,,22,0,22,0,,,,,,,,,,,,,,,,,,,,,,,,,,,,,,,,,,,,,,,,,,,,,,,,,1317.7511788001284,None,,,,,,,,,,,,,,,,,,,,,,,,,,,,,,,,,,,,,,,,,,,,,,,,,,,,,,,,,fate,44,23,silent,old,yellow,1316.1061120000668,None,y,1316.1061120000668,None,"['y', 'return']","[1.1795866000466049, 1.6035674000158906]",1316.1061120000668,None,,,98NB,001,2023_Sep_08_1248,ExactRep-v3-final,2021.2.3,59.92319044165627,
,,,,,,,,,,,,23,0,23,0,,,,,,,,,,,,,,,,,,,,,,,,,,,,,,,,,,,,,,,,,,,,,,,,,1320.2872662001755,None,,,,,,,,,,,,,,,,,,,,,,,,,,,,,,,,,,,,,,,,,,,,,,,,,,,,,,,,,shoes,121,24,silent,new,yellow,1318.282998500159,None,n,1318.282998500159,None,"['n', 'return']","[1.5865795998834074, 1.9707145998254418]",1318.282998500159,None,,,98NB,001,2023_Sep_08_1248,ExactRep-v3-final,2021.2.3,59.92319044165627,
,,,,,,,,,,,,24,0,24,0,,,,,,,,,,,,,,,,,,,,,,,,,,,,,,,,,,,,,,,,,,,,,,,,,1324.25800300017,None,,,,,,,,,,,,,,,,,,,,,,,,,,,,,,,,,,,,,,,,,,,,,,,,,,,,,,,,,dollar,24,25,sing,old,yellow,1320.8041914000642,None,y,1320.8041914000642,None,"['y', 'return']","[2.9134248001500964, 3.4175058000255376]",1320.8041914000642,None,,,98NB,001,2023_Sep_08_1248,ExactRep-v3-final,2021.2.3,59.92319044165627,
,,,,,,,,,,,,25,0,25,0,,,,,,,,,,,,,,,,,,,,,,,,,,,,,,,,,,,,,,,,,,,,,,,,,1327.5608679000288,None,,,,,,,,,,,,,,,,,,,,,,,,,,,,,,,,,,,,,,,,,,,,,,,,,,,,,,,,,bar,226,26,aloud,new,yellow,1324.7667831999715,None,n,1324.7667831999715,None,"['n', 'return']","[1.9348148999270052, 2.759067799896002]",1324.7667831999715,None,,,98NB,001,2023_Sep_08_1248,ExactRep-v3-final,2021.2.3,59.92319044165627,
,,,,,,,,,,,,26,0,26,0,,,,,,,,,,,,,,,,,,,,,,,,,,,,,,,,,,,,,,,,,,,,,,,,,1329.7798874001019,None,,,,,,,,,,,,,,,,,,,,,,,,,,,,,,,,,,,,,,,,,,,,,,,,,,,,,,,,,moral,223,27,sing,new,yellow,1328.0772015000694,None,n,1328.0772015000694,None,"['n', 'return']","[1.176404400030151, 1.6564058000221848]",1328.0772015000694,None,,,98NB,001,2023_Sep_08_1248,ExactRep-v3-final,2021.2.3,59.92319044165627,
,,,,,,,,,,,,27,0,27,0,,,,,,,,,,,,,,,,,,,,,,,,,,,,,,,,,,,,,,,,,,,,,,,,,1331.8977059000172,None,,,,,,,,,,,,,,,,,,,,,,,,,,,,,,,,,,,,,,,,,,,,,,,,,,,,,,,,,dream,118,28,aloud,old,yellow,1330.2864300000947,None,y,1330.2864300000947,None,"['y', 'return']","[1.1352818999439478, 1.5671572999563068]",1330.2864300000947,None,,,98NB,001,2023_Sep_08_1248,ExactRep-v3-final,2021.2.3,59.92319044165627,
,,,,,,,,,,,,28,0,28,0,,,,,,,,,,,,,,,,,,,,,,,,,,,,,,,,,,,,,,,,,,,,,,,,,1334.1678806000855,None,,,,,,,,,,,,,,,,,,,,,,,,,,,,,,,,,,,,,,,,,,,,,,,,,,,,,,,,,butter,74,29,silent,old,yellow,1332.413368199952,None,y,1332.413368199952,None,"['y', 'return']","[1.1202564002014697, 1.7122355999890715]",1332.413368199952,None,,,98NB,001,2023_Sep_08_1248,ExactRep-v3-final,2021.2.3,59.92319044165627,
,,,,,,,,,,,,29,0,29,0,,,,,,,,,,,,,,,,,,,,,,,,,,,,,,,,,,,,,,,,,,,,,,,,,1336.8872351001482,None,,,,,,,,,,,,,,,,,,,,,,,,,,,,,,,,,,,,,,,,,,,,,,,,,,,,,,,,,kiss,174,30,aloud,new,yellow,1334.6851482000202,None,n,1334.6851482000202,None,"['n', 'return']","[1.584483099868521, 2.152487999992445]",1334.6851482000202,None,,,98NB,001,2023_Sep_08_1248,ExactRep-v3-final,2021.2.3,59.92319044165627,
,,,,,,,,,,,,30,0,30,0,,,,,,,,,,,,,,,,,,,,,,,,,,,,,,,,,,,,,,,,,,,,,,,,,1339.9912970999721,None,,,,,,,,,,,,,,,,,,,,,,,,,,,,,,,,,,,,,,,,,,,,,,,,,,,,,,,,,idea,127,31,silent,new,yellow,1337.404130200157,None,n,1337.404130200157,None,"['n', 'return']","[1.8496781999710947, 2.537510900059715]",1337.404130200157,None,,,98NB,001,2023_Sep_08_1248,ExactRep-v3-final,2021.2.3,59.92319044165627,
,,,,,,,,,,,,31,0,31,0,,,,,,,,,,,,,,,,,,,,,,,,,,,,,,,,,,,,,,,,,,,,,,,,,1344.1943167999852,None,,,,,,,,,,,,,,,,,,,,,,,,,,,,,,,,,,,,,,,,,,,,,,,,,,,,,,,,,length,53,32,silent,old,yellow,1340.508106000023,None,n,1340.508106000023,None,"['n', 'return']","[3.2338105000089854, 3.6496099000796676]",1340.508106000023,None,,,98NB,001,2023_Sep_08_1248,ExactRep-v3-final,2021.2.3,59.92319044165627,
,,,,,,,,,,,,32,0,32,0,,,,,,,,,,,,,,,,,,,,,,,,,,,,,,,,,,,,,,,,,,,,,,,,,1349.1329318999778,None,,,,,,,,,,,,,,,,,,,,,,,,,,,,,,,,,,,,,,,,,,,,,,,,,,,,,,,,,lip,178,33,aloud,new,yellow,1344.7107933000661,None,y,1344.7107933000661,None,"['n', 'backspace', 'y', 'return']","[1.9907811000011861, 3.3268483001738787, 3.8068242999725044, 4.382824300089851]",1344.7107933000661,None,,,98NB,001,2023_Sep_08_1248,ExactRep-v3-final,2021.2.3,59.92319044165627,
,,,,,,,,,,,,33,0,33,0,,,,,,,,,,,,,,,,,,,,,,,,,,,,,,,,,,,,,,,,,,,,,,,,,1351.217920300085,None,,,,,,,,,,,,,,,,,,,,,,,,,,,,,,,,,,,,,,,,,,,,,,,,,,,,,,,,,army,29,34,sing,old,yellow,1349.6497243000194,None,y,1349.6497243000194,None,"['y', 'return']","[1.1399913998320699, 1.5238737999461591]",1349.6497243000194,None,,,98NB,001,2023_Sep_08_1248,ExactRep-v3-final,2021.2.3,59.92319044165627,
,,,,,,,,,,,,34,0,34,0,,,,,,,,,,,,,,,,,,,,,,,,,,,,,,,,,,,,,,,,,,,,,,,,,1353.8873437000439,None,,,,,,,,,,,,,,,,,,,,,,,,,,,,,,,,,,,,,,,,,,,,,,,,,,,,,,,,,animal,113,35,aloud,old,yellow,1351.7198208000045,None,y,1351.7198208000045,None,"['y', 'return']","[1.6538160999771208, 2.1257746999617666]",1351.7198208000045,None,,,98NB,001,2023_Sep_08_1248,ExactRep-v3-final,2021.2.3,59.92319044165627,
,,,,,,,,,,,,35,0,35,0,,,,,,,,,,,,,,,,,,,,,,,,,,,,,,,,,,,,,,,,,,,,,,,,,1356.4900897000916,None,,,,,,,,,,,,,,,,,,,,,,,,,,,,,,,,,,,,,,,,,,,,,,,,,,,,,,,,,woman,81,36,aloud,old,yellow,1354.4035678000655,None,y,1354.4035678000655,None,"['y', 'return']","[1.6502485000528395, 2.0502090000081807]",1354.4035678000655,None,,,98NB,001,2023_Sep_08_1248,ExactRep-v3-final,2021.2.3,59.92319044165627,
,,,,,,,,,,,,36,0,36,0,,,,,,,,,,,,,,,,,,,,,,,,,,,,,,,,,,,,,,,,,,,,,,,,,1361.7778807000723,None,,,,,,,,,,,,,,,,,,,,,,,,,,,,,,,,,,,,,,,,,,,,,,,,,,,,,,,,,flower,45,37,silent,old,yellow,1357.0071743000299,None,y,1357.0071743000299,None,"['y', 'return']","[4.198441799962893, 4.726365000009537]",1357.0071743000299,None,,,98NB,001,2023_Sep_08_1248,ExactRep-v3-final,2021.2.3,59.92319044165627,
,,,,,,,,,,,,37,0,37,0,,,,,,,,,,,,,,,,,,,,,,,,,,,,,,,,,,,,,,,,,,,,,,,,,1363.9473371000495,None,,,,,,,,,,,,,,,,,,,,,,,,,,,,,,,,,,,,,,,,,,,,,,,,,,,,,,,,,meeting,187,38,sing,new,yellow,1362.29636700009,None,n,1362.29636700009,None,"['n', 'return']","[1.2291957999113947, 1.6052007998805493]",1362.29636700009,None,,,98NB,001,2023_Sep_08_1248,ExactRep-v3-final,2021.2.3,59.92319044165627,
,,,,,,,,,,,,38,0,38,0,,,,,,,,,,,,,,,,,,,,,,,,,,,,,,,,,,,,,,,,,,,,,,,,,1366.6840814000461,None,,,,,,,,,,,,,,,,,,,,,,,,,,,,,,,,,,,,,,,,,,,,,,,,,,,,,,,,,beast,115,39,aloud,old,yellow,1364.4738036000635,None,y,1364.4738036000635,None,"['y', 'return']","[1.8199060000479221, 2.171755600022152]",1364.4738036000635,None,,,98NB,001,2023_Sep_08_1248,ExactRep-v3-final,2021.2.3,59.92319044165627,
,,,,,,,,,,,,39,0,39,0,,,,,,,,,,,,,,,,,,,,,,,,,,,,,,,,,,,,,,,,,,,,,,,,,1370.6545543000102,None,,,,,,,,,,,,,,,,,,,,,,,,,,,,,,,,,,,,,,,,,,,,,,,,,,,,,,,,,shore,238,40,aloud,new,yellow,1367.2010397999547,None,y,1367.2010397999547,None,"['y', 'return']","[2.924582300009206, 3.4126051999628544]",1367.2010397999547,None,,,98NB,001,2023_Sep_08_1248,ExactRep-v3-final,2021.2.3,59.92319044165627,
,,,,,,,,,,,,40,0,40,0,,,,,,,,,,,,,,,,,,,,,,,,,,,,,,,,,,,,,,,,,,,,,,,,,1374.1407304999884,None,,,,,,,,,,,,,,,,,,,,,,,,,,,,,,,,,,,,,,,,,,,,,,,,,,,,,,,,,horse,160,41,aloud,new,yellow,1371.1702133000363,None,y,1371.1702133000363,None,"['y', 'return']","[2.531390600139275, 2.931429299991578]",1371.1702133000363,None,,,98NB,001,2023_Sep_08_1248,ExactRep-v3-final,2021.2.3,59.92319044165627,
,,,,,,,,,,,,41,0,41,0,,,,,,,,,,,,,,,,,,,,,,,,,,,,,,,,,,,,,,,,,,,,,,,,,1376.5403666000348,None,,,,,,,,,,,,,,,,,,,,,,,,,,,,,,,,,,,,,,,,,,,,,,,,,,,,,,,,,chair,216,42,aloud,new,yellow,1374.6414014999755,None,n,1374.6414014999755,None,"['n', 'return']","[1.30834240000695, 1.8362980000674725]",1374.6414014999755,None,,,98NB,001,2023_Sep_08_1248,ExactRep-v3-final,2021.2.3,59.92319044165627,
,,,,,,,,,,,,42,0,42,0,,,,,,,,,,,,,,,,,,,,,,,,,,,,,,,,,,,,,,,,,,,,,,,,,1378.7951060000341,None,,,,,,,,,,,,,,,,,,,,,,,,,,,,,,,,,,,,,,,,,,,,,,,,,,,,,,,,,coin,233,43,sing,new,yellow,1377.0438404001761,None,n,1377.0438404001761,None,"['n', 'return']","[1.1538502001203597, 1.7137460999656469]",1377.0438404001761,None,,,98NB,001,2023_Sep_08_1248,ExactRep-v3-final,2021.2.3,59.92319044165627,
,,,,,,,,,,,,43,0,43,0,,,,,,,,,,,,,,,,,,,,,,,,,,,,,,,,,,,,,,,,,,,,,,,,,1381.4149458000902,None,,,,,,,,,,,,,,,,,,,,,,,,,,,,,,,,,,,,,,,,,,,,,,,,,,,,,,,,,flag,172,44,aloud,new,yellow,1379.305786699988,None,n,1379.305786699988,None,"['n', 'return']","[1.7159131998196244, 2.0758276998531073]",1379.305786699988,None,,,98NB,001,2023_Sep_08_1248,ExactRep-v3-final,2021.2.3,59.92319044165627,
,,,,,,,,,,,,44,0,44,0,,,,,,,,,,,,,,,,,,,,,,,,,,,,,,,,,,,,,,,,,,,,,,,,,1383.617230199976,None,,,,,,,,,,,,,,,,,,,,,,,,,,,,,,,,,,,,,,,,,,,,,,,,,,,,,,,,,cabin,2,45,sing,old,yellow,1381.9196520000696,None,y,1381.9196520000696,None,"['y', 'return']","[1.2219370999373496, 1.654025899944827]",1381.9196520000696,None,,,98NB,001,2023_Sep_08_1248,ExactRep-v3-final,2021.2.3,59.92319044165627,
,,,,,,,,,,,,45,0,45,0,,,,,,,,,,,,,,,,,,,,,,,,,,,,,,,,,,,,,,,,,,,,,,,,,1386.770192099968,None,,,,,,,,,,,,,,,,,,,,,,,,,,,,,,,,,,,,,,,,,,,,,,,,,,,,,,,,,cottage,82,46,aloud,old,yellow,1384.1335214001592,None,n,1384.1335214001592,None,"['n', 'return']","[2.1360762999393046, 2.5921535999514163]",1384.1335214001592,None,,,98NB,001,2023_Sep_08_1248,ExactRep-v3-final,2021.2.3,59.92319044165627,
,,,,,,,,,,,,46,0,46,0,,,,,,,,,,,,,,,,,,,,,,,,,,,,,,,,,,,,,,,,,,,,,,,,,1388.8555226000026,None,,,,,,,,,,,,,,,,,,,,,,,,,,,,,,,,,,,,,,,,,,,,,,,,,,,,,,,,,coffee,156,47,silent,new,yellow,1387.2881293999963,None,n,1387.2881293999963,None,"['n', 'return']","[1.1176025001332164, 1.533486200030893]",1387.2881293999963,None,,,98NB,001,2023_Sep_08_1248,ExactRep-v3-final,2021.2.3,59.92319044165627,
,,,,,,,,,,,,47,0,47,0,,,,,,,,,,,,,,,,,,,,,,,,,,,,,,,,,,,,,,,,,,,,,,,,,1393.0600644000806,None,,,,,,,,,,,,,,,,,,,,,,,,,,,,,,,,,,,,,,,,,,,,,,,,,,,,,,,,,style,126,48,silent,new,yellow,1389.3624793000054,None,y,1389.3624793000054,None,"['y', 'return']","[3.251185900066048, 3.6511095000896603]",1389.3624793000054,None,,,98NB,001,2023_Sep_08_1248,ExactRep-v3-final,2021.2.3,59.92319044165627,
,,,,,,,,,,,,48,0,48,0,,,,,,,,,,,,,,,,,,,,,,,,,,,,,,,,,,,,,,,,,,,,,,,,,1395.6791602000594,None,,,,,,,,,,,,,,,,,,,,,,,,,,,,,,,,,,,,,,,,,,,,,,,,,,,,,,,,,charm,7,49,sing,old,yellow,1393.5680329999886,None,n,1393.5680329999886,None,"['n', 'return']","[1.6375564998015761, 2.077604299876839]",1393.5680329999886,None,,,98NB,001,2023_Sep_08_1248,ExactRep-v3-final,2021.2.3,59.92319044165627,
,,,,,,,,,,,,49,0,49,0,,,,,,,,,,,,,,,,,,,,,,,,,,,,,,,,,,,,,,,,,,,,,,,,,1397.7480091000907,None,,,,,,,,,,,,,,,,,,,,,,,,,,,,,,,,,,,,,,,,,,,,,,,,,,,,,,,,,pupil,0,50,sing,old,yellow,1396.199545700103,None,y,1396.199545700103,None,"['y', 'return']","[1.1101319000590593, 1.5100143000017852]",1396.199545700103,None,,,98NB,001,2023_Sep_08_1248,ExactRep-v3-final,2021.2.3,59.92319044165627,
,,,,,,,,,,,,50,0,50,0,,,,,,,,,,,,,,,,,,,,,,,,,,,,,,,,,,,,,,,,,,,,,,,,,1400.7678698000964,None,,,,,,,,,,,,,,,,,,,,,,,,,,,,,,,,,,,,,,,,,,,,,,,,,,,,,,,,,deed,154,51,silent,new,yellow,1398.2657679000404,None,n,1398.2657679000404,None,"['n', 'return']","[1.899817100027576, 2.4678738000802696]",1398.2657679000404,None,,,98NB,001,2023_Sep_08_1248,ExactRep-v3-final,2021.2.3,59.92319044165627,
,,,,,,,,,,,,51,0,51,0,,,,,,,,,,,,,,,,,,,,,,,,,,,,,,,,,,,,,,,,,,,,,,,,,1402.9032309001777,None,,,,,,,,,,,,,,,,,,,,,,,,,,,,,,,,,,,,,,,,,,,,,,,,,,,,,,,,,skin,5,52,sing,old,yellow,1401.2850812000688,None,y,1401.2850812000688,None,"['y', 'return']","[1.1445581000298262, 1.568629999877885]",1401.2850812000688,None,,,98NB,001,2023_Sep_08_1248,ExactRep-v3-final,2021.2.3,59.92319044165627,
,,,,,,,,,,,,52,0,52,0,,,,,,,,,,,,,,,,,,,,,,,,,,,,,,,,,,,,,,,,,,,,,,,,,1406.5732925001066,None,,,,,,,,,,,,,,,,,,,,,,,,,,,,,,,,,,,,,,,,,,,,,,,,,,,,,,,,,square,87,53,aloud,old,yellow,1403.4257885001134,None,y,1403.4257885001134,None,"['y', 'return']","[2.6918685999698937, 3.099845200078562]",1403.4257885001134,None,,,98NB,001,2023_Sep_08_1248,ExactRep-v3-final,2021.2.3,59.92319044165627,
,,,,,,,,,,,,53,0,53,0,,,,,,,,,,,,,,,,,,,,,,,,,,,,,,,,,,,,,,,,,,,,,,,,,1408.7256434001029,None,,,,,,,,,,,,,,,,,,,,,,,,,,,,,,,,,,,,,,,,,,,,,,,,,,,,,,,,,wheat,159,54,silent,new,yellow,1407.089292400051,None,n,1407.089292400051,None,"['n', 'return']","[1.1485502000432462, 1.596408599987626]",1407.089292400051,None,,,98NB,001,2023_Sep_08_1248,ExactRep-v3-final,2021.2.3,59.92319044165627,
,,,,,,,,,,,,54,0,54,0,,,,,,,,,,,,,,,,,,,,,,,,,,,,,,,,,,,,,,,,,,,,,,,,,1412.1769628999755,None,,,,,,,,,,,,,,,,,,,,,,,,,,,,,,,,,,,,,,,,,,,,,,,,,,,,,,,,,lake,149,55,silent,new,yellow,1409.2432830999605,None,y,1409.2432830999605,None,"['y', 'return']","[2.4664843999780715, 2.89026360004209]",1409.2432830999605,None,,,98NB,001,2023_Sep_08_1248,ExactRep-v3-final,2021.2.3,59.92319044165627,
,,,,,,,,,,,,55,0,55,0,,,,,,,,,,,,,,,,,,,,,,,,,,,,,,,,,,,,,,,,,,,,,,,,,1414.4977359999903,None,,,,,,,,,,,,,,,,,,,,,,,,,,,,,,,,,,,,,,,,,,,,,,,,,,,,,,,,,silence,75,56,silent,old,yellow,1412.685957300011,None,y,1412.685957300011,None,"['y', 'return']","[1.3916801000013947, 1.7677454999648035]",1412.685957300011,None,,,98NB,001,2023_Sep_08_1248,ExactRep-v3-final,2021.2.3,59.92319044165627,
,,,,,,,,,,,,56,0,56,0,,,,,,,,,,,,,,,,,,,,,,,,,,,,,,,,,,,,,,,,,,,,,,,,,1417.8678497001529,None,,,,,,,,,,,,,,,,,,,,,,,,,,,,,,,,,,,,,,,,,,,,,,,,,,,,,,,,,opinion,85,57,aloud,old,yellow,1415.0075000000652,None,y,1415.0075000000652,None,"['y', 'return']","[2.350140100112185, 2.8140686000697315]",1415.0075000000652,None,,,98NB,001,2023_Sep_08_1248,ExactRep-v3-final,2021.2.3,59.92319044165627,
,,,,,,,,,,,,57,0,57,0,,,,,,,,,,,,,,,,,,,,,,,,,,,,,,,,,,,,,,,,,,,,,,,,,1420.6373257001396,None,,,,,,,,,,,,,,,,,,,,,,,,,,,,,,,,,,,,,,,,,,,,,,,,,,,,,,,,,disease,42,58,silent,old,yellow,1418.381180500146,None,n,1418.381180500146,None,"['n', 'return']","[1.6804102000314742, 2.216416700044647]",1418.381180500146,None,,,98NB,001,2023_Sep_08_1248,ExactRep-v3-final,2021.2.3,59.92319044165627,
,,,,,,,,,,,,58,0,58,0,,,,,,,,,,,,,,,,,,,,,,,,,,,,,,,,,,,,,,,,,,,,,,,,,1427.2436441001482,None,,,,,,,,,,,,,,,,,,,,,,,,,,,,,,,,,,,,,,,,,,,,,,,,,,,,,,,,,gold,182,59,aloud,new,yellow,1421.1381483001169,None,y,1421.1381483001169,None,"['y', 'return']","[5.587414900073782, 6.0594258001074195]",1421.1381483001169,None,,,98NB,001,2023_Sep_08_1248,ExactRep-v3-final,2021.2.3,59.92319044165627,
,,,,,,,,,,,,59,0,59,0,,,,,,,,,,,,,,,,,,,,,,,,,,,,,,,,,,,,,,,,,,,,,,,,,1429.8970969000366,None,,,,,,,,,,,,,,,,,,,,,,,,,,,,,,,,,,,,,,,,,,,,,,,,,,,,,,,,,chance,217,60,sing,new,yellow,1427.745698200073,None,n,1427.745698200073,None,"['n', 'return']","[1.6918965000659227, 2.1160838999785483]",1427.745698200073,None,,,98NB,001,2023_Sep_08_1248,ExactRep-v3-final,2021.2.3,59.92319044165627,
,,,,,,,,,,,,60,0,60,0,,,,,,,,,,,,,,,,,,,,,,,,,,,,,,,,,,,,,,,,,,,,,,,,,1433.1669809001032,None,,,,,,,,,,,,,,,,,,,,,,,,,,,,,,,,,,,,,,,,,,,,,,,,,,,,,,,,,answer,150,61,silent,new,yellow,1430.412880900083,None,y,1430.412880900083,None,"['y', 'return']","[2.3527293999213725, 2.7047082998324186]",1430.412880900083,None,,,98NB,001,2023_Sep_08_1248,ExactRep-v3-final,2021.2.3,59.92319044165627,
,,,,,,,,,,,,61,0,61,0,,,,,,,,,,,,,,,,,,,,,,,,,,,,,,,,,,,,,,,,,,,,,,,,,1437.6708291000687,None,,,,,,,,,,,,,,,,,,,,,,,,,,,,,,,,,,,,,,,,,,,,,,,,,,,,,,,,,journal,167,62,sing,new,yellow,1433.690564100165,None,n,1433.690564100165,None,"['n', 'return']","[3.5870721000246704, 3.9310457000974566]",1433.690564100165,None,,,98NB,001,2023_Sep_08_1248,ExactRep-v3-final,2021.2.3,59.92319044165627,
,,,,,,,,,,,,62,0,62,0,,,,,,,,,,,,,,,,,,,,,,,,,,,,,,,,,,,,,,,,,,,,,,,,,1441.091160699958,None,,,,,,,,,,,,,,,,,,,,,,,,,,,,,,,,,,,,,,,,,,,,,,,,,,,,,,,,,gift,123,63,silent,new,yellow,1438.1855291000102,None,n,1438.1855291000102,None,"['n', 'return']","[2.3880591997876763, 2.8685001998674124]",1438.1855291000102,None,,,98NB,001,2023_Sep_08_1248,ExactRep-v3-final,2021.2.3,59.92319044165627,
,,,,,,,,,,,,63,0,63,0,,,,,,,,,,,,,,,,,,,,,,,,,,,,,,,,,,,,,,,,,,,,,,,,,1446.1294211000204,None,,,,,,,,,,,,,,,,,,,,,,,,,,,,,,,,,,,,,,,,,,,,,,,,,,,,,,,,,factory,10,64,sing,old,yellow,1441.5990957999602,None,y,1441.5990957999602,None,"['y', 'return']","[4.150423499988392, 4.486552200047299]",1441.5990957999602,None,,,98NB,001,2023_Sep_08_1248,ExactRep-v3-final,2021.2.3,59.92319044165627,
,,,,,,,,,,,,64,0,64,0,,,,,,,,,,,,,,,,,,,,,,,,,,,,,,,,,,,,,,,,,,,,,,,,,1448.7499639000744,None,,,,,,,,,,,,,,,,,,,,,,,,,,,,,,,,,,,,,,,,,,,,,,,,,,,,,,,,,time,203,65,sing,new,yellow,1446.6340849001426,None,n,1446.6340849001426,None,"['n', 'return']","[1.651563199935481, 2.0675133999902755]",1446.6340849001426,None,,,98NB,001,2023_Sep_08_1248,ExactRep-v3-final,2021.2.3,59.92319044165627,
,,,,,,,,,,,,65,0,65,0,,,,,,,,,,,,,,,,,,,,,,,,,,,,,,,,,,,,,,,,,,,,,,,,,1451.5014254001435,None,,,,,,,,,,,,,,,,,,,,,,,,,,,,,,,,,,,,,,,,,,,,,,,,,,,,,,,,,cat,39,66,silent,old,yellow,1449.2695031000767,None,y,1449.2695031000767,None,"['y', 'return']","[1.7521265000104904, 2.1921395000535995]",1449.2695031000767,None,,,98NB,001,2023_Sep_08_1248,ExactRep-v3-final,2021.2.3,59.92319044165627,
,,,,,,,,,,,,66,0,66,0,,,,,,,,,,,,,,,,,,,,,,,,,,,,,,,,,,,,,,,,,,,,,,,,,1453.6860277000815,None,,,,,,,,,,,,,,,,,,,,,,,,,,,,,,,,,,,,,,,,,,,,,,,,,,,,,,,,,spirit,13,67,sing,old,yellow,1452.0091952001676,None,y,1452.0091952001676,None,"['y', 'return']","[1.3085819000843912, 1.6284313001669943]",1452.0091952001676,None,,,98NB,001,2023_Sep_08_1248,ExactRep-v3-final,2021.2.3,59.92319044165627,
,,,,,,,,,,,,67,0,67,0,,,,,,,,,,,,,,,,,,,,,,,,,,,,,,,,,,,,,,,,,,,,,,,,,1459.3428717001807,None,,,,,,,,,,,,,,,,,,,,,,,,,,,,,,,,,,,,,,,,,,,,,,,,,,,,,,,,,duty,50,68,silent,old,yellow,1454.188170199981,None,n,1454.188170199981,None,"['n', 'return']","[4.665443699806929, 5.113420099951327]",1454.188170199981,None,,,98NB,001,2023_Sep_08_1248,ExactRep-v3-final,2021.2.3,59.92319044165627,
,,,,,,,,,,,,68,0,68,0,,,,,,,,,,,,,,,,,,,,,,,,,,,,,,,,,,,,,,,,,,,,,,,,,1461.7622023001313,None,,,,,,,,,,,,,,,,,,,,,,,,,,,,,,,,,,,,,,,,,,,,,,,,,,,,,,,,,toy,130,69,silent,new,yellow,1459.8601578001399,None,n,1459.8601578001399,None,"['n', 'return']","[1.4894785999786109, 1.8575427997857332]",1459.8601578001399,None,,,98NB,001,2023_Sep_08_1248,ExactRep-v3-final,2021.2.3,59.92319044165627,
,,,,,,,,,,,,69,0,69,0,,,,,,,,,,,,,,,,,,,,,,,,,,,,,,,,,,,,,,,,,,,,,,,,,1464.9313410001341,None,,,,,,,,,,,,,,,,,,,,,,,,,,,,,,,,,,,,,,,,,,,,,,,,,,,,,,,,,picture,12,70,sing,old,yellow,1462.2792065001559,None,y,1462.2792065001559,None,"['y', 'return']","[2.2943621000740677, 2.6064871998969465]",1462.2792065001559,None,,,98NB,001,2023_Sep_08_1248,ExactRep-v3-final,2021.2.3,59.92319044165627,
,,,,,,,,,,,,70,0,70,0,,,,,,,,,,,,,,,,,,,,,,,,,,,,,,,,,,,,,,,,,,,,,,,,,1468.1349365999922,None,,,,,,,,,,,,,,,,,,,,,,,,,,,,,,,,,,,,,,,,,,,,,,,,,,,,,,,,,passion,56,71,silent,old,yellow,1465.4332369000185,None,y,1465.4332369000185,None,"['y', 'return']","[2.308360799914226, 2.6603943000081927]",1465.4332369000185,None,,,98NB,001,2023_Sep_08_1248,ExactRep-v3-final,2021.2.3,59.92319044165627,
,,,,,,,,,,,,71,0,71,0,,,,,,,,,,,,,,,,,,,,,,,,,,,,,,,,,,,,,,,,,,,,,,,,,1472.105932299979,None,,,,,,,,,,,,,,,,,,,,,,,,,,,,,,,,,,,,,,,,,,,,,,,,,,,,,,,,,ticket,192,72,aloud,new,yellow,1468.6525584000628,None,n,1468.6525584000628,None,"['n', 'return']","[3.0330252998974174, 3.417258200002834]",1468.6525584000628,None,,,98NB,001,2023_Sep_08_1248,ExactRep-v3-final,2021.2.3,59.92319044165627,
,,,,,,,,,,,,72,0,72,0,,,,,,,,,,,,,,,,,,,,,,,,,,,,,,,,,,,,,,,,,,,,,,,,,1478.161601100117,None,,,,,,,,,,,,,,,,,,,,,,,,,,,,,,,,,,,,,,,,,,,,,,,,,,,,,,,,,sugar,109,73,aloud,old,yellow,1472.6229293001816,None,n,1472.6229293001816,None,"['n', 'return']","[5.142612100113183, 5.49468050012365]",1472.6229293001816,None,,,98NB,001,2023_Sep_08_1248,ExactRep-v3-final,2021.2.3,59.92319044165627,
,,,,,,,,,,,,73,0,73,0,,,,,,,,,,,,,,,,,,,,,,,,,,,,,,,,,,,,,,,,,,,,,,,,,1482.7150000999682,None,,,,,,,,,,,,,,,,,,,,,,,,,,,,,,,,,,,,,,,,,,,,,,,,,,,,,,,,,soul,129,74,silent,new,yellow,1478.666530800052,None,n,1478.666530800052,None,"['n', 'return']","[3.6830522001255304, 4.011000600177795]",1478.666530800052,None,,,98NB,001,2023_Sep_08_1248,ExactRep-v3-final,2021.2.3,59.92319044165627,
,,,,,,,,,,,,74,0,74,0,,,,,,,,,,,,,,,,,,,,,,,,,,,,,,,,,,,,,,,,,,,,,,,,,1485.8514310000464,None,,,,,,,,,,,,,,,,,,,,,,,,,,,,,,,,,,,,,,,,,,,,,,,,,,,,,,,,,grief,143,75,silent,new,yellow,1483.2168604000472,None,n,1483.2168604000472,None,"['n', 'return']","[2.2526960000395775, 2.5887242001481354]",1483.2168604000472,None,,,98NB,001,2023_Sep_08_1248,ExactRep-v3-final,2021.2.3,59.92319044165627,
,,,,,,,,,,,,75,0,75,0,,,,,,,,,,,,,,,,,,,,,,,,,,,,,,,,,,,,,,,,,,,,,,,,,1490.3239782000892,None,,,,,,,,,,,,,,,,,,,,,,,,,,,,,,,,,,,,,,,,,,,,,,,,,,,,,,,,,clock,166,76,aloud,new,yellow,1486.3633020000998,None,y,1486.3633020000998,None,"['y', 'return']","[3.234249799977988, 3.9142295999918133]",1486.3633020000998,None,,,98NB,001,2023_Sep_08_1248,ExactRep-v3-final,2021.2.3,59.92319044165627,
,,,,,,,,,,,,76,0,76,0,,,,,,,,,,,,,,,,,,,,,,,,,,,,,,,,,,,,,,,,,,,,,,,,,1492.409074000083,None,,,,,,,,,,,,,,,,,,,,,,,,,,,,,,,,,,,,,,,,,,,,,,,,,,,,,,,,,woods,86,77,aloud,old,yellow,1490.840383999981,None,y,1490.840383999981,None,"['y', 'return']","[1.165262500056997, 1.525241400115192]",1490.840383999981,None,,,98NB,001,2023_Sep_08_1248,ExactRep-v3-final,2021.2.3,59.92319044165627,
,,,,,,,,,,,,77,0,77,0,,,,,,,,,,,,,,,,,,,,,,,,,,,,,,,,,,,,,,,,,,,,,,,,,1494.777138600126,None,,,,,,,,,,,,,,,,,,,,,,,,,,,,,,,,,,,,,,,,,,,,,,,,,,,,,,,,,potato,136,78,silent,new,yellow,1492.9272282000165,None,n,1492.9272282000165,None,"['n', 'return']","[1.2703257999382913, 1.806277499999851]",1492.9272282000165,None,,,98NB,001,2023_Sep_08_1248,ExactRep-v3-final,2021.2.3,59.92319044165627,
,,,,,,,,,,,,78,0,78,0,,,,,,,,,,,,,,,,,,,,,,,,,,,,,,,,,,,,,,,,,,,,,,,,,1497.0606357001234,None,,,,,,,,,,,,,,,,,,,,,,,,,,,,,,,,,,,,,,,,,,,,,,,,,,,,,,,,,dawn,120,79,silent,new,yellow,1495.285413700156,None,n,1495.285413700156,None,"['n', 'return']","[1.3201655000448227, 1.7201503000687808]",1495.285413700156,None,,,98NB,001,2023_Sep_08_1248,ExactRep-v3-final,2021.2.3,59.92319044165627,
,,,,,,,,,,,,79,0,79,0,,,,,,,,,,,,,,,,,,,,,,,,,,,,,,,,,,,,,,,,,,,,,,,,,1500.9847428000066,None,,,,,,,,,,,,,,,,,,,,,,,,,,,,,,,,,,,,,,,,,,,,,,,,,,,,,,,,,student,14,80,sing,old,yellow,1497.5642342001665,None,y,1497.5642342001665,None,"['y', 'return']","[2.1533298001158983, 3.3773277001455426]",1497.5642342001665,None,,,98NB,001,2023_Sep_08_1248,ExactRep-v3-final,2021.2.3,59.92319044165627,
,,,,,,,,,,,,80,0,80,0,,,,,,,,,,,,,,,,,,,,,,,,,,,,,,,,,,,,,,,,,,,,,,,,,1503.7870905001182,None,,,,,,,,,,,,,,,,,,,,,,,,,,,,,,,,,,,,,,,,,,,,,,,,,,,,,,,,,murder,151,81,silent,new,yellow,1501.5019704001024,None,n,1501.5019704001024,None,"['n', 'return']","[1.8395352000370622, 2.239621500018984]",1501.5019704001024,None,,,98NB,001,2023_Sep_08_1248,ExactRep-v3-final,2021.2.3,59.92319044165627,
,,,,,,,,,,,,81,0,81,0,,,,,,,,,,,,,,,,,,,,,,,,,,,,,,,,,,,,,,,,,,,,,,,,,1506.956792500103,None,,,,,,,,,,,,,,,,,,,,,,,,,,,,,,,,,,,,,,,,,,,,,,,,,,,,,,,,,crime,222,82,aloud,new,yellow,1504.3043702000286,None,y,1504.3043702000286,None,"['y', 'return']","[1.8771757001522928, 2.6051698001101613]",1504.3043702000286,None,,,98NB,001,2023_Sep_08_1248,ExactRep-v3-final,2021.2.3,59.92319044165627,
,,,,,,,,,,,,82,0,82,0,,,,,,,,,,,,,,,,,,,,,,,,,,,,,,,,,,,,,,,,,,,,,,,,,1509.4932454000227,None,,,,,,,,,,,,,,,,,,,,,,,,,,,,,,,,,,,,,,,,,,,,,,,,,,,,,,,,,thought,117,83,aloud,old,yellow,1507.4581508000847,None,y,1507.4581508000847,None,"['y', 'return']","[1.635398699901998, 1.9955104000400752]",1507.4581508000847,None,,,98NB,001,2023_Sep_08_1248,ExactRep-v3-final,2021.2.3,59.92319044165627,
,,,,,,,,,,,,83,0,83,0,,,,,,,,,,,,,,,,,,,,,,,,,,,,,,,,,,,,,,,,,,,,,,,,,1513.0793951000087,None,,,,,,,,,,,,,,,,,,,,,,,,,,,,,,,,,,,,,,,,,,,,,,,,,,,,,,,,,fault,235,84,sing,new,yellow,1510.0096585000865,None,n,1510.0096585000865,None,"['n', 'return']","[2.50798420002684, 3.035905000055209]",1510.0096585000865,None,,,98NB,001,2023_Sep_08_1248,ExactRep-v3-final,2021.2.3,59.92319044165627,
,,,,,,,,,,,,84,0,84,0,,,,,,,,,,,,,,,,,,,,,,,,,,,,,,,,,,,,,,,,,,,,,,,,,1515.3818116001785,None,,,,,,,,,,,,,,,,,,,,,,,,,,,,,,,,,,,,,,,,,,,,,,,,,,,,,,,,,doll,23,85,sing,old,yellow,1513.5851649001706,None,y,1513.5851649001706,None,"['y', 'return']","[1.3244753999169916, 1.756398200057447]",1513.5851649001706,None,,,98NB,001,2023_Sep_08_1248,ExactRep-v3-final,2021.2.3,59.92319044165627,
,,,,,,,,,,,,85,0,85,0,,,,,,,,,,,,,,,,,,,,,,,,,,,,,,,,,,,,,,,,,,,,,,,,,1518.6351982001215,None,,,,,,,,,,,,,,,,,,,,,,,,,,,,,,,,,,,,,,,,,,,,,,,,,,,,,,,,,nail,205,86,sing,new,yellow,1515.8967256001197,None,n,1515.8967256001197,None,"['n', 'return']","[2.228877800051123, 2.692795400042087]",1515.8967256001197,None,,,98NB,001,2023_Sep_08_1248,ExactRep-v3-final,2021.2.3,59.92319044165627,
,,,,,,,,,,,,86,0,86,0,,,,,,,,,,,,,,,,,,,,,,,,,,,,,,,,,,,,,,,,,,,,,,,,,1521.5046554000583,None,,,,,,,,,,,,,,,,,,,,,,,,,,,,,,,,,,,,,,,,,,,,,,,,,,,,,,,,,effort,6,87,sing,old,yellow,1519.1394112000708,None,n,1519.1394112000708,None,"['n', 'return']","[1.5300998000893742, 2.330444399965927]",1519.1394112000708,None,,,98NB,001,2023_Sep_08_1248,ExactRep-v3-final,2021.2.3,59.92319044165627,
,,,,,,,,,,,,87,0,87,0,,,,,,,,,,,,,,,,,,,,,,,,,,,,,,,,,,,,,,,,,,,,,,,,,1523.7073989000637,None,,,,,,,,,,,,,,,,,,,,,,,,,,,,,,,,,,,,,,,,,,,,,,,,,,,,,,,,,product,48,88,silent,old,yellow,1522.0055995001458,None,y,1522.0055995001458,None,"['y', 'return']","[1.23991210013628, 1.6642935001291335]",1522.0055995001458,None,,,98NB,001,2023_Sep_08_1248,ExactRep-v3-final,2021.2.3,59.92319044165627,
,,,,,,,,,,,,88,0,88,0,,,,,,,,,,,,,,,,,,,,,,,,,,,,,,,,,,,,,,,,,,,,,,,,,1527.727526600007,None,,,,,,,,,,,,,,,,,,,,,,,,,,,,,,,,,,,,,,,,,,,,,,,,,,,,,,,,,boy,171,89,sing,new,yellow,1524.2230587999802,None,y,1524.2230587999802,None,"['y', 'return']","[3.046505599981174, 3.4624922999646515]",1524.2230587999802,None,,,98NB,001,2023_Sep_08_1248,ExactRep-v3-final,2021.2.3,59.92319044165627,
,,,,,,,,,,,,89,0,89,0,,,,,,,,,,,,,,,,,,,,,,,,,,,,,,,,,,,,,,,,,,,,,,,,,1530.0633253999986,None,,,,,,,,,,,,,,,,,,,,,,,,,,,,,,,,,,,,,,,,,,,,,,,,,,,,,,,,,hope,227,90,sing,new,yellow,1528.2373047999572,None,n,1528.2373047999572,None,"['n', 'return']","[1.3442358002066612, 1.7762638002168387]",1528.2373047999572,None,,,98NB,001,2023_Sep_08_1248,ExactRep-v3-final,2021.2.3,59.92319044165627,
,,,,,,,,,,,,90,0,90,0,,,,,,,,,,,,,,,,,,,,,,,,,,,,,,,,,,,,,,,,,,,,,,,,,1534.6841629000846,None,,,,,,,,,,,,,,,,,,,,,,,,,,,,,,,,,,,,,,,,,,,,,,,,,,,,,,,,,river,16,91,sing,old,yellow,1530.579600200057,None,n,1530.579600200057,None,"['n', 'return']","[3.738035599933937, 4.0579564999789]",1530.579600200057,None,,,98NB,001,2023_Sep_08_1248,ExactRep-v3-final,2021.2.3,59.92319044165627,
,,,,,,,,,,,,91,0,91,0,,,,,,,,,,,,,,,,,,,,,,,,,,,,,,,,,,,,,,,,,,,,,,,,,1536.7697819001041,None,,,,,,,,,,,,,,,,,,,,,,,,,,,,,,,,,,,,,,,,,,,,,,,,,,,,,,,,,origin,72,92,silent,old,yellow,1535.1851224000566,None,n,1535.1851224000566,None,"['n', 'return']","[1.1403560999315232, 1.5484478999860585]",1535.1851224000566,None,,,98NB,001,2023_Sep_08_1248,ExactRep-v3-final,2021.2.3,59.92319044165627,
,,,,,,,,,,,,92,0,92,0,,,,,,,,,,,,,,,,,,,,,,,,,,,,,,,,,,,,,,,,,,,,,,,,,1543.8435311000794,None,,,,,,,,,,,,,,,,,,,,,,,,,,,,,,,,,,,,,,,,,,,,,,,,,,,,,,,,,plant,66,93,silent,old,yellow,1537.2863306000363,None,n,1537.2863306000363,None,"['n', 'return']","[5.975175200030208, 6.511149000143632]",1537.2863306000363,None,,,98NB,001,2023_Sep_08_1248,ExactRep-v3-final,2021.2.3,59.92319044165627,
,,,,,,,,,,,,93,0,93,0,,,,,,,,,,,,,,,,,,,,,,,,,,,,,,,,,,,,,,,,,,,,,,,,,1546.8132895000745,None,,,,,,,,,,,,,,,,,,,,,,,,,,,,,,,,,,,,,,,,,,,,,,,,,,,,,,,,,wine,147,94,silent,new,yellow,1544.344434400089,None,n,1544.344434400089,None,"['n', 'return']","[1.8851127000525594, 2.42112770001404]",1544.344434400089,None,,,98NB,001,2023_Sep_08_1248,ExactRep-v3-final,2021.2.3,59.92319044165627,
,,,,,,,,,,,,94,0,94,0,,,,,,,,,,,,,,,,,,,,,,,,,,,,,,,,,,,,,,,,,,,,,,,,,1549.3830949000549,None,,,,,,,,,,,,,,,,,,,,,,,,,,,,,,,,,,,,,,,,,,,,,,,,,,,,,,,,,church,31,95,sing,old,yellow,1547.314080600161,None,y,1547.314080600161,None,"['y', 'return']","[1.5634085000492632, 2.019527700031176]",1547.314080600161,None,,,98NB,001,2023_Sep_08_1248,ExactRep-v3-final,2021.2.3,59.92319044165627,
,,,,,,,,,,,,95,0,95,0,,,,,,,,,,,,,,,,,,,,,,,,,,,,,,,,,,,,,,,,,,,,,,,,,1551.5013938001357,None,,,,,,,,,,,,,,,,,,,,,,,,,,,,,,,,,,,,,,,,,,,,,,,,,,,,,,,,,flesh,199,96,sing,new,yellow,1549.9048133001197,None,n,1549.9048133001197,None,"['n', 'return']","[1.140831499826163, 1.5487305000424385]",1549.9048133001197,None,,,98NB,001,2023_Sep_08_1248,ExactRep-v3-final,2021.2.3,59.92319044165627,
,,,,,,,,,,,,96,0,96,0,,,,,,,,,,,,,,,,,,,,,,,,,,,,,,,,,,,,,,,,,,,,,,,,,1556.2561355000362,None,,,,,,,,,,,,,,,,,,,,,,,,,,,,,,,,,,,,,,,,,,,,,,,,,,,,,,,,,cash,15,97,sing,old,yellow,1552.0161641000304,None,n,1552.0161641000304,None,"['n', 'return']","[3.797378099989146, 4.197310500079766]",1552.0161641000304,None,,,98NB,001,2023_Sep_08_1248,ExactRep-v3-final,2021.2.3,59.92319044165627,
,,,,,,,,,,,,97,0,97,0,,,,,,,,,,,,,,,,,,,,,,,,,,,,,,,,,,,,,,,,,,,,,,,,,1559.8099919001106,None,,,,,,,,,,,,,,,,,,,,,,,,,,,,,,,,,,,,,,,,,,,,,,,,,,,,,,,,,dress,55,98,silent,old,yellow,1556.774104299955,None,y,1556.774104299955,None,"['y', 'return']","[2.5837246000301093, 2.9996199999004602]",1556.774104299955,None,,,98NB,001,2023_Sep_08_1248,ExactRep-v3-final,2021.2.3,59.92319044165627,
,,,,,,,,,,,,98,0,98,0,,,,,,,,,,,,,,,,,,,,,,,,,,,,,,,,,,,,,,,,,,,,,,,,,1562.578729200177,None,,,,,,,,,,,,,,,,,,,,,,,,,,,,,,,,,,,,,,,,,,,,,,,,,,,,,,,,,dust,61,99,silent,old,yellow,1560.3268528000917,None,y,1560.3268528000917,None,"['y', 'return']","[1.7506391999777406, 2.2067377001512796]",1560.3268528000917,None,,,98NB,001,2023_Sep_08_1248,ExactRep-v3-final,2021.2.3,59.92319044165627,
,,,,,,,,,,,,99,0,99,0,,,,,,,,,,,,,,,,,,,,,,,,,,,,,,,,,,,,,,,,,,,,,,,,,1565.665770499967,None,,,,,,,,,,,,,,,,,,,,,,,,,,,,,,,,,,,,,,,,,,,,,,,,,,,,,,,,,diamond,54,100,silent,old,yellow,1563.0806758999825,None,n,1563.0806758999825,None,"['n', 'return']","[2.0369559000246227, 2.540882700122893]",1563.0806758999825,None,,,98NB,001,2023_Sep_08_1248,ExactRep-v3-final,2021.2.3,59.92319044165627,
,,,,,,,,,,,,100,0,100,0,,,,,,,,,,,,,,,,,,,,,,,,,,,,,,,,,,,,,,,,,,,,,,,,,1568.7687047000509,None,,,,,,,,,,,,,,,,,,,,,,,,,,,,,,,,,,,,,,,,,,,,,,,,,,,,,,,,,plain,176,101,aloud,new,yellow,1566.1827392999548,None,n,1566.1827392999548,None,"['n', 'return']","[1.591107200132683, 2.542798000155017]",1566.1827392999548,None,,,98NB,001,2023_Sep_08_1248,ExactRep-v3-final,2021.2.3,59.92319044165627,
,,,,,,,,,,,,101,0,101,0,,,,,,,,,,,,,,,,,,,,,,,,,,,,,,,,,,,,,,,,,,,,,,,,,1570.8708868999965,None,,,,,,,,,,,,,,,,,,,,,,,,,,,,,,,,,,,,,,,,,,,,,,,,,,,,,,,,,avenue,207,102,sing,new,yellow,1569.2856936999597,None,n,1569.2856936999597,None,"['n', 'return']","[1.0958718999754637, 1.5438864000607282]",1569.2856936999597,None,,,98NB,001,2023_Sep_08_1248,ExactRep-v3-final,2021.2.3,59.92319044165627,
,,,,,,,,,,,,102,0,102,0,,,,,,,,,,,,,,,,,,,,,,,,,,,,,,,,,,,,,,,,,,,,,,,,,1575.6421901001595,None,,,,,,,,,,,,,,,,,,,,,,,,,,,,,,,,,,,,,,,,,,,,,,,,,,,,,,,,,history,239,103,sing,new,yellow,1571.3879162999801,None,y,1571.3879162999801,None,"['y', 'return']","[3.777621999848634, 4.209565399913117]",1571.3879162999801,None,,,98NB,001,2023_Sep_08_1248,ExactRep-v3-final,2021.2.3,59.92319044165627,
,,,,,,,,,,,,103,0,103,0,,,,,,,,,,,,,,,,,,,,,,,,,,,,,,,,,,,,,,,,,,,,,,,,,1579.6630769001786,None,,,,,,,,,,,,,,,,,,,,,,,,,,,,,,,,,,,,,,,,,,,,,,,,,,,,,,,,,doctor,229,104,sing,new,yellow,1576.158867600141,None,y,1576.158867600141,None,"['y', 'return']","[2.790629900060594, 3.4706669999286532]",1576.158867600141,None,,,98NB,001,2023_Sep_08_1248,ExactRep-v3-final,2021.2.3,59.92319044165627,
,,,,,,,,,,,,104,0,104,0,,,,,,,,,,,,,,,,,,,,,,,,,,,,,,,,,,,,,,,,,,,,,,,,,1582.0155307000969,None,,,,,,,,,,,,,,,,,,,,,,,,,,,,,,,,,,,,,,,,,,,,,,,,,,,,,,,,,vision,111,105,aloud,old,yellow,1580.1800171001814,None,n,1580.1800171001814,None,"['n', 'return']","[1.4255588001105934, 1.7935123001225293]",1580.1800171001814,None,,,98NB,001,2023_Sep_08_1248,ExactRep-v3-final,2021.2.3,59.92319044165627,
,,,,,,,,,,,,105,0,105,0,,,,,,,,,,,,,,,,,,,,,,,,,,,,,,,,,,,,,,,,,,,,,,,,,1585.2672393000685,None,,,,,,,,,,,,,,,,,,,,,,,,,,,,,,,,,,,,,,,,,,,,,,,,,,,,,,,,,power,37,106,sing,old,yellow,1582.5260517999995,None,n,1582.5260517999995,None,"['n', 'return']","[1.9996865999419242, 2.6954554999247193]",1582.5260517999995,None,,,98NB,001,2023_Sep_08_1248,ExactRep-v3-final,2021.2.3,59.92319044165627,
,,,,,,,,,,,,106,0,106,0,,,,,,,,,,,,,,,,,,,,,,,,,,,,,,,,,,,,,,,,,,,,,,,,,1587.470471699955,None,,,,,,,,,,,,,,,,,,,,,,,,,,,,,,,,,,,,,,,,,,,,,,,,,,,,,,,,,engine,188,107,aloud,new,yellow,1585.7761991999578,None,n,1585.7761991999578,None,"['n', 'return']","[1.2693376999814063, 1.6453636998776346]",1585.7761991999578,None,,,98NB,001,2023_Sep_08_1248,ExactRep-v3-final,2021.2.3,59.92319044165627,
,,,,,,,,,,,,107,0,107,0,,,,,,,,,,,,,,,,,,,,,,,,,,,,,,,,,,,,,,,,,,,,,,,,,1593.3268220999744,None,,,,,,,,,,,,,,,,,,,,,,,,,,,,,,,,,,,,,,,,,,,,,,,,,,,,,,,,,corner,218,108,aloud,new,yellow,1587.9724884000607,None,n,1587.9724884000607,None,"['n', 'return']","[4.329012300120667, 5.313066200120375]",1587.9724884000607,None,,,98NB,001,2023_Sep_08_1248,ExactRep-v3-final,2021.2.3,59.92319044165627,
,,,,,,,,,,,,108,0,108,0,,,,,,,,,,,,,,,,,,,,,,,,,,,,,,,,,,,,,,,,,,,,,,,,,1599.599879299989,None,,,,,,,,,,,,,,,,,,,,,,,,,,,,,,,,,,,,,,,,,,,,,,,,,,,,,,,,,cotton,124,109,silent,new,yellow,1593.8348956000991,None,y,1593.8348956000991,None,"['y', 'return']","[5.218601299915463, 5.730677400017157]",1593.8348956000991,None,,,98NB,001,2023_Sep_08_1248,ExactRep-v3-final,2021.2.3,59.92319044165627,
,,,,,,,,,,,,109,0,109,0,,,,,,,,,,,,,,,,,,,,,,,,,,,,,,,,,,,,,,,,,,,,,,,,,1604.9879245001357,None,,,,,,,,,,,,,,,,,,,,,,,,,,,,,,,,,,,,,,,,,,,,,,,,,,,,,,,,,string,100,110,aloud,old,yellow,1600.1246315001044,None,n,1600.1246315001044,None,"['n', 'return']","[1.4969001000281423, 4.824961799895391]",1600.1246315001044,None,,,98NB,001,2023_Sep_08_1248,ExactRep-v3-final,2021.2.3,59.92319044165627,
,,,,,,,,,,,,110,0,110,0,,,,,,,,,,,,,,,,,,,,,,,,,,,,,,,,,,,,,,,,,,,,,,,,,1610.1600834000856,None,,,,,,,,,,,,,,,,,,,,,,,,,,,,,,,,,,,,,,,,,,,,,,,,,,,,,,,,,month,114,111,aloud,old,yellow,1605.4888633999508,None,n,1605.4888633999508,None,"['n', 'return']","[4.204593899892643, 4.628676899941638]",1605.4888633999508,None,,,98NB,001,2023_Sep_08_1248,ExactRep-v3-final,2021.2.3,59.92319044165627,
,,,,,,,,,,,,111,0,111,0,,,,,,,,,,,,,,,,,,,,,,,,,,,,,,,,,,,,,,,,,,,,,,,,,1613.7801810000092,None,,,,,,,,,,,,,,,,,,,,,,,,,,,,,,,,,,,,,,,,,,,,,,,,,,,,,,,,,salary,102,112,aloud,old,yellow,1610.6677894999739,None,n,1610.6677894999739,None,"['n', 'return']","[2.689747199881822, 3.0737681000027806]",1610.6677894999739,None,,,98NB,001,2023_Sep_08_1248,ExactRep-v3-final,2021.2.3,59.92319044165627,
,,,,,,,,,,,,112,0,112,0,,,,,,,,,,,,,,,,,,,,,,,,,,,,,,,,,,,,,,,,,,,,,,,,,1618.2180139999837,None,,,,,,,,,,,,,,,,,,,,,,,,,,,,,,,,,,,,,,,,,,,,,,,,,,,,,,,,,life,145,113,silent,new,yellow,1614.2863293001428,None,n,1614.2863293001428,None,"['n', 'return']","[1.575501199811697, 3.895436199847609]",1614.2863293001428,None,,,98NB,001,2023_Sep_08_1248,ExactRep-v3-final,2021.2.3,59.92319044165627,
,,,,,,,,,,,,113,0,113,0,,,,,,,,,,,,,,,,,,,,,,,,,,,,,,,,,,,,,,,,,,,,,,,,,1620.720938200131,None,,,,,,,,,,,,,,,,,,,,,,,,,,,,,,,,,,,,,,,,,,,,,,,,,,,,,,,,,lad,34,114,sing,old,yellow,1618.7515931001399,None,y,1618.7515931001399,None,"['y', 'return']","[1.5181051001418382, 1.9340246000792831]",1618.7515931001399,None,,,98NB,001,2023_Sep_08_1248,ExactRep-v3-final,2021.2.3,59.92319044165627,
,,,,,,,,,,,,114,0,114,0,,,,,,,,,,,,,,,,,,,,,,,,,,,,,,,,,,,,,,,,,,,,,,,,,1624.424223399954,None,,,,,,,,,,,,,,,,,,,,,,,,,,,,,,,,,,,,,,,,,,,,,,,,,,,,,,,,,circle,57,115,silent,old,yellow,1621.236810100032,None,y,1621.236810100032,None,"['y', 'return']","[2.816930100088939, 3.144743900047615]",1621.236810100032,None,,,98NB,001,2023_Sep_08_1248,ExactRep-v3-final,2021.2.3,59.92319044165627,
,,,,,,,,,,,,115,0,115,0,,,,,,,,,,,,,,,,,,,,,,,,,,,,,,,,,,,,,,,,,,,,,,,,,1626.4267961999867,None,,,,,,,,,,,,,,,,,,,,,,,,,,,,,,,,,,,,,,,,,,,,,,,,,,,,,,,,,humour,224,116,aloud,new,yellow,1624.9434228001628,None,n,1624.9434228001628,None,"['n', 'return']","[1.1021199999377131, 1.4382102000527084]",1624.9434228001628,None,,,98NB,001,2023_Sep_08_1248,ExactRep-v3-final,2021.2.3,59.92319044165627,
,,,,,,,,,,,,116,0,116,0,,,,,,,,,,,,,,,,,,,,,,,,,,,,,,,,,,,,,,,,,,,,,,,,,1628.6272197000217,None,,,,,,,,,,,,,,,,,,,,,,,,,,,,,,,,,,,,,,,,,,,,,,,,,,,,,,,,,corn,36,117,sing,old,yellow,1626.9484978001565,None,y,1626.9484978001565,None,"['y', 'return']","[1.1771549999248236, 1.6410721000283957]",1626.9484978001565,None,,,98NB,001,2023_Sep_08_1248,ExactRep-v3-final,2021.2.3,59.92319044165627,
,,,,,,,,,,,,117,0,117,0,,,,,,,,,,,,,,,,,,,,,,,,,,,,,,,,,,,,,,,,,,,,,,,,,1630.5305733999703,None,,,,,,,,,,,,,,,,,,,,,,,,,,,,,,,,,,,,,,,,,,,,,,,,,,,,,,,,,apple,137,118,silent,new,yellow,1629.1361609001178,None,n,1629.1361609001178,None,"['n', 'return']","[1.0213409001007676, 1.3575280001387]",1629.1361609001178,None,,,98NB,001,2023_Sep_08_1248,ExactRep-v3-final,2021.2.3,59.92319044165627,
,,,,,,,,,,,,118,0,118,0,,,,,,,,,,,,,,,,,,,,,,,,,,,,,,,,,,,,,,,,,,,,,,,,,1635.151094400091,None,,,,,,,,,,,,,,,,,,,,,,,,,,,,,,,,,,,,,,,,,,,,,,,,,,,,,,,,,arm,225,119,sing,new,yellow,1631.0548970999662,None,n,1631.0548970999662,None,"['n', 'return']","[3.5906450001057237, 4.054743699962273]",1631.0548970999662,None,,,98NB,001,2023_Sep_08_1248,ExactRep-v3-final,2021.2.3,59.92319044165627,
,,,,,,,,,,,,119,0,119,0,,,,,,,,,,,,,,,,,,,,,,,,,,,,,,,,,,,,,,,,,,,,,,,,,1639.9230152000673,None,,,,,,,,,,,,,,,,,,,,,,,,,,,,,,,,,,,,,,,,,,,,,,,,,,,,,,,,,meat,47,120,silent,old,yellow,1635.6541175001767,None,y,1635.6541175001767,None,"['y', 'return']","[3.8793786999303848, 4.2233636998571455]",1635.6541175001767,None,,,98NB,001,2023_Sep_08_1248,ExactRep-v3-final,2021.2.3,59.92319044165627,
,,,,,,,,,,,,120,0,120,0,,,,,,,,,,,,,,,,,,,,,,,,,,,,,,,,,,,,,,,,,,,,,,,,,1642.075149900047,None,,,,,,,,,,,,,,,,,,,,,,,,,,,,,,,,,,,,,,,,,,,,,,,,,,,,,,,,,fun,106,121,aloud,old,yellow,1640.427318100119,None,n,1640.427318100119,None,"['n', 'return']","[1.2742341000121087, 1.6021768001373857]",1640.427318100119,None,,,98NB,001,2023_Sep_08_1248,ExactRep-v3-final,2021.2.3,59.92319044165627,
,,,,,,,,,,,,121,0,121,0,,,,,,,,,,,,,,,,,,,,,,,,,,,,,,,,,,,,,,,,,,,,,,,,,1644.3243867000565,None,,,,,,,,,,,,,,,,,,,,,,,,,,,,,,,,,,,,,,,,,,,,,,,,,,,,,,,,,law,3,122,sing,old,yellow,1642.5945766000077,None,y,1642.5945766000077,None,"['y', 'return']","[1.2269538999535143, 1.6668768001254648]",1642.5945766000077,None,,,98NB,001,2023_Sep_08_1248,ExactRep-v3-final,2021.2.3,59.92319044165627,
,,,,,,,,,,,,122,0,122,0,,,,,,,,,,,,,,,,,,,,,,,,,,,,,,,,,,,,,,,,,,,,,,,,,1649.2822808001656,None,,,,,,,,,,,,,,,,,,,,,,,,,,,,,,,,,,,,,,,,,,,,,,,,,,,,,,,,,winter,105,123,aloud,old,yellow,1644.8366316000465,None,y,1644.8366316000465,None,"['y', 'return']","[3.552772299852222, 4.4008831998799]",1644.8366316000465,None,,,98NB,001,2023_Sep_08_1248,ExactRep-v3-final,2021.2.3,59.92319044165627,
,,,,,,,,,,,,123,0,123,0,,,,,,,,,,,,,,,,,,,,,,,,,,,,,,,,,,,,,,,,,,,,,,,,,1652.8358871999662,None,,,,,,,,,,,,,,,,,,,,,,,,,,,,,,,,,,,,,,,,,,,,,,,,,,,,,,,,,chief,4,124,sing,old,yellow,1649.7830956999678,None,y,1649.7830956999678,None,"['y', 'return']","[2.590431099990383, 3.0064073000103235]",1649.7830956999678,None,,,98NB,001,2023_Sep_08_1248,ExactRep-v3-final,2021.2.3,59.92319044165627,
,,,,,,,,,,,,124,0,124,0,,,,,,,,,,,,,,,,,,,,,,,,,,,,,,,,,,,,,,,,,,,,,,,,,1654.869535600068,None,,,,,,,,,,,,,,,,,,,,,,,,,,,,,,,,,,,,,,,,,,,,,,,,,,,,,,,,,world,110,125,aloud,old,yellow,1653.3532516001724,None,n,1653.3532516001724,None,"['n', 'return']","[1.1082448000088334, 1.4602574999444187]",1653.3532516001724,None,,,98NB,001,2023_Sep_08_1248,ExactRep-v3-final,2021.2.3,59.92319044165627,
,,,,,,,,,,,,125,0,125,0,,,,,,,,,,,,,,,,,,,,,,,,,,,,,,,,,,,,,,,,,,,,,,,,,1659.629044200061,None,,,,,,,,,,,,,,,,,,,,,,,,,,,,,,,,,,,,,,,,,,,,,,,,,,,,,,,,,hour,90,126,aloud,old,yellow,1655.3912150000688,None,n,1655.3912150000688,None,"['n', 'return']","[3.654158200137317, 4.190365000162274]",1655.3912150000688,None,,,98NB,001,2023_Sep_08_1248,ExactRep-v3-final,2021.2.3,59.92319044165627,
,,,,,,,,,,,,126,0,126,0,,,,,,,,,,,,,,,,,,,,,,,,,,,,,,,,,,,,,,,,,,,,,,,,,1661.8281692001037,None,,,,,,,,,,,,,,,,,,,,,,,,,,,,,,,,,,,,,,,,,,,,,,,,,,,,,,,,,volume,232,127,aloud,new,yellow,1660.145961600123,None,n,1660.145961600123,None,"['n', 'return']","[1.2994677000679076, 1.6435531999450177]",1660.145961600123,None,,,98NB,001,2023_Sep_08_1248,ExactRep-v3-final,2021.2.3,59.92319044165627,
,,,,,,,,,,,,127,0,127,0,,,,,,,,,,,,,,,,,,,,,,,,,,,,,,,,,,,,,,,,,,,,,,,,,1664.7132798000239,None,,,,,,,,,,,,,,,,,,,,,,,,,,,,,,,,,,,,,,,,,,,,,,,,,,,,,,,,,home,139,128,silent,new,yellow,1662.3287290001754,None,n,1662.3287290001754,None,"['n', 'return']","[1.9087342999409884, 2.3490281999111176]",1662.3287290001754,None,,,98NB,001,2023_Sep_08_1248,ExactRep-v3-final,2021.2.3,59.92319044165627,
,,,,,,,,,,,,128,0,128,0,,,,,,,,,,,,,,,,,,,,,,,,,,,,,,,,,,,,,,,,,,,,,,,,,1669.7527030000929,None,,,,,,,,,,,,,,,,,,,,,,,,,,,,,,,,,,,,,,,,,,,,,,,,,,,,,,,,,justice,190,129,aloud,new,yellow,1665.2345418999903,None,n,1665.2345418999903,None,"['return', 'n', 'return']","[1.3389109000563622, 4.018937600078061, 4.475049400003627]",1665.2345418999903,None,,,98NB,001,2023_Sep_08_1248,ExactRep-v3-final,2021.2.3,59.92319044165627,
,,,,,,,,,,,,129,0,129,0,,,,,,,,,,,,,,,,,,,,,,,,,,,,,,,,,,,,,,,,,,,,,,,,,1674.5746516999789,None,,,,,,,,,,,,,,,,,,,,,,,,,,,,,,,,,,,,,,,,,,,,,,,,,,,,,,,,,party,215,130,sing,new,yellow,1670.2535616999958,None,y,1670.2535616999958,None,"['y', 'return']","[3.847942699911073, 4.271976700052619]",1670.2535616999958,None,,,98NB,001,2023_Sep_08_1248,ExactRep-v3-final,2021.2.3,59.92319044165627,
