trials_fam.thisRepN,trials_fam.thisTrialN,trials_fam.thisN,trials_fam.thisIndex,trials_prc.thisRepN,trials_prc.thisTrialN,trials_prc.thisN,trials_prc.thisIndex,StudyLoop.thisRepN,StudyLoop.thisTrialN,StudyLoop.thisN,StudyLoop.thisIndex,TestLoop.thisRepN,TestLoop.thisTrialN,TestLoop.thisN,TestLoop.thisIndex,text_colortest.started,text_colortest.stopped,key_colortest.keys,key_colortest.rt,key_colortest.started,key_colortest.stopped,textCondition.started,textCondition.stopped,keyCondition.keys,keyCondition.rt,keyCondition.started,keyCondition.stopped,Condition_between,Condition_counterbal,keyWelcome.keys,keyWelcome.rt,keyWelcome.started,keyWelcome.stopped,welcome_a.started,welcome_a.stopped,welcome_b.started,welcome_b.stopped,welcome_c.started,welcome_c.stopped,welcome_d.started,welcome_d.stopped,welcome_e.started,welcome_e.stopped,welcome_f.started,welcome_f.stopped,key_resp_fam_inst.keys,key_resp_fam_inst.rt,key_resp_fam_inst.started,key_resp_fam_inst.stopped,fam_a.started,fam_a.stopped,fam_b.started,fam_b.stopped,fam_c.started,fam_c.stopped,fam_d.started,fam_d.stopped,fam_e.started,fam_e.stopped,fam_f.started,fam_f.stopped,text_famil.started,text_famil.stopped,textBlank500.started,textBlank500.stopped,key_resp_prc_inst.keys,key_resp_prc_inst.rt,key_resp_prc_inst.started,key_resp_prc_inst.stopped,prac_a.started,prac_a.stopped,prac_b.started,prac_b.stopped,prac_c.started,prac_c.stopped,prac_d.started,prac_d.stopped,prac_e.started,prac_e.stopped,prac_f.started,prac_f.stopped,text_prc_trial.started,text_prc_trial.stopped,key_resp_study_inst.keys,key_resp_study_inst.rt,key_resp_study_inst.started,key_resp_study_inst.stopped,crit_a.started,crit_a.stopped,crit_b.started,crit_b.stopped,crit_c.started,crit_c.stopped,crit_d.started,crit_d.stopped,crit_e.started,crit_e.stopped,crit_f.started,crit_f.stopped,study_word,study_num,study_order,study_type,word_color,textStudy.started,textStudy.stopped,keyStudy.keys,keyStudy.started,keyStudy.stopped,post_study.started,post_study.stopped,key_resp_post_study.keys,key_resp_post_study.rt,key_resp_post_study.started,key_resp_post_study.stopped,test_inst.started,test_inst.stopped,key_resp_test_inst.keys,key_resp_test_inst.rt,key_resp_test_inst.started,key_resp_test_inst.stopped,test_word,test_num,test_order,test_condition,old_new_test,word_color_test,textConf.started,textConf.stopped,Participant Response,textInput.started,textInput.stopped,keyResp.keys,keyResp.rt,keyResp.started,keyResp.stopped,textEnd.started,textEnd.stopped,participant,session,date,expName,psychopyVersion,frameRate,
,,,,,,,,,,,,,,,,16.198306400096044,None,n,0.4884005000349134,16.198306400096044,None,,,,,,,,,,,,,,,,,,,,,,,,,,,,,,,,,,,,,,,,,,,,,,,,,,,,,,,,,,,,,,,,,,,,,,,,,,,,,,,,,,,,,,,,,,,,,,,,,,,,,,,,,,,,,,,,,,,,,,99NC,001,2023_Sep_08_1325,ExactRep-v3-final,2021.2.3,60.019794581157036,
,,,,,,,,,,,,,,,,,,,,,,16.71440490009263,None,c,1.2124021998606622,16.71440490009263,None,,,,,,,,,,,,,,,,,,,,,,,,,,,,,,,,,,,,,,,,,,,,,,,,,,,,,,,,,,,,,,,,,,,,,,,,,,,,,,,,,,,,,,,,,,,,,,,,,,,,,,,,,,,,,,,,99NC,001,2023_Sep_08_1325,ExactRep-v3-final,2021.2.3,60.019794581157036,
,,,,,,,,,,,,,,,,,,,,,,,,,,,,whitefoils,c,space,301.8926500999369,28.042042799992487,None,,,,,,,,,,,,,,,,,,,,,,,,,,,,,,,,,,,,,,,,,,,,,,,,,,,,,,,,,,,,,,,,,,,,,,,,,,,,,,,,,,,,,,,,,,,,,,,,,,,,,,,,,,99NC,001,2023_Sep_08_1325,ExactRep-v3-final,2021.2.3,60.019794581157036,
,,,,,,,,,,,,,,,,,,,,,,,,,,,,,,,,,,18.088950300123543,None,18.088950300123543,None,18.088950300123543,None,18.088950300123543,None,18.088950300123543,None,18.088950300123543,None,space,18.560638699913397,340.1659264001064,None,,,,,,,,,,,,,,,,,,,,,,,,,,,,,,,,,,,,,,,,,,,,,,,,,,,,,,,,,,,,,,,,,,,,,,,,,,,,,,,,,,,,,,,,,,99NC,001,2023_Sep_08_1325,ExactRep-v3-final,2021.2.3,60.019794581157036,
0,0,0,0,,,,,,,,,,,,,,,,,,,,,,,,,,,,,,,,,,,,,,,,,,,,,,,330.140460500028,None,330.140460500028,None,330.140460500028,None,330.140460500028,None,330.140460500028,None,330.140460500028,None,358.8444167000707,None,360.8413033001125,None,,,,,,,,,,,,,,,,,,,,,,,,,,,,,,,,,,,,,,,,,,,,,,,,,,,,,,,,,,,,,,,,,,,,,,,,,,99NC,001,2023_Sep_08_1325,ExactRep-v3-final,2021.2.3,60.019794581157036,
1,0,1,0,,,,,,,,,,,,,,,,,,,,,,,,,,,,,,,,,,,,,,,,,,,,,,,,,,,,,,,,,,,361.3473416999914,None,363.36093870014884,None,,,,,,,,,,,,,,,,,,,,,,,,,,,,,,,,,,,,,,,,,,,,,,,,,,,,,,,,,,,,,,,,,,,,,,,,,,99NC,001,2023_Sep_08_1325,ExactRep-v3-final,2021.2.3,60.019794581157036,
2,0,2,0,,,,,,,,,,,,,,,,,,,,,,,,,,,,,,,,,,,,,,,,,,,,,,,,,,,,,,,,,,,363.84672989998944,None,365.8464260001201,None,,,,,,,,,,,,,,,,,,,,,,,,,,,,,,,,,,,,,,,,,,,,,,,,,,,,,,,,,,,,,,,,,,,,,,,,,,99NC,001,2023_Sep_08_1325,ExactRep-v3-final,2021.2.3,60.019794581157036,
3,0,3,0,,,,,,,,,,,,,,,,,,,,,,,,,,,,,,,,,,,,,,,,,,,,,,,,,,,,,,,,,,,366.36089080013335,None,368.3657575000543,None,,,,,,,,,,,,,,,,,,,,,,,,,,,,,,,,,,,,,,,,,,,,,,,,,,,,,,,,,,,,,,,,,,,,,,,,,,99NC,001,2023_Sep_08_1325,ExactRep-v3-final,2021.2.3,60.019794581157036,
4,0,4,0,,,,,,,,,,,,,,,,,,,,,,,,,,,,,,,,,,,,,,,,,,,,,,,,,,,,,,,,,,,368.8822586000897,None,370.88453060016036,None,,,,,,,,,,,,,,,,,,,,,,,,,,,,,,,,,,,,,,,,,,,,,,,,,,,,,,,,,,,,,,,,,,,,,,,,,,99NC,001,2023_Sep_08_1325,ExactRep-v3-final,2021.2.3,60.019794581157036,
5,0,5,0,,,,,,,,,,,,,,,,,,,,,,,,,,,,,,,,,,,,,,,,,,,,,,,,,,,,,,,,,,,371.38708450016566,None,373.38697290001437,None,,,,,,,,,,,,,,,,,,,,,,,,,,,,,,,,,,,,,,,,,,,,,,,,,,,,,,,,,,,,,,,,,,,,,,,,,,99NC,001,2023_Sep_08_1325,ExactRep-v3-final,2021.2.3,60.019794581157036,
6,0,6,0,,,,,,,,,,,,,,,,,,,,,,,,,,,,,,,,,,,,,,,,,,,,,,,,,,,,,,,,,,,373.8880955001805,None,375.88998350012116,None,,,,,,,,,,,,,,,,,,,,,,,,,,,,,,,,,,,,,,,,,,,,,,,,,,,,,,,,,,,,,,,,,,,,,,,,,,99NC,001,2023_Sep_08_1325,ExactRep-v3-final,2021.2.3,60.019794581157036,
7,0,7,0,,,,,,,,,,,,,,,,,,,,,,,,,,,,,,,,,,,,,,,,,,,,,,,,,,,,,,,,,,,376.39430909999646,None,378.4091672000941,None,,,,,,,,,,,,,,,,,,,,,,,,,,,,,,,,,,,,,,,,,,,,,,,,,,,,,,,,,,,,,,,,,,,,,,,,,,99NC,001,2023_Sep_08_1325,ExactRep-v3-final,2021.2.3,60.019794581157036,
8,0,8,0,,,,,,,,,,,,,,,,,,,,,,,,,,,,,,,,,,,,,,,,,,,,,,,,,,,,,,,,,,,378.9125065000262,None,380.91167900012806,None,,,,,,,,,,,,,,,,,,,,,,,,,,,,,,,,,,,,,,,,,,,,,,,,,,,,,,,,,,,,,,,,,,,,,,,,,,99NC,001,2023_Sep_08_1325,ExactRep-v3-final,2021.2.3,60.019794581157036,
9,0,9,0,,,,,,,,,,,,,,,,,,,,,,,,,,,,,,,,,,,,,,,,,,,,,,,,,,,,,,,,,,,381.41175170009956,None,383.4141691001132,None,,,,,,,,,,,,,,,,,,,,,,,,,,,,,,,,,,,,,,,,,,,,,,,,,,,,,,,,,,,,,,,,,,,,,,,,,,99NC,001,2023_Sep_08_1325,ExactRep-v3-final,2021.2.3,60.019794581157036,
10,0,10,0,,,,,,,,,,,,,,,,,,,,,,,,,,,,,,,,,,,,,,,,,,,,,,,,,,,,,,,,,,,383.9184167000931,None,385.9334944000002,None,,,,,,,,,,,,,,,,,,,,,,,,,,,,,,,,,,,,,,,,,,,,,,,,,,,,,,,,,,,,,,,,,,,,,,,,,,99NC,001,2023_Sep_08_1325,ExactRep-v3-final,2021.2.3,60.019794581157036,
11,0,11,0,,,,,,,,,,,,,,,,,,,,,,,,,,,,,,,,,,,,,,,,,,,,,,,,,,,,,,,,,,,386.4365340999793,None,388.4358207001351,None,,,,,,,,,,,,,,,,,,,,,,,,,,,,,,,,,,,,,,,,,,,,,,,,,,,,,,,,,,,,,,,,,,,,,,,,,,99NC,001,2023_Sep_08_1325,ExactRep-v3-final,2021.2.3,60.019794581157036,
12,0,12,0,,,,,,,,,,,,,,,,,,,,,,,,,,,,,,,,,,,,,,,,,,,,,,,,,,,,,,,,,,,388.9369660001248,None,390.9392568001058,None,,,,,,,,,,,,,,,,,,,,,,,,,,,,,,,,,,,,,,,,,,,,,,,,,,,,,,,,,,,,,,,,,,,,,,,,,,99NC,001,2023_Sep_08_1325,ExactRep-v3-final,2021.2.3,60.019794581157036,
13,0,13,0,,,,,,,,,,,,,,,,,,,,,,,,,,,,,,,,,,,,,,,,,,,,,,,,,,,,,,,,,,,391.4426365001127,None,393.4574945999775,None,,,,,,,,,,,,,,,,,,,,,,,,,,,,,,,,,,,,,,,,,,,,,,,,,,,,,,,,,,,,,,,,,,,,,,,,,,99NC,001,2023_Sep_08_1325,ExactRep-v3-final,2021.2.3,60.019794581157036,
14,0,14,0,,,,,,,,,,,,,,,,,,,,,,,,,,,,,,,,,,,,,,,,,,,,,,,,,,,,,,,,,,,393.96279610018246,None,395.9767122999765,None,,,,,,,,,,,,,,,,,,,,,,,,,,,,,,,,,,,,,,,,,,,,,,,,,,,,,,,,,,,,,,,,,,,,,,,,,,99NC,001,2023_Sep_08_1325,ExactRep-v3-final,2021.2.3,60.019794581157036,
,,,,,,,,,,,,,,,,,,,,,,,,,,,,,,,,,,,,,,,,,,,,,,,,,,,,,,,,,,,,,,,,,,space,13.132808700203896,406.6101198999677,None,,,,,,,,,,,,,,,,,,,,,,,,,,,,,,,,,,,,,,,,,,,,,,,,,,,,,,,,,,,,,,,,,,,,,,99NC,001,2023_Sep_08_1325,ExactRep-v3-final,2021.2.3,60.019794581157036,
,,,,0,0,0,0,,,,,,,,,,,,,,,,,,,,,,,,,,,,,,,,,,,,,,,,,,,,,,,,,,,,,,,,,421.8366718001198,None,,,,,396.6393285000231,None,396.6393285000231,None,396.6393285000231,None,396.6393285000231,None,396.6393285000231,None,396.6393285000231,None,419.8292547999881,None,,,,,,,,,,,,,,,,,,,,,,,,,,,,,,,,,,,,,,,,,,,,,,,,,,,,,,,,99NC,001,2023_Sep_08_1325,ExactRep-v3-final,2021.2.3,60.019794581157036,
,,,,1,0,1,0,,,,,,,,,,,,,,,,,,,,,,,,,,,,,,,,,,,,,,,,,,,,,,,,,,,,,,,,,424.33835600013845,None,,,,,,,,,,,,,,,,,422.3364480000455,None,,,,,,,,,,,,,,,,,,,,,,,,,,,,,,,,,,,,,,,,,,,,,,,,,,,,,,,,99NC,001,2023_Sep_08_1325,ExactRep-v3-final,2021.2.3,60.019794581157036,
,,,,2,0,2,0,,,,,,,,,,,,,,,,,,,,,,,,,,,,,,,,,,,,,,,,,,,,,,,,,,,,,,,,,426.84051770018414,None,,,,,,,,,,,,,,,,,424.838757700054,None,,,,,,,,,,,,,,,,,,,,,,,,,,,,,,,,,,,,,,,,,,,,,,,,,,,,,,,,99NC,001,2023_Sep_08_1325,ExactRep-v3-final,2021.2.3,60.019794581157036,
,,,,3,0,3,0,,,,,,,,,,,,,,,,,,,,,,,,,,,,,,,,,,,,,,,,,,,,,,,,,,,,,,,,,429.34296160005033,None,,,,,,,,,,,,,,,,,427.3411759000737,None,,,,,,,,,,,,,,,,,,,,,,,,,,,,,,,,,,,,,,,,,,,,,,,,,,,,,,,,99NC,001,2023_Sep_08_1325,ExactRep-v3-final,2021.2.3,60.019794581157036,
,,,,4,0,4,0,,,,,,,,,,,,,,,,,,,,,,,,,,,,,,,,,,,,,,,,,,,,,,,,,,,,,,,,,431.8458726000972,None,,,,,,,,,,,,,,,,,429.84404560015537,None,,,,,,,,,,,,,,,,,,,,,,,,,,,,,,,,,,,,,,,,,,,,,,,,,,,,,,,,99NC,001,2023_Sep_08_1325,ExactRep-v3-final,2021.2.3,60.019794581157036,
,,,,5,0,5,0,,,,,,,,,,,,,,,,,,,,,,,,,,,,,,,,,,,,,,,,,,,,,,,,,,,,,,,,,434.3482611000072,None,,,,,,,,,,,,,,,,,432.34626000002027,None,,,,,,,,,,,,,,,,,,,,,,,,,,,,,,,,,,,,,,,,,,,,,,,,,,,,,,,,99NC,001,2023_Sep_08_1325,ExactRep-v3-final,2021.2.3,60.019794581157036,
,,,,6,0,6,0,,,,,,,,,,,,,,,,,,,,,,,,,,,,,,,,,,,,,,,,,,,,,,,,,,,,,,,,,436.85069120000117,None,,,,,,,,,,,,,,,,,434.84898909996264,None,,,,,,,,,,,,,,,,,,,,,,,,,,,,,,,,,,,,,,,,,,,,,,,,,,,,,,,,99NC,001,2023_Sep_08_1325,ExactRep-v3-final,2021.2.3,60.019794581157036,
,,,,7,0,7,0,,,,,,,,,,,,,,,,,,,,,,,,,,,,,,,,,,,,,,,,,,,,,,,,,,,,,,,,,439.353200300131,None,,,,,,,,,,,,,,,,,437.3512569000013,None,,,,,,,,,,,,,,,,,,,,,,,,,,,,,,,,,,,,,,,,,,,,,,,,,,,,,,,,99NC,001,2023_Sep_08_1325,ExactRep-v3-final,2021.2.3,60.019794581157036,
,,,,8,0,8,0,,,,,,,,,,,,,,,,,,,,,,,,,,,,,,,,,,,,,,,,,,,,,,,,,,,,,,,,,441.85550790000707,None,,,,,,,,,,,,,,,,,439.8536931001581,None,,,,,,,,,,,,,,,,,,,,,,,,,,,,,,,,,,,,,,,,,,,,,,,,,,,,,,,,99NC,001,2023_Sep_08_1325,ExactRep-v3-final,2021.2.3,60.019794581157036,
,,,,9,0,9,0,,,,,,,,,,,,,,,,,,,,,,,,,,,,,,,,,,,,,,,,,,,,,,,,,,,,,,,,,444.35819120006636,None,,,,,,,,,,,,,,,,,442.3562286000233,None,,,,,,,,,,,,,,,,,,,,,,,,,,,,,,,,,,,,,,,,,,,,,,,,,,,,,,,,99NC,001,2023_Sep_08_1325,ExactRep-v3-final,2021.2.3,60.019794581157036,
,,,,10,0,10,0,,,,,,,,,,,,,,,,,,,,,,,,,,,,,,,,,,,,,,,,,,,,,,,,,,,,,,,,,446.8608085999731,None,,,,,,,,,,,,,,,,,444.8588279001415,None,,,,,,,,,,,,,,,,,,,,,,,,,,,,,,,,,,,,,,,,,,,,,,,,,,,,,,,,99NC,001,2023_Sep_08_1325,ExactRep-v3-final,2021.2.3,60.019794581157036,
,,,,11,0,11,0,,,,,,,,,,,,,,,,,,,,,,,,,,,,,,,,,,,,,,,,,,,,,,,,,,,,,,,,,449.36339309997857,None,,,,,,,,,,,,,,,,,447.3614880000241,None,,,,,,,,,,,,,,,,,,,,,,,,,,,,,,,,,,,,,,,,,,,,,,,,,,,,,,,,99NC,001,2023_Sep_08_1325,ExactRep-v3-final,2021.2.3,60.019794581157036,
,,,,12,0,12,0,,,,,,,,,,,,,,,,,,,,,,,,,,,,,,,,,,,,,,,,,,,,,,,,,,,,,,,,,451.86550429998897,None,,,,,,,,,,,,,,,,,449.8638789001852,None,,,,,,,,,,,,,,,,,,,,,,,,,,,,,,,,,,,,,,,,,,,,,,,,,,,,,,,,99NC,001,2023_Sep_08_1325,ExactRep-v3-final,2021.2.3,60.019794581157036,
,,,,13,0,13,0,,,,,,,,,,,,,,,,,,,,,,,,,,,,,,,,,,,,,,,,,,,,,,,,,,,,,,,,,454.3679736000486,None,,,,,,,,,,,,,,,,,452.3659516000189,None,,,,,,,,,,,,,,,,,,,,,,,,,,,,,,,,,,,,,,,,,,,,,,,,,,,,,,,,99NC,001,2023_Sep_08_1325,ExactRep-v3-final,2021.2.3,60.019794581157036,
,,,,14,0,14,0,,,,,,,,,,,,,,,,,,,,,,,,,,,,,,,,,,,,,,,,,,,,,,,,,,,,,,,,,456.8708826000802,None,,,,,,,,,,,,,,,,,454.8691336000338,None,,,,,,,,,,,,,,,,,,,,,,,,,,,,,,,,,,,,,,,,,,,,,,,,,,,,,,,,99NC,001,2023_Sep_08_1325,ExactRep-v3-final,2021.2.3,60.019794581157036,
,,,,,,,,,,,,,,,,,,,,,,,,,,,,,,,,,,,,,,,,,,,,,,,,,,,,,,,,,,,,,,,,,,,,,,,,,,,,,,,,,,,,space,33.12008900009096,467.5186213001143,None,,,,,,,,,,,,,,,,,,,,,,,,,,,,,,,,,,,,,,,,,,,,,,,,,,,,99NC,001,2023_Sep_08_1325,ExactRep-v3-final,2021.2.3,60.019794581157036,
,,,,,,,,0,0,0,0,,,,,,,,,,,,,,,,,,,,,,,,,,,,,,,,,,,,,,,,,,,,,,,,,,,,,502.71617220016196,None,,,,,,,,,,,,,,,,,,,,,,,457.54016510001384,None,457.54016510001384,None,457.54016510001384,None,457.54016510001384,None,457.54016510001384,None,457.54016510001384,None,series,113,1,aloud,blue,500.7021580999717,None,None,500.7021580999717,None,,,,,,,,,,,,,,,,,,,,,,,,,,,,,,99NC,001,2023_Sep_08_1325,ExactRep-v3-final,2021.2.3,60.019794581157036,
,,,,,,,,1,0,1,0,,,,,,,,,,,,,,,,,,,,,,,,,,,,,,,,,,,,,,,,,,,,,,,,,,,,,505.21913770004176,None,,,,,,,,,,,,,,,,,,,,,,,,,,,,,,,,,,,disease,115,2,aloud,blue,503.2173602001276,None,None,503.2173602001276,None,,,,,,,,,,,,,,,,,,,,,,,,,,,,,,99NC,001,2023_Sep_08_1325,ExactRep-v3-final,2021.2.3,60.019794581157036,
,,,,,,,,2,0,2,0,,,,,,,,,,,,,,,,,,,,,,,,,,,,,,,,,,,,,,,,,,,,,,,,,,,,,507.73827309999615,None,,,,,,,,,,,,,,,,,,,,,,,,,,,,,,,,,,,blossom,55,3,silent,red,505.7261578000616,None,None,505.7261578000616,None,,,,,,,,,,,,,,,,,,,,,,,,,,,,,,99NC,001,2023_Sep_08_1325,ExactRep-v3-final,2021.2.3,60.019794581157036,
,,,,,,,,3,0,3,0,,,,,,,,,,,,,,,,,,,,,,,,,,,,,,,,,,,,,,,,,,,,,,,,,,,,,510.25752860005014,None,,,,,,,,,,,,,,,,,,,,,,,,,,,,,,,,,,,cash,25,4,sing,white,508.25727130007,None,None,508.25727130007,None,,,,,,,,,,,,,,,,,,,,,,,,,,,,,,99NC,001,2023_Sep_08_1325,ExactRep-v3-final,2021.2.3,60.019794581157036,
,,,,,,,,4,0,4,0,,,,,,,,,,,,,,,,,,,,,,,,,,,,,,,,,,,,,,,,,,,,,,,,,,,,,512.7598250000738,None,,,,,,,,,,,,,,,,,,,,,,,,,,,,,,,,,,,freedom,109,5,aloud,blue,510.75986720016226,None,None,510.75986720016226,None,,,,,,,,,,,,,,,,,,,,,,,,,,,,,,99NC,001,2023_Sep_08_1325,ExactRep-v3-final,2021.2.3,60.019794581157036,
,,,,,,,,5,0,5,0,,,,,,,,,,,,,,,,,,,,,,,,,,,,,,,,,,,,,,,,,,,,,,,,,,,,,515.2649279001635,None,,,,,,,,,,,,,,,,,,,,,,,,,,,,,,,,,,,flood,3,6,sing,white,513.2620133000892,None,None,513.2620133000892,None,,,,,,,,,,,,,,,,,,,,,,,,,,,,,,99NC,001,2023_Sep_08_1325,ExactRep-v3-final,2021.2.3,60.019794581157036,
,,,,,,,,6,0,6,0,,,,,,,,,,,,,,,,,,,,,,,,,,,,,,,,,,,,,,,,,,,,,,,,,,,,,517.7817164000589,None,,,,,,,,,,,,,,,,,,,,,,,,,,,,,,,,,,,lad,50,7,silent,red,515.7826084999833,None,None,515.7826084999833,None,,,,,,,,,,,,,,,,,,,,,,,,,,,,,,99NC,001,2023_Sep_08_1325,ExactRep-v3-final,2021.2.3,60.019794581157036,
,,,,,,,,7,0,7,0,,,,,,,,,,,,,,,,,,,,,,,,,,,,,,,,,,,,,,,,,,,,,,,,,,,,,520.3007133000065,None,,,,,,,,,,,,,,,,,,,,,,,,,,,,,,,,,,,toy,96,8,aloud,blue,518.2878016000614,None,None,518.2878016000614,None,,,,,,,,,,,,,,,,,,,,,,,,,,,,,,99NC,001,2023_Sep_08_1325,ExactRep-v3-final,2021.2.3,60.019794581157036,
,,,,,,,,8,0,8,0,,,,,,,,,,,,,,,,,,,,,,,,,,,,,,,,,,,,,,,,,,,,,,,,,,,,,522.8200693000108,None,,,,,,,,,,,,,,,,,,,,,,,,,,,,,,,,,,,soul,92,9,aloud,blue,520.8066633001436,None,None,520.8066633001436,None,,,,,,,,,,,,,,,,,,,,,,,,,,,,,,99NC,001,2023_Sep_08_1325,ExactRep-v3-final,2021.2.3,60.019794581157036,
,,,,,,,,9,0,9,0,,,,,,,,,,,,,,,,,,,,,,,,,,,,,,,,,,,,,,,,,,,,,,,,,,,,,525.3400278000627,None,,,,,,,,,,,,,,,,,,,,,,,,,,,,,,,,,,,car,71,10,silent,red,523.3238773001358,None,None,523.3238773001358,None,,,,,,,,,,,,,,,,,,,,,,,,,,,,,,99NC,001,2023_Sep_08_1325,ExactRep-v3-final,2021.2.3,60.019794581157036,
,,,,,,,,10,0,10,0,,,,,,,,,,,,,,,,,,,,,,,,,,,,,,,,,,,,,,,,,,,,,,,,,,,,,527.8417144000996,None,,,,,,,,,,,,,,,,,,,,,,,,,,,,,,,,,,,history,37,11,sing,white,525.8412178000435,None,None,525.8412178000435,None,,,,,,,,,,,,,,,,,,,,,,,,,,,,,,99NC,001,2023_Sep_08_1325,ExactRep-v3-final,2021.2.3,60.019794581157036,
,,,,,,,,11,0,11,0,,,,,,,,,,,,,,,,,,,,,,,,,,,,,,,,,,,,,,,,,,,,,,,,,,,,,530.3606792001519,None,,,,,,,,,,,,,,,,,,,,,,,,,,,,,,,,,,,teacher,80,12,aloud,blue,528.3465005999897,None,None,528.3465005999897,None,,,,,,,,,,,,,,,,,,,,,,,,,,,,,,99NC,001,2023_Sep_08_1325,ExactRep-v3-final,2021.2.3,60.019794581157036,
,,,,,,,,12,0,12,0,,,,,,,,,,,,,,,,,,,,,,,,,,,,,,,,,,,,,,,,,,,,,,,,,,,,,532.8803477999754,None,,,,,,,,,,,,,,,,,,,,,,,,,,,,,,,,,,,church,1,13,sing,white,530.8670668001287,None,None,530.8670668001287,None,,,,,,,,,,,,,,,,,,,,,,,,,,,,,,99NC,001,2023_Sep_08_1325,ExactRep-v3-final,2021.2.3,60.019794581157036,
,,,,,,,,13,0,13,0,,,,,,,,,,,,,,,,,,,,,,,,,,,,,,,,,,,,,,,,,,,,,,,,,,,,,535.3824724999722,None,,,,,,,,,,,,,,,,,,,,,,,,,,,,,,,,,,,amount,27,14,sing,white,533.3810476001818,None,None,533.3810476001818,None,,,,,,,,,,,,,,,,,,,,,,,,,,,,,,99NC,001,2023_Sep_08_1325,ExactRep-v3-final,2021.2.3,60.019794581157036,
,,,,,,,,14,0,14,0,,,,,,,,,,,,,,,,,,,,,,,,,,,,,,,,,,,,,,,,,,,,,,,,,,,,,537.9016999001615,None,,,,,,,,,,,,,,,,,,,,,,,,,,,,,,,,,,,circle,91,15,aloud,blue,535.8865070000757,None,None,535.8865070000757,None,,,,,,,,,,,,,,,,,,,,,,,,,,,,,,99NC,001,2023_Sep_08_1325,ExactRep-v3-final,2021.2.3,60.019794581157036,
,,,,,,,,15,0,15,0,,,,,,,,,,,,,,,,,,,,,,,,,,,,,,,,,,,,,,,,,,,,,,,,,,,,,540.4209142001346,None,,,,,,,,,,,,,,,,,,,,,,,,,,,,,,,,,,,diamond,108,16,aloud,blue,538.4139471000526,None,None,538.4139471000526,None,,,,,,,,,,,,,,,,,,,,,,,,,,,,,,99NC,001,2023_Sep_08_1325,ExactRep-v3-final,2021.2.3,60.019794581157036,
,,,,,,,,16,0,16,0,,,,,,,,,,,,,,,,,,,,,,,,,,,,,,,,,,,,,,,,,,,,,,,,,,,,,542.9400987001136,None,,,,,,,,,,,,,,,,,,,,,,,,,,,,,,,,,,,woods,82,17,aloud,blue,540.9260705001652,None,None,540.9260705001652,None,,,,,,,,,,,,,,,,,,,,,,,,,,,,,,99NC,001,2023_Sep_08_1325,ExactRep-v3-final,2021.2.3,60.019794581157036,
,,,,,,,,17,0,17,0,,,,,,,,,,,,,,,,,,,,,,,,,,,,,,,,,,,,,,,,,,,,,,,,,,,,,545.4422915000468,None,,,,,,,,,,,,,,,,,,,,,,,,,,,,,,,,,,,meeting,31,18,sing,white,543.4419377001468,None,None,543.4419377001468,None,,,,,,,,,,,,,,,,,,,,,,,,,,,,,,99NC,001,2023_Sep_08_1325,ExactRep-v3-final,2021.2.3,60.019794581157036,
,,,,,,,,18,0,18,0,,,,,,,,,,,,,,,,,,,,,,,,,,,,,,,,,,,,,,,,,,,,,,,,,,,,,547.9450183000881,None,,,,,,,,,,,,,,,,,,,,,,,,,,,,,,,,,,,house,32,19,sing,white,545.9432531001512,None,None,545.9432531001512,None,,,,,,,,,,,,,,,,,,,,,,,,,,,,,,99NC,001,2023_Sep_08_1325,ExactRep-v3-final,2021.2.3,60.019794581157036,
,,,,,,,,19,0,19,0,,,,,,,,,,,,,,,,,,,,,,,,,,,,,,,,,,,,,,,,,,,,,,,,,,,,,550.4472872000188,None,,,,,,,,,,,,,,,,,,,,,,,,,,,,,,,,,,,hall,6,20,sing,white,548.4466143001337,None,None,548.4466143001337,None,,,,,,,,,,,,,,,,,,,,,,,,,,,,,,99NC,001,2023_Sep_08_1325,ExactRep-v3-final,2021.2.3,60.019794581157036,
,,,,,,,,20,0,20,0,,,,,,,,,,,,,,,,,,,,,,,,,,,,,,,,,,,,,,,,,,,,,,,,,,,,,552.9664750001393,None,,,,,,,,,,,,,,,,,,,,,,,,,,,,,,,,,,,law,73,21,silent,red,550.9561167000793,None,None,550.9561167000793,None,,,,,,,,,,,,,,,,,,,,,,,,,,,,,,99NC,001,2023_Sep_08_1325,ExactRep-v3-final,2021.2.3,60.019794581157036,
,,,,,,,,21,0,21,0,,,,,,,,,,,,,,,,,,,,,,,,,,,,,,,,,,,,,,,,,,,,,,,,,,,,,555.4862544999924,None,,,,,,,,,,,,,,,,,,,,,,,,,,,,,,,,,,,ticket,14,22,sing,white,553.4726289999671,None,None,553.4726289999671,None,,,,,,,,,,,,,,,,,,,,,,,,,,,,,,99NC,001,2023_Sep_08_1325,ExactRep-v3-final,2021.2.3,60.019794581157036,
,,,,,,,,22,0,22,0,,,,,,,,,,,,,,,,,,,,,,,,,,,,,,,,,,,,,,,,,,,,,,,,,,,,,558.0048442999832,None,,,,,,,,,,,,,,,,,,,,,,,,,,,,,,,,,,,letter,87,23,aloud,blue,555.991138700163,None,None,555.991138700163,None,,,,,,,,,,,,,,,,,,,,,,,,,,,,,,99NC,001,2023_Sep_08_1325,ExactRep-v3-final,2021.2.3,60.019794581157036,
,,,,,,,,23,0,23,0,,,,,,,,,,,,,,,,,,,,,,,,,,,,,,,,,,,,,,,,,,,,,,,,,,,,,560.507448800141,None,,,,,,,,,,,,,,,,,,,,,,,,,,,,,,,,,,,death,118,24,aloud,blue,558.5084020001814,None,None,558.5084020001814,None,,,,,,,,,,,,,,,,,,,,,,,,,,,,,,99NC,001,2023_Sep_08_1325,ExactRep-v3-final,2021.2.3,60.019794581157036,
,,,,,,,,24,0,24,0,,,,,,,,,,,,,,,,,,,,,,,,,,,,,,,,,,,,,,,,,,,,,,,,,,,,,563.026715700049,None,,,,,,,,,,,,,,,,,,,,,,,,,,,,,,,,,,,wine,22,25,sing,white,561.0194809001405,None,None,561.0194809001405,None,,,,,,,,,,,,,,,,,,,,,,,,,,,,,,99NC,001,2023_Sep_08_1325,ExactRep-v3-final,2021.2.3,60.019794581157036,
,,,,,,,,25,0,25,0,,,,,,,,,,,,,,,,,,,,,,,,,,,,,,,,,,,,,,,,,,,,,,,,,,,,,565.5290420001838,None,,,,,,,,,,,,,,,,,,,,,,,,,,,,,,,,,,,door,10,26,sing,white,563.5273190001026,None,None,563.5273190001026,None,,,,,,,,,,,,,,,,,,,,,,,,,,,,,,99NC,001,2023_Sep_08_1325,ExactRep-v3-final,2021.2.3,60.019794581157036,
,,,,,,,,26,0,26,0,,,,,,,,,,,,,,,,,,,,,,,,,,,,,,,,,,,,,,,,,,,,,,,,,,,,,568.0318956000265,None,,,,,,,,,,,,,,,,,,,,,,,,,,,,,,,,,,,artist,88,27,aloud,blue,566.0315919001587,None,None,566.0315919001587,None,,,,,,,,,,,,,,,,,,,,,,,,,,,,,,99NC,001,2023_Sep_08_1325,ExactRep-v3-final,2021.2.3,60.019794581157036,
,,,,,,,,27,0,27,0,,,,,,,,,,,,,,,,,,,,,,,,,,,,,,,,,,,,,,,,,,,,,,,,,,,,,570.5510195000097,None,,,,,,,,,,,,,,,,,,,,,,,,,,,,,,,,,,,seat,5,28,sing,white,568.5359189000446,None,None,568.5359189000446,None,,,,,,,,,,,,,,,,,,,,,,,,,,,,,,99NC,001,2023_Sep_08_1325,ExactRep-v3-final,2021.2.3,60.019794581157036,
,,,,,,,,28,0,28,0,,,,,,,,,,,,,,,,,,,,,,,,,,,,,,,,,,,,,,,,,,,,,,,,,,,,,573.0535152000375,None,,,,,,,,,,,,,,,,,,,,,,,,,,,,,,,,,,,health,12,29,sing,white,571.0540325001348,None,None,571.0540325001348,None,,,,,,,,,,,,,,,,,,,,,,,,,,,,,,99NC,001,2023_Sep_08_1325,ExactRep-v3-final,2021.2.3,60.019794581157036,
,,,,,,,,29,0,29,0,,,,,,,,,,,,,,,,,,,,,,,,,,,,,,,,,,,,,,,,,,,,,,,,,,,,,575.5723894999828,None,,,,,,,,,,,,,,,,,,,,,,,,,,,,,,,,,,,advice,40,30,silent,red,573.5611074999906,None,None,573.5611074999906,None,,,,,,,,,,,,,,,,,,,,,,,,,,,,,,99NC,001,2023_Sep_08_1325,ExactRep-v3-final,2021.2.3,60.019794581157036,
,,,,,,,,30,0,30,0,,,,,,,,,,,,,,,,,,,,,,,,,,,,,,,,,,,,,,,,,,,,,,,,,,,,,578.074888800038,None,,,,,,,,,,,,,,,,,,,,,,,,,,,,,,,,,,,boulder,58,31,silent,red,576.0729539999738,None,None,576.0729539999738,None,,,,,,,,,,,,,,,,,,,,,,,,,,,,,,99NC,001,2023_Sep_08_1325,ExactRep-v3-final,2021.2.3,60.019794581157036,
,,,,,,,,31,0,31,0,,,,,,,,,,,,,,,,,,,,,,,,,,,,,,,,,,,,,,,,,,,,,,,,,,,,,580.5943674000446,None,,,,,,,,,,,,,,,,,,,,,,,,,,,,,,,,,,,speech,43,32,silent,red,578.5906754999887,None,None,578.5906754999887,None,,,,,,,,,,,,,,,,,,,,,,,,,,,,,,99NC,001,2023_Sep_08_1325,ExactRep-v3-final,2021.2.3,60.019794581157036,
,,,,,,,,32,0,32,0,,,,,,,,,,,,,,,,,,,,,,,,,,,,,,,,,,,,,,,,,,,,,,,,,,,,,583.0968423001468,None,,,,,,,,,,,,,,,,,,,,,,,,,,,,,,,,,,,murder,105,33,aloud,blue,581.0966630000621,None,None,581.0966630000621,None,,,,,,,,,,,,,,,,,,,,,,,,,,,,,,99NC,001,2023_Sep_08_1325,ExactRep-v3-final,2021.2.3,60.019794581157036,
,,,,,,,,33,0,33,0,,,,,,,,,,,,,,,,,,,,,,,,,,,,,,,,,,,,,,,,,,,,,,,,,,,,,585.6157162999734,None,,,,,,,,,,,,,,,,,,,,,,,,,,,,,,,,,,,queen,34,34,sing,white,583.6052757001016,None,None,583.6052757001016,None,,,,,,,,,,,,,,,,,,,,,,,,,,,,,,99NC,001,2023_Sep_08_1325,ExactRep-v3-final,2021.2.3,60.019794581157036,
,,,,,,,,34,0,34,0,,,,,,,,,,,,,,,,,,,,,,,,,,,,,,,,,,,,,,,,,,,,,,,,,,,,,588.1182808000594,None,,,,,,,,,,,,,,,,,,,,,,,,,,,,,,,,,,,shock,70,35,silent,red,586.1167522000615,None,None,586.1167522000615,None,,,,,,,,,,,,,,,,,,,,,,,,,,,,,,99NC,001,2023_Sep_08_1325,ExactRep-v3-final,2021.2.3,60.019794581157036,
,,,,,,,,35,0,35,0,,,,,,,,,,,,,,,,,,,,,,,,,,,,,,,,,,,,,,,,,,,,,,,,,,,,,590.6207221001387,None,,,,,,,,,,,,,,,,,,,,,,,,,,,,,,,,,,,party,76,36,silent,red,588.6190816001035,None,None,588.6190816001035,None,,,,,,,,,,,,,,,,,,,,,,,,,,,,,,99NC,001,2023_Sep_08_1325,ExactRep-v3-final,2021.2.3,60.019794581157036,
,,,,,,,,36,0,36,0,,,,,,,,,,,,,,,,,,,,,,,,,,,,,,,,,,,,,,,,,,,,,,,,,,,,,593.1402359001804,None,,,,,,,,,,,,,,,,,,,,,,,,,,,,,,,,,,,judge,8,37,sing,white,591.140107500134,None,None,591.140107500134,None,,,,,,,,,,,,,,,,,,,,,,,,,,,,,,99NC,001,2023_Sep_08_1325,ExactRep-v3-final,2021.2.3,60.019794581157036,
,,,,,,,,37,0,37,0,,,,,,,,,,,,,,,,,,,,,,,,,,,,,,,,,,,,,,,,,,,,,,,,,,,,,595.6423053999897,None,,,,,,,,,,,,,,,,,,,,,,,,,,,,,,,,,,,soil,21,38,sing,white,593.6420450999867,None,None,593.6420450999867,None,,,,,,,,,,,,,,,,,,,,,,,,,,,,,,99NC,001,2023_Sep_08_1325,ExactRep-v3-final,2021.2.3,60.019794581157036,
,,,,,,,,38,0,38,0,,,,,,,,,,,,,,,,,,,,,,,,,,,,,,,,,,,,,,,,,,,,,,,,,,,,,598.1451012000907,None,,,,,,,,,,,,,,,,,,,,,,,,,,,,,,,,,,,horse,117,39,aloud,blue,596.1459482000209,None,None,596.1459482000209,None,,,,,,,,,,,,,,,,,,,,,,,,,,,,,,99NC,001,2023_Sep_08_1325,ExactRep-v3-final,2021.2.3,60.019794581157036,
,,,,,,,,39,0,39,0,,,,,,,,,,,,,,,,,,,,,,,,,,,,,,,,,,,,,,,,,,,,,,,,,,,,,600.6477330001071,None,,,,,,,,,,,,,,,,,,,,,,,,,,,,,,,,,,,coin,85,40,aloud,blue,598.645837899996,None,None,598.645837899996,None,,,,,,,,,,,,,,,,,,,,,,,,,,,,,,99NC,001,2023_Sep_08_1325,ExactRep-v3-final,2021.2.3,60.019794581157036,
,,,,,,,,40,0,40,0,,,,,,,,,,,,,,,,,,,,,,,,,,,,,,,,,,,,,,,,,,,,,,,,,,,,,603.1501042000018,None,,,,,,,,,,,,,,,,,,,,,,,,,,,,,,,,,,,life,0,41,sing,white,601.1507836000528,None,None,601.1507836000528,None,,,,,,,,,,,,,,,,,,,,,,,,,,,,,,99NC,001,2023_Sep_08_1325,ExactRep-v3-final,2021.2.3,60.019794581157036,
,,,,,,,,41,0,41,0,,,,,,,,,,,,,,,,,,,,,,,,,,,,,,,,,,,,,,,,,,,,,,,,,,,,,605.669097200036,None,,,,,,,,,,,,,,,,,,,,,,,,,,,,,,,,,,,steam,48,42,silent,red,603.6554221999831,None,None,603.6554221999831,None,,,,,,,,,,,,,,,,,,,,,,,,,,,,,,99NC,001,2023_Sep_08_1325,ExactRep-v3-final,2021.2.3,60.019794581157036,
,,,,,,,,42,0,42,0,,,,,,,,,,,,,,,,,,,,,,,,,,,,,,,,,,,,,,,,,,,,,,,,,,,,,608.1717175999656,None,,,,,,,,,,,,,,,,,,,,,,,,,,,,,,,,,,,dust,100,43,aloud,blue,606.1699485999998,None,None,606.1699485999998,None,,,,,,,,,,,,,,,,,,,,,,,,,,,,,,99NC,001,2023_Sep_08_1325,ExactRep-v3-final,2021.2.3,60.019794581157036,
,,,,,,,,43,0,43,0,,,,,,,,,,,,,,,,,,,,,,,,,,,,,,,,,,,,,,,,,,,,,,,,,,,,,610.6908417001832,None,,,,,,,,,,,,,,,,,,,,,,,,,,,,,,,,,,,butter,57,44,silent,red,608.6770006001461,None,None,608.6770006001461,None,,,,,,,,,,,,,,,,,,,,,,,,,,,,,,99NC,001,2023_Sep_08_1325,ExactRep-v3-final,2021.2.3,60.019794581157036,
,,,,,,,,44,0,44,0,,,,,,,,,,,,,,,,,,,,,,,,,,,,,,,,,,,,,,,,,,,,,,,,,,,,,613.1934285000898,None,,,,,,,,,,,,,,,,,,,,,,,,,,,,,,,,,,,wheat,53,45,silent,red,611.1917396001518,None,None,611.1917396001518,None,,,,,,,,,,,,,,,,,,,,,,,,,,,,,,99NC,001,2023_Sep_08_1325,ExactRep-v3-final,2021.2.3,60.019794581157036,
,,,,,,,,45,0,45,0,,,,,,,,,,,,,,,,,,,,,,,,,,,,,,,,,,,,,,,,,,,,,,,,,,,,,615.6960315001197,None,,,,,,,,,,,,,,,,,,,,,,,,,,,,,,,,,,,science,61,46,silent,red,613.6961749000475,None,None,613.6961749000475,None,,,,,,,,,,,,,,,,,,,,,,,,,,,,,,99NC,001,2023_Sep_08_1325,ExactRep-v3-final,2021.2.3,60.019794581157036,
,,,,,,,,46,0,46,0,,,,,,,,,,,,,,,,,,,,,,,,,,,,,,,,,,,,,,,,,,,,,,,,,,,,,618.214822200127,None,,,,,,,,,,,,,,,,,,,,,,,,,,,,,,,,,,,vision,112,47,aloud,blue,616.2001027001534,None,None,616.2001027001534,None,,,,,,,,,,,,,,,,,,,,,,,,,,,,,,99NC,001,2023_Sep_08_1325,ExactRep-v3-final,2021.2.3,60.019794581157036,
,,,,,,,,47,0,47,0,,,,,,,,,,,,,,,,,,,,,,,,,,,,,,,,,,,,,,,,,,,,,,,,,,,,,620.7178764001001,None,,,,,,,,,,,,,,,,,,,,,,,,,,,,,,,,,,,picture,68,48,silent,red,618.7159736000467,None,None,618.7159736000467,None,,,,,,,,,,,,,,,,,,,,,,,,,,,,,,99NC,001,2023_Sep_08_1325,ExactRep-v3-final,2021.2.3,60.019794581157036,
,,,,,,,,48,0,48,0,,,,,,,,,,,,,,,,,,,,,,,,,,,,,,,,,,,,,,,,,,,,,,,,,,,,,623.2370184999891,None,,,,,,,,,,,,,,,,,,,,,,,,,,,,,,,,,,,village,18,49,sing,white,621.2220396001358,None,None,621.2220396001358,None,,,,,,,,,,,,,,,,,,,,,,,,,,,,,,99NC,001,2023_Sep_08_1325,ExactRep-v3-final,2021.2.3,60.019794581157036,
,,,,,,,,49,0,49,0,,,,,,,,,,,,,,,,,,,,,,,,,,,,,,,,,,,,,,,,,,,,,,,,,,,,,625.7392612001859,None,,,,,,,,,,,,,,,,,,,,,,,,,,,,,,,,,,,rod,38,50,sing,white,623.7371684999671,None,None,623.7371684999671,None,,,,,,,,,,,,,,,,,,,,,,,,,,,,,,99NC,001,2023_Sep_08_1325,ExactRep-v3-final,2021.2.3,60.019794581157036,
,,,,,,,,50,0,50,0,,,,,,,,,,,,,,,,,,,,,,,,,,,,,,,,,,,,,,,,,,,,,,,,,,,,,628.2420447000768,None,,,,,,,,,,,,,,,,,,,,,,,,,,,,,,,,,,,silence,13,51,sing,white,626.2422252001707,None,None,626.2422252001707,None,,,,,,,,,,,,,,,,,,,,,,,,,,,,,,99NC,001,2023_Sep_08_1325,ExactRep-v3-final,2021.2.3,60.019794581157036,
,,,,,,,,51,0,51,0,,,,,,,,,,,,,,,,,,,,,,,,,,,,,,,,,,,,,,,,,,,,,,,,,,,,,630.7444941001013,None,,,,,,,,,,,,,,,,,,,,,,,,,,,,,,,,,,,forest,83,52,aloud,blue,628.7449568000156,None,None,628.7449568000156,None,,,,,,,,,,,,,,,,,,,,,,,,,,,,,,99NC,001,2023_Sep_08_1325,ExactRep-v3-final,2021.2.3,60.019794581157036,
,,,,,,,,52,0,52,0,,,,,,,,,,,,,,,,,,,,,,,,,,,,,,,,,,,,,,,,,,,,,,,,,,,,,633.2633621999994,None,,,,,,,,,,,,,,,,,,,,,,,,,,,,,,,,,,,square,45,53,silent,red,631.2490885001607,None,None,631.2490885001607,None,,,,,,,,,,,,,,,,,,,,,,,,,,,,,,99NC,001,2023_Sep_08_1325,ExactRep-v3-final,2021.2.3,60.019794581157036,
,,,,,,,,53,0,53,0,,,,,,,,,,,,,,,,,,,,,,,,,,,,,,,,,,,,,,,,,,,,,,,,,,,,,635.7824293000158,None,,,,,,,,,,,,,,,,,,,,,,,,,,,,,,,,,,,style,75,54,silent,red,633.768601299962,None,None,633.768601299962,None,,,,,,,,,,,,,,,,,,,,,,,,,,,,,,99NC,001,2023_Sep_08_1325,ExactRep-v3-final,2021.2.3,60.019794581157036,
,,,,,,,,54,0,54,0,,,,,,,,,,,,,,,,,,,,,,,,,,,,,,,,,,,,,,,,,,,,,,,,,,,,,638.3020468000323,None,,,,,,,,,,,,,,,,,,,,,,,,,,,,,,,,,,,bowl,11,55,sing,white,636.287200700026,None,None,636.287200700026,None,,,,,,,,,,,,,,,,,,,,,,,,,,,,,,99NC,001,2023_Sep_08_1325,ExactRep-v3-final,2021.2.3,60.019794581157036,
,,,,,,,,55,0,55,0,,,,,,,,,,,,,,,,,,,,,,,,,,,,,,,,,,,,,,,,,,,,,,,,,,,,,640.8208369000349,None,,,,,,,,,,,,,,,,,,,,,,,,,,,,,,,,,,,coast,4,56,sing,white,638.8190449001268,None,None,638.8190449001268,None,,,,,,,,,,,,,,,,,,,,,,,,,,,,,,99NC,001,2023_Sep_08_1325,ExactRep-v3-final,2021.2.3,60.019794581157036,
,,,,,,,,56,0,56,0,,,,,,,,,,,,,,,,,,,,,,,,,,,,,,,,,,,,,,,,,,,,,,,,,,,,,643.3234747999813,None,,,,,,,,,,,,,,,,,,,,,,,,,,,,,,,,,,,blood,30,57,sing,white,641.3219513001386,None,None,641.3219513001386,None,,,,,,,,,,,,,,,,,,,,,,,,,,,,,,99NC,001,2023_Sep_08_1325,ExactRep-v3-final,2021.2.3,60.019794581157036,
,,,,,,,,57,0,57,0,,,,,,,,,,,,,,,,,,,,,,,,,,,,,,,,,,,,,,,,,,,,,,,,,,,,,645.8260963000357,None,,,,,,,,,,,,,,,,,,,,,,,,,,,,,,,,,,,camp,78,58,silent,red,643.8266602000222,None,None,643.8266602000222,None,,,,,,,,,,,,,,,,,,,,,,,,,,,,,,99NC,001,2023_Sep_08_1325,ExactRep-v3-final,2021.2.3,60.019794581157036,
,,,,,,,,58,0,58,0,,,,,,,,,,,,,,,,,,,,,,,,,,,,,,,,,,,,,,,,,,,,,,,,,,,,,648.3284812001511,None,,,,,,,,,,,,,,,,,,,,,,,,,,,,,,,,,,,corn,84,59,aloud,blue,646.3284660000354,None,None,646.3284660000354,None,,,,,,,,,,,,,,,,,,,,,,,,,,,,,,99NC,001,2023_Sep_08_1325,ExactRep-v3-final,2021.2.3,60.019794581157036,
,,,,,,,,59,0,59,0,,,,,,,,,,,,,,,,,,,,,,,,,,,,,,,,,,,,,,,,,,,,,,,,,,,,,650.8311044999864,None,,,,,,,,,,,,,,,,,,,,,,,,,,,,,,,,,,,author,24,60,sing,white,648.8317221000325,None,None,648.8317221000325,None,,,,,,,,,,,,,,,,,,,,,,,,,,,,,,99NC,001,2023_Sep_08_1325,ExactRep-v3-final,2021.2.3,60.019794581157036,
,,,,,,,,60,0,60,0,,,,,,,,,,,,,,,,,,,,,,,,,,,,,,,,,,,,,,,,,,,,,,,,,,,,,653.3334902001079,None,,,,,,,,,,,,,,,,,,,,,,,,,,,,,,,,,,,paper,65,61,silent,red,651.3335136000533,None,None,651.3335136000533,None,,,,,,,,,,,,,,,,,,,,,,,,,,,,,,99NC,001,2023_Sep_08_1325,ExactRep-v3-final,2021.2.3,60.019794581157036,
,,,,,,,,61,0,61,0,,,,,,,,,,,,,,,,,,,,,,,,,,,,,,,,,,,,,,,,,,,,,,,,,,,,,655.8360819001682,None,,,,,,,,,,,,,,,,,,,,,,,,,,,,,,,,,,,friend,67,62,silent,red,653.8355029001832,None,None,653.8355029001832,None,,,,,,,,,,,,,,,,,,,,,,,,,,,,,,99NC,001,2023_Sep_08_1325,ExactRep-v3-final,2021.2.3,60.019794581157036,
,,,,,,,,62,0,62,0,,,,,,,,,,,,,,,,,,,,,,,,,,,,,,,,,,,,,,,,,,,,,,,,,,,,,658.33866150002,None,,,,,,,,,,,,,,,,,,,,,,,,,,,,,,,,,,,anger,19,63,sing,white,656.338876800146,None,None,656.338876800146,None,,,,,,,,,,,,,,,,,,,,,,,,,,,,,,99NC,001,2023_Sep_08_1325,ExactRep-v3-final,2021.2.3,60.019794581157036,
,,,,,,,,63,0,63,0,,,,,,,,,,,,,,,,,,,,,,,,,,,,,,,,,,,,,,,,,,,,,,,,,,,,,660.8412246000953,None,,,,,,,,,,,,,,,,,,,,,,,,,,,,,,,,,,,bar,2,64,sing,white,658.8417144000996,None,None,658.8417144000996,None,,,,,,,,,,,,,,,,,,,,,,,,,,,,,,99NC,001,2023_Sep_08_1325,ExactRep-v3-final,2021.2.3,60.019794581157036,
,,,,,,,,64,0,64,0,,,,,,,,,,,,,,,,,,,,,,,,,,,,,,,,,,,,,,,,,,,,,,,,,,,,,663.3601404000074,None,,,,,,,,,,,,,,,,,,,,,,,,,,,,,,,,,,,answer,33,65,sing,white,661.3452555001713,None,None,661.3452555001713,None,,,,,,,,,,,,,,,,,,,,,,,,,,,,,,99NC,001,2023_Sep_08_1325,ExactRep-v3-final,2021.2.3,60.019794581157036,
,,,,,,,,65,0,65,0,,,,,,,,,,,,,,,,,,,,,,,,,,,,,,,,,,,,,,,,,,,,,,,,,,,,,665.8788922000676,None,,,,,,,,,,,,,,,,,,,,,,,,,,,,,,,,,,,virtue,16,66,sing,white,663.8635148999747,None,None,663.8635148999747,None,,,,,,,,,,,,,,,,,,,,,,,,,,,,,,99NC,001,2023_Sep_08_1325,ExactRep-v3-final,2021.2.3,60.019794581157036,
,,,,,,,,66,0,66,0,,,,,,,,,,,,,,,,,,,,,,,,,,,,,,,,,,,,,,,,,,,,,,,,,,,,,668.398416900076,None,,,,,,,,,,,,,,,,,,,,,,,,,,,,,,,,,,,opinion,94,67,aloud,blue,666.3846267999616,None,None,666.3846267999616,None,,,,,,,,,,,,,,,,,,,,,,,,,,,,,,99NC,001,2023_Sep_08_1325,ExactRep-v3-final,2021.2.3,60.019794581157036,
,,,,,,,,67,0,67,0,,,,,,,,,,,,,,,,,,,,,,,,,,,,,,,,,,,,,,,,,,,,,,,,,,,,,670.900841700146,None,,,,,,,,,,,,,,,,,,,,,,,,,,,,,,,,,,,fate,42,68,silent,red,668.8988648001105,None,None,668.8988648001105,None,,,,,,,,,,,,,,,,,,,,,,,,,,,,,,99NC,001,2023_Sep_08_1325,ExactRep-v3-final,2021.2.3,60.019794581157036,
,,,,,,,,68,0,68,0,,,,,,,,,,,,,,,,,,,,,,,,,,,,,,,,,,,,,,,,,,,,,,,,,,,,,673.403968000086,None,,,,,,,,,,,,,,,,,,,,,,,,,,,,,,,,,,,justice,99,69,aloud,blue,671.4029155001044,None,None,671.4029155001044,None,,,,,,,,,,,,,,,,,,,,,,,,,,,,,,99NC,001,2023_Sep_08_1325,ExactRep-v3-final,2021.2.3,60.019794581157036,
,,,,,,,,69,0,69,0,,,,,,,,,,,,,,,,,,,,,,,,,,,,,,,,,,,,,,,,,,,,,,,,,,,,,675.9086404000409,None,,,,,,,,,,,,,,,,,,,,,,,,,,,,,,,,,,,shadow,116,70,aloud,blue,673.9069285001606,None,None,673.9069285001606,None,,,,,,,,,,,,,,,,,,,,,,,,,,,,,,99NC,001,2023_Sep_08_1325,ExactRep-v3-final,2021.2.3,60.019794581157036,
,,,,,,,,70,0,70,0,,,,,,,,,,,,,,,,,,,,,,,,,,,,,,,,,,,,,,,,,,,,,,,,,,,,,678.4418188000564,None,,,,,,,,,,,,,,,,,,,,,,,,,,,,,,,,,,,kiss,63,71,silent,red,676.4262484000064,None,None,676.4262484000064,None,,,,,,,,,,,,,,,,,,,,,,,,,,,,,,99NC,001,2023_Sep_08_1325,ExactRep-v3-final,2021.2.3,60.019794581157036,
,,,,,,,,71,0,71,0,,,,,,,,,,,,,,,,,,,,,,,,,,,,,,,,,,,,,,,,,,,,,,,,,,,,,680.9445770001039,None,,,,,,,,,,,,,,,,,,,,,,,,,,,,,,,,,,,meat,54,72,silent,red,678.9422822000924,None,None,678.9422822000924,None,,,,,,,,,,,,,,,,,,,,,,,,,,,,,,99NC,001,2023_Sep_08_1325,ExactRep-v3-final,2021.2.3,60.019794581157036,
,,,,,,,,72,0,72,0,,,,,,,,,,,,,,,,,,,,,,,,,,,,,,,,,,,,,,,,,,,,,,,,,,,,,683.4466930001508,None,,,,,,,,,,,,,,,,,,,,,,,,,,,,,,,,,,,earth,90,73,aloud,blue,681.4445309999865,None,None,681.4445309999865,None,,,,,,,,,,,,,,,,,,,,,,,,,,,,,,99NC,001,2023_Sep_08_1325,ExactRep-v3-final,2021.2.3,60.019794581157036,
,,,,,,,,73,0,73,0,,,,,,,,,,,,,,,,,,,,,,,,,,,,,,,,,,,,,,,,,,,,,,,,,,,,,685.9648878001608,None,,,,,,,,,,,,,,,,,,,,,,,,,,,,,,,,,,,colony,66,74,silent,red,683.9478199000005,None,None,683.9478199000005,None,,,,,,,,,,,,,,,,,,,,,,,,,,,,,,99NC,001,2023_Sep_08_1325,ExactRep-v3-final,2021.2.3,60.019794581157036,
,,,,,,,,74,0,74,0,,,,,,,,,,,,,,,,,,,,,,,,,,,,,,,,,,,,,,,,,,,,,,,,,,,,,688.4689991001505,None,,,,,,,,,,,,,,,,,,,,,,,,,,,,,,,,,,,bottle,111,75,aloud,blue,686.4689013999887,None,None,686.4689013999887,None,,,,,,,,,,,,,,,,,,,,,,,,,,,,,,99NC,001,2023_Sep_08_1325,ExactRep-v3-final,2021.2.3,60.019794581157036,
,,,,,,,,75,0,75,0,,,,,,,,,,,,,,,,,,,,,,,,,,,,,,,,,,,,,,,,,,,,,,,,,,,,,690.9879493000917,None,,,,,,,,,,,,,,,,,,,,,,,,,,,,,,,,,,,event,17,76,sing,white,688.9746985000093,None,None,688.9746985000093,None,,,,,,,,,,,,,,,,,,,,,,,,,,,,,,99NC,001,2023_Sep_08_1325,ExactRep-v3-final,2021.2.3,60.019794581157036,
,,,,,,,,76,0,76,0,,,,,,,,,,,,,,,,,,,,,,,,,,,,,,,,,,,,,,,,,,,,,,,,,,,,,693.4904593999963,None,,,,,,,,,,,,,,,,,,,,,,,,,,,,,,,,,,,master,77,77,silent,red,691.4908339001704,None,None,691.4908339001704,None,,,,,,,,,,,,,,,,,,,,,,,,,,,,,,99NC,001,2023_Sep_08_1325,ExactRep-v3-final,2021.2.3,60.019794581157036,
,,,,,,,,77,0,77,0,,,,,,,,,,,,,,,,,,,,,,,,,,,,,,,,,,,,,,,,,,,,,,,,,,,,,696.0104527000804,None,,,,,,,,,,,,,,,,,,,,,,,,,,,,,,,,,,,pupil,79,78,sing,white,693.9944621000905,None,None,693.9944621000905,None,,,,,,,,,,,,,,,,,,,,,,,,,,,,,,99NC,001,2023_Sep_08_1325,ExactRep-v3-final,2021.2.3,60.019794581157036,
,,,,,,,,78,0,78,0,,,,,,,,,,,,,,,,,,,,,,,,,,,,,,,,,,,,,,,,,,,,,,,,,,,,,698.5122458001133,None,,,,,,,,,,,,,,,,,,,,,,,,,,,,,,,,,,,leader,39,79,silent,red,696.5125755001791,None,None,696.5125755001791,None,,,,,,,,,,,,,,,,,,,,,,,,,,,,,,99NC,001,2023_Sep_08_1325,ExactRep-v3-final,2021.2.3,60.019794581157036,
,,,,,,,,79,0,79,0,,,,,,,,,,,,,,,,,,,,,,,,,,,,,,,,,,,,,,,,,,,,,,,,,,,,,701.0311493000481,None,,,,,,,,,,,,,,,,,,,,,,,,,,,,,,,,,,,cattle,107,80,aloud,blue,699.0164020000957,None,None,699.0164020000957,None,,,,,,,,,,,,,,,,,,,,,,,,,,,,,,99NC,001,2023_Sep_08_1325,ExactRep-v3-final,2021.2.3,60.019794581157036,
,,,,,,,,80,0,80,0,,,,,,,,,,,,,,,,,,,,,,,,,,,,,,,,,,,,,,,,,,,,,,,,,,,,,703.5334740001708,None,,,,,,,,,,,,,,,,,,,,,,,,,,,,,,,,,,,deed,119,81,aloud,blue,701.5337750001345,None,None,701.5337750001345,None,,,,,,,,,,,,,,,,,,,,,,,,,,,,,,99NC,001,2023_Sep_08_1325,ExactRep-v3-final,2021.2.3,60.019794581157036,
,,,,,,,,81,0,81,0,,,,,,,,,,,,,,,,,,,,,,,,,,,,,,,,,,,,,,,,,,,,,,,,,,,,,706.0530843001325,None,,,,,,,,,,,,,,,,,,,,,,,,,,,,,,,,,,,safety,9,82,sing,white,704.0389016000554,None,None,704.0389016000554,None,,,,,,,,,,,,,,,,,,,,,,,,,,,,,,99NC,001,2023_Sep_08_1325,ExactRep-v3-final,2021.2.3,60.019794581157036,
,,,,,,,,82,0,82,0,,,,,,,,,,,,,,,,,,,,,,,,,,,,,,,,,,,,,,,,,,,,,,,,,,,,,708.5552699000109,None,,,,,,,,,,,,,,,,,,,,,,,,,,,,,,,,,,,time,81,83,aloud,blue,706.5556906000711,None,None,706.5556906000711,None,,,,,,,,,,,,,,,,,,,,,,,,,,,,,,99NC,001,2023_Sep_08_1325,ExactRep-v3-final,2021.2.3,60.019794581157036,
,,,,,,,,83,0,83,0,,,,,,,,,,,,,,,,,,,,,,,,,,,,,,,,,,,,,,,,,,,,,,,,,,,,,711.0576685999986,None,,,,,,,,,,,,,,,,,,,,,,,,,,,,,,,,,,,shore,49,84,silent,red,709.0562519000378,None,None,709.0562519000378,None,,,,,,,,,,,,,,,,,,,,,,,,,,,,,,99NC,001,2023_Sep_08_1325,ExactRep-v3-final,2021.2.3,60.019794581157036,
,,,,,,,,84,0,84,0,,,,,,,,,,,,,,,,,,,,,,,,,,,,,,,,,,,,,,,,,,,,,,,,,,,,,713.5601894999854,None,,,,,,,,,,,,,,,,,,,,,,,,,,,,,,,,,,,king,89,85,aloud,blue,711.559512300184,None,None,711.559512300184,None,,,,,,,,,,,,,,,,,,,,,,,,,,,,,,99NC,001,2023_Sep_08_1325,ExactRep-v3-final,2021.2.3,60.019794581157036,
,,,,,,,,85,0,85,0,,,,,,,,,,,,,,,,,,,,,,,,,,,,,,,,,,,,,,,,,,,,,,,,,,,,,716.0626970001031,None,,,,,,,,,,,,,,,,,,,,,,,,,,,,,,,,,,,temple,26,86,sing,white,714.0614742999896,None,None,714.0614742999896,None,,,,,,,,,,,,,,,,,,,,,,,,,,,,,,99NC,001,2023_Sep_08_1325,ExactRep-v3-final,2021.2.3,60.019794581157036,
,,,,,,,,86,0,86,0,,,,,,,,,,,,,,,,,,,,,,,,,,,,,,,,,,,,,,,,,,,,,,,,,,,,,718.5818914000411,None,,,,,,,,,,,,,,,,,,,,,,,,,,,,,,,,,,,plant,95,87,aloud,blue,716.5679769001435,None,None,716.5679769001435,None,,,,,,,,,,,,,,,,,,,,,,,,,,,,,,99NC,001,2023_Sep_08_1325,ExactRep-v3-final,2021.2.3,60.019794581157036,
,,,,,,,,87,0,87,0,,,,,,,,,,,,,,,,,,,,,,,,,,,,,,,,,,,,,,,,,,,,,,,,,,,,,721.0843615999911,None,,,,,,,,,,,,,,,,,,,,,,,,,,,,,,,,,,,effort,97,88,aloud,blue,719.0823743999936,None,None,719.0823743999936,None,,,,,,,,,,,,,,,,,,,,,,,,,,,,,,99NC,001,2023_Sep_08_1325,ExactRep-v3-final,2021.2.3,60.019794581157036,
,,,,,,,,88,0,88,0,,,,,,,,,,,,,,,,,,,,,,,,,,,,,,,,,,,,,,,,,,,,,,,,,,,,,723.5868396000005,None,,,,,,,,,,,,,,,,,,,,,,,,,,,,,,,,,,,chief,110,89,aloud,blue,721.5851736001205,None,None,721.5851736001205,None,,,,,,,,,,,,,,,,,,,,,,,,,,,,,,99NC,001,2023_Sep_08_1325,ExactRep-v3-final,2021.2.3,60.019794581157036,
,,,,,,,,89,0,89,0,,,,,,,,,,,,,,,,,,,,,,,,,,,,,,,,,,,,,,,,,,,,,,,,,,,,,726.1060858001001,None,,,,,,,,,,,,,,,,,,,,,,,,,,,,,,,,,,,arm,41,90,silent,red,724.0917976000346,None,None,724.0917976000346,None,,,,,,,,,,,,,,,,,,,,,,,,,,,,,,99NC,001,2023_Sep_08_1325,ExactRep-v3-final,2021.2.3,60.019794581157036,
,,,,,,,,90,0,90,0,,,,,,,,,,,,,,,,,,,,,,,,,,,,,,,,,,,,,,,,,,,,,,,,,,,,,728.6086424000096,None,,,,,,,,,,,,,,,,,,,,,,,,,,,,,,,,,,,devil,60,91,silent,red,726.6087208001409,None,None,726.6087208001409,None,,,,,,,,,,,,,,,,,,,,,,,,,,,,,,99NC,001,2023_Sep_08_1325,ExactRep-v3-final,2021.2.3,60.019794581157036,
,,,,,,,,91,0,91,0,,,,,,,,,,,,,,,,,,,,,,,,,,,,,,,,,,,,,,,,,,,,,,,,,,,,,731.1110748001374,None,,,,,,,,,,,,,,,,,,,,,,,,,,,,,,,,,,,pole,106,92,aloud,blue,729.1111367000267,None,None,729.1111367000267,None,,,,,,,,,,,,,,,,,,,,,,,,,,,,,,99NC,001,2023_Sep_08_1325,ExactRep-v3-final,2021.2.3,60.019794581157036,
,,,,,,,,92,0,92,0,,,,,,,,,,,,,,,,,,,,,,,,,,,,,,,,,,,,,,,,,,,,,,,,,,,,,733.6303222000133,None,,,,,,,,,,,,,,,,,,,,,,,,,,,,,,,,,,,cat,69,93,silent,red,731.6236247001216,None,None,731.6236247001216,None,,,,,,,,,,,,,,,,,,,,,,,,,,,,,,99NC,001,2023_Sep_08_1325,ExactRep-v3-final,2021.2.3,60.019794581157036,
,,,,,,,,93,0,93,0,,,,,,,,,,,,,,,,,,,,,,,,,,,,,,,,,,,,,,,,,,,,,,,,,,,,,736.1498581999913,None,,,,,,,,,,,,,,,,,,,,,,,,,,,,,,,,,,,ability,52,94,silent,red,734.1346039001364,None,None,734.1346039001364,None,,,,,,,,,,,,,,,,,,,,,,,,,,,,,,99NC,001,2023_Sep_08_1325,ExactRep-v3-final,2021.2.3,60.019794581157036,
,,,,,,,,94,0,94,0,,,,,,,,,,,,,,,,,,,,,,,,,,,,,,,,,,,,,,,,,,,,,,,,,,,,,738.6522227001842,None,,,,,,,,,,,,,,,,,,,,,,,,,,,,,,,,,,,doll,47,95,silent,red,736.65296950005,None,None,736.65296950005,None,,,,,,,,,,,,,,,,,,,,,,,,,,,,,,99NC,001,2023_Sep_08_1325,ExactRep-v3-final,2021.2.3,60.019794581157036,
,,,,,,,,95,0,95,0,,,,,,,,,,,,,,,,,,,,,,,,,,,,,,,,,,,,,,,,,,,,,,,,,,,,,741.1712782999966,None,,,,,,,,,,,,,,,,,,,,,,,,,,,,,,,,,,,string,93,96,aloud,blue,739.1568269999698,None,None,739.1568269999698,None,,,,,,,,,,,,,,,,,,,,,,,,,,,,,,99NC,001,2023_Sep_08_1325,ExactRep-v3-final,2021.2.3,60.019794581157036,
,,,,,,,,96,0,96,0,,,,,,,,,,,,,,,,,,,,,,,,,,,,,,,,,,,,,,,,,,,,,,,,,,,,,743.6739102001302,None,,,,,,,,,,,,,,,,,,,,,,,,,,,,,,,,,,,air,62,97,silent,red,741.6718758000061,None,None,741.6718758000061,None,,,,,,,,,,,,,,,,,,,,,,,,,,,,,,99NC,001,2023_Sep_08_1325,ExactRep-v3-final,2021.2.3,60.019794581157036,
,,,,,,,,97,0,97,0,,,,,,,,,,,,,,,,,,,,,,,,,,,,,,,,,,,,,,,,,,,,,,,,,,,,,746.1927677001804,None,,,,,,,,,,,,,,,,,,,,,,,,,,,,,,,,,,,engine,104,98,aloud,blue,744.1779462001286,None,None,744.1779462001286,None,,,,,,,,,,,,,,,,,,,,,,,,,,,,,,99NC,001,2023_Sep_08_1325,ExactRep-v3-final,2021.2.3,60.019794581157036,
,,,,,,,,98,0,98,0,,,,,,,,,,,,,,,,,,,,,,,,,,,,,,,,,,,,,,,,,,,,,,,,,,,,,748.7119937001262,None,,,,,,,,,,,,,,,,,,,,,,,,,,,,,,,,,,,power,59,99,silent,red,746.6990220001899,None,None,746.6990220001899,None,,,,,,,,,,,,,,,,,,,,,,,,,,,,,,99NC,001,2023_Sep_08_1325,ExactRep-v3-final,2021.2.3,60.019794581157036,
,,,,,,,,99,0,99,0,,,,,,,,,,,,,,,,,,,,,,,,,,,,,,,,,,,,,,,,,,,,,,,,,,,,,751.2312576000113,None,,,,,,,,,,,,,,,,,,,,,,,,,,,,,,,,,,,mother,36,100,sing,white,749.2180415000767,None,None,749.2180415000767,None,,,,,,,,,,,,,,,,,,,,,,,,,,,,,,99NC,001,2023_Sep_08_1325,ExactRep-v3-final,2021.2.3,60.019794581157036,
,,,,,,,,100,0,100,0,,,,,,,,,,,,,,,,,,,,,,,,,,,,,,,,,,,,,,,,,,,,,,,,,,,,,753.7508078999817,None,,,,,,,,,,,,,,,,,,,,,,,,,,,,,,,,,,,street,29,101,sing,white,751.7356308000162,None,None,751.7356308000162,None,,,,,,,,,,,,,,,,,,,,,,,,,,,,,,99NC,001,2023_Sep_08_1325,ExactRep-v3-final,2021.2.3,60.019794581157036,
,,,,,,,,101,0,101,0,,,,,,,,,,,,,,,,,,,,,,,,,,,,,,,,,,,,,,,,,,,,,,,,,,,,,756.2535990001634,None,,,,,,,,,,,,,,,,,,,,,,,,,,,,,,,,,,,wife,114,102,aloud,blue,754.2538491000887,None,None,754.2538491000887,None,,,,,,,,,,,,,,,,,,,,,,,,,,,,,,99NC,001,2023_Sep_08_1325,ExactRep-v3-final,2021.2.3,60.019794581157036,
,,,,,,,,102,0,102,0,,,,,,,,,,,,,,,,,,,,,,,,,,,,,,,,,,,,,,,,,,,,,,,,,,,,,758.7724957000464,None,,,,,,,,,,,,,,,,,,,,,,,,,,,,,,,,,,,board,51,103,silent,red,756.7619470001664,None,None,756.7619470001664,None,,,,,,,,,,,,,,,,,,,,,,,,,,,,,,99NC,001,2023_Sep_08_1325,ExactRep-v3-final,2021.2.3,60.019794581157036,
,,,,,,,,103,0,103,0,,,,,,,,,,,,,,,,,,,,,,,,,,,,,,,,,,,,,,,,,,,,,,,,,,,,,761.292739600176,None,,,,,,,,,,,,,,,,,,,,,,,,,,,,,,,,,,,flower,98,104,aloud,blue,759.2771238000132,None,None,759.2771238000132,None,,,,,,,,,,,,,,,,,,,,,,,,,,,,,,99NC,001,2023_Sep_08_1325,ExactRep-v3-final,2021.2.3,60.019794581157036,
,,,,,,,,104,0,104,0,,,,,,,,,,,,,,,,,,,,,,,,,,,,,,,,,,,,,,,,,,,,,,,,,,,,,763.8106772999745,None,,,,,,,,,,,,,,,,,,,,,,,,,,,,,,,,,,,heaven,56,105,silent,red,761.8028467001859,None,None,761.8028467001859,None,,,,,,,,,,,,,,,,,,,,,,,,,,,,,,99NC,001,2023_Sep_08_1325,ExactRep-v3-final,2021.2.3,60.019794581157036,
,,,,,,,,105,0,105,0,,,,,,,,,,,,,,,,,,,,,,,,,,,,,,,,,,,,,,,,,,,,,,,,,,,,,766.3130657000002,None,,,,,,,,,,,,,,,,,,,,,,,,,,,,,,,,,,,dream,74,106,silent,red,764.31307140016,None,None,764.31307140016,None,,,,,,,,,,,,,,,,,,,,,,,,,,,,,,99NC,001,2023_Sep_08_1325,ExactRep-v3-final,2021.2.3,60.019794581157036,
,,,,,,,,106,0,106,0,,,,,,,,,,,,,,,,,,,,,,,,,,,,,,,,,,,,,,,,,,,,,,,,,,,,,768.815696200123,None,,,,,,,,,,,,,,,,,,,,,,,,,,,,,,,,,,,flesh,15,107,sing,white,766.8139249000233,None,None,766.8139249000233,None,,,,,,,,,,,,,,,,,,,,,,,,,,,,,,99NC,001,2023_Sep_08_1325,ExactRep-v3-final,2021.2.3,60.019794581157036,
,,,,,,,,107,0,107,0,,,,,,,,,,,,,,,,,,,,,,,,,,,,,,,,,,,,,,,,,,,,,,,,,,,,,771.3180523000192,None,,,,,,,,,,,,,,,,,,,,,,,,,,,,,,,,,,,weapon,20,108,sing,white,769.3180415001698,None,None,769.3180415001698,None,,,,,,,,,,,,,,,,,,,,,,,,,,,,,,99NC,001,2023_Sep_08_1325,ExactRep-v3-final,2021.2.3,60.019794581157036,
,,,,,,,,108,0,108,0,,,,,,,,,,,,,,,,,,,,,,,,,,,,,,,,,,,,,,,,,,,,,,,,,,,,,773.8208215001505,None,,,,,,,,,,,,,,,,,,,,,,,,,,,,,,,,,,,shoes,102,109,aloud,blue,771.8211738001555,None,None,771.8211738001555,None,,,,,,,,,,,,,,,,,,,,,,,,,,,,,,99NC,001,2023_Sep_08_1325,ExactRep-v3-final,2021.2.3,60.019794581157036,
,,,,,,,,109,0,109,0,,,,,,,,,,,,,,,,,,,,,,,,,,,,,,,,,,,,,,,,,,,,,,,,,,,,,776.3395557000767,None,,,,,,,,,,,,,,,,,,,,,,,,,,,,,,,,,,,star,23,110,sing,white,774.3250510999933,None,None,774.3250510999933,None,,,,,,,,,,,,,,,,,,,,,,,,,,,,,,99NC,001,2023_Sep_08_1325,ExactRep-v3-final,2021.2.3,60.019794581157036,
,,,,,,,,110,0,110,0,,,,,,,,,,,,,,,,,,,,,,,,,,,,,,,,,,,,,,,,,,,,,,,,,,,,,778.8588954000734,None,,,,,,,,,,,,,,,,,,,,,,,,,,,,,,,,,,,present,28,111,sing,white,776.8442524001002,None,None,776.8442524001002,None,,,,,,,,,,,,,,,,,,,,,,,,,,,,,,99NC,001,2023_Sep_08_1325,ExactRep-v3-final,2021.2.3,60.019794581157036,
,,,,,,,,111,0,111,0,,,,,,,,,,,,,,,,,,,,,,,,,,,,,,,,,,,,,,,,,,,,,,,,,,,,,781.3617416000925,None,,,,,,,,,,,,,,,,,,,,,,,,,,,,,,,,,,,moral,86,112,aloud,blue,779.3599496001843,None,None,779.3599496001843,None,,,,,,,,,,,,,,,,,,,,,,,,,,,,,,99NC,001,2023_Sep_08_1325,ExactRep-v3-final,2021.2.3,60.019794581157036,
,,,,,,,,112,0,112,0,,,,,,,,,,,,,,,,,,,,,,,,,,,,,,,,,,,,,,,,,,,,,,,,,,,,,783.8812832001131,None,,,,,,,,,,,,,,,,,,,,,,,,,,,,,,,,,,,sugar,7,113,sing,white,781.8658912000246,None,None,781.8658912000246,None,,,,,,,,,,,,,,,,,,,,,,,,,,,,,,99NC,001,2023_Sep_08_1325,ExactRep-v3-final,2021.2.3,60.019794581157036,
,,,,,,,,113,0,113,0,,,,,,,,,,,,,,,,,,,,,,,,,,,,,,,,,,,,,,,,,,,,,,,,,,,,,786.3830165001564,None,,,,,,,,,,,,,,,,,,,,,,,,,,,,,,,,,,,lord,44,114,silent,red,784.3829131000675,None,None,784.3829131000675,None,,,,,,,,,,,,,,,,,,,,,,,,,,,,,,99NC,001,2023_Sep_08_1325,ExactRep-v3-final,2021.2.3,60.019794581157036,
,,,,,,,,114,0,114,0,,,,,,,,,,,,,,,,,,,,,,,,,,,,,,,,,,,,,,,,,,,,,,,,,,,,,788.902372200042,None,,,,,,,,,,,,,,,,,,,,,,,,,,,,,,,,,,,gift,46,115,silent,red,786.8994758001063,None,None,786.8994758001063,None,,,,,,,,,,,,,,,,,,,,,,,,,,,,,,99NC,001,2023_Sep_08_1325,ExactRep-v3-final,2021.2.3,60.019794581157036,
,,,,,,,,115,0,115,0,,,,,,,,,,,,,,,,,,,,,,,,,,,,,,,,,,,,,,,,,,,,,,,,,,,,,791.4046979001723,None,,,,,,,,,,,,,,,,,,,,,,,,,,,,,,,,,,,home,72,116,silent,red,789.4029241001699,None,None,789.4029241001699,None,,,,,,,,,,,,,,,,,,,,,,,,,,,,,,99NC,001,2023_Sep_08_1325,ExactRep-v3-final,2021.2.3,60.019794581157036,
,,,,,,,,116,0,116,0,,,,,,,,,,,,,,,,,,,,,,,,,,,,,,,,,,,,,,,,,,,,,,,,,,,,,793.9071912001818,None,,,,,,,,,,,,,,,,,,,,,,,,,,,,,,,,,,,garden,35,117,sing,white,791.907781300135,None,None,791.907781300135,None,,,,,,,,,,,,,,,,,,,,,,,,,,,,,,99NC,001,2023_Sep_08_1325,ExactRep-v3-final,2021.2.3,60.019794581157036,
,,,,,,,,117,0,117,0,,,,,,,,,,,,,,,,,,,,,,,,,,,,,,,,,,,,,,,,,,,,,,,,,,,,,796.4265028999653,None,,,,,,,,,,,,,,,,,,,,,,,,,,,,,,,,,,,dollar,101,118,aloud,blue,794.4127687001601,None,None,794.4127687001601,None,,,,,,,,,,,,,,,,,,,,,,,,,,,,,,99NC,001,2023_Sep_08_1325,ExactRep-v3-final,2021.2.3,60.019794581157036,
,,,,,,,,118,0,118,0,,,,,,,,,,,,,,,,,,,,,,,,,,,,,,,,,,,,,,,,,,,,,,,,,,,,,798.9292423001025,None,,,,,,,,,,,,,,,,,,,,,,,,,,,,,,,,,,,month,103,119,aloud,blue,796.9279794001486,None,None,796.9279794001486,None,,,,,,,,,,,,,,,,,,,,,,,,,,,,,,99NC,001,2023_Sep_08_1325,ExactRep-v3-final,2021.2.3,60.019794581157036,
,,,,,,,,119,0,119,0,,,,,,,,,,,,,,,,,,,,,,,,,,,,,,,,,,,,,,,,,,,,,,,,,,,,,801.4310563001782,None,,,,,,,,,,,,,,,,,,,,,,,,,,,,,,,,,,,table,64,120,silent,red,799.4318603000138,None,None,799.4318603000138,None,,,,,,,,,,,,,,,,,,,,,,,,,,,,,,99NC,001,2023_Sep_08_1325,ExactRep-v3-final,2021.2.3,60.019794581157036,
,,,,,,,,,,,,,,,,,,,,,,,,,,,,,,,,,,,,,,,,,,,,,,,,,,,,,,,,,,,,,,,,,,,,,,,,,,,,,,,,,,,,,,,,,,,,,,,,,,,,,,,,,,,,,,801.9317899001762,None,space,1.0731764999218285,811.9095825999975,None,,,,,,,,,,,,,,,,,,,,,,,,99NC,001,2023_Sep_08_1325,ExactRep-v3-final,2021.2.3,60.019794581157036,
,,,,,,,,,,,,,,,,,,,,,,,,,,,,,,,,,,,,,,,,,,,,,,,,,,,,,,,,,,,,,,,,,,,,,,,,,,,,,,,,,,,,,,,,,,,,,,,,,,,,,,,,,,,,,,,,,,,,813.0132536001038,None,space,23.995530999964103,822.9872803001199,None,,,,,,,,,,,,,,,,,,99NC,001,2023_Sep_08_1325,ExactRep-v3-final,2021.2.3,60.019794581157036,
,,,,,,,,,,,,0,0,0,0,,,,,,,,,,,,,,,,,,,,,,,,,,,,,,,,,,,,,,,,,,,,,,,,,852.8345037000254,None,,,,,,,,,,,,,,,,,,,,,,,,,,,,,,,,,,,,,,,,,,,,,,,,,,,,,,,,,judge,8,1,sing,old,yellow,847.5261047000531,None,y,847.5261047000531,None,"['y', 'return']","[4.6482585000339895, 5.264378200052306]",847.5261047000531,None,,,99NC,001,2023_Sep_08_1325,ExactRep-v3-final,2021.2.3,60.019794581157036,
,,,,,,,,,,,,1,0,1,0,,,,,,,,,,,,,,,,,,,,,,,,,,,,,,,,,,,,,,,,,,,,,,,,,854.619468400022,None,,,,,,,,,,,,,,,,,,,,,,,,,,,,,,,,,,,,,,,,,,,,,,,,,,,,,,,,,teacher,80,2,aloud,old,yellow,853.3449222000781,None,y,853.3449222000781,None,"['y', 'return']","[1.0214940998703241, 1.229485800024122]",853.3449222000781,None,,,99NC,001,2023_Sep_08_1325,ExactRep-v3-final,2021.2.3,60.019794581157036,
,,,,,,,,,,,,2,0,2,0,,,,,,,,,,,,,,,,,,,,,,,,,,,,,,,,,,,,,,,,,,,,,,,,,856.454735700041,None,,,,,,,,,,,,,,,,,,,,,,,,,,,,,,,,,,,,,,,,,,,,,,,,,,,,,,,,,skin,124,3,silent,new,yellow,855.1291690999642,None,n,855.1291690999642,None,"['n', 'return']","[1.0613868001382798, 1.2852530002128333]",855.1291690999642,None,,,99NC,001,2023_Sep_08_1325,ExactRep-v3-final,2021.2.3,60.019794581157036,
,,,,,,,,,,,,3,0,3,0,,,,,,,,,,,,,,,,,,,,,,,,,,,,,,,,,,,,,,,,,,,,,,,,,858.5568315000273,None,,,,,,,,,,,,,,,,,,,,,,,,,,,,,,,,,,,,,,,,,,,,,,,,,,,,,,,,,palace,135,4,silent,new,yellow,856.976437699981,None,n,856.976437699981,None,"['n', 'return']","[1.3580255000852048, 1.5419439999386668]",856.976437699981,None,,,99NC,001,2023_Sep_08_1325,ExactRep-v3-final,2021.2.3,60.019794581157036,
,,,,,,,,,,,,4,0,4,0,,,,,,,,,,,,,,,,,,,,,,,,,,,,,,,,,,,,,,,,,,,,,,,,,860.9092882999685,None,,,,,,,,,,,,,,,,,,,,,,,,,,,,,,,,,,,,,,,,,,,,,,,,,,,,,,,,,iron,162,5,aloud,new,yellow,859.073280800134,None,n,859.073280800134,None,"['n', 'return']","[1.5654815998859704, 1.7891404000110924]",859.073280800134,None,,,99NC,001,2023_Sep_08_1325,ExactRep-v3-final,2021.2.3,60.019794581157036,
,,,,,,,,,,,,5,0,5,0,,,,,,,,,,,,,,,,,,,,,,,,,,,,,,,,,,,,,,,,,,,,,,,,,864.8469317001291,None,,,,,,,,,,,,,,,,,,,,,,,,,,,,,,,,,,,,,,,,,,,,,,,,,,,,,,,,,board,51,6,silent,old,yellow,861.4242389001884,None,y,861.4242389001884,None,"['y', 'return']","[3.158280899981037, 3.374314600136131]",861.4242389001884,None,,,99NC,001,2023_Sep_08_1325,ExactRep-v3-final,2021.2.3,60.019794581157036,
,,,,,,,,,,,,6,0,6,0,,,,,,,,,,,,,,,,,,,,,,,,,,,,,,,,,,,,,,,,,,,,,,,,,866.5477360000368,None,,,,,,,,,,,,,,,,,,,,,,,,,,,,,,,,,,,,,,,,,,,,,,,,,,,,,,,,,paper,65,7,silent,old,yellow,865.3705981001258,None,y,865.3705981001258,None,"['y', 'return']","[0.9319342998787761, 1.140220999950543]",865.3705981001258,None,,,99NC,001,2023_Sep_08_1325,ExactRep-v3-final,2021.2.3,60.019794581157036,
,,,,,,,,,,,,7,0,7,0,,,,,,,,,,,,,,,,,,,,,,,,,,,,,,,,,,,,,,,,,,,,,,,,,868.2327831999864,None,,,,,,,,,,,,,,,,,,,,,,,,,,,,,,,,,,,,,,,,,,,,,,,,,,,,,,,,,event,17,8,sing,old,yellow,867.0573412000667,None,y,867.0573412000667,None,"['y', 'return']","[0.9091014999430627, 1.1331293999683112]",867.0573412000667,None,,,99NC,001,2023_Sep_08_1325,ExactRep-v3-final,2021.2.3,60.019794581157036,
,,,,,,,,,,,,8,0,8,0,,,,,,,,,,,,,,,,,,,,,,,,,,,,,,,,,,,,,,,,,,,,,,,,,870.0684940000065,None,,,,,,,,,,,,,,,,,,,,,,,,,,,,,,,,,,,,,,,,,,,,,,,,,,,,,,,,,officer,184,9,aloud,new,yellow,868.7401843999978,None,n,868.7401843999978,None,"['n', 'return']","[1.0982220999430865, 1.2822080000769347]",868.7401843999978,None,,,99NC,001,2023_Sep_08_1325,ExactRep-v3-final,2021.2.3,60.019794581157036,
,,,,,,,,,,,,9,0,9,0,,,,,,,,,,,,,,,,,,,,,,,,,,,,,,,,,,,,,,,,,,,,,,,,,871.5858930000104,None,,,,,,,,,,,,,,,,,,,,,,,,,,,,,,,,,,,,,,,,,,,,,,,,,,,,,,,,,dollar,101,10,aloud,old,yellow,870.5925200001802,None,n,870.5925200001802,None,"['n', 'return']","[0.7580417001154274, 0.9499689999502152]",870.5925200001802,None,,,99NC,001,2023_Sep_08_1325,ExactRep-v3-final,2021.2.3,60.019794581157036,
,,,,,,,,,,,,10,0,10,0,,,,,,,,,,,,,,,,,,,,,,,,,,,,,,,,,,,,,,,,,,,,,,,,,873.572187700076,None,,,,,,,,,,,,,,,,,,,,,,,,,,,,,,,,,,,,,,,,,,,,,,,,,,,,,,,,,doll,47,11,silent,old,yellow,872.0928833000362,None,n,872.0928833000362,None,"['n', 'return']","[1.2097623001318425, 1.433487700065598]",872.0928833000362,None,,,99NC,001,2023_Sep_08_1325,ExactRep-v3-final,2021.2.3,60.019794581157036,
,,,,,,,,,,,,11,0,11,0,,,,,,,,,,,,,,,,,,,,,,,,,,,,,,,,,,,,,,,,,,,,,,,,,875.2568402001634,None,,,,,,,,,,,,,,,,,,,,,,,,,,,,,,,,,,,,,,,,,,,,,,,,,,,,,,,,,weapon,20,12,sing,old,yellow,874.0891116000712,None,y,874.0891116000712,None,"['y', 'return']","[0.925527699990198, 1.1332885001320392]",874.0891116000712,None,,,99NC,001,2023_Sep_08_1325,ExactRep-v3-final,2021.2.3,60.019794581157036,
,,,,,,,,,,,,12,0,12,0,,,,,,,,,,,,,,,,,,,,,,,,,,,,,,,,,,,,,,,,,,,,,,,,,877.3920985001605,None,,,,,,,,,,,,,,,,,,,,,,,,,,,,,,,,,,,,,,,,,,,,,,,,,,,,,,,,,maiden,218,13,aloud,new,yellow,875.7737798001617,None,n,875.7737798001617,None,"['n', 'return']","[1.3286966001614928, 1.5766184001695365]",875.7737798001617,None,,,99NC,001,2023_Sep_08_1325,ExactRep-v3-final,2021.2.3,60.019794581157036,
,,,,,,,,,,,,13,0,13,0,,,,,,,,,,,,,,,,,,,,,,,,,,,,,,,,,,,,,,,,,,,,,,,,,879.7610969000962,None,,,,,,,,,,,,,,,,,,,,,,,,,,,,,,,,,,,,,,,,,,,,,,,,,,,,,,,,,shore,49,14,silent,old,yellow,877.9138017001096,None,y,877.9138017001096,None,"['y', 'return']","[1.4926486001349986, 1.8046804000623524]",877.9138017001096,None,,,99NC,001,2023_Sep_08_1325,ExactRep-v3-final,2021.2.3,60.019794581157036,
,,,,,,,,,,,,14,0,14,0,,,,,,,,,,,,,,,,,,,,,,,,,,,,,,,,,,,,,,,,,,,,,,,,,881.6957599001471,None,,,,,,,,,,,,,,,,,,,,,,,,,,,,,,,,,,,,,,,,,,,,,,,,,,,,,,,,,tree,186,15,aloud,new,yellow,880.2680046001915,None,n,880.2680046001915,None,"['n', 'return']","[1.1784212000202388, 1.386493599973619]",880.2680046001915,None,,,99NC,001,2023_Sep_08_1325,ExactRep-v3-final,2021.2.3,60.019794581157036,
,,,,,,,,,,,,15,0,15,0,,,,,,,,,,,,,,,,,,,,,,,,,,,,,,,,,,,,,,,,,,,,,,,,,885.0996646001004,None,,,,,,,,,,,,,,,,,,,,,,,,,,,,,,,,,,,,,,,,,,,,,,,,,,,,,,,,,fate,42,16,silent,old,yellow,882.2048522001132,None,y,882.2048522001132,None,"['y', 'return']","[2.6495261997915804, 2.849516899790615]",882.2048522001132,None,,,99NC,001,2023_Sep_08_1325,ExactRep-v3-final,2021.2.3,60.019794581157036,
,,,,,,,,,,,,16,0,16,0,,,,,,,,,,,,,,,,,,,,,,,,,,,,,,,,,,,,,,,,,,,,,,,,,886.9688506000675,None,,,,,,,,,,,,,,,,,,,,,,,,,,,,,,,,,,,,,,,,,,,,,,,,,,,,,,,,,excuse,121,17,silent,new,yellow,885.6035511000082,None,n,885.6035511000082,None,"['n', 'return']","[1.1148775001056492, 1.3309726999141276]",885.6035511000082,None,,,99NC,001,2023_Sep_08_1325,ExactRep-v3-final,2021.2.3,60.019794581157036,
,,,,,,,,,,,,17,0,17,0,,,,,,,,,,,,,,,,,,,,,,,,,,,,,,,,,,,,,,,,,,,,,,,,,890.738703600131,None,,,,,,,,,,,,,,,,,,,,,,,,,,,,,,,,,,,,,,,,,,,,,,,,,,,,,,,,,product,150,18,silent,new,yellow,887.4953648000956,None,n,887.4953648000956,None,"['n', 'return']","[3.0551064000464976, 3.2070353999733925]",887.4953648000956,None,,,99NC,001,2023_Sep_08_1325,ExactRep-v3-final,2021.2.3,60.019794581157036,
,,,,,,,,,,,,18,0,18,0,,,,,,,,,,,,,,,,,,,,,,,,,,,,,,,,,,,,,,,,,,,,,,,,,892.9576074001379,None,,,,,,,,,,,,,,,,,,,,,,,,,,,,,,,,,,,,,,,,,,,,,,,,,,,,,,,,,meadow,146,19,silent,new,yellow,891.2446067000274,None,y,891.2446067000274,None,"['y', 'return']","[1.4578287999611348, 1.6738667997997254]",891.2446067000274,None,,,99NC,001,2023_Sep_08_1325,ExactRep-v3-final,2021.2.3,60.019794581157036,
,,,,,,,,,,,,19,0,19,0,,,,,,,,,,,,,,,,,,,,,,,,,,,,,,,,,,,,,,,,,,,,,,,,,895.1098019999918,None,,,,,,,,,,,,,,,,,,,,,,,,,,,,,,,,,,,,,,,,,,,,,,,,,,,,,,,,,money,156,20,silent,new,yellow,893.4737619000953,None,n,893.4737619000953,None,"['n', 'return']","[1.3886798000894487, 1.5887063001282513]",893.4737619000953,None,,,99NC,001,2023_Sep_08_1325,ExactRep-v3-final,2021.2.3,60.019794581157036,
,,,,,,,,,,,,20,0,20,0,,,,,,,,,,,,,,,,,,,,,,,,,,,,,,,,,,,,,,,,,,,,,,,,,896.9120340000372,None,,,,,,,,,,,,,,,,,,,,,,,,,,,,,,,,,,,,,,,,,,,,,,,,,,,,,,,,,party,76,21,silent,old,yellow,895.61661310005,None,n,895.61661310005,None,"['n', 'return']","[1.053788600023836, 1.2458063000813127]",895.61661310005,None,,,99NC,001,2023_Sep_08_1325,ExactRep-v3-final,2021.2.3,60.019794581157036,
,,,,,,,,,,,,21,0,21,0,,,,,,,,,,,,,,,,,,,,,,,,,,,,,,,,,,,,,,,,,,,,,,,,,900.0500054000877,None,,,,,,,,,,,,,,,,,,,,,,,,,,,,,,,,,,,,,,,,,,,,,,,,,,,,,,,,,winter,151,22,silent,new,yellow,897.4435162001755,None,y,897.4435162001755,None,"['y', 'return']","[2.3868467998690903, 2.554978699889034]",897.4435162001755,None,,,99NC,001,2023_Sep_08_1325,ExactRep-v3-final,2021.2.3,60.019794581157036,
,,,,,,,,,,,,22,0,22,0,,,,,,,,,,,,,,,,,,,,,,,,,,,,,,,,,,,,,,,,,,,,,,,,,902.633979300037,None,,,,,,,,,,,,,,,,,,,,,,,,,,,,,,,,,,,,,,,,,,,,,,,,,,,,,,,,,style,75,23,silent,old,yellow,900.5724552001338,None,n,900.5724552001338,None,"['n', 'return']","[1.8421191999223083, 2.0181658999063075]",900.5724552001338,None,,,99NC,001,2023_Sep_08_1325,ExactRep-v3-final,2021.2.3,60.019794581157036,
,,,,,,,,,,,,23,0,23,0,,,,,,,,,,,,,,,,,,,,,,,,,,,,,,,,,,,,,,,,,,,,,,,,,904.9030117001384,None,,,,,,,,,,,,,,,,,,,,,,,,,,,,,,,,,,,,,,,,,,,,,,,,,,,,,,,,,college,129,24,silent,new,yellow,903.1537158000283,None,n,903.1537158000283,None,"['n', 'return']","[1.532749499892816, 1.7006953998934478]",903.1537158000283,None,,,99NC,001,2023_Sep_08_1325,ExactRep-v3-final,2021.2.3,60.019794581157036,
,,,,,,,,,,,,24,0,24,0,,,,,,,,,,,,,,,,,,,,,,,,,,,,,,,,,,,,,,,,,,,,,,,,,906.4871943001635,None,,,,,,,,,,,,,,,,,,,,,,,,,,,,,,,,,,,,,,,,,,,,,,,,,,,,,,,,,passion,149,25,silent,new,yellow,905.4204359999858,None,n,905.4204359999858,None,"['n', 'return']","[0.8179655999410897, 1.0338795001152903]",905.4204359999858,None,,,99NC,001,2023_Sep_08_1325,ExactRep-v3-final,2021.2.3,60.019794581157036,
,,,,,,,,,,,,25,0,25,0,,,,,,,,,,,,,,,,,,,,,,,,,,,,,,,,,,,,,,,,,,,,,,,,,908.439664100064,None,,,,,,,,,,,,,,,,,,,,,,,,,,,,,,,,,,,,,,,,,,,,,,,,,,,,,,,,,vision,112,26,aloud,old,yellow,906.9916231001262,None,y,906.9916231001262,None,"['y', 'return']","[1.2147864999715239, 1.414882600074634]",906.9916231001262,None,,,99NC,001,2023_Sep_08_1325,ExactRep-v3-final,2021.2.3,60.019794581157036,
,,,,,,,,,,,,26,0,26,0,,,,,,,,,,,,,,,,,,,,,,,,,,,,,,,,,,,,,,,,,,,,,,,,,910.0419601001777,None,,,,,,,,,,,,,,,,,,,,,,,,,,,,,,,,,,,,,,,,,,,,,,,,,,,,,,,,,ticket,14,27,sing,old,yellow,908.9480018999893,None,y,908.9480018999893,None,"['y', 'return']","[0.8423766999039799, 1.0504407999105752]",908.9480018999893,None,,,99NC,001,2023_Sep_08_1325,ExactRep-v3-final,2021.2.3,60.019794581157036,
,,,,,,,,,,,,27,0,27,0,,,,,,,,,,,,,,,,,,,,,,,,,,,,,,,,,,,,,,,,,,,,,,,,,911.9604065001477,None,,,,,,,,,,,,,,,,,,,,,,,,,,,,,,,,,,,,,,,,,,,,,,,,,,,,,,,,,shadow,116,28,aloud,old,yellow,910.5585002000444,None,y,910.5585002000444,None,"['y', 'return']","[1.2079473999328911, 1.3600101999472827]",910.5585002000444,None,,,99NC,001,2023_Sep_08_1325,ExactRep-v3-final,2021.2.3,60.019794581157036,
,,,,,,,,,,,,28,0,28,0,,,,,,,,,,,,,,,,,,,,,,,,,,,,,,,,,,,,,,,,,,,,,,,,,913.6449641999789,None,,,,,,,,,,,,,,,,,,,,,,,,,,,,,,,,,,,,,,,,,,,,,,,,,,,,,,,,,dust,100,29,aloud,old,yellow,912.477882000152,None,y,912.477882000152,None,"['y', 'return']","[0.9365685998927802, 1.12055530003272]",912.477882000152,None,,,99NC,001,2023_Sep_08_1325,ExactRep-v3-final,2021.2.3,60.019794581157036,
,,,,,,,,,,,,29,0,29,0,,,,,,,,,,,,,,,,,,,,,,,,,,,,,,,,,,,,,,,,,,,,,,,,,915.2800412999932,None,,,,,,,,,,,,,,,,,,,,,,,,,,,,,,,,,,,,,,,,,,,,,,,,,,,,,,,,,fire,148,30,silent,new,yellow,914.1519388000015,None,n,914.1519388000015,None,"['n', 'return']","[0.9104647999629378, 1.078554900130257]",914.1519388000015,None,,,99NC,001,2023_Sep_08_1325,ExactRep-v3-final,2021.2.3,60.019794581157036,
,,,,,,,,,,,,30,0,30,0,,,,,,,,,,,,,,,,,,,,,,,,,,,,,,,,,,,,,,,,,,,,,,,,,916.9816119000316,None,,,,,,,,,,,,,,,,,,,,,,,,,,,,,,,,,,,,,,,,,,,,,,,,,,,,,,,,,pole,106,31,aloud,old,yellow,915.7964649000205,None,y,915.7964649000205,None,"['y', 'return']","[0.953937100013718, 1.13797269994393]",915.7964649000205,None,,,99NC,001,2023_Sep_08_1325,ExactRep-v3-final,2021.2.3,60.019794581157036,
,,,,,,,,,,,,31,0,31,0,,,,,,,,,,,,,,,,,,,,,,,,,,,,,,,,,,,,,,,,,,,,,,,,,919.8345863001887,None,,,,,,,,,,,,,,,,,,,,,,,,,,,,,,,,,,,,,,,,,,,,,,,,,,,,,,,,,church,1,32,sing,old,yellow,917.4883855001535,None,y,917.4883855001535,None,"['y', 'return']","[2.0863034001085907, 2.3020158000290394]",917.4883855001535,None,,,99NC,001,2023_Sep_08_1325,ExactRep-v3-final,2021.2.3,60.019794581157036,
,,,,,,,,,,,,32,0,32,0,,,,,,,,,,,,,,,,,,,,,,,,,,,,,,,,,,,,,,,,,,,,,,,,,921.7352632000111,None,,,,,,,,,,,,,,,,,,,,,,,,,,,,,,,,,,,,,,,,,,,,,,,,,,,,,,,,,avenue,172,33,aloud,new,yellow,920.3670090001542,None,n,920.3670090001542,None,"['n', 'return']","[1.1432700001168996, 1.3273644000291824]",920.3670090001542,None,,,99NC,001,2023_Sep_08_1325,ExactRep-v3-final,2021.2.3,60.019794581157036,
,,,,,,,,,,,,33,0,33,0,,,,,,,,,,,,,,,,,,,,,,,,,,,,,,,,,,,,,,,,,,,,,,,,,923.4381657000631,None,,,,,,,,,,,,,,,,,,,,,,,,,,,,,,,,,,,,,,,,,,,,,,,,,,,,,,,,,artist,88,34,aloud,old,yellow,922.256064100191,None,y,922.256064100191,None,"['y', 'return']","[0.9663388000335544, 1.1424300000071526]",922.256064100191,None,,,99NC,001,2023_Sep_08_1325,ExactRep-v3-final,2021.2.3,60.019794581157036,
,,,,,,,,,,,,34,0,34,0,,,,,,,,,,,,,,,,,,,,,,,,,,,,,,,,,,,,,,,,,,,,,,,,,925.4236167001072,None,,,,,,,,,,,,,,,,,,,,,,,,,,,,,,,,,,,,,,,,,,,,,,,,,,,,,,,,,sugar,7,35,sing,old,yellow,923.9472575001419,None,y,923.9472575001419,None,"['y', 'return']","[1.2432452000211924, 1.4351609000004828]",923.9472575001419,None,,,99NC,001,2023_Sep_08_1325,ExactRep-v3-final,2021.2.3,60.019794581157036,
,,,,,,,,,,,,35,0,35,0,,,,,,,,,,,,,,,,,,,,,,,,,,,,,,,,,,,,,,,,,,,,,,,,,927.9259954001755,None,,,,,,,,,,,,,,,,,,,,,,,,,,,,,,,,,,,,,,,,,,,,,,,,,,,,,,,,,tool,212,36,aloud,new,yellow,925.9396826000884,None,y,925.9396826000884,None,"['y', 'return']","[1.7547130000311881, 1.9388202000409365]",925.9396826000884,None,,,99NC,001,2023_Sep_08_1325,ExactRep-v3-final,2021.2.3,60.019794581157036,
,,,,,,,,,,,,36,0,36,0,,,,,,,,,,,,,,,,,,,,,,,,,,,,,,,,,,,,,,,,,,,,,,,,,931.1956403001677,None,,,,,,,,,,,,,,,,,,,,,,,,,,,,,,,,,,,,,,,,,,,,,,,,,,,,,,,,,kiss,63,37,silent,old,yellow,928.4430317999795,None,y,928.4430317999795,None,"['y', 'return']","[2.4835276999510825, 2.7156684000510722]",928.4430317999795,None,,,99NC,001,2023_Sep_08_1325,ExactRep-v3-final,2021.2.3,60.019794581157036,
,,,,,,,,,,,,37,0,37,0,,,,,,,,,,,,,,,,,,,,,,,,,,,,,,,,,,,,,,,,,,,,,,,,,936.2341684000567,None,,,,,,,,,,,,,,,,,,,,,,,,,,,,,,,,,,,,,,,,,,,,,,,,,,,,,,,,,picture,68,38,silent,old,yellow,931.7037770000752,None,n,931.7037770000752,None,"['n', 'y', 'return']","[1.1266701000276953, 3.0466437998693436, 4.486755699850619]",931.7037770000752,None,,,99NC,001,2023_Sep_08_1325,ExactRep-v3-final,2021.2.3,60.019794581157036,
,,,,,,,,,,,,38,0,38,0,,,,,,,,,,,,,,,,,,,,,,,,,,,,,,,,,,,,,,,,,,,,,,,,,938.266670400044,None,,,,,,,,,,,,,,,,,,,,,,,,,,,,,,,,,,,,,,,,,,,,,,,,,,,,,,,,,garden,35,39,sing,old,yellow,936.7503716000356,None,y,936.7503716000356,None,"['y', 'return']","[1.0800764001905918, 1.4559498000890017]",936.7503716000356,None,,,99NC,001,2023_Sep_08_1325,ExactRep-v3-final,2021.2.3,60.019794581157036,
,,,,,,,,,,,,39,0,39,0,,,,,,,,,,,,,,,,,,,,,,,,,,,,,,,,,,,,,,,,,,,,,,,,,941.9069407000206,None,,,,,,,,,,,,,,,,,,,,,,,,,,,,,,,,,,,,,,,,,,,,,,,,,,,,,,,,,law,73,40,silent,old,yellow,938.7779312001076,None,y,938.7779312001076,None,"['y', 'return']","[2.8685018001124263, 3.0844823999796063]",938.7779312001076,None,,,99NC,001,2023_Sep_08_1325,ExactRep-v3-final,2021.2.3,60.019794581157036,
,,,,,,,,,,,,40,0,40,0,,,,,,,,,,,,,,,,,,,,,,,,,,,,,,,,,,,,,,,,,,,,,,,,,943.5910771000199,None,,,,,,,,,,,,,,,,,,,,,,,,,,,,,,,,,,,,,,,,,,,,,,,,,,,,,,,,,fur,206,41,aloud,new,yellow,942.423131500138,None,n,942.423131500138,None,"['n', 'return']","[0.9192653000354767, 1.1193029000423849]",942.423131500138,None,,,99NC,001,2023_Sep_08_1325,ExactRep-v3-final,2021.2.3,60.019794581157036,
,,,,,,,,,,,,41,0,41,0,,,,,,,,,,,,,,,,,,,,,,,,,,,,,,,,,,,,,,,,,,,,,,,,,945.3099484001286,None,,,,,,,,,,,,,,,,,,,,,,,,,,,,,,,,,,,,,,,,,,,,,,,,,,,,,,,,,cottage,189,42,sing,new,yellow,944.0925971001852,None,n,944.0925971001852,None,"['n', 'return']","[0.9778340000193566, 1.1698933001607656]",944.0925971001852,None,,,99NC,001,2023_Sep_08_1325,ExactRep-v3-final,2021.2.3,60.019794581157036,
,,,,,,,,,,,,42,0,42,0,,,,,,,,,,,,,,,,,,,,,,,,,,,,,,,,,,,,,,,,,,,,,,,,,947.7790916000959,None,,,,,,,,,,,,,,,,,,,,,,,,,,,,,,,,,,,,,,,,,,,,,,,,,,,,,,,,,truth,232,43,aloud,new,yellow,945.8272690000013,None,y,945.8272690000013,None,"['y', 'return']","[1.6831499000545591, 1.9072245999705046]",945.8272690000013,None,,,99NC,001,2023_Sep_08_1325,ExactRep-v3-final,2021.2.3,60.019794581157036,
,,,,,,,,,,,,43,0,43,0,,,,,,,,,,,,,,,,,,,,,,,,,,,,,,,,,,,,,,,,,,,,,,,,,949.4809622000903,None,,,,,,,,,,,,,,,,,,,,,,,,,,,,,,,,,,,,,,,,,,,,,,,,,,,,,,,,,justice,99,44,aloud,old,yellow,948.2917836999986,None,y,948.2917836999986,None,"['y', 'return']","[0.9385666998568922, 1.1466471999883652]",948.2917836999986,None,,,99NC,001,2023_Sep_08_1325,ExactRep-v3-final,2021.2.3,60.019794581157036,
,,,,,,,,,,,,44,0,44,0,,,,,,,,,,,,,,,,,,,,,,,,,,,,,,,,,,,,,,,,,,,,,,,,,953.1677002001088,None,,,,,,,,,,,,,,,,,,,,,,,,,,,,,,,,,,,,,,,,,,,,,,,,,,,,,,,,,horse,117,45,aloud,old,yellow,949.9972482000012,None,n,949.9972482000012,None,"['n', 'return']","[2.9131237999536097, 3.129230799851939]",949.9972482000012,None,,,99NC,001,2023_Sep_08_1325,ExactRep-v3-final,2021.2.3,60.019794581157036,
,,,,,,,,,,,,45,0,45,0,,,,,,,,,,,,,,,,,,,,,,,,,,,,,,,,,,,,,,,,,,,,,,,,,955.1866725999862,None,,,,,,,,,,,,,,,,,,,,,,,,,,,,,,,,,,,,,,,,,,,,,,,,,,,,,,,,,hour,202,46,aloud,new,yellow,953.6760073001496,None,n,953.6760073001496,None,"['n', 'return']","[1.306778799975291, 1.4744541998952627]",953.6760073001496,None,,,99NC,001,2023_Sep_08_1325,ExactRep-v3-final,2021.2.3,60.019794581157036,
,,,,,,,,,,,,46,0,46,0,,,,,,,,,,,,,,,,,,,,,,,,,,,,,,,,,,,,,,,,,,,,,,,,,959.023816900095,None,,,,,,,,,,,,,,,,,,,,,,,,,,,,,,,,,,,,,,,,,,,,,,,,,,,,,,,,,beast,128,47,silent,new,yellow,955.6934013001155,None,n,955.6934013001155,None,"['n', 'return']","[3.104970999993384, 3.296976499957964]",955.6934013001155,None,,,99NC,001,2023_Sep_08_1325,ExactRep-v3-final,2021.2.3,60.019794581157036,
,,,,,,,,,,,,47,0,47,0,,,,,,,,,,,,,,,,,,,,,,,,,,,,,,,,,,,,,,,,,,,,,,,,,963.4946400001645,None,,,,,,,,,,,,,,,,,,,,,,,,,,,,,,,,,,,,,,,,,,,,,,,,,,,,,,,,,duty,228,48,aloud,new,yellow,959.5402933000587,None,n,959.5402933000587,None,"['n', 'return']","[1.5461037000641227, 3.906102600041777]",959.5402933000587,None,,,99NC,001,2023_Sep_08_1325,ExactRep-v3-final,2021.2.3,60.019794581157036,
,,,,,,,,,,,,48,0,48,0,,,,,,,,,,,,,,,,,,,,,,,,,,,,,,,,,,,,,,,,,,,,,,,,,965.5121484000701,None,,,,,,,,,,,,,,,,,,,,,,,,,,,,,,,,,,,,,,,,,,,,,,,,,,,,,,,,,shock,70,49,silent,old,yellow,964.0024670001585,None,n,964.0024670001585,None,"['n', 'return']","[1.2839174999389797, 1.47600489994511]",964.0024670001585,None,,,99NC,001,2023_Sep_08_1325,ExactRep-v3-final,2021.2.3,60.019794581157036,
,,,,,,,,,,,,49,0,49,0,,,,,,,,,,,,,,,,,,,,,,,,,,,,,,,,,,,,,,,,,,,,,,,,,967.4320044000633,None,,,,,,,,,,,,,,,,,,,,,,,,,,,,,,,,,,,,,,,,,,,,,,,,,,,,,,,,,insect,225,50,sing,new,yellow,966.0142485999968,None,n,966.0142485999968,None,"['n', 'return']","[1.1841390999034047, 1.3681332999840379]",966.0142485999968,None,,,99NC,001,2023_Sep_08_1325,ExactRep-v3-final,2021.2.3,60.019794581157036,
,,,,,,,,,,,,50,0,50,0,,,,,,,,,,,,,,,,,,,,,,,,,,,,,,,,,,,,,,,,,,,,,,,,,970.4188806000166,None,,,,,,,,,,,,,,,,,,,,,,,,,,,,,,,,,,,,,,,,,,,,,,,,,,,,,,,,,chair,173,51,sing,new,yellow,967.9383068999741,None,n,967.9383068999741,None,"['n', 'return']","[2.236077700043097, 2.436095800017938]",967.9383068999741,None,,,99NC,001,2023_Sep_08_1325,ExactRep-v3-final,2021.2.3,60.019794581157036,
,,,,,,,,,,,,51,0,51,0,,,,,,,,,,,,,,,,,,,,,,,,,,,,,,,,,,,,,,,,,,,,,,,,,974.6060381000862,None,,,,,,,,,,,,,,,,,,,,,,,,,,,,,,,,,,,,,,,,,,,,,,,,,,,,,,,,,prayer,154,52,silent,new,yellow,970.9354895001743,None,n,970.9354895001743,None,"['n', 'return']","[3.358982800040394, 3.622999500017613]",970.9354895001743,None,,,99NC,001,2023_Sep_08_1325,ExactRep-v3-final,2021.2.3,60.019794581157036,
,,,,,,,,,,,,52,0,52,0,,,,,,,,,,,,,,,,,,,,,,,,,,,,,,,,,,,,,,,,,,,,,,,,,978.1257134000771,None,,,,,,,,,,,,,,,,,,,,,,,,,,,,,,,,,,,,,,,,,,,,,,,,,,,,,,,,,corner,177,53,sing,new,yellow,975.1137147000991,None,y,975.1137147000991,None,"['y', 'return']","[2.7647850001230836, 2.972683500032872]",975.1137147000991,None,,,99NC,001,2023_Sep_08_1325,ExactRep-v3-final,2021.2.3,60.019794581157036,
,,,,,,,,,,,,53,0,53,0,,,,,,,,,,,,,,,,,,,,,,,,,,,,,,,,,,,,,,,,,,,,,,,,,980.1617255001329,None,,,,,,,,,,,,,,,,,,,,,,,,,,,,,,,,,,,,,,,,,,,,,,,,,,,,,,,,,length,234,54,aloud,new,yellow,978.6378311000299,None,n,978.6378311000299,None,"['n', 'return']","[1.2805906001012772, 1.480557099916041]",978.6378311000299,None,,,99NC,001,2023_Sep_08_1325,ExactRep-v3-final,2021.2.3,60.019794581157036,
,,,,,,,,,,,,54,0,54,0,,,,,,,,,,,,,,,,,,,,,,,,,,,,,,,,,,,,,,,,,,,,,,,,,981.9299308999907,None,,,,,,,,,,,,,,,,,,,,,,,,,,,,,,,,,,,,,,,,,,,,,,,,,,,,,,,,,freedom,109,55,aloud,old,yellow,980.6854081000201,None,y,980.6854081000201,None,"['y', 'return']","[0.9929873000364751, 1.2010472000110894]",980.6854081000201,None,,,99NC,001,2023_Sep_08_1325,ExactRep-v3-final,2021.2.3,60.019794581157036,
,,,,,,,,,,,,55,0,55,0,,,,,,,,,,,,,,,,,,,,,,,,,,,,,,,,,,,,,,,,,,,,,,,,,983.6134254001081,None,,,,,,,,,,,,,,,,,,,,,,,,,,,,,,,,,,,,,,,,,,,,,,,,,,,,,,,,,heaven,56,56,silent,old,yellow,982.460739800008,None,y,982.460739800008,None,"['y', 'return']","[0.9056134999264032, 1.1056911000050604]",982.460739800008,None,,,99NC,001,2023_Sep_08_1325,ExactRep-v3-final,2021.2.3,60.019794581157036,
,,,,,,,,,,,,56,0,56,0,,,,,,,,,,,,,,,,,,,,,,,,,,,,,,,,,,,,,,,,,,,,,,,,,987.9859519000165,None,,,,,,,,,,,,,,,,,,,,,,,,,,,,,,,,,,,,,,,,,,,,,,,,,,,,,,,,,fortune,233,57,sing,new,yellow,984.1160307000391,None,y,984.1160307000391,None,"['y', 'return']","[3.642515000188723, 3.834630000172183]",984.1160307000391,None,,,99NC,001,2023_Sep_08_1325,ExactRep-v3-final,2021.2.3,60.019794581157036,
,,,,,,,,,,,,57,0,57,0,,,,,,,,,,,,,,,,,,,,,,,,,,,,,,,,,,,,,,,,,,,,,,,,,990.0880073001608,None,,,,,,,,,,,,,,,,,,,,,,,,,,,,,,,,,,,,,,,,,,,,,,,,,,,,,,,,,factory,125,58,silent,new,yellow,988.503848399967,None,n,988.503848399967,None,"['n', 'return']","[1.3825047998689115, 1.5426316999364644]",988.503848399967,None,,,99NC,001,2023_Sep_08_1325,ExactRep-v3-final,2021.2.3,60.019794581157036,
,,,,,,,,,,,,58,0,58,0,,,,,,,,,,,,,,,,,,,,,,,,,,,,,,,,,,,,,,,,,,,,,,,,,991.7730426001363,None,,,,,,,,,,,,,,,,,,,,,,,,,,,,,,,,,,,,,,,,,,,,,,,,,,,,,,,,,anger,19,59,sing,old,yellow,990.6058412999846,None,y,990.6058412999846,None,"['y', 'return']","[0.95254149986431, 1.1285871998406947]",990.6058412999846,None,,,99NC,001,2023_Sep_08_1325,ExactRep-v3-final,2021.2.3,60.019794581157036,
,,,,,,,,,,,,59,0,59,0,,,,,,,,,,,,,,,,,,,,,,,,,,,,,,,,,,,,,,,,,,,,,,,,,993.6080128999893,None,,,,,,,,,,,,,,,,,,,,,,,,,,,,,,,,,,,,,,,,,,,,,,,,,,,,,,,,,soil,21,60,sing,old,yellow,992.2902816999704,None,y,992.2902816999704,None,"['y', 'return']","[1.1240842000115663, 1.2841078999917954]",992.2902816999704,None,,,99NC,001,2023_Sep_08_1325,ExactRep-v3-final,2021.2.3,60.019794581157036,
,,,,,,,,,,,,60,0,60,0,,,,,,,,,,,,,,,,,,,,,,,,,,,,,,,,,,,,,,,,,,,,,,,,,995.3266569001134,None,,,,,,,,,,,,,,,,,,,,,,,,,,,,,,,,,,,,,,,,,,,,,,,,,,,,,,,,,string,93,61,aloud,old,yellow,994.1084700000938,None,y,994.1084700000938,None,"['y', 'return']","[1.0018700999207795, 1.177945900009945]",994.1084700000938,None,,,99NC,001,2023_Sep_08_1325,ExactRep-v3-final,2021.2.3,60.019794581157036,
,,,,,,,,,,,,61,0,61,0,,,,,,,,,,,,,,,,,,,,,,,,,,,,,,,,,,,,,,,,,,,,,,,,,997.4120448001195,None,,,,,,,,,,,,,,,,,,,,,,,,,,,,,,,,,,,,,,,,,,,,,,,,,,,,,,,,,world,127,62,silent,new,yellow,995.8474221001379,None,n,995.8474221001379,None,"['n', 'return']","[1.3670096001587808, 1.5273780999705195]",995.8474221001379,None,,,99NC,001,2023_Sep_08_1325,ExactRep-v3-final,2021.2.3,60.019794581157036,
,,,,,,,,,,,,62,0,62,0,,,,,,,,,,,,,,,,,,,,,,,,,,,,,,,,,,,,,,,,,,,,,,,,,999.0809310001787,None,,,,,,,,,,,,,,,,,,,,,,,,,,,,,,,,,,,,,,,,,,,,,,,,,,,,,,,,,wine,22,63,sing,old,yellow,997.9246007001493,None,y,997.9246007001493,None,"['y', 'return']","[0.953969500027597, 1.1138583000283688]",997.9246007001493,None,,,99NC,001,2023_Sep_08_1325,ExactRep-v3-final,2021.2.3,60.019794581157036,
,,,,,,,,,,,,63,0,63,0,,,,,,,,,,,,,,,,,,,,,,,,,,,,,,,,,,,,,,,,,,,,,,,,,1001.09901370015,None,,,,,,,,,,,,,,,,,,,,,,,,,,,,,,,,,,,,,,,,,,,,,,,,,,,,,,,,,potato,123,64,silent,new,yellow,999.6036427000072,None,n,999.6036427000072,None,"['n', 'return']","[1.2907881999853998, 1.4506858000531793]",999.6036427000072,None,,,99NC,001,2023_Sep_08_1325,ExactRep-v3-final,2021.2.3,60.019794581157036,
,,,,,,,,,,,,64,0,64,0,,,,,,,,,,,,,,,,,,,,,,,,,,,,,,,,,,,,,,,,,,,,,,,,,1006.4875617001671,None,,,,,,,,,,,,,,,,,,,,,,,,,,,,,,,,,,,,,,,,,,,,,,,,,,,,,,,,,grass,239,65,sing,new,yellow,1001.6068558001425,None,y,1001.6068558001425,None,"['y', 'return']","[4.663421199889854, 4.839601599844173]",1001.6068558001425,None,,,99NC,001,2023_Sep_08_1325,ExactRep-v3-final,2021.2.3,60.019794581157036,
,,,,,,,,,,,,65,0,65,0,,,,,,,,,,,,,,,,,,,,,,,,,,,,,,,,,,,,,,,,,,,,,,,,,1008.2561773001216,None,,,,,,,,,,,,,,,,,,,,,,,,,,,,,,,,,,,,,,,,,,,,,,,,,,,,,,,,,poet,207,66,sing,new,yellow,1007.0057781999931,None,n,1007.0057781999931,None,"['n', 'return']","[1.048836800036952, 1.2087175000924617]",1007.0057781999931,None,,,99NC,001,2023_Sep_08_1325,ExactRep-v3-final,2021.2.3,60.019794581157036,
,,,,,,,,,,,,66,0,66,0,,,,,,,,,,,,,,,,,,,,,,,,,,,,,,,,,,,,,,,,,,,,,,,,,1009.924730299972,None,,,,,,,,,,,,,,,,,,,,,,,,,,,,,,,,,,,,,,,,,,,,,,,,,,,,,,,,,idea,142,67,silent,new,yellow,1008.7600869000889,None,n,1008.7600869000889,None,"['n', 'return']","[0.9503939000423998, 1.1262421999126673]",1008.7600869000889,None,,,99NC,001,2023_Sep_08_1325,ExactRep-v3-final,2021.2.3,60.019794581157036,
,,,,,,,,,,,,67,0,67,0,,,,,,,,,,,,,,,,,,,,,,,,,,,,,,,,,,,,,,,,,,,,,,,,,1011.6611040001735,None,,,,,,,,,,,,,,,,,,,,,,,,,,,,,,,,,,,,,,,,,,,,,,,,,,,,,,,,,toy,96,68,aloud,old,yellow,1010.4336618999951,None,y,1010.4336618999951,None,"['y', 'return']","[0.9889465000014752, 1.1806999000255018]",1010.4336618999951,None,,,99NC,001,2023_Sep_08_1325,ExactRep-v3-final,2021.2.3,60.019794581157036,
,,,,,,,,,,,,68,0,68,0,,,,,,,,,,,,,,,,,,,,,,,,,,,,,,,,,,,,,,,,,,,,,,,,,1013.2610498999711,None,,,,,,,,,,,,,,,,,,,,,,,,,,,,,,,,,,,,,,,,,,,,,,,,,,,,,,,,,sky,130,69,silent,new,yellow,1012.1777974001598,None,n,1012.1777974001598,None,"['n', 'return']","[0.8367098001763225, 1.044640300096944]",1012.1777974001598,None,,,99NC,001,2023_Sep_08_1325,ExactRep-v3-final,2021.2.3,60.019794581157036,
,,,,,,,,,,,,69,0,69,0,,,,,,,,,,,,,,,,,,,,,,,,,,,,,,,,,,,,,,,,,,,,,,,,,1014.8967943000607,None,,,,,,,,,,,,,,,,,,,,,,,,,,,,,,,,,,,,,,,,,,,,,,,,,,,,,,,,,blood,30,70,sing,old,yellow,1013.7731366001535,None,y,1013.7731366001535,None,"['y', 'return']","[0.8572001999709755, 1.0812411999795586]",1013.7731366001535,None,,,99NC,001,2023_Sep_08_1325,ExactRep-v3-final,2021.2.3,60.019794581157036,
,,,,,,,,,,,,70,0,70,0,,,,,,,,,,,,,,,,,,,,,,,,,,,,,,,,,,,,,,,,,,,,,,,,,1018.3330569001846,None,,,,,,,,,,,,,,,,,,,,,,,,,,,,,,,,,,,,,,,,,,,,,,,,,,,,,,,,,flood,3,71,sing,old,yellow,1015.4164669001475,None,y,1015.4164669001475,None,"['return', 'y', 'return']","[1.885863499948755, 2.630030500004068, 2.8699203999713063]",1015.4164669001475,None,,,99NC,001,2023_Sep_08_1325,ExactRep-v3-final,2021.2.3,60.019794581157036,
,,,,,,,,,,,,71,0,71,0,,,,,,,,,,,,,,,,,,,,,,,,,,,,,,,,,,,,,,,,,,,,,,,,,1021.9861801001243,None,,,,,,,,,,,,,,,,,,,,,,,,,,,,,,,,,,,,,,,,,,,,,,,,,,,,,,,,,seat,5,72,sing,old,yellow,1018.8505102000199,None,y,1018.8505102000199,None,"['y', 'return']","[2.787866299971938, 3.0998159998562187]",1018.8505102000199,None,,,99NC,001,2023_Sep_08_1325,ExactRep-v3-final,2021.2.3,60.019794581157036,
,,,,,,,,,,,,72,0,72,0,,,,,,,,,,,,,,,,,,,,,,,,,,,,,,,,,,,,,,,,,,,,,,,,,1023.7218041000888,None,,,,,,,,,,,,,,,,,,,,,,,,,,,,,,,,,,,,,,,,,,,,,,,,,,,,,,,,,mercy,120,73,silent,new,yellow,1022.4868900000583,None,n,1022.4868900000583,None,"['n', 'return']","[0.9595925000030547, 1.191637499956414]",1022.4868900000583,None,,,99NC,001,2023_Sep_08_1325,ExactRep-v3-final,2021.2.3,60.019794581157036,
,,,,,,,,,,,,73,0,73,0,,,,,,,,,,,,,,,,,,,,,,,,,,,,,,,,,,,,,,,,,,,,,,,,,1026.823913600063,None,,,,,,,,,,,,,,,,,,,,,,,,,,,,,,,,,,,,,,,,,,,,,,,,,,,,,,,,,plain,145,74,silent,new,yellow,1024.2389132999815,None,n,1024.2389132999815,None,"['n', 'return']","[2.3514445999171585, 2.543595799943432]",1024.2389132999815,None,,,99NC,001,2023_Sep_08_1325,ExactRep-v3-final,2021.2.3,60.019794581157036,
,,,,,,,,,,,,74,0,74,0,,,,,,,,,,,,,,,,,,,,,,,,,,,,,,,,,,,,,,,,,,,,,,,,,1029.059089000104,None,,,,,,,,,,,,,,,,,,,,,,,,,,,,,,,,,,,,,,,,,,,,,,,,,,,,,,,,,queen,34,75,sing,old,yellow,1027.3270908000413,None,n,1027.3270908000413,None,"['n', 'return']","[0.7752688999753445, 1.6872000000439584]",1027.3270908000413,None,,,99NC,001,2023_Sep_08_1325,ExactRep-v3-final,2021.2.3,60.019794581157036,
,,,,,,,,,,,,75,0,75,0,,,,,,,,,,,,,,,,,,,,,,,,,,,,,,,,,,,,,,,,,,,,,,,,,1032.4469586999621,None,,,,,,,,,,,,,,,,,,,,,,,,,,,,,,,,,,,,,,,,,,,,,,,,,,,,,,,,,meeting,31,76,sing,old,yellow,1029.5606965001207,None,y,1029.5606965001207,None,"['y', 'return']","[2.6215403000824153, 2.8457019000779837]",1029.5606965001207,None,,,99NC,001,2023_Sep_08_1325,ExactRep-v3-final,2021.2.3,60.019794581157036,
,,,,,,,,,,,,76,0,76,0,,,,,,,,,,,,,,,,,,,,,,,,,,,,,,,,,,,,,,,,,,,,,,,,,1034.232524299994,None,,,,,,,,,,,,,,,,,,,,,,,,,,,,,,,,,,,,,,,,,,,,,,,,,,,,,,,,,letter,87,77,aloud,old,yellow,1032.963337900117,None,y,1032.963337900117,None,"['y', 'return']","[1.0431768000125885, 1.2270718000363559]",1032.963337900117,None,,,99NC,001,2023_Sep_08_1325,ExactRep-v3-final,2021.2.3,60.019794581157036,
,,,,,,,,,,,,77,0,77,0,,,,,,,,,,,,,,,,,,,,,,,,,,,,,,,,,,,,,,,,,,,,,,,,,1035.9006344999652,None,,,,,,,,,,,,,,,,,,,,,,,,,,,,,,,,,,,,,,,,,,,,,,,,,,,,,,,,,hide,217,78,sing,new,yellow,1034.7495896001346,None,n,1034.7495896001346,None,"['n', 'return']","[0.9047510998789221, 1.1127541998866946]",1034.7495896001346,None,,,99NC,001,2023_Sep_08_1325,ExactRep-v3-final,2021.2.3,60.019794581157036,
,,,,,,,,,,,,78,0,78,0,,,,,,,,,,,,,,,,,,,,,,,,,,,,,,,,,,,,,,,,,,,,,,,,,1039.7874521000776,None,,,,,,,,,,,,,,,,,,,,,,,,,,,,,,,,,,,,,,,,,,,,,,,,,,,,,,,,,method,131,79,silent,new,yellow,1036.4176585001405,None,y,1036.4176585001405,None,"['y', 'return']","[3.1166894000489265, 3.333146700169891]",1036.4176585001405,None,,,99NC,001,2023_Sep_08_1325,ExactRep-v3-final,2021.2.3,60.019794581157036,
,,,,,,,,,,,,79,0,79,0,,,,,,,,,,,,,,,,,,,,,,,,,,,,,,,,,,,,,,,,,,,,,,,,,1041.4540610001422,None,,,,,,,,,,,,,,,,,,,,,,,,,,,,,,,,,,,,,,,,,,,,,,,,,,,,,,,,,animal,171,80,sing,new,yellow,1040.3073877000716,None,n,1040.3073877000716,None,"['n', 'return']","[0.8830977000761777, 1.1069298000074923]",1040.3073877000716,None,,,99NC,001,2023_Sep_08_1325,ExactRep-v3-final,2021.2.3,60.019794581157036,
,,,,,,,,,,,,80,0,80,0,,,,,,,,,,,,,,,,,,,,,,,,,,,,,,,,,,,,,,,,,,,,,,,,,1043.1917700001504,None,,,,,,,,,,,,,,,,,,,,,,,,,,,,,,,,,,,,,,,,,,,,,,,,,,,,,,,,,valley,143,81,silent,new,yellow,1041.957497900119,None,n,1041.957497900119,None,"['n', 'return']","[0.9768647998571396, 1.1849759998731315]",1041.957497900119,None,,,99NC,001,2023_Sep_08_1325,ExactRep-v3-final,2021.2.3,60.019794581157036,
,,,,,,,,,,,,81,0,81,0,,,,,,,,,,,,,,,,,,,,,,,,,,,,,,,,,,,,,,,,,,,,,,,,,1047.7118699999992,None,,,,,,,,,,,,,,,,,,,,,,,,,,,,,,,,,,,,,,,,,,,,,,,,,,,,,,,,,gold,182,82,aloud,new,yellow,1043.709092900157,None,n,1043.709092900157,None,"['n', 'return']","[3.7372387000359595, 3.969344099983573]",1043.709092900157,None,,,99NC,001,2023_Sep_08_1325,ExactRep-v3-final,2021.2.3,60.019794581157036,
,,,,,,,,,,,,82,0,82,0,,,,,,,,,,,,,,,,,,,,,,,,,,,,,,,,,,,,,,,,,,,,,,,,,1049.4808593001217,None,,,,,,,,,,,,,,,,,,,,,,,,,,,,,,,,,,,,,,,,,,,,,,,,,,,,,,,,,corn,84,83,aloud,old,yellow,1048.2172389000189,None,y,1048.2172389000189,None,"['y', 'return']","[0.9972943998873234, 1.2290798998437822]",1048.2172389000189,None,,,99NC,001,2023_Sep_08_1325,ExactRep-v3-final,2021.2.3,60.019794581157036,
,,,,,,,,,,,,83,0,83,0,,,,,,,,,,,,,,,,,,,,,,,,,,,,,,,,,,,,,,,,,,,,,,,,,1053.117592100054,None,,,,,,,,,,,,,,,,,,,,,,,,,,,,,,,,,,,,,,,,,,,,,,,,,,,,,,,,,hope,181,84,sing,new,yellow,1049.9977773001883,None,n,1049.9977773001883,None,"['n', 'return']","[2.864576700143516, 3.0725901999976486]",1049.9977773001883,None,,,99NC,001,2023_Sep_08_1325,ExactRep-v3-final,2021.2.3,60.019794581157036,
,,,,,,,,,,,,84,0,84,0,,,,,,,,,,,,,,,,,,,,,,,,,,,,,,,,,,,,,,,,,,,,,,,,,1055.152660400141,None,,,,,,,,,,,,,,,,,,,,,,,,,,,,,,,,,,,,,,,,,,,,,,,,,,,,,,,,,ship,236,85,aloud,new,yellow,1053.6193401999772,None,y,1053.6193401999772,None,"['y', 'return']","[1.2989463999401778, 1.4910444000270218]",1053.6193401999772,None,,,99NC,001,2023_Sep_08_1325,ExactRep-v3-final,2021.2.3,60.019794581157036,
,,,,,,,,,,,,85,0,85,0,,,,,,,,,,,,,,,,,,,,,,,,,,,,,,,,,,,,,,,,,,,,,,,,,1056.854705600068,None,,,,,,,,,,,,,,,,,,,,,,,,,,,,,,,,,,,,,,,,,,,,,,,,,,,,,,,,,library,169,86,sing,new,yellow,1055.660748400027,None,n,1055.660748400027,None,"['n', 'return']","[0.961626100121066, 1.153599200071767]",1055.660748400027,None,,,99NC,001,2023_Sep_08_1325,ExactRep-v3-final,2021.2.3,60.019794581157036,
,,,,,,,,,,,,86,0,86,0,,,,,,,,,,,,,,,,,,,,,,,,,,,,,,,,,,,,,,,,,,,,,,,,,1058.8395794001408,None,,,,,,,,,,,,,,,,,,,,,,,,,,,,,,,,,,,,,,,,,,,,,,,,,,,,,,,,,love,192,87,aloud,new,yellow,1057.3640149000566,None,n,1057.3640149000566,None,"['n', 'return']","[1.242446199990809, 1.434374500066042]",1057.3640149000566,None,,,99NC,001,2023_Sep_08_1325,ExactRep-v3-final,2021.2.3,60.019794581157036,
,,,,,,,,,,,,87,0,87,0,,,,,,,,,,,,,,,,,,,,,,,,,,,,,,,,,,,,,,,,,,,,,,,,,1062.41020449996,None,,,,,,,,,,,,,,,,,,,,,,,,,,,,,,,,,,,,,,,,,,,,,,,,,,,,,,,,,owner,214,88,aloud,new,yellow,1059.353649500059,None,y,1059.353649500059,None,"['y', 'return']","[2.7968724998645484, 3.0208756998181343]",1059.353649500059,None,,,99NC,001,2023_Sep_08_1325,ExactRep-v3-final,2021.2.3,60.019794581157036,
,,,,,,,,,,,,88,0,88,0,,,,,,,,,,,,,,,,,,,,,,,,,,,,,,,,,,,,,,,,,,,,,,,,,1064.4947522999719,None,,,,,,,,,,,,,,,,,,,,,,,,,,,,,,,,,,,,,,,,,,,,,,,,,,,,,,,,,ability,52,89,silent,old,yellow,1062.9198325001635,None,n,1062.9198325001635,None,"['n', 'return']","[1.1826939000748098, 1.5344387001823634]",1062.9198325001635,None,,,99NC,001,2023_Sep_08_1325,ExactRep-v3-final,2021.2.3,60.019794581157036,
,,,,,,,,,,,,89,0,89,0,,,,,,,,,,,,,,,,,,,,,,,,,,,,,,,,,,,,,,,,,,,,,,,,,1066.1471296001691,None,,,,,,,,,,,,,,,,,,,,,,,,,,,,,,,,,,,,,,,,,,,,,,,,,,,,,,,,,salary,159,90,silent,new,yellow,1065.0050166000146,None,n,1065.0050166000146,None,"['n', 'return']","[0.9132602999452502, 1.1056262999773026]",1065.0050166000146,None,,,99NC,001,2023_Sep_08_1325,ExactRep-v3-final,2021.2.3,60.019794581157036,
,,,,,,,,,,,,90,0,90,0,,,,,,,,,,,,,,,,,,,,,,,,,,,,,,,,,,,,,,,,,,,,,,,,,1068.0827570999973,None,,,,,,,,,,,,,,,,,,,,,,,,,,,,,,,,,,,,,,,,,,,,,,,,,,,,,,,,,street,29,91,sing,old,yellow,1066.653186300071,None,y,1066.653186300071,None,"['y', 'return']","[1.2171056000515819, 1.3933201001491398]",1066.653186300071,None,,,99NC,001,2023_Sep_08_1325,ExactRep-v3-final,2021.2.3,60.019794581157036,
,,,,,,,,,,,,91,0,91,0,,,,,,,,,,,,,,,,,,,,,,,,,,,,,,,,,,,,,,,,,,,,,,,,,1070.0010728000198,None,,,,,,,,,,,,,,,,,,,,,,,,,,,,,,,,,,,,,,,,,,,,,,,,,,,,,,,,,season,209,92,sing,new,yellow,1068.5917267999612,None,y,1068.5917267999612,None,"['y', 'return']","[1.2067873999476433, 1.366734999930486]",1068.5917267999612,None,,,99NC,001,2023_Sep_08_1325,ExactRep-v3-final,2021.2.3,60.019794581157036,
,,,,,,,,,,,,92,0,92,0,,,,,,,,,,,,,,,,,,,,,,,,,,,,,,,,,,,,,,,,,,,,,,,,,1071.5860030001495,None,,,,,,,,,,,,,,,,,,,,,,,,,,,,,,,,,,,,,,,,,,,,,,,,,,,,,,,,,mother,36,93,sing,old,yellow,1070.5078829000704,None,n,1070.5078829000704,None,"['n', 'return']","[0.8746587000787258, 1.0427010001149029]",1070.5078829000704,None,,,99NC,001,2023_Sep_08_1325,ExactRep-v3-final,2021.2.3,60.019794581157036,
,,,,,,,,,,,,93,0,93,0,,,,,,,,,,,,,,,,,,,,,,,,,,,,,,,,,,,,,,,,,,,,,,,,,1073.5544473000336,None,,,,,,,,,,,,,,,,,,,,,,,,,,,,,,,,,,,,,,,,,,,,,,,,,,,,,,,,,flag,166,94,aloud,new,yellow,1072.0936666000634,None,y,1072.0936666000634,None,"['y', 'return']","[1.2486209000926465, 1.4246779000386596]",1072.0936666000634,None,,,99NC,001,2023_Sep_08_1325,ExactRep-v3-final,2021.2.3,60.019794581157036,
,,,,,,,,,,,,94,0,94,0,,,,,,,,,,,,,,,,,,,,,,,,,,,,,,,,,,,,,,,,,,,,,,,,,1076.240746699972,None,,,,,,,,,,,,,,,,,,,,,,,,,,,,,,,,,,,,,,,,,,,,,,,,,,,,,,,,,friend,67,95,silent,old,yellow,1074.0614397001918,None,y,1074.0614397001918,None,"['y', 'return']","[1.9851283999159932, 2.144936699885875]",1074.0614397001918,None,,,99NC,001,2023_Sep_08_1325,ExactRep-v3-final,2021.2.3,60.019794581157036,
,,,,,,,,,,,,95,0,95,0,,,,,,,,,,,,,,,,,,,,,,,,,,,,,,,,,,,,,,,,,,,,,,,,,1078.059128700057,None,,,,,,,,,,,,,,,,,,,,,,,,,,,,,,,,,,,,,,,,,,,,,,,,,,,,,,,,,silence,13,96,sing,old,yellow,1076.7510429001413,None,y,1076.7510429001413,None,"['y', 'return']","[1.0792568000033498, 1.263263300061226]",1076.7510429001413,None,,,99NC,001,2023_Sep_08_1325,ExactRep-v3-final,2021.2.3,60.019794581157036,
,,,,,,,,,,,,96,0,96,0,,,,,,,,,,,,,,,,,,,,,,,,,,,,,,,,,,,,,,,,,,,,,,,,,1080.9120052000508,None,,,,,,,,,,,,,,,,,,,,,,,,,,,,,,,,,,,,,,,,,,,,,,,,,,,,,,,,,student,175,97,sing,new,yellow,1078.5701631000265,None,y,1078.5701631000265,None,"['y', 'return']","[2.1402080000843853, 2.3082495001144707]",1078.5701631000265,None,,,99NC,001,2023_Sep_08_1325,ExactRep-v3-final,2021.2.3,60.019794581157036,
,,,,,,,,,,,,97,0,97,0,,,,,,,,,,,,,,,,,,,,,,,,,,,,,,,,,,,,,,,,,,,,,,,,,1082.5137774001341,None,,,,,,,,,,,,,,,,,,,,,,,,,,,,,,,,,,,,,,,,,,,,,,,,,,,,,,,,,dawn,160,98,aloud,new,yellow,1081.4283853000961,None,n,1081.4283853000961,None,"['n', 'return']","[0.8740290999412537, 1.0501029998995364]",1081.4283853000961,None,,,99NC,001,2023_Sep_08_1325,ExactRep-v3-final,2021.2.3,60.019794581157036,
,,,,,,,,,,,,98,0,98,0,,,,,,,,,,,,,,,,,,,,,,,,,,,,,,,,,,,,,,,,,,,,,,,,,1084.0985018999781,None,,,,,,,,,,,,,,,,,,,,,,,,,,,,,,,,,,,,,,,,,,,,,,,,,,,,,,,,,sea,208,99,aloud,new,yellow,1083.030290500028,None,n,1083.030290500028,None,"['n', 'return']","[0.8719888001214713, 1.0320908001158386]",1083.030290500028,None,,,99NC,001,2023_Sep_08_1325,ExactRep-v3-final,2021.2.3,60.019794581157036,
,,,,,,,,,,,,99,0,99,0,,,,,,,,,,,,,,,,,,,,,,,,,,,,,,,,,,,,,,,,,,,,,,,,,1086.6010620000307,None,,,,,,,,,,,,,,,,,,,,,,,,,,,,,,,,,,,,,,,,,,,,,,,,,,,,,,,,,effort,97,100,aloud,old,yellow,1084.6158783000428,None,y,1084.6158783000428,None,"['y', 'return']","[1.75853389990516, 1.9425536999478936]",1084.6158783000428,None,,,99NC,001,2023_Sep_08_1325,ExactRep-v3-final,2021.2.3,60.019794581157036,
,,,,,,,,,,,,100,0,100,0,,,,,,,,,,,,,,,,,,,,,,,,,,,,,,,,,,,,,,,,,,,,,,,,,1088.2366255000234,None,,,,,,,,,,,,,,,,,,,,,,,,,,,,,,,,,,,,,,,,,,,,,,,,,,,,,,,,,wheat,53,101,silent,old,yellow,1087.10876740003,None,y,1087.10876740003,None,"['y', 'return']","[0.8898429998662323, 1.0815125999506563]",1087.10876740003,None,,,99NC,001,2023_Sep_08_1325,ExactRep-v3-final,2021.2.3,60.019794581157036,
,,,,,,,,,,,,101,0,101,0,,,,,,,,,,,,,,,,,,,,,,,,,,,,,,,,,,,,,,,,,,,,,,,,,1094.5266277999617,None,,,,,,,,,,,,,,,,,,,,,,,,,,,,,,,,,,,,,,,,,,,,,,,,,,,,,,,,,circle,91,102,aloud,old,yellow,1088.7523597001564,None,y,1088.7523597001564,None,"['return', 'return', 'return', 'y', 'return']","[3.629883100045845, 4.189999700058252, 4.750107100000605, 5.45413210010156, 5.726015300024301]",1088.7523597001564,None,,,99NC,001,2023_Sep_08_1325,ExactRep-v3-final,2021.2.3,60.019794581157036,
,,,,,,,,,,,,102,0,102,0,,,,,,,,,,,,,,,,,,,,,,,,,,,,,,,,,,,,,,,,,,,,,,,,,1096.344056500122,None,,,,,,,,,,,,,,,,,,,,,,,,,,,,,,,,,,,,,,,,,,,,,,,,,,,,,,,,,rock,201,103,sing,new,yellow,1095.0579091000836,None,n,1095.0579091000836,None,"['n', 'return']","[1.0124796000309289, 1.252490300219506]",1095.0579091000836,None,,,99NC,001,2023_Sep_08_1325,ExactRep-v3-final,2021.2.3,60.019794581157036,
,,,,,,,,,,,,103,0,103,0,,,,,,,,,,,,,,,,,,,,,,,,,,,,,,,,,,,,,,,,,,,,,,,,,1098.3460203001741,None,,,,,,,,,,,,,,,,,,,,,,,,,,,,,,,,,,,,,,,,,,,,,,,,,,,,,,,,,clock,132,104,silent,new,yellow,1096.8609080000315,None,n,1096.8609080000315,None,"['n', 'return']","[1.2336046998389065, 1.4415192999877036]",1096.8609080000315,None,,,99NC,001,2023_Sep_08_1325,ExactRep-v3-final,2021.2.3,60.019794581157036,
,,,,,,,,,,,,104,0,104,0,,,,,,,,,,,,,,,,,,,,,,,,,,,,,,,,,,,,,,,,,,,,,,,,,1099.9976761001162,None,,,,,,,,,,,,,,,,,,,,,,,,,,,,,,,,,,,,,,,,,,,,,,,,,,,,,,,,,bowl,11,105,sing,old,yellow,1098.851896499982,None,y,1098.851896499982,None,"['y', 'return']","[0.9064523000270128, 1.106559099862352]",1098.851896499982,None,,,99NC,001,2023_Sep_08_1325,ExactRep-v3-final,2021.2.3,60.019794581157036,
,,,,,,,,,,,,105,0,105,0,,,,,,,,,,,,,,,,,,,,,,,,,,,,,,,,,,,,,,,,,,,,,,,,,1101.7508753000293,None,,,,,,,,,,,,,,,,,,,,,,,,,,,,,,,,,,,,,,,,,,,,,,,,,,,,,,,,,meat,54,106,silent,old,yellow,1100.5035795001313,None,y,1100.5035795001313,None,"['y', 'return']","[0.9826495000161231, 1.2067849000450224]",1100.5035795001313,None,,,99NC,001,2023_Sep_08_1325,ExactRep-v3-final,2021.2.3,60.019794581157036,
,,,,,,,,,,,,106,0,106,0,,,,,,,,,,,,,,,,,,,,,,,,,,,,,,,,,,,,,,,,,,,,,,,,,1103.6176977001596,None,,,,,,,,,,,,,,,,,,,,,,,,,,,,,,,,,,,,,,,,,,,,,,,,,,,,,,,,,blossom,55,107,silent,old,yellow,1102.2830221001059,None,y,1102.2830221001059,None,"['y', 'return']","[1.0753532000817358, 1.2913750000298023]",1102.2830221001059,None,,,99NC,001,2023_Sep_08_1325,ExactRep-v3-final,2021.2.3,60.019794581157036,
,,,,,,,,,,,,107,0,107,0,,,,,,,,,,,,,,,,,,,,,,,,,,,,,,,,,,,,,,,,,,,,,,,,,1105.920570800081,None,,,,,,,,,,,,,,,,,,,,,,,,,,,,,,,,,,,,,,,,,,,,,,,,,,,,,,,,,safety,9,108,sing,old,yellow,1104.1256844999734,None,y,1104.1256844999734,None,"['y', 'return']","[1.5606249999254942, 1.7527468998450786]",1104.1256844999734,None,,,99NC,001,2023_Sep_08_1325,ExactRep-v3-final,2021.2.3,60.019794581157036,
,,,,,,,,,,,,108,0,108,0,,,,,,,,,,,,,,,,,,,,,,,,,,,,,,,,,,,,,,,,,,,,,,,,,1108.1559020001441,None,,,,,,,,,,,,,,,,,,,,,,,,,,,,,,,,,,,,,,,,,,,,,,,,,,,,,,,,,lord,44,109,silent,old,yellow,1106.436918700114,None,y,1106.436918700114,None,"['y', 'return']","[1.4973881000187248, 1.6733790999278426]",1106.436918700114,None,,,99NC,001,2023_Sep_08_1325,ExactRep-v3-final,2021.2.3,60.019794581157036,
,,,,,,,,,,,,109,0,109,0,,,,,,,,,,,,,,,,,,,,,,,,,,,,,,,,,,,,,,,,,,,,,,,,,1111.4927968000993,None,,,,,,,,,,,,,,,,,,,,,,,,,,,,,,,,,,,,,,,,,,,,,,,,,,,,,,,,,quality,231,110,sing,new,yellow,1108.6731332000345,None,n,1108.6731332000345,None,"['n', 'return']","[2.58922200021334, 2.773159900214523]",1108.6731332000345,None,,,99NC,001,2023_Sep_08_1325,ExactRep-v3-final,2021.2.3,60.019794581157036,
,,,,,,,,,,,,110,0,110,0,,,,,,,,,,,,,,,,,,,,,,,,,,,,,,,,,,,,,,,,,,,,,,,,,1115.646701300051,None,,,,,,,,,,,,,,,,,,,,,,,,,,,,,,,,,,,,,,,,,,,,,,,,,,,,,,,,,temple,26,111,sing,old,yellow,1112.0128101001028,None,y,1112.0128101001028,None,"['y', 'return']","[3.369600099977106, 3.585550099844113]",1112.0128101001028,None,,,99NC,001,2023_Sep_08_1325,ExactRep-v3-final,2021.2.3,60.019794581157036,
,,,,,,,,,,,,111,0,111,0,,,,,,,,,,,,,,,,,,,,,,,,,,,,,,,,,,,,,,,,,,,,,,,,,1117.1146245000418,None,,,,,,,,,,,,,,,,,,,,,,,,,,,,,,,,,,,,,,,,,,,,,,,,,,,,,,,,,gift,46,112,silent,old,yellow,1116.151818000013,None,n,1116.151818000013,None,"['n', 'return']","[0.7505878999363631, 0.9265624999534339]",1116.151818000013,None,,,99NC,001,2023_Sep_08_1325,ExactRep-v3-final,2021.2.3,60.019794581157036,
,,,,,,,,,,,,112,0,112,0,,,,,,,,,,,,,,,,,,,,,,,,,,,,,,,,,,,,,,,,,,,,,,,,,1119.2679499001242,None,,,,,,,,,,,,,,,,,,,,,,,,,,,,,,,,,,,,,,,,,,,,,,,,,,,,,,,,,book,178,113,aloud,new,yellow,1117.6320964000188,None,y,1117.6320964000188,None,"['y', 'return']","[1.422178199980408, 1.5984765999019146]",1117.6320964000188,None,,,99NC,001,2023_Sep_08_1325,ExactRep-v3-final,2021.2.3,60.019794581157036,
,,,,,,,,,,,,113,0,113,0,,,,,,,,,,,,,,,,,,,,,,,,,,,,,,,,,,,,,,,,,,,,,,,,,1120.868778700009,None,,,,,,,,,,,,,,,,,,,,,,,,,,,,,,,,,,,,,,,,,,,,,,,,,,,,,,,,,science,61,114,silent,old,yellow,1119.7847743001767,None,y,1119.7847743001767,None,"['y', 'return']","[0.8616406999062747, 1.0455268998630345]",1119.7847743001767,None,,,99NC,001,2023_Sep_08_1325,ExactRep-v3-final,2021.2.3,60.019794581157036,
,,,,,,,,,,,,114,0,114,0,,,,,,,,,,,,,,,,,,,,,,,,,,,,,,,,,,,,,,,,,,,,,,,,,1124.0558347001206,None,,,,,,,,,,,,,,,,,,,,,,,,,,,,,,,,,,,,,,,,,,,,,,,,,,,,,,,,,journal,224,115,aloud,new,yellow,1121.3746347001288,None,n,1121.3746347001288,None,"['n', 'return']","[2.375632399925962, 2.631703299935907]",1121.3746347001288,None,,,99NC,001,2023_Sep_08_1325,ExactRep-v3-final,2021.2.3,60.019794581157036,
,,,,,,,,,,,,115,0,115,0,,,,,,,,,,,,,,,,,,,,,,,,,,,,,,,,,,,,,,,,,,,,,,,,,1126.4740943000652,None,,,,,,,,,,,,,,,,,,,,,,,,,,,,,,,,,,,,,,,,,,,,,,,,,,,,,,,,,custom,164,116,aloud,new,yellow,1124.5820419001393,None,n,1124.5820419001393,None,"['n', 'return']","[1.1045570999849588, 1.8565088999457657]",1124.5820419001393,None,,,99NC,001,2023_Sep_08_1325,ExactRep-v3-final,2021.2.3,60.019794581157036,
,,,,,,,,,,,,116,0,116,0,,,,,,,,,,,,,,,,,,,,,,,,,,,,,,,,,,,,,,,,,,,,,,,,,1128.1932211001404,None,,,,,,,,,,,,,,,,,,,,,,,,,,,,,,,,,,,,,,,,,,,,,,,,,,,,,,,,,cotton,196,117,aloud,new,yellow,1126.9752899000887,None,y,1126.9752899000887,None,"['y', 'return']","[0.983195599867031, 1.175241299904883]",1126.9752899000887,None,,,99NC,001,2023_Sep_08_1325,ExactRep-v3-final,2021.2.3,60.019794581157036,
,,,,,,,,,,,,117,0,117,0,,,,,,,,,,,,,,,,,,,,,,,,,,,,,,,,,,,,,,,,,,,,,,,,,1130.928520699963,None,,,,,,,,,,,,,,,,,,,,,,,,,,,,,,,,,,,,,,,,,,,,,,,,,,,,,,,,,disease,115,118,aloud,old,yellow,1128.714467999991,None,y,1128.714467999991,None,"['y', 'return']","[1.5718638999387622, 2.171866900054738]",1128.714467999991,None,,,99NC,001,2023_Sep_08_1325,ExactRep-v3-final,2021.2.3,60.019794581157036,
,,,,,,,,,,,,118,0,118,0,,,,,,,,,,,,,,,,,,,,,,,,,,,,,,,,,,,,,,,,,,,,,,,,,1132.8140420001,None,,,,,,,,,,,,,,,,,,,,,,,,,,,,,,,,,,,,,,,,,,,,,,,,,,,,,,,,,hotel,168,119,aloud,new,yellow,1131.4299933000002,None,n,1131.4299933000002,None,"['n', 'return']","[1.136368899838999, 1.3444342999719083]",1131.4299933000002,None,,,99NC,001,2023_Sep_08_1325,ExactRep-v3-final,2021.2.3,60.019794581157036,
,,,,,,,,,,,,119,0,119,0,,,,,,,,,,,,,,,,,,,,,,,,,,,,,,,,,,,,,,,,,,,,,,,,,1135.633607600117,None,,,,,,,,,,,,,,,,,,,,,,,,,,,,,,,,,,,,,,,,,,,,,,,,,,,,,,,,,coffee,193,120,sing,new,yellow,1133.331353200134,None,y,1133.331353200134,None,"['y', 'return']","[2.083129599923268, 2.259014799958095]",1133.331353200134,None,,,99NC,001,2023_Sep_08_1325,ExactRep-v3-final,2021.2.3,60.019794581157036,
,,,,,,,,,,,,120,0,120,0,,,,,,,,,,,,,,,,,,,,,,,,,,,,,,,,,,,,,,,,,,,,,,,,,1137.5016585001722,None,,,,,,,,,,,,,,,,,,,,,,,,,,,,,,,,,,,,,,,,,,,,,,,,,,,,,,,,,pupil,79,121,sing,old,yellow,1136.150941299973,None,y,1136.150941299973,None,"['y', 'return']","[1.0957472999580204, 1.3034471001010388]",1136.150941299973,None,,,99NC,001,2023_Sep_08_1325,ExactRep-v3-final,2021.2.3,60.019794581157036,
,,,,,,,,,,,,121,0,121,0,,,,,,,,,,,,,,,,,,,,,,,,,,,,,,,,,,,,,,,,,,,,,,,,,1139.3209332001861,None,,,,,,,,,,,,,,,,,,,,,,,,,,,,,,,,,,,,,,,,,,,,,,,,,,,,,,,,,cattle,107,122,aloud,old,yellow,1138.0112030999735,None,y,1138.0112030999735,None,"['y', 'return']","[1.0831835998687893, 1.2751261999364942]",1138.0112030999735,None,,,99NC,001,2023_Sep_08_1325,ExactRep-v3-final,2021.2.3,60.019794581157036,
,,,,,,,,,,,,122,0,122,0,,,,,,,,,,,,,,,,,,,,,,,,,,,,,,,,,,,,,,,,,,,,,,,,,1141.5056636000518,None,,,,,,,,,,,,,,,,,,,,,,,,,,,,,,,,,,,,,,,,,,,,,,,,,,,,,,,,,window,170,123,aloud,new,yellow,1139.8365297000855,None,y,1139.8365297000855,None,"['y', 'return']","[1.4737408000510186, 1.6259188998956233]",1139.8365297000855,None,,,99NC,001,2023_Sep_08_1325,ExactRep-v3-final,2021.2.3,60.019794581157036,
,,,,,,,,,,,,123,0,123,0,,,,,,,,,,,,,,,,,,,,,,,,,,,,,,,,,,,,,,,,,,,,,,,,,1144.0739276001696,None,,,,,,,,,,,,,,,,,,,,,,,,,,,,,,,,,,,,,,,,,,,,,,,,,,,,,,,,,shoes,102,124,aloud,old,yellow,1142.0081601000857,None,y,1142.0081601000857,None,"['y', 'return']","[1.5421362998895347, 2.030389699852094]",1142.0081601000857,None,,,99NC,001,2023_Sep_08_1325,ExactRep-v3-final,2021.2.3,60.019794581157036,
,,,,,,,,,,,,124,0,124,0,,,,,,,,,,,,,,,,,,,,,,,,,,,,,,,,,,,,,,,,,,,,,,,,,1146.0604811999947,None,,,,,,,,,,,,,,,,,,,,,,,,,,,,,,,,,,,,,,,,,,,,,,,,,,,,,,,,,prison,180,125,aloud,new,yellow,1144.5927707001101,None,n,1144.5927707001101,None,"['n', 'return']","[1.245616399915889, 1.429530099965632]",1144.5927707001101,None,,,99NC,001,2023_Sep_08_1325,ExactRep-v3-final,2021.2.3,60.019794581157036,
,,,,,,,,,,,,125,0,125,0,,,,,,,,,,,,,,,,,,,,,,,,,,,,,,,,,,,,,,,,,,,,,,,,,1150.9986548000015,None,,,,,,,,,,,,,,,,,,,,,,,,,,,,,,,,,,,,,,,,,,,,,,,,,,,,,,,,,murder,105,126,aloud,old,yellow,1146.584364200011,None,y,1146.584364200011,None,"['return', 'y', 'return']","[3.630028899991885, 4.029993599979207, 4.366002300055698]",1146.584364200011,None,,,99NC,001,2023_Sep_08_1325,ExactRep-v3-final,2021.2.3,60.019794581157036,
,,,,,,,,,,,,126,0,126,0,,,,,,,,,,,,,,,,,,,,,,,,,,,,,,,,,,,,,,,,,,,,,,,,,1152.7327994999941,None,,,,,,,,,,,,,,,,,,,,,,,,,,,,,,,,,,,,,,,,,,,,,,,,,,,,,,,,,trouble,126,127,silent,new,yellow,1151.5063855000772,None,n,1151.5063855000772,None,"['n', 'return']","[0.9798226999118924, 1.1798582000192255]",1151.5063855000772,None,,,99NC,001,2023_Sep_08_1325,ExactRep-v3-final,2021.2.3,60.019794581157036,
,,,,,,,,,,,,127,0,127,0,,,,,,,,,,,,,,,,,,,,,,,,,,,,,,,,,,,,,,,,,,,,,,,,,1154.4355685000774,None,,,,,,,,,,,,,,,,,,,,,,,,,,,,,,,,,,,,,,,,,,,,,,,,,,,,,,,,,life,0,128,sing,old,yellow,1153.2346287001856,None,y,1153.2346287001856,None,"['y', 'return']","[0.9716249001212418, 1.1557805000338703]",1153.2346287001856,None,,,99NC,001,2023_Sep_08_1325,ExactRep-v3-final,2021.2.3,60.019794581157036,
,,,,,,,,,,,,128,0,128,0,,,,,,,,,,,,,,,,,,,,,,,,,,,,,,,,,,,,,,,,,,,,,,,,,1157.0211694999598,None,,,,,,,,,,,,,,,,,,,,,,,,,,,,,,,,,,,,,,,,,,,,,,,,,,,,,,,,,grief,139,129,silent,new,yellow,1154.9674146000762,None,n,1154.9674146000762,None,"['n', 'return']","[1.110888599883765, 2.014998799888417]",1154.9674146000762,None,,,99NC,001,2023_Sep_08_1325,ExactRep-v3-final,2021.2.3,60.019794581157036,
,,,,,,,,,,,,129,0,129,0,,,,,,,,,,,,,,,,,,,,,,,,,,,,,,,,,,,,,,,,,,,,,,,,,1160.408028600039,None,,,,,,,,,,,,,,,,,,,,,,,,,,,,,,,,,,,,,,,,,,,,,,,,,,,,,,,,,pride,122,130,silent,new,yellow,1157.5221077001188,None,y,1157.5221077001188,None,"['y', 'return']","[2.6602438997942954, 2.852274299832061]",1157.5221077001188,None,,,99NC,001,2023_Sep_08_1325,ExactRep-v3-final,2021.2.3,60.019794581157036,
