trials_fam.thisRepN,trials_fam.thisTrialN,trials_fam.thisN,trials_fam.thisIndex,trials_prc.thisRepN,trials_prc.thisTrialN,trials_prc.thisN,trials_prc.thisIndex,StudyLoop.thisRepN,StudyLoop.thisTrialN,StudyLoop.thisN,StudyLoop.thisIndex,TestLoop.thisRepN,TestLoop.thisTrialN,TestLoop.thisN,TestLoop.thisIndex,text_colortest.started,text_colortest.stopped,key_colortest.keys,key_colortest.rt,key_colortest.started,key_colortest.stopped,textCondition.started,textCondition.stopped,keyCondition.keys,keyCondition.rt,keyCondition.started,keyCondition.stopped,Condition_between,Condition_counterbal,keyWelcome.keys,keyWelcome.rt,keyWelcome.started,keyWelcome.stopped,welcome_a.started,welcome_a.stopped,welcome_b.started,welcome_b.stopped,welcome_c.started,welcome_c.stopped,welcome_d.started,welcome_d.stopped,welcome_e.started,welcome_e.stopped,welcome_f.started,welcome_f.stopped,key_resp_fam_inst.keys,key_resp_fam_inst.rt,key_resp_fam_inst.started,key_resp_fam_inst.stopped,fam_a.started,fam_a.stopped,fam_b.started,fam_b.stopped,fam_c.started,fam_c.stopped,fam_d.started,fam_d.stopped,fam_e.started,fam_e.stopped,fam_f.started,fam_f.stopped,text_famil.started,text_famil.stopped,textBlank500.started,textBlank500.stopped,key_resp_prc_inst.keys,key_resp_prc_inst.rt,key_resp_prc_inst.started,key_resp_prc_inst.stopped,prac_a.started,prac_a.stopped,prac_b.started,prac_b.stopped,prac_c.started,prac_c.stopped,prac_d.started,prac_d.stopped,prac_e.started,prac_e.stopped,prac_f.started,prac_f.stopped,text_prc_trial.started,text_prc_trial.stopped,key_resp_study_inst.keys,key_resp_study_inst.rt,key_resp_study_inst.started,key_resp_study_inst.stopped,crit_a.started,crit_a.stopped,crit_b.started,crit_b.stopped,crit_c.started,crit_c.stopped,crit_d.started,crit_d.stopped,crit_e.started,crit_e.stopped,crit_f.started,crit_f.stopped,study_word,study_num,study_order,study_type,word_color,textStudy.started,textStudy.stopped,keyStudy.keys,keyStudy.started,keyStudy.stopped,post_study.started,post_study.stopped,key_resp_post_study.keys,key_resp_post_study.rt,key_resp_post_study.started,key_resp_post_study.stopped,test_inst.started,test_inst.stopped,key_resp_test_inst.keys,key_resp_test_inst.rt,key_resp_test_inst.started,key_resp_test_inst.stopped,test_word,test_num,test_order,test_condition,old_new_test,word_color_test,textConf.started,textConf.stopped,Participant Response,textInput.started,textInput.stopped,keyResp.keys,keyResp.rt,keyResp.started,keyResp.stopped,textEnd.started,textEnd.stopped,participant,session,date,expName,psychopyVersion,frameRate,
,,,,,,,,,,,,,,,,32.782406399957836,None,n,0.6678488999605179,32.782406399957836,None,,,,,,,,,,,,,,,,,,,,,,,,,,,,,,,,,,,,,,,,,,,,,,,,,,,,,,,,,,,,,,,,,,,,,,,,,,,,,,,,,,,,,,,,,,,,,,,,,,,,,,,,,,,,,,,,,,,,,,9,001,2023_Feb_06_1248,ExactRep-v3-final,2021.2.3,59.93385693837937,
,,,,,,,,,,,,,,,,,,,,,,33.47093579987995,None,c,1.2031566998921335,33.47093579987995,None,,,,,,,,,,,,,,,,,,,,,,,,,,,,,,,,,,,,,,,,,,,,,,,,,,,,,,,,,,,,,,,,,,,,,,,,,,,,,,,,,,,,,,,,,,,,,,,,,,,,,,,,,,,,,,,,9,001,2023_Feb_06_1248,ExactRep-v3-final,2021.2.3,59.93385693837937,
,,,,,,,,,,,,,,,,,,,,,,,,,,,,whitefoils,c,space,238.7240138000343,44.8062868998386,None,,,,,,,,,,,,,,,,,,,,,,,,,,,,,,,,,,,,,,,,,,,,,,,,,,,,,,,,,,,,,,,,,,,,,,,,,,,,,,,,,,,,,,,,,,,,,,,,,,,,,,,,,,9,001,2023_Feb_06_1248,ExactRep-v3-final,2021.2.3,59.93385693837937,
,,,,,,,,,,,,,,,,,,,,,,,,,,,,,,,,,,34.863880099961534,None,34.863880099961534,None,34.863880099961534,None,34.863880099961534,None,34.863880099961534,None,34.863880099961534,None,space,15.201244000112638,293.6888100998476,None,,,,,,,,,,,,,,,,,,,,,,,,,,,,,,,,,,,,,,,,,,,,,,,,,,,,,,,,,,,,,,,,,,,,,,,,,,,,,,,,,,,,,,,,,,9,001,2023_Feb_06_1248,ExactRep-v3-final,2021.2.3,59.93385693837937,
0,0,0,0,,,,,,,,,,,,,,,,,,,,,,,,,,,,,,,,,,,,,,,,,,,,,,,283.6945121998433,None,283.6945121998433,None,283.6945121998433,None,283.6945121998433,None,283.6945121998433,None,283.6945121998433,None,309.020266499836,None,311.0147251000162,None,,,,,,,,,,,,,,,,,,,,,,,,,,,,,,,,,,,,,,,,,,,,,,,,,,,,,,,,,,,,,,,,,,,,,,,,,,9,001,2023_Feb_06_1248,ExactRep-v3-final,2021.2.3,59.93385693837937,
1,0,1,0,,,,,,,,,,,,,,,,,,,,,,,,,,,,,,,,,,,,,,,,,,,,,,,,,,,,,,,,,,,311.5300296000205,None,313.5340070000384,None,,,,,,,,,,,,,,,,,,,,,,,,,,,,,,,,,,,,,,,,,,,,,,,,,,,,,,,,,,,,,,,,,,,,,,,,,,9,001,2023_Feb_06_1248,ExactRep-v3-final,2021.2.3,59.93385693837937,
2,0,2,0,,,,,,,,,,,,,,,,,,,,,,,,,,,,,,,,,,,,,,,,,,,,,,,,,,,,,,,,,,,314.0465438000392,None,316.05314039997756,None,,,,,,,,,,,,,,,,,,,,,,,,,,,,,,,,,,,,,,,,,,,,,,,,,,,,,,,,,,,,,,,,,,,,,,,,,,9,001,2023_Feb_06_1248,ExactRep-v3-final,2021.2.3,59.93385693837937,
3,0,3,0,,,,,,,,,,,,,,,,,,,,,,,,,,,,,,,,,,,,,,,,,,,,,,,,,,,,,,,,,,,316.553322999971,None,318.5556623998564,None,,,,,,,,,,,,,,,,,,,,,,,,,,,,,,,,,,,,,,,,,,,,,,,,,,,,,,,,,,,,,,,,,,,,,,,,,,9,001,2023_Feb_06_1248,ExactRep-v3-final,2021.2.3,59.93385693837937,
4,0,4,0,,,,,,,,,,,,,,,,,,,,,,,,,,,,,,,,,,,,,,,,,,,,,,,,,,,,,,,,,,,319.0561360998545,None,321.057982099941,None,,,,,,,,,,,,,,,,,,,,,,,,,,,,,,,,,,,,,,,,,,,,,,,,,,,,,,,,,,,,,,,,,,,,,,,,,,9,001,2023_Feb_06_1248,ExactRep-v3-final,2021.2.3,59.93385693837937,
5,0,5,0,,,,,,,,,,,,,,,,,,,,,,,,,,,,,,,,,,,,,,,,,,,,,,,,,,,,,,,,,,,321.5604572999291,None,323.56078319996595,None,,,,,,,,,,,,,,,,,,,,,,,,,,,,,,,,,,,,,,,,,,,,,,,,,,,,,,,,,,,,,,,,,,,,,,,,,,9,001,2023_Feb_06_1248,ExactRep-v3-final,2021.2.3,59.93385693837937,
6,0,6,0,,,,,,,,,,,,,,,,,,,,,,,,,,,,,,,,,,,,,,,,,,,,,,,,,,,,,,,,,,,324.06274259998463,None,326.06279270001687,None,,,,,,,,,,,,,,,,,,,,,,,,,,,,,,,,,,,,,,,,,,,,,,,,,,,,,,,,,,,,,,,,,,,,,,,,,,9,001,2023_Feb_06_1248,ExactRep-v3-final,2021.2.3,59.93385693837937,
7,0,7,0,,,,,,,,,,,,,,,,,,,,,,,,,,,,,,,,,,,,,,,,,,,,,,,,,,,,,,,,,,,326.56516809994355,None,328.5654939999804,None,,,,,,,,,,,,,,,,,,,,,,,,,,,,,,,,,,,,,,,,,,,,,,,,,,,,,,,,,,,,,,,,,,,,,,,,,,9,001,2023_Feb_06_1248,ExactRep-v3-final,2021.2.3,59.93385693837937,
8,0,8,0,,,,,,,,,,,,,,,,,,,,,,,,,,,,,,,,,,,,,,,,,,,,,,,,,,,,,,,,,,,329.0679933000356,None,331.0679520999547,None,,,,,,,,,,,,,,,,,,,,,,,,,,,,,,,,,,,,,,,,,,,,,,,,,,,,,,,,,,,,,,,,,,,,,,,,,,9,001,2023_Feb_06_1248,ExactRep-v3-final,2021.2.3,59.93385693837937,
9,0,9,0,,,,,,,,,,,,,,,,,,,,,,,,,,,,,,,,,,,,,,,,,,,,,,,,,,,,,,,,,,,331.5688746999949,None,333.5706886998378,None,,,,,,,,,,,,,,,,,,,,,,,,,,,,,,,,,,,,,,,,,,,,,,,,,,,,,,,,,,,,,,,,,,,,,,,,,,9,001,2023_Feb_06_1248,ExactRep-v3-final,2021.2.3,59.93385693837937,
10,0,10,0,,,,,,,,,,,,,,,,,,,,,,,,,,,,,,,,,,,,,,,,,,,,,,,,,,,,,,,,,,,334.07142019993626,None,336.07325639994815,None,,,,,,,,,,,,,,,,,,,,,,,,,,,,,,,,,,,,,,,,,,,,,,,,,,,,,,,,,,,,,,,,,,,,,,,,,,9,001,2023_Feb_06_1248,ExactRep-v3-final,2021.2.3,59.93385693837937,
11,0,11,0,,,,,,,,,,,,,,,,,,,,,,,,,,,,,,,,,,,,,,,,,,,,,,,,,,,,,,,,,,,336.5741204000078,None,338.57582170004025,None,,,,,,,,,,,,,,,,,,,,,,,,,,,,,,,,,,,,,,,,,,,,,,,,,,,,,,,,,,,,,,,,,,,,,,,,,,9,001,2023_Feb_06_1248,ExactRep-v3-final,2021.2.3,59.93385693837937,
12,0,12,0,,,,,,,,,,,,,,,,,,,,,,,,,,,,,,,,,,,,,,,,,,,,,,,,,,,,,,,,,,,339.0761744999327,None,341.07820790004916,None,,,,,,,,,,,,,,,,,,,,,,,,,,,,,,,,,,,,,,,,,,,,,,,,,,,,,,,,,,,,,,,,,,,,,,,,,,9,001,2023_Feb_06_1248,ExactRep-v3-final,2021.2.3,59.93385693837937,
13,0,13,0,,,,,,,,,,,,,,,,,,,,,,,,,,,,,,,,,,,,,,,,,,,,,,,,,,,,,,,,,,,341.5817742999643,None,343.5973596998956,None,,,,,,,,,,,,,,,,,,,,,,,,,,,,,,,,,,,,,,,,,,,,,,,,,,,,,,,,,,,,,,,,,,,,,,,,,,9,001,2023_Feb_06_1248,ExactRep-v3-final,2021.2.3,59.93385693837937,
14,0,14,0,,,,,,,,,,,,,,,,,,,,,,,,,,,,,,,,,,,,,,,,,,,,,,,,,,,,,,,,,,,344.1038607999217,None,346.1166790998541,None,,,,,,,,,,,,,,,,,,,,,,,,,,,,,,,,,,,,,,,,,,,,,,,,,,,,,,,,,,,,,,,,,,,,,,,,,,9,001,2023_Feb_06_1248,ExactRep-v3-final,2021.2.3,59.93385693837937,
,,,,,,,,,,,,,,,,,,,,,,,,,,,,,,,,,,,,,,,,,,,,,,,,,,,,,,,,,,,,,,,,,,space,34.12894230009988,356.713142799912,None,,,,,,,,,,,,,,,,,,,,,,,,,,,,,,,,,,,,,,,,,,,,,,,,,,,,,,,,,,,,,,,,,,,,,,9,001,2023_Feb_06_1248,ExactRep-v3-final,2021.2.3,59.93385693837937,
,,,,0,0,0,0,,,,,,,,,,,,,,,,,,,,,,,,,,,,,,,,,,,,,,,,,,,,,,,,,,,,,,,,,392.9464246998541,None,,,,,346.76158949988894,None,346.76158949988894,None,346.76158949988894,None,346.76158949988894,None,346.76158949988894,None,346.76158949988894,None,390.9334334998857,None,,,,,,,,,,,,,,,,,,,,,,,,,,,,,,,,,,,,,,,,,,,,,,,,,,,,,,,,9,001,2023_Feb_06_1248,ExactRep-v3-final,2021.2.3,59.93385693837937,
,,,,1,0,1,0,,,,,,,,,,,,,,,,,,,,,,,,,,,,,,,,,,,,,,,,,,,,,,,,,,,,,,,,,395.44914179993793,None,,,,,,,,,,,,,,,,,393.44718159991316,None,,,,,,,,,,,,,,,,,,,,,,,,,,,,,,,,,,,,,,,,,,,,,,,,,,,,,,,,9,001,2023_Feb_06_1248,ExactRep-v3-final,2021.2.3,59.93385693837937,
,,,,2,0,2,0,,,,,,,,,,,,,,,,,,,,,,,,,,,,,,,,,,,,,,,,,,,,,,,,,,,,,,,,,397.9517709999345,None,,,,,,,,,,,,,,,,,395.94968459988013,None,,,,,,,,,,,,,,,,,,,,,,,,,,,,,,,,,,,,,,,,,,,,,,,,,,,,,,,,9,001,2023_Feb_06_1248,ExactRep-v3-final,2021.2.3,59.93385693837937,
,,,,3,0,3,0,,,,,,,,,,,,,,,,,,,,,,,,,,,,,,,,,,,,,,,,,,,,,,,,,,,,,,,,,400.45424210000783,None,,,,,,,,,,,,,,,,,398.4519066000357,None,,,,,,,,,,,,,,,,,,,,,,,,,,,,,,,,,,,,,,,,,,,,,,,,,,,,,,,,9,001,2023_Feb_06_1248,ExactRep-v3-final,2021.2.3,59.93385693837937,
,,,,4,0,4,0,,,,,,,,,,,,,,,,,,,,,,,,,,,,,,,,,,,,,,,,,,,,,,,,,,,,,,,,,402.95647430000827,None,,,,,,,,,,,,,,,,,400.9546498998534,None,,,,,,,,,,,,,,,,,,,,,,,,,,,,,,,,,,,,,,,,,,,,,,,,,,,,,,,,9,001,2023_Feb_06_1248,ExactRep-v3-final,2021.2.3,59.93385693837937,
,,,,5,0,5,0,,,,,,,,,,,,,,,,,,,,,,,,,,,,,,,,,,,,,,,,,,,,,,,,,,,,,,,,,405.4591808000114,None,,,,,,,,,,,,,,,,,403.45728700002655,None,,,,,,,,,,,,,,,,,,,,,,,,,,,,,,,,,,,,,,,,,,,,,,,,,,,,,,,,9,001,2023_Feb_06_1248,ExactRep-v3-final,2021.2.3,59.93385693837937,
,,,,6,0,6,0,,,,,,,,,,,,,,,,,,,,,,,,,,,,,,,,,,,,,,,,,,,,,,,,,,,,,,,,,407.9614472000394,None,,,,,,,,,,,,,,,,,405.95938059990294,None,,,,,,,,,,,,,,,,,,,,,,,,,,,,,,,,,,,,,,,,,,,,,,,,,,,,,,,,9,001,2023_Feb_06_1248,ExactRep-v3-final,2021.2.3,59.93385693837937,
,,,,7,0,7,0,,,,,,,,,,,,,,,,,,,,,,,,,,,,,,,,,,,,,,,,,,,,,,,,,,,,,,,,,410.4640809998382,None,,,,,,,,,,,,,,,,,408.4623004999012,None,,,,,,,,,,,,,,,,,,,,,,,,,,,,,,,,,,,,,,,,,,,,,,,,,,,,,,,,9,001,2023_Feb_06_1248,ExactRep-v3-final,2021.2.3,59.93385693837937,
,,,,8,0,8,0,,,,,,,,,,,,,,,,,,,,,,,,,,,,,,,,,,,,,,,,,,,,,,,,,,,,,,,,,412.96661609993316,None,,,,,,,,,,,,,,,,,410.9647838999517,None,,,,,,,,,,,,,,,,,,,,,,,,,,,,,,,,,,,,,,,,,,,,,,,,,,,,,,,,9,001,2023_Feb_06_1248,ExactRep-v3-final,2021.2.3,59.93385693837937,
,,,,9,0,9,0,,,,,,,,,,,,,,,,,,,,,,,,,,,,,,,,,,,,,,,,,,,,,,,,,,,,,,,,,415.4691021000035,None,,,,,,,,,,,,,,,,,413.4671515999362,None,,,,,,,,,,,,,,,,,,,,,,,,,,,,,,,,,,,,,,,,,,,,,,,,,,,,,,,,9,001,2023_Feb_06_1248,ExactRep-v3-final,2021.2.3,59.93385693837937,
,,,,10,0,10,0,,,,,,,,,,,,,,,,,,,,,,,,,,,,,,,,,,,,,,,,,,,,,,,,,,,,,,,,,417.97174789989367,None,,,,,,,,,,,,,,,,,415.9696525000036,None,,,,,,,,,,,,,,,,,,,,,,,,,,,,,,,,,,,,,,,,,,,,,,,,,,,,,,,,9,001,2023_Feb_06_1248,ExactRep-v3-final,2021.2.3,59.93385693837937,
,,,,11,0,11,0,,,,,,,,,,,,,,,,,,,,,,,,,,,,,,,,,,,,,,,,,,,,,,,,,,,,,,,,,420.4741984999273,None,,,,,,,,,,,,,,,,,418.47217949992046,None,,,,,,,,,,,,,,,,,,,,,,,,,,,,,,,,,,,,,,,,,,,,,,,,,,,,,,,,9,001,2023_Feb_06_1248,ExactRep-v3-final,2021.2.3,59.93385693837937,
,,,,12,0,12,0,,,,,,,,,,,,,,,,,,,,,,,,,,,,,,,,,,,,,,,,,,,,,,,,,,,,,,,,,422.97667569993064,None,,,,,,,,,,,,,,,,,420.97485690005124,None,,,,,,,,,,,,,,,,,,,,,,,,,,,,,,,,,,,,,,,,,,,,,,,,,,,,,,,,9,001,2023_Feb_06_1248,ExactRep-v3-final,2021.2.3,59.93385693837937,
,,,,13,0,13,0,,,,,,,,,,,,,,,,,,,,,,,,,,,,,,,,,,,,,,,,,,,,,,,,,,,,,,,,,425.4792213998735,None,,,,,,,,,,,,,,,,,423.47701169992797,None,,,,,,,,,,,,,,,,,,,,,,,,,,,,,,,,,,,,,,,,,,,,,,,,,,,,,,,,9,001,2023_Feb_06_1248,ExactRep-v3-final,2021.2.3,59.93385693837937,
,,,,14,0,14,0,,,,,,,,,,,,,,,,,,,,,,,,,,,,,,,,,,,,,,,,,,,,,,,,,,,,,,,,,427.9816521999892,None,,,,,,,,,,,,,,,,,425.9796722000465,None,,,,,,,,,,,,,,,,,,,,,,,,,,,,,,,,,,,,,,,,,,,,,,,,,,,,,,,,9,001,2023_Feb_06_1248,ExactRep-v3-final,2021.2.3,59.93385693837937,
,,,,,,,,,,,,,,,,,,,,,,,,,,,,,,,,,,,,,,,,,,,,,,,,,,,,,,,,,,,,,,,,,,,,,,,,,,,,,,,,,,,,space,31.039446600014344,438.60266939993016,None,,,,,,,,,,,,,,,,,,,,,,,,,,,,,,,,,,,,,,,,,,,,,,,,,,,,9,001,2023_Feb_06_1248,ExactRep-v3-final,2021.2.3,59.93385693837937,
,,,,,,,,0,0,0,0,,,,,,,,,,,,,,,,,,,,,,,,,,,,,,,,,,,,,,,,,,,,,,,,,,,,,471.7751494999975,None,,,,,,,,,,,,,,,,,,,,,,,428.6492456998676,None,428.6492456998676,None,428.6492456998676,None,428.6492456998676,None,428.6492456998676,None,428.6492456998676,None,dream,88,1,aloud,blue,469.770871500019,None,None,469.770871500019,None,,,,,,,,,,,,,,,,,,,,,,,,,,,,,,9,001,2023_Feb_06_1248,ExactRep-v3-final,2021.2.3,59.93385693837937,
,,,,,,,,1,0,1,0,,,,,,,,,,,,,,,,,,,,,,,,,,,,,,,,,,,,,,,,,,,,,,,,,,,,,474.2778743999079,None,,,,,,,,,,,,,,,,,,,,,,,,,,,,,,,,,,,dawn,89,2,aloud,blue,472.276944299927,None,None,472.276944299927,None,,,,,,,,,,,,,,,,,,,,,,,,,,,,,,9,001,2023_Feb_06_1248,ExactRep-v3-final,2021.2.3,59.93385693837937,
,,,,,,,,2,0,2,0,,,,,,,,,,,,,,,,,,,,,,,,,,,,,,,,,,,,,,,,,,,,,,,,,,,,,476.7804217999801,None,,,,,,,,,,,,,,,,,,,,,,,,,,,,,,,,,,,apple,97,3,aloud,blue,474.780605699867,None,None,474.780605699867,None,,,,,,,,,,,,,,,,,,,,,,,,,,,,,,9,001,2023_Feb_06_1248,ExactRep-v3-final,2021.2.3,59.93385693837937,
,,,,,,,,3,0,3,0,,,,,,,,,,,,,,,,,,,,,,,,,,,,,,,,,,,,,,,,,,,,,,,,,,,,,479.29963829996996,None,,,,,,,,,,,,,,,,,,,,,,,,,,,,,,,,,,,cabin,40,4,silent,red,477.29078909987584,None,None,477.29078909987584,None,,,,,,,,,,,,,,,,,,,,,,,,,,,,,,9,001,2023_Feb_06_1248,ExactRep-v3-final,2021.2.3,59.93385693837937,
,,,,,,,,4,0,4,0,,,,,,,,,,,,,,,,,,,,,,,,,,,,,,,,,,,,,,,,,,,,,,,,,,,,,481.8021040998865,None,,,,,,,,,,,,,,,,,,,,,,,,,,,,,,,,,,,kiss,30,5,sing,white,479.80294039985165,None,None,479.80294039985165,None,,,,,,,,,,,,,,,,,,,,,,,,,,,,,,9,001,2023_Feb_06_1248,ExactRep-v3-final,2021.2.3,59.93385693837937,
,,,,,,,,5,0,5,0,,,,,,,,,,,,,,,,,,,,,,,,,,,,,,,,,,,,,,,,,,,,,,,,,,,,,484.30432949983515,None,,,,,,,,,,,,,,,,,,,,,,,,,,,,,,,,,,,owner,34,6,sing,white,482.3040587999858,None,None,482.3040587999858,None,,,,,,,,,,,,,,,,,,,,,,,,,,,,,,9,001,2023_Feb_06_1248,ExactRep-v3-final,2021.2.3,59.93385693837937,
,,,,,,,,6,0,6,0,,,,,,,,,,,,,,,,,,,,,,,,,,,,,,,,,,,,,,,,,,,,,,,,,,,,,486.8237079998944,None,,,,,,,,,,,,,,,,,,,,,,,,,,,,,,,,,,,corner,8,7,sing,white,484.81121760001406,None,None,484.81121760001406,None,,,,,,,,,,,,,,,,,,,,,,,,,,,,,,9,001,2023_Feb_06_1248,ExactRep-v3-final,2021.2.3,59.93385693837937,
,,,,,,,,7,0,7,0,,,,,,,,,,,,,,,,,,,,,,,,,,,,,,,,,,,,,,,,,,,,,,,,,,,,,489.32630289997905,None,,,,,,,,,,,,,,,,,,,,,,,,,,,,,,,,,,,wine,101,8,aloud,blue,487.32423099991865,None,None,487.32423099991865,None,,,,,,,,,,,,,,,,,,,,,,,,,,,,,,9,001,2023_Feb_06_1248,ExactRep-v3-final,2021.2.3,59.93385693837937,
,,,,,,,,8,0,8,0,,,,,,,,,,,,,,,,,,,,,,,,,,,,,,,,,,,,,,,,,,,,,,,,,,,,,491.82871939986944,None,,,,,,,,,,,,,,,,,,,,,,,,,,,,,,,,,,,lake,109,9,aloud,blue,489.8271552999504,None,None,489.8271552999504,None,,,,,,,,,,,,,,,,,,,,,,,,,,,,,,9,001,2023_Feb_06_1248,ExactRep-v3-final,2021.2.3,59.93385693837937,
,,,,,,,,9,0,9,0,,,,,,,,,,,,,,,,,,,,,,,,,,,,,,,,,,,,,,,,,,,,,,,,,,,,,494.3478860000614,None,,,,,,,,,,,,,,,,,,,,,,,,,,,,,,,,,,,mother,90,10,aloud,blue,492.33517879992723,None,None,492.33517879992723,None,,,,,,,,,,,,,,,,,,,,,,,,,,,,,,9,001,2023_Feb_06_1248,ExactRep-v3-final,2021.2.3,59.93385693837937,
,,,,,,,,10,0,10,0,,,,,,,,,,,,,,,,,,,,,,,,,,,,,,,,,,,,,,,,,,,,,,,,,,,,,496.8504728998523,None,,,,,,,,,,,,,,,,,,,,,,,,,,,,,,,,,,,seat,94,11,aloud,blue,494.8484698999673,None,None,494.8484698999673,None,,,,,,,,,,,,,,,,,,,,,,,,,,,,,,9,001,2023_Feb_06_1248,ExactRep-v3-final,2021.2.3,59.93385693837937,
,,,,,,,,11,0,11,0,,,,,,,,,,,,,,,,,,,,,,,,,,,,,,,,,,,,,,,,,,,,,,,,,,,,,499.3529160998296,None,,,,,,,,,,,,,,,,,,,,,,,,,,,,,,,,,,,chair,33,12,sing,white,497.3530017999001,None,None,497.3530017999001,None,,,,,,,,,,,,,,,,,,,,,,,,,,,,,,9,001,2023_Feb_06_1248,ExactRep-v3-final,2021.2.3,59.93385693837937,
,,,,,,,,12,0,12,0,,,,,,,,,,,,,,,,,,,,,,,,,,,,,,,,,,,,,,,,,,,,,,,,,,,,,501.8721220998559,None,,,,,,,,,,,,,,,,,,,,,,,,,,,,,,,,,,,disease,82,13,aloud,blue,499.8626920999959,None,None,499.8626920999959,None,,,,,,,,,,,,,,,,,,,,,,,,,,,,,,9,001,2023_Feb_06_1248,ExactRep-v3-final,2021.2.3,59.93385693837937,
,,,,,,,,13,0,13,0,,,,,,,,,,,,,,,,,,,,,,,,,,,,,,,,,,,,,,,,,,,,,,,,,,,,,504.3869838998653,None,,,,,,,,,,,,,,,,,,,,,,,,,,,,,,,,,,,deed,13,14,sing,white,502.37242479994893,None,None,502.37242479994893,None,,,,,,,,,,,,,,,,,,,,,,,,,,,,,,9,001,2023_Feb_06_1248,ExactRep-v3-final,2021.2.3,59.93385693837937,
,,,,,,,,14,0,14,0,,,,,,,,,,,,,,,,,,,,,,,,,,,,,,,,,,,,,,,,,,,,,,,,,,,,,506.91032499982975,None,,,,,,,,,,,,,,,,,,,,,,,,,,,,,,,,,,,soil,35,15,sing,white,504.90056509990245,None,None,504.90056509990245,None,,,,,,,,,,,,,,,,,,,,,,,,,,,,,,9,001,2023_Feb_06_1248,ExactRep-v3-final,2021.2.3,59.93385693837937,
,,,,,,,,15,0,15,0,,,,,,,,,,,,,,,,,,,,,,,,,,,,,,,,,,,,,,,,,,,,,,,,,,,,,509.4292953000404,None,,,,,,,,,,,,,,,,,,,,,,,,,,,,,,,,,,,steam,93,16,aloud,blue,507.421156299999,None,None,507.421156299999,None,,,,,,,,,,,,,,,,,,,,,,,,,,,,,,9,001,2023_Feb_06_1248,ExactRep-v3-final,2021.2.3,59.93385693837937,
,,,,,,,,16,0,16,0,,,,,,,,,,,,,,,,,,,,,,,,,,,,,,,,,,,,,,,,,,,,,,,,,,,,,511.9488901000004,None,,,,,,,,,,,,,,,,,,,,,,,,,,,,,,,,,,,palace,60,17,silent,red,509.9399500999134,None,None,509.9399500999134,None,,,,,,,,,,,,,,,,,,,,,,,,,,,,,,9,001,2023_Feb_06_1248,ExactRep-v3-final,2021.2.3,59.93385693837937,
,,,,,,,,17,0,17,0,,,,,,,,,,,,,,,,,,,,,,,,,,,,,,,,,,,,,,,,,,,,,,,,,,,,,514.4514287000056,None,,,,,,,,,,,,,,,,,,,,,,,,,,,,,,,,,,,king,100,18,aloud,blue,512.4521043000277,None,None,512.4521043000277,None,,,,,,,,,,,,,,,,,,,,,,,,,,,,,,9,001,2023_Feb_06_1248,ExactRep-v3-final,2021.2.3,59.93385693837937,
,,,,,,,,18,0,18,0,,,,,,,,,,,,,,,,,,,,,,,,,,,,,,,,,,,,,,,,,,,,,,,,,,,,,516.9538282998838,None,,,,,,,,,,,,,,,,,,,,,,,,,,,,,,,,,,,bottle,31,19,sing,white,514.9524463999551,None,None,514.9524463999551,None,,,,,,,,,,,,,,,,,,,,,,,,,,,,,,9,001,2023_Feb_06_1248,ExactRep-v3-final,2021.2.3,59.93385693837937,
,,,,,,,,19,0,19,0,,,,,,,,,,,,,,,,,,,,,,,,,,,,,,,,,,,,,,,,,,,,,,,,,,,,,519.4561882000417,None,,,,,,,,,,,,,,,,,,,,,,,,,,,,,,,,,,,shore,103,20,aloud,blue,517.454707799945,None,None,517.454707799945,None,,,,,,,,,,,,,,,,,,,,,,,,,,,,,,9,001,2023_Feb_06_1248,ExactRep-v3-final,2021.2.3,59.93385693837937,
,,,,,,,,20,0,20,0,,,,,,,,,,,,,,,,,,,,,,,,,,,,,,,,,,,,,,,,,,,,,,,,,,,,,521.9590648999438,None,,,,,,,,,,,,,,,,,,,,,,,,,,,,,,,,,,,sea,96,21,aloud,blue,519.9588651999366,None,None,519.9588651999366,None,,,,,,,,,,,,,,,,,,,,,,,,,,,,,,9,001,2023_Feb_06_1248,ExactRep-v3-final,2021.2.3,59.93385693837937,
,,,,,,,,21,0,21,0,,,,,,,,,,,,,,,,,,,,,,,,,,,,,,,,,,,,,,,,,,,,,,,,,,,,,524.4780848999508,None,,,,,,,,,,,,,,,,,,,,,,,,,,,,,,,,,,,toy,91,22,aloud,blue,522.4682529000565,None,None,522.4682529000565,None,,,,,,,,,,,,,,,,,,,,,,,,,,,,,,9,001,2023_Feb_06_1248,ExactRep-v3-final,2021.2.3,59.93385693837937,
,,,,,,,,22,0,22,0,,,,,,,,,,,,,,,,,,,,,,,,,,,,,,,,,,,,,,,,,,,,,,,,,,,,,526.980550999986,None,,,,,,,,,,,,,,,,,,,,,,,,,,,,,,,,,,,wheat,9,23,sing,white,524.9785445998423,None,None,524.9785445998423,None,,,,,,,,,,,,,,,,,,,,,,,,,,,,,,9,001,2023_Feb_06_1248,ExactRep-v3-final,2021.2.3,59.93385693837937,
,,,,,,,,23,0,23,0,,,,,,,,,,,,,,,,,,,,,,,,,,,,,,,,,,,,,,,,,,,,,,,,,,,,,529.4828453999944,None,,,,,,,,,,,,,,,,,,,,,,,,,,,,,,,,,,,glory,99,24,aloud,blue,527.4828892999794,None,None,527.4828892999794,None,,,,,,,,,,,,,,,,,,,,,,,,,,,,,,9,001,2023_Feb_06_1248,ExactRep-v3-final,2021.2.3,59.93385693837937,
,,,,,,,,24,0,24,0,,,,,,,,,,,,,,,,,,,,,,,,,,,,,,,,,,,,,,,,,,,,,,,,,,,,,532.0020657000132,None,,,,,,,,,,,,,,,,,,,,,,,,,,,,,,,,,,,friend,56,25,silent,red,529.9868191999849,None,None,529.9868191999849,None,,,,,,,,,,,,,,,,,,,,,,,,,,,,,,9,001,2023_Feb_06_1248,ExactRep-v3-final,2021.2.3,59.93385693837937,
,,,,,,,,25,0,25,0,,,,,,,,,,,,,,,,,,,,,,,,,,,,,,,,,,,,,,,,,,,,,,,,,,,,,534.5047130000312,None,,,,,,,,,,,,,,,,,,,,,,,,,,,,,,,,,,,bar,70,26,silent,red,532.5050345999189,None,None,532.5050345999189,None,,,,,,,,,,,,,,,,,,,,,,,,,,,,,,9,001,2023_Feb_06_1248,ExactRep-v3-final,2021.2.3,59.93385693837937,
,,,,,,,,26,0,26,0,,,,,,,,,,,,,,,,,,,,,,,,,,,,,,,,,,,,,,,,,,,,,,,,,,,,,537.0071948999539,None,,,,,,,,,,,,,,,,,,,,,,,,,,,,,,,,,,,length,106,27,aloud,blue,535.0071386999916,None,None,535.0071386999916,None,,,,,,,,,,,,,,,,,,,,,,,,,,,,,,9,001,2023_Feb_06_1248,ExactRep-v3-final,2021.2.3,59.93385693837937,
,,,,,,,,27,0,27,0,,,,,,,,,,,,,,,,,,,,,,,,,,,,,,,,,,,,,,,,,,,,,,,,,,,,,539.5095045999624,None,,,,,,,,,,,,,,,,,,,,,,,,,,,,,,,,,,,corn,67,28,silent,red,537.5072584999725,None,None,537.5072584999725,None,,,,,,,,,,,,,,,,,,,,,,,,,,,,,,9,001,2023_Feb_06_1248,ExactRep-v3-final,2021.2.3,59.93385693837937,
,,,,,,,,28,0,28,0,,,,,,,,,,,,,,,,,,,,,,,,,,,,,,,,,,,,,,,,,,,,,,,,,,,,,542.028964899946,None,,,,,,,,,,,,,,,,,,,,,,,,,,,,,,,,,,,lip,48,29,silent,red,540.016253199894,None,None,540.016253199894,None,,,,,,,,,,,,,,,,,,,,,,,,,,,,,,9,001,2023_Feb_06_1248,ExactRep-v3-final,2021.2.3,59.93385693837937,
,,,,,,,,29,0,29,0,,,,,,,,,,,,,,,,,,,,,,,,,,,,,,,,,,,,,,,,,,,,,,,,,,,,,544.5481132999994,None,,,,,,,,,,,,,,,,,,,,,,,,,,,,,,,,,,,lad,51,30,silent,red,542.5349291998427,None,None,542.5349291998427,None,,,,,,,,,,,,,,,,,,,,,,,,,,,,,,9,001,2023_Feb_06_1248,ExactRep-v3-final,2021.2.3,59.93385693837937,
,,,,,,,,30,0,30,0,,,,,,,,,,,,,,,,,,,,,,,,,,,,,,,,,,,,,,,,,,,,,,,,,,,,,547.0505983999465,None,,,,,,,,,,,,,,,,,,,,,,,,,,,,,,,,,,,crime,59,31,silent,red,545.0506763998419,None,None,545.0506763998419,None,,,,,,,,,,,,,,,,,,,,,,,,,,,,,,9,001,2023_Feb_06_1248,ExactRep-v3-final,2021.2.3,59.93385693837937,
,,,,,,,,31,0,31,0,,,,,,,,,,,,,,,,,,,,,,,,,,,,,,,,,,,,,,,,,,,,,,,,,,,,,549.5530601998325,None,,,,,,,,,,,,,,,,,,,,,,,,,,,,,,,,,,,breast,119,32,aloud,blue,547.5533574998844,None,None,547.5533574998844,None,,,,,,,,,,,,,,,,,,,,,,,,,,,,,,9,001,2023_Feb_06_1248,ExactRep-v3-final,2021.2.3,59.93385693837937,
,,,,,,,,32,0,32,0,,,,,,,,,,,,,,,,,,,,,,,,,,,,,,,,,,,,,,,,,,,,,,,,,,,,,552.0561229998711,None,,,,,,,,,,,,,,,,,,,,,,,,,,,,,,,,,,,butter,95,33,aloud,blue,550.0550649999641,None,None,550.0550649999641,None,,,,,,,,,,,,,,,,,,,,,,,,,,,,,,9,001,2023_Feb_06_1248,ExactRep-v3-final,2021.2.3,59.93385693837937,
,,,,,,,,33,0,33,0,,,,,,,,,,,,,,,,,,,,,,,,,,,,,,,,,,,,,,,,,,,,,,,,,,,,,554.5748353998642,None,,,,,,,,,,,,,,,,,,,,,,,,,,,,,,,,,,,priest,68,34,silent,red,552.5592821999453,None,None,552.5592821999453,None,,,,,,,,,,,,,,,,,,,,,,,,,,,,,,9,001,2023_Feb_06_1248,ExactRep-v3-final,2021.2.3,59.93385693837937,
,,,,,,,,34,0,34,0,,,,,,,,,,,,,,,,,,,,,,,,,,,,,,,,,,,,,,,,,,,,,,,,,,,,,557.0773287999909,None,,,,,,,,,,,,,,,,,,,,,,,,,,,,,,,,,,,death,66,35,silent,red,555.0753091999795,None,None,555.0753091999795,None,,,,,,,,,,,,,,,,,,,,,,,,,,,,,,9,001,2023_Feb_06_1248,ExactRep-v3-final,2021.2.3,59.93385693837937,
,,,,,,,,35,0,35,0,,,,,,,,,,,,,,,,,,,,,,,,,,,,,,,,,,,,,,,,,,,,,,,,,,,,,559.5964746000245,None,,,,,,,,,,,,,,,,,,,,,,,,,,,,,,,,,,,circle,75,36,silent,red,557.5812556999736,None,None,557.5812556999736,None,,,,,,,,,,,,,,,,,,,,,,,,,,,,,,9,001,2023_Feb_06_1248,ExactRep-v3-final,2021.2.3,59.93385693837937,
,,,,,,,,36,0,36,0,,,,,,,,,,,,,,,,,,,,,,,,,,,,,,,,,,,,,,,,,,,,,,,,,,,,,562.0989800998941,None,,,,,,,,,,,,,,,,,,,,,,,,,,,,,,,,,,,effort,53,37,silent,red,560.0997635000385,None,None,560.0997635000385,None,,,,,,,,,,,,,,,,,,,,,,,,,,,,,,9,001,2023_Feb_06_1248,ExactRep-v3-final,2021.2.3,59.93385693837937,
,,,,,,,,37,0,37,0,,,,,,,,,,,,,,,,,,,,,,,,,,,,,,,,,,,,,,,,,,,,,,,,,,,,,564.6181741999462,None,,,,,,,,,,,,,,,,,,,,,,,,,,,,,,,,,,,library,79,38,sing,white,562.6048143999651,None,None,562.6048143999651,None,,,,,,,,,,,,,,,,,,,,,,,,,,,,,,9,001,2023_Feb_06_1248,ExactRep-v3-final,2021.2.3,59.93385693837937,
,,,,,,,,38,0,38,0,,,,,,,,,,,,,,,,,,,,,,,,,,,,,,,,,,,,,,,,,,,,,,,,,,,,,567.1378808000591,None,,,,,,,,,,,,,,,,,,,,,,,,,,,,,,,,,,,colony,26,39,sing,white,565.1220903999638,None,None,565.1220903999638,None,,,,,,,,,,,,,,,,,,,,,,,,,,,,,,9,001,2023_Feb_06_1248,ExactRep-v3-final,2021.2.3,59.93385693837937,
,,,,,,,,39,0,39,0,,,,,,,,,,,,,,,,,,,,,,,,,,,,,,,,,,,,,,,,,,,,,,,,,,,,,569.6399150998332,None,,,,,,,,,,,,,,,,,,,,,,,,,,,,,,,,,,,life,45,40,silent,red,567.6375990000088,None,None,567.6375990000088,None,,,,,,,,,,,,,,,,,,,,,,,,,,,,,,9,001,2023_Feb_06_1248,ExactRep-v3-final,2021.2.3,59.93385693837937,
,,,,,,,,40,0,40,0,,,,,,,,,,,,,,,,,,,,,,,,,,,,,,,,,,,,,,,,,,,,,,,,,,,,,572.1591397000011,None,,,,,,,,,,,,,,,,,,,,,,,,,,,,,,,,,,,ticket,110,41,aloud,blue,570.1456243998837,None,None,570.1456243998837,None,,,,,,,,,,,,,,,,,,,,,,,,,,,,,,9,001,2023_Feb_06_1248,ExactRep-v3-final,2021.2.3,59.93385693837937,
,,,,,,,,41,0,41,0,,,,,,,,,,,,,,,,,,,,,,,,,,,,,,,,,,,,,,,,,,,,,,,,,,,,,574.6781951000448,None,,,,,,,,,,,,,,,,,,,,,,,,,,,,,,,,,,,vision,62,42,silent,red,572.6641045999713,None,None,572.6641045999713,None,,,,,,,,,,,,,,,,,,,,,,,,,,,,,,9,001,2023_Feb_06_1248,ExactRep-v3-final,2021.2.3,59.93385693837937,
,,,,,,,,42,0,42,0,,,,,,,,,,,,,,,,,,,,,,,,,,,,,,,,,,,,,,,,,,,,,,,,,,,,,577.180687099928,None,,,,,,,,,,,,,,,,,,,,,,,,,,,,,,,,,,,chance,104,43,aloud,blue,575.1787320000585,None,None,575.1787320000585,None,,,,,,,,,,,,,,,,,,,,,,,,,,,,,,9,001,2023_Feb_06_1248,ExactRep-v3-final,2021.2.3,59.93385693837937,
,,,,,,,,43,0,43,0,,,,,,,,,,,,,,,,,,,,,,,,,,,,,,,,,,,,,,,,,,,,,,,,,,,,,579.6831848998554,None,,,,,,,,,,,,,,,,,,,,,,,,,,,,,,,,,,,clock,65,44,silent,red,577.682914200006,None,None,577.682914200006,None,,,,,,,,,,,,,,,,,,,,,,,,,,,,,,9,001,2023_Feb_06_1248,ExactRep-v3-final,2021.2.3,59.93385693837937,
,,,,,,,,44,0,44,0,,,,,,,,,,,,,,,,,,,,,,,,,,,,,,,,,,,,,,,,,,,,,,,,,,,,,582.202476099832,None,,,,,,,,,,,,,,,,,,,,,,,,,,,,,,,,,,,quality,57,45,silent,red,580.1900030998513,None,None,580.1900030998513,None,,,,,,,,,,,,,,,,,,,,,,,,,,,,,,9,001,2023_Feb_06_1248,ExactRep-v3-final,2021.2.3,59.93385693837937,
,,,,,,,,45,0,45,0,,,,,,,,,,,,,,,,,,,,,,,,,,,,,,,,,,,,,,,,,,,,,,,,,,,,,584.7048404999077,None,,,,,,,,,,,,,,,,,,,,,,,,,,,,,,,,,,,skin,23,46,sing,white,582.7057626999449,None,None,582.7057626999449,None,,,,,,,,,,,,,,,,,,,,,,,,,,,,,,9,001,2023_Feb_06_1248,ExactRep-v3-final,2021.2.3,59.93385693837937,
,,,,,,,,46,0,46,0,,,,,,,,,,,,,,,,,,,,,,,,,,,,,,,,,,,,,,,,,,,,,,,,,,,,,587.20746960002,None,,,,,,,,,,,,,,,,,,,,,,,,,,,,,,,,,,,storm,12,47,sing,white,585.2053687998559,None,None,585.2053687998559,None,,,,,,,,,,,,,,,,,,,,,,,,,,,,,,9,001,2023_Feb_06_1248,ExactRep-v3-final,2021.2.3,59.93385693837937,
,,,,,,,,47,0,47,0,,,,,,,,,,,,,,,,,,,,,,,,,,,,,,,,,,,,,,,,,,,,,,,,,,,,,589.7266547000036,None,,,,,,,,,,,,,,,,,,,,,,,,,,,,,,,,,,,doll,15,48,sing,white,587.711930999998,None,None,587.711930999998,None,,,,,,,,,,,,,,,,,,,,,,,,,,,,,,9,001,2023_Feb_06_1248,ExactRep-v3-final,2021.2.3,59.93385693837937,
,,,,,,,,48,0,48,0,,,,,,,,,,,,,,,,,,,,,,,,,,,,,,,,,,,,,,,,,,,,,,,,,,,,,592.2290727999061,None,,,,,,,,,,,,,,,,,,,,,,,,,,,,,,,,,,,series,73,49,silent,red,590.2271694999654,None,None,590.2271694999654,None,,,,,,,,,,,,,,,,,,,,,,,,,,,,,,9,001,2023_Feb_06_1248,ExactRep-v3-final,2021.2.3,59.93385693837937,
,,,,,,,,49,0,49,0,,,,,,,,,,,,,,,,,,,,,,,,,,,,,,,,,,,,,,,,,,,,,,,,,,,,,594.7483446998522,None,,,,,,,,,,,,,,,,,,,,,,,,,,,,,,,,,,,devil,18,50,sing,white,592.7329130999278,None,None,592.7329130999278,None,,,,,,,,,,,,,,,,,,,,,,,,,,,,,,9,001,2023_Feb_06_1248,ExactRep-v3-final,2021.2.3,59.93385693837937,
,,,,,,,,50,0,50,0,,,,,,,,,,,,,,,,,,,,,,,,,,,,,,,,,,,,,,,,,,,,,,,,,,,,,597.2506949000526,None,,,,,,,,,,,,,,,,,,,,,,,,,,,,,,,,,,,camp,43,51,silent,red,595.249777100049,None,None,595.249777100049,None,,,,,,,,,,,,,,,,,,,,,,,,,,,,,,9,001,2023_Feb_06_1248,ExactRep-v3-final,2021.2.3,59.93385693837937,
,,,,,,,,51,0,51,0,,,,,,,,,,,,,,,,,,,,,,,,,,,,,,,,,,,,,,,,,,,,,,,,,,,,,599.7541328999214,None,,,,,,,,,,,,,,,,,,,,,,,,,,,,,,,,,,,ocean,74,52,silent,red,597.754384299973,None,None,597.754384299973,None,,,,,,,,,,,,,,,,,,,,,,,,,,,,,,9,001,2023_Feb_06_1248,ExactRep-v3-final,2021.2.3,59.93385693837937,
,,,,,,,,52,0,52,0,,,,,,,,,,,,,,,,,,,,,,,,,,,,,,,,,,,,,,,,,,,,,,,,,,,,,602.2557725999504,None,,,,,,,,,,,,,,,,,,,,,,,,,,,,,,,,,,,master,87,53,aloud,blue,600.2564957998693,None,None,600.2564957998693,None,,,,,,,,,,,,,,,,,,,,,,,,,,,,,,9,001,2023_Feb_06_1248,ExactRep-v3-final,2021.2.3,59.93385693837937,
,,,,,,,,53,0,53,0,,,,,,,,,,,,,,,,,,,,,,,,,,,,,,,,,,,,,,,,,,,,,,,,,,,,,604.7583935998846,None,,,,,,,,,,,,,,,,,,,,,,,,,,,,,,,,,,,dress,7,54,sing,white,602.759331200039,None,None,602.759331200039,None,,,,,,,,,,,,,,,,,,,,,,,,,,,,,,9,001,2023_Feb_06_1248,ExactRep-v3-final,2021.2.3,59.93385693837937,
,,,,,,,,54,0,54,0,,,,,,,,,,,,,,,,,,,,,,,,,,,,,,,,,,,,,,,,,,,,,,,,,,,,,607.2774375998415,None,,,,,,,,,,,,,,,,,,,,,,,,,,,,,,,,,,,teacher,117,55,aloud,blue,605.2622736999765,None,None,605.2622736999765,None,,,,,,,,,,,,,,,,,,,,,,,,,,,,,,9,001,2023_Feb_06_1248,ExactRep-v3-final,2021.2.3,59.93385693837937,
,,,,,,,,55,0,55,0,,,,,,,,,,,,,,,,,,,,,,,,,,,,,,,,,,,,,,,,,,,,,,,,,,,,,609.7799492999911,None,,,,,,,,,,,,,,,,,,,,,,,,,,,,,,,,,,,boy,111,56,aloud,blue,607.7799024998676,None,None,607.7799024998676,None,,,,,,,,,,,,,,,,,,,,,,,,,,,,,,9,001,2023_Feb_06_1248,ExactRep-v3-final,2021.2.3,59.93385693837937,
,,,,,,,,56,0,56,0,,,,,,,,,,,,,,,,,,,,,,,,,,,,,,,,,,,,,,,,,,,,,,,,,,,,,612.2824784000404,None,,,,,,,,,,,,,,,,,,,,,,,,,,,,,,,,,,,insect,86,57,aloud,blue,610.2832350998651,None,None,610.2832350998651,None,,,,,,,,,,,,,,,,,,,,,,,,,,,,,,9,001,2023_Feb_06_1248,ExactRep-v3-final,2021.2.3,59.93385693837937,
,,,,,,,,57,0,57,0,,,,,,,,,,,,,,,,,,,,,,,,,,,,,,,,,,,,,,,,,,,,,,,,,,,,,614.8015447000507,None,,,,,,,,,,,,,,,,,,,,,,,,,,,,,,,,,,,passion,105,58,aloud,blue,612.7872272999957,None,None,612.7872272999957,None,,,,,,,,,,,,,,,,,,,,,,,,,,,,,,9,001,2023_Feb_06_1248,ExactRep-v3-final,2021.2.3,59.93385693837937,
,,,,,,,,58,0,58,0,,,,,,,,,,,,,,,,,,,,,,,,,,,,,,,,,,,,,,,,,,,,,,,,,,,,,617.304141700035,None,,,,,,,,,,,,,,,,,,,,,,,,,,,,,,,,,,,coin,64,59,silent,red,615.3041968999896,None,None,615.3041968999896,None,,,,,,,,,,,,,,,,,,,,,,,,,,,,,,9,001,2023_Feb_06_1248,ExactRep-v3-final,2021.2.3,59.93385693837937,
,,,,,,,,59,0,59,0,,,,,,,,,,,,,,,,,,,,,,,,,,,,,,,,,,,,,,,,,,,,,,,,,,,,,619.823419699911,None,,,,,,,,,,,,,,,,,,,,,,,,,,,,,,,,,,,hotel,41,60,silent,red,617.808435499901,None,None,617.808435499901,None,,,,,,,,,,,,,,,,,,,,,,,,,,,,,,9,001,2023_Feb_06_1248,ExactRep-v3-final,2021.2.3,59.93385693837937,
,,,,,,,,60,0,60,0,,,,,,,,,,,,,,,,,,,,,,,,,,,,,,,,,,,,,,,,,,,,,,,,,,,,,622.3425197999459,None,,,,,,,,,,,,,,,,,,,,,,,,,,,,,,,,,,,sugar,52,61,silent,red,620.3286992998328,None,None,620.3286992998328,None,,,,,,,,,,,,,,,,,,,,,,,,,,,,,,9,001,2023_Feb_06_1248,ExactRep-v3-final,2021.2.3,59.93385693837937,
,,,,,,,,61,0,61,0,,,,,,,,,,,,,,,,,,,,,,,,,,,,,,,,,,,,,,,,,,,,,,,,,,,,,624.8451231999788,None,,,,,,,,,,,,,,,,,,,,,,,,,,,,,,,,,,,arm,55,62,silent,red,622.8442257998977,None,None,622.8442257998977,None,,,,,,,,,,,,,,,,,,,,,,,,,,,,,,9,001,2023_Feb_06_1248,ExactRep-v3-final,2021.2.3,59.93385693837937,
,,,,,,,,62,0,62,0,,,,,,,,,,,,,,,,,,,,,,,,,,,,,,,,,,,,,,,,,,,,,,,,,,,,,627.3641359000467,None,,,,,,,,,,,,,,,,,,,,,,,,,,,,,,,,,,,mind,118,63,aloud,blue,625.3497569998726,None,None,625.3497569998726,None,,,,,,,,,,,,,,,,,,,,,,,,,,,,,,9,001,2023_Feb_06_1248,ExactRep-v3-final,2021.2.3,59.93385693837937,
,,,,,,,,63,0,63,0,,,,,,,,,,,,,,,,,,,,,,,,,,,,,,,,,,,,,,,,,,,,,,,,,,,,,629.8667168999091,None,,,,,,,,,,,,,,,,,,,,,,,,,,,,,,,,,,,silence,29,64,sing,white,627.8646843000315,None,None,627.8646843000315,None,,,,,,,,,,,,,,,,,,,,,,,,,,,,,,9,001,2023_Feb_06_1248,ExactRep-v3-final,2021.2.3,59.93385693837937,
,,,,,,,,64,0,64,0,,,,,,,,,,,,,,,,,,,,,,,,,,,,,,,,,,,,,,,,,,,,,,,,,,,,,632.3691576998681,None,,,,,,,,,,,,,,,,,,,,,,,,,,,,,,,,,,,maiden,85,65,aloud,blue,630.3678419999778,None,None,630.3678419999778,None,,,,,,,,,,,,,,,,,,,,,,,,,,,,,,9,001,2023_Feb_06_1248,ExactRep-v3-final,2021.2.3,59.93385693837937,
,,,,,,,,65,0,65,0,,,,,,,,,,,,,,,,,,,,,,,,,,,,,,,,,,,,,,,,,,,,,,,,,,,,,634.8716625999659,None,,,,,,,,,,,,,,,,,,,,,,,,,,,,,,,,,,,amount,32,66,sing,white,632.8702295999974,None,None,632.8702295999974,None,,,,,,,,,,,,,,,,,,,,,,,,,,,,,,9,001,2023_Feb_06_1248,ExactRep-v3-final,2021.2.3,59.93385693837937,
,,,,,,,,66,0,66,0,,,,,,,,,,,,,,,,,,,,,,,,,,,,,,,,,,,,,,,,,,,,,,,,,,,,,637.3740578999277,None,,,,,,,,,,,,,,,,,,,,,,,,,,,,,,,,,,,pole,54,67,silent,red,635.373751499923,None,None,635.373751499923,None,,,,,,,,,,,,,,,,,,,,,,,,,,,,,,9,001,2023_Feb_06_1248,ExactRep-v3-final,2021.2.3,59.93385693837937,
,,,,,,,,67,0,67,0,,,,,,,,,,,,,,,,,,,,,,,,,,,,,,,,,,,,,,,,,,,,,,,,,,,,,639.8933788998984,None,,,,,,,,,,,,,,,,,,,,,,,,,,,,,,,,,,,love,80,68,aloud,blue,637.8784616000485,None,None,637.8784616000485,None,,,,,,,,,,,,,,,,,,,,,,,,,,,,,,9,001,2023_Feb_06_1248,ExactRep-v3-final,2021.2.3,59.93385693837937,
,,,,,,,,68,0,68,0,,,,,,,,,,,,,,,,,,,,,,,,,,,,,,,,,,,,,,,,,,,,,,,,,,,,,642.3958850000054,None,,,,,,,,,,,,,,,,,,,,,,,,,,,,,,,,,,,history,25,69,sing,white,640.3949309999589,None,None,640.3949309999589,None,,,,,,,,,,,,,,,,,,,,,,,,,,,,,,9,001,2023_Feb_06_1248,ExactRep-v3-final,2021.2.3,59.93385693837937,
,,,,,,,,69,0,69,0,,,,,,,,,,,,,,,,,,,,,,,,,,,,,,,,,,,,,,,,,,,,,,,,,,,,,644.8983487999067,None,,,,,,,,,,,,,,,,,,,,,,,,,,,,,,,,,,,potato,50,70,silent,red,642.8992116998415,None,None,642.8992116998415,None,,,,,,,,,,,,,,,,,,,,,,,,,,,,,,9,001,2023_Feb_06_1248,ExactRep-v3-final,2021.2.3,59.93385693837937,
,,,,,,,,70,0,70,0,,,,,,,,,,,,,,,,,,,,,,,,,,,,,,,,,,,,,,,,,,,,,,,,,,,,,647.4037953999359,None,,,,,,,,,,,,,,,,,,,,,,,,,,,,,,,,,,,freedom,28,71,sing,white,645.3988872000482,None,None,645.3988872000482,None,,,,,,,,,,,,,,,,,,,,,,,,,,,,,,9,001,2023_Feb_06_1248,ExactRep-v3-final,2021.2.3,59.93385693837937,
,,,,,,,,71,0,71,0,,,,,,,,,,,,,,,,,,,,,,,,,,,,,,,,,,,,,,,,,,,,,,,,,,,,,649.9200095999986,None,,,,,,,,,,,,,,,,,,,,,,,,,,,,,,,,,,,speech,81,72,aloud,blue,647.9180880999193,None,None,647.9180880999193,None,,,,,,,,,,,,,,,,,,,,,,,,,,,,,,9,001,2023_Feb_06_1248,ExactRep-v3-final,2021.2.3,59.93385693837937,
,,,,,,,,72,0,72,0,,,,,,,,,,,,,,,,,,,,,,,,,,,,,,,,,,,,,,,,,,,,,,,,,,,,,652.4226110999007,None,,,,,,,,,,,,,,,,,,,,,,,,,,,,,,,,,,,world,0,73,sing,white,650.4222556999885,None,None,650.4222556999885,None,,,,,,,,,,,,,,,,,,,,,,,,,,,,,,9,001,2023_Feb_06_1248,ExactRep-v3-final,2021.2.3,59.93385693837937,
,,,,,,,,73,0,73,0,,,,,,,,,,,,,,,,,,,,,,,,,,,,,,,,,,,,,,,,,,,,,,,,,,,,,654.9251635998953,None,,,,,,,,,,,,,,,,,,,,,,,,,,,,,,,,,,,party,77,74,silent,red,652.9249553000554,None,None,652.9249553000554,None,,,,,,,,,,,,,,,,,,,,,,,,,,,,,,9,001,2023_Feb_06_1248,ExactRep-v3-final,2021.2.3,59.93385693837937,
,,,,,,,,74,0,74,0,,,,,,,,,,,,,,,,,,,,,,,,,,,,,,,,,,,,,,,,,,,,,,,,,,,,,657.4276145000476,None,,,,,,,,,,,,,,,,,,,,,,,,,,,,,,,,,,,door,24,75,sing,white,655.4275825999212,None,None,655.4275825999212,None,,,,,,,,,,,,,,,,,,,,,,,,,,,,,,9,001,2023_Feb_06_1248,ExactRep-v3-final,2021.2.3,59.93385693837937,
,,,,,,,,75,0,75,0,,,,,,,,,,,,,,,,,,,,,,,,,,,,,,,,,,,,,,,,,,,,,,,,,,,,,659.9467720000539,None,,,,,,,,,,,,,,,,,,,,,,,,,,,,,,,,,,,trouble,2,76,sing,white,657.9333333999384,None,None,657.9333333999384,None,,,,,,,,,,,,,,,,,,,,,,,,,,,,,,9,001,2023_Feb_06_1248,ExactRep-v3-final,2021.2.3,59.93385693837937,
,,,,,,,,76,0,76,0,,,,,,,,,,,,,,,,,,,,,,,,,,,,,,,,,,,,,,,,,,,,,,,,,,,,,662.4659398000222,None,,,,,,,,,,,,,,,,,,,,,,,,,,,,,,,,,,,soul,27,77,sing,white,660.4513677000068,None,None,660.4513677000068,None,,,,,,,,,,,,,,,,,,,,,,,,,,,,,,9,001,2023_Feb_06_1248,ExactRep-v3-final,2021.2.3,59.93385693837937,
,,,,,,,,77,0,77,0,,,,,,,,,,,,,,,,,,,,,,,,,,,,,,,,,,,,,,,,,,,,,,,,,,,,,664.9684047999326,None,,,,,,,,,,,,,,,,,,,,,,,,,,,,,,,,,,,machine,3,78,sing,white,662.9694711000193,None,None,662.9694711000193,None,,,,,,,,,,,,,,,,,,,,,,,,,,,,,,9,001,2023_Feb_06_1248,ExactRep-v3-final,2021.2.3,59.93385693837937,
,,,,,,,,78,0,78,0,,,,,,,,,,,,,,,,,,,,,,,,,,,,,,,,,,,,,,,,,,,,,,,,,,,,,667.4709312999621,None,,,,,,,,,,,,,,,,,,,,,,,,,,,,,,,,,,,doctor,116,79,aloud,blue,665.4706591998693,None,None,665.4706591998693,None,,,,,,,,,,,,,,,,,,,,,,,,,,,,,,9,001,2023_Feb_06_1248,ExactRep-v3-final,2021.2.3,59.93385693837937,
,,,,,,,,79,0,79,0,,,,,,,,,,,,,,,,,,,,,,,,,,,,,,,,,,,,,,,,,,,,,,,,,,,,,669.9735204000026,None,,,,,,,,,,,,,,,,,,,,,,,,,,,,,,,,,,,picture,115,80,aloud,blue,667.9742538998835,None,None,667.9742538998835,None,,,,,,,,,,,,,,,,,,,,,,,,,,,,,,9,001,2023_Feb_06_1248,ExactRep-v3-final,2021.2.3,59.93385693837937,
,,,,,,,,80,0,80,0,,,,,,,,,,,,,,,,,,,,,,,,,,,,,,,,,,,,,,,,,,,,,,,,,,,,,672.492597799981,None,,,,,,,,,,,,,,,,,,,,,,,,,,,,,,,,,,,college,113,81,aloud,blue,670.47843989986,None,None,670.47843989986,None,,,,,,,,,,,,,,,,,,,,,,,,,,,,,,9,001,2023_Feb_06_1248,ExactRep-v3-final,2021.2.3,59.93385693837937,
,,,,,,,,81,0,81,0,,,,,,,,,,,,,,,,,,,,,,,,,,,,,,,,,,,,,,,,,,,,,,,,,,,,,674.9957633998711,None,,,,,,,,,,,,,,,,,,,,,,,,,,,,,,,,,,,coffee,83,82,aloud,blue,672.9939133999869,None,None,672.9939133999869,None,,,,,,,,,,,,,,,,,,,,,,,,,,,,,,9,001,2023_Feb_06_1248,ExactRep-v3-final,2021.2.3,59.93385693837937,
,,,,,,,,82,0,82,0,,,,,,,,,,,,,,,,,,,,,,,,,,,,,,,,,,,,,,,,,,,,,,,,,,,,,677.5143074998632,None,,,,,,,,,,,,,,,,,,,,,,,,,,,,,,,,,,,excuse,10,83,sing,white,675.4988947999664,None,None,675.4988947999664,None,,,,,,,,,,,,,,,,,,,,,,,,,,,,,,9,001,2023_Feb_06_1248,ExactRep-v3-final,2021.2.3,59.93385693837937,
,,,,,,,,83,0,83,0,,,,,,,,,,,,,,,,,,,,,,,,,,,,,,,,,,,,,,,,,,,,,,,,,,,,,680.0334508998785,None,,,,,,,,,,,,,,,,,,,,,,,,,,,,,,,,,,,star,22,84,sing,white,678.0237807000522,None,None,678.0237807000522,None,,,,,,,,,,,,,,,,,,,,,,,,,,,,,,9,001,2023_Feb_06_1248,ExactRep-v3-final,2021.2.3,59.93385693837937,
,,,,,,,,84,0,84,0,,,,,,,,,,,,,,,,,,,,,,,,,,,,,,,,,,,,,,,,,,,,,,,,,,,,,682.5360043998808,None,,,,,,,,,,,,,,,,,,,,,,,,,,,,,,,,,,,stone,5,85,sing,white,680.5352121000178,None,None,680.5352121000178,None,,,,,,,,,,,,,,,,,,,,,,,,,,,,,,9,001,2023_Feb_06_1248,ExactRep-v3-final,2021.2.3,59.93385693837937,
,,,,,,,,85,0,85,0,,,,,,,,,,,,,,,,,,,,,,,,,,,,,,,,,,,,,,,,,,,,,,,,,,,,,685.0551694999449,None,,,,,,,,,,,,,,,,,,,,,,,,,,,,,,,,,,,charm,71,86,silent,red,683.0450734999031,None,None,683.0450734999031,None,,,,,,,,,,,,,,,,,,,,,,,,,,,,,,9,001,2023_Feb_06_1248,ExactRep-v3-final,2021.2.3,59.93385693837937,
,,,,,,,,86,0,86,0,,,,,,,,,,,,,,,,,,,,,,,,,,,,,,,,,,,,,,,,,,,,,,,,,,,,,687.5576080998871,None,,,,,,,,,,,,,,,,,,,,,,,,,,,,,,,,,,,hour,49,87,silent,red,685.5566551999655,None,None,685.5566551999655,None,,,,,,,,,,,,,,,,,,,,,,,,,,,,,,9,001,2023_Feb_06_1248,ExactRep-v3-final,2021.2.3,59.93385693837937,
,,,,,,,,87,0,87,0,,,,,,,,,,,,,,,,,,,,,,,,,,,,,,,,,,,,,,,,,,,,,,,,,,,,,690.0773771000095,None,,,,,,,,,,,,,,,,,,,,,,,,,,,,,,,,,,,shock,36,88,sing,white,688.0692600999027,None,None,688.0692600999027,None,,,,,,,,,,,,,,,,,,,,,,,,,,,,,,9,001,2023_Feb_06_1248,ExactRep-v3-final,2021.2.3,59.93385693837937,
,,,,,,,,88,0,88,0,,,,,,,,,,,,,,,,,,,,,,,,,,,,,,,,,,,,,,,,,,,,,,,,,,,,,692.5793280999642,None,,,,,,,,,,,,,,,,,,,,,,,,,,,,,,,,,,,horse,11,89,sing,white,690.5799451000057,None,None,690.5799451000057,None,,,,,,,,,,,,,,,,,,,,,,,,,,,,,,9,001,2023_Feb_06_1248,ExactRep-v3-final,2021.2.3,59.93385693837937,
,,,,,,,,89,0,89,0,,,,,,,,,,,,,,,,,,,,,,,,,,,,,,,,,,,,,,,,,,,,,,,,,,,,,695.0839684000239,None,,,,,,,,,,,,,,,,,,,,,,,,,,,,,,,,,,,tool,108,90,aloud,blue,693.0802025999874,None,None,693.0802025999874,None,,,,,,,,,,,,,,,,,,,,,,,,,,,,,,9,001,2023_Feb_06_1248,ExactRep-v3-final,2021.2.3,59.93385693837937,
,,,,,,,,90,0,90,0,,,,,,,,,,,,,,,,,,,,,,,,,,,,,,,,,,,,,,,,,,,,,,,,,,,,,697.6010962000582,None,,,,,,,,,,,,,,,,,,,,,,,,,,,,,,,,,,,meat,102,91,aloud,blue,695.5989204000216,None,None,695.5989204000216,None,,,,,,,,,,,,,,,,,,,,,,,,,,,,,,9,001,2023_Feb_06_1248,ExactRep-v3-final,2021.2.3,59.93385693837937,
,,,,,,,,91,0,91,0,,,,,,,,,,,,,,,,,,,,,,,,,,,,,,,,,,,,,,,,,,,,,,,,,,,,,700.120309199905,None,,,,,,,,,,,,,,,,,,,,,,,,,,,,,,,,,,,justice,78,92,silent,red,698.1080237999558,None,None,698.1080237999558,None,,,,,,,,,,,,,,,,,,,,,,,,,,,,,,9,001,2023_Feb_06_1248,ExactRep-v3-final,2021.2.3,59.93385693837937,
,,,,,,,,92,0,92,0,,,,,,,,,,,,,,,,,,,,,,,,,,,,,,,,,,,,,,,,,,,,,,,,,,,,,702.6226790999062,None,,,,,,,,,,,,,,,,,,,,,,,,,,,,,,,,,,,bowl,19,93,sing,white,700.6229238999076,None,None,700.6229238999076,None,,,,,,,,,,,,,,,,,,,,,,,,,,,,,,9,001,2023_Feb_06_1248,ExactRep-v3-final,2021.2.3,59.93385693837937,
,,,,,,,,93,0,93,0,,,,,,,,,,,,,,,,,,,,,,,,,,,,,,,,,,,,,,,,,,,,,,,,,,,,,705.1251491999719,None,,,,,,,,,,,,,,,,,,,,,,,,,,,,,,,,,,,flower,76,94,silent,red,703.1250650999136,None,None,703.1250650999136,None,,,,,,,,,,,,,,,,,,,,,,,,,,,,,,9,001,2023_Feb_06_1248,ExactRep-v3-final,2021.2.3,59.93385693837937,
,,,,,,,,94,0,94,0,,,,,,,,,,,,,,,,,,,,,,,,,,,,,,,,,,,,,,,,,,,,,,,,,,,,,707.6277955998667,None,,,,,,,,,,,,,,,,,,,,,,,,,,,,,,,,,,,woman,1,95,sing,white,705.6272100999486,None,None,705.6272100999486,None,,,,,,,,,,,,,,,,,,,,,,,,,,,,,,9,001,2023_Feb_06_1248,ExactRep-v3-final,2021.2.3,59.93385693837937,
,,,,,,,,95,0,95,0,,,,,,,,,,,,,,,,,,,,,,,,,,,,,,,,,,,,,,,,,,,,,,,,,,,,,710.1299612000585,None,,,,,,,,,,,,,,,,,,,,,,,,,,,,,,,,,,,rock,69,96,silent,red,708.128175499849,None,None,708.128175499849,None,,,,,,,,,,,,,,,,,,,,,,,,,,,,,,9,001,2023_Feb_06_1248,ExactRep-v3-final,2021.2.3,59.93385693837937,
,,,,,,,,96,0,96,0,,,,,,,,,,,,,,,,,,,,,,,,,,,,,,,,,,,,,,,,,,,,,,,,,,,,,712.6326705999672,None,,,,,,,,,,,,,,,,,,,,,,,,,,,,,,,,,,,method,42,97,silent,red,710.6306797999423,None,None,710.6306797999423,None,,,,,,,,,,,,,,,,,,,,,,,,,,,,,,9,001,2023_Feb_06_1248,ExactRep-v3-final,2021.2.3,59.93385693837937,
,,,,,,,,97,0,97,0,,,,,,,,,,,,,,,,,,,,,,,,,,,,,,,,,,,,,,,,,,,,,,,,,,,,,715.1518540000543,None,,,,,,,,,,,,,,,,,,,,,,,,,,,,,,,,,,,green,20,98,sing,white,713.1375362998806,None,None,713.1375362998806,None,,,,,,,,,,,,,,,,,,,,,,,,,,,,,,9,001,2023_Feb_06_1248,ExactRep-v3-final,2021.2.3,59.93385693837937,
,,,,,,,,98,0,98,0,,,,,,,,,,,,,,,,,,,,,,,,,,,,,,,,,,,,,,,,,,,,,,,,,,,,,717.6712400000542,None,,,,,,,,,,,,,,,,,,,,,,,,,,,,,,,,,,,season,47,99,silent,red,715.6587852998637,None,None,715.6587852998637,None,,,,,,,,,,,,,,,,,,,,,,,,,,,,,,9,001,2023_Feb_06_1248,ExactRep-v3-final,2021.2.3,59.93385693837937,
,,,,,,,,99,0,99,0,,,,,,,,,,,,,,,,,,,,,,,,,,,,,,,,,,,,,,,,,,,,,,,,,,,,,720.1902638999745,None,,,,,,,,,,,,,,,,,,,,,,,,,,,,,,,,,,,humour,39,100,silent,red,718.1793400999159,None,None,718.1793400999159,None,,,,,,,,,,,,,,,,,,,,,,,,,,,,,,9,001,2023_Feb_06_1248,ExactRep-v3-final,2021.2.3,59.93385693837937,
,,,,,,,,100,0,100,0,,,,,,,,,,,,,,,,,,,,,,,,,,,,,,,,,,,,,,,,,,,,,,,,,,,,,722.6928504998796,None,,,,,,,,,,,,,,,,,,,,,,,,,,,,,,,,,,,spirit,112,101,aloud,blue,720.6937925999518,None,None,720.6937925999518,None,,,,,,,,,,,,,,,,,,,,,,,,,,,,,,9,001,2023_Feb_06_1248,ExactRep-v3-final,2021.2.3,59.93385693837937,
,,,,,,,,101,0,101,0,,,,,,,,,,,,,,,,,,,,,,,,,,,,,,,,,,,,,,,,,,,,,,,,,,,,,725.1952833998948,None,,,,,,,,,,,,,,,,,,,,,,,,,,,,,,,,,,,author,21,102,sing,white,723.193910199916,None,None,723.193910199916,None,,,,,,,,,,,,,,,,,,,,,,,,,,,,,,9,001,2023_Feb_06_1248,ExactRep-v3-final,2021.2.3,59.93385693837937,
,,,,,,,,102,0,102,0,,,,,,,,,,,,,,,,,,,,,,,,,,,,,,,,,,,,,,,,,,,,,,,,,,,,,727.7150995999109,None,,,,,,,,,,,,,,,,,,,,,,,,,,,,,,,,,,,custom,107,103,aloud,blue,725.7042809999548,None,None,725.7042809999548,None,,,,,,,,,,,,,,,,,,,,,,,,,,,,,,9,001,2023_Feb_06_1248,ExactRep-v3-final,2021.2.3,59.93385693837937,
,,,,,,,,103,0,103,0,,,,,,,,,,,,,,,,,,,,,,,,,,,,,,,,,,,,,,,,,,,,,,,,,,,,,730.2169556999579,None,,,,,,,,,,,,,,,,,,,,,,,,,,,,,,,,,,,salary,38,104,sing,white,728.2168119000271,None,None,728.2168119000271,None,,,,,,,,,,,,,,,,,,,,,,,,,,,,,,9,001,2023_Feb_06_1248,ExactRep-v3-final,2021.2.3,59.93385693837937,
,,,,,,,,104,0,104,0,,,,,,,,,,,,,,,,,,,,,,,,,,,,,,,,,,,,,,,,,,,,,,,,,,,,,732.7194767999463,None,,,,,,,,,,,,,,,,,,,,,,,,,,,,,,,,,,,chief,61,105,silent,red,730.7191134998575,None,None,730.7191134998575,None,,,,,,,,,,,,,,,,,,,,,,,,,,,,,,9,001,2023_Feb_06_1248,ExactRep-v3-final,2021.2.3,59.93385693837937,
,,,,,,,,105,0,105,0,,,,,,,,,,,,,,,,,,,,,,,,,,,,,,,,,,,,,,,,,,,,,,,,,,,,,735.238712699851,None,,,,,,,,,,,,,,,,,,,,,,,,,,,,,,,,,,,journal,6,106,sing,white,733.2231870999094,None,None,733.2231870999094,None,,,,,,,,,,,,,,,,,,,,,,,,,,,,,,9,001,2023_Feb_06_1248,ExactRep-v3-final,2021.2.3,59.93385693837937,
,,,,,,,,106,0,106,0,,,,,,,,,,,,,,,,,,,,,,,,,,,,,,,,,,,,,,,,,,,,,,,,,,,,,737.7411881999578,None,,,,,,,,,,,,,,,,,,,,,,,,,,,,,,,,,,,fate,17,107,sing,white,735.7391129999887,None,None,735.7391129999887,None,,,,,,,,,,,,,,,,,,,,,,,,,,,,,,9,001,2023_Feb_06_1248,ExactRep-v3-final,2021.2.3,59.93385693837937,
,,,,,,,,107,0,107,0,,,,,,,,,,,,,,,,,,,,,,,,,,,,,,,,,,,,,,,,,,,,,,,,,,,,,740.2437030000146,None,,,,,,,,,,,,,,,,,,,,,,,,,,,,,,,,,,,avenue,114,108,aloud,blue,738.2422276998404,None,None,738.2422276998404,None,,,,,,,,,,,,,,,,,,,,,,,,,,,,,,9,001,2023_Feb_06_1248,ExactRep-v3-final,2021.2.3,59.93385693837937,
,,,,,,,,108,0,108,0,,,,,,,,,,,,,,,,,,,,,,,,,,,,,,,,,,,,,,,,,,,,,,,,,,,,,742.7461266999599,None,,,,,,,,,,,,,,,,,,,,,,,,,,,,,,,,,,,fact,92,109,aloud,blue,740.7447684998624,None,None,740.7447684998624,None,,,,,,,,,,,,,,,,,,,,,,,,,,,,,,9,001,2023_Feb_06_1248,ExactRep-v3-final,2021.2.3,59.93385693837937,
,,,,,,,,109,0,109,0,,,,,,,,,,,,,,,,,,,,,,,,,,,,,,,,,,,,,,,,,,,,,,,,,,,,,745.2486725999042,None,,,,,,,,,,,,,,,,,,,,,,,,,,,,,,,,,,,fortune,14,110,sing,white,743.2482451000251,None,None,743.2482451000251,None,,,,,,,,,,,,,,,,,,,,,,,,,,,,,,9,001,2023_Feb_06_1248,ExactRep-v3-final,2021.2.3,59.93385693837937,
,,,,,,,,110,0,110,0,,,,,,,,,,,,,,,,,,,,,,,,,,,,,,,,,,,,,,,,,,,,,,,,,,,,,747.7677843999118,None,,,,,,,,,,,,,,,,,,,,,,,,,,,,,,,,,,,event,84,111,aloud,blue,745.7574801999144,None,None,745.7574801999144,None,,,,,,,,,,,,,,,,,,,,,,,,,,,,,,9,001,2023_Feb_06_1248,ExactRep-v3-final,2021.2.3,59.93385693837937,
,,,,,,,,111,0,111,0,,,,,,,,,,,,,,,,,,,,,,,,,,,,,,,,,,,,,,,,,,,,,,,,,,,,,750.2703805000056,None,,,,,,,,,,,,,,,,,,,,,,,,,,,,,,,,,,,shoes,72,112,silent,red,748.2682918999344,None,None,748.2682918999344,None,,,,,,,,,,,,,,,,,,,,,,,,,,,,,,9,001,2023_Feb_06_1248,ExactRep-v3-final,2021.2.3,59.93385693837937,
,,,,,,,,112,0,112,0,,,,,,,,,,,,,,,,,,,,,,,,,,,,,,,,,,,,,,,,,,,,,,,,,,,,,752.7727938999888,None,,,,,,,,,,,,,,,,,,,,,,,,,,,,,,,,,,,grief,98,113,aloud,blue,750.7733380999416,None,None,750.7733380999416,None,,,,,,,,,,,,,,,,,,,,,,,,,,,,,,9,001,2023_Feb_06_1248,ExactRep-v3-final,2021.2.3,59.93385693837937,
,,,,,,,,113,0,113,0,,,,,,,,,,,,,,,,,,,,,,,,,,,,,,,,,,,,,,,,,,,,,,,,,,,,,755.2919910999481,None,,,,,,,,,,,,,,,,,,,,,,,,,,,,,,,,,,,virtue,63,114,silent,red,753.2863618999254,None,None,753.2863618999254,None,,,,,,,,,,,,,,,,,,,,,,,,,,,,,,9,001,2023_Feb_06_1248,ExactRep-v3-final,2021.2.3,59.93385693837937,
,,,,,,,,114,0,114,0,,,,,,,,,,,,,,,,,,,,,,,,,,,,,,,,,,,,,,,,,,,,,,,,,,,,,757.7945196998771,None,,,,,,,,,,,,,,,,,,,,,,,,,,,,,,,,,,,cattle,4,115,sing,white,755.7938583998475,None,None,755.7938583998475,None,,,,,,,,,,,,,,,,,,,,,,,,,,,,,,9,001,2023_Feb_06_1248,ExactRep-v3-final,2021.2.3,59.93385693837937,
,,,,,,,,115,0,115,0,,,,,,,,,,,,,,,,,,,,,,,,,,,,,,,,,,,,,,,,,,,,,,,,,,,,,760.2968522000592,None,,,,,,,,,,,,,,,,,,,,,,,,,,,,,,,,,,,duty,16,116,sing,white,758.2950072998647,None,None,758.2950072998647,None,,,,,,,,,,,,,,,,,,,,,,,,,,,,,,9,001,2023_Feb_06_1248,ExactRep-v3-final,2021.2.3,59.93385693837937,
,,,,,,,,116,0,116,0,,,,,,,,,,,,,,,,,,,,,,,,,,,,,,,,,,,,,,,,,,,,,,,,,,,,,762.7994867998641,None,,,,,,,,,,,,,,,,,,,,,,,,,,,,,,,,,,,leader,58,117,silent,red,760.8004314999562,None,None,760.8004314999562,None,,,,,,,,,,,,,,,,,,,,,,,,,,,,,,9,001,2023_Feb_06_1248,ExactRep-v3-final,2021.2.3,59.93385693837937,
,,,,,,,,117,0,117,0,,,,,,,,,,,,,,,,,,,,,,,,,,,,,,,,,,,,,,,,,,,,,,,,,,,,,765.3187305000611,None,,,,,,,,,,,,,,,,,,,,,,,,,,,,,,,,,,,board,46,118,silent,red,763.3083803998306,None,None,763.3083803998306,None,,,,,,,,,,,,,,,,,,,,,,,,,,,,,,9,001,2023_Feb_06_1248,ExactRep-v3-final,2021.2.3,59.93385693837937,
,,,,,,,,118,0,118,0,,,,,,,,,,,,,,,,,,,,,,,,,,,,,,,,,,,,,,,,,,,,,,,,,,,,,767.837911499897,None,,,,,,,,,,,,,,,,,,,,,,,,,,,,,,,,,,,heaven,44,119,silent,red,765.8245488000102,None,None,765.8245488000102,None,,,,,,,,,,,,,,,,,,,,,,,,,,,,,,9,001,2023_Feb_06_1248,ExactRep-v3-final,2021.2.3,59.93385693837937,
,,,,,,,,119,0,119,0,,,,,,,,,,,,,,,,,,,,,,,,,,,,,,,,,,,,,,,,,,,,,,,,,,,,,770.3570971000008,None,,,,,,,,,,,,,,,,,,,,,,,,,,,,,,,,,,,person,37,120,sing,white,768.3425131998956,None,None,768.3425131998956,None,,,,,,,,,,,,,,,,,,,,,,,,,,,,,,9,001,2023_Feb_06_1248,ExactRep-v3-final,2021.2.3,59.93385693837937,
,,,,,,,,,,,,,,,,,,,,,,,,,,,,,,,,,,,,,,,,,,,,,,,,,,,,,,,,,,,,,,,,,,,,,,,,,,,,,,,,,,,,,,,,,,,,,,,,,,,,,,,,,,,,,,770.8590808999725,None,space,8.558999300003052,780.8355155000463,None,,,,,,,,,,,,,,,,,,,,,,,,9,001,2023_Feb_06_1248,ExactRep-v3-final,2021.2.3,59.93385693837937,
,,,,,,,,,,,,,,,,,,,,,,,,,,,,,,,,,,,,,,,,,,,,,,,,,,,,,,,,,,,,,,,,,,,,,,,,,,,,,,,,,,,,,,,,,,,,,,,,,,,,,,,,,,,,,,,,,,,,789.4111369999591,None,space,29.19093230017461,799.3874937000219,None,,,,,,,,,,,,,,,,,,9,001,2023_Feb_06_1248,ExactRep-v3-final,2021.2.3,59.93385693837937,
,,,,,,,,,,,,0,0,0,0,,,,,,,,,,,,,,,,,,,,,,,,,,,,,,,,,,,,,,,,,,,,,,,,,833.2532101999968,None,,,,,,,,,,,,,,,,,,,,,,,,,,,,,,,,,,,,,,,,,,,,,,,,,,,,,,,,,priest,68,1,silent,old,yellow,829.114887899952,None,y,829.114887899952,None,"['y', 'return']","[2.2792851000558585, 4.0952256000600755]",829.114887899952,None,,,9,001,2023_Feb_06_1248,ExactRep-v3-final,2021.2.3,59.93385693837937,
,,,,,,,,,,,,1,0,1,0,,,,,,,,,,,,,,,,,,,,,,,,,,,,,,,,,,,,,,,,,,,,,,,,,836.5242657999042,None,,,,,,,,,,,,,,,,,,,,,,,,,,,,,,,,,,,,,,,,,,,,,,,,,,,,,,,,,corner,8,2,sing,old,yellow,833.7650267998688,None,y,833.7650267998688,None,"['y', 'return']","[2.0051971001084894, 2.725030899979174]",833.7650267998688,None,,,9,001,2023_Feb_06_1248,ExactRep-v3-final,2021.2.3,59.93385693837937,
,,,,,,,,,,,,2,0,2,0,,,,,,,,,,,,,,,,,,,,,,,,,,,,,,,,,,,,,,,,,,,,,,,,,839.6262616000604,None,,,,,,,,,,,,,,,,,,,,,,,,,,,,,,,,,,,,,,,,,,,,,,,,,,,,,,,,,ability,158,3,silent,new,yellow,837.0348076999653,None,n,837.0348076999653,None,"['n', 'return']","[1.7913601999171078, 2.551395900081843]",837.0348076999653,None,,,9,001,2023_Feb_06_1248,ExactRep-v3-final,2021.2.3,59.93385693837937,
,,,,,,,,,,,,3,0,3,0,,,,,,,,,,,,,,,,,,,,,,,,,,,,,,,,,,,,,,,,,,,,,,,,,844.0139714998659,None,,,,,,,,,,,,,,,,,,,,,,,,,,,,,,,,,,,,,,,,,,,,,,,,,,,,,,,,,storm,12,4,sing,old,yellow,840.1270502998959,None,n,840.1270502998959,None,"['n', 'return']","[3.0190731999464333, 3.8431102000176907]",840.1270502998959,None,,,9,001,2023_Feb_06_1248,ExactRep-v3-final,2021.2.3,59.93385693837937,
,,,,,,,,,,,,4,0,4,0,,,,,,,,,,,,,,,,,,,,,,,,,,,,,,,,,,,,,,,,,,,,,,,,,846.7845584000461,None,,,,,,,,,,,,,,,,,,,,,,,,,,,,,,,,,,,,,,,,,,,,,,,,,,,,,,,,,wine,101,5,aloud,old,yellow,844.5278972999658,None,y,844.5278972999658,None,"['y', 'return']","[1.5782462998759001, 2.2103063999675214]",844.5278972999658,None,,,9,001,2023_Feb_06_1248,ExactRep-v3-final,2021.2.3,59.93385693837937,
,,,,,,,,,,,,5,0,5,0,,,,,,,,,,,,,,,,,,,,,,,,,,,,,,,,,,,,,,,,,,,,,,,,,849.6698251999915,None,,,,,,,,,,,,,,,,,,,,,,,,,,,,,,,,,,,,,,,,,,,,,,,,,,,,,,,,,teacher,117,6,aloud,old,yellow,847.2956743000541,None,y,847.2956743000541,None,"['y', 'return']","[1.6185355000197887, 2.3385145000647753]",847.2956743000541,None,,,9,001,2023_Feb_06_1248,ExactRep-v3-final,2021.2.3,59.93385693837937,
,,,,,,,,,,,,6,0,6,0,,,,,,,,,,,,,,,,,,,,,,,,,,,,,,,,,,,,,,,,,,,,,,,,,852.3556230999529,None,,,,,,,,,,,,,,,,,,,,,,,,,,,,,,,,,,,,,,,,,,,,,,,,,,,,,,,,,palace,60,7,silent,old,yellow,850.1790984000545,None,n,850.1790984000545,None,"['n', 'return']","[1.495034599909559, 2.1350988999474794]",850.1790984000545,None,,,9,001,2023_Feb_06_1248,ExactRep-v3-final,2021.2.3,59.93385693837937,
,,,,,,,,,,,,7,0,7,0,,,,,,,,,,,,,,,,,,,,,,,,,,,,,,,,,,,,,,,,,,,,,,,,,854.9416110999882,None,,,,,,,,,,,,,,,,,,,,,,,,,,,,,,,,,,,,,,,,,,,,,,,,,,,,,,,,,soul,27,8,sing,old,yellow,852.8693927000277,None,y,852.8693927000277,None,"['y', 'return']","[1.3568170999642462, 2.0369574001524597]",852.8693927000277,None,,,9,001,2023_Feb_06_1248,ExactRep-v3-final,2021.2.3,59.93385693837937,
,,,,,,,,,,,,8,0,8,0,,,,,,,,,,,,,,,,,,,,,,,,,,,,,,,,,,,,,,,,,,,,,,,,,858.9288327000104,None,,,,,,,,,,,,,,,,,,,,,,,,,,,,,,,,,,,,,,,,,,,,,,,,,,,,,,,,,speech,81,9,aloud,old,yellow,855.4546518998686,None,y,855.4546518998686,None,"['y', 'return']","[2.6037022001110017, 3.4275386000517756]",855.4546518998686,None,,,9,001,2023_Feb_06_1248,ExactRep-v3-final,2021.2.3,59.93385693837937,
,,,,,,,,,,,,9,0,9,0,,,,,,,,,,,,,,,,,,,,,,,,,,,,,,,,,,,,,,,,,,,,,,,,,861.5815077999141,None,,,,,,,,,,,,,,,,,,,,,,,,,,,,,,,,,,,,,,,,,,,,,,,,,,,,,,,,,hide,208,10,aloud,new,yellow,859.4396597000305,None,n,859.4396597000305,None,"['n', 'return']","[1.4506379999220371, 2.106522899819538]",859.4396597000305,None,,,9,001,2023_Feb_06_1248,ExactRep-v3-final,2021.2.3,59.93385693837937,
,,,,,,,,,,,,10,0,10,0,,,,,,,,,,,,,,,,,,,,,,,,,,,,,,,,,,,,,,,,,,,,,,,,,864.3186679000501,None,,,,,,,,,,,,,,,,,,,,,,,,,,,,,,,,,,,,,,,,,,,,,,,,,,,,,,,,,length,106,11,aloud,old,yellow,862.0902428999543,None,y,862.0902428999543,None,"['y', 'return']","[1.3041709000244737, 2.183946499833837]",862.0902428999543,None,,,9,001,2023_Feb_06_1248,ExactRep-v3-final,2021.2.3,59.93385693837937,
,,,,,,,,,,,,11,0,11,0,,,,,,,,,,,,,,,,,,,,,,,,,,,,,,,,,,,,,,,,,,,,,,,,,867.7880203998648,None,,,,,,,,,,,,,,,,,,,,,,,,,,,,,,,,,,,,,,,,,,,,,,,,,,,,,,,,,time,164,12,aloud,new,yellow,864.8266189999413,None,n,864.8266189999413,None,"['n', 'return']","[2.087720400188118, 2.927616100059822]",864.8266189999413,None,,,9,001,2023_Feb_06_1248,ExactRep-v3-final,2021.2.3,59.93385693837937,
,,,,,,,,,,,,12,0,12,0,,,,,,,,,,,,,,,,,,,,,,,,,,,,,,,,,,,,,,,,,,,,,,,,,870.4570545000024,None,,,,,,,,,,,,,,,,,,,,,,,,,,,,,,,,,,,,,,,,,,,,,,,,,,,,,,,,,vessel,227,13,sing,new,yellow,868.2965051999781,None,n,868.2965051999781,None,"['n', 'return']","[1.3297602999955416, 2.121657900046557]",868.2965051999781,None,,,9,001,2023_Feb_06_1248,ExactRep-v3-final,2021.2.3,59.93385693837937,
,,,,,,,,,,,,13,0,13,0,,,,,,,,,,,,,,,,,,,,,,,,,,,,,,,,,,,,,,,,,,,,,,,,,873.5613376998808,None,,,,,,,,,,,,,,,,,,,,,,,,,,,,,,,,,,,,,,,,,,,,,,,,,,,,,,,,,science,130,14,silent,new,yellow,870.967714099912,None,n,870.967714099912,None,"['n', 'return']","[1.7064080000855029, 2.5544535999652]",870.967714099912,None,,,9,001,2023_Feb_06_1248,ExactRep-v3-final,2021.2.3,59.93385693837937,
,,,,,,,,,,,,14,0,14,0,,,,,,,,,,,,,,,,,,,,,,,,,,,,,,,,,,,,,,,,,,,,,,,,,876.096122100018,None,,,,,,,,,,,,,,,,,,,,,,,,,,,,,,,,,,,,,,,,,,,,,,,,,,,,,,,,,present,202,15,aloud,new,yellow,874.0627945999149,None,y,874.0627945999149,None,"['y', 'return']","[1.3155618000309914, 1.9875195999629796]",874.0627945999149,None,,,9,001,2023_Feb_06_1248,ExactRep-v3-final,2021.2.3,59.93385693837937,
,,,,,,,,,,,,15,0,15,0,,,,,,,,,,,,,,,,,,,,,,,,,,,,,,,,,,,,,,,,,,,,,,,,,879.4505094999913,None,,,,,,,,,,,,,,,,,,,,,,,,,,,,,,,,,,,,,,,,,,,,,,,,,,,,,,,,,market,186,16,aloud,new,yellow,876.6036548998673,None,n,876.6036548998673,None,"['n', 'return']","[1.8787567999679595, 2.79859620006755]",876.6036548998673,None,,,9,001,2023_Feb_06_1248,ExactRep-v3-final,2021.2.3,59.93385693837937,
,,,,,,,,,,,,16,0,16,0,,,,,,,,,,,,,,,,,,,,,,,,,,,,,,,,,,,,,,,,,,,,,,,,,882.2692282998469,None,,,,,,,,,,,,,,,,,,,,,,,,,,,,,,,,,,,,,,,,,,,,,,,,,,,,,,,,,meadow,177,17,sing,new,yellow,879.9587371998932,None,n,879.9587371998932,None,"['n', 'return']","[1.4995384998619556, 2.2753887998405844]",879.9587371998932,None,,,9,001,2023_Feb_06_1248,ExactRep-v3-final,2021.2.3,59.93385693837937,
,,,,,,,,,,,,17,0,17,0,,,,,,,,,,,,,,,,,,,,,,,,,,,,,,,,,,,,,,,,,,,,,,,,,884.8381017998327,None,,,,,,,,,,,,,,,,,,,,,,,,,,,,,,,,,,,,,,,,,,,,,,,,,,,,,,,,,pole,54,18,silent,old,yellow,882.7800667998381,None,y,882.7800667998381,None,"['y', 'return']","[1.2300183000043035, 2.0142888999544084]",882.7800667998381,None,,,9,001,2023_Feb_06_1248,ExactRep-v3-final,2021.2.3,59.93385693837937,
,,,,,,,,,,,,18,0,18,0,,,,,,,,,,,,,,,,,,,,,,,,,,,,,,,,,,,,,,,,,,,,,,,,,887.5074634000193,None,,,,,,,,,,,,,,,,,,,,,,,,,,,,,,,,,,,,,,,,,,,,,,,,,,,,,,,,,car,189,19,sing,new,yellow,885.3470989998896,None,n,885.3470989998896,None,"['n', 'return']","[1.4391210000030696, 2.1271160999312997]",885.3470989998896,None,,,9,001,2023_Feb_06_1248,ExactRep-v3-final,2021.2.3,59.93385693837937,
,,,,,,,,,,,,19,0,19,0,,,,,,,,,,,,,,,,,,,,,,,,,,,,,,,,,,,,,,,,,,,,,,,,,890.4437710000202,None,,,,,,,,,,,,,,,,,,,,,,,,,,,,,,,,,,,,,,,,,,,,,,,,,,,,,,,,,world,0,20,sing,old,yellow,888.0174600000028,None,y,888.0174600000028,None,"['y', 'return']","[1.480896000051871, 2.384778100065887]",888.0174600000028,None,,,9,001,2023_Feb_06_1248,ExactRep-v3-final,2021.2.3,59.93385693837937,
,,,,,,,,,,,,20,0,20,0,,,,,,,,,,,,,,,,,,,,,,,,,,,,,,,,,,,,,,,,,,,,,,,,,892.8795316999312,None,,,,,,,,,,,,,,,,,,,,,,,,,,,,,,,,,,,,,,,,,,,,,,,,,,,,,,,,,diamond,211,21,sing,new,yellow,890.9568189999554,None,n,890.9568189999554,None,"['n', 'return']","[1.1892383999656886, 1.885376000078395]",890.9568189999554,None,,,9,001,2023_Feb_06_1248,ExactRep-v3-final,2021.2.3,59.93385693837937,
,,,,,,,,,,,,21,0,21,0,,,,,,,,,,,,,,,,,,,,,,,,,,,,,,,,,,,,,,,,,,,,,,,,,895.5988878000062,None,,,,,,,,,,,,,,,,,,,,,,,,,,,,,,,,,,,,,,,,,,,,,,,,,,,,,,,,,nail,176,22,aloud,new,yellow,893.3877450998407,None,n,893.3877450998407,None,"['n', 'return']","[1.3264393000863492, 2.1664347001351416]",893.3877450998407,None,,,9,001,2023_Feb_06_1248,ExactRep-v3-final,2021.2.3,59.93385693837937,
,,,,,,,,,,,,22,0,22,0,,,,,,,,,,,,,,,,,,,,,,,,,,,,,,,,,,,,,,,,,,,,,,,,,898.1682465998456,None,,,,,,,,,,,,,,,,,,,,,,,,,,,,,,,,,,,,,,,,,,,,,,,,,,,,,,,,,library,79,23,sing,old,yellow,896.1121948999353,None,y,896.1121948999353,None,"['y', 'return']","[1.2499880001414567, 2.017989299958572]",896.1121948999353,None,,,9,001,2023_Feb_06_1248,ExactRep-v3-final,2021.2.3,59.93385693837937,
,,,,,,,,,,,,23,0,23,0,,,,,,,,,,,,,,,,,,,,,,,,,,,,,,,,,,,,,,,,,,,,,,,,,900.6883330999408,None,,,,,,,,,,,,,,,,,,,,,,,,,,,,,,,,,,,,,,,,,,,,,,,,,,,,,,,,,bird,206,24,aloud,new,yellow,898.6762404998299,None,n,898.6762404998299,None,"['n', 'return']","[1.213941500056535, 1.9659696999005973]",898.6762404998299,None,,,9,001,2023_Feb_06_1248,ExactRep-v3-final,2021.2.3,59.93385693837937,
,,,,,,,,,,,,24,0,24,0,,,,,,,,,,,,,,,,,,,,,,,,,,,,,,,,,,,,,,,,,,,,,,,,,904.040452899877,None,,,,,,,,,,,,,,,,,,,,,,,,,,,,,,,,,,,,,,,,,,,,,,,,,,,,,,,,,steam,93,25,aloud,old,yellow,901.197029999923,None,y,901.197029999923,None,"['y', 'return']","[2.2051427999977022, 2.805158199975267]",901.197029999923,None,,,9,001,2023_Feb_06_1248,ExactRep-v3-final,2021.2.3,59.93385693837937,
,,,,,,,,,,,,25,0,25,0,,,,,,,,,,,,,,,,,,,,,,,,,,,,,,,,,,,,,,,,,,,,,,,,,906.4430120000616,None,,,,,,,,,,,,,,,,,,,,,,,,,,,,,,,,,,,,,,,,,,,,,,,,,,,,,,,,,product,223,26,sing,new,yellow,904.5590001000091,None,n,904.5590001000091,None,"['n', 'return']","[1.1551983999088407, 1.8511355998925865]",904.5590001000091,None,,,9,001,2023_Feb_06_1248,ExactRep-v3-final,2021.2.3,59.93385693837937,
,,,,,,,,,,,,26,0,26,0,,,,,,,,,,,,,,,,,,,,,,,,,,,,,,,,,,,,,,,,,,,,,,,,,909.3792506000027,None,,,,,,,,,,,,,,,,,,,,,,,,,,,,,,,,,,,,,,,,,,,,,,,,,,,,,,,,,iron,197,27,sing,new,yellow,906.9512201999314,None,n,906.9512201999314,None,"['n', 'return']","[1.346948100021109, 2.387000000104308]",906.9512201999314,None,,,9,001,2023_Feb_06_1248,ExactRep-v3-final,2021.2.3,59.93385693837937,
,,,,,,,,,,,,27,0,27,0,,,,,,,,,,,,,,,,,,,,,,,,,,,,,,,,,,,,,,,,,,,,,,,,,912.6336733000353,None,,,,,,,,,,,,,,,,,,,,,,,,,,,,,,,,,,,,,,,,,,,,,,,,,,,,,,,,,journal,6,28,sing,old,yellow,909.8918128998484,None,y,909.8918128998484,None,"['y', 'return']","[1.7663612000178546, 2.7023684000596404]",909.8918128998484,None,,,9,001,2023_Feb_06_1248,ExactRep-v3-final,2021.2.3,59.93385693837937,
,,,,,,,,,,,,28,0,28,0,,,,,,,,,,,,,,,,,,,,,,,,,,,,,,,,,,,,,,,,,,,,,,,,,915.3685893998481,None,,,,,,,,,,,,,,,,,,,,,,,,,,,,,,,,,,,,,,,,,,,,,,,,,,,,,,,,,memory,125,29,silent,new,yellow,913.1450743998867,None,n,913.1450743998867,None,"['n', 'return']","[1.5210287999361753, 2.1771647001150995]",913.1450743998867,None,,,9,001,2023_Feb_06_1248,ExactRep-v3-final,2021.2.3,59.93385693837937,
,,,,,,,,,,,,29,0,29,0,,,,,,,,,,,,,,,,,,,,,,,,,,,,,,,,,,,,,,,,,,,,,,,,,918.2055388998706,None,,,,,,,,,,,,,,,,,,,,,,,,,,,,,,,,,,,,,,,,,,,,,,,,,,,,,,,,,fun,157,30,silent,new,yellow,915.8749956998508,None,n,915.8749956998508,None,"['n', 'return']","[1.4393720000516623, 2.295167400036007]",915.8749956998508,None,,,9,001,2023_Feb_06_1248,ExactRep-v3-final,2021.2.3,59.93385693837937,
,,,,,,,,,,,,30,0,30,0,,,,,,,,,,,,,,,,,,,,,,,,,,,,,,,,,,,,,,,,,,,,,,,,,921.0754724000581,None,,,,,,,,,,,,,,,,,,,,,,,,,,,,,,,,,,,,,,,,,,,,,,,,,,,,,,,,,amount,32,31,sing,old,yellow,918.7169172998983,None,n,918.7169172998983,None,"['n', 'return']","[1.5412252999376506, 2.3092964999377728]",918.7169172998983,None,,,9,001,2023_Feb_06_1248,ExactRep-v3-final,2021.2.3,59.93385693837937,
,,,,,,,,,,,,31,0,31,0,,,,,,,,,,,,,,,,,,,,,,,,,,,,,,,,,,,,,,,,,,,,,,,,,923.8937772999052,None,,,,,,,,,,,,,,,,,,,,,,,,,,,,,,,,,,,,,,,,,,,,,,,,,,,,,,,,,lord,193,32,sing,new,yellow,921.5829618000425,None,n,921.5829618000425,None,"['n', 'return']","[1.5632332998793572, 2.2672062998171896]",921.5829618000425,None,,,9,001,2023_Feb_06_1248,ExactRep-v3-final,2021.2.3,59.93385693837937,
,,,,,,,,,,,,32,0,32,0,,,,,,,,,,,,,,,,,,,,,,,,,,,,,,,,,,,,,,,,,,,,,,,,,926.8634281000122,None,,,,,,,,,,,,,,,,,,,,,,,,,,,,,,,,,,,,,,,,,,,,,,,,,,,,,,,,,woods,185,33,sing,new,yellow,924.402871399885,None,y,924.402871399885,None,"['y', 'return']","[1.7113240999169648, 2.42334400000982]",924.402871399885,None,,,9,001,2023_Feb_06_1248,ExactRep-v3-final,2021.2.3,59.93385693837937,
,,,,,,,,,,,,33,0,33,0,,,,,,,,,,,,,,,,,,,,,,,,,,,,,,,,,,,,,,,,,,,,,,,,,931.1510292999446,None,,,,,,,,,,,,,,,,,,,,,,,,,,,,,,,,,,,,,,,,,,,,,,,,,,,,,,,,,safety,187,34,sing,new,yellow,927.3725066999905,None,n,927.3725066999905,None,"['n', 'return']","[3.0536194001324475, 3.7417217001784593]",927.3725066999905,None,,,9,001,2023_Feb_06_1248,ExactRep-v3-final,2021.2.3,59.93385693837937,
,,,,,,,,,,,,34,0,34,0,,,,,,,,,,,,,,,,,,,,,,,,,,,,,,,,,,,,,,,,,,,,,,,,,934.0216550000478,None,,,,,,,,,,,,,,,,,,,,,,,,,,,,,,,,,,,,,,,,,,,,,,,,,,,,,,,,,street,217,35,sing,new,yellow,931.6573699000292,None,y,931.6573699000292,None,"['y', 'return']","[1.6649923999793828, 2.320922499988228]",931.6573699000292,None,,,9,001,2023_Feb_06_1248,ExactRep-v3-final,2021.2.3,59.93385693837937,
,,,,,,,,,,,,35,0,35,0,,,,,,,,,,,,,,,,,,,,,,,,,,,,,,,,,,,,,,,,,,,,,,,,,938.7918694999535,None,,,,,,,,,,,,,,,,,,,,,,,,,,,,,,,,,,,,,,,,,,,,,,,,,,,,,,,,,moral,198,36,aloud,new,yellow,934.5302913000342,None,n,934.5302913000342,None,"['n', 'return']","[3.4158940999768674, 4.2238807999528944]",934.5302913000342,None,,,9,001,2023_Feb_06_1248,ExactRep-v3-final,2021.2.3,59.93385693837937,
,,,,,,,,,,,,36,0,36,0,,,,,,,,,,,,,,,,,,,,,,,,,,,,,,,,,,,,,,,,,,,,,,,,,941.5780996000394,None,,,,,,,,,,,,,,,,,,,,,,,,,,,,,,,,,,,,,,,,,,,,,,,,,,,,,,,,,dust,167,37,sing,new,yellow,939.3039154999424,None,y,939.3039154999424,None,"['y', 'return']","[1.4982824998442084, 2.234357599867508]",939.3039154999424,None,,,9,001,2023_Feb_06_1248,ExactRep-v3-final,2021.2.3,59.93385693837937,
,,,,,,,,,,,,37,0,37,0,,,,,,,,,,,,,,,,,,,,,,,,,,,,,,,,,,,,,,,,,,,,,,,,,944.1473148998339,None,,,,,,,,,,,,,,,,,,,,,,,,,,,,,,,,,,,,,,,,,,,,,,,,,,,,,,,,,colony,26,38,sing,old,yellow,942.0915991000365,None,y,942.0915991000365,None,"['y', 'return']","[1.3267154998611659, 2.014706199988723]",942.0915991000365,None,,,9,001,2023_Feb_06_1248,ExactRep-v3-final,2021.2.3,59.93385693837937,
,,,,,,,,,,,,38,0,38,0,,,,,,,,,,,,,,,,,,,,,,,,,,,,,,,,,,,,,,,,,,,,,,,,,946.8667176999152,None,,,,,,,,,,,,,,,,,,,,,,,,,,,,,,,,,,,,,,,,,,,,,,,,,,,,,,,,,skin,23,39,sing,old,yellow,944.6561789000407,None,n,944.6561789000407,None,"['n', 'return']","[1.4819698000792414, 2.1699524000287056]",944.6561789000407,None,,,9,001,2023_Feb_06_1248,ExactRep-v3-final,2021.2.3,59.93385693837937,
,,,,,,,,,,,,39,0,39,0,,,,,,,,,,,,,,,,,,,,,,,,,,,,,,,,,,,,,,,,,,,,,,,,,949.2691156999208,None,,,,,,,,,,,,,,,,,,,,,,,,,,,,,,,,,,,,,,,,,,,,,,,,,,,,,,,,,breast,119,40,aloud,old,yellow,947.3728584998753,None,y,947.3728584998753,None,"['y', 'return']","[1.1653788997791708, 1.8613118999637663]",947.3728584998753,None,,,9,001,2023_Feb_06_1248,ExactRep-v3-final,2021.2.3,59.93385693837937,
,,,,,,,,,,,,40,0,40,0,,,,,,,,,,,,,,,,,,,,,,,,,,,,,,,,,,,,,,,,,,,,,,,,,951.7215608998667,None,,,,,,,,,,,,,,,,,,,,,,,,,,,,,,,,,,,,,,,,,,,,,,,,,,,,,,,,,bowl,19,41,sing,old,yellow,949.777996199904,None,y,949.777996199904,None,"['y', 'return']","[1.2245243000797927, 1.904181499965489]",949.777996199904,None,,,9,001,2023_Feb_06_1248,ExactRep-v3-final,2021.2.3,59.93385693837937,
,,,,,,,,,,,,41,0,41,0,,,,,,,,,,,,,,,,,,,,,,,,,,,,,,,,,,,,,,,,,,,,,,,,,954.3408576999791,None,,,,,,,,,,,,,,,,,,,,,,,,,,,,,,,,,,,,,,,,,,,,,,,,,,,,,,,,,cost,122,42,silent,new,yellow,952.226456000004,None,n,952.226456000004,None,"['n', 'return']","[1.391717900056392, 2.079688100144267]",952.226456000004,None,,,9,001,2023_Feb_06_1248,ExactRep-v3-final,2021.2.3,59.93385693837937,
,,,,,,,,,,,,42,0,42,0,,,,,,,,,,,,,,,,,,,,,,,,,,,,,,,,,,,,,,,,,,,,,,,,,956.9601203999482,None,,,,,,,,,,,,,,,,,,,,,,,,,,,,,,,,,,,,,,,,,,,,,,,,,,,,,,,,,mother,90,43,aloud,old,yellow,954.8497901998926,None,n,954.8497901998926,None,"['n', 'return']","[1.3204524999018759, 2.064485599985346]",954.8497901998926,None,,,9,001,2023_Feb_06_1248,ExactRep-v3-final,2021.2.3,59.93385693837937,
,,,,,,,,,,,,43,0,43,0,,,,,,,,,,,,,,,,,,,,,,,,,,,,,,,,,,,,,,,,,,,,,,,,,959.7463173000142,None,,,,,,,,,,,,,,,,,,,,,,,,,,,,,,,,,,,,,,,,,,,,,,,,,,,,,,,,,officer,120,44,silent,new,yellow,957.4709654999897,None,n,957.4709654999897,None,"['n', 'return']","[1.499186399858445, 2.2352131998632103]",957.4709654999897,None,,,9,001,2023_Feb_06_1248,ExactRep-v3-final,2021.2.3,59.93385693837937,
,,,,,,,,,,,,44,0,44,0,,,,,,,,,,,,,,,,,,,,,,,,,,,,,,,,,,,,,,,,,,,,,,,,,962.9328054999933,None,,,,,,,,,,,,,,,,,,,,,,,,,,,,,,,,,,,,,,,,,,,,,,,,,,,,,,,,,cash,140,45,silent,new,yellow,960.255451399833,None,n,960.255451399833,None,"['n', 'return']","[1.4349392000585794, 2.6426661000587046]",960.255451399833,None,,,9,001,2023_Feb_06_1248,ExactRep-v3-final,2021.2.3,59.93385693837937,
,,,,,,,,,,,,45,0,45,0,,,,,,,,,,,,,,,,,,,,,,,,,,,,,,,,,,,,,,,,,,,,,,,,,967.5538757999893,None,,,,,,,,,,,,,,,,,,,,,,,,,,,,,,,,,,,,,,,,,,,,,,,,,,,,,,,,,square,196,46,aloud,new,yellow,963.4436726998538,None,y,963.4436726998538,None,"['y', 'return']","[3.4224801999516785, 4.070575000019744]",963.4436726998538,None,,,9,001,2023_Feb_06_1248,ExactRep-v3-final,2021.2.3,59.93385693837937,
,,,,,,,,,,,,46,0,46,0,,,,,,,,,,,,,,,,,,,,,,,,,,,,,,,,,,,,,,,,,,,,,,,,,971.4755483998451,None,,,,,,,,,,,,,,,,,,,,,,,,,,,,,,,,,,,,,,,,,,,,,,,,,,,,,,,,,pipe,190,47,aloud,new,yellow,968.0623301998712,None,y,968.0623301998712,None,"['y', 'return']","[2.6918430000077933, 3.372044099960476]",968.0623301998712,None,,,9,001,2023_Feb_06_1248,ExactRep-v3-final,2021.2.3,59.93385693837937,
,,,,,,,,,,,,47,0,47,0,,,,,,,,,,,,,,,,,,,,,,,,,,,,,,,,,,,,,,,,,,,,,,,,,975.6287998999469,None,,,,,,,,,,,,,,,,,,,,,,,,,,,,,,,,,,,,,,,,,,,,,,,,,,,,,,,,,hour,49,48,silent,old,yellow,971.9840156000573,None,n,971.9840156000573,None,"['n', 'return']","[2.8661192001309246, 3.6101556001231074]",971.9840156000573,None,,,9,001,2023_Feb_06_1248,ExactRep-v3-final,2021.2.3,59.93385693837937,
,,,,,,,,,,,,48,0,48,0,,,,,,,,,,,,,,,,,,,,,,,,,,,,,,,,,,,,,,,,,,,,,,,,,978.5481685998384,None,,,,,,,,,,,,,,,,,,,,,,,,,,,,,,,,,,,,,,,,,,,,,,,,,,,,,,,,,power,129,49,silent,new,yellow,976.1381599998567,None,n,976.1381599998567,None,"['n', 'return']","[1.6560249999165535, 2.3760067999828607]",976.1381599998567,None,,,9,001,2023_Feb_06_1248,ExactRep-v3-final,2021.2.3,59.93385693837937,
,,,,,,,,,,,,49,0,49,0,,,,,,,,,,,,,,,,,,,,,,,,,,,,,,,,,,,,,,,,,,,,,,,,,981.6681625000201,None,,,,,,,,,,,,,,,,,,,,,,,,,,,,,,,,,,,,,,,,,,,,,,,,,,,,,,,,,justice,78,50,silent,old,yellow,979.0593415999319,None,n,979.0593415999319,None,"['n', 'return']","[1.566865500062704, 2.5748147000558674]",979.0593415999319,None,,,9,001,2023_Feb_06_1248,ExactRep-v3-final,2021.2.3,59.93385693837937,
,,,,,,,,,,,,50,0,50,0,,,,,,,,,,,,,,,,,,,,,,,,,,,,,,,,,,,,,,,,,,,,,,,,,985.7221967000514,None,,,,,,,,,,,,,,,,,,,,,,,,,,,,,,,,,,,,,,,,,,,,,,,,,,,,,,,,,dollar,154,51,silent,new,yellow,982.1780159999616,None,n,982.1780159999616,None,"['n', 'return']","[2.83232369995676, 3.496393600013107]",982.1780159999616,None,,,9,001,2023_Feb_06_1248,ExactRep-v3-final,2021.2.3,59.93385693837937,
,,,,,,,,,,,,51,0,51,0,,,,,,,,,,,,,,,,,,,,,,,,,,,,,,,,,,,,,,,,,,,,,,,,,988.9254707000218,None,,,,,,,,,,,,,,,,,,,,,,,,,,,,,,,,,,,,,,,,,,,,,,,,,,,,,,,,,child,136,52,silent,new,yellow,986.228709799936,None,n,986.228709799936,None,"['n', 'return']","[1.7415110999718308, 2.6614840000402182]",986.228709799936,None,,,9,001,2023_Feb_06_1248,ExactRep-v3-final,2021.2.3,59.93385693837937,
,,,,,,,,,,,,52,0,52,0,,,,,,,,,,,,,,,,,,,,,,,,,,,,,,,,,,,,,,,,,,,,,,,,,991.3945650998503,None,,,,,,,,,,,,,,,,,,,,,,,,,,,,,,,,,,,,,,,,,,,,,,,,,,,,,,,,,month,132,53,silent,new,yellow,989.433159200009,None,y,989.433159200009,None,"['y', 'return']","[1.2331984001211822, 1.9211379999760538]",989.433159200009,None,,,9,001,2023_Feb_06_1248,ExactRep-v3-final,2021.2.3,59.93385693837937,
,,,,,,,,,,,,53,0,53,0,,,,,,,,,,,,,,,,,,,,,,,,,,,,,,,,,,,,,,,,,,,,,,,,,993.947082299972,None,,,,,,,,,,,,,,,,,,,,,,,,,,,,,,,,,,,,,,,,,,,,,,,,,,,,,,,,,poet,135,54,silent,new,yellow,991.9056748999283,None,n,991.9056748999283,None,"['n', 'return']","[1.2723723000381142, 2.0005447999574244]",991.9056748999283,None,,,9,001,2023_Feb_06_1248,ExactRep-v3-final,2021.2.3,59.93385693837937,
,,,,,,,,,,,,54,0,54,0,,,,,,,,,,,,,,,,,,,,,,,,,,,,,,,,,,,,,,,,,,,,,,,,,996.5997534999624,None,,,,,,,,,,,,,,,,,,,,,,,,,,,,,,,,,,,,,,,,,,,,,,,,,,,,,,,,,door,24,55,sing,old,yellow,994.4596022998448,None,y,994.4596022998448,None,"['y', 'return']","[1.438516000052914, 2.102557900128886]",994.4596022998448,None,,,9,001,2023_Feb_06_1248,ExactRep-v3-final,2021.2.3,59.93385693837937,
,,,,,,,,,,,,55,0,55,0,,,,,,,,,,,,,,,,,,,,,,,,,,,,,,,,,,,,,,,,,,,,,,,,,999.1857245999854,None,,,,,,,,,,,,,,,,,,,,,,,,,,,,,,,,,,,,,,,,,,,,,,,,,,,,,,,,,charm,71,56,silent,old,yellow,997.1089238000568,None,n,997.1089238000568,None,"['n', 'return']","[1.3092618000227958, 2.037298500072211]",997.1089238000568,None,,,9,001,2023_Feb_06_1248,ExactRep-v3-final,2021.2.3,59.93385693837937,
,,,,,,,,,,,,56,0,56,0,,,,,,,,,,,,,,,,,,,,,,,,,,,,,,,,,,,,,,,,,,,,,,,,,1001.8383050998673,None,,,,,,,,,,,,,,,,,,,,,,,,,,,,,,,,,,,,,,,,,,,,,,,,,,,,,,,,,honour,233,57,sing,new,yellow,999.6961560999043,None,n,999.6961560999043,None,"['n', 'return']","[1.3701140000484884, 2.098018200136721]",999.6961560999043,None,,,9,001,2023_Feb_06_1248,ExactRep-v3-final,2021.2.3,59.93385693837937,
,,,,,,,,,,,,57,0,57,0,,,,,,,,,,,,,,,,,,,,,,,,,,,,,,,,,,,,,,,,,,,,,,,,,1004.2073419999797,None,,,,,,,,,,,,,,,,,,,,,,,,,,,,,,,,,,,,,,,,,,,,,,,,,,,,,,,,,village,207,58,sing,new,yellow,1002.3451681998558,None,y,1002.3451681998558,None,"['y', 'return']","[1.145166500005871, 1.8250711997970939]",1002.3451681998558,None,,,9,001,2023_Feb_06_1248,ExactRep-v3-final,2021.2.3,59.93385693837937,
,,,,,,,,,,,,58,0,58,0,,,,,,,,,,,,,,,,,,,,,,,,,,,,,,,,,,,,,,,,,,,,,,,,,1006.6264241999015,None,,,,,,,,,,,,,,,,,,,,,,,,,,,,,,,,,,,,,,,,,,,,,,,,,,,,,,,,,wife,230,59,aloud,new,yellow,1004.7287167999893,None,n,1004.7287167999893,None,"['n', 'return']","[1.2654948998242617, 1.8495524998288602]",1004.7287167999893,None,,,9,001,2023_Feb_06_1248,ExactRep-v3-final,2021.2.3,59.93385693837937,
,,,,,,,,,,,,59,0,59,0,,,,,,,,,,,,,,,,,,,,,,,,,,,,,,,,,,,,,,,,,,,,,,,,,1009.195661699865,None,,,,,,,,,,,,,,,,,,,,,,,,,,,,,,,,,,,,,,,,,,,,,,,,,,,,,,,,,murder,172,60,aloud,new,yellow,1007.134403700009,None,n,1007.134403700009,None,"['n', 'return']","[1.24383409996517, 2.0197924999520183]",1007.134403700009,None,,,9,001,2023_Feb_06_1248,ExactRep-v3-final,2021.2.3,59.93385693837937,
,,,,,,,,,,,,60,0,60,0,,,,,,,,,,,,,,,,,,,,,,,,,,,,,,,,,,,,,,,,,,,,,,,,,1011.848313299939,None,,,,,,,,,,,,,,,,,,,,,,,,,,,,,,,,,,,,,,,,,,,,,,,,,,,,,,,,,blood,201,61,sing,new,yellow,1009.7079290000256,None,n,1009.7079290000256,None,"['n', 'return']","[1.5102873002178967, 2.09432590007782]",1009.7079290000256,None,,,9,001,2023_Feb_06_1248,ExactRep-v3-final,2021.2.3,59.93385693837937,
,,,,,,,,,,,,61,0,61,0,,,,,,,,,,,,,,,,,,,,,,,,,,,,,,,,,,,,,,,,,,,,,,,,,1014.868012699997,None,,,,,,,,,,,,,,,,,,,,,,,,,,,,,,,,,,,,,,,,,,,,,,,,,,,,,,,,,plain,224,62,aloud,new,yellow,1012.363206199836,None,y,1012.363206199836,None,"['y', 'return']","[1.3751060999929905, 2.462964199949056]",1012.363206199836,None,,,9,001,2023_Feb_06_1248,ExactRep-v3-final,2021.2.3,59.93385693837937,
,,,,,,,,,,,,62,0,62,0,,,,,,,,,,,,,,,,,,,,,,,,,,,,,,,,,,,,,,,,,,,,,,,,,1017.9041508999653,None,,,,,,,,,,,,,,,,,,,,,,,,,,,,,,,,,,,,,,,,,,,,,,,,,,,,,,,,,fact,92,63,aloud,old,yellow,1015.3769063998479,None,n,1015.3769063998479,None,"['n', 'return']","[1.8573678999673575, 2.489335000049323]",1015.3769063998479,None,,,9,001,2023_Feb_06_1248,ExactRep-v3-final,2021.2.3,59.93385693837937,
,,,,,,,,,,,,63,0,63,0,,,,,,,,,,,,,,,,,,,,,,,,,,,,,,,,,,,,,,,,,,,,,,,,,1021.144256999949,None,,,,,,,,,,,,,,,,,,,,,,,,,,,,,,,,,,,,,,,,,,,,,,,,,,,,,,,,,leader,58,64,silent,old,yellow,1018.4082014998421,None,n,1018.4082014998421,None,"['n', 'return']","[2.065956800011918, 2.697944500017911]",1018.4082014998421,None,,,9,001,2023_Feb_06_1248,ExactRep-v3-final,2021.2.3,59.93385693837937,
,,,,,,,,,,,,64,0,64,0,,,,,,,,,,,,,,,,,,,,,,,,,,,,,,,,,,,,,,,,,,,,,,,,,1024.1940217998344,None,,,,,,,,,,,,,,,,,,,,,,,,,,,,,,,,,,,,,,,,,,,,,,,,,,,,,,,,,beast,134,65,silent,new,yellow,1021.6668773998972,None,n,1021.6668773998972,None,"['n', 'return']","[1.7834588000550866, 2.479366100160405]",1021.6668773998972,None,,,9,001,2023_Feb_06_1248,ExactRep-v3-final,2021.2.3,59.93385693837937,
,,,,,,,,,,,,65,0,65,0,,,,,,,,,,,,,,,,,,,,,,,,,,,,,,,,,,,,,,,,,,,,,,,,,1027.163620099891,None,,,,,,,,,,,,,,,,,,,,,,,,,,,,,,,,,,,,,,,,,,,,,,,,,,,,,,,,,paper,182,66,aloud,new,yellow,1024.703710499918,None,y,1024.703710499918,None,"['y', 'return']","[1.682570000179112, 2.426507600117475]",1024.703710499918,None,,,9,001,2023_Feb_06_1248,ExactRep-v3-final,2021.2.3,59.93385693837937,
,,,,,,,,,,,,66,0,66,0,,,,,,,,,,,,,,,,,,,,,,,,,,,,,,,,,,,,,,,,,,,,,,,,,1030.0498432000168,None,,,,,,,,,,,,,,,,,,,,,,,,,,,,,,,,,,,,,,,,,,,,,,,,,,,,,,,,,hall,225,67,sing,new,yellow,1027.671913600061,None,n,1027.671913600061,None,"['n', 'return']","[1.5941699999384582, 2.3382939998991787]",1027.671913600061,None,,,9,001,2023_Feb_06_1248,ExactRep-v3-final,2021.2.3,59.93385693837937,
,,,,,,,,,,,,67,0,67,0,,,,,,,,,,,,,,,,,,,,,,,,,,,,,,,,,,,,,,,,,,,,,,,,,1032.5523470998742,None,,,,,,,,,,,,,,,,,,,,,,,,,,,,,,,,,,,,,,,,,,,,,,,,,,,,,,,,,tree,194,68,aloud,new,yellow,1030.5656671999022,None,n,1030.5656671999022,None,"['n', 'return']","[1.2686377000063658, 1.9485728000290692]",1030.5656671999022,None,,,9,001,2023_Feb_06_1248,ExactRep-v3-final,2021.2.3,59.93385693837937,
,,,,,,,,,,,,68,0,68,0,,,,,,,,,,,,,,,,,,,,,,,,,,,,,,,,,,,,,,,,,,,,,,,,,1035.4552404000424,None,,,,,,,,,,,,,,,,,,,,,,,,,,,,,,,,,,,,,,,,,,,,,,,,,,,,,,,,,boulder,209,69,sing,new,yellow,1033.0605360998306,None,n,1033.0605360998306,None,"['n', 'return']","[1.6216051001101732, 2.357544800033793]",1033.0605360998306,None,,,9,001,2023_Feb_06_1248,ExactRep-v3-final,2021.2.3,59.93385693837937,
,,,,,,,,,,,,69,0,69,0,,,,,,,,,,,,,,,,,,,,,,,,,,,,,,,,,,,,,,,,,,,,,,,,,1037.8075832000468,None,,,,,,,,,,,,,,,,,,,,,,,,,,,,,,,,,,,,,,,,,,,,,,,,,,,,,,,,,grief,98,70,aloud,old,yellow,1035.964808800025,None,y,1035.964808800025,None,"['y', 'return']","[1.2694028001278639, 1.8054106999188662]",1035.964808800025,None,,,9,001,2023_Feb_06_1248,ExactRep-v3-final,2021.2.3,59.93385693837937,
,,,,,,,,,,,,70,0,70,0,,,,,,,,,,,,,,,,,,,,,,,,,,,,,,,,,,,,,,,,,,,,,,,,,1040.3267614999786,None,,,,,,,,,,,,,,,,,,,,,,,,,,,,,,,,,,,,,,,,,,,,,,,,,,,,,,,,,plant,181,71,sing,new,yellow,1038.3148089000024,None,y,1038.3148089000024,None,"['y', 'return']","[1.375406000064686, 1.9754192000254989]",1038.3148089000024,None,,,9,001,2023_Feb_06_1248,ExactRep-v3-final,2021.2.3,59.93385693837937,
,,,,,,,,,,,,71,0,71,0,,,,,,,,,,,,,,,,,,,,,,,,,,,,,,,,,,,,,,,,,,,,,,,,,1043.8969884999096,None,,,,,,,,,,,,,,,,,,,,,,,,,,,,,,,,,,,,,,,,,,,,,,,,,,,,,,,,,silence,29,72,sing,old,yellow,1040.8378014999907,None,n,1040.8378014999907,None,"['n', 'return']","[2.324512500083074, 3.012482700170949]",1040.8378014999907,None,,,9,001,2023_Feb_06_1248,ExactRep-v3-final,2021.2.3,59.93385693837937,
,,,,,,,,,,,,72,0,72,0,,,,,,,,,,,,,,,,,,,,,,,,,,,,,,,,,,,,,,,,,,,,,,,,,1046.8336338999216,None,,,,,,,,,,,,,,,,,,,,,,,,,,,,,,,,,,,,,,,,,,,,,,,,,,,,,,,,,letter,205,73,sing,new,yellow,1044.4076751000248,None,n,1044.4076751000248,None,"['n', 'return']","[1.6265147000085562, 2.386553999967873]",1044.4076751000248,None,,,9,001,2023_Feb_06_1248,ExactRep-v3-final,2021.2.3,59.93385693837937,
,,,,,,,,,,,,73,0,73,0,,,,,,,,,,,,,,,,,,,,,,,,,,,,,,,,,,,,,,,,,,,,,,,,,1049.719497299986,None,,,,,,,,,,,,,,,,,,,,,,,,,,,,,,,,,,,,,,,,,,,,,,,,,,,,,,,,,temple,121,74,silent,new,yellow,1047.343583599897,None,n,1047.343583599897,None,"['n', 'return']","[1.3867808999493718, 2.3306611001025885]",1047.343583599897,None,,,9,001,2023_Feb_06_1248,ExactRep-v3-final,2021.2.3,59.93385693837937,
,,,,,,,,,,,,74,0,74,0,,,,,,,,,,,,,,,,,,,,,,,,,,,,,,,,,,,,,,,,,,,,,,,,,1054.4742210998666,None,,,,,,,,,,,,,,,,,,,,,,,,,,,,,,,,,,,,,,,,,,,,,,,,,,,,,,,,,dream,88,75,aloud,old,yellow,1050.2262197998352,None,y,1050.2262197998352,None,"['y', 'return']","[3.5279773001093417, 4.207962200045586]",1050.2262197998352,None,,,9,001,2023_Feb_06_1248,ExactRep-v3-final,2021.2.3,59.93385693837937,
,,,,,,,,,,,,75,0,75,0,,,,,,,,,,,,,,,,,,,,,,,,,,,,,,,,,,,,,,,,,,,,,,,,,1057.6607569998596,None,,,,,,,,,,,,,,,,,,,,,,,,,,,,,,,,,,,,,,,,,,,,,,,,,,,,,,,,,water,222,76,aloud,new,yellow,1054.9769065999426,None,n,1054.9769065999426,None,"['n', 'return']","[1.689439699985087, 2.6493140999227762]",1054.9769065999426,None,,,9,001,2023_Feb_06_1248,ExactRep-v3-final,2021.2.3,59.93385693837937,
,,,,,,,,,,,,76,0,76,0,,,,,,,,,,,,,,,,,,,,,,,,,,,,,,,,,,,,,,,,,,,,,,,,,1060.9807339999825,None,,,,,,,,,,,,,,,,,,,,,,,,,,,,,,,,,,,,,,,,,,,,,,,,,,,,,,,,,machine,3,77,sing,old,yellow,1058.1684685000218,None,n,1058.1684685000218,None,"['n', 'return']","[2.1377769000828266, 2.7777456000912935]",1058.1684685000218,None,,,9,001,2023_Feb_06_1248,ExactRep-v3-final,2021.2.3,59.93385693837937,
,,,,,,,,,,,,77,0,77,0,,,,,,,,,,,,,,,,,,,,,,,,,,,,,,,,,,,,,,,,,,,,,,,,,1064.0004711998627,None,,,,,,,,,,,,,,,,,,,,,,,,,,,,,,,,,,,,,,,,,,,,,,,,,,,,,,,,,answer,199,78,sing,new,yellow,1061.490432899911,None,n,1061.490432899911,None,"['n', 'return']","[1.7197701998520643, 2.4638139999005944]",1061.490432899911,None,,,9,001,2023_Feb_06_1248,ExactRep-v3-final,2021.2.3,59.93385693837937,
,,,,,,,,,,,,78,0,78,0,,,,,,,,,,,,,,,,,,,,,,,,,,,,,,,,,,,,,,,,,,,,,,,,,1066.502931599971,None,,,,,,,,,,,,,,,,,,,,,,,,,,,,,,,,,,,,,,,,,,,,,,,,,,,,,,,,,meat,102,79,aloud,old,yellow,1064.5140013999771,None,y,1064.5140013999771,None,"['y', 'return']","[1.1602082999888808, 1.952226399909705]",1064.5140013999771,None,,,9,001,2023_Feb_06_1248,ExactRep-v3-final,2021.2.3,59.93385693837937,
,,,,,,,,,,,,79,0,79,0,,,,,,,,,,,,,,,,,,,,,,,,,,,,,,,,,,,,,,,,,,,,,,,,,1069.27231569984,None,,,,,,,,,,,,,,,,,,,,,,,,,,,,,,,,,,,,,,,,,,,,,,,,,,,,,,,,,chief,61,80,silent,old,yellow,1067.0133414999582,None,y,1067.0133414999582,None,"['y', 'return']","[1.6529121999628842, 2.2208807000424713]",1067.0133414999582,None,,,9,001,2023_Feb_06_1248,ExactRep-v3-final,2021.2.3,59.93385693837937,
,,,,,,,,,,,,80,0,80,0,,,,,,,,,,,,,,,,,,,,,,,,,,,,,,,,,,,,,,,,,,,,,,,,,1072.0585963998456,None,,,,,,,,,,,,,,,,,,,,,,,,,,,,,,,,,,,,,,,,,,,,,,,,,,,,,,,,,excuse,10,81,sing,old,yellow,1069.785580799915,None,n,1069.785580799915,None,"['n', 'return']","[1.4887531998101622, 2.24068669998087]",1069.785580799915,None,,,9,001,2023_Feb_06_1248,ExactRep-v3-final,2021.2.3,59.93385693837937,
,,,,,,,,,,,,81,0,81,0,,,,,,,,,,,,,,,,,,,,,,,,,,,,,,,,,,,,,,,,,,,,,,,,,1074.8112321998924,None,,,,,,,,,,,,,,,,,,,,,,,,,,,,,,,,,,,,,,,,,,,,,,,,,,,,,,,,,garden,150,82,silent,new,yellow,1072.5681622000411,None,n,1072.5681622000411,None,"['n', 'return']","[1.5141654999461025, 2.210030799964443]",1072.5681622000411,None,,,9,001,2023_Feb_06_1248,ExactRep-v3-final,2021.2.3,59.93385693837937,
,,,,,,,,,,,,82,0,82,0,,,,,,,,,,,,,,,,,,,,,,,,,,,,,,,,,,,,,,,,,,,,,,,,,1078.2479927998502,None,,,,,,,,,,,,,,,,,,,,,,,,,,,,,,,,,,,,,,,,,,,,,,,,,,,,,,,,,king,100,83,aloud,old,yellow,1075.320877399994,None,y,1075.320877399994,None,"['y', 'return']","[1.977180799935013, 2.8894638000056148]",1075.320877399994,None,,,9,001,2023_Feb_06_1248,ExactRep-v3-final,2021.2.3,59.93385693837937,
,,,,,,,,,,,,83,0,83,0,,,,,,,,,,,,,,,,,,,,,,,,,,,,,,,,,,,,,,,,,,,,,,,,,1080.8338941999245,None,,,,,,,,,,,,,,,,,,,,,,,,,,,,,,,,,,,,,,,,,,,,,,,,,,,,,,,,,rod,146,84,silent,new,yellow,1078.755464399932,None,n,1078.755464399932,None,"['n', 'return']","[1.3506807999219745, 2.0388235999271274]",1078.755464399932,None,,,9,001,2023_Feb_06_1248,ExactRep-v3-final,2021.2.3,59.93385693837937,
,,,,,,,,,,,,84,0,84,0,,,,,,,,,,,,,,,,,,,,,,,,,,,,,,,,,,,,,,,,,,,,,,,,,1083.5032986998558,None,,,,,,,,,,,,,,,,,,,,,,,,,,,,,,,,,,,,,,,,,,,,,,,,,,,,,,,,,flood,219,85,sing,new,yellow,1081.3456482999027,None,n,1081.3456482999027,None,"['n', 'return']","[1.2805577998515218, 2.1125739999115467]",1081.3456482999027,None,,,9,001,2023_Feb_06_1248,ExactRep-v3-final,2021.2.3,59.93385693837937,
,,,,,,,,,,,,85,0,85,0,,,,,,,,,,,,,,,,,,,,,,,,,,,,,,,,,,,,,,,,,,,,,,,,,1087.4917011000216,None,,,,,,,,,,,,,,,,,,,,,,,,,,,,,,,,,,,,,,,,,,,,,,,,,,,,,,,,,potato,50,86,silent,old,yellow,1084.0156884999014,None,y,1084.0156884999014,None,"['y', 'return']","[2.2664689000230283, 3.434477800037712]",1084.0156884999014,None,,,9,001,2023_Feb_06_1248,ExactRep-v3-final,2021.2.3,59.93385693837937,
,,,,,,,,,,,,86,0,86,0,,,,,,,,,,,,,,,,,,,,,,,,,,,,,,,,,,,,,,,,,,,,,,,,,1091.160679699853,None,,,,,,,,,,,,,,,,,,,,,,,,,,,,,,,,,,,,,,,,,,,,,,,,,,,,,,,,,stone,5,87,sing,old,yellow,1088.000478199916,None,y,1088.000478199916,None,"['y', 'return']","[2.241692200070247, 3.113794800126925]",1088.000478199916,None,,,9,001,2023_Feb_06_1248,ExactRep-v3-final,2021.2.3,59.93385693837937,
,,,,,,,,,,,,87,0,87,0,,,,,,,,,,,,,,,,,,,,,,,,,,,,,,,,,,,,,,,,,,,,,,,,,1093.913647999987,None,,,,,,,,,,,,,,,,,,,,,,,,,,,,,,,,,,,,,,,,,,,,,,,,,,,,,,,,,doctor,116,88,aloud,old,yellow,1091.674376099836,None,n,1091.674376099836,None,"['n', 'return']","[1.3679444000590593, 2.1999081999529153]",1091.674376099836,None,,,9,001,2023_Feb_06_1248,ExactRep-v3-final,2021.2.3,59.93385693837937,
,,,,,,,,,,,,88,0,88,0,,,,,,,,,,,,,,,,,,,,,,,,,,,,,,,,,,,,,,,,,,,,,,,,,1096.7666292998474,None,,,,,,,,,,,,,,,,,,,,,,,,,,,,,,,,,,,,,,,,,,,,,,,,,,,,,,,,,boy,111,89,aloud,old,yellow,1094.4252484999597,None,n,1094.4252484999597,None,"['n', 'return']","[1.5529738999903202, 2.296880300156772]",1094.4252484999597,None,,,9,001,2023_Feb_06_1248,ExactRep-v3-final,2021.2.3,59.93385693837937,
,,,,,,,,,,,,89,0,89,0,,,,,,,,,,,,,,,,,,,,,,,,,,,,,,,,,,,,,,,,,,,,,,,,,1099.4024630999193,None,,,,,,,,,,,,,,,,,,,,,,,,,,,,,,,,,,,,,,,,,,,,,,,,,,,,,,,,,love,80,90,aloud,old,yellow,1097.275183700025,None,y,1097.275183700025,None,"['y', 'return']","[1.407017899909988, 2.0950664000120014]",1097.275183700025,None,,,9,001,2023_Feb_06_1248,ExactRep-v3-final,2021.2.3,59.93385693837937,
,,,,,,,,,,,,90,0,90,0,,,,,,,,,,,,,,,,,,,,,,,,,,,,,,,,,,,,,,,,,,,,,,,,,1102.5556103000417,None,,,,,,,,,,,,,,,,,,,,,,,,,,,,,,,,,,,,,,,,,,,,,,,,,,,,,,,,,truth,226,91,aloud,new,yellow,1099.9154659998603,None,n,1099.9154659998603,None,"['n', 'return']","[1.9348688998725265, 2.5987025999929756]",1099.9154659998603,None,,,9,001,2023_Feb_06_1248,ExactRep-v3-final,2021.2.3,59.93385693837937,
,,,,,,,,,,,,91,0,91,0,,,,,,,,,,,,,,,,,,,,,,,,,,,,,,,,,,,,,,,,,,,,,,,,,1105.3084012998734,None,,,,,,,,,,,,,,,,,,,,,,,,,,,,,,,,,,,,,,,,,,,,,,,,,,,,,,,,,seat,94,92,aloud,old,yellow,1103.065380499931,None,n,1103.065380499931,None,"['n', 'return']","[1.5689348001033068, 2.208842599997297]",1103.065380499931,None,,,9,001,2023_Feb_06_1248,ExactRep-v3-final,2021.2.3,59.93385693837937,
,,,,,,,,,,,,92,0,92,0,,,,,,,,,,,,,,,,,,,,,,,,,,,,,,,,,,,,,,,,,,,,,,,,,1107.4104955999646,None,,,,,,,,,,,,,,,,,,,,,,,,,,,,,,,,,,,,,,,,,,,,,,,,,,,,,,,,,series,73,93,silent,old,yellow,1105.8175510000437,None,y,1105.8175510000437,None,"['y', 'return']","[0.9928878000937402, 1.5606478999834508]",1105.8175510000437,None,,,9,001,2023_Feb_06_1248,ExactRep-v3-final,2021.2.3,59.93385693837937,
,,,,,,,,,,,,93,0,93,0,,,,,,,,,,,,,,,,,,,,,,,,,,,,,,,,,,,,,,,,,,,,,,,,,1111.2987631000578,None,,,,,,,,,,,,,,,,,,,,,,,,,,,,,,,,,,,,,,,,,,,,,,,,,,,,,,,,,dawn,89,94,aloud,old,yellow,1107.9179729998577,None,y,1107.9179729998577,None,"['y', 'return']","[2.308362200157717, 3.3322253001388162]",1107.9179729998577,None,,,9,001,2023_Feb_06_1248,ExactRep-v3-final,2021.2.3,59.93385693837937,
,,,,,,,,,,,,94,0,94,0,,,,,,,,,,,,,,,,,,,,,,,,,,,,,,,,,,,,,,,,,,,,,,,,,1113.8669204998296,None,,,,,,,,,,,,,,,,,,,,,,,,,,,,,,,,,,,,,,,,,,,,,,,,,,,,,,,,,advice,160,95,aloud,new,yellow,1111.8002058998682,None,n,1111.8002058998682,None,"['n', 'return']","[1.354015199933201, 2.0260828998871148]",1111.8002058998682,None,,,9,001,2023_Feb_06_1248,ExactRep-v3-final,2021.2.3,59.93385693837937,
,,,,,,,,,,,,95,0,95,0,,,,,,,,,,,,,,,,,,,,,,,,,,,,,,,,,,,,,,,,,,,,,,,,,1116.5196193000302,None,,,,,,,,,,,,,,,,,,,,,,,,,,,,,,,,,,,,,,,,,,,,,,,,,,,,,,,,,form,141,96,silent,new,yellow,1114.3768024998717,None,n,1114.3768024998717,None,"['n', 'return']","[1.3695270998869091, 2.10546200000681]",1114.3768024998717,None,,,9,001,2023_Feb_06_1248,ExactRep-v3-final,2021.2.3,59.93385693837937,
,,,,,,,,,,,,96,0,96,0,,,,,,,,,,,,,,,,,,,,,,,,,,,,,,,,,,,,,,,,,,,,,,,,,1118.9721088998485,None,,,,,,,,,,,,,,,,,,,,,,,,,,,,,,,,,,,,,,,,,,,,,,,,,,,,,,,,,opinion,128,97,silent,new,yellow,1117.028969499981,None,n,1117.028969499981,None,"['n', 'return']","[1.1332249999977648, 1.9092262999620289]",1117.028969499981,None,,,9,001,2023_Feb_06_1248,ExactRep-v3-final,2021.2.3,59.93385693837937,
,,,,,,,,,,,,97,0,97,0,,,,,,,,,,,,,,,,,,,,,,,,,,,,,,,,,,,,,,,,,,,,,,,,,1121.624696600018,None,,,,,,,,,,,,,,,,,,,,,,,,,,,,,,,,,,,,,,,,,,,,,,,,,,,,,,,,,animal,144,98,silent,new,yellow,1119.481833399972,None,n,1119.481833399972,None,"['n', 'return']","[1.3123915998730808, 2.0963995999190956]",1119.481833399972,None,,,9,001,2023_Feb_06_1248,ExactRep-v3-final,2021.2.3,59.93385693837937,
,,,,,,,,,,,,98,0,98,0,,,,,,,,,,,,,,,,,,,,,,,,,,,,,,,,,,,,,,,,,,,,,,,,,1124.3107195999473,None,,,,,,,,,,,,,,,,,,,,,,,,,,,,,,,,,,,,,,,,,,,,,,,,,,,,,,,,,house,148,99,silent,new,yellow,1122.1258010000456,None,n,1122.1258010000456,None,"['n', 'return']","[1.2443810999393463, 2.140394499991089]",1122.1258010000456,None,,,9,001,2023_Feb_06_1248,ExactRep-v3-final,2021.2.3,59.93385693837937,
,,,,,,,,,,,,99,0,99,0,,,,,,,,,,,,,,,,,,,,,,,,,,,,,,,,,,,,,,,,,,,,,,,,,1127.1969041998964,None,,,,,,,,,,,,,,,,,,,,,,,,,,,,,,,,,,,,,,,,,,,,,,,,,,,,,,,,,dress,7,100,sing,old,yellow,1124.821464800043,None,y,1124.821464800043,None,"['y', 'return']","[1.5806921999901533, 2.3327345999423414]",1124.821464800043,None,,,9,001,2023_Feb_06_1248,ExactRep-v3-final,2021.2.3,59.93385693837937,
,,,,,,,,,,,,100,0,100,0,,,,,,,,,,,,,,,,,,,,,,,,,,,,,,,,,,,,,,,,,,,,,,,,,1130.3333564999048,None,,,,,,,,,,,,,,,,,,,,,,,,,,,,,,,,,,,,,,,,,,,,,,,,,,,,,,,,,duty,16,101,sing,old,yellow,1127.7042636999395,None,y,1127.7042636999395,None,"['y', 'return']","[1.8260464000049978, 2.5939100000541657]",1127.7042636999395,None,,,9,001,2023_Feb_06_1248,ExactRep-v3-final,2021.2.3,59.93385693837937,
,,,,,,,,,,,,101,0,101,0,,,,,,,,,,,,,,,,,,,,,,,,,,,,,,,,,,,,,,,,,,,,,,,,,1132.7023887999821,None,,,,,,,,,,,,,,,,,,,,,,,,,,,,,,,,,,,,,,,,,,,,,,,,,,,,,,,,,troops,153,102,silent,new,yellow,1130.8457458999474,None,n,1130.8457458999474,None,"['n', 'return']","[1.1644651000387967, 1.812421299982816]",1130.8457458999474,None,,,9,001,2023_Feb_06_1248,ExactRep-v3-final,2021.2.3,59.93385693837937,
,,,,,,,,,,,,102,0,102,0,,,,,,,,,,,,,,,,,,,,,,,,,,,,,,,,,,,,,,,,,,,,,,,,,1135.355031099869,None,,,,,,,,,,,,,,,,,,,,,,,,,,,,,,,,,,,,,,,,,,,,,,,,,,,,,,,,,queen,169,103,sing,new,yellow,1133.2155905999243,None,n,1133.2155905999243,None,"['n', 'return']","[1.3707261998206377, 2.1065356999170035]",1133.2155905999243,None,,,9,001,2023_Feb_06_1248,ExactRep-v3-final,2021.2.3,59.93385693837937,
,,,,,,,,,,,,103,0,103,0,,,,,,,,,,,,,,,,,,,,,,,,,,,,,,,,,,,,,,,,,,,,,,,,,1138.1075994998682,None,,,,,,,,,,,,,,,,,,,,,,,,,,,,,,,,,,,,,,,,,,,,,,,,,,,,,,,,,engine,192,104,aloud,new,yellow,1135.8693412998691,None,n,1135.8693412998691,None,"['n', 'return']","[1.348970100050792, 2.2048096999060363]",1135.8693412998691,None,,,9,001,2023_Feb_06_1248,ExactRep-v3-final,2021.2.3,59.93385693837937,
,,,,,,,,,,,,104,0,104,0,,,,,,,,,,,,,,,,,,,,,,,,,,,,,,,,,,,,,,,,,,,,,,,,,1140.4601606000215,None,,,,,,,,,,,,,,,,,,,,,,,,,,,,,,,,,,,,,,,,,,,,,,,,,,,,,,,,,college,113,105,aloud,old,yellow,1138.617520699976,None,y,1138.617520699976,None,"['y', 'return']","[1.1447413000278175, 1.8007253999821842]",1138.617520699976,None,,,9,001,2023_Feb_06_1248,ExactRep-v3-final,2021.2.3,59.93385693837937,
,,,,,,,,,,,,105,0,105,0,,,,,,,,,,,,,,,,,,,,,,,,,,,,,,,,,,,,,,,,,,,,,,,,,1143.3630617000163,None,,,,,,,,,,,,,,,,,,,,,,,,,,,,,,,,,,,,,,,,,,,,,,,,,,,,,,,,,author,21,106,sing,old,yellow,1140.9681642998476,None,y,1140.9681642998476,None,"['y', 'return']","[1.4179946000222117, 2.3621195999439806]",1140.9681642998476,None,,,9,001,2023_Feb_06_1248,ExactRep-v3-final,2021.2.3,59.93385693837937,
,,,,,,,,,,,,106,0,106,0,,,,,,,,,,,,,,,,,,,,,,,,,,,,,,,,,,,,,,,,,,,,,,,,,1146.0157113999594,None,,,,,,,,,,,,,,,,,,,,,,,,,,,,,,,,,,,,,,,,,,,,,,,,,,,,,,,,,death,66,107,silent,old,yellow,1143.8741051999386,None,n,1143.8741051999386,None,"['n', 'return']","[1.3761833000462502, 2.1041375000495464]",1143.8741051999386,None,,,9,001,2023_Feb_06_1248,ExactRep-v3-final,2021.2.3,59.93385693837937,
,,,,,,,,,,,,107,0,107,0,,,,,,,,,,,,,,,,,,,,,,,,,,,,,,,,,,,,,,,,,,,,,,,,,1148.6182577,None,,,,,,,,,,,,,,,,,,,,,,,,,,,,,,,,,,,,,,,,,,,,,,,,,,,,,,,,,cabin,40,108,silent,old,yellow,1146.5264103000518,None,n,1146.5264103000518,None,"['n', 'return']","[1.2917683999985456, 2.0598680002149194]",1146.5264103000518,None,,,9,001,2023_Feb_06_1248,ExactRep-v3-final,2021.2.3,59.93385693837937,
,,,,,,,,,,,,108,0,108,0,,,,,,,,,,,,,,,,,,,,,,,,,,,,,,,,,,,,,,,,,,,,,,,,,1151.6546664000489,None,,,,,,,,,,,,,,,,,,,,,,,,,,,,,,,,,,,,,,,,,,,,,,,,,,,,,,,,,spirit,112,109,aloud,old,yellow,1149.13020639983,None,y,1149.13020639983,None,"['y', 'return']","[1.784064200008288, 2.4880671999417245]",1149.13020639983,None,,,9,001,2023_Feb_06_1248,ExactRep-v3-final,2021.2.3,59.93385693837937,
,,,,,,,,,,,,109,0,109,0,,,,,,,,,,,,,,,,,,,,,,,,,,,,,,,,,,,,,,,,,,,,,,,,,1154.6242712999228,None,,,,,,,,,,,,,,,,,,,,,,,,,,,,,,,,,,,,,,,,,,,,,,,,,,,,,,,,,disease,82,110,aloud,old,yellow,1152.1644786999095,None,y,1152.1644786999095,None,"['y', 'return']","[1.5257847998291254, 2.4137755997944623]",1152.1644786999095,None,,,9,001,2023_Feb_06_1248,ExactRep-v3-final,2021.2.3,59.93385693837937,
,,,,,,,,,,,,110,0,110,0,,,,,,,,,,,,,,,,,,,,,,,,,,,,,,,,,,,,,,,,,,,,,,,,,1157.0433702999726,None,,,,,,,,,,,,,,,,,,,,,,,,,,,,,,,,,,,,,,,,,,,,,,,,,,,,,,,,,salary,38,111,sing,old,yellow,1155.1341295000166,None,n,1155.1341295000166,None,"['n', 'return']","[1.268041200004518, 1.876107799820602]",1155.1341295000166,None,,,9,001,2023_Feb_06_1248,ExactRep-v3-final,2021.2.3,59.93385693837937,
,,,,,,,,,,,,111,0,111,0,,,,,,,,,,,,,,,,,,,,,,,,,,,,,,,,,,,,,,,,,,,,,,,,,1160.7804612999316,None,,,,,,,,,,,,,,,,,,,,,,,,,,,,,,,,,,,,,,,,,,,,,,,,,,,,,,,,,virtue,63,112,silent,old,yellow,1157.5528830999974,None,y,1157.5528830999974,None,"['y', 'return']","[2.3612023999448866, 3.19333319994621]",1157.5528830999974,None,,,9,001,2023_Feb_06_1248,ExactRep-v3-final,2021.2.3,59.93385693837937,
,,,,,,,,,,,,112,0,112,0,,,,,,,,,,,,,,,,,,,,,,,,,,,,,,,,,,,,,,,,,,,,,,,,,1163.2663179000374,None,,,,,,,,,,,,,,,,,,,,,,,,,,,,,,,,,,,,,,,,,,,,,,,,,,,,,,,,,shadow,139,113,silent,new,yellow,1161.296354799997,None,n,1161.296354799997,None,"['n', 'return']","[1.2579117000568658, 1.9377813001628965]",1161.296354799997,None,,,9,001,2023_Feb_06_1248,ExactRep-v3-final,2021.2.3,59.93385693837937,
,,,,,,,,,,,,113,0,113,0,,,,,,,,,,,,,,,,,,,,,,,,,,,,,,,,,,,,,,,,,,,,,,,,,1166.2025957000442,None,,,,,,,,,,,,,,,,,,,,,,,,,,,,,,,,,,,,,,,,,,,,,,,,,,,,,,,,,corn,67,114,silent,old,yellow,1163.7751443998422,None,n,1163.7751443998422,None,"['n', 'return']","[1.3230840999167413, 2.387082099914551]",1163.7751443998422,None,,,9,001,2023_Feb_06_1248,ExactRep-v3-final,2021.2.3,59.93385693837937,
,,,,,,,,,,,,114,0,114,0,,,,,,,,,,,,,,,,,,,,,,,,,,,,,,,,,,,,,,,,,,,,,,,,,1168.9052375999745,None,,,,,,,,,,,,,,,,,,,,,,,,,,,,,,,,,,,,,,,,,,,,,,,,,,,,,,,,,passion,105,115,aloud,old,yellow,1166.7064761999063,None,n,1166.7064761999063,None,"['n', 'return']","[1.2718862001784146, 2.1597898001782596]",1166.7064761999063,None,,,9,001,2023_Feb_06_1248,ExactRep-v3-final,2021.2.3,59.93385693837937,
,,,,,,,,,,,,115,0,115,0,,,,,,,,,,,,,,,,,,,,,,,,,,,,,,,,,,,,,,,,,,,,,,,,,1173.1761663998477,None,,,,,,,,,,,,,,,,,,,,,,,,,,,,,,,,,,,,,,,,,,,,,,,,,,,,,,,,,tool,108,116,aloud,old,yellow,1169.4112052000128,None,n,1169.4112052000128,None,"['n', 'return']","[2.9431497000623494, 3.7191163001116365]",1169.4112052000128,None,,,9,001,2023_Feb_06_1248,ExactRep-v3-final,2021.2.3,59.93385693837937,
,,,,,,,,,,,,116,0,116,0,,,,,,,,,,,,,,,,,,,,,,,,,,,,,,,,,,,,,,,,,,,,,,,,,1176.2291867998429,None,,,,,,,,,,,,,,,,,,,,,,,,,,,,,,,,,,,,,,,,,,,,,,,,,,,,,,,,,air,212,117,aloud,new,yellow,1173.6877774000168,None,n,1173.6877774000168,None,"['n', 'return']","[1.5785022000782192, 2.5064396001398563]",1173.6877774000168,None,,,9,001,2023_Feb_06_1248,ExactRep-v3-final,2021.2.3,59.93385693837937,
,,,,,,,,,,,,117,0,117,0,,,,,,,,,,,,,,,,,,,,,,,,,,,,,,,,,,,,,,,,,,,,,,,,,1179.1322464998811,None,,,,,,,,,,,,,,,,,,,,,,,,,,,,,,,,,,,,,,,,,,,,,,,,,,,,,,,,,factory,221,118,sing,new,yellow,1176.7388647999614,None,n,1176.7388647999614,None,"['n', 'return']","[1.4077000000979751, 2.3593603000044823]",1176.7388647999614,None,,,9,001,2023_Feb_06_1248,ExactRep-v3-final,2021.2.3,59.93385693837937,
,,,,,,,,,,,,118,0,118,0,,,,,,,,,,,,,,,,,,,,,,,,,,,,,,,,,,,,,,,,,,,,,,,,,1182.1851694998331,None,,,,,,,,,,,,,,,,,,,,,,,,,,,,,,,,,,,,,,,,,,,,,,,,,,,,,,,,,fur,200,119,aloud,new,yellow,1179.6398610000033,None,n,1179.6398610000033,None,"['n', 'return']","[1.5382461999543011, 2.498423600103706]",1179.6398610000033,None,,,9,001,2023_Feb_06_1248,ExactRep-v3-final,2021.2.3,59.93385693837937,
,,,,,,,,,,,,119,0,119,0,,,,,,,,,,,,,,,,,,,,,,,,,,,,,,,,,,,,,,,,,,,,,,,,,1187.256915899925,None,,,,,,,,,,,,,,,,,,,,,,,,,,,,,,,,,,,,,,,,,,,,,,,,,,,,,,,,,string,156,120,silent,new,yellow,1182.698187999893,None,n,1182.698187999893,None,"['n', 'return']","[3.335888000205159, 4.5120756002143025]",1182.698187999893,None,,,9,001,2023_Feb_06_1248,ExactRep-v3-final,2021.2.3,59.93385693837937,
,,,,,,,,,,,,120,0,120,0,,,,,,,,,,,,,,,,,,,,,,,,,,,,,,,,,,,,,,,,,,,,,,,,,1190.3598499998916,None,,,,,,,,,,,,,,,,,,,,,,,,,,,,,,,,,,,,,,,,,,,,,,,,,,,,,,,,,friend,56,121,silent,old,yellow,1187.7672556999605,None,n,1187.7672556999605,None,"['n', 'return']","[1.7470310998614877, 2.5549353000242263]",1187.7672556999605,None,,,9,001,2023_Feb_06_1248,ExactRep-v3-final,2021.2.3,59.93385693837937,
,,,,,,,,,,,,121,0,121,0,,,,,,,,,,,,,,,,,,,,,,,,,,,,,,,,,,,,,,,,,,,,,,,,,1192.7123348999303,None,,,,,,,,,,,,,,,,,,,,,,,,,,,,,,,,,,,,,,,,,,,,,,,,,,,,,,,,,table,151,122,silent,new,yellow,1190.8665789999068,None,y,1190.8665789999068,None,"['y', 'return']","[1.0876319000963122, 1.7996827999595553]",1190.8665789999068,None,,,9,001,2023_Feb_06_1248,ExactRep-v3-final,2021.2.3,59.93385693837937,
,,,,,,,,,,,,122,0,122,0,,,,,,,,,,,,,,,,,,,,,,,,,,,,,,,,,,,,,,,,,,,,,,,,,1195.1478615999222,None,,,,,,,,,,,,,,,,,,,,,,,,,,,,,,,,,,,,,,,,,,,,,,,,,,,,,,,,,custom,107,123,aloud,old,yellow,1193.2201685998589,None,n,1193.2201685998589,None,"['n', 'return']","[1.2943623000755906, 1.8861041001509875]",1193.2201685998589,None,,,9,001,2023_Feb_06_1248,ExactRep-v3-final,2021.2.3,59.93385693837937,
,,,,,,,,,,,,123,0,123,0,,,,,,,,,,,,,,,,,,,,,,,,,,,,,,,,,,,,,,,,,,,,,,,,,1197.6017084999476,None,,,,,,,,,,,,,,,,,,,,,,,,,,,,,,,,,,,,,,,,,,,,,,,,,,,,,,,,,flag,168,124,aloud,new,yellow,1195.6609205000568,None,n,1195.6609205000568,None,"['n', 'return']","[1.2694219001568854, 1.9013302000239491]",1195.6609205000568,None,,,9,001,2023_Feb_06_1248,ExactRep-v3-final,2021.2.3,59.93385693837937,
,,,,,,,,,,,,124,0,124,0,,,,,,,,,,,,,,,,,,,,,,,,,,,,,,,,,,,,,,,,,,,,,,,,,1200.0196292998735,None,,,,,,,,,,,,,,,,,,,,,,,,,,,,,,,,,,,,,,,,,,,,,,,,,,,,,,,,,soil,35,125,sing,old,yellow,1198.1107167999726,None,y,1198.1107167999726,None,"['y', 'return']","[1.2036103999707848, 1.8755403000395745]",1198.1107167999726,None,,,9,001,2023_Feb_06_1248,ExactRep-v3-final,2021.2.3,59.93385693837937,
,,,,,,,,,,,,125,0,125,0,,,,,,,,,,,,,,,,,,,,,,,,,,,,,,,,,,,,,,,,,,,,,,,,,1202.588881299831,None,,,,,,,,,,,,,,,,,,,,,,,,,,,,,,,,,,,,,,,,,,,,,,,,,,,,,,,,,lake,109,126,aloud,old,yellow,1200.529567199992,None,n,1200.529567199992,None,"['n', 'return']","[1.3127218999434263, 2.0246067999396473]",1200.529567199992,None,,,9,001,2023_Feb_06_1248,ExactRep-v3-final,2021.2.3,59.93385693837937,
,,,,,,,,,,,,126,0,126,0,,,,,,,,,,,,,,,,,,,,,,,,,,,,,,,,,,,,,,,,,,,,,,,,,1206.9432428998407,None,,,,,,,,,,,,,,,,,,,,,,,,,,,,,,,,,,,,,,,,,,,,,,,,,,,,,,,,,body,184,127,aloud,new,yellow,1203.1006554998457,None,n,1203.1006554998457,None,"['n', 'return']","[2.909546999959275, 3.805586100090295]",1203.1006554998457,None,,,9,001,2023_Feb_06_1248,ExactRep-v3-final,2021.2.3,59.93385693837937,
,,,,,,,,,,,,127,0,127,0,,,,,,,,,,,,,,,,,,,,,,,,,,,,,,,,,,,,,,,,,,,,,,,,,1209.462443599943,None,,,,,,,,,,,,,,,,,,,,,,,,,,,,,,,,,,,,,,,,,,,,,,,,,,,,,,,,,sea,96,128,aloud,old,yellow,1207.4517336999997,None,y,1207.4517336999997,None,"['y', 'return']","[1.3103732001036406, 1.9744764999486506]",1207.4517336999997,None,,,9,001,2023_Feb_06_1248,ExactRep-v3-final,2021.2.3,59.93385693837937,
,,,,,,,,,,,,128,0,128,0,,,,,,,,,,,,,,,,,,,,,,,,,,,,,,,,,,,,,,,,,,,,,,,,,1211.8829679000191,None,,,,,,,,,,,,,,,,,,,,,,,,,,,,,,,,,,,,,,,,,,,,,,,,,,,,,,,,,green,20,129,sing,old,yellow,1209.9723455999047,None,n,1209.9723455999047,None,"['n', 'return']","[1.2379953002091497, 1.8619502000510693]",1209.9723455999047,None,,,9,001,2023_Feb_06_1248,ExactRep-v3-final,2021.2.3,59.93385693837937,
,,,,,,,,,,,,129,0,129,0,,,,,,,,,,,,,,,,,,,,,,,,,,,,,,,,,,,,,,,,,,,,,,,,,1214.550844399957,None,,,,,,,,,,,,,,,,,,,,,,,,,,,,,,,,,,,,,,,,,,,,,,,,,,,,,,,,,party,77,130,silent,old,yellow,1212.3882470999379,None,n,1212.3882470999379,None,"['n', 'return']","[1.342132399789989, 2.126022399868816]",1212.3882470999379,None,,,9,001,2023_Feb_06_1248,ExactRep-v3-final,2021.2.3,59.93385693837937,
,,,,,,,,,,,,130,0,130,0,,,,,,,,,,,,,,,,,,,,,,,,,,,,,,,,,,,,,,,,,,,,,,,,,1217.1201863999013,None,,,,,,,,,,,,,,,,,,,,,,,,,,,,,,,,,,,,,,,,,,,,,,,,,,,,,,,,,prison,214,131,aloud,new,yellow,1215.06056179991,None,n,1215.06056179991,None,"['n', 'return']","[1.2136685999576002, 2.0216383999213576]",1215.06056179991,None,,,9,001,2023_Feb_06_1248,ExactRep-v3-final,2021.2.3,59.93385693837937,
,,,,,,,,,,,,131,0,131,0,,,,,,,,,,,,,,,,,,,,,,,,,,,,,,,,,,,,,,,,,,,,,,,,,1220.6569778998382,None,,,,,,,,,,,,,,,,,,,,,,,,,,,,,,,,,,,,,,,,,,,,,,,,,,,,,,,,,origin,216,132,aloud,new,yellow,1217.6247749999166,None,y,1217.6247749999166,None,"['y', 'return']","[2.273520899936557, 2.985497099813074]",1217.6247749999166,None,,,9,001,2023_Feb_06_1248,ExactRep-v3-final,2021.2.3,59.93385693837937,
,,,,,,,,,,,,132,0,132,0,,,,,,,,,,,,,,,,,,,,,,,,,,,,,,,,,,,,,,,,,,,,,,,,,1223.025977900019,None,,,,,,,,,,,,,,,,,,,,,,,,,,,,,,,,,,,,,,,,,,,,,,,,,,,,,,,,,quality,57,133,silent,old,yellow,1221.167632699944,None,n,1221.167632699944,None,"['n', 'return']","[1.1626194000709802, 1.8265761001966894]",1221.167632699944,None,,,9,001,2023_Feb_06_1248,ExactRep-v3-final,2021.2.3,59.93385693837937,
