StudyLoop.thisRepN,StudyLoop.thisTrialN,StudyLoop.thisN,StudyLoop.thisIndex,TestLoop.thisRepN,TestLoop.thisTrialN,TestLoop.thisN,TestLoop.thisIndex,keyCondition.keys,keyCondition.rt,Condition,stim_colors,color_sing,color_aloud,color_silent,keyWelcome.keys,keyWelcome.rt,study_word,study_type,study_color,study_num,study_word_num,keyStudy.keys,key_resp_3.keys,key_resp_3.rt,testWord,testType,testColor,testN,test_num,test_word_num,keyConf.keys,keyConf.rt,keyRKN.keys,keyRKN.rt,date,frameRate,expName,session,participant,
,,,,,,,,y,12.2792951,,,,,,,,,,,,,,,,,,,,,,,,,,2022_May_02_0943,59.9904135288,ProdSingRedo,001,C 45,
,,,,,,,,,,ColoredTest,"['red', 'yellow', 'blue']",red,yellow,blue,space,2333.8446732,,,,,,,,,,,,,,,,,,,2022_May_02_0943,59.9904135288,ProdSingRedo,001,C 45,
0,0,0,0,,,,,,,,,,,,,,symbol,aloud,yellow,47,321,None,,,,,,,,,,,,,2022_May_02_0943,59.9904135288,ProdSingRedo,001,C 45,
1,0,1,0,,,,,,,,,,,,,,production,silent,blue,68,240,None,,,,,,,,,,,,,2022_May_02_0943,59.9904135288,ProdSingRedo,001,C 45,
2,0,2,0,,,,,,,,,,,,,,judge,sing,red,17,166,None,,,,,,,,,,,,,2022_May_02_0943,59.9904135288,ProdSingRedo,001,C 45,
3,0,3,0,,,,,,,,,,,,,,afternoon,sing,red,20,3,None,,,,,,,,,,,,,2022_May_02_0943,59.9904135288,ProdSingRedo,001,C 45,
4,0,4,0,,,,,,,,,,,,,,candidate,silent,blue,82,39,None,,,,,,,,,,,,,2022_May_02_0943,59.9904135288,ProdSingRedo,001,C 45,
5,0,5,0,,,,,,,,,,,,,,mayor,sing,red,12,183,None,,,,,,,,,,,,,2022_May_02_0943,59.9904135288,ProdSingRedo,001,C 45,
6,0,6,0,,,,,,,,,,,,,,safety,silent,blue,87,270,None,,,,,,,,,,,,,2022_May_02_0943,59.9904135288,ProdSingRedo,001,C 45,
7,0,7,0,,,,,,,,,,,,,,council,silent,blue,81,71,None,,,,,,,,,,,,,2022_May_02_0943,59.9904135288,ProdSingRedo,001,C 45,
8,0,8,0,,,,,,,,,,,,,,couch,aloud,yellow,56,70,None,,,,,,,,,,,,,2022_May_02_0943,59.9904135288,ProdSingRedo,001,C 45,
9,0,9,0,,,,,,,,,,,,,,sleep,aloud,yellow,50,290,None,,,,,,,,,,,,,2022_May_02_0943,59.9904135288,ProdSingRedo,001,C 45,
10,0,10,0,,,,,,,,,,,,,,research,sing,red,0,261,None,,,,,,,,,,,,,2022_May_02_0943,59.9904135288,ProdSingRedo,001,C 45,
11,0,11,0,,,,,,,,,,,,,,distance,sing,red,28,100,None,,,,,,,,,,,,,2022_May_02_0943,59.9904135288,ProdSingRedo,001,C 45,
12,0,12,0,,,,,,,,,,,,,,worker,aloud,yellow,59,356,None,,,,,,,,,,,,,2022_May_02_0943,59.9904135288,ProdSingRedo,001,C 45,
13,0,13,0,,,,,,,,,,,,,,reach,sing,red,6,253,None,,,,,,,,,,,,,2022_May_02_0943,59.9904135288,ProdSingRedo,001,C 45,
14,0,14,0,,,,,,,,,,,,,,little,silent,blue,73,174,None,,,,,,,,,,,,,2022_May_02_0943,59.9904135288,ProdSingRedo,001,C 45,
15,0,15,0,,,,,,,,,,,,,,design,silent,blue,80,91,None,,,,,,,,,,,,,2022_May_02_0943,59.9904135288,ProdSingRedo,001,C 45,
16,0,16,0,,,,,,,,,,,,,,express,aloud,yellow,54,124,None,,,,,,,,,,,,,2022_May_02_0943,59.9904135288,ProdSingRedo,001,C 45,
17,0,17,0,,,,,,,,,,,,,,oxygen,silent,blue,83,209,None,,,,,,,,,,,,,2022_May_02_0943,59.9904135288,ProdSingRedo,001,C 45,
18,0,18,0,,,,,,,,,,,,,,entrance,silent,blue,61,115,None,,,,,,,,,,,,,2022_May_02_0943,59.9904135288,ProdSingRedo,001,C 45,
19,0,19,0,,,,,,,,,,,,,,blind,sing,red,15,24,None,,,,,,,,,,,,,2022_May_02_0943,59.9904135288,ProdSingRedo,001,C 45,
20,0,20,0,,,,,,,,,,,,,,cousin,silent,blue,65,76,None,,,,,,,,,,,,,2022_May_02_0943,59.9904135288,ProdSingRedo,001,C 45,
21,0,21,0,,,,,,,,,,,,,,community,aloud,yellow,46,63,None,,,,,,,,,,,,,2022_May_02_0943,59.9904135288,ProdSingRedo,001,C 45,
22,0,22,0,,,,,,,,,,,,,,question,aloud,yellow,43,247,None,,,,,,,,,,,,,2022_May_02_0943,59.9904135288,ProdSingRedo,001,C 45,
23,0,23,0,,,,,,,,,,,,,,territory,aloud,yellow,45,324,None,,,,,,,,,,,,,2022_May_02_0943,59.9904135288,ProdSingRedo,001,C 45,
24,0,24,0,,,,,,,,,,,,,,smell,silent,blue,62,291,None,,,,,,,,,,,,,2022_May_02_0943,59.9904135288,ProdSingRedo,001,C 45,
25,0,25,0,,,,,,,,,,,,,,sight,silent,blue,63,286,None,,,,,,,,,,,,,2022_May_02_0943,59.9904135288,ProdSingRedo,001,C 45,
26,0,26,0,,,,,,,,,,,,,,medicine,aloud,yellow,35,186,None,,,,,,,,,,,,,2022_May_02_0943,59.9904135288,ProdSingRedo,001,C 45,
27,0,27,0,,,,,,,,,,,,,,budget,sing,red,4,34,None,,,,,,,,,,,,,2022_May_02_0943,59.9904135288,ProdSingRedo,001,C 45,
28,0,28,0,,,,,,,,,,,,,,shock,silent,blue,76,284,None,,,,,,,,,,,,,2022_May_02_0943,59.9904135288,ProdSingRedo,001,C 45,
29,0,29,0,,,,,,,,,,,,,,primary,silent,blue,74,234,None,,,,,,,,,,,,,2022_May_02_0943,59.9904135288,ProdSingRedo,001,C 45,
30,0,30,0,,,,,,,,,,,,,,place,sing,red,11,222,None,,,,,,,,,,,,,2022_May_02_0943,59.9904135288,ProdSingRedo,001,C 45,
31,0,31,0,,,,,,,,,,,,,,treatment,aloud,yellow,55,339,None,,,,,,,,,,,,,2022_May_02_0943,59.9904135288,ProdSingRedo,001,C 45,
32,0,32,0,,,,,,,,,,,,,,owner,silent,blue,67,208,None,,,,,,,,,,,,,2022_May_02_0943,59.9904135288,ProdSingRedo,001,C 45,
33,0,33,0,,,,,,,,,,,,,,substance,silent,blue,70,313,None,,,,,,,,,,,,,2022_May_02_0943,59.9904135288,ProdSingRedo,001,C 45,
34,0,34,0,,,,,,,,,,,,,,burden,aloud,yellow,42,36,None,,,,,,,,,,,,,2022_May_02_0943,59.9904135288,ProdSingRedo,001,C 45,
35,0,35,0,,,,,,,,,,,,,,motion,sing,red,22,194,None,,,,,,,,,,,,,2022_May_02_0943,59.9904135288,ProdSingRedo,001,C 45,
36,0,36,0,,,,,,,,,,,,,,revolution,aloud,yellow,49,264,None,,,,,,,,,,,,,2022_May_02_0943,59.9904135288,ProdSingRedo,001,C 45,
37,0,37,0,,,,,,,,,,,,,,department,aloud,yellow,51,90,None,,,,,,,,,,,,,2022_May_02_0943,59.9904135288,ProdSingRedo,001,C 45,
38,0,38,0,,,,,,,,,,,,,,interview,silent,blue,64,165,None,,,,,,,,,,,,,2022_May_02_0943,59.9904135288,ProdSingRedo,001,C 45,
39,0,39,0,,,,,,,,,,,,,,threat,aloud,yellow,31,329,None,,,,,,,,,,,,,2022_May_02_0943,59.9904135288,ProdSingRedo,001,C 45,
40,0,40,0,,,,,,,,,,,,,,straight,silent,blue,86,307,None,,,,,,,,,,,,,2022_May_02_0943,59.9904135288,ProdSingRedo,001,C 45,
41,0,41,0,,,,,,,,,,,,,,balance,sing,red,16,17,None,,,,,,,,,,,,,2022_May_02_0943,59.9904135288,ProdSingRedo,001,C 45,
42,0,42,0,,,,,,,,,,,,,,machinery,sing,red,25,175,None,,,,,,,,,,,,,2022_May_02_0943,59.9904135288,ProdSingRedo,001,C 45,
43,0,43,0,,,,,,,,,,,,,,broad,sing,red,3,31,None,,,,,,,,,,,,,2022_May_02_0943,59.9904135288,ProdSingRedo,001,C 45,
44,0,44,0,,,,,,,,,,,,,,fashion,sing,red,14,125,None,,,,,,,,,,,,,2022_May_02_0943,59.9904135288,ProdSingRedo,001,C 45,
45,0,45,0,,,,,,,,,,,,,,thing,silent,blue,66,328,None,,,,,,,,,,,,,2022_May_02_0943,59.9904135288,ProdSingRedo,001,C 45,
46,0,46,0,,,,,,,,,,,,,,count,silent,blue,85,72,None,,,,,,,,,,,,,2022_May_02_0943,59.9904135288,ProdSingRedo,001,C 45,
47,0,47,0,,,,,,,,,,,,,,division,silent,blue,77,101,None,,,,,,,,,,,,,2022_May_02_0943,59.9904135288,ProdSingRedo,001,C 45,
48,0,48,0,,,,,,,,,,,,,,background,aloud,yellow,32,16,None,,,,,,,,,,,,,2022_May_02_0943,59.9904135288,ProdSingRedo,001,C 45,
49,0,49,0,,,,,,,,,,,,,,period,aloud,yellow,52,217,None,,,,,,,,,,,,,2022_May_02_0943,59.9904135288,ProdSingRedo,001,C 45,
50,0,50,0,,,,,,,,,,,,,,health,sing,red,24,149,None,,,,,,,,,,,,,2022_May_02_0943,59.9904135288,ProdSingRedo,001,C 45,
51,0,51,0,,,,,,,,,,,,,,pressure,silent,blue,75,232,None,,,,,,,,,,,,,2022_May_02_0943,59.9904135288,ProdSingRedo,001,C 45,
52,0,52,0,,,,,,,,,,,,,,universal,aloud,yellow,38,345,None,,,,,,,,,,,,,2022_May_02_0943,59.9904135288,ProdSingRedo,001,C 45,
53,0,53,0,,,,,,,,,,,,,,build,sing,red,18,35,None,,,,,,,,,,,,,2022_May_02_0943,59.9904135288,ProdSingRedo,001,C 45,
54,0,54,0,,,,,,,,,,,,,,store,aloud,yellow,44,305,None,,,,,,,,,,,,,2022_May_02_0943,59.9904135288,ProdSingRedo,001,C 45,
55,0,55,0,,,,,,,,,,,,,,sunset,silent,blue,72,315,None,,,,,,,,,,,,,2022_May_02_0943,59.9904135288,ProdSingRedo,001,C 45,
56,0,56,0,,,,,,,,,,,,,,watch,sing,red,9,351,None,,,,,,,,,,,,,2022_May_02_0943,59.9904135288,ProdSingRedo,001,C 45,
57,0,57,0,,,,,,,,,,,,,,throw,sing,red,10,330,None,,,,,,,,,,,,,2022_May_02_0943,59.9904135288,ProdSingRedo,001,C 45,
58,0,58,0,,,,,,,,,,,,,,brief,silent,blue,88,28,None,,,,,,,,,,,,,2022_May_02_0943,59.9904135288,ProdSingRedo,001,C 45,
59,0,59,0,,,,,,,,,,,,,,pretty,silent,blue,79,233,None,,,,,,,,,,,,,2022_May_02_0943,59.9904135288,ProdSingRedo,001,C 45,
60,0,60,0,,,,,,,,,,,,,,education,aloud,yellow,34,108,None,,,,,,,,,,,,,2022_May_02_0943,59.9904135288,ProdSingRedo,001,C 45,
61,0,61,0,,,,,,,,,,,,,,spoke,aloud,yellow,53,300,None,,,,,,,,,,,,,2022_May_02_0943,59.9904135288,ProdSingRedo,001,C 45,
62,0,62,0,,,,,,,,,,,,,,trash,sing,red,27,337,None,,,,,,,,,,,,,2022_May_02_0943,59.9904135288,ProdSingRedo,001,C 45,
63,0,63,0,,,,,,,,,,,,,,harmony,sing,red,1,148,None,,,,,,,,,,,,,2022_May_02_0943,59.9904135288,ProdSingRedo,001,C 45,
64,0,64,0,,,,,,,,,,,,,,partner,sing,red,19,211,None,,,,,,,,,,,,,2022_May_02_0943,59.9904135288,ProdSingRedo,001,C 45,
65,0,65,0,,,,,,,,,,,,,,turkey,silent,blue,71,342,None,,,,,,,,,,,,,2022_May_02_0943,59.9904135288,ProdSingRedo,001,C 45,
66,0,66,0,,,,,,,,,,,,,,welcome,sing,red,7,354,None,,,,,,,,,,,,,2022_May_02_0943,59.9904135288,ProdSingRedo,001,C 45,
67,0,67,0,,,,,,,,,,,,,,break,aloud,yellow,41,26,None,,,,,,,,,,,,,2022_May_02_0943,59.9904135288,ProdSingRedo,001,C 45,
68,0,68,0,,,,,,,,,,,,,,shape,aloud,yellow,36,282,None,,,,,,,,,,,,,2022_May_02_0943,59.9904135288,ProdSingRedo,001,C 45,
69,0,69,0,,,,,,,,,,,,,,strength,sing,red,5,310,None,,,,,,,,,,,,,2022_May_02_0943,59.9904135288,ProdSingRedo,001,C 45,
70,0,70,0,,,,,,,,,,,,,,weather,aloud,yellow,30,352,None,,,,,,,,,,,,,2022_May_02_0943,59.9904135288,ProdSingRedo,001,C 45,
71,0,71,0,,,,,,,,,,,,,,court,aloud,yellow,40,75,None,,,,,,,,,,,,,2022_May_02_0943,59.9904135288,ProdSingRedo,001,C 45,
72,0,72,0,,,,,,,,,,,,,,drama,sing,red,29,103,None,,,,,,,,,,,,,2022_May_02_0943,59.9904135288,ProdSingRedo,001,C 45,
73,0,73,0,,,,,,,,,,,,,,prime,aloud,yellow,37,235,None,,,,,,,,,,,,,2022_May_02_0943,59.9904135288,ProdSingRedo,001,C 45,
74,0,74,0,,,,,,,,,,,,,,commercial,aloud,yellow,39,61,None,,,,,,,,,,,,,2022_May_02_0943,59.9904135288,ProdSingRedo,001,C 45,
75,0,75,0,,,,,,,,,,,,,,mankind,sing,red,8,178,None,,,,,,,,,,,,,2022_May_02_0943,59.9904135288,ProdSingRedo,001,C 45,
76,0,76,0,,,,,,,,,,,,,,equipment,sing,red,21,116,None,,,,,,,,,,,,,2022_May_02_0943,59.9904135288,ProdSingRedo,001,C 45,
77,0,77,0,,,,,,,,,,,,,,mechanical,silent,blue,89,185,None,,,,,,,,,,,,,2022_May_02_0943,59.9904135288,ProdSingRedo,001,C 45,
78,0,78,0,,,,,,,,,,,,,,master,sing,red,2,180,None,,,,,,,,,,,,,2022_May_02_0943,59.9904135288,ProdSingRedo,001,C 45,
79,0,79,0,,,,,,,,,,,,,,month,silent,blue,69,193,None,,,,,,,,,,,,,2022_May_02_0943,59.9904135288,ProdSingRedo,001,C 45,
80,0,80,0,,,,,,,,,,,,,,grade,aloud,yellow,48,140,None,,,,,,,,,,,,,2022_May_02_0943,59.9904135288,ProdSingRedo,001,C 45,
81,0,81,0,,,,,,,,,,,,,,error,sing,red,23,117,None,,,,,,,,,,,,,2022_May_02_0943,59.9904135288,ProdSingRedo,001,C 45,
82,0,82,0,,,,,,,,,,,,,,trail,sing,red,26,336,None,,,,,,,,,,,,,2022_May_02_0943,59.9904135288,ProdSingRedo,001,C 45,
83,0,83,0,,,,,,,,,,,,,,tennis,silent,blue,78,323,None,,,,,,,,,,,,,2022_May_02_0943,59.9904135288,ProdSingRedo,001,C 45,
84,0,84,0,,,,,,,,,,,,,,voice,silent,blue,84,348,None,,,,,,,,,,,,,2022_May_02_0943,59.9904135288,ProdSingRedo,001,C 45,
85,0,85,0,,,,,,,,,,,,,,captain,aloud,yellow,33,41,None,,,,,,,,,,,,,2022_May_02_0943,59.9904135288,ProdSingRedo,001,C 45,
86,0,86,0,,,,,,,,,,,,,,century,silent,blue,60,45,None,,,,,,,,,,,,,2022_May_02_0943,59.9904135288,ProdSingRedo,001,C 45,
87,0,87,0,,,,,,,,,,,,,,atmosphere,aloud,yellow,58,12,None,,,,,,,,,,,,,2022_May_02_0943,59.9904135288,ProdSingRedo,001,C 45,
88,0,88,0,,,,,,,,,,,,,,frank,sing,red,13,133,None,,,,,,,,,,,,,2022_May_02_0943,59.9904135288,ProdSingRedo,001,C 45,
89,0,89,0,,,,,,,,,,,,,,surface,aloud,yellow,57,316,None,,,,,,,,,,,,,2022_May_02_0943,59.9904135288,ProdSingRedo,001,C 45,
,,,,,,,,,,,,,,,,,,,,,,,k,120.6232532,,,,,,,,,,,2022_May_02_0943,59.9904135288,ProdSingRedo,001,C 45,
,,,,0,0,0,0,,,,,,,,,,,,,,,,,,blind,sing,red,0,15,24,3,2.91668650002,f,2.95297139999,2022_May_02_0943,59.9904135288,ProdSingRedo,001,C 45,
,,,,1,0,1,0,,,,,,,,,,,,,,,,,,beginning,new_sing,red,1,103,19,1,3.18842949998,n,2.3237908,2022_May_02_0943,59.9904135288,ProdSingRedo,001,C 45,
,,,,2,0,2,0,,,,,,,,,,,,,,,,,,afternoon,sing,red,2,20,3,4,5.08286660002,r,2.11154149997,2022_May_02_0943,59.9904135288,ProdSingRedo,001,C 45,
,,,,3,0,3,0,,,,,,,,,,,,,,,,,,reach,sing,red,3,6,253,1,3.12882609997,n,1.56576329999,2022_May_02_0943,59.9904135288,ProdSingRedo,001,C 45,
,,,,4,0,4,0,,,,,,,,,,,,,,,,,,power,new_silent,blue,4,175,230,1,2.23166669998,n,1.03774440003,2022_May_02_0943,59.9904135288,ProdSingRedo,001,C 45,
,,,,5,0,5,0,,,,,,,,,,,,,,,,,,century,silent,blue,5,60,45,6,5.3333696,f,1.17767219996,2022_May_02_0943,59.9904135288,ProdSingRedo,001,C 45,
,,,,6,0,6,0,,,,,,,,,,,,,,,,,,group,new_silent,blue,6,152,143,6,2.82560889999,f,1.08075159998,2022_May_02_0943,59.9904135288,ProdSingRedo,001,C 45,
,,,,7,0,7,0,,,,,,,,,,,,,,,,,,majority,new_aloud,yellow,7,141,176,1,2.48776480003,n,0.725992000022,2022_May_02_0943,59.9904135288,ProdSingRedo,001,C 45,
,,,,8,0,8,0,,,,,,,,,,,,,,,,,,judge,sing,red,8,17,166,6,3.81413700001,r,2.9931895,2022_May_02_0943,59.9904135288,ProdSingRedo,001,C 45,
,,,,9,0,9,0,,,,,,,,,,,,,,,,,,fashion,sing,red,9,14,125,6,2.3286904,r,1.58110090002,2022_May_02_0943,59.9904135288,ProdSingRedo,001,C 45,
,,,,10,0,10,0,,,,,,,,,,,,,,,,,,reading,new_sing,red,10,118,254,4,3.50964459998,f,1.85842909996,2022_May_02_0943,59.9904135288,ProdSingRedo,001,C 45,
,,,,11,0,11,0,,,,,,,,,,,,,,,,,,institute,new_aloud,yellow,11,122,162,1,2.52312239999,n,0.735629899951,2022_May_02_0943,59.9904135288,ProdSingRedo,001,C 45,
,,,,12,0,12,0,,,,,,,,,,,,,,,,,,breath,new_sing,red,12,98,27,5,3.02944840002,f,0.583718600043,2022_May_02_0943,59.9904135288,ProdSingRedo,001,C 45,
,,,,13,0,13,0,,,,,,,,,,,,,,,,,,guard,new_sing,red,13,106,145,6,1.83329350001,r,1.76827380003,2022_May_02_0943,59.9904135288,ProdSingRedo,001,C 45,
,,,,14,0,14,0,,,,,,,,,,,,,,,,,,present,new_silent,blue,14,179,231,1,2.17751429998,n,0.767858300009,2022_May_02_0943,59.9904135288,ProdSingRedo,001,C 45,
,,,,15,0,15,0,,,,,,,,,,,,,,,,,,balance,sing,red,15,16,17,6,2.21764089999,r,0.992073200003,2022_May_02_0943,59.9904135288,ProdSingRedo,001,C 45,
,,,,16,0,16,0,,,,,,,,,,,,,,,,,,thick,new_aloud,yellow,16,135,327,1,1.76588289998,n,0.334911699989,2022_May_02_0943,59.9904135288,ProdSingRedo,001,C 45,
,,,,17,0,17,0,,,,,,,,,,,,,,,,,,medicine,aloud,yellow,17,35,186,6,1.92994850001,r,1.49969960004,2022_May_02_0943,59.9904135288,ProdSingRedo,001,C 45,
,,,,18,0,18,0,,,,,,,,,,,,,,,,,,murder,new_sing,red,18,94,195,1,1.687255,n,0.299705600017,2022_May_02_0943,59.9904135288,ProdSingRedo,001,C 45,
,,,,19,0,19,0,,,,,,,,,,,,,,,,,,master,sing,red,19,2,180,6,1.73354599997,r,1.00098529999,2022_May_02_0943,59.9904135288,ProdSingRedo,001,C 45,
,,,,20,0,20,0,,,,,,,,,,,,,,,,,,safety,silent,blue,20,87,270,4,3.03150149999,f,0.793688500009,2022_May_02_0943,59.9904135288,ProdSingRedo,001,C 45,
,,,,21,0,21,0,,,,,,,,,,,,,,,,,,little,silent,blue,21,73,174,3,2.04795920005,f,1.28783469996,2022_May_02_0943,59.9904135288,ProdSingRedo,001,C 45,
,,,,22,0,22,0,,,,,,,,,,,,,,,,,,commercial,aloud,yellow,22,39,61,6,2.11118900002,r,1.14775170002,2022_May_02_0943,59.9904135288,ProdSingRedo,001,C 45,
,,,,23,0,23,0,,,,,,,,,,,,,,,,,,notice,new_sing,red,23,96,201,1,1.50050720002,n,0.704979499977,2022_May_02_0943,59.9904135288,ProdSingRedo,001,C 45,
,,,,24,0,24,0,,,,,,,,,,,,,,,,,,couch,aloud,yellow,24,56,70,6,1.62956680002,f,1.29937590001,2022_May_02_0943,59.9904135288,ProdSingRedo,001,C 45,
,,,,25,0,25,0,,,,,,,,,,,,,,,,,,brilliant,new_aloud,yellow,25,121,30,6,2.47903640004,f,0.673348700046,2022_May_02_0943,59.9904135288,ProdSingRedo,001,C 45,
,,,,26,0,26,0,,,,,,,,,,,,,,,,,,incident,new_sing,red,26,105,158,1,1.83244040003,n,0.483403599996,2022_May_02_0943,59.9904135288,ProdSingRedo,001,C 45,
,,,,27,0,27,0,,,,,,,,,,,,,,,,,,thing,silent,blue,27,66,328,1,1.28055600001,n,0.585428399965,2022_May_02_0943,59.9904135288,ProdSingRedo,001,C 45,
,,,,28,0,28,0,,,,,,,,,,,,,,,,,,force,new_aloud,yellow,28,144,131,3,1.76021850004,f,1.0347286,2022_May_02_0943,59.9904135288,ProdSingRedo,001,C 45,
,,,,29,0,29,0,,,,,,,,,,,,,,,,,,junior,new_silent,blue,29,164,167,1,1.61345160002,n,0.749390999961,2022_May_02_0943,59.9904135288,ProdSingRedo,001,C 45,
,,,,30,0,30,0,,,,,,,,,,,,,,,,,,novel,new_aloud,yellow,30,147,202,2,2.38154859998,f,1.40042949998,2022_May_02_0943,59.9904135288,ProdSingRedo,001,C 45,
,,,,31,0,31,0,,,,,,,,,,,,,,,,,,salary,new_aloud,yellow,31,148,271,1,1.87167560001,n,0.893251100031,2022_May_02_0943,59.9904135288,ProdSingRedo,001,C 45,
,,,,32,0,32,0,,,,,,,,,,,,,,,,,,court,aloud,yellow,32,40,75,6,1.91210460005,r,0.788633999997,2022_May_02_0943,59.9904135288,ProdSingRedo,001,C 45,
,,,,33,0,33,0,,,,,,,,,,,,,,,,,,background,aloud,yellow,33,32,16,6,2.04982730001,f,0.884441900009,2022_May_02_0943,59.9904135288,ProdSingRedo,001,C 45,
,,,,34,0,34,0,,,,,,,,,,,,,,,,,,drama,sing,red,34,29,103,6,1.59187850001,f,0.580225900048,2022_May_02_0943,59.9904135288,ProdSingRedo,001,C 45,
,,,,35,0,35,0,,,,,,,,,,,,,,,,,,brief,silent,blue,35,88,28,2,2.11367650004,n,0.836098500004,2022_May_02_0943,59.9904135288,ProdSingRedo,001,C 45,
,,,,36,0,36,0,,,,,,,,,,,,,,,,,,executive,new_aloud,yellow,36,130,122,5,3.44198220002,f,1.2645849,2022_May_02_0943,59.9904135288,ProdSingRedo,001,C 45,
,,,,37,0,37,0,,,,,,,,,,,,,,,,,,meeting,new_silent,blue,37,172,187,4,2.20924970001,r,0.963081500027,2022_May_02_0943,59.9904135288,ProdSingRedo,001,C 45,
,,,,38,0,38,0,,,,,,,,,,,,,,,,,,sight,silent,blue,38,63,286,1,1.68413890002,n,0.800509599969,2022_May_02_0943,59.9904135288,ProdSingRedo,001,C 45,
,,,,39,0,39,0,,,,,,,,,,,,,,,,,,running,new_sing,red,39,115,268,1,1.39822199999,n,0.744628100016,2022_May_02_0943,59.9904135288,ProdSingRedo,001,C 45,
,,,,40,0,40,0,,,,,,,,,,,,,,,,,,store,aloud,yellow,40,44,305,3,2.17668219999,n,1.00690899999,2022_May_02_0943,59.9904135288,ProdSingRedo,001,C 45,
,,,,41,0,41,0,,,,,,,,,,,,,,,,,,weather,aloud,yellow,41,30,352,4,2.5061084,f,1.40331610001,2022_May_02_0943,59.9904135288,ProdSingRedo,001,C 45,
,,,,42,0,42,0,,,,,,,,,,,,,,,,,,spoke,aloud,yellow,42,53,300,6,1.8602615,r,1.24850069999,2022_May_02_0943,59.9904135288,ProdSingRedo,001,C 45,
,,,,43,0,43,0,,,,,,,,,,,,,,,,,,smooth,new_sing,red,43,102,292,3,2.18144459999,n,0.669965000008,2022_May_02_0943,59.9904135288,ProdSingRedo,001,C 45,
,,,,44,0,44,0,,,,,,,,,,,,,,,,,,corner,new_sing,red,44,107,69,5,2.99553670001,f,1.08872550004,2022_May_02_0943,59.9904135288,ProdSingRedo,001,C 45,
,,,,45,0,45,0,,,,,,,,,,,,,,,,,,principal,new_sing,red,45,92,236,5,2.02768950001,f,0.742742200033,2022_May_02_0943,59.9904135288,ProdSingRedo,001,C 45,
,,,,46,0,46,0,,,,,,,,,,,,,,,,,,plane,new_silent,blue,46,171,223,1,1.61287450005,n,0.717416299973,2022_May_02_0943,59.9904135288,ProdSingRedo,001,C 45,
,,,,47,0,47,0,,,,,,,,,,,,,,,,,,sleep,aloud,yellow,47,50,290,2,2.56676820002,n,0.741208599997,2022_May_02_0943,59.9904135288,ProdSingRedo,001,C 45,
,,,,48,0,48,0,,,,,,,,,,,,,,,,,,sound,new_aloud,yellow,48,134,295,6,2.22888890002,r,1.01657049998,2022_May_02_0943,59.9904135288,ProdSingRedo,001,C 45,
,,,,49,0,49,0,,,,,,,,,,,,,,,,,,fellow,new_silent,blue,49,159,126,1,1.85790660005,n,0.546364000009,2022_May_02_0943,59.9904135288,ProdSingRedo,001,C 45,
,,,,50,0,50,0,,,,,,,,,,,,,,,,,,rural,new_silent,blue,50,157,269,1,1.14487760002,n,0.594835600001,2022_May_02_0943,59.9904135288,ProdSingRedo,001,C 45,
,,,,51,0,51,0,,,,,,,,,,,,,,,,,,production,silent,blue,51,68,240,1,2.33393989998,n,0.595718899975,2022_May_02_0943,59.9904135288,ProdSingRedo,001,C 45,
,,,,52,0,52,0,,,,,,,,,,,,,,,,,,substance,silent,blue,52,70,313,4,1.65292140003,r,0.705341699999,2022_May_02_0943,59.9904135288,ProdSingRedo,001,C 45,
,,,,53,0,53,0,,,,,,,,,,,,,,,,,,election,new_aloud,yellow,53,146,109,3,1.82794680004,f,0.898339799955,2022_May_02_0943,59.9904135288,ProdSingRedo,001,C 45,
,,,,54,0,54,0,,,,,,,,,,,,,,,,,,revolution,aloud,yellow,54,49,264,6,2.28629730002,r,0.428262600035,2022_May_02_0943,59.9904135288,ProdSingRedo,001,C 45,
,,,,55,0,55,0,,,,,,,,,,,,,,,,,,beauty,new_aloud,yellow,55,133,18,2,2.535745,n,0.332599399961,2022_May_02_0943,59.9904135288,ProdSingRedo,001,C 45,
,,,,56,0,56,0,,,,,,,,,,,,,,,,,,country,new_silent,blue,56,162,73,1,1.88844260003,n,0.776587800006,2022_May_02_0943,59.9904135288,ProdSingRedo,001,C 45,
,,,,57,0,57,0,,,,,,,,,,,,,,,,,,pretty,silent,blue,57,79,233,1,1.5806095,n,0.579080299998,2022_May_02_0943,59.9904135288,ProdSingRedo,001,C 45,
,,,,58,0,58,0,,,,,,,,,,,,,,,,,,worker,aloud,yellow,58,59,356,5,1.49507410004,f,0.862665500026,2022_May_02_0943,59.9904135288,ProdSingRedo,001,C 45,
,,,,59,0,59,0,,,,,,,,,,,,,,,,,,break,aloud,yellow,59,41,26,1,1.62261980004,n,0.36289800005,2022_May_02_0943,59.9904135288,ProdSingRedo,001,C 45,
,,,,60,0,60,0,,,,,,,,,,,,,,,,,,threat,aloud,yellow,60,31,329,4,1.87583439995,f,0.629779700015,2022_May_02_0943,59.9904135288,ProdSingRedo,001,C 45,
,,,,61,0,61,0,,,,,,,,,,,,,,,,,,month,silent,blue,61,69,193,1,2.13306020002,n,0.354471399973,2022_May_02_0943,59.9904135288,ProdSingRedo,001,C 45,
,,,,62,0,62,0,,,,,,,,,,,,,,,,,,society,new_sing,red,62,100,293,1,2.39266209997,n,0.721474700025,2022_May_02_0943,59.9904135288,ProdSingRedo,001,C 45,
,,,,63,0,63,0,,,,,,,,,,,,,,,,,,shock,silent,blue,63,76,284,2,3.34306020004,n,0.526982599986,2022_May_02_0943,59.9904135288,ProdSingRedo,001,C 45,
,,,,64,0,64,0,,,,,,,,,,,,,,,,,,division,silent,blue,64,77,101,3,3.25513170002,n,0.743379899999,2022_May_02_0943,59.9904135288,ProdSingRedo,001,C 45,
,,,,65,0,65,0,,,,,,,,,,,,,,,,,,still,new_sing,red,65,119,304,1,1.52366080001,n,0.322245599993,2022_May_02_0943,59.9904135288,ProdSingRedo,001,C 45,
,,,,66,0,66,0,,,,,,,,,,,,,,,,,,interview,silent,blue,66,64,165,5,1.69609809999,f,0.819342800009,2022_May_02_0943,59.9904135288,ProdSingRedo,001,C 45,
,,,,67,0,67,0,,,,,,,,,,,,,,,,,,burden,aloud,yellow,67,42,36,6,2.32600509998,r,0.837641499995,2022_May_02_0943,59.9904135288,ProdSingRedo,001,C 45,
,,,,68,0,68,0,,,,,,,,,,,,,,,,,,report,new_aloud,yellow,68,129,259,2,3.02937499998,f,1.20596509997,2022_May_02_0943,59.9904135288,ProdSingRedo,001,C 45,
,,,,69,0,69,0,,,,,,,,,,,,,,,,,,raise,new_silent,blue,69,167,250,1,2.4311859,n,0.249098300003,2022_May_02_0943,59.9904135288,ProdSingRedo,001,C 45,
,,,,70,0,70,0,,,,,,,,,,,,,,,,,,death,new_sing,red,70,90,86,4,2.06163110002,f,0.836329099955,2022_May_02_0943,59.9904135288,ProdSingRedo,001,C 45,
,,,,71,0,71,0,,,,,,,,,,,,,,,,,,partner,sing,red,71,19,211,6,2.09645479999,r,1.32886509999,2022_May_02_0943,59.9904135288,ProdSingRedo,001,C 45,
,,,,72,0,72,0,,,,,,,,,,,,,,,,,,quick,new_silent,blue,72,177,248,2,2.12434949999,n,0.781896199973,2022_May_02_0943,59.9904135288,ProdSingRedo,001,C 45,
,,,,73,0,73,0,,,,,,,,,,,,,,,,,,relation,new_sing,red,73,108,257,4,2.19517690002,f,0.762699000014,2022_May_02_0943,59.9904135288,ProdSingRedo,001,C 45,
,,,,74,0,74,0,,,,,,,,,,,,,,,,,,turkey,silent,blue,74,71,342,1,2.91619010002,f,1.2931372,2022_May_02_0943,59.9904135288,ProdSingRedo,001,C 45,
,,,,75,0,75,0,,,,,,,,,,,,,,,,,,answer,new_silent,blue,75,153,8,6,2.80924490001,f,0.978973399964,2022_May_02_0943,59.9904135288,ProdSingRedo,001,C 45,
,,,,76,0,76,0,,,,,,,,,,,,,,,,,,dispute,new_aloud,yellow,76,120,99,1,1.99020649999,n,0.264242900012,2022_May_02_0943,59.9904135288,ProdSingRedo,001,C 45,
,,,,77,0,77,0,,,,,,,,,,,,,,,,,,stranger,new_silent,blue,77,170,309,1,1.67698069999,n,0.226961799955,2022_May_02_0943,59.9904135288,ProdSingRedo,001,C 45,
,,,,78,0,78,0,,,,,,,,,,,,,,,,,,design,silent,blue,78,80,91,5,1.98495439999,f,0.850447100005,2022_May_02_0943,59.9904135288,ProdSingRedo,001,C 45,
,,,,79,0,79,0,,,,,,,,,,,,,,,,,,throw,sing,red,79,10,330,6,1.51634550001,f,0.402746099979,2022_May_02_0943,59.9904135288,ProdSingRedo,001,C 45,
,,,,80,0,80,0,,,,,,,,,,,,,,,,,,match,new_sing,red,80,97,181,2,2.64130760002,n,0.883568699996,2022_May_02_0943,59.9904135288,ProdSingRedo,001,C 45,
,,,,81,0,81,0,,,,,,,,,,,,,,,,,,department,aloud,yellow,81,51,90,6,1.5152959,r,0.850657599978,2022_May_02_0943,59.9904135288,ProdSingRedo,001,C 45,
,,,,82,0,82,0,,,,,,,,,,,,,,,,,,smell,silent,blue,82,62,291,4,3.19882450002,f,0.238632499997,2022_May_02_0943,59.9904135288,ProdSingRedo,001,C 45,
,,,,83,0,83,0,,,,,,,,,,,,,,,,,,opening,new_aloud,yellow,83,149,205,2,1.62536409998,n,0.0790315999766,2022_May_02_0943,59.9904135288,ProdSingRedo,001,C 45,
,,,,84,0,84,0,,,,,,,,,,,,,,,,,,grade,aloud,yellow,84,48,140,2,1.79807700001,n,0.215376800043,2022_May_02_0943,59.9904135288,ProdSingRedo,001,C 45,
,,,,85,0,85,0,,,,,,,,,,,,,,,,,,expansion,new_aloud,yellow,85,138,123,4,2.12547780003,n,0.426376299991,2022_May_02_0943,59.9904135288,ProdSingRedo,001,C 45,
,,,,86,0,86,0,,,,,,,,,,,,,,,,,,express,aloud,yellow,86,54,124,2,3.43051290006,f,0.418837500038,2022_May_02_0943,59.9904135288,ProdSingRedo,001,C 45,
,,,,87,0,87,0,,,,,,,,,,,,,,,,,,place,sing,red,87,11,222,5,1.99725830002,f,0.418132200022,2022_May_02_0943,59.9904135288,ProdSingRedo,001,C 45,
,,,,88,0,88,0,,,,,,,,,,,,,,,,,,review,new_aloud,yellow,88,124,263,4,2.32574110001,f,0.273219899973,2022_May_02_0943,59.9904135288,ProdSingRedo,001,C 45,
,,,,89,0,89,0,,,,,,,,,,,,,,,,,,sweet,new_aloud,yellow,89,128,319,1,1.37708179996,n,0.316228899988,2022_May_02_0943,59.9904135288,ProdSingRedo,001,C 45,
,,,,90,0,90,0,,,,,,,,,,,,,,,,,,mayor,sing,red,90,12,183,6,1.51406640001,f,0.419037899992,2022_May_02_0943,59.9904135288,ProdSingRedo,001,C 45,
,,,,91,0,91,0,,,,,,,,,,,,,,,,,,fight,new_silent,blue,91,168,127,2,2.52648569999,f,0.379171499982,2022_May_02_0943,59.9904135288,ProdSingRedo,001,C 45,
,,,,92,0,92,0,,,,,,,,,,,,,,,,,,school,new_silent,blue,92,150,274,2,1.81620220002,f,0.200177299965,2022_May_02_0943,59.9904135288,ProdSingRedo,001,C 45,
,,,,93,0,93,0,,,,,,,,,,,,,,,,,,territory,aloud,yellow,93,45,324,6,1.57067680004,r,0.616632000019,2022_May_02_0943,59.9904135288,ProdSingRedo,001,C 45,
,,,,94,0,94,0,,,,,,,,,,,,,,,,,,captain,aloud,yellow,94,33,41,4,3.62252089998,f,0.294988700014,2022_May_02_0943,59.9904135288,ProdSingRedo,001,C 45,
,,,,95,0,95,0,,,,,,,,,,,,,,,,,,attack,new_silent,blue,95,165,13,1,1.42445769999,n,0.0759396000067,2022_May_02_0943,59.9904135288,ProdSingRedo,001,C 45,
,,,,96,0,96,0,,,,,,,,,,,,,,,,,,welcome,sing,red,96,7,354,6,1.97528820002,r,0.865923399979,2022_May_02_0943,59.9904135288,ProdSingRedo,001,C 45,
,,,,97,0,97,0,,,,,,,,,,,,,,,,,,trash,sing,red,97,27,337,6,1.74521969998,r,0.319419800013,2022_May_02_0943,59.9904135288,ProdSingRedo,001,C 45,
,,,,98,0,98,0,,,,,,,,,,,,,,,,,,account,new_sing,red,98,113,1,3,1.79550589999,f,1.26092059998,2022_May_02_0943,59.9904135288,ProdSingRedo,001,C 45,
,,,,99,0,99,0,,,,,,,,,,,,,,,,,,dream,new_silent,blue,99,173,104,1,1.3978181,n,0.170675100002,2022_May_02_0943,59.9904135288,ProdSingRedo,001,C 45,
,,,,100,0,100,0,,,,,,,,,,,,,,,,,,council,silent,blue,100,81,71,6,1.25586809998,r,0.864150199981,2022_May_02_0943,59.9904135288,ProdSingRedo,001,C 45,
,,,,101,0,101,0,,,,,,,,,,,,,,,,,,people,new_aloud,yellow,101,139,216,3,1.48332659999,f,0.0702561999788,2022_May_02_0943,59.9904135288,ProdSingRedo,001,C 45,
,,,,102,0,102,0,,,,,,,,,,,,,,,,,,prime,aloud,yellow,102,37,235,6,1.3308923,f,0.693734299974,2022_May_02_0943,59.9904135288,ProdSingRedo,001,C 45,
,,,,103,0,103,0,,,,,,,,,,,,,,,,,,oxygen,silent,blue,103,83,209,1,1.533635,n,0.104341599974,2022_May_02_0943,59.9904135288,ProdSingRedo,001,C 45,
,,,,104,0,104,0,,,,,,,,,,,,,,,,,,trail,sing,red,104,26,336,6,1.19719169999,r,0.332729600021,2022_May_02_0943,59.9904135288,ProdSingRedo,001,C 45,
,,,,105,0,105,0,,,,,,,,,,,,,,,,,,exchange,new_silent,blue,105,158,121,2,2.023927,n,0.294018500019,2022_May_02_0943,59.9904135288,ProdSingRedo,001,C 45,
,,,,106,0,106,0,,,,,,,,,,,,,,,,,,impact,new_silent,blue,106,178,157,2,3.20931249997,n,0.898025000002,2022_May_02_0943,59.9904135288,ProdSingRedo,001,C 45,
,,,,107,0,107,0,,,,,,,,,,,,,,,,,,route,new_sing,red,107,117,267,1,3.2830384,n,0.818078200042,2022_May_02_0943,59.9904135288,ProdSingRedo,001,C 45,
,,,,108,0,108,0,,,,,,,,,,,,,,,,,,treatment,aloud,yellow,108,55,339,5,1.5348049,f,0.781692599994,2022_May_02_0943,59.9904135288,ProdSingRedo,001,C 45,
,,,,109,0,109,0,,,,,,,,,,,,,,,,,,finance,new_silent,blue,109,176,129,4,2.26692660002,f,0.434349099989,2022_May_02_0943,59.9904135288,ProdSingRedo,001,C 45,
,,,,110,0,110,0,,,,,,,,,,,,,,,,,,period,aloud,yellow,110,52,217,6,1.23417839996,r,0.289248100016,2022_May_02_0943,59.9904135288,ProdSingRedo,001,C 45,
,,,,111,0,111,0,,,,,,,,,,,,,,,,,,straight,silent,blue,111,86,307,1,1.83667560003,n,0.29834509996,2022_May_02_0943,59.9904135288,ProdSingRedo,001,C 45,
,,,,112,0,112,0,,,,,,,,,,,,,,,,,,count,silent,blue,112,85,72,1,1.53045180003,n,0.121994400048,2022_May_02_0943,59.9904135288,ProdSingRedo,001,C 45,
,,,,113,0,113,0,,,,,,,,,,,,,,,,,,accident,new_aloud,yellow,113,136,0,5,1.72907379997,f,0.741031099984,2022_May_02_0943,59.9904135288,ProdSingRedo,001,C 45,
,,,,114,0,114,0,,,,,,,,,,,,,,,,,,measure,new_silent,blue,114,160,184,2,2.4049506,n,0.26595609996,2022_May_02_0943,59.9904135288,ProdSingRedo,001,C 45,
,,,,115,0,115,0,,,,,,,,,,,,,,,,,,atmosphere,aloud,yellow,115,58,12,6,1.27572999999,f,0.337855599995,2022_May_02_0943,59.9904135288,ProdSingRedo,001,C 45,
,,,,116,0,116,0,,,,,,,,,,,,,,,,,,question,aloud,yellow,116,43,247,6,1.3520595,f,0.227224999981,2022_May_02_0943,59.9904135288,ProdSingRedo,001,C 45,
,,,,117,0,117,0,,,,,,,,,,,,,,,,,,primary,silent,blue,117,74,234,1,2.41549570003,n,0.699563700007,2022_May_02_0943,59.9904135288,ProdSingRedo,001,C 45,
,,,,118,0,118,0,,,,,,,,,,,,,,,,,,length,new_silent,blue,118,154,169,1,1.6995169,n,0.568503900024,2022_May_02_0943,59.9904135288,ProdSingRedo,001,C 45,
,,,,119,0,119,0,,,,,,,,,,,,,,,,,,music,new_aloud,yellow,119,140,196,6,1.96075019997,f,0.365179800021,2022_May_02_0943,59.9904135288,ProdSingRedo,001,C 45,
,,,,120,0,120,0,,,,,,,,,,,,,,,,,,tennis,silent,blue,120,78,323,6,1.38484750001,f,0.322700400022,2022_May_02_0943,59.9904135288,ProdSingRedo,001,C 45,
,,,,121,0,121,0,,,,,,,,,,,,,,,,,,minor,new_aloud,yellow,121,132,191,6,1.17630729999,f,0.224277000001,2022_May_02_0943,59.9904135288,ProdSingRedo,001,C 45,
,,,,122,0,122,0,,,,,,,,,,,,,,,,,,build,sing,red,122,18,35,6,1.18593859999,f,0.267023499997,2022_May_02_0943,59.9904135288,ProdSingRedo,001,C 45,
,,,,123,0,123,0,,,,,,,,,,,,,,,,,,short,new_sing,red,123,95,285,1,1.50515630003,n,0.606013099954,2022_May_02_0943,59.9904135288,ProdSingRedo,001,C 45,
,,,,124,0,124,0,,,,,,,,,,,,,,,,,,motion,sing,red,124,22,194,5,1.38009370002,f,0.251263300015,2022_May_02_0943,59.9904135288,ProdSingRedo,001,C 45,
,,,,125,0,125,0,,,,,,,,,,,,,,,,,,symbol,aloud,yellow,125,47,321,4,2.12250279996,f,0.791176600032,2022_May_02_0943,59.9904135288,ProdSingRedo,001,C 45,
,,,,126,0,126,0,,,,,,,,,,,,,,,,,,second,new_silent,blue,126,156,278,1,2.22127450001,n,0.32055600005,2022_May_02_0943,59.9904135288,ProdSingRedo,001,C 45,
,,,,127,0,127,0,,,,,,,,,,,,,,,,,,swift,new_silent,blue,127,174,320,1,3.5329629,n,0.527352800011,2022_May_02_0943,59.9904135288,ProdSingRedo,001,C 45,
,,,,128,0,128,0,,,,,,,,,,,,,,,,,,agreement,new_sing,red,128,110,5,5,1.4551505,f,0.479241300025,2022_May_02_0943,59.9904135288,ProdSingRedo,001,C 45,
,,,,129,0,129,0,,,,,,,,,,,,,,,,,,display,new_silent,blue,129,166,98,1,1.8427871,n,0.331005099986,2022_May_02_0943,59.9904135288,ProdSingRedo,001,C 45,
,,,,130,0,130,0,,,,,,,,,,,,,,,,,,household,new_silent,blue,130,169,154,1,1.36988190003,n,0.304791499977,2022_May_02_0943,59.9904135288,ProdSingRedo,001,C 45,
,,,,131,0,131,0,,,,,,,,,,,,,,,,,,nature,new_aloud,yellow,131,131,200,3,1.7261578,f,0.744081499986,2022_May_02_0943,59.9904135288,ProdSingRedo,001,C 45,
,,,,132,0,132,0,,,,,,,,,,,,,,,,,,error,sing,red,132,23,117,6,1.41664870002,r,0.322143900034,2022_May_02_0943,59.9904135288,ProdSingRedo,001,C 45,
,,,,133,0,133,0,,,,,,,,,,,,,,,,,,sunset,silent,blue,133,72,315,2,2.78071890003,n,0.130996699969,2022_May_02_0943,59.9904135288,ProdSingRedo,001,C 45,
,,,,134,0,134,0,,,,,,,,,,,,,,,,,,agency,new_sing,red,134,112,4,1,2.17680949997,n,0.2632323,2022_May_02_0943,59.9904135288,ProdSingRedo,001,C 45,
,,,,135,0,135,0,,,,,,,,,,,,,,,,,,cousin,silent,blue,135,65,76,6,1.1902984,f,0.518280400021,2022_May_02_0943,59.9904135288,ProdSingRedo,001,C 45,
,,,,136,0,136,0,,,,,,,,,,,,,,,,,,escape,new_sing,red,136,93,118,4,2.44265410001,f,0.296652799996,2022_May_02_0943,59.9904135288,ProdSingRedo,001,C 45,
,,,,137,0,137,0,,,,,,,,,,,,,,,,,,watch,sing,red,137,9,351,1,1.75050739996,n,0.870687000046,2022_May_02_0943,59.9904135288,ProdSingRedo,001,C 45,
,,,,138,0,138,0,,,,,,,,,,,,,,,,,,community,aloud,yellow,138,46,63,6,1.1999609,f,0.674853600038,2022_May_02_0943,59.9904135288,ProdSingRedo,001,C 45,
,,,,139,0,139,0,,,,,,,,,,,,,,,,,,education,aloud,yellow,139,34,108,6,1.34911810001,r,0.274389999977,2022_May_02_0943,59.9904135288,ProdSingRedo,001,C 45,
,,,,140,0,140,0,,,,,,,,,,,,,,,,,,surface,aloud,yellow,140,57,316,2,4.20999440004,n,0.316063100006,2022_May_02_0943,59.9904135288,ProdSingRedo,001,C 45,
,,,,141,0,141,0,,,,,,,,,,,,,,,,,,tragedy,new_silent,blue,141,155,335,2,3.11494319997,n,0.441483800008,2022_May_02_0943,59.9904135288,ProdSingRedo,001,C 45,
,,,,142,0,142,0,,,,,,,,,,,,,,,,,,broad,sing,red,142,3,31,6,1.37937619997,r,1.169956,2022_May_02_0943,59.9904135288,ProdSingRedo,001,C 45,
,,,,143,0,143,0,,,,,,,,,,,,,,,,,,cross,new_aloud,yellow,143,126,80,1,1.66494779999,n,0.349093700002,2022_May_02_0943,59.9904135288,ProdSingRedo,001,C 45,
,,,,144,0,144,0,,,,,,,,,,,,,,,,,,block,new_sing,red,144,99,25,1,1.44712020003,n,0.265858899977,2022_May_02_0943,59.9904135288,ProdSingRedo,001,C 45,
,,,,145,0,145,0,,,,,,,,,,,,,,,,,,heavy,new_aloud,yellow,145,145,151,2,1.7411248,f,0.269942399987,2022_May_02_0943,59.9904135288,ProdSingRedo,001,C 45,
,,,,146,0,146,0,,,,,,,,,,,,,,,,,,surprise,new_sing,red,146,104,317,1,2.14211060002,n,0.184419999947,2022_May_02_0943,59.9904135288,ProdSingRedo,001,C 45,
,,,,147,0,147,0,,,,,,,,,,,,,,,,,,vision,new_silent,blue,147,151,347,4,1.5511485,f,0.366166599968,2022_May_02_0943,59.9904135288,ProdSingRedo,001,C 45,
,,,,148,0,148,0,,,,,,,,,,,,,,,,,,pressure,silent,blue,148,75,232,2,1.56008520001,f,0.250120199984,2022_May_02_0943,59.9904135288,ProdSingRedo,001,C 45,
,,,,149,0,149,0,,,,,,,,,,,,,,,,,,device,new_sing,red,149,111,93,1,1.59842439997,n,0.300665300048,2022_May_02_0943,59.9904135288,ProdSingRedo,001,C 45,
,,,,150,0,150,0,,,,,,,,,,,,,,,,,,waste,new_sing,red,150,114,350,5,1.5087674,f,0.317481199978,2022_May_02_0943,59.9904135288,ProdSingRedo,001,C 45,
,,,,151,0,151,0,,,,,,,,,,,,,,,,,,drove,new_sing,red,151,116,106,5,2.1286317,f,0.0905519000371,2022_May_02_0943,59.9904135288,ProdSingRedo,001,C 45,
,,,,152,0,152,0,,,,,,,,,,,,,,,,,,damage,new_sing,red,152,109,83,1,1.39958329999,n,0.334234000009,2022_May_02_0943,59.9904135288,ProdSingRedo,001,C 45,
,,,,153,0,153,0,,,,,,,,,,,,,,,,,,machinery,sing,red,153,25,175,6,2.34885110002,r,0.259579900012,2022_May_02_0943,59.9904135288,ProdSingRedo,001,C 45,
,,,,154,0,154,0,,,,,,,,,,,,,,,,,,appearance,new_aloud,yellow,154,125,10,1,1.45162529999,n,0.302020000003,2022_May_02_0943,59.9904135288,ProdSingRedo,001,C 45,
,,,,155,0,155,0,,,,,,,,,,,,,,,,,,research,sing,red,155,0,261,4,1.72028439998,f,0.180112199974,2022_May_02_0943,59.9904135288,ProdSingRedo,001,C 45,
,,,,156,0,156,0,,,,,,,,,,,,,,,,,,addition,new_aloud,yellow,156,142,2,1,1.34296789998,n,0.31150359998,2022_May_02_0943,59.9904135288,ProdSingRedo,001,C 45,
,,,,157,0,157,0,,,,,,,,,,,,,,,,,,style,new_aloud,yellow,157,123,311,5,2.41520269995,f,0.270698000037,2022_May_02_0943,59.9904135288,ProdSingRedo,001,C 45,
,,,,158,0,158,0,,,,,,,,,,,,,,,,,,strength,sing,red,158,5,310,1,1.4762714,n,0.185545600019,2022_May_02_0943,59.9904135288,ProdSingRedo,001,C 45,
,,,,159,0,159,0,,,,,,,,,,,,,,,,,,conference,new_aloud,yellow,159,127,66,1,1.76649800001,n,0.325445500028,2022_May_02_0943,59.9904135288,ProdSingRedo,001,C 45,
,,,,160,0,160,0,,,,,,,,,,,,,,,,,,mechanical,silent,blue,160,89,185,6,2.2914478,f,0.592272299982,2022_May_02_0943,59.9904135288,ProdSingRedo,001,C 45,
,,,,161,0,161,0,,,,,,,,,,,,,,,,,,entrance,silent,blue,161,61,115,2,1.70299419999,n,0.130255100026,2022_May_02_0943,59.9904135288,ProdSingRedo,001,C 45,
,,,,162,0,162,0,,,,,,,,,,,,,,,,,,charter,new_aloud,yellow,162,137,47,1,1.26339899999,n,0.249817000004,2022_May_02_0943,59.9904135288,ProdSingRedo,001,C 45,
,,,,163,0,163,0,,,,,,,,,,,,,,,,,,candidate,silent,blue,163,82,39,1,1.44174489996,n,0.174146000005,2022_May_02_0943,59.9904135288,ProdSingRedo,001,C 45,
,,,,164,0,164,0,,,,,,,,,,,,,,,,,,birth,new_sing,red,164,101,22,1,1.25096560002,n,0.217796900019,2022_May_02_0943,59.9904135288,ProdSingRedo,001,C 45,
,,,,165,0,165,0,,,,,,,,,,,,,,,,,,position,new_silent,blue,165,163,229,3,1.38041290001,f,0.219556900032,2022_May_02_0943,59.9904135288,ProdSingRedo,001,C 45,
,,,,166,0,166,0,,,,,,,,,,,,,,,,,,harmony,sing,red,166,1,148,6,1.43404690002,r,0.096430799982,2022_May_02_0943,59.9904135288,ProdSingRedo,001,C 45,
,,,,167,0,167,0,,,,,,,,,,,,,,,,,,shape,aloud,yellow,167,36,282,6,3.26250129996,r,0.118089099997,2022_May_02_0943,59.9904135288,ProdSingRedo,001,C 45,
,,,,168,0,168,0,,,,,,,,,,,,,,,,,,bright,new_silent,blue,168,161,29,5,3.2891089,f,0.0499800000107,2022_May_02_0943,59.9904135288,ProdSingRedo,001,C 45,
,,,,169,0,169,0,,,,,,,,,,,,,,,,,,voice,silent,blue,169,84,348,5,1.26532409998,f,0.204323399987,2022_May_02_0943,59.9904135288,ProdSingRedo,001,C 45,
,,,,170,0,170,0,,,,,,,,,,,,,,,,,,owner,silent,blue,170,67,208,1,1.5774676,n,0.264710699965,2022_May_02_0943,59.9904135288,ProdSingRedo,001,C 45,
,,,,171,0,171,0,,,,,,,,,,,,,,,,,,health,sing,red,171,24,149,1,1.32572389999,n,0.23757170001,2022_May_02_0943,59.9904135288,ProdSingRedo,001,C 45,
,,,,172,0,172,0,,,,,,,,,,,,,,,,,,distance,sing,red,172,28,100,6,2.72365469998,r,0.0776971000014,2022_May_02_0943,59.9904135288,ProdSingRedo,001,C 45,
,,,,173,0,173,0,,,,,,,,,,,,,,,,,,equipment,sing,red,173,21,116,2,1.6605922,f,1.14036269998,2022_May_02_0943,59.9904135288,ProdSingRedo,001,C 45,
,,,,174,0,174,0,,,,,,,,,,,,,,,,,,universal,aloud,yellow,174,38,345,5,2.85836409999,f,0.529930900026,2022_May_02_0943,59.9904135288,ProdSingRedo,001,C 45,
,,,,175,0,175,0,,,,,,,,,,,,,,,,,,frank,sing,red,175,13,133,6,1.2580266,r,0.0950794999953,2022_May_02_0943,59.9904135288,ProdSingRedo,001,C 45,
,,,,176,0,176,0,,,,,,,,,,,,,,,,,,danger,new_aloud,yellow,176,143,85,3,2.11553309998,n,0.0779919999768,2022_May_02_0943,59.9904135288,ProdSingRedo,001,C 45,
,,,,177,0,177,0,,,,,,,,,,,,,,,,,,mankind,sing,red,177,8,178,2,1.6717528,n,0.0599102000124,2022_May_02_0943,59.9904135288,ProdSingRedo,001,C 45,
,,,,178,0,178,0,,,,,,,,,,,,,,,,,,budget,sing,red,178,4,34,6,1.3718654,f,0.390545000031,2022_May_02_0943,59.9904135288,ProdSingRedo,001,C 45,
,,,,179,0,179,0,,,,,,,,,,,,,,,,,,split,new_sing,red,179,91,299,1,1.82954450004,n,0.704181999958,2022_May_02_0943,59.9904135288,ProdSingRedo,001,C 45,
