StudyLoop.thisRepN,StudyLoop.thisTrialN,StudyLoop.thisN,StudyLoop.thisIndex,TestLoop.thisRepN,TestLoop.thisTrialN,TestLoop.thisN,TestLoop.thisIndex,textCondition.started,textCondition.stopped,keyCondition.keys,keyCondition.rt,keyCondition.started,keyCondition.stopped,Condition,stim_colors,color_sing,color_aloud,color_silent,textWelcome.started,textWelcome.stopped,keyWelcome.keys,keyWelcome.rt,keyWelcome.started,keyWelcome.stopped,textAloud.started,textAloud.stopped,textSilent.started,textSilent.stopped,textSing.started,textSing.stopped,textBlank500.started,textBlank500.stopped,study_word,study_type,study_color,study_num,study_word_num,textStudy.started,textStudy.stopped,keyStudy.keys,keyStudy.started,keyStudy.stopped,textTestInstructions.started,textTestInstructions.stopped,key_resp_3.keys,key_resp_3.rt,key_resp_3.started,key_resp_3.stopped,testWord,testType,testColor,testN,test_num,test_word_num,textConf.started,textConf.stopped,textConfScale.started,textConfScale.stopped,keyConf.keys,keyConf.rt,keyConf.started,keyConf.stopped,textTestBlank.started,textTestBlank.stopped,textRKN.started,textRKN.stopped,textRKNScale.started,textRKNScale.stopped,keyRKN.keys,keyRKN.rt,keyRKN.started,keyRKN.stopped,textEnd.started,textEnd.stopped,participant,session,date,expName,psychopyVersion,frameRate,
,,,,,,,,352.28233389998786,None,y,240.91535519994795,352.28233389998786,None,,,,,,,,,,,,,,,,,,,,,,,,,,,,,,,,,,,,,,,,,,,,,,,,,,,,,,,,,,,,,,"C,49",001,2022_May_02_1404,ProdSingRedo,3.2.3,60.04509394329193,
,,,,,,,,,,,,,,ColoredTest,"['red', 'blue', 'yellow']",red,blue,yellow,593.2449125000276,None,space,15.792810499900952,593.2449125000276,None,,,,,,,,,,,,,,,,,,,,,,,,,,,,,,,,,,,,,,,,,,,,,,,,,,,"C,49",001,2022_May_02_1404,ProdSingRedo,3.2.3,60.04509394329193,
0,0,0,0,,,,,,,,,,,,,,,,,,,,,,593.2449125000276,None,593.2449125000276,None,593.2449125000276,None,611.5795125998557,None,industry,sing,red,25,161,609.563290799968,None,None,609.563290799968,None,,,,,,,,,,,,,,,,,,,,,,,,,,,,,,,,,"C,49",001,2022_May_02_1404,ProdSingRedo,3.2.3,60.04509394329193,
1,0,1,0,,,,,,,,,,,,,,,,,,,,,,,,,,,,614.0964947000612,None,impact,sing,red,21,157,612.0903604000341,None,None,612.0903604000341,None,,,,,,,,,,,,,,,,,,,,,,,,,,,,,,,,,"C,49",001,2022_May_02_1404,ProdSingRedo,3.2.3,60.04509394329193,
2,0,2,0,,,,,,,,,,,,,,,,,,,,,,,,,,,,616.6157620998565,None,chief,aloud,blue,50,48,614.6086319999304,None,None,614.6086319999304,None,,,,,,,,,,,,,,,,,,,,,,,,,,,,,,,,,"C,49",001,2022_May_02_1404,ProdSingRedo,3.2.3,60.04509394329193,
3,0,3,0,,,,,,,,,,,,,,,,,,,,,,,,,,,,619.1351942999754,None,enemy,sing,red,15,113,617.1268489998765,None,None,617.1268489998765,None,,,,,,,,,,,,,,,,,,,,,,,,,,,,,,,,,"C,49",001,2022_May_02_1404,ProdSingRedo,3.2.3,60.04509394329193,
4,0,4,0,,,,,,,,,,,,,,,,,,,,,,,,,,,,621.6539596000221,None,music,sing,red,3,196,619.6481762998737,None,None,619.6481762998737,None,,,,,,,,,,,,,,,,,,,,,,,,,,,,,,,,,"C,49",001,2022_May_02_1404,ProdSingRedo,3.2.3,60.04509394329193,
5,0,5,0,,,,,,,,,,,,,,,,,,,,,,,,,,,,624.1569308000617,None,bucket,silent,yellow,79,33,622.1545098000206,None,None,622.1545098000206,None,,,,,,,,,,,,,,,,,,,,,,,,,,,,,,,,,"C,49",001,2022_May_02_1404,ProdSingRedo,3.2.3,60.04509394329193,
6,0,6,0,,,,,,,,,,,,,,,,,,,,,,,,,,,,626.6761731998995,None,center,silent,yellow,76,44,624.6648027999327,None,None,624.6648027999327,None,,,,,,,,,,,,,,,,,,,,,,,,,,,,,,,,,"C,49",001,2022_May_02_1404,ProdSingRedo,3.2.3,60.04509394329193,
7,0,7,0,,,,,,,,,,,,,,,,,,,,,,,,,,,,629.1949805000331,None,murder,aloud,blue,56,195,627.1910887998529,None,None,627.1910887998529,None,,,,,,,,,,,,,,,,,,,,,,,,,,,,,,,,,"C,49",001,2022_May_02_1404,ProdSingRedo,3.2.3,60.04509394329193,
8,0,8,0,,,,,,,,,,,,,,,,,,,,,,,,,,,,631.7144277999178,None,member,sing,red,20,188,629.7092623000499,None,None,629.7092623000499,None,,,,,,,,,,,,,,,,,,,,,,,,,,,,,,,,,"C,49",001,2022_May_02_1404,ProdSingRedo,3.2.3,60.04509394329193,
9,0,9,0,,,,,,,,,,,,,,,,,,,,,,,,,,,,634.2333060998935,None,voice,sing,red,14,348,632.2297863999847,None,None,632.2297863999847,None,,,,,,,,,,,,,,,,,,,,,,,,,,,,,,,,,"C,49",001,2022_May_02_1404,ProdSingRedo,3.2.3,60.04509394329193,
10,0,10,0,,,,,,,,,,,,,,,,,,,,,,,,,,,,636.7528562999796,None,report,silent,yellow,73,259,634.7474924998824,None,None,634.7474924998824,None,,,,,,,,,,,,,,,,,,,,,,,,,,,,,,,,,"C,49",001,2022_May_02_1404,ProdSingRedo,3.2.3,60.04509394329193,
11,0,11,0,,,,,,,,,,,,,,,,,,,,,,,,,,,,639.2719890000299,None,pattern,sing,red,7,214,637.2631794998888,None,None,637.2631794998888,None,,,,,,,,,,,,,,,,,,,,,,,,,,,,,,,,,"C,49",001,2022_May_02_1404,ProdSingRedo,3.2.3,60.04509394329193,
12,0,12,0,,,,,,,,,,,,,,,,,,,,,,,,,,,,641.7909508999437,None,still,silent,yellow,64,304,639.7801181999967,None,None,639.7801181999967,None,,,,,,,,,,,,,,,,,,,,,,,,,,,,,,,,,"C,49",001,2022_May_02_1404,ProdSingRedo,3.2.3,60.04509394329193,
13,0,13,0,,,,,,,,,,,,,,,,,,,,,,,,,,,,644.310417199973,None,count,silent,yellow,65,72,642.30157650006,None,None,642.30157650006,None,,,,,,,,,,,,,,,,,,,,,,,,,,,,,,,,,"C,49",001,2022_May_02_1404,ProdSingRedo,3.2.3,60.04509394329193,
14,0,14,0,,,,,,,,,,,,,,,,,,,,,,,,,,,,646.8295452999882,None,shape,aloud,blue,39,282,644.8215912999585,None,None,644.8215912999585,None,,,,,,,,,,,,,,,,,,,,,,,,,,,,,,,,,"C,49",001,2022_May_02_1404,ProdSingRedo,3.2.3,60.04509394329193,
15,0,15,0,,,,,,,,,,,,,,,,,,,,,,,,,,,,649.3485415000468,None,author,aloud,blue,40,15,647.3415333998855,None,None,647.3415333998855,None,,,,,,,,,,,,,,,,,,,,,,,,,,,,,,,,,"C,49",001,2022_May_02_1404,ProdSingRedo,3.2.3,60.04509394329193,
16,0,16,0,,,,,,,,,,,,,,,,,,,,,,,,,,,,651.8675106998999,None,individual,aloud,blue,46,160,649.8645530999638,None,None,649.8645530999638,None,,,,,,,,,,,,,,,,,,,,,,,,,,,,,,,,,"C,49",001,2022_May_02_1404,ProdSingRedo,3.2.3,60.04509394329193,
17,0,17,0,,,,,,,,,,,,,,,,,,,,,,,,,,,,654.3704808000475,None,department,silent,yellow,70,90,652.3680781000294,None,None,652.3680781000294,None,,,,,,,,,,,,,,,,,,,,,,,,,,,,,,,,,"C,49",001,2022_May_02_1404,ProdSingRedo,3.2.3,60.04509394329193,
18,0,18,0,,,,,,,,,,,,,,,,,,,,,,,,,,,,656.8729480998591,None,bureau,silent,yellow,80,37,654.8708597000223,None,None,654.8708597000223,None,,,,,,,,,,,,,,,,,,,,,,,,,,,,,,,,,"C,49",001,2022_May_02_1404,ProdSingRedo,3.2.3,60.04509394329193,
19,0,19,0,,,,,,,,,,,,,,,,,,,,,,,,,,,,659.3921860000119,None,pressure,aloud,blue,42,232,657.3869052999653,None,None,657.3869052999653,None,,,,,,,,,,,,,,,,,,,,,,,,,,,,,,,,,"C,49",001,2022_May_02_1404,ProdSingRedo,3.2.3,60.04509394329193,
20,0,20,0,,,,,,,,,,,,,,,,,,,,,,,,,,,,661.9113038000651,None,vision,sing,red,29,347,659.9028504998423,None,None,659.9028504998423,None,,,,,,,,,,,,,,,,,,,,,,,,,,,,,,,,,"C,49",001,2022_May_02_1404,ProdSingRedo,3.2.3,60.04509394329193,
21,0,21,0,,,,,,,,,,,,,,,,,,,,,,,,,,,,664.4303828000557,None,tennis,aloud,blue,47,323,662.4185913000256,None,None,662.4185913000256,None,,,,,,,,,,,,,,,,,,,,,,,,,,,,,,,,,"C,49",001,2022_May_02_1404,ProdSingRedo,3.2.3,60.04509394329193,
22,0,22,0,,,,,,,,,,,,,,,,,,,,,,,,,,,,666.9329947000369,None,beauty,sing,red,5,18,664.9307518999558,None,None,664.9307518999558,None,,,,,,,,,,,,,,,,,,,,,,,,,,,,,,,,,"C,49",001,2022_May_02_1404,ProdSingRedo,3.2.3,60.04509394329193,
23,0,23,0,,,,,,,,,,,,,,,,,,,,,,,,,,,,669.4517593998462,None,touch,silent,yellow,63,332,667.4450985000003,None,None,667.4450985000003,None,,,,,,,,,,,,,,,,,,,,,,,,,,,,,,,,,"C,49",001,2022_May_02_1404,ProdSingRedo,3.2.3,60.04509394329193,
24,0,24,0,,,,,,,,,,,,,,,,,,,,,,,,,,,,671.9547128998674,None,youth,sing,red,9,359,669.9525745999999,None,None,669.9525745999999,None,,,,,,,,,,,,,,,,,,,,,,,,,,,,,,,,,"C,49",001,2022_May_02_1404,ProdSingRedo,3.2.3,60.04509394329193,
25,0,25,0,,,,,,,,,,,,,,,,,,,,,,,,,,,,674.4735639998689,None,profession,silent,yellow,86,241,672.4676492998842,None,None,672.4676492998842,None,,,,,,,,,,,,,,,,,,,,,,,,,,,,,,,,,"C,49",001,2022_May_02_1404,ProdSingRedo,3.2.3,60.04509394329193,
26,0,26,0,,,,,,,,,,,,,,,,,,,,,,,,,,,,676.9929825998843,None,exchange,sing,red,19,121,674.9807317999657,None,None,674.9807317999657,None,,,,,,,,,,,,,,,,,,,,,,,,,,,,,,,,,"C,49",001,2022_May_02_1404,ProdSingRedo,3.2.3,60.04509394329193,
27,0,27,0,,,,,,,,,,,,,,,,,,,,,,,,,,,,679.5122352999169,None,command,aloud,blue,35,60,677.5086526998784,None,None,677.5086526998784,None,,,,,,,,,,,,,,,,,,,,,,,,,,,,,,,,,"C,49",001,2022_May_02_1404,ProdSingRedo,3.2.3,60.04509394329193,
28,0,28,0,,,,,,,,,,,,,,,,,,,,,,,,,,,,682.0146510000341,None,notice,sing,red,10,201,680.0123159999494,None,None,680.0123159999494,None,,,,,,,,,,,,,,,,,,,,,,,,,,,,,,,,,"C,49",001,2022_May_02_1404,ProdSingRedo,3.2.3,60.04509394329193,
29,0,29,0,,,,,,,,,,,,,,,,,,,,,,,,,,,,684.5168661000207,None,quarter,sing,red,27,246,682.5147529998794,None,None,682.5147529998794,None,,,,,,,,,,,,,,,,,,,,,,,,,,,,,,,,,"C,49",001,2022_May_02_1404,ProdSingRedo,3.2.3,60.04509394329193,
30,0,30,0,,,,,,,,,,,,,,,,,,,,,,,,,,,,687.0192627999932,None,captain,aloud,blue,55,41,685.0183063999284,None,None,685.0183063999284,None,,,,,,,,,,,,,,,,,,,,,,,,,,,,,,,,,"C,49",001,2022_May_02_1404,ProdSingRedo,3.2.3,60.04509394329193,
31,0,31,0,,,,,,,,,,,,,,,,,,,,,,,,,,,,689.5218996000476,None,brief,aloud,blue,54,28,687.5199320998508,None,None,687.5199320998508,None,,,,,,,,,,,,,,,,,,,,,,,,,,,,,,,,,"C,49",001,2022_May_02_1404,ProdSingRedo,3.2.3,60.04509394329193,
32,0,32,0,,,,,,,,,,,,,,,,,,,,,,,,,,,,692.0242120998446,None,tragedy,aloud,blue,44,335,690.0223375998903,None,None,690.0223375998903,None,,,,,,,,,,,,,,,,,,,,,,,,,,,,,,,,,"C,49",001,2022_May_02_1404,ProdSingRedo,3.2.3,60.04509394329193,
33,0,33,0,,,,,,,,,,,,,,,,,,,,,,,,,,,,694.5267524998635,None,direction,silent,yellow,85,94,692.5248499999288,None,None,692.5248499999288,None,,,,,,,,,,,,,,,,,,,,,,,,,,,,,,,,,"C,49",001,2022_May_02_1404,ProdSingRedo,3.2.3,60.04509394329193,
34,0,34,0,,,,,,,,,,,,,,,,,,,,,,,,,,,,697.029249999905,None,length,aloud,blue,43,169,695.0274445998948,None,None,695.0274445998948,None,,,,,,,,,,,,,,,,,,,,,,,,,,,,,,,,,"C,49",001,2022_May_02_1404,ProdSingRedo,3.2.3,60.04509394329193,
35,0,35,0,,,,,,,,,,,,,,,,,,,,,,,,,,,,699.5317398998886,None,resistance,silent,yellow,78,262,697.5298744998872,None,None,697.5298744998872,None,,,,,,,,,,,,,,,,,,,,,,,,,,,,,,,,,"C,49",001,2022_May_02_1404,ProdSingRedo,3.2.3,60.04509394329193,
36,0,36,0,,,,,,,,,,,,,,,,,,,,,,,,,,,,702.0346985000651,None,watch,silent,yellow,69,351,700.03225989989,None,None,700.03225989989,None,,,,,,,,,,,,,,,,,,,,,,,,,,,,,,,,,"C,49",001,2022_May_02_1404,ProdSingRedo,3.2.3,60.04509394329193,
37,0,37,0,,,,,,,,,,,,,,,,,,,,,,,,,,,,704.5538745999802,None,community,aloud,blue,41,63,702.5576905000489,None,None,702.5576905000489,None,,,,,,,,,,,,,,,,,,,,,,,,,,,,,,,,,"C,49",001,2022_May_02_1404,ProdSingRedo,3.2.3,60.04509394329193,
38,0,38,0,,,,,,,,,,,,,,,,,,,,,,,,,,,,707.0729985998478,None,season,silent,yellow,77,277,705.0647920998745,None,None,705.0647920998745,None,,,,,,,,,,,,,,,,,,,,,,,,,,,,,,,,,"C,49",001,2022_May_02_1404,ProdSingRedo,3.2.3,60.04509394329193,
39,0,39,0,,,,,,,,,,,,,,,,,,,,,,,,,,,,709.5755906999111,None,split,silent,yellow,74,299,707.5732342998963,None,None,707.5732342998963,None,,,,,,,,,,,,,,,,,,,,,,,,,,,,,,,,,"C,49",001,2022_May_02_1404,ProdSingRedo,3.2.3,60.04509394329193,
40,0,40,0,,,,,,,,,,,,,,,,,,,,,,,,,,,,712.0944129000418,None,appeal,sing,red,12,9,710.0873854998499,None,None,710.0873854998499,None,,,,,,,,,,,,,,,,,,,,,,,,,,,,,,,,,"C,49",001,2022_May_02_1404,ProdSingRedo,3.2.3,60.04509394329193,
41,0,41,0,,,,,,,,,,,,,,,,,,,,,,,,,,,,714.5973119998816,None,bicycle,silent,yellow,68,21,712.5950899999589,None,None,712.5950899999589,None,,,,,,,,,,,,,,,,,,,,,,,,,,,,,,,,,"C,49",001,2022_May_02_1404,ProdSingRedo,3.2.3,60.04509394329193,
42,0,42,0,,,,,,,,,,,,,,,,,,,,,,,,,,,,717.1161257999483,None,history,aloud,blue,30,153,715.1103383998852,None,None,715.1103383998852,None,,,,,,,,,,,,,,,,,,,,,,,,,,,,,,,,,"C,49",001,2022_May_02_1404,ProdSingRedo,3.2.3,60.04509394329193,
43,0,43,0,,,,,,,,,,,,,,,,,,,,,,,,,,,,719.6356248999946,None,background,silent,yellow,71,16,717.6320094000548,None,None,717.6320094000548,None,,,,,,,,,,,,,,,,,,,,,,,,,,,,,,,,,"C,49",001,2022_May_02_1404,ProdSingRedo,3.2.3,60.04509394329193,
44,0,44,0,,,,,,,,,,,,,,,,,,,,,,,,,,,,722.1547321998514,None,right,aloud,blue,31,265,720.1474011000246,None,None,720.1474011000246,None,,,,,,,,,,,,,,,,,,,,,,,,,,,,,,,,,"C,49",001,2022_May_02_1404,ProdSingRedo,3.2.3,60.04509394329193,
45,0,45,0,,,,,,,,,,,,,,,,,,,,,,,,,,,,724.6738986999262,None,passage,silent,yellow,82,212,722.6633996998426,None,None,722.6633996998426,None,,,,,,,,,,,,,,,,,,,,,,,,,,,,,,,,,"C,49",001,2022_May_02_1404,ProdSingRedo,3.2.3,60.04509394329193,
46,0,46,0,,,,,,,,,,,,,,,,,,,,,,,,,,,,727.1930798999965,None,weather,sing,red,22,352,725.1872568000108,None,None,725.1872568000108,None,,,,,,,,,,,,,,,,,,,,,,,,,,,,,,,,,"C,49",001,2022_May_02_1404,ProdSingRedo,3.2.3,60.04509394329193,
47,0,47,0,,,,,,,,,,,,,,,,,,,,,,,,,,,,729.7122965999879,None,strain,sing,red,6,308,727.70589750004,None,None,727.70589750004,None,,,,,,,,,,,,,,,,,,,,,,,,,,,,,,,,,"C,49",001,2022_May_02_1404,ProdSingRedo,3.2.3,60.04509394329193,
48,0,48,0,,,,,,,,,,,,,,,,,,,,,,,,,,,,732.2314843998756,None,throw,sing,red,16,330,730.2232814999297,None,None,730.2232814999297,None,,,,,,,,,,,,,,,,,,,,,,,,,,,,,,,,,"C,49",001,2022_May_02_1404,ProdSingRedo,3.2.3,60.04509394329193,
49,0,49,0,,,,,,,,,,,,,,,,,,,,,,,,,,,,734.7506537998561,None,burden,aloud,blue,53,36,732.7439347000327,None,None,732.7439347000327,None,,,,,,,,,,,,,,,,,,,,,,,,,,,,,,,,,"C,49",001,2022_May_02_1404,ProdSingRedo,3.2.3,60.04509394329193,
50,0,50,0,,,,,,,,,,,,,,,,,,,,,,,,,,,,737.2794945000205,None,territory,aloud,blue,34,324,735.2634924999438,None,None,735.2634924999438,None,,,,,,,,,,,,,,,,,,,,,,,,,,,,,,,,,"C,49",001,2022_May_02_1404,ProdSingRedo,3.2.3,60.04509394329193,
51,0,51,0,,,,,,,,,,,,,,,,,,,,,,,,,,,,739.7719769999385,None,motion,aloud,blue,59,194,737.7707918998785,None,None,737.7707918998785,None,,,,,,,,,,,,,,,,,,,,,,,,,,,,,,,,,"C,49",001,2022_May_02_1404,ProdSingRedo,3.2.3,60.04509394329193,
52,0,52,0,,,,,,,,,,,,,,,,,,,,,,,,,,,,742.2913997999858,None,government,aloud,blue,52,139,740.2910447998438,None,None,740.2910447998438,None,,,,,,,,,,,,,,,,,,,,,,,,,,,,,,,,,"C,49",001,2022_May_02_1404,ProdSingRedo,3.2.3,60.04509394329193,
53,0,53,0,,,,,,,,,,,,,,,,,,,,,,,,,,,,744.8106916998513,None,review,silent,yellow,62,263,742.8057877998799,None,None,742.8057877998799,None,,,,,,,,,,,,,,,,,,,,,,,,,,,,,,,,,"C,49",001,2022_May_02_1404,ProdSingRedo,3.2.3,60.04509394329193,
54,0,54,0,,,,,,,,,,,,,,,,,,,,,,,,,,,,747.3299562998582,None,bright,sing,red,17,29,745.3218363998458,None,None,745.3218363998458,None,,,,,,,,,,,,,,,,,,,,,,,,,,,,,,,,,"C,49",001,2022_May_02_1404,ProdSingRedo,3.2.3,60.04509394329193,
55,0,55,0,,,,,,,,,,,,,,,,,,,,,,,,,,,,749.8490748000331,None,relation,sing,red,1,257,747.8416748000309,None,None,747.8416748000309,None,,,,,,,,,,,,,,,,,,,,,,,,,,,,,,,,,"C,49",001,2022_May_02_1404,ProdSingRedo,3.2.3,60.04509394329193,
56,0,56,0,,,,,,,,,,,,,,,,,,,,,,,,,,,,752.3681904999539,None,style,sing,red,18,311,750.3627822999842,None,None,750.3627822999842,None,,,,,,,,,,,,,,,,,,,,,,,,,,,,,,,,,"C,49",001,2022_May_02_1404,ProdSingRedo,3.2.3,60.04509394329193,
57,0,57,0,,,,,,,,,,,,,,,,,,,,,,,,,,,,754.8707818000112,None,business,silent,yellow,67,38,752.8684884000104,None,None,752.8684884000104,None,,,,,,,,,,,,,,,,,,,,,,,,,,,,,,,,,"C,49",001,2022_May_02_1404,ProdSingRedo,3.2.3,60.04509394329193,
58,0,58,0,,,,,,,,,,,,,,,,,,,,,,,,,,,,757.3895538998768,None,discussion,sing,red,23,96,755.385640299879,None,None,755.385640299879,None,,,,,,,,,,,,,,,,,,,,,,,,,,,,,,,,,"C,49",001,2022_May_02_1404,ProdSingRedo,3.2.3,60.04509394329193,
59,0,59,0,,,,,,,,,,,,,,,,,,,,,,,,,,,,759.9091157000512,None,under,silent,yellow,72,343,757.8997559000272,None,None,757.8997559000272,None,,,,,,,,,,,,,,,,,,,,,,,,,,,,,,,,,"C,49",001,2022_May_02_1404,ProdSingRedo,3.2.3,60.04509394329193,
60,0,60,0,,,,,,,,,,,,,,,,,,,,,,,,,,,,762.4282712000422,None,harmony,aloud,blue,32,148,760.4243260000367,None,None,760.4243260000367,None,,,,,,,,,,,,,,,,,,,,,,,,,,,,,,,,,"C,49",001,2022_May_02_1404,ProdSingRedo,3.2.3,60.04509394329193,
61,0,61,0,,,,,,,,,,,,,,,,,,,,,,,,,,,,764.9475572998635,None,trial,sing,red,26,341,762.9326042998582,None,None,762.9326042998582,None,,,,,,,,,,,,,,,,,,,,,,,,,,,,,,,,,"C,49",001,2022_May_02_1404,ProdSingRedo,3.2.3,60.04509394329193,
62,0,62,0,,,,,,,,,,,,,,,,,,,,,,,,,,,,767.46633129986,None,turkey,aloud,blue,57,342,765.4608034000266,None,None,765.4608034000266,None,,,,,,,,,,,,,,,,,,,,,,,,,,,,,,,,,"C,49",001,2022_May_02_1404,ProdSingRedo,3.2.3,60.04509394329193,
63,0,63,0,,,,,,,,,,,,,,,,,,,,,,,,,,,,769.9858540999703,None,short,silent,yellow,81,285,767.9748791998718,None,None,767.9748791998718,None,,,,,,,,,,,,,,,,,,,,,,,,,,,,,,,,,"C,49",001,2022_May_02_1404,ProdSingRedo,3.2.3,60.04509394329193,
64,0,64,0,,,,,,,,,,,,,,,,,,,,,,,,,,,,772.4880804999266,None,people,sing,red,24,216,770.4860721998848,None,None,770.4860721998848,None,,,,,,,,,,,,,,,,,,,,,,,,,,,,,,,,,"C,49",001,2022_May_02_1404,ProdSingRedo,3.2.3,60.04509394329193,
65,0,65,0,,,,,,,,,,,,,,,,,,,,,,,,,,,,775.0075894999318,None,build,sing,red,2,35,773.0037432999816,None,None,773.0037432999816,None,,,,,,,,,,,,,,,,,,,,,,,,,,,,,,,,,"C,49",001,2022_May_02_1404,ProdSingRedo,3.2.3,60.04509394329193,
66,0,66,0,,,,,,,,,,,,,,,,,,,,,,,,,,,,777.5267284000292,None,division,aloud,blue,33,101,775.5204183999449,None,None,775.5204183999449,None,,,,,,,,,,,,,,,,,,,,,,,,,,,,,,,,,"C,49",001,2022_May_02_1404,ProdSingRedo,3.2.3,60.04509394329193,
67,0,67,0,,,,,,,,,,,,,,,,,,,,,,,,,,,,780.0459594998974,None,pancakes,silent,yellow,89,210,778.0388749998529,None,None,778.0388749998529,None,,,,,,,,,,,,,,,,,,,,,,,,,,,,,,,,,"C,49",001,2022_May_02_1404,ProdSingRedo,3.2.3,60.04509394329193,
68,0,68,0,,,,,,,,,,,,,,,,,,,,,,,,,,,,782.5649663999211,None,republic,aloud,blue,51,260,780.5620005000383,None,None,780.5620005000383,None,,,,,,,,,,,,,,,,,,,,,,,,,,,,,,,,,"C,49",001,2022_May_02_1404,ProdSingRedo,3.2.3,60.04509394329193,
69,0,69,0,,,,,,,,,,,,,,,,,,,,,,,,,,,,785.0676285999361,None,track,silent,yellow,60,334,783.0651841000654,None,None,783.0651841000654,None,,,,,,,,,,,,,,,,,,,,,,,,,,,,,,,,,"C,49",001,2022_May_02_1404,ProdSingRedo,3.2.3,60.04509394329193,
70,0,70,0,,,,,,,,,,,,,,,,,,,,,,,,,,,,787.586724899942,None,threat,silent,yellow,87,329,785.5806013999972,None,None,785.5806013999972,None,,,,,,,,,,,,,,,,,,,,,,,,,,,,,,,,,"C,49",001,2022_May_02_1404,ProdSingRedo,3.2.3,60.04509394329193,
71,0,71,0,,,,,,,,,,,,,,,,,,,,,,,,,,,,790.1061133998446,None,orchestra,aloud,blue,36,206,788.1045538999606,None,None,788.1045538999606,None,,,,,,,,,,,,,,,,,,,,,,,,,,,,,,,,,"C,49",001,2022_May_02_1404,ProdSingRedo,3.2.3,60.04509394329193,
72,0,72,0,,,,,,,,,,,,,,,,,,,,,,,,,,,,792.6251012999564,None,revolution,aloud,blue,38,264,790.6223005999345,None,None,790.6223005999345,None,,,,,,,,,,,,,,,,,,,,,,,,,,,,,,,,,"C,49",001,2022_May_02_1404,ProdSingRedo,3.2.3,60.04509394329193,
73,0,73,0,,,,,,,,,,,,,,,,,,,,,,,,,,,,795.1443711998872,None,substance,aloud,blue,37,313,793.1487632999197,None,None,793.1487632999197,None,,,,,,,,,,,,,,,,,,,,,,,,,,,,,,,,,"C,49",001,2022_May_02_1404,ProdSingRedo,3.2.3,60.04509394329193,
74,0,74,0,,,,,,,,,,,,,,,,,,,,,,,,,,,,797.663538799854,None,empty,silent,yellow,84,112,795.6580180998426,None,None,795.6580180998426,None,,,,,,,,,,,,,,,,,,,,,,,,,,,,,,,,,"C,49",001,2022_May_02_1404,ProdSingRedo,3.2.3,60.04509394329193,
75,0,75,0,,,,,,,,,,,,,,,,,,,,,,,,,,,,800.166058300063,None,drama,sing,red,4,103,798.1654057998676,None,None,798.1654057998676,None,,,,,,,,,,,,,,,,,,,,,,,,,,,,,,,,,"C,49",001,2022_May_02_1404,ProdSingRedo,3.2.3,60.04509394329193,
76,0,76,0,,,,,,,,,,,,,,,,,,,,,,,,,,,,802.685127899982,None,scene,aloud,blue,48,273,800.674391000066,None,None,800.674391000066,None,,,,,,,,,,,,,,,,,,,,,,,,,,,,,,,,,"C,49",001,2022_May_02_1404,ProdSingRedo,3.2.3,60.04509394329193,
77,0,77,0,,,,,,,,,,,,,,,,,,,,,,,,,,,,805.2043445999734,None,surface,silent,yellow,66,316,803.2001918000169,None,None,803.2001918000169,None,,,,,,,,,,,,,,,,,,,,,,,,,,,,,,,,,"C,49",001,2022_May_02_1404,ProdSingRedo,3.2.3,60.04509394329193,
78,0,78,0,,,,,,,,,,,,,,,,,,,,,,,,,,,,807.7235465999693,None,fashion,silent,yellow,75,125,805.7143669999205,None,None,805.7143669999205,None,,,,,,,,,,,,,,,,,,,,,,,,,,,,,,,,,"C,49",001,2022_May_02_1404,ProdSingRedo,3.2.3,60.04509394329193,
79,0,79,0,,,,,,,,,,,,,,,,,,,,,,,,,,,,810.242419200018,None,accident,aloud,blue,45,0,808.2352982999291,None,None,808.2352982999291,None,,,,,,,,,,,,,,,,,,,,,,,,,,,,,,,,,"C,49",001,2022_May_02_1404,ProdSingRedo,3.2.3,60.04509394329193,
80,0,80,0,,,,,,,,,,,,,,,,,,,,,,,,,,,,812.7452533999458,None,design,aloud,blue,58,91,810.7429988000076,None,None,810.7429988000076,None,,,,,,,,,,,,,,,,,,,,,,,,,,,,,,,,,"C,49",001,2022_May_02_1404,ProdSingRedo,3.2.3,60.04509394329193,
81,0,81,0,,,,,,,,,,,,,,,,,,,,,,,,,,,,815.2645350999665,None,distance,sing,red,28,100,813.2591174999252,None,None,813.2591174999252,None,,,,,,,,,,,,,,,,,,,,,,,,,,,,,,,,,"C,49",001,2022_May_02_1404,ProdSingRedo,3.2.3,60.04509394329193,
82,0,82,0,,,,,,,,,,,,,,,,,,,,,,,,,,,,817.7832042998634,None,blind,silent,yellow,61,24,815.77375199995,None,None,815.77375199995,None,,,,,,,,,,,,,,,,,,,,,,,,,,,,,,,,,"C,49",001,2022_May_02_1404,ProdSingRedo,3.2.3,60.04509394329193,
83,0,83,0,,,,,,,,,,,,,,,,,,,,,,,,,,,,820.3028037999757,None,benefit,silent,yellow,88,20,818.2980543000158,None,None,818.2980543000158,None,,,,,,,,,,,,,,,,,,,,,,,,,,,,,,,,,"C,49",001,2022_May_02_1404,ProdSingRedo,3.2.3,60.04509394329193,
84,0,84,0,,,,,,,,,,,,,,,,,,,,,,,,,,,,822.8218922000378,None,power,aloud,blue,49,230,820.8138643999118,None,None,820.8138643999118,None,,,,,,,,,,,,,,,,,,,,,,,,,,,,,,,,,"C,49",001,2022_May_02_1404,ProdSingRedo,3.2.3,60.04509394329193,
85,0,85,0,,,,,,,,,,,,,,,,,,,,,,,,,,,,825.3245128998533,None,charter,sing,red,8,47,823.3223222999368,None,None,823.3223222999368,None,,,,,,,,,,,,,,,,,,,,,,,,,,,,,,,,,"C,49",001,2022_May_02_1404,ProdSingRedo,3.2.3,60.04509394329193,
86,0,86,0,,,,,,,,,,,,,,,,,,,,,,,,,,,,827.8437834999058,None,court,sing,red,11,75,825.8363049000036,None,None,825.8363049000036,None,,,,,,,,,,,,,,,,,,,,,,,,,,,,,,,,,"C,49",001,2022_May_02_1404,ProdSingRedo,3.2.3,60.04509394329193,
87,0,87,0,,,,,,,,,,,,,,,,,,,,,,,,,,,,830.3626414998434,None,equipment,sing,red,0,116,828.3625399998855,None,None,828.3625399998855,None,,,,,,,,,,,,,,,,,,,,,,,,,,,,,,,,,"C,49",001,2022_May_02_1404,ProdSingRedo,3.2.3,60.04509394329193,
88,0,88,0,,,,,,,,,,,,,,,,,,,,,,,,,,,,832.8820058000274,None,point,sing,red,13,226,830.8715677000582,None,None,830.8715677000582,None,,,,,,,,,,,,,,,,,,,,,,,,,,,,,,,,,"C,49",001,2022_May_02_1404,ProdSingRedo,3.2.3,60.04509394329193,
89,0,89,0,,,,,,,,,,,,,,,,,,,,,,,,,,,,835.4011756998952,None,crime,silent,yellow,83,78,833.3891489000525,None,None,833.3891489000525,None,,,,,,,,,,,,,,,,,,,,,,,,,,,,,,,,,"C,49",001,2022_May_02_1404,ProdSingRedo,3.2.3,60.04509394329193,
,,,,,,,,,,,,,,,,,,,,,,,,,,,,,,,,,,,,,,,,,,,835.9020197999198,None,k,98.5919745999854,835.9020197999198,None,,,,,,,,,,,,,,,,,,,,,,,,,,,"C,49",001,2022_May_02_1404,ProdSingRedo,3.2.3,60.04509394329193,
,,,,0,0,0,0,,,,,,,,,,,,,,,,,,,,,,,,949.2933586998843,None,,,,,,,,,,,,,,,,,hearing,new_sing,red,0,94,150,935.039464399917,None,935.039464399917,None,6,6.598341199802235,935.039464399917,None,941.6708944998682,None,942.1862925998867,None,942.1862925998867,None,r,7.075766500085592,942.1862925998867,None,,,"C,49",001,2022_May_02_1404,ProdSingRedo,3.2.3,60.04509394329193,
,,,,1,0,1,0,,,,,,,,,,,,,,,,,,,,,,,,961.6515974998474,None,,,,,,,,,,,,,,,,,research,new_aloud,blue,1,137,261,949.8192032000516,None,949.8192032000516,None,5,7.730988500174135,949.8192032000516,None,957.5982647000346,None,958.1178585998714,None,958.1178585998714,None,f,3.504345800029114,958.1178585998714,None,,,"C,49",001,2022_May_02_1404,ProdSingRedo,3.2.3,60.04509394329193,
,,,,2,0,2,0,,,,,,,,,,,,,,,,,,,,,,,,973.4981461998541,None,,,,,,,,,,,,,,,,,throw,sing,red,2,16,330,962.1771348998882,None,962.1771348998882,None,6,4.004804800031707,962.1771348998882,None,966.2198854000308,None,966.7410424000118,None,966.7410424000118,None,r,6.728860600152984,966.7410424000118,None,,,"C,49",001,2022_May_02_1404,ProdSingRedo,3.2.3,60.04509394329193,
,,,,3,0,3,0,,,,,,,,,,,,,,,,,,,,,,,,987.3453279999085,None,,,,,,,,,,,,,,,,,route,new_silent,yellow,3,170,267,974.0135119999759,None,974.0135119999759,None,4,10.808368799975142,974.0135119999759,None,984.8731883999426,None,985.3929281998426,None,985.3929281998426,None,n,1.92503139982,985.3929281998426,None,,,"C,49",001,2022_May_02_1404,ProdSingRedo,3.2.3,60.04509394329193,
,,,,4,0,4,0,,,,,,,,,,,,,,,,,,,,,,,,998.711990099866,None,,,,,,,,,,,,,,,,,beauty,sing,red,4,5,18,987.8755485999864,None,987.8755485999864,None,4,7.754557600012049,987.8755485999864,None,995.6898066999856,None,996.2016312999185,None,996.2016312999185,None,n,2.476437699981034,996.2016312999185,None,,,"C,49",001,2022_May_02_1404,ProdSingRedo,3.2.3,60.04509394329193,
,,,,5,0,5,0,,,,,,,,,,,,,,,,,,,,,,,,1015.3896528999321,None,,,,,,,,,,,,,,,,,individual,aloud,blue,5,46,160,999.2350750998594,None,999.2350750998594,None,6,3.882782500004396,999.2350750998594,None,1003.1652693999931,None,1003.6853086999618,None,1003.6853086999618,None,r,11.672607900109142,1003.6853086999618,None,,,"C,49",001,2022_May_02_1404,ProdSingRedo,3.2.3,60.04509394329193,
,,,,6,0,6,0,,,,,,,,,,,,,,,,,,,,,,,,1022.2791736000217,None,,,,,,,,,,,,,,,,,drama,sing,red,6,4,103,1015.9157596000005,None,1015.9157596000005,None,6,3.26611389988102,1015.9157596000005,None,1019.2252817000262,None,1019.7311491998844,None,1019.7311491998844,None,r,2.522657800000161,1019.7311491998844,None,,,"C,49",001,2022_May_02_1404,ProdSingRedo,3.2.3,60.04509394329193,
,,,,7,0,7,0,,,,,,,,,,,,,,,,,,,,,,,,1029.8687398999464,None,,,,,,,,,,,,,,,,,community,aloud,blue,7,41,63,1022.8032177998684,None,1022.8032177998684,None,6,4.914688899880275,1022.8032177998684,None,1027.7705208000261,None,1028.2889940000605,None,1028.2889940000605,None,r,1.5570847999770194,1028.2889940000605,None,,,"C,49",001,2022_May_02_1404,ProdSingRedo,3.2.3,60.04509394329193,
,,,,8,0,8,0,,,,,,,,,,,,,,,,,,,,,,,,1036.0419268999249,None,,,,,,,,,,,,,,,,,minute,new_sing,red,8,100,192,1030.3947431999259,None,1030.3947431999259,None,1,2.45120789995417,1030.3947431999259,None,1032.8853195998818,None,1033.4094423998613,None,1033.4094423998613,None,n,2.596724099945277,1033.4094423998613,None,,,"C,49",001,2022_May_02_1404,ProdSingRedo,3.2.3,60.04509394329193,
,,,,9,0,9,0,,,,,,,,,,,,,,,,,,,,,,,,1041.0323681998998,None,,,,,,,,,,,,,,,,,rough,new_aloud,blue,9,123,266,1036.5695672000293,None,1036.5695672000293,None,1,2.3804111001081765,1036.5695672000293,None,1038.99606949999,None,1039.5144476999994,None,1039.5144476999994,None,n,1.4834443000145257,1039.5144476999994,None,,,"C,49",001,2022_May_02_1404,ProdSingRedo,3.2.3,60.04509394329193,
,,,,10,0,10,0,,,,,,,,,,,,,,,,,,,,,,,,1053.819872800028,None,,,,,,,,,,,,,,,,,employment,new_aloud,blue,10,128,111,1041.555758500006,None,1041.555758500006,None,3,9.578298200154677,1041.555758500006,None,1051.1743741000537,None,1051.703370800009,None,1051.703370800009,None,f,2.086366100003943,1051.703370800009,None,,,"C,49",001,2022_May_02_1404,ProdSingRedo,3.2.3,60.04509394329193,
,,,,11,0,11,0,,,,,,,,,,,,,,,,,,,,,,,,1063.504428599961,None,,,,,,,,,,,,,,,,,union,new_aloud,blue,11,147,344,1054.3356590999756,None,1054.3356590999756,None,2,6.982240000041202,1054.3356590999756,None,1061.3649077999871,None,1061.8869628999382,None,1061.8869628999382,None,f,1.5909208999946713,1061.8869628999382,None,,,"C,49",001,2022_May_02_1404,ProdSingRedo,3.2.3,60.04509394329193,
,,,,12,0,12,0,,,,,,,,,,,,,,,,,,,,,,,,1073.37876709993,None,,,,,,,,,,,,,,,,,count,silent,yellow,12,65,72,1064.0304695998784,None,1064.0304695998784,None,5,7.487669299822301,1064.0304695998784,None,1071.5573157998733,None,1072.0709804999642,None,1072.0709804999642,None,f,1.278938899980858,1072.0709804999642,None,,,"C,49",001,2022_May_02_1404,ProdSingRedo,3.2.3,60.04509394329193,
,,,,13,0,13,0,,,,,,,,,,,,,,,,,,,,,,,,1080.3872704000678,None,,,,,,,,,,,,,,,,,trial,sing,red,13,26,341,1073.9069908000529,None,1073.9069908000529,None,6,3.458969800034538,1073.9069908000529,None,1077.4156801998615,None,1077.935325199971,None,1077.935325199971,None,r,2.414606099948287,1077.935325199971,None,,,"C,49",001,2022_May_02_1404,ProdSingRedo,3.2.3,60.04509394329193,
,,,,14,0,14,0,,,,,,,,,,,,,,,,,,,,,,,,1088.8443944000173,None,,,,,,,,,,,,,,,,,empty,silent,yellow,14,84,112,1080.9113710999954,None,1080.9113710999954,None,3,5.542526900069788,1080.9113710999954,None,1086.4884250999894,None,1087.010888800025,None,1087.010888800025,None,f,1.8029193999245763,1087.010888800025,None,,,"C,49",001,2022_May_02_1404,ProdSingRedo,3.2.3,60.04509394329193,
,,,,15,0,15,0,,,,,,,,,,,,,,,,,,,,,,,,1096.4550089000259,None,,,,,,,,,,,,,,,,,build,sing,red,15,2,35,1089.3687269999646,None,1089.3687269999646,None,6,3.0852334999945015,1089.3687269999646,None,1092.4929533998948,None,1093.0062696000095,None,1093.0062696000095,None,r,3.4236099999397993,1093.0062696000095,None,,,"C,49",001,2022_May_02_1404,ProdSingRedo,3.2.3,60.04509394329193,
,,,,16,0,16,0,,,,,,,,,,,,,,,,,,,,,,,,1100.7907310998999,None,,,,,,,,,,,,,,,,,crisis,new_aloud,blue,16,131,79,1096.9775163999293,None,1096.9775163999293,None,1,1.9004092998802662,1096.9775163999293,None,1098.9197889000643,None,1099.4373357999139,None,1099.4373357999139,None,n,1.3206264001782984,1099.4373357999139,None,,,"C,49",001,2022_May_02_1404,ProdSingRedo,3.2.3,60.04509394329193,
,,,,17,0,17,0,,,,,,,,,,,,,,,,,,,,,,,,1105.3046351000667,None,,,,,,,,,,,,,,,,,review,silent,yellow,17,62,263,1101.32131629996,None,1101.32131629996,None,1,2.0444533999543637,1101.32131629996,None,1103.411973600043,None,1103.93422249984,None,1103.93422249984,None,n,1.3433671998791397,1103.93422249984,None,,,"C,49",001,2022_May_02_1404,ProdSingRedo,3.2.3,60.04509394329193,
,,,,18,0,18,0,,,,,,,,,,,,,,,,,,,,,,,,1119.3758377998602,None,,,,,,,,,,,,,,,,,population,new_aloud,blue,18,138,227,1105.8240596998949,None,1105.8240596998949,None,2,4.0781242998782545,1105.8240596998949,None,1109.9526567999274,None,1110.4745614998974,None,1110.4745614998974,None,n,8.867786900140345,1110.4745614998974,None,,,"C,49",001,2022_May_02_1404,ProdSingRedo,3.2.3,60.04509394329193,
,,,,19,0,19,0,,,,,,,,,,,,,,,,,,,,,,,,1126.5840368999634,None,,,,,,,,,,,,,,,,,silence,new_aloud,blue,19,148,288,1119.898629500065,None,1119.898629500065,None,1,4.955233099870384,1119.898629500065,None,1124.8888816998806,None,1125.3993529998697,None,1125.3993529998697,None,n,1.150522100040689,1125.3993529998697,None,,,"C,49",001,2022_May_02_1404,ProdSingRedo,3.2.3,60.04509394329193,
,,,,20,0,20,0,,,,,,,,,,,,,,,,,,,,,,,,1137.910995000042,None,,,,,,,,,,,,,,,,,watch,silent,yellow,20,69,351,1127.108019700041,None,1127.108019700041,None,4,5.705864800140262,1127.108019700041,None,1132.8526127999648,None,1133.3750569999684,None,1133.3750569999684,None,f,4.51086419983767,1133.3750569999684,None,,,"C,49",001,2022_May_02_1404,ProdSingRedo,3.2.3,60.04509394329193,
,,,,21,0,21,0,,,,,,,,,,,,,,,,,,,,,,,,1145.1051640999503,None,,,,,,,,,,,,,,,,,command,aloud,blue,21,35,60,1138.439180499874,None,1138.439180499874,None,6,3.079176199855283,1138.439180499874,None,1141.5644203000702,None,1142.0867777999956,None,1142.0867777999956,None,r,2.9831683998927474,1142.0867777999956,None,,,"C,49",001,2022_May_02_1404,ProdSingRedo,3.2.3,60.04509394329193,
,,,,22,0,22,0,,,,,,,,,,,,,,,,,,,,,,,,1149.82991199987,None,,,,,,,,,,,,,,,,,heavy,new_sing,red,22,97,151,1145.6312279000413,None,1145.6312279000413,None,6,2.558687600074336,1145.6312279000413,None,1148.240995500004,None,1148.7606174999382,None,1148.7606174999382,None,r,1.037351300008595,1148.7606174999382,None,,,"C,49",001,2022_May_02_1404,ProdSingRedo,3.2.3,60.04509394329193,
,,,,23,0,23,0,,,,,,,,,,,,,,,,,,,,,,,,1168.8080877000466,None,,,,,,,,,,,,,,,,,bucket,silent,yellow,23,79,33,1150.354045700049,None,1150.354045700049,None,3,6.30791989993304,1150.354045700049,None,1156.7141992000397,None,1157.2336164999288,None,1157.2336164999288,None,n,11.548657199833542,1157.2336164999288,None,,,"C,49",001,2022_May_02_1404,ProdSingRedo,3.2.3,60.04509394329193,
,,,,24,0,24,0,,,,,,,,,,,,,,,,,,,,,,,,1174.617606600048,None,,,,,,,,,,,,,,,,,tennis,aloud,blue,24,47,323,1169.3314813000616,None,1169.3314813000616,None,1,2.346530199982226,1169.3314813000616,None,1171.7273333000485,None,1172.2485654999036,None,1172.2485654999036,None,n,2.341384599916637,1172.2485654999036,None,,,"C,49",001,2022_May_02_1404,ProdSingRedo,3.2.3,60.04509394329193,
,,,,25,0,25,0,,,,,,,,,,,,,,,,,,,,,,,,1180.788263999857,None,,,,,,,,,,,,,,,,,chief,aloud,blue,25,50,48,1175.1392624999862,None,1175.1392624999862,None,6,3.498569499934092,1175.1392624999862,None,1178.680678699864,None,1179.1942817999516,None,1179.1942817999516,None,r,1.5636657001450658,1179.1942817999516,None,,,"C,49",001,2022_May_02_1404,ProdSingRedo,3.2.3,60.04509394329193,
,,,,26,0,26,0,,,,,,,,,,,,,,,,,,,,,,,,1186.126306500053,None,,,,,,,,,,,,,,,,,device,new_sing,red,26,113,93,1181.3145017998759,None,1181.3145017998759,None,1,2.331419600173831,1181.3145017998759,None,1183.6863015999552,None,1184.209061899921,None,1184.209061899921,None,n,1.8931390999350697,1184.209061899921,None,,,"C,49",001,2022_May_02_1404,ProdSingRedo,3.2.3,60.04509394329193,
,,,,27,0,27,0,,,,,,,,,,,,,,,,,,,,,,,,1194.233976899879,None,,,,,,,,,,,,,,,,,benefit,silent,yellow,27,88,20,1186.6563772999216,None,1186.6563772999216,None,6,2.093550099991262,1186.6563772999216,None,1188.7930773000699,None,1189.3197774998844,None,1189.3197774998844,None,r,4.8861287999898195,1189.3197774998844,None,,,"C,49",001,2022_May_02_1404,ProdSingRedo,3.2.3,60.04509394329193,
,,,,28,0,28,0,,,,,,,,,,,,,,,,,,,,,,,,1200.9062657998875,None,,,,,,,,,,,,,,,,,pattern,sing,red,28,7,214,1194.7595422000159,None,1194.7595422000159,None,6,3.382281699916348,1194.7595422000159,None,1198.1815046998672,None,1198.6889100000262,None,1198.6889100000262,None,r,2.180938200093806,1198.6889100000262,None,,,"C,49",001,2022_May_02_1404,ProdSingRedo,3.2.3,60.04509394329193,
,,,,29,0,29,0,,,,,,,,,,,,,,,,,,,,,,,,1211.1340179999825,None,,,,,,,,,,,,,,,,,clear,new_silent,yellow,29,171,52,1201.435249999864,None,1201.435249999864,None,2,3.362657999852672,1201.435249999864,None,1204.843723299913,None,1205.3632356000599,None,1205.3632356000599,None,f,5.738615100039169,1205.3632356000599,None,,,"C,49",001,2022_May_02_1404,ProdSingRedo,3.2.3,60.04509394329193,
,,,,30,0,30,0,,,,,,,,,,,,,,,,,,,,,,,,1217.0573898998555,None,,,,,,,,,,,,,,,,,meeting,new_aloud,blue,30,144,187,1211.66088199988,None,1211.66088199988,None,1,2.913007800001651,1211.66088199988,None,1214.6176308998838,None,1215.142789500067,None,1215.142789500067,None,n,1.8877731000538915,1215.142789500067,None,,,"C,49",001,2022_May_02_1404,ProdSingRedo,3.2.3,60.04509394329193,
,,,,31,0,31,0,,,,,,,,,,,,,,,,,,,,,,,,1223.280653099995,None,,,,,,,,,,,,,,,,,direction,silent,yellow,31,85,94,1217.5785942999646,None,1217.5785942999646,None,4,4.242797899991274,1217.5785942999646,None,1221.840490799863,None,1222.3544419999234,None,1222.3544419999234,None,f,0.8993907000403851,1222.3544419999234,None,,,"C,49",001,2022_May_02_1404,ProdSingRedo,3.2.3,60.04509394329193,
,,,,32,0,32,0,,,,,,,,,,,,,,,,,,,,,,,,1229.2458329999354,None,,,,,,,,,,,,,,,,,motion,aloud,blue,32,59,194,1223.8009830999654,None,1223.8009830999654,None,6,3.060491899959743,1223.8009830999654,None,1226.8938724000473,None,1227.409197699977,None,1227.409197699977,None,r,1.7968558000866324,1227.409197699977,None,,,"C,49",001,2022_May_02_1404,ProdSingRedo,3.2.3,60.04509394329193,
,,,,33,0,33,0,,,,,,,,,,,,,,,,,,,,,,,,1235.9086587000638,None,,,,,,,,,,,,,,,,,balance,new_aloud,blue,33,129,17,1229.7480245998595,None,1229.7480245998595,None,6,3.8738635999616235,1229.7480245998595,None,1233.6705242998432,None,1234.197725799866,None,1234.197725799866,None,r,1.6802405000198632,1234.197725799866,None,,,"C,49",001,2022_May_02_1404,ProdSingRedo,3.2.3,60.04509394329193,
,,,,34,0,34,0,,,,,,,,,,,,,,,,,,,,,,,,1244.799463500036,None,,,,,,,,,,,,,,,,,appearance,new_sing,red,34,117,10,1236.4359088998754,None,1236.4359088998754,None,1,3.362019499996677,1236.4359088998754,None,1239.8486064998433,None,1240.375120599987,None,1240.375120599987,None,n,4.390682100085542,1240.375120599987,None,,,"C,49",001,2022_May_02_1404,ProdSingRedo,3.2.3,60.04509394329193,
,,,,35,0,35,0,,,,,,,,,,,,,,,,,,,,,,,,1254.7798681999557,None,,,,,,,,,,,,,,,,,division,aloud,blue,35,33,101,1245.3258415998425,None,1245.3258415998425,None,6,6.447927000001073,1245.3258415998425,None,1251.8406930000056,None,1252.3510894000065,None,1252.3510894000065,None,r,2.3988553998060524,1252.3510894000065,None,,,"C,49",001,2022_May_02_1404,ProdSingRedo,3.2.3,60.04509394329193,
,,,,36,0,36,0,,,,,,,,,,,,,,,,,,,,,,,,1260.8654686999507,None,,,,,,,,,,,,,,,,,session,new_silent,yellow,36,163,281,1255.3001218000427,None,1255.3001218000427,None,1,3.1860424000769854,1255.3001218000427,None,1258.5268981999252,None,1259.050300899893,None,1259.050300899893,None,n,1.779558400157839,1259.050300899893,None,,,"C,49",001,2022_May_02_1404,ProdSingRedo,3.2.3,60.04509394329193,
,,,,37,0,37,0,,,,,,,,,,,,,,,,,,,,,,,,1267.6583081998397,None,,,,,,,,,,,,,,,,,relation,sing,red,37,1,257,1261.3907228000462,None,1261.3907228000462,None,5,4.5511668000835925,1261.3907228000462,None,1265.990368800005,None,1266.509737299988,None,1266.509737299988,None,f,1.1203668999951333,1266.509737299988,None,,,"C,49",001,2022_May_02_1404,ProdSingRedo,3.2.3,60.04509394329193,
,,,,38,0,38,0,,,,,,,,,,,,,,,,,,,,,,,,1272.7468977000099,None,,,,,,,,,,,,,,,,,short,silent,yellow,38,81,285,1268.1795109999366,None,1268.1795109999366,None,4,3.4264170001260936,1268.1795109999366,None,1271.6518601998687,None,1272.1627374999225,None,1272.1627374999225,None,f,0.5551493999082595,1272.1627374999225,None,,,"C,49",001,2022_May_02_1404,ProdSingRedo,3.2.3,60.04509394329193,
,,,,39,0,39,0,,,,,,,,,,,,,,,,,,,,,,,,1277.1834936998785,None,,,,,,,,,,,,,,,,,damage,new_sing,red,39,119,83,1273.27371879993,None,1273.27371879993,None,1,2.0681928999256343,1273.27371879993,None,1275.3834919999354,None,1275.8913930999115,None,1275.8913930999115,None,n,1.2664691000245512,1275.8913930999115,None,,,"C,49",001,2022_May_02_1404,ProdSingRedo,3.2.3,60.04509394329193,
,,,,40,0,40,0,,,,,,,,,,,,,,,,,,,,,,,,1282.8574190998916,None,,,,,,,,,,,,,,,,,weather,sing,red,40,22,352,1277.7096148999408,None,1277.7096148999408,None,5,3.600752400001511,1277.7096148999408,None,1281.3560649000574,None,1281.8638446000405,None,1281.8638446000405,None,f,0.9584008001256734,1281.8638446000405,None,,,"C,49",001,2022_May_02_1404,ProdSingRedo,3.2.3,60.04509394329193,
,,,,41,0,41,0,,,,,,,,,,,,,,,,,,,,,,,,1292.1317588998936,None,,,,,,,,,,,,,,,,,tough,new_silent,yellow,41,155,333,1283.380647300044,None,1283.380647300044,None,2,4.936789799947292,1283.380647300044,None,1288.337465299992,None,1288.837147800019,None,1288.837147800019,None,f,3.2648065998218954,1288.837147800019,None,,,"C,49",001,2022_May_02_1404,ProdSingRedo,3.2.3,60.04509394329193,
,,,,42,0,42,0,,,,,,,,,,,,,,,,,,,,,,,,1301.6738940000068,None,,,,,,,,,,,,,,,,,measure,new_aloud,blue,42,136,184,1292.66455519991,None,1292.66455519991,None,4,7.605423799948767,1292.66455519991,None,1300.3233487999532,None,1300.845907999901,None,1300.845907999901,None,f,0.7920952001586556,1300.845907999901,None,,,"C,49",001,2022_May_02_1404,ProdSingRedo,3.2.3,60.04509394329193,
,,,,43,0,43,0,,,,,,,,,,,,,,,,,,,,,,,,1307.4135445000138,None,,,,,,,,,,,,,,,,,history,aloud,blue,43,30,153,1302.2015358998906,None,1302.2015358998906,None,1,2.5483173998072743,1302.2015358998906,None,1304.7942931998987,None,1305.304506599903,None,1305.304506599903,None,n,2.0856026001274586,1305.304506599903,None,,,"C,49",001,2022_May_02_1404,ProdSingRedo,3.2.3,60.04509394329193,
,,,,44,0,44,0,,,,,,,,,,,,,,,,,,,,,,,,1313.518982199952,None,,,,,,,,,,,,,,,,,threat,silent,yellow,44,87,329,1307.9393982000183,None,1307.9393982000183,None,1,3.745967000024393,1307.9393982000183,None,1311.7111151998397,None,1312.210445099976,None,1312.210445099976,None,n,1.2833619001321495,1312.210445099976,None,,,"C,49",001,2022_May_02_1404,ProdSingRedo,3.2.3,60.04509394329193,
,,,,45,0,45,0,,,,,,,,,,,,,,,,,,,,,,,,1318.074637599988,None,,,,,,,,,,,,,,,,,court,sing,red,45,11,75,1314.0423924999777,None,1314.0423924999777,None,6,2.779552600113675,1314.0423924999777,None,1316.868065400049,None,1317.4014089999255,None,1317.4014089999255,None,r,0.6366713000461459,1317.4014089999255,None,,,"C,49",001,2022_May_02_1404,ProdSingRedo,3.2.3,60.04509394329193,
,,,,46,0,46,0,,,,,,,,,,,,,,,,,,,,,,,,1323.4920800998807,None,,,,,,,,,,,,,,,,,author,aloud,blue,46,40,15,1318.598274699878,None,1318.598274699878,None,6,2.1034819001797587,1318.598274699878,None,1320.7426924000029,None,1321.2615604000166,None,1321.2615604000166,None,r,2.2000128000508994,1321.2615604000166,None,,,"C,49",001,2022_May_02_1404,ProdSingRedo,3.2.3,60.04509394329193,
,,,,47,0,47,0,,,,,,,,,,,,,,,,,,,,,,,,1327.5059398999438,None,,,,,,,,,,,,,,,,,style,sing,red,47,18,311,1324.0216713999398,None,1324.0216713999398,None,4,2.4639018999878317,1324.0216713999398,None,1326.5195553998929,None,1327.035946500022,None,1327.035946500022,None,f,0.4339451000560075,1327.035946500022,None,,,"C,49",001,2022_May_02_1404,ProdSingRedo,3.2.3,60.04509394329193,
,,,,48,0,48,0,,,,,,,,,,,,,,,,,,,,,,,,1331.5543037999887,None,,,,,,,,,,,,,,,,,broad,new_silent,yellow,48,178,31,1328.0308417999186,None,1328.0308417999186,None,1,1.927043000003323,1328.0308417999186,None,1330.0028468000237,None,1330.5240380999167,None,1330.5240380999167,None,n,1.0018559000454843,1330.5240380999167,None,,,"C,49",001,2022_May_02_1404,ProdSingRedo,3.2.3,60.04509394329193,
,,,,49,0,49,0,,,,,,,,,,,,,,,,,,,,,,,,1336.226013999898,None,,,,,,,,,,,,,,,,,management,new_sing,red,49,111,177,1332.0866775000468,None,1332.0866775000468,None,4,2.9830813999287784,1332.0866775000468,None,1335.1264664998744,None,1335.6476258998737,None,1335.6476258998737,None,f,0.542327799834311,1335.6476258998737,None,,,"C,49",001,2022_May_02_1404,ProdSingRedo,3.2.3,60.04509394329193,
,,,,50,0,50,0,,,,,,,,,,,,,,,,,,,,,,,,1342.0571262000594,None,,,,,,,,,,,,,,,,,front,new_aloud,blue,50,125,134,1336.7485376000404,None,1336.7485376000404,None,1,1.6733485001605004,1336.7485376000404,None,1338.473479300039,None,1338.9956465000287,None,1338.9956465000287,None,n,3.0337096999865025,1338.9956465000287,None,,,"C,49",001,2022_May_02_1404,ProdSingRedo,3.2.3,60.04509394329193,
,,,,51,0,51,0,,,,,,,,,,,,,,,,,,,,,,,,1345.7063505998813,None,,,,,,,,,,,,,,,,,dozen,new_silent,yellow,51,166,102,1342.580733000068,None,1342.580733000068,None,1,1.6810788000002503,1342.580733000068,None,1344.3111914999317,None,1344.836659600027,None,1344.836659600027,None,n,0.8412440000101924,1344.836659600027,None,,,"C,49",001,2022_May_02_1404,ProdSingRedo,3.2.3,60.04509394329193,
,,,,52,0,52,0,,,,,,,,,,,,,,,,,,,,,,,,1351.0885165999644,None,,,,,,,,,,,,,,,,,turkey,aloud,blue,52,57,342,1346.2375582999084,None,1346.2375582999084,None,6,2.464473299914971,1346.2375582999084,None,1348.7524339000229,None,1349.2826051998418,None,1349.2826051998418,None,r,1.7551779998466372,1349.2826051998418,None,,,"C,49",001,2022_May_02_1404,ProdSingRedo,3.2.3,60.04509394329193,
,,,,53,0,53,0,,,,,,,,,,,,,,,,,,,,,,,,1355.0119396999944,None,,,,,,,,,,,,,,,,,right,aloud,blue,53,31,265,1351.6158032999374,None,1351.6158032999374,None,6,2.3262332000304013,1351.6158032999374,None,1353.9906967999414,None,1354.512376199942,None,1354.512376199942,None,r,0.46149739995598793,1354.512376199942,None,,,"C,49",001,2022_May_02_1404,ProdSingRedo,3.2.3,60.04509394329193,
,,,,54,0,54,0,,,,,,,,,,,,,,,,,,,,,,,,1360.2006876999512,None,,,,,,,,,,,,,,,,,portion,new_sing,red,54,104,228,1355.5332175998483,None,1355.5332175998483,None,1,3.056523600127548,1355.5332175998483,None,1358.6267490000464,None,1359.1501833999064,None,1359.1501833999064,None,n,1.0235847001895308,1359.1501833999064,None,,,"C,49",001,2022_May_02_1404,ProdSingRedo,3.2.3,60.04509394329193,
,,,,55,0,55,0,,,,,,,,,,,,,,,,,,,,,,,,1364.2702319000382,None,,,,,,,,,,,,,,,,,season,silent,yellow,55,77,277,1360.7254051000345,None,1360.7254051000345,None,4,2.4725510000716895,1360.7254051000345,None,1363.2472542000469,None,1363.773003200069,None,1363.773003200069,None,f,0.4727801000699401,1363.773003200069,None,,,"C,49",001,2022_May_02_1404,ProdSingRedo,3.2.3,60.04509394329193,
,,,,56,0,56,0,,,,,,,,,,,,,,,,,,,,,,,,1369.1922172999475,None,,,,,,,,,,,,,,,,,machinery,new_sing,red,56,116,175,1364.7978270000312,None,1364.7978270000312,None,2,3.2080049000214785,1364.7978270000312,None,1368.0601402998436,None,1368.5788505999371,None,1368.5788505999371,None,n,0.587163700023666,1368.5788505999371,None,,,"C,49",001,2022_May_02_1404,ProdSingRedo,3.2.3,60.04509394329193,
,,,,57,0,57,0,,,,,,,,,,,,,,,,,,,,,,,,1373.4308046998922,None,,,,,,,,,,,,,,,,,nation,new_silent,yellow,57,158,198,1369.7162299999036,None,1369.7162299999036,None,2,2.417149200104177,1369.7162299999036,None,1372.1564565999433,None,1372.680152399931,None,1372.680152399931,None,n,0.7260937001556158,1372.680152399931,None,,,"C,49",001,2022_May_02_1404,ProdSingRedo,3.2.3,60.04509394329193,
,,,,58,0,58,0,,,,,,,,,,,,,,,,,,,,,,,,1377.9858057999518,None,,,,,,,,,,,,,,,,,comfort,new_sing,red,58,112,59,1373.9558876999654,None,1373.9558876999654,None,5,2.866006499854848,1373.9558876999654,None,1376.867601200007,None,1377.3871661999729,None,1377.3871661999729,None,f,0.5631812999490649,1377.3871661999729,None,,,"C,49",001,2022_May_02_1404,ProdSingRedo,3.2.3,60.04509394329193,
,,,,59,0,59,0,,,,,,,,,,,,,,,,,,,,,,,,1381.6050741998479,None,,,,,,,,,,,,,,,,,length,aloud,blue,59,43,169,1378.508383099921,None,1378.508383099921,None,6,1.8896589998621494,1378.508383099921,None,1380.4510057000443,None,1380.9739622999914,None,1380.9739622999914,None,r,0.5998227000236511,1380.9739622999914,None,,,"C,49",001,2022_May_02_1404,ProdSingRedo,3.2.3,60.04509394329193,
,,,,60,0,60,0,,,,,,,,,,,,,,,,,,,,,,,,1389.245418400038,None,,,,,,,,,,,,,,,,,death,new_silent,yellow,60,160,86,1382.1306040000636,None,1382.1306040000636,None,6,3.8354085001628846,1382.1306040000636,None,1386.006448799977,None,1386.5287988998462,None,1386.5287988998462,None,r,2.692914299899712,1386.5287988998462,None,,,"C,49",001,2022_May_02_1404,ProdSingRedo,3.2.3,60.04509394329193,
,,,,61,0,61,0,,,,,,,,,,,,,,,,,,,,,,,,1394.3334717999678,None,,,,,,,,,,,,,,,,,hunger,new_aloud,blue,61,149,155,1389.775960299885,None,1389.775960299885,None,4,3.381666700122878,1389.775960299885,None,1393.1887664999813,None,1393.7041471998673,None,1393.7041471998673,None,f,0.5899432997684926,1393.7041471998673,None,,,"C,49",001,2022_May_02_1404,ProdSingRedo,3.2.3,60.04509394329193,
,,,,62,0,62,0,,,,,,,,,,,,,,,,,,,,,,,,1398.5723454998806,None,,,,,,,,,,,,,,,,,accident,aloud,blue,62,45,0,1394.8594446999487,None,1394.8594446999487,None,6,2.6423935999628156,1394.8594446999487,None,1397.5544217000715,None,1398.073654100066,None,1398.073654100066,None,r,0.4681031999643892,1398.073654100066,None,,,"C,49",001,2022_May_02_1404,ProdSingRedo,3.2.3,60.04509394329193,
,,,,63,0,63,0,,,,,,,,,,,,,,,,,,,,,,,,1410.8350867000408,None,,,,,,,,,,,,,,,,,contract,new_silent,yellow,63,150,68,1399.1005653999746,None,1399.1005653999746,None,1,9.185116400010884,1399.1005653999746,None,1408.3200268999208,None,1408.8343531000428,None,1408.8343531000428,None,n,1.97160889999941,1408.8343531000428,None,,,"C,49",001,2022_May_02_1404,ProdSingRedo,3.2.3,60.04509394329193,
,,,,64,0,64,0,,,,,,,,,,,,,,,,,,,,,,,,1418.7408075998537,None,,,,,,,,,,,,,,,,,bright,sing,red,64,17,29,1411.3523476999253,None,1411.3523476999253,None,1,5.605472300201654,1411.3523476999253,None,1417.0012393998913,None,1417.5285674000625,None,1417.5285674000625,None,n,1.1737665000837296,1417.5285674000625,None,,,"C,49",001,2022_May_02_1404,ProdSingRedo,3.2.3,60.04509394329193,
,,,,65,0,65,0,,,,,,,,,,,,,,,,,,,,,,,,1424.3808087999932,None,,,,,,,,,,,,,,,,,birth,new_silent,yellow,65,161,22,1419.266370399855,None,1419.266370399855,None,2,3.7393065998330712,1419.266370399855,None,1423.039290699875,None,1423.5488269999623,None,1423.5488269999623,None,n,0.7930733000393957,1423.5488269999623,None,,,"C,49",001,2022_May_02_1404,ProdSingRedo,3.2.3,60.04509394329193,
,,,,66,0,66,0,,,,,,,,,,,,,,,,,,,,,,,,1427.733796699904,None,,,,,,,,,,,,,,,,,quick,new_silent,yellow,66,152,248,1424.9106274999212,None,1424.9106274999212,None,1,1.7669955000746995,1424.9106274999212,None,1426.7267968000378,None,1427.254277799977,None,1427.254277799977,None,n,0.447558700107038,1427.254277799977,None,,,"C,49",001,2022_May_02_1404,ProdSingRedo,3.2.3,60.04509394329193,
,,,,67,0,67,0,,,,,,,,,,,,,,,,,,,,,,,,1434.2573253998999,None,,,,,,,,,,,,,,,,,still,silent,yellow,67,64,304,1428.255815899931,None,1428.255815899931,None,6,2.557897800114006,1428.255815899931,None,1430.848075499991,None,1431.36850890005,None,1431.36850890005,None,r,2.853382300119847,1431.36850890005,None,,,"C,49",001,2022_May_02_1404,ProdSingRedo,3.2.3,60.04509394329193,
,,,,68,0,68,0,,,,,,,,,,,,,,,,,,,,,,,,1438.777449999936,None,,,,,,,,,,,,,,,,,novel,new_silent,yellow,68,175,202,1434.7854140999261,None,1434.7854140999261,None,2,2.044461000012234,1434.7854140999261,None,1436.874612599844,None,1437.3961747998837,None,1437.3961747998837,None,n,1.345792500069365,1437.3961747998837,None,,,"C,49",001,2022_May_02_1404,ProdSingRedo,3.2.3,60.04509394329193,
,,,,69,0,69,0,,,,,,,,,,,,,,,,,,,,,,,,1444.6762908999808,None,,,,,,,,,,,,,,,,,produce,new_sing,red,69,107,239,1439.3118662999477,None,1439.3118662999477,None,3,3.6222512999083847,1439.3118662999477,None,1442.9796672000084,None,1443.5046081999317,None,1443.5046081999317,None,f,1.1569312000647187,1443.5046081999317,None,,,"C,49",001,2022_May_02_1404,ProdSingRedo,3.2.3,60.04509394329193,
,,,,70,0,70,0,,,,,,,,,,,,,,,,,,,,,,,,1450.3457505998667,None,,,,,,,,,,,,,,,,,sound,new_sing,red,70,109,295,1445.1942976999562,None,1445.1942976999562,None,1,3.4033959000371397,1445.1942976999562,None,1448.635022399947,None,1449.1568257999606,None,1449.1568257999606,None,n,1.1531674000434577,1449.1568257999606,None,,,"C,49",001,2022_May_02_1404,ProdSingRedo,3.2.3,60.04509394329193,
,,,,71,0,71,0,,,,,,,,,,,,,,,,,,,,,,,,1454.2105513999704,None,,,,,,,,,,,,,,,,,passage,silent,yellow,71,82,212,1450.8676968000364,None,1450.8676968000364,None,1,2.3621593001298606,1450.8676968000364,None,1453.2721074998844,None,1453.7897599998396,None,1453.7897599998396,None,n,0.392111900029704,1453.7897599998396,None,,,"C,49",001,2022_May_02_1404,ProdSingRedo,3.2.3,60.04509394329193,
,,,,72,0,72,0,,,,,,,,,,,,,,,,,,,,,,,,1457.5639485998545,None,,,,,,,,,,,,,,,,,disease,new_silent,yellow,72,165,97,1454.7360063998494,None,1454.7360063998494,None,1,1.6061830001417547,1454.7360063998494,None,1456.3908766000532,None,1456.916507499991,None,1456.916507499991,None,n,0.6093734002206475,1456.916507499991,None,,,"C,49",001,2022_May_02_1404,ProdSingRedo,3.2.3,60.04509394329193,
,,,,73,0,73,0,,,,,,,,,,,,,,,,,,,,,,,,1462.2436845998745,None,,,,,,,,,,,,,,,,,pancakes,silent,yellow,73,89,210,1458.1016088998877,None,1458.1016088998877,None,6,2.3281962999608368,1458.1016088998877,None,1460.4889978000429,None,1461.0066708000377,None,1461.0066708000377,None,r,1.214713100111112,1461.0066708000377,None,,,"C,49",001,2022_May_02_1404,ProdSingRedo,3.2.3,60.04509394329193,
,,,,74,0,74,0,,,,,,,,,,,,,,,,,,,,,,,,1465.9324570999015,None,,,,,,,,,,,,,,,,,strain,sing,red,74,6,308,1462.7611666999292,None,1462.7611666999292,None,6,1.9487417000345886,1462.7611666999292,None,1464.7583592999727,None,1465.2760568000376,None,1465.2760568000376,None,r,0.6255504998844117,1465.2760568000376,None,,,"C,49",001,2022_May_02_1404,ProdSingRedo,3.2.3,60.04509394329193,
,,,,75,0,75,0,,,,,,,,,,,,,,,,,,,,,,,,1469.9258017998654,None,,,,,,,,,,,,,,,,,breath,new_sing,red,75,92,27,1466.45273489994,None,1466.45273489994,None,4,1.8733377000316978,1466.45273489994,None,1468.3709928998724,None,1468.905111500062,None,1468.905111500062,None,f,0.996771699981764,1468.905111500062,None,,,"C,49",001,2022_May_02_1404,ProdSingRedo,3.2.3,60.04509394329193,
,,,,76,0,76,0,,,,,,,,,,,,,,,,,,,,,,,,1473.4948910998646,None,,,,,,,,,,,,,,,,,broke,new_aloud,blue,76,135,32,1470.4531908000354,None,1470.4531908000354,None,3,2.280647400068119,1470.4531908000354,None,1472.7766384000424,None,1473.2889062999748,None,1473.2889062999748,None,f,0.1807398998644203,1473.2889062999748,None,,,"C,49",001,2022_May_02_1404,ProdSingRedo,3.2.3,60.04509394329193,
,,,,77,0,77,0,,,,,,,,,,,,,,,,,,,,,,,,1477.867506899871,None,,,,,,,,,,,,,,,,,design,aloud,blue,77,58,91,1474.0195724000223,None,1474.0195724000223,None,3,2.7704583001323044,1474.0195724000223,None,1476.8336845999584,None,1477.3512657999527,None,1477.3512657999527,None,f,0.48659440013580024,1477.3512657999527,None,,,"C,49",001,2022_May_02_1404,ProdSingRedo,3.2.3,60.04509394329193,
,,,,78,0,78,0,,,,,,,,,,,,,,,,,,,,,,,,1482.0405904999934,None,,,,,,,,,,,,,,,,,search,new_sing,red,78,93,276,1478.394112000009,None,1478.394112000009,None,2,1.9232708998024464,1478.394112000009,None,1480.350050699897,None,1480.870847699931,None,1480.870847699931,None,n,1.143067899858579,1480.870847699931,None,,,"C,49",001,2022_May_02_1404,ProdSingRedo,3.2.3,60.04509394329193,
,,,,79,0,79,0,,,,,,,,,,,,,,,,,,,,,,,,1488.7941521999892,None,,,,,,,,,,,,,,,,,blind,silent,yellow,79,61,24,1482.5639627999626,None,1482.5639627999626,None,4,4.07384750014171,1482.5639627999626,None,1486.6865870999172,None,1487.1955085999798,None,1487.1955085999798,None,f,1.5623257998377085,1487.1955085999798,None,,,"C,49",001,2022_May_02_1404,ProdSingRedo,3.2.3,60.04509394329193,
,,,,80,0,80,0,,,,,,,,,,,,,,,,,,,,,,,,1492.1069998999592,None,,,,,,,,,,,,,,,,,people,sing,red,80,24,216,1489.3211199999787,None,1489.3211199999787,None,6,1.6847216000314802,1489.3211199999787,None,1491.0399641999975,None,1491.5473488999996,None,1491.5473488999996,None,r,0.5300179000478238,1491.5473488999996,None,,,"C,49",001,2022_May_02_1404,ProdSingRedo,3.2.3,60.04509394329193,
,,,,81,0,81,0,,,,,,,,,,,,,,,,,,,,,,,,1497.2872132998891,None,,,,,,,,,,,,,,,,,vision,sing,red,81,29,347,1492.6237095999531,None,1492.6237095999531,None,6,3.478200800018385,1492.6237095999531,None,1496.148081699852,None,1496.6710115000606,None,1496.6710115000606,None,r,0.582785899983719,1496.6710115000606,None,,,"C,49",001,2022_May_02_1404,ProdSingRedo,3.2.3,60.04509394329193,
,,,,82,0,82,0,,,,,,,,,,,,,,,,,,,,,,,,1500.4742624000646,None,,,,,,,,,,,,,,,,,power,aloud,blue,82,49,230,1497.815635100007,None,1497.815635100007,None,4,1.5501608999911696,1497.815635100007,None,1499.4032455999404,None,1499.9240822999272,None,1499.9240822999272,None,f,0.521841499954462,1499.9240822999272,None,,,"C,49",001,2022_May_02_1404,ProdSingRedo,3.2.3,60.04509394329193,
,,,,83,0,83,0,,,,,,,,,,,,,,,,,,,,,,,,1505.8466064999811,None,,,,,,,,,,,,,,,,,exchange,sing,red,83,19,121,1501.0012028999627,None,1501.0012028999627,None,2,3.100526300026104,1501.0012028999627,None,1504.1450906998944,None,1504.6621093000285,None,1504.6621093000285,None,n,1.1516623999923468,1504.6621093000285,None,,,"C,49",001,2022_May_02_1404,ProdSingRedo,3.2.3,60.04509394329193,
,,,,84,0,84,0,,,,,,,,,,,,,,,,,,,,,,,,1511.2185187998693,None,,,,,,,,,,,,,,,,,native,new_silent,yellow,84,168,199,1506.373626400018,None,1506.373626400018,None,3,3.2161451999563724,1506.373626400018,None,1509.6408354998566,None,1510.1548440998886,None,1510.1548440998886,None,f,1.0268709999509156,1510.1548440998886,None,,,"C,49",001,2022_May_02_1404,ProdSingRedo,3.2.3,60.04509394329193,
,,,,85,0,85,0,,,,,,,,,,,,,,,,,,,,,,,,1514.3799767999444,None,,,,,,,,,,,,,,,,,burden,aloud,blue,85,53,36,1511.7442248999141,None,1511.7442248999141,None,6,1.6616551999468356,1511.7442248999141,None,1513.4506045000162,None,1513.9723638000432,None,1513.9723638000432,None,r,0.37716170004568994,1513.9723638000432,None,,,"C,49",001,2022_May_02_1404,ProdSingRedo,3.2.3,60.04509394329193,
,,,,86,0,86,0,,,,,,,,,,,,,,,,,,,,,,,,1517.6232735000085,None,,,,,,,,,,,,,,,,,quarter,sing,red,86,27,246,1514.9009554998484,None,1514.9009554998484,None,6,1.7210348998196423,1514.9009554998484,None,1516.6744192999322,None,1517.193206399912,None,1517.193206399912,None,r,0.39649770013056695,1517.193206399912,None,,,"C,49",001,2022_May_02_1404,ProdSingRedo,3.2.3,60.04509394329193,
,,,,87,0,87,0,,,,,,,,,,,,,,,,,,,,,,,,1524.764497899916,None,,,,,,,,,,,,,,,,,force,new_aloud,blue,87,132,131,1518.155101499986,None,1518.155101499986,None,3,3.570265700109303,1518.155101499986,None,1521.7695903999265,None,1522.2703354998957,None,1522.2703354998957,None,f,2.4554861998185515,1522.2703354998957,None,,,"C,49",001,2022_May_02_1404,ProdSingRedo,3.2.3,60.04509394329193,
,,,,88,0,88,0,,,,,,,,,,,,,,,,,,,,,,,,1527.7997214000206,None,,,,,,,,,,,,,,,,,equipment,sing,red,88,0,116,1525.2935832999647,None,1525.2935832999647,None,6,1.5682859001681209,1525.2935832999647,None,1526.9183014999144,None,1527.4404402000364,None,1527.4404402000364,None,r,0.3253635000437498,1527.4404402000364,None,,,"C,49",001,2022_May_02_1404,ProdSingRedo,3.2.3,60.04509394329193,
,,,,89,0,89,0,,,,,,,,,,,,,,,,,,,,,,,,1531.6553509999067,None,,,,,,,,,,,,,,,,,object,new_silent,yellow,89,156,204,1528.3298724999186,None,1528.3298724999186,None,1,1.995866300072521,1528.3298724999186,None,1530.3686963999644,None,1530.8874051000457,None,1530.8874051000457,None,n,0.7343244000803679,1530.8874051000457,None,,,"C,49",001,2022_May_02_1404,ProdSingRedo,3.2.3,60.04509394329193,
,,,,90,0,90,0,,,,,,,,,,,,,,,,,,,,,,,,1536.3921063998714,None,,,,,,,,,,,,,,,,,appeal,sing,red,90,12,9,1532.1823658000212,None,1532.1823658000212,None,4,2.902951799798757,1532.1823658000212,None,1535.133077699924,None,1535.6335863999557,None,1535.6335863999557,None,f,0.7323495999444276,1535.6335863999557,None,,,"C,49",001,2022_May_02_1404,ProdSingRedo,3.2.3,60.04509394329193,
,,,,91,0,91,0,,,,,,,,,,,,,,,,,,,,,,,,1539.797950499924,None,,,,,,,,,,,,,,,,,tragedy,aloud,blue,91,44,335,1536.9015760999173,None,1536.9015760999173,None,6,1.7359742999542505,1536.9015760999173,None,1538.6618961999193,None,1539.1816251999699,None,1539.1816251999699,None,r,0.5843664999119937,1539.1816251999699,None,,,"C,49",001,2022_May_02_1404,ProdSingRedo,3.2.3,60.04509394329193,
,,,,92,0,92,0,,,,,,,,,,,,,,,,,,,,,,,,1548.287607499864,None,,,,,,,,,,,,,,,,,break,new_sing,red,92,90,26,1540.3255251999944,None,1540.3255251999944,None,3,3.848556200042367,1540.3255251999944,None,1544.2233130999375,None,1544.728854799876,None,1544.728854799876,None,n,3.5329132999759167,1544.728854799876,None,,,"C,49",001,2022_May_02_1404,ProdSingRedo,3.2.3,60.04509394329193,
,,,,93,0,93,0,,,,,,,,,,,,,,,,,,,,,,,,1555.9621766998898,None,,,,,,,,,,,,,,,,,order,new_aloud,blue,93,140,207,1548.8117368000094,None,1548.8117368000094,None,4,5.001941099995747,1548.8117368000094,None,1553.8527239998803,None,1554.3595846998505,None,1554.3595846998505,None,n,1.566332999849692,1554.3595846998505,None,,,"C,49",001,2022_May_02_1404,ProdSingRedo,3.2.3,60.04509394329193,
,,,,94,0,94,0,,,,,,,,,,,,,,,,,,,,,,,,1563.0343229998834,None,,,,,,,,,,,,,,,,,notice,sing,red,94,10,201,1556.485576499952,None,1556.485576499952,None,5,5.45636189985089,1556.485576499952,None,1561.979264399968,None,1562.498462999938,None,1562.498462999938,None,f,0.507311400026083,1562.498462999938,None,,,"C,49",001,2022_May_02_1404,ProdSingRedo,3.2.3,60.04509394329193,
,,,,95,0,95,0,,,,,,,,,,,,,,,,,,,,,,,,1568.8267767999787,None,,,,,,,,,,,,,,,,,fashion,silent,yellow,95,75,125,1563.558798899874,None,1563.558798899874,None,1,3.1989733001682907,1563.558798899874,None,1566.8065150999464,None,1567.3256840000395,None,1567.3256840000395,None,n,1.472154299961403,1567.3256840000395,None,,,"C,49",001,2022_May_02_1404,ProdSingRedo,3.2.3,60.04509394329193,
,,,,96,0,96,0,,,,,,,,,,,,,,,,,,,,,,,,1572.245588599937,None,,,,,,,,,,,,,,,,,state,new_sing,red,96,115,303,1569.3561026998796,None,1569.3561026998796,None,1,1.7540678000077605,1569.3561026998796,None,1571.1608825998846,None,1571.6782243999187,None,1571.6782243999187,None,n,0.5356497999746352,1571.6782243999187,None,,,"C,49",001,2022_May_02_1404,ProdSingRedo,3.2.3,60.04509394329193,
,,,,97,0,97,0,,,,,,,,,,,,,,,,,,,,,,,,1577.3085097998846,None,,,,,,,,,,,,,,,,,profession,silent,yellow,97,86,241,1572.774706499884,None,1572.774706499884,None,6,2.5353538999333978,1572.774706499884,None,1575.3690690000076,None,1575.8863818000536,None,1575.8863818000536,None,f,1.3910049998667091,1575.8863818000536,None,,,"C,49",001,2022_May_02_1404,ProdSingRedo,3.2.3,60.04509394329193,
,,,,98,0,98,0,,,,,,,,,,,,,,,,,,,,,,,,1580.670455900021,None,,,,,,,,,,,,,,,,,scale,new_sing,red,98,110,272,1577.8249007000122,None,1577.8249007000122,None,1,1.8448667998891324,1577.8249007000122,None,1579.7181983999908,None,1580.239215000067,None,1580.239215000067,None,n,0.3985490999184549,1580.239215000067,None,,,"C,49",001,2022_May_02_1404,ProdSingRedo,3.2.3,60.04509394329193,
,,,,99,0,99,0,,,,,,,,,,,,,,,,,,,,,,,,1583.8053212000523,None,,,,,,,,,,,,,,,,,executive,new_silent,yellow,99,164,122,1581.2024079000112,None,1581.2024079000112,None,1,1.5793119000736624,1581.2024079000112,None,1582.818288799841,None,1583.3450803998858,None,1583.3450803998858,None,n,0.43679880001582205,1583.3450803998858,None,,,"C,49",001,2022_May_02_1404,ProdSingRedo,3.2.3,60.04509394329193,
,,,,100,0,100,0,,,,,,,,,,,,,,,,,,,,,,,,1588.912600700045,None,,,,,,,,,,,,,,,,,department,silent,yellow,100,70,90,1584.332054700004,None,1584.332054700004,None,3,3.577715199906379,1584.332054700004,None,1587.9605826998595,None,1588.4824477999937,None,1588.4824477999937,None,f,0.3953452000860125,1588.4824477999937,None,,,"C,49",001,2022_May_02_1404,ProdSingRedo,3.2.3,60.04509394329193,
,,,,101,0,101,0,,,,,,,,,,,,,,,,,,,,,,,,1592.9856151998974,None,,,,,,,,,,,,,,,,,space,new_silent,yellow,101,157,297,1589.4361175000668,None,1589.4361175000668,None,3,2.4818692000117153,1589.4361175000668,None,1591.961588599952,None,1592.4833223999012,None,1592.4833223999012,None,f,0.47470340016297996,1592.4833223999012,None,,,"C,49",001,2022_May_02_1404,ProdSingRedo,3.2.3,60.04509394329193,
,,,,102,0,102,0,,,,,,,,,,,,,,,,,,,,,,,,1600.4055240000598,None,,,,,,,,,,,,,,,,,smell,new_sing,red,102,103,291,1593.5083794000093,None,1593.5083794000093,None,1,5.7455502999946475,1593.5083794000093,None,1599.2989526998717,None,1599.8065088998992,None,1599.8065088998992,None,n,0.5673696000594646,1599.8065088998992,None,,,"C,49",001,2022_May_02_1404,ProdSingRedo,3.2.3,60.04509394329193,
,,,,103,0,103,0,,,,,,,,,,,,,,,,,,,,,,,,1603.1256855998654,None,,,,,,,,,,,,,,,,,under,silent,yellow,103,72,343,1600.9276274000295,None,1600.9276274000295,None,1,1.3261273000389338,1600.9276274000295,None,1602.3048223999795,None,1602.828382999869,None,1602.828382999869,None,n,0.26548460009507835,1602.828382999869,None,,,"C,49",001,2022_May_02_1404,ProdSingRedo,3.2.3,60.04509394329193,
,,,,104,0,104,0,,,,,,,,,,,,,,,,,,,,,,,,1608.0643465998583,None,,,,,,,,,,,,,,,,,government,aloud,blue,104,52,139,1603.655754599953,None,1603.655754599953,None,6,2.3341162998694927,1603.655754599953,None,1606.0480418999214,None,1606.5654726000503,None,1606.5654726000503,None,r,1.4724131000693887,1606.5654726000503,None,,,"C,49",001,2022_May_02_1404,ProdSingRedo,3.2.3,60.04509394329193,
,,,,105,0,105,0,,,,,,,,,,,,,,,,,,,,,,,,1614.0696314999368,None,,,,,,,,,,,,,,,,,angle,new_sing,red,105,105,7,1608.5898825998884,None,1608.5898825998884,None,3,2.3760637999512255,1608.5898825998884,None,1611.0119888999034,None,1611.5400946999434,None,1611.5400946999434,None,n,2.5055853000376374,1611.5400946999434,None,,,"C,49",001,2022_May_02_1404,ProdSingRedo,3.2.3,60.04509394329193,
,,,,106,0,106,0,,,,,,,,,,,,,,,,,,,,,,,,1618.6753783000167,None,,,,,,,,,,,,,,,,,charter,sing,red,106,8,47,1614.597107899841,None,1614.597107899841,None,3,2.4328236000146717,1614.597107899841,None,1617.0787589999381,None,1617.5916546999943,None,1617.5916546999943,None,n,1.0541827999986708,1617.5916546999943,None,,,"C,49",001,2022_May_02_1404,ProdSingRedo,3.2.3,60.04509394329193,
,,,,107,0,107,0,,,,,,,,,,,,,,,,,,,,,,,,1621.7619632999413,None,,,,,,,,,,,,,,,,,swift,new_sing,red,107,101,320,1619.1997680999339,None,1619.1997680999339,None,1,1.5500638999510556,1619.1997680999339,None,1620.7952179999556,None,1621.3187051999848,None,1621.3187051999848,None,n,0.4156720999162644,1621.3187051999848,None,,,"C,49",001,2022_May_02_1404,ProdSingRedo,3.2.3,60.04509394329193,
,,,,108,0,108,0,,,,,,,,,,,,,,,,,,,,,,,,1626.564327799948,None,,,,,,,,,,,,,,,,,curve,new_aloud,blue,108,145,82,1622.289642599877,None,1622.289642599877,None,1,1.4761436998378485,1622.289642599877,None,1623.814980099909,None,1624.3341318999883,None,1624.3341318999883,None,n,2.199420099845156,1624.3341318999883,None,,,"C,49",001,2022_May_02_1404,ProdSingRedo,3.2.3,60.04509394329193,
,,,,109,0,109,0,,,,,,,,,,,,,,,,,,,,,,,,1630.8024273000192,None,,,,,,,,,,,,,,,,,travel,new_silent,yellow,109,173,338,1627.0966374999844,None,1627.0966374999844,None,1,2.6530830000992864,1627.0966374999844,None,1629.8031919000205,None,1630.3239615999628,None,1630.3239615999628,None,n,0.44982990017160773,1630.3239615999628,None,,,"C,49",001,2022_May_02_1404,ProdSingRedo,3.2.3,60.04509394329193,
,,,,110,0,110,0,,,,,,,,,,,,,,,,,,,,,,,,1633.8909229999408,None,,,,,,,,,,,,,,,,,enemy,sing,red,110,15,113,1631.326959699858,None,1631.326959699858,None,6,1.6308496999554336,1631.326959699858,None,1633.0034445000347,None,1633.5232195998542,None,1633.5232195998542,None,r,0.3305923000443727,1633.5232195998542,None,,,"C,49",001,2022_May_02_1404,ProdSingRedo,3.2.3,60.04509394329193,
,,,,111,0,111,0,,,,,,,,,,,,,,,,,,,,,,,,1638.2089517998975,None,,,,,,,,,,,,,,,,,danger,new_silent,yellow,111,177,85,1634.4180558000226,None,1634.4180558000226,None,4,3.1636672001332045,1634.4180558000226,None,1637.6222395999357,None,1638.1482257999014,None,1638.1482257999014,None,f,0.02552789985202253,1638.1482257999014,None,,,"C,49",001,2022_May_02_1404,ProdSingRedo,3.2.3,60.04509394329193,
,,,,112,0,112,0,,,,,,,,,,,,,,,,,,,,,,,,1642.7459841999225,None,,,,,,,,,,,,,,,,,finance,new_silent,yellow,112,162,129,1638.7401987998746,None,1638.7401987998746,None,4,1.8894960000179708,1638.7401987998746,None,1640.67804290005,None,1641.2025889998768,None,1641.2025889998768,None,f,1.5071390001103282,1641.2025889998768,None,,,"C,49",001,2022_May_02_1404,ProdSingRedo,3.2.3,60.04509394329193,
,,,,113,0,113,0,,,,,,,,,,,,,,,,,,,,,,,,1647.569513199851,None,,,,,,,,,,,,,,,,,shock,new_aloud,blue,113,141,284,1643.2713388998527,None,1643.2713388998527,None,5,3.294572499813512,1643.2713388998527,None,1646.6144910999574,None,1647.1379775998648,None,1647.1379775998648,None,f,0.3957570001948625,1647.1379775998648,None,,,"C,49",001,2022_May_02_1404,ProdSingRedo,3.2.3,60.04509394329193,
,,,,114,0,114,0,,,,,,,,,,,,,,,,,,,,,,,,1652.2583987999242,None,,,,,,,,,,,,,,,,,corner,new_aloud,blue,114,126,69,1648.0926427999511,None,1648.0926427999511,None,2,3.241052499972284,1648.0926427999511,None,1651.3666379998904,None,1651.875885099871,None,1651.875885099871,None,n,0.34604289988055825,1651.875885099871,None,,,"C,49",001,2022_May_02_1404,ProdSingRedo,3.2.3,60.04509394329193,
,,,,115,0,115,0,,,,,,,,,,,,,,,,,,,,,,,,1655.360502799973,None,,,,,,,,,,,,,,,,,captain,aloud,blue,115,55,41,1652.7908607998397,None,1652.7908607998397,None,4,1.886857199948281,1652.7908607998397,None,1654.7299027000554,None,1655.250880899839,None,1655.250880899839,None,f,0.07487010001204908,1655.250880899839,None,,,"C,49",001,2022_May_02_1404,ProdSingRedo,3.2.3,60.04509394329193,
,,,,116,0,116,0,,,,,,,,,,,,,,,,,,,,,,,,1659.9487473999616,None,,,,,,,,,,,,,,,,,degree,new_aloud,blue,116,139,89,1655.8865094999783,None,1655.8865094999783,None,1,2.815189199987799,1655.8865094999783,None,1658.7462472000625,None,1659.2730690999888,None,1659.2730690999888,None,n,0.6526665000710636,1659.2730690999888,None,,,"C,49",001,2022_May_02_1404,ProdSingRedo,3.2.3,60.04509394329193,
,,,,117,0,117,0,,,,,,,,,,,,,,,,,,,,,,,,1663.4350524998736,None,,,,,,,,,,,,,,,,,colonel,new_silent,yellow,117,154,55,1660.4720125000458,None,1660.4720125000458,None,1,2.1578124999068677,1660.4720125000458,None,1662.6789479998406,None,1663.1854927998502,None,1663.1854927998502,None,n,0.2122067001182586,1663.1854927998502,None,,,"C,49",001,2022_May_02_1404,ProdSingRedo,3.2.3,60.04509394329193,
,,,,118,0,118,0,,,,,,,,,,,,,,,,,,,,,,,,1667.2072979998775,None,,,,,,,,,,,,,,,,,touch,silent,yellow,118,63,332,1663.9618762000464,None,1663.9618762000464,None,1,2.2999793998897076,1663.9618762000464,None,1666.304903500015,None,1666.8253744998947,None,1666.8253744998947,None,n,0.3564315000548959,1666.8253744998947,None,,,"C,49",001,2022_May_02_1404,ProdSingRedo,3.2.3,60.04509394329193,
,,,,119,0,119,0,,,,,,,,,,,,,,,,,,,,,,,,1672.1031444000546,None,,,,,,,,,,,,,,,,,resistance,silent,yellow,119,78,262,1667.7361892999616,None,1667.7361892999616,None,1,3.2056566001847386,1667.7361892999616,None,1670.9867980000563,None,1671.499489699956,None,1671.499489699956,None,n,0.5778847001492977,1671.499489699956,None,,,"C,49",001,2022_May_02_1404,ProdSingRedo,3.2.3,60.04509394329193,
,,,,120,0,120,0,,,,,,,,,,,,,,,,,,,,,,,,1675.41456439998,None,,,,,,,,,,,,,,,,,institute,new_sing,red,120,95,162,1672.6212249998935,None,1672.6212249998935,None,1,1.6884323998820037,1672.6212249998935,None,1674.3619472999126,None,1674.8842908998486,None,1674.8842908998486,None,n,0.5054326998069882,1674.8842908998486,None,,,"C,49",001,2022_May_02_1404,ProdSingRedo,3.2.3,60.04509394329193,
,,,,121,0,121,0,,,,,,,,,,,,,,,,,,,,,,,,1681.4206025998574,None,,,,,,,,,,,,,,,,,murder,aloud,blue,121,56,195,1675.9459072998725,None,1675.9459072998725,None,6,4.1959216999821365,1675.9459072998725,None,1680.1861791000701,None,1680.7063446999528,None,1680.7063446999528,None,r,0.6756105998065323,1680.7063446999528,None,,,"C,49",001,2022_May_02_1404,ProdSingRedo,3.2.3,60.04509394329193,
,,,,122,0,122,0,,,,,,,,,,,,,,,,,,,,,,,,1686.0594651999418,None,,,,,,,,,,,,,,,,,thing,new_silent,yellow,122,151,328,1681.9468032000586,None,1681.9468032000586,None,4,1.8109132000245154,1681.9468032000586,None,1683.8022377998568,None,1684.3242444000207,None,1684.3242444000207,None,f,1.7058568000793457,1684.3242444000207,None,,,"C,49",001,2022_May_02_1404,ProdSingRedo,3.2.3,60.04509394329193,
,,,,123,0,123,0,,,,,,,,,,,,,,,,,,,,,,,,1689.7465768998954,None,,,,,,,,,,,,,,,,,nature,new_silent,yellow,123,169,200,1686.5854903999716,None,1686.5854903999716,None,2,1.9962371001020074,1686.5854903999716,None,1688.6291586000007,None,1689.148452399997,None,1689.148452399997,None,n,0.5693781001027673,1689.148452399997,None,,,"C,49",001,2022_May_02_1404,ProdSingRedo,3.2.3,60.04509394329193,
,,,,124,0,124,0,,,,,,,,,,,,,,,,,,,,,,,,1694.587991999928,None,,,,,,,,,,,,,,,,,sight,new_aloud,blue,124,146,286,1690.2742349000182,None,1690.2742349000182,None,3,2.1395328000653535,1690.2742349000182,None,1692.463463400025,None,1692.9828186999075,None,1692.9828186999075,None,f,1.5669680999126285,1692.9828186999075,None,,,"C,49",001,2022_May_02_1404,ProdSingRedo,3.2.3,60.04509394329193,
,,,,125,0,125,0,,,,,,,,,,,,,,,,,,,,,,,,1699.504592299927,None,,,,,,,,,,,,,,,,,military,new_silent,yellow,125,167,190,1695.110744799953,None,1695.110744799953,None,1,2.911005500005558,1695.110744799953,None,1698.0713333999738,None,1698.5922632999718,None,1698.5922632999718,None,n,0.8775384000036865,1698.5922632999718,None,,,"C,49",001,2022_May_02_1404,ProdSingRedo,3.2.3,60.04509394329193,
,,,,126,0,126,0,,,,,,,,,,,,,,,,,,,,,,,,1708.1470987000503,None,,,,,,,,,,,,,,,,,brief,aloud,blue,126,54,28,1700.038831599988,None,1700.038831599988,None,6,6.359127399977297,1700.038831599988,None,1706.4408859000541,None,1706.9649801000487,None,1706.9649801000487,None,r,1.144851499935612,1706.9649801000487,None,,,"C,49",001,2022_May_02_1404,ProdSingRedo,3.2.3,60.04509394329193,
,,,,127,0,127,0,,,,,,,,,,,,,,,,,,,,,,,,1711.3616229000036,None,,,,,,,,,,,,,,,,,impact,sing,red,127,21,157,1708.673978399951,None,1708.673978399951,None,5,1.9477411999832839,1708.673978399951,None,1710.6648521998432,None,1711.1861647998448,None,1711.1861647998448,None,f,0.15532899997197092,1711.1861647998448,None,,,"C,49",001,2022_May_02_1404,ProdSingRedo,3.2.3,60.04509394329193,
,,,,128,0,128,0,,,,,,,,,,,,,,,,,,,,,,,,1715.2046224998776,None,,,,,,,,,,,,,,,,,country,new_aloud,blue,128,124,73,1711.893779200036,None,1711.893779200036,None,3,1.7041956998873502,1711.893779200036,None,1713.6482410999015,None,1714.1721236000303,None,1714.1721236000303,None,n,0.9936808999627829,1714.1721236000303,None,,,"C,49",001,2022_May_02_1404,ProdSingRedo,3.2.3,60.04509394329193,
,,,,129,0,129,0,,,,,,,,,,,,,,,,,,,,,,,,1721.235524199903,None,,,,,,,,,,,,,,,,,payment,new_silent,yellow,129,179,215,1715.7377179998439,None,1715.7377179998439,None,4,4.595988200046122,1715.7377179998439,None,1720.3757947999984,None,1720.8980437999126,None,1720.8980437999126,None,f,0.307249000063166,1720.8980437999126,None,,,"C,49",001,2022_May_02_1404,ProdSingRedo,3.2.3,60.04509394329193,
,,,,130,0,130,0,,,,,,,,,,,,,,,,,,,,,,,,1726.5816211998463,None,,,,,,,,,,,,,,,,,industry,sing,red,130,25,161,1721.7578054999467,None,1721.7578054999467,None,6,1.6558685000054538,1721.7578054999467,None,1723.463306899881,None,1723.9852278998587,None,1723.9852278998587,None,r,2.5725647998042405,1723.9852278998587,None,,,"C,49",001,2022_May_02_1404,ProdSingRedo,3.2.3,60.04509394329193,
,,,,131,0,131,0,,,,,,,,,,,,,,,,,,,,,,,,1731.9963944000192,None,,,,,,,,,,,,,,,,,harmony,aloud,blue,131,32,148,1727.1084000000264,None,1727.1084000000264,None,2,3.41743650007993,1727.1084000000264,None,1730.5661024998408,None,1731.0934357999358,None,1731.0934357999358,None,n,0.8878258999902755,1731.0934357999358,None,,,"C,49",001,2022_May_02_1404,ProdSingRedo,3.2.3,60.04509394329193,
,,,,132,0,132,0,,,,,,,,,,,,,,,,,,,,,,,,1736.8930776000489,None,,,,,,,,,,,,,,,,,shape,aloud,blue,132,39,282,1732.497301199939,None,1732.497301199939,None,2,2.2044448000378907,1732.497301199939,None,1734.7578638999257,None,1735.2759308000095,None,1735.2759308000095,None,n,1.5938069999683648,1735.2759308000095,None,,,"C,49",001,2022_May_02_1404,ProdSingRedo,3.2.3,60.04509394329193,
,,,,133,0,133,0,,,,,,,,,,,,,,,,,,,,,,,,1740.3956748000346,None,,,,,,,,,,,,,,,,,substance,aloud,blue,133,37,313,1737.4253709998447,None,1737.4253709998447,None,6,1.9642233999911696,1737.4253709998447,None,1739.4496718000155,None,1739.971514099976,None,1739.971514099976,None,f,0.386323600076139,1739.971514099976,None,,,"C,49",001,2022_May_02_1404,ProdSingRedo,3.2.3,60.04509394329193,
,,,,134,0,134,0,,,,,,,,,,,,,,,,,,,,,,,,1743.7327131000347,None,,,,,,,,,,,,,,,,,scene,aloud,blue,134,48,273,1740.918128499994,None,1740.918128499994,None,6,1.6237133999820799,1740.918128499994,None,1742.5769475998823,None,1743.0967860000674,None,1743.0967860000674,None,f,0.6048404998145998,1743.0967860000674,None,,,"C,49",001,2022_May_02_1404,ProdSingRedo,3.2.3,60.04509394329193,
,,,,135,0,135,0,,,,,,,,,,,,,,,,,,,,,,,,1746.6700883000158,None,,,,,,,,,,,,,,,,,territory,aloud,blue,135,34,324,1744.2630489999428,None,1744.2630489999428,None,6,1.382608000189066,1744.2630489999428,None,1745.6800796999596,None,1746.2070418999065,None,1746.2070418999065,None,f,0.4310399000532925,1746.2070418999065,None,,,"C,49",001,2022_May_02_1404,ProdSingRedo,3.2.3,60.04509394329193,
,,,,136,0,136,0,,,,,,,,,,,,,,,,,,,,,,,,1750.9724691999145,None,,,,,,,,,,,,,,,,,thick,new_silent,yellow,136,172,327,1747.1949668999296,None,1747.1949668999296,None,4,2.9867722000926733,1747.1949668999296,None,1750.2163394999225,None,1750.723982699914,None,1750.723982699914,None,f,0.22597509995102882,1750.723982699914,None,,,"C,49",001,2022_May_02_1404,ProdSingRedo,3.2.3,60.04509394329193,
,,,,137,0,137,0,,,,,,,,,,,,,,,,,,,,,,,,1755.061808399856,None,,,,,,,,,,,,,,,,,piece,new_sing,red,137,108,221,1751.49219359993,None,1751.49219359993,None,2,1.8895587001461536,1751.49219359993,None,1753.418499100022,None,1753.9267583999317,None,1753.9267583999317,None,n,1.110903900116682,1753.9267583999317,None,,,"C,49",001,2022_May_02_1404,ProdSingRedo,3.2.3,60.04509394329193,
,,,,138,0,138,0,,,,,,,,,,,,,,,,,,,,,,,,1759.3483710999135,None,,,,,,,,,,,,,,,,,quiet,new_aloud,blue,138,122,249,1755.5900574999396,None,1755.5900574999396,None,2,1.9037583000026643,1755.5900574999396,None,1757.547231500037,None,1758.066195699852,None,1758.066195699852,None,n,1.251523300074041,1758.066195699852,None,,,"C,49",001,2022_May_02_1404,ProdSingRedo,3.2.3,60.04509394329193,
,,,,139,0,139,0,,,,,,,,,,,,,,,,,,,,,,,,1762.3098962998483,None,,,,,,,,,,,,,,,,,childhood,new_sing,red,139,114,49,1759.872339699883,None,1759.872339699883,None,1,1.4853604999370873,1759.872339699883,None,1761.3951532999054,None,1761.9095656999853,None,1761.9095656999853,None,n,0.3838516999967396,1761.9095656999853,None,,,"C,49",001,2022_May_02_1404,ProdSingRedo,3.2.3,60.04509394329193,
,,,,140,0,140,0,,,,,,,,,,,,,,,,,,,,,,,,1772.6303596000653,None,,,,,,,,,,,,,,,,,background,silent,yellow,140,71,16,1762.8418316000607,None,1762.8418316000607,None,1,7.299890499794856,1762.8418316000607,None,1770.1999596999958,None,1770.7006401000544,None,1770.7006401000544,None,r,1.8972371998243034,1770.7006401000544,None,,,"C,49",001,2022_May_02_1404,ProdSingRedo,3.2.3,60.04509394329193,
,,,,141,0,141,0,,,,,,,,,,,,,,,,,,,,,,,,1777.9975411000196,None,,,,,,,,,,,,,,,,,fellow,new_aloud,blue,141,142,126,1773.1549156999681,None,1773.1549156999681,None,1,2.4827922000549734,1773.1549156999681,None,1775.6784880999476,None,1776.2021748998668,None,1776.2021748998668,None,r,1.771675700088963,1776.2021748998668,None,,,"C,49",001,2022_May_02_1404,ProdSingRedo,3.2.3,60.04509394329193,
,,,,142,0,142,0,,,,,,,,,,,,,,,,,,,,,,,,1783.5275258000474,None,,,,,,,,,,,,,,,,,music,sing,red,142,3,196,1778.5230380999856,None,1778.5230380999856,None,6,3.250655199866742,1778.5230380999856,None,1781.8174478998408,None,1782.3401085999794,None,1782.3401085999794,None,r,1.1537079999689013,1782.3401085999794,None,,,"C,49",001,2022_May_02_1404,ProdSingRedo,3.2.3,60.04509394329193,
,,,,143,0,143,0,,,,,,,,,,,,,,,,,,,,,,,,1787.0260759000666,None,,,,,,,,,,,,,,,,,report,silent,yellow,143,73,259,1784.0512635998894,None,1784.0512635998894,None,2,1.9385385001078248,1784.0512635998894,None,1786.0363161999267,None,1786.557827499928,None,1786.557827499928,None,n,0.4399145001079887,1786.557827499928,None,,,"C,49",001,2022_May_02_1404,ProdSingRedo,3.2.3,60.04509394329193,
,,,,144,0,144,0,,,,,,,,,,,,,,,,,,,,,,,,1790.3166167000309,None,,,,,,,,,,,,,,,,,platform,new_sing,red,144,106,224,1787.5573443998583,None,1787.5573443998583,None,2,1.6963145998306572,1787.5573443998583,None,1789.3027723999694,None,1789.8255397998728,None,1789.8255397998728,None,n,0.46021989989094436,1789.8255397998728,None,,,"C,49",001,2022_May_02_1404,ProdSingRedo,3.2.3,60.04509394329193,
,,,,145,0,145,0,,,,,,,,,,,,,,,,,,,,,,,,1795.9668062999845,None,,,,,,,,,,,,,,,,,testimony,new_sing,red,145,98,325,1790.8524029999971,None,1790.8524029999971,None,2,3.1051453000400215,1790.8524029999971,None,1793.9981315999757,None,1794.5171765999403,None,1794.5171765999403,None,n,1.4170905000064522,1794.5171765999403,None,,,"C,49",001,2022_May_02_1404,ProdSingRedo,3.2.3,60.04509394329193,
,,,,146,0,146,0,,,,,,,,,,,,,,,,,,,,,,,,1801.6744943000376,None,,,,,,,,,,,,,,,,,guest,new_aloud,blue,146,134,146,1796.4939808000345,None,1796.4939808000345,None,5,2.9119827998802066,1796.4939808000345,None,1799.4483749000356,None,1799.9584097999614,None,1799.9584097999614,None,f,1.6873342001345009,1799.9584097999614,None,,,"C,49",001,2022_May_02_1404,ProdSingRedo,3.2.3,60.04509394329193,
,,,,147,0,147,0,,,,,,,,,,,,,,,,,,,,,,,,1805.8776793000288,None,,,,,,,,,,,,,,,,,discussion,sing,red,147,23,96,1802.2013338999823,None,1802.2013338999823,None,6,2.5403950000181794,1802.2013338999823,None,1804.7889121999033,None,1805.3153448998928,None,1805.3153448998928,None,r,0.5384906001854688,1805.3153448998928,None,,,"C,49",001,2022_May_02_1404,ProdSingRedo,3.2.3,60.04509394329193,
,,,,148,0,148,0,,,,,,,,,,,,,,,,,,,,,,,,1811.615713099949,None,,,,,,,,,,,,,,,,,surface,silent,yellow,148,66,316,1806.4006234998815,None,1806.4006234998815,None,3,3.981234800070524,1806.4006234998815,None,1810.4288669999223,None,1810.9551500000525,None,1810.9551500000525,None,n,0.6265871999785304,1810.9551500000525,None,,,"C,49",001,2022_May_02_1404,ProdSingRedo,3.2.3,60.04509394329193,
,,,,149,0,149,0,,,,,,,,,,,,,,,,,,,,,,,,1814.93721870007,None,,,,,,,,,,,,,,,,,suggestion,new_sing,red,149,91,314,1812.1466216999106,None,1812.1466216999106,None,1,1.7711404000874609,1812.1466216999106,None,1813.9648267999291,None,1814.4912169999443,None,1814.4912169999443,None,n,0.41849990002810955,1814.4912169999443,None,,,"C,49",001,2022_May_02_1404,ProdSingRedo,3.2.3,60.04509394329193,
,,,,150,0,150,0,,,,,,,,,,,,,,,,,,,,,,,,1818.0057587998454,None,,,,,,,,,,,,,,,,,material,new_sing,red,150,102,182,1815.4631364999805,None,1815.4631364999805,None,2,1.3906846998725086,1815.4631364999805,None,1816.9090501999017,None,1817.4206389999017,None,1817.4206389999017,None,n,0.5609631999395788,1817.4206389999017,None,,,"C,49",001,2022_May_02_1404,ProdSingRedo,3.2.3,60.04509394329193,
,,,,151,0,151,0,,,,,,,,,,,,,,,,,,,,,,,,1823.360277999891,None,,,,,,,,,,,,,,,,,bureau,silent,yellow,151,80,37,1818.5358638998587,None,1818.5358638998587,None,6,3.0938883998896927,1818.5358638998587,None,1821.6825748998672,None,1822.1865967998747,None,1822.1865967998747,None,r,1.1391943998169154,1822.1865967998747,None,,,"C,49",001,2022_May_02_1404,ProdSingRedo,3.2.3,60.04509394329193,
,,,,152,0,152,0,,,,,,,,,,,,,,,,,,,,,,,,1827.0656494998839,None,,,,,,,,,,,,,,,,,track,silent,yellow,152,60,334,1823.8881051000208,None,1823.8881051000208,None,3,2.189566700020805,1823.8881051000208,None,1826.1327155998442,None,1826.6515521998517,None,1826.6515521998517,None,n,0.3863198000472039,1826.6515521998517,None,,,"C,49",001,2022_May_02_1404,ProdSingRedo,3.2.3,60.04509394329193,
,,,,153,0,153,0,,,,,,,,,,,,,,,,,,,,,,,,1832.9412436999846,None,,,,,,,,,,,,,,,,,drove,new_silent,yellow,153,159,106,1827.601270899875,None,1827.601270899875,None,1,3.5405182999093086,1827.601270899875,None,1831.1860863999464,None,1831.7057399998885,None,1831.7057399998885,None,n,1.1963719998020679,1831.7057399998885,None,,,"C,49",001,2022_May_02_1404,ProdSingRedo,3.2.3,60.04509394329193,
,,,,154,0,154,0,,,,,,,,,,,,,,,,,,,,,,,,1837.8771792000625,None,,,,,,,,,,,,,,,,,narrow,new_aloud,blue,154,143,197,1833.4675809000619,None,1833.4675809000619,None,4,3.346105400007218,1833.4675809000619,None,1836.8601055999752,None,1837.3809431998525,None,1837.3809431998525,None,f,0.4567195000126958,1837.3809431998525,None,,,"C,49",001,2022_May_02_1404,ProdSingRedo,3.2.3,60.04509394329193,
,,,,155,0,155,0,,,,,,,,,,,,,,,,,,,,,,,,1850.8890839999076,None,,,,,,,,,,,,,,,,,service,new_sing,red,155,99,280,1838.404164899839,None,1838.404164899839,None,2,10.897525300038978,1838.404164899839,None,1849.3545329999179,None,1849.8748589998577,None,1849.8748589998577,None,n,0.9790644999593496,1849.8748589998577,None,,,"C,49",001,2022_May_02_1404,ProdSingRedo,3.2.3,60.04509394329193,
,,,,156,0,156,0,,,,,,,,,,,,,,,,,,,,,,,,1854.6281667000148,None,,,,,,,,,,,,,,,,,business,silent,yellow,156,67,38,1851.419591399841,None,1851.419591399841,None,4,2.305954300099984,1851.419591399841,None,1853.7704083998688,None,1854.2795742999297,None,1854.2795742999297,None,f,0.31812640000134706,1854.2795742999297,None,,,"C,49",001,2022_May_02_1404,ProdSingRedo,3.2.3,60.04509394329193,
,,,,157,0,157,0,,,,,,,,,,,,,,,,,,,,,,,,1863.7708225999959,None,,,,,,,,,,,,,,,,,bicycle,silent,yellow,157,68,21,1855.1663697999902,None,1855.1663697999902,None,3,6.655333000002429,1855.1663697999902,None,1861.866556999972,None,1862.389488299843,None,1862.389488299843,None,f,1.3522613998502493,1862.389488299843,None,,,"C,49",001,2022_May_02_1404,ProdSingRedo,3.2.3,60.04509394329193,
,,,,158,0,158,0,,,,,,,,,,,,,,,,,,,,,,,,1867.5557808999438,None,,,,,,,,,,,,,,,,,pressure,aloud,blue,158,42,232,1864.2960085000377,None,1864.2960085000377,None,6,2.173766699852422,1864.2960085000377,None,1866.521103200037,None,1867.0428889000323,None,1867.0428889000323,None,r,0.4908519999589771,1867.0428889000323,None,,,"C,49",001,2022_May_02_1404,ProdSingRedo,3.2.3,60.04509394329193,
,,,,159,0,159,0,,,,,,,,,,,,,,,,,,,,,,,,1871.3115200998727,None,,,,,,,,,,,,,,,,,voice,sing,red,159,14,348,1868.0821767000016,None,1868.0821767000016,None,6,2.2834731000475585,1868.0821767000016,None,1870.4055490999017,None,1870.9114272999577,None,1870.9114272999577,None,r,0.3666250999085605,1870.9114272999577,None,,,"C,49",001,2022_May_02_1404,ProdSingRedo,3.2.3,60.04509394329193,
,,,,160,0,160,0,,,,,,,,,,,,,,,,,,,,,,,,1874.447502200026,None,,,,,,,,,,,,,,,,,series,new_aloud,blue,160,130,279,1871.8315171999857,None,1871.8315171999857,None,6,1.734316899906844,1871.8315171999857,None,1873.603986900067,None,1874.1141480000224,None,1874.1141480000224,None,r,0.29952499992214143,1874.1141480000224,None,,,"C,49",001,2022_May_02_1404,ProdSingRedo,3.2.3,60.04509394329193,
,,,,161,0,161,0,,,,,,,,,,,,,,,,,,,,,,,,1877.1666939998977,None,,,,,,,,,,,,,,,,,point,sing,red,161,13,226,1874.9608163000084,None,1874.9608163000084,None,5,1.4609121999237686,1874.9608163000084,None,1876.4548315999564,None,1876.9657489999663,None,1876.9657489999663,None,f,0.17604029993526638,1876.9657489999663,None,,,"C,49",001,2022_May_02_1404,ProdSingRedo,3.2.3,60.04509394329193,
,,,,162,0,162,0,,,,,,,,,,,,,,,,,,,,,,,,1880.286846099887,None,,,,,,,,,,,,,,,,,phrase,new_sing,red,162,118,220,1877.6927860998549,None,1877.6927860998549,None,2,1.5928239000495523,1877.6927860998549,None,1879.3304091999307,None,1879.8558298998978,None,1879.8558298998978,None,n,0.3979201000183821,1879.8558298998978,None,,,"C,49",001,2022_May_02_1404,ProdSingRedo,3.2.3,60.04509394329193,
,,,,163,0,163,0,,,,,,,,,,,,,,,,,,,,,,,,1884.4412042999174,None,,,,,,,,,,,,,,,,,graduate,new_aloud,blue,163,127,141,1880.8164226000663,None,1880.8164226000663,None,1,1.845313400030136,1880.8164226000663,None,1882.7010240999516,None,1883.2354748998769,None,1883.2354748998769,None,n,1.178531700046733,1883.2354748998769,None,,,"C,49",001,2022_May_02_1404,ProdSingRedo,3.2.3,60.04509394329193,
,,,,164,0,164,0,,,,,,,,,,,,,,,,,,,,,,,,1887.8435176999774,None,,,,,,,,,,,,,,,,,split,silent,yellow,164,74,299,1884.9608719998505,None,1884.9608719998505,None,2,1.6766999999526888,1884.9608719998505,None,1886.6826613000594,None,1887.1904857000336,None,1887.1904857000336,None,n,0.623261199798435,1887.1904857000336,None,,,"C,49",001,2022_May_02_1404,ProdSingRedo,3.2.3,60.04509394329193,
,,,,165,0,165,0,,,,,,,,,,,,,,,,,,,,,,,,1894.1504186999518,None,,,,,,,,,,,,,,,,,republic,aloud,blue,165,51,260,1888.3729407000355,None,1888.3729407000355,None,6,4.272743900073692,1888.3729407000355,None,1892.7009202998597,None,1893.2205272999126,None,1893.2205272999126,None,r,0.9058807999826968,1893.2205272999126,None,,,"C,49",001,2022_May_02_1404,ProdSingRedo,3.2.3,60.04509394329193,
,,,,166,0,166,0,,,,,,,,,,,,,,,,,,,,,,,,1897.285690800054,None,,,,,,,,,,,,,,,,,orchestra,aloud,blue,166,36,206,1894.676583699882,None,1894.676583699882,None,6,1.6169889001175761,1894.676583699882,None,1896.3331814999692,None,1896.8550726000685,None,1896.8550726000685,None,r,0.40673049981705844,1896.8550726000685,None,,,"C,49",001,2022_May_02_1404,ProdSingRedo,3.2.3,60.04509394329193,
,,,,167,0,167,0,,,,,,,,,,,,,,,,,,,,,,,,1899.9381293999031,None,,,,,,,,,,,,,,,,,member,sing,red,167,20,188,1897.8108274000697,None,1897.8108274000697,None,6,1.3387866001576185,1897.8108274000697,None,1899.1996269999072,None,1899.7244324998464,None,1899.7244324998464,None,r,0.18527380004525185,1899.7244324998464,None,,,"C,49",001,2022_May_02_1404,ProdSingRedo,3.2.3,60.04509394329193,
,,,,168,0,168,0,,,,,,,,,,,,,,,,,,,,,,,,1905.3694467998575,None,,,,,,,,,,,,,,,,,distance,sing,red,168,28,100,1900.4680455999915,None,1900.4680455999915,None,6,3.8092964000534266,1900.4680455999915,None,1904.3022109000012,None,1904.8131693999749,None,1904.8131693999749,None,r,0.5361182999331504,1904.8131693999749,None,,,"C,49",001,2022_May_02_1404,ProdSingRedo,3.2.3,60.04509394329193,
,,,,169,0,169,0,,,,,,,,,,,,,,,,,,,,,,,,1907.8958934999537,None,,,,,,,,,,,,,,,,,youth,sing,red,169,9,359,1905.885218600044,None,1905.885218600044,None,6,1.2565001000184566,1905.885218600044,None,1907.1967432000674,None,1907.7148474999703,None,1907.7148474999703,None,r,0.1469011998269707,1907.7148474999703,None,,,"C,49",001,2022_May_02_1404,ProdSingRedo,3.2.3,60.04509394329193,
,,,,170,0,170,0,,,,,,,,,,,,,,,,,,,,,,,,1911.4162524000276,None,,,,,,,,,,,,,,,,,edition,new_aloud,blue,170,133,107,1908.4187662999611,None,1908.4187662999611,None,1,1.914985500043258,1908.4187662999611,None,1910.37544159987,None,1910.8845001000445,None,1910.8845001000445,None,n,0.49718230008147657,1910.8845001000445,None,,,"C,49",001,2022_May_02_1404,ProdSingRedo,3.2.3,60.04509394329193,
,,,,171,0,171,0,,,,,,,,,,,,,,,,,,,,,,,,1914.436699999962,None,,,,,,,,,,,,,,,,,science,new_aloud,blue,171,120,275,1911.9262767999899,None,1911.9262767999899,None,2,1.7114693000912666,1911.9262767999899,None,1913.6780401000287,None,1914.1854548999108,None,1914.1854548999108,None,n,0.22817820007912815,1914.1854548999108,None,,,"C,49",001,2022_May_02_1404,ProdSingRedo,3.2.3,60.04509394329193,
,,,,172,0,172,0,,,,,,,,,,,,,,,,,,,,,,,,1917.159607199952,None,,,,,,,,,,,,,,,,,election,new_sing,red,172,96,109,1914.9584325999022,None,1914.9584325999022,None,1,1.4313292999286205,1914.9584325999022,None,1916.4346046999563,None,1916.95457609999,None,1916.95457609999,None,n,0.17113809986039996,1916.95457609999,None,,,"C,49",001,2022_May_02_1404,ProdSingRedo,3.2.3,60.04509394329193,
,,,,173,0,173,0,,,,,,,,,,,,,,,,,,,,,,,,1920.191584999906,None,,,,,,,,,,,,,,,,,course,new_silent,yellow,173,174,74,1917.6822246999945,None,1917.6822246999945,None,1,1.683362300042063,1917.6822246999945,None,1919.4064185000025,None,1919.930425599916,None,1919.930425599916,None,n,0.235502399969846,1919.930425599916,None,,,"C,49",001,2022_May_02_1404,ProdSingRedo,3.2.3,60.04509394329193,
,,,,174,0,174,0,,,,,,,,,,,,,,,,,,,,,,,,1924.0973008999135,None,,,,,,,,,,,,,,,,,center,silent,yellow,174,76,44,1920.701764700003,None,1920.701764700003,None,4,2.6559601000044495,1920.701764700003,None,1923.4068366999272,None,1923.9290326000191,None,1923.9290326000191,None,f,0.14083079993724823,1923.9290326000191,None,,,"C,49",001,2022_May_02_1404,ProdSingRedo,3.2.3,60.04509394329193,
,,,,175,0,175,0,,,,,,,,,,,,,,,,,,,,,,,,1927.901946600061,None,,,,,,,,,,,,,,,,,beginning,new_silent,yellow,175,153,19,1924.6261578998528,None,1924.6261578998528,None,1,1.6515999000985175,1924.6261578998528,None,1926.3347930999007,None,1926.8542044998612,None,1926.8542044998612,None,n,1.0076718998607248,1926.8542044998612,None,,,"C,49",001,2022_May_02_1404,ProdSingRedo,3.2.3,60.04509394329193,
,,,,176,0,176,0,,,,,,,,,,,,,,,,,,,,,,,,1931.6207620999776,None,,,,,,,,,,,,,,,,,revolution,aloud,blue,176,38,264,1928.435485899914,None,1928.435485899914,None,3,2.338208499830216,1928.435485899914,None,1930.8164575998671,None,1931.3448653998785,None,1931.3448653998785,None,f,0.23683659988455474,1931.3448653998785,None,,,"C,49",001,2022_May_02_1404,ProdSingRedo,3.2.3,60.04509394329193,
,,,,177,0,177,0,,,,,,,,,,,,,,,,,,,,,,,,1935.6396826999262,None,,,,,,,,,,,,,,,,,crime,silent,yellow,177,83,78,1932.1433701000642,None,1932.1433701000642,None,4,2.070366100175306,1932.1433701000642,None,1934.2514390000142,None,1934.7724969000556,None,1934.7724969000556,None,f,0.8413805000018328,1934.7724969000556,None,,,"C,49",001,2022_May_02_1404,ProdSingRedo,3.2.3,60.04509394329193,
,,,,178,0,178,0,,,,,,,,,,,,,,,,,,,,,,,,1939.0437239999883,None,,,,,,,,,,,,,,,,,story,new_silent,yellow,178,176,306,1936.1626051999629,None,1936.1626051999629,None,3,2.0671238999348134,1936.1626051999629,None,1938.2739585998934,None,1938.794925800059,None,1938.794925800059,None,f,0.2108466001227498,1938.794925800059,None,,,"C,49",001,2022_May_02_1404,ProdSingRedo,3.2.3,60.04509394329193,
,,,,179,0,179,0,,,,,,,,,,,,,,,,,,,,,,,,1943.4325009998865,None,,,,,,,,,,,,,,,,,position,new_aloud,blue,179,121,229,1939.5660925998818,None,1939.5660925998818,None,2,2.903237600112334,1939.5660925998818,None,1942.490729100071,None,1943.0011402999517,None,1943.0011402999517,None,n,0.39646720001474023,1943.0011402999517,None,,,"C,49",001,2022_May_02_1404,ProdSingRedo,3.2.3,60.04509394329193,
,,,,,,,,,,,,,,,,,,,,,,,,,,,,,,,,,,,,,,,,,,,,,,,,,,,,,,,,,,,,,,,,,,,,,,,,,1943.9429534999654,None,,,,,,,
