StudyLoop.thisRepN,StudyLoop.thisTrialN,StudyLoop.thisN,StudyLoop.thisIndex,TestLoop.thisRepN,TestLoop.thisTrialN,TestLoop.thisN,TestLoop.thisIndex,textCondition.started,textCondition.stopped,keyCondition.keys,keyCondition.rt,keyCondition.started,keyCondition.stopped,Condition,stim_colors,color_sing,color_aloud,color_silent,textWelcome.started,textWelcome.stopped,keyWelcome.keys,keyWelcome.rt,keyWelcome.started,keyWelcome.stopped,textAloud.started,textAloud.stopped,textSilent.started,textSilent.stopped,textSing.started,textSing.stopped,textBlank500.started,textBlank500.stopped,study_word,study_type,study_color,study_num,study_word_num,textStudy.started,textStudy.stopped,keyStudy.keys,keyStudy.started,keyStudy.stopped,textTestInstructions.started,textTestInstructions.stopped,key_resp_3.keys,key_resp_3.rt,key_resp_3.started,key_resp_3.stopped,testWord,testType,testColor,testN,test_num,test_word_num,textConf.started,textConf.stopped,textConfScale.started,textConfScale.stopped,keyConf.keys,keyConf.rt,keyConf.started,keyConf.stopped,textTestBlank.started,textTestBlank.stopped,textRKN.started,textRKN.stopped,textRKNScale.started,textRKNScale.stopped,keyRKN.keys,keyRKN.rt,keyRKN.started,keyRKN.stopped,textEnd.started,textEnd.stopped,participant,session,date,expName,psychopyVersion,frameRate,
,,,,,,,,2934.7567163999192,None,y,3.1885360998567194,2934.7567163999192,None,,,,,,,,,,,,,,,,,,,,,,,,,,,,,,,,,,,,,,,,,,,,,,,,,,,,,,,,,,,,,,"C,54",001,2022_May_04_1332,ProdSingRedo,3.2.3,59.91550716408479,
,,,,,,,,,,,,,,ColoredTest,"['blue', 'red', 'yellow']",blue,red,yellow,2938.0044233999215,None,space,65.96497839991935,2938.0044233999215,None,,,,,,,,,,,,,,,,,,,,,,,,,,,,,,,,,,,,,,,,,,,,,,,,,,,"C,54",001,2022_May_04_1332,ProdSingRedo,3.2.3,59.91550716408479,
0,0,0,0,,,,,,,,,,,,,,,,,,,,,,2938.0044233999215,None,2938.0044233999215,None,2938.0044233999215,None,3006.5123274999205,None,balance,silent,yellow,75,17,3004.5222267000936,None,None,3004.5222267000936,None,,,,,,,,,,,,,,,,,,,,,,,,,,,,,,,,,"C,54",001,2022_May_04_1332,ProdSingRedo,3.2.3,59.91550716408479,
1,0,1,0,,,,,,,,,,,,,,,,,,,,,,,,,,,,3009.0312959000003,None,concern,sing,blue,12,65,3007.024442499969,None,None,3007.024442499969,None,,,,,,,,,,,,,,,,,,,,,,,,,,,,,,,,,"C,54",001,2022_May_04_1332,ProdSingRedo,3.2.3,59.91550716408479,
2,0,2,0,,,,,,,,,,,,,,,,,,,,,,,,,,,,3011.5507660000585,None,hunger,silent,yellow,78,155,3009.5464809001423,None,None,3009.5464809001423,None,,,,,,,,,,,,,,,,,,,,,,,,,,,,,,,,,"C,54",001,2022_May_04_1332,ProdSingRedo,3.2.3,59.91550716408479,
3,0,3,0,,,,,,,,,,,,,,,,,,,,,,,,,,,,3014.069936200045,None,story,aloud,red,34,306,3012.0709424000233,None,None,3012.0709424000233,None,,,,,,,,,,,,,,,,,,,,,,,,,,,,,,,,,"C,54",001,2022_May_04_1332,ProdSingRedo,3.2.3,59.91550716408479,
4,0,4,0,,,,,,,,,,,,,,,,,,,,,,,,,,,,3016.5889938001055,None,stranger,silent,yellow,84,309,3014.588571399916,None,None,3014.588571399916,None,,,,,,,,,,,,,,,,,,,,,,,,,,,,,,,,,"C,54",001,2022_May_04_1332,ProdSingRedo,3.2.3,59.91550716408479,
5,0,5,0,,,,,,,,,,,,,,,,,,,,,,,,,,,,3019.1083335999865,None,resistance,aloud,red,30,262,3017.1043370000552,None,None,3017.1043370000552,None,,,,,,,,,,,,,,,,,,,,,,,,,,,,,,,,,"C,54",001,2022_May_04_1332,ProdSingRedo,3.2.3,59.91550716408479,
6,0,6,0,,,,,,,,,,,,,,,,,,,,,,,,,,,,3021.6275220001116,None,mechanical,aloud,red,33,185,3019.6251419000328,None,None,3019.6251419000328,None,,,,,,,,,,,,,,,,,,,,,,,,,,,,,,,,,"C,54",001,2022_May_04_1332,ProdSingRedo,3.2.3,59.91550716408479,
7,0,7,0,,,,,,,,,,,,,,,,,,,,,,,,,,,,3024.146696300013,None,service,silent,yellow,70,280,3022.1487700999714,None,None,3022.1487700999714,None,,,,,,,,,,,,,,,,,,,,,,,,,,,,,,,,,"C,54",001,2022_May_04_1332,ProdSingRedo,3.2.3,59.91550716408479,
8,0,8,0,,,,,,,,,,,,,,,,,,,,,,,,,,,,3026.665788100101,None,debate,aloud,red,51,87,3024.660173299955,None,None,3024.660173299955,None,,,,,,,,,,,,,,,,,,,,,,,,,,,,,,,,,"C,54",001,2022_May_04_1332,ProdSingRedo,3.2.3,59.91550716408479,
9,0,9,0,,,,,,,,,,,,,,,,,,,,,,,,,,,,3029.1850322999526,None,broad,silent,yellow,60,31,3027.180314600002,None,None,3027.180314600002,None,,,,,,,,,,,,,,,,,,,,,,,,,,,,,,,,,"C,54",001,2022_May_04_1332,ProdSingRedo,3.2.3,59.91550716408479,
10,0,10,0,,,,,,,,,,,,,,,,,,,,,,,,,,,,3031.704210600117,None,period,sing,blue,24,217,3029.6935246000066,None,None,3029.6935246000066,None,,,,,,,,,,,,,,,,,,,,,,,,,,,,,,,,,"C,54",001,2022_May_04_1332,ProdSingRedo,3.2.3,59.91550716408479,
11,0,11,0,,,,,,,,,,,,,,,,,,,,,,,,,,,,3034.223264399916,None,general,aloud,red,39,135,3032.2190080999862,None,None,3032.2190080999862,None,,,,,,,,,,,,,,,,,,,,,,,,,,,,,,,,,"C,54",001,2022_May_04_1332,ProdSingRedo,3.2.3,59.91550716408479,
12,0,12,0,,,,,,,,,,,,,,,,,,,,,,,,,,,,3036.7425613999367,None,history,aloud,red,35,153,3034.7392414999194,None,None,3034.7392414999194,None,,,,,,,,,,,,,,,,,,,,,,,,,,,,,,,,,"C,54",001,2022_May_04_1332,ProdSingRedo,3.2.3,59.91550716408479,
13,0,13,0,,,,,,,,,,,,,,,,,,,,,,,,,,,,3039.2613347999286,None,nature,sing,blue,10,200,3037.25549040013,None,None,3037.25549040013,None,,,,,,,,,,,,,,,,,,,,,,,,,,,,,,,,,"C,54",001,2022_May_04_1332,ProdSingRedo,3.2.3,59.91550716408479,
14,0,14,0,,,,,,,,,,,,,,,,,,,,,,,,,,,,3041.780903500039,None,birth,aloud,red,38,22,3039.7737000000197,None,None,3039.7737000000197,None,,,,,,,,,,,,,,,,,,,,,,,,,,,,,,,,,"C,54",001,2022_May_04_1332,ProdSingRedo,3.2.3,59.91550716408479,
15,0,15,0,,,,,,,,,,,,,,,,,,,,,,,,,,,,3044.30009220005,None,frank,silent,yellow,64,133,3042.303072199924,None,None,3042.303072199924,None,,,,,,,,,,,,,,,,,,,,,,,,,,,,,,,,,"C,54",001,2022_May_04_1332,ProdSingRedo,3.2.3,59.91550716408479,
16,0,16,0,,,,,,,,,,,,,,,,,,,,,,,,,,,,3046.819226599997,None,fight,sing,blue,18,127,3044.8136789000127,None,None,3044.8136789000127,None,,,,,,,,,,,,,,,,,,,,,,,,,,,,,,,,,"C,54",001,2022_May_04_1332,ProdSingRedo,3.2.3,59.91550716408479,
17,0,17,0,,,,,,,,,,,,,,,,,,,,,,,,,,,,3049.321723500034,None,clean,aloud,red,53,51,3047.3217523000203,None,None,3047.3217523000203,None,,,,,,,,,,,,,,,,,,,,,,,,,,,,,,,,,"C,54",001,2022_May_04_1332,ProdSingRedo,3.2.3,59.91550716408479,
18,0,18,0,,,,,,,,,,,,,,,,,,,,,,,,,,,,3051.840954600135,None,heavy,sing,blue,16,151,3049.842645799974,None,None,3049.842645799974,None,,,,,,,,,,,,,,,,,,,,,,,,,,,,,,,,,"C,54",001,2022_May_04_1332,ProdSingRedo,3.2.3,59.91550716408479,
19,0,19,0,,,,,,,,,,,,,,,,,,,,,,,,,,,,3054.36016390007,None,shear,silent,yellow,80,283,3052.352887199959,None,None,3052.352887199959,None,,,,,,,,,,,,,,,,,,,,,,,,,,,,,,,,,"C,54",001,2022_May_04_1332,ProdSingRedo,3.2.3,59.91550716408479,
20,0,20,0,,,,,,,,,,,,,,,,,,,,,,,,,,,,3056.879359100014,None,weight,aloud,red,31,353,3054.8731386999134,None,None,3054.8731386999134,None,,,,,,,,,,,,,,,,,,,,,,,,,,,,,,,,,"C,54",001,2022_May_04_1332,ProdSingRedo,3.2.3,59.91550716408479,
21,0,21,0,,,,,,,,,,,,,,,,,,,,,,,,,,,,3059.3984689000063,None,bright,sing,blue,23,29,3057.394315100042,None,None,3057.394315100042,None,,,,,,,,,,,,,,,,,,,,,,,,,,,,,,,,,"C,54",001,2022_May_04_1332,ProdSingRedo,3.2.3,59.91550716408479,
22,0,22,0,,,,,,,,,,,,,,,,,,,,,,,,,,,,3061.9177747999784,None,exchange,silent,yellow,63,121,3059.917386200046,None,None,3059.917386200046,None,,,,,,,,,,,,,,,,,,,,,,,,,,,,,,,,,"C,54",001,2022_May_04_1332,ProdSingRedo,3.2.3,59.91550716408479,
23,0,23,0,,,,,,,,,,,,,,,,,,,,,,,,,,,,3064.436906200135,None,brilliant,silent,yellow,85,30,3062.4338438000996,None,None,3062.4338438000996,None,,,,,,,,,,,,,,,,,,,,,,,,,,,,,,,,,"C,54",001,2022_May_04_1332,ProdSingRedo,3.2.3,59.91550716408479,
24,0,24,0,,,,,,,,,,,,,,,,,,,,,,,,,,,,3066.9560799999163,None,speech,sing,blue,3,298,3064.9471867999528,None,None,3064.9471867999528,None,,,,,,,,,,,,,,,,,,,,,,,,,,,,,,,,,"C,54",001,2022_May_04_1332,ProdSingRedo,3.2.3,59.91550716408479,
25,0,25,0,,,,,,,,,,,,,,,,,,,,,,,,,,,,3069.4752116000745,None,death,sing,blue,8,86,3067.4690680999774,None,None,3067.4690680999774,None,,,,,,,,,,,,,,,,,,,,,,,,,,,,,,,,,"C,54",001,2022_May_04_1332,ProdSingRedo,3.2.3,59.91550716408479,
26,0,26,0,,,,,,,,,,,,,,,,,,,,,,,,,,,,3071.994407300139,None,background,aloud,red,37,16,3069.996491299942,None,None,3069.996491299942,None,,,,,,,,,,,,,,,,,,,,,,,,,,,,,,,,,"C,54",001,2022_May_04_1332,ProdSingRedo,3.2.3,59.91550716408479,
27,0,27,0,,,,,,,,,,,,,,,,,,,,,,,,,,,,3074.5135890000965,None,touch,sing,blue,21,332,3072.507620899938,None,None,3072.507620899938,None,,,,,,,,,,,,,,,,,,,,,,,,,,,,,,,,,"C,54",001,2022_May_04_1332,ProdSingRedo,3.2.3,59.91550716408479,
28,0,28,0,,,,,,,,,,,,,,,,,,,,,,,,,,,,3077.0328031999525,None,piece,aloud,red,43,221,3075.0230020999443,None,None,3075.0230020999443,None,,,,,,,,,,,,,,,,,,,,,,,,,,,,,,,,,"C,54",001,2022_May_04_1332,ProdSingRedo,3.2.3,59.91550716408479,
29,0,29,0,,,,,,,,,,,,,,,,,,,,,,,,,,,,3079.552038199967,None,agency,sing,blue,14,4,3077.5473865999375,None,None,3077.5473865999375,None,,,,,,,,,,,,,,,,,,,,,,,,,,,,,,,,,"C,54",001,2022_May_04_1332,ProdSingRedo,3.2.3,59.91550716408479,
30,0,30,0,,,,,,,,,,,,,,,,,,,,,,,,,,,,3082.0709096000064,None,close,silent,yellow,88,53,3080.061442699982,None,None,3080.061442699982,None,,,,,,,,,,,,,,,,,,,,,,,,,,,,,,,,,"C,54",001,2022_May_04_1332,ProdSingRedo,3.2.3,59.91550716408479,
31,0,31,0,,,,,,,,,,,,,,,,,,,,,,,,,,,,3084.5904101000633,None,skill,silent,yellow,68,289,3082.5857057000976,None,None,3082.5857057000976,None,,,,,,,,,,,,,,,,,,,,,,,,,,,,,,,,,"C,54",001,2022_May_04_1332,ProdSingRedo,3.2.3,59.91550716408479,
32,0,32,0,,,,,,,,,,,,,,,,,,,,,,,,,,,,3087.1095763000194,None,smell,sing,blue,0,291,3085.0986160999164,None,None,3085.0986160999164,None,,,,,,,,,,,,,,,,,,,,,,,,,,,,,,,,,"C,54",001,2022_May_04_1332,ProdSingRedo,3.2.3,59.91550716408479,
33,0,33,0,,,,,,,,,,,,,,,,,,,,,,,,,,,,3089.6287589001004,None,suggestion,silent,yellow,73,314,3087.6234166000504,None,None,3087.6234166000504,None,,,,,,,,,,,,,,,,,,,,,,,,,,,,,,,,,"C,54",001,2022_May_04_1332,ProdSingRedo,3.2.3,59.91550716408479,
34,0,34,0,,,,,,,,,,,,,,,,,,,,,,,,,,,,3092.147911899956,None,expansion,silent,yellow,72,123,3090.1439072999638,None,None,3090.1439072999638,None,,,,,,,,,,,,,,,,,,,,,,,,,,,,,,,,,"C,54",001,2022_May_04_1332,ProdSingRedo,3.2.3,59.91550716408479,
35,0,35,0,,,,,,,,,,,,,,,,,,,,,,,,,,,,3094.667068599956,None,business,silent,yellow,81,38,3092.6576390999835,None,None,3092.6576390999835,None,,,,,,,,,,,,,,,,,,,,,,,,,,,,,,,,,"C,54",001,2022_May_04_1332,ProdSingRedo,3.2.3,59.91550716408479,
36,0,36,0,,,,,,,,,,,,,,,,,,,,,,,,,,,,3097.1863108000252,None,place,silent,yellow,76,222,3095.1830877000466,None,None,3095.1830877000466,None,,,,,,,,,,,,,,,,,,,,,,,,,,,,,,,,,"C,54",001,2022_May_04_1332,ProdSingRedo,3.2.3,59.91550716408479,
37,0,37,0,,,,,,,,,,,,,,,,,,,,,,,,,,,,3099.7054598999675,None,staff,sing,blue,6,301,3097.6980657000095,None,None,3097.6980657000095,None,,,,,,,,,,,,,,,,,,,,,,,,,,,,,,,,,"C,54",001,2022_May_04_1332,ProdSingRedo,3.2.3,59.91550716408479,
38,0,38,0,,,,,,,,,,,,,,,,,,,,,,,,,,,,3102.224604899995,None,gesture,aloud,red,54,137,3100.218416100135,None,None,3100.218416100135,None,,,,,,,,,,,,,,,,,,,,,,,,,,,,,,,,,"C,54",001,2022_May_04_1332,ProdSingRedo,3.2.3,59.91550716408479,
39,0,39,0,,,,,,,,,,,,,,,,,,,,,,,,,,,,3104.743737899931,None,master,silent,yellow,86,180,3102.736045599915,None,None,3102.736045599915,None,,,,,,,,,,,,,,,,,,,,,,,,,,,,,,,,,"C,54",001,2022_May_04_1332,ProdSingRedo,3.2.3,59.91550716408479,
40,0,40,0,,,,,,,,,,,,,,,,,,,,,,,,,,,,3107.262996100122,None,fashion,silent,yellow,67,125,3105.2546399000566,None,None,3105.2546399000566,None,,,,,,,,,,,,,,,,,,,,,,,,,,,,,,,,,"C,54",001,2022_May_04_1332,ProdSingRedo,3.2.3,59.91550716408479,
41,0,41,0,,,,,,,,,,,,,,,,,,,,,,,,,,,,3109.7834187999833,None,tragedy,sing,blue,17,335,3107.7798914001323,None,None,3107.7798914001323,None,,,,,,,,,,,,,,,,,,,,,,,,,,,,,,,,,"C,54",001,2022_May_04_1332,ProdSingRedo,3.2.3,59.91550716408479,
42,0,42,0,,,,,,,,,,,,,,,,,,,,,,,,,,,,3112.3013766999356,None,health,sing,blue,22,149,3110.3038723999634,None,None,3110.3038723999634,None,,,,,,,,,,,,,,,,,,,,,,,,,,,,,,,,,"C,54",001,2022_May_04_1332,ProdSingRedo,3.2.3,59.91550716408479,
43,0,43,0,,,,,,,,,,,,,,,,,,,,,,,,,,,,3114.8205377999693,None,century,silent,yellow,66,45,3112.816480800044,None,None,3112.816480800044,None,,,,,,,,,,,,,,,,,,,,,,,,,,,,,,,,,"C,54",001,2022_May_04_1332,ProdSingRedo,3.2.3,59.91550716408479,
44,0,44,0,,,,,,,,,,,,,,,,,,,,,,,,,,,,3117.339732500026,None,equipment,aloud,red,41,116,3115.337502399925,None,None,3115.337502399925,None,,,,,,,,,,,,,,,,,,,,,,,,,,,,,,,,,"C,54",001,2022_May_04_1332,ProdSingRedo,3.2.3,59.91550716408479,
45,0,45,0,,,,,,,,,,,,,,,,,,,,,,,,,,,,3119.858988699969,None,revolution,aloud,red,52,264,3117.857957900036,None,None,3117.857957900036,None,,,,,,,,,,,,,,,,,,,,,,,,,,,,,,,,,"C,54",001,2022_May_04_1332,ProdSingRedo,3.2.3,59.91550716408479,
46,0,46,0,,,,,,,,,,,,,,,,,,,,,,,,,,,,3122.36138519994,None,tennis,silent,yellow,71,323,3120.35915439995,None,None,3120.35915439995,None,,,,,,,,,,,,,,,,,,,,,,,,,,,,,,,,,"C,54",001,2022_May_04_1332,ProdSingRedo,3.2.3,59.91550716408479,
47,0,47,0,,,,,,,,,,,,,,,,,,,,,,,,,,,,3124.8806020999327,None,problem,aloud,red,32,238,3122.877205000026,None,None,3122.877205000026,None,,,,,,,,,,,,,,,,,,,,,,,,,,,,,,,,,"C,54",001,2022_May_04_1332,ProdSingRedo,3.2.3,59.91550716408479,
48,0,48,0,,,,,,,,,,,,,,,,,,,,,,,,,,,,3127.3997319999617,None,region,aloud,red,42,256,3125.3924474001396,None,None,3125.3924474001396,None,,,,,,,,,,,,,,,,,,,,,,,,,,,,,,,,,"C,54",001,2022_May_04_1332,ProdSingRedo,3.2.3,59.91550716408479,
49,0,49,0,,,,,,,,,,,,,,,,,,,,,,,,,,,,3129.9190744000953,None,audience,aloud,red,44,14,3127.92052350007,None,None,3127.92052350007,None,,,,,,,,,,,,,,,,,,,,,,,,,,,,,,,,,"C,54",001,2022_May_04_1332,ProdSingRedo,3.2.3,59.91550716408479,
50,0,50,0,,,,,,,,,,,,,,,,,,,,,,,,,,,,3132.438164100051,None,enemy,sing,blue,26,113,3130.4299033000134,None,None,3130.4299033000134,None,,,,,,,,,,,,,,,,,,,,,,,,,,,,,,,,,"C,54",001,2022_May_04_1332,ProdSingRedo,3.2.3,59.91550716408479,
51,0,51,0,,,,,,,,,,,,,,,,,,,,,,,,,,,,3134.94065689994,None,stand,sing,blue,9,302,3132.93840679992,None,None,3132.93840679992,None,,,,,,,,,,,,,,,,,,,,,,,,,,,,,,,,,"C,54",001,2022_May_04_1332,ProdSingRedo,3.2.3,59.91550716408479,
52,0,52,0,,,,,,,,,,,,,,,,,,,,,,,,,,,,3137.4598789999727,None,charter,sing,blue,5,47,3135.456554800039,None,None,3135.456554800039,None,,,,,,,,,,,,,,,,,,,,,,,,,,,,,,,,,"C,54",001,2022_May_04_1332,ProdSingRedo,3.2.3,59.91550716408479,
53,0,53,0,,,,,,,,,,,,,,,,,,,,,,,,,,,,3139.9790070001036,None,escape,aloud,red,49,118,3137.9714373000897,None,None,3137.9714373000897,None,,,,,,,,,,,,,,,,,,,,,,,,,,,,,,,,,"C,54",001,2022_May_04_1332,ProdSingRedo,3.2.3,59.91550716408479,
54,0,54,0,,,,,,,,,,,,,,,,,,,,,,,,,,,,3142.4982100999914,None,bicycle,sing,blue,1,21,3140.498847699957,None,None,3140.498847699957,None,,,,,,,,,,,,,,,,,,,,,,,,,,,,,,,,,"C,54",001,2022_May_04_1332,ProdSingRedo,3.2.3,59.91550716408479,
55,0,55,0,,,,,,,,,,,,,,,,,,,,,,,,,,,,3145.017321099993,None,oxygen,sing,blue,13,209,3143.013586499961,None,None,3143.013586499961,None,,,,,,,,,,,,,,,,,,,,,,,,,,,,,,,,,"C,54",001,2022_May_04_1332,ProdSingRedo,3.2.3,59.91550716408479,
56,0,56,0,,,,,,,,,,,,,,,,,,,,,,,,,,,,3147.5365695999935,None,agreement,aloud,red,48,5,3145.52812979999,None,None,3145.52812979999,None,,,,,,,,,,,,,,,,,,,,,,,,,,,,,,,,,"C,54",001,2022_May_04_1332,ProdSingRedo,3.2.3,59.91550716408479,
57,0,57,0,,,,,,,,,,,,,,,,,,,,,,,,,,,,3150.0557387999725,None,curve,silent,yellow,89,82,3148.059914600104,None,None,3148.059914600104,None,,,,,,,,,,,,,,,,,,,,,,,,,,,,,,,,,"C,54",001,2022_May_04_1332,ProdSingRedo,3.2.3,59.91550716408479,
58,0,58,0,,,,,,,,,,,,,,,,,,,,,,,,,,,,3152.574661300052,None,session,silent,yellow,87,281,3150.5639009999577,None,None,3150.5639009999577,None,,,,,,,,,,,,,,,,,,,,,,,,,,,,,,,,,"C,54",001,2022_May_04_1332,ProdSingRedo,3.2.3,59.91550716408479,
59,0,59,0,,,,,,,,,,,,,,,,,,,,,,,,,,,,3155.077310499968,None,company,aloud,red,55,64,3153.0751306000166,None,None,3153.0751306000166,None,,,,,,,,,,,,,,,,,,,,,,,,,,,,,,,,,"C,54",001,2022_May_04_1332,ProdSingRedo,3.2.3,59.91550716408479,
60,0,60,0,,,,,,,,,,,,,,,,,,,,,,,,,,,,3157.5794713001233,None,column,silent,yellow,61,57,3155.5775053000543,None,None,3155.5775053000543,None,,,,,,,,,,,,,,,,,,,,,,,,,,,,,,,,,"C,54",001,2022_May_04_1332,ProdSingRedo,3.2.3,59.91550716408479,
61,0,61,0,,,,,,,,,,,,,,,,,,,,,,,,,,,,3160.081978800008,None,discovery,silent,yellow,62,95,3158.0800221001264,None,None,3158.0800221001264,None,,,,,,,,,,,,,,,,,,,,,,,,,,,,,,,,,"C,54",001,2022_May_04_1332,ProdSingRedo,3.2.3,59.91550716408479,
62,0,62,0,,,,,,,,,,,,,,,,,,,,,,,,,,,,3162.585148999933,None,number,sing,blue,27,203,3160.582502000034,None,None,3160.582502000034,None,,,,,,,,,,,,,,,,,,,,,,,,,,,,,,,,,"C,54",001,2022_May_04_1332,ProdSingRedo,3.2.3,59.91550716408479,
63,0,63,0,,,,,,,,,,,,,,,,,,,,,,,,,,,,3165.0870477000717,None,portion,sing,blue,15,228,3163.084993599914,None,None,3163.084993599914,None,,,,,,,,,,,,,,,,,,,,,,,,,,,,,,,,,"C,54",001,2022_May_04_1332,ProdSingRedo,3.2.3,59.91550716408479,
64,0,64,0,,,,,,,,,,,,,,,,,,,,,,,,,,,,3167.589668300003,None,finish,aloud,red,40,130,3165.5875407999847,None,None,3165.5875407999847,None,,,,,,,,,,,,,,,,,,,,,,,,,,,,,,,,,"C,54",001,2022_May_04_1332,ProdSingRedo,3.2.3,59.91550716408479,
65,0,65,0,,,,,,,,,,,,,,,,,,,,,,,,,,,,3170.0920925000682,None,benefit,silent,yellow,82,20,3168.0901637000497,None,None,3168.0901637000497,None,,,,,,,,,,,,,,,,,,,,,,,,,,,,,,,,,"C,54",001,2022_May_04_1332,ProdSingRedo,3.2.3,59.91550716408479,
66,0,66,0,,,,,,,,,,,,,,,,,,,,,,,,,,,,3172.6111705000512,None,guard,sing,blue,28,145,3170.603330400074,None,None,3170.603330400074,None,,,,,,,,,,,,,,,,,,,,,,,,,,,,,,,,,"C,54",001,2022_May_04_1332,ProdSingRedo,3.2.3,59.91550716408479,
67,0,67,0,,,,,,,,,,,,,,,,,,,,,,,,,,,,3175.1307580999564,None,swift,silent,yellow,69,320,3173.1285455999896,None,None,3173.1285455999896,None,,,,,,,,,,,,,,,,,,,,,,,,,,,,,,,,,"C,54",001,2022_May_04_1332,ProdSingRedo,3.2.3,59.91550716408479,
68,0,68,0,,,,,,,,,,,,,,,,,,,,,,,,,,,,3177.6499813001137,None,partner,aloud,red,45,211,3175.642418799922,None,None,3175.642418799922,None,,,,,,,,,,,,,,,,,,,,,,,,,,,,,,,,,"C,54",001,2022_May_04_1332,ProdSingRedo,3.2.3,59.91550716408479,
69,0,69,0,,,,,,,,,,,,,,,,,,,,,,,,,,,,3180.1690322000068,None,level,sing,blue,20,170,3178.1649108000565,None,None,3178.1649108000565,None,,,,,,,,,,,,,,,,,,,,,,,,,,,,,,,,,"C,54",001,2022_May_04_1332,ProdSingRedo,3.2.3,59.91550716408479,
70,0,70,0,,,,,,,,,,,,,,,,,,,,,,,,,,,,3182.6883723000064,None,chief,aloud,red,59,48,3180.6779116999824,None,None,3180.6779116999824,None,,,,,,,,,,,,,,,,,,,,,,,,,,,,,,,,,"C,54",001,2022_May_04_1332,ProdSingRedo,3.2.3,59.91550716408479,
71,0,71,0,,,,,,,,,,,,,,,,,,,,,,,,,,,,3185.2073522999417,None,force,sing,blue,25,131,3183.1982176001184,None,None,3183.1982176001184,None,,,,,,,,,,,,,,,,,,,,,,,,,,,,,,,,,"C,54",001,2022_May_04_1332,ProdSingRedo,3.2.3,59.91550716408479,
72,0,72,0,,,,,,,,,,,,,,,,,,,,,,,,,,,,3187.7266794999596,None,build,sing,blue,2,35,3185.71603520005,None,None,3185.71603520005,None,,,,,,,,,,,,,,,,,,,,,,,,,,,,,,,,,"C,54",001,2022_May_04_1332,ProdSingRedo,3.2.3,59.91550716408479,
73,0,73,0,,,,,,,,,,,,,,,,,,,,,,,,,,,,3190.2459185000043,None,space,sing,blue,4,297,3188.239328800002,None,None,3188.239328800002,None,,,,,,,,,,,,,,,,,,,,,,,,,,,,,,,,,"C,54",001,2022_May_04_1332,ProdSingRedo,3.2.3,59.91550716408479,
74,0,74,0,,,,,,,,,,,,,,,,,,,,,,,,,,,,3192.765184100019,None,drove,sing,blue,19,106,3190.7568451000843,None,None,3190.7568451000843,None,,,,,,,,,,,,,,,,,,,,,,,,,,,,,,,,,"C,54",001,2022_May_04_1332,ProdSingRedo,3.2.3,59.91550716408479,
75,0,75,0,,,,,,,,,,,,,,,,,,,,,,,,,,,,3195.284178199945,None,detective,aloud,red,58,92,3193.276834400138,None,None,3193.276834400138,None,,,,,,,,,,,,,,,,,,,,,,,,,,,,,,,,,"C,54",001,2022_May_04_1332,ProdSingRedo,3.2.3,59.91550716408479,
76,0,76,0,,,,,,,,,,,,,,,,,,,,,,,,,,,,3197.8033044999465,None,volume,silent,yellow,79,349,3195.800428299932,None,None,3195.800428299932,None,,,,,,,,,,,,,,,,,,,,,,,,,,,,,,,,,"C,54",001,2022_May_04_1332,ProdSingRedo,3.2.3,59.91550716408479,
77,0,77,0,,,,,,,,,,,,,,,,,,,,,,,,,,,,3200.3225841000676,None,member,aloud,red,36,188,3198.315436300123,None,None,3198.315436300123,None,,,,,,,,,,,,,,,,,,,,,,,,,,,,,,,,,"C,54",001,2022_May_04_1332,ProdSingRedo,3.2.3,59.91550716408479,
78,0,78,0,,,,,,,,,,,,,,,,,,,,,,,,,,,,3202.841799699934,None,committee,aloud,red,56,62,3200.831024300074,None,None,3200.831024300074,None,,,,,,,,,,,,,,,,,,,,,,,,,,,,,,,,,"C,54",001,2022_May_04_1332,ProdSingRedo,3.2.3,59.91550716408479,
79,0,79,0,,,,,,,,,,,,,,,,,,,,,,,,,,,,3205.360969600035,None,native,silent,yellow,77,199,3203.3560965999495,None,None,3203.3560965999495,None,,,,,,,,,,,,,,,,,,,,,,,,,,,,,,,,,"C,54",001,2022_May_04_1332,ProdSingRedo,3.2.3,59.91550716408479,
80,0,80,0,,,,,,,,,,,,,,,,,,,,,,,,,,,,3207.8801456000656,None,phrase,silent,yellow,83,220,3205.8729256999213,None,None,3205.8729256999213,None,,,,,,,,,,,,,,,,,,,,,,,,,,,,,,,,,"C,54",001,2022_May_04_1332,ProdSingRedo,3.2.3,59.91550716408479,
81,0,81,0,,,,,,,,,,,,,,,,,,,,,,,,,,,,3210.399326800136,None,narrow,sing,blue,29,197,3208.3920336000156,None,None,3208.3920336000156,None,,,,,,,,,,,,,,,,,,,,,,,,,,,,,,,,,"C,54",001,2022_May_04_1332,ProdSingRedo,3.2.3,59.91550716408479,
82,0,82,0,,,,,,,,,,,,,,,,,,,,,,,,,,,,3212.918512500124,None,position,sing,blue,11,229,3210.9099109000526,None,None,3210.9099109000526,None,,,,,,,,,,,,,,,,,,,,,,,,,,,,,,,,,"C,54",001,2022_May_04_1332,ProdSingRedo,3.2.3,59.91550716408479,
83,0,83,0,,,,,,,,,,,,,,,,,,,,,,,,,,,,3215.437770300079,None,light,aloud,red,46,171,3213.4313499000855,None,None,3213.4313499000855,None,,,,,,,,,,,,,,,,,,,,,,,,,,,,,,,,,"C,54",001,2022_May_04_1332,ProdSingRedo,3.2.3,59.91550716408479,
84,0,84,0,,,,,,,,,,,,,,,,,,,,,,,,,,,,3217.956852900097,None,trend,silent,yellow,74,340,3215.9460682999343,None,None,3215.9460682999343,None,,,,,,,,,,,,,,,,,,,,,,,,,,,,,,,,,"C,54",001,2022_May_04_1332,ProdSingRedo,3.2.3,59.91550716408479,
85,0,85,0,,,,,,,,,,,,,,,,,,,,,,,,,,,,3220.4760940000415,None,group,aloud,red,50,143,3218.470740400022,None,None,3218.470740400022,None,,,,,,,,,,,,,,,,,,,,,,,,,,,,,,,,,"C,54",001,2022_May_04_1332,ProdSingRedo,3.2.3,59.91550716408479,
86,0,86,0,,,,,,,,,,,,,,,,,,,,,,,,,,,,3222.9785065001342,None,short,aloud,red,57,285,3220.9763353001326,None,None,3220.9763353001326,None,,,,,,,,,,,,,,,,,,,,,,,,,,,,,,,,,"C,54",001,2022_May_04_1332,ProdSingRedo,3.2.3,59.91550716408479,
87,0,87,0,,,,,,,,,,,,,,,,,,,,,,,,,,,,3225.4977474999614,None,capital,sing,blue,7,40,3223.494365999941,None,None,3223.494365999941,None,,,,,,,,,,,,,,,,,,,,,,,,,,,,,,,,,"C,54",001,2022_May_04_1332,ProdSingRedo,3.2.3,59.91550716408479,
88,0,88,0,,,,,,,,,,,,,,,,,,,,,,,,,,,,3228.016917299945,None,answer,silent,yellow,65,8,3226.0119648999535,None,None,3226.0119648999535,None,,,,,,,,,,,,,,,,,,,,,,,,,,,,,,,,,"C,54",001,2022_May_04_1332,ProdSingRedo,3.2.3,59.91550716408479,
89,0,89,0,,,,,,,,,,,,,,,,,,,,,,,,,,,,3230.5361315000337,None,platform,aloud,red,47,224,3228.5336406000424,None,None,3228.5336406000424,None,,,,,,,,,,,,,,,,,,,,,,,,,,,,,,,,,"C,54",001,2022_May_04_1332,ProdSingRedo,3.2.3,59.91550716408479,
,,,,,,,,,,,,,,,,,,,,,,,,,,,,,,,,,,,,,,,,,,,3231.0367630999535,None,k,131.33233319991268,3231.0367630999535,None,,,,,,,,,,,,,,,,,,,,,,,,,,,"C,54",001,2022_May_04_1332,ProdSingRedo,3.2.3,59.91550716408479,
,,,,0,0,0,0,,,,,,,,,,,,,,,,,,,,,,,,3372.1993692000397,None,,,,,,,,,,,,,,,,,property,new_sing,blue,0,119,242,3362.9049951999914,None,3362.9049951999914,None,1,2.9522454999387264,3362.9049951999914,None,3365.913487999933,None,3366.433174200123,None,3366.433174200123,None,n,5.7439376001711935,3366.433174200123,None,,,"C,54",001,2022_May_04_1332,ProdSingRedo,3.2.3,59.91550716408479,
,,,,1,0,1,0,,,,,,,,,,,,,,,,,,,,,,,,3380.2099850999657,None,,,,,,,,,,,,,,,,,bicycle,sing,blue,1,1,21,3372.731637200108,None,3372.731637200108,None,5,5.165661999955773,3372.731637200108,None,3377.944623999996,None,3378.462856600061,None,3378.462856600061,None,f,1.7143067000433803,3378.462856600061,None,,,"C,54",001,2022_May_04_1332,ProdSingRedo,3.2.3,59.91550716408479,
,,,,2,0,2,0,,,,,,,,,,,,,,,,,,,,,,,,3386.717003500089,None,,,,,,,,,,,,,,,,,column,silent,yellow,2,61,57,3380.739194100024,None,3380.739194100024,None,6,4.1661141000222415,3380.739194100024,None,3384.9475539000705,None,3385.471984999953,None,3385.471984999953,None,r,1.2170942001976073,3385.471984999953,None,,,"C,54",001,2022_May_04_1332,ProdSingRedo,3.2.3,59.91550716408479,
,,,,3,0,3,0,,,,,,,,,,,,,,,,,,,,,,,,3393.2383574999403,None,,,,,,,,,,,,,,,,,touch,sing,blue,3,21,332,3387.2422690000385,None,3387.2422690000385,None,1,3.910862699849531,3387.2422690000385,None,3391.1993527000304,None,3391.724497300107,None,3391.724497300107,None,n,1.492467800155282,3391.724497300107,None,,,"C,54",001,2022_May_04_1332,ProdSingRedo,3.2.3,59.91550716408479,
,,,,4,0,4,0,,,,,,,,,,,,,,,,,,,,,,,,3399.1541597000323,None,,,,,,,,,,,,,,,,,volume,silent,yellow,4,79,349,3393.7661717999727,None,3393.7661717999727,None,6,3.778985699871555,3393.7661717999727,None,3397.5969017001335,None,3398.103144600056,None,3398.103144600056,None,f,1.0336269000545144,3398.103144600056,None,,,"C,54",001,2022_May_04_1332,ProdSingRedo,3.2.3,59.91550716408479,
,,,,5,0,5,0,,,,,,,,,,,,,,,,,,,,,,,,3412.359985999996,None,,,,,,,,,,,,,,,,,beginning,new_silent,yellow,5,154,19,3399.6743171000853,None,3399.6743171000853,None,3,8.894569600000978,3399.6743171000853,None,3408.6077115000226,None,3409.127414900111,None,3409.127414900111,None,n,3.193879999918863,3409.127414900111,None,,,"C,54",001,2022_May_04_1332,ProdSingRedo,3.2.3,59.91550716408479,
,,,,6,0,6,0,,,,,,,,,,,,,,,,,,,,,,,,3417.3798666000366,None,,,,,,,,,,,,,,,,,testimony,new_aloud,red,6,139,325,3412.883554100059,None,3412.883554100059,None,1,3.5976503998972476,3412.883554100059,None,3416.5283264999744,None,3417.0482354999986,None,3417.0482354999986,None,n,0.29685459984466434,3417.0482354999986,None,,,"C,54",001,2022_May_04_1332,ProdSingRedo,3.2.3,59.91550716408479,
,,,,7,0,7,0,,,,,,,,,,,,,,,,,,,,,,,,3424.803763099946,None,,,,,,,,,,,,,,,,,foundation,new_sing,blue,7,118,132,3417.9128084999975,None,3417.9128084999975,None,4,5.216646899934858,3417.9128084999975,None,3423.168607800035,None,3423.7068302000407,None,3423.7068302000407,None,r,1.0623679999262094,3423.7068302000407,None,,,"C,54",001,2022_May_04_1332,ProdSingRedo,3.2.3,59.91550716408479,
,,,,8,0,8,0,,,,,,,,,,,,,,,,,,,,,,,,3429.2174647001084,None,,,,,,,,,,,,,,,,,dream,new_sing,blue,8,94,104,3425.3317635999992,None,3425.3317635999992,None,1,1.5332476000767201,3425.3317635999992,None,3426.904649700038,None,3427.4246958000585,None,3427.4246958000585,None,n,1.7760026000905782,3427.4246958000585,None,,,"C,54",001,2022_May_04_1332,ProdSingRedo,3.2.3,59.91550716408479,
,,,,9,0,9,0,,,,,,,,,,,,,,,,,,,,,,,,3433.0170760001056,None,,,,,,,,,,,,,,,,,subject,new_sing,blue,9,96,312,3429.742535300087,None,3429.742535300087,None,1,2.434651599964127,3429.742535300087,None,3432.2267847999465,None,3432.7536492999643,None,3432.7536492999643,None,n,0.22344069997780025,3432.7536492999643,None,,,"C,54",001,2022_May_04_1332,ProdSingRedo,3.2.3,59.91550716408479,
,,,,10,0,10,0,,,,,,,,,,,,,,,,,,,,,,,,3441.24024630012,None,,,,,,,,,,,,,,,,,disease,new_silent,yellow,10,158,97,3433.5406097001396,None,3433.5406097001396,None,3,5.916531699942425,3433.5406097001396,None,3439.5022889999673,None,3440.02286310005,None,3440.02286310005,None,n,1.1861680999863893,3440.02286310005,None,,,"C,54",001,2022_May_04_1332,ProdSingRedo,3.2.3,59.91550716408479,
,,,,11,0,11,0,,,,,,,,,,,,,,,,,,,,,,,,3448.628251099959,None,,,,,,,,,,,,,,,,,dispute,new_aloud,red,11,144,99,3441.7678295001388,None,3441.7678295001388,None,1,4.2652644999325275,3441.7678295001388,None,3446.075654400047,None,3446.5953838001005,None,3446.5953838001005,None,n,2.0057105999439955,3446.5953838001005,None,,,"C,54",001,2022_May_04_1332,ProdSingRedo,3.2.3,59.91550716408479,
,,,,12,0,12,0,,,,,,,,,,,,,,,,,,,,,,,,3453.4153118999675,None,,,,,,,,,,,,,,,,,history,aloud,red,12,35,153,3449.151453099912,None,3449.151453099912,None,1,3.6578242001123726,3449.151453099912,None,3452.8426513001323,None,3453.3541075999383,None,3453.3541075999383,None,n,0.039186100009828806,3453.3541075999383,None,,,"C,54",001,2022_May_04_1332,ProdSingRedo,3.2.3,59.91550716408479,
,,,,13,0,13,0,,,,,,,,,,,,,,,,,,,,,,,,3455.986361599993,None,,,,,,,,,,,,,,,,,engineer,new_aloud,red,13,137,114,3453.9453022999223,None,3453.9453022999223,None,1,0.927992400014773,3453.9453022999223,None,3454.9183724999893,None,3455.4396899000276,None,3455.4396899000276,None,n,0.5213836000766605,3455.4396899000276,None,,,"C,54",001,2022_May_04_1332,ProdSingRedo,3.2.3,59.91550716408479,
,,,,14,0,14,0,,,,,,,,,,,,,,,,,,,,,,,,3463.86007960001,None,,,,,,,,,,,,,,,,,treatment,new_sing,blue,14,91,339,3456.512265200028,None,3456.512265200028,None,5,5.8886905000545084,3456.512265200028,None,3462.4425906001125,None,3462.9626807000022,None,3462.9626807000022,None,f,0.8704015999101102,3462.9626807000022,None,,,"C,54",001,2022_May_04_1332,ProdSingRedo,3.2.3,59.91550716408479,
,,,,15,0,15,0,,,,,,,,,,,,,,,,,,,,,,,,3469.7817337999586,None,,,,,,,,,,,,,,,,,watch,new_aloud,red,15,125,351,3464.3848490000237,None,3464.3848490000237,None,1,4.680486400146037,3464.3848490000237,None,3469.1117648999207,None,3469.6331040000077,None,3469.6331040000077,None,n,0.11196709983050823,3469.6331040000077,None,,,"C,54",001,2022_May_04_1332,ProdSingRedo,3.2.3,59.91550716408479,
,,,,16,0,16,0,,,,,,,,,,,,,,,,,,,,,,,,3475.8554207000416,None,,,,,,,,,,,,,,,,,period,sing,blue,16,24,217,3470.3047060000245,None,3470.3047060000245,None,6,4.280482399975881,3470.3047060000245,None,3474.6320172999986,None,3475.153671799926,None,3475.153671799926,None,r,0.6793633999768645,3475.153671799926,None,,,"C,54",001,2022_May_04_1332,ProdSingRedo,3.2.3,59.91550716408479,
,,,,17,0,17,0,,,,,,,,,,,,,,,,,,,,,,,,3487.5495784999803,None,,,,,,,,,,,,,,,,,career,new_aloud,red,17,131,42,3476.3811214000452,None,3476.3811214000452,None,2,10.012160199927166,3476.3811214000452,None,3486.434294699924,None,3486.954855900025,None,3486.954855900025,None,n,0.5661418000236154,3486.954855900025,None,,,"C,54",001,2022_May_04_1332,ProdSingRedo,3.2.3,59.91550716408479,
,,,,18,0,18,0,,,,,,,,,,,,,,,,,,,,,,,,3496.610543699935,None,,,,,,,,,,,,,,,,,fight,sing,blue,18,18,127,3488.081097899936,None,3488.081097899936,None,6,7.063758000032976,3488.081097899936,None,3495.176980300108,None,3495.6940085000824,None,3495.6940085000824,None,r,0.8831521000247449,3495.6940085000824,None,,,"C,54",001,2022_May_04_1332,ProdSingRedo,3.2.3,59.91550716408479,
,,,,19,0,19,0,,,,,,,,,,,,,,,,,,,,,,,,3503.5968849000055,None,,,,,,,,,,,,,,,,,broad,silent,yellow,19,60,31,3497.137562399963,None,3497.137562399963,None,4,4.527383700013161,3497.137562399963,None,3501.7085198001005,None,3502.2369170999154,None,3502.2369170999154,None,f,1.3321305001154542,3502.2369170999154,None,,,"C,54",001,2022_May_04_1332,ProdSingRedo,3.2.3,59.91550716408479,
,,,,20,0,20,0,,,,,,,,,,,,,,,,,,,,,,,,3506.317747000139,None,,,,,,,,,,,,,,,,,novel,new_silent,yellow,20,173,202,3504.119352800073,None,3504.119352800073,None,1,1.4094900998752564,3504.119352800073,None,3505.552685700124,None,3506.072474000044,None,3506.072474000044,None,n,0.20858310000039637,3506.072474000044,None,,,"C,54",001,2022_May_04_1332,ProdSingRedo,3.2.3,59.91550716408479,
,,,,21,0,21,0,,,,,,,,,,,,,,,,,,,,,,,,3511.2996714001056,None,,,,,,,,,,,,,,,,,trial,new_sing,blue,21,106,341,3506.8454040000215,None,3506.8454040000215,None,2,3.8354944000020623,3506.8454040000215,None,3510.7225623999257,None,3511.2431983000133,None,3511.2431983000133,None,n,0.03777950000949204,3511.2431983000133,None,,,"C,54",001,2022_May_04_1332,ProdSingRedo,3.2.3,59.91550716408479,
,,,,22,0,22,0,,,,,,,,,,,,,,,,,,,,,,,,3515.2269699999597,None,,,,,,,,,,,,,,,,,private,new_aloud,red,22,136,237,3511.816399600124,None,3511.816399600124,None,1,2.36061739991419,3511.816399600124,None,3514.220841499977,None,3514.7379278999288,None,3514.7379278999288,None,n,0.4630790001247078,3514.7379278999288,None,,,"C,54",001,2022_May_04_1332,ProdSingRedo,3.2.3,59.91550716408479,
,,,,23,0,23,0,,,,,,,,,,,,,,,,,,,,,,,,3519.290877799969,None,,,,,,,,,,,,,,,,,chief,aloud,red,23,59,48,3515.7466450000647,None,3515.7466450000647,None,6,2.550610499922186,3515.7466450000647,None,3518.365635300055,None,3518.8738601000514,None,3518.8738601000514,None,r,0.3988787999842316,3518.8738601000514,None,,,"C,54",001,2022_May_04_1332,ProdSingRedo,3.2.3,59.91550716408479,
,,,,24,0,24,0,,,,,,,,,,,,,,,,,,,,,,,,3525.2074639999773,None,,,,,,,,,,,,,,,,,brilliant,silent,yellow,24,85,30,3519.812666800106,None,3519.812666800106,None,6,4.516346100019291,3519.812666800106,None,3524.368600399932,None,3524.893172000069,None,3524.893172000069,None,r,0.2838820000179112,3524.893172000069,None,,,"C,54",001,2022_May_04_1332,ProdSingRedo,3.2.3,59.91550716408479,
,,,,25,0,25,0,,,,,,,,,,,,,,,,,,,,,,,,3528.874237500131,None,,,,,,,,,,,,,,,,,interview,new_silent,yellow,25,162,165,3525.734726200113,None,3525.734726200113,None,4,1.698508400004357,3525.734726200113,None,3527.4744867000263,None,3527.9810143001378,None,3527.9810143001378,None,f,0.8604542000684887,3527.9810143001378,None,,,"C,54",001,2022_May_04_1332,ProdSingRedo,3.2.3,59.91550716408479,
,,,,26,0,26,0,,,,,,,,,,,,,,,,,,,,,,,,3536.5891617001034,None,,,,,,,,,,,,,,,,,smell,sing,blue,26,0,291,3529.399293900002,None,3529.399293900002,None,6,5.5615071000065655,3529.399293900002,None,3535.0050784000196,None,3535.513034499949,None,3535.513034499949,None,r,1.0399903999641538,3535.513034499949,None,,,"C,54",001,2022_May_04_1332,ProdSingRedo,3.2.3,59.91550716408479,
,,,,27,0,27,0,,,,,,,,,,,,,,,,,,,,,,,,3541.2221715000924,None,,,,,,,,,,,,,,,,,session,silent,yellow,27,87,281,3537.1077763000503,None,3537.1077763000503,None,3,3.0216087999287993,3537.1077763000503,None,3540.1641512999777,None,3540.6872404001188,None,3540.6872404001188,None,n,0.5060622999444604,3540.6872404001188,None,,,"C,54",001,2022_May_04_1332,ProdSingRedo,3.2.3,59.91550716408479,
,,,,28,0,28,0,,,,,,,,,,,,,,,,,,,,,,,,3548.1264426000416,None,,,,,,,,,,,,,,,,,captain,new_aloud,red,28,124,41,3541.7369476999156,None,3541.7369476999156,None,4,3.5599497000221163,3541.7369476999156,None,3545.330352900084,None,3545.8455604000483,None,3545.8455604000483,None,f,2.2434979998506606,3545.8455604000483,None,,,"C,54",001,2022_May_04_1332,ProdSingRedo,3.2.3,59.91550716408479,
,,,,29,0,29,0,,,,,,,,,,,,,,,,,,,,,,,,3550.779304899974,None,,,,,,,,,,,,,,,,,length,new_aloud,red,29,126,169,3548.641609800048,None,3548.641609800048,None,1,1.3273663001600653,3548.641609800048,None,3550.0070394999348,None,3550.51692850003,None,3550.51692850003,None,n,0.22812900017015636,3550.51692850003,None,,,"C,54",001,2022_May_04_1332,ProdSingRedo,3.2.3,59.91550716408479,
,,,,30,0,30,0,,,,,,,,,,,,,,,,,,,,,,,,3553.9623450001236,None,,,,,,,,,,,,,,,,,weight,aloud,red,30,31,353,3551.3092972000595,None,3551.3092972000595,None,6,1.772045100107789,3551.3092972000595,None,3553.1305923999753,None,3553.656687299954,None,3553.656687299954,None,r,0.2646476000081748,3553.656687299954,None,,,"C,54",001,2022_May_04_1332,ProdSingRedo,3.2.3,59.91550716408479,
,,,,31,0,31,0,,,,,,,,,,,,,,,,,,,,,,,,3557.5358202999923,None,,,,,,,,,,,,,,,,,thing,new_sing,blue,31,112,328,3554.4893215999473,None,3554.4893215999473,None,1,2.3677191000897437,3554.4893215999473,None,3556.8980126001406,None,3557.4031754001044,None,3557.4031754001044,None,n,0.10186480008997023,3557.4031754001044,None,,,"C,54",001,2022_May_04_1332,ProdSingRedo,3.2.3,59.91550716408479,
,,,,32,0,32,0,,,,,,,,,,,,,,,,,,,,,,,,3564.5790421001147,None,,,,,,,,,,,,,,,,,agreement,aloud,red,32,48,5,3558.0640406000894,None,3558.0640406000894,None,4,4.817114199977368,3558.0640406000894,None,3562.9254580000415,None,3563.445464000106,None,3563.445464000106,None,f,1.0996914999559522,3563.445464000106,None,,,"C,54",001,2022_May_04_1332,ProdSingRedo,3.2.3,59.91550716408479,
,,,,33,0,33,0,,,,,,,,,,,,,,,,,,,,,,,,3567.166632400127,None,,,,,,,,,,,,,,,,,short,aloud,red,33,57,285,3565.098687000107,None,3565.098687000107,None,1,1.4066469999961555,3565.098687000107,None,3566.5410432000645,None,3567.06100649992,None,3567.06100649992,None,n,0.07605520007200539,3567.06100649992,None,,,"C,54",001,2022_May_04_1332,ProdSingRedo,3.2.3,59.91550716408479,
,,,,34,0,34,0,,,,,,,,,,,,,,,,,,,,,,,,3573.0023908999283,None,,,,,,,,,,,,,,,,,speech,sing,blue,34,3,298,3567.687620300101,None,3567.687620300101,None,1,4.185378700029105,3567.687620300101,None,3571.9124783000443,None,3572.4344377000816,None,3572.4344377000816,None,n,0.542624199995771,3572.4344377000816,None,,,"C,54",001,2022_May_04_1332,ProdSingRedo,3.2.3,59.91550716408479,
,,,,35,0,35,0,,,,,,,,,,,,,,,,,,,,,,,,3575.4365588999353,None,,,,,,,,,,,,,,,,,government,new_aloud,red,35,123,139,3573.530488900142,None,3573.530488900142,None,1,1.230871699983254,3573.530488900142,None,3574.8085101000033,None,3575.3269967001397,None,3575.3269967001397,None,n,0.0740062000695616,3575.3269967001397,None,,,"C,54",001,2022_May_04_1332,ProdSingRedo,3.2.3,59.91550716408479,
,,,,36,0,36,0,,,,,,,,,,,,,,,,,,,,,,,,3579.874768800102,None,,,,,,,,,,,,,,,,,business,silent,yellow,36,81,38,3575.958702800097,None,3575.958702800097,None,3,2.1382780000567436,3575.958702800097,None,3578.1312347999774,None,3578.63341749995,None,3578.63341749995,None,n,1.2076355000026524,3578.63341749995,None,,,"C,54",001,2022_May_04_1332,ProdSingRedo,3.2.3,59.91550716408479,
,,,,37,0,37,0,,,,,,,,,,,,,,,,,,,,,,,,3586.7515197000466,None,,,,,,,,,,,,,,,,,heavy,sing,blue,37,16,151,3580.405724900076,None,3580.405724900076,None,1,5.29139110003598,3580.405724900076,None,3585.7444468000904,None,3586.27006349992,None,3586.27006349992,None,n,0.4430547999218106,3586.27006349992,None,,,"C,54",001,2022_May_04_1332,ProdSingRedo,3.2.3,59.91550716408479,
,,,,38,0,38,0,,,,,,,,,,,,,,,,,,,,,,,,3593.8899862000253,None,,,,,,,,,,,,,,,,,finish,aloud,red,38,40,130,3587.276935599977,None,3587.276935599977,None,4,5.788188300095499,3587.276935599977,None,3593.102960600052,None,3593.6240419000387,None,3593.6240419000387,None,f,0.24101599981077015,3593.6240419000387,None,,,"C,54",001,2022_May_04_1332,ProdSingRedo,3.2.3,59.91550716408479,
,,,,39,0,39,0,,,,,,,,,,,,,,,,,,,,,,,,3597.643995099934,None,,,,,,,,,,,,,,,,,number,sing,blue,39,27,203,3594.420730000129,None,3594.420730000129,None,1,2.580307199852541,3594.420730000129,None,3597.043695300119,None,3597.5660856999457,None,3597.5660856999457,None,n,0.05097050010226667,3597.5660856999457,None,,,"C,54",001,2022_May_04_1332,ProdSingRedo,3.2.3,59.91550716408479,
,,,,40,0,40,0,,,,,,,,,,,,,,,,,,,,,,,,3600.1940403000917,None,,,,,,,,,,,,,,,,,relation,new_sing,blue,40,107,257,3598.171741500031,None,3598.171741500031,None,1,1.0212572000455111,3598.171741500031,None,3599.2402481001336,None,3599.7678801999427,None,3599.7678801999427,None,n,0.3932962999679148,3599.7678801999427,None,,,"C,54",001,2022_May_04_1332,ProdSingRedo,3.2.3,59.91550716408479,
,,,,41,0,41,0,,,,,,,,,,,,,,,,,,,,,,,,3605.16960439994,None,,,,,,,,,,,,,,,,,company,aloud,red,41,55,64,3600.7268050001003,None,3600.7268050001003,None,5,3.4340065999422222,3600.7268050001003,None,3604.176924499916,None,3604.6793144999538,None,3604.6793144999538,None,f,0.4497613999992609,3604.6793144999538,None,,,"C,54",001,2022_May_04_1332,ProdSingRedo,3.2.3,59.91550716408479,
,,,,42,0,42,0,,,,,,,,,,,,,,,,,,,,,,,,3611.5433154001366,None,,,,,,,,,,,,,,,,,individual,new_aloud,red,42,138,160,3605.695520099951,None,3605.695520099951,None,1,5.105547700077295,3605.695520099951,None,3610.843693099916,None,3611.3686212999746,None,3611.3686212999746,None,n,0.1443870000075549,3611.3686212999746,None,,,"C,54",001,2022_May_04_1332,ProdSingRedo,3.2.3,59.91550716408479,
,,,,43,0,43,0,,,,,,,,,,,,,,,,,,,,,,,,3615.7459647001233,None,,,,,,,,,,,,,,,,,close,silent,yellow,43,88,53,3612.06214309996,None,3612.06214309996,None,4,2.7870147998910397,3612.06214309996,None,3614.8980255001225,None,3615.4110962999985,None,3615.4110962999985,None,f,0.3019772998522967,3615.4110962999985,None,,,"C,54",001,2022_May_04_1332,ProdSingRedo,3.2.3,59.91550716408479,
,,,,44,0,44,0,,,,,,,,,,,,,,,,,,,,,,,,3620.1724300999194,None,,,,,,,,,,,,,,,,,birth,aloud,red,44,38,22,3616.2703307999764,None,3616.2703307999764,None,1,3.2592545999214053,3616.2703307999764,None,3619.5798812999856,None,3620.0991879000794,None,3620.0991879000794,None,n,0.037741800071671605,3620.0991879000794,None,,,"C,54",001,2022_May_04_1332,ProdSingRedo,3.2.3,59.91550716408479,
,,,,45,0,45,0,,,,,,,,,,,,,,,,,,,,,,,,3623.1194887999445,None,,,,,,,,,,,,,,,,,detective,aloud,red,45,58,92,3620.693849500036,None,3620.693849500036,None,6,1.5632652000058442,3620.693849500036,None,3622.3024939000607,None,3622.8180398000404,None,3622.8180398000404,None,r,0.2710593999363482,3622.8180398000404,None,,,"C,54",001,2022_May_04_1332,ProdSingRedo,3.2.3,59.91550716408479,
,,,,46,0,46,0,,,,,,,,,,,,,,,,,,,,,,,,3627.4903458000626,None,,,,,,,,,,,,,,,,,present,new_sing,blue,46,92,231,3623.645064699929,None,3623.645064699929,None,6,3.0758692000526935,3623.645064699929,None,3626.766521200072,None,3627.273440500023,None,3627.273440500023,None,r,0.18359329993836582,3627.273440500023,None,,,"C,54",001,2022_May_04_1332,ProdSingRedo,3.2.3,59.91550716408479,
,,,,47,0,47,0,,,,,,,,,,,,,,,,,,,,,,,,3631.3438579000067,None,,,,,,,,,,,,,,,,,narrow,sing,blue,47,29,197,3628.0196966000367,None,3628.0196966000367,None,5,2.381377700017765,3628.0196966000367,None,3630.438600100111,None,3630.963048500009,None,3630.963048500009,None,f,0.3578929000068456,3630.963048500009,None,,,"C,54",001,2022_May_04_1332,ProdSingRedo,3.2.3,59.91550716408479,
,,,,48,0,48,0,,,,,,,,,,,,,,,,,,,,,,,,3644.407452699961,None,,,,,,,,,,,,,,,,,search,new_aloud,red,48,140,276,3631.872920599999,None,3631.872920599999,None,4,11.696064200019464,3631.872920599999,None,3643.62220610003,None,3644.143078000052,None,3644.143078000052,None,f,0.22590390010736883,3644.143078000052,None,,,"C,54",001,2022_May_04_1332,ProdSingRedo,3.2.3,59.91550716408479,
,,,,49,0,49,0,,,,,,,,,,,,,,,,,,,,,,,,3648.943593499949,None,,,,,,,,,,,,,,,,,resistance,aloud,red,49,30,262,3644.9361543999985,None,3644.9361543999985,None,1,3.3608832999598235,3644.9361543999985,None,3648.3436402000953,None,3648.871129000094,None,3648.871129000094,None,n,0.050158899975940585,3648.871129000094,None,,,"C,54",001,2022_May_04_1332,ProdSingRedo,3.2.3,59.91550716408479,
,,,,50,0,50,0,,,,,,,,,,,,,,,,,,,,,,,,3652.331476200139,None,,,,,,,,,,,,,,,,,object,new_silent,yellow,50,166,204,3649.471790800104,None,3649.471790800104,None,4,2.209169200155884,3649.471790800104,None,3651.7313687000424,None,3652.2515865000896,None,3652.2515865000896,None,f,0.045263199834153056,3652.2515865000896,None,,,"C,54",001,2022_May_04_1332,ProdSingRedo,3.2.3,59.91550716408479,
,,,,51,0,51,0,,,,,,,,,,,,,,,,,,,,,,,,3656.218889000127,None,,,,,,,,,,,,,,,,,addition,new_aloud,red,51,142,2,3652.8497733999975,None,3652.8497733999975,None,1,2.7352287000976503,3652.8497733999975,None,3655.6331726000644,None,3656.153635600116,None,3656.153635600116,None,n,0.039332599844783545,3656.153635600116,None,,,"C,54",001,2022_May_04_1332,ProdSingRedo,3.2.3,59.91550716408479,
,,,,52,0,52,0,,,,,,,,,,,,,,,,,,,,,,,,3660.015875400044,None,,,,,,,,,,,,,,,,,trend,silent,yellow,52,74,340,3656.7418579000514,None,3656.7418579000514,None,6,2.5152968000620604,3656.7418579000514,None,3659.2961613999214,None,3659.8043865000363,None,3659.8043865000363,None,r,0.18844889989122748,3659.8043865000363,None,,,"C,54",001,2022_May_04_1332,ProdSingRedo,3.2.3,59.91550716408479,
,,,,53,0,53,0,,,,,,,,,,,,,,,,,,,,,,,,3666.9117722001392,None,,,,,,,,,,,,,,,,,account,new_sing,blue,53,100,1,3660.5303265999537,None,3660.5303265999537,None,2,4.262250199913979,3660.5303265999537,None,3664.825846000109,None,3665.352396100061,None,3665.352396100061,None,n,1.5369520001113415,3665.352396100061,None,,,"C,54",001,2022_May_04_1332,ProdSingRedo,3.2.3,59.91550716408479,
,,,,54,0,54,0,,,,,,,,,,,,,,,,,,,,,,,,3669.3909046000335,None,,,,,,,,,,,,,,,,,principal,new_aloud,red,54,127,236,3667.4396627000533,None,3667.4396627000533,None,1,1.3368464999366552,3667.4396627000533,None,3668.8094208000693,None,3669.324436899973,None,3669.324436899973,None,n,0.03617620002478361,3669.324436899973,None,,,"C,54",001,2022_May_04_1332,ProdSingRedo,3.2.3,59.91550716408479,
,,,,55,0,55,0,,,,,,,,,,,,,,,,,,,,,,,,3678.7570658000186,None,,,,,,,,,,,,,,,,,native,silent,yellow,55,77,199,3669.911833500024,None,3669.911833500024,None,2,8.049165199976414,3669.911833500024,None,3678.013758999994,None,3678.5284228001256,None,3678.5284228001256,None,n,0.20058559998869896,3678.5284228001256,None,,,"C,54",001,2022_May_04_1332,ProdSingRedo,3.2.3,59.91550716408479,
,,,,56,0,56,0,,,,,,,,,,,,,,,,,,,,,,,,3683.053354599979,None,,,,,,,,,,,,,,,,,guest,new_sing,blue,56,102,146,3679.2816910999827,None,3679.2816910999827,None,1,3.14343690010719,3679.2816910999827,None,3682.474659099942,None,3682.9966096999124,None,3682.9966096999124,None,n,0.02039119997061789,3682.9966096999124,None,,,"C,54",001,2022_May_04_1332,ProdSingRedo,3.2.3,59.91550716408479,
,,,,57,0,57,0,,,,,,,,,,,,,,,,,,,,,,,,3687.1831297001336,None,,,,,,,,,,,,,,,,,century,silent,yellow,57,66,45,3683.57336020004,None,3683.57336020004,None,5,2.9158073000144213,3683.57336020004,None,3686.5339168999344,None,3687.050237900112,None,3687.050237900112,None,f,0.1027971999719739,3687.050237900112,None,,,"C,54",001,2022_May_04_1332,ProdSingRedo,3.2.3,59.91550716408479,
,,,,58,0,58,0,,,,,,,,,,,,,,,,,,,,,,,,3692.207228400046,None,,,,,,,,,,,,,,,,,nature,sing,blue,58,10,200,3687.7082398999482,None,3687.7082398999482,None,5,3.6127336001954973,3687.7082398999482,None,3691.3740793000907,None,3691.8965026000515,None,3691.8965026000515,None,f,0.27273890003561974,3691.8965026000515,None,,,"C,54",001,2022_May_04_1332,ProdSingRedo,3.2.3,59.91550716408479,
,,,,59,0,59,0,,,,,,,,,,,,,,,,,,,,,,,,3695.6105909000617,None,,,,,,,,,,,,,,,,,gesture,aloud,red,59,54,137,3692.7339618001133,None,3692.7339618001133,None,1,1.8669501000549644,3692.7339618001133,None,3694.6412973999977,None,3695.162001800025,None,3695.162001800025,None,n,0.4230466999579221,3695.162001800025,None,,,"C,54",001,2022_May_04_1332,ProdSingRedo,3.2.3,59.91550716408479,
,,,,60,0,60,0,,,,,,,,,,,,,,,,,,,,,,,,3698.970312300138,None,,,,,,,,,,,,,,,,,machinery,new_sing,blue,60,103,175,3696.1400385000743,None,3696.1400385000743,None,1,2.1889958998654038,3696.1400385000743,None,3698.380115200067,None,3698.886881200131,None,3698.886881200131,None,n,0.05769710009917617,3698.886881200131,None,,,"C,54",001,2022_May_04_1332,ProdSingRedo,3.2.3,59.91550716408479,
,,,,61,0,61,0,,,,,,,,,,,,,,,,,,,,,,,,3701.1326329999138,None,,,,,,,,,,,,,,,,,power,new_aloud,red,61,121,230,3699.471891900059,None,3699.471891900059,None,1,1.0330308999400586,3699.471891900059,None,3700.5433370000683,None,3701.06545679993,None,3701.06545679993,None,n,0.03154350002296269,3701.06545679993,None,,,"C,54",001,2022_May_04_1332,ProdSingRedo,3.2.3,59.91550716408479,
,,,,62,0,62,0,,,,,,,,,,,,,,,,,,,,,,,,3706.4856106000952,None,,,,,,,,,,,,,,,,,partner,aloud,red,62,45,211,3701.6574017000385,None,3701.6574017000385,None,5,4.055663399863988,3701.6574017000385,None,3705.7651019999757,None,3706.2880432999227,None,3706.2880432999227,None,f,0.16897520003840327,3706.2880432999227,None,,,"C,54",001,2022_May_04_1332,ProdSingRedo,3.2.3,59.91550716408479,
,,,,63,0,63,0,,,,,,,,,,,,,,,,,,,,,,,,3710.172794900136,None,,,,,,,,,,,,,,,,,comedy,new_aloud,red,63,146,58,3707.0106057999656,None,3707.0106057999656,None,1,2.5105805001221597,3707.0106057999656,None,3709.5686304001138,None,3710.0896717000287,None,3710.0896717000287,None,n,0.05535330018028617,3710.0896717000287,None,,,"C,54",001,2022_May_04_1332,ProdSingRedo,3.2.3,59.91550716408479,
,,,,64,0,64,0,,,,,,,,,,,,,,,,,,,,,,,,3713.158664100105,None,,,,,,,,,,,,,,,,,revolution,aloud,red,64,52,264,3710.705040700035,None,3710.705040700035,None,6,1.7118490000721067,3710.705040700035,None,3712.462883299915,None,3712.9944994000252,None,3712.9944994000252,None,r,0.13449450000189245,3712.9944994000252,None,,,"C,54",001,2022_May_04_1332,ProdSingRedo,3.2.3,59.91550716408479,
,,,,65,0,65,0,,,,,,,,,,,,,,,,,,,,,,,,3719.2323857999872,None,,,,,,,,,,,,,,,,,pressure,new_silent,yellow,65,164,232,3713.6852250001393,None,3713.6852250001393,None,1,4.875833099940792,3713.6852250001393,None,3718.6097301000264,None,3719.1345840001013,None,3719.1345840001013,None,n,0.06638720002956688,3719.1345840001013,None,,,"C,54",001,2022_May_04_1332,ProdSingRedo,3.2.3,59.91550716408479,
,,,,66,0,66,0,,,,,,,,,,,,,,,,,,,,,,,,3722.283213699935,None,,,,,,,,,,,,,,,,,population,new_aloud,red,66,141,227,3719.7635115000885,None,3719.7635115000885,None,1,1.501897000009194,3719.7635115000885,None,3721.3144575001206,None,3721.8418070999905,None,3721.8418070999905,None,n,0.40728010004386306,3721.8418070999905,None,,,"C,54",001,2022_May_04_1332,ProdSingRedo,3.2.3,59.91550716408479,
,,,,67,0,67,0,,,,,,,,,,,,,,,,,,,,,,,,3725.1092483999673,None,,,,,,,,,,,,,,,,,clean,aloud,red,67,53,51,3722.8095760999713,None,3722.8095760999713,None,1,1.6394066999200732,3722.8095760999713,None,3724.501013800036,None,3725.02859240002,None,3725.02859240002,None,n,0.05236060009337962,3725.02859240002,None,,,"C,54",001,2022_May_04_1332,ProdSingRedo,3.2.3,59.91550716408479,
,,,,68,0,68,0,,,,,,,,,,,,,,,,,,,,,,,,3727.1797688999213,None,,,,,,,,,,,,,,,,,damage,new_sing,blue,68,117,83,3725.616316600004,None,3725.616316600004,None,1,0.9443115000613034,3725.616316600004,None,3726.5813309000805,None,3727.1027943000663,None,3727.1027943000663,None,n,0.04183070012368262,3727.1027943000663,None,,,"C,54",001,2022_May_04_1332,ProdSingRedo,3.2.3,59.91550716408479,
,,,,69,0,69,0,,,,,,,,,,,,,,,,,,,,,,,,3730.8701333999634,None,,,,,,,,,,,,,,,,,phrase,silent,yellow,69,83,220,3727.705778799951,None,3727.705778799951,None,5,2.5032321999315172,3727.705778799951,None,3730.258708700072,None,3730.780445900047,None,3730.780445900047,None,f,0.06837309990078211,3730.780445900047,None,,,"C,54",001,2022_May_04_1332,ProdSingRedo,3.2.3,59.91550716408479,
,,,,70,0,70,0,,,,,,,,,,,,,,,,,,,,,,,,3734.379093500087,None,,,,,,,,,,,,,,,,,debate,aloud,red,70,51,87,3731.384041399928,None,3731.384041399928,None,5,2.3530381000600755,3731.384041399928,None,3733.7786663000006,None,3734.2976053999737,None,3734.2976053999737,None,f,0.047137900022789836,3734.2976053999737,None,,,"C,54",001,2022_May_04_1332,ProdSingRedo,3.2.3,59.91550716408479,
,,,,71,0,71,0,,,,,,,,,,,,,,,,,,,,,,,,3737.6170860999264,None,,,,,,,,,,,,,,,,,symbol,new_silent,yellow,71,170,321,3734.9044457001146,None,3734.9044457001146,None,1,1.3847526002209634,3734.9044457001146,None,3736.333981500007,None,3736.8543458001222,None,3736.8543458001222,None,n,0.7306263998616487,3736.8543458001222,None,,,"C,54",001,2022_May_04_1332,ProdSingRedo,3.2.3,59.91550716408479,
,,,,72,0,72,0,,,,,,,,,,,,,,,,,,,,,,,,3740.753116399981,None,,,,,,,,,,,,,,,,,majority,new_silent,yellow,72,156,176,3738.145385599928,None,3738.145385599928,None,1,1.967570000095293,3738.145385599928,None,3740.150298499968,None,3740.6785055999644,None,3740.6785055999644,None,n,0.05044040014036,3740.6785055999644,None,,,"C,54",001,2022_May_04_1332,ProdSingRedo,3.2.3,59.91550716408479,
,,,,73,0,73,0,,,,,,,,,,,,,,,,,,,,,,,,3744.4581156000495,None,,,,,,,,,,,,,,,,,question,new_silent,yellow,73,163,247,3741.2828425001353,None,3741.2828425001353,None,5,2.5425786999985576,3741.2828425001353,None,3743.8699465000536,None,3744.3968863000628,None,3744.3968863000628,None,f,0.03603149997070432,3744.3968863000628,None,,,"C,54",001,2022_May_04_1332,ProdSingRedo,3.2.3,59.91550716408479,
,,,,74,0,74,0,,,,,,,,,,,,,,,,,,,,,,,,3748.2597569001373,None,,,,,,,,,,,,,,,,,oxygen,sing,blue,74,13,209,3744.9881675001234,None,3744.9881675001234,None,6,2.4209848002064973,3744.9881675001234,None,3747.461929399986,None,3747.983097099932,None,3747.983097099932,None,r,0.24983789981342852,3747.983097099932,None,,,"C,54",001,2022_May_04_1332,ProdSingRedo,3.2.3,59.91550716408479,
,,,,75,0,75,0,,,,,,,,,,,,,,,,,,,,,,,,3752.617259300081,None,,,,,,,,,,,,,,,,,taste,new_sing,blue,75,98,322,3748.7844712000806,None,3748.7844712000806,None,2,3.0405764000024647,3748.7844712000806,None,3751.8624507000204,None,3752.382955600042,None,3752.382955600042,None,n,0.20216930005699396,3752.382955600042,None,,,"C,54",001,2022_May_04_1332,ProdSingRedo,3.2.3,59.91550716408479,
,,,,76,0,76,0,,,,,,,,,,,,,,,,,,,,,,,,3756.1855039999355,None,,,,,,,,,,,,,,,,,agency,sing,blue,76,14,4,3753.1394024000037,None,3753.1394024000037,None,6,2.3258982999250293,3753.1394024000037,None,3755.5187762000132,None,3756.0388774999883,None,3756.0388774999883,None,r,0.11409080005250871,3756.0388774999883,None,,,"C,54",001,2022_May_04_1332,ProdSingRedo,3.2.3,59.91550716408479,
,,,,77,0,77,0,,,,,,,,,,,,,,,,,,,,,,,,3759.720243399963,None,,,,,,,,,,,,,,,,,level,sing,blue,77,20,170,3756.707766100066,None,3756.707766100066,None,6,2.3649180000647902,3756.707766100066,None,3759.1011634001043,None,3759.6142057001125,None,3759.6142057001125,None,r,0.07471049996092916,3759.6142057001125,None,,,"C,54",001,2022_May_04_1332,ProdSingRedo,3.2.3,59.91550716408479,
,,,,78,0,78,0,,,,,,,,,,,,,,,,,,,,,,,,3762.8410156001337,None,,,,,,,,,,,,,,,,,provision,new_aloud,red,78,120,243,3760.247991699958,None,3760.247991699958,None,1,1.976938699837774,3760.247991699958,None,3762.2679656001274,None,3762.782019899925,None,3762.782019899925,None,n,0.026693099876865745,3762.782019899925,None,,,"C,54",001,2022_May_04_1332,ProdSingRedo,3.2.3,59.91550716408479,
,,,,79,0,79,0,,,,,,,,,,,,,,,,,,,,,,,,3766.4458783001173,None,,,,,,,,,,,,,,,,,strain,new_aloud,red,79,145,308,3763.3674467999954,None,3763.3674467999954,None,1,2.0576995997689664,3763.3674467999954,None,3765.4751665000804,None,3765.99365700013,None,3765.99365700013,None,n,0.4234190001152456,3765.99365700013,None,,,"C,54",001,2022_May_04_1332,ProdSingRedo,3.2.3,59.91550716408479,
,,,,80,0,80,0,,,,,,,,,,,,,,,,,,,,,,,,3771.6842644000426,None,,,,,,,,,,,,,,,,,write,new_sing,blue,80,93,358,3766.9705143000465,None,3766.9705143000465,None,1,3.694461999926716,3766.9705143000465,None,3770.713316099951,None,3771.246366899926,None,3771.246366899926,None,n,0.41059730015695095,3771.246366899926,None,,,"C,54",001,2022_May_04_1332,ProdSingRedo,3.2.3,59.91550716408479,
,,,,81,0,81,0,,,,,,,,,,,,,,,,,,,,,,,,3775.9048975000624,None,,,,,,,,,,,,,,,,,place,silent,yellow,81,76,222,3772.2122216001153,None,3772.2122216001153,None,5,3.004785700002685,3772.2122216001153,None,3775.268319899915,None,3775.791773899924,None,3775.791773899924,None,f,0.08934420021250844,3775.791773899924,None,,,"C,54",001,2022_May_04_1332,ProdSingRedo,3.2.3,59.91550716408479,
,,,,82,0,82,0,,,,,,,,,,,,,,,,,,,,,,,,3779.1076782001182,None,,,,,,,,,,,,,,,,,answer,silent,yellow,82,65,8,3776.432967599947,None,3776.432967599947,None,5,2.016016500070691,3776.432967599947,None,3778.486757500097,None,3778.9940601999406,None,3778.9940601999406,None,f,0.07903060014359653,3778.9940601999406,None,,,"C,54",001,2022_May_04_1332,ProdSingRedo,3.2.3,59.91550716408479,
,,,,83,0,83,0,,,,,,,,,,,,,,,,,,,,,,,,3784.1626417001244,None,,,,,,,,,,,,,,,,,capital,sing,blue,83,7,40,3779.6381912999786,None,3779.6381912999786,None,1,3.5389550998806953,3779.6381912999786,None,3783.2269554999657,None,3783.7525166000705,None,3783.7525166000705,None,n,0.3843789000529796,3783.7525166000705,None,,,"C,54",001,2022_May_04_1332,ProdSingRedo,3.2.3,59.91550716408479,
,,,,84,0,84,0,,,,,,,,,,,,,,,,,,,,,,,,3790.8615473001264,None,,,,,,,,,,,,,,,,,exchange,silent,yellow,84,63,121,3784.6939489999786,None,3784.6939489999786,None,3,5.57906059990637,3784.6939489999786,None,3790.3207557999995,None,3790.8454716000706,None,3790.8454716000706,None,n,0.0031186998821794987,3790.8454716000706,None,,,"C,54",001,2022_May_04_1332,ProdSingRedo,3.2.3,59.91550716408479,
,,,,85,0,85,0,,,,,,,,,,,,,,,,,,,,,,,,3794.804287200095,None,,,,,,,,,,,,,,,,,stranger,silent,yellow,85,84,309,3791.3865569001064,None,3791.3865569001064,None,1,2.83071820018813,3791.3865569001064,None,3794.2643627000507,None,3794.7771366001107,None,3794.7771366001107,None,n,0.007653099950402975,3794.7771366001107,None,,,"C,54",001,2022_May_04_1332,ProdSingRedo,3.2.3,59.91550716408479,
,,,,86,0,86,0,,,,,,,,,,,,,,,,,,,,,,,,3797.206820399966,None,,,,,,,,,,,,,,,,,tennis,silent,yellow,86,71,323,3795.3274066001177,None,3795.3274066001177,None,1,0.8815230999607593,3795.3274066001177,None,3796.250635900069,None,3796.7586906000506,None,3796.7586906000506,None,n,0.41825399990193546,3796.7586906000506,None,,,"C,54",001,2022_May_04_1332,ProdSingRedo,3.2.3,59.91550716408479,
,,,,87,0,87,0,,,,,,,,,,,,,,,,,,,,,,,,3800.712328700116,None,,,,,,,,,,,,,,,,,shear,silent,yellow,87,80,283,3797.7263684000354,None,3797.7263684000354,None,5,2.306611299980432,3797.7263684000354,None,3800.078231600113,None,3800.5976178001147,None,3800.5976178001147,None,f,0.08329179999418557,3800.5976178001147,None,,,"C,54",001,2022_May_04_1332,ProdSingRedo,3.2.3,59.91550716408479,
,,,,88,0,88,0,,,,,,,,,,,,,,,,,,,,,,,,3805.236311200075,None,,,,,,,,,,,,,,,,,staff,sing,blue,88,6,301,3801.239051300101,None,3801.239051300101,None,6,3.2181371999904513,3801.239051300101,None,3804.4978720000945,None,3805.019843700109,None,3805.019843700109,None,r,0.1891697000246495,3805.019843700109,None,,,"C,54",001,2022_May_04_1332,ProdSingRedo,3.2.3,59.91550716408479,
,,,,89,0,89,0,,,,,,,,,,,,,,,,,,,,,,,,3813.5528893000446,None,,,,,,,,,,,,,,,,,problem,aloud,red,89,32,238,3805.7578245999757,None,3805.7578245999757,None,4,7.123272199882194,3805.7578245999757,None,3812.92519440013,None,3813.444261299912,None,3813.444261299912,None,f,0.060694299871101975,3813.444261299912,None,,,"C,54",001,2022_May_04_1332,ProdSingRedo,3.2.3,59.91550716408479,
,,,,90,0,90,0,,,,,,,,,,,,,,,,,,,,,,,,3817.588819500059,None,,,,,,,,,,,,,,,,,music,new_sing,blue,90,105,196,3814.0755930999294,None,3814.0755930999294,None,1,2.9014220000244677,3814.0755930999294,None,3817.027810800122,None,3817.547783399932,None,3817.547783399932,None,n,0.021035399986431003,3817.547783399932,None,,,"C,54",001,2022_May_04_1332,ProdSingRedo,3.2.3,59.91550716408479,
,,,,91,0,91,0,,,,,,,,,,,,,,,,,,,,,,,,3824.5213580001146,None,,,,,,,,,,,,,,,,,crisis,new_silent,yellow,91,177,79,3818.102482700022,None,3818.102482700022,None,1,5.410545099992305,3818.102482700022,None,3823.5525400000624,None,3824.0703350999393,None,3824.0703350999393,None,n,0.4185875002294779,3824.0703350999393,None,,,"C,54",001,2022_May_04_1332,ProdSingRedo,3.2.3,59.91550716408479,
,,,,92,0,92,0,,,,,,,,,,,,,,,,,,,,,,,,3828.5246747001074,None,,,,,,,,,,,,,,,,,comfort,new_aloud,red,92,143,59,3825.0471813001204,None,3825.0471813001204,None,5,2.1217074999585748,3825.0471813001204,None,3827.226342299953,None,3827.743370699929,None,3827.743370699929,None,f,0.7457053000107408,3827.743370699929,None,,,"C,54",001,2022_May_04_1332,ProdSingRedo,3.2.3,59.91550716408479,
,,,,93,0,93,0,,,,,,,,,,,,,,,,,,,,,,,,3833.778373300098,None,,,,,,,,,,,,,,,,,charter,sing,blue,93,5,47,3829.0543289999478,None,3829.0543289999478,None,6,4.058645700104535,3829.0543289999478,None,3833.161467500031,None,3833.6833788000513,None,3833.6833788000513,None,r,0.06172360014170408,3833.6833788000513,None,,,"C,54",001,2022_May_04_1332,ProdSingRedo,3.2.3,59.91550716408479,
,,,,94,0,94,0,,,,,,,,,,,,,,,,,,,,,,,,3839.7368268000428,None,,,,,,,,,,,,,,,,,member,aloud,red,94,36,188,3834.3075147999916,None,3834.3075147999916,None,6,4.317661999957636,3834.3075147999916,None,3838.666621200042,None,3839.198404100025,None,3839.198404100025,None,r,0.498482100199908,3839.198404100025,None,,,"C,54",001,2022_May_04_1332,ProdSingRedo,3.2.3,59.91550716408479,
,,,,95,0,95,0,,,,,,,,,,,,,,,,,,,,,,,,3842.6717554000206,None,,,,,,,,,,,,,,,,,shape,new_sing,blue,95,108,282,3840.2595997001044,None,3840.2595997001044,None,1,1.397407699842006,3840.2595997001044,None,3841.699804800097,None,3842.226037299959,None,3842.226037299959,None,n,0.4149091001600027,3842.226037299959,None,,,"C,54",001,2022_May_04_1332,ProdSingRedo,3.2.3,59.91550716408479,
,,,,96,0,96,0,,,,,,,,,,,,,,,,,,,,,,,,3845.7061610999517,None,,,,,,,,,,,,,,,,,ground,new_aloud,red,96,133,142,3843.200876499992,None,3843.200876499992,None,1,1.808065399993211,3843.200876499992,None,3845.0568011000287,None,3845.57821850013,None,3845.57821850013,None,n,0.09470409993082285,3845.57821850013,None,,,"C,54",001,2022_May_04_1332,ProdSingRedo,3.2.3,59.91550716408479,
,,,,97,0,97,0,,,,,,,,,,,,,,,,,,,,,,,,3849.087118800031,None,,,,,,,,,,,,,,,,,death,sing,blue,97,8,86,3846.2310397999827,None,3846.2310397999827,None,6,1.9222961999475956,3846.2310397999827,None,3848.193567200098,None,3848.703150599962,None,3848.703150599962,None,r,0.36152550019323826,3848.703150599962,None,,,"C,54",001,2022_May_04_1332,ProdSingRedo,3.2.3,59.91550716408479,
,,,,98,0,98,0,,,,,,,,,,,,,,,,,,,,,,,,3851.679670399986,None,,,,,,,,,,,,,,,,,solution,new_sing,blue,98,101,294,3849.5874483000953,None,3849.5874483000953,None,1,1.2854717997834086,3849.5874483000953,None,3850.9174546999857,None,3851.4341353999916,None,3851.4341353999916,None,n,0.22312669991515577,3851.4341353999916,None,,,"C,54",001,2022_May_04_1332,ProdSingRedo,3.2.3,59.91550716408479,
,,,,99,0,99,0,,,,,,,,,,,,,,,,,,,,,,,,3857.1193922001403,None,,,,,,,,,,,,,,,,,reading,new_silent,yellow,99,171,254,3852.206508199917,None,3852.206508199917,None,4,3.570358300115913,3852.206508199917,None,3855.8193807001226,None,3856.3379297000356,None,3856.3379297000356,None,f,0.758887100033462,3856.3379297000356,None,,,"C,54",001,2022_May_04_1332,ProdSingRedo,3.2.3,59.91550716408479,
,,,,100,0,100,0,,,,,,,,,,,,,,,,,,,,,,,,3864.057790199993,None,,,,,,,,,,,,,,,,,figure,new_sing,blue,100,114,128,3857.6470622001216,None,3857.6470622001216,None,1,5.417845099931583,3857.6470622001216,None,3863.110805500066,None,3863.6296248999424,None,3863.6296248999424,None,n,0.40306230005808175,3863.6296248999424,None,,,"C,54",001,2022_May_04_1332,ProdSingRedo,3.2.3,59.91550716408479,
,,,,101,0,101,0,,,,,,,,,,,,,,,,,,,,,,,,3866.771346000023,None,,,,,,,,,,,,,,,,,piece,aloud,red,101,43,221,3864.579807000002,None,3864.579807000002,None,1,1.5568642001599073,3864.579807000002,None,3866.158370899968,None,3866.6755413000938,None,3866.6755413000938,None,n,0.06915849982760847,3866.6755413000938,None,,,"C,54",001,2022_May_04_1332,ProdSingRedo,3.2.3,59.91550716408479,
,,,,102,0,102,0,,,,,,,,,,,,,,,,,,,,,,,,3869.480697900057,None,,,,,,,,,,,,,,,,,passage,new_silent,yellow,102,168,212,3867.2720012001228,None,3867.2720012001228,None,1,1.2249839000869542,3867.2720012001228,None,3868.548546300037,None,3869.0698474999517,None,3869.0698474999517,None,n,0.3790901000611484,3869.0698474999517,None,,,"C,54",001,2022_May_04_1332,ProdSingRedo,3.2.3,59.91550716408479,
,,,,103,0,103,0,,,,,,,,,,,,,,,,,,,,,,,,3872.6850688999984,None,,,,,,,,,,,,,,,,,curve,silent,yellow,103,89,82,3870.0096966000274,None,3870.0096966000274,None,6,1.8873087998945266,3870.0096966000274,None,3871.9545513999183,None,3872.4734676999506,None,3872.4734676999506,None,r,0.1835101000033319,3872.4734676999506,None,,,"C,54",001,2022_May_04_1332,ProdSingRedo,3.2.3,59.91550716408479,
,,,,104,0,104,0,,,,,,,,,,,,,,,,,,,,,,,,3879.200332199922,None,,,,,,,,,,,,,,,,,audience,aloud,red,104,44,14,3873.2151194000617,None,3873.2151194000617,None,5,5.233759300084785,3873.2151194000617,None,3878.4852603001054,None,3879.0001075000037,None,3879.0001075000037,None,f,0.17645519995130599,3879.0001075000037,None,,,"C,54",001,2022_May_04_1332,ProdSingRedo,3.2.3,59.91550716408479,
,,,,105,0,105,0,,,,,,,,,,,,,,,,,,,,,,,,3881.2201895001344,None,,,,,,,,,,,,,,,,,household,new_aloud,red,105,129,154,3879.717780600069,None,3879.717780600069,None,1,0.8992141000926495,3879.717780600069,None,3880.6642311001197,None,3881.1794817000628,None,3881.1794817000628,None,n,0.02125360001809895,3881.1794817000628,None,,,"C,54",001,2022_May_04_1332,ProdSingRedo,3.2.3,59.91550716408479,
,,,,106,0,106,0,,,,,,,,,,,,,,,,,,,,,,,,3884.090232799994,None,,,,,,,,,,,,,,,,,force,sing,blue,106,25,131,3881.735890600132,None,3881.735890600132,None,1,1.7450635000132024,3881.735890600132,None,3883.5291800000705,None,3884.05089329998,None,3884.05089329998,None,n,0.021845200099051,3884.05089329998,None,,,"C,54",001,2022_May_04_1332,ProdSingRedo,3.2.3,59.91550716408479,
,,,,107,0,107,0,,,,,,,,,,,,,,,,,,,,,,,,3887.434309999924,None,,,,,,,,,,,,,,,,,public,new_silent,yellow,107,174,244,3884.6061529999133,None,3884.6061529999133,None,1,1.8269248001743108,3884.6061529999133,None,3886.4821796999313,None,3887.0030734001193,None,3887.0030734001193,None,n,0.39790010009892285,3887.0030734001193,None,,,"C,54",001,2022_May_04_1332,ProdSingRedo,3.2.3,59.91550716408479,
,,,,108,0,108,0,,,,,,,,,,,,,,,,,,,,,,,,3889.9708134999964,None,,,,,,,,,,,,,,,,,general,aloud,red,108,39,135,3887.9607895999216,None,3887.9607895999216,None,1,1.3520886001642793,3887.9607895999216,None,3889.343335600104,None,3889.8596880999394,None,3889.8596880999394,None,n,0.07725610001944005,3889.8596880999394,None,,,"C,54",001,2022_May_04_1332,ProdSingRedo,3.2.3,59.91550716408479,
,,,,109,0,109,0,,,,,,,,,,,,,,,,,,,,,,,,3892.820159800118,None,,,,,,,,,,,,,,,,,meeting,new_sing,blue,109,109,187,3890.494870000053,None,3890.494870000053,None,1,1.6981353000737727,3890.494870000053,None,3892.2372705999296,None,3892.7571143000387,None,3892.7571143000387,None,n,0.0279294999781996,3892.7571143000387,None,,,"C,54",001,2022_May_04_1332,ProdSingRedo,3.2.3,59.91550716408479,
,,,,110,0,110,0,,,,,,,,,,,,,,,,,,,,,,,,3897.8195043001324,None,,,,,,,,,,,,,,,,,story,aloud,red,110,34,306,3893.3455932999495,None,3893.3455932999495,None,1,3.863302099984139,3893.3455932999495,None,3897.256764099933,None,3897.7820274000987,None,3897.7820274000987,None,n,0.018621399998664856,3897.7820274000987,None,,,"C,54",001,2022_May_04_1332,ProdSingRedo,3.2.3,59.91550716408479,
,,,,111,0,111,0,,,,,,,,,,,,,,,,,,,,,,,,3900.3119185999967,None,,,,,,,,,,,,,,,,,split,new_silent,yellow,111,172,299,3898.331770000048,None,3898.331770000048,None,1,1.3734796999488026,3898.331770000048,None,3899.7396700999234,None,3900.2605328999925,None,3900.2605328999925,None,n,0.020364899886772037,3900.2605328999925,None,,,"C,54",001,2022_May_04_1332,ProdSingRedo,3.2.3,59.91550716408479,
,,,,112,0,112,0,,,,,,,,,,,,,,,,,,,,,,,,3903.966666500084,None,,,,,,,,,,,,,,,,,country,new_silent,yellow,112,160,73,3900.8419739000965,None,3900.8419739000965,None,5,2.455003499984741,3900.8419739000965,None,3903.347152600065,None,3903.871443199925,None,3903.871443199925,None,f,0.05747989984229207,3903.871443199925,None,,,"C,54",001,2022_May_04_1332,ProdSingRedo,3.2.3,59.91550716408479,
,,,,113,0,113,0,,,,,,,,,,,,,,,,,,,,,,,,3906.8180356000084,None,,,,,,,,,,,,,,,,,quick,new_silent,yellow,113,159,248,3904.491634899983,None,3904.491634899983,None,1,1.3092509999405593,3904.491634899983,None,3905.85216400004,None,3906.374393499922,None,3906.374393499922,None,n,0.41045730002224445,3906.374393499922,None,,,"C,54",001,2022_May_04_1332,ProdSingRedo,3.2.3,59.91550716408479,
,,,,114,0,114,0,,,,,,,,,,,,,,,,,,,,,,,,3909.5374809999485,None,,,,,,,,,,,,,,,,,break,new_silent,yellow,114,165,26,3907.345122799976,None,3907.345122799976,None,1,1.5594101999886334,3907.345122799976,None,3908.9351218999363,None,3909.4475233999547,None,3909.4475233999547,None,n,0.057399600045755506,3909.4475233999547,None,,,"C,54",001,2022_May_04_1332,ProdSingRedo,3.2.3,59.91550716408479,
,,,,115,0,115,0,,,,,,,,,,,,,,,,,,,,,,,,3918.7804630999453,None,,,,,,,,,,,,,,,,,committee,aloud,red,115,56,62,3910.0595514001325,None,3910.0595514001325,None,6,7.965395999839529,3910.0595514001325,None,3918.074026199989,None,3918.5818012000527,None,3918.5818012000527,None,r,0.16316330013796687,3918.5818012000527,None,,,"C,54",001,2022_May_04_1332,ProdSingRedo,3.2.3,59.91550716408479,
,,,,116,0,116,0,,,,,,,,,,,,,,,,,,,,,,,,3921.1656971001066,None,,,,,,,,,,,,,,,,,master,silent,yellow,116,86,180,3919.306526799919,None,3919.306526799919,None,1,1.1984088001772761,3919.306526799919,None,3920.5489606000483,None,3921.068214100087,None,3921.068214100087,None,n,0.060440100030973554,3921.068214100087,None,,,"C,54",001,2022_May_04_1332,ProdSingRedo,3.2.3,59.91550716408479,
,,,,117,0,117,0,,,,,,,,,,,,,,,,,,,,,,,,3923.3477352000773,None,,,,,,,,,,,,,,,,,region,aloud,red,117,42,256,3921.695337699959,None,3921.695337699959,None,1,1.057585199829191,3921.695337699959,None,3922.7998675999697,None,3923.3212367000524,None,3923.3212367000524,None,n,0.007581199984997511,3923.3212367000524,None,,,"C,54",001,2022_May_04_1332,ProdSingRedo,3.2.3,59.91550716408479,
,,,,118,0,118,0,,,,,,,,,,,,,,,,,,,,,,,,3926.0198647999205,None,,,,,,,,,,,,,,,,,discussion,new_sing,blue,118,116,96,3923.878269399982,None,3923.878269399982,None,1,1.4987125999759883,3923.878269399982,None,3925.423201299971,None,3925.9395753000863,None,3925.9395753000863,None,n,0.04520380008034408,3925.9395753000863,None,,,"C,54",001,2022_May_04_1332,ProdSingRedo,3.2.3,59.91550716408479,
,,,,119,0,119,0,,,,,,,,,,,,,,,,,,,,,,,,3929.734146000119,None,,,,,,,,,,,,,,,,,attack,new_silent,yellow,119,176,13,3926.539630500134,None,3926.539630500134,None,1,2.573326699901372,3926.539630500134,None,3929.1542523999233,None,3929.6830899999477,None,3929.6830899999477,None,n,0.021583399968221784,3929.6830899999477,None,,,"C,54",001,2022_May_04_1332,ProdSingRedo,3.2.3,59.91550716408479,
,,,,120,0,120,0,,,,,,,,,,,,,,,,,,,,,,,,3931.7432784999255,None,,,,,,,,,,,,,,,,,edition,new_silent,yellow,120,153,107,3930.248457700014,None,3930.248457700014,None,1,0.8644993000198156,3930.248457700014,None,3931.1563707999885,None,3931.675438000122,None,3931.675438000122,None,n,0.03752849996089935,3931.675438000122,None,,,"C,54",001,2022_May_04_1332,ProdSingRedo,3.2.3,59.91550716408479,
,,,,121,0,121,0,,,,,,,,,,,,,,,,,,,,,,,,3940.1776992001105,None,,,,,,,,,,,,,,,,,light,aloud,red,121,46,171,3932.2678302000277,None,3932.2678302000277,None,1,7.285098600201309,3932.2678302000277,None,3939.6029471000656,None,3940.1160033999477,None,3940.1160033999477,None,n,0.04457829985767603,3940.1160033999477,None,,,"C,54",001,2022_May_04_1332,ProdSingRedo,3.2.3,59.91550716408479,
,,,,122,0,122,0,,,,,,,,,,,,,,,,,,,,,,,,3942.8528643001337,None,,,,,,,,,,,,,,,,,marriage,new_sing,blue,122,110,179,3940.696659100009,None,3940.696659100009,None,1,1.5203583999536932,3940.696659100009,None,3942.2745076001156,None,3942.7927163999993,None,3942.7927163999993,None,n,0.0321960998699069,3942.7927163999993,None,,,"C,54",001,2022_May_04_1332,ProdSingRedo,3.2.3,59.91550716408479,
,,,,123,0,123,0,,,,,,,,,,,,,,,,,,,,,,,,3950.5717023999896,None,,,,,,,,,,,,,,,,,hunger,silent,yellow,123,78,155,3943.3822083999403,None,3943.3822083999403,None,1,6.578897000057623,3943.3822083999403,None,3950.0240214001387,None,3950.53266180004,None,3950.53266180004,None,n,0.02004329999908805,3950.53266180004,None,,,"C,54",001,2022_May_04_1332,ProdSingRedo,3.2.3,59.91550716408479,
,,,,124,0,124,0,,,,,,,,,,,,,,,,,,,,,,,,3953.398289799923,None,,,,,,,,,,,,,,,,,balance,silent,yellow,124,75,17,3951.0910006000195,None,3951.0910006000195,None,5,1.6617883001454175,3951.0910006000195,None,3952.7948843000922,None,3953.3207563001197,None,3953.3207563001197,None,f,0.04007140011526644,3953.3207563001197,None,,,"C,54",001,2022_May_04_1332,ProdSingRedo,3.2.3,59.91550716408479,
,,,,125,0,125,0,,,,,,,,,,,,,,,,,,,,,,,,3955.8174481999595,None,,,,,,,,,,,,,,,,,smooth,new_sing,blue,125,104,292,3953.920281100087,None,3953.920281100087,None,1,1.24062419985421,3953.920281100087,None,3955.1932773001026,None,3955.7014520000666,None,3955.7014520000666,None,n,0.08346300013363361,3955.7014520000666,None,,,"C,54",001,2022_May_04_1332,ProdSingRedo,3.2.3,59.91550716408479,
,,,,126,0,126,0,,,,,,,,,,,,,,,,,,,,,,,,3958.7043075999245,None,,,,,,,,,,,,,,,,,stand,sing,blue,126,9,302,3956.3450410000514,None,3956.3450410000514,None,1,1.72794030001387,3956.3450410000514,None,3958.122319899965,None,3958.6402930999175,None,3958.6402930999175,None,n,0.032745499862357974,3958.6402930999175,None,,,"C,54",001,2022_May_04_1332,ProdSingRedo,3.2.3,59.91550716408479,
,,,,127,0,127,0,,,,,,,,,,,,,,,,,,,,,,,,3961.616035999963,None,,,,,,,,,,,,,,,,,surprise,new_sing,blue,127,90,317,3959.2313203001395,None,3959.2313203001395,None,6,1.769522099988535,3959.2313203001395,None,3961.045323899947,None,3961.5654744999483,None,3961.5654744999483,None,r,0.027331799967214465,3961.5654744999483,None,,,"C,54",001,2022_May_04_1332,ProdSingRedo,3.2.3,59.91550716408479,
,,,,128,0,128,0,,,,,,,,,,,,,,,,,,,,,,,,3966.129383499967,None,,,,,,,,,,,,,,,,,portion,sing,blue,128,15,228,3962.12717410014,None,3962.12717410014,None,1,3.329764499794692,3962.12717410014,None,3965.506058400031,None,3966.0271827001125,None,3966.0271827001125,None,n,0.06968970014713705,3966.0271827001125,None,,,"C,54",001,2022_May_04_1332,ProdSingRedo,3.2.3,59.91550716408479,
,,,,129,0,129,0,,,,,,,,,,,,,,,,,,,,,,,,3971.7161908000708,None,,,,,,,,,,,,,,,,,personnel,new_silent,yellow,129,169,219,3966.653798100073,None,3966.653798100073,None,3,4.355249099899083,3966.653798100073,None,3971.037890800042,None,3971.555211199913,None,3971.555211199913,None,n,0.1341506999451667,3971.555211199913,None,,,"C,54",001,2022_May_04_1332,ProdSingRedo,3.2.3,59.91550716408479,
,,,,130,0,130,0,,,,,,,,,,,,,,,,,,,,,,,,3977.272897100076,None,,,,,,,,,,,,,,,,,collection,new_aloud,red,130,134,54,3972.2402369000483,None,3972.2402369000483,None,5,4.312839100137353,3972.2402369000483,None,3976.60016859998,None,3977.1224199999124,None,3977.1224199999124,None,f,0.11852219980210066,3977.1224199999124,None,,,"C,54",001,2022_May_04_1332,ProdSingRedo,3.2.3,59.91550716408479,
,,,,131,0,131,0,,,,,,,,,,,,,,,,,,,,,,,,3981.3429302999284,None,,,,,,,,,,,,,,,,,school,new_silent,yellow,131,175,274,3977.7970599001274,None,3977.7970599001274,None,1,2.891799099976197,3977.7970599001274,None,3980.7372121999506,None,3981.2569417001214,None,3981.2569417001214,None,n,0.04799779993481934,3981.2569417001214,None,,,"C,54",001,2022_May_04_1332,ProdSingRedo,3.2.3,59.91550716408479,
,,,,132,0,132,0,,,,,,,,,,,,,,,,,,,,,,,,3984.097007900011,None,,,,,,,,,,,,,,,,,court,new_sing,blue,132,113,75,3981.852896499913,None,3981.852896499913,None,1,1.203830299898982,3981.852896499913,None,3983.100594199961,None,3983.615470299963,None,3983.615470299963,None,n,0.4575475000310689,3983.615470299963,None,,,"C,54",001,2022_May_04_1332,ProdSingRedo,3.2.3,59.91550716408479,
,,,,133,0,133,0,,,,,,,,,,,,,,,,,,,,,,,,3988.4202763999347,None,,,,,,,,,,,,,,,,,concern,sing,blue,133,12,65,3984.6213517000433,None,3984.6213517000433,None,5,3.123616899829358,3984.6213517000433,None,3987.796594900079,None,3988.319739300059,None,3988.319739300059,None,f,0.06517570000141859,3988.319739300059,None,,,"C,54",001,2022_May_04_1332,ProdSingRedo,3.2.3,59.91550716408479,
,,,,134,0,134,0,,,,,,,,,,,,,,,,,,,,,,,,3990.955862800125,None,,,,,,,,,,,,,,,,,swift,silent,yellow,134,69,320,3988.946483500069,None,3988.946483500069,None,1,1.342392799910158,3988.946483500069,None,3990.348947199993,None,3990.8569267001003,None,3990.8569267001003,None,n,0.07210710016079247,3990.8569267001003,None,,,"C,54",001,2022_May_04_1332,ProdSingRedo,3.2.3,59.91550716408479,
,,,,135,0,135,0,,,,,,,,,,,,,,,,,,,,,,,,3993.0807572000194,None,,,,,,,,,,,,,,,,,turkey,new_aloud,red,135,122,342,3991.4830207000487,None,3991.4830207000487,None,1,1.0058749997988343,3991.4830207000487,None,3992.5377219000366,None,3993.0429901001044,None,3993.0429901001044,None,n,0.013732600025832653,3993.0429901001044,None,,,"C,54",001,2022_May_04_1332,ProdSingRedo,3.2.3,59.91550716408479,
,,,,136,0,136,0,,,,,,,,,,,,,,,,,,,,,,,,3995.5922101999167,None,,,,,,,,,,,,,,,,,spoke,new_aloud,red,136,130,300,3993.59778930014,None,3993.59778930014,None,1,1.0510223000310361,3993.59778930014,None,3994.688564500073,None,3995.1997486001346,None,3995.1997486001346,None,n,0.36907909996807575,3995.1997486001346,None,,,"C,54",001,2022_May_04_1332,ProdSingRedo,3.2.3,59.91550716408479,
,,,,137,0,137,0,,,,,,,,,,,,,,,,,,,,,,,,3998.986647499958,None,,,,,,,,,,,,,,,,,tragedy,sing,blue,137,17,335,3996.1204955999274,None,3996.1204955999274,None,6,2.0884676000569016,3996.1204955999274,None,3998.2630034999456,None,3998.7699307999574,None,3998.7699307999574,None,r,0.19867500010877848,3998.7699307999574,None,,,"C,54",001,2022_May_04_1332,ProdSingRedo,3.2.3,59.91550716408479,
,,,,138,0,138,0,,,,,,,,,,,,,,,,,,,,,,,,4001.9134208001196,None,,,,,,,,,,,,,,,,,enemy,sing,blue,138,26,113,3999.4873299999163,None,3999.4873299999163,None,6,1.7935695999767631,3999.4873299999163,None,4001.325448299991,None,4001.8474286999553,None,4001.8474286999553,None,r,0.033448300091549754,4001.8474286999553,None,,,"C,54",001,2022_May_04_1332,ProdSingRedo,3.2.3,59.91550716408479,
,,,,139,0,139,0,,,,,,,,,,,,,,,,,,,,,,,,4005.350373599911,None,,,,,,,,,,,,,,,,,pretty,new_sing,blue,139,115,233,4002.4405177000444,None,4002.4405177000444,None,1,1.9443818000145257,4002.4405177000444,None,4004.4312537000515,None,4004.9522390000056,None,4004.9522390000056,None,n,0.36859180009923875,4004.9522390000056,None,,,"C,54",001,2022_May_04_1332,ProdSingRedo,3.2.3,59.91550716408479,
,,,,140,0,140,0,,,,,,,,,,,,,,,,,,,,,,,,4010.5047923999373,None,,,,,,,,,,,,,,,,,rural,new_aloud,red,140,128,269,4005.880798399914,None,4005.880798399914,None,4,3.088246600003913,4005.880798399914,None,4009.015741399955,None,4009.5440768001135,None,4009.5440768001135,None,f,0.9287862998899072,4009.5440768001135,None,,,"C,54",001,2022_May_04_1332,ProdSingRedo,3.2.3,59.91550716408479,
,,,,141,0,141,0,,,,,,,,,,,,,,,,,,,,,,,,4014.5264664001297,None,,,,,,,,,,,,,,,,,health,sing,blue,141,22,149,4011.0311471000314,None,4011.0311471000314,None,6,2.7137837999034673,4011.0311471000314,None,4013.789222900057,None,4014.3130060001276,None,4014.3130060001276,None,r,0.1759057000745088,4014.3130060001276,None,,,"C,54",001,2022_May_04_1332,ProdSingRedo,3.2.3,59.91550716408479,
,,,,142,0,142,0,,,,,,,,,,,,,,,,,,,,,,,,4016.9775813000742,None,,,,,,,,,,,,,,,,,goose,new_aloud,red,142,148,138,4015.053736800095,None,4015.053736800095,None,1,1.315223200013861,4015.053736800095,None,4016.408464200096,None,4016.929679800058,None,4016.929679800058,None,n,0.015230899909511209,4016.929679800058,None,,,"C,54",001,2022_May_04_1332,ProdSingRedo,3.2.3,59.91550716408479,
,,,,143,0,143,0,,,,,,,,,,,,,,,,,,,,,,,,4027.2817305999342,None,,,,,,,,,,,,,,,,,bright,sing,blue,143,23,29,4017.505120600108,None,4017.505120600108,None,5,9.183669299818575,4017.505120600108,None,4026.736894400092,None,4027.262228500098,None,4027.262228500098,None,f,0.0028580999933183193,4027.262228500098,None,,,"C,54",001,2022_May_04_1332,ProdSingRedo,3.2.3,59.91550716408479,
,,,,144,0,144,0,,,,,,,,,,,,,,,,,,,,,,,,4032.6442325001117,None,,,,,,,,,,,,,,,,,space,sing,blue,144,4,297,4027.8074173999485,None,4027.8074173999485,None,6,3.8335973999928683,4027.8074173999485,None,4031.6867901999503,None,4032.196744200075,None,4032.196744200075,None,r,0.41213639988563955,4032.196744200075,None,,,"C,54",001,2022_May_04_1332,ProdSingRedo,3.2.3,59.91550716408479,
,,,,145,0,145,0,,,,,,,,,,,,,,,,,,,,,,,,4035.949597900035,None,,,,,,,,,,,,,,,,,estate,new_aloud,red,145,147,119,4033.176371500129,None,4033.176371500129,None,1,1.048927699914202,4033.176371500129,None,4034.2780498999637,None,4034.7998564001173,None,4034.7998564001173,None,n,1.1208047000691295,4034.7998564001173,None,,,"C,54",001,2022_May_04_1332,ProdSingRedo,3.2.3,59.91550716408479,
,,,,146,0,146,0,,,,,,,,,,,,,,,,,,,,,,,,4039.7695679001044,None,,,,,,,,,,,,,,,,,republic,new_silent,yellow,146,161,260,4036.4732665000483,None,4036.4732665000483,None,5,2.543945899931714,4036.4732665000483,None,4039.0661180999596,None,4039.5886742000002,None,4039.5886742000002,None,f,0.1482433001510799,4039.5886742000002,None,,,"C,54",001,2022_May_04_1332,ProdSingRedo,3.2.3,59.91550716408479,
,,,,147,0,147,0,,,,,,,,,,,,,,,,,,,,,,,,4042.2736448999494,None,,,,,,,,,,,,,,,,,group,aloud,red,147,50,143,4040.296551000094,None,4040.296551000094,None,1,0.8005592999979854,4040.296551000094,None,4041.1353046000004,None,4041.656371100107,None,4041.656371100107,None,n,0.5844421999063343,4041.656371100107,None,,,"C,54",001,2022_May_04_1332,ProdSingRedo,3.2.3,59.91550716408479,
,,,,148,0,148,0,,,,,,,,,,,,,,,,,,,,,,,,4044.5377948000096,None,,,,,,,,,,,,,,,,,suggestion,silent,yellow,148,73,314,4042.7999434999656,None,4042.7999434999656,None,1,1.1209847999271005,4042.7999434999656,None,4043.972918600077,None,4044.4932293000165,None,4044.4932293000165,None,n,0.01933169993571937,4044.4932293000165,None,,,"C,54",001,2022_May_04_1332,ProdSingRedo,3.2.3,59.91550716408479,
,,,,149,0,149,0,,,,,,,,,,,,,,,,,,,,,,,,4046.775893199956,None,,,,,,,,,,,,,,,,,position,sing,blue,149,11,229,4045.0600066999905,None,4045.0600066999905,None,1,1.1087756999768317,4045.0600066999905,None,4046.203100600047,None,4046.7079181999434,None,4046.7079181999434,None,n,0.02870520018041134,4046.7079181999434,None,,,"C,54",001,2022_May_04_1332,ProdSingRedo,3.2.3,59.91550716408479,
,,,,150,0,150,0,,,,,,,,,,,,,,,,,,,,,,,,4049.4431115000043,None,,,,,,,,,,,,,,,,,appeal,new_silent,yellow,150,167,9,4047.3044903001282,None,4047.3044903001282,None,1,1.1523800999857485,4047.3044903001282,None,4048.5094290999696,None,4049.033493200084,None,4049.033493200084,None,n,0.3755193999968469,4049.033493200084,None,,,"C,54",001,2022_May_04_1332,ProdSingRedo,3.2.3,59.91550716408479,
,,,,151,0,151,0,,,,,,,,,,,,,,,,,,,,,,,,4051.845857599983,None,,,,,,,,,,,,,,,,,express,new_silent,yellow,151,152,124,4049.964987900108,None,4049.964987900108,None,1,1.2120733999181539,4049.964987900108,None,4051.223811700009,None,4051.7315138000995,None,4051.7315138000995,None,n,0.09336600010283291,4051.7315138000995,None,,,"C,54",001,2022_May_04_1332,ProdSingRedo,3.2.3,59.91550716408479,
,,,,152,0,152,0,,,,,,,,,,,,,,,,,,,,,,,,4054.03298550006,None,,,,,,,,,,,,,,,,,income,new_silent,yellow,152,178,159,4052.370188300032,None,4052.370188300032,None,1,1.046743799932301,4052.370188300032,None,4053.4601086999755,None,4053.9817413000856,None,4053.9817413000856,None,n,0.019486899953335524,4053.9817413000856,None,,,"C,54",001,2022_May_04_1332,ProdSingRedo,3.2.3,59.91550716408479,
,,,,153,0,153,0,,,,,,,,,,,,,,,,,,,,,,,,4056.150941699976,None,,,,,,,,,,,,,,,,,report,new_aloud,red,153,132,259,4054.5573841999285,None,4054.5573841999285,None,1,0.9314860999584198,4054.5573841999285,None,4055.5293708001263,None,4056.0490778000094,None,4056.0490778000094,None,n,0.0638050998095423,4056.0490778000094,None,,,"C,54",001,2022_May_04_1332,ProdSingRedo,3.2.3,59.91550716408479,
,,,,154,0,154,0,,,,,,,,,,,,,,,,,,,,,,,,4058.9297003000975,None,,,,,,,,,,,,,,,,,skill,silent,yellow,154,68,289,4056.677371399943,None,4056.677371399943,None,1,1.2436489998362958,4056.677371399943,None,4057.971577499993,None,4058.4905785000883,None,4058.4905785000883,None,n,0.41391700017265975,4058.4905785000883,None,,,"C,54",001,2022_May_04_1332,ProdSingRedo,3.2.3,59.91550716408479,
,,,,155,0,155,0,,,,,,,,,,,,,,,,,,,,,,,,4061.1224976000376,None,,,,,,,,,,,,,,,,,fashion,silent,yellow,155,67,125,4059.430666500004,None,4059.430666500004,None,1,1.0501624001190066,4059.430666500004,None,4060.5177072000224,None,4061.0426022999454,None,4061.0426022999454,None,n,0.04637610004283488,4061.0426022999454,None,,,"C,54",001,2022_May_04_1332,ProdSingRedo,3.2.3,59.91550716408479,
,,,,156,0,156,0,,,,,,,,,,,,,,,,,,,,,,,,4063.3247672000434,None,,,,,,,,,,,,,,,,,bitter,new_silent,yellow,156,150,23,4061.648972199997,None,4061.648972199997,None,1,1.0478888000361621,4061.648972199997,None,4062.7400148001034,None,4063.260280699935,None,4063.260280699935,None,n,0.028628600062802434,4063.260280699935,None,,,"C,54",001,2022_May_04_1332,ProdSingRedo,3.2.3,59.91550716408479,
,,,,157,0,157,0,,,,,,,,,,,,,,,,,,,,,,,,4066.5286898999475,None,,,,,,,,,,,,,,,,,generation,new_aloud,red,157,149,136,4063.851136100013,None,4063.851136100013,None,6,1.9975497999694198,4063.851136100013,None,4065.877876000013,None,4066.4004049000796,None,4066.4004049000796,None,r,0.09655040013603866,4066.4004049000796,None,,,"C,54",001,2022_May_04_1332,ProdSingRedo,3.2.3,59.91550716408479,
,,,,158,0,158,0,,,,,,,,,,,,,,,,,,,,,,,,4069.432596999919,None,,,,,,,,,,,,,,,,,background,aloud,red,158,37,16,4067.0591363999993,None,4067.0591363999993,None,1,1.7177132000215352,4067.0591363999993,None,4068.8295545999426,None,4069.3382179001346,None,4069.3382179001346,None,n,0.06270060013048351,4069.3382179001346,None,,,"C,54",001,2022_May_04_1332,ProdSingRedo,3.2.3,59.91550716408479,
,,,,159,0,159,0,,,,,,,,,,,,,,,,,,,,,,,,4072.2019064999186,None,,,,,,,,,,,,,,,,,drove,sing,blue,159,19,106,4069.9573681999464,None,4069.9573681999464,None,1,1.2357383999042213,4069.9573681999464,None,4071.2282611001283,None,4071.752951900009,None,4071.752951900009,None,n,0.4240059000439942,4071.752951900009,None,,,"C,54",001,2022_May_04_1332,ProdSingRedo,3.2.3,59.91550716408479,
,,,,160,0,160,0,,,,,,,,,,,,,,,,,,,,,,,,4074.634741200134,None,,,,,,,,,,,,,,,,,guard,sing,blue,160,28,145,4072.7263543000445,None,4072.7263543000445,None,1,1.250448799924925,4072.7263543000445,None,4074.0145980999805,None,4074.538263000082,None,4074.538263000082,None,n,0.06245799991302192,4074.538263000082,None,,,"C,54",001,2022_May_04_1332,ProdSingRedo,3.2.3,59.91550716408479,
,,,,161,0,161,0,,,,,,,,,,,,,,,,,,,,,,,,4077.0395845000166,None,,,,,,,,,,,,,,,,,quiet,new_sing,blue,161,97,249,4075.158695500111,None,4075.158695500111,None,1,0.8662369998637587,4075.158695500111,None,4076.0717662000097,None,4076.592930899933,None,4076.592930899933,None,n,0.4080083000008017,4076.592930899933,None,,,"C,54",001,2022_May_04_1332,ProdSingRedo,3.2.3,59.91550716408479,
,,,,162,0,162,0,,,,,,,,,,,,,,,,,,,,,,,,4079.241851700004,None,,,,,,,,,,,,,,,,,colonel,new_silent,yellow,162,179,55,4077.5623350001406,None,4077.5623350001406,None,1,1.0225237999111414,4077.5623350001406,None,4078.6184918000363,None,4079.1402455000207,None,4079.1402455000207,None,n,0.07665290008299053,4079.1402455000207,None,,,"C,54",001,2022_May_04_1332,ProdSingRedo,3.2.3,59.91550716408479,
,,,,163,0,163,0,,,,,,,,,,,,,,,,,,,,,,,,4082.5211426999886,None,,,,,,,,,,,,,,,,,listen,new_sing,blue,163,99,172,4079.76305170008,None,4079.76305170008,None,1,2.117864500032738,4079.76305170008,None,4081.921890600119,None,4082.4365791999735,None,4082.4365791999735,None,n,0.05989350005984306,4082.4365791999735,None,,,"C,54",001,2022_May_04_1332,ProdSingRedo,3.2.3,59.91550716408479,
,,,,164,0,164,0,,,,,,,,,,,,,,,,,,,,,,,,4084.4386722999625,None,,,,,,,,,,,,,,,,,youth,new_sing,blue,164,111,359,4083.0230576000176,None,4083.0230576000176,None,1,0.8175482000224292,4083.0230576000176,None,4083.8790557999164,None,4084.397162300069,None,4084.397162300069,None,n,0.019640100188553333,4084.397162300069,None,,,"C,54",001,2022_May_04_1332,ProdSingRedo,3.2.3,59.91550716408479,
,,,,165,0,165,0,,,,,,,,,,,,,,,,,,,,,,,,4087.0648169999477,None,,,,,,,,,,,,,,,,,service,silent,yellow,165,70,280,4084.9613797001075,None,4084.9613797001075,None,1,1.0634814000222832,4084.9613797001075,None,4086.0647519999184,None,4086.583946000086,None,4086.583946000086,None,n,0.45691330009140074,4086.583946000086,None,,,"C,54",001,2022_May_04_1332,ProdSingRedo,3.2.3,59.91550716408479,
,,,,166,0,166,0,,,,,,,,,,,,,,,,,,,,,,,,4089.243621899979,None,,,,,,,,,,,,,,,,,sweet,new_silent,yellow,166,151,319,4087.5906923001166,None,4087.5906923001166,None,1,1.0418627001345158,4087.5906923001166,None,4088.6810282000806,None,4089.1936715000775,None,4089.1936715000775,None,n,0.03096300014294684,4089.1936715000775,None,,,"C,54",001,2022_May_04_1332,ProdSingRedo,3.2.3,59.91550716408479,
,,,,167,0,167,0,,,,,,,,,,,,,,,,,,,,,,,,4092.806879400043,None,,,,,,,,,,,,,,,,,benefit,silent,yellow,167,82,20,4089.7633732999675,None,4089.7633732999675,None,3,2.05350110004656,4089.7633732999675,None,4091.874167500064,None,4092.387140000006,None,4092.387140000006,None,f,0.3818936999887228,4092.387140000006,None,,,"C,54",001,2022_May_04_1332,ProdSingRedo,3.2.3,59.91550716408479,
,,,,168,0,168,0,,,,,,,,,,,,,,,,,,,,,,,,4095.8579005000647,None,,,,,,,,,,,,,,,,,substance,new_silent,yellow,168,157,313,4093.3331393001135,None,4093.3331393001135,None,1,1.5317830999847502,4093.3331393001135,None,4094.9110059000086,None,4095.431496599922,None,4095.431496599922,None,n,0.3934214999899268,4095.431496599922,None,,,"C,54",001,2022_May_04_1332,ProdSingRedo,3.2.3,59.91550716408479,
,,,,169,0,169,0,,,,,,,,,,,,,,,,,,,,,,,,4099.210102099925,None,,,,,,,,,,,,,,,,,mechanical,aloud,red,169,33,185,4096.3886035000905,None,4096.3886035000905,None,1,2.1721298000775278,4096.3886035000905,None,4098.609422700014,None,4099.126291000051,None,4099.126291000051,None,n,0.058701699832454324,4099.126291000051,None,,,"C,54",001,2022_May_04_1332,ProdSingRedo,3.2.3,59.91550716408479,
,,,,170,0,170,0,,,,,,,,,,,,,,,,,,,,,,,,4101.315479299985,None,,,,,,,,,,,,,,,,,accident,new_silent,yellow,170,155,0,4099.739777900046,None,4099.739777900046,None,1,0.9650121999438852,4099.739777900046,None,4100.7444112999365,None,4101.265091500012,None,4101.265091500012,None,n,0.015797700034454465,4101.265091500012,None,,,"C,54",001,2022_May_04_1332,ProdSingRedo,3.2.3,59.91550716408479,
,,,,171,0,171,0,,,,,,,,,,,,,,,,,,,,,,,,4104.132740699919,None,,,,,,,,,,,,,,,,,broke,new_sing,blue,171,95,32,4101.842590200016,None,4101.842590200016,None,1,1.32626420003362,4101.842590200016,None,4103.210020700004,None,4103.718920700019,None,4103.718920700019,None,n,0.3859854999464005,4103.718920700019,None,,,"C,54",001,2022_May_04_1332,ProdSingRedo,3.2.3,59.91550716408479,
,,,,172,0,172,0,,,,,,,,,,,,,,,,,,,,,,,,4106.777610300109,None,,,,,,,,,,,,,,,,,frank,silent,yellow,172,64,133,4104.662828600034,None,4104.662828600034,None,1,1.5060684999916703,4104.662828600034,None,4106.2231817999855,None,4106.740685499972,None,4106.740685499972,None,n,0.011931100161746144,4106.740685499972,None,,,"C,54",001,2022_May_04_1332,ProdSingRedo,3.2.3,59.91550716408479,
,,,,173,0,173,0,,,,,,,,,,,,,,,,,,,,,,,,4111.206999100046,None,,,,,,,,,,,,,,,,,escape,aloud,red,173,49,118,4107.296552400105,None,4107.296552400105,None,4,3.0565639999695122,4107.296552400105,None,4110.40468139993,None,4110.925307000056,None,4110.925307000056,None,f,0.2433607999701053,4110.925307000056,None,,,"C,54",001,2022_May_04_1332,ProdSingRedo,3.2.3,59.91550716408479,
,,,,174,0,174,0,,,,,,,,,,,,,,,,,,,,,,,,4114.9968216000125,None,,,,,,,,,,,,,,,,,equipment,aloud,red,174,41,116,4111.732808199944,None,4111.732808199944,None,4,2.5399136000778526,4111.732808199944,None,4114.332652700134,None,4114.83187330002,None,4114.83187330002,None,f,0.13704829989001155,4114.83187330002,None,,,"C,54",001,2022_May_04_1332,ProdSingRedo,3.2.3,59.91550716408479,
,,,,175,0,175,0,,,,,,,,,,,,,,,,,,,,,,,,4118.096684300108,None,,,,,,,,,,,,,,,,,discovery,silent,yellow,175,62,95,4115.524367399979,None,4115.524367399979,None,1,1.6445118999108672,4115.524367399979,None,4117.213087399956,None,4117.718215500005,None,4117.718215500005,None,n,0.3548600999638438,4117.718215500005,None,,,"C,54",001,2022_May_04_1332,ProdSingRedo,3.2.3,59.91550716408479,
,,,,176,0,176,0,,,,,,,,,,,,,,,,,,,,,,,,4122.234383400064,None,,,,,,,,,,,,,,,,,platform,aloud,red,176,47,224,4118.63591079996,None,4118.63591079996,None,1,2.7009063998702914,4118.63591079996,None,4121.373937000055,None,4121.891224900028,None,4121.891224900028,None,n,0.3175867001991719,4121.891224900028,None,,,"C,54",001,2022_May_04_1332,ProdSingRedo,3.2.3,59.91550716408479,
,,,,177,0,177,0,,,,,,,,,,,,,,,,,,,,,,,,4124.803585200105,None,,,,,,,,,,,,,,,,,build,sing,blue,177,2,35,4122.758045000024,None,4122.758045000024,None,1,1.1387922000139952,4122.758045000024,None,4123.933059999952,None,4124.4544953999575,None,4124.4544953999575,None,n,0.32242520013824105,4124.4544953999575,None,,,"C,54",001,2022_May_04_1332,ProdSingRedo,3.2.3,59.91550716408479,
,,,,178,0,178,0,,,,,,,,,,,,,,,,,,,,,,,,4126.9875229001045,None,,,,,,,,,,,,,,,,,corner,new_aloud,red,178,135,69,4125.325849600136,None,4125.325849600136,None,1,1.0508410001639277,4125.325849600136,None,4126.40486879996,None,4126.91995260003,None,4126.91995260003,None,n,0.03299980005249381,4126.91995260003,None,,,"C,54",001,2022_May_04_1332,ProdSingRedo,3.2.3,59.91550716408479,
,,,,179,0,179,0,,,,,,,,,,,,,,,,,,,,,,,,4131.8610767000355,None,,,,,,,,,,,,,,,,,expansion,silent,yellow,179,72,123,4127.5155027001165,None,4127.5155027001165,None,1,3.4133703999686986,4127.5155027001165,None,4130.9780997000635,None,4131.497290699976,None,4131.497290699976,None,n,0.3356008999980986,4131.497290699976,None,,,"C,54",001,2022_May_04_1332,ProdSingRedo,3.2.3,59.91550716408479,
,,,,,,,,,,,,,,,,,,,,,,,,,,,,,,,,,,,,,,,,,,,,,,,,,,,,,,,,,,,,,,,,,,,,,,,,,4132.370696000056,None,,,,,,,
