StudyLoop.thisRepN,StudyLoop.thisTrialN,StudyLoop.thisN,StudyLoop.thisIndex,TestLoop.thisRepN,TestLoop.thisTrialN,TestLoop.thisN,TestLoop.thisIndex,textCondition.started,textCondition.stopped,keyCondition.keys,keyCondition.rt,keyCondition.started,keyCondition.stopped,Condition,stim_colors,color_sing,color_aloud,color_silent,textWelcome.started,textWelcome.stopped,keyWelcome.keys,keyWelcome.rt,keyWelcome.started,keyWelcome.stopped,textAloud.started,textAloud.stopped,textSilent.started,textSilent.stopped,textSing.started,textSing.stopped,textBlank500.started,textBlank500.stopped,study_word,study_type,study_color,study_num,study_word_num,textStudy.started,textStudy.stopped,keyStudy.keys,keyStudy.started,keyStudy.stopped,textTestInstructions.started,textTestInstructions.stopped,key_resp_3.keys,key_resp_3.rt,key_resp_3.started,key_resp_3.stopped,testWord,testType,testColor,testN,test_num,test_word_num,textConf.started,textConf.stopped,textConfScale.started,textConfScale.stopped,keyConf.keys,keyConf.rt,keyConf.started,keyConf.stopped,textTestBlank.started,textTestBlank.stopped,textRKN.started,textRKN.stopped,textRKNScale.started,textRKNScale.stopped,keyRKN.keys,keyRKN.rt,keyRKN.started,keyRKN.stopped,textEnd.started,textEnd.stopped,participant,session,date,expName,psychopyVersion,frameRate
,,,,,,,,11.5769236,None,y,3.6651959,11.5769236,None,,,,,,,,,,,,,,,,,,,,,,,,,,,,,,,,,,,,,,,,,,,,,,,,,,,,,,,,,,,,,,color13b,1,2021_Nov_11_1151,ProdSingRedo,3.2.3,59.98350448
,,,,,,,,,,,,,,ColoredTest,"['yellow', 'blue', 'red']",yellow,blue,red,15.2898969,None,space,308.1885918,15.2898969,None,,,,,,,,,,,,,,,,,,,,,,,,,,,,,,,,,,,,,,,,,,,,,,,,,,,color13b,1,2021_Nov_11_1151,ProdSingRedo,3.2.3,59.98350448
0,0,0,0,,,,,,,,,,,,,,,,,,,,,,15.2898969,None,15.2898969,None,15.2898969,None,326.0146988,None,instrument,silent,red,80,163,324.017649,None,None,324.017649,None,,,,,,,,,,,,,,,,,,,,,,,,,,,,,,,,,color13b,1,2021_Nov_11_1151,ProdSingRedo,3.2.3,59.98350448
1,0,1,0,,,,,,,,,,,,,,,,,,,,,,,,,,,,328.5318789,None,light,aloud,blue,42,171,326.5270339,None,None,326.5270339,None,,,,,,,,,,,,,,,,,,,,,,,,,,,,,,,,,color13b,1,2021_Nov_11_1151,ProdSingRedo,3.2.3,59.98350448
2,0,2,0,,,,,,,,,,,,,,,,,,,,,,,,,,,,331.0482109,None,evidence,sing,yellow,19,120,329.0503152,None,None,329.0503152,None,,,,,,,,,,,,,,,,,,,,,,,,,,,,,,,,,color13b,1,2021_Nov_11_1151,ProdSingRedo,3.2.3,59.98350448
3,0,3,0,,,,,,,,,,,,,,,,,,,,,,,,,,,,333.5648576,None,beginning,silent,red,63,19,331.5712982,None,None,331.5712982,None,,,,,,,,,,,,,,,,,,,,,,,,,,,,,,,,,color13b,1,2021_Nov_11_1151,ProdSingRedo,3.2.3,59.98350448
4,0,4,0,,,,,,,,,,,,,,,,,,,,,,,,,,,,336.0807996,None,fight,sing,yellow,6,127,334.0792864,None,None,334.0792864,None,,,,,,,,,,,,,,,,,,,,,,,,,,,,,,,,,color13b,1,2021_Nov_11_1151,ProdSingRedo,3.2.3,59.98350448
5,0,5,0,,,,,,,,,,,,,,,,,,,,,,,,,,,,338.5984456,None,phrase,aloud,blue,34,220,336.5895506,None,None,336.5895506,None,,,,,,,,,,,,,,,,,,,,,,,,,,,,,,,,,color13b,1,2021_Nov_11_1151,ProdSingRedo,3.2.3,59.98350448
6,0,6,0,,,,,,,,,,,,,,,,,,,,,,,,,,,,341.1153317,None,death,silent,red,83,86,339.1128461,None,None,339.1128461,None,,,,,,,,,,,,,,,,,,,,,,,,,,,,,,,,,color13b,1,2021_Nov_11_1151,ProdSingRedo,3.2.3,59.98350448
7,0,7,0,,,,,,,,,,,,,,,,,,,,,,,,,,,,343.632275,None,bucket,sing,yellow,29,33,341.6377154,None,None,341.6377154,None,,,,,,,,,,,,,,,,,,,,,,,,,,,,,,,,,color13b,1,2021_Nov_11_1151,ProdSingRedo,3.2.3,59.98350448
8,0,8,0,,,,,,,,,,,,,,,,,,,,,,,,,,,,346.1486193,None,service,aloud,blue,33,280,344.14665,None,None,344.14665,None,,,,,,,,,,,,,,,,,,,,,,,,,,,,,,,,,color13b,1,2021_Nov_11_1151,ProdSingRedo,3.2.3,59.98350448
9,0,9,0,,,,,,,,,,,,,,,,,,,,,,,,,,,,348.6687616,None,comedy,silent,red,72,58,346.6666619,None,None,346.6666619,None,,,,,,,,,,,,,,,,,,,,,,,,,,,,,,,,,color13b,1,2021_Nov_11_1151,ProdSingRedo,3.2.3,59.98350448
10,0,10,0,,,,,,,,,,,,,,,,,,,,,,,,,,,,351.182752,None,split,aloud,blue,52,299,349.1823099,None,None,349.1823099,None,,,,,,,,,,,,,,,,,,,,,,,,,,,,,,,,,color13b,1,2021_Nov_11_1151,ProdSingRedo,3.2.3,59.98350448
11,0,11,0,,,,,,,,,,,,,,,,,,,,,,,,,,,,353.6995571,None,prime,silent,red,75,235,351.6949892,None,None,351.6949892,None,,,,,,,,,,,,,,,,,,,,,,,,,,,,,,,,,color13b,1,2021_Nov_11_1151,ProdSingRedo,3.2.3,59.98350448
12,0,12,0,,,,,,,,,,,,,,,,,,,,,,,,,,,,356.2163825,None,guard,aloud,blue,43,145,354.2117408,None,None,354.2117408,None,,,,,,,,,,,,,,,,,,,,,,,,,,,,,,,,,color13b,1,2021_Nov_11_1151,ProdSingRedo,3.2.3,59.98350448
13,0,13,0,,,,,,,,,,,,,,,,,,,,,,,,,,,,358.7332059,None,foundation,silent,red,69,132,356.7333765,None,None,356.7333765,None,,,,,,,,,,,,,,,,,,,,,,,,,,,,,,,,,color13b,1,2021_Nov_11_1151,ProdSingRedo,3.2.3,59.98350448
14,0,14,0,,,,,,,,,,,,,,,,,,,,,,,,,,,,361.2502122,None,ground,aloud,blue,50,142,359.2478318,None,None,359.2478318,None,,,,,,,,,,,,,,,,,,,,,,,,,,,,,,,,,color13b,1,2021_Nov_11_1151,ProdSingRedo,3.2.3,59.98350448
15,0,15,0,,,,,,,,,,,,,,,,,,,,,,,,,,,,363.7671079,None,welcome,aloud,blue,57,354,361.7632927,None,None,361.7632927,None,,,,,,,,,,,,,,,,,,,,,,,,,,,,,,,,,color13b,1,2021_Nov_11_1151,ProdSingRedo,3.2.3,59.98350448
16,0,16,0,,,,,,,,,,,,,,,,,,,,,,,,,,,,366.282568,None,employment,aloud,blue,48,111,364.2847512,None,None,364.2847512,None,,,,,,,,,,,,,,,,,,,,,,,,,,,,,,,,,color13b,1,2021_Nov_11_1151,ProdSingRedo,3.2.3,59.98350448
17,0,17,0,,,,,,,,,,,,,,,,,,,,,,,,,,,,368.8005546,None,entrance,silent,red,66,115,366.7981449,None,None,366.7981449,None,,,,,,,,,,,,,,,,,,,,,,,,,,,,,,,,,color13b,1,2021_Nov_11_1151,ProdSingRedo,3.2.3,59.98350448
18,0,18,0,,,,,,,,,,,,,,,,,,,,,,,,,,,,371.3172924,None,account,silent,red,73,1,369.3200147,None,None,369.3200147,None,,,,,,,,,,,,,,,,,,,,,,,,,,,,,,,,,color13b,1,2021_Nov_11_1151,ProdSingRedo,3.2.3,59.98350448
19,0,19,0,,,,,,,,,,,,,,,,,,,,,,,,,,,,373.8344471,None,smooth,silent,red,62,292,371.8274246,None,None,371.8274246,None,,,,,,,,,,,,,,,,,,,,,,,,,,,,,,,,,color13b,1,2021_Nov_11_1151,ProdSingRedo,3.2.3,59.98350448
20,0,20,0,,,,,,,,,,,,,,,,,,,,,,,,,,,,376.3511668,None,corner,aloud,blue,45,69,374.3440784,None,None,374.3440784,None,,,,,,,,,,,,,,,,,,,,,,,,,,,,,,,,,color13b,1,2021_Nov_11_1151,ProdSingRedo,3.2.3,59.98350448
21,0,21,0,,,,,,,,,,,,,,,,,,,,,,,,,,,,378.8680184,None,stand,silent,red,64,302,376.8645586,None,None,376.8645586,None,,,,,,,,,,,,,,,,,,,,,,,,,,,,,,,,,color13b,1,2021_Nov_11_1151,ProdSingRedo,3.2.3,59.98350448
22,0,22,0,,,,,,,,,,,,,,,,,,,,,,,,,,,,381.3847414,None,incident,aloud,blue,31,158,379.3784868,None,None,379.3784868,None,,,,,,,,,,,,,,,,,,,,,,,,,,,,,,,,,color13b,1,2021_Nov_11_1151,ProdSingRedo,3.2.3,59.98350448
23,0,23,0,,,,,,,,,,,,,,,,,,,,,,,,,,,,383.9015829,None,touch,sing,yellow,4,332,381.897577,None,None,381.897577,None,,,,,,,,,,,,,,,,,,,,,,,,,,,,,,,,,color13b,1,2021_Nov_11_1151,ProdSingRedo,3.2.3,59.98350448
24,0,24,0,,,,,,,,,,,,,,,,,,,,,,,,,,,,386.4187799,None,machinery,aloud,blue,38,175,384.4186645,None,None,384.4186645,None,,,,,,,,,,,,,,,,,,,,,,,,,,,,,,,,,color13b,1,2021_Nov_11_1151,ProdSingRedo,3.2.3,59.98350448
25,0,25,0,,,,,,,,,,,,,,,,,,,,,,,,,,,,388.9368909,None,native,sing,yellow,26,199,386.9337772,None,None,386.9337772,None,,,,,,,,,,,,,,,,,,,,,,,,,,,,,,,,,color13b,1,2021_Nov_11_1151,ProdSingRedo,3.2.3,59.98350448
26,0,26,0,,,,,,,,,,,,,,,,,,,,,,,,,,,,391.4511575,None,express,silent,red,67,124,389.4462234,None,None,389.4462234,None,,,,,,,,,,,,,,,,,,,,,,,,,,,,,,,,,color13b,1,2021_Nov_11_1151,ProdSingRedo,3.2.3,59.98350448
27,0,27,0,,,,,,,,,,,,,,,,,,,,,,,,,,,,393.9690421,None,hearing,silent,red,87,150,391.9664701,None,None,391.9664701,None,,,,,,,,,,,,,,,,,,,,,,,,,,,,,,,,,color13b,1,2021_Nov_11_1151,ProdSingRedo,3.2.3,59.98350448
28,0,28,0,,,,,,,,,,,,,,,,,,,,,,,,,,,,396.4853306,None,drink,aloud,blue,59,105,394.4704496,None,None,394.4704496,None,,,,,,,,,,,,,,,,,,,,,,,,,,,,,,,,,color13b,1,2021_Nov_11_1151,ProdSingRedo,3.2.3,59.98350448
29,0,29,0,,,,,,,,,,,,,,,,,,,,,,,,,,,,399.0029928,None,court,sing,yellow,9,75,396.9977641,None,None,396.9977641,None,,,,,,,,,,,,,,,,,,,,,,,,,,,,,,,,,color13b,1,2021_Nov_11_1151,ProdSingRedo,3.2.3,59.98350448
30,0,30,0,,,,,,,,,,,,,,,,,,,,,,,,,,,,401.5195695,None,count,sing,yellow,8,72,399.5158586,None,None,399.5158586,None,,,,,,,,,,,,,,,,,,,,,,,,,,,,,,,,,color13b,1,2021_Nov_11_1151,ProdSingRedo,3.2.3,59.98350448
31,0,31,0,,,,,,,,,,,,,,,,,,,,,,,,,,,,404.0363216,None,question,sing,yellow,27,247,402.0394574,None,None,402.0394574,None,,,,,,,,,,,,,,,,,,,,,,,,,,,,,,,,,color13b,1,2021_Nov_11_1151,ProdSingRedo,3.2.3,59.98350448
32,0,32,0,,,,,,,,,,,,,,,,,,,,,,,,,,,,406.5542161,None,permit,sing,yellow,21,218,404.5460334,None,None,404.5460334,None,,,,,,,,,,,,,,,,,,,,,,,,,,,,,,,,,color13b,1,2021_Nov_11_1151,ProdSingRedo,3.2.3,59.98350448
33,0,33,0,,,,,,,,,,,,,,,,,,,,,,,,,,,,409.0700091,None,population,silent,red,77,227,407.0737456,None,None,407.0737456,None,,,,,,,,,,,,,,,,,,,,,,,,,,,,,,,,,color13b,1,2021_Nov_11_1151,ProdSingRedo,3.2.3,59.98350448
34,0,34,0,,,,,,,,,,,,,,,,,,,,,,,,,,,,411.5859814,None,heavy,aloud,blue,44,151,409.572074,None,None,409.572074,None,,,,,,,,,,,,,,,,,,,,,,,,,,,,,,,,,color13b,1,2021_Nov_11_1151,ProdSingRedo,3.2.3,59.98350448
35,0,35,0,,,,,,,,,,,,,,,,,,,,,,,,,,,,414.086041,None,career,sing,yellow,20,42,412.0864829,None,None,412.0864829,None,,,,,,,,,,,,,,,,,,,,,,,,,,,,,,,,,color13b,1,2021_Nov_11_1151,ProdSingRedo,3.2.3,59.98350448
36,0,36,0,,,,,,,,,,,,,,,,,,,,,,,,,,,,416.6039503,None,salary,silent,red,82,271,414.6077309,None,None,414.6077309,None,,,,,,,,,,,,,,,,,,,,,,,,,,,,,,,,,color13b,1,2021_Nov_11_1151,ProdSingRedo,3.2.3,59.98350448
37,0,37,0,,,,,,,,,,,,,,,,,,,,,,,,,,,,419.1207707,None,spoke,aloud,blue,56,300,417.1184454,None,None,417.1184454,None,,,,,,,,,,,,,,,,,,,,,,,,,,,,,,,,,color13b,1,2021_Nov_11_1151,ProdSingRedo,3.2.3,59.98350448
38,0,38,0,,,,,,,,,,,,,,,,,,,,,,,,,,,,421.6379504,None,shape,silent,red,61,282,419.635138,None,None,419.635138,None,,,,,,,,,,,,,,,,,,,,,,,,,,,,,,,,,color13b,1,2021_Nov_11_1151,ProdSingRedo,3.2.3,59.98350448
39,0,39,0,,,,,,,,,,,,,,,,,,,,,,,,,,,,424.1547567,None,trail,aloud,blue,37,336,422.1427517,None,None,422.1427517,None,,,,,,,,,,,,,,,,,,,,,,,,,,,,,,,,,color13b,1,2021_Nov_11_1151,ProdSingRedo,3.2.3,59.98350448
40,0,40,0,,,,,,,,,,,,,,,,,,,,,,,,,,,,426.6717244,None,birth,silent,red,76,22,424.6688213,None,None,424.6688213,None,,,,,,,,,,,,,,,,,,,,,,,,,,,,,,,,,color13b,1,2021_Nov_11_1151,ProdSingRedo,3.2.3,59.98350448
41,0,41,0,,,,,,,,,,,,,,,,,,,,,,,,,,,,429.1880983,None,platform,sing,yellow,22,224,427.1885463,None,None,427.1885463,None,,,,,,,,,,,,,,,,,,,,,,,,,,,,,,,,,color13b,1,2021_Nov_11_1151,ProdSingRedo,3.2.3,59.98350448
42,0,42,0,,,,,,,,,,,,,,,,,,,,,,,,,,,,431.7040797,None,running,silent,red,71,268,429.7048588,None,None,429.7048588,None,,,,,,,,,,,,,,,,,,,,,,,,,,,,,,,,,color13b,1,2021_Nov_11_1151,ProdSingRedo,3.2.3,59.98350448
43,0,43,0,,,,,,,,,,,,,,,,,,,,,,,,,,,,434.2222824,None,track,sing,yellow,14,334,432.2199897,None,None,432.2199897,None,,,,,,,,,,,,,,,,,,,,,,,,,,,,,,,,,color13b,1,2021_Nov_11_1151,ProdSingRedo,3.2.3,59.98350448
44,0,44,0,,,,,,,,,,,,,,,,,,,,,,,,,,,,436.7387403,None,angle,silent,red,74,7,434.7339518,None,None,434.7339518,None,,,,,,,,,,,,,,,,,,,,,,,,,,,,,,,,,color13b,1,2021_Nov_11_1151,ProdSingRedo,3.2.3,59.98350448
45,0,45,0,,,,,,,,,,,,,,,,,,,,,,,,,,,,439.2553875,None,education,sing,yellow,16,108,437.2562684,None,None,437.2562684,None,,,,,,,,,,,,,,,,,,,,,,,,,,,,,,,,,color13b,1,2021_Nov_11_1151,ProdSingRedo,3.2.3,59.98350448
46,0,46,0,,,,,,,,,,,,,,,,,,,,,,,,,,,,441.7722302,None,motion,aloud,blue,46,194,439.765536,None,None,439.765536,None,,,,,,,,,,,,,,,,,,,,,,,,,,,,,,,,,color13b,1,2021_Nov_11_1151,ProdSingRedo,3.2.3,59.98350448
47,0,47,0,,,,,,,,,,,,,,,,,,,,,,,,,,,,444.2892412,None,engineer,silent,red,85,114,442.2872817,None,None,442.2872817,None,,,,,,,,,,,,,,,,,,,,,,,,,,,,,,,,,color13b,1,2021_Nov_11_1151,ProdSingRedo,3.2.3,59.98350448
48,0,48,0,,,,,,,,,,,,,,,,,,,,,,,,,,,,446.8063291,None,frank,sing,yellow,18,133,444.805342,None,None,444.805342,None,,,,,,,,,,,,,,,,,,,,,,,,,,,,,,,,,color13b,1,2021_Nov_11_1151,ProdSingRedo,3.2.3,59.98350448
49,0,49,0,,,,,,,,,,,,,,,,,,,,,,,,,,,,449.3227298,None,article,sing,yellow,17,11,447.3193882,None,None,447.3193882,None,,,,,,,,,,,,,,,,,,,,,,,,,,,,,,,,,color13b,1,2021_Nov_11_1151,ProdSingRedo,3.2.3,59.98350448
50,0,50,0,,,,,,,,,,,,,,,,,,,,,,,,,,,,451.8395855,None,resistance,sing,yellow,24,262,449.8421083,None,None,449.8421083,None,,,,,,,,,,,,,,,,,,,,,,,,,,,,,,,,,color13b,1,2021_Nov_11_1151,ProdSingRedo,3.2.3,59.98350448
51,0,51,0,,,,,,,,,,,,,,,,,,,,,,,,,,,,454.3565265,None,story,silent,red,65,306,452.3523743,None,None,452.3523743,None,,,,,,,,,,,,,,,,,,,,,,,,,,,,,,,,,color13b,1,2021_Nov_11_1151,ProdSingRedo,3.2.3,59.98350448
52,0,52,0,,,,,,,,,,,,,,,,,,,,,,,,,,,,456.8732897,None,distance,silent,red,78,100,454.8708298,None,None,454.8708298,None,,,,,,,,,,,,,,,,,,,,,,,,,,,,,,,,,color13b,1,2021_Nov_11_1151,ProdSingRedo,3.2.3,59.98350448
53,0,53,0,,,,,,,,,,,,,,,,,,,,,,,,,,,,459.3903098,None,under,aloud,blue,30,343,457.383735,None,None,457.383735,None,,,,,,,,,,,,,,,,,,,,,,,,,,,,,,,,,color13b,1,2021_Nov_11_1151,ProdSingRedo,3.2.3,59.98350448
54,0,54,0,,,,,,,,,,,,,,,,,,,,,,,,,,,,461.9072018,None,expansion,silent,red,70,123,459.9042856,None,None,459.9042856,None,,,,,,,,,,,,,,,,,,,,,,,,,,,,,,,,,color13b,1,2021_Nov_11_1151,ProdSingRedo,3.2.3,59.98350448
55,0,55,0,,,,,,,,,,,,,,,,,,,,,,,,,,,,464.4237137,None,religion,sing,yellow,25,258,462.422508,None,None,462.422508,None,,,,,,,,,,,,,,,,,,,,,,,,,,,,,,,,,color13b,1,2021_Nov_11_1151,ProdSingRedo,3.2.3,59.98350448
56,0,56,0,,,,,,,,,,,,,,,,,,,,,,,,,,,,466.9406987,None,device,aloud,blue,32,93,464.9374101,None,None,464.9374101,None,,,,,,,,,,,,,,,,,,,,,,,,,,,,,,,,,color13b,1,2021_Nov_11_1151,ProdSingRedo,3.2.3,59.98350448
57,0,57,0,,,,,,,,,,,,,,,,,,,,,,,,,,,,469.4575105,None,minor,aloud,blue,55,191,467.4501524,None,None,467.4501524,None,,,,,,,,,,,,,,,,,,,,,,,,,,,,,,,,,color13b,1,2021_Nov_11_1151,ProdSingRedo,3.2.3,59.98350448
58,0,58,0,,,,,,,,,,,,,,,,,,,,,,,,,,,,471.9742914,None,reading,sing,yellow,7,254,469.9728793,None,None,469.9728793,None,,,,,,,,,,,,,,,,,,,,,,,,,,,,,,,,,color13b,1,2021_Nov_11_1151,ProdSingRedo,3.2.3,59.98350448
59,0,59,0,,,,,,,,,,,,,,,,,,,,,,,,,,,,474.490351,None,generation,silent,red,68,136,472.4927591,None,None,472.4927591,None,,,,,,,,,,,,,,,,,,,,,,,,,,,,,,,,,color13b,1,2021_Nov_11_1151,ProdSingRedo,3.2.3,59.98350448
60,0,60,0,,,,,,,,,,,,,,,,,,,,,,,,,,,,476.9918836,None,hunger,sing,yellow,23,155,474.9912324,None,None,474.9912324,None,,,,,,,,,,,,,,,,,,,,,,,,,,,,,,,,,color13b,1,2021_Nov_11_1151,ProdSingRedo,3.2.3,59.98350448
61,0,61,0,,,,,,,,,,,,,,,,,,,,,,,,,,,,479.5082749,None,sleep,silent,red,81,290,477.5010948,None,None,477.5010948,None,,,,,,,,,,,,,,,,,,,,,,,,,,,,,,,,,color13b,1,2021_Nov_11_1151,ProdSingRedo,3.2.3,59.98350448
62,0,62,0,,,,,,,,,,,,,,,,,,,,,,,,,,,,482.0249988,None,breath,silent,red,79,27,480.0255823,None,None,480.0255823,None,,,,,,,,,,,,,,,,,,,,,,,,,,,,,,,,,color13b,1,2021_Nov_11_1151,ProdSingRedo,3.2.3,59.98350448
63,0,63,0,,,,,,,,,,,,,,,,,,,,,,,,,,,,484.541971,None,tough,silent,red,88,333,482.5394301,None,None,482.5394301,None,,,,,,,,,,,,,,,,,,,,,,,,,,,,,,,,,color13b,1,2021_Nov_11_1151,ProdSingRedo,3.2.3,59.98350448
64,0,64,0,,,,,,,,,,,,,,,,,,,,,,,,,,,,487.0587105,None,material,sing,yellow,12,182,485.0594245,None,None,485.0594245,None,,,,,,,,,,,,,,,,,,,,,,,,,,,,,,,,,color13b,1,2021_Nov_11_1151,ProdSingRedo,3.2.3,59.98350448
65,0,65,0,,,,,,,,,,,,,,,,,,,,,,,,,,,,489.5757449,None,store,aloud,blue,54,305,487.5664699,None,None,487.5664699,None,,,,,,,,,,,,,,,,,,,,,,,,,,,,,,,,,color13b,1,2021_Nov_11_1151,ProdSingRedo,3.2.3,59.98350448
66,0,66,0,,,,,,,,,,,,,,,,,,,,,,,,,,,,492.0919812,None,pancakes,aloud,blue,51,210,490.0956076,None,None,490.0956076,None,,,,,,,,,,,,,,,,,,,,,,,,,,,,,,,,,color13b,1,2021_Nov_11_1151,ProdSingRedo,3.2.3,59.98350448
67,0,67,0,,,,,,,,,,,,,,,,,,,,,,,,,,,,494.6091231,None,cross,silent,red,60,80,492.6029007,None,None,492.6029007,None,,,,,,,,,,,,,,,,,,,,,,,,,,,,,,,,,color13b,1,2021_Nov_11_1151,ProdSingRedo,3.2.3,59.98350448
68,0,68,0,,,,,,,,,,,,,,,,,,,,,,,,,,,,497.1261632,None,drama,aloud,blue,58,103,495.1232053,None,None,495.1232053,None,,,,,,,,,,,,,,,,,,,,,,,,,,,,,,,,,color13b,1,2021_Nov_11_1151,ProdSingRedo,3.2.3,59.98350448
69,0,69,0,,,,,,,,,,,,,,,,,,,,,,,,,,,,499.6428318,None,couch,sing,yellow,13,70,497.6427936,None,None,497.6427936,None,,,,,,,,,,,,,,,,,,,,,,,,,,,,,,,,,color13b,1,2021_Nov_11_1151,ProdSingRedo,3.2.3,59.98350448
70,0,70,0,,,,,,,,,,,,,,,,,,,,,,,,,,,,502.1596328,None,beauty,sing,yellow,15,18,500.146369,None,None,500.146369,None,,,,,,,,,,,,,,,,,,,,,,,,,,,,,,,,,color13b,1,2021_Nov_11_1151,ProdSingRedo,3.2.3,59.98350448
71,0,71,0,,,,,,,,,,,,,,,,,,,,,,,,,,,,504.6764546,None,owner,sing,yellow,2,208,502.6741858,None,None,502.6741858,None,,,,,,,,,,,,,,,,,,,,,,,,,,,,,,,,,color13b,1,2021_Nov_11_1151,ProdSingRedo,3.2.3,59.98350448
72,0,72,0,,,,,,,,,,,,,,,,,,,,,,,,,,,,507.1933434,None,afternoon,aloud,blue,36,3,505.1899461,None,None,505.1899461,None,,,,,,,,,,,,,,,,,,,,,,,,,,,,,,,,,color13b,1,2021_Nov_11_1151,ProdSingRedo,3.2.3,59.98350448
73,0,73,0,,,,,,,,,,,,,,,,,,,,,,,,,,,,509.7101992,None,second,silent,red,89,278,507.7038594,None,None,507.7038594,None,,,,,,,,,,,,,,,,,,,,,,,,,,,,,,,,,color13b,1,2021_Nov_11_1151,ProdSingRedo,3.2.3,59.98350448
74,0,74,0,,,,,,,,,,,,,,,,,,,,,,,,,,,,512.2271322,None,society,silent,red,84,293,510.225131,None,None,510.225131,None,,,,,,,,,,,,,,,,,,,,,,,,,,,,,,,,,color13b,1,2021_Nov_11_1151,ProdSingRedo,3.2.3,59.98350448
75,0,75,0,,,,,,,,,,,,,,,,,,,,,,,,,,,,514.7438006,None,cover,sing,yellow,1,77,512.7437851,None,None,512.7437851,None,,,,,,,,,,,,,,,,,,,,,,,,,,,,,,,,,color13b,1,2021_Nov_11_1151,ProdSingRedo,3.2.3,59.98350448
76,0,76,0,,,,,,,,,,,,,,,,,,,,,,,,,,,,517.2599116,None,danger,sing,yellow,0,85,515.2581313,None,None,515.2581313,None,,,,,,,,,,,,,,,,,,,,,,,,,,,,,,,,,color13b,1,2021_Nov_11_1151,ProdSingRedo,3.2.3,59.98350448
77,0,77,0,,,,,,,,,,,,,,,,,,,,,,,,,,,,519.7776499,None,relation,sing,yellow,11,257,517.7666632,None,None,517.7666632,None,,,,,,,,,,,,,,,,,,,,,,,,,,,,,,,,,color13b,1,2021_Nov_11_1151,ProdSingRedo,3.2.3,59.98350448
78,0,78,0,,,,,,,,,,,,,,,,,,,,,,,,,,,,522.2937732,None,crisis,aloud,blue,49,79,520.2864024,None,None,520.2864024,None,,,,,,,,,,,,,,,,,,,,,,,,,,,,,,,,,color13b,1,2021_Nov_11_1151,ProdSingRedo,3.2.3,59.98350448
79,0,79,0,,,,,,,,,,,,,,,,,,,,,,,,,,,,524.8112282,None,error,silent,red,86,117,522.7976302,None,None,522.7976302,None,,,,,,,,,,,,,,,,,,,,,,,,,,,,,,,,,color13b,1,2021_Nov_11_1151,ProdSingRedo,3.2.3,59.98350448
80,0,80,0,,,,,,,,,,,,,,,,,,,,,,,,,,,,527.3108291,None,history,aloud,blue,39,153,525.3099302,None,None,525.3099302,None,,,,,,,,,,,,,,,,,,,,,,,,,,,,,,,,,color13b,1,2021_Nov_11_1151,ProdSingRedo,3.2.3,59.98350448
81,0,81,0,,,,,,,,,,,,,,,,,,,,,,,,,,,,529.8282047,None,committee,aloud,blue,47,62,527.8156466,None,None,527.8156466,None,,,,,,,,,,,,,,,,,,,,,,,,,,,,,,,,,color13b,1,2021_Nov_11_1151,ProdSingRedo,3.2.3,59.98350448
82,0,82,0,,,,,,,,,,,,,,,,,,,,,,,,,,,,532.3449253,None,short,aloud,blue,41,285,530.3379776,None,None,530.3379776,None,,,,,,,,,,,,,,,,,,,,,,,,,,,,,,,,,color13b,1,2021_Nov_11_1151,ProdSingRedo,3.2.3,59.98350448
83,0,83,0,,,,,,,,,,,,,,,,,,,,,,,,,,,,534.8623152,None,drove,aloud,blue,53,106,532.8576567,None,None,532.8576567,None,,,,,,,,,,,,,,,,,,,,,,,,,,,,,,,,,color13b,1,2021_Nov_11_1151,ProdSingRedo,3.2.3,59.98350448
84,0,84,0,,,,,,,,,,,,,,,,,,,,,,,,,,,,537.3791611,None,crime,aloud,blue,35,78,535.366088,None,None,535.366088,None,,,,,,,,,,,,,,,,,,,,,,,,,,,,,,,,,color13b,1,2021_Nov_11_1151,ProdSingRedo,3.2.3,59.98350448
85,0,85,0,,,,,,,,,,,,,,,,,,,,,,,,,,,,539.894522,None,finance,sing,yellow,5,129,537.895297,None,None,537.895297,None,,,,,,,,,,,,,,,,,,,,,,,,,,,,,,,,,color13b,1,2021_Nov_11_1151,ProdSingRedo,3.2.3,59.98350448
86,0,86,0,,,,,,,,,,,,,,,,,,,,,,,,,,,,542.4123437,None,scale,aloud,blue,40,272,540.4079366,None,None,540.4079366,None,,,,,,,,,,,,,,,,,,,,,,,,,,,,,,,,,color13b,1,2021_Nov_11_1151,ProdSingRedo,3.2.3,59.98350448
87,0,87,0,,,,,,,,,,,,,,,,,,,,,,,,,,,,544.9126675,None,suspect,sing,yellow,3,318,542.9133393,None,None,542.9133393,None,,,,,,,,,,,,,,,,,,,,,,,,,,,,,,,,,color13b,1,2021_Nov_11_1151,ProdSingRedo,3.2.3,59.98350448
88,0,88,0,,,,,,,,,,,,,,,,,,,,,,,,,,,,547.4295878,None,message,sing,yellow,10,189,545.4298918,None,None,545.4298918,None,,,,,,,,,,,,,,,,,,,,,,,,,,,,,,,,,color13b,1,2021_Nov_11_1151,ProdSingRedo,3.2.3,59.98350448
89,0,89,0,,,,,,,,,,,,,,,,,,,,,,,,,,,,549.946378,None,tragedy,sing,yellow,28,335,547.9466461,None,None,547.9466461,None,,,,,,,,,,,,,,,,,,,,,,,,,,,,,,,,,color13b,1,2021_Nov_11_1151,ProdSingRedo,3.2.3,59.98350448
,,,,,,,,,,,,,,,,,,,,,,,,,,,,,,,,,,,,,,,,,,,550.4463307,None,k,252.4958339,550.4463307,None,,,,,,,,,,,,,,,,,,,,,,,,,,,color13b,1,2021_Nov_11_1151,ProdSingRedo,3.2.3,59.98350448
,,,,0,0,0,0,,,,,,,,,,,,,,,,,,,,,,,,818.1076409,None,,,,,,,,,,,,,,,,,platform,sing,yellow,0,22,224,803.4777814,None,803.4777814,None,6,11.812682,803.4777814,None,815.3463946,None,815.8463676,None,815.8463676,None,f,2.2202055,815.8463676,None,,,color13b,1,2021_Nov_11_1151,ProdSingRedo,3.2.3,59.98350448
,,,,1,0,1,0,,,,,,,,,,,,,,,,,,,,,,,,823.9745786,None,,,,,,,,,,,,,,,,,pretty,new_sing,yellow,1,94,233,818.6330602,None,818.6330602,None,6,3.2975819,818.6330602,None,821.9714181,None,822.4928738,None,822.4928738,None,r,1.4537578,822.4928738,None,,,color13b,1,2021_Nov_11_1151,ProdSingRedo,3.2.3,59.98350448
,,,,2,0,2,0,,,,,,,,,,,,,,,,,,,,,,,,835.0592643,None,,,,,,,,,,,,,,,,,spoke,aloud,blue,2,56,300,824.4962588,None,824.4962588,None,6,5.5622916,824.4962588,None,830.1054429,None,830.6279122,None,830.6279122,None,r,4.3984837,830.6279122,None,,,color13b,1,2021_Nov_11_1151,ProdSingRedo,3.2.3,59.98350448
,,,,3,0,3,0,,,,,,,,,,,,,,,,,,,,,,,,845.3832163,None,,,,,,,,,,,,,,,,,fight,sing,yellow,3,6,127,835.5843748,None,835.5843748,None,6,5.2581957,835.5843748,None,840.8896867,None,841.4006233,None,841.4006233,None,r,3.9461909,841.4006233,None,,,color13b,1,2021_Nov_11_1151,ProdSingRedo,3.2.3,59.98350448
,,,,4,0,4,0,,,,,,,,,,,,,,,,,,,,,,,,857.0773242,None,,,,,,,,,,,,,,,,,grade,new_sing,yellow,4,118,140,845.903329,None,845.903329,None,5,6.939166,845.903329,None,852.9056814,None,853.413838,None,853.413838,None,r,3.6286552,853.413838,None,,,color13b,1,2021_Nov_11_1151,ProdSingRedo,3.2.3,59.98350448
,,,,5,0,5,0,,,,,,,,,,,,,,,,,,,,,,,,865.4087475,None,,,,,,,,,,,,,,,,,hearing,silent,red,5,87,150,857.6073467,None,857.6073467,None,6,3.8272793,857.6073467,None,861.4758196,None,861.9971064,None,861.9971064,None,r,3.3734154,861.9971064,None,,,color13b,1,2021_Nov_11_1151,ProdSingRedo,3.2.3,59.98350448
,,,,6,0,6,0,,,,,,,,,,,,,,,,,,,,,,,,873.1791589,None,,,,,,,,,,,,,,,,,community,new_aloud,blue,6,139,63,865.9343667,None,865.9343667,None,6,2.5484827,865.9343667,None,868.5305602,None,869.04779,None,869.04779,None,f,4.0989428,869.04779,None,,,color13b,1,2021_Nov_11_1151,ProdSingRedo,3.2.3,59.98350448
,,,,7,0,7,0,,,,,,,,,,,,,,,,,,,,,,,,878.9437455,None,,,,,,,,,,,,,,,,,population,silent,red,7,77,227,873.7023951,None,873.7023951,None,6,2.0917352,873.7023951,None,875.8201484,None,876.3375198,None,876.3375198,None,r,2.5689931,876.3375198,None,,,color13b,1,2021_Nov_11_1151,ProdSingRedo,3.2.3,59.98350448
,,,,8,0,8,0,,,,,,,,,,,,,,,,,,,,,,,,889.7672548,None,,,,,,,,,,,,,,,,,straight,new_silent,red,8,151,307,879.4734306,None,879.4734306,None,5,3.7050589,879.4734306,None,883.2321918,None,883.7495251,None,883.7495251,None,f,5.9811059,883.7495251,None,,,color13b,1,2021_Nov_11_1151,ProdSingRedo,3.2.3,59.98350448
,,,,9,0,9,0,,,,,,,,,,,,,,,,,,,,,,,,896.4116285,None,,,,,,,,,,,,,,,,,front,new_sing,yellow,9,109,134,890.283768,None,890.283768,None,6,2.6547161,890.283768,None,892.9874398,None,893.4957148,None,893.4957148,None,f,2.8827537,893.4957148,None,,,color13b,1,2021_Nov_11_1151,ProdSingRedo,3.2.3,59.98350448
,,,,10,0,10,0,,,,,,,,,,,,,,,,,,,,,,,,902.3125023,None,,,,,,,,,,,,,,,,,phrase,aloud,blue,10,34,220,896.9404618,None,896.9404618,None,6,2.8620246,896.9404618,None,899.8381745,None,900.3522051,None,900.3522051,None,f,1.9303213,900.3522051,None,,,color13b,1,2021_Nov_11_1151,ProdSingRedo,3.2.3,59.98350448
,,,,11,0,11,0,,,,,,,,,,,,,,,,,,,,,,,,909.2108752,None,,,,,,,,,,,,,,,,,light,aloud,blue,11,42,171,902.8388117,None,902.8388117,None,6,3.795944,902.8388117,None,906.6656368,None,907.1695206,None,907.1695206,None,r,2.0246699,907.1695206,None,,,color13b,1,2021_Nov_11_1151,ProdSingRedo,3.2.3,59.98350448
,,,,12,0,12,0,,,,,,,,,,,,,,,,,,,,,,,,916.3965751,None,,,,,,,,,,,,,,,,,still,new_aloud,blue,12,149,304,909.7343753,None,909.7343753,None,5,4.0441165,909.7343753,None,913.8243475,None,914.3468351,None,914.3468351,None,f,2.0155981,914.3468351,None,,,color13b,1,2021_Nov_11_1151,ProdSingRedo,3.2.3,59.98350448
,,,,13,0,13,0,,,,,,,,,,,,,,,,,,,,,,,,924.7929656,None,,,,,,,,,,,,,,,,,childhood,new_aloud,blue,13,132,49,916.9203911,None,916.9203911,None,6,4.826192,916.9203911,None,921.7766885,None,922.2968921,None,922.2968921,None,r,2.4657123,922.2968921,None,,,color13b,1,2021_Nov_11_1151,ProdSingRedo,3.2.3,59.98350448
,,,,14,0,14,0,,,,,,,,,,,,,,,,,,,,,,,,928.9809148,None,,,,,,,,,,,,,,,,,permit,sing,yellow,14,21,218,925.3173489,None,925.3173489,None,6,1.6451349,925.3173489,None,927.0106754,None,927.5302881,None,927.5302881,None,r,1.4162178,927.5302881,None,,,color13b,1,2021_Nov_11_1151,ProdSingRedo,3.2.3,59.98350448
,,,,15,0,15,0,,,,,,,,,,,,,,,,,,,,,,,,935.9725277,None,,,,,,,,,,,,,,,,,resistance,sing,yellow,15,24,262,929.5089107,None,929.5089107,None,6,2.8855844,929.5089107,None,932.4613958,None,932.9694578,None,932.9694578,None,f,2.9847784,932.9694578,None,,,color13b,1,2021_Nov_11_1151,ProdSingRedo,3.2.3,59.98350448
,,,,16,0,16,0,,,,,,,,,,,,,,,,,,,,,,,,942.2147552,None,,,,,,,,,,,,,,,,,second,silent,red,16,89,278,936.4733211,None,936.4733211,None,6,3.3932908,936.4733211,None,939.9142545,None,940.4292675,None,940.4292675,None,n,1.7493442,940.4292675,None,,,color13b,1,2021_Nov_11_1151,ProdSingRedo,3.2.3,59.98350448
,,,,17,0,17,0,,,,,,,,,,,,,,,,,,,,,,,,948.7988683,None,,,,,,,,,,,,,,,,,crisis,aloud,blue,17,49,79,942.7364331,None,942.7364331,None,6,1.7060958,942.7364331,None,944.4918464,None,945.0095132,None,945.0095132,None,f,3.7617058,945.0095132,None,,,color13b,1,2021_Nov_11_1151,ProdSingRedo,3.2.3,59.98350448
,,,,18,0,18,0,,,,,,,,,,,,,,,,,,,,,,,,956.0331721,None,,,,,,,,,,,,,,,,,detective,new_sing,yellow,18,97,92,949.3263466,None,949.3263466,None,4,3.3242995,949.3263466,None,952.6939798,None,953.2195335,None,953.2195335,None,n,2.7829519,953.2195335,None,,,color13b,1,2021_Nov_11_1151,ProdSingRedo,3.2.3,59.98350448
,,,,19,0,19,0,,,,,,,,,,,,,,,,,,,,,,,,964.9505425,None,,,,,,,,,,,,,,,,,threat,new_sing,yellow,19,103,329,956.5599453,None,956.5599453,None,3,4.4027496,956.5599453,None,961.015171,None,961.5350148,None,961.5350148,None,f,3.3879191,961.5350148,None,,,color13b,1,2021_Nov_11_1151,ProdSingRedo,3.2.3,59.98350448
,,,,20,0,20,0,,,,,,,,,,,,,,,,,,,,,,,,974.6769897,None,,,,,,,,,,,,,,,,,trail,aloud,blue,20,37,336,965.4775242,None,965.4775242,None,6,6.4612879,965.4775242,None,971.9836639,None,972.5030326,None,972.5030326,None,r,2.1393544,972.5030326,None,,,color13b,1,2021_Nov_11_1151,ProdSingRedo,3.2.3,59.98350448
,,,,21,0,21,0,,,,,,,,,,,,,,,,,,,,,,,,982.4340982,None,,,,,,,,,,,,,,,,,nation,new_silent,red,21,158,198,975.1943238,None,975.1943238,None,5,3.9442775,975.1943238,None,979.1772258,None,979.704164,None,979.704164,None,f,2.7063881,979.704164,None,,,color13b,1,2021_Nov_11_1151,ProdSingRedo,3.2.3,59.98350448
,,,,22,0,22,0,,,,,,,,,,,,,,,,,,,,,,,,988.6692209,None,,,,,,,,,,,,,,,,,addition,new_sing,yellow,22,99,2,982.9574405,None,982.9574405,None,6,2.6051976,982.9574405,None,985.6171543,None,986.1368527,None,986.1368527,None,r,2.5058008,986.1368527,None,,,color13b,1,2021_Nov_11_1151,ProdSingRedo,3.2.3,59.98350448
,,,,23,0,23,0,,,,,,,,,,,,,,,,,,,,,,,,997.2863038,None,,,,,,,,,,,,,,,,,music,new_aloud,blue,23,141,196,989.1928612,None,989.1928612,None,2,3.8896362,989.1928612,None,993.1299831,None,993.6556059,None,993.6556059,None,f,3.5949198,993.6556059,None,,,color13b,1,2021_Nov_11_1151,ProdSingRedo,3.2.3,59.98350448
,,,,24,0,24,0,,,,,,,,,,,,,,,,,,,,,,,,1004.469294,None,,,,,,,,,,,,,,,,,council,new_aloud,blue,24,140,71,997.8098721,None,997.8098721,None,1,3.0407438,997.8098721,None,1000.897959,None,1001.425815,None,1001.425815,None,f,3.008709,1001.425815,None,,,color13b,1,2021_Nov_11_1151,ProdSingRedo,3.2.3,59.98350448
,,,,25,0,25,0,,,,,,,,,,,,,,,,,,,,,,,,1011.662861,None,,,,,,,,,,,,,,,,,tragedy,sing,yellow,25,28,335,1005.001178,None,1005.001178,None,6,1.9774138,1005.001178,None,1007.017189,None,1007.544682,None,1007.544682,None,r,4.0896655,1007.544682,None,,,color13b,1,2021_Nov_11_1151,ProdSingRedo,3.2.3,59.98350448
,,,,26,0,26,0,,,,,,,,,,,,,,,,,,,,,,,,1017.853744,None,,,,,,,,,,,,,,,,,medicine,new_sing,yellow,26,93,186,1012.184373,None,1012.184373,None,6,2.5382951,1012.184373,None,1014.760643,None,1015.270553,None,1015.270553,None,r,2.5561503,1015.270553,None,,,color13b,1,2021_Nov_11_1151,ProdSingRedo,3.2.3,59.98350448
,,,,27,0,27,0,,,,,,,,,,,,,,,,,,,,,,,,1022.855547,None,,,,,,,,,,,,,,,,,object,new_silent,red,27,164,204,1018.388036,None,1018.388036,None,6,2.0069605,1018.388036,None,1020.429975,None,1020.956318,None,1020.956318,None,f,1.8708603,1020.956318,None,,,color13b,1,2021_Nov_11_1151,ProdSingRedo,3.2.3,59.98350448
,,,,28,0,28,0,,,,,,,,,,,,,,,,,,,,,,,,1028.705352,None,,,,,,,,,,,,,,,,,prime,silent,red,28,75,235,1023.382387,None,1023.382387,None,2,2.1644034,1023.382387,None,1025.583663,None,1026.077749,None,1026.077749,None,f,2.5968212,1026.077749,None,,,color13b,1,2021_Nov_11_1151,ProdSingRedo,3.2.3,59.98350448
,,,,29,0,29,0,,,,,,,,,,,,,,,,,,,,,,,,1035.871671,None,,,,,,,,,,,,,,,,,clean,new_sing,yellow,29,111,51,1029.229996,None,1029.229996,None,3,2.9326469,1029.229996,None,1032.203394,None,1032.722645,None,1032.722645,None,f,3.1120348,1032.722645,None,,,color13b,1,2021_Nov_11_1151,ProdSingRedo,3.2.3,59.98350448
,,,,30,0,30,0,,,,,,,,,,,,,,,,,,,,,,,,1042.065044,None,,,,,,,,,,,,,,,,,command,new_silent,red,30,153,60,1036.387864,None,1036.387864,None,1,2.99875,1036.387864,None,1039.440309,None,1039.960509,None,1039.960509,None,n,2.0819543,1039.960509,None,,,color13b,1,2021_Nov_11_1151,ProdSingRedo,3.2.3,59.98350448
,,,,31,0,31,0,,,,,,,,,,,,,,,,,,,,,,,,1046.37236,None,,,,,,,,,,,,,,,,,frank,sing,yellow,31,18,133,1042.587297,None,1042.587297,None,6,1.4152695,1042.587297,None,1044.049502,None,1044.577193,None,1044.577193,None,n,1.7613842,1044.577193,None,,,color13b,1,2021_Nov_11_1151,ProdSingRedo,3.2.3,59.98350448
,,,,32,0,32,0,,,,,,,,,,,,,,,,,,,,,,,,1050.989146,None,,,,,,,,,,,,,,,,,health,new_silent,red,32,154,149,1046.888775,None,1046.888775,None,5,2.042027,1046.888775,None,1048.974143,None,1049.496074,None,1049.496074,None,f,1.4667815,1049.496074,None,,,color13b,1,2021_Nov_11_1151,ProdSingRedo,3.2.3,59.98350448
,,,,33,0,33,0,,,,,,,,,,,,,,,,,,,,,,,,1055.813381,None,,,,,,,,,,,,,,,,,relation,sing,yellow,33,11,257,1051.516441,None,1051.516441,None,6,1.4221672,1051.516441,None,1053.004631,None,1053.510813,None,1053.510813,None,r,2.2754794,1053.510813,None,,,color13b,1,2021_Nov_11_1151,ProdSingRedo,3.2.3,59.98350448
,,,,34,0,34,0,,,,,,,,,,,,,,,,,,,,,,,,1061.799054,None,,,,,,,,,,,,,,,,,engineer,silent,red,34,85,114,1056.314627,None,1056.314627,None,6,1.3599689,1056.314627,None,1057.718191,None,1058.244265,None,1058.244265,None,f,3.5343445,1058.244265,None,,,color13b,1,2021_Nov_11_1151,ProdSingRedo,3.2.3,59.98350448
,,,,35,0,35,0,,,,,,,,,,,,,,,,,,,,,,,,1068.607138,None,,,,,,,,,,,,,,,,,break,new_silent,red,35,177,26,1062.324715,None,1062.324715,None,3,2.1098298,1062.324715,None,1064.480396,None,1065.000793,None,1065.000793,None,f,3.5786403,1065.000793,None,,,color13b,1,2021_Nov_11_1151,ProdSingRedo,3.2.3,59.98350448
,,,,36,0,36,0,,,,,,,,,,,,,,,,,,,,,,,,1074.091059,None,,,,,,,,,,,,,,,,,south,new_aloud,blue,36,122,296,1069.131438,None,1069.131438,None,1,1.5432234,1069.131438,None,1070.721762,None,1071.24563,None,1071.24563,None,f,2.8051421,1071.24563,None,,,color13b,1,2021_Nov_11_1151,ProdSingRedo,3.2.3,59.98350448
,,,,37,0,37,0,,,,,,,,,,,,,,,,,,,,,,,,1079.49996,None,,,,,,,,,,,,,,,,,guard,aloud,blue,37,43,145,1074.618255,None,1074.618255,None,5,2.4003486,1074.618255,None,1077.067883,None,1077.592224,None,1077.592224,None,f,1.8822711,1077.592224,None,,,color13b,1,2021_Nov_11_1151,ProdSingRedo,3.2.3,59.98350448
,,,,38,0,38,0,,,,,,,,,,,,,,,,,,,,,,,,1084.724514,None,,,,,,,,,,,,,,,,,curve,new_silent,red,38,152,82,1080.014036,None,1080.014036,None,1,2.0605784,1080.014036,None,1082.125891,None,1082.644525,None,1082.644525,None,n,2.0546378,1082.644525,None,,,color13b,1,2021_Nov_11_1151,ProdSingRedo,3.2.3,59.98350448
,,,,39,0,39,0,,,,,,,,,,,,,,,,,,,,,,,,1089.990667,None,,,,,,,,,,,,,,,,,hunger,sing,yellow,39,23,155,1085.25305,None,1085.25305,None,6,1.5256092,1085.25305,None,1086.826042,None,1087.336582,None,1087.336582,None,r,2.6181653,1087.336582,None,,,color13b,1,2021_Nov_11_1151,ProdSingRedo,3.2.3,59.98350448
,,,,40,0,40,0,,,,,,,,,,,,,,,,,,,,,,,,1097.10871,None,,,,,,,,,,,,,,,,,interior,new_aloud,blue,40,127,164,1090.515457,None,1090.515457,None,5,3.0473043,1090.515457,None,1093.599284,None,1094.110212,None,1094.110212,None,r,2.9725954,1094.110212,None,,,color13b,1,2021_Nov_11_1151,ProdSingRedo,3.2.3,59.98350448
,,,,41,0,41,0,,,,,,,,,,,,,,,,,,,,,,,,1104.142698,None,,,,,,,,,,,,,,,,,smooth,silent,red,41,62,292,1097.619597,None,1097.619597,None,5,4.6388369,1097.619597,None,1102.305519,None,1102.827289,None,1102.827289,None,f,1.2794161,1102.827289,None,,,color13b,1,2021_Nov_11_1151,ProdSingRedo,3.2.3,59.98350448
,,,,42,0,42,0,,,,,,,,,,,,,,,,,,,,,,,,1108.843505,None,,,,,,,,,,,,,,,,,defeat,new_sing,yellow,42,119,88,1104.674657,None,1104.674657,None,1,1.6081254,1104.674657,None,1106.320729,None,1106.851915,None,1106.851915,None,f,1.9666615,1106.851915,None,,,color13b,1,2021_Nov_11_1151,ProdSingRedo,3.2.3,59.98350448
,,,,43,0,43,0,,,,,,,,,,,,,,,,,,,,,,,,1114.063797,None,,,,,,,,,,,,,,,,,danger,sing,yellow,43,0,85,1109.371794,None,1109.371794,None,5,1.7509565,1109.371794,None,1111.178364,None,1111.701464,None,1111.701464,None,f,2.3251849,1111.701464,None,,,color13b,1,2021_Nov_11_1151,ProdSingRedo,3.2.3,59.98350448
,,,,44,0,44,0,,,,,,,,,,,,,,,,,,,,,,,,1120.093903,None,,,,,,,,,,,,,,,,,answer,new_sing,yellow,44,114,8,1114.587216,None,1114.587216,None,1,2.1675403,1114.587216,None,1116.810495,None,1117.328258,None,1117.328258,None,r,2.7385676,1117.328258,None,,,color13b,1,2021_Nov_11_1151,ProdSingRedo,3.2.3,59.98350448
,,,,45,0,45,0,,,,,,,,,,,,,,,,,,,,,,,,1125.932192,None,,,,,,,,,,,,,,,,,drama,aloud,blue,45,58,103,1120.620277,None,1120.620277,None,6,1.3663673,1120.620277,None,1122.028595,None,1122.546588,None,1122.546588,None,f,3.3523722,1122.546588,None,,,color13b,1,2021_Nov_11_1151,ProdSingRedo,3.2.3,59.98350448
,,,,46,0,46,0,,,,,,,,,,,,,,,,,,,,,,,,1131.593944,None,,,,,,,,,,,,,,,,,number,new_sing,yellow,46,110,203,1126.453694,None,1126.453694,None,2,1.7250031,1126.453694,None,1128.23086,None,1128.752061,None,1128.752061,None,f,2.8027305,1128.752061,None,,,color13b,1,2021_Nov_11_1151,ProdSingRedo,3.2.3,59.98350448
,,,,47,0,47,0,,,,,,,,,,,,,,,,,,,,,,,,1135.778411,None,,,,,,,,,,,,,,,,,employment,aloud,blue,47,48,111,1132.118587,None,1132.118587,None,6,1.3081472,1132.118587,None,1133.472412,None,1133.987514,None,1133.987514,None,r,1.759185,1133.987514,None,,,color13b,1,2021_Nov_11_1151,ProdSingRedo,3.2.3,59.98350448
,,,,48,0,48,0,,,,,,,,,,,,,,,,,,,,,,,,1141.011879,None,,,,,,,,,,,,,,,,,appearance,new_aloud,blue,48,145,10,1136.310773,None,1136.310773,None,6,2.2119426,1136.310773,None,1138.574812,None,1139.105188,None,1139.105188,None,r,1.881675,1139.105188,None,,,color13b,1,2021_Nov_11_1151,ProdSingRedo,3.2.3,59.98350448
,,,,49,0,49,0,,,,,,,,,,,,,,,,,,,,,,,,1146.18778,None,,,,,,,,,,,,,,,,,novel,new_sing,yellow,49,115,202,1141.535006,None,1141.535006,None,1,1.3797642,1141.535006,None,1142.960048,None,1143.480568,None,1143.480568,None,f,2.689782,1143.480568,None,,,color13b,1,2021_Nov_11_1151,ProdSingRedo,3.2.3,59.98350448
,,,,50,0,50,0,,,,,,,,,,,,,,,,,,,,,,,,1150.295855,None,,,,,,,,,,,,,,,,,broke,new_sing,yellow,50,90,32,1146.706035,None,1146.706035,None,6,1.8971403,1146.706035,None,1148.645798,None,1149.166548,None,1149.166548,None,r,1.1000776,1149.166548,None,,,color13b,1,2021_Nov_11_1151,ProdSingRedo,3.2.3,59.98350448
,,,,51,0,51,0,,,,,,,,,,,,,,,,,,,,,,,,1159.831148,None,,,,,,,,,,,,,,,,,count,sing,yellow,51,8,72,1150.821593,None,1150.821593,None,3,5.0450426,1150.821593,None,1155.910349,None,1156.429491,None,1156.429491,None,f,3.3650982,1156.429491,None,,,color13b,1,2021_Nov_11_1151,ProdSingRedo,3.2.3,59.98350448
,,,,52,0,52,0,,,,,,,,,,,,,,,,,,,,,,,,1167.980946,None,,,,,,,,,,,,,,,,,instrument,silent,red,52,80,163,1160.357007,None,1160.357007,None,1,2.5733911,1160.357007,None,1162.956376,None,1163.481844,None,1163.481844,None,r,4.4648349,1163.481844,None,,,color13b,1,2021_Nov_11_1151,ProdSingRedo,3.2.3,59.98350448
,,,,53,0,53,0,,,,,,,,,,,,,,,,,,,,,,,,1175.064022,None,,,,,,,,,,,,,,,,,business,new_silent,red,53,162,38,1168.507171,None,1168.507171,None,4,2.5356675,1168.507171,None,1171.091862,None,1171.62116,None,1171.62116,None,f,3.4057225,1171.62116,None,,,color13b,1,2021_Nov_11_1151,ProdSingRedo,3.2.3,59.98350448
,,,,54,0,54,0,,,,,,,,,,,,,,,,,,,,,,,,1182.480817,None,,,,,,,,,,,,,,,,,concern,new_sing,yellow,54,112,65,1175.57815,None,1175.57815,None,6,3.7765756,1175.57815,None,1179.378598,None,1179.898112,None,1179.898112,None,f,2.5446212,1179.898112,None,,,color13b,1,2021_Nov_11_1151,ProdSingRedo,3.2.3,59.98350448
,,,,55,0,55,0,,,,,,,,,,,,,,,,,,,,,,,,1188.507551,None,,,,,,,,,,,,,,,,,evidence,sing,yellow,55,19,120,1183.008822,None,1183.008822,None,4,3.7300251,1183.008822,None,1186.781741,None,1187.303867,None,1187.303867,None,r,1.1867487,1187.303867,None,,,color13b,1,2021_Nov_11_1151,ProdSingRedo,3.2.3,59.98350448
,,,,56,0,56,0,,,,,,,,,,,,,,,,,,,,,,,,1194.148896,None,,,,,,,,,,,,,,,,,power,new_silent,red,56,169,230,1189.02628,None,1189.02628,None,2,1.9127721,1189.02628,None,1190.977777,None,1191.491227,None,1191.491227,None,f,2.6234579,1191.491227,None,,,color13b,1,2021_Nov_11_1151,ProdSingRedo,3.2.3,59.98350448
,,,,57,0,57,0,,,,,,,,,,,,,,,,,,,,,,,,1199.349793,None,,,,,,,,,,,,,,,,,cover,sing,yellow,57,1,77,1194.674422,None,1194.674422,None,4,1.5923477,1194.674422,None,1196.313627,None,1196.836042,None,1196.836042,None,f,2.4873962,1196.836042,None,,,color13b,1,2021_Nov_11_1151,ProdSingRedo,3.2.3,59.98350448
,,,,58,0,58,0,,,,,,,,,,,,,,,,,,,,,,,,1204.116235,None,,,,,,,,,,,,,,,,,disease,new_sing,yellow,58,102,97,1199.875583,None,1199.875583,None,1,1.3672505,1199.875583,None,1201.296187,None,1201.822434,None,1201.822434,None,f,2.2602976,1201.822434,None,,,color13b,1,2021_Nov_11_1151,ProdSingRedo,3.2.3,59.98350448
,,,,59,0,59,0,,,,,,,,,,,,,,,,,,,,,,,,1210.464625,None,,,,,,,,,,,,,,,,,stand,silent,red,59,64,302,1204.641898,None,1204.641898,None,4,2.2329592,1204.641898,None,1206.909358,None,1207.435837,None,1207.435837,None,r,2.9908743,1207.435837,None,,,color13b,1,2021_Nov_11_1151,ProdSingRedo,3.2.3,59.98350448
,,,,60,0,60,0,,,,,,,,,,,,,,,,,,,,,,,,1214.499324,None,,,,,,,,,,,,,,,,,error,silent,red,60,86,117,1210.977495,None,1210.977495,None,6,1.7051193,1210.977495,None,1212.718624,None,1213.227254,None,1213.227254,None,r,1.2397819,1213.227254,None,,,color13b,1,2021_Nov_11_1151,ProdSingRedo,3.2.3,59.98350448
,,,,61,0,61,0,,,,,,,,,,,,,,,,,,,,,,,,1220.383305,None,,,,,,,,,,,,,,,,,motion,aloud,blue,61,46,194,1215.022857,None,1215.022857,None,6,2.4840846,1215.022857,None,1217.545012,None,1218.065749,None,1218.065749,None,f,2.2810874,1218.065749,None,,,color13b,1,2021_Nov_11_1151,ProdSingRedo,3.2.3,59.98350448
,,,,62,0,62,0,,,,,,,,,,,,,,,,,,,,,,,,1227.00836,None,,,,,,,,,,,,,,,,,tough,silent,red,62,88,333,1220.911398,None,1220.911398,None,5,2.3073749,1220.911398,None,1223.269794,None,1223.787574,None,1223.787574,None,r,3.190816,1223.787574,None,,,color13b,1,2021_Nov_11_1151,ProdSingRedo,3.2.3,59.98350448
,,,,63,0,63,0,,,,,,,,,,,,,,,,,,,,,,,,1232.690622,None,,,,,,,,,,,,,,,,,owner,sing,yellow,63,2,208,1227.527875,None,1227.527875,None,3,1.9868942,1227.527875,None,1229.560034,None,1230.07175,None,1230.07175,None,f,2.5789354,1230.07175,None,,,color13b,1,2021_Nov_11_1151,ProdSingRedo,3.2.3,59.98350448
,,,,64,0,64,0,,,,,,,,,,,,,,,,,,,,,,,,1237.218108,None,,,,,,,,,,,,,,,,,revolution,new_sing,yellow,64,106,264,1233.215281,None,1233.215281,None,1,1.6195626,1233.215281,None,1234.891338,None,1235.405716,None,1235.405716,None,n,1.781074,1235.405716,None,,,color13b,1,2021_Nov_11_1151,ProdSingRedo,3.2.3,59.98350448
,,,,65,0,65,0,,,,,,,,,,,,,,,,,,,,,,,,1242.718207,None,,,,,,,,,,,,,,,,,beginning,silent,red,65,63,19,1237.747365,None,1237.747365,None,1,1.6955823,1237.747365,None,1239.486493,None,1239.995445,None,1239.995445,None,f,2.6872444,1239.995445,None,,,color13b,1,2021_Nov_11_1151,ProdSingRedo,3.2.3,59.98350448
,,,,66,0,66,0,,,,,,,,,,,,,,,,,,,,,,,,1248.985224,None,,,,,,,,,,,,,,,,,capital,new_aloud,blue,66,124,40,1243.247347,None,1243.247347,None,2,1.7153944,1243.247347,None,1245.01306,None,1245.540597,None,1245.540597,None,n,3.4140006,1245.540597,None,,,color13b,1,2021_Nov_11_1151,ProdSingRedo,3.2.3,59.98350448
,,,,67,0,67,0,,,,,,,,,,,,,,,,,,,,,,,,1254.503265,None,,,,,,,,,,,,,,,,,finance,sing,yellow,67,5,129,1249.502218,None,1249.502218,None,6,1.532541,1249.502218,None,1251.096187,None,1251.609105,None,1251.609105,None,r,2.8577251,1251.609105,None,,,color13b,1,2021_Nov_11_1151,ProdSingRedo,3.2.3,59.98350448
,,,,68,0,68,0,,,,,,,,,,,,,,,,,,,,,,,,1260.688793,None,,,,,,,,,,,,,,,,,incident,aloud,blue,68,31,158,1255.024822,None,1255.024822,None,6,3.377894,1255.024822,None,1258.451604,None,1258.970752,None,1258.970752,None,f,1.6885117,1258.970752,None,,,color13b,1,2021_Nov_11_1151,ProdSingRedo,3.2.3,59.98350448
,,,,69,0,69,0,,,,,,,,,,,,,,,,,,,,,,,,1265.629389,None,,,,,,,,,,,,,,,,,member,new_sing,yellow,69,108,188,1261.208898,None,1261.208898,None,3,1.7539502,1261.208898,None,1263.004295,None,1263.524998,None,1263.524998,None,f,2.0774503,1263.524998,None,,,color13b,1,2021_Nov_11_1151,ProdSingRedo,3.2.3,59.98350448
,,,,70,0,70,0,,,,,,,,,,,,,,,,,,,,,,,,1269.503845,None,,,,,,,,,,,,,,,,,pancakes,aloud,blue,70,51,210,1266.147668,None,1266.147668,None,6,1.319147,1266.147668,None,1267.528614,None,1268.043864,None,1268.043864,None,r,1.4230165,1268.043864,None,,,color13b,1,2021_Nov_11_1151,ProdSingRedo,3.2.3,59.98350448
,,,,71,0,71,0,,,,,,,,,,,,,,,,,,,,,,,,1274.772213,None,,,,,,,,,,,,,,,,,broad,new_silent,red,71,167,31,1270.032577,None,1270.032577,None,6,1.5464753,1270.032577,None,1271.616888,None,1272.143924,None,1272.143924,None,n,2.5949285,1272.143924,None,,,color13b,1,2021_Nov_11_1151,ProdSingRedo,3.2.3,59.98350448
,,,,72,0,72,0,,,,,,,,,,,,,,,,,,,,,,,,1279.333912,None,,,,,,,,,,,,,,,,,group,new_silent,red,72,159,143,1275.298869,None,1275.298869,None,5,1.5920593,1275.298869,None,1276.931827,None,1277.460492,None,1277.460492,None,r,1.8223017,1277.460492,None,,,color13b,1,2021_Nov_11_1151,ProdSingRedo,3.2.3,59.98350448
,,,,73,0,73,0,,,,,,,,,,,,,,,,,,,,,,,,1284.822269,None,,,,,,,,,,,,,,,,,express,silent,red,73,67,124,1279.860536,None,1279.860536,None,3,2.1582783,1279.860536,None,1282.06511,None,1282.586884,None,1282.586884,None,n,2.2082077,1282.586884,None,,,color13b,1,2021_Nov_11_1151,ProdSingRedo,3.2.3,59.98350448
,,,,74,0,74,0,,,,,,,,,,,,,,,,,,,,,,,,1289.625338,None,,,,,,,,,,,,,,,,,suggestion,new_aloud,blue,74,133,314,1285.35285,None,1285.35285,None,5,1.6980775,1285.35285,None,1287.110435,None,1287.626928,None,1287.626928,None,f,1.9599216,1287.626928,None,,,color13b,1,2021_Nov_11_1151,ProdSingRedo,3.2.3,59.98350448
,,,,75,0,75,0,,,,,,,,,,,,,,,,,,,,,,,,1295.912899,None,,,,,,,,,,,,,,,,,division,new_silent,red,75,163,101,1290.140731,None,1290.140731,None,6,2.7020553,1290.140731,None,1292.890651,None,1293.415486,None,1293.415486,None,f,2.4750413,1293.415486,None,,,color13b,1,2021_Nov_11_1151,ProdSingRedo,3.2.3,59.98350448
,,,,76,0,76,0,,,,,,,,,,,,,,,,,,,,,,,,1301.823125,None,,,,,,,,,,,,,,,,,death,silent,red,76,83,86,1296.416427,None,1296.416427,None,3,2.1626535,1296.416427,None,1298.618309,None,1299.143924,None,1299.143924,None,r,2.6514911,1299.143924,None,,,color13b,1,2021_Nov_11_1151,ProdSingRedo,3.2.3,59.98350448
,,,,77,0,77,0,,,,,,,,,,,,,,,,,,,,,,,,1306.907473,None,,,,,,,,,,,,,,,,,smell,new_silent,red,77,161,291,1302.344736,None,1302.344736,None,4,1.962049,1302.344736,None,1304.347575,None,1304.857337,None,1304.857337,None,r,2.0174662,1304.857337,None,,,color13b,1,2021_Nov_11_1151,ProdSingRedo,3.2.3,59.98350448
,,,,78,0,78,0,,,,,,,,,,,,,,,,,,,,,,,,1312.540652,None,,,,,,,,,,,,,,,,,congress,new_aloud,blue,78,130,67,1307.432965,None,1307.432965,None,1,2.6659342,1307.432965,None,1310.136735,None,1310.662485,None,1310.662485,None,f,1.8441993,1310.662485,None,,,color13b,1,2021_Nov_11_1151,ProdSingRedo,3.2.3,59.98350448
,,,,79,0,79,0,,,,,,,,,,,,,,,,,,,,,,,,1316.341082,None,,,,,,,,,,,,,,,,,entrance,silent,red,79,66,115,1313.066961,None,1313.066961,None,2,1.2238296,1313.066961,None,1314.323641,None,1314.843659,None,1314.843659,None,f,1.4633312,1314.843659,None,,,color13b,1,2021_Nov_11_1151,ProdSingRedo,3.2.3,59.98350448
,,,,80,0,80,0,,,,,,,,,,,,,,,,,,,,,,,,1324.223275,None,,,,,,,,,,,,,,,,,session,new_aloud,blue,80,136,281,1316.862354,None,1316.862354,None,1,2.9324276,1316.862354,None,1319.835552,None,1320.360119,None,1320.360119,None,f,3.8268919,1320.360119,None,,,color13b,1,2021_Nov_11_1151,ProdSingRedo,3.2.3,59.98350448
,,,,81,0,81,0,,,,,,,,,,,,,,,,,,,,,,,,1330.445103,None,,,,,,,,,,,,,,,,,primary,new_silent,red,81,150,234,1324.748593,None,1324.748593,None,3,2.6301654,1324.748593,None,1327.420239,None,1327.949619,None,1327.949619,None,f,2.4612797,1327.949619,None,,,color13b,1,2021_Nov_11_1151,ProdSingRedo,3.2.3,59.98350448
,,,,82,0,82,0,,,,,,,,,,,,,,,,,,,,,,,,1335.974229,None,,,,,,,,,,,,,,,,,dozen,new_sing,yellow,82,104,102,1330.973347,None,1330.973347,None,1,1.5255869,1330.973347,None,1332.540458,None,1333.058028,None,1333.058028,None,r,2.8808748,1333.058028,None,,,color13b,1,2021_Nov_11_1151,ProdSingRedo,3.2.3,59.98350448
,,,,83,0,83,0,,,,,,,,,,,,,,,,,,,,,,,,1340.517861,None,,,,,,,,,,,,,,,,,leader,new_aloud,blue,83,142,168,1336.50153,None,1336.50153,None,5,2.3573542,1336.50153,None,1338.89381,None,1339.415791,None,1339.415791,None,r,1.0748751,1339.415791,None,,,color13b,1,2021_Nov_11_1151,ProdSingRedo,3.2.3,59.98350448
,,,,84,0,84,0,,,,,,,,,,,,,,,,,,,,,,,,1345.109751,None,,,,,,,,,,,,,,,,,drove,aloud,blue,84,53,106,1341.038591,None,1341.038591,None,5,1.9001066,1341.038591,None,1342.982978,None,1343.493774,None,1343.493774,None,f,1.5891742,1343.493774,None,,,color13b,1,2021_Nov_11_1151,ProdSingRedo,3.2.3,59.98350448
,,,,85,0,85,0,,,,,,,,,,,,,,,,,,,,,,,,1349.016257,None,,,,,,,,,,,,,,,,,weather,new_silent,red,85,176,352,1345.636598,None,1345.636598,None,2,1.3742848,1345.636598,None,1347.060262,None,1347.578241,None,1347.578241,None,r,1.400825,1347.578241,None,,,color13b,1,2021_Nov_11_1151,ProdSingRedo,3.2.3,59.98350448
,,,,86,0,86,0,,,,,,,,,,,,,,,,,,,,,,,,1353.733783,None,,,,,,,,,,,,,,,,,birth,silent,red,86,76,22,1349.529584,None,1349.529584,None,1,2.7859307,1349.529584,None,1352.351211,None,1352.85406,None,1352.85406,None,r,0.8606945,1352.85406,None,,,color13b,1,2021_Nov_11_1151,ProdSingRedo,3.2.3,59.98350448
,,,,87,0,87,0,,,,,,,,,,,,,,,,,,,,,,,,1359.209273,None,,,,,,,,,,,,,,,,,shock,new_aloud,blue,87,148,284,1354.235963,None,1354.235963,None,4,2.2789001,1354.235963,None,1356.539115,None,1357.062645,None,1357.062645,None,n,2.1079893,1357.062645,None,,,color13b,1,2021_Nov_11_1151,ProdSingRedo,3.2.3,59.98350448
,,,,88,0,88,0,,,,,,,,,,,,,,,,,,,,,,,,1365.944536,None,,,,,,,,,,,,,,,,,short,aloud,blue,88,41,285,1359.720451,None,1359.720451,None,3,4.0985197,1359.720451,None,1363.854712,None,1364.376224,None,1364.376224,None,r,1.538653,1364.376224,None,,,color13b,1,2021_Nov_11_1151,ProdSingRedo,3.2.3,59.98350448
,,,,89,0,89,0,,,,,,,,,,,,,,,,,,,,,,,,1370.494062,None,,,,,,,,,,,,,,,,,finish,new_silent,red,89,173,130,1366.469081,None,1366.469081,None,2,1.4302897,1366.469081,None,1367.942447,None,1368.463847,None,1368.463847,None,r,1.9948208,1368.463847,None,,,color13b,1,2021_Nov_11_1151,ProdSingRedo,3.2.3,59.98350448
,,,,90,0,90,0,,,,,,,,,,,,,,,,,,,,,,,,1374.77503,None,,,,,,,,,,,,,,,,,military,new_aloud,blue,90,131,190,1371.023155,None,1371.023155,None,1,2.4119082,1371.023155,None,1373.472617,None,1374.005438,None,1374.005438,None,r,0.7332031,1374.005438,None,,,color13b,1,2021_Nov_11_1151,ProdSingRedo,3.2.3,59.98350448
,,,,91,0,91,0,,,,,,,,,,,,,,,,,,,,,,,,1382.144805,None,,,,,,,,,,,,,,,,,institute,new_silent,red,91,155,162,1375.292547,None,1375.292547,None,3,2.0462535,1375.292547,None,1377.398286,None,1377.921408,None,1377.921408,None,n,4.1855137,1377.921408,None,,,color13b,1,2021_Nov_11_1151,ProdSingRedo,3.2.3,59.98350448
,,,,92,0,92,0,,,,,,,,,,,,,,,,,,,,,,,,1386.471176,None,,,,,,,,,,,,,,,,,oxygen,new_sing,yellow,92,113,209,1382.680277,None,1382.680277,None,1,1.2826371,1382.680277,None,1384.017708,None,1384.534759,None,1384.534759,None,r,1.9078067,1384.534759,None,,,color13b,1,2021_Nov_11_1151,ProdSingRedo,3.2.3,59.98350448
,,,,93,0,93,0,,,,,,,,,,,,,,,,,,,,,,,,1392.212601,None,,,,,,,,,,,,,,,,,native,sing,yellow,93,26,199,1387.004848,None,1387.004848,None,1,2.1981874,1387.004848,None,1389.246407,None,1389.766896,None,1389.766896,None,f,2.4119711,1389.766896,None,,,color13b,1,2021_Nov_11_1151,ProdSingRedo,3.2.3,59.98350448
,,,,94,0,94,0,,,,,,,,,,,,,,,,,,,,,,,,1400.013192,None,,,,,,,,,,,,,,,,,surface,new_silent,red,94,157,316,1392.741693,None,1392.741693,None,1,1.6294072,1392.741693,None,1394.409811,None,1394.934626,None,1394.934626,None,f,5.0442934,1394.934626,None,,,color13b,1,2021_Nov_11_1151,ProdSingRedo,3.2.3,59.98350448
,,,,95,0,95,0,,,,,,,,,,,,,,,,,,,,,,,,1405.662842,None,,,,,,,,,,,,,,,,,minor,aloud,blue,95,55,191,1400.549124,None,1400.549124,None,4,2.2619708,1400.549124,None,1402.858365,None,1403.380346,None,1403.380346,None,f,2.2464245,1403.380346,None,,,color13b,1,2021_Nov_11_1151,ProdSingRedo,3.2.3,59.98350448
,,,,96,0,96,0,,,,,,,,,,,,,,,,,,,,,,,,1415.281532,None,,,,,,,,,,,,,,,,,fashion,new_aloud,blue,96,128,125,1406.19091,None,1406.19091,None,4,1.9966054,1406.19091,None,1408.227481,None,1408.748217,None,1408.748217,None,f,6.5026389,1408.748217,None,,,color13b,1,2021_Nov_11_1151,ProdSingRedo,3.2.3,59.98350448
,,,,97,0,97,0,,,,,,,,,,,,,,,,,,,,,,,,1419.948542,None,,,,,,,,,,,,,,,,,article,sing,yellow,97,17,11,1415.790162,None,1415.790162,None,6,1.6686001,1415.790162,None,1417.514682,None,1418.032359,None,1418.032359,None,r,1.8824846,1418.032359,None,,,color13b,1,2021_Nov_11_1151,ProdSingRedo,3.2.3,59.98350448
,,,,98,0,98,0,,,,,,,,,,,,,,,,,,,,,,,,1424.315947,None,,,,,,,,,,,,,,,,,rough,new_aloud,blue,98,123,266,1420.473164,None,1420.473164,None,5,1.6417906,1420.473164,None,1422.163737,None,1422.685256,None,1422.685256,None,f,1.5897364,1422.685256,None,,,color13b,1,2021_Nov_11_1151,ProdSingRedo,3.2.3,59.98350448
,,,,99,0,99,0,,,,,,,,,,,,,,,,,,,,,,,,1429.33154,None,,,,,,,,,,,,,,,,,welcome,aloud,blue,99,57,354,1424.827295,None,1424.827295,None,6,1.6316564,1424.827295,None,1426.508723,None,1427.025137,None,1427.025137,None,r,2.2820085,1427.025137,None,,,color13b,1,2021_Nov_11_1151,ProdSingRedo,3.2.3,59.98350448
,,,,100,0,100,0,,,,,,,,,,,,,,,,,,,,,,,,1432.92956,None,,,,,,,,,,,,,,,,,court,sing,yellow,100,9,75,1429.857044,None,1429.857044,None,6,1.4099206,1429.857044,None,1431.308348,None,1431.841905,None,1431.841905,None,r,1.0571225,1431.841905,None,,,color13b,1,2021_Nov_11_1151,ProdSingRedo,3.2.3,59.98350448
,,,,101,0,101,0,,,,,,,,,,,,,,,,,,,,,,,,1439.378707,None,,,,,,,,,,,,,,,,,waste,new_aloud,blue,101,138,350,1433.462764,None,1433.462764,None,3,2.2841286,1433.462764,None,1435.797585,None,1436.315632,None,1436.315632,None,r,3.0312187,1436.315632,None,,,color13b,1,2021_Nov_11_1151,ProdSingRedo,3.2.3,59.98350448
,,,,102,0,102,0,,,,,,,,,,,,,,,,,,,,,,,,1443.614788,None,,,,,,,,,,,,,,,,,crime,aloud,blue,102,35,78,1439.907597,None,1439.907597,None,3,1.6232225,1439.907597,None,1441.576365,None,1442.100476,None,1442.100476,None,f,1.478562,1442.100476,None,,,color13b,1,2021_Nov_11_1151,ProdSingRedo,3.2.3,59.98350448
,,,,103,0,103,0,,,,,,,,,,,,,,,,,,,,,,,,1447.549627,None,,,,,,,,,,,,,,,,,career,sing,yellow,103,20,42,1444.144293,None,1444.144293,None,6,1.5302553,1444.144293,None,1445.708772,None,1446.206409,None,1446.206409,None,r,1.3166641,1446.206409,None,,,color13b,1,2021_Nov_11_1151,ProdSingRedo,3.2.3,59.98350448
,,,,104,0,104,0,,,,,,,,,,,,,,,,,,,,,,,,1453.220468,None,,,,,,,,,,,,,,,,,heavy,aloud,blue,104,44,151,1448.076667,None,1448.076667,None,4,1.8945364,1448.076667,None,1450.017217,None,1450.534665,None,1450.534665,None,f,2.64438,1450.534665,None,,,color13b,1,2021_Nov_11_1151,ProdSingRedo,3.2.3,59.98350448
,,,,105,0,105,0,,,,,,,,,,,,,,,,,,,,,,,,1459.184031,None,,,,,,,,,,,,,,,,,treatment,new_sing,yellow,105,100,339,1453.745707,None,1453.745707,None,5,3.3371812,1453.745707,None,1457.132511,None,1457.657942,None,1457.657942,None,r,1.4889634,1457.657942,None,,,color13b,1,2021_Nov_11_1151,ProdSingRedo,3.2.3,59.98350448
,,,,106,0,106,0,,,,,,,,,,,,,,,,,,,,,,,,1466.033137,None,,,,,,,,,,,,,,,,,angle,silent,red,106,74,7,1459.698286,None,1459.698286,None,6,2.5927004,1459.698286,None,1462.331591,None,1462.862457,None,1462.862457,None,f,3.1324995,1462.862457,None,,,color13b,1,2021_Nov_11_1151,ProdSingRedo,3.2.3,59.98350448
,,,,107,0,107,0,,,,,,,,,,,,,,,,,,,,,,,,1474.00137,None,,,,,,,,,,,,,,,,,report,new_silent,red,107,166,259,1466.556682,None,1466.556682,None,3,2.0381797,1466.556682,None,1468.646318,None,1469.166744,None,1469.166744,None,f,4.796272,1469.166744,None,,,color13b,1,2021_Nov_11_1151,ProdSingRedo,3.2.3,59.98350448
,,,,108,0,108,0,,,,,,,,,,,,,,,,,,,,,,,,1480.026404,None,,,,,,,,,,,,,,,,,country,new_aloud,blue,108,146,73,1474.530239,None,1474.530239,None,1,2.176867,1474.530239,None,1476.757605,None,1477.27485,None,1477.27485,None,f,2.7040002,1477.27485,None,,,color13b,1,2021_Nov_11_1151,ProdSingRedo,3.2.3,59.98350448
,,,,109,0,109,0,,,,,,,,,,,,,,,,,,,,,,,,1487.930486,None,,,,,,,,,,,,,,,,,level,new_sing,yellow,109,105,170,1480.537878,None,1480.537878,None,5,2.8650629,1480.537878,None,1483.446946,None,1483.971198,None,1483.971198,None,f,3.9358115,1483.971198,None,,,color13b,1,2021_Nov_11_1151,ProdSingRedo,3.2.3,59.98350448
,,,,110,0,110,0,,,,,,,,,,,,,,,,,,,,,,,,1497.544961,None,,,,,,,,,,,,,,,,,review,new_silent,red,110,160,263,1488.444701,None,1488.444701,None,3,3.4782217,1488.444701,None,1491.966661,None,1492.493791,None,1492.493791,None,f,5.020992,1492.493791,None,,,color13b,1,2021_Nov_11_1151,ProdSingRedo,3.2.3,59.98350448
,,,,111,0,111,0,,,,,,,,,,,,,,,,,,,,,,,,1501.968779,None,,,,,,,,,,,,,,,,,drink,aloud,blue,111,59,105,1498.057998,None,1498.057998,None,6,2.3448635,1498.057998,None,1500.451874,None,1500.967986,None,1500.967986,None,r,0.9630017,1500.967986,None,,,color13b,1,2021_Nov_11_1151,ProdSingRedo,3.2.3,59.98350448
,,,,112,0,112,0,,,,,,,,,,,,,,,,,,,,,,,,1505.598555,None,,,,,,,,,,,,,,,,,bright,new_sing,yellow,112,117,29,1502.497541,None,1502.497541,None,6,1.3617053,1502.497541,None,1503.904745,None,1504.424051,None,1504.424051,None,f,1.1546852,1504.424051,None,,,color13b,1,2021_Nov_11_1151,ProdSingRedo,3.2.3,59.98350448
,,,,113,0,113,0,,,,,,,,,,,,,,,,,,,,,,,,1511.137415,None,,,,,,,,,,,,,,,,,breath,silent,red,113,79,27,1506.113534,None,1506.113534,None,5,2.0095147,1506.113534,None,1508.167855,None,1508.682367,None,1508.682367,None,f,2.4245792,1508.682367,None,,,color13b,1,2021_Nov_11_1151,ProdSingRedo,3.2.3,59.98350448
,,,,114,0,114,0,,,,,,,,,,,,,,,,,,,,,,,,1515.404283,None,,,,,,,,,,,,,,,,,ground,aloud,blue,114,50,142,1511.65754,None,1511.65754,None,6,2.1375007,1511.65754,None,1513.836169,None,1514.358859,None,1514.358859,None,r,1.0202003,1514.358859,None,,,color13b,1,2021_Nov_11_1151,ProdSingRedo,3.2.3,59.98350448
,,,,115,0,115,0,,,,,,,,,,,,,,,,,,,,,,,,1520.488193,None,,,,,,,,,,,,,,,,,length,new_sing,yellow,115,101,169,1515.930776,None,1515.930776,None,4,1.344229,1515.930776,None,1517.321104,None,1517.847818,None,1517.847818,None,f,2.6032348,1517.847818,None,,,color13b,1,2021_Nov_11_1151,ProdSingRedo,3.2.3,59.98350448
,,,,116,0,116,0,,,,,,,,,,,,,,,,,,,,,,,,1524.121423,None,,,,,,,,,,,,,,,,,reading,sing,yellow,116,7,254,1521.018529,None,1521.018529,None,6,1.6163428,1521.018529,None,1522.687512,None,1523.212037,None,1523.212037,None,r,0.8708616,1523.212037,None,,,color13b,1,2021_Nov_11_1151,ProdSingRedo,3.2.3,59.98350448
,,,,117,0,117,0,,,,,,,,,,,,,,,,,,,,,,,,1527.421534,None,,,,,,,,,,,,,,,,,education,sing,yellow,117,16,108,1524.651842,None,1524.651842,None,6,1.3271958,1524.651842,None,1526.018945,None,1526.541289,None,1526.541289,None,r,0.8537771,1526.541289,None,,,color13b,1,2021_Nov_11_1151,ProdSingRedo,3.2.3,59.98350448
,,,,118,0,118,0,,,,,,,,,,,,,,,,,,,,,,,,1532.705576,None,,,,,,,,,,,,,,,,,color,new_silent,red,118,171,56,1527.943411,None,1527.943411,None,4,2.9074357,1527.943411,None,1530.887181,None,1531.405114,None,1531.405114,None,f,1.269902,1531.405114,None,,,color13b,1,2021_Nov_11_1151,ProdSingRedo,3.2.3,59.98350448
,,,,119,0,119,0,,,,,,,,,,,,,,,,,,,,,,,,1537.437463,None,,,,,,,,,,,,,,,,,principal,new_aloud,blue,119,147,236,1533.232544,None,1533.232544,None,1,1.3788071,1533.232544,None,1534.653943,None,1535.168163,None,1535.168163,None,r,2.2349041,1535.168163,None,,,color13b,1,2021_Nov_11_1151,ProdSingRedo,3.2.3,59.98350448
,,,,120,0,120,0,,,,,,,,,,,,,,,,,,,,,,,,1542.055477,None,,,,,,,,,,,,,,,,,notice,new_aloud,blue,120,134,201,1537.959838,None,1537.959838,None,6,1.8518805,1537.959838,None,1539.847726,None,1540.355169,None,1540.355169,None,f,1.6562071,1540.355169,None,,,color13b,1,2021_Nov_11_1151,ProdSingRedo,3.2.3,59.98350448
,,,,121,0,121,0,,,,,,,,,,,,,,,,,,,,,,,,1547.655649,None,,,,,,,,,,,,,,,,,dream,new_silent,red,121,179,104,1542.582581,None,1542.582581,None,3,1.8603453,1542.582581,None,1544.49277,None,1544.996598,None,1544.996598,None,r,2.6224904,1544.996598,None,,,color13b,1,2021_Nov_11_1151,ProdSingRedo,3.2.3,59.98350448
,,,,122,0,122,0,,,,,,,,,,,,,,,,,,,,,,,,1553.289588,None,,,,,,,,,,,,,,,,,material,sing,yellow,122,12,182,1548.184402,None,1548.184402,None,5,1.4586049,1548.184402,None,1549.688514,None,1550.216085,None,1550.216085,None,n,3.0349612,1550.216085,None,,,color13b,1,2021_Nov_11_1151,ProdSingRedo,3.2.3,59.98350448
,,,,123,0,123,0,,,,,,,,,,,,,,,,,,,,,,,,1558.791061,None,,,,,,,,,,,,,,,,,running,silent,red,123,71,268,1553.817817,None,1553.817817,None,6,3.609126,1553.817817,None,1557.476742,None,1557.993422,None,1557.993422,None,r,0.7616308,1557.993422,None,,,color13b,1,2021_Nov_11_1151,ProdSingRedo,3.2.3,59.98350448
,,,,124,0,124,0,,,,,,,,,,,,,,,,,,,,,,,,1562.806769,None,,,,,,,,,,,,,,,,,device,aloud,blue,124,32,93,1559.314466,None,1559.314466,None,1,2.0727123,1559.314466,None,1561.438512,None,1561.959556,None,1561.959556,None,n,0.8115088,1561.959556,None,,,color13b,1,2021_Nov_11_1151,ProdSingRedo,3.2.3,59.98350448
,,,,125,0,125,0,,,,,,,,,,,,,,,,,,,,,,,,1567.308657,None,,,,,,,,,,,,,,,,,scale,aloud,blue,125,40,272,1563.332212,None,1563.332212,None,6,1.8708778,1563.332212,None,1565.254424,None,1565.766532,None,1565.766532,None,f,1.5164671,1565.766532,None,,,color13b,1,2021_Nov_11_1151,ProdSingRedo,3.2.3,59.98350448
,,,,126,0,126,0,,,,,,,,,,,,,,,,,,,,,,,,1571.390962,None,,,,,,,,,,,,,,,,,touch,sing,yellow,126,4,332,1567.832684,None,1567.832684,None,6,1.4903584,1567.832684,None,1569.369029,None,1569.894838,None,1569.894838,None,f,1.4603262,1569.894838,None,,,color13b,1,2021_Nov_11_1151,ProdSingRedo,3.2.3,59.98350448
,,,,127,0,127,0,,,,,,,,,,,,,,,,,,,,,,,,1575.241697,None,,,,,,,,,,,,,,,,,escape,new_silent,red,127,156,118,1571.915204,None,1571.915204,None,4,1.8325207,1571.915204,None,1573.790098,None,1574.309803,None,1574.309803,None,f,0.9013596,1574.309803,None,,,color13b,1,2021_Nov_11_1151,ProdSingRedo,3.2.3,59.98350448
,,,,128,0,128,0,,,,,,,,,,,,,,,,,,,,,,,,1579.315749,None,,,,,,,,,,,,,,,,,religion,sing,yellow,128,25,258,1575.771931,None,1575.771931,None,2,1.8391397,1575.771931,None,1577.662188,None,1578.178408,None,1578.178408,None,r,1.1204516,1578.178408,None,,,color13b,1,2021_Nov_11_1151,ProdSingRedo,3.2.3,59.98350448
,,,,129,0,129,0,,,,,,,,,,,,,,,,,,,,,,,,1586.229446,None,,,,,,,,,,,,,,,,,expansion,silent,red,129,70,123,1579.823271,None,1579.823271,None,4,4.0037626,1579.823271,None,1583.88235,None,1584.396014,None,1584.396014,None,r,1.7910546,1584.396014,None,,,color13b,1,2021_Nov_11_1151,ProdSingRedo,3.2.3,59.98350448
,,,,130,0,130,0,,,,,,,,,,,,,,,,,,,,,,,,1591.092354,None,,,,,,,,,,,,,,,,,generation,silent,red,130,68,136,1586.741142,None,1586.741142,None,5,2.0539553,1586.741142,None,1588.838909,None,1589.365974,None,1589.365974,None,f,1.7012572,1589.365974,None,,,color13b,1,2021_Nov_11_1151,ProdSingRedo,3.2.3,59.98350448
,,,,131,0,131,0,,,,,,,,,,,,,,,,,,,,,,,,1595.834377,None,,,,,,,,,,,,,,,,,afternoon,aloud,blue,131,36,3,1591.622408,None,1591.622408,None,1,1.5963701,1591.622408,None,1593.271769,None,1593.768076,None,1593.768076,None,r,2.0345547,1593.768076,None,,,color13b,1,2021_Nov_11_1151,ProdSingRedo,3.2.3,59.98350448
,,,,132,0,132,0,,,,,,,,,,,,,,,,,,,,,,,,1603.027319,None,,,,,,,,,,,,,,,,,meeting,new_silent,red,132,175,187,1596.351747,None,1596.351747,None,4,3.1640153,1596.351747,None,1599.552834,None,1600.079613,None,1600.079613,None,r,2.9154267,1600.079613,None,,,color13b,1,2021_Nov_11_1151,ProdSingRedo,3.2.3,59.98350448
,,,,133,0,133,0,,,,,,,,,,,,,,,,,,,,,,,,1608.968114,None,,,,,,,,,,,,,,,,,account,silent,red,133,73,1,1603.554571,None,1603.554571,None,2,3.6801302,1603.554571,None,1607.254737,None,1607.76791,None,1607.76791,None,f,1.1787806,1607.76791,None,,,color13b,1,2021_Nov_11_1151,ProdSingRedo,3.2.3,59.98350448
,,,,134,0,134,0,,,,,,,,,,,,,,,,,,,,,,,,1614.49403,None,,,,,,,,,,,,,,,,,raise,new_aloud,blue,134,120,250,1609.485901,None,1609.485901,None,1,1.461058,1609.485901,None,1610.993851,None,1611.514673,None,1611.514673,None,n,2.9525211,1611.514673,None,,,color13b,1,2021_Nov_11_1151,ProdSingRedo,3.2.3,59.98350448
,,,,135,0,135,0,,,,,,,,,,,,,,,,,,,,,,,,1621.861379,None,,,,,,,,,,,,,,,,,literature,new_sing,yellow,135,107,173,1615.022886,None,1615.022886,None,4,4.8918952,1615.022886,None,1619.946535,None,1620.47153,None,1620.47153,None,f,1.36362,1620.47153,None,,,color13b,1,2021_Nov_11_1151,ProdSingRedo,3.2.3,59.98350448
,,,,136,0,136,0,,,,,,,,,,,,,,,,,,,,,,,,1626.18778,None,,,,,,,,,,,,,,,,,debate,new_silent,red,136,174,87,1622.390241,None,1622.390241,None,1,1.6048047,1622.390241,None,1624.0449,None,1624.566905,None,1624.566905,None,n,1.5957849,1624.566905,None,,,color13b,1,2021_Nov_11_1151,ProdSingRedo,3.2.3,59.98350448
,,,,137,0,137,0,,,,,,,,,,,,,,,,,,,,,,,,1632.029208,None,,,,,,,,,,,,,,,,,machinery,aloud,blue,137,38,175,1626.7232,None,1626.7232,None,1,3.0558019,1626.7232,None,1629.824587,None,1630.353828,None,1630.353828,None,n,1.6493428,1630.353828,None,,,color13b,1,2021_Nov_11_1151,ProdSingRedo,3.2.3,59.98350448
,,,,138,0,138,0,,,,,,,,,,,,,,,,,,,,,,,,1635.764513,None,,,,,,,,,,,,,,,,,quantity,new_silent,red,138,178,245,1632.550941,None,1632.550941,None,1,1.283995,1632.550941,None,1633.860686,None,1634.382432,None,1634.382432,None,n,1.3406745,1634.382432,None,,,color13b,1,2021_Nov_11_1151,ProdSingRedo,3.2.3,59.98350448
,,,,139,0,139,0,,,,,,,,,,,,,,,,,,,,,,,,1639.513016,None,,,,,,,,,,,,,,,,,cross,silent,red,139,60,80,1636.285739,None,1636.285739,None,5,1.6053167,1636.285739,None,1637.942221,None,1638.459263,None,1638.459263,None,f,1.0237251,1638.459263,None,,,color13b,1,2021_Nov_11_1151,ProdSingRedo,3.2.3,59.98350448
,,,,140,0,140,0,,,,,,,,,,,,,,,,,,,,,,,,1648.413382,None,,,,,,,,,,,,,,,,,produce,new_silent,red,140,170,239,1640.040522,None,1640.040522,None,4,6.7467012,1640.040522,None,1646.827149,None,1647.348737,None,1647.348737,None,f,1.0303342,1647.348737,None,,,color13b,1,2021_Nov_11_1151,ProdSingRedo,3.2.3,59.98350448
,,,,141,0,141,0,,,,,,,,,,,,,,,,,,,,,,,,1652.014826,None,,,,,,,,,,,,,,,,,mankind,new_aloud,blue,141,129,178,1648.943782,None,1648.943782,None,1,1.3232231,1648.943782,None,1650.311286,None,1650.838377,None,1650.838377,None,n,1.1327654,1650.838377,None,,,color13b,1,2021_Nov_11_1151,ProdSingRedo,3.2.3,59.98350448
,,,,142,0,142,0,,,,,,,,,,,,,,,,,,,,,,,,1658.545091,None,,,,,,,,,,,,,,,,,question,sing,yellow,142,27,247,1652.542722,None,1652.542722,None,2,1.7803521,1652.542722,None,1654.360266,None,1654.885492,None,1654.885492,None,r,3.6213543,1654.885492,None,,,color13b,1,2021_Nov_11_1151,ProdSingRedo,3.2.3,59.98350448
,,,,143,0,143,0,,,,,,,,,,,,,,,,,,,,,,,,1664.646706,None,,,,,,,,,,,,,,,,,harmony,new_aloud,blue,143,144,148,1659.062832,None,1659.062832,None,2,2.9245182,1659.062832,None,1662.033804,None,1662.552311,None,1662.552311,None,f,2.0666854,1662.552311,None,,,color13b,1,2021_Nov_11_1151,ProdSingRedo,3.2.3,59.98350448
,,,,144,0,144,0,,,,,,,,,,,,,,,,,,,,,,,,1670.409323,None,,,,,,,,,,,,,,,,,split,aloud,blue,144,52,299,1665.168638,None,1665.168638,None,2,3.2187256,1665.168638,None,1668.425536,None,1668.946888,None,1668.946888,None,n,1.4319722,1668.946888,None,,,color13b,1,2021_Nov_11_1151,ProdSingRedo,3.2.3,59.98350448
,,,,145,0,145,0,,,,,,,,,,,,,,,,,,,,,,,,1677.348964,None,,,,,,,,,,,,,,,,,period,new_sing,yellow,145,98,217,1670.924742,None,1670.924742,None,4,3.5901251,1670.924742,None,1674.546311,None,1675.059685,None,1675.059685,None,r,2.263744,1675.059685,None,,,color13b,1,2021_Nov_11_1151,ProdSingRedo,3.2.3,59.98350448
,,,,146,0,146,0,,,,,,,,,,,,,,,,,,,,,,,,1681.732567,None,,,,,,,,,,,,,,,,,appeal,new_aloud,blue,146,135,9,1677.877966,None,1677.877966,None,1,1.7331817,1677.877966,None,1679.665581,None,1680.189841,None,1680.189841,None,n,1.5172903,1680.189841,None,,,color13b,1,2021_Nov_11_1151,ProdSingRedo,3.2.3,59.98350448
,,,,147,0,147,0,,,,,,,,,,,,,,,,,,,,,,,,1685.621327,None,,,,,,,,,,,,,,,,,store,aloud,blue,147,54,305,1682.25479,None,1682.25479,None,3,1.7083591,1682.25479,None,1684.014599,None,1684.532278,None,1684.532278,None,f,1.0467448,1684.532278,None,,,color13b,1,2021_Nov_11_1151,ProdSingRedo,3.2.3,59.98350448
,,,,148,0,148,0,,,,,,,,,,,,,,,,,,,,,,,,1690.199064,None,,,,,,,,,,,,,,,,,production,new_silent,red,148,168,240,1686.130139,None,1686.130139,None,1,2.7612382,1686.130139,None,1688.932822,None,1689.455066,None,1689.455066,None,f,0.708255,1689.455066,None,,,color13b,1,2021_Nov_11_1151,ProdSingRedo,3.2.3,59.98350448
,,,,149,0,149,0,,,,,,,,,,,,,,,,,,,,,,,,1694.699263,None,,,,,,,,,,,,,,,,,distance,silent,red,149,78,100,1690.725845,None,1690.725845,None,4,1.9411579,1690.725845,None,1692.707737,None,1693.232371,None,1693.232371,None,f,1.4347399,1693.232371,None,,,color13b,1,2021_Nov_11_1151,ProdSingRedo,3.2.3,59.98350448
,,,,150,0,150,0,,,,,,,,,,,,,,,,,,,,,,,,1700.366834,None,,,,,,,,,,,,,,,,,history,aloud,blue,150,39,153,1695.225564,None,1695.225564,None,6,3.7214737,1695.225564,None,1698.994937,None,1699.521201,None,1699.521201,None,r,0.8181963,1699.521201,None,,,color13b,1,2021_Nov_11_1151,ProdSingRedo,3.2.3,59.98350448
,,,,151,0,151,0,,,,,,,,,,,,,,,,,,,,,,,,1703.999905,None,,,,,,,,,,,,,,,,,under,aloud,blue,151,30,343,1700.888112,None,1700.888112,None,5,1.5630108,1700.888112,None,1702.498614,None,1703.017386,None,1703.017386,None,f,0.9541204,1703.017386,None,,,color13b,1,2021_Nov_11_1151,ProdSingRedo,3.2.3,59.98350448
,,,,152,0,152,0,,,,,,,,,,,,,,,,,,,,,,,,1714.88427,None,,,,,,,,,,,,,,,,,substance,new_silent,red,152,165,313,1704.53153,None,1704.53153,None,5,2.7036055,1704.53153,None,1707.282683,None,1707.810904,None,1707.810904,None,f,7.0485105,1707.810904,None,,,color13b,1,2021_Nov_11_1151,ProdSingRedo,3.2.3,59.98350448
,,,,153,0,153,0,,,,,,,,,,,,,,,,,,,,,,,,1719.568402,None,,,,,,,,,,,,,,,,,corner,aloud,blue,153,45,69,1715.39332,None,1715.39332,None,6,1.4258254,1715.39332,None,1716.853215,None,1717.366844,None,1717.366844,None,f,2.1722175,1717.366844,None,,,color13b,1,2021_Nov_11_1151,ProdSingRedo,3.2.3,59.98350448
,,,,154,0,154,0,,,,,,,,,,,,,,,,,,,,,,,,1723.951751,None,,,,,,,,,,,,,,,,,citizen,new_sing,yellow,154,116,50,1720.094871,None,1720.094871,None,3,1.54821,1720.094871,None,1721.680335,None,1722.208181,None,1722.208181,None,f,1.7154109,1722.208181,None,,,color13b,1,2021_Nov_11_1151,ProdSingRedo,3.2.3,59.98350448
,,,,155,0,155,0,,,,,,,,,,,,,,,,,,,,,,,,1737.786311,None,,,,,,,,,,,,,,,,,shape,silent,red,155,61,282,1724.478081,None,1724.478081,None,6,2.3972134,1724.478081,None,1726.917744,None,1727.436532,None,1727.436532,None,f,10.3188404,1727.436532,None,,,color13b,1,2021_Nov_11_1151,ProdSingRedo,3.2.3,59.98350448
,,,,156,0,156,0,,,,,,,,,,,,,,,,,,,,,,,,1742.452922,None,,,,,,,,,,,,,,,,,quiet,new_aloud,blue,156,121,249,1738.313764,None,1738.313764,None,3,1.6814989,1738.313764,None,1740.03465,None,1740.558765,None,1740.558765,None,r,1.8682818,1740.558765,None,,,color13b,1,2021_Nov_11_1151,ProdSingRedo,3.2.3,59.98350448
,,,,157,0,157,0,,,,,,,,,,,,,,,,,,,,,,,,1747.020809,None,,,,,,,,,,,,,,,,,track,sing,yellow,157,14,334,1742.962437,None,1742.962437,None,3,1.8247025,1742.962437,None,1744.836747,None,1745.359683,None,1745.359683,None,r,1.6355902,1745.359683,None,,,color13b,1,2021_Nov_11_1151,ProdSingRedo,3.2.3,59.98350448
,,,,158,0,158,0,,,,,,,,,,,,,,,,,,,,,,,,1751.053468,None,,,,,,,,,,,,,,,,,commercial,new_sing,yellow,158,91,61,1747.549059,None,1747.549059,None,2,1.6941865,1747.549059,None,1749.281352,None,1749.794867,None,1749.794867,None,f,1.2242336,1749.794867,None,,,color13b,1,2021_Nov_11_1151,ProdSingRedo,3.2.3,59.98350448
,,,,159,0,159,0,,,,,,,,,,,,,,,,,,,,,,,,1759.436477,None,,,,,,,,,,,,,,,,,suspect,sing,yellow,159,3,318,1751.583738,None,1751.583738,None,1,1.7793762,1751.583738,None,1753.40341,None,1753.922451,None,1753.922451,None,n,5.4889078,1753.922451,None,,,color13b,1,2021_Nov_11_1151,ProdSingRedo,3.2.3,59.98350448
,,,,160,0,160,0,,,,,,,,,,,,,,,,,,,,,,,,1763.938864,None,,,,,,,,,,,,,,,,,beauty,sing,yellow,160,15,18,1759.962203,None,1759.962203,None,6,2.0010629,1759.962203,None,1762.008972,None,1762.528668,None,1762.528668,None,r,1.3786295,1762.528668,None,,,color13b,1,2021_Nov_11_1151,ProdSingRedo,3.2.3,59.98350448
,,,,161,0,161,0,,,,,,,,,,,,,,,,,,,,,,,,1768.522659,None,,,,,,,,,,,,,,,,,society,silent,red,161,84,293,1764.458942,None,1764.458942,None,4,1.696147,1764.458942,None,1766.199285,None,1766.723294,None,1766.723294,None,f,1.7678183,1766.723294,None,,,color13b,1,2021_Nov_11_1151,ProdSingRedo,3.2.3,59.98350448
,,,,162,0,162,0,,,,,,,,,,,,,,,,,,,,,,,,1776.598537,None,,,,,,,,,,,,,,,,,foundation,silent,red,162,69,132,1769.049729,None,1769.049729,None,1,4.9374492,1769.049729,None,1774.032906,None,1774.563016,None,1774.563016,None,f,2.0158729,1774.563016,None,,,color13b,1,2021_Nov_11_1151,ProdSingRedo,3.2.3,59.98350448
,,,,163,0,163,0,,,,,,,,,,,,,,,,,,,,,,,,1780.172225,None,,,,,,,,,,,,,,,,,couch,sing,yellow,163,13,70,1777.12985,None,1777.12985,None,6,1.7932247,1777.12985,None,1778.960172,None,1779.474029,None,1779.474029,None,r,0.6651003,1779.474029,None,,,color13b,1,2021_Nov_11_1151,ProdSingRedo,3.2.3,59.98350448
,,,,164,0,164,0,,,,,,,,,,,,,,,,,,,,,,,,1783.935273,None,,,,,,,,,,,,,,,,,sleep,silent,red,164,81,290,1780.693762,None,1780.693762,None,3,1.5493078,1780.693762,None,1782.285828,None,1782.805282,None,1782.805282,None,r,1.1022001,1782.805282,None,,,color13b,1,2021_Nov_11_1151,ProdSingRedo,3.2.3,59.98350448
,,,,165,0,165,0,,,,,,,,,,,,,,,,,,,,,,,,1788.998254,None,,,,,,,,,,,,,,,,,story,silent,red,165,65,306,1784.463666,None,1784.463666,None,2,1.6194968,1784.463666,None,1786.136304,None,1786.655141,None,1786.655141,None,f,2.3238599,1786.655141,None,,,color13b,1,2021_Nov_11_1151,ProdSingRedo,3.2.3,59.98350448
,,,,166,0,166,0,,,,,,,,,,,,,,,,,,,,,,,,1792.842191,None,,,,,,,,,,,,,,,,,charter,new_sing,yellow,166,92,47,1789.51197,None,1789.51197,None,1,1.2591956,1789.51197,None,1790.825878,None,1791.346468,None,1791.346468,None,n,1.4646843,1791.346468,None,,,color13b,1,2021_Nov_11_1151,ProdSingRedo,3.2.3,59.98350448
,,,,167,0,167,0,,,,,,,,,,,,,,,,,,,,,,,,1796.755962,None,,,,,,,,,,,,,,,,,research,new_sing,yellow,167,95,261,1793.366073,None,1793.366073,None,6,2.0770775,1793.366073,None,1795.482478,None,1796.010617,None,1796.010617,None,r,0.7123837,1796.010617,None,,,color13b,1,2021_Nov_11_1151,ProdSingRedo,3.2.3,59.98350448
,,,,168,0,168,0,,,,,,,,,,,,,,,,,,,,,,,,1800.858096,None,,,,,,,,,,,,,,,,,match,new_aloud,blue,168,143,181,1797.290725,None,1797.290725,None,4,1.4083649,1797.290725,None,1798.742582,None,1799.234175,None,1799.234175,None,f,1.5929085,1799.234175,None,,,color13b,1,2021_Nov_11_1151,ProdSingRedo,3.2.3,59.98350448
,,,,169,0,169,0,,,,,,,,,,,,,,,,,,,,,,,,1805.040048,None,,,,,,,,,,,,,,,,,gesture,new_aloud,blue,169,126,137,1801.382896,None,1801.382896,None,3,1.8442219,1801.382896,None,1803.273556,None,1803.79833,None,1803.79833,None,f,1.2048471,1803.79833,None,,,color13b,1,2021_Nov_11_1151,ProdSingRedo,3.2.3,59.98350448
,,,,170,0,170,0,,,,,,,,,,,,,,,,,,,,,,,,1808.974421,None,,,,,,,,,,,,,,,,,comedy,silent,red,170,72,58,1805.563021,None,1805.563021,None,6,1.8241843,1805.563021,None,1807.439209,None,1807.957896,None,1807.957896,None,r,0.9895267,1807.957896,None,,,color13b,1,2021_Nov_11_1151,ProdSingRedo,3.2.3,59.98350448
,,,,171,0,171,0,,,,,,,,,,,,,,,,,,,,,,,,1812.774683,None,,,,,,,,,,,,,,,,,little,new_aloud,blue,171,137,174,1809.495838,None,1809.495838,None,3,1.3793771,1809.495838,None,1810.91856,None,1811.439848,None,1811.439848,None,f,1.3076371,1811.439848,None,,,color13b,1,2021_Nov_11_1151,ProdSingRedo,3.2.3,59.98350448
,,,,172,0,172,0,,,,,,,,,,,,,,,,,,,,,,,,1817.959275,None,,,,,,,,,,,,,,,,,salary,silent,red,172,82,271,1813.301186,None,1813.301186,None,3,2.2059772,1813.301186,None,1815.554059,None,1816.083744,None,1816.083744,None,r,1.8475474,1816.083744,None,,,color13b,1,2021_Nov_11_1151,ProdSingRedo,3.2.3,59.98350448
,,,,173,0,173,0,,,,,,,,,,,,,,,,,,,,,,,,1823.738678,None,,,,,,,,,,,,,,,,,bucket,sing,yellow,173,29,33,1818.485686,None,1818.485686,None,1,1.5334938,1818.485686,None,1820.075576,None,1820.598589,None,1820.598589,None,f,3.1167405,1820.598589,None,,,color13b,1,2021_Nov_11_1151,ProdSingRedo,3.2.3,59.98350448
,,,,174,0,174,0,,,,,,,,,,,,,,,,,,,,,,,,1829.101778,None,,,,,,,,,,,,,,,,,service,aloud,blue,174,33,280,1824.268236,None,1824.268236,None,6,2.0869716,1824.268236,None,1826.409032,None,1826.934842,None,1826.934842,None,f,2.1242849,1826.934842,None,,,color13b,1,2021_Nov_11_1151,ProdSingRedo,3.2.3,59.98350448
,,,,175,0,175,0,,,,,,,,,,,,,,,,,,,,,,,,1833.911394,None,,,,,,,,,,,,,,,,,trash,new_aloud,blue,175,125,337,1829.639151,None,1829.639151,None,2,1.3082206,1829.639151,None,1830.995355,None,1831.510394,None,1831.510394,None,f,2.3647555,1831.510394,None,,,color13b,1,2021_Nov_11_1151,ProdSingRedo,3.2.3,59.98350448
,,,,176,0,176,0,,,,,,,,,,,,,,,,,,,,,,,,1839.059366,None,,,,,,,,,,,,,,,,,right,new_silent,red,176,172,265,1834.436206,None,1834.436206,None,1,1.9026578,1834.436206,None,1836.368443,None,1836.889485,None,1836.889485,None,f,2.1455803,1836.889485,None,,,color13b,1,2021_Nov_11_1151,ProdSingRedo,3.2.3,59.98350448
,,,,177,0,177,0,,,,,,,,,,,,,,,,,,,,,,,,1842.893941,None,,,,,,,,,,,,,,,,,message,sing,yellow,177,10,189,1839.587772,None,1839.587772,None,6,1.8635044,1839.587772,None,1841.48218,None,1842.001879,None,1842.001879,None,r,0.8655404,1842.001879,None,,,color13b,1,2021_Nov_11_1151,ProdSingRedo,3.2.3,59.98350448
,,,,178,0,178,0,,,,,,,,,,,,,,,,,,,,,,,,1846.575918,None,,,,,,,,,,,,,,,,,committee,aloud,blue,178,47,62,1843.414737,None,1843.414737,None,6,1.2207645,1843.414737,None,1844.677927,None,1845.203593,None,1845.203593,None,r,1.3358732,1845.203593,None,,,color13b,1,2021_Nov_11_1151,ProdSingRedo,3.2.3,59.98350448
,,,,179,0,179,0,,,,,,,,,,,,,,,,,,,,,,,,1850.160005,None,,,,,,,,,,,,,,,,,background,new_sing,yellow,179,96,16,1847.11238,None,1847.11238,None,4,1.3871936,1847.11238,None,1848.55242,None,1849.056061,None,1849.056061,None,f,1.0672136,1849.056061,None,,,color13b,1,2021_Nov_11_1151,ProdSingRedo,3.2.3,59.98350448
,,,,,,,,,,,,,,,,,,,,,,,,,,,,,,,,,,,,,,,,,,,,,,,,,,,,,,,,,,,,,,,,,,,,,,,,,1850.669387,None,,,,,,
