StudyLoop.thisRepN,StudyLoop.thisTrialN,StudyLoop.thisN,StudyLoop.thisIndex,TestLoop.thisRepN,TestLoop.thisTrialN,TestLoop.thisN,TestLoop.thisIndex,textCondition.started,textCondition.stopped,keyCondition.keys,keyCondition.rt,keyCondition.started,keyCondition.stopped,Condition,stim_colors,color_sing,color_aloud,color_silent,textWelcome.started,textWelcome.stopped,keyWelcome.keys,keyWelcome.rt,keyWelcome.started,keyWelcome.stopped,textAloud.started,textAloud.stopped,textSilent.started,textSilent.stopped,textSing.started,textSing.stopped,textBlank500.started,textBlank500.stopped,study_word,study_type,study_color,study_num,study_word_num,textStudy.started,textStudy.stopped,keyStudy.keys,keyStudy.started,keyStudy.stopped,textTestInstructions.started,textTestInstructions.stopped,key_resp_3.keys,key_resp_3.rt,key_resp_3.started,key_resp_3.stopped,testWord,testType,testColor,testN,test_num,test_word_num,textConf.started,textConf.stopped,textConfScale.started,textConfScale.stopped,keyConf.keys,keyConf.rt,keyConf.started,keyConf.stopped,textTestBlank.started,textTestBlank.stopped,textRKN.started,textRKN.stopped,textRKNScale.started,textRKNScale.stopped,keyRKN.keys,keyRKN.rt,keyRKN.started,keyRKN.stopped,textEnd.started,textEnd.stopped,participant,session,date,expName,psychopyVersion,frameRate,
,,,,,,,,17.278442799928598,None,y,20.908607900026254,17.278442799928598,None,,,,,,,,,,,,,,,,,,,,,,,,,,,,,,,,,,,,,,,,,,,,,,,,,,,,,,,,,,,,,,color6,001,2019_Nov_21_1705,ProdSingRedo,3.2.3,59.99084539712327,
,,,,,,,,,,,,,,ColoredTest,"['yellow', 'blue', 'red']",yellow,blue,red,38.25411939993501,None,space,487.445112699992,38.25411939993501,None,,,,,,,,,,,,,,,,,,,,,,,,,,,,,,,,,,,,,,,,,,,,,,,,,,,color6,001,2019_Nov_21_1705,ProdSingRedo,3.2.3,59.99084539712327,
0,0,0,0,,,,,,,,,,,,,,,,,,,,,,38.25411939993501,None,38.25411939993501,None,38.25411939993501,None,528.2315945000155,None,piece,sing,yellow,12,221,526.2287624999881,None,None,526.2287624999881,None,,,,,,,,,,,,,,,,,,,,,,,,,,,,,,,,,color6,001,2019_Nov_21_1705,ProdSingRedo,3.2.3,59.99084539712327,
1,0,1,0,,,,,,,,,,,,,,,,,,,,,,,,,,,,530.7485013999976,None,judge,silent,red,81,166,528.7530061999569,None,None,528.7530061999569,None,,,,,,,,,,,,,,,,,,,,,,,,,,,,,,,,,color6,001,2019_Nov_21_1705,ProdSingRedo,3.2.3,59.99084539712327,
2,0,2,0,,,,,,,,,,,,,,,,,,,,,,,,,,,,533.2652502999408,None,fight,sing,yellow,0,127,531.2631416999502,None,None,531.2631416999502,None,,,,,,,,,,,,,,,,,,,,,,,,,,,,,,,,,color6,001,2019_Nov_21_1705,ProdSingRedo,3.2.3,59.99084539712327,
3,0,3,0,,,,,,,,,,,,,,,,,,,,,,,,,,,,535.7820192000363,None,quantity,aloud,blue,47,245,533.7913806999568,None,None,533.7913806999568,None,,,,,,,,,,,,,,,,,,,,,,,,,,,,,,,,,color6,001,2019_Nov_21_1705,ProdSingRedo,3.2.3,59.99084539712327,
4,0,4,0,,,,,,,,,,,,,,,,,,,,,,,,,,,,538.2989815999754,None,quiet,silent,red,61,249,536.294885499985,None,None,536.294885499985,None,,,,,,,,,,,,,,,,,,,,,,,,,,,,,,,,,color6,001,2019_Nov_21_1705,ProdSingRedo,3.2.3,59.99084539712327,
5,0,5,0,,,,,,,,,,,,,,,,,,,,,,,,,,,,540.8157438000198,None,passage,silent,red,78,212,538.816799400025,None,None,538.816799400025,None,,,,,,,,,,,,,,,,,,,,,,,,,,,,,,,,,color6,001,2019_Nov_21_1705,ProdSingRedo,3.2.3,59.99084539712327,
6,0,6,0,,,,,,,,,,,,,,,,,,,,,,,,,,,,543.332675499958,None,point,silent,red,60,226,541.3244273000164,None,None,541.3244273000164,None,,,,,,,,,,,,,,,,,,,,,,,,,,,,,,,,,color6,001,2019_Nov_21_1705,ProdSingRedo,3.2.3,59.99084539712327,
7,0,7,0,,,,,,,,,,,,,,,,,,,,,,,,,,,,545.8494416000322,None,charter,aloud,blue,51,47,543.8501590000233,None,None,543.8501590000233,None,,,,,,,,,,,,,,,,,,,,,,,,,,,,,,,,,color6,001,2019_Nov_21_1705,ProdSingRedo,3.2.3,59.99084539712327,
8,0,8,0,,,,,,,,,,,,,,,,,,,,,,,,,,,,548.3663980999263,None,accident,aloud,blue,33,0,546.3629647999769,None,None,546.3629647999769,None,,,,,,,,,,,,,,,,,,,,,,,,,,,,,,,,,color6,001,2019_Nov_21_1705,ProdSingRedo,3.2.3,59.99084539712327,
9,0,9,0,,,,,,,,,,,,,,,,,,,,,,,,,,,,550.8830997999758,None,patient,silent,red,62,213,548.8818972000154,None,None,548.8818972000154,None,,,,,,,,,,,,,,,,,,,,,,,,,,,,,,,,,color6,001,2019_Nov_21_1705,ProdSingRedo,3.2.3,59.99084539712327,
10,0,10,0,,,,,,,,,,,,,,,,,,,,,,,,,,,,553.3999402000336,None,finish,aloud,blue,56,130,551.3955742999678,None,None,551.3955742999678,None,,,,,,,,,,,,,,,,,,,,,,,,,,,,,,,,,color6,001,2019_Nov_21_1705,ProdSingRedo,3.2.3,59.99084539712327,
11,0,11,0,,,,,,,,,,,,,,,,,,,,,,,,,,,,555.9167305999435,None,division,aloud,blue,40,101,553.9193909999449,None,None,553.9193909999449,None,,,,,,,,,,,,,,,,,,,,,,,,,,,,,,,,,color6,001,2019_Nov_21_1705,ProdSingRedo,3.2.3,59.99084539712327,
12,0,12,0,,,,,,,,,,,,,,,,,,,,,,,,,,,,558.433622200042,None,revolution,aloud,blue,55,264,556.4388928000117,None,None,556.4388928000117,None,,,,,,,,,,,,,,,,,,,,,,,,,,,,,,,,,color6,001,2019_Nov_21_1705,ProdSingRedo,3.2.3,59.99084539712327,
13,0,13,0,,,,,,,,,,,,,,,,,,,,,,,,,,,,560.950421800022,None,running,aloud,blue,45,268,558.9478283999488,None,None,558.9478283999488,None,,,,,,,,,,,,,,,,,,,,,,,,,,,,,,,,,color6,001,2019_Nov_21_1705,ProdSingRedo,3.2.3,59.99084539712327,
14,0,14,0,,,,,,,,,,,,,,,,,,,,,,,,,,,,563.467276899959,None,guest,silent,red,70,146,561.4619126999751,None,None,561.4619126999751,None,,,,,,,,,,,,,,,,,,,,,,,,,,,,,,,,,color6,001,2019_Nov_21_1705,ProdSingRedo,3.2.3,59.99084539712327,
15,0,15,0,,,,,,,,,,,,,,,,,,,,,,,,,,,,565.982877100003,None,payment,silent,red,68,215,563.9854698999552,None,None,563.9854698999552,None,,,,,,,,,,,,,,,,,,,,,,,,,,,,,,,,,color6,001,2019_Nov_21_1705,ProdSingRedo,3.2.3,59.99084539712327,
16,0,16,0,,,,,,,,,,,,,,,,,,,,,,,,,,,,568.5009164999938,None,author,sing,yellow,8,15,566.4960139000323,None,None,566.4960139000323,None,,,,,,,,,,,,,,,,,,,,,,,,,,,,,,,,,color6,001,2019_Nov_21_1705,ProdSingRedo,3.2.3,59.99084539712327,
17,0,17,0,,,,,,,,,,,,,,,,,,,,,,,,,,,,571.0177936999826,None,answer,sing,yellow,13,8,569.0169424000196,None,None,569.0169424000196,None,,,,,,,,,,,,,,,,,,,,,,,,,,,,,,,,,color6,001,2019_Nov_21_1705,ProdSingRedo,3.2.3,59.99084539712327,
18,0,18,0,,,,,,,,,,,,,,,,,,,,,,,,,,,,573.5346683999524,None,clear,sing,yellow,22,52,571.5304500999628,None,None,571.5304500999628,None,,,,,,,,,,,,,,,,,,,,,,,,,,,,,,,,,color6,001,2019_Nov_21_1705,ProdSingRedo,3.2.3,59.99084539712327,
19,0,19,0,,,,,,,,,,,,,,,,,,,,,,,,,,,,576.051465800032,None,build,sing,yellow,10,35,574.053674899973,None,None,574.053674899973,None,,,,,,,,,,,,,,,,,,,,,,,,,,,,,,,,,color6,001,2019_Nov_21_1705,ProdSingRedo,3.2.3,59.99084539712327,
20,0,20,0,,,,,,,,,,,,,,,,,,,,,,,,,,,,578.5683080999879,None,master,silent,red,66,180,576.5648796999594,None,None,576.5648796999594,None,,,,,,,,,,,,,,,,,,,,,,,,,,,,,,,,,color6,001,2019_Nov_21_1705,ProdSingRedo,3.2.3,59.99084539712327,
21,0,21,0,,,,,,,,,,,,,,,,,,,,,,,,,,,,581.0851055999519,None,vision,sing,yellow,3,347,579.0797053999268,None,None,579.0797053999268,None,,,,,,,,,,,,,,,,,,,,,,,,,,,,,,,,,color6,001,2019_Nov_21_1705,ProdSingRedo,3.2.3,59.99084539712327,
22,0,22,0,,,,,,,,,,,,,,,,,,,,,,,,,,,,583.6019498000387,None,leader,aloud,blue,49,168,581.5995689999545,None,None,581.5995689999545,None,,,,,,,,,,,,,,,,,,,,,,,,,,,,,,,,,color6,001,2019_Nov_21_1705,ProdSingRedo,3.2.3,59.99084539712327,
23,0,23,0,,,,,,,,,,,,,,,,,,,,,,,,,,,,586.1187815000303,None,union,sing,yellow,27,344,584.1138638999546,None,None,584.1138638999546,None,,,,,,,,,,,,,,,,,,,,,,,,,,,,,,,,,color6,001,2019_Nov_21_1705,ProdSingRedo,3.2.3,59.99084539712327,
24,0,24,0,,,,,,,,,,,,,,,,,,,,,,,,,,,,588.6356795999454,None,country,aloud,blue,52,73,586.6352170000318,None,None,586.6352170000318,None,,,,,,,,,,,,,,,,,,,,,,,,,,,,,,,,,color6,001,2019_Nov_21_1705,ProdSingRedo,3.2.3,59.99084539712327,
25,0,25,0,,,,,,,,,,,,,,,,,,,,,,,,,,,,591.1527043000096,None,carry,aloud,blue,53,43,589.1522414999781,None,None,589.1522414999781,None,,,,,,,,,,,,,,,,,,,,,,,,,,,,,,,,,color6,001,2019_Nov_21_1705,ProdSingRedo,3.2.3,59.99084539712327,
26,0,26,0,,,,,,,,,,,,,,,,,,,,,,,,,,,,593.6693957999814,None,gesture,aloud,blue,59,137,591.6682312999619,None,None,591.6682312999619,None,,,,,,,,,,,,,,,,,,,,,,,,,,,,,,,,,color6,001,2019_Nov_21_1705,ProdSingRedo,3.2.3,59.99084539712327,
27,0,27,0,,,,,,,,,,,,,,,,,,,,,,,,,,,,596.1861385999946,None,degree,aloud,blue,46,89,594.1819037999958,None,None,594.1819037999958,None,,,,,,,,,,,,,,,,,,,,,,,,,,,,,,,,,color6,001,2019_Nov_21_1705,ProdSingRedo,3.2.3,59.99084539712327,
28,0,28,0,,,,,,,,,,,,,,,,,,,,,,,,,,,,598.7029382999754,None,portion,sing,yellow,7,228,596.6959729000228,None,None,596.6959729000228,None,,,,,,,,,,,,,,,,,,,,,,,,,,,,,,,,,color6,001,2019_Nov_21_1705,ProdSingRedo,3.2.3,59.99084539712327,
29,0,29,0,,,,,,,,,,,,,,,,,,,,,,,,,,,,601.219859899953,None,graduate,silent,red,77,141,599.2197255999781,None,None,599.2197255999781,None,,,,,,,,,,,,,,,,,,,,,,,,,,,,,,,,,color6,001,2019_Nov_21_1705,ProdSingRedo,3.2.3,59.99084539712327,
30,0,30,0,,,,,,,,,,,,,,,,,,,,,,,,,,,,603.7367938000243,None,scale,sing,yellow,1,272,601.7315082999412,None,None,601.7315082999412,None,,,,,,,,,,,,,,,,,,,,,,,,,,,,,,,,,color6,001,2019_Nov_21_1705,ProdSingRedo,3.2.3,59.99084539712327,
31,0,31,0,,,,,,,,,,,,,,,,,,,,,,,,,,,,606.2535853999434,None,session,aloud,blue,35,281,604.2463353000348,None,None,604.2463353000348,None,,,,,,,,,,,,,,,,,,,,,,,,,,,,,,,,,color6,001,2019_Nov_21_1705,ProdSingRedo,3.2.3,59.99084539712327,
32,0,32,0,,,,,,,,,,,,,,,,,,,,,,,,,,,,608.7708623999497,None,territory,sing,yellow,16,324,606.7676958999364,None,None,606.7676958999364,None,,,,,,,,,,,,,,,,,,,,,,,,,,,,,,,,,color6,001,2019_Nov_21_1705,ProdSingRedo,3.2.3,59.99084539712327,
33,0,33,0,,,,,,,,,,,,,,,,,,,,,,,,,,,,611.2871996000176,None,public,silent,red,87,244,609.2890803000191,None,None,609.2890803000191,None,,,,,,,,,,,,,,,,,,,,,,,,,,,,,,,,,color6,001,2019_Nov_21_1705,ProdSingRedo,3.2.3,59.99084539712327,
34,0,34,0,,,,,,,,,,,,,,,,,,,,,,,,,,,,613.8040050000418,None,breath,aloud,blue,44,27,611.804646100034,None,None,611.804646100034,None,,,,,,,,,,,,,,,,,,,,,,,,,,,,,,,,,color6,001,2019_Nov_21_1705,ProdSingRedo,3.2.3,59.99084539712327,
35,0,35,0,,,,,,,,,,,,,,,,,,,,,,,,,,,,616.3209067999851,None,employment,silent,red,63,111,614.3163288999349,None,None,614.3163288999349,None,,,,,,,,,,,,,,,,,,,,,,,,,,,,,,,,,color6,001,2019_Nov_21_1705,ProdSingRedo,3.2.3,59.99084539712327,
36,0,36,0,,,,,,,,,,,,,,,,,,,,,,,,,,,,618.8377414999995,None,instrument,sing,yellow,18,163,616.8369304999942,None,None,616.8369304999942,None,,,,,,,,,,,,,,,,,,,,,,,,,,,,,,,,,color6,001,2019_Nov_21_1705,ProdSingRedo,3.2.3,59.99084539712327,
37,0,37,0,,,,,,,,,,,,,,,,,,,,,,,,,,,,621.3546517000068,None,industry,silent,red,76,161,619.3566329999594,None,None,619.3566329999594,None,,,,,,,,,,,,,,,,,,,,,,,,,,,,,,,,,color6,001,2019_Nov_21_1705,ProdSingRedo,3.2.3,59.99084539712327,
38,0,38,0,,,,,,,,,,,,,,,,,,,,,,,,,,,,623.8715655000415,None,provision,aloud,blue,34,243,621.8689414999681,None,None,621.8689414999681,None,,,,,,,,,,,,,,,,,,,,,,,,,,,,,,,,,color6,001,2019_Nov_21_1705,ProdSingRedo,3.2.3,59.99084539712327,
39,0,39,0,,,,,,,,,,,,,,,,,,,,,,,,,,,,626.387589699938,None,empty,silent,red,89,112,624.381855799933,None,None,624.381855799933,None,,,,,,,,,,,,,,,,,,,,,,,,,,,,,,,,,color6,001,2019_Nov_21_1705,ProdSingRedo,3.2.3,59.99084539712327,
40,0,40,0,,,,,,,,,,,,,,,,,,,,,,,,,,,,628.9050497999415,None,subject,aloud,blue,38,312,626.9064122999553,None,None,626.9064122999553,None,,,,,,,,,,,,,,,,,,,,,,,,,,,,,,,,,color6,001,2019_Nov_21_1705,ProdSingRedo,3.2.3,59.99084539712327,
41,0,41,0,,,,,,,,,,,,,,,,,,,,,,,,,,,,631.421860100003,None,company,sing,yellow,9,64,629.4201484000077,None,None,629.4201484000077,None,,,,,,,,,,,,,,,,,,,,,,,,,,,,,,,,,color6,001,2019_Nov_21_1705,ProdSingRedo,3.2.3,59.99084539712327,
42,0,42,0,,,,,,,,,,,,,,,,,,,,,,,,,,,,633.9386863999534,None,equipment,silent,red,73,116,631.935269700014,None,None,631.935269700014,None,,,,,,,,,,,,,,,,,,,,,,,,,,,,,,,,,color6,001,2019_Nov_21_1705,ProdSingRedo,3.2.3,59.99084539712327,
43,0,43,0,,,,,,,,,,,,,,,,,,,,,,,,,,,,636.454918900039,None,weight,aloud,blue,39,353,634.4556337000104,None,None,634.4556337000104,None,,,,,,,,,,,,,,,,,,,,,,,,,,,,,,,,,color6,001,2019_Nov_21_1705,ProdSingRedo,3.2.3,59.99084539712327,
44,0,44,0,,,,,,,,,,,,,,,,,,,,,,,,,,,,638.9724582999479,None,contract,aloud,blue,42,68,636.9713812000118,None,None,636.9713812000118,None,,,,,,,,,,,,,,,,,,,,,,,,,,,,,,,,,color6,001,2019_Nov_21_1705,ProdSingRedo,3.2.3,59.99084539712327,
45,0,45,0,,,,,,,,,,,,,,,,,,,,,,,,,,,,641.4892424999271,None,rapid,sing,yellow,2,252,639.4852128999773,None,None,639.4852128999773,None,,,,,,,,,,,,,,,,,,,,,,,,,,,,,,,,,color6,001,2019_Nov_21_1705,ProdSingRedo,3.2.3,59.99084539712327,
46,0,46,0,,,,,,,,,,,,,,,,,,,,,,,,,,,,644.0061703999527,None,guide,aloud,blue,50,147,642.0005460999673,None,None,642.0005460999673,None,,,,,,,,,,,,,,,,,,,,,,,,,,,,,,,,,color6,001,2019_Nov_21_1705,ProdSingRedo,3.2.3,59.99084539712327,
47,0,47,0,,,,,,,,,,,,,,,,,,,,,,,,,,,,646.5229580999585,None,article,aloud,blue,57,11,644.5207738999743,None,None,644.5207738999743,None,,,,,,,,,,,,,,,,,,,,,,,,,,,,,,,,,color6,001,2019_Nov_21_1705,ProdSingRedo,3.2.3,59.99084539712327,
48,0,48,0,,,,,,,,,,,,,,,,,,,,,,,,,,,,649.0397186999908,None,damage,sing,yellow,21,83,647.0398758000229,None,None,647.0398758000229,None,,,,,,,,,,,,,,,,,,,,,,,,,,,,,,,,,color6,001,2019_Nov_21_1705,ProdSingRedo,3.2.3,59.99084539712327,
49,0,49,0,,,,,,,,,,,,,,,,,,,,,,,,,,,,651.5566491000354,None,history,silent,red,72,153,649.5541757999454,None,None,649.5541757999454,None,,,,,,,,,,,,,,,,,,,,,,,,,,,,,,,,,color6,001,2019_Nov_21_1705,ProdSingRedo,3.2.3,59.99084539712327,
50,0,50,0,,,,,,,,,,,,,,,,,,,,,,,,,,,,654.0734048000304,None,trail,sing,yellow,6,336,652.069179699989,None,None,652.069179699989,None,,,,,,,,,,,,,,,,,,,,,,,,,,,,,,,,,color6,001,2019_Nov_21_1705,ProdSingRedo,3.2.3,59.99084539712327,
51,0,51,0,,,,,,,,,,,,,,,,,,,,,,,,,,,,656.5902495000046,None,straight,silent,red,84,307,654.5902956000064,None,None,654.5902956000064,None,,,,,,,,,,,,,,,,,,,,,,,,,,,,,,,,,color6,001,2019_Nov_21_1705,ProdSingRedo,3.2.3,59.99084539712327,
52,0,52,0,,,,,,,,,,,,,,,,,,,,,,,,,,,,659.1070741999429,None,produce,silent,red,82,239,657.1059320999775,None,None,657.1059320999775,None,,,,,,,,,,,,,,,,,,,,,,,,,,,,,,,,,color6,001,2019_Nov_21_1705,ProdSingRedo,3.2.3,59.99084539712327,
53,0,53,0,,,,,,,,,,,,,,,,,,,,,,,,,,,,661.6243122000014,None,commercial,silent,red,65,61,659.6239042000379,None,None,659.6239042000379,None,,,,,,,,,,,,,,,,,,,,,,,,,,,,,,,,,color6,001,2019_Nov_21_1705,ProdSingRedo,3.2.3,59.99084539712327,
54,0,54,0,,,,,,,,,,,,,,,,,,,,,,,,,,,,664.1408391000004,None,audience,aloud,blue,30,14,662.1381180000026,None,None,662.1381180000026,None,,,,,,,,,,,,,,,,,,,,,,,,,,,,,,,,,color6,001,2019_Nov_21_1705,ProdSingRedo,3.2.3,59.99084539712327,
55,0,55,0,,,,,,,,,,,,,,,,,,,,,,,,,,,,666.6576433000155,None,junior,sing,yellow,5,167,664.6526693999767,None,None,664.6526693999767,None,,,,,,,,,,,,,,,,,,,,,,,,,,,,,,,,,color6,001,2019_Nov_21_1705,ProdSingRedo,3.2.3,59.99084539712327,
56,0,56,0,,,,,,,,,,,,,,,,,,,,,,,,,,,,669.1745680000167,None,death,sing,yellow,28,86,667.1702120000264,None,None,667.1702120000264,None,,,,,,,,,,,,,,,,,,,,,,,,,,,,,,,,,color6,001,2019_Nov_21_1705,ProdSingRedo,3.2.3,59.99084539712327,
57,0,57,0,,,,,,,,,,,,,,,,,,,,,,,,,,,,671.6912310000043,None,level,sing,yellow,11,170,669.6880389000289,None,None,669.6880389000289,None,,,,,,,,,,,,,,,,,,,,,,,,,,,,,,,,,color6,001,2019_Nov_21_1705,ProdSingRedo,3.2.3,59.99084539712327,
58,0,58,0,,,,,,,,,,,,,,,,,,,,,,,,,,,,674.2081477999454,None,travel,sing,yellow,19,338,672.2077014000388,None,None,672.2077014000388,None,,,,,,,,,,,,,,,,,,,,,,,,,,,,,,,,,color6,001,2019_Nov_21_1705,ProdSingRedo,3.2.3,59.99084539712327,
59,0,59,0,,,,,,,,,,,,,,,,,,,,,,,,,,,,676.7249643999385,None,ground,silent,red,79,142,674.7237288999604,None,None,674.7237288999604,None,,,,,,,,,,,,,,,,,,,,,,,,,,,,,,,,,color6,001,2019_Nov_21_1705,ProdSingRedo,3.2.3,59.99084539712327,
60,0,60,0,,,,,,,,,,,,,,,,,,,,,,,,,,,,679.2417577999877,None,command,silent,red,69,60,677.2382473000325,None,None,677.2382473000325,None,,,,,,,,,,,,,,,,,,,,,,,,,,,,,,,,,color6,001,2019_Nov_21_1705,ProdSingRedo,3.2.3,59.99084539712327,
61,0,61,0,,,,,,,,,,,,,,,,,,,,,,,,,,,,681.7586086000083,None,signal,aloud,blue,54,287,679.7565468000248,None,None,679.7565468000248,None,,,,,,,,,,,,,,,,,,,,,,,,,,,,,,,,,color6,001,2019_Nov_21_1705,ProdSingRedo,3.2.3,59.99084539712327,
62,0,62,0,,,,,,,,,,,,,,,,,,,,,,,,,,,,684.2754573000129,None,platform,aloud,blue,48,224,682.2761672999477,None,None,682.2761672999477,None,,,,,,,,,,,,,,,,,,,,,,,,,,,,,,,,,color6,001,2019_Nov_21_1705,ProdSingRedo,3.2.3,59.99084539712327,
63,0,63,0,,,,,,,,,,,,,,,,,,,,,,,,,,,,686.7923941999907,None,birth,silent,red,83,22,684.7880281000398,None,None,684.7880281000398,None,,,,,,,,,,,,,,,,,,,,,,,,,,,,,,,,,color6,001,2019_Nov_21_1705,ProdSingRedo,3.2.3,59.99084539712327,
64,0,64,0,,,,,,,,,,,,,,,,,,,,,,,,,,,,689.3099436999764,None,spoke,sing,yellow,17,300,687.3092031000415,None,None,687.3092031000415,None,,,,,,,,,,,,,,,,,,,,,,,,,,,,,,,,,color6,001,2019_Nov_21_1705,ProdSingRedo,3.2.3,59.99084539712327,
65,0,65,0,,,,,,,,,,,,,,,,,,,,,,,,,,,,691.8261034999741,None,religion,aloud,blue,43,258,689.8245951000135,None,None,689.8245951000135,None,,,,,,,,,,,,,,,,,,,,,,,,,,,,,,,,,color6,001,2019_Nov_21_1705,ProdSingRedo,3.2.3,59.99084539712327,
66,0,66,0,,,,,,,,,,,,,,,,,,,,,,,,,,,,694.3428294999758,None,design,silent,red,64,91,692.3416281000245,None,None,692.3416281000245,None,,,,,,,,,,,,,,,,,,,,,,,,,,,,,,,,,color6,001,2019_Nov_21_1705,ProdSingRedo,3.2.3,59.99084539712327,
67,0,67,0,,,,,,,,,,,,,,,,,,,,,,,,,,,,696.8586787999375,None,congress,aloud,blue,36,67,694.8604378999444,None,None,694.8604378999444,None,,,,,,,,,,,,,,,,,,,,,,,,,,,,,,,,,color6,001,2019_Nov_21_1705,ProdSingRedo,3.2.3,59.99084539712327,
68,0,68,0,,,,,,,,,,,,,,,,,,,,,,,,,,,,699.3766083000228,None,member,sing,yellow,25,188,697.3741071999539,None,None,697.3741071999539,None,,,,,,,,,,,,,,,,,,,,,,,,,,,,,,,,,color6,001,2019_Nov_21_1705,ProdSingRedo,3.2.3,59.99084539712327,
69,0,69,0,,,,,,,,,,,,,,,,,,,,,,,,,,,,701.8933624000056,None,interior,silent,red,75,164,699.8852474000305,None,None,699.8852474000305,None,,,,,,,,,,,,,,,,,,,,,,,,,,,,,,,,,color6,001,2019_Nov_21_1705,ProdSingRedo,3.2.3,59.99084539712327,
70,0,70,0,,,,,,,,,,,,,,,,,,,,,,,,,,,,704.4101236999268,None,evidence,sing,yellow,14,120,702.4091005999362,None,None,702.4091005999362,None,,,,,,,,,,,,,,,,,,,,,,,,,,,,,,,,,color6,001,2019_Nov_21_1705,ProdSingRedo,3.2.3,59.99084539712327,
71,0,71,0,,,,,,,,,,,,,,,,,,,,,,,,,,,,706.9270421999972,None,business,sing,yellow,20,38,704.9272780999308,None,None,704.9272780999308,None,,,,,,,,,,,,,,,,,,,,,,,,,,,,,,,,,color6,001,2019_Nov_21_1705,ProdSingRedo,3.2.3,59.99084539712327,
72,0,72,0,,,,,,,,,,,,,,,,,,,,,,,,,,,,709.4438587999903,None,edition,sing,yellow,29,107,707.4368844999699,None,None,707.4368844999699,None,,,,,,,,,,,,,,,,,,,,,,,,,,,,,,,,,color6,001,2019_Nov_21_1705,ProdSingRedo,3.2.3,59.99084539712327,
73,0,73,0,,,,,,,,,,,,,,,,,,,,,,,,,,,,711.9606991999317,None,comfort,sing,yellow,4,59,709.9561853000196,None,None,709.9561853000196,None,,,,,,,,,,,,,,,,,,,,,,,,,,,,,,,,,color6,001,2019_Nov_21_1705,ProdSingRedo,3.2.3,59.99084539712327,
74,0,74,0,,,,,,,,,,,,,,,,,,,,,,,,,,,,714.4775021999376,None,society,silent,red,71,293,712.4730799000245,None,None,712.4730799000245,None,,,,,,,,,,,,,,,,,,,,,,,,,,,,,,,,,color6,001,2019_Nov_21_1705,ProdSingRedo,3.2.3,59.99084539712327,
75,0,75,0,,,,,,,,,,,,,,,,,,,,,,,,,,,,716.9943302000174,None,husband,aloud,blue,37,156,714.994445099961,None,None,714.994445099961,None,,,,,,,,,,,,,,,,,,,,,,,,,,,,,,,,,color6,001,2019_Nov_21_1705,ProdSingRedo,3.2.3,59.99084539712327,
76,0,76,0,,,,,,,,,,,,,,,,,,,,,,,,,,,,719.5112431999296,None,south,aloud,blue,32,296,717.5059704999439,None,None,717.5059704999439,None,,,,,,,,,,,,,,,,,,,,,,,,,,,,,,,,,color6,001,2019_Nov_21_1705,ProdSingRedo,3.2.3,59.99084539712327,
77,0,77,0,,,,,,,,,,,,,,,,,,,,,,,,,,,,722.0280149999307,None,meeting,silent,red,86,187,720.0246974999318,None,None,720.0246974999318,None,,,,,,,,,,,,,,,,,,,,,,,,,,,,,,,,,color6,001,2019_Nov_21_1705,ProdSingRedo,3.2.3,59.99084539712327,
78,0,78,0,,,,,,,,,,,,,,,,,,,,,,,,,,,,724.544859000016,None,center,silent,red,74,44,722.5378722000169,None,None,722.5378722000169,None,,,,,,,,,,,,,,,,,,,,,,,,,,,,,,,,,color6,001,2019_Nov_21_1705,ProdSingRedo,3.2.3,59.99084539712327,
79,0,79,0,,,,,,,,,,,,,,,,,,,,,,,,,,,,727.0616587999975,None,childhood,sing,yellow,15,49,725.054624899989,None,None,725.054624899989,None,,,,,,,,,,,,,,,,,,,,,,,,,,,,,,,,,color6,001,2019_Nov_21_1705,ProdSingRedo,3.2.3,59.99084539712327,
80,0,80,0,,,,,,,,,,,,,,,,,,,,,,,,,,,,729.5785839000018,None,trash,aloud,blue,31,337,727.5754969000118,None,None,727.5754969000118,None,,,,,,,,,,,,,,,,,,,,,,,,,,,,,,,,,color6,001,2019_Nov_21_1705,ProdSingRedo,3.2.3,59.99084539712327,
81,0,81,0,,,,,,,,,,,,,,,,,,,,,,,,,,,,732.0953983999789,None,search,sing,yellow,26,276,730.0920283999294,None,None,730.0920283999294,None,,,,,,,,,,,,,,,,,,,,,,,,,,,,,,,,,color6,001,2019_Nov_21_1705,ProdSingRedo,3.2.3,59.99084539712327,
82,0,82,0,,,,,,,,,,,,,,,,,,,,,,,,,,,,734.6122827000218,None,region,aloud,blue,41,256,732.6098458999768,None,None,732.6098458999768,None,,,,,,,,,,,,,,,,,,,,,,,,,,,,,,,,,color6,001,2019_Nov_21_1705,ProdSingRedo,3.2.3,59.99084539712327,
83,0,83,0,,,,,,,,,,,,,,,,,,,,,,,,,,,,737.1290524000069,None,mayor,silent,red,67,183,735.1294442999642,None,None,735.1294442999642,None,,,,,,,,,,,,,,,,,,,,,,,,,,,,,,,,,color6,001,2019_Nov_21_1705,ProdSingRedo,3.2.3,59.99084539712327,
84,0,84,0,,,,,,,,,,,,,,,,,,,,,,,,,,,,739.64587509993,None,suspect,silent,red,80,318,737.6447872000281,None,None,737.6447872000281,None,,,,,,,,,,,,,,,,,,,,,,,,,,,,,,,,,color6,001,2019_Nov_21_1705,ProdSingRedo,3.2.3,59.99084539712327,
85,0,85,0,,,,,,,,,,,,,,,,,,,,,,,,,,,,742.1628075999906,None,career,silent,red,88,42,740.1604916999349,None,None,740.1604916999349,None,,,,,,,,,,,,,,,,,,,,,,,,,,,,,,,,,color6,001,2019_Nov_21_1705,ProdSingRedo,3.2.3,59.99084539712327,
86,0,86,0,,,,,,,,,,,,,,,,,,,,,,,,,,,,744.6795717999339,None,surface,sing,yellow,24,316,742.6781870999839,None,None,742.6781870999839,None,,,,,,,,,,,,,,,,,,,,,,,,,,,,,,,,,color6,001,2019_Nov_21_1705,ProdSingRedo,3.2.3,59.99084539712327,
87,0,87,0,,,,,,,,,,,,,,,,,,,,,,,,,,,,747.1964362999424,None,property,aloud,blue,58,242,745.1929673999548,None,None,745.1929673999548,None,,,,,,,,,,,,,,,,,,,,,,,,,,,,,,,,,color6,001,2019_Nov_21_1705,ProdSingRedo,3.2.3,59.99084539712327,
88,0,88,0,,,,,,,,,,,,,,,,,,,,,,,,,,,,749.7132497000275,None,beauty,sing,yellow,23,18,747.7137707000365,None,None,747.7137707000365,None,,,,,,,,,,,,,,,,,,,,,,,,,,,,,,,,,color6,001,2019_Nov_21_1705,ProdSingRedo,3.2.3,59.99084539712327,
89,0,89,0,,,,,,,,,,,,,,,,,,,,,,,,,,,,752.2300987000344,None,novel,silent,red,85,202,750.2248360000085,None,None,750.2248360000085,None,,,,,,,,,,,,,,,,,,,,,,,,,,,,,,,,,color6,001,2019_Nov_21_1705,ProdSingRedo,3.2.3,59.99084539712327,
,,,,,,,,,,,,,,,,,,,,,,,,,,,,,,,,,,,,,,,,,,,752.7301095000003,None,k,48.03378099994734,752.7301095000003,None,,,,,,,,,,,,,,,,,,,,,,,,,,,color6,001,2019_Nov_21_1705,ProdSingRedo,3.2.3,59.99084539712327,
,,,,0,0,0,0,,,,,,,,,,,,,,,,,,,,,,,,820.4787006999832,None,,,,,,,,,,,,,,,,,evidence,sing,yellow,0,14,120,801.3063855000073,None,801.3063855000073,None,6,14.840933899977244,801.3063855000073,None,816.1970227999846,None,816.7146122000413,None,816.7146122000413,None,r,3.7286060999613255,816.7146122000413,None,,,color6,001,2019_Nov_21_1705,ProdSingRedo,3.2.3,59.99084539712327,
,,,,1,0,1,0,,,,,,,,,,,,,,,,,,,,,,,,827.6105386000127,None,,,,,,,,,,,,,,,,,resistance,new_aloud,blue,1,124,262,821.0061718999641,None,821.0061718999641,None,1,3.725075999973342,821.0061718999641,None,824.7704753000289,None,825.30026119994,None,825.30026119994,None,n,2.278993600048125,825.30026119994,None,,,color6,001,2019_Nov_21_1705,ProdSingRedo,3.2.3,59.99084539712327,
,,,,2,0,2,0,,,,,,,,,,,,,,,,,,,,,,,,834.3613007999957,None,,,,,,,,,,,,,,,,,level,sing,yellow,2,11,170,828.1361970999278,None,828.1361970999278,None,6,3.4993268999969587,828.1361970999278,None,831.6687922999263,None,832.1810096999398,None,832.1810096999398,None,r,2.1501621999777853,832.1810096999398,None,,,color6,001,2019_Nov_21_1705,ProdSingRedo,3.2.3,59.99084539712327,
,,,,3,0,3,0,,,,,,,,,,,,,,,,,,,,,,,,842.5941625999985,None,,,,,,,,,,,,,,,,,platform,aloud,blue,3,48,224,834.8903788999887,None,834.8903788999887,None,6,4.43294650001917,834.8903788999887,None,839.3748447999824,None,839.8940015999833,None,839.8940015999833,None,f,2.6612459999741986,839.8940015999833,None,,,color6,001,2019_Nov_21_1705,ProdSingRedo,3.2.3,59.99084539712327,
,,,,4,0,4,0,,,,,,,,,,,,,,,,,,,,,,,,849.278671600041,None,,,,,,,,,,,,,,,,,grade,new_sing,yellow,4,110,140,843.124170999974,None,843.124170999974,None,1,3.647080900031142,843.124170999974,None,846.812929000007,None,847.3341442999663,None,847.3341442999663,None,n,1.9092355000320822,847.3341442999663,None,,,color6,001,2019_Nov_21_1705,ProdSingRedo,3.2.3,59.99084539712327,
,,,,5,0,5,0,,,,,,,,,,,,,,,,,,,,,,,,852.4956480000401,None,,,,,,,,,,,,,,,,,prime,new_sing,yellow,5,119,235,849.7997463999782,None,849.7997463999782,None,1,2.0681559999939054,849.7997463999782,None,851.9065002000425,None,852.4285449000308,None,852.4285449000308,None,n,0.03069460007827729,852.4285449000308,None,,,color6,001,2019_Nov_21_1705,ProdSingRedo,3.2.3,59.99084539712327,
,,,,6,0,6,0,,,,,,,,,,,,,,,,,,,,,,,,856.1949437999865,None,,,,,,,,,,,,,,,,,portion,sing,yellow,6,7,228,853.0171502999729,None,853.0171502999729,None,6,2.5141473000403494,853.0171502999729,None,855.571889600018,None,856.0956860999577,None,856.0956860999577,None,f,0.05960639996919781,856.0956860999577,None,,,color6,001,2019_Nov_21_1705,ProdSingRedo,3.2.3,59.99084539712327,
,,,,7,0,7,0,,,,,,,,,,,,,,,,,,,,,,,,863.3786757999333,None,,,,,,,,,,,,,,,,,beauty,sing,yellow,7,23,18,856.7193411999615,None,856.7193411999615,None,6,2.403916799928993,856.7193411999615,None,859.1771478999872,None,859.7023679999402,None,859.7023679999402,None,f,3.636897800024599,859.7023679999402,None,,,color6,001,2019_Nov_21_1705,ProdSingRedo,3.2.3,59.99084539712327,
,,,,8,0,8,0,,,,,,,,,,,,,,,,,,,,,,,,866.9309926000424,None,,,,,,,,,,,,,,,,,travel,sing,yellow,8,19,338,863.9071345999837,None,863.9071345999837,None,6,2.272064400021918,863.9071345999837,None,866.2261112999404,None,866.7533127999632,None,866.7533127999632,None,f,0.1460967999882996,866.7533127999632,None,,,color6,001,2019_Nov_21_1705,ProdSingRedo,3.2.3,59.99084539712327,
,,,,9,0,9,0,,,,,,,,,,,,,,,,,,,,,,,,870.8796942000045,None,,,,,,,,,,,,,,,,,shape,new_silent,red,9,154,282,867.4452814999968,None,867.4452814999968,None,1,2.653974499902688,867.4452814999968,None,870.1449577999301,None,870.6672744000098,None,870.6672744000098,None,n,0.18404800002463162,870.6672744000098,None,,,color6,001,2019_Nov_21_1705,ProdSingRedo,3.2.3,59.99084539712327,
,,,,10,0,10,0,,,,,,,,,,,,,,,,,,,,,,,,873.6306793999393,None,,,,,,,,,,,,,,,,,waste,new_silent,red,10,150,350,871.4037406999851,None,871.4037406999851,None,1,1.4954963000491261,871.4037406999851,None,872.9420898000244,None,873.4650737999473,None,873.4650737999473,None,n,0.13017739995848387,873.4650737999473,None,,,color6,001,2019_Nov_21_1705,ProdSingRedo,3.2.3,59.99084539712327,
,,,,11,0,11,0,,,,,,,,,,,,,,,,,,,,,,,,876.1802540000062,None,,,,,,,,,,,,,,,,,season,new_sing,yellow,11,109,277,874.1557685999433,None,874.1557685999433,None,1,1.2074639999773353,874.1557685999433,None,875.4196090999758,None,875.93410329998,None,875.93410329998,None,n,0.2211246999213472,875.93410329998,None,,,color6,001,2019_Nov_21_1705,ProdSingRedo,3.2.3,59.99084539712327,
,,,,12,0,12,0,,,,,,,,,,,,,,,,,,,,,,,,883.783170199953,None,,,,,,,,,,,,,,,,,childhood,sing,yellow,12,15,49,876.7021557999542,None,876.7021557999542,None,6,4.141132300021127,876.7021557999542,None,880.8935316000134,None,881.4158363000024,None,881.4158363000024,None,r,2.3395218000514433,881.4158363000024,None,,,color6,001,2019_Nov_21_1705,ProdSingRedo,3.2.3,59.99084539712327,
,,,,13,0,13,0,,,,,,,,,,,,,,,,,,,,,,,,887.8666961999843,None,,,,,,,,,,,,,,,,,election,new_aloud,blue,13,127,109,884.3037224999862,None,884.3037224999862,None,5,2.219446000060998,884.3037224999862,None,886.5586142999819,None,887.0800383000169,None,887.0800383000169,None,n,0.7551960999844596,887.0800383000169,None,,,color6,001,2019_Nov_21_1705,ProdSingRedo,3.2.3,59.99084539712327,
,,,,14,0,14,0,,,,,,,,,,,,,,,,,,,,,,,,890.9817228999455,None,,,,,,,,,,,,,,,,,weight,aloud,blue,14,39,353,888.3908431000309,None,888.3908431000309,None,1,1.9884398999856785,888.3908431000309,None,890.430837300024,None,890.9534837999381,None,890.9534837999381,None,n,0.0018574000569060445,890.9534837999381,None,,,color6,001,2019_Nov_21_1705,ProdSingRedo,3.2.3,59.99084539712327,
,,,,15,0,15,0,,,,,,,,,,,,,,,,,,,,,,,,892.9309426000109,None,,,,,,,,,,,,,,,,,month,new_aloud,blue,15,148,193,891.5021807999583,None,891.5021807999583,None,1,0.6931521000806242,891.5021807999583,None,892.2370365000097,None,892.7482035999419,None,892.7482035999419,None,n,0.14304019999690354,892.7482035999419,None,,,color6,001,2019_Nov_21_1705,ProdSingRedo,3.2.3,59.99084539712327,
,,,,16,0,16,0,,,,,,,,,,,,,,,,,,,,,,,,894.915062099928,None,,,,,,,,,,,,,,,,,discussion,new_aloud,blue,16,138,96,893.458823199966,None,893.458823199966,None,1,0.7844410000834614,893.458823199966,None,894.3005631000269,None,894.8171737999655,None,894.8171737999655,None,n,0.06616559997200966,894.8171737999655,None,,,color6,001,2019_Nov_21_1705,ProdSingRedo,3.2.3,59.99084539712327,
,,,,17,0,17,0,,,,,,,,,,,,,,,,,,,,,,,,896.8812661999837,None,,,,,,,,,,,,,,,,,mayor,silent,red,17,67,183,895.4441983000142,None,895.4441983000142,None,1,0.7595708000008017,895.4441983000142,None,896.2492000999628,None,896.7695706000086,None,896.7695706000086,None,n,0.07372870005201548,896.7695706000086,None,,,color6,001,2019_Nov_21_1705,ProdSingRedo,3.2.3,59.99084539712327,
,,,,18,0,18,0,,,,,,,,,,,,,,,,,,,,,,,,901.2490420000395,None,,,,,,,,,,,,,,,,,answer,sing,yellow,18,13,8,897.4093173999572,None,897.4093173999572,None,6,2.865994399995543,897.4093173999572,None,900.3323463000124,None,900.8543762000045,None,900.8543762000045,None,r,0.3648551000514999,900.8543762000045,None,,,color6,001,2019_Nov_21_1705,ProdSingRedo,3.2.3,59.99084539712327,
,,,,19,0,19,0,,,,,,,,,,,,,,,,,,,,,,,,906.3991411000025,None,,,,,,,,,,,,,,,,,finish,aloud,blue,19,56,130,901.7719702000031,None,901.7719702000031,None,6,3.375239000073634,901.7719702000031,None,905.1944982999703,None,905.7191994999303,None,905.7191994999303,None,f,0.6523980000056326,905.7191994999303,None,,,color6,001,2019_Nov_21_1705,ProdSingRedo,3.2.3,59.99084539712327,
,,,,20,0,20,0,,,,,,,,,,,,,,,,,,,,,,,,909.881927600014,None,,,,,,,,,,,,,,,,,thick,new_aloud,blue,20,143,327,906.9233184999321,None,906.9233184999321,None,1,2.207900399924256,906.9233184999321,None,909.179562699981,None,909.7003232999705,None,909.7003232999705,None,n,0.14293209998868406,909.7003232999705,None,,,color6,001,2019_Nov_21_1705,ProdSingRedo,3.2.3,59.99084539712327,
,,,,21,0,21,0,,,,,,,,,,,,,,,,,,,,,,,,912.0655327000422,None,,,,,,,,,,,,,,,,,account,new_sing,yellow,21,91,1,910.4100184999406,None,910.4100184999406,None,1,0.8652932000113651,910.4100184999406,None,911.3142282000044,None,911.8363594999537,None,911.8363594999537,None,n,0.19098529999610037,911.8363594999537,None,,,color6,001,2019_Nov_21_1705,ProdSingRedo,3.2.3,59.99084539712327,
,,,,22,0,22,0,,,,,,,,,,,,,,,,,,,,,,,,914.1163359000348,None,,,,,,,,,,,,,,,,,judge,silent,red,22,81,166,912.5926475999877,None,912.5926475999877,None,1,0.6905185000505298,912.5926475999877,None,913.3271208000369,None,913.8543557999656,None,913.8543557999656,None,n,0.2370421999366954,913.8543557999656,None,,,color6,001,2019_Nov_21_1705,ProdSingRedo,3.2.3,59.99084539712327,
,,,,23,0,23,0,,,,,,,,,,,,,,,,,,,,,,,,919.0845919999992,None,,,,,,,,,,,,,,,,,contract,aloud,blue,23,42,68,914.6419805999612,None,914.6419805999612,None,6,2.5212877000449225,914.6419805999612,None,917.214915300021,None,917.7361675000284,None,917.7361675000284,None,r,1.315152999944985,917.7361675000284,None,,,color6,001,2019_Nov_21_1705,ProdSingRedo,3.2.3,59.99084539712327,
,,,,24,0,24,0,,,,,,,,,,,,,,,,,,,,,,,,922.366954499972,None,,,,,,,,,,,,,,,,,meeting,silent,red,24,86,187,919.6077431000303,None,919.6077431000303,None,5,2.0837789999786764,919.6077431000303,None,921.7319142000051,None,922.2528958999319,None,922.2528958999319,None,f,0.07852360000833869,922.2528958999319,None,,,color6,001,2019_Nov_21_1705,ProdSingRedo,3.2.3,59.99084539712327,
,,,,25,0,25,0,,,,,,,,,,,,,,,,,,,,,,,,926.5506621999666,None,,,,,,,,,,,,,,,,,payment,silent,red,25,68,215,922.8926267999923,None,922.8926267999923,None,5,1.4146519999485463,922.8926267999923,None,924.3527844999917,None,924.8741942000343,None,924.8741942000343,None,f,1.6410732000367716,924.8741942000343,None,,,color6,001,2019_Nov_21_1705,ProdSingRedo,3.2.3,59.99084539712327,
,,,,26,0,26,0,,,,,,,,,,,,,,,,,,,,,,,,929.7004448999651,None,,,,,,,,,,,,,,,,,hearing,new_sing,yellow,26,95,150,927.0778001999715,None,927.0778001999715,None,1,1.9014904000796378,927.0778001999715,None,929.0392187000252,None,929.5534206000157,None,929.5534206000157,None,n,0.12192659999709576,929.5534206000157,None,,,color6,001,2019_Nov_21_1705,ProdSingRedo,3.2.3,59.99084539712327,
,,,,27,0,27,0,,,,,,,,,,,,,,,,,,,,,,,,931.8177734999917,None,,,,,,,,,,,,,,,,,command,silent,red,27,69,60,930.2272653999971,None,930.2272653999971,None,1,0.8160172000061721,930.2272653999971,None,931.0817381000379,None,931.6053208999801,None,931.6053208999801,None,n,0.1819743000669405,931.6053208999801,None,,,color6,001,2019_Nov_21_1705,ProdSingRedo,3.2.3,59.99084539712327,
,,,,28,0,28,0,,,,,,,,,,,,,,,,,,,,,,,,936.5849568999838,None,,,,,,,,,,,,,,,,,order,new_aloud,blue,28,142,207,932.3391523000319,None,932.3391523000319,None,5,3.3121643000049517,932.3391523000319,None,935.6943191000028,None,936.214692599955,None,936.214692599955,None,f,0.3327381000854075,936.214692599955,None,,,color6,001,2019_Nov_21_1705,ProdSingRedo,3.2.3,59.99084539712327,
,,,,29,0,29,0,,,,,,,,,,,,,,,,,,,,,,,,939.0680040000007,None,,,,,,,,,,,,,,,,,danger,new_silent,red,29,178,85,937.1110192999477,None,937.1110192999477,None,1,0.7965480000711977,937.1110192999477,None,937.951427299995,None,938.4736828999594,None,938.4736828999594,None,n,0.5696113999001682,938.4736828999594,None,,,color6,001,2019_Nov_21_1705,ProdSingRedo,3.2.3,59.99084539712327,
,,,,30,0,30,0,,,,,,,,,,,,,,,,,,,,,,,,941.3508928000228,None,,,,,,,,,,,,,,,,,trial,new_silent,red,30,160,341,939.5937702000374,None,939.5937702000374,None,1,0.825545399915427,939.5937702000374,None,940.4661013999721,None,940.9861013999907,None,940.9861013999907,None,n,0.32916239998303354,940.9861013999907,None,,,color6,001,2019_Nov_21_1705,ProdSingRedo,3.2.3,59.99084539712327,
,,,,31,0,31,0,,,,,,,,,,,,,,,,,,,,,,,,943.4182408000343,None,,,,,,,,,,,,,,,,,under,new_silent,red,31,170,343,941.88045279996,None,941.88045279996,None,1,0.6588776999851689,941.88045279996,None,942.577295999974,None,943.0853992999764,None,943.0853992999764,None,n,0.30193359998520464,943.0853992999764,None,,,color6,001,2019_Nov_21_1705,ProdSingRedo,3.2.3,59.99084539712327,
,,,,32,0,32,0,,,,,,,,,,,,,,,,,,,,,,,,945.7510956999613,None,,,,,,,,,,,,,,,,,management,new_sing,yellow,32,93,177,943.9486032000277,None,943.9486032000277,None,1,0.8786152000539005,943.9486032000277,None,944.8739869999699,None,945.3927539000288,None,945.3927539000288,None,n,0.3225974999368191,945.3927539000288,None,,,color6,001,2019_Nov_21_1705,ProdSingRedo,3.2.3,59.99084539712327,
,,,,33,0,33,0,,,,,,,,,,,,,,,,,,,,,,,,948.8854229999706,None,,,,,,,,,,,,,,,,,religion,aloud,blue,33,43,258,946.2781571999658,None,946.2781571999658,None,1,1.6211348999058828,946.2781571999658,None,947.950850400026,None,948.4730898999842,None,948.4730898999842,None,n,0.3781674999045208,948.4730898999842,None,,,color6,001,2019_Nov_21_1705,ProdSingRedo,3.2.3,59.99084539712327,
,,,,34,0,34,0,,,,,,,,,,,,,,,,,,,,,,,,953.1847958000144,None,,,,,,,,,,,,,,,,,sound,new_silent,red,34,158,295,949.4098109999904,None,949.4098109999904,None,5,3.0414634000044316,949.4098109999904,None,952.4999177999562,None,953.0218144999817,None,953.0218144999817,None,f,0.12550640001427382,953.0218144999817,None,,,color6,001,2019_Nov_21_1705,ProdSingRedo,3.2.3,59.99084539712327,
,,,,35,0,35,0,,,,,,,,,,,,,,,,,,,,,,,,956.0691705000354,None,,,,,,,,,,,,,,,,,frank,new_silent,red,35,176,133,953.7091931999894,None,953.7091931999894,None,1,1.622140199993737,953.7091931999894,None,955.3850635000272,None,955.9111568999942,None,955.9111568999942,None,n,0.12410209991503507,955.9111568999942,None,,,color6,001,2019_Nov_21_1705,ProdSingRedo,3.2.3,59.99084539712327,
,,,,36,0,36,0,,,,,,,,,,,,,,,,,,,,,,,,958.1037818000186,None,,,,,,,,,,,,,,,,,cross,new_silent,red,36,164,80,956.5907470999518,None,956.5907470999518,None,1,0.6525408999295905,956.5907470999518,None,957.2822607000126,None,957.8015323999571,None,957.8015323999571,None,n,0.27399949997197837,957.8015323999571,None,,,color6,001,2019_Nov_21_1705,ProdSingRedo,3.2.3,59.99084539712327,
,,,,37,0,37,0,,,,,,,,,,,,,,,,,,,,,,,,963.6022098000394,None,,,,,,,,,,,,,,,,,death,sing,yellow,37,28,86,958.6263307000045,None,958.6263307000045,None,5,2.4809420000528917,958.6263307000045,None,961.146277599968,None,961.6721649999963,None,961.6721649999963,None,f,1.8912254999158904,961.6721649999963,None,,,color6,001,2019_Nov_21_1705,ProdSingRedo,3.2.3,59.99084539712327,
,,,,38,0,38,0,,,,,,,,,,,,,,,,,,,,,,,,967.6533836999442,None,,,,,,,,,,,,,,,,,poetry,new_sing,yellow,38,94,225,964.1275812999811,None,964.1275812999811,None,1,1.3718885000562295,964.1275812999811,None,965.551642299979,None,966.0733759999275,None,966.0733759999275,None,n,1.5458782999776304,966.0733759999275,None,,,color6,001,2019_Nov_21_1705,ProdSingRedo,3.2.3,59.99084539712327,
,,,,39,0,39,0,,,,,,,,,,,,,,,,,,,,,,,,971.287974899984,None,,,,,,,,,,,,,,,,,instrument,sing,yellow,39,18,163,968.1815639999695,None,968.1815639999695,None,5,2.2943949000909925,968.1815639999695,None,970.520077800029,None,971.0424234999809,None,971.0424234999809,None,f,0.20894829998724163,971.0424234999809,None,,,color6,001,2019_Nov_21_1705,ProdSingRedo,3.2.3,59.99084539712327,
,,,,40,0,40,0,,,,,,,,,,,,,,,,,,,,,,,,975.5531178000383,None,,,,,,,,,,,,,,,,,message,new_silent,red,40,166,189,971.8132666000165,None,971.8132666000165,None,4,1.9581407000077888,971.8132666000165,None,973.8193615999771,None,974.3406676999293,None,974.3406676999293,None,f,1.174655899987556,974.3406676999293,None,,,color6,001,2019_Nov_21_1705,ProdSingRedo,3.2.3,59.99084539712327,
,,,,41,0,41,0,,,,,,,,,,,,,,,,,,,,,,,,978.7033710000105,None,,,,,,,,,,,,,,,,,interior,silent,red,41,75,164,976.0754027999938,None,976.0754027999938,None,3,1.9118342000292614,976.0754027999938,None,978.0315271000145,None,978.5548647999531,None,978.5548647999531,None,n,0.11246800003573298,978.5548647999531,None,,,color6,001,2019_Nov_21_1705,ProdSingRedo,3.2.3,59.99084539712327,
,,,,42,0,42,0,,,,,,,,,,,,,,,,,,,,,,,,983.3379264000105,None,,,,,,,,,,,,,,,,,education,new_aloud,blue,42,121,108,979.231571799959,None,979.231571799959,None,3,3.419726299936883,979.231571799959,None,982.7056636000052,None,983.2260069999611,None,983.2260069999611,None,f,0.08140929997898638,983.2260069999611,None,,,color6,001,2019_Nov_21_1705,ProdSingRedo,3.2.3,59.99084539712327,
,,,,43,0,43,0,,,,,,,,,,,,,,,,,,,,,,,,986.5873795000371,None,,,,,,,,,,,,,,,,,impact,new_sing,yellow,43,101,157,983.8641416999744,None,983.8641416999744,None,3,2.107149500050582,983.8641416999744,None,986.016609299928,None,986.5414697999367,None,986.5414697999367,None,f,0.0058623000513762236,986.5414697999367,None,,,color6,001,2019_Nov_21_1705,ProdSingRedo,3.2.3,59.99084539712327,
,,,,44,0,44,0,,,,,,,,,,,,,,,,,,,,,,,,990.188208800042,None,,,,,,,,,,,,,,,,,comfort,sing,yellow,44,4,59,987.1142850000178,None,987.1142850000178,None,3,0.6572053999407217,987.1142850000178,None,987.8365011999849,None,988.3558830999536,None,988.3558830999536,None,f,1.7994697000831366,988.3558830999536,None,,,color6,001,2019_Nov_21_1705,ProdSingRedo,3.2.3,59.99084539712327,
,,,,45,0,45,0,,,,,,,,,,,,,,,,,,,,,,,,993.3543617000105,None,,,,,,,,,,,,,,,,,employment,silent,red,45,63,111,990.7163772999775,None,990.7163772999775,None,6,1.7829503000248224,990.7163772999775,None,992.5541377000045,None,993.0797452999977,None,993.0797452999977,None,r,0.23568519996479154,993.0797452999977,None,,,color6,001,2019_Nov_21_1705,ProdSingRedo,3.2.3,59.99084539712327,
,,,,46,0,46,0,,,,,,,,,,,,,,,,,,,,,,,,997.7720229999395,None,,,,,,,,,,,,,,,,,damage,sing,yellow,46,21,83,993.8795233999845,None,993.8795233999845,None,1,2.03585360001307,993.8795233999845,None,995.9711524000159,None,996.4964940999635,None,996.4964940999635,None,f,1.2428190999198705,996.4964940999635,None,,,color6,001,2019_Nov_21_1705,ProdSingRedo,3.2.3,59.99084539712327,
,,,,47,0,47,0,,,,,,,,,,,,,,,,,,,,,,,,1000.2715221999679,None,,,,,,,,,,,,,,,,,thing,new_sing,yellow,47,115,328,998.2956624999642,None,998.2956624999642,None,1,0.5956797999097034,998.2956624999642,None,998.9355132000055,None,999.4555263000075,None,999.4555263000075,None,n,0.7799285999499261,999.4555263000075,None,,,color6,001,2019_Nov_21_1705,ProdSingRedo,3.2.3,59.99084539712327,
,,,,48,0,48,0,,,,,,,,,,,,,,,,,,,,,,,,1002.3557064000051,None,,,,,,,,,,,,,,,,,medicine,new_silent,red,48,179,186,1000.794969300041,None,1000.794969300041,None,1,0.8084740999620408,1000.794969300041,None,1001.6466511000181,None,1002.1545032999711,None,1002.1545032999711,None,n,0.16885949997231364,1002.1545032999711,None,,,color6,001,2019_Nov_21_1705,ProdSingRedo,3.2.3,59.99084539712327,
,,,,49,0,49,0,,,,,,,,,,,,,,,,,,,,,,,,1004.37253589998,None,,,,,,,,,,,,,,,,,stand,new_silent,red,49,172,302,1002.8811085999478,None,1002.8811085999478,None,1,0.6422240000683814,1002.8811085999478,None,1003.5710928000044,None,1004.0923551999731,None,1004.0923551999731,None,n,0.24697719991672784,1004.0923551999731,None,,,color6,001,2019_Nov_21_1705,ProdSingRedo,3.2.3,59.99084539712327,
,,,,50,0,50,0,,,,,,,,,,,,,,,,,,,,,,,,1007.623616799945,None,,,,,,,,,,,,,,,,,sleep,new_sing,yellow,50,107,290,1004.8934483999619,None,1004.8934483999619,None,3,1.861815799959004,1004.8934483999619,None,1006.8022371999687,None,1007.3215497999918,None,1007.3215497999918,None,f,0.26572839997243136,1007.3215497999918,None,,,color6,001,2019_Nov_21_1705,ProdSingRedo,3.2.3,59.99084539712327,
,,,,51,0,51,0,,,,,,,,,,,,,,,,,,,,,,,,1010.439670599997,None,,,,,,,,,,,,,,,,,reading,new_aloud,blue,51,126,254,1008.1544912999962,None,1008.1544912999962,None,2,1.6089681000448763,1008.1544912999962,None,1009.8046531999717,None,1010.3284936000127,None,1010.3284936000127,None,n,0.08382250007707626,1010.3284936000127,None,,,color6,001,2019_Nov_21_1705,ProdSingRedo,3.2.3,59.99084539712327,
,,,,52,0,52,0,,,,,,,,,,,,,,,,,,,,,,,,1013.1734866999323,None,,,,,,,,,,,,,,,,,scale,sing,yellow,52,1,272,1010.9648700000253,None,1010.9648700000253,None,2,0.6544685999397188,1010.9648700000253,None,1011.6717525999993,None,1012.193094599992,None,1012.193094599992,None,f,0.954537000041455,1012.193094599992,None,,,color6,001,2019_Nov_21_1705,ProdSingRedo,3.2.3,59.99084539712327,
,,,,53,0,53,0,,,,,,,,,,,,,,,,,,,,,,,,1017.4727814999642,None,,,,,,,,,,,,,,,,,running,aloud,blue,53,45,268,1013.7002187999897,None,1013.7002187999897,None,4,2.911530499928631,1013.7002187999897,None,1016.6502006000374,None,1017.1789051999804,None,1017.1789051999804,None,r,0.2563640000298619,1017.1789051999804,None,,,color6,001,2019_Nov_21_1705,ProdSingRedo,3.2.3,59.99084539712327,
,,,,54,0,54,0,,,,,,,,,,,,,,,,,,,,,,,,1020.4905561000342,None,,,,,,,,,,,,,,,,,collection,new_aloud,blue,54,133,54,1017.9948605999816,None,1017.9948605999816,None,3,0.6885006999364123,1017.9948605999816,None,1018.7356762000127,None,1019.2577439999441,None,1019.2577439999441,None,n,1.193687199964188,1019.2577439999441,None,,,color6,001,2019_Nov_21_1705,ProdSingRedo,3.2.3,59.99084539712327,
,,,,55,0,55,0,,,,,,,,,,,,,,,,,,,,,,,,1023.3901420999318,None,,,,,,,,,,,,,,,,,sight,new_silent,red,55,157,286,1021.0152335999301,None,1021.0152335999301,None,2,1.4840481999563053,1021.0152335999301,None,1022.538987900014,None,1023.0596760000335,None,1023.0596760000335,None,n,0.2956534998957068,1023.0596760000335,None,,,color6,001,2019_Nov_21_1705,ProdSingRedo,3.2.3,59.99084539712327,
,,,,56,0,56,0,,,,,,,,,,,,,,,,,,,,,,,,1027.8904448000249,None,,,,,,,,,,,,,,,,,breath,aloud,blue,56,44,27,1023.9204248000169,None,1023.9204248000169,None,4,3.1708067000145093,1023.9204248000169,None,1027.1425871000392,None,1027.659074599971,None,1027.659074599971,None,f,0.19230879994574934,1027.659074599971,None,,,color6,001,2019_Nov_21_1705,ProdSingRedo,3.2.3,59.99084539712327,
,,,,57,0,57,0,,,,,,,,,,,,,,,,,,,,,,,,1031.2906439999351,None,,,,,,,,,,,,,,,,,stranger,new_sing,yellow,57,104,309,1028.4210481999908,None,1028.4210481999908,None,5,1.7102410000516102,1028.4210481999908,None,1030.17423340003,None,1030.696469699964,None,1030.696469699964,None,r,0.5548570000100881,1030.696469699964,None,,,color6,001,2019_Nov_21_1705,ProdSingRedo,3.2.3,59.99084539712327,
,,,,58,0,58,0,,,,,,,,,,,,,,,,,,,,,,,,1034.2405850000214,None,,,,,,,,,,,,,,,,,surprise,new_sing,yellow,58,113,317,1031.8172708000056,None,1031.8172708000056,None,3,1.5780518000246957,1031.8172708000056,None,1033.439916000003,None,1033.963006200036,None,1033.963006200036,None,f,0.24038450000807643,1033.963006200036,None,,,color6,001,2019_Nov_21_1705,ProdSingRedo,3.2.3,59.99084539712327,
,,,,59,0,59,0,,,,,,,,,,,,,,,,,,,,,,,,1037.0248226999538,None,,,,,,,,,,,,,,,,,personnel,new_silent,red,59,169,219,1034.7631057000253,None,1034.7631057000253,None,1,1.480250300024636,1034.7631057000253,None,1036.2864767999854,None,1036.8079311000183,None,1036.8079311000183,None,n,0.18734750000294298,1036.8079311000183,None,,,color6,001,2019_Nov_21_1705,ProdSingRedo,3.2.3,59.99084539712327,
,,,,60,0,60,0,,,,,,,,,,,,,,,,,,,,,,,,1040.325477299979,None,,,,,,,,,,,,,,,,,research,new_silent,red,60,174,261,1037.550088500022,None,1037.550088500022,None,3,1.9813823000295088,1037.550088500022,None,1039.5776762999594,None,1040.096972099971,None,1040.096972099971,None,f,0.2025902000023052,1040.096972099971,None,,,color6,001,2019_Nov_21_1705,ProdSingRedo,3.2.3,59.99084539712327,
,,,,61,0,61,0,,,,,,,,,,,,,,,,,,,,,,,,1043.9921714999946,None,,,,,,,,,,,,,,,,,guest,silent,red,61,70,146,1040.8496535000158,None,1040.8496535000158,None,6,1.849928200012073,1040.8496535000158,None,1042.7391072999453,None,1043.259760399931,None,1043.259760399931,None,r,0.6955392999807373,1043.259760399931,None,,,color6,001,2019_Nov_21_1705,ProdSingRedo,3.2.3,59.99084539712327,
,,,,62,0,62,0,,,,,,,,,,,,,,,,,,,,,,,,1049.1125482999487,None,,,,,,,,,,,,,,,,,harmony,new_aloud,blue,62,131,148,1044.5162549000233,None,1044.5162549000233,None,3,3.0950848000356928,1044.5162549000233,None,1047.6600185999414,None,1048.1692871999694,None,1048.1692871999694,None,f,0.9143632999621332,1048.1692871999694,None,,,color6,001,2019_Nov_21_1705,ProdSingRedo,3.2.3,59.99084539712327,
,,,,63,0,63,0,,,,,,,,,,,,,,,,,,,,,,,,1051.89369539998,None,,,,,,,,,,,,,,,,,drama,new_sing,yellow,63,100,103,1049.635402899934,None,1049.635402899934,None,1,1.503870700020343,1049.635402899934,None,1051.1905604000203,None,1051.7136189999292,None,1051.7136189999292,None,n,0.14576330001000315,1051.7136189999292,None,,,color6,001,2019_Nov_21_1705,ProdSingRedo,3.2.3,59.99084539712327,
,,,,64,0,64,0,,,,,,,,,,,,,,,,,,,,,,,,1055.6252661999315,None,,,,,,,,,,,,,,,,,equipment,silent,red,64,73,116,1052.4187630999368,None,1052.4187630999368,None,5,1.8245357000268996,1052.4187630999368,None,1054.2915522999829,None,1054.8124882000266,None,1054.8124882000266,None,f,0.7748559999745339,1054.8124882000266,None,,,color6,001,2019_Nov_21_1705,ProdSingRedo,3.2.3,59.99084539712327,
,,,,65,0,65,0,,,,,,,,,,,,,,,,,,,,,,,,1058.276112499996,None,,,,,,,,,,,,,,,,,candidate,new_sing,yellow,65,96,39,1056.1535970999394,None,1056.1535970999394,None,1,1.346129700075835,1056.1535970999394,None,1057.5499677000334,None,1058.0681826999644,None,1058.0681826999644,None,n,0.17513460002373904,1058.0681826999644,None,,,color6,001,2019_Nov_21_1705,ProdSingRedo,3.2.3,59.99084539712327,
,,,,66,0,66,0,,,,,,,,,,,,,,,,,,,,,,,,1060.4599638000363,None,,,,,,,,,,,,,,,,,position,new_sing,yellow,66,106,229,1058.7999664000235,None,1058.7999664000235,None,3,1.0274460000218824,1058.7999664000235,None,1059.873522699927,None,1060.3937700999668,None,1060.3937700999668,None,n,0.0336202000034973,1060.3937700999668,None,,,color6,001,2019_Nov_21_1705,ProdSingRedo,3.2.3,59.99084539712327,
,,,,67,0,67,0,,,,,,,,,,,,,,,,,,,,,,,,1062.6264448999427,None,,,,,,,,,,,,,,,,,search,sing,yellow,67,26,276,1060.9833055000054,None,1060.9833055000054,None,3,0.5400296000298113,1060.9833055000054,None,1061.5741856000386,None,1062.0954197000246,None,1062.0954197000246,None,n,0.49999070004560053,1062.0954197000246,None,,,color6,001,2019_Nov_21_1705,ProdSingRedo,3.2.3,59.99084539712327,
,,,,68,0,68,0,,,,,,,,,,,,,,,,,,,,,,,,1064.4931999000255,None,,,,,,,,,,,,,,,,,drink,new_silent,red,68,168,105,1063.147588099935,None,1063.147588099935,None,3,0.5358635999727994,1063.147588099935,None,1063.7178688999265,None,1064.2277977999765,None,1064.2277977999765,None,n,0.2315104000736028,1064.2277977999765,None,,,color6,001,2019_Nov_21_1705,ProdSingRedo,3.2.3,59.99084539712327,
,,,,69,0,69,0,,,,,,,,,,,,,,,,,,,,,,,,1066.7594014999922,None,,,,,,,,,,,,,,,,,youth,new_sing,yellow,69,105,359,1065.0209893999854,None,1065.0209893999854,None,3,0.6382894000271335,1065.0209893999854,None,1065.710348399938,None,1066.2305610999465,None,1066.2305610999465,None,n,0.49279659998137504,1066.2305610999465,None,,,color6,001,2019_Nov_21_1705,ProdSingRedo,3.2.3,59.99084539712327,
,,,,70,0,70,0,,,,,,,,,,,,,,,,,,,,,,,,1069.4768990000011,None,,,,,,,,,,,,,,,,,taste,new_silent,red,70,163,322,1067.2867966999765,None,1067.2867966999765,None,1,1.492600700003095,1067.2867966999765,None,1068.8275273999898,None,1069.344780299929,None,1069.344780299929,None,n,0.09865719999652356,1069.344780299929,None,,,color6,001,2019_Nov_21_1705,ProdSingRedo,3.2.3,59.99084539712327,
,,,,71,0,71,0,,,,,,,,,,,,,,,,,,,,,,,,1072.5105292999651,None,,,,,,,,,,,,,,,,,straight,silent,red,71,84,307,1070.0055015999824,None,1070.0055015999824,None,3,1.7178636000026017,1070.0055015999824,None,1071.7806571000256,None,1072.296643299982,None,1072.296643299982,None,n,0.18681670003570616,1072.296643299982,None,,,color6,001,2019_Nov_21_1705,ProdSingRedo,3.2.3,59.99084539712327,
,,,,72,0,72,0,,,,,,,,,,,,,,,,,,,,,,,,1075.260514899972,None,,,,,,,,,,,,,,,,,business,sing,yellow,72,20,38,1073.0384118999355,None,1073.0384118999355,None,4,1.5329042000230402,1073.0384118999355,None,1074.6270972000202,None,1075.1464255999308,None,1075.1464255999308,None,f,0.088930300087668,1075.1464255999308,None,,,color6,001,2019_Nov_21_1705,ProdSingRedo,3.2.3,59.99084539712327,
,,,,73,0,73,0,,,,,,,,,,,,,,,,,,,,,,,,1077.3274404000258,None,,,,,,,,,,,,,,,,,guard,new_sing,yellow,73,108,145,1075.784314099932,None,1075.784314099932,None,3,0.8832881998969242,1075.784314099932,None,1076.7052504000021,None,1077.2302494000178,None,1077.2302494000178,None,f,0.06967620004434139,1077.2302494000178,None,,,color6,001,2019_Nov_21_1705,ProdSingRedo,3.2.3,59.99084539712327,
,,,,74,0,74,0,,,,,,,,,,,,,,,,,,,,,,,,1080.6945036000106,None,,,,,,,,,,,,,,,,,patient,silent,red,74,62,213,1077.8529494999675,None,1077.8529494999675,None,2,1.1583415999775752,1077.8529494999675,None,1079.0618257999886,None,1079.5812249999726,None,1079.5812249999726,None,f,1.0862490000436082,1079.5812249999726,None,,,color6,001,2019_Nov_21_1705,ProdSingRedo,3.2.3,59.99084539712327,
,,,,75,0,75,0,,,,,,,,,,,,,,,,,,,,,,,,1085.8114803000353,None,,,,,,,,,,,,,,,,,husband,aloud,blue,75,37,156,1081.2271064999513,None,1081.2271064999513,None,2,1.3282539999345317,1081.2271064999513,None,1082.6126068999292,None,1083.1384504999733,None,1083.1384504999733,None,f,2.6410038999747485,1083.1384504999733,None,,,color6,001,2019_Nov_21_1705,ProdSingRedo,3.2.3,59.99084539712327,
,,,,76,0,76,0,,,,,,,,,,,,,,,,,,,,,,,,1090.1782131999498,None,,,,,,,,,,,,,,,,,company,sing,yellow,76,9,64,1086.3356454999885,None,1086.3356454999885,None,3,2.835749699966982,1086.3356454999885,None,1089.2227762000402,None,1089.7497219999786,None,1089.7497219999786,None,f,0.3976576999993995,1089.7497219999786,None,,,color6,001,2019_Nov_21_1705,ProdSingRedo,3.2.3,59.99084539712327,
,,,,77,0,77,0,,,,,,,,,,,,,,,,,,,,,,,,1097.9625982999569,None,,,,,,,,,,,,,,,,,still,new_silent,red,77,173,304,1090.699157899944,None,1090.699157899944,None,1,6.432308800052851,1090.699157899944,None,1097.1677636000095,None,1097.677550100023,None,1097.677550100023,None,n,0.2537974000442773,1097.677550100023,None,,,color6,001,2019_Nov_21_1705,ProdSingRedo,3.2.3,59.99084539712327,
,,,,78,0,78,0,,,,,,,,,,,,,,,,,,,,,,,,1100.8457898999332,None,,,,,,,,,,,,,,,,,trash,aloud,blue,78,31,337,1098.4848825000226,None,1098.4848825000226,None,4,1.270562699995935,1098.4848825000226,None,1099.811241199961,None,1100.3331233999925,None,1100.3331233999925,None,f,0.4863346000202,1100.3331233999925,None,,,color6,001,2019_Nov_21_1705,ProdSingRedo,3.2.3,59.99084539712327,
,,,,79,0,79,0,,,,,,,,,,,,,,,,,,,,,,,,1103.8459642999806,None,,,,,,,,,,,,,,,,,appearance,new_silent,red,79,175,10,1101.3709252999397,None,1101.3709252999397,None,1,1.2648789000231773,1101.3709252999397,None,1102.6845695000375,None,1103.199221399962,None,1103.199221399962,None,n,0.6120956999948248,1103.199221399962,None,,,color6,001,2019_Nov_21_1705,ProdSingRedo,3.2.3,59.99084539712327,
,,,,80,0,80,0,,,,,,,,,,,,,,,,,,,,,,,,1106.679286199971,None,,,,,,,,,,,,,,,,,salary,new_aloud,blue,80,139,271,1104.370791299967,None,1104.370791299967,None,2,1.528546900022775,1104.370791299967,None,1105.9521397999488,None,1106.4679638999514,None,1106.4679638999514,None,n,0.1838640000205487,1106.4679638999514,None,,,color6,001,2019_Nov_21_1705,ProdSingRedo,3.2.3,59.99084539712327,
,,,,81,0,81,0,,,,,,,,,,,,,,,,,,,,,,,,1112.2624619000126,None,,,,,,,,,,,,,,,,,novel,silent,red,81,85,202,1107.20464729995,None,1107.20464729995,None,6,1.870750300004147,1107.20464729995,None,1109.1297133000335,None,1109.6471026999643,None,1109.6471026999643,None,r,2.580420700018294,1109.6471026999643,None,,,color6,001,2019_Nov_21_1705,ProdSingRedo,3.2.3,59.99084539712327,
,,,,82,0,82,0,,,,,,,,,,,,,,,,,,,,,,,,1115.6133921999717,None,,,,,,,,,,,,,,,,,general,new_silent,red,82,177,135,1112.7912095999345,None,1112.7912095999345,None,3,1.5961383000249043,1112.7912095999345,None,1114.431187900016,None,1114.9520616999362,None,1114.9520616999362,None,f,0.6273113000206649,1114.9520616999362,None,,,color6,001,2019_Nov_21_1705,ProdSingRedo,3.2.3,59.99084539712327,
,,,,83,0,83,0,,,,,,,,,,,,,,,,,,,,,,,,1118.43027719995,None,,,,,,,,,,,,,,,,,disease,new_aloud,blue,83,147,97,1116.1399002999533,None,1116.1399002999533,None,4,1.6314808001043275,1116.1399002999533,None,1117.8073513000272,None,1118.3354946000036,None,1118.3354946000036,None,f,0.05982399999629706,1118.3354946000036,None,,,color6,001,2019_Nov_21_1705,ProdSingRedo,3.2.3,59.99084539712327,
,,,,84,0,84,0,,,,,,,,,,,,,,,,,,,,,,,,1120.8797596000368,None,,,,,,,,,,,,,,,,,subject,aloud,blue,84,38,312,1118.9599949000403,None,1118.9599949000403,None,3,1.2514145999448374,1118.9599949000403,None,1120.264421400032,None,1120.7863000000361,None,1120.7863000000361,None,f,0.057097600074484944,1120.7863000000361,None,,,color6,001,2019_Nov_21_1705,ProdSingRedo,3.2.3,59.99084539712327,
,,,,85,0,85,0,,,,,,,,,,,,,,,,,,,,,,,,1123.4654106999515,None,,,,,,,,,,,,,,,,,brief,new_silent,red,85,165,28,1121.4047074000118,None,1121.4047074000118,None,1,1.094774500001222,1121.4047074000118,None,1122.5461108000018,None,1123.0687239000108,None,1123.0687239000108,None,n,0.3586036000633612,1123.0687239000108,None,,,color6,001,2019_Nov_21_1705,ProdSingRedo,3.2.3,59.99084539712327,
,,,,86,0,86,0,,,,,,,,,,,,,,,,,,,,,,,,1125.8508145000087,None,,,,,,,,,,,,,,,,,display,new_silent,red,86,171,98,1123.986699800007,None,1123.986699800007,None,2,1.1207692000316456,1123.986699800007,None,1125.158232399961,None,1125.684560499969,None,1125.684560499969,None,n,0.13519119995180517,1125.684560499969,None,,,color6,001,2019_Nov_21_1705,ProdSingRedo,3.2.3,59.99084539712327,
,,,,87,0,87,0,,,,,,,,,,,,,,,,,,,,,,,,1129.13086080004,None,,,,,,,,,,,,,,,,,author,sing,yellow,87,8,15,1126.373615099932,None,1126.373615099932,None,6,2.0138884999323636,1126.373615099932,None,1128.4283245999832,None,1128.9490430000005,None,1128.9490430000005,None,r,0.15031229995656759,1128.9490430000005,None,,,color6,001,2019_Nov_21_1705,ProdSingRedo,3.2.3,59.99084539712327,
,,,,88,0,88,0,,,,,,,,,,,,,,,,,,,,,,,,1134.364511199994,None,,,,,,,,,,,,,,,,,master,silent,red,88,66,180,1129.6550032999367,None,1129.6550032999367,None,5,3.004441100056283,1129.6550032999367,None,1132.7135702000232,None,1133.2338851999957,None,1133.2338851999957,None,r,1.105427199974656,1133.2338851999957,None,,,color6,001,2019_Nov_21_1705,ProdSingRedo,3.2.3,59.99084539712327,
,,,,89,0,89,0,,,,,,,,,,,,,,,,,,,,,,,,1140.5305908999871,None,,,,,,,,,,,,,,,,,literature,new_aloud,blue,89,141,173,1134.8948288999964,None,1134.8948288999964,None,2,4.884729000041261,1134.8948288999964,None,1139.8279403999913,None,1140.3561302999733,None,1140.3561302999733,None,f,0.14323700009845197,1140.3561302999733,None,,,color6,001,2019_Nov_21_1705,ProdSingRedo,3.2.3,59.99084539712327,
,,,,90,0,90,0,,,,,,,,,,,,,,,,,,,,,,,,1143.1319053999614,None,,,,,,,,,,,,,,,,,income,new_sing,yellow,90,97,159,1141.052657800028,None,1141.052657800028,None,4,1.2386802000692114,1141.052657800028,None,1142.3279902000213,None,1142.8475509999553,None,1142.8475509999553,None,f,0.2518553000409156,1142.8475509999553,None,,,color6,001,2019_Nov_21_1705,ProdSingRedo,3.2.3,59.99084539712327,
,,,,91,0,91,0,,,,,,,,,,,,,,,,,,,,,,,,1146.247989699943,None,,,,,,,,,,,,,,,,,center,silent,red,91,74,44,1143.6536872999277,None,1143.6536872999277,None,2,1.7179352999664843,1143.6536872999277,None,1145.40628799994,None,1145.914484399953,None,1145.914484399953,None,f,0.2969296999508515,1145.914484399953,None,,,color6,001,2019_Nov_21_1705,ProdSingRedo,3.2.3,59.99084539712327,
,,,,92,0,92,0,,,,,,,,,,,,,,,,,,,,,,,,1148.8317301999778,None,,,,,,,,,,,,,,,,,minute,new_sing,yellow,92,99,192,1146.7742596999742,None,1146.7742596999742,None,1,1.333202499896288,1146.7742596999742,None,1148.1403590999544,None,1148.6525213000132,None,1148.6525213000132,None,n,0.14286310004536062,1148.6525213000132,None,,,color6,001,2019_Nov_21_1705,ProdSingRedo,3.2.3,59.99084539712327,
,,,,93,0,93,0,,,,,,,,,,,,,,,,,,,,,,,,1159.5164319999749,None,,,,,,,,,,,,,,,,,property,aloud,blue,93,58,242,1149.3586197999539,None,1149.3586197999539,None,5,8.220817800029181,1149.3586197999539,None,1157.6299252000172,None,1158.1530660999706,None,1158.1530660999706,None,r,1.3383349999785423,1158.1530660999706,None,,,color6,001,2019_Nov_21_1705,ProdSingRedo,3.2.3,59.99084539712327,
,,,,94,0,94,0,,,,,,,,,,,,,,,,,,,,,,,,1162.7666274999501,None,,,,,,,,,,,,,,,,,right,new_aloud,blue,94,122,265,1160.0430304999463,None,1160.0430304999463,None,4,1.6484012000728399,1160.0430304999463,None,1161.7265912999865,None,1162.253547100001,None,1162.253547100001,None,r,0.47795099997892976,1162.253547100001,None,,,color6,001,2019_Nov_21_1705,ProdSingRedo,3.2.3,59.99084539712327,
,,,,95,0,95,0,,,,,,,,,,,,,,,,,,,,,,,,1168.1002825000323,None,,,,,,,,,,,,,,,,,write,new_aloud,blue,95,134,358,1163.2864387999289,None,1163.2864387999289,None,2,3.572985199978575,1163.2864387999289,None,1166.897046500002,None,1167.4183850999689,None,1167.4183850999689,None,n,0.6571034999797121,1167.4183850999689,None,,,color6,001,2019_Nov_21_1705,ProdSingRedo,3.2.3,59.99084539712327,
,,,,96,0,96,0,,,,,,,,,,,,,,,,,,,,,,,,1170.8164606000064,None,,,,,,,,,,,,,,,,,throw,new_aloud,blue,96,149,330,1168.6348954000277,None,1168.6348954000277,None,3,1.1125482999486849,1168.6348954000277,None,1169.794292400009,None,1170.3198985999916,None,1170.3198985999916,None,f,0.4595576000865549,1170.3198985999916,None,,,color6,001,2019_Nov_21_1705,ProdSingRedo,3.2.3,59.99084539712327,
,,,,97,0,97,0,,,,,,,,,,,,,,,,,,,,,,,,1173.4840778999496,None,,,,,,,,,,,,,,,,,design,silent,red,97,64,91,1171.3428116999567,None,1171.3428116999567,None,3,1.1646546999691054,1171.3428116999567,None,1172.5495150999632,None,1173.0727827999508,None,1173.0727827999508,None,f,0.3785239999415353,1173.0727827999508,None,,,color6,001,2019_Nov_21_1705,ProdSingRedo,3.2.3,59.99084539712327,
,,,,98,0,98,0,,,,,,,,,,,,,,,,,,,,,,,,1182.8441385999322,None,,,,,,,,,,,,,,,,,character,new_sing,yellow,98,118,46,1174.014479400008,None,1174.014479400008,None,4,8.196966900024563,1174.014479400008,None,1182.269964599982,None,1182.7877484000055,None,1182.7877484000055,None,f,0.023482999997213483,1182.7877484000055,None,,,color6,001,2019_Nov_21_1705,ProdSingRedo,3.2.3,59.99084539712327,
,,,,99,0,99,0,,,,,,,,,,,,,,,,,,,,,,,,1185.4008138999343,None,,,,,,,,,,,,,,,,,distance,new_sing,yellow,99,117,100,1183.3758662999608,None,1183.3758662999608,None,4,1.37948719994165,1183.3758662999608,None,1184.7967351999832,None,1185.3226834000088,None,1185.3226834000088,None,f,0.04072640009690076,1185.3226834000088,None,,,color6,001,2019_Nov_21_1705,ProdSingRedo,3.2.3,59.99084539712327,
,,,,100,0,100,0,,,,,,,,,,,,,,,,,,,,,,,,1188.90144409996,None,,,,,,,,,,,,,,,,,course,new_silent,red,100,167,74,1185.926982200006,None,1185.926982200006,None,1,1.7083573000272736,1185.926982200006,None,1187.6785484999418,None,1188.2042204999598,None,1188.2042204999598,None,n,0.6713546999963,1188.2042204999598,None,,,color6,001,2019_Nov_21_1705,ProdSingRedo,3.2.3,59.99084539712327,
,,,,101,0,101,0,,,,,,,,,,,,,,,,,,,,,,,,1191.3520096000284,None,,,,,,,,,,,,,,,,,background,new_aloud,blue,101,144,16,1189.4393794999924,None,1189.4393794999924,None,1,1.268260300043039,1189.4393794999924,None,1190.7583486000076,None,1191.2777312999824,None,1191.2777312999824,None,n,0.04608420003205538,1191.2777312999824,None,,,color6,001,2019_Nov_21_1705,ProdSingRedo,3.2.3,59.99084539712327,
,,,,102,0,102,0,,,,,,,,,,,,,,,,,,,,,,,,1194.2686556000262,None,,,,,,,,,,,,,,,,,store,new_silent,red,102,152,305,1191.8719414999941,None,1191.8719414999941,None,4,1.3875445999437943,1191.8719414999941,None,1193.2984207000118,None,1193.8174393000081,None,1193.8174393000081,None,f,0.4179674000479281,1193.8174393000081,None,,,color6,001,2019_Nov_21_1705,ProdSingRedo,3.2.3,59.99084539712327,
,,,,103,0,103,0,,,,,,,,,,,,,,,,,,,,,,,,1196.618797000032,None,,,,,,,,,,,,,,,,,bucket,new_sing,yellow,103,112,33,1194.799832599936,None,1194.799832599936,None,1,1.0758415999589488,1194.799832599936,None,1195.9204727000324,None,1196.4385397000005,None,1196.4385397000005,None,n,0.14894440001808107,1196.4385397000005,None,,,color6,001,2019_Nov_21_1705,ProdSingRedo,3.2.3,59.99084539712327,
,,,,104,0,104,0,,,,,,,,,,,,,,,,,,,,,,,,1198.819057399989,None,,,,,,,,,,,,,,,,,produce,silent,red,104,82,239,1197.1452646999387,None,1197.1452646999387,None,3,1.0261154000181705,1197.1452646999387,None,1198.217749799951,None,1198.7411265999544,None,1198.7411265999544,None,f,0.04631350003182888,1198.7411265999544,None,,,color6,001,2019_Nov_21_1705,ProdSingRedo,3.2.3,59.99084539712327,
,,,,105,0,105,0,,,,,,,,,,,,,,,,,,,,,,,,1200.968495200039,None,,,,,,,,,,,,,,,,,quarter,new_sing,yellow,105,90,246,1199.3423244999722,None,1199.3423244999722,None,1,0.9412361999275163,1199.3423244999722,None,1200.3335930999601,None,1200.8541901999852,None,1200.8541901999852,None,n,0.07729249994736165,1200.8541901999852,None,,,color6,001,2019_Nov_21_1705,ProdSingRedo,3.2.3,59.99084539712327,
,,,,106,0,106,0,,,,,,,,,,,,,,,,,,,,,,,,1203.3027892999817,None,,,,,,,,,,,,,,,,,device,new_aloud,blue,106,130,93,1201.4951874000253,None,1201.4951874000253,None,1,1.1803982999408618,1201.4951874000253,None,1202.711038099951,None,1203.2228249999462,None,1203.2228249999462,None,n,0.052863100077956915,1203.2228249999462,None,,,color6,001,2019_Nov_21_1705,ProdSingRedo,3.2.3,59.99084539712327,
,,,,107,0,107,0,,,,,,,,,,,,,,,,,,,,,,,,1205.6022566999309,None,,,,,,,,,,,,,,,,,track,new_aloud,blue,107,125,334,1203.837403499987,None,1203.837403499987,None,1,0.6780260000377893,1203.837403499987,None,1204.5654372000135,None,1205.091910899966,None,1205.091910899966,None,n,0.4714631999377161,1205.091910899966,None,,,color6,001,2019_Nov_21_1705,ProdSingRedo,3.2.3,59.99084539712327,
,,,,108,0,108,0,,,,,,,,,,,,,,,,,,,,,,,,1208.5042096000398,None,,,,,,,,,,,,,,,,,point,silent,red,108,60,226,1206.1226843999466,None,1206.1226843999466,None,1,1.1447147999424487,1206.1226843999466,None,1207.3127379999496,None,1207.8353096999926,None,1207.8353096999926,None,f,0.6404628000454977,1207.8353096999926,None,,,color6,001,2019_Nov_21_1705,ProdSingRedo,3.2.3,59.99084539712327,
,,,,109,0,109,0,,,,,,,,,,,,,,,,,,,,,,,,1211.2535555999493,None,,,,,,,,,,,,,,,,,republic,new_silent,red,109,156,260,1209.0312349000014,None,1209.0312349000014,None,1,1.196395399980247,1209.0312349000014,None,1210.2663003000198,None,1210.7935640999349,None,1210.7935640999349,None,f,0.4340105999726802,1210.7935640999349,None,,,color6,001,2019_Nov_21_1705,ProdSingRedo,3.2.3,59.99084539712327,
,,,,110,0,110,0,,,,,,,,,,,,,,,,,,,,,,,,1213.67109790002,None,,,,,,,,,,,,,,,,,vision,sing,yellow,110,3,347,1211.7784857000224,None,1211.7784857000224,None,1,1.0489611000521109,1211.7784857000224,None,1212.8688619999448,None,1213.3871620999416,None,1213.3871620999416,None,f,0.24816750001627952,1213.3871620999416,None,,,color6,001,2019_Nov_21_1705,ProdSingRedo,3.2.3,59.99084539712327,
,,,,111,0,111,0,,,,,,,,,,,,,,,,,,,,,,,,1215.953680000035,None,,,,,,,,,,,,,,,,,trail,sing,yellow,111,6,336,1214.2014812999405,None,1214.2014812999405,None,1,0.9620436999248341,1214.2014812999405,None,1215.2150149999652,None,1215.7407945999876,None,1215.7407945999876,None,f,0.18257900001481175,1215.7407945999876,None,,,color6,001,2019_Nov_21_1705,ProdSingRedo,3.2.3,59.99084539712327,
,,,,112,0,112,0,,,,,,,,,,,,,,,,,,,,,,,,1217.9663045000052,None,,,,,,,,,,,,,,,,,public,silent,red,112,87,244,1216.4775930999313,None,1216.4775930999313,None,2,0.8778461000183597,1216.4775930999313,None,1217.4031225999352,None,1217.921921000001,None,1217.921921000001,None,f,0.009336100076325238,1217.921921000001,None,,,color6,001,2019_Nov_21_1705,ProdSingRedo,3.2.3,59.99084539712327,
,,,,113,0,113,0,,,,,,,,,,,,,,,,,,,,,,,,1220.120557499933,None,,,,,,,,,,,,,,,,,article,aloud,blue,113,57,11,1218.4955897999462,None,1218.4955897999462,None,3,0.8117535000201315,1218.4955897999462,None,1219.3508711999748,None,1219.8727798999753,None,1219.8727798999753,None,f,0.21859750000294298,1219.8727798999753,None,,,color6,001,2019_Nov_21_1705,ProdSingRedo,3.2.3,59.99084539712327,
,,,,114,0,114,0,,,,,,,,,,,,,,,,,,,,,,,,1225.2374868999468,None,,,,,,,,,,,,,,,,,accident,aloud,blue,114,33,0,1220.646025700029,None,1220.646025700029,None,4,2.093349799979478,1220.646025700029,None,1222.779808799969,None,1223.3075583999744,None,1223.3075583999744,None,r,1.8958411000203341,1223.3075583999744,None,,,color6,001,2019_Nov_21_1705,ProdSingRedo,3.2.3,59.99084539712327,
,,,,115,0,115,0,,,,,,,,,,,,,,,,,,,,,,,,1227.6711576000089,None,,,,,,,,,,,,,,,,,fellow,new_aloud,blue,115,137,126,1225.7647566000232,None,1225.7647566000232,None,4,0.3985698000760749,1225.7647566000232,None,1226.1975490000332,None,1226.724297799985,None,1226.724297799985,None,n,0.9193215999985114,1226.724297799985,None,,,color6,001,2019_Nov_21_1705,ProdSingRedo,3.2.3,59.99084539712327,
,,,,116,0,116,0,,,,,,,,,,,,,,,,,,,,,,,,1229.7878888000268,None,,,,,,,,,,,,,,,,,agency,new_aloud,blue,116,132,4,1228.199845099938,None,1228.199845099938,None,3,0.3715590999927372,1228.199845099938,None,1228.6201870000223,None,1229.1285272999667,None,1229.1285272999667,None,n,0.6349382000043988,1229.1285272999667,None,,,color6,001,2019_Nov_21_1705,ProdSingRedo,3.2.3,59.99084539712327,
,,,,117,0,117,0,,,,,,,,,,,,,,,,,,,,,,,,1233.3381542999996,None,,,,,,,,,,,,,,,,,passage,silent,red,117,78,212,1230.311096600024,None,1230.311096600024,None,6,2.0444352000486106,1230.311096600024,None,1232.4062160999747,None,1232.9267687000101,None,1232.9267687000101,None,r,0.3806875000009313,1232.9267687000101,None,,,color6,001,2019_Nov_21_1705,ProdSingRedo,3.2.3,59.99084539712327,
,,,,118,0,118,0,,,,,,,,,,,,,,,,,,,,,,,,1236.238085399964,None,,,,,,,,,,,,,,,,,spoke,sing,yellow,118,17,300,1233.8636291000294,None,1233.8636291000294,None,6,1.5481818999396637,1233.8636291000294,None,1235.452793500037,None,1235.973656199989,None,1235.973656199989,None,r,0.2298126999521628,1235.973656199989,None,,,color6,001,2019_Nov_21_1705,ProdSingRedo,3.2.3,59.99084539712327,
,,,,119,0,119,0,,,,,,,,,,,,,,,,,,,,,,,,1239.174634899944,None,,,,,,,,,,,,,,,,,style,new_silent,red,119,161,311,1236.762756699929,None,1236.762756699929,None,6,1.0814388999715447,1236.762756699929,None,1237.887207499938,None,1238.407183800009,None,1238.407183800009,None,r,0.7324327999958768,1238.407183800009,None,,,color6,001,2019_Nov_21_1705,ProdSingRedo,3.2.3,59.99084539712327,
,,,,120,0,120,0,,,,,,,,,,,,,,,,,,,,,,,,1241.8880299000302,None,,,,,,,,,,,,,,,,,crowd,new_sing,yellow,120,114,81,1239.6973473000107,None,1239.6973473000107,None,2,1.2821241000201553,1239.6973473000107,None,1241.0166331999935,None,1241.5411728000036,None,1241.5411728000036,None,n,0.31025189999490976,1241.5411728000036,None,,,color6,001,2019_Nov_21_1705,ProdSingRedo,3.2.3,59.99084539712327,
,,,,121,0,121,0,,,,,,,,,,,,,,,,,,,,,,,,1244.6548073999584,None,,,,,,,,,,,,,,,,,broad,new_sing,yellow,121,92,31,1242.4155937000178,None,1242.4155937000178,None,3,1.4277899999869987,1242.4155937000178,None,1243.8925546000246,None,1244.406972900033,None,1244.406972900033,None,f,0.21250910009257495,1244.406972900033,None,,,color6,001,2019_Nov_21_1705,ProdSingRedo,3.2.3,59.99084539712327,
,,,,122,0,122,0,,,,,,,,,,,,,,,,,,,,,,,,1249.439066199935,None,,,,,,,,,,,,,,,,,gesture,aloud,blue,122,59,137,1245.1818539999658,None,1245.1818539999658,None,3,1.0536676000338048,1245.1818539999658,None,1246.287773399963,None,1246.807815899956,None,1246.807815899956,None,f,2.5957840000046417,1246.807815899956,None,,,color6,001,2019_Nov_21_1705,ProdSingRedo,3.2.3,59.99084539712327,
,,,,123,0,123,0,,,,,,,,,,,,,,,,,,,,,,,,1251.3218947999412,None,,,,,,,,,,,,,,,,,strength,new_aloud,blue,123,136,310,1249.9600129999453,None,1249.9600129999453,None,3,0.43563950003590435,1249.9600129999453,None,1250.4353457000107,None,1250.9608071999392,None,1250.9608071999392,None,f,0.3226661999942735,1250.9608071999392,None,,,color6,001,2019_Nov_21_1705,ProdSingRedo,3.2.3,59.99084539712327,
,,,,124,0,124,0,,,,,,,,,,,,,,,,,,,,,,,,1253.7895442999434,None,,,,,,,,,,,,,,,,,quiet,silent,red,124,61,249,1251.844659699942,None,1251.844659699942,None,3,0.41470129997469485,1251.844659699942,None,1252.2974206999643,None,1252.808417399996,None,1252.808417399996,None,n,0.9468911999138072,1252.808417399996,None,,,color6,001,2019_Nov_21_1705,ProdSingRedo,3.2.3,59.99084539712327,
,,,,125,0,125,0,,,,,,,,,,,,,,,,,,,,,,,,1256.3907035000157,None,,,,,,,,,,,,,,,,,audience,aloud,blue,125,30,14,1254.3226880999282,None,1254.3226880999282,None,3,0.54476440011058,1254.3226880999282,None,1254.9190620000008,None,1255.4426735999295,None,1255.4426735999295,None,r,0.9207342000445351,1255.4426735999295,None,,,color6,001,2019_Nov_21_1705,ProdSingRedo,3.2.3,59.99084539712327,
,,,,126,0,126,0,,,,,,,,,,,,,,,,,,,,,,,,1258.3729016999714,None,,,,,,,,,,,,,,,,,session,aloud,blue,126,35,281,1256.9115261000115,None,1256.9115261000115,None,3,0.47598530002869666,1256.9115261000115,None,1257.4358490000013,None,1257.9542231999803,None,1257.9542231999803,None,f,0.3851291999453679,1257.9542231999803,None,,,color6,001,2019_Nov_21_1705,ProdSingRedo,3.2.3,59.99084539712327,
,,,,127,0,127,0,,,,,,,,,,,,,,,,,,,,,,,,1260.8057234999724,None,,,,,,,,,,,,,,,,,speech,new_aloud,blue,127,146,298,1258.8937172000296,None,1258.8937172000296,None,3,0.42962250008713454,1258.8937172000296,None,1259.3673739000224,None,1259.8905046000145,None,1259.8905046000145,None,n,0.8891892000101507,1259.8905046000145,None,,,color6,001,2019_Nov_21_1705,ProdSingRedo,3.2.3,59.99084539712327,
,,,,128,0,128,0,,,,,,,,,,,,,,,,,,,,,,,,1262.539870299981,None,,,,,,,,,,,,,,,,,country,aloud,blue,128,52,73,1261.336517299991,None,1261.336517299991,None,3,0.4348893000278622,1261.336517299991,None,1261.8278597999597,None,1262.3462568999967,None,1262.3462568999967,None,f,0.16114909993484616,1262.3462568999967,None,,,color6,001,2019_Nov_21_1705,ProdSingRedo,3.2.3,59.99084539712327,
,,,,129,0,129,0,,,,,,,,,,,,,,,,,,,,,,,,1264.09023969993,None,,,,,,,,,,,,,,,,,industry,silent,red,129,76,161,1263.0662015000125,None,1263.0662015000125,None,3,0.3053598999977112,1263.0662015000125,None,1263.4228790999623,None,1263.9460233999416,None,1263.9460233999416,None,r,0.1134576000040397,1263.9460233999416,None,,,color6,001,2019_Nov_21_1705,ProdSingRedo,3.2.3,59.99084539712327,
,,,,130,0,130,0,,,,,,,,,,,,,,,,,,,,,,,,1265.8737509000348,None,,,,,,,,,,,,,,,,,council,new_aloud,blue,130,123,71,1264.6166227000067,None,1264.6166227000067,None,3,0.2907713999738917,1264.6166227000067,None,1264.9537997000152,None,1265.47954510001,None,1265.47954510001,None,f,0.36385249998420477,1265.47954510001,None,,,color6,001,2019_Nov_21_1705,ProdSingRedo,3.2.3,59.99084539712327,
,,,,131,0,131,0,,,,,,,,,,,,,,,,,,,,,,,,1267.4572517999914,None,,,,,,,,,,,,,,,,,rapid,sing,yellow,131,2,252,1266.395569199929,None,1266.395569199929,None,3,0.40056079998612404,1266.395569199929,None,1266.8383331999648,None,1267.3598476999905,None,1267.3598476999905,None,f,0.06752419995609671,1267.3598476999905,None,,,color6,001,2019_Nov_21_1705,ProdSingRedo,3.2.3,59.99084539712327,
,,,,132,0,132,0,,,,,,,,,,,,,,,,,,,,,,,,1269.4065216999734,None,,,,,,,,,,,,,,,,,symbol,new_silent,red,132,153,321,1267.984777100035,None,1267.984777100035,None,3,0.29058599995914847,1267.984777100035,None,1268.3192920000292,None,1268.8461190999951,None,1268.8461190999951,None,r,0.5253274000715464,1268.8461190999951,None,,,color6,001,2019_Nov_21_1705,ProdSingRedo,3.2.3,59.99084539712327,
,,,,133,0,133,0,,,,,,,,,,,,,,,,,,,,,,,,1271.1416015999857,None,,,,,,,,,,,,,,,,,birth,silent,red,133,83,22,1269.9308111999417,None,1269.9308111999417,None,3,0.32867620000615716,1269.9308111999417,None,1270.298549399944,None,1270.8100813999772,None,1270.8100813999772,None,r,0.29737839999143034,1270.8100813999772,None,,,color6,001,2019_Nov_21_1705,ProdSingRedo,3.2.3,59.99084539712327,
,,,,134,0,134,0,,,,,,,,,,,,,,,,,,,,,,,,1272.6901211999357,None,,,,,,,,,,,,,,,,,revolution,aloud,blue,134,55,264,1271.6714597999817,None,1271.6714597999817,None,3,0.33201500005088747,1271.6714597999817,None,1272.0611582000274,None,1272.578726000036,None,1272.578726000036,None,r,0.0727325000334531,1272.578726000036,None,,,color6,001,2019_Nov_21_1705,ProdSingRedo,3.2.3,59.99084539712327,
,,,,135,0,135,0,,,,,,,,,,,,,,,,,,,,,,,,1274.2949530000333,None,,,,,,,,,,,,,,,,,discovery,new_aloud,blue,135,140,95,1273.2211916999659,None,1273.2211916999659,None,3,0.33435730007477105,1273.2211916999659,None,1273.6033201999962,None,1274.1320055000251,None,1274.1320055000251,None,r,0.11944769998081028,1274.1320055000251,None,,,color6,001,2019_Nov_21_1705,ProdSingRedo,3.2.3,59.99084539712327,
,,,,136,0,136,0,,,,,,,,,,,,,,,,,,,,,,,,1276.690257799928,None,,,,,,,,,,,,,,,,,history,silent,red,136,72,153,1274.8153857999714,None,1274.8153857999714,None,3,0.3400464999722317,1274.8153857999714,None,1275.2064727999968,None,1275.7253391999984,None,1275.7253391999984,None,n,0.9260788999963552,1275.7253391999984,None,,,color6,001,2019_Nov_21_1705,ProdSingRedo,3.2.3,59.99084539712327,
,,,,137,0,137,0,,,,,,,,,,,,,,,,,,,,,,,,1278.4078689999878,None,,,,,,,,,,,,,,,,,charter,aloud,blue,137,51,47,1277.218289899989,None,1277.218289899989,None,3,0.23321139998733997,1277.218289899989,None,1277.5080393999815,None,1278.026958100032,None,1278.026958100032,None,f,0.3528970000334084,1278.026958100032,None,,,color6,001,2019_Nov_21_1705,ProdSingRedo,3.2.3,59.99084539712327,
,,,,138,0,138,0,,,,,,,,,,,,,,,,,,,,,,,,1280.141218099976,None,,,,,,,,,,,,,,,,,ground,silent,red,138,79,142,1278.9343220000155,None,1278.9343220000155,None,2,0.4213198999641463,1278.9343220000155,None,1279.407063200022,None,1279.9256033999845,None,1279.9256033999845,None,f,0.18181169999297708,1279.9256033999845,None,,,color6,001,2019_Nov_21_1705,ProdSingRedo,3.2.3,59.99084539712327,
,,,,139,0,139,0,,,,,,,,,,,,,,,,,,,,,,,,1281.6572151000146,None,,,,,,,,,,,,,,,,,executive,new_sing,yellow,139,98,122,1280.6737627999391,None,1280.6737627999391,None,2,0.30612520000431687,1280.6737627999391,None,1281.0280619999394,None,1281.550014999928,None,1281.550014999928,None,f,0.07759570004418492,1281.550014999928,None,,,color6,001,2019_Nov_21_1705,ProdSingRedo,3.2.3,59.99084539712327,
,,,,140,0,140,0,,,,,,,,,,,,,,,,,,,,,,,,1284.4082474999595,None,,,,,,,,,,,,,,,,,route,new_silent,red,140,151,267,1282.1847063000314,None,1282.1847063000314,None,2,0.810697800014168,1282.1847063000314,None,1283.0395048999926,None,1283.5617496999912,None,1283.5617496999912,None,f,0.8179248999804258,1283.5617496999912,None,,,color6,001,2019_Nov_21_1705,ProdSingRedo,3.2.3,59.99084539712327,
,,,,141,0,141,0,,,,,,,,,,,,,,,,,,,,,,,,1285.8741849999642,None,,,,,,,,,,,,,,,,,guide,aloud,blue,141,50,147,1284.9314756999956,None,1284.9314756999956,None,2,0.26392960001248866,1284.9314756999956,None,1285.2362059999723,None,1285.7598573999712,None,1285.7598573999712,None,f,0.07558329997118562,1285.7598573999712,None,,,color6,001,2019_Nov_21_1705,ProdSingRedo,3.2.3,59.99084539712327,
,,,,142,0,142,0,,,,,,,,,,,,,,,,,,,,,,,,1287.3084092999343,None,,,,,,,,,,,,,,,,,south,aloud,blue,142,32,296,1286.3995397000108,None,1286.3995397000108,None,2,0.18805550003889948,1286.3995397000108,None,1286.6389361999463,None,1287.161920899991,None,1287.161920899991,None,f,0.1135277000721544,1287.161920899991,None,,,color6,001,2019_Nov_21_1705,ProdSingRedo,3.2.3,59.99084539712327,
,,,,143,0,143,0,,,,,,,,,,,,,,,,,,,,,,,,1291.0746386999963,None,,,,,,,,,,,,,,,,,majority,new_sing,yellow,143,103,176,1287.839199100039,None,1287.839199100039,None,2,0.7004213000182062,1287.839199100039,None,1288.5916436000261,None,1289.1373504999792,None,1289.1373504999792,None,f,1.8983771000057459,1289.1373504999792,None,,,color6,001,2019_Nov_21_1705,ProdSingRedo,3.2.3,59.99084539712327,
,,,,144,0,144,0,,,,,,,,,,,,,,,,,,,,,,,,1299.0926366000203,None,,,,,,,,,,,,,,,,,career,silent,red,144,88,42,1291.5982222999446,None,1291.5982222999446,None,3,0.10916150000412017,1291.5982222999446,None,1291.7513522999361,None,1292.2795990000013,None,1292.2795990000013,None,f,6.788000699947588,1292.2795990000013,None,,,color6,001,2019_Nov_21_1705,ProdSingRedo,3.2.3,59.99084539712327,
,,,,145,0,145,0,,,,,,,,,,,,,,,,,,,,,,,,1301.0915735999588,None,,,,,,,,,,,,,,,,,carry,aloud,blue,145,53,43,1299.620430800016,None,1299.620430800016,None,3,0.41503849998116493,1299.620430800016,None,1300.0764084999682,None,1300.5969193000346,None,1300.5969193000346,None,r,0.4705249998951331,1300.5969193000346,None,,,color6,001,2019_Nov_21_1705,ProdSingRedo,3.2.3,59.99084539712327,
,,,,146,0,146,0,,,,,,,,,,,,,,,,,,,,,,,,1304.1095026000403,None,,,,,,,,,,,,,,,,,clear,sing,yellow,146,22,52,1301.6156672999496,None,1301.6156672999496,None,1,1.5077739000553265,1301.6156672999496,None,1303.1721828000154,None,1303.695526399999,None,1303.695526399999,None,n,0.3879614000907168,1303.695526399999,None,,,color6,001,2019_Nov_21_1705,ProdSingRedo,3.2.3,59.99084539712327,
,,,,147,0,147,0,,,,,,,,,,,,,,,,,,,,,,,,1306.6596083999611,None,,,,,,,,,,,,,,,,,congress,aloud,blue,147,36,67,1304.6359471000032,None,1304.6359471000032,None,2,0.9594750000396743,1304.6359471000032,None,1305.6383118999656,None,1306.1643074000021,None,1306.1643074000021,None,n,0.4631648000795394,1306.1643074000021,None,,,color6,001,2019_Nov_21_1705,ProdSingRedo,3.2.3,59.99084539712327,
,,,,148,0,148,0,,,,,,,,,,,,,,,,,,,,,,,,1317.7114987999666,None,,,,,,,,,,,,,,,,,member,sing,yellow,148,25,188,1307.1862271999707,None,1307.1862271999707,None,2,9.593345200060867,1307.1862271999707,None,1316.8240714999847,None,1317.3464145000326,None,1317.3464145000326,None,f,0.337082999991253,1317.3464145000326,None,,,color6,001,2019_Nov_21_1705,ProdSingRedo,3.2.3,59.99084539712327,
,,,,149,0,149,0,,,,,,,,,,,,,,,,,,,,,,,,1322.477477599983,None,,,,,,,,,,,,,,,,,balance,new_aloud,blue,149,145,17,1318.240382399992,None,1318.240382399992,None,3,3.3069857000373304,1318.240382399992,None,1321.5945310000097,None,1322.1166127999313,None,1322.1166127999313,None,f,0.3268635000567883,1322.1166127999313,None,,,color6,001,2019_Nov_21_1705,ProdSingRedo,3.2.3,59.99084539712327,
,,,,150,0,150,0,,,,,,,,,,,,,,,,,,,,,,,,1329.5272269999841,None,,,,,,,,,,,,,,,,,century,new_sing,yellow,150,116,45,1323.0046400999418,None,1323.0046400999418,None,2,5.71889610006474,1323.0046400999418,None,1328.7715597000206,None,1329.3022052999586,None,1329.3022052999586,None,f,0.18930199998430908,1329.3022052999586,None,,,color6,001,2019_Nov_21_1705,ProdSingRedo,3.2.3,59.99084539712327,
,,,,151,0,151,0,,,,,,,,,,,,,,,,,,,,,,,,1332.1107934999745,None,,,,,,,,,,,,,,,,,quantity,aloud,blue,151,47,245,1330.0539474999532,None,1330.0539474999532,None,3,1.2375183999538422,1330.0539474999532,None,1331.3431703000097,None,1331.8676462000003,None,1331.8676462000003,None,f,0.20787289994768798,1331.8676462000003,None,,,color6,001,2019_Nov_21_1705,ProdSingRedo,3.2.3,59.99084539712327,
,,,,152,0,152,0,,,,,,,,,,,,,,,,,,,,,,,,1334.5942432000302,None,,,,,,,,,,,,,,,,,piece,sing,yellow,152,12,221,1332.632412099978,None,1332.632412099978,None,3,1.1070546000264585,1332.632412099978,None,1333.79040659999,None,1334.3105500999372,None,1334.3105500999372,None,f,0.24488819995895028,1334.3105500999372,None,,,color6,001,2019_Nov_21_1705,ProdSingRedo,3.2.3,59.99084539712327,
,,,,153,0,153,0,,,,,,,,,,,,,,,,,,,,,,,,1337.477495900006,None,,,,,,,,,,,,,,,,,break,new_sing,yellow,153,102,26,1335.1214898999315,None,1335.1214898999315,None,1,1.5700006000697613,1335.1214898999315,None,1336.744511900004,None,1337.267965200008,None,1337.267965200008,None,r,0.1754506001016125,1337.267965200008,None,,,color6,001,2019_Nov_21_1705,ProdSingRedo,3.2.3,59.99084539712327,
,,,,154,0,154,0,,,,,,,,,,,,,,,,,,,,,,,,1339.744527700008,None,,,,,,,,,,,,,,,,,territory,sing,yellow,154,16,324,1338.0026372999419,None,1338.0026372999419,None,2,1.0813464999664575,1338.0026372999419,None,1339.1213590999832,None,1339.6498552999692,None,1339.6498552999692,None,f,0.0576110000256449,1339.6498552999692,None,,,color6,001,2019_Nov_21_1705,ProdSingRedo,3.2.3,59.99084539712327,
,,,,155,0,155,0,,,,,,,,,,,,,,,,,,,,,,,,1342.31227330002,None,,,,,,,,,,,,,,,,,engineer,new_silent,red,155,162,114,1340.2717025999445,None,1340.2717025999445,None,3,1.1877908000024036,1340.2717025999445,None,1341.510709999944,None,1342.0342852999456,None,1342.0342852999456,None,f,0.24983489990700036,1342.0342852999456,None,,,color6,001,2019_Nov_21_1705,ProdSingRedo,3.2.3,59.99084539712327,
,,,,156,0,156,0,,,,,,,,,,,,,,,,,,,,,,,,1348.3799489999656,None,,,,,,,,,,,,,,,,,suspect,silent,red,156,80,318,1342.8358478000155,None,1342.8358478000155,None,3,3.183665300020948,1342.8358478000155,None,1346.0660972000333,None,1346.5843567999545,None,1346.5843567999545,None,n,1.755109200021252,1346.5843567999545,None,,,color6,001,2019_Nov_21_1705,ProdSingRedo,3.2.3,59.99084539712327,
,,,,157,0,157,0,,,,,,,,,,,,,,,,,,,,,,,,1350.6786619999912,None,,,,,,,,,,,,,,,,,edition,sing,yellow,157,29,107,1348.9010130999377,None,1348.9010130999377,None,2,0.7662802999839187,1348.9010130999377,None,1349.7043702999363,None,1350.212051999988,None,1350.212051999988,None,n,0.4398825999815017,1350.212051999988,None,,,color6,001,2019_Nov_21_1705,ProdSingRedo,3.2.3,59.99084539712327,
,,,,158,0,158,0,,,,,,,,,,,,,,,,,,,,,,,,1356.1309575999621,None,,,,,,,,,,,,,,,,,surface,sing,yellow,158,24,316,1351.206263500033,None,1351.206263500033,None,3,4.117150400066748,1351.206263500033,None,1355.376540999976,None,1355.903244499932,None,1355.903244499932,None,n,0.18821580009534955,1355.903244499932,None,,,color6,001,2019_Nov_21_1705,ProdSingRedo,3.2.3,59.99084539712327,
,,,,159,0,159,0,,,,,,,,,,,,,,,,,,,,,,,,1360.1966186999343,None,,,,,,,,,,,,,,,,,junior,sing,yellow,159,5,167,1356.654343900038,None,1356.654343900038,None,2,2.6931111000012606,1356.654343900038,None,1359.39195379999,None,1359.9151198000181,None,1359.9151198000181,None,f,0.25645210000220686,1359.9151198000181,None,,,color6,001,2019_Nov_21_1705,ProdSingRedo,3.2.3,59.99084539712327,
,,,,160,0,160,0,,,,,,,,,,,,,,,,,,,,,,,,1364.9137039999478,None,,,,,,,,,,,,,,,,,opening,new_sing,yellow,160,111,205,1360.7239112999523,None,1360.7239112999523,None,1,2.519570800010115,1360.7239112999523,None,1363.294993299991,None,1363.8159775999375,None,1363.8159775999375,None,n,1.0673556999536231,1363.8159775999375,None,,,color6,001,2019_Nov_21_1705,ProdSingRedo,3.2.3,59.99084539712327,
,,,,161,0,161,0,,,,,,,,,,,,,,,,,,,,,,,,1368.6632587999338,None,,,,,,,,,,,,,,,,,commercial,silent,red,161,65,61,1365.443082200014,None,1365.443082200014,None,2,2.432410700013861,1365.443082200014,None,1367.9366339000408,None,1368.4521532999352,None,1368.4521532999352,None,f,0.17539880005642772,1368.4521532999352,None,,,color6,001,2019_Nov_21_1705,ProdSingRedo,3.2.3,59.99084539712327,
,,,,162,0,162,0,,,,,,,,,,,,,,,,,,,,,,,,1372.265030200011,None,,,,,,,,,,,,,,,,,degree,aloud,blue,162,46,89,1369.1894245999865,None,1369.1894245999865,None,6,1.8304865000536665,1369.1894245999865,None,1371.0627873999765,None,1371.583502399968,None,1371.583502399968,None,r,0.6524073999607936,1371.583502399968,None,,,color6,001,2019_Nov_21_1705,ProdSingRedo,3.2.3,59.99084539712327,
,,,,163,0,163,0,,,,,,,,,,,,,,,,,,,,,,,,1374.7806111000245,None,,,,,,,,,,,,,,,,,provision,aloud,blue,163,34,243,1372.7913523999741,None,1372.7913523999741,None,6,1.284099300042726,1372.7913523999741,None,1374.1266299999552,None,1374.653346600011,None,1374.653346600011,None,r,0.10211899993009865,1374.653346600011,None,,,color6,001,2019_Nov_21_1705,ProdSingRedo,3.2.3,59.99084539712327,
,,,,164,0,164,0,,,,,,,,,,,,,,,,,,,,,,,,1384.164758299943,None,,,,,,,,,,,,,,,,,touch,new_aloud,blue,164,128,332,1375.306676200009,None,1375.306676200009,None,3,8.128771099960431,1375.306676200009,None,1383.4795275999932,None,1384.0019182999386,None,1384.0019182999386,None,r,0.1376528999535367,1384.0019182999386,None,,,color6,001,2019_Nov_21_1705,ProdSingRedo,3.2.3,59.99084539712327,
,,,,165,0,165,0,,,,,,,,,,,,,,,,,,,,,,,,1387.0484931999817,None,,,,,,,,,,,,,,,,,society,silent,red,165,71,293,1384.6881512999535,None,1384.6881512999535,None,2,1.227318099932745,1384.6881512999535,None,1385.9628855999326,None,1386.4847866999917,None,1386.4847866999917,None,n,0.5348010000307113,1386.4847866999917,None,,,color6,001,2019_Nov_21_1705,ProdSingRedo,3.2.3,59.99084539712327,
,,,,166,0,166,0,,,,,,,,,,,,,,,,,,,,,,,,1390.9320877999999,None,,,,,,,,,,,,,,,,,military,new_silent,red,166,155,190,1387.572251799982,None,1387.572251799982,None,1,2.399513600044884,1387.572251799982,None,1390.0207479000092,None,1390.5362736999523,None,1390.5362736999523,None,n,0.3711073000449687,1390.5362736999523,None,,,color6,001,2019_Nov_21_1705,ProdSingRedo,3.2.3,59.99084539712327,
,,,,167,0,167,0,,,,,,,,,,,,,,,,,,,,,,,,1401.6654039999703,None,,,,,,,,,,,,,,,,,signal,aloud,blue,167,54,287,1391.4604511000216,None,1391.4604511000216,None,2,9.495190599933267,1391.4604511000216,None,1400.9994427999482,None,1401.5216352000134,None,1401.5216352000134,None,f,0.10584010009188205,1401.5216352000134,None,,,color6,001,2019_Nov_21_1705,ProdSingRedo,3.2.3,59.99084539712327,
,,,,168,0,168,0,,,,,,,,,,,,,,,,,,,,,,,,1405.0997439000057,None,,,,,,,,,,,,,,,,,problem,new_aloud,blue,168,129,238,1402.1925558999646,None,1402.1925558999646,None,1,1.3068600998958573,1402.1925558999646,None,1403.5484531000257,None,1404.0716062999563,None,1404.0716062999563,None,n,1.0038694000104442,1404.0716062999563,None,,,color6,001,2019_Nov_21_1705,ProdSingRedo,3.2.3,59.99084539712327,
,,,,169,0,169,0,,,,,,,,,,,,,,,,,,,,,,,,1408.1334842999931,None,,,,,,,,,,,,,,,,,people,new_silent,red,169,159,216,1405.6214684000006,None,1405.6214684000006,None,3,1.7099738999968395,1405.6214684000006,None,1407.3796701999381,None,1407.8999012999702,None,1407.8999012999702,None,n,0.19956160010769963,1407.8999012999702,None,,,color6,001,2019_Nov_21_1705,ProdSingRedo,3.2.3,59.99084539712327,
,,,,170,0,170,0,,,,,,,,,,,,,,,,,,,,,,,,1416.6504174999427,None,,,,,,,,,,,,,,,,,empty,silent,red,170,89,112,1408.6581086999504,None,1408.6581086999504,None,3,7.273638100014068,1408.6581086999504,None,1415.9762122000102,None,1416.5032782999333,None,1416.5032782999333,None,n,0.11622490000445396,1416.5032782999333,None,,,color6,001,2019_Nov_21_1705,ProdSingRedo,3.2.3,59.99084539712327,
,,,,171,0,171,0,,,,,,,,,,,,,,,,,,,,,,,,1419.4165524999844,None,,,,,,,,,,,,,,,,,build,sing,yellow,171,10,35,1417.1748179999413,None,1417.1748179999413,None,3,1.5167383999796584,1417.1748179999413,None,1418.7322256999323,None,1419.2540900999447,None,1419.2540900999447,None,n,0.12542469997424632,1419.2540900999447,None,,,color6,001,2019_Nov_21_1705,ProdSingRedo,3.2.3,59.99084539712327,
,,,,172,0,172,0,,,,,,,,,,,,,,,,,,,,,,,,1421.98350880004,None,,,,,,,,,,,,,,,,,rough,new_aloud,blue,172,120,266,1419.9397399999434,None,1419.9397399999434,None,4,1.0717745999572799,1419.9397399999434,None,1421.064809500007,None,1421.5855913000414,None,1421.5855913000414,None,f,0.3618978000013158,1421.5855913000414,None,,,color6,001,2019_Nov_21_1705,ProdSingRedo,3.2.3,59.99084539712327,
,,,,173,0,173,0,,,,,,,,,,,,,,,,,,,,,,,,1425.11762299994,None,,,,,,,,,,,,,,,,,region,aloud,blue,173,41,256,1422.510586899938,None,1422.510586899938,None,4,1.1089478000067174,1422.510586899938,None,1423.6613941999385,None,1424.1889338999754,None,1424.1889338999754,None,f,0.894507099990733,1424.1889338999754,None,,,color6,001,2019_Nov_21_1705,ProdSingRedo,3.2.3,59.99084539712327,
,,,,174,0,174,0,,,,,,,,,,,,,,,,,,,,,,,,1428.202480899985,None,,,,,,,,,,,,,,,,,fight,sing,yellow,174,0,127,1425.6402548999758,None,1425.6402548999758,None,1,1.6032644000370055,1425.6402548999758,None,1427.2860775999725,None,1427.8069517000113,None,1427.8069517000113,None,n,0.3644924000836909,1427.8069517000113,None,,,color6,001,2019_Nov_21_1705,ProdSingRedo,3.2.3,59.99084539712327,
,,,,175,0,175,0,,,,,,,,,,,,,,,,,,,,,,,,1434.6684754999587,None,,,,,,,,,,,,,,,,,division,aloud,blue,175,40,101,1428.7253385999938,None,1428.7253385999938,None,4,5.110146299935877,1428.7253385999938,None,1433.8847101000138,None,1434.406215999974,None,1434.406215999974,None,f,0.23740639991592616,1434.406215999974,None,,,color6,001,2019_Nov_21_1705,ProdSingRedo,3.2.3,59.99084539712327,
,,,,176,0,176,0,,,,,,,,,,,,,,,,,,,,,,,,1437.8022420000052,None,,,,,,,,,,,,,,,,,primary,new_aloud,blue,176,135,234,1435.1990507999435,None,1435.1990507999435,None,1,1.7564549999078736,1435.1990507999435,None,1437.0018738999497,None,1437.524691300001,None,1437.524691300001,None,n,0.2386958000715822,1437.524691300001,None,,,color6,001,2019_Nov_21_1705,ProdSingRedo,3.2.3,59.99084539712327,
,,,,177,0,177,0,,,,,,,,,,,,,,,,,,,,,,,,1441.2855569999665,None,,,,,,,,,,,,,,,,,leader,aloud,blue,177,49,168,1438.3250778999645,None,1438.3250778999645,None,2,2.286485599935986,1438.3250778999645,None,1440.6530514999758,None,1441.1715766999405,None,1441.1715766999405,None,f,0.08789299998898059,1441.1715766999405,None,,,color6,001,2019_Nov_21_1705,ProdSingRedo,3.2.3,59.99084539712327,
,,,,178,0,178,0,,,,,,,,,,,,,,,,,,,,,,,,1443.4689922999823,None,,,,,,,,,,,,,,,,,union,sing,yellow,178,27,344,1441.8100601999322,None,1441.8100601999322,None,1,0.9774523000232875,1441.8100601999322,None,1442.8335171999643,None,1443.3550395999337,None,1443.3550395999337,None,f,0.08055519999470562,1443.3550395999337,None,,,color6,001,2019_Nov_21_1705,ProdSingRedo,3.2.3,59.99084539712327,
,,,,179,0,179,0,,,,,,,,,,,,,,,,,,,,,,,,1448.8019997000229,None,,,,,,,,,,,,,,,,,graduate,silent,red,179,77,141,1443.9958487999393,None,1443.9958487999393,None,2,3.112597699975595,1443.9958487999393,None,1447.1490980000235,None,1447.678866900038,None,1447.678866900038,None,f,1.0846373999956995,1447.678866900038,None,,,color6,001,2019_Nov_21_1705,ProdSingRedo,3.2.3,59.99084539712327,
,,,,,,,,,,,,,,,,,,,,,,,,,,,,,,,,,,,,,,,,,,,,,,,,,,,,,,,,,,,,,,,,,,,,,,,,,1449.3135658999672,None,,,,,,,
