StudyLoop.thisRepN,StudyLoop.thisTrialN,StudyLoop.thisN,StudyLoop.thisIndex,TestLoop.thisRepN,TestLoop.thisTrialN,TestLoop.thisN,TestLoop.thisIndex,textCondition.started,textCondition.stopped,keyCondition.keys,keyCondition.rt,keyCondition.started,keyCondition.stopped,Condition,stim_colors,color_sing,color_aloud,color_silent,textWelcome.started,textWelcome.stopped,keyWelcome.keys,keyWelcome.rt,keyWelcome.started,keyWelcome.stopped,textAloud.started,textAloud.stopped,textSilent.started,textSilent.stopped,textSing.started,textSing.stopped,textBlank500.started,textBlank500.stopped,study_word,study_type,study_color,study_num,study_word_num,textStudy.started,textStudy.stopped,keyStudy.keys,keyStudy.started,keyStudy.stopped,textTestInstructions.started,textTestInstructions.stopped,key_resp_3.keys,key_resp_3.rt,key_resp_3.started,key_resp_3.stopped,testWord,testType,testColor,testN,test_num,test_word_num,textConf.started,textConf.stopped,textConfScale.started,textConfScale.stopped,keyConf.keys,keyConf.rt,keyConf.started,keyConf.stopped,textTestBlank.started,textTestBlank.stopped,textRKN.started,textRKN.stopped,textRKNScale.started,textRKNScale.stopped,keyRKN.keys,keyRKN.rt,keyRKN.started,keyRKN.stopped,textEnd.started,textEnd.stopped,participant,session,date,expName,psychopyVersion,frameRate,
,,,,,,,,12.338573100045323,None,y,3.176184399984777,12.338573100045323,None,,,,,,,,,,,,,,,,,,,,,,,,,,,,,,,,,,,,,,,,,,,,,,,,,,,,,,,,,,,,,,color23,001,2021_Nov_10_1725,ProdSingRedo,3.2.3,60.06532707166387,
,,,,,,,,,,,,,,ColoredTest,"['red', 'blue', 'yellow']",red,blue,yellow,15.56089310022071,None,space,2038.0214447998442,15.56089310022071,None,,,,,,,,,,,,,,,,,,,,,,,,,,,,,,,,,,,,,,,,,,,,,,,,,,,color23,001,2021_Nov_10_1725,ProdSingRedo,3.2.3,60.06532707166387,
0,0,0,0,,,,,,,,,,,,,,,,,,,,,,15.56089310022071,None,15.56089310022071,None,15.56089310022071,None,2056.1274836999364,None,court,silent,yellow,83,75,2054.118918000255,None,None,2054.118918000255,None,,,,,,,,,,,,,,,,,,,,,,,,,,,,,,,,,color23,001,2021_Nov_10_1725,ProdSingRedo,3.2.3,60.06532707166387,
1,0,1,0,,,,,,,,,,,,,,,,,,,,,,,,,,,,2058.6432608002797,None,session,sing,red,17,281,2056.639891100116,None,None,2056.639891100116,None,,,,,,,,,,,,,,,,,,,,,,,,,,,,,,,,,color23,001,2021_Nov_10_1725,ProdSingRedo,3.2.3,60.06532707166387,
2,0,2,0,,,,,,,,,,,,,,,,,,,,,,,,,,,,2061.159516700078,None,cousin,sing,red,22,76,2059.156894800253,None,None,2059.156894800253,None,,,,,,,,,,,,,,,,,,,,,,,,,,,,,,,,,color23,001,2021_Nov_10_1725,ProdSingRedo,3.2.3,60.06532707166387,
3,0,3,0,,,,,,,,,,,,,,,,,,,,,,,,,,,,2063.675267000217,None,expansion,silent,yellow,61,123,2061.6751096001826,None,None,2061.6751096001826,None,,,,,,,,,,,,,,,,,,,,,,,,,,,,,,,,,color23,001,2021_Nov_10_1725,ProdSingRedo,3.2.3,60.06532707166387,
4,0,4,0,,,,,,,,,,,,,,,,,,,,,,,,,,,,2066.193043900188,None,concern,sing,red,25,65,2064.178135999944,None,None,2064.178135999944,None,,,,,,,,,,,,,,,,,,,,,,,,,,,,,,,,,color23,001,2021_Nov_10_1725,ProdSingRedo,3.2.3,60.06532707166387,
5,0,5,0,,,,,,,,,,,,,,,,,,,,,,,,,,,,2068.7100634002127,None,education,aloud,blue,52,108,2066.7092613000423,None,None,2066.7092613000423,None,,,,,,,,,,,,,,,,,,,,,,,,,,,,,,,,,color23,001,2021_Nov_10_1725,ProdSingRedo,3.2.3,60.06532707166387,
6,0,6,0,,,,,,,,,,,,,,,,,,,,,,,,,,,,2071.2267841002904,None,signal,silent,yellow,67,287,2069.227161699906,None,None,2069.227161699906,None,,,,,,,,,,,,,,,,,,,,,,,,,,,,,,,,,color23,001,2021_Nov_10_1725,ProdSingRedo,3.2.3,60.06532707166387,
7,0,7,0,,,,,,,,,,,,,,,,,,,,,,,,,,,,2073.7436259002425,None,captain,aloud,blue,55,41,2071.744131000247,None,None,2071.744131000247,None,,,,,,,,,,,,,,,,,,,,,,,,,,,,,,,,,color23,001,2021_Nov_10_1725,ProdSingRedo,3.2.3,60.06532707166387,
8,0,8,0,,,,,,,,,,,,,,,,,,,,,,,,,,,,2076.259651500266,None,quick,sing,red,10,248,2074.2631421000697,None,None,2074.2631421000697,None,,,,,,,,,,,,,,,,,,,,,,,,,,,,,,,,,color23,001,2021_Nov_10_1725,ProdSingRedo,3.2.3,60.06532707166387,
9,0,9,0,,,,,,,,,,,,,,,,,,,,,,,,,,,,2078.7773965001106,None,south,aloud,blue,34,296,2076.772681000177,None,None,2076.772681000177,None,,,,,,,,,,,,,,,,,,,,,,,,,,,,,,,,,color23,001,2021_Nov_10_1725,ProdSingRedo,3.2.3,60.06532707166387,
10,0,10,0,,,,,,,,,,,,,,,,,,,,,,,,,,,,2081.2941482001916,None,hunger,silent,yellow,86,155,2079.2937402003445,None,None,2079.2937402003445,None,,,,,,,,,,,,,,,,,,,,,,,,,,,,,,,,,color23,001,2021_Nov_10_1725,ProdSingRedo,3.2.3,60.06532707166387,
11,0,11,0,,,,,,,,,,,,,,,,,,,,,,,,,,,,2083.8113875999115,None,corner,silent,yellow,71,69,2081.805548599921,None,None,2081.805548599921,None,,,,,,,,,,,,,,,,,,,,,,,,,,,,,,,,,color23,001,2021_Nov_10_1725,ProdSingRedo,3.2.3,60.06532707166387,
12,0,12,0,,,,,,,,,,,,,,,,,,,,,,,,,,,,2086.3278296999633,None,addition,aloud,blue,31,2,2084.328428800218,None,None,2084.328428800218,None,,,,,,,,,,,,,,,,,,,,,,,,,,,,,,,,,color23,001,2021_Nov_10_1725,ProdSingRedo,3.2.3,60.06532707166387,
13,0,13,0,,,,,,,,,,,,,,,,,,,,,,,,,,,,2088.8447376000695,None,light,sing,red,28,171,2086.8296227003448,None,None,2086.8296227003448,None,,,,,,,,,,,,,,,,,,,,,,,,,,,,,,,,,color23,001,2021_Nov_10_1725,ProdSingRedo,3.2.3,60.06532707166387,
14,0,14,0,,,,,,,,,,,,,,,,,,,,,,,,,,,,2091.3615772002377,None,match,sing,red,20,181,2089.3636095002294,None,None,2089.3636095002294,None,,,,,,,,,,,,,,,,,,,,,,,,,,,,,,,,,color23,001,2021_Nov_10_1725,ProdSingRedo,3.2.3,60.06532707166387,
15,0,15,0,,,,,,,,,,,,,,,,,,,,,,,,,,,,2093.8777330000885,None,appeal,silent,yellow,81,9,2091.8723019002937,None,None,2091.8723019002937,None,,,,,,,,,,,,,,,,,,,,,,,,,,,,,,,,,color23,001,2021_Nov_10_1725,ProdSingRedo,3.2.3,60.06532707166387,
16,0,16,0,,,,,,,,,,,,,,,,,,,,,,,,,,,,2096.395168399904,None,scale,silent,yellow,63,272,2094.3909074002877,None,None,2094.3909074002877,None,,,,,,,,,,,,,,,,,,,,,,,,,,,,,,,,,color23,001,2021_Nov_10_1725,ProdSingRedo,3.2.3,60.06532707166387,
17,0,17,0,,,,,,,,,,,,,,,,,,,,,,,,,,,,2098.9118880000897,None,provision,aloud,blue,39,243,2096.9024058999494,None,None,2096.9024058999494,None,,,,,,,,,,,,,,,,,,,,,,,,,,,,,,,,,color23,001,2021_Nov_10_1725,ProdSingRedo,3.2.3,60.06532707166387,
18,0,18,0,,,,,,,,,,,,,,,,,,,,,,,,,,,,2101.42880210001,None,emergency,silent,yellow,62,110,2099.428646699991,None,None,2099.428646699991,None,,,,,,,,,,,,,,,,,,,,,,,,,,,,,,,,,color23,001,2021_Nov_10_1725,ProdSingRedo,3.2.3,60.06532707166387,
19,0,19,0,,,,,,,,,,,,,,,,,,,,,,,,,,,,2103.946050700266,None,break,aloud,blue,53,26,2101.948442300316,None,None,2101.948442300316,None,,,,,,,,,,,,,,,,,,,,,,,,,,,,,,,,,color23,001,2021_Nov_10_1725,ProdSingRedo,3.2.3,60.06532707166387,
20,0,20,0,,,,,,,,,,,,,,,,,,,,,,,,,,,,2106.4624338001013,None,right,silent,yellow,74,265,2104.4592878003605,None,None,2104.4592878003605,None,,,,,,,,,,,,,,,,,,,,,,,,,,,,,,,,,color23,001,2021_Nov_10_1725,ProdSingRedo,3.2.3,60.06532707166387,
21,0,21,0,,,,,,,,,,,,,,,,,,,,,,,,,,,,2108.9793810001574,None,victory,sing,red,26,346,2106.981537600048,None,None,2106.981537600048,None,,,,,,,,,,,,,,,,,,,,,,,,,,,,,,,,,color23,001,2021_Nov_10_1725,ProdSingRedo,3.2.3,60.06532707166387,
22,0,22,0,,,,,,,,,,,,,,,,,,,,,,,,,,,,2111.4961399999447,None,store,silent,yellow,85,305,2109.487639900297,None,None,2109.487639900297,None,,,,,,,,,,,,,,,,,,,,,,,,,,,,,,,,,color23,001,2021_Nov_10_1725,ProdSingRedo,3.2.3,60.06532707166387,
23,0,23,0,,,,,,,,,,,,,,,,,,,,,,,,,,,,2114.013046400156,None,safety,silent,yellow,76,270,2112.0168885001913,None,None,2112.0168885001913,None,,,,,,,,,,,,,,,,,,,,,,,,,,,,,,,,,color23,001,2021_Nov_10_1725,ProdSingRedo,3.2.3,60.06532707166387,
24,0,24,0,,,,,,,,,,,,,,,,,,,,,,,,,,,,2116.529888200108,None,goose,aloud,blue,33,138,2114.528045900166,None,None,2114.528045900166,None,,,,,,,,,,,,,,,,,,,,,,,,,,,,,,,,,color23,001,2021_Nov_10_1725,ProdSingRedo,3.2.3,60.06532707166387,
25,0,25,0,,,,,,,,,,,,,,,,,,,,,,,,,,,,2119.0461615002714,None,poetry,sing,red,27,225,2117.04216740001,None,None,2117.04216740001,None,,,,,,,,,,,,,,,,,,,,,,,,,,,,,,,,,color23,001,2021_Nov_10_1725,ProdSingRedo,3.2.3,60.06532707166387,
26,0,26,0,,,,,,,,,,,,,,,,,,,,,,,,,,,,2121.5626383000053,None,design,silent,yellow,78,91,2119.547285300214,None,None,2119.547285300214,None,,,,,,,,,,,,,,,,,,,,,,,,,,,,,,,,,color23,001,2021_Nov_10_1725,ProdSingRedo,3.2.3,60.06532707166387,
27,0,27,0,,,,,,,,,,,,,,,,,,,,,,,,,,,,2124.0797927002423,None,place,aloud,blue,54,222,2122.0775852003135,None,None,2122.0775852003135,None,,,,,,,,,,,,,,,,,,,,,,,,,,,,,,,,,color23,001,2021_Nov_10_1725,ProdSingRedo,3.2.3,60.06532707166387,
28,0,28,0,,,,,,,,,,,,,,,,,,,,,,,,,,,,2126.5972329000942,None,blind,aloud,blue,46,24,2124.592633299995,None,None,2124.592633299995,None,,,,,,,,,,,,,,,,,,,,,,,,,,,,,,,,,color23,001,2021_Nov_10_1725,ProdSingRedo,3.2.3,60.06532707166387,
29,0,29,0,,,,,,,,,,,,,,,,,,,,,,,,,,,,2129.114024600014,None,month,aloud,blue,40,193,2127.109395300038,None,None,2127.109395300038,None,,,,,,,,,,,,,,,,,,,,,,,,,,,,,,,,,color23,001,2021_Nov_10_1725,ProdSingRedo,3.2.3,60.06532707166387,
30,0,30,0,,,,,,,,,,,,,,,,,,,,,,,,,,,,2131.6309234001674,None,salary,aloud,blue,56,271,2129.6378115001135,None,None,2129.6378115001135,None,,,,,,,,,,,,,,,,,,,,,,,,,,,,,,,,,color23,001,2021_Nov_10_1725,ProdSingRedo,3.2.3,60.06532707166387,
31,0,31,0,,,,,,,,,,,,,,,,,,,,,,,,,,,,2134.147748600226,None,thing,sing,red,9,328,2132.143335400149,None,None,2132.143335400149,None,,,,,,,,,,,,,,,,,,,,,,,,,,,,,,,,,color23,001,2021_Nov_10_1725,ProdSingRedo,3.2.3,60.06532707166387,
32,0,32,0,,,,,,,,,,,,,,,,,,,,,,,,,,,,2136.6666246000677,None,union,silent,yellow,65,344,2134.6630736999214,None,None,2134.6630736999214,None,,,,,,,,,,,,,,,,,,,,,,,,,,,,,,,,,color23,001,2021_Nov_10_1725,ProdSingRedo,3.2.3,60.06532707166387,
33,0,33,0,,,,,,,,,,,,,,,,,,,,,,,,,,,,2139.1814725003205,None,problem,aloud,blue,47,238,2137.181113500148,None,None,2137.181113500148,None,,,,,,,,,,,,,,,,,,,,,,,,,,,,,,,,,color23,001,2021_Nov_10_1725,ProdSingRedo,3.2.3,60.06532707166387,
34,0,34,0,,,,,,,,,,,,,,,,,,,,,,,,,,,,2141.698211400304,None,interview,silent,yellow,82,165,2139.701361299958,None,None,2139.701361299958,None,,,,,,,,,,,,,,,,,,,,,,,,,,,,,,,,,color23,001,2021_Nov_10_1725,ProdSingRedo,3.2.3,60.06532707166387,
35,0,35,0,,,,,,,,,,,,,,,,,,,,,,,,,,,,2144.215083400253,None,breath,silent,yellow,84,27,2142.2163800001144,None,None,2142.2163800001144,None,,,,,,,,,,,,,,,,,,,,,,,,,,,,,,,,,color23,001,2021_Nov_10_1725,ProdSingRedo,3.2.3,60.06532707166387,
36,0,36,0,,,,,,,,,,,,,,,,,,,,,,,,,,,,2146.7327076001093,None,suspect,sing,red,12,318,2144.730769400019,None,None,2144.730769400019,None,,,,,,,,,,,,,,,,,,,,,,,,,,,,,,,,,color23,001,2021_Nov_10_1725,ProdSingRedo,3.2.3,60.06532707166387,
37,0,37,0,,,,,,,,,,,,,,,,,,,,,,,,,,,,2149.2477724002674,None,power,aloud,blue,32,230,2147.2455389001407,None,None,2147.2455389001407,None,,,,,,,,,,,,,,,,,,,,,,,,,,,,,,,,,color23,001,2021_Nov_10_1725,ProdSingRedo,3.2.3,60.06532707166387,
38,0,38,0,,,,,,,,,,,,,,,,,,,,,,,,,,,,2151.765538800042,None,background,aloud,blue,30,16,2149.7717892001383,None,None,2149.7717892001383,None,,,,,,,,,,,,,,,,,,,,,,,,,,,,,,,,,color23,001,2021_Nov_10_1725,ProdSingRedo,3.2.3,60.06532707166387,
39,0,39,0,,,,,,,,,,,,,,,,,,,,,,,,,,,,2154.2823801003397,None,impact,aloud,blue,58,157,2152.2790373000316,None,None,2152.2790373000316,None,,,,,,,,,,,,,,,,,,,,,,,,,,,,,,,,,color23,001,2021_Nov_10_1725,ProdSingRedo,3.2.3,60.06532707166387,
40,0,40,0,,,,,,,,,,,,,,,,,,,,,,,,,,,,2156.799431500025,None,count,sing,red,0,72,2154.795579300262,None,None,2154.795579300262,None,,,,,,,,,,,,,,,,,,,,,,,,,,,,,,,,,color23,001,2021_Nov_10_1725,ProdSingRedo,3.2.3,60.06532707166387,
41,0,41,0,,,,,,,,,,,,,,,,,,,,,,,,,,,,2159.3165159001946,None,answer,aloud,blue,44,8,2157.313585500233,None,None,2157.313585500233,None,,,,,,,,,,,,,,,,,,,,,,,,,,,,,,,,,color23,001,2021_Nov_10_1725,ProdSingRedo,3.2.3,60.06532707166387,
42,0,42,0,,,,,,,,,,,,,,,,,,,,,,,,,,,,2161.83192529995,None,comedy,silent,yellow,80,58,2159.829637600109,None,None,2159.829637600109,None,,,,,,,,,,,,,,,,,,,,,,,,,,,,,,,,,color23,001,2021_Nov_10_1725,ProdSingRedo,3.2.3,60.06532707166387,
43,0,43,0,,,,,,,,,,,,,,,,,,,,,,,,,,,,2164.3489597002044,None,motion,silent,yellow,79,194,2162.3443056000397,None,None,2162.3443056000397,None,,,,,,,,,,,,,,,,,,,,,,,,,,,,,,,,,color23,001,2021_Nov_10_1725,ProdSingRedo,3.2.3,60.06532707166387,
44,0,44,0,,,,,,,,,,,,,,,,,,,,,,,,,,,,2166.8665595003404,None,speech,aloud,blue,38,298,2164.8602776001208,None,None,2164.8602776001208,None,,,,,,,,,,,,,,,,,,,,,,,,,,,,,,,,,color23,001,2021_Nov_10_1725,ProdSingRedo,3.2.3,60.06532707166387,
45,0,45,0,,,,,,,,,,,,,,,,,,,,,,,,,,,,2169.3665670999326,None,rapid,aloud,blue,49,252,2167.3674497003667,None,None,2167.3674497003667,None,,,,,,,,,,,,,,,,,,,,,,,,,,,,,,,,,color23,001,2021_Nov_10_1725,ProdSingRedo,3.2.3,60.06532707166387,
46,0,46,0,,,,,,,,,,,,,,,,,,,,,,,,,,,,2171.8836463000625,None,title,sing,red,21,331,2169.8781209001318,None,None,2169.8781209001318,None,,,,,,,,,,,,,,,,,,,,,,,,,,,,,,,,,color23,001,2021_Nov_10_1725,ProdSingRedo,3.2.3,60.06532707166387,
47,0,47,0,,,,,,,,,,,,,,,,,,,,,,,,,,,,2174.4006121000275,None,threat,silent,yellow,88,329,2172.399340500124,None,None,2172.399340500124,None,,,,,,,,,,,,,,,,,,,,,,,,,,,,,,,,,color23,001,2021_Nov_10_1725,ProdSingRedo,3.2.3,60.06532707166387,
48,0,48,0,,,,,,,,,,,,,,,,,,,,,,,,,,,,2176.9172967001796,None,atmosphere,sing,red,7,12,2174.9085955000482,None,None,2174.9085955000482,None,,,,,,,,,,,,,,,,,,,,,,,,,,,,,,,,,color23,001,2021_Nov_10_1725,ProdSingRedo,3.2.3,60.06532707166387,
49,0,49,0,,,,,,,,,,,,,,,,,,,,,,,,,,,,2179.4346557003446,None,brilliant,sing,red,19,30,2177.4342261999846,None,None,2177.4342261999846,None,,,,,,,,,,,,,,,,,,,,,,,,,,,,,,,,,color23,001,2021_Nov_10_1725,ProdSingRedo,3.2.3,60.06532707166387,
50,0,50,0,,,,,,,,,,,,,,,,,,,,,,,,,,,,2181.9507508003153,None,dance,sing,red,23,84,2179.944424299989,None,None,2179.944424299989,None,,,,,,,,,,,,,,,,,,,,,,,,,,,,,,,,,color23,001,2021_Nov_10_1725,ProdSingRedo,3.2.3,60.06532707166387,
51,0,51,0,,,,,,,,,,,,,,,,,,,,,,,,,,,,2184.4678491000086,None,sweet,aloud,blue,35,319,2182.4529538000934,None,None,2182.4529538000934,None,,,,,,,,,,,,,,,,,,,,,,,,,,,,,,,,,color23,001,2021_Nov_10_1725,ProdSingRedo,3.2.3,60.06532707166387,
52,0,52,0,,,,,,,,,,,,,,,,,,,,,,,,,,,,2186.984775000252,None,plane,sing,red,8,223,2184.982078600209,None,None,2184.982078600209,None,,,,,,,,,,,,,,,,,,,,,,,,,,,,,,,,,color23,001,2021_Nov_10_1725,ProdSingRedo,3.2.3,60.06532707166387,
53,0,53,0,,,,,,,,,,,,,,,,,,,,,,,,,,,,2189.5015543000773,None,stranger,aloud,blue,57,309,2187.5030589001253,None,None,2187.5030589001253,None,,,,,,,,,,,,,,,,,,,,,,,,,,,,,,,,,color23,001,2021_Nov_10_1725,ProdSingRedo,3.2.3,60.06532707166387,
54,0,54,0,,,,,,,,,,,,,,,,,,,,,,,,,,,,2192.018855799921,None,mankind,aloud,blue,59,178,2190.0187083999626,None,None,2190.0187083999626,None,,,,,,,,,,,,,,,,,,,,,,,,,,,,,,,,,color23,001,2021_Nov_10_1725,ProdSingRedo,3.2.3,60.06532707166387,
55,0,55,0,,,,,,,,,,,,,,,,,,,,,,,,,,,,2194.5351140000857,None,center,sing,red,5,44,2192.5292289000936,None,None,2192.5292289000936,None,,,,,,,,,,,,,,,,,,,,,,,,,,,,,,,,,color23,001,2021_Nov_10_1725,ProdSingRedo,3.2.3,60.06532707166387,
56,0,56,0,,,,,,,,,,,,,,,,,,,,,,,,,,,,2197.05216630036,None,clear,sing,red,18,52,2195.050707800314,None,None,2195.050707800314,None,,,,,,,,,,,,,,,,,,,,,,,,,,,,,,,,,color23,001,2021_Nov_10_1725,ProdSingRedo,3.2.3,60.06532707166387,
57,0,57,0,,,,,,,,,,,,,,,,,,,,,,,,,,,,2199.5690045999363,None,split,silent,yellow,68,299,2197.5605246000923,None,None,2197.5605246000923,None,,,,,,,,,,,,,,,,,,,,,,,,,,,,,,,,,color23,001,2021_Nov_10_1725,ProdSingRedo,3.2.3,60.06532707166387,
58,0,58,0,,,,,,,,,,,,,,,,,,,,,,,,,,,,2202.0854927003384,None,nation,aloud,blue,36,198,2200.0827435003594,None,None,2200.0827435003594,None,,,,,,,,,,,,,,,,,,,,,,,,,,,,,,,,,color23,001,2021_Nov_10_1725,ProdSingRedo,3.2.3,60.06532707166387,
59,0,59,0,,,,,,,,,,,,,,,,,,,,,,,,,,,,2204.6027313000523,None,discovery,sing,red,2,95,2202.597022900358,None,None,2202.597022900358,None,,,,,,,,,,,,,,,,,,,,,,,,,,,,,,,,,color23,001,2021_Nov_10_1725,ProdSingRedo,3.2.3,60.06532707166387,
60,0,60,0,,,,,,,,,,,,,,,,,,,,,,,,,,,,2207.1193706002086,None,drove,silent,yellow,60,106,2205.1137840002775,None,None,2205.1137840002775,None,,,,,,,,,,,,,,,,,,,,,,,,,,,,,,,,,color23,001,2021_Nov_10_1725,ProdSingRedo,3.2.3,60.06532707166387,
61,0,61,0,,,,,,,,,,,,,,,,,,,,,,,,,,,,2209.63535530027,None,health,sing,red,24,149,2207.632422900293,None,None,2207.632422900293,None,,,,,,,,,,,,,,,,,,,,,,,,,,,,,,,,,color23,001,2021_Nov_10_1725,ProdSingRedo,3.2.3,60.06532707166387,
62,0,62,0,,,,,,,,,,,,,,,,,,,,,,,,,,,,2212.153104700148,None,husband,silent,yellow,72,156,2210.153293200303,None,None,2210.153293200303,None,,,,,,,,,,,,,,,,,,,,,,,,,,,,,,,,,color23,001,2021_Nov_10_1725,ProdSingRedo,3.2.3,60.06532707166387,
63,0,63,0,,,,,,,,,,,,,,,,,,,,,,,,,,,,2214.669936399907,None,military,sing,red,4,190,2212.671290300321,None,None,2212.671290300321,None,,,,,,,,,,,,,,,,,,,,,,,,,,,,,,,,,color23,001,2021_Nov_10_1725,ProdSingRedo,3.2.3,60.06532707166387,
64,0,64,0,,,,,,,,,,,,,,,,,,,,,,,,,,,,2217.1868215999566,None,quantity,silent,yellow,75,245,2215.186341700144,None,None,2215.186341700144,None,,,,,,,,,,,,,,,,,,,,,,,,,,,,,,,,,color23,001,2021_Nov_10_1725,ProdSingRedo,3.2.3,60.06532707166387,
65,0,65,0,,,,,,,,,,,,,,,,,,,,,,,,,,,,2219.7036652001552,None,swift,silent,yellow,77,320,2217.7062714002095,None,None,2217.7062714002095,None,,,,,,,,,,,,,,,,,,,,,,,,,,,,,,,,,color23,001,2021_Nov_10_1725,ProdSingRedo,3.2.3,60.06532707166387,
66,0,66,0,,,,,,,,,,,,,,,,,,,,,,,,,,,,2222.2201316002756,None,direction,sing,red,29,94,2220.214279100299,None,None,2220.214279100299,None,,,,,,,,,,,,,,,,,,,,,,,,,,,,,,,,,color23,001,2021_Nov_10_1725,ProdSingRedo,3.2.3,60.06532707166387,
67,0,67,0,,,,,,,,,,,,,,,,,,,,,,,,,,,,2224.7373196003027,None,reach,aloud,blue,51,253,2222.732732300181,None,None,2222.732732300181,None,,,,,,,,,,,,,,,,,,,,,,,,,,,,,,,,,color23,001,2021_Nov_10_1725,ProdSingRedo,3.2.3,60.06532707166387,
68,0,68,0,,,,,,,,,,,,,,,,,,,,,,,,,,,,2227.254065300338,None,gesture,silent,yellow,73,137,2225.2488159001805,None,None,2225.2488159001805,None,,,,,,,,,,,,,,,,,,,,,,,,,,,,,,,,,color23,001,2021_Nov_10_1725,ProdSingRedo,3.2.3,60.06532707166387,
69,0,69,0,,,,,,,,,,,,,,,,,,,,,,,,,,,,2229.7710585999303,None,defeat,sing,red,3,88,2227.766634300351,None,None,2227.766634300351,None,,,,,,,,,,,,,,,,,,,,,,,,,,,,,,,,,color23,001,2021_Nov_10_1725,ProdSingRedo,3.2.3,60.06532707166387,
70,0,70,0,,,,,,,,,,,,,,,,,,,,,,,,,,,,2232.2878165002912,None,candidate,silent,yellow,89,39,2230.2914762999862,None,None,2230.2914762999862,None,,,,,,,,,,,,,,,,,,,,,,,,,,,,,,,,,color23,001,2021_Nov_10_1725,ProdSingRedo,3.2.3,60.06532707166387,
71,0,71,0,,,,,,,,,,,,,,,,,,,,,,,,,,,,2234.804771400057,None,bicycle,sing,red,14,21,2232.802122999914,None,None,2232.802122999914,None,,,,,,,,,,,,,,,,,,,,,,,,,,,,,,,,,color23,001,2021_Nov_10_1725,ProdSingRedo,3.2.3,60.06532707166387,
72,0,72,0,,,,,,,,,,,,,,,,,,,,,,,,,,,,2237.3215642999858,None,prime,aloud,blue,45,235,2235.315740799997,None,None,2235.315740799997,None,,,,,,,,,,,,,,,,,,,,,,,,,,,,,,,,,color23,001,2021_Nov_10_1725,ProdSingRedo,3.2.3,60.06532707166387,
73,0,73,0,,,,,,,,,,,,,,,,,,,,,,,,,,,,2239.8383702002466,None,marriage,silent,yellow,70,179,2237.839879600331,None,None,2237.839879600331,None,,,,,,,,,,,,,,,,,,,,,,,,,,,,,,,,,color23,001,2021_Nov_10_1725,ProdSingRedo,3.2.3,60.06532707166387,
74,0,74,0,,,,,,,,,,,,,,,,,,,,,,,,,,,,2242.356935000047,None,permit,aloud,blue,37,218,2240.3477080999874,None,None,2240.3477080999874,None,,,,,,,,,,,,,,,,,,,,,,,,,,,,,,,,,color23,001,2021_Nov_10_1725,ProdSingRedo,3.2.3,60.06532707166387,
75,0,75,0,,,,,,,,,,,,,,,,,,,,,,,,,,,,2244.8714109002613,None,worker,sing,red,1,356,2242.873268700205,None,None,2242.873268700205,None,,,,,,,,,,,,,,,,,,,,,,,,,,,,,,,,,color23,001,2021_Nov_10_1725,ProdSingRedo,3.2.3,60.06532707166387,
76,0,76,0,,,,,,,,,,,,,,,,,,,,,,,,,,,,2247.374221800361,None,instrument,silent,yellow,66,163,2245.3715717000887,None,None,2245.3715717000887,None,,,,,,,,,,,,,,,,,,,,,,,,,,,,,,,,,color23,001,2021_Nov_10_1725,ProdSingRedo,3.2.3,60.06532707166387,
77,0,77,0,,,,,,,,,,,,,,,,,,,,,,,,,,,,2249.9046626999043,None,voice,sing,red,13,348,2247.902358800173,None,None,2247.902358800173,None,,,,,,,,,,,,,,,,,,,,,,,,,,,,,,,,,color23,001,2021_Nov_10_1725,ProdSingRedo,3.2.3,60.06532707166387,
78,0,78,0,,,,,,,,,,,,,,,,,,,,,,,,,,,,2252.422513599973,None,resistance,sing,red,11,262,2250.417302899994,None,None,2250.417302899994,None,,,,,,,,,,,,,,,,,,,,,,,,,,,,,,,,,color23,001,2021_Nov_10_1725,ProdSingRedo,3.2.3,60.06532707166387,
79,0,79,0,,,,,,,,,,,,,,,,,,,,,,,,,,,,2254.9393180999905,None,trail,aloud,blue,50,336,2252.933686000295,None,None,2252.933686000295,None,,,,,,,,,,,,,,,,,,,,,,,,,,,,,,,,,color23,001,2021_Nov_10_1725,ProdSingRedo,3.2.3,60.06532707166387,
80,0,80,0,,,,,,,,,,,,,,,,,,,,,,,,,,,,2257.4563172003254,None,color,silent,yellow,87,56,2255.4475080999546,None,None,2255.4475080999546,None,,,,,,,,,,,,,,,,,,,,,,,,,,,,,,,,,color23,001,2021_Nov_10_1725,ProdSingRedo,3.2.3,60.06532707166387,
81,0,81,0,,,,,,,,,,,,,,,,,,,,,,,,,,,,2259.973477500025,None,council,sing,red,6,71,2257.969744000118,None,None,2257.969744000118,None,,,,,,,,,,,,,,,,,,,,,,,,,,,,,,,,,color23,001,2021_Nov_10_1725,ProdSingRedo,3.2.3,60.06532707166387,
82,0,82,0,,,,,,,,,,,,,,,,,,,,,,,,,,,,2262.48969640024,None,company,aloud,blue,43,64,2260.4904812001623,None,None,2260.4904812001623,None,,,,,,,,,,,,,,,,,,,,,,,,,,,,,,,,,color23,001,2021_Nov_10_1725,ProdSingRedo,3.2.3,60.06532707166387,
83,0,83,0,,,,,,,,,,,,,,,,,,,,,,,,,,,,2265.0067310002632,None,nature,aloud,blue,41,200,2263.0072516002692,None,None,2263.0072516002692,None,,,,,,,,,,,,,,,,,,,,,,,,,,,,,,,,,color23,001,2021_Nov_10_1725,ProdSingRedo,3.2.3,60.06532707166387,
84,0,84,0,,,,,,,,,,,,,,,,,,,,,,,,,,,,2267.523522200063,None,territory,silent,yellow,64,324,2265.5219519003294,None,None,2265.5219519003294,None,,,,,,,,,,,,,,,,,,,,,,,,,,,,,,,,,color23,001,2021_Nov_10_1725,ProdSingRedo,3.2.3,60.06532707166387,
85,0,85,0,,,,,,,,,,,,,,,,,,,,,,,,,,,,2270.0401432001963,None,oxygen,sing,red,16,209,2268.0401433003135,None,None,2268.0401433003135,None,,,,,,,,,,,,,,,,,,,,,,,,,,,,,,,,,color23,001,2021_Nov_10_1725,ProdSingRedo,3.2.3,60.06532707166387,
86,0,86,0,,,,,,,,,,,,,,,,,,,,,,,,,,,,2272.5571965002455,None,number,sing,red,15,203,2270.558021400124,None,None,2270.558021400124,None,,,,,,,,,,,,,,,,,,,,,,,,,,,,,,,,,color23,001,2021_Nov_10_1725,ProdSingRedo,3.2.3,60.06532707166387,
87,0,87,0,,,,,,,,,,,,,,,,,,,,,,,,,,,,2275.07397400029,None,substance,aloud,blue,42,313,2273.084749500267,None,None,2273.084749500267,None,,,,,,,,,,,,,,,,,,,,,,,,,,,,,,,,,color23,001,2021_Nov_10_1725,ProdSingRedo,3.2.3,60.06532707166387,
88,0,88,0,,,,,,,,,,,,,,,,,,,,,,,,,,,,2277.5900102001615,None,pancakes,aloud,blue,48,210,2275.590860800352,None,None,2275.590860800352,None,,,,,,,,,,,,,,,,,,,,,,,,,,,,,,,,,color23,001,2021_Nov_10_1725,ProdSingRedo,3.2.3,60.06532707166387,
89,0,89,0,,,,,,,,,,,,,,,,,,,,,,,,,,,,2280.108186100144,None,volume,silent,yellow,69,349,2278.104674000293,None,None,2278.104674000293,None,,,,,,,,,,,,,,,,,,,,,,,,,,,,,,,,,color23,001,2021_Nov_10_1725,ProdSingRedo,3.2.3,60.06532707166387,
,,,,,,,,,,,,,,,,,,,,,,,,,,,,,,,,,,,,,,,,,,,2280.6076421001926,None,k,326.19114220002666,2280.6076421001926,None,,,,,,,,,,,,,,,,,,,,,,,,,,,color23,001,2021_Nov_10_1725,ProdSingRedo,3.2.3,60.06532707166387,
,,,,0,0,0,0,,,,,,,,,,,,,,,,,,,,,,,,2622.0438562002964,None,,,,,,,,,,,,,,,,,expansion,silent,yellow,0,61,123,2607.3513711001724,None,2607.3513711001724,None,2,8.661352900322527,2607.3513711001724,None,2616.0561453001574,None,2616.5775577002205,None,2616.5775577002205,None,n,5.43529439996928,2616.5775577002205,None,,,color23,001,2021_Nov_10_1725,ProdSingRedo,3.2.3,60.06532707166387,
,,,,1,0,1,0,,,,,,,,,,,,,,,,,,,,,,,,2633.7989950003102,None,,,,,,,,,,,,,,,,,light,sing,red,1,28,171,2622.5635028001852,None,2622.5635028001852,None,1,3.0090826000086963,2622.5635028001852,None,2625.614476100076,None,2626.1230697003193,None,2626.1230697003193,None,n,7.649305299855769,2626.1230697003193,None,,,color23,001,2021_Nov_10_1725,ProdSingRedo,3.2.3,60.06532707166387,
,,,,2,0,2,0,,,,,,,,,,,,,,,,,,,,,,,,2640.0575924003497,None,,,,,,,,,,,,,,,,,concern,sing,red,2,25,65,2634.313006200362,None,2634.313006200362,None,6,4.331650599837303,2634.313006200362,None,2638.67993570026,None,2639.1936185001396,None,2639.1936185001396,None,r,0.8351255003362894,2639.1936185001396,None,,,color23,001,2021_Nov_10_1725,ProdSingRedo,3.2.3,60.06532707166387,
,,,,3,0,3,0,,,,,,,,,,,,,,,,,,,,,,,,2646.524575300049,None,,,,,,,,,,,,,,,,,volume,silent,yellow,3,69,349,2640.5870884000324,None,2640.5870884000324,None,1,4.017370699904859,2640.5870884000324,None,2644.654780500103,None,2645.179588400293,None,2645.179588400293,None,n,1.3131268001161516,2645.179588400293,None,,,color23,001,2021_Nov_10_1725,ProdSingRedo,3.2.3,60.06532707166387,
,,,,4,0,4,0,,,,,,,,,,,,,,,,,,,,,,,,2651.958072999958,None,,,,,,,,,,,,,,,,,property,new_aloud,blue,4,126,242,2647.047039200086,None,2647.047039200086,None,6,3.469558599870652,2647.047039200086,None,2650.546775900293,None,2651.0608586003073,None,2651.0608586003073,None,r,0.8719379999674857,2651.0608586003073,None,,,color23,001,2021_Nov_10_1725,ProdSingRedo,3.2.3,60.06532707166387,
,,,,5,0,5,0,,,,,,,,,,,,,,,,,,,,,,,,2662.1766539001837,None,,,,,,,,,,,,,,,,,generation,new_sing,red,5,117,136,2652.4863336002454,None,2652.4863336002454,None,2,7.142331900075078,2652.4863336002454,None,2659.6739032003097,None,2660.217090900056,None,2660.217090900056,None,n,1.92405050015077,2660.217090900056,None,,,color23,001,2021_Nov_10_1725,ProdSingRedo,3.2.3,60.06532707166387,
,,,,6,0,6,0,,,,,,,,,,,,,,,,,,,,,,,,2670.210221600253,None,,,,,,,,,,,,,,,,,reach,aloud,blue,6,51,253,2662.702138000168,None,2662.702138000168,None,3,5.5986032001674175,2662.702138000168,None,2668.3382316003554,None,2668.8470511003397,None,2668.8470511003397,None,n,1.325600900221616,2668.8470511003397,None,,,color23,001,2021_Nov_10_1725,ProdSingRedo,3.2.3,60.06532707166387,
,,,,7,0,7,0,,,,,,,,,,,,,,,,,,,,,,,,2681.077054100111,None,,,,,,,,,,,,,,,,,express,new_silent,yellow,7,178,124,2670.7312902002595,None,2670.7312902002595,None,3,8.5774229997769,2670.7312902002595,None,2679.360568900127,None,2679.879165300168,None,2679.879165300168,None,n,1.1655029999092221,2679.879165300168,None,,,color23,001,2021_Nov_10_1725,ProdSingRedo,3.2.3,60.06532707166387,
,,,,8,0,8,0,,,,,,,,,,,,,,,,,,,,,,,,2686.9029143000953,None,,,,,,,,,,,,,,,,,resistance,sing,red,8,11,262,2681.6069963001646,None,2681.6069963001646,None,6,3.9257224001921713,2681.6069963001646,None,2685.5623323000036,None,2686.071960600093,None,2686.071960600093,None,r,0.8127398998476565,2686.071960600093,None,,,color23,001,2021_Nov_10_1725,ProdSingRedo,3.2.3,60.06532707166387,
,,,,9,0,9,0,,,,,,,,,,,,,,,,,,,,,,,,2690.0931645003147,None,,,,,,,,,,,,,,,,,rapid,aloud,blue,9,49,252,2687.425931900274,None,2687.425931900274,None,6,1.5308910999447107,2687.425931900274,None,2689.0104936002754,None,2689.527943999972,None,2689.527943999972,None,r,0.5327273001894355,2689.527943999972,None,,,color23,001,2021_Nov_10_1725,ProdSingRedo,3.2.3,60.06532707166387,
,,,,10,0,10,0,,,,,,,,,,,,,,,,,,,,,,,,2698.0110252001323,None,,,,,,,,,,,,,,,,,threat,silent,yellow,10,88,329,2690.620492400136,None,2690.620492400136,None,5,5.760429899673909,2690.620492400136,None,2696.4283123002388,None,2696.9488486000337,None,2696.9488486000337,None,r,1.031855700071901,2696.9488486000337,None,,,color23,001,2021_Nov_10_1725,ProdSingRedo,3.2.3,60.06532707166387,
,,,,11,0,11,0,,,,,,,,,,,,,,,,,,,,,,,,2701.646401599981,None,,,,,,,,,,,,,,,,,strain,new_sing,red,11,104,308,2698.539796900004,None,2698.539796900004,None,1,2.0647191000171006,2698.539796900004,None,2700.655831000302,None,2701.184090900235,None,2701.184090900235,None,n,0.42877979995682836,2701.184090900235,None,,,color23,001,2021_Nov_10_1725,ProdSingRedo,3.2.3,60.06532707166387,
,,,,12,0,12,0,,,,,,,,,,,,,,,,,,,,,,,,2705.3482559002005,None,,,,,,,,,,,,,,,,,hunger,silent,yellow,12,86,155,2702.1791978999972,None,2702.1791978999972,None,6,2.0578283998183906,2702.1791978999972,None,2704.2801708001643,None,2704.7950932001695,None,2704.7950932001695,None,r,0.5218485998921096,2704.7950932001695,None,,,color23,001,2021_Nov_10_1725,ProdSingRedo,3.2.3,60.06532707166387,
,,,,13,0,13,0,,,,,,,,,,,,,,,,,,,,,,,,2711.38481710013,None,,,,,,,,,,,,,,,,,range,new_silent,yellow,13,162,251,2705.871129200328,None,2705.871129200328,None,4,2.8136491999030113,2705.871129200328,None,2708.7177324001677,None,2709.2326929001138,None,2709.2326929001138,None,f,2.108107100240886,2709.2326929001138,None,,,color23,001,2021_Nov_10_1725,ProdSingRedo,3.2.3,60.06532707166387,
,,,,14,0,14,0,,,,,,,,,,,,,,,,,,,,,,,,2718.9294457002543,None,,,,,,,,,,,,,,,,,search,new_sing,red,14,91,276,2711.9032620000653,None,2711.9032620000653,None,3,3.8452968997880816,2711.9032620000653,None,2715.779483700171,None,2716.3005260000937,None,2716.3005260000937,None,n,2.5922981998883188,2716.3005260000937,None,,,color23,001,2021_Nov_10_1725,ProdSingRedo,3.2.3,60.06532707166387,
,,,,15,0,15,0,,,,,,,,,,,,,,,,,,,,,,,,2725.548185000196,None,,,,,,,,,,,,,,,,,number,sing,red,15,15,203,2719.460975199938,None,2719.460975199938,None,6,4.455431300215423,2719.460975199938,None,2723.9422432999127,None,2724.4691804000176,None,2724.4691804000176,None,r,1.0476200999692082,2724.4691804000176,None,,,color23,001,2021_Nov_10_1725,ProdSingRedo,3.2.3,60.06532707166387,
,,,,16,0,16,0,,,,,,,,,,,,,,,,,,,,,,,,2730.047747600358,None,,,,,,,,,,,,,,,,,split,silent,yellow,16,68,299,2726.064493600279,None,2726.064493600279,None,2,1.8120230003260076,2726.064493600279,None,2727.9109038999304,None,2728.4327202001587,None,2728.4327202001587,None,n,1.5885619004257023,2728.4327202001587,None,,,color23,001,2021_Nov_10_1725,ProdSingRedo,3.2.3,60.06532707166387,
,,,,17,0,17,0,,,,,,,,,,,,,,,,,,,,,,,,2734.006323200185,None,,,,,,,,,,,,,,,,,power,aloud,blue,17,32,230,2730.5704104001634,None,2730.5704104001634,None,6,2.5784124000929296,2730.5704104001634,None,2733.1989949001,None,2733.715555300005,None,2733.715555300005,None,r,0.27304490003734827,2733.715555300005,None,,,color23,001,2021_Nov_10_1725,ProdSingRedo,3.2.3,60.06532707166387,
,,,,18,0,18,0,,,,,,,,,,,,,,,,,,,,,,,,2742.5629855999723,None,,,,,,,,,,,,,,,,,comfort,new_silent,yellow,18,176,59,2734.5258443001658,None,2734.5258443001658,None,3,6.102944300044328,2734.5258443001658,None,2740.68095170008,None,2741.191114100162,None,2741.191114100162,None,n,1.3336388999596238,2741.191114100162,None,,,color23,001,2021_Nov_10_1725,ProdSingRedo,3.2.3,60.06532707166387,
,,,,19,0,19,0,,,,,,,,,,,,,,,,,,,,,,,,2745.5986921000294,None,,,,,,,,,,,,,,,,,signal,silent,yellow,19,67,287,2743.082356600091,None,2743.082356600091,None,6,1.6664954996667802,2743.082356600091,None,2744.7984337001108,None,2745.3219288000837,None,2745.3219288000837,None,r,0.2508326000533998,2745.3219288000837,None,,,color23,001,2021_Nov_10_1725,ProdSingRedo,3.2.3,60.06532707166387,
,,,,20,0,20,0,,,,,,,,,,,,,,,,,,,,,,,,2752.9812364000827,None,,,,,,,,,,,,,,,,,permit,aloud,blue,20,37,218,2746.118141400162,None,2746.118141400162,None,5,4.398372499737889,2746.118141400162,None,2750.549512800295,None,2751.0559960999526,None,2751.0559960999526,None,f,1.8851162996143103,2751.0559960999526,None,,,color23,001,2021_Nov_10_1725,ProdSingRedo,3.2.3,60.06532707166387,
,,,,21,0,21,0,,,,,,,,,,,,,,,,,,,,,,,,2757.0619705002755,None,,,,,,,,,,,,,,,,,education,aloud,blue,21,52,108,2753.4916413002647,None,2753.4916413002647,None,6,1.9054024000652134,2753.4916413002647,None,2755.4417608999647,None,2755.9692736002617,None,2755.9692736002617,None,r,1.0593957998789847,2755.9692736002617,None,,,color23,001,2021_Nov_10_1725,ProdSingRedo,3.2.3,60.06532707166387,
,,,,22,0,22,0,,,,,,,,,,,,,,,,,,,,,,,,2767.7659368002787,None,,,,,,,,,,,,,,,,,death,new_silent,yellow,22,166,86,2757.5798802003264,None,2757.5798802003264,None,3,8.392957100179046,2757.5798802003264,None,2766.014481500257,None,2766.5339162000455,None,2766.5339162000455,None,n,1.2069586999714375,2766.5339162000455,None,,,color23,001,2021_Nov_10_1725,ProdSingRedo,3.2.3,60.06532707166387,
,,,,23,0,23,0,,,,,,,,,,,,,,,,,,,,,,,,2771.317106400151,None,,,,,,,,,,,,,,,,,turkey,new_aloud,blue,23,124,342,2768.2969435001723,None,2768.2969435001723,None,1,2.10815059999004,2768.2969435001723,None,2770.4423258001916,None,2770.966223000083,None,2770.966223000083,None,n,0.3185966000892222,2770.966223000083,None,,,color23,001,2021_Nov_10_1725,ProdSingRedo,3.2.3,60.06532707166387,
,,,,24,0,24,0,,,,,,,,,,,,,,,,,,,,,,,,2776.4289847002365,None,,,,,,,,,,,,,,,,,solution,new_aloud,blue,24,149,294,2771.8422453003004,None,2771.8422453003004,None,4,3.282334899995476,2771.8422453003004,None,2775.159634300042,None,2775.6744683003053,None,2775.6744683003053,None,f,0.7302417000755668,2775.6744683003053,None,,,color23,001,2021_Nov_10_1725,ProdSingRedo,3.2.3,60.06532707166387,
,,,,25,0,25,0,,,,,,,,,,,,,,,,,,,,,,,,2781.600341900252,None,,,,,,,,,,,,,,,,,engineer,new_sing,red,25,108,114,2776.9584976001643,None,2776.9584976001643,None,6,3.654326300136745,2776.9584976001643,None,2780.66404730035,None,2781.188637800049,None,2781.188637800049,None,r,0.37626090040430427,2781.188637800049,None,,,color23,001,2021_Nov_10_1725,ProdSingRedo,3.2.3,60.06532707166387,
,,,,26,0,26,0,,,,,,,,,,,,,,,,,,,,,,,,2787.500384100247,None,,,,,,,,,,,,,,,,,edition,new_aloud,blue,26,137,107,2782.1229877001606,None,2782.1229877001606,None,4,4.114135500043631,2782.1229877001606,None,2786.2767203999683,None,2786.7993767000735,None,2786.7993767000735,None,f,0.6774809998460114,2786.7993767000735,None,,,color23,001,2021_Nov_10_1725,ProdSingRedo,3.2.3,60.06532707166387,
,,,,27,0,27,0,,,,,,,,,,,,,,,,,,,,,,,,2790.7527009001933,None,,,,,,,,,,,,,,,,,skill,new_silent,yellow,27,167,289,2788.0274138003588,None,2788.0274138003588,None,3,1.7934167999774218,2788.0274138003588,None,2789.866817600094,None,2790.3858714001253,None,2790.3858714001253,None,n,0.33086790004745126,2790.3858714001253,None,,,color23,001,2021_Nov_10_1725,ProdSingRedo,3.2.3,60.06532707166387,
,,,,28,0,28,0,,,,,,,,,,,,,,,,,,,,,,,,2797.189453900326,None,,,,,,,,,,,,,,,,,candidate,silent,yellow,28,89,39,2791.280831000302,None,2791.280831000302,None,2,3.9478167998604476,2791.280831000302,None,2795.268850600347,None,2795.7769670002162,None,2795.7769670002162,None,n,1.3717991998419166,2795.7769670002162,None,,,color23,001,2021_Nov_10_1725,ProdSingRedo,3.2.3,60.06532707166387,
,,,,29,0,29,0,,,,,,,,,,,,,,,,,,,,,,,,2805.800999400206,None,,,,,,,,,,,,,,,,,colonel,new_silent,yellow,29,155,55,2797.7063977001235,None,2797.7063977001235,None,1,7.154484500177205,2797.7063977001235,None,2804.89680520026,None,2805.418679400347,None,2805.418679400347,None,n,0.3464704998768866,2805.418679400347,None,,,color23,001,2021_Nov_10_1725,ProdSingRedo,3.2.3,60.06532707166387,
,,,,30,0,30,0,,,,,,,,,,,,,,,,,,,,,,,,2810.3364988001995,None,,,,,,,,,,,,,,,,,month,aloud,blue,30,40,193,2806.326224599965,None,2806.326224599965,None,4,2.9264656002633274,2806.326224599965,None,2809.2976402002387,None,2809.817724100314,None,2809.817724100314,None,f,0.483169199898839,2809.817724100314,None,,,color23,001,2021_Nov_10_1725,ProdSingRedo,3.2.3,60.06532707166387,
,,,,31,0,31,0,,,,,,,,,,,,,,,,,,,,,,,,2821.6707954001613,None,,,,,,,,,,,,,,,,,brilliant,sing,red,31,19,30,2810.8662274000235,None,2810.8662274000235,None,6,9.786526599898934,2810.8662274000235,None,2820.6923923003487,None,2821.2029421003535,None,2821.2029421003535,None,r,0.44194440031424165,2821.2029421003535,None,,,color23,001,2021_Nov_10_1725,ProdSingRedo,3.2.3,60.06532707166387,
,,,,32,0,32,0,,,,,,,,,,,,,,,,,,,,,,,,2826.9035861003213,None,,,,,,,,,,,,,,,,,interview,silent,yellow,32,82,165,2822.204912800342,None,2822.204912800342,None,6,3.9279498998075724,2822.204912800342,None,2826.1812045001425,None,2826.709620700218,None,2826.709620700218,None,r,0.15919379983097315,2826.709620700218,None,,,color23,001,2021_Nov_10_1725,ProdSingRedo,3.2.3,60.06532707166387,
,,,,33,0,33,0,,,,,,,,,,,,,,,,,,,,,,,,2833.2206149999984,None,,,,,,,,,,,,,,,,,background,aloud,blue,33,30,16,2827.437428600155,None,2827.437428600155,None,6,4.351461199577898,2827.437428600155,None,2831.8429193003103,None,2832.359284300357,None,2832.359284300357,None,r,0.8295557000674307,2832.359284300357,None,,,color23,001,2021_Nov_10_1725,ProdSingRedo,3.2.3,60.06532707166387,
,,,,34,0,34,0,,,,,,,,,,,,,,,,,,,,,,,,2839.254666100256,None,,,,,,,,,,,,,,,,,degree,new_sing,red,34,97,89,2833.748184300028,None,2833.748184300028,None,4,4.4167587999254465,2833.748184300028,None,2838.2128522000276,None,2838.722325100098,None,2838.722325100098,None,f,0.4985133004374802,2838.722325100098,None,,,color23,001,2021_Nov_10_1725,ProdSingRedo,3.2.3,60.06532707166387,
,,,,35,0,35,0,,,,,,,,,,,,,,,,,,,,,,,,2843.7633553999476,None,,,,,,,,,,,,,,,,,breath,silent,yellow,35,84,27,2839.792272500228,None,2839.792272500228,None,3,2.4368648999370635,2839.792272500228,None,2842.2719451002777,None,2842.793359000236,None,2842.793359000236,None,n,0.9391997000202537,2842.793359000236,None,,,color23,001,2021_Nov_10_1725,ProdSingRedo,3.2.3,60.06532707166387,
,,,,36,0,36,0,,,,,,,,,,,,,,,,,,,,,,,,2851.4393445001915,None,,,,,,,,,,,,,,,,,impact,aloud,blue,36,58,157,2844.278873400297,None,2844.278873400297,None,5,6.126016699708998,2844.278873400297,None,2850.440737400204,None,2850.9527408001013,None,2850.9527408001013,None,f,0.45208900002762675,2850.9527408001013,None,,,color23,001,2021_Nov_10_1725,ProdSingRedo,3.2.3,60.06532707166387,
,,,,37,0,37,0,,,,,,,,,,,,,,,,,,,,,,,,2861.6407238002867,None,,,,,,,,,,,,,,,,,dance,sing,red,37,23,84,2851.9646572000347,None,2851.9646572000347,None,2,7.3521126001141965,2851.9646572000347,None,2859.371484900359,None,2859.891984899994,None,2859.891984899994,None,n,1.7212311001494527,2859.891984899994,None,,,color23,001,2021_Nov_10_1725,ProdSingRedo,3.2.3,60.06532707166387,
,,,,38,0,38,0,,,,,,,,,,,,,,,,,,,,,,,,2865.8793430002406,None,,,,,,,,,,,,,,,,,height,new_silent,yellow,38,150,152,2862.168004500214,None,2862.168004500214,None,1,2.7647987003438175,2862.168004500214,None,2864.973339400254,None,2865.492108799983,None,2865.492108799983,None,n,0.34466470032930374,2865.492108799983,None,,,color23,001,2021_Nov_10_1725,ProdSingRedo,3.2.3,60.06532707166387,
,,,,39,0,39,0,,,,,,,,,,,,,,,,,,,,,,,,2872.219880199991,None,,,,,,,,,,,,,,,,,match,sing,red,39,20,181,2866.3991805003025,None,2866.3991805003025,None,3,4.077625300269574,2866.3991805003025,None,2870.51678920025,None,2871.041761700064,None,2871.041761700064,None,n,1.146906599868089,2871.041761700064,None,,,color23,001,2021_Nov_10_1725,ProdSingRedo,3.2.3,60.06532707166387,
,,,,40,0,40,0,,,,,,,,,,,,,,,,,,,,,,,,2880.3751690001227,None,,,,,,,,,,,,,,,,,citizen,new_silent,yellow,40,163,50,2872.7390263001435,None,2872.7390263001435,None,5,6.321850799955428,2872.7390263001435,None,2879.1066572000273,None,2879.627803400159,None,2879.627803400159,None,f,0.7130683995783329,2879.627803400159,None,,,color23,001,2021_Nov_10_1725,ProdSingRedo,3.2.3,60.06532707166387,
,,,,41,0,41,0,,,,,,,,,,,,,,,,,,,,,,,,2883.3234224999323,None,,,,,,,,,,,,,,,,,gesture,silent,yellow,41,73,137,2880.899682099931,None,2880.899682099931,None,6,1.4009870002046227,2880.899682099931,None,2882.340346300043,None,2882.8647596002556,None,2882.8647596002556,None,r,0.4200189998373389,2882.8647596002556,None,,,color23,001,2021_Nov_10_1725,ProdSingRedo,3.2.3,60.06532707166387,
,,,,42,0,42,0,,,,,,,,,,,,,,,,,,,,,,,,2887.4254453000613,None,,,,,,,,,,,,,,,,,mankind,aloud,blue,42,59,178,2883.8569737002254,None,2883.8569737002254,None,1,2.6441042996011674,2883.8569737002254,None,2886.5635271999054,None,2887.082710100338,None,2887.082710100338,None,n,0.3143496001139283,2887.082710100338,None,,,color23,001,2021_Nov_10_1725,ProdSingRedo,3.2.3,60.06532707166387,
,,,,43,0,43,0,,,,,,,,,,,,,,,,,,,,,,,,2890.5001306999475,None,,,,,,,,,,,,,,,,,design,silent,yellow,43,78,91,2887.9509680001065,None,2887.9509680001065,None,4,1.885952599812299,2887.9509680001065,None,2889.8861787002534,None,2890.418654900044,None,2890.418654900044,None,f,0.058039499912410975,2890.418654900044,None,,,color23,001,2021_Nov_10_1725,ProdSingRedo,3.2.3,60.06532707166387,
,,,,44,0,44,0,,,,,,,,,,,,,,,,,,,,,,,,2895.3094963999465,None,,,,,,,,,,,,,,,,,theme,new_sing,red,44,102,326,2891.012930400204,None,2891.012930400204,None,2,3.19188280031085,2891.012930400204,None,2894.2535860999487,None,2894.774874600116,None,2894.774874600116,None,n,0.4940708000212908,2894.774874600116,None,,,color23,001,2021_Nov_10_1725,ProdSingRedo,3.2.3,60.06532707166387,
,,,,45,0,45,0,,,,,,,,,,,,,,,,,,,,,,,,2900.936803100165,None,,,,,,,,,,,,,,,,,congress,new_aloud,blue,45,121,67,2895.8329660003074,None,2895.8329660003074,None,2,3.6519645997323096,2895.8329660003074,None,2899.5233167000115,None,2900.049215200357,None,2900.049215200357,None,n,0.8677706997841597,2900.049215200357,None,,,color23,001,2021_Nov_10_1725,ProdSingRedo,3.2.3,60.06532707166387,
,,,,46,0,46,0,,,,,,,,,,,,,,,,,,,,,,,,2903.616154300049,None,,,,,,,,,,,,,,,,,hearing,new_aloud,blue,46,133,150,2901.4567386000417,None,2901.4567386000417,None,2,1.236162300221622,2901.4567386000417,None,2902.7374742999673,None,2903.2517502000555,None,2903.2517502000555,None,n,0.3452545003965497,2903.2517502000555,None,,,color23,001,2021_Nov_10_1725,ProdSingRedo,3.2.3,60.06532707166387,
,,,,47,0,47,0,,,,,,,,,,,,,,,,,,,,,,,,2907.3015771000646,None,,,,,,,,,,,,,,,,,testimony,new_aloud,blue,47,129,325,2904.1187374000438,None,2904.1187374000438,None,2,1.7181819998659194,2904.1187374000438,None,2905.8864786000922,None,2906.413657499943,None,2906.413657499943,None,n,0.8550328002311289,2906.413657499943,None,,,color23,001,2021_Nov_10_1725,ProdSingRedo,3.2.3,60.06532707166387,
,,,,48,0,48,0,,,,,,,,,,,,,,,,,,,,,,,,2910.8931351001374,None,,,,,,,,,,,,,,,,,motion,silent,yellow,48,79,194,2907.810421900358,None,2907.810421900358,None,3,2.1863622996024787,2907.810421900358,None,2910.032583199907,None,2910.5443824999966,None,2910.5443824999966,None,n,0.3164866999723017,2910.5443824999966,None,,,color23,001,2021_Nov_10_1725,ProdSingRedo,3.2.3,60.06532707166387,
,,,,49,0,49,0,,,,,,,,,,,,,,,,,,,,,,,,2913.9980418002233,None,,,,,,,,,,,,,,,,,pancakes,aloud,blue,49,48,210,2911.4270000001416,None,2911.4270000001416,None,6,1.841891000047326,2911.4270000001416,None,2913.3146628001705,None,2913.8386973002926,None,2913.8386973002926,None,r,0.11816840013489127,2913.8386973002926,None,,,color23,001,2021_Nov_10_1725,ProdSingRedo,3.2.3,60.06532707166387,
,,,,50,0,50,0,,,,,,,,,,,,,,,,,,,,,,,,2919.9991645999253,None,,,,,,,,,,,,,,,,,passage,new_sing,red,50,95,212,2914.5207390002906,None,2914.5207390002906,None,5,4.396286000031978,2914.5207390002906,None,2918.967932899948,None,2919.486014199909,None,2919.486014199909,None,f,0.47076880000531673,2919.486014199909,None,,,color23,001,2021_Nov_10_1725,ProdSingRedo,3.2.3,60.06532707166387,
,,,,51,0,51,0,,,,,,,,,,,,,,,,,,,,,,,,2925.7076049000025,None,,,,,,,,,,,,,,,,,household,new_silent,yellow,51,154,154,2920.5223226002418,None,2920.5223226002418,None,1,4.274381699971855,2920.5223226002418,None,2924.8213466000743,None,2925.3454074002802,None,2925.3454074002802,None,n,0.3314449000172317,2925.3454074002802,None,,,color23,001,2021_Nov_10_1725,ProdSingRedo,3.2.3,60.06532707166387,
,,,,52,0,52,0,,,,,,,,,,,,,,,,,,,,,,,,2928.728463300038,None,,,,,,,,,,,,,,,,,substance,aloud,blue,52,42,313,2926.237819599919,None,2926.237819599919,None,6,1.4231511000543833,2926.237819599919,None,2927.7059301999398,None,2928.234059799928,None,2928.234059799928,None,r,0.466994000133127,2928.234059799928,None,,,color23,001,2021_Nov_10_1725,ProdSingRedo,3.2.3,60.06532707166387,
,,,,53,0,53,0,,,,,,,,,,,,,,,,,,,,,,,,2933.129262200091,None,,,,,,,,,,,,,,,,,scale,silent,yellow,53,63,272,2929.2560418001376,None,2929.2560418001376,None,1,2.6688688001595438,2929.2560418001376,None,2931.9759682002477,None,2932.4955998999067,None,2932.4955998999067,None,n,0.605502299964428,2932.4955998999067,None,,,color23,001,2021_Nov_10_1725,ProdSingRedo,3.2.3,60.06532707166387,
,,,,54,0,54,0,,,,,,,,,,,,,,,,,,,,,,,,2935.7781357001513,None,,,,,,,,,,,,,,,,,poetry,sing,red,54,27,225,2933.6380080999807,None,2933.6380080999807,None,6,1.407020699698478,2933.6380080999807,None,2935.0941389999352,None,2935.6110669001937,None,2935.6110669001937,None,r,0.13781019998714328,2935.6110669001937,None,,,color23,001,2021_Nov_10_1725,ProdSingRedo,3.2.3,60.06532707166387,
,,,,55,0,55,0,,,,,,,,,,,,,,,,,,,,,,,,2939.718657700345,None,,,,,,,,,,,,,,,,,revolution,new_sing,red,55,94,264,2936.3053749003448,None,2936.3053749003448,None,6,2.691424600314349,2936.3053749003448,None,2939.0456511001103,None,2939.5676967003383,None,2939.5676967003383,None,r,0.12494549993425608,2939.5676967003383,None,,,color23,001,2021_Nov_10_1725,ProdSingRedo,3.2.3,60.06532707166387,
,,,,56,0,56,0,,,,,,,,,,,,,,,,,,,,,,,,2942.695505199954,None,,,,,,,,,,,,,,,,,husband,silent,yellow,56,72,156,2940.235199100338,None,2940.235199100338,None,1,1.577717199921608,2940.235199100338,None,2941.8588964999653,None,2942.388734600041,None,2942.388734600041,None,n,0.27234109956771135,2942.388734600041,None,,,color23,001,2021_Nov_10_1725,ProdSingRedo,3.2.3,60.06532707166387,
,,,,57,0,57,0,,,,,,,,,,,,,,,,,,,,,,,,2946.4286592002027,None,,,,,,,,,,,,,,,,,quarter,new_silent,yellow,57,160,246,2943.224404900335,None,2943.224404900335,None,2,2.4125894997268915,2943.224404900335,None,2945.6766587002203,None,2946.199066299945,None,2946.199066299945,None,n,0.1899283998645842,2946.199066299945,None,,,color23,001,2021_Nov_10_1725,ProdSingRedo,3.2.3,60.06532707166387,
,,,,58,0,58,0,,,,,,,,,,,,,,,,,,,,,,,,2955.02828660002,None,,,,,,,,,,,,,,,,,mayor,new_sing,red,58,107,183,2946.9543320001103,None,2946.9543320001103,None,1,7.338842600118369,2946.9543320001103,None,2954.3402277999558,None,2954.8675751001574,None,2954.8675751001574,None,n,0.121299899648875,2954.8675751001574,None,,,color23,001,2021_Nov_10_1725,ProdSingRedo,3.2.3,60.06532707166387,
,,,,59,0,59,0,,,,,,,,,,,,,,,,,,,,,,,,2959.4290805002674,None,,,,,,,,,,,,,,,,,benefit,new_silent,yellow,59,159,20,2955.562201899942,None,2955.562201899942,None,2,3.1147861001081765,2955.562201899942,None,2958.730042600073,None,2959.2504762001336,None,2959.2504762001336,None,n,0.15463489992544055,2959.2504762001336,None,,,color23,001,2021_Nov_10_1725,ProdSingRedo,3.2.3,60.06532707166387,
,,,,60,0,60,0,,,,,,,,,,,,,,,,,,,,,,,,2966.4125899001956,None,,,,,,,,,,,,,,,,,society,new_aloud,blue,60,120,293,2959.9546436001547,None,2959.9546436001547,None,6,5.442296100314707,2959.9546436001547,None,2965.4377502002753,None,2965.9507247,None,2965.9507247,None,r,0.42238810006529093,2965.9507247,None,,,color23,001,2021_Nov_10_1725,ProdSingRedo,3.2.3,60.06532707166387,
,,,,61,0,61,0,,,,,,,,,,,,,,,,,,,,,,,,2978.6991826002486,None,,,,,,,,,,,,,,,,,marriage,silent,yellow,61,70,179,2966.93703440018,None,2966.93703440018,None,4,8.603847799822688,2966.93703440018,None,2975.6027608001605,None,2976.116114700213,None,2976.116114700213,None,f,2.5447739996016026,2976.116114700213,None,,,color23,001,2021_Nov_10_1725,ProdSingRedo,3.2.3,60.06532707166387,
,,,,62,0,62,0,,,,,,,,,,,,,,,,,,,,,,,,2985.163365600165,None,,,,,,,,,,,,,,,,,company,aloud,blue,62,43,64,2979.2272234000266,None,2979.2272234000266,None,5,4.810114599764347,2979.2272234000266,None,2984.0741441003047,None,2984.605603999924,None,2984.605603999924,None,f,0.5192911000922322,2984.605603999924,None,,,color23,001,2021_Nov_10_1725,ProdSingRedo,3.2.3,60.06532707166387,
,,,,63,0,63,0,,,,,,,,,,,,,,,,,,,,,,,,2994.024379900191,None,,,,,,,,,,,,,,,,,region,new_silent,yellow,63,156,256,2985.6863517002203,None,2985.6863517002203,None,1,7.630308599676937,2985.6863517002203,None,2993.349486900028,None,2993.8552260003053,None,2993.8552260003053,None,n,0.14959400007501245,2993.8552260003053,None,,,color23,001,2021_Nov_10_1725,ProdSingRedo,3.2.3,60.06532707166387,
,,,,64,0,64,0,,,,,,,,,,,,,,,,,,,,,,,,2996.95004420029,None,,,,,,,,,,,,,,,,,comedy,silent,yellow,64,80,58,2994.542697600089,None,2994.542697600089,None,6,1.4144589002244174,2994.542697600089,None,2995.9976189001463,None,2996.510669799987,None,2996.510669799987,None,r,0.406332999933511,2996.510669799987,None,,,color23,001,2021_Nov_10_1725,ProdSingRedo,3.2.3,60.06532707166387,
,,,,65,0,65,0,,,,,,,,,,,,,,,,,,,,,,,,3000.231467800215,None,,,,,,,,,,,,,,,,,south,aloud,blue,65,34,296,2997.4752226001583,None,2997.4752226001583,None,1,1.977814800105989,2997.4752226001583,None,2999.5001304000616,None,3000.0181563999504,None,3000.0181563999504,None,n,0.1787101998925209,3000.0181563999504,None,,,color23,001,2021_Nov_10_1725,ProdSingRedo,3.2.3,60.06532707166387,
,,,,66,0,66,0,,,,,,,,,,,,,,,,,,,,,,,,3003.1562902000733,None,,,,,,,,,,,,,,,,,shear,new_silent,yellow,66,152,283,3000.758997000288,None,3000.758997000288,None,1,1.3736610999330878,3000.758997000288,None,3002.157956900075,None,3002.68165280018,None,3002.68165280018,None,n,0.4511245000176132,3002.68165280018,None,,,color23,001,2021_Nov_10_1725,ProdSingRedo,3.2.3,60.06532707166387,
,,,,67,0,67,0,,,,,,,,,,,,,,,,,,,,,,,,3006.3159051002003,None,,,,,,,,,,,,,,,,,union,silent,yellow,67,65,344,3003.6585452002473,None,3003.6585452002473,None,3,1.7383925998583436,3003.6585452002473,None,3005.4457443999127,None,3005.95831360016,None,3005.95831360016,None,n,0.3266704003326595,3005.95831360016,None,,,color23,001,2021_Nov_10_1725,ProdSingRedo,3.2.3,60.06532707166387,
,,,,68,0,68,0,,,,,,,,,,,,,,,,,,,,,,,,3011.864068900235,None,,,,,,,,,,,,,,,,,clear,sing,red,68,18,52,3006.8366074999794,None,3006.8366074999794,None,4,4.168331299908459,3006.8366074999794,None,3011.038134000264,None,3011.5500038000755,None,3011.5500038000755,None,n,0.27893090015277267,3011.5500038000755,None,,,color23,001,2021_Nov_10_1725,ProdSingRedo,3.2.3,60.06532707166387,
,,,,69,0,69,0,,,,,,,,,,,,,,,,,,,,,,,,3019.025509300176,None,,,,,,,,,,,,,,,,,season,new_silent,yellow,69,169,277,3012.393843700178,None,3012.393843700178,None,3,5.643075400032103,3012.393843700178,None,3018.084034100175,None,3018.607762400061,None,3018.607762400061,None,n,0.38144769985228777,3018.607762400061,None,,,color23,001,2021_Nov_10_1725,ProdSingRedo,3.2.3,60.06532707166387,
,,,,70,0,70,0,,,,,,,,,,,,,,,,,,,,,,,,3021.828329599928,None,,,,,,,,,,,,,,,,,prime,aloud,blue,70,45,235,3019.540022400208,None,3019.540022400208,None,6,1.416730500292033,3019.540022400208,None,3020.980630700011,None,3021.494267300237,None,3021.494267300237,None,r,0.3106495998799801,3021.494267300237,None,,,color23,001,2021_Nov_10_1725,ProdSingRedo,3.2.3,60.06532707166387,
,,,,71,0,71,0,,,,,,,,,,,,,,,,,,,,,,,,3025.633218599949,None,,,,,,,,,,,,,,,,,worker,sing,red,71,1,356,3022.3494353001006,None,3022.3494353001006,None,3,2.16744969971478,3022.3494353001006,None,3024.559595900122,None,3025.0743857002817,None,3025.0743857002817,None,n,0.522652399726212,3025.0743857002817,None,,,color23,001,2021_Nov_10_1725,ProdSingRedo,3.2.3,60.06532707166387,
,,,,72,0,72,0,,,,,,,,,,,,,,,,,,,,,,,,3029.6950489999726,None,,,,,,,,,,,,,,,,,block,new_aloud,blue,72,146,25,3026.1441603000276,None,3026.1441603000276,None,1,2.8457979997619987,3026.1441603000276,None,3029.0358021003194,None,3029.5534621002153,None,3029.5534621002153,None,n,0.10737570002675056,3029.5534621002153,None,,,color23,001,2021_Nov_10_1725,ProdSingRedo,3.2.3,60.06532707166387,
,,,,73,0,73,0,,,,,,,,,,,,,,,,,,,,,,,,3033.100973700173,None,,,,,,,,,,,,,,,,,answer,aloud,blue,73,44,8,3030.226132000331,None,3030.226132000331,None,6,2.1068043997511268,3030.226132000331,None,3032.3900489001535,None,3032.9041812000796,None,3032.9041812000796,None,r,0.17272150004282594,3032.9041812000796,None,,,color23,001,2021_Nov_10_1725,ProdSingRedo,3.2.3,60.06532707166387,
,,,,74,0,74,0,,,,,,,,,,,,,,,,,,,,,,,,3037.9015747001395,None,,,,,,,,,,,,,,,,,display,new_silent,yellow,74,161,98,3033.6251174001954,None,3033.6251174001954,None,2,3.107884199824184,3033.6251174001954,None,3036.7783373002894,None,3037.296643699985,None,3037.296643699985,None,n,0.5644048000685871,3037.296643699985,None,,,color23,001,2021_Nov_10_1725,ProdSingRedo,3.2.3,60.06532707166387,
,,,,75,0,75,0,,,,,,,,,,,,,,,,,,,,,,,,3042.1019111000933,None,,,,,,,,,,,,,,,,,sweet,aloud,blue,75,35,319,3038.4305764003657,None,3038.4305764003657,None,1,2.582399199716747,3038.4305764003657,None,3041.064157899935,None,3041.5897775003687,None,3041.5897775003687,None,n,0.4791945000179112,3041.5897775003687,None,,,color23,001,2021_Nov_10_1725,ProdSingRedo,3.2.3,60.06532707166387,
,,,,76,0,76,0,,,,,,,,,,,,,,,,,,,,,,,,3049.2195999003015,None,,,,,,,,,,,,,,,,,blind,aloud,blue,76,46,24,3042.6234313999303,None,3042.6234313999303,None,3,2.7895883000455797,3042.6234313999303,None,3045.4658114002086,None,3045.9856619001366,None,3045.9856619001366,None,f,3.1953727998770773,3045.9856619001366,None,,,color23,001,2021_Nov_10_1725,ProdSingRedo,3.2.3,60.06532707166387,
,,,,77,0,77,0,,,,,,,,,,,,,,,,,,,,,,,,3053.8448741999455,None,,,,,,,,,,,,,,,,,atmosphere,sing,red,77,7,12,3049.745827900246,None,3049.745827900246,None,6,3.4269602997228503,3049.745827900246,None,3053.227786100004,None,3053.726402200293,None,3053.726402200293,None,r,0.08630689978599548,3053.726402200293,None,,,color23,001,2021_Nov_10_1725,ProdSingRedo,3.2.3,60.06532707166387,
,,,,78,0,78,0,,,,,,,,,,,,,,,,,,,,,,,,3062.5374350002967,None,,,,,,,,,,,,,,,,,stranger,aloud,blue,78,57,309,3054.377679000143,None,3054.377679000143,None,5,6.035294800065458,3054.377679000143,None,3060.470681299921,None,3060.989670299925,None,3060.989670299925,None,f,1.5196242998354137,3060.989670299925,None,,,color23,001,2021_Nov_10_1725,ProdSingRedo,3.2.3,60.06532707166387,
,,,,79,0,79,0,,,,,,,,,,,,,,,,,,,,,,,,3065.6781844003126,None,,,,,,,,,,,,,,,,,instrument,silent,yellow,79,66,163,3063.0596517999656,None,3063.0596517999656,None,4,1.49713349994272,3063.0596517999656,None,3064.593745800201,None,3065.0944747002795,None,3065.0944747002795,None,f,0.5583908995613456,3065.0944747002795,None,,,color23,001,2021_Nov_10_1725,ProdSingRedo,3.2.3,60.06532707166387,
,,,,80,0,80,0,,,,,,,,,,,,,,,,,,,,,,,,3069.889176900033,None,,,,,,,,,,,,,,,,,title,sing,red,80,21,331,3066.1930710999295,None,3066.1930710999295,None,5,2.4363063001073897,3066.1930710999295,None,3068.6632266002707,None,3069.1847876999527,None,3069.1847876999527,None,f,0.6681598001159728,3069.1847876999527,None,,,color23,001,2021_Nov_10_1725,ProdSingRedo,3.2.3,60.06532707166387,
,,,,81,0,81,0,,,,,,,,,,,,,,,,,,,,,,,,3072.6879382999614,None,,,,,,,,,,,,,,,,,whole,new_silent,yellow,81,164,355,3070.413375600241,None,3070.413375600241,None,2,1.2638340000994503,3070.413375600241,None,3071.70629680017,None,3072.2252851999365,None,3072.2252851999365,None,n,0.4276501997373998,3072.2252851999365,None,,,color23,001,2021_Nov_10_1725,ProdSingRedo,3.2.3,60.06532707166387,
,,,,82,0,82,0,,,,,,,,,,,,,,,,,,,,,,,,3075.853992000222,None,,,,,,,,,,,,,,,,,novel,new_aloud,blue,82,127,202,3073.2138175000437,None,3073.2138175000437,None,1,1.7269874997437,3073.2138175000437,None,3074.974507899955,None,3075.4901648000814,None,3075.4901648000814,None,n,0.3392537999898195,3075.4901648000814,None,,,color23,001,2021_Nov_10_1725,ProdSingRedo,3.2.3,60.06532707166387,
,,,,83,0,83,0,,,,,,,,,,,,,,,,,,,,,,,,3081.772106999997,None,,,,,,,,,,,,,,,,,trash,new_silent,yellow,83,174,337,3076.383295699954,None,3076.383295699954,None,3,4.245920500252396,3076.383295699954,None,3080.665187700186,None,3081.190103699919,None,3081.190103699919,None,n,0.5429576998576522,3081.190103699919,None,,,color23,001,2021_Nov_10_1725,ProdSingRedo,3.2.3,60.06532707166387,
,,,,84,0,84,0,,,,,,,,,,,,,,,,,,,,,,,,3084.9415824003518,None,,,,,,,,,,,,,,,,,error,new_sing,red,84,116,117,3082.281785900239,None,3082.281785900239,None,1,1.771558899898082,3082.281785900239,None,3084.0850720000453,None,3084.603242299985,None,3084.603242299985,None,n,0.30578150041401386,3084.603242299985,None,,,color23,001,2021_Nov_10_1725,ProdSingRedo,3.2.3,60.06532707166387,
,,,,85,0,85,0,,,,,,,,,,,,,,,,,,,,,,,,3087.6371924001724,None,,,,,,,,,,,,,,,,,court,silent,yellow,85,83,75,3085.4600248001516,None,3085.4600248001516,None,6,1.353261699900031,3085.4600248001516,None,3086.84818500001,None,3087.37660840014,None,3087.37660840014,None,r,0.23621240025386214,3087.37660840014,None,,,color23,001,2021_Nov_10_1725,ProdSingRedo,3.2.3,60.06532707166387,
,,,,86,0,86,0,,,,,,,,,,,,,,,,,,,,,,,,3091.256959500257,None,,,,,,,,,,,,,,,,,course,new_silent,yellow,86,172,74,3088.1627612002194,None,3088.1627612002194,None,3,2.2102753003127873,3088.1627612002194,None,3090.4159119999968,None,3090.93424360035,None,3090.93424360035,None,n,0.28671610029414296,3090.93424360035,None,,,color23,001,2021_Nov_10_1725,ProdSingRedo,3.2.3,60.06532707166387,
,,,,87,0,87,0,,,,,,,,,,,,,,,,,,,,,,,,3094.0550518003292,None,,,,,,,,,,,,,,,,,problem,aloud,blue,87,47,238,3091.789275899995,None,3091.789275899995,None,6,1.4237524000927806,3091.789275899995,None,3093.259762099944,None,3093.773617300205,None,3093.773617300205,None,r,0.2556815999560058,3093.773617300205,None,,,color23,001,2021_Nov_10_1725,ProdSingRedo,3.2.3,60.06532707166387,
,,,,88,0,88,0,,,,,,,,,,,,,,,,,,,,,,,,3097.023037500214,None,,,,,,,,,,,,,,,,,disease,new_sing,red,88,110,97,3094.5702204001136,None,3094.5702204001136,None,1,1.5948334001004696,3094.5702204001136,None,3096.2059833002277,None,3096.729190000333,None,3096.729190000333,None,n,0.26805250020697713,3096.729190000333,None,,,color23,001,2021_Nov_10_1725,ProdSingRedo,3.2.3,60.06532707166387,
,,,,89,0,89,0,,,,,,,,,,,,,,,,,,,,,,,,3100.681217000354,None,,,,,,,,,,,,,,,,,count,sing,red,89,0,72,3097.555450200103,None,3097.555450200103,None,6,2.2494109999388456,3097.555450200103,None,3099.8379415003583,None,3100.350101500284,None,3100.350101500284,None,r,0.30273899994790554,3100.350101500284,None,,,color23,001,2021_Nov_10_1725,ProdSingRedo,3.2.3,60.06532707166387,
,,,,90,0,90,0,,,,,,,,,,,,,,,,,,,,,,,,3103.2389401001856,None,,,,,,,,,,,,,,,,,captain,aloud,blue,90,55,41,3101.203364100307,None,3101.203364100307,None,6,1.3376651001162827,3101.203364100307,None,3102.5904858000576,None,3103.107010100037,None,3103.107010100037,None,r,0.10621930006891489,3103.107010100037,None,,,color23,001,2021_Nov_10_1725,ProdSingRedo,3.2.3,60.06532707166387,
,,,,91,0,91,0,,,,,,,,,,,,,,,,,,,,,,,,3105.973232400138,None,,,,,,,,,,,,,,,,,direction,sing,red,91,29,94,3103.7626233999617,None,3103.7626233999617,None,6,1.3702314998954535,3103.7626233999617,None,3105.179609199986,None,3105.6818499001674,None,3105.6818499001674,None,r,0.251194900367409,3105.6818499001674,None,,,color23,001,2021_Nov_10_1725,ProdSingRedo,3.2.3,60.06532707166387,
,,,,92,0,92,0,,,,,,,,,,,,,,,,,,,,,,,,3110.656300799921,None,,,,,,,,,,,,,,,,,nature,aloud,blue,92,41,200,3106.4965777001344,None,3106.4965777001344,None,4,3.1245794999413192,3106.4965777001344,None,3109.6832408001646,None,3110.1978714000434,None,3110.1978714000434,None,f,0.4231429002247751,3110.1978714000434,None,,,color23,001,2021_Nov_10_1725,ProdSingRedo,3.2.3,60.06532707166387,
,,,,93,0,93,0,,,,,,,,,,,,,,,,,,,,,,,,3113.2154927002266,None,,,,,,,,,,,,,,,,,throw,new_silent,yellow,93,165,330,3111.176394100301,None,3111.176394100301,None,1,1.3166167000308633,3111.176394100301,None,3112.541933200322,None,3113.060711200349,None,3113.060711200349,None,n,0.12044329987838864,3113.060711200349,None,,,color23,001,2021_Nov_10_1725,ProdSingRedo,3.2.3,60.06532707166387,
,,,,94,0,94,0,,,,,,,,,,,,,,,,,,,,,,,,3117.9792168000713,None,,,,,,,,,,,,,,,,,crime,new_silent,yellow,94,158,78,3113.732559900265,None,3113.732559900265,None,1,3.4725385000929236,3113.732559900265,None,3117.254001600202,None,3117.7713232999668,None,3117.7713232999668,None,n,0.17769479984417558,3117.7713232999668,None,,,color23,001,2021_Nov_10_1725,ProdSingRedo,3.2.3,60.06532707166387,
,,,,95,0,95,0,,,,,,,,,,,,,,,,,,,,,,,,3120.667129700072,None,,,,,,,,,,,,,,,,,pretty,new_aloud,blue,95,144,233,3118.495409199968,None,3118.495409199968,None,1,1.4135439000092447,3118.495409199968,None,3119.9473304003477,None,3120.452052500099,None,3120.452052500099,None,n,0.19313509995117784,3120.452052500099,None,,,color23,001,2021_Nov_10_1725,ProdSingRedo,3.2.3,60.06532707166387,
,,,,96,0,96,0,,,,,,,,,,,,,,,,,,,,,,,,3123.7082217000425,None,,,,,,,,,,,,,,,,,agency,new_silent,yellow,96,157,4,3121.1968952002935,None,3121.1968952002935,None,2,1.696204099804163,3121.1968952002935,None,3122.9365304000676,None,3123.4623469002545,None,3123.4623469002545,None,n,0.21469449996948242,3123.4623469002545,None,,,color23,001,2021_Nov_10_1725,ProdSingRedo,3.2.3,60.06532707166387,
,,,,97,0,97,0,,,,,,,,,,,,,,,,,,,,,,,,3127.6160524003208,None,,,,,,,,,,,,,,,,,foundation,new_aloud,blue,97,131,132,3124.224798100069,None,3124.224798100069,None,6,2.676366299856454,3124.224798100069,None,3126.956364400219,None,3127.4663307000883,None,3127.4663307000883,None,r,0.13066420005634427,3127.4663307000883,None,,,color23,001,2021_Nov_10_1725,ProdSingRedo,3.2.3,60.06532707166387,
,,,,98,0,98,0,,,,,,,,,,,,,,,,,,,,,,,,3130.374941700138,None,,,,,,,,,,,,,,,,,enemy,new_aloud,blue,98,142,113,3128.136886500288,None,3128.136886500288,None,3,1.579944099765271,3128.136886500288,None,3129.757136600092,None,3130.2676663999446,None,3130.2676663999446,None,n,0.073320799972862,3130.2676663999446,None,,,color23,001,2021_Nov_10_1725,ProdSingRedo,3.2.3,60.06532707166387,
,,,,99,0,99,0,,,,,,,,,,,,,,,,,,,,,,,,3135.057946300134,None,,,,,,,,,,,,,,,,,report,new_sing,red,99,103,259,3130.91165920021,None,3130.91165920021,None,3,3.3652345999144018,3130.91165920021,None,3134.31544820033,None,3134.814998799935,None,3134.814998799935,None,n,0.20608130004256964,3134.814998799935,None,,,color23,001,2021_Nov_10_1725,ProdSingRedo,3.2.3,60.06532707166387,
,,,,100,0,100,0,,,,,,,,,,,,,,,,,,,,,,,,3140.5097806002013,None,,,,,,,,,,,,,,,,,author,new_aloud,blue,100,141,15,3135.5831619002856,None,3135.5831619002856,None,5,3.5657818000763655,3135.5831619002856,None,3139.178596800193,None,3139.6825919002295,None,3139.6825919002295,None,f,0.7944954996928573,3139.6825919002295,None,,,color23,001,2021_Nov_10_1725,ProdSingRedo,3.2.3,60.06532707166387,
,,,,101,0,101,0,,,,,,,,,,,,,,,,,,,,,,,,3143.366681800224,None,,,,,,,,,,,,,,,,,personnel,new_silent,yellow,101,175,219,3141.0321742999367,None,3141.0321742999367,None,3,1.6449092999100685,3141.0321742999367,None,3142.724214900285,None,3143.23991429992,None,3143.23991429992,None,n,0.10080649983137846,3143.23991429992,None,,,color23,001,2021_Nov_10_1725,ProdSingRedo,3.2.3,60.06532707166387,
,,,,102,0,102,0,,,,,,,,,,,,,,,,,,,,,,,,3149.133050800301,None,,,,,,,,,,,,,,,,,voice,sing,red,102,13,348,3143.8831533999182,None,3143.8831533999182,None,3,4.5380098996683955,3143.8831533999182,None,3148.4677682002075,None,3148.9770593000576,None,3148.9770593000576,None,n,0.13979020016267896,3148.9770593000576,None,,,color23,001,2021_Nov_10_1725,ProdSingRedo,3.2.3,60.06532707166387,
,,,,103,0,103,0,,,,,,,,,,,,,,,,,,,,,,,,3151.730859800242,None,,,,,,,,,,,,,,,,,emergency,silent,yellow,103,62,110,3149.6624509003013,None,3149.6624509003013,None,6,1.2467494001612067,3149.6624509003013,None,3150.95906620007,None,3151.4850000003353,None,3151.4850000003353,None,r,0.2080251001752913,3151.4850000003353,None,,,color23,001,2021_Nov_10_1725,ProdSingRedo,3.2.3,60.06532707166387,
,,,,104,0,104,0,,,,,,,,,,,,,,,,,,,,,,,,3154.2751986999065,None,,,,,,,,,,,,,,,,,message,new_silent,yellow,104,151,189,3152.252988799941,None,3152.252988799941,None,1,1.3360799001529813,3152.252988799941,None,3153.6339170001447,None,3154.147184500005,None,3154.147184500005,None,n,0.08991399966180325,3154.147184500005,None,,,color23,001,2021_Nov_10_1725,ProdSingRedo,3.2.3,60.06532707166387,
,,,,105,0,105,0,,,,,,,,,,,,,,,,,,,,,,,,3156.7016500001773,None,,,,,,,,,,,,,,,,,track,new_sing,red,105,106,334,3154.802498999983,None,3154.802498999983,None,1,1.2346096998080611,3154.802498999983,None,3156.0899889003485,None,3156.617687399965,None,3156.617687399965,None,n,0.05920139979571104,3156.617687399965,None,,,color23,001,2021_Nov_10_1725,ProdSingRedo,3.2.3,60.06532707166387,
,,,,106,0,106,0,,,,,,,,,,,,,,,,,,,,,,,,3164.8107747002505,None,,,,,,,,,,,,,,,,,position,new_sing,red,106,90,229,3157.215227900073,None,3157.215227900073,None,2,6.829874999821186,3157.215227900073,None,3164.08910580026,None,3164.610984200146,None,3164.610984200146,None,n,0.17023870022967458,3164.610984200146,None,,,color23,001,2021_Nov_10_1725,ProdSingRedo,3.2.3,60.06532707166387,
,,,,107,0,107,0,,,,,,,,,,,,,,,,,,,,,,,,3169.210292899981,None,,,,,,,,,,,,,,,,,defeat,sing,red,107,3,88,3165.353167100344,None,3165.353167100344,None,2,3.1161353001371026,3165.353167100344,None,3168.5067867999896,None,3169.035218700301,None,3169.035218700301,None,n,0.14583109971135855,3169.035218700301,None,,,color23,001,2021_Nov_10_1725,ProdSingRedo,3.2.3,60.06532707166387,
,,,,108,0,108,0,,,,,,,,,,,,,,,,,,,,,,,,3172.0782348001376,None,,,,,,,,,,,,,,,,,shock,new_aloud,blue,108,123,284,3169.734438800253,None,3169.734438800253,None,2,1.5508336001075804,3169.734438800253,None,3171.3209643000737,None,3171.845029500313,None,3171.845029500313,None,n,0.20810279995203018,3171.845029500313,None,,,color23,001,2021_Nov_10_1725,ProdSingRedo,3.2.3,60.06532707166387,
,,,,109,0,109,0,,,,,,,,,,,,,,,,,,,,,,,,3174.252966900356,None,,,,,,,,,,,,,,,,,break,aloud,blue,109,53,26,3172.605987800285,None,3172.605987800285,None,3,0.9027781998738647,3172.605987800285,None,3173.5364776002243,None,3174.051249000244,None,3174.051249000244,None,n,0.16969750029966235,3174.051249000244,None,,,color23,001,2021_Nov_10_1725,ProdSingRedo,3.2.3,60.06532707166387,
,,,,110,0,110,0,,,,,,,,,,,,,,,,,,,,,,,,3176.6895131999627,None,,,,,,,,,,,,,,,,,military,sing,red,110,4,190,3174.773523800075,None,3174.773523800075,None,6,1.2155872001312673,3174.773523800075,None,3176.0393254002556,None,3176.5666021001525,None,3176.5666021001525,None,r,0.0943396002985537,3176.5666021001525,None,,,color23,001,2021_Nov_10_1725,ProdSingRedo,3.2.3,60.06532707166387,
,,,,111,0,111,0,,,,,,,,,,,,,,,,,,,,,,,,3179.7459446000867,None,,,,,,,,,,,,,,,,,addition,aloud,blue,111,31,2,3177.2070079999976,None,3177.2070079999976,None,6,1.2785554002039135,3177.2070079999976,None,3178.5245758001693,None,3179.0445467000827,None,3179.0445467000827,None,r,0.6729346001520753,3179.0445467000827,None,,,color23,001,2021_Nov_10_1725,ProdSingRedo,3.2.3,60.06532707166387,
,,,,112,0,112,0,,,,,,,,,,,,,,,,,,,,,,,,3183.6948012001812,None,,,,,,,,,,,,,,,,,trail,aloud,blue,112,50,336,3180.266040300019,None,3180.266040300019,None,3,2.7868274999782443,3180.266040300019,None,3183.076727000065,None,3183.5940601001494,None,3183.5940601001494,None,n,0.0750772999599576,3183.5940601001494,None,,,color23,001,2021_Nov_10_1725,ProdSingRedo,3.2.3,60.06532707166387,
,,,,113,0,113,0,,,,,,,,,,,,,,,,,,,,,,,,3187.921669600066,None,,,,,,,,,,,,,,,,,goose,aloud,blue,113,33,138,3184.218266800046,None,3184.218266800046,None,4,2.506803400348872,3184.218266800046,None,3186.7763144001365,None,3187.298367000185,None,3187.298367000185,None,f,0.6026580999605358,3187.298367000185,None,,,color23,001,2021_Nov_10_1725,ProdSingRedo,3.2.3,60.06532707166387,
,,,,114,0,114,0,,,,,,,,,,,,,,,,,,,,,,,,3190.271939900238,None,,,,,,,,,,,,,,,,,victory,sing,red,114,26,346,3188.4579473002814,None,3188.4579473002814,None,6,1.0030296999029815,3188.4579473002814,None,3189.5097729000263,None,3190.038037400227,None,3190.038037400227,None,r,0.20675939973443747,3190.038037400227,None,,,color23,001,2021_Nov_10_1725,ProdSingRedo,3.2.3,60.06532707166387,
,,,,115,0,115,0,,,,,,,,,,,,,,,,,,,,,,,,3192.9530539000407,None,,,,,,,,,,,,,,,,,thick,new_aloud,blue,115,148,327,3190.7906851000153,None,3190.7906851000153,None,1,1.4382083001546562,3190.7906851000153,None,3192.257685000077,None,3192.7721766000614,None,3192.7721766000614,None,n,0.16108819982036948,3192.7721766000614,None,,,color23,001,2021_Nov_10_1725,ProdSingRedo,3.2.3,60.06532707166387,
,,,,116,0,116,0,,,,,,,,,,,,,,,,,,,,,,,,3195.546774200164,None,,,,,,,,,,,,,,,,,science,new_sing,red,116,101,275,3193.4654267001897,None,3193.4654267001897,None,1,1.2038028999231756,3193.4654267001897,None,3194.7067635999992,None,3195.229847300332,None,3195.229847300332,None,n,0.28772390028461814,3195.229847300332,None,,,color23,001,2021_Nov_10_1725,ProdSingRedo,3.2.3,60.06532707166387,
,,,,117,0,117,0,,,,,,,,,,,,,,,,,,,,,,,,3200.22148009995,None,,,,,,,,,,,,,,,,,burden,new_aloud,blue,117,130,36,3196.07446049992,None,3196.07446049992,None,2,3.322726699989289,3196.07446049992,None,3199.4451715000905,None,3199.955611400306,None,3199.955611400306,None,n,0.23335140012204647,3199.955611400306,None,,,color23,001,2021_Nov_10_1725,ProdSingRedo,3.2.3,60.06532707166387,
,,,,118,0,118,0,,,,,,,,,,,,,,,,,,,,,,,,3203.030073700007,None,,,,,,,,,,,,,,,,,speech,aloud,blue,118,38,298,3200.734939900227,None,3200.734939900227,None,6,1.5179898999631405,3200.734939900227,None,3202.276927300263,None,3202.7866932000034,None,3202.7866932000034,None,r,0.20245120022445917,3202.7866932000034,None,,,color23,001,2021_Nov_10_1725,ProdSingRedo,3.2.3,60.06532707166387,
,,,,119,0,119,0,,,,,,,,,,,,,,,,,,,,,,,,3205.689347000327,None,,,,,,,,,,,,,,,,,store,silent,yellow,119,85,305,3203.536213700194,None,3203.536213700194,None,1,1.549095300026238,3203.536213700194,None,3205.1213064002804,None,3205.641886000056,None,3205.641886000056,None,n,0.027064300142228603,3205.641886000056,None,,,color23,001,2021_Nov_10_1725,ProdSingRedo,3.2.3,60.06532707166387,
,,,,120,0,120,0,,,,,,,,,,,,,,,,,,,,,,,,3208.364356700331,None,,,,,,,,,,,,,,,,,cousin,sing,red,120,22,76,3206.218053100165,None,3206.218053100165,None,6,1.4750803001224995,3206.218053100165,None,3207.7453288999386,None,3208.2655062000267,None,3208.2655062000267,None,r,0.067510100081563,3208.2655062000267,None,,,color23,001,2021_Nov_10_1725,ProdSingRedo,3.2.3,60.06532707166387,
,,,,121,0,121,0,,,,,,,,,,,,,,,,,,,,,,,,3212.1057191002183,None,,,,,,,,,,,,,,,,,produce,new_aloud,blue,121,128,239,3208.8858317001723,None,3208.8858317001723,None,3,2.5033217002637684,3208.8858317001723,None,3211.428969600238,None,3211.948724700138,None,3211.948724700138,None,n,0.1282080002129078,3211.948724700138,None,,,color23,001,2021_Nov_10_1725,ProdSingRedo,3.2.3,60.06532707166387,
,,,,122,0,122,0,,,,,,,,,,,,,,,,,,,,,,,,3214.7625021003187,None,,,,,,,,,,,,,,,,,minute,new_aloud,blue,122,140,192,3212.6415699003264,None,3212.6415699003264,None,2,1.347504900302738,3212.6415699003264,None,3214.0213886001147,None,3214.5337041001767,None,3214.5337041001767,None,n,0.19144600024446845,3214.5337041001767,None,,,color23,001,2021_Nov_10_1725,ProdSingRedo,3.2.3,60.06532707166387,
,,,,123,0,123,0,,,,,,,,,,,,,,,,,,,,,,,,3216.9822011999786,None,,,,,,,,,,,,,,,,,little,new_aloud,blue,123,143,174,3215.285919100046,None,3215.285919100046,None,1,1.063290299847722,3215.285919100046,None,3216.391911700368,None,3216.9146064999513,None,3216.9146064999513,None,n,0.02631910005584359,3216.9146064999513,None,,,color23,001,2021_Nov_10_1725,ProdSingRedo,3.2.3,60.06532707166387,
,,,,124,0,124,0,,,,,,,,,,,,,,,,,,,,,,,,3219.7227002000436,None,,,,,,,,,,,,,,,,,council,sing,red,124,6,71,3217.5093614999205,None,3217.5093614999205,None,6,1.5279012001119554,3217.5093614999205,None,3219.0798098999076,None,3219.6028201999143,None,3219.6028201999143,None,r,0.09860010026022792,3219.6028201999143,None,,,color23,001,2021_Nov_10_1725,ProdSingRedo,3.2.3,60.06532707166387,
,,,,125,0,125,0,,,,,,,,,,,,,,,,,,,,,,,,3226.7818909999914,None,,,,,,,,,,,,,,,,,bright,new_sing,red,125,100,29,3220.2452982999384,None,3220.2452982999384,None,4,5.711848899722099,3220.2452982999384,None,3225.9915614002384,None,3226.5214908001944,None,3226.5214908001944,None,n,0.22766630025580525,3226.5214908001944,None,,,color23,001,2021_Nov_10_1725,ProdSingRedo,3.2.3,60.06532707166387,
,,,,126,0,126,0,,,,,,,,,,,,,,,,,,,,,,,,3230.002911500167,None,,,,,,,,,,,,,,,,,discussion,new_silent,yellow,126,177,96,3227.304655100219,None,3227.304655100219,None,6,1.3805523002520204,3227.304655100219,None,3228.7220821999945,None,3229.2359886001796,None,3229.2359886001796,None,r,0.7372689000330865,3229.2359886001796,None,,,color23,001,2021_Nov_10_1725,ProdSingRedo,3.2.3,60.06532707166387,
,,,,127,0,127,0,,,,,,,,,,,,,,,,,,,,,,,,3235.4479467002675,None,,,,,,,,,,,,,,,,,thing,sing,red,127,9,328,3230.5224685999565,None,3230.5224685999565,None,2,4.210677899885923,3230.5224685999565,None,3234.77500959998,None,3235.3000376001,None,3235.3000376001,None,n,0.12132620019838214,3235.3000376001,None,,,color23,001,2021_Nov_10_1725,ProdSingRedo,3.2.3,60.06532707166387,
,,,,128,0,128,0,,,,,,,,,,,,,,,,,,,,,,,,3237.9819684000686,None,,,,,,,,,,,,,,,,,color,silent,yellow,128,87,56,3235.970628400333,None,3235.970628400333,None,2,1.3547147996723652,3235.970628400333,None,3237.376997000072,None,3237.89806890022,None,3237.89806890022,None,n,0.05107730021700263,3237.89806890022,None,,,color23,001,2021_Nov_10_1725,ProdSingRedo,3.2.3,60.06532707166387,
,,,,129,0,129,0,,,,,,,,,,,,,,,,,,,,,,,,3241.6073826001957,None,,,,,,,,,,,,,,,,,balance,new_silent,yellow,129,173,17,3238.507141500246,None,3238.507141500246,None,3,2.4579507997259498,3238.507141500246,None,3241.0222809002735,None,3241.542536099907,None,3241.542536099907,None,n,0.03852940024808049,3241.542536099907,None,,,color23,001,2021_Nov_10_1725,ProdSingRedo,3.2.3,60.06532707166387,
,,,,130,0,130,0,,,,,,,,,,,,,,,,,,,,,,,,3244.6706528002396,None,,,,,,,,,,,,,,,,,space,new_silent,yellow,130,153,297,3242.126872899942,None,3242.126872899942,None,2,1.2701834999024868,3242.126872899942,None,3243.444086700212,None,3243.969202300068,None,3243.969202300068,None,n,0.6598847997374833,3243.969202300068,None,,,color23,001,2021_Nov_10_1725,ProdSingRedo,3.2.3,60.06532707166387,
,,,,131,0,131,0,,,,,,,,,,,,,,,,,,,,,,,,3247.24937150022,None,,,,,,,,,,,,,,,,,estate,new_aloud,blue,131,145,119,3245.1922804000787,None,3245.1922804000787,None,1,1.3248291001655161,3245.1922804000787,None,3246.565775200259,None,3247.089764200151,None,3247.089764200151,None,n,0.13161539984866977,3247.089764200151,None,,,color23,001,2021_Nov_10_1725,ProdSingRedo,3.2.3,60.06532707166387,
,,,,132,0,132,0,,,,,,,,,,,,,,,,,,,,,,,,3249.9754075002857,None,,,,,,,,,,,,,,,,,century,new_sing,red,132,96,45,3247.7809917000122,None,3247.7809917000122,None,1,1.4321058997884393,3247.7809917000122,None,3249.2667192001827,None,3249.789015999995,None,3249.789015999995,None,n,0.15997479995712638,3249.789015999995,None,,,color23,001,2021_Nov_10_1725,ProdSingRedo,3.2.3,60.06532707166387,
,,,,133,0,133,0,,,,,,,,,,,,,,,,,,,,,,,,3252.232329899911,None,,,,,,,,,,,,,,,,,bitter,new_sing,red,133,114,23,3250.490409800317,None,3250.490409800317,None,2,1.0506374002434313,3250.490409800317,None,3251.57298190007,None,3252.0832866001874,None,3252.0832866001874,None,n,0.12217229977250099,3252.0832866001874,None,,,color23,001,2021_Nov_10_1725,ProdSingRedo,3.2.3,60.06532707166387,
,,,,134,0,134,0,,,,,,,,,,,,,,,,,,,,,,,,3255.369520400185,None,,,,,,,,,,,,,,,,,partner,new_aloud,blue,134,134,211,3252.761850800365,None,3252.761850800365,None,1,1.8830064996145666,3252.761850800365,None,3254.6764985001646,None,3255.1904124002904,None,3255.1904124002904,None,n,0.14268469996750355,3255.1904124002904,None,,,color23,001,2021_Nov_10_1725,ProdSingRedo,3.2.3,60.06532707166387,
,,,,135,0,135,0,,,,,,,,,,,,,,,,,,,,,,,,3259.9681931002997,None,,,,,,,,,,,,,,,,,safety,silent,yellow,135,76,270,3255.901966100093,None,3255.901966100093,None,4,2.6952523002400994,3255.901966100093,None,3258.652607300319,None,3259.1748494999483,None,3259.1748494999483,None,n,0.766463799867779,3259.1748494999483,None,,,color23,001,2021_Nov_10_1725,ProdSingRedo,3.2.3,60.06532707166387,
,,,,136,0,136,0,,,,,,,,,,,,,,,,,,,,,,,,3263.7259861002676,None,,,,,,,,,,,,,,,,,provision,aloud,blue,136,39,243,3260.4936675000936,None,3260.4936675000936,None,6,2.4550979998894036,3260.4936675000936,None,3262.98386389995,None,3263.4922605999745,None,3263.4922605999745,None,r,0.20856420043855906,3263.4922605999745,None,,,color23,001,2021_Nov_10_1725,ProdSingRedo,3.2.3,60.06532707166387,
,,,,137,0,137,0,,,,,,,,,,,,,,,,,,,,,,,,3266.58447979996,None,,,,,,,,,,,,,,,,,territory,silent,yellow,137,64,324,3264.2420847001486,None,3264.2420847001486,None,3,1.6510524000041187,3264.2420847001486,None,3265.9486332000233,None,3266.4701841999777,None,3266.4701841999777,None,n,0.08700750023126602,3266.4701841999777,None,,,color23,001,2021_Nov_10_1725,ProdSingRedo,3.2.3,60.06532707166387,
,,,,138,0,138,0,,,,,,,,,,,,,,,,,,,,,,,,3270.491570400074,None,,,,,,,,,,,,,,,,,discovery,sing,red,138,2,95,3267.1141206002794,None,3267.1141206002794,None,6,1.7550876000896096,3267.1141206002794,None,3268.9182053999975,None,3269.446858700365,None,3269.446858700365,None,f,1.0065725999884307,3269.446858700365,None,,,color23,001,2021_Nov_10_1725,ProdSingRedo,3.2.3,60.06532707166387,
,,,,139,0,139,0,,,,,,,,,,,,,,,,,,,,,,,,3276.2944638002664,None,,,,,,,,,,,,,,,,,grade,new_aloud,blue,139,132,140,3271.010408699978,None,3271.010408699978,None,3,3.7150493999943137,3271.010408699978,None,3274.7691566003487,None,3275.288298000116,None,3275.288298000116,None,n,0.9570660996250808,3275.288298000116,None,,,color23,001,2021_Nov_10_1725,ProdSingRedo,3.2.3,60.06532707166387,
,,,,140,0,140,0,,,,,,,,,,,,,,,,,,,,,,,,3279.2823725999333,None,,,,,,,,,,,,,,,,,damage,new_aloud,blue,140,135,83,3276.8278668001294,None,3276.8278668001294,None,1,1.5295942001976073,3276.8278668001294,None,3278.396880400367,None,3278.9246545000933,None,3278.9246545000933,None,n,0.3205062998458743,3278.9246545000933,None,,,color23,001,2021_Nov_10_1725,ProdSingRedo,3.2.3,60.06532707166387,
,,,,141,0,141,0,,,,,,,,,,,,,,,,,,,,,,,,3283.3696632999927,None,,,,,,,,,,,,,,,,,place,aloud,blue,141,54,222,3279.8099862001836,None,3279.8099862001836,None,5,2.1316698999144137,3279.8099862001836,None,3281.9832176002674,None,3282.5018251002766,None,3282.5018251002766,None,f,0.831307599786669,3282.5018251002766,None,,,color23,001,2021_Nov_10_1725,ProdSingRedo,3.2.3,60.06532707166387,
,,,,142,0,142,0,,,,,,,,,,,,,,,,,,,,,,,,3285.8726166002452,None,,,,,,,,,,,,,,,,,sleep,new_sing,red,142,93,290,3283.8915955000557,None,3283.8915955000557,None,1,1.1855255998671055,3283.8915955000557,None,3285.112705500331,None,3285.6317529003136,None,3285.6317529003136,None,n,0.20537720015272498,3285.6317529003136,None,,,color23,001,2021_Nov_10_1725,ProdSingRedo,3.2.3,60.06532707166387,
,,,,143,0,143,0,,,,,,,,,,,,,,,,,,,,,,,,3289.817937300075,None,,,,,,,,,,,,,,,,,employment,new_sing,red,143,113,111,3286.3999637002125,None,3286.3999637002125,None,2,1.4293716996908188,3286.3999637002125,None,3287.878904200159,None,3288.414056400303,None,3288.414056400303,None,n,1.375057800207287,3288.414056400303,None,,,color23,001,2021_Nov_10_1725,ProdSingRedo,3.2.3,60.06532707166387,
,,,,144,0,144,0,,,,,,,,,,,,,,,,,,,,,,,,3293.002233200241,None,,,,,,,,,,,,,,,,,executive,new_sing,red,144,111,122,3290.350943000056,None,3290.350943000056,None,1,1.3425699998624623,3290.350943000056,None,3291.7435003002174,None,3292.2598482002504,None,3292.2598482002504,None,n,0.7135607004165649,3292.2598482002504,None,,,color23,001,2021_Nov_10_1725,ProdSingRedo,3.2.3,60.06532707166387,
,,,,145,0,145,0,,,,,,,,,,,,,,,,,,,,,,,,3295.819351500366,None,,,,,,,,,,,,,,,,,appeal,silent,yellow,145,81,9,3293.5153817003593,None,3293.5153817003593,None,1,1.4259695000946522,3293.5153817003593,None,3294.9828559001908,None,3295.509507600218,None,3295.509507600218,None,n,0.2717516999691725,3295.509507600218,None,,,color23,001,2021_Nov_10_1725,ProdSingRedo,3.2.3,60.06532707166387,
,,,,146,0,146,0,,,,,,,,,,,,,,,,,,,,,,,,3298.3446170003153,None,,,,,,,,,,,,,,,,,sunset,new_sing,red,146,98,315,3296.345394300297,None,3296.345394300297,None,2,1.3638619999401271,3296.345394300297,None,3297.749554000329,None,3298.2748998999596,None,3298.2748998999596,None,n,0.050074500031769276,3298.2748998999596,None,,,color23,001,2021_Nov_10_1725,ProdSingRedo,3.2.3,60.06532707166387,
,,,,147,0,147,0,,,,,,,,,,,,,,,,,,,,,,,,3301.503429400269,None,,,,,,,,,,,,,,,,,charter,new_aloud,blue,147,138,47,3298.8594252001494,None,3298.8594252001494,None,2,1.9456696999259293,3298.8594252001494,None,3300.8404938001186,None,3301.3550456003286,None,3301.3550456003286,None,n,0.11405389988794923,3301.3550456003286,None,,,color23,001,2021_Nov_10_1725,ProdSingRedo,3.2.3,60.06532707166387,
,,,,148,0,148,0,,,,,,,,,,,,,,,,,,,,,,,,3303.8450532001443,None,,,,,,,,,,,,,,,,,smell,new_sing,red,148,105,291,3302.0284750000574,None,3302.0284750000574,None,1,1.113255700096488,3302.0284750000574,None,3303.1803004001267,None,3303.6943463003263,None,3303.6943463003263,None,n,0.11864329967647791,3303.6943463003263,None,,,color23,001,2021_Nov_10_1725,ProdSingRedo,3.2.3,60.06532707166387,
,,,,149,0,149,0,,,,,,,,,,,,,,,,,,,,,,,,3306.9520265003666,None,,,,,,,,,,,,,,,,,quick,sing,red,149,10,248,3304.363894100301,None,3304.363894100301,None,4,1.8094038995914161,3304.363894100301,None,3306.2144869002514,None,3306.736852800008,None,3306.736852800008,None,n,0.18030750006437302,3306.736852800008,None,,,color23,001,2021_Nov_10_1725,ProdSingRedo,3.2.3,60.06532707166387,
,,,,150,0,150,0,,,,,,,,,,,,,,,,,,,,,,,,3310.053980600089,None,,,,,,,,,,,,,,,,,rural,new_silent,yellow,150,171,269,3307.482081199996,None,3307.482081199996,None,1,1.2990921000018716,3307.482081199996,None,3308.8398301000707,None,3309.355002500117,None,3309.355002500117,None,n,0.6741533000022173,3309.355002500117,None,,,color23,001,2021_Nov_10_1725,ProdSingRedo,3.2.3,60.06532707166387,
,,,,151,0,151,0,,,,,,,,,,,,,,,,,,,,,,,,3313.9951621000655,None,,,,,,,,,,,,,,,,,appearance,new_aloud,blue,151,147,10,3310.584128800314,None,3310.584128800314,None,4,1.8851843997836113,3310.584128800314,None,3312.5271152001806,None,3313.0449601002038,None,3313.0449601002038,None,f,0.9123514997772872,3313.0449601002038,None,,,color23,001,2021_Nov_10_1725,ProdSingRedo,3.2.3,60.06532707166387,
,,,,152,0,152,0,,,,,,,,,,,,,,,,,,,,,,,,3317.93680460006,None,,,,,,,,,,,,,,,,,swift,silent,yellow,152,77,320,3314.518051800318,None,3314.518051800318,None,3,2.414919199887663,3314.518051800318,None,3316.966758500319,None,3317.4857383002527,None,3317.4857383002527,None,n,0.4152655997313559,3317.4857383002527,None,,,color23,001,2021_Nov_10_1725,ProdSingRedo,3.2.3,60.06532707166387,
,,,,153,0,153,0,,,,,,,,,,,,,,,,,,,,,,,,3320.992515000049,None,,,,,,,,,,,,,,,,,suspect,sing,red,153,12,318,3318.446186600253,None,3318.446186600253,None,4,1.6950938003137708,3318.446186600253,None,3320.1850149002858,None,3320.7014113999903,None,3320.7014113999903,None,f,0.2558059999719262,3320.7014113999903,None,,,color23,001,2021_Nov_10_1725,ProdSingRedo,3.2.3,60.06532707166387,
,,,,154,0,154,0,,,,,,,,,,,,,,,,,,,,,,,,3323.945772200357,None,,,,,,,,,,,,,,,,,harmony,new_silent,yellow,154,179,148,3321.513085700106,None,3321.513085700106,None,1,1.5325130997225642,3321.513085700106,None,3323.0906889000908,None,3323.5941784000024,None,3323.5941784000024,None,n,0.33100400026887655,3323.5941784000024,None,,,color23,001,2021_Nov_10_1725,ProdSingRedo,3.2.3,60.06532707166387,
,,,,155,0,155,0,,,,,,,,,,,,,,,,,,,,,,,,3326.6137927002273,None,,,,,,,,,,,,,,,,,accident,new_aloud,blue,155,139,0,3324.4649247000925,None,3324.4649247000925,None,2,1.3004538998939097,3324.4649247000925,None,3325.8181473999284,None,3326.337380200159,None,3326.337380200159,None,n,0.2436858001165092,3326.337380200159,None,,,color23,001,2021_Nov_10_1725,ProdSingRedo,3.2.3,60.06532707166387,
,,,,156,0,156,0,,,,,,,,,,,,,,,,,,,,,,,,3331.6042222999968,None,,,,,,,,,,,,,,,,,quantity,silent,yellow,156,75,245,3327.1460984000005,None,3327.1460984000005,None,2,3.6271548997610807,3327.1460984000005,None,3330.834518000018,None,3331.3393709002994,None,3331.3393709002994,None,n,0.22579979989677668,3331.3393709002994,None,,,color23,001,2021_Nov_10_1725,ProdSingRedo,3.2.3,60.06532707166387,
,,,,157,0,157,0,,,,,,,,,,,,,,,,,,,,,,,,3339.1308952001855,None,,,,,,,,,,,,,,,,,plane,sing,red,157,8,223,3332.1268490999937,None,3332.1268490999937,None,5,5.3671436002478,3332.1268490999937,None,3337.528985599987,None,3338.039989199955,None,3338.039989199955,None,f,1.0693600997328758,3338.039989199955,None,,,color23,001,2021_Nov_10_1725,ProdSingRedo,3.2.3,60.06532707166387,
,,,,158,0,158,0,,,,,,,,,,,,,,,,,,,,,,,,3345.0225603003055,None,,,,,,,,,,,,,,,,,silence,new_sing,red,158,118,288,3339.6435541999526,None,3339.6435541999526,None,3,4.585527100134641,3339.6435541999526,None,3344.2688233000226,None,3344.781290499959,None,3344.781290499959,None,n,0.2160224001854658,3344.781290499959,None,,,color23,001,2021_Nov_10_1725,ProdSingRedo,3.2.3,60.06532707166387,
,,,,159,0,159,0,,,,,,,,,,,,,,,,,,,,,,,,3347.590160700027,None,,,,,,,,,,,,,,,,,drove,silent,yellow,159,60,106,3345.550504399929,None,3345.550504399929,None,2,1.2706618001684546,3345.550504399929,None,3346.878979700152,None,3347.3933560000733,None,3347.3933560000733,None,n,0.17181679978966713,3347.3933560000733,None,,,color23,001,2021_Nov_10_1725,ProdSingRedo,3.2.3,60.06532707166387,
,,,,160,0,160,0,,,,,,,,,,,,,,,,,,,,,,,,3350.756979800295,None,,,,,,,,,,,,,,,,,salary,aloud,blue,160,56,271,3348.118391599972,None,3348.118391599972,None,4,1.9275325001217425,3348.118391599972,None,3350.0925110001117,None,3350.6118189999834,None,3350.6118189999834,None,f,0.11352819995954633,3350.6118189999834,None,,,color23,001,2021_Nov_10_1725,ProdSingRedo,3.2.3,60.06532707166387,
,,,,161,0,161,0,,,,,,,,,,,,,,,,,,,,,,,,3354.556528400164,None,,,,,,,,,,,,,,,,,industry,new_aloud,blue,161,125,161,3351.286599700339,None,3351.286599700339,None,1,2.502386000007391,3351.286599700339,None,3353.8234133999795,None,3354.3394432999194,None,3354.3394432999194,None,n,0.1778866001404822,3354.3394432999194,None,,,color23,001,2021_Nov_10_1725,ProdSingRedo,3.2.3,60.06532707166387,
,,,,162,0,162,0,,,,,,,,,,,,,,,,,,,,,,,,3357.289542400278,None,,,,,,,,,,,,,,,,,corner,silent,yellow,162,71,69,3355.08053150028,None,3355.08053150028,None,6,1.3812607997097075,3355.08053150028,None,3356.5062365001068,None,3357.021755900234,None,3357.021755900234,None,r,0.24006059998646379,3357.021755900234,None,,,color23,001,2021_Nov_10_1725,ProdSingRedo,3.2.3,60.06532707166387,
,,,,163,0,163,0,,,,,,,,,,,,,,,,,,,,,,,,3360.0111257000826,None,,,,,,,,,,,,,,,,,oxygen,sing,red,163,16,209,3357.819801500067,None,3357.819801500067,None,1,1.2655517999082804,3357.819801500067,None,3359.1307318001054,None,3359.6467194003053,None,3359.6467194003053,None,n,0.33464140025898814,3359.6467194003053,None,,,color23,001,2021_Nov_10_1725,ProdSingRedo,3.2.3,60.06532707166387,
,,,,164,0,164,0,,,,,,,,,,,,,,,,,,,,,,,,3363.0398200000636,None,,,,,,,,,,,,,,,,,birth,new_sing,red,164,109,22,3360.5303835002705,None,3360.5303835002705,None,5,1.5153661002404988,3360.5303835002705,None,3362.0890661999583,None,3362.606689200271,None,3362.606689200271,None,f,0.3985623996704817,3362.606689200271,None,,,color23,001,2021_Nov_10_1725,ProdSingRedo,3.2.3,60.06532707166387,
,,,,165,0,165,0,,,,,,,,,,,,,,,,,,,,,,,,3365.603103100322,None,,,,,,,,,,,,,,,,,health,sing,red,165,24,149,3363.557367700152,None,3363.557367700152,None,3,1.3198335003107786,3363.557367700152,None,3364.9201616002247,None,3365.4401739002205,None,3365.4401739002205,None,n,0.14124679984524846,3365.4401739002205,None,,,color23,001,2021_Nov_10_1725,ProdSingRedo,3.2.3,60.06532707166387,
,,,,166,0,166,0,,,,,,,,,,,,,,,,,,,,,,,,3369.175816900097,None,,,,,,,,,,,,,,,,,primary,new_silent,yellow,166,168,234,3366.136912100017,None,3366.136912100017,None,5,2.0041403002105653,3366.136912100017,None,3368.190770199988,None,3368.714764100034,None,3368.714764100034,None,f,0.4345138999633491,3368.714764100034,None,,,color23,001,2021_Nov_10_1725,ProdSingRedo,3.2.3,60.06532707166387,
,,,,167,0,167,0,,,,,,,,,,,,,,,,,,,,,,,,3371.774145500269,None,,,,,,,,,,,,,,,,,department,new_sing,red,167,112,90,3369.709024700336,None,3369.709024700336,None,1,1.2801715000532568,3369.709024700336,None,3371.0370292002335,None,3371.565398900304,None,3371.565398900304,None,n,0.1758419000543654,3371.565398900304,None,,,color23,001,2021_Nov_10_1725,ProdSingRedo,3.2.3,60.06532707166387,
,,,,168,0,168,0,,,,,,,,,,,,,,,,,,,,,,,,3375.876143900212,None,,,,,,,,,,,,,,,,,character,new_aloud,blue,168,122,46,3372.3053464000113,None,3372.3053464000113,None,4,2.7084663002751768,3372.3053464000113,None,3375.0595223000273,None,3375.5826858999208,None,3375.5826858999208,None,n,0.26251469971612096,3375.5826858999208,None,,,color23,001,2021_Nov_10_1725,ProdSingRedo,3.2.3,60.06532707166387,
,,,,169,0,169,0,,,,,,,,,,,,,,,,,,,,,,,,3378.9583184001967,None,,,,,,,,,,,,,,,,,session,sing,red,169,17,281,3376.3904309999198,None,3376.3904309999198,None,3,1.510986799839884,3376.3904309999198,None,3377.952644899953,None,3378.472533599939,None,3378.472533599939,None,n,0.45273099979385734,3378.472533599939,None,,,color23,001,2021_Nov_10_1725,ProdSingRedo,3.2.3,60.06532707166387,
,,,,170,0,170,0,,,,,,,,,,,,,,,,,,,,,,,,3381.5991112003103,None,,,,,,,,,,,,,,,,,material,new_sing,red,170,115,182,3379.472819000017,None,3379.472819000017,None,1,1.4202053998596966,3379.472819000017,None,3380.9192731003277,None,3381.448486499954,None,3381.448486499954,None,n,0.13276150031015277,3381.448486499954,None,,,color23,001,2021_Nov_10_1725,ProdSingRedo,3.2.3,60.06532707166387,
,,,,171,0,171,0,,,,,,,,,,,,,,,,,,,,,,,,3383.9649018002674,None,,,,,,,,,,,,,,,,,under,new_sing,red,171,119,343,3382.099714900367,None,3382.099714900367,None,1,1.0497828000225127,3382.099714900367,None,3383.1848627999425,None,3383.700136899948,None,3383.700136899948,None,n,0.2487575002014637,3383.700136899948,None,,,color23,001,2021_Nov_10_1725,ProdSingRedo,3.2.3,60.06532707166387,
,,,,172,0,172,0,,,,,,,,,,,,,,,,,,,,,,,,3387.5918946000747,None,,,,,,,,,,,,,,,,,right,silent,yellow,172,74,265,3384.484041100368,None,3384.484041100368,None,3,2.4812604999169707,3384.484041100368,None,3387.0093780001625,None,3387.5278981002048,None,3387.5278981002048,None,n,0.029358099680393934,3387.5278981002048,None,,,color23,001,2021_Nov_10_1725,ProdSingRedo,3.2.3,60.06532707166387,
,,,,173,0,173,0,,,,,,,,,,,,,,,,,,,,,,,,3391.109910600353,None,,,,,,,,,,,,,,,,,bicycle,sing,red,173,14,21,3388.120372999925,None,3388.120372999925,None,6,1.093141600023955,3388.120372999925,None,3389.254432900343,None,3389.782357899938,None,3389.782357899938,None,f,1.29491199972108,3389.782357899938,None,,,color23,001,2021_Nov_10_1725,ProdSingRedo,3.2.3,60.06532707166387,
,,,,174,0,174,0,,,,,,,,,,,,,,,,,,,,,,,,3393.68971300032,None,,,,,,,,,,,,,,,,,election,new_sing,red,174,99,109,3391.633629300166,None,3391.633629300166,None,1,1.195870999712497,3391.633629300166,None,3392.8718870002776,None,3393.3939634002745,None,3393.3939634002745,None,n,0.25932770036160946,3393.3939634002745,None,,,color23,001,2021_Nov_10_1725,ProdSingRedo,3.2.3,60.06532707166387,
,,,,175,0,175,0,,,,,,,,,,,,,,,,,,,,,,,,3396.626011000015,None,,,,,,,,,,,,,,,,,nation,aloud,blue,175,36,198,3394.219226700254,None,3394.219226700254,None,6,1.7059968002140522,3394.219226700254,None,3395.9691884000786,None,3396.4970487002283,None,3396.4970487002283,None,r,0.09249730035662651,3396.4970487002283,None,,,color23,001,2021_Nov_10_1725,ProdSingRedo,3.2.3,60.06532707166387,
,,,,176,0,176,0,,,,,,,,,,,,,,,,,,,,,,,,3399.3423427003436,None,,,,,,,,,,,,,,,,,center,sing,red,176,5,44,3397.1483149002306,None,3397.1483149002306,None,5,1.3768569002859294,3397.1483149002306,None,3398.5701745999977,None,3399.091007300187,None,3399.091007300187,None,f,0.22636139998212457,3399.091007300187,None,,,color23,001,2021_Nov_10_1725,ProdSingRedo,3.2.3,60.06532707166387,
,,,,177,0,177,0,,,,,,,,,,,,,,,,,,,,,,,,3401.7245143000036,None,,,,,,,,,,,,,,,,,meeting,new_silent,yellow,177,170,187,3399.8666710001417,None,3399.8666710001417,None,1,1.066686499863863,3399.8666710001417,None,3400.9729884001426,None,3401.4964847001247,None,3401.4964847001247,None,n,0.204967699944973,3401.4964847001247,None,,,color23,001,2021_Nov_10_1725,ProdSingRedo,3.2.3,60.06532707166387,
,,,,178,0,178,0,,,,,,,,,,,,,,,,,,,,,,,,3415.1596147003584,None,,,,,,,,,,,,,,,,,agreement,new_sing,red,178,92,5,3402.254327600356,None,3402.254327600356,None,2,12.112047499977052,3402.254327600356,None,3414.4090331001207,None,3414.921661400236,None,3414.921661400236,None,n,0.2035036999732256,3414.921661400236,None,,,color23,001,2021_Nov_10_1725,ProdSingRedo,3.2.3,60.06532707166387,
,,,,179,0,179,0,,,,,,,,,,,,,,,,,,,,,,,,3417.927111200057,None,,,,,,,,,,,,,,,,,service,new_aloud,blue,179,136,280,3415.6886018002406,None,3415.6886018002406,None,4,1.1407025000080466,3415.6886018002406,None,3416.8731892001815,None,3417.391686799936,None,3417.391686799936,None,n,0.5016576997004449,3417.391686799936,None,,,color23,001,2021_Nov_10_1725,ProdSingRedo,3.2.3,60.06532707166387,
,,,,,,,,,,,,,,,,,,,,,,,,,,,,,,,,,,,,,,,,,,,,,,,,,,,,,,,,,,,,,,,,,,,,,,,,,3418.4384514000267,None,,,,,,,
