StudyLoop.thisRepN,StudyLoop.thisTrialN,StudyLoop.thisN,StudyLoop.thisIndex,TestLoop.thisRepN,TestLoop.thisTrialN,TestLoop.thisN,TestLoop.thisIndex,textCondition.started,textCondition.stopped,keyCondition.keys,keyCondition.rt,keyCondition.started,keyCondition.stopped,Condition,stim_colors,color_sing,color_aloud,color_silent,textWelcome.started,textWelcome.stopped,keyWelcome.keys,keyWelcome.rt,keyWelcome.started,keyWelcome.stopped,textAloud.started,textAloud.stopped,textSilent.started,textSilent.stopped,textSing.started,textSing.stopped,textBlank500.started,textBlank500.stopped,study_word,study_type,study_color,study_num,study_word_num,textStudy.started,textStudy.stopped,keyStudy.keys,keyStudy.started,keyStudy.stopped,textTestInstructions.started,textTestInstructions.stopped,key_resp_3.keys,key_resp_3.rt,key_resp_3.started,key_resp_3.stopped,testWord,testType,testColor,testN,test_num,test_word_num,textConf.started,textConf.stopped,textConfScale.started,textConfScale.stopped,keyConf.keys,keyConf.rt,keyConf.started,keyConf.stopped,textTestBlank.started,textTestBlank.stopped,textRKN.started,textRKN.stopped,textRKNScale.started,textRKNScale.stopped,keyRKN.keys,keyRKN.rt,keyRKN.started,keyRKN.stopped,textEnd.started,textEnd.stopped,participant,session,date,expName,psychopyVersion,frameRate,
,,,,,,,,13.573032055050135,None,y,1.4520854260772467,13.573032055050135,None,,,,,,,,,,,,,,,,,,,,,,,,,,,,,,,,,,,,,,,,,,,,,,,,,,,,,,,,,,,,,,color11,001,2019_Dec_06_1558,ProdSingRedo,3.2.4,59.9685182289878,
,,,,,,,,,,,,,,ColoredTest,"['blue', 'yellow', 'red']",blue,yellow,red,15.062743164831772,None,space,347.0618054929655,15.062743164831772,None,,,,,,,,,,,,,,,,,,,,,,,,,,,,,,,,,,,,,,,,,,,,,,,,,,,color11,001,2019_Dec_06_1558,ProdSingRedo,3.2.4,59.9685182289878,
0,0,0,0,,,,,,,,,,,,,,,,,,,,,,15.062743164831772,None,15.062743164831772,None,15.062743164831772,None,364.6636481815949,None,scene,silent,red,81,273,362.66300129680894,None,None,362.66300129680894,None,,,,,,,,,,,,,,,,,,,,,,,,,,,,,,,,,color11,001,2019_Dec_06_1558,ProdSingRedo,3.2.4,59.9685182289878,
1,0,1,0,,,,,,,,,,,,,,,,,,,,,,,,,,,,367.1811258906964,None,front,sing,blue,10,134,365.1804650106933,None,None,365.1804650106933,None,,,,,,,,,,,,,,,,,,,,,,,,,,,,,,,,,color11,001,2019_Dec_06_1558,ProdSingRedo,3.2.4,59.9685182289878,
2,0,2,0,,,,,,,,,,,,,,,,,,,,,,,,,,,,369.6985647242982,None,theme,sing,blue,25,326,367.6978789640125,None,None,367.6978789640125,None,,,,,,,,,,,,,,,,,,,,,,,,,,,,,,,,,color11,001,2019_Dec_06_1558,ProdSingRedo,3.2.4,59.9685182289878,
3,0,3,0,,,,,,,,,,,,,,,,,,,,,,,,,,,,372.2159886297304,None,group,sing,blue,4,143,370.21534267789684,None,None,370.21534267789684,None,,,,,,,,,,,,,,,,,,,,,,,,,,,,,,,,,color11,001,2019_Dec_06_1558,ProdSingRedo,3.2.4,59.9685182289878,
4,0,4,0,,,,,,,,,,,,,,,,,,,,,,,,,,,,374.73344363551587,None,machinery,silent,red,82,175,372.73477939050645,None,None,372.73477939050645,None,,,,,,,,,,,,,,,,,,,,,,,,,,,,,,,,,color11,001,2019_Dec_06_1558,ProdSingRedo,3.2.4,59.9685182289878,
5,0,5,0,,,,,,,,,,,,,,,,,,,,,,,,,,,,377.2508417277131,None,collection,aloud,yellow,42,54,375.2500934561249,None,None,375.2500934561249,None,,,,,,,,,,,,,,,,,,,,,,,,,,,,,,,,,color11,001,2019_Dec_06_1558,ProdSingRedo,3.2.4,59.9685182289878,
6,0,6,0,,,,,,,,,,,,,,,,,,,,,,,,,,,,379.76824604021385,None,charter,aloud,yellow,45,47,377.7676887239795,None,None,377.7676887239795,None,,,,,,,,,,,,,,,,,,,,,,,,,,,,,,,,,color11,001,2019_Dec_06_1558,ProdSingRedo,3.2.4,59.9685182289878,
7,0,7,0,,,,,,,,,,,,,,,,,,,,,,,,,,,,382.2857486291323,None,division,aloud,yellow,43,101,380.28906609117985,None,None,380.28906609117985,None,,,,,,,,,,,,,,,,,,,,,,,,,,,,,,,,,color11,001,2019_Dec_06_1558,ProdSingRedo,3.2.4,59.9685182289878,
8,0,8,0,,,,,,,,,,,,,,,,,,,,,,,,,,,,384.8041039868258,None,column,aloud,yellow,47,57,382.802552085137,None,None,382.802552085137,None,,,,,,,,,,,,,,,,,,,,,,,,,,,,,,,,,color11,001,2019_Dec_06_1558,ProdSingRedo,3.2.4,59.9685182289878,
9,0,9,0,,,,,,,,,,,,,,,,,,,,,,,,,,,,387.30391676328145,None,profession,silent,red,60,241,385.3031641377602,None,None,385.3031641377602,None,,,,,,,,,,,,,,,,,,,,,,,,,,,,,,,,,color11,001,2019_Dec_06_1558,ProdSingRedo,3.2.4,59.9685182289878,
10,0,10,0,,,,,,,,,,,,,,,,,,,,,,,,,,,,389.82140224729665,None,silence,silent,red,88,288,387.8206549086608,None,None,387.8206549086608,None,,,,,,,,,,,,,,,,,,,,,,,,,,,,,,,,,color11,001,2019_Dec_06_1558,ProdSingRedo,3.2.4,59.9685182289878,
11,0,11,0,,,,,,,,,,,,,,,,,,,,,,,,,,,,392.33881588978693,None,estate,aloud,yellow,57,119,390.3381693158299,None,None,390.3381693158299,None,,,,,,,,,,,,,,,,,,,,,,,,,,,,,,,,,color11,001,2019_Dec_06_1558,ProdSingRedo,3.2.4,59.9685182289878,
12,0,12,0,,,,,,,,,,,,,,,,,,,,,,,,,,,,394.8562621874735,None,resistance,silent,red,62,262,392.85554501600564,None,None,392.85554501600564,None,,,,,,,,,,,,,,,,,,,,,,,,,,,,,,,,,color11,001,2019_Dec_06_1558,ProdSingRedo,3.2.4,59.9685182289878,
13,0,13,0,,,,,,,,,,,,,,,,,,,,,,,,,,,,397.3737268340774,None,thing,sing,blue,15,328,395.3730643992312,None,None,395.3730643992312,None,,,,,,,,,,,,,,,,,,,,,,,,,,,,,,,,,color11,001,2019_Dec_06_1558,ProdSingRedo,3.2.4,59.9685182289878,
14,0,14,0,,,,,,,,,,,,,,,,,,,,,,,,,,,,399.8911613137461,None,answer,sing,blue,13,8,397.89050945290364,None,None,397.89050945290364,None,,,,,,,,,,,,,,,,,,,,,,,,,,,,,,,,,color11,001,2019_Dec_06_1558,ProdSingRedo,3.2.4,59.9685182289878,
15,0,15,0,,,,,,,,,,,,,,,,,,,,,,,,,,,,402.4085973482579,None,beginning,sing,blue,16,19,400.41138766123913,None,None,400.41138766123913,None,,,,,,,,,,,,,,,,,,,,,,,,,,,,,,,,,color11,001,2019_Dec_06_1558,ProdSingRedo,3.2.4,59.9685182289878,
16,0,16,0,,,,,,,,,,,,,,,,,,,,,,,,,,,,404.926028406946,None,election,aloud,yellow,37,109,402.9253855650313,None,None,402.9253855650313,None,,,,,,,,,,,,,,,,,,,,,,,,,,,,,,,,,color11,001,2019_Dec_06_1558,ProdSingRedo,3.2.4,59.9685182289878,
17,0,17,0,,,,,,,,,,,,,,,,,,,,,,,,,,,,407.44348465674557,None,foundation,aloud,yellow,50,132,405.4427982745692,None,None,405.4427982745692,None,,,,,,,,,,,,,,,,,,,,,,,,,,,,,,,,,color11,001,2019_Dec_06_1558,ProdSingRedo,3.2.4,59.9685182289878,
18,0,18,0,,,,,,,,,,,,,,,,,,,,,,,,,,,,409.96091416012496,None,drink,aloud,yellow,56,105,407.96031050477177,None,None,407.96031050477177,None,,,,,,,,,,,,,,,,,,,,,,,,,,,,,,,,,color11,001,2019_Dec_06_1558,ProdSingRedo,3.2.4,59.9685182289878,
19,0,19,0,,,,,,,,,,,,,,,,,,,,,,,,,,,,412.4783455298748,None,department,sing,blue,9,90,410.4776308464352,None,None,410.4776308464352,None,,,,,,,,,,,,,,,,,,,,,,,,,,,,,,,,,color11,001,2019_Dec_06_1558,ProdSingRedo,3.2.4,59.9685182289878,
20,0,20,0,,,,,,,,,,,,,,,,,,,,,,,,,,,,414.99576912424527,None,burden,aloud,yellow,46,36,412.9950018816162,None,None,412.9950018816162,None,,,,,,,,,,,,,,,,,,,,,,,,,,,,,,,,,color11,001,2019_Dec_06_1558,ProdSingRedo,3.2.4,59.9685182289878,
21,0,21,0,,,,,,,,,,,,,,,,,,,,,,,,,,,,417.5132113788277,None,grade,aloud,yellow,52,140,415.5125766231213,None,None,415.5125766231213,None,,,,,,,,,,,,,,,,,,,,,,,,,,,,,,,,,color11,001,2019_Dec_06_1558,ProdSingRedo,3.2.4,59.9685182289878,
22,0,22,0,,,,,,,,,,,,,,,,,,,,,,,,,,,,420.0306085383054,None,scale,silent,red,76,272,418.0299803134985,None,None,418.0299803134985,None,,,,,,,,,,,,,,,,,,,,,,,,,,,,,,,,,color11,001,2019_Dec_06_1558,ProdSingRedo,3.2.4,59.9685182289878,
23,0,23,0,,,,,,,,,,,,,,,,,,,,,,,,,,,,422.5481080173049,None,series,silent,red,89,279,420.5474542903248,None,None,420.5474542903248,None,,,,,,,,,,,,,,,,,,,,,,,,,,,,,,,,,color11,001,2019_Dec_06_1558,ProdSingRedo,3.2.4,59.9685182289878,
24,0,24,0,,,,,,,,,,,,,,,,,,,,,,,,,,,,425.0655558700673,None,native,sing,blue,18,199,423.0647242497653,None,None,423.0647242497653,None,,,,,,,,,,,,,,,,,,,,,,,,,,,,,,,,,color11,001,2019_Dec_06_1558,ProdSingRedo,3.2.4,59.9685182289878,
25,0,25,0,,,,,,,,,,,,,,,,,,,,,,,,,,,,427.5829611152876,None,block,silent,red,69,25,425.5822072457522,None,None,425.5822072457522,None,,,,,,,,,,,,,,,,,,,,,,,,,,,,,,,,,color11,001,2019_Dec_06_1558,ProdSingRedo,3.2.4,59.9685182289878,
26,0,26,0,,,,,,,,,,,,,,,,,,,,,,,,,,,,430.1004282501526,None,surface,sing,blue,24,316,428.09975493024103,None,None,428.09975493024103,None,,,,,,,,,,,,,,,,,,,,,,,,,,,,,,,,,color11,001,2019_Dec_06_1558,ProdSingRedo,3.2.4,59.9685182289878,
27,0,27,0,,,,,,,,,,,,,,,,,,,,,,,,,,,,432.61785308877006,None,center,sing,blue,3,44,430.6171872327104,None,None,430.6171872327104,None,,,,,,,,,,,,,,,,,,,,,,,,,,,,,,,,,color11,001,2019_Dec_06_1558,ProdSingRedo,3.2.4,59.9685182289878,
28,0,28,0,,,,,,,,,,,,,,,,,,,,,,,,,,,,435.13528725737706,None,measure,aloud,yellow,55,184,433.1246108582709,None,None,433.1246108582709,None,,,,,,,,,,,,,,,,,,,,,,,,,,,,,,,,,color11,001,2019_Dec_06_1558,ProdSingRedo,3.2.4,59.9685182289878,
29,0,29,0,,,,,,,,,,,,,,,,,,,,,,,,,,,,437.65271178469993,None,drama,sing,blue,21,103,435.6520779619459,None,None,435.6520779619459,None,,,,,,,,,,,,,,,,,,,,,,,,,,,,,,,,,color11,001,2019_Dec_06_1558,ProdSingRedo,3.2.4,59.9685182289878,
30,0,30,0,,,,,,,,,,,,,,,,,,,,,,,,,,,,440.17016274738126,None,carry,sing,blue,1,43,438.16949502541684,None,None,438.16949502541684,None,,,,,,,,,,,,,,,,,,,,,,,,,,,,,,,,,color11,001,2019_Dec_06_1558,ProdSingRedo,3.2.4,59.9685182289878,
31,0,31,0,,,,,,,,,,,,,,,,,,,,,,,,,,,,442.6875885189511,None,novel,silent,red,75,202,440.6869366581086,None,None,440.6869366581086,None,,,,,,,,,,,,,,,,,,,,,,,,,,,,,,,,,color11,001,2019_Dec_06_1558,ProdSingRedo,3.2.4,59.9685182289878,
32,0,32,0,,,,,,,,,,,,,,,,,,,,,,,,,,,,445.2048690523952,None,audience,silent,red,65,14,443.2043419035617,None,None,443.2043419035617,None,,,,,,,,,,,,,,,,,,,,,,,,,,,,,,,,,color11,001,2019_Dec_06_1558,ProdSingRedo,3.2.4,59.9685182289878,
33,0,33,0,,,,,,,,,,,,,,,,,,,,,,,,,,,,447.7224879565183,None,volume,aloud,yellow,39,349,445.7217225795612,None,None,445.7217225795612,None,,,,,,,,,,,,,,,,,,,,,,,,,,,,,,,,,color11,001,2019_Dec_06_1558,ProdSingRedo,3.2.4,59.9685182289878,
34,0,34,0,,,,,,,,,,,,,,,,,,,,,,,,,,,,450.2399289670866,None,produce,sing,blue,23,239,448.2391617242247,None,None,448.2391617242247,None,,,,,,,,,,,,,,,,,,,,,,,,,,,,,,,,,color11,001,2019_Dec_06_1558,ProdSingRedo,3.2.4,59.9685182289878,
35,0,35,0,,,,,,,,,,,,,,,,,,,,,,,,,,,,452.7573662456125,None,nature,aloud,yellow,38,200,450.7566985236481,None,None,450.7566985236481,None,,,,,,,,,,,,,,,,,,,,,,,,,,,,,,,,,color11,001,2019_Dec_06_1558,ProdSingRedo,3.2.4,59.9685182289878,
36,0,36,0,,,,,,,,,,,,,,,,,,,,,,,,,,,,455.2748013471719,None,state,sing,blue,29,303,453.27414108929224,None,None,453.27414108929224,None,,,,,,,,,,,,,,,,,,,,,,,,,,,,,,,,,color11,001,2019_Dec_06_1558,ProdSingRedo,3.2.4,59.9685182289878,
37,0,37,0,,,,,,,,,,,,,,,,,,,,,,,,,,,,457.79224484600127,None,mechanical,silent,red,77,185,455.7914713830687,None,None,455.7914713830687,None,,,,,,,,,,,,,,,,,,,,,,,,,,,,,,,,,color11,001,2019_Dec_06_1558,ProdSingRedo,3.2.4,59.9685182289878,
38,0,38,0,,,,,,,,,,,,,,,,,,,,,,,,,,,,460.3096740383189,None,interview,silent,red,67,165,458.3088946666103,None,None,458.3088946666103,None,,,,,,,,,,,,,,,,,,,,,,,,,,,,,,,,,color11,001,2019_Dec_06_1558,ProdSingRedo,3.2.4,59.9685182289878,
39,0,39,0,,,,,,,,,,,,,,,,,,,,,,,,,,,,462.82708799187094,None,debate,sing,blue,0,87,460.82640316477045,None,None,460.82640316477045,None,,,,,,,,,,,,,,,,,,,,,,,,,,,,,,,,,color11,001,2019_Dec_06_1558,ProdSingRedo,3.2.4,59.9685182289878,
40,0,40,0,,,,,,,,,,,,,,,,,,,,,,,,,,,,465.3445324234199,None,citizen,aloud,yellow,32,50,463.3473246025387,None,None,463.3473246025387,None,,,,,,,,,,,,,,,,,,,,,,,,,,,,,,,,,color11,001,2019_Dec_06_1558,ProdSingRedo,3.2.4,59.9685182289878,
41,0,41,0,,,,,,,,,,,,,,,,,,,,,,,,,,,,467.86199458222836,None,service,aloud,yellow,40,280,465.8613498744089,None,None,465.8613498744089,None,,,,,,,,,,,,,,,,,,,,,,,,,,,,,,,,,color11,001,2019_Dec_06_1558,ProdSingRedo,3.2.4,59.9685182289878,
42,0,42,0,,,,,,,,,,,,,,,,,,,,,,,,,,,,470.3793805455789,None,congress,sing,blue,26,67,468.37876227288507,None,None,468.37876227288507,None,,,,,,,,,,,,,,,,,,,,,,,,,,,,,,,,,color11,001,2019_Dec_06_1558,ProdSingRedo,3.2.4,59.9685182289878,
43,0,43,0,,,,,,,,,,,,,,,,,,,,,,,,,,,,472.8968794026878,None,suggestion,silent,red,66,314,470.8962172786705,None,None,470.8962172786705,None,,,,,,,,,,,,,,,,,,,,,,,,,,,,,,,,,color11,001,2019_Dec_06_1558,ProdSingRedo,3.2.4,59.9685182289878,
44,0,44,0,,,,,,,,,,,,,,,,,,,,,,,,,,,,475.4143257003743,None,comedy,silent,red,64,58,473.4136589113623,None,None,473.4136589113623,None,,,,,,,,,,,,,,,,,,,,,,,,,,,,,,,,,color11,001,2019_Dec_06_1558,ProdSingRedo,3.2.4,59.9685182289878,
45,0,45,0,,,,,,,,,,,,,,,,,,,,,,,,,,,,477.93171073053963,None,portion,silent,red,78,228,475.9310874817893,None,None,475.9310874817893,None,,,,,,,,,,,,,,,,,,,,,,,,,,,,,,,,,color11,001,2019_Dec_06_1558,ProdSingRedo,3.2.4,59.9685182289878,
46,0,46,0,,,,,,,,,,,,,,,,,,,,,,,,,,,,480.4491871953942,None,bicycle,sing,blue,12,21,478.4483229198959,None,None,478.4483229198959,None,,,,,,,,,,,,,,,,,,,,,,,,,,,,,,,,,color11,001,2019_Dec_06_1558,ProdSingRedo,3.2.4,59.9685182289878,
47,0,47,0,,,,,,,,,,,,,,,,,,,,,,,,,,,,482.96662291907705,None,quantity,aloud,yellow,58,245,480.9671195896808,None,None,480.9671195896808,None,,,,,,,,,,,,,,,,,,,,,,,,,,,,,,,,,color11,001,2019_Dec_06_1558,ProdSingRedo,3.2.4,59.9685182289878,
48,0,48,0,,,,,,,,,,,,,,,,,,,,,,,,,,,,485.48407263774425,None,republic,silent,red,70,260,483.48336261929944,None,None,483.48336261929944,None,,,,,,,,,,,,,,,,,,,,,,,,,,,,,,,,,color11,001,2019_Dec_06_1558,ProdSingRedo,3.2.4,59.9685182289878,
49,0,49,0,,,,,,,,,,,,,,,,,,,,,,,,,,,,488.00149840908125,None,member,silent,red,87,188,486.00070659723133,None,None,486.00070659723133,None,,,,,,,,,,,,,,,,,,,,,,,,,,,,,,,,,color11,001,2019_Dec_06_1558,ProdSingRedo,3.2.4,59.9685182289878,
50,0,50,0,,,,,,,,,,,,,,,,,,,,,,,,,,,,490.5188787744846,None,vision,aloud,yellow,30,347,488.518154138932,None,None,488.518154138932,None,,,,,,,,,,,,,,,,,,,,,,,,,,,,,,,,,color11,001,2019_Dec_06_1558,ProdSingRedo,3.2.4,59.9685182289878,
51,0,51,0,,,,,,,,,,,,,,,,,,,,,,,,,,,,493.03633067011833,None,council,aloud,yellow,44,71,491.0356794311665,None,None,491.0356794311665,None,,,,,,,,,,,,,,,,,,,,,,,,,,,,,,,,,color11,001,2019_Dec_06_1558,ProdSingRedo,3.2.4,59.9685182289878,
52,0,52,0,,,,,,,,,,,,,,,,,,,,,,,,,,,,495.5538170870859,None,fellow,silent,red,80,126,493.54064987041056,None,None,493.54064987041056,None,,,,,,,,,,,,,,,,,,,,,,,,,,,,,,,,,color11,001,2019_Dec_06_1558,ProdSingRedo,3.2.4,59.9685182289878,
53,0,53,0,,,,,,,,,,,,,,,,,,,,,,,,,,,,498.0712630737107,None,dream,aloud,yellow,34,104,496.0705931747798,None,None,496.0705931747798,None,,,,,,,,,,,,,,,,,,,,,,,,,,,,,,,,,color11,001,2019_Dec_06_1558,ProdSingRedo,3.2.4,59.9685182289878,
54,0,54,0,,,,,,,,,,,,,,,,,,,,,,,,,,,,500.5886872902047,None,place,sing,blue,28,222,498.58804258238524,None,None,498.58804258238524,None,,,,,,,,,,,,,,,,,,,,,,,,,,,,,,,,,color11,001,2019_Dec_06_1558,ProdSingRedo,3.2.4,59.9685182289878,
55,0,55,0,,,,,,,,,,,,,,,,,,,,,,,,,,,,503.1061401190236,None,track,aloud,yellow,35,334,501.1054711530451,None,None,501.1054711530451,None,,,,,,,,,,,,,,,,,,,,,,,,,,,,,,,,,color11,001,2019_Dec_06_1558,ProdSingRedo,3.2.4,59.9685182289878,
56,0,56,0,,,,,,,,,,,,,,,,,,,,,,,,,,,,505.62356309150346,None,minor,sing,blue,6,191,503.6229134076275,None,None,503.6229134076275,None,,,,,,,,,,,,,,,,,,,,,,,,,,,,,,,,,color11,001,2019_Dec_06_1558,ProdSingRedo,3.2.4,59.9685182289878,
57,0,57,0,,,,,,,,,,,,,,,,,,,,,,,,,,,,508.140946255764,None,personnel,sing,blue,19,219,506.1403286049608,None,None,506.1403286049608,None,,,,,,,,,,,,,,,,,,,,,,,,,,,,,,,,,color11,001,2019_Dec_06_1558,ProdSingRedo,3.2.4,59.9685182289878,
58,0,58,0,,,,,,,,,,,,,,,,,,,,,,,,,,,,510.65848865313455,None,recall,silent,red,85,255,508.65779231884517,None,None,508.65779231884517,None,,,,,,,,,,,,,,,,,,,,,,,,,,,,,,,,,color11,001,2019_Dec_06_1558,ProdSingRedo,3.2.4,59.9685182289878,
59,0,59,0,,,,,,,,,,,,,,,,,,,,,,,,,,,,513.1758746162523,None,region,silent,red,63,256,511.1751984972507,None,None,511.1751984972507,None,,,,,,,,,,,,,,,,,,,,,,,,,,,,,,,,,color11,001,2019_Dec_06_1558,ProdSingRedo,3.2.4,59.9685182289878,
60,0,60,0,,,,,,,,,,,,,,,,,,,,,,,,,,,,515.6933044309262,None,number,aloud,yellow,48,203,513.6925446521491,None,None,513.6925446521491,None,,,,,,,,,,,,,,,,,,,,,,,,,,,,,,,,,color11,001,2019_Dec_06_1558,ProdSingRedo,3.2.4,59.9685182289878,
61,0,61,0,,,,,,,,,,,,,,,,,,,,,,,,,,,,518.210747618461,None,mankind,aloud,yellow,36,178,516.2098649938125,None,None,516.2098649938125,None,,,,,,,,,,,,,,,,,,,,,,,,,,,,,,,,,color11,001,2019_Dec_06_1558,ProdSingRedo,3.2.4,59.9685182289878,
62,0,62,0,,,,,,,,,,,,,,,,,,,,,,,,,,,,520.728153174743,None,minute,sing,blue,7,192,518.7275261941832,None,None,518.7275261941832,None,,,,,,,,,,,,,,,,,,,,,,,,,,,,,,,,,color11,001,2019_Dec_06_1558,ProdSingRedo,3.2.4,59.9685182289878,
63,0,63,0,,,,,,,,,,,,,,,,,,,,,,,,,,,,523.245570238214,None,harmony,sing,blue,17,148,521.2449805778451,None,None,521.2449805778451,None,,,,,,,,,,,,,,,,,,,,,,,,,,,,,,,,,color11,001,2019_Dec_06_1558,ProdSingRedo,3.2.4,59.9685182289878,
64,0,64,0,,,,,,,,,,,,,,,,,,,,,,,,,,,,525.7630762483459,None,crisis,sing,blue,8,79,523.7624094593339,None,None,523.7624094593339,None,,,,,,,,,,,,,,,,,,,,,,,,,,,,,,,,,color11,001,2019_Dec_06_1558,ProdSingRedo,3.2.4,59.9685182289878,
65,0,65,0,,,,,,,,,,,,,,,,,,,,,,,,,,,,528.2804301783908,None,quiet,silent,red,61,249,526.279852024978,None,None,526.279852024978,None,,,,,,,,,,,,,,,,,,,,,,,,,,,,,,,,,color11,001,2019_Dec_06_1558,ProdSingRedo,3.2.4,59.9685182289878,
66,0,66,0,,,,,,,,,,,,,,,,,,,,,,,,,,,,530.7979592026677,None,display,aloud,yellow,51,98,528.7972849495709,None,None,528.7972849495709,None,,,,,,,,,,,,,,,,,,,,,,,,,,,,,,,,,color11,001,2019_Dec_06_1558,ProdSingRedo,3.2.4,59.9685182289878,
67,0,67,0,,,,,,,,,,,,,,,,,,,,,,,,,,,,533.3153995913453,None,revolution,aloud,yellow,54,264,531.3149853362702,None,None,531.3149853362702,None,,,,,,,,,,,,,,,,,,,,,,,,,,,,,,,,,color11,001,2019_Dec_06_1558,ProdSingRedo,3.2.4,59.9685182289878,
68,0,68,0,,,,,,,,,,,,,,,,,,,,,,,,,,,,535.8328144778498,None,science,silent,red,73,275,533.8321458227001,None,None,533.8321458227001,None,,,,,,,,,,,,,,,,,,,,,,,,,,,,,,,,,color11,001,2019_Dec_06_1558,ProdSingRedo,3.2.4,59.9685182289878,
69,0,69,0,,,,,,,,,,,,,,,,,,,,,,,,,,,,538.3502598423511,None,religion,silent,red,68,258,536.3496201105881,None,None,536.3496201105881,None,,,,,,,,,,,,,,,,,,,,,,,,,,,,,,,,,color11,001,2019_Dec_06_1558,ProdSingRedo,3.2.4,59.9685182289878,
70,0,70,0,,,,,,,,,,,,,,,,,,,,,,,,,,,,540.8676862360444,None,cross,sing,blue,5,80,538.8670281551313,None,None,538.8670281551313,None,,,,,,,,,,,,,,,,,,,,,,,,,,,,,,,,,color11,001,2019_Dec_06_1558,ProdSingRedo,3.2.4,59.9685182289878,
71,0,71,0,,,,,,,,,,,,,,,,,,,,,,,,,,,,543.3851169834379,None,smell,aloud,yellow,59,291,541.3844884478021,None,None,541.3844884478021,None,,,,,,,,,,,,,,,,,,,,,,,,,,,,,,,,,color11,001,2019_Dec_06_1558,ProdSingRedo,3.2.4,59.9685182289878,
72,0,72,0,,,,,,,,,,,,,,,,,,,,,,,,,,,,545.9025663912762,None,cousin,sing,blue,27,76,543.9019070663489,None,None,543.9019070663489,None,,,,,,,,,,,,,,,,,,,,,,,,,,,,,,,,,color11,001,2019_Dec_06_1558,ProdSingRedo,3.2.4,59.9685182289878,
73,0,73,0,,,,,,,,,,,,,,,,,,,,,,,,,,,,548.4198565657716,None,guard,aloud,yellow,49,145,546.4193549188785,None,None,546.4193549188785,None,,,,,,,,,,,,,,,,,,,,,,,,,,,,,,,,,color11,001,2019_Dec_06_1558,ProdSingRedo,3.2.4,59.9685182289878,
74,0,74,0,,,,,,,,,,,,,,,,,,,,,,,,,,,,550.920524287736,None,force,silent,red,71,131,548.9198830008972,None,None,548.9198830008972,None,,,,,,,,,,,,,,,,,,,,,,,,,,,,,,,,,color11,001,2019_Dec_06_1558,ProdSingRedo,3.2.4,59.9685182289878,
75,0,75,0,,,,,,,,,,,,,,,,,,,,,,,,,,,,553.4212538991123,None,running,sing,blue,14,268,551.4206639276817,None,None,551.4206639276817,None,,,,,,,,,,,,,,,,,,,,,,,,,,,,,,,,,color11,001,2019_Dec_06_1558,ProdSingRedo,3.2.4,59.9685182289878,
76,0,76,0,,,,,,,,,,,,,,,,,,,,,,,,,,,,555.9389791658614,None,trial,sing,blue,20,341,553.9262498405296,None,None,553.9262498405296,None,,,,,,,,,,,,,,,,,,,,,,,,,,,,,,,,,color11,001,2019_Dec_06_1558,ProdSingRedo,3.2.4,59.9685182289878,
77,0,77,0,,,,,,,,,,,,,,,,,,,,,,,,,,,,558.4562369962223,None,month,sing,blue,11,193,556.4557409475092,None,None,556.4557409475092,None,,,,,,,,,,,,,,,,,,,,,,,,,,,,,,,,,color11,001,2019_Dec_06_1558,ProdSingRedo,3.2.4,59.9685182289878,
78,0,78,0,,,,,,,,,,,,,,,,,,,,,,,,,,,,560.9738422159571,None,patient,aloud,yellow,41,213,558.973215546459,None,None,558.973215546459,None,,,,,,,,,,,,,,,,,,,,,,,,,,,,,,,,,color11,001,2019_Dec_06_1558,ProdSingRedo,3.2.4,59.9685182289878,
79,0,79,0,,,,,,,,,,,,,,,,,,,,,,,,,,,,563.491295044776,None,distance,sing,blue,22,100,561.4905710313469,None,None,561.4905710313469,None,,,,,,,,,,,,,,,,,,,,,,,,,,,,,,,,,color11,001,2019_Dec_06_1558,ProdSingRedo,3.2.4,59.9685182289878,
80,0,80,0,,,,,,,,,,,,,,,,,,,,,,,,,,,,566.0087096202187,None,childhood,silent,red,86,49,564.0080204389524,None,None,564.0080204389524,None,,,,,,,,,,,,,,,,,,,,,,,,,,,,,,,,,color11,001,2019_Dec_06_1558,ProdSingRedo,3.2.4,59.9685182289878,
81,0,81,0,,,,,,,,,,,,,,,,,,,,,,,,,,,,568.526189195225,None,history,silent,red,83,153,566.5254123113118,None,None,566.5254123113118,None,,,,,,,,,,,,,,,,,,,,,,,,,,,,,,,,,color11,001,2019_Dec_06_1558,ProdSingRedo,3.2.4,59.9685182289878,
82,0,82,0,,,,,,,,,,,,,,,,,,,,,,,,,,,,571.0436358037405,None,height,aloud,yellow,33,152,569.0429183214437,None,None,569.0429183214437,None,,,,,,,,,,,,,,,,,,,,,,,,,,,,,,,,,color11,001,2019_Dec_06_1558,ProdSingRedo,3.2.4,59.9685182289878,
83,0,83,0,,,,,,,,,,,,,,,,,,,,,,,,,,,,573.5610460252501,None,fashion,aloud,yellow,31,125,571.5604094034061,None,None,571.5604094034061,None,,,,,,,,,,,,,,,,,,,,,,,,,,,,,,,,,color11,001,2019_Dec_06_1558,ProdSingRedo,3.2.4,59.9685182289878,
84,0,84,0,,,,,,,,,,,,,,,,,,,,,,,,,,,,576.0784839258995,None,literature,silent,red,72,173,574.0777443621773,None,None,574.0777443621773,None,,,,,,,,,,,,,,,,,,,,,,,,,,,,,,,,,color11,001,2019_Dec_06_1558,ProdSingRedo,3.2.4,59.9685182289878,
85,0,85,0,,,,,,,,,,,,,,,,,,,,,,,,,,,,578.5959031663369,None,general,silent,red,79,135,576.5951844397932,None,None,576.5951844397932,None,,,,,,,,,,,,,,,,,,,,,,,,,,,,,,,,,color11,001,2019_Dec_06_1558,ProdSingRedo,3.2.4,59.9685182289878,
86,0,86,0,,,,,,,,,,,,,,,,,,,,,,,,,,,,581.1133183636703,None,bitter,silent,red,84,23,579.1126151874196,None,None,579.1126151874196,None,,,,,,,,,,,,,,,,,,,,,,,,,,,,,,,,,color11,001,2019_Dec_06_1558,ProdSingRedo,3.2.4,59.9685182289878,
87,0,87,0,,,,,,,,,,,,,,,,,,,,,,,,,,,,583.6305948542431,None,exchange,sing,blue,2,121,581.6301647378132,None,None,581.6301647378132,None,,,,,,,,,,,,,,,,,,,,,,,,,,,,,,,,,color11,001,2019_Dec_06_1558,ProdSingRedo,3.2.4,59.9685182289878,
88,0,88,0,,,,,,,,,,,,,,,,,,,,,,,,,,,,586.1482436142396,None,testimony,aloud,yellow,53,325,584.1473979989532,None,None,584.1473979989532,None,,,,,,,,,,,,,,,,,,,,,,,,,,,,,,,,,color11,001,2019_Dec_06_1558,ProdSingRedo,3.2.4,59.9685182289878,
89,0,89,0,,,,,,,,,,,,,,,,,,,,,,,,,,,,588.6656578788534,None,master,silent,red,74,180,586.6650343190413,None,None,586.6650343190413,None,,,,,,,,,,,,,,,,,,,,,,,,,,,,,,,,,color11,001,2019_Dec_06_1558,ProdSingRedo,3.2.4,59.9685182289878,
,,,,,,,,,,,,,,,,,,,,,,,,,,,,,,,,,,,,,,,,,,,589.1658108918928,None,k,82.39541240478866,589.1658108918928,None,,,,,,,,,,,,,,,,,,,,,,,,,,,color11,001,2019_Dec_06_1558,ProdSingRedo,3.2.4,59.9685182289878,
,,,,0,0,0,0,,,,,,,,,,,,,,,,,,,,,,,,684.7487066967878,None,,,,,,,,,,,,,,,,,minute,sing,blue,0,7,192,672.1101896802429,None,672.1101896802429,None,6,9.786350107751787,672.1101896802429,None,681.9506563704927,None,682.4678914975375,None,682.4678914975375,None,f,2.260493685025722,682.4678914975375,None,,,color11,001,2019_Dec_06_1558,ProdSingRedo,3.2.4,59.9685182289878,
,,,,1,0,1,0,,,,,,,,,,,,,,,,,,,,,,,,697.5822417668533,None,,,,,,,,,,,,,,,,,finish,new_silent,red,1,177,130,685.2784419404343,None,685.2784419404343,None,6,9.241818617098033,685.2784419404343,None,694.5647391779348,None,695.0815538298339,None,695.0815538298339,None,f,2.4620129314716905,695.0815538298339,None,,,color11,001,2019_Dec_06_1558,ProdSingRedo,3.2.4,59.9685182289878,
,,,,2,0,2,0,,,,,,,,,,,,,,,,,,,,,,,,705.301383338403,None,,,,,,,,,,,,,,,,,smell,aloud,yellow,2,59,291,698.0992010349873,None,698.0992010349873,None,2,3.9407422381918877,698.0992010349873,None,702.0682609681971,None,702.6005315028597,None,702.6005315028597,None,r,2.6627929252572358,702.6005315028597,None,,,color11,001,2019_Dec_06_1558,ProdSingRedo,3.2.4,59.9685182289878,
,,,,3,0,3,0,,,,,,,,,,,,,,,,,,,,,,,,715.804581375327,None,,,,,,,,,,,,,,,,,number,aloud,yellow,3,48,203,705.8211904547643,None,705.8211904547643,None,6,6.906590450555086,705.8211904547643,None,712.7729359553196,None,713.287167110946,None,713.287167110946,None,n,2.471287020947784,713.287167110946,None,,,color11,001,2019_Dec_06_1558,ProdSingRedo,3.2.4,59.9685182289878,
,,,,4,0,4,0,,,,,,,,,,,,,,,,,,,,,,,,720.5894293417223,None,,,,,,,,,,,,,,,,,testimony,aloud,yellow,4,53,325,716.3110551997088,None,716.3110551997088,None,6,2.36840558424592,716.3110551997088,None,718.7387981626671,None,719.2388703150209,None,719.2388703150209,None,f,1.3032969357445836,719.2388703150209,None,,,color11,001,2019_Dec_06_1558,ProdSingRedo,3.2.4,59.9685182289878,
,,,,5,0,5,0,,,,,,,,,,,,,,,,,,,,,,,,725.4742275478784,None,,,,,,,,,,,,,,,,,weather,new_sing,blue,5,106,352,721.1060667224228,None,721.1060667224228,None,1,1.5001439941115677,721.1060667224228,None,722.6416245517321,None,723.1568798380904,None,723.1568798380904,None,n,2.2809927815105766,723.1568798380904,None,,,color11,001,2019_Dec_06_1558,ProdSingRedo,3.2.4,59.9685182289878,
,,,,6,0,6,0,,,,,,,,,,,,,,,,,,,,,,,,732.1595050087199,None,,,,,,,,,,,,,,,,,fashion,aloud,yellow,6,31,125,725.9909551192541,None,725.9909551192541,None,3,3.366908419178799,725.9909551192541,None,729.392027766211,None,729.9088959107175,None,729.9088959107175,None,f,2.216731614433229,729.9088959107175,None,,,color11,001,2019_Dec_06_1558,ProdSingRedo,3.2.4,59.9685182289878,
,,,,7,0,7,0,,,,,,,,,,,,,,,,,,,,,,,,736.9110626638867,None,,,,,,,,,,,,,,,,,track,aloud,yellow,7,35,334,732.6774212308228,None,732.6774212308228,None,6,1.879974870942533,732.6774212308228,None,734.5998846180737,None,735.1104331950191,None,735.1104331950191,None,f,1.7511054577771574,735.1104331950191,None,,,color11,001,2019_Dec_06_1558,ProdSingRedo,3.2.4,59.9685182289878,
,,,,8,0,8,0,,,,,,,,,,,,,,,,,,,,,,,,741.2655829272699,None,,,,,,,,,,,,,,,,,election,aloud,yellow,8,37,109,737.427922722185,None,737.427922722185,None,6,2.169151368085295,737.427922722185,None,739.646580995759,None,740.1620822849218,None,740.1620822849218,None,f,1.0829807084519416,740.1620822849218,None,,,color11,001,2019_Dec_06_1558,ProdSingRedo,3.2.4,59.9685182289878,
,,,,9,0,9,0,,,,,,,,,,,,,,,,,,,,,,,,754.6998967472464,None,,,,,,,,,,,,,,,,,general,silent,red,9,79,135,741.7807716589887,None,741.7807716589887,None,6,2.2082316097803414,741.7807716589887,None,744.0312579111196,None,744.5467430280987,None,744.5467430280987,None,r,10.11347324308008,744.5467430280987,None,,,color11,001,2019_Dec_06_1558,ProdSingRedo,3.2.4,59.9685182289878,
,,,,10,0,10,0,,,,,,,,,,,,,,,,,,,,,,,,758.0342435333878,None,,,,,,,,,,,,,,,,,estate,aloud,yellow,10,57,119,755.2166974039283,None,755.2166974039283,None,6,1.8115033542271703,755.2166974039283,None,757.0695454077795,None,757.5840745037422,None,757.5840745037422,None,r,0.41180689237080514,757.5840745037422,None,,,color11,001,2019_Dec_06_1558,ProdSingRedo,3.2.4,59.9685182289878,
,,,,11,0,11,0,,,,,,,,,,,,,,,,,,,,,,,,764.5528856350575,None,,,,,,,,,,,,,,,,,hunger,new_sing,blue,11,93,155,758.5510211761575,None,758.5510211761575,None,1,2.0127520284149796,758.5510211761575,None,760.6060856934637,None,761.1184088499285,None,761.1184088499285,None,n,3.3970594729762524,761.1184088499285,None,,,color11,001,2019_Dec_06_1558,ProdSingRedo,3.2.4,59.9685182289878,
,,,,12,0,12,0,,,,,,,,,,,,,,,,,,,,,,,,769.6877816515043,None,,,,,,,,,,,,,,,,,guard,aloud,yellow,12,49,145,765.0697366741952,None,765.0697366741952,None,6,2.8295816087629646,765.0697366741952,None,767.9408532660455,None,768.4444789311383,None,768.4444789311383,None,r,1.1999430863652378,768.4444789311383,None,,,color11,001,2019_Dec_06_1558,ProdSingRedo,3.2.4,59.9685182289878,
,,,,13,0,13,0,,,,,,,,,,,,,,,,,,,,,,,,772.0051778778434,None,,,,,,,,,,,,,,,,,crisis,sing,blue,13,8,79,770.2046370448079,None,770.2046370448079,None,6,0.8708059003110975,770.2046370448079,None,771.1105607061181,None,771.6382843868341,None,771.6382843868341,None,r,0.3251246341969818,771.6382843868341,None,,,color11,001,2019_Dec_06_1558,ProdSingRedo,3.2.4,59.9685182289878,
,,,,14,0,14,0,,,,,,,,,,,,,,,,,,,,,,,,778.1903782098088,None,,,,,,,,,,,,,,,,,touch,new_sing,blue,14,97,332,772.5217906890903,None,772.5217906890903,None,1,2.9050696489866823,772.5217906890903,None,775.4769111869391,None,775.9897630473133,None,775.9897630473133,None,f,2.1580364557448775,775.9897630473133,None,,,color11,001,2019_Dec_06_1558,ProdSingRedo,3.2.4,59.9685182289878,
,,,,15,0,15,0,,,,,,,,,,,,,,,,,,,,,,,,783.8920523354318,None,,,,,,,,,,,,,,,,,executive,new_silent,red,15,152,122,778.7088523702696,None,778.7088523702696,None,1,3.7657088830601424,778.7088523702696,None,782.5130403276999,None,783.0251939876471,None,783.0251939876471,None,n,0.8252123368438333,783.0251939876471,None,,,color11,001,2019_Dec_06_1558,ProdSingRedo,3.2.4,59.9685182289878,
,,,,16,0,16,0,,,,,,,,,,,,,,,,,,,,,,,,788.160099956207,None,,,,,,,,,,,,,,,,,block,silent,red,16,69,25,784.4097007845994,None,784.4097007845994,None,1,1.712404017103836,784.4097007845994,None,786.1664624416735,None,786.6762070776895,None,786.6762070776895,None,n,1.4458619584329426,786.6762070776895,None,,,color11,001,2019_Dec_06_1558,ProdSingRedo,3.2.4,59.9685182289878,
,,,,17,0,17,0,,,,,,,,,,,,,,,,,,,,,,,,793.2950276946649,None,,,,,,,,,,,,,,,,,gesture,new_silent,red,17,159,137,788.676828771364,None,788.676828771364,None,5,2.8050898641813546,788.676828771364,None,791.5276642790996,None,792.04456134676,None,792.04456134676,None,f,1.2132527423091233,792.04456134676,None,,,color11,001,2019_Dec_06_1558,ProdSingRedo,3.2.4,59.9685182289878,
,,,,18,0,18,0,,,,,,,,,,,,,,,,,,,,,,,,798.5466699425597,None,,,,,,,,,,,,,,,,,tough,new_sing,blue,18,104,333,793.8116992856376,None,793.8116992856376,None,2,2.2698669843375683,793.8116992856376,None,796.1291430953424,None,796.6460323878564,None,796.6460323878564,None,n,1.8675792512949556,796.6460323878564,None,,,color11,001,2019_Dec_06_1558,ProdSingRedo,3.2.4,59.9685182289878,
,,,,19,0,19,0,,,,,,,,,,,,,,,,,,,,,,,,802.701638360275,None,,,,,,,,,,,,,,,,,travel,new_silent,red,19,176,338,799.0657499353401,None,799.0657499353401,None,3,1.6795721228700131,799.0657499353401,None,800.784768038895,None,801.297459732974,None,801.297459732974,None,f,1.3836562056094408,801.297459732974,None,,,color11,001,2019_Dec_06_1558,ProdSingRedo,3.2.4,59.9685182289878,
,,,,20,0,20,0,,,,,,,,,,,,,,,,,,,,,,,,809.4333329186775,None,,,,,,,,,,,,,,,,,drama,sing,blue,20,21,103,803.2314261633437,None,803.2314261633437,None,6,1.6659166326280683,803.2314261633437,None,804.9320522111375,None,805.4487356198952,None,805.4487356198952,None,r,3.952070498140529,805.4487356198952,None,,,color11,001,2019_Dec_06_1558,ProdSingRedo,3.2.4,59.9685182289878,
,,,,21,0,21,0,,,,,,,,,,,,,,,,,,,,,,,,813.0231628315523,None,,,,,,,,,,,,,,,,,build,new_aloud,yellow,21,121,35,809.9506252701394,None,809.9506252701394,None,6,1.6262501515448093,809.9506252701394,None,811.6240603842307,None,812.1341343715321,None,812.1341343715321,None,r,0.866537704365328,812.1341343715321,None,,,color11,001,2019_Dec_06_1558,ProdSingRedo,3.2.4,59.9685182289878,
,,,,22,0,22,0,,,,,,,,,,,,,,,,,,,,,,,,815.7686158218421,None,,,,,,,,,,,,,,,,,individual,new_silent,red,22,151,160,813.5550458573271,None,813.5550458573271,None,6,1.2295324699953198,813.5550458573271,None,814.8221834851429,None,815.3350331683178,None,815.3350331683178,None,r,0.3931439535226673,815.3350331683178,None,,,color11,001,2019_Dec_06_1558,ProdSingRedo,3.2.4,59.9685182289878,
,,,,23,0,23,0,,,,,,,,,,,,,,,,,,,,,,,,820.4032792085782,None,,,,,,,,,,,,,,,,,member,silent,red,23,87,188,816.2859871680848,None,816.2859871680848,None,4,2.282422459218651,816.2859871680848,None,818.6067792286631,None,819.1194905159064,None,819.1194905159064,None,f,1.2414886439219117,819.1194905159064,None,,,color11,001,2019_Dec_06_1558,ProdSingRedo,3.2.4,59.9685182289878,
,,,,24,0,24,0,,,,,,,,,,,,,,,,,,,,,,,,825.2047630005982,None,,,,,,,,,,,,,,,,,season,new_aloud,yellow,24,132,277,820.9200730232988,None,820.9200730232988,None,4,2.3279336073901504,820.9200730232988,None,823.2873984966427,None,823.7941668403801,None,823.7941668403801,None,f,1.373586572241038,823.7941668403801,None,,,color11,001,2019_Dec_06_1558,ProdSingRedo,3.2.4,59.9685182289878,
,,,,25,0,25,0,,,,,,,,,,,,,,,,,,,,,,,,830.0063068161253,None,,,,,,,,,,,,,,,,,trial,sing,blue,25,20,341,825.7231283101719,None,825.7231283101719,None,6,1.580635751131922,825.7231283101719,None,827.3427065289579,None,827.8556414267514,None,827.8556414267514,None,r,2.103818175615743,827.8556414267514,None,,,color11,001,2019_Dec_06_1558,ProdSingRedo,3.2.4,59.9685182289878,
,,,,26,0,26,0,,,,,,,,,,,,,,,,,,,,,,,,832.6904718216974,None,,,,,,,,,,,,,,,,,edition,new_aloud,yellow,26,145,107,830.5229980002623,None,830.5229980002623,None,6,1.3086004585493356,830.5229980002623,None,831.873470568331,None,832.3903729228768,None,832.3903729228768,None,r,0.2650554671417922,832.3903729228768,None,,,color11,001,2019_Dec_06_1558,ProdSingRedo,3.2.4,59.9685182289878,
,,,,27,0,27,0,,,,,,,,,,,,,,,,,,,,,,,,836.1141580699477,None,,,,,,,,,,,,,,,,,detective,new_silent,red,27,178,92,833.2070569538046,None,833.2070569538046,None,6,1.0882621502969414,833.2070569538046,None,834.3469902749639,None,834.8576302865986,None,834.8576302865986,None,r,1.2218354735523462,834.8576302865986,None,,,color11,001,2019_Dec_06_1558,ProdSingRedo,3.2.4,59.9685182289878,
,,,,28,0,28,0,,,,,,,,,,,,,,,,,,,,,,,,839.1151305742096,None,,,,,,,,,,,,,,,,,carry,sing,blue,28,1,43,836.6417209624778,None,836.6417209624778,None,6,1.0218404494225979,836.6417209624778,None,837.7085093345959,None,838.2254941049032,None,838.2254941049032,None,r,0.8534127839375287,838.2254941049032,None,,,color11,001,2019_Dec_06_1558,ProdSingRedo,3.2.4,59.9685182289878,
,,,,29,0,29,0,,,,,,,,,,,,,,,,,,,,,,,,844.9275460983627,None,,,,,,,,,,,,,,,,,generation,new_sing,blue,29,98,136,839.6425046883523,None,839.6425046883523,None,3,4.668212763033807,839.6425046883523,None,844.3468089606613,None,844.8608109075576,None,844.8608109075576,None,n,0.026050799060612917,844.8608109075576,None,,,color11,001,2019_Dec_06_1558,ProdSingRedo,3.2.4,59.9685182289878,
,,,,30,0,30,0,,,,,,,,,,,,,,,,,,,,,,,,849.645607247483,None,,,,,,,,,,,,,,,,,appeal,new_silent,red,30,150,9,845.4442170672119,None,845.4442170672119,None,2,1.7068600892089307,845.4442170672119,None,847.198219511658,None,847.7117076825816,None,847.7117076825816,None,n,1.8948423373512924,847.7117076825816,None,,,color11,001,2019_Dec_06_1558,ProdSingRedo,3.2.4,59.9685182289878,
,,,,31,0,31,0,,,,,,,,,,,,,,,,,,,,,,,,854.330151053844,None,,,,,,,,,,,,,,,,,region,silent,red,31,63,256,850.1624775689561,None,850.1624775689561,None,3,2.1406986978836358,850.1624775689561,None,852.3464139876887,None,852.8633067011833,None,852.8633067011833,None,f,1.4397358344867826,852.8633067011833,None,,,color11,001,2019_Dec_06_1558,ProdSingRedo,3.2.4,59.9685182289878,
,,,,32,0,32,0,,,,,,,,,,,,,,,,,,,,,,,,858.8651490788907,None,,,,,,,,,,,,,,,,,smooth,new_aloud,yellow,32,148,292,854.8472415648866,None,854.8472415648866,None,4,2.4466292012948543,854.8472415648866,None,857.335540413158,None,857.8481699067634,None,857.8481699067634,None,f,0.9745251771528274,857.8481699067634,None,,,color11,001,2019_Dec_06_1558,ProdSingRedo,3.2.4,59.9685182289878,
,,,,33,0,33,0,,,,,,,,,,,,,,,,,,,,,,,,863.8333481578156,None,,,,,,,,,,,,,,,,,harmony,sing,blue,33,17,148,859.3832945099566,None,859.3832945099566,None,6,2.3424838511273265,859.3832945099566,None,861.7688845279627,None,862.2828454223927,None,862.2828454223927,None,r,1.5146444775164127,862.2828454223927,None,,,color11,001,2019_Dec_06_1558,ProdSingRedo,3.2.4,59.9685182289878,
,,,,34,0,34,0,,,,,,,,,,,,,,,,,,,,,,,,868.1846280877944,None,,,,,,,,,,,,,,,,,group,sing,blue,34,4,143,864.3501606327482,None,864.3501606327482,None,4,2.1273510998580605,864.3501606327482,None,866.5214044242166,None,867.0343362120911,None,867.0343362120911,None,r,1.1079846736975014,867.0343362120911,None,,,color11,001,2019_Dec_06_1558,ProdSingRedo,3.2.4,59.9685182289878,
,,,,35,0,35,0,,,,,,,,,,,,,,,,,,,,,,,,874.8367097820155,None,,,,,,,,,,,,,,,,,recall,silent,red,35,85,255,868.7014847251121,None,868.7014847251121,None,4,4.239740499528125,868.7014847251121,None,872.9872028760146,None,873.5029719383456,None,873.5029719383456,None,r,1.285839131101966,873.5029719383456,None,,,color11,001,2019_Dec_06_1558,ProdSingRedo,3.2.4,59.9685182289878,
,,,,36,0,36,0,,,,,,,,,,,,,,,,,,,,,,,,880.6551596841309,None,,,,,,,,,,,,,,,,,turkey,new_aloud,yellow,36,139,342,875.3541532806121,None,875.3541532806121,None,1,3.7461829129606485,875.3541532806121,None,879.1231911326759,None,879.6548182035331,None,879.6548182035331,None,n,0.9579226288478822,879.6548182035331,None,,,color11,001,2019_Dec_06_1558,ProdSingRedo,3.2.4,59.9685182289878,
,,,,37,0,37,0,,,,,,,,,,,,,,,,,,,,,,,,885.4566120649688,None,,,,,,,,,,,,,,,,,personnel,sing,blue,37,19,219,881.1718480691779,None,881.1718480691779,None,6,2.2413707738742232,881.1718480691779,None,883.4579894943163,None,883.9728295924142,None,883.9728295924142,None,r,1.4472655118443072,883.9728295924142,None,,,color11,001,2019_Dec_06_1558,ProdSingRedo,3.2.4,59.9685182289878,
,,,,38,0,38,0,,,,,,,,,,,,,,,,,,,,,,,,890.341391610913,None,,,,,,,,,,,,,,,,,level,new_sing,blue,38,117,170,885.9731959532946,None,885.9731959532946,None,6,2.3756982779596,885.9731959532946,None,888.4075228353031,None,888.9075492704287,None,888.9075492704287,None,r,1.3842116557061672,888.9075492704287,None,,,color11,001,2019_Dec_06_1558,ProdSingRedo,3.2.4,59.9685182289878,
,,,,39,0,39,0,,,,,,,,,,,,,,,,,,,,,,,,895.15956658707,None,,,,,,,,,,,,,,,,,front,sing,blue,39,10,134,890.8581418853719,None,890.8581418853719,None,4,2.337476091692224,890.8581418853719,None,893.2455966735724,None,893.7474362521898,None,893.7474362521898,None,r,1.376144566340372,893.7474362521898,None,,,color11,001,2019_Dec_06_1558,ProdSingRedo,3.2.4,59.9685182289878,
,,,,40,0,40,0,,,,,,,,,,,,,,,,,,,,,,,,899.8323414432816,None,,,,,,,,,,,,,,,,,narrow,new_silent,red,40,179,197,895.6763902581297,None,895.6763902581297,None,3,2.367057389114052,895.6763902581297,None,898.081021704711,None,898.5939979660325,None,898.5939979660325,None,n,1.2093994233291596,898.5939979660325,None,,,color11,001,2019_Dec_06_1558,ProdSingRedo,3.2.4,59.9685182289878,
,,,,41,0,41,0,,,,,,,,,,,,,,,,,,,,,,,,906.9359885675367,None,,,,,,,,,,,,,,,,,south,new_sing,blue,41,107,296,900.3612142775673,None,900.3612142775673,None,1,4.210022049956024,900.3612142775673,None,904.6135960887186,None,905.1293150796555,None,905.1293150796555,None,n,1.769492226652801,905.1293150796555,None,,,color11,001,2019_Dec_06_1558,ProdSingRedo,3.2.4,59.9685182289878,
,,,,42,0,42,0,,,,,,,,,,,,,,,,,,,,,,,,911.8186424125452,None,,,,,,,,,,,,,,,,,force,silent,red,42,71,131,907.4633322032169,None,907.4633322032169,None,4,2.3631197887007147,907.4633322032169,None,909.8487561461516,None,910.3640835848637,None,910.3640835848637,None,f,1.4304909794591367,910.3640835848637,None,,,color11,001,2019_Dec_06_1558,ProdSingRedo,3.2.4,59.9685182289878,
,,,,43,0,43,0,,,,,,,,,,,,,,,,,,,,,,,,915.88751014648,None,,,,,,,,,,,,,,,,,waste,new_silent,red,43,171,350,912.348199140979,None,912.348199140979,None,4,1.886076736729592,912.348199140979,None,914.2858982214238,None,914.7989634291735,None,914.7989634291735,None,r,1.051337776472792,914.7989634291735,None,,,color11,001,2019_Dec_06_1558,ProdSingRedo,3.2.4,59.9685182289878,
,,,,44,0,44,0,,,,,,,,,,,,,,,,,,,,,,,,922.4846473699436,None,,,,,,,,,,,,,,,,,population,new_sing,blue,44,105,227,916.416009777924,None,916.416009777924,None,6,3.6341371706221253,916.416009777924,None,920.0861380042043,None,920.6007436064538,None,920.6007436064538,None,r,1.8419697643257678,920.6007436064538,None,,,color11,001,2019_Dec_06_1558,ProdSingRedo,3.2.4,59.9685182289878,
,,,,45,0,45,0,,,,,,,,,,,,,,,,,,,,,,,,925.3021913224366,None,,,,,,,,,,,,,,,,,beginning,sing,blue,45,16,19,923.0041944882832,None,923.0041944882832,None,6,1.454526172252372,923.0041944882832,None,924.5184536341112,None,925.0187546843663,None,925.0187546843663,None,r,0.2469604187645018,925.0187546843663,None,,,color11,001,2019_Dec_06_1558,ProdSingRedo,3.2.4,59.9685182289878,
,,,,46,0,46,0,,,,,,,,,,,,,,,,,,,,,,,,928.253064772347,None,,,,,,,,,,,,,,,,,equipment,new_silent,red,46,155,116,925.8231917547528,None,925.8231917547528,None,6,1.5547463621478528,925.8231917547528,None,927.4360619641375,None,927.936153087765,None,927.936153087765,None,r,0.28137220442295074,927.936153087765,None,,,color11,001,2019_Dec_06_1558,ProdSingRedo,3.2.4,59.9685182289878,
,,,,47,0,47,0,,,,,,,,,,,,,,,,,,,,,,,,931.9206673486624,None,,,,,,,,,,,,,,,,,weight,new_aloud,yellow,47,130,353,928.769875070313,None,928.769875070313,None,3,2.056037643691525,928.769875070313,None,930.8539016796276,None,931.3604684937745,None,931.3604684937745,None,f,0.5286349174566567,931.3604684937745,None,,,color11,001,2019_Dec_06_1558,ProdSingRedo,3.2.4,59.9685182289878,
,,,,48,0,48,0,,,,,,,,,,,,,,,,,,,,,,,,936.2386040971614,None,,,,,,,,,,,,,,,,,volume,aloud,yellow,48,39,349,932.4386075180955,None,932.4386075180955,None,3,2.938430557725951,932.4386075180955,None,935.4258545567282,None,935.9387745263521,None,935.9387745263521,None,n,0.27804510155692697,935.9387745263521,None,,,color11,001,2019_Dec_06_1558,ProdSingRedo,3.2.4,59.9685182289878,
,,,,49,0,49,0,,,,,,,,,,,,,,,,,,,,,,,,939.1564357266761,None,,,,,,,,,,,,,,,,,patient,aloud,yellow,49,41,213,936.7585835086647,None,936.7585835086647,None,4,1.186640272848308,936.7585835086647,None,937.9726918183733,None,938.4727555739228,None,938.4727555739228,None,n,0.64816430862993,938.4727555739228,None,,,color11,001,2019_Dec_06_1558,ProdSingRedo,3.2.4,59.9685182289878,
,,,,50,0,50,0,,,,,,,,,,,,,,,,,,,,,,,,942.0239272750914,None,,,,,,,,,,,,,,,,,color,new_silent,red,50,172,56,939.6731150925625,None,939.6731150925625,None,3,1.1516039944253862,939.6731150925625,None,940.8748669687193,None,941.3904488075059,None,941.3904488075059,None,n,0.5941242331173271,941.3904488075059,None,,,color11,001,2019_Dec_06_1558,ProdSingRedo,3.2.4,59.9685182289878,
,,,,51,0,51,0,,,,,,,,,,,,,,,,,,,,,,,,945.9584914520383,None,,,,,,,,,,,,,,,,,theme,sing,blue,51,25,326,942.5406769276597,None,942.5406769276597,None,6,2.1958443869370967,942.5406769276597,None,944.7789466972463,None,945.2807542427909,None,945.2807542427909,None,r,0.6396795432083309,945.2807542427909,None,,,color11,001,2019_Dec_06_1558,ProdSingRedo,3.2.4,59.9685182289878,
,,,,52,0,52,0,,,,,,,,,,,,,,,,,,,,,,,,948.5756519385614,None,,,,,,,,,,,,,,,,,native,sing,blue,52,18,199,946.4765261660796,None,946.4765261660796,None,6,1.2678700382821262,946.4765261660796,None,947.7986216377467,None,948.309110191185,None,948.309110191185,None,r,0.23498278600163758,948.309110191185,None,,,color11,001,2019_Dec_06_1558,ProdSingRedo,3.2.4,59.9685182289878,
,,,,53,0,53,0,,,,,,,,,,,,,,,,,,,,,,,,950.509885208914,None,,,,,,,,,,,,,,,,,congress,sing,blue,53,26,67,949.0781101009343,None,949.0781101009343,None,6,0.5779141697566956,949.0781101009343,None,949.6775761099998,None,950.1928590754978,None,950.1928590754978,None,r,0.2793848996516317,950.1928590754978,None,,,color11,001,2019_Dec_06_1558,ProdSingRedo,3.2.4,59.9685182289878,
,,,,54,0,54,0,,,,,,,,,,,,,,,,,,,,,,,,953.2607533719856,None,,,,,,,,,,,,,,,,,science,silent,red,54,73,275,951.0267322051805,None,951.0267322051805,None,6,1.3414883327204734,951.0267322051805,None,952.410392453894,None,952.9273078704719,None,952.9273078704719,None,r,0.296685959212482,952.9273078704719,None,,,color11,001,2019_Dec_06_1558,ProdSingRedo,3.2.4,59.9685182289878,
,,,,55,0,55,0,,,,,,,,,,,,,,,,,,,,,,,,956.8952090090606,None,,,,,,,,,,,,,,,,,pancakes,new_aloud,yellow,55,142,210,953.7779440258164,None,953.7779440258164,None,1,1.7422008391004056,953.7779440258164,None,955.5779894320294,None,956.0781194311567,None,956.0781194311567,None,n,0.7778827585279942,956.0781194311567,None,,,color11,001,2019_Dec_06_1558,ProdSingRedo,3.2.4,59.9685182289878,
,,,,56,0,56,0,,,,,,,,,,,,,,,,,,,,,,,,961.3964517742861,None,,,,,,,,,,,,,,,,,history,silent,red,56,83,153,957.4130546336528,None,957.4130546336528,None,6,2.458422720665112,957.4130546336528,None,959.918008900946,None,960.4126873400528,None,960.4126873400528,None,r,0.946871783118695,960.4126873400528,None,,,color11,001,2019_Dec_06_1558,ProdSingRedo,3.2.4,59.9685182289878,
,,,,57,0,57,0,,,,,,,,,,,,,,,,,,,,,,,,965.7645827436354,None,,,,,,,,,,,,,,,,,majority,new_aloud,yellow,57,120,176,961.9176779943518,None,961.9176779943518,None,3,1.6180036140140146,961.9176779943518,None,963.5857862604316,None,964.0973521261476,None,964.0973521261476,None,r,1.6220021708868444,964.0973521261476,None,,,color11,001,2019_Dec_06_1558,ProdSingRedo,3.2.4,59.9685182289878,
,,,,58,0,58,0,,,,,,,,,,,,,,,,,,,,,,,,969.7824831048492,None,,,,,,,,,,,,,,,,,display,aloud,yellow,58,51,98,966.2828647047281,None,966.2828647047281,None,4,2.028216930339113,966.2828647047281,None,968.3493025773205,None,968.8485701668542,None,968.8485701668542,None,r,0.8946803051512688,968.8485701668542,None,,,color11,001,2019_Dec_06_1558,ProdSingRedo,3.2.4,59.9685182289878,
,,,,59,0,59,0,,,,,,,,,,,,,,,,,,,,,,,,974.3206586407032,None,,,,,,,,,,,,,,,,,taste,new_sing,blue,59,96,322,970.299156250665,None,970.299156250665,None,6,3.171563812997192,970.299156250665,None,973.5215353562962,None,974.0337565038353,None,974.0337565038353,None,r,0.26089083519764245,974.0337565038353,None,,,color11,001,2019_Dec_06_1558,ProdSingRedo,3.2.4,59.9685182289878,
,,,,60,0,60,0,,,,,,,,,,,,,,,,,,,,,,,,978.0016632403713,None,,,,,,,,,,,,,,,,,reading,new_aloud,yellow,60,122,254,974.8505562276114,None,974.8505562276114,None,3,1.5412749850656837,974.8505562276114,None,976.4345679089893,None,976.9513436856214,None,976.9513436856214,None,f,1.0151918416377157,976.9513436856214,None,,,color11,001,2019_Dec_06_1558,ProdSingRedo,3.2.4,59.9685182289878,
,,,,61,0,61,0,,,,,,,,,,,,,,,,,,,,,,,,982.3529907539487,None,,,,,,,,,,,,,,,,,provision,new_aloud,yellow,61,136,243,978.5183992087841,None,978.5183992087841,None,5,2.6409851310309023,978.5183992087841,None,981.2030527987517,None,981.7192759243771,None,981.7192759243771,None,f,0.5990505099762231,981.7192759243771,None,,,color11,001,2019_Dec_06_1558,ProdSingRedo,3.2.4,59.9685182289878,
,,,,62,0,62,0,,,,,,,,,,,,,,,,,,,,,,,,993.9063584425021,None,,,,,,,,,,,,,,,,,ground,new_sing,blue,62,119,142,982.8577456683852,None,982.8577456683852,None,3,9.708084194688126,982.8577456683852,None,992.6099893948995,None,993.1229193166364,None,993.1229193166364,None,f,0.7623817804269493,993.1229193166364,None,,,color11,001,2019_Dec_06_1558,ProdSingRedo,3.2.4,59.9685182289878,
,,,,63,0,63,0,,,,,,,,,,,,,,,,,,,,,,,,998.3578750453889,None,,,,,,,,,,,,,,,,,service,aloud,yellow,63,40,280,994.4276686331723,None,994.4276686331723,None,4,1.6097101147752255,994.4276686331723,None,996.0905402421486,None,996.590703207301,None,996.590703207301,None,f,1.7268171089235693,996.590703207301,None,,,color11,001,2019_Dec_06_1558,ProdSingRedo,3.2.4,59.9685182289878,
,,,,64,0,64,0,,,,,,,,,,,,,,,,,,,,,,,,1003.7262234054506,None,,,,,,,,,,,,,,,,,under,new_silent,red,64,162,343,998.8747080464382,None,998.8747080464382,None,6,1.858721282798797,998.8747080464382,None,1000.7773201551754,None,1001.292130707996,None,1001.292130707996,None,f,2.400802697055042,1001.292130707996,None,,,color11,001,2019_Dec_06_1558,ProdSingRedo,3.2.4,59.9685182289878,
,,,,65,0,65,0,,,,,,,,,,,,,,,,,,,,,,,,1007.0772141031921,None,,,,,,,,,,,,,,,,,society,new_silent,red,65,170,293,1004.244635054376,None,1004.244635054376,None,6,1.3201178077142686,1004.244635054376,None,1005.6184965525754,None,1006.1269156965427,None,1006.1269156965427,None,f,0.9018053684849292,1006.1269156965427,None,,,color11,001,2019_Dec_06_1558,ProdSingRedo,3.2.4,59.9685182289878,
,,,,66,0,66,0,,,,,,,,,,,,,,,,,,,,,,,,1013.2457008592319,None,,,,,,,,,,,,,,,,,silence,silent,red,66,88,288,1007.5939914349001,None,1007.5939914349001,None,3,2.1549264325294644,1007.5939914349001,None,1009.7991027582902,None,1010.3115761287045,None,1010.3115761287045,None,r,2.916784795699641,1010.3115761287045,None,,,color11,001,2019_Dec_06_1558,ProdSingRedo,3.2.4,59.9685182289878,
,,,,67,0,67,0,,,,,,,,,,,,,,,,,,,,,,,,1018.1306362175383,None,,,,,,,,,,,,,,,,,mechanical,silent,red,67,77,185,1013.7625565635972,None,1013.7625565635972,None,6,3.3615741070825607,1013.7625565635972,None,1017.1700856189709,None,1017.6805076180026,None,1017.6805076180026,None,r,0.40346425492316484,1017.6805076180026,None,,,color11,001,2019_Dec_06_1558,ProdSingRedo,3.2.4,59.9685182289878,
,,,,68,0,68,0,,,,,,,,,,,,,,,,,,,,,,,,1020.1646275280509,None,,,,,,,,,,,,,,,,,order,new_sing,blue,68,102,207,1018.6473205594812,None,1018.6473205594812,None,6,0.868412115611136,1018.6473205594812,None,1019.5474539794959,None,1020.0644611418247,None,1020.0644611418247,None,r,0.05147803854197264,1020.0644611418247,None,,,color11,001,2019_Dec_06_1558,ProdSingRedo,3.2.4,59.9685182289878,
,,,,69,0,69,0,,,,,,,,,,,,,,,,,,,,,,,,1023.6656675199047,None,,,,,,,,,,,,,,,,,measure,aloud,yellow,69,55,184,1020.6812204353046,None,1020.6812204353046,None,3,1.9232620412949473,1020.6812204353046,None,1022.6525659246836,None,1023.1654193399008,None,1023.1654193399008,None,f,0.4542353851720691,1023.1654193399008,None,,,color11,001,2019_Dec_06_1558,ProdSingRedo,3.2.4,59.9685182289878,
,,,,70,0,70,0,,,,,,,,,,,,,,,,,,,,,,,,1026.249723363435,None,,,,,,,,,,,,,,,,,literature,silent,red,70,72,173,1024.1824551145546,None,1024.1824551145546,None,6,0.685176074039191,1024.1824551145546,None,1024.9213901180774,None,1025.4327398370951,None,1025.4327398370951,None,r,0.7706976714543998,1025.4327398370951,None,,,color11,001,2019_Dec_06_1558,ProdSingRedo,3.2.4,59.9685182289878,
,,,,71,0,71,0,,,,,,,,,,,,,,,,,,,,,,,,1030.1342886288185,None,,,,,,,,,,,,,,,,,series,silent,red,71,89,279,1026.7518052130472,None,1026.7518052130472,None,6,2.4917783425189555,1026.7518052130472,None,1029.2875807438977,None,1029.8008739165962,None,1029.8008739165962,None,r,0.29841451020911336,1029.8008739165962,None,,,color11,001,2019_Dec_06_1558,ProdSingRedo,3.2.4,59.9685182289878,
,,,,72,0,72,0,,,,,,,,,,,,,,,,,,,,,,,,1033.9351731194183,None,,,,,,,,,,,,,,,,,suggestion,silent,red,72,66,314,1030.6348534091376,None,1030.6348534091376,None,3,2.080309198470786,1030.6348534091376,None,1032.7516581087839,None,1033.2686276400927,None,1033.2686276400927,None,f,0.6401183675043285,1033.2686276400927,None,,,color11,001,2019_Dec_06_1558,ProdSingRedo,3.2.4,59.9685182289878,
,,,,73,0,73,0,,,,,,,,,,,,,,,,,,,,,,,,1040.1729471513536,None,,,,,,,,,,,,,,,,,sunset,new_sing,blue,73,108,315,1034.452277936507,None,1034.452277936507,None,2,3.37551851850003,1034.452277936507,None,1037.8741031470709,None,1038.3868100801483,None,1038.3868100801483,None,n,1.7517949498724192,1038.3868100801483,None,,,color11,001,2019_Dec_06_1558,ProdSingRedo,3.2.4,59.9685182289878,
,,,,74,0,74,0,,,,,,,,,,,,,,,,,,,,,,,,1043.6943845418282,None,,,,,,,,,,,,,,,,,center,sing,blue,74,3,44,1040.7040237481706,None,1040.7040237481706,None,6,2.3077405369840562,1040.7040237481706,None,1043.0548362417612,None,1043.5550698044244,None,1043.5550698044244,None,r,0.11133883381262422,1043.5550698044244,None,,,color11,001,2019_Dec_06_1558,ProdSingRedo,3.2.4,59.9685182289878,
,,,,75,0,75,0,,,,,,,,,,,,,,,,,,,,,,,,1047.1228589823004,None,,,,,,,,,,,,,,,,,collection,aloud,yellow,75,42,54,1044.2220659262966,None,1044.2220659262966,None,6,2.1962250536307693,1044.2220659262966,None,1046.4610003079288,None,1046.9726815554313,None,1046.9726815554313,None,r,0.10978599940426648,1046.9726815554313,None,,,color11,001,2019_Dec_06_1558,ProdSingRedo,3.2.4,59.9685182289878,
,,,,76,0,76,0,,,,,,,,,,,,,,,,,,,,,,,,1050.1737199921627,None,,,,,,,,,,,,,,,,,council,aloud,yellow,76,44,71,1047.6396195197012,None,1047.6396195197012,None,6,1.6588021432980895,1047.6396195197012,None,1049.340077937115,None,1049.8570256980602,None,1049.8570256980602,None,r,0.27331600012257695,1049.8570256980602,None,,,color11,001,2019_Dec_06_1558,ProdSingRedo,3.2.4,59.9685182289878,
,,,,77,0,77,0,,,,,,,,,,,,,,,,,,,,,,,,1053.1913525802083,None,,,,,,,,,,,,,,,,,threat,new_aloud,yellow,77,131,329,1050.6738319529686,None,1050.6738319529686,None,6,0.8323538834229112,1050.6738319529686,None,1051.544506921433,None,1052.0576405497268,None,1052.0576405497268,None,f,1.096280723111704,1052.0576405497268,None,,,color11,001,2019_Dec_06_1558,ProdSingRedo,3.2.4,59.9685182289878,
,,,,78,0,78,0,,,,,,,,,,,,,,,,,,,,,,,,1056.95891628135,None,,,,,,,,,,,,,,,,,quiet,silent,red,78,61,249,1053.7081187157892,None,1053.7081187157892,None,6,2.4220133668277413,1053.7081187157892,None,1056.175398782827,None,1056.6923589836806,None,1056.6923589836806,None,r,0.2376723343040794,1056.6923589836806,None,,,color11,001,2019_Dec_06_1558,ProdSingRedo,3.2.4,59.9685182289878,
,,,,79,0,79,0,,,,,,,,,,,,,,,,,,,,,,,,1059.4433154715225,None,,,,,,,,,,,,,,,,,answer,sing,blue,79,13,8,1057.476006170269,None,1057.476006170269,None,6,1.253776345634833,1057.476006170269,None,1058.7604364606086,None,1059.2597566095646,None,1059.2597566095646,None,r,0.14190289890393615,1059.2597566095646,None,,,color11,001,2019_Dec_06_1558,ProdSingRedo,3.2.4,59.9685182289878,
,,,,80,0,80,0,,,,,,,,,,,,,,,,,,,,,,,,1061.5439449402038,None,,,,,,,,,,,,,,,,,produce,sing,blue,80,23,239,1059.9431375779677,None,1059.9431375779677,None,6,0.8183233242016286,1059.9431375779677,None,1060.8151280863676,None,1061.3272192347795,None,1061.3272192347795,None,r,0.1700980591122061,1061.3272192347795,None,,,color11,001,2019_Dec_06_1558,ProdSingRedo,3.2.4,59.9685182289878,
,,,,81,0,81,0,,,,,,,,,,,,,,,,,,,,,,,,1065.295057551004,None,,,,,,,,,,,,,,,,,nature,aloud,yellow,81,38,200,1062.0606106219348,None,1062.0606106219348,None,6,2.572918539168313,1062.0606106219348,None,1064.6824908799026,None,1065.1950662590098,None,1065.1950662590098,None,r,0.054028257727622986,1065.1950662590098,None,,,color11,001,2019_Dec_06_1558,ProdSingRedo,3.2.4,59.9685182289878,
,,,,82,0,82,0,,,,,,,,,,,,,,,,,,,,,,,,1070.880137836095,None,,,,,,,,,,,,,,,,,close,new_sing,blue,82,100,53,1065.8117910313886,None,1065.8117910313886,None,5,3.4132642494514585,1065.8117910313886,None,1069.2644219554495,None,1069.7798091068398,None,1069.7798091068398,None,f,1.0610640633385628,1069.7798091068398,None,,,color11,001,2019_Dec_06_1558,ProdSingRedo,3.2.4,59.9685182289878,
,,,,83,0,83,0,,,,,,,,,,,,,,,,,,,,,,,,1074.9980304222554,None,,,,,,,,,,,,,,,,,rough,new_sing,blue,83,118,266,1071.3969978943933,None,1071.3969978943933,None,2,2.1157115267124027,1071.3969978943933,None,1073.5509900758043,None,1074.064440926537,None,1074.064440926537,None,r,0.8881218880414963,1074.064440926537,None,,,color11,001,2019_Dec_06_1558,ProdSingRedo,3.2.4,59.9685182289878,
,,,,84,0,84,0,,,,,,,,,,,,,,,,,,,,,,,,1079.6827878870536,None,,,,,,,,,,,,,,,,,sleep,new_sing,blue,84,113,290,1075.514887370402,None,1075.514887370402,None,2,2.6454147370532155,1075.514887370402,None,1078.2013310899492,None,1078.7157982962672,None,1078.7157982962672,None,n,0.9250686536543071,1078.7157982962672,None,,,color11,001,2019_Dec_06_1558,ProdSingRedo,3.2.4,59.9685182289878,
,,,,85,0,85,0,,,,,,,,,,,,,,,,,,,,,,,,1084.8510852425825,None,,,,,,,,,,,,,,,,,length,new_silent,red,85,167,169,1080.199651988456,None,1080.199651988456,None,4,3.68034527474083,1080.199651988456,None,1083.9172366820276,None,1084.434281475842,None,1084.434281475842,None,f,0.3816944030113518,1084.434281475842,None,,,color11,001,2019_Dec_06_1558,ProdSingRedo,3.2.4,59.9685182289878,
,,,,86,0,86,0,,,,,,,,,,,,,,,,,,,,,,,,1090.502776317764,None,,,,,,,,,,,,,,,,,curve,new_aloud,yellow,86,147,82,1085.3687492418103,None,1085.3687492418103,None,1,3.759136470966041,1085.3687492418103,None,1089.1687815862242,None,1089.6857579592615,None,1089.6857579592615,None,n,0.7703014547005296,1089.6857579592615,None,,,color11,001,2019_Dec_06_1558,ProdSingRedo,3.2.4,59.9685182289878,
,,,,87,0,87,0,,,,,,,,,,,,,,,,,,,,,,,,1094.570746498881,None,,,,,,,,,,,,,,,,,month,sing,blue,87,11,193,1091.0045148208737,None,1091.0045148208737,None,6,2.3400001865811646,1091.0045148208737,None,1093.3898152955808,None,1093.9038477207068,None,1093.9038477207068,None,r,0.6315011149272323,1093.9038477207068,None,,,color11,001,2019_Dec_06_1558,ProdSingRedo,3.2.4,59.9685182289878,
,,,,88,0,88,0,,,,,,,,,,,,,,,,,,,,,,,,1101.8396366247907,None,,,,,,,,,,,,,,,,,blind,new_aloud,yellow,88,140,24,1095.0705978397746,None,1095.0705978397746,None,4,5.3932758185546845,1095.0705978397746,None,1100.5130412606522,None,1101.0065217188094,None,1101.0065217188094,None,f,0.7925748194102198,1101.0065217188094,None,,,color11,001,2019_Dec_06_1558,ProdSingRedo,3.2.4,59.9685182289878,
,,,,89,0,89,0,,,,,,,,,,,,,,,,,,,,,,,,1106.3743447957095,None,,,,,,,,,,,,,,,,,committee,new_sing,blue,89,94,62,1102.3563757031225,None,1102.3563757031225,None,6,2.5143801257945597,1102.3563757031225,None,1104.9095424844418,None,1105.4240180877969,None,1105.4240180877969,None,r,0.9109202246181667,1105.4240180877969,None,,,color11,001,2019_Dec_06_1558,ProdSingRedo,3.2.4,59.9685182289878,
,,,,90,0,90,0,,,,,,,,,,,,,,,,,,,,,,,,1109.708712730324,None,,,,,,,,,,,,,,,,,growth,new_aloud,yellow,90,129,144,1106.8911550936755,None,1106.8911550936755,None,3,1.9239375381730497,1106.8911550936755,None,1108.858199109789,None,1109.3752653626725,None,1109.3752653626725,None,n,0.28710646531544626,1109.3752653626725,None,,,color11,001,2019_Dec_06_1558,ProdSingRedo,3.2.4,59.9685182289878,
,,,,91,0,91,0,,,,,,,,,,,,,,,,,,,,,,,,1114.1766356390435,None,,,,,,,,,,,,,,,,,meeting,new_aloud,yellow,91,124,187,1110.2151246652938,None,1110.2151246652938,None,3,2.823121468303725,1110.2151246652938,None,1113.076253106119,None,1113.593250005506,None,1113.593250005506,None,n,0.5490214312449098,1113.593250005506,None,,,color11,001,2019_Dec_06_1558,ProdSingRedo,3.2.4,59.9685182289878,
,,,,92,0,92,0,,,,,,,,,,,,,,,,,,,,,,,,1117.677825533785,None,,,,,,,,,,,,,,,,,symbol,new_silent,red,92,166,321,1114.6942760020029,None,1114.6942760020029,None,6,1.9759635629598051,1114.6942760020029,None,1116.7273548317607,None,1117.2275759545155,None,1117.2275759545155,None,r,0.4106860398314893,1117.2275759545155,None,,,color11,001,2019_Dec_06_1558,ProdSingRedo,3.2.4,59.9685182289878,
,,,,93,0,93,0,,,,,,,,,,,,,,,,,,,,,,,,1122.9961037628818,None,,,,,,,,,,,,,,,,,place,sing,blue,93,28,222,1118.194650137797,None,1118.194650137797,None,6,3.7400987742003053,1118.194650137797,None,1121.9659794552717,None,1122.4845235911198,None,1122.4845235911198,None,r,0.4731349968351424,1122.4845235911198,None,,,color11,001,2019_Dec_06_1558,ProdSingRedo,3.2.4,59.9685182289878,
,,,,94,0,94,0,,,,,,,,,,,,,,,,,,,,,,,,1128.297747721197,None,,,,,,,,,,,,,,,,,exchange,sing,blue,94,2,121,1123.5128720754292,None,1123.5128720754292,None,4,2.772768324939534,1123.5128720754292,None,1126.3351924016606,None,1126.8377336016856,None,1126.8377336016856,None,n,1.4161500399932265,1126.8377336016856,None,,,color11,001,2019_Dec_06_1558,ProdSingRedo,3.2.4,59.9685182289878,
,,,,95,0,95,0,,,,,,,,,,,,,,,,,,,,,,,,1133.1324247918092,None,,,,,,,,,,,,,,,,,swift,new_aloud,yellow,95,141,320,1128.8145393589512,None,1128.8145393589512,None,2,2.7506629014387727,1128.8145393589512,None,1131.5985756092705,None,1132.115584637737,None,1132.115584637737,None,f,0.9852323653176427,1132.115584637737,None,,,color11,001,2019_Dec_06_1558,ProdSingRedo,3.2.4,59.9685182289878,
,,,,96,0,96,0,,,,,,,,,,,,,,,,,,,,,,,,1136.9670769823715,None,,,,,,,,,,,,,,,,,reach,new_sing,blue,96,116,253,1133.6491001148243,None,1133.6491001148243,None,6,1.659987373277545,1133.6491001148243,None,1135.3499749642797,None,1135.857192395255,None,1135.857192395255,None,n,1.0757141392678022,1135.857192395255,None,,,color11,001,2019_Dec_06_1558,ProdSingRedo,3.2.4,59.9685182289878,
,,,,97,0,97,0,,,,,,,,,,,,,,,,,,,,,,,,1140.2680547737982,None,,,,,,,,,,,,,,,,,state,sing,blue,97,29,303,1137.4838947444223,None,1137.4838947444223,None,1,1.3930064905434847,1137.4838947444223,None,1138.919394416269,None,1139.417736462783,None,1139.417736462783,None,f,0.8028745944611728,1139.417736462783,None,,,color11,001,2019_Dec_06_1558,ProdSingRedo,3.2.4,59.9685182289878,
,,,,98,0,98,0,,,,,,,,,,,,,,,,,,,,,,,,1143.7524950162042,None,,,,,,,,,,,,,,,,,column,aloud,yellow,98,47,57,1140.7848709807731,None,1140.7848709807731,None,6,1.3475413711275905,1140.7848709807731,None,1142.1732457135804,None,1142.6721295262687,None,1142.6721295262687,None,r,1.0442798896692693,1142.6721295262687,None,,,color11,001,2019_Dec_06_1558,ProdSingRedo,3.2.4,59.9685182289878,
,,,,99,0,99,0,,,,,,,,,,,,,,,,,,,,,,,,1146.7033796622418,None,,,,,,,,,,,,,,,,,cousin,sing,blue,99,27,76,1144.269264261704,None,1144.269264261704,None,6,1.559201781405136,1144.269264261704,None,1145.8739793680143,None,1146.386608239729,None,1146.386608239729,None,r,0.27518325811252,1146.386608239729,None,,,color11,001,2019_Dec_06_1558,ProdSingRedo,3.2.4,59.9685182289878,
,,,,100,0,100,0,,,,,,,,,,,,,,,,,,,,,,,,1152.7719105805736,None,,,,,,,,,,,,,,,,,voice,new_aloud,yellow,100,144,348,1147.2205616079737,None,1147.2205616079737,None,3,2.511241490021348,1147.2205616079737,None,1149.756143695442,None,1150.2724930879194,None,1150.2724930879194,None,f,2.4512858390808105,1150.2724930879194,None,,,color11,001,2019_Dec_06_1558,ProdSingRedo,3.2.4,59.9685182289878,
,,,,101,0,101,0,,,,,,,,,,,,,,,,,,,,,,,,1157.5732973399572,None,,,,,,,,,,,,,,,,,captain,new_aloud,yellow,101,143,41,1153.288622912718,None,1153.288622912718,None,3,3.283093291334808,1153.288622912718,None,1156.6112231409643,None,1157.1230816598982,None,1157.1230816598982,None,f,0.4165751801338047,1157.1230816598982,None,,,color11,001,2019_Dec_06_1558,ProdSingRedo,3.2.4,59.9685182289878,
,,,,102,0,102,0,,,,,,,,,,,,,,,,,,,,,,,,1164.4752566546667,None,,,,,,,,,,,,,,,,,religion,silent,red,102,68,258,1158.0900286433753,None,1158.0900286433753,None,6,4.353251995984465,1158.0900286433753,None,1162.4951704447158,None,1163.0083572545554,None,1163.0083572545554,None,f,1.4428648289758712,1163.0083572545554,None,,,color11,001,2019_Dec_06_1558,ProdSingRedo,3.2.4,59.9685182289878,
,,,,103,0,103,0,,,,,,,,,,,,,,,,,,,,,,,,1167.1929788114503,None,,,,,,,,,,,,,,,,,company,new_sing,blue,103,92,64,1164.9951775977388,None,1164.9951775977388,None,6,1.3436964491847903,1164.9951775977388,None,1166.3620717108715,None,1166.8770872142632,None,1166.8770872142632,None,f,0.27781091700308025,1166.8770872142632,None,,,color11,001,2019_Dec_06_1558,ProdSingRedo,3.2.4,59.9685182289878,
,,,,104,0,104,0,,,,,,,,,,,,,,,,,,,,,,,,1171.5776037892792,None,,,,,,,,,,,,,,,,,clear,new_aloud,yellow,104,125,52,1167.7098382476252,None,1167.7098382476252,None,5,2.316990057239309,1167.7098382476252,None,1170.0603960303124,None,1170.5773400592152,None,1170.5773400592152,None,f,0.9771739840507507,1170.5773400592152,None,,,color11,001,2019_Dec_06_1558,ProdSingRedo,3.2.4,59.9685182289878,
,,,,105,0,105,0,,,,,,,,,,,,,,,,,,,,,,,,1175.812313826289,None,,,,,,,,,,,,,,,,,scale,silent,red,105,76,272,1172.0943512646481,None,1172.0943512646481,None,4,2.8199856316205114,1172.0943512646481,None,1174.9620141754858,None,1175.4786434699781,None,1175.4786434699781,None,f,0.2999060773290694,1175.4786434699781,None,,,color11,001,2019_Dec_06_1558,ProdSingRedo,3.2.4,59.9685182289878,
,,,,106,0,106,0,,,,,,,,,,,,,,,,,,,,,,,,1179.7800862097647,None,,,,,,,,,,,,,,,,,surprise,new_silent,red,106,157,317,1176.3290087422356,None,1176.3290087422356,None,3,1.3776022342499346,1176.3290087422356,None,1177.7509648846462,None,1178.26296988572,None,1178.26296988572,None,n,1.483297619735822,1178.26296988572,None,,,color11,001,2019_Dec_06_1558,ProdSingRedo,3.2.4,59.9685182289878,
,,,,107,0,107,0,,,,,,,,,,,,,,,,,,,,,,,,1183.0811336657498,None,,,,,,,,,,,,,,,,,medicine,new_silent,red,107,169,186,1180.2802186969202,None,1180.2802186969202,None,3,1.7617955410387367,1180.2802186969202,None,1182.0845487823244,None,1182.5977175538428,None,1182.5977175538428,None,f,0.4444291708059609,1182.5977175538428,None,,,color11,001,2019_Dec_06_1558,ProdSingRedo,3.2.4,59.9685182289878,
,,,,108,0,108,0,,,,,,,,,,,,,,,,,,,,,,,,1186.484607872786,None,,,,,,,,,,,,,,,,,republic,silent,red,108,70,260,1183.5979340116028,None,1183.5979340116028,None,5,2.067816545953974,1183.5979340116028,None,1185.7152499991935,None,1186.2154048783705,None,1186.2154048783705,None,f,0.2502377612981945,1186.2154048783705,None,,,color11,001,2019_Dec_06_1558,ProdSingRedo,3.2.4,59.9685182289878,
,,,,109,0,109,0,,,,,,,,,,,,,,,,,,,,,,,,1190.0833197010215,None,,,,,,,,,,,,,,,,,bicycle,sing,blue,109,12,21,1187.0199735024944,None,1187.0199735024944,None,6,1.6058707910124213,1187.0199735024944,None,1188.6728899269365,None,1189.1829511632677,None,1189.1829511632677,None,r,0.8588861140888184,1189.1829511632677,None,,,color11,001,2019_Dec_06_1558,ProdSingRedo,3.2.4,59.9685182289878,
,,,,110,0,110,0,,,,,,,,,,,,,,,,,,,,,,,,1193.701007336611,None,,,,,,,,,,,,,,,,,charter,aloud,yellow,110,45,47,1190.583320633974,None,1190.583320633974,None,3,1.9381988609675318,1190.583320633974,None,1192.5677512353286,None,1193.084290028317,None,1193.084290028317,None,f,0.5740288174711168,1193.084290028317,None,,,color11,001,2019_Dec_06_1558,ProdSingRedo,3.2.4,59.9685182289878,
,,,,111,0,111,0,,,,,,,,,,,,,,,,,,,,,,,,1197.5688630687073,None,,,,,,,,,,,,,,,,,quantity,aloud,yellow,111,58,245,1194.217961317394,None,1194.217961317394,None,2,1.5512622031383216,1194.217961317394,None,1195.8244643763173,None,1196.3351501051802,None,1196.3351501051802,None,f,1.1939155503641814,1196.3351501051802,None,,,color11,001,2019_Dec_06_1558,ProdSingRedo,3.2.4,59.9685182289878,
,,,,112,0,112,0,,,,,,,,,,,,,,,,,,,,,,,,1201.2864813506603,None,,,,,,,,,,,,,,,,,public,new_sing,blue,112,115,244,1198.0857175290585,None,1198.0857175290585,None,6,2.2992293362040073,1198.0857175290585,None,1200.4196764952503,None,1200.9366454044357,None,1200.9366454044357,None,r,0.32007084623910487,1200.9366454044357,None,,,color11,001,2019_Dec_06_1558,ProdSingRedo,3.2.4,59.9685182289878,
,,,,113,0,113,0,,,,,,,,,,,,,,,,,,,,,,,,1204.9712282414548,None,,,,,,,,,,,,,,,,,school,new_silent,red,113,156,274,1201.8035566227045,None,1201.8035566227045,None,6,2.3093120318371803,1201.8035566227045,None,1204.1435792013071,None,1204.6582516692579,None,1204.6582516692579,None,r,0.27845935663208365,1204.6582516692579,None,,,color11,001,2019_Dec_06_1558,ProdSingRedo,3.2.4,59.9685182289878,
,,,,114,0,114,0,,,,,,,,,,,,,,,,,,,,,,,,1207.6719304847065,None,,,,,,,,,,,,,,,,,running,sing,blue,114,14,268,1205.488056888571,None,1205.488056888571,None,6,1.3444133098237216,1205.488056888571,None,1206.8759840889834,None,1207.3784092853311,None,1207.3784092853311,None,r,0.269835262093693,1207.3784092853311,None,,,color11,001,2019_Dec_06_1558,ProdSingRedo,3.2.4,59.9685182289878,
,,,,115,0,115,0,,,,,,,,,,,,,,,,,,,,,,,,1209.6893083618488,None,,,,,,,,,,,,,,,,,distance,sing,blue,115,22,100,1208.188681381289,None,1208.188681381289,None,6,0.6515641862060875,1208.188681381289,None,1208.8735001133755,None,1209.3890122876037,None,1209.3890122876037,None,r,0.2672878419980407,1209.3890122876037,None,,,color11,001,2019_Dec_06_1558,ProdSingRedo,3.2.4,59.9685182289878,
,,,,116,0,116,0,,,,,,,,,,,,,,,,,,,,,,,,1213.907132838387,None,,,,,,,,,,,,,,,,,graduate,new_silent,red,116,153,141,1210.2061279898044,None,1210.2061279898044,None,2,2.2179824656341225,1210.2061279898044,None,1212.47394702374,None,1212.9902917512227,None,1212.9902917512227,None,n,0.8899359644856304,1212.9902917512227,None,,,color11,001,2019_Dec_06_1558,ProdSingRedo,3.2.4,59.9685182289878,
,,,,117,0,117,0,,,,,,,,,,,,,,,,,,,,,,,,1220.0091133012902,None,,,,,,,,,,,,,,,,,childhood,silent,red,117,86,49,1214.4137407050002,None,1214.4137407050002,None,4,2.9380704171489924,1214.4137407050002,None,1217.393061537994,None,1217.8916582954116,None,1217.8916582954116,None,f,2.076325569767505,1217.8916582954116,None,,,color11,001,2019_Dec_06_1558,ProdSingRedo,3.2.4,59.9685182289878,
,,,,118,0,118,0,,,,,,,,,,,,,,,,,,,,,,,,1224.4772246773355,None,,,,,,,,,,,,,,,,,marriage,new_sing,blue,118,95,179,1220.52594692423,None,1220.52594692423,None,1,2.6097956402227283,1220.52594692423,None,1223.1802759212442,None,1223.6936658155173,None,1223.6936658155173,None,n,0.7377143194898963,1223.6936658155173,None,,,color11,001,2019_Dec_06_1558,ProdSingRedo,3.2.4,59.9685182289878,
,,,,119,0,119,0,,,,,,,,,,,,,,,,,,,,,,,,1228.8951962580904,None,,,,,,,,,,,,,,,,,emergency,new_silent,red,119,173,110,1224.9956671155524,None,1224.9956671155524,None,6,2.6597510115243495,1224.9956671155524,None,1227.7114809618797,None,1228.2116548123304,None,1228.2116548123304,None,r,0.6437023582402617,1228.2116548123304,None,,,color11,001,2019_Dec_06_1558,ProdSingRedo,3.2.4,59.9685182289878,
,,,,120,0,120,0,,,,,,,,,,,,,,,,,,,,,,,,1232.096192709403,None,,,,,,,,,,,,,,,,,figure,new_aloud,yellow,120,133,128,1229.41194715444,None,1229.41194715444,None,3,1.8508675408083946,1229.41194715444,None,1231.279880637303,None,1231.7825440613087,None,1231.7825440613087,None,f,0.2726563641335815,1231.7825440613087,None,,,color11,001,2019_Dec_06_1558,ProdSingRedo,3.2.4,59.9685182289878,
,,,,121,0,121,0,,,,,,,,,,,,,,,,,,,,,,,,1234.8470652264077,None,,,,,,,,,,,,,,,,,benefit,new_sing,blue,121,114,20,1232.6129432949238,None,1232.6129432949238,None,4,1.3781222300603986,1232.6129432949238,None,1234.046534656547,None,1234.5467847024556,None,1234.5467847024556,None,f,0.25203908677212894,1234.5467847024556,None,,,color11,001,2019_Dec_06_1558,ProdSingRedo,3.2.4,59.9685182289878,
,,,,122,0,122,0,,,,,,,,,,,,,,,,,,,,,,,,1244.5833896766417,None,,,,,,,,,,,,,,,,,breath,new_silent,red,122,164,27,1235.363733085338,None,1235.363733085338,None,3,7.0187475313432515,1235.363733085338,None,1242.424294568831,None,1242.9328210088424,None,1242.9328210088424,None,f,1.6014673088211566,1242.9328210088424,None,,,color11,001,2019_Dec_06_1558,ProdSingRedo,3.2.4,59.9685182289878,
,,,,123,0,123,0,,,,,,,,,,,,,,,,,,,,,,,,1251.0186523646116,None,,,,,,,,,,,,,,,,,report,new_aloud,yellow,123,146,259,1245.0833461361472,None,1245.0833461361472,None,3,5.05942756915465,1245.0833461361472,None,1250.174218528904,None,1250.701797593385,None,1250.701797593385,None,f,0.2799972631037235,1250.701797593385,None,,,color11,001,2019_Dec_06_1558,ProdSingRedo,3.2.4,59.9685182289878,
,,,,124,0,124,0,,,,,,,,,,,,,,,,,,,,,,,,1256.236775092315,None,,,,,,,,,,,,,,,,,mankind,aloud,yellow,124,36,178,1251.5383652474266,None,1251.5383652474266,None,2,1.5791199256200343,1251.5383652474266,None,1253.1436112346128,None,1253.6695052885916,None,1253.6695052885916,None,n,2.543771089753136,1253.6695052885916,None,,,color11,001,2019_Dec_06_1558,ProdSingRedo,3.2.4,59.9685182289878,
,,,,125,0,125,0,,,,,,,,,,,,,,,,,,,,,,,,1261.0411474741995,None,,,,,,,,,,,,,,,,,debate,sing,blue,125,0,87,1256.7368649721611,None,1256.7368649721611,None,6,2.948434880701825,1256.7368649721611,None,1259.7298300995026,None,1260.238180511864,None,1260.238180511864,None,r,0.7752958408091217,1260.238180511864,None,,,color11,001,2019_Dec_06_1558,ProdSingRedo,3.2.4,59.9685182289878,
,,,,126,0,126,0,,,,,,,,,,,,,,,,,,,,,,,,1264.1893301319797,None,,,,,,,,,,,,,,,,,profession,silent,red,126,60,241,1261.5717196252663,None,1261.5717196252663,None,6,1.7451382561121136,1261.5717196252663,None,1263.342430980876,None,1263.872445193585,None,1263.872445193585,None,r,0.2768427664414048,1263.872445193585,None,,,color11,001,2019_Dec_06_1558,ProdSingRedo,3.2.4,59.9685182289878,
,,,,127,0,127,0,,,,,,,,,,,,,,,,,,,,,,,,1267.7607745202258,None,,,,,,,,,,,,,,,,,straight,new_sing,blue,127,109,307,1264.7062352856155,None,1264.7062352856155,None,5,2.258876161882654,1264.7062352856155,None,1267.0090109815355,None,1267.5068687973544,None,1267.5068687973544,None,r,0.21798464260064065,1267.5068687973544,None,,,color11,001,2019_Dec_06_1558,ProdSingRedo,3.2.4,59.9685182289878,
,,,,128,0,128,0,,,,,,,,,,,,,,,,,,,,,,,,1271.0913578672335,None,,,,,,,,,,,,,,,,,right,new_aloud,yellow,128,138,265,1268.2905004338827,None,1268.2905004338827,None,3,1.891222270205617,1268.2905004338827,None,1270.228600707138,None,1270.7314647275489,None,1270.7314647275489,None,f,0.3210141162853688,1270.7314647275489,None,,,color11,001,2019_Dec_06_1558,ProdSingRedo,3.2.4,59.9685182289878,
,,,,129,0,129,0,,,,,,,,,,,,,,,,,,,,,,,,1274.3091985159554,None,,,,,,,,,,,,,,,,,interview,silent,red,129,67,165,1271.6124329401646,None,1271.6124329401646,None,5,1.848024046747014,1271.6124329401646,None,1273.5254253733438,None,1274.0255737216212,None,1274.0255737216212,None,f,0.23493395862169564,1274.0255737216212,None,,,color11,001,2019_Dec_06_1558,ProdSingRedo,3.2.4,59.9685182289878,
,,,,130,0,130,0,,,,,,,,,,,,,,,,,,,,,,,,1277.4931962019764,None,,,,,,,,,,,,,,,,,department,sing,blue,130,9,90,1274.8259910866618,None,1274.8259910866618,None,6,1.8181948801502585,1274.8259910866618,None,1276.697850662982,None,1277.2099461655598,None,1277.2099461655598,None,r,0.25829800870269537,1277.2099461655598,None,,,color11,001,2019_Dec_06_1558,ProdSingRedo,3.2.4,59.9685182289878,
,,,,131,0,131,0,,,,,,,,,,,,,,,,,,,,,,,,1283.0951660908759,None,,,,,,,,,,,,,,,,,dream,aloud,yellow,131,34,104,1278.0101725752465,None,1278.0101725752465,None,4,3.985765112331137,1278.0101725752465,None,1282.0480178266298,None,1282.5616832689848,None,1282.5616832689848,None,f,0.4983121904078871,1282.5616832689848,None,,,color11,001,2019_Dec_06_1558,ProdSingRedo,3.2.4,59.9685182289878,
,,,,132,0,132,0,,,,,,,,,,,,,,,,,,,,,,,,1289.2137354179285,None,,,,,,,,,,,,,,,,,machinery,silent,red,132,82,175,1283.6142784280237,None,1283.6142784280237,None,5,4.037273940164596,1283.6142784280237,None,1287.6992364893667,None,1288.2133081005886,None,1288.2133081005886,None,f,0.958740564994514,1288.2133081005886,None,,,color11,001,2019_Dec_06_1558,ProdSingRedo,3.2.4,59.9685182289878,
,,,,133,0,133,0,,,,,,,,,,,,,,,,,,,,,,,,1299.4168491731398,None,,,,,,,,,,,,,,,,,vision,aloud,yellow,133,30,347,1289.730439041974,None,1289.730439041974,None,3,4.720857682172209,1289.730439041974,None,1294.4872243353166,None,1295.002681773156,None,1295.002681773156,None,n,4.376167580485344,1295.002681773156,None,,,color11,001,2019_Dec_06_1558,ProdSingRedo,3.2.4,59.9685182289878,
,,,,134,0,134,0,,,,,,,,,,,,,,,,,,,,,,,,1306.035541035235,None,,,,,,,,,,,,,,,,,finance,new_sing,blue,134,111,129,1299.9336803082842,None,1299.9336803082842,None,4,4.526070392224938,1299.9336803082842,None,1304.491746931104,None,1305.0185276528355,None,1305.0185276528355,None,f,0.9761663365643471,1305.0185276528355,None,,,color11,001,2019_Dec_06_1558,ProdSingRedo,3.2.4,59.9685182289878,
,,,,135,0,135,0,,,,,,,,,,,,,,,,,,,,,,,,1310.0534093629103,None,,,,,,,,,,,,,,,,,minor,sing,blue,135,6,191,1306.552387098316,None,1306.552387098316,None,6,2.297834490891546,1306.552387098316,None,1308.8863090553787,None,1309.392123555066,None,1309.392123555066,None,r,0.6186501875054091,1309.392123555066,None,,,color11,001,2019_Dec_06_1558,ProdSingRedo,3.2.4,59.9685182289878,
,,,,136,0,136,0,,,,,,,,,,,,,,,,,,,,,,,,1314.3713877857663,None,,,,,,,,,,,,,,,,,division,aloud,yellow,136,43,101,1310.5536015625112,None,1310.5536015625112,None,6,2.560441747540608,1310.5536015625112,None,1313.154141151579,None,1313.6605505985208,None,1313.6605505985208,None,r,0.6613411663565785,1313.6605505985208,None,,,color11,001,2019_Dec_06_1558,ProdSingRedo,3.2.4,59.9685182289878,
,,,,137,0,137,0,,,,,,,,,,,,,,,,,,,,,,,,1318.5560746530537,None,,,,,,,,,,,,,,,,,thing,sing,blue,137,15,328,1314.8881358830258,None,1314.8881358830258,None,3,1.6977184868883342,1314.8881358830258,None,1316.6248481529765,None,1317.1389757448342,None,1317.1389757448342,None,f,1.375033977208659,1317.1389757448342,None,,,color11,001,2019_Dec_06_1558,ProdSingRedo,3.2.4,59.9685182289878,
,,,,138,0,138,0,,,,,,,,,,,,,,,,,,,,,,,,1324.7245856670197,None,,,,,,,,,,,,,,,,,speech,new_silent,red,138,174,298,1319.0728921040427,None,1319.0728921040427,None,6,2.4006708320230246,1319.0728921040427,None,1321.5126385125332,None,1322.0237677309196,None,1322.0237677309196,None,f,2.665569865144789,1322.0237677309196,None,,,color11,001,2019_Dec_06_1558,ProdSingRedo,3.2.4,59.9685182289878,
,,,,139,0,139,0,,,,,,,,,,,,,,,,,,,,,,,,1333.1771811370272,None,,,,,,,,,,,,,,,,,angle,new_silent,red,139,161,7,1325.2413636208512,None,1325.2413636208512,None,1,6.079498726408929,1325.2413636208512,None,1331.3599609381054,None,1331.8768262832891,None,1331.8768262832891,None,n,1.251989948330447,1331.8768262832891,None,,,color11,001,2019_Dec_06_1558,ProdSingRedo,3.2.4,59.9685182289878,
,,,,140,0,140,0,,,,,,,,,,,,,,,,,,,,,,,,1338.828916374594,None,,,,,,,,,,,,,,,,,burden,aloud,yellow,140,46,36,1333.693838110892,None,1333.693838110892,None,6,3.578494810964912,1333.693838110892,None,1337.3005666462705,None,1337.8118305285461,None,1337.8118305285461,None,r,0.9733732244931161,1337.8118305285461,None,,,color11,001,2019_Dec_06_1558,ProdSingRedo,3.2.4,59.9685182289878,
,,,,141,0,141,0,,,,,,,,,,,,,,,,,,,,,,,,1343.1633471313398,None,,,,,,,,,,,,,,,,,review,new_aloud,yellow,141,127,263,1339.3481453375425,None,1339.3481453375425,None,4,2.4207314152736217,1339.3481453375425,None,1341.8174170635175,None,1342.3298823477235,None,1342.3298823477235,None,r,0.814102400559932,1342.3298823477235,None,,,color11,001,2019_Dec_06_1558,ProdSingRedo,3.2.4,59.9685182289878,
,,,,142,0,142,0,,,,,,,,,,,,,,,,,,,,,,,,1353.0499855384696,None,,,,,,,,,,,,,,,,,error,new_silent,red,142,158,117,1343.6643746830523,None,1343.6643746830523,None,3,8.111312087858096,1343.6643746830523,None,1351.8161366668064,None,1352.3161951352376,None,1352.3161951352376,None,f,0.6995484244544059,1352.3161951352376,None,,,color11,001,2019_Dec_06_1558,ProdSingRedo,3.2.4,59.9685182289878,
,,,,143,0,143,0,,,,,,,,,,,,,,,,,,,,,,,,1356.8844253143761,None,,,,,,,,,,,,,,,,,cross,sing,blue,143,5,80,1353.550150058698,None,1353.550150058698,None,6,1.9614142519421875,1353.550150058698,None,1355.5507095518988,None,1356.0675674329977,None,1356.0675674329977,None,r,0.7797969777602702,1356.0675674329977,None,,,color11,001,2019_Dec_06_1558,ProdSingRedo,3.2.4,59.9685182289878,
,,,,144,0,144,0,,,,,,,,,,,,,,,,,,,,,,,,1370.6220740124118,None,,,,,,,,,,,,,,,,,height,aloud,yellow,144,33,152,1357.4030963391997,None,1357.4030963391997,None,4,7.540947810746729,1357.4030963391997,None,1364.9866847463418,None,1365.5037992044818,None,1365.5037992044818,None,n,5.078727129846811,1365.5037992044818,None,,,color11,001,2019_Dec_06_1558,ProdSingRedo,3.2.4,59.9685182289878,
,,,,145,0,145,0,,,,,,,,,,,,,,,,,,,,,,,,1376.4236958895344,None,,,,,,,,,,,,,,,,,judge,new_silent,red,145,163,166,1371.1219144680072,None,1371.1219144680072,None,3,3.3962760579306632,1371.1219144680072,None,1374.5563004405703,None,1375.0734021477401,None,1375.0734021477401,None,n,1.3170979749411345,1375.0734021477401,None,,,color11,001,2019_Dec_06_1558,ProdSingRedo,3.2.4,59.9685182289878,
,,,,146,0,146,0,,,,,,,,,,,,,,,,,,,,,,,,1379.9248842294328,None,,,,,,,,,,,,,,,,,comedy,silent,red,146,64,58,1376.9237263677642,None,1376.9237263677642,None,5,2.010499749565497,1376.9237263677642,None,1378.9822884174064,None,1379.4914337517694,None,1379.4914337517694,None,f,0.39453506702557206,1379.4914337517694,None,,,color11,001,2019_Dec_06_1558,ProdSingRedo,3.2.4,59.9685182289878,
,,,,147,0,147,0,,,,,,,,,,,,,,,,,,,,,,,,1391.5625341713894,None,,,,,,,,,,,,,,,,,empty,new_aloud,yellow,147,135,112,1380.4421112705022,None,1380.4421112705022,None,1,8.643618698930368,1380.4421112705022,None,1389.1320870432537,None,1389.6305581559427,None,1389.6305581559427,None,n,1.9105572851840407,1389.6305581559427,None,,,color11,001,2019_Dec_06_1558,ProdSingRedo,3.2.4,59.9685182289878,
,,,,148,0,148,0,,,,,,,,,,,,,,,,,,,,,,,,1395.7643075066153,None,,,,,,,,,,,,,,,,,audience,silent,red,148,65,14,1392.061730230227,None,1392.061730230227,None,4,2.5435341061092913,1392.061730230227,None,1394.6496894641314,None,1395.1628908910789,None,1395.1628908910789,None,n,0.569957175059244,1395.1628908910789,None,,,color11,001,2019_Dec_06_1558,ProdSingRedo,3.2.4,59.9685182289878,
,,,,149,0,149,0,,,,,,,,,,,,,,,,,,,,,,,,1398.7972333233338,None,,,,,,,,,,,,,,,,,pressure,new_silent,red,149,168,232,1396.2964091671165,None,1396.2964091671165,None,4,1.7883675799239427,1396.2964091671165,None,1398.1323090989608,None,1398.6472832390573,None,1398.6472832390573,None,f,0.10146979708224535,1398.6472832390573,None,,,color11,001,2019_Dec_06_1558,ProdSingRedo,3.2.4,59.9685182289878,
,,,,150,0,150,0,,,,,,,,,,,,,,,,,,,,,,,,1404.6324527820107,None,,,,,,,,,,,,,,,,,tennis,new_aloud,yellow,150,128,323,1399.3141403428745,None,1399.3141403428745,None,1,3.186251209117472,1399.3141403428745,None,1402.5316183627583,None,1403.031871207757,None,1403.031871207757,None,n,1.5576679178047925,1403.031871207757,None,,,color11,001,2019_Dec_06_1558,ProdSingRedo,3.2.4,59.9685182289878,
,,,,151,0,151,0,,,,,,,,,,,,,,,,,,,,,,,,1411.4563669951167,None,,,,,,,,,,,,,,,,,engineer,new_sing,blue,151,91,114,1405.1491368131246,None,1405.1491368131246,None,6,2.8710379081312567,1405.1491368131246,None,1408.0713694365695,None,1408.583670511609,None,1408.583670511609,None,r,2.836280598770827,1408.583670511609,None,,,color11,001,2019_Dec_06_1558,ProdSingRedo,3.2.4,59.9685182289878,
,,,,152,0,152,0,,,,,,,,,,,,,,,,,,,,,,,,1415.8692350275815,None,,,,,,,,,,,,,,,,,drink,aloud,yellow,152,56,105,1411.9860873108264,None,1411.9860873108264,None,3,1.6659125895239413,1411.9860873108264,None,1413.6851288015023,None,1414.1851651889738,None,1414.1851651889738,None,n,1.6507499821018428,1414.1851651889738,None,,,color11,001,2019_Dec_06_1558,ProdSingRedo,3.2.4,59.9685182289878,
,,,,153,0,153,0,,,,,,,,,,,,,,,,,,,,,,,,1419.9204390731174,None,,,,,,,,,,,,,,,,,express,new_sing,blue,153,99,124,1416.3860391054768,None,1416.3860391054768,None,6,2.713473242940381,1416.3860391054768,None,1419.1419685203582,None,1419.6425385875627,None,1419.6425385875627,None,r,0.2335045919753611,1419.6425385875627,None,,,color11,001,2019_Dec_06_1558,ProdSingRedo,3.2.4,59.9685182289878,
,,,,154,0,154,0,,,,,,,,,,,,,,,,,,,,,,,,1433.8914172686636,None,,,,,,,,,,,,,,,,,split,new_aloud,yellow,154,149,299,1420.4372565241065,None,1420.4372565241065,None,6,9.261887908447534,1420.4372565241065,None,1429.7440301547758,None,1430.2569631866645,None,1430.2569631866645,None,r,3.601629341254011,1430.2569631866645,None,,,color11,001,2019_Dec_06_1558,ProdSingRedo,3.2.4,59.9685182289878,
,,,,155,0,155,0,,,,,,,,,,,,,,,,,,,,,,,,1440.0265123264398,None,,,,,,,,,,,,,,,,,poetry,new_sing,blue,155,110,225,1434.409702961566,None,1434.409702961566,None,6,2.1287652272731066,1434.409702961566,None,1436.5754311268684,None,1437.0754687581211,None,1437.0754687581211,None,r,2.926963591016829,1437.0754687581211,None,,,color11,001,2019_Dec_06_1558,ProdSingRedo,3.2.4,59.9685182289878,
,,,,156,0,156,0,,,,,,,,,,,,,,,,,,,,,,,,1445.1447218239773,None,,,,,,,,,,,,,,,,,revolution,aloud,yellow,156,54,264,1440.5478803636506,None,1440.5478803636506,None,3,3.174154773587361,1440.5478803636506,None,1443.762113696197,None,1444.2779141694773,None,1444.2779141694773,None,f,0.8282452316489071,1444.2779141694773,None,,,color11,001,2019_Dec_06_1558,ProdSingRedo,3.2.4,59.9685182289878,
,,,,157,0,157,0,,,,,,,,,,,,,,,,,,,,,,,,1449.2314336274285,None,,,,,,,,,,,,,,,,,orchestra,new_aloud,yellow,157,126,206,1445.6616994410288,None,1445.6616994410288,None,1,1.7959933571983129,1445.6616994410288,None,1447.4954671410378,None,1448.0123110271525,None,1448.0123110271525,None,n,1.1972379884682596,1448.0123110271525,None,,,color11,001,2019_Dec_06_1558,ProdSingRedo,3.2.4,59.9685182289878,
,,,,158,0,158,0,,,,,,,,,,,,,,,,,,,,,,,,1454.0142600787804,None,,,,,,,,,,,,,,,,,oxygen,new_sing,blue,158,103,209,1449.7627717771102,None,1449.7627717771102,None,3,2.5026774189900607,1449.7627717771102,None,1452.318778942572,None,1452.8304446400143,None,1452.8304446400143,None,n,1.1469597967807204,1452.8304446400143,None,,,color11,001,2019_Dec_06_1558,ProdSingRedo,3.2.4,59.9685182289878,
,,,,159,0,159,0,,,,,,,,,,,,,,,,,,,,,,,,1459.2157948752865,None,,,,,,,,,,,,,,,,,grade,aloud,yellow,159,52,140,1454.5142149834428,None,1454.5142149834428,None,3,2.6470129780936986,1454.5142149834428,None,1457.198494748678,None,1457.7153090897482,None,1457.7153090897482,None,f,1.4536936192307621,1457.7153090897482,None,,,color11,001,2019_Dec_06_1558,ProdSingRedo,3.2.4,59.9685182289878,
,,,,160,0,160,0,,,,,,,,,,,,,,,,,,,,,,,,1468.3353168026078,None,,,,,,,,,,,,,,,,,pretty,new_aloud,yellow,160,137,233,1459.7158623628784,None,1459.7158623628784,None,1,6.52592670917511,1459.7158623628784,None,1466.2892393192742,None,1466.7919537476264,None,1466.7919537476264,None,f,1.5045680021867156,1466.7919537476264,None,,,color11,001,2019_Dec_06_1558,ProdSingRedo,3.2.4,59.9685182289878,
,,,,161,0,161,0,,,,,,,,,,,,,,,,,,,,,,,,1473.653531897813,None,,,,,,,,,,,,,,,,,portion,silent,red,161,78,228,1468.8520515267737,None,1468.8520515267737,None,3,3.1003784898202866,1468.8520515267737,None,1471.9880416493397,None,1472.5032686344348,None,1472.5032686344348,None,f,1.1057896194979548,1472.5032686344348,None,,,color11,001,2019_Dec_06_1558,ProdSingRedo,3.2.4,59.9685182289878,
,,,,162,0,162,0,,,,,,,,,,,,,,,,,,,,,,,,1477.2546872715466,None,,,,,,,,,,,,,,,,,scene,silent,red,162,81,273,1474.1703490379732,None,1474.1703490379732,None,4,1.4297576360404491,1474.1703490379732,None,1475.641647565877,None,1476.1543992834631,None,1476.1543992834631,None,f,1.0535446491558105,1476.1543992834631,None,,,color11,001,2019_Dec_06_1558,ProdSingRedo,3.2.4,59.9685182289878,
,,,,163,0,163,0,,,,,,,,,,,,,,,,,,,,,,,,1483.7899014432915,None,,,,,,,,,,,,,,,,,income,new_silent,red,163,175,159,1477.7714142207988,None,1477.7714142207988,None,3,3.6765317642129958,1477.7714142207988,None,1481.4757934445515,None,1482.005988971796,None,1482.005988971796,None,f,1.7538273502141237,1482.005988971796,None,,,color11,001,2019_Dec_06_1558,ProdSingRedo,3.2.4,59.9685182289878,
,,,,164,0,164,0,,,,,,,,,,,,,,,,,,,,,,,,1491.5424306697678,None,,,,,,,,,,,,,,,,,novel,silent,red,164,75,202,1484.2935498117004,None,1484.2935498117004,None,2,5.481732034124434,1484.2935498117004,None,1489.8112561071757,None,1490.3253034604713,None,1490.3253034604713,None,n,1.169798563933,1490.3253034604713,None,,,color11,001,2019_Dec_06_1558,ProdSingRedo,3.2.4,59.9685182289878,
,,,,165,0,165,0,,,,,,,,,,,,,,,,,,,,,,,,1495.4435238430742,None,,,,,,,,,,,,,,,,,thick,new_sing,blue,165,101,327,1492.0591843652073,None,1492.0591843652073,None,1,2.3957719234749675,1492.0591843652073,None,1494.5011152543593,None,1495.0101595129818,None,1495.0101595129818,None,n,0.3967139492742717,1495.0101595129818,None,,,color11,001,2019_Dec_06_1558,ProdSingRedo,3.2.4,59.9685182289878,
,,,,166,0,166,0,,,,,,,,,,,,,,,,,,,,,,,,1501.7455036838073,None,,,,,,,,,,,,,,,,,bitter,silent,red,166,84,23,1495.945324235363,None,1495.945324235363,None,6,4.8292447929270566,1495.945324235363,None,1500.8130779589992,None,1501.3286314965226,None,1501.3286314965226,None,r,0.37496120226569474,1501.3286314965226,None,,,color11,001,2019_Dec_06_1558,ProdSingRedo,3.2.4,59.9685182289878,
,,,,167,0,167,0,,,,,,,,,,,,,,,,,,,,,,,,1505.6169819710776,None,,,,,,,,,,,,,,,,,fellow,silent,red,167,80,126,1502.2623939092737,None,1502.2623939092737,None,1,2.6796856387518346,1502.2623939092737,None,1504.9636876790319,None,1505.4669954997953,None,1505.4669954997953,None,n,0.12356371339410543,1505.4669954997953,None,,,color11,001,2019_Dec_06_1558,ProdSingRedo,3.2.4,59.9685182289878,
,,,,168,0,168,0,,,,,,,,,,,,,,,,,,,,,,,,1508.7475961074233,None,,,,,,,,,,,,,,,,,resistance,silent,red,168,62,262,1506.146765731275,None,1506.146765731275,None,6,1.5879492815583944,1506.146765731275,None,1507.7649232912809,None,1508.2807492667343,None,1508.2807492667343,None,r,0.42927962518297136,1508.2807492667343,None,,,color11,001,2019_Dec_06_1558,ProdSingRedo,3.2.4,59.9685182289878,
,,,,169,0,169,0,,,,,,,,,,,,,,,,,,,,,,,,1513.2677164031193,None,,,,,,,,,,,,,,,,,master,silent,red,169,74,180,1509.264419778483,None,1509.264419778483,None,2,1.9655365878716111,1509.264419778483,None,1511.267018202925,None,1511.7706454230938,None,1511.7706454230938,None,n,1.468816418433562,1511.7706454230938,None,,,color11,001,2019_Dec_06_1558,ProdSingRedo,3.2.4,59.9685182289878,
,,,,170,0,170,0,,,,,,,,,,,,,,,,,,,,,,,,1517.4503186219372,None,,,,,,,,,,,,,,,,,rapid,new_silent,red,170,154,252,1513.7991148873698,None,1513.7991148873698,None,2,2.039718418382108,1513.7991148873698,None,1515.8672648277134,None,1516.3664969629608,None,1516.3664969629608,None,n,1.047087307786569,1516.3664969629608,None,,,color11,001,2019_Dec_06_1558,ProdSingRedo,3.2.4,59.9685182289878,
,,,,171,0,171,0,,,,,,,,,,,,,,,,,,,,,,,,1520.4845086629502,None,,,,,,,,,,,,,,,,,colonel,new_aloud,yellow,171,123,55,1517.9670508580748,None,1517.9670508580748,None,6,1.575058235321194,1517.9670508580748,None,1519.5895297955722,None,1520.1010779340286,None,1520.1010779340286,None,r,0.35209599998779595,1520.1010779340286,None,,,color11,001,2019_Dec_06_1558,ProdSingRedo,3.2.4,59.9685182289878,
,,,,172,0,172,0,,,,,,,,,,,,,,,,,,,,,,,,1523.8855396355502,None,,,,,,,,,,,,,,,,,citizen,aloud,yellow,172,32,50,1520.99074301566,None,1520.99074301566,None,6,1.4065077237319201,1520.99074301566,None,1522.4421784467995,None,1522.9518960255664,None,1522.9518960255664,None,r,0.9093008355703205,1522.9518960255664,None,,,color11,001,2019_Dec_06_1558,ProdSingRedo,3.2.4,59.9685182289878,
,,,,173,0,173,0,,,,,,,,,,,,,,,,,,,,,,,,1527.6034446617123,None,,,,,,,,,,,,,,,,,subject,new_sing,blue,173,90,312,1524.4023309624754,None,1524.4023309624754,None,5,1.762464195722714,1524.4023309624754,None,1526.1876541404054,None,1526.7083280202933,None,1526.7083280202933,None,r,0.8485630135983229,1526.7083280202933,None,,,color11,001,2019_Dec_06_1558,ProdSingRedo,3.2.4,59.9685182289878,
,,,,174,0,174,0,,,,,,,,,,,,,,,,,,,,,,,,1531.6713569965214,None,,,,,,,,,,,,,,,,,interior,new_aloud,yellow,174,134,164,1528.1203168490902,None,1528.1203168490902,None,6,2.636419927701354,1528.1203168490902,None,1530.809057009872,None,1531.3212946404237,None,1531.3212946404237,None,r,0.3078235744033009,1531.3212946404237,None,,,color11,001,2019_Dec_06_1558,ProdSingRedo,3.2.4,59.9685182289878,
,,,,175,0,175,0,,,,,,,,,,,,,,,,,,,,,,,,1535.872719186591,None,,,,,,,,,,,,,,,,,private,new_silent,red,175,160,237,1532.1906686860602,None,1532.1906686860602,None,3,1.2707782213110477,1532.1906686860602,None,1533.5124528442975,None,1534.0219698264264,None,1534.0219698264264,None,r,1.8144908424001187,1534.0219698264264,None,,,color11,001,2019_Dec_06_1558,ProdSingRedo,3.2.4,59.9685182289878,
,,,,176,0,176,0,,,,,,,,,,,,,,,,,,,,,,,,1544.358626427129,None,,,,,,,,,,,,,,,,,tragedy,new_sing,blue,176,112,335,1536.39049607981,None,1536.39049607981,None,6,2.0298033533617854,1536.39049607981,None,1538.4619983143639,None,1538.9735131755006,None,1538.9735131755006,None,r,5.343111453810707,1538.9735131755006,None,,,color11,001,2019_Dec_06_1558,ProdSingRedo,3.2.4,59.9685182289878,
,,,,177,0,177,0,,,,,,,,,,,,,,,,,,,,,,,,1547.7930074236356,None,,,,,,,,,,,,,,,,,foundation,aloud,yellow,177,50,132,1544.8752606976777,None,1544.8752606976777,None,3,1.384334190748632,1544.8752606976777,None,1546.3092703574803,None,1546.8092924386729,None,1546.8092924386729,None,f,0.9387561772018671,1546.8092924386729,None,,,color11,001,2019_Dec_06_1558,ProdSingRedo,3.2.4,59.9685182289878,
,,,,178,0,178,0,,,,,,,,,,,,,,,,,,,,,,,,1550.960670023458,None,,,,,,,,,,,,,,,,,education,new_silent,red,178,165,108,1548.3097732481547,None,1548.3097732481547,None,2,1.3097971954848617,1548.3097732481547,None,1549.644547351636,None,1550.1601319892798,None,1550.1601319892798,None,n,0.7633241172879934,1550.1601319892798,None,,,color11,001,2019_Dec_06_1558,ProdSingRedo,3.2.4,59.9685182289878,
,,,,179,0,179,0,,,,,,,,,,,,,,,,,,,,,,,,1554.8617103262804,None,,,,,,,,,,,,,,,,,surface,sing,blue,179,24,316,1551.4773167341482,None,1551.4773167341482,None,4,1.3501799148507416,1551.4773167341482,None,1552.862638979219,None,1553.3780609625392,None,1553.3780609625392,None,f,1.4573394996114075,1553.3780609625392,None,,,color11,001,2019_Dec_06_1558,ProdSingRedo,3.2.4,59.9685182289878,
,,,,,,,,,,,,,,,,,,,,,,,,,,,,,,,,,,,,,,,,,,,,,,,,,,,,,,,,,,,,,,,,,,,,,,,,,1555.3621102750767,None,,,,,,,
