StudyLoop.thisRepN,StudyLoop.thisTrialN,StudyLoop.thisN,StudyLoop.thisIndex,TestLoop.thisRepN,TestLoop.thisTrialN,TestLoop.thisN,TestLoop.thisIndex,textCondition.started,textCondition.stopped,keyCondition.keys,keyCondition.rt,keyCondition.started,keyCondition.stopped,Condition,stim_colors,color_sing,color_aloud,color_silent,textWelcome.started,textWelcome.stopped,keyWelcome.keys,keyWelcome.rt,keyWelcome.started,keyWelcome.stopped,textAloud.started,textAloud.stopped,textSilent.started,textSilent.stopped,textSing.started,textSing.stopped,textBlank500.started,textBlank500.stopped,study_word,study_type,study_color,study_num,study_word_num,textStudy.started,textStudy.stopped,keyStudy.keys,keyStudy.started,keyStudy.stopped,textTestInstructions.started,textTestInstructions.stopped,key_resp_3.keys,key_resp_3.rt,key_resp_3.started,key_resp_3.stopped,testWord,testType,testColor,testN,test_num,test_word_num,textConf.started,textConf.stopped,textConfScale.started,textConfScale.stopped,keyConf.keys,keyConf.rt,keyConf.started,keyConf.stopped,textTestBlank.started,textTestBlank.stopped,textRKN.started,textRKN.stopped,textRKNScale.started,textRKNScale.stopped,keyRKN.keys,keyRKN.rt,keyRKN.started,keyRKN.stopped,textEnd.started,textEnd.stopped,participant,session,date,expName,psychopyVersion,frameRate,
,,,,,,,,11.930602799984626,None,y,1.3479423999087885,11.930602799984626,None,,,,,,,,,,,,,,,,,,,,,,,,,,,,,,,,,,,,,,,,,,,,,,,,,,,,,,,,,,,,,,color3,001,2019_Nov_21_1518,ProdSingRedo,3.2.3,59.948839675440794,
,,,,,,,,,,,,,,ColoredTest,"['blue', 'red', 'yellow']",blue,red,yellow,13.325057599926367,None,space,499.5695445999736,13.325057599926367,None,,,,,,,,,,,,,,,,,,,,,,,,,,,,,,,,,,,,,,,,,,,,,,,,,,,color3,001,2019_Nov_21_1518,ProdSingRedo,3.2.3,59.948839675440794,
0,0,0,0,,,,,,,,,,,,,,,,,,,,,,13.325057599926367,None,13.325057599926367,None,13.325057599926367,None,515.429892999935,None,guard,sing,blue,11,145,513.4268822999438,None,None,513.4268822999438,None,,,,,,,,,,,,,,,,,,,,,,,,,,,,,,,,,color3,001,2019_Nov_21_1518,ProdSingRedo,3.2.3,59.948839675440794,
1,0,1,0,,,,,,,,,,,,,,,,,,,,,,,,,,,,517.945857499959,None,cross,silent,yellow,65,80,515.9399098999565,None,None,515.9399098999565,None,,,,,,,,,,,,,,,,,,,,,,,,,,,,,,,,,color3,001,2019_Nov_21_1518,ProdSingRedo,3.2.3,59.948839675440794,
2,0,2,0,,,,,,,,,,,,,,,,,,,,,,,,,,,,520.4627525999676,None,notice,sing,blue,14,201,518.4559117000317,None,None,518.4559117000317,None,,,,,,,,,,,,,,,,,,,,,,,,,,,,,,,,,color3,001,2019_Nov_21_1518,ProdSingRedo,3.2.3,59.948839675440794,
3,0,3,0,,,,,,,,,,,,,,,,,,,,,,,,,,,,522.9795128999976,None,pretty,silent,yellow,86,233,520.9831402000273,None,None,520.9831402000273,None,,,,,,,,,,,,,,,,,,,,,,,,,,,,,,,,,color3,001,2019_Nov_21_1518,ProdSingRedo,3.2.3,59.948839675440794,
4,0,4,0,,,,,,,,,,,,,,,,,,,,,,,,,,,,525.496334800031,None,waste,sing,blue,20,350,523.4901011999464,None,None,523.4901011999464,None,,,,,,,,,,,,,,,,,,,,,,,,,,,,,,,,,color3,001,2019_Nov_21_1518,ProdSingRedo,3.2.3,59.948839675440794,
5,0,5,0,,,,,,,,,,,,,,,,,,,,,,,,,,,,528.0131700999336,None,defeat,sing,blue,23,88,526.0113520999439,None,None,526.0113520999439,None,,,,,,,,,,,,,,,,,,,,,,,,,,,,,,,,,color3,001,2019_Nov_21_1518,ProdSingRedo,3.2.3,59.948839675440794,
6,0,6,0,,,,,,,,,,,,,,,,,,,,,,,,,,,,530.5300236999756,None,reading,aloud,red,42,254,528.5285672999453,None,None,528.5285672999453,None,,,,,,,,,,,,,,,,,,,,,,,,,,,,,,,,,color3,001,2019_Nov_21_1518,ProdSingRedo,3.2.3,59.948839675440794,
7,0,7,0,,,,,,,,,,,,,,,,,,,,,,,,,,,,533.0468733999878,None,quick,silent,yellow,82,248,531.0534772999818,None,None,531.0534772999818,None,,,,,,,,,,,,,,,,,,,,,,,,,,,,,,,,,color3,001,2019_Nov_21_1518,ProdSingRedo,3.2.3,59.948839675440794,
8,0,8,0,,,,,,,,,,,,,,,,,,,,,,,,,,,,535.5637185999658,None,marriage,silent,yellow,76,179,533.5673949000193,None,None,533.5673949000193,None,,,,,,,,,,,,,,,,,,,,,,,,,,,,,,,,,color3,001,2019_Nov_21_1518,ProdSingRedo,3.2.3,59.948839675440794,
9,0,9,0,,,,,,,,,,,,,,,,,,,,,,,,,,,,538.0804983000271,None,thick,aloud,red,57,327,536.0753232999705,None,None,536.0753232999705,None,,,,,,,,,,,,,,,,,,,,,,,,,,,,,,,,,color3,001,2019_Nov_21_1518,ProdSingRedo,3.2.3,59.948839675440794,
10,0,10,0,,,,,,,,,,,,,,,,,,,,,,,,,,,,540.5973362999503,None,youth,aloud,red,31,359,538.5943214999279,None,None,538.5943214999279,None,,,,,,,,,,,,,,,,,,,,,,,,,,,,,,,,,color3,001,2019_Nov_21_1518,ProdSingRedo,3.2.3,59.948839675440794,
11,0,11,0,,,,,,,,,,,,,,,,,,,,,,,,,,,,543.1145243999781,None,speech,aloud,red,55,298,541.1060199999483,None,None,541.1060199999483,None,,,,,,,,,,,,,,,,,,,,,,,,,,,,,,,,,color3,001,2019_Nov_21_1518,ProdSingRedo,3.2.3,59.948839675440794,
12,0,12,0,,,,,,,,,,,,,,,,,,,,,,,,,,,,545.6311199000338,None,author,aloud,red,34,15,543.6300874999724,None,None,543.6300874999724,None,,,,,,,,,,,,,,,,,,,,,,,,,,,,,,,,,color3,001,2019_Nov_21_1518,ProdSingRedo,3.2.3,59.948839675440794,
13,0,13,0,,,,,,,,,,,,,,,,,,,,,,,,,,,,548.147904500016,None,tragedy,silent,yellow,66,335,546.1469564000145,None,None,546.1469564000145,None,,,,,,,,,,,,,,,,,,,,,,,,,,,,,,,,,color3,001,2019_Nov_21_1518,ProdSingRedo,3.2.3,59.948839675440794,
14,0,14,0,,,,,,,,,,,,,,,,,,,,,,,,,,,,550.6647552999202,None,clean,sing,blue,21,51,548.6616383999353,None,None,548.6616383999353,None,,,,,,,,,,,,,,,,,,,,,,,,,,,,,,,,,color3,001,2019_Nov_21_1518,ProdSingRedo,3.2.3,59.948839675440794,
15,0,15,0,,,,,,,,,,,,,,,,,,,,,,,,,,,,553.1815207999898,None,pressure,sing,blue,5,232,551.1805714999791,None,None,551.1805714999791,None,,,,,,,,,,,,,,,,,,,,,,,,,,,,,,,,,color3,001,2019_Nov_21_1518,ProdSingRedo,3.2.3,59.948839675440794,
16,0,16,0,,,,,,,,,,,,,,,,,,,,,,,,,,,,555.6994479999412,None,broke,aloud,red,48,32,553.7015389000298,None,None,553.7015389000298,None,,,,,,,,,,,,,,,,,,,,,,,,,,,,,,,,,color3,001,2019_Nov_21_1518,ProdSingRedo,3.2.3,59.948839675440794,
17,0,17,0,,,,,,,,,,,,,,,,,,,,,,,,,,,,558.2152501000091,None,bicycle,silent,yellow,61,21,556.2175361999543,None,None,556.2175361999543,None,,,,,,,,,,,,,,,,,,,,,,,,,,,,,,,,,color3,001,2019_Nov_21_1518,ProdSingRedo,3.2.3,59.948839675440794,
18,0,18,0,,,,,,,,,,,,,,,,,,,,,,,,,,,,560.7320238000248,None,patient,silent,yellow,87,213,558.7296686000191,None,None,558.7296686000191,None,,,,,,,,,,,,,,,,,,,,,,,,,,,,,,,,,color3,001,2019_Nov_21_1518,ProdSingRedo,3.2.3,59.948839675440794,
19,0,19,0,,,,,,,,,,,,,,,,,,,,,,,,,,,,563.2491238999646,None,citizen,silent,yellow,84,50,561.2507509000134,None,None,561.2507509000134,None,,,,,,,,,,,,,,,,,,,,,,,,,,,,,,,,,color3,001,2019_Nov_21_1518,ProdSingRedo,3.2.3,59.948839675440794,
20,0,20,0,,,,,,,,,,,,,,,,,,,,,,,,,,,,565.7657234999351,None,blind,silent,yellow,72,24,563.7650441000005,None,None,563.7650441000005,None,,,,,,,,,,,,,,,,,,,,,,,,,,,,,,,,,color3,001,2019_Nov_21_1518,ProdSingRedo,3.2.3,59.948839675440794,
21,0,21,0,,,,,,,,,,,,,,,,,,,,,,,,,,,,568.2826748000225,None,straight,silent,yellow,73,307,566.2839347999543,None,None,566.2839347999543,None,,,,,,,,,,,,,,,,,,,,,,,,,,,,,,,,,color3,001,2019_Nov_21_1518,ProdSingRedo,3.2.3,59.948839675440794,
22,0,22,0,,,,,,,,,,,,,,,,,,,,,,,,,,,,570.799452999956,None,murder,aloud,red,37,195,568.7958535000216,None,None,568.7958535000216,None,,,,,,,,,,,,,,,,,,,,,,,,,,,,,,,,,color3,001,2019_Nov_21_1518,ProdSingRedo,3.2.3,59.948839675440794,
23,0,23,0,,,,,,,,,,,,,,,,,,,,,,,,,,,,573.3164268999826,None,character,aloud,red,52,46,571.3200520999962,None,None,571.3200520999962,None,,,,,,,,,,,,,,,,,,,,,,,,,,,,,,,,,color3,001,2019_Nov_21_1518,ProdSingRedo,3.2.3,59.948839675440794,
24,0,24,0,,,,,,,,,,,,,,,,,,,,,,,,,,,,575.8330471999943,None,bucket,sing,blue,28,33,573.8336862999713,None,None,573.8336862999713,None,,,,,,,,,,,,,,,,,,,,,,,,,,,,,,,,,color3,001,2019_Nov_21_1518,ProdSingRedo,3.2.3,59.948839675440794,
25,0,25,0,,,,,,,,,,,,,,,,,,,,,,,,,,,,578.3499549999833,None,smell,sing,blue,12,291,576.340894300025,None,None,576.340894300025,None,,,,,,,,,,,,,,,,,,,,,,,,,,,,,,,,,color3,001,2019_Nov_21_1518,ProdSingRedo,3.2.3,59.948839675440794,
26,0,26,0,,,,,,,,,,,,,,,,,,,,,,,,,,,,580.8675576000242,None,under,aloud,red,30,343,578.860901899985,None,None,578.860901899985,None,,,,,,,,,,,,,,,,,,,,,,,,,,,,,,,,,color3,001,2019_Nov_21_1518,ProdSingRedo,3.2.3,59.948839675440794,
27,0,27,0,,,,,,,,,,,,,,,,,,,,,,,,,,,,583.3836155999452,None,century,sing,blue,3,45,581.3854156000307,None,None,581.3854156000307,None,,,,,,,,,,,,,,,,,,,,,,,,,,,,,,,,,color3,001,2019_Nov_21_1518,ProdSingRedo,3.2.3,59.948839675440794,
28,0,28,0,,,,,,,,,,,,,,,,,,,,,,,,,,,,585.9004946999485,None,dream,sing,blue,8,104,583.8961539999582,None,None,583.8961539999582,None,,,,,,,,,,,,,,,,,,,,,,,,,,,,,,,,,color3,001,2019_Nov_21_1518,ProdSingRedo,3.2.3,59.948839675440794,
29,0,29,0,,,,,,,,,,,,,,,,,,,,,,,,,,,,588.4173142999643,None,personnel,silent,yellow,70,219,586.410442900029,None,None,586.410442900029,None,,,,,,,,,,,,,,,,,,,,,,,,,,,,,,,,,color3,001,2019_Nov_21_1518,ProdSingRedo,3.2.3,59.948839675440794,
30,0,30,0,,,,,,,,,,,,,,,,,,,,,,,,,,,,590.9341661999933,None,quarter,sing,blue,13,246,588.9337711000117,None,None,588.9337711000117,None,,,,,,,,,,,,,,,,,,,,,,,,,,,,,,,,,color3,001,2019_Nov_21_1518,ProdSingRedo,3.2.3,59.948839675440794,
31,0,31,0,,,,,,,,,,,,,,,,,,,,,,,,,,,,593.4509551000083,None,health,silent,yellow,69,149,591.4445620999904,None,None,591.4445620999904,None,,,,,,,,,,,,,,,,,,,,,,,,,,,,,,,,,color3,001,2019_Nov_21_1518,ProdSingRedo,3.2.3,59.948839675440794,
32,0,32,0,,,,,,,,,,,,,,,,,,,,,,,,,,,,595.9678306999849,None,shear,sing,blue,29,283,593.9655082999961,None,None,593.9655082999961,None,,,,,,,,,,,,,,,,,,,,,,,,,,,,,,,,,color3,001,2019_Nov_21_1518,ProdSingRedo,3.2.3,59.948839675440794,
33,0,33,0,,,,,,,,,,,,,,,,,,,,,,,,,,,,598.4846655000001,None,breath,silent,yellow,77,27,596.4832381999586,None,None,596.4832381999586,None,,,,,,,,,,,,,,,,,,,,,,,,,,,,,,,,,color3,001,2019_Nov_21_1518,ProdSingRedo,3.2.3,59.948839675440794,
34,0,34,0,,,,,,,,,,,,,,,,,,,,,,,,,,,,601.001459299936,None,music,silent,yellow,71,196,598.9980732999975,None,None,598.9980732999975,None,,,,,,,,,,,,,,,,,,,,,,,,,,,,,,,,,color3,001,2019_Nov_21_1518,ProdSingRedo,3.2.3,59.948839675440794,
35,0,35,0,,,,,,,,,,,,,,,,,,,,,,,,,,,,603.5183573999675,None,smooth,silent,yellow,74,292,601.5124024000252,None,None,601.5124024000252,None,,,,,,,,,,,,,,,,,,,,,,,,,,,,,,,,,color3,001,2019_Nov_21_1518,ProdSingRedo,3.2.3,59.948839675440794,
36,0,36,0,,,,,,,,,,,,,,,,,,,,,,,,,,,,606.0351985000307,None,dozen,sing,blue,6,102,604.0308396000182,None,None,604.0308396000182,None,,,,,,,,,,,,,,,,,,,,,,,,,,,,,,,,,color3,001,2019_Nov_21_1518,ProdSingRedo,3.2.3,59.948839675440794,
37,0,37,0,,,,,,,,,,,,,,,,,,,,,,,,,,,,608.5519568999298,None,distance,silent,yellow,79,100,606.5512336000102,None,None,606.5512336000102,None,,,,,,,,,,,,,,,,,,,,,,,,,,,,,,,,,color3,001,2019_Nov_21_1518,ProdSingRedo,3.2.3,59.948839675440794,
38,0,38,0,,,,,,,,,,,,,,,,,,,,,,,,,,,,611.0688742999919,None,trash,sing,blue,26,337,609.0647431999678,None,None,609.0647431999678,None,,,,,,,,,,,,,,,,,,,,,,,,,,,,,,,,,color3,001,2019_Nov_21_1518,ProdSingRedo,3.2.3,59.948839675440794,
39,0,39,0,,,,,,,,,,,,,,,,,,,,,,,,,,,,613.5856215999229,None,passage,aloud,red,53,212,611.5844948999584,None,None,611.5844948999584,None,,,,,,,,,,,,,,,,,,,,,,,,,,,,,,,,,color3,001,2019_Nov_21_1518,ProdSingRedo,3.2.3,59.948839675440794,
40,0,40,0,,,,,,,,,,,,,,,,,,,,,,,,,,,,616.103268399951,None,message,aloud,red,51,189,614.0983376000077,None,None,614.0983376000077,None,,,,,,,,,,,,,,,,,,,,,,,,,,,,,,,,,color3,001,2019_Nov_21_1518,ProdSingRedo,3.2.3,59.948839675440794,
41,0,41,0,,,,,,,,,,,,,,,,,,,,,,,,,,,,618.6193590000039,None,revolution,silent,yellow,88,264,616.6285512000322,None,None,616.6285512000322,None,,,,,,,,,,,,,,,,,,,,,,,,,,,,,,,,,color3,001,2019_Nov_21_1518,ProdSingRedo,3.2.3,59.948839675440794,
42,0,42,0,,,,,,,,,,,,,,,,,,,,,,,,,,,,621.1362052999903,None,alert,silent,yellow,67,6,619.1314265999245,None,None,619.1314265999245,None,,,,,,,,,,,,,,,,,,,,,,,,,,,,,,,,,color3,001,2019_Nov_21_1518,ProdSingRedo,3.2.3,59.948839675440794,
43,0,43,0,,,,,,,,,,,,,,,,,,,,,,,,,,,,623.6530346999643,None,guide,aloud,red,33,147,621.6483264999697,None,None,621.6483264999697,None,,,,,,,,,,,,,,,,,,,,,,,,,,,,,,,,,color3,001,2019_Nov_21_1518,ProdSingRedo,3.2.3,59.948839675440794,
44,0,44,0,,,,,,,,,,,,,,,,,,,,,,,,,,,,626.1699011999881,None,equipment,aloud,red,43,116,624.1713113000151,None,None,624.1713113000151,None,,,,,,,,,,,,,,,,,,,,,,,,,,,,,,,,,color3,001,2019_Nov_21_1518,ProdSingRedo,3.2.3,59.948839675440794,
45,0,45,0,,,,,,,,,,,,,,,,,,,,,,,,,,,,628.6866700999672,None,fellow,sing,blue,19,126,626.684172899928,None,None,626.684172899928,None,,,,,,,,,,,,,,,,,,,,,,,,,,,,,,,,,color3,001,2019_Nov_21_1518,ProdSingRedo,3.2.3,59.948839675440794,
46,0,46,0,,,,,,,,,,,,,,,,,,,,,,,,,,,,631.2035032999702,None,congress,aloud,red,35,67,629.2011113000335,None,None,629.2011113000335,None,,,,,,,,,,,,,,,,,,,,,,,,,,,,,,,,,color3,001,2019_Nov_21_1518,ProdSingRedo,3.2.3,59.948839675440794,
47,0,47,0,,,,,,,,,,,,,,,,,,,,,,,,,,,,633.720753200003,None,candidate,aloud,red,59,39,631.7195238999557,None,None,631.7195238999557,None,,,,,,,,,,,,,,,,,,,,,,,,,,,,,,,,,color3,001,2019_Nov_21_1518,ProdSingRedo,3.2.3,59.948839675440794,
48,0,48,0,,,,,,,,,,,,,,,,,,,,,,,,,,,,636.2371934999246,None,provision,sing,blue,24,243,634.2335374000249,None,None,634.2335374000249,None,,,,,,,,,,,,,,,,,,,,,,,,,,,,,,,,,color3,001,2019_Nov_21_1518,ProdSingRedo,3.2.3,59.948839675440794,
49,0,49,0,,,,,,,,,,,,,,,,,,,,,,,,,,,,638.7540183999809,None,attack,silent,yellow,63,13,636.7545986999758,None,None,636.7545986999758,None,,,,,,,,,,,,,,,,,,,,,,,,,,,,,,,,,color3,001,2019_Nov_21_1518,ProdSingRedo,3.2.3,59.948839675440794,
50,0,50,0,,,,,,,,,,,,,,,,,,,,,,,,,,,,641.2710219,None,department,aloud,red,36,90,639.2693065999774,None,None,639.2693065999774,None,,,,,,,,,,,,,,,,,,,,,,,,,,,,,,,,,color3,001,2019_Nov_21_1518,ProdSingRedo,3.2.3,59.948839675440794,
51,0,51,0,,,,,,,,,,,,,,,,,,,,,,,,,,,,643.7876565000042,None,growth,silent,yellow,80,144,641.7876073999796,None,None,641.7876073999796,None,,,,,,,,,,,,,,,,,,,,,,,,,,,,,,,,,color3,001,2019_Nov_21_1518,ProdSingRedo,3.2.3,59.948839675440794,
52,0,52,0,,,,,,,,,,,,,,,,,,,,,,,,,,,,646.304739199928,None,write,sing,blue,27,358,644.2983595000114,None,None,644.2983595000114,None,,,,,,,,,,,,,,,,,,,,,,,,,,,,,,,,,color3,001,2019_Nov_21_1518,ProdSingRedo,3.2.3,59.948839675440794,
53,0,53,0,,,,,,,,,,,,,,,,,,,,,,,,,,,,648.8213467999594,None,design,silent,yellow,62,91,646.8173383999383,None,None,646.8173383999383,None,,,,,,,,,,,,,,,,,,,,,,,,,,,,,,,,,color3,001,2019_Nov_21_1518,ProdSingRedo,3.2.3,59.948839675440794,
54,0,54,0,,,,,,,,,,,,,,,,,,,,,,,,,,,,651.33825349994,None,nature,sing,blue,0,200,649.3390955999494,None,None,649.3390955999494,None,,,,,,,,,,,,,,,,,,,,,,,,,,,,,,,,,color3,001,2019_Nov_21_1518,ProdSingRedo,3.2.3,59.948839675440794,
55,0,55,0,,,,,,,,,,,,,,,,,,,,,,,,,,,,653.8550037000095,None,state,sing,blue,4,303,651.852183299954,None,None,651.852183299954,None,,,,,,,,,,,,,,,,,,,,,,,,,,,,,,,,,color3,001,2019_Nov_21_1518,ProdSingRedo,3.2.3,59.948839675440794,
56,0,56,0,,,,,,,,,,,,,,,,,,,,,,,,,,,,656.3719673999585,None,season,sing,blue,25,277,654.3694254999282,None,None,654.3694254999282,None,,,,,,,,,,,,,,,,,,,,,,,,,,,,,,,,,color3,001,2019_Nov_21_1518,ProdSingRedo,3.2.3,59.948839675440794,
57,0,57,0,,,,,,,,,,,,,,,,,,,,,,,,,,,,658.8889958999353,None,prime,sing,blue,1,235,656.8807319999905,None,None,656.8807319999905,None,,,,,,,,,,,,,,,,,,,,,,,,,,,,,,,,,color3,001,2019_Nov_21_1518,ProdSingRedo,3.2.3,59.948839675440794,
58,0,58,0,,,,,,,,,,,,,,,,,,,,,,,,,,,,661.4055788000114,None,degree,aloud,red,46,89,659.4046476000221,None,None,659.4046476000221,None,,,,,,,,,,,,,,,,,,,,,,,,,,,,,,,,,color3,001,2019_Nov_21_1518,ProdSingRedo,3.2.3,59.948839675440794,
59,0,59,0,,,,,,,,,,,,,,,,,,,,,,,,,,,,663.9224326999392,None,raise,aloud,red,41,250,661.9199708999367,None,None,661.9199708999367,None,,,,,,,,,,,,,,,,,,,,,,,,,,,,,,,,,color3,001,2019_Nov_21_1518,ProdSingRedo,3.2.3,59.948839675440794,
60,0,60,0,,,,,,,,,,,,,,,,,,,,,,,,,,,,666.4391901999479,None,working,sing,blue,2,357,664.4417387000285,None,None,664.4417387000285,None,,,,,,,,,,,,,,,,,,,,,,,,,,,,,,,,,color3,001,2019_Nov_21_1518,ProdSingRedo,3.2.3,59.948839675440794,
61,0,61,0,,,,,,,,,,,,,,,,,,,,,,,,,,,,668.9562656999333,None,comfort,sing,blue,10,59,666.9552090999205,None,None,666.9552090999205,None,,,,,,,,,,,,,,,,,,,,,,,,,,,,,,,,,color3,001,2019_Nov_21_1518,ProdSingRedo,3.2.3,59.948839675440794,
62,0,62,0,,,,,,,,,,,,,,,,,,,,,,,,,,,,671.4728499000194,None,agreement,aloud,red,58,5,669.4721118999878,None,None,669.4721118999878,None,,,,,,,,,,,,,,,,,,,,,,,,,,,,,,,,,color3,001,2019_Nov_21_1518,ProdSingRedo,3.2.3,59.948839675440794,
63,0,63,0,,,,,,,,,,,,,,,,,,,,,,,,,,,,673.9904939000262,None,crisis,aloud,red,39,79,671.9826888999669,None,None,671.9826888999669,None,,,,,,,,,,,,,,,,,,,,,,,,,,,,,,,,,color3,001,2019_Nov_21_1518,ProdSingRedo,3.2.3,59.948839675440794,
64,0,64,0,,,,,,,,,,,,,,,,,,,,,,,,,,,,676.5066180999856,None,discovery,sing,blue,17,95,674.508278699941,None,None,674.508278699941,None,,,,,,,,,,,,,,,,,,,,,,,,,,,,,,,,,color3,001,2019_Nov_21_1518,ProdSingRedo,3.2.3,59.948839675440794,
65,0,65,0,,,,,,,,,,,,,,,,,,,,,,,,,,,,679.023456600029,None,damage,aloud,red,44,83,677.0243755999254,None,None,677.0243755999254,None,,,,,,,,,,,,,,,,,,,,,,,,,,,,,,,,,color3,001,2019_Nov_21_1518,ProdSingRedo,3.2.3,59.948839675440794,
66,0,66,0,,,,,,,,,,,,,,,,,,,,,,,,,,,,681.5402344999602,None,shape,silent,yellow,83,282,679.5377907999791,None,None,679.5377907999791,None,,,,,,,,,,,,,,,,,,,,,,,,,,,,,,,,,color3,001,2019_Nov_21_1518,ProdSingRedo,3.2.3,59.948839675440794,
67,0,67,0,,,,,,,,,,,,,,,,,,,,,,,,,,,,684.057052899967,None,place,silent,yellow,85,222,682.0529592999956,None,None,682.0529592999956,None,,,,,,,,,,,,,,,,,,,,,,,,,,,,,,,,,color3,001,2019_Nov_21_1518,ProdSingRedo,3.2.3,59.948839675440794,
68,0,68,0,,,,,,,,,,,,,,,,,,,,,,,,,,,,686.5752158999676,None,weather,sing,blue,16,352,684.5727303000167,None,None,684.5727303000167,None,,,,,,,,,,,,,,,,,,,,,,,,,,,,,,,,,color3,001,2019_Nov_21_1518,ProdSingRedo,3.2.3,59.948839675440794,
69,0,69,0,,,,,,,,,,,,,,,,,,,,,,,,,,,,689.0913394999225,None,goose,silent,yellow,89,138,687.083406599937,None,None,687.083406599937,None,,,,,,,,,,,,,,,,,,,,,,,,,,,,,,,,,color3,001,2019_Nov_21_1518,ProdSingRedo,3.2.3,59.948839675440794,
70,0,70,0,,,,,,,,,,,,,,,,,,,,,,,,,,,,691.6067356999265,None,strength,aloud,red,40,310,689.6088235999923,None,None,689.6088235999923,None,,,,,,,,,,,,,,,,,,,,,,,,,,,,,,,,,color3,001,2019_Nov_21_1518,ProdSingRedo,3.2.3,59.948839675440794,
71,0,71,0,,,,,,,,,,,,,,,,,,,,,,,,,,,,694.1244922999758,None,committee,sing,blue,15,62,692.1174509000266,None,None,692.1174509000266,None,,,,,,,,,,,,,,,,,,,,,,,,,,,,,,,,,color3,001,2019_Nov_21_1518,ProdSingRedo,3.2.3,59.948839675440794,
72,0,72,0,,,,,,,,,,,,,,,,,,,,,,,,,,,,696.641356099979,None,danger,aloud,red,54,85,694.6432620999403,None,None,694.6432620999403,None,,,,,,,,,,,,,,,,,,,,,,,,,,,,,,,,,color3,001,2019_Nov_21_1518,ProdSingRedo,3.2.3,59.948839675440794,
73,0,73,0,,,,,,,,,,,,,,,,,,,,,,,,,,,,699.1581730999751,None,pattern,silent,yellow,81,214,697.1538141999627,None,None,697.1538141999627,None,,,,,,,,,,,,,,,,,,,,,,,,,,,,,,,,,color3,001,2019_Nov_21_1518,ProdSingRedo,3.2.3,59.948839675440794,
74,0,74,0,,,,,,,,,,,,,,,,,,,,,,,,,,,,701.6750031999545,None,surface,aloud,red,38,316,699.6758109999355,None,None,699.6758109999355,None,,,,,,,,,,,,,,,,,,,,,,,,,,,,,,,,,color3,001,2019_Nov_21_1518,ProdSingRedo,3.2.3,59.948839675440794,
75,0,75,0,,,,,,,,,,,,,,,,,,,,,,,,,,,,704.1918884000042,None,taste,sing,blue,22,322,702.1885372999823,None,None,702.1885372999823,None,,,,,,,,,,,,,,,,,,,,,,,,,,,,,,,,,color3,001,2019_Nov_21_1518,ProdSingRedo,3.2.3,59.948839675440794,
76,0,76,0,,,,,,,,,,,,,,,,,,,,,,,,,,,,706.7086748000002,None,owner,silent,yellow,78,208,704.7086696999613,None,None,704.7086696999613,None,,,,,,,,,,,,,,,,,,,,,,,,,,,,,,,,,color3,001,2019_Nov_21_1518,ProdSingRedo,3.2.3,59.948839675440794,
77,0,77,0,,,,,,,,,,,,,,,,,,,,,,,,,,,,709.225523400004,None,light,aloud,red,45,171,707.2212331999326,None,None,707.2212331999326,None,,,,,,,,,,,,,,,,,,,,,,,,,,,,,,,,,color3,001,2019_Nov_21_1518,ProdSingRedo,3.2.3,59.948839675440794,
78,0,78,0,,,,,,,,,,,,,,,,,,,,,,,,,,,,711.742380599957,None,instrument,aloud,red,47,163,709.7399055999704,None,None,709.7399055999704,None,,,,,,,,,,,,,,,,,,,,,,,,,,,,,,,,,color3,001,2019_Nov_21_1518,ProdSingRedo,3.2.3,59.948839675440794,
79,0,79,0,,,,,,,,,,,,,,,,,,,,,,,,,,,,714.259185199975,None,leader,aloud,red,56,168,712.256025300012,None,None,712.256025300012,None,,,,,,,,,,,,,,,,,,,,,,,,,,,,,,,,,color3,001,2019_Nov_21_1518,ProdSingRedo,3.2.3,59.948839675440794,
80,0,80,0,,,,,,,,,,,,,,,,,,,,,,,,,,,,716.7760221000062,None,salary,sing,blue,9,271,714.7788561999332,None,None,714.7788561999332,None,,,,,,,,,,,,,,,,,,,,,,,,,,,,,,,,,color3,001,2019_Nov_21_1518,ProdSingRedo,3.2.3,59.948839675440794,
81,0,81,0,,,,,,,,,,,,,,,,,,,,,,,,,,,,719.2928176999558,None,territory,sing,blue,18,324,717.2895904999459,None,None,717.2895904999459,None,,,,,,,,,,,,,,,,,,,,,,,,,,,,,,,,,color3,001,2019_Nov_21_1518,ProdSingRedo,3.2.3,59.948839675440794,
82,0,82,0,,,,,,,,,,,,,,,,,,,,,,,,,,,,721.8097206000239,None,portion,silent,yellow,75,228,719.8026636999566,None,None,719.8026636999566,None,,,,,,,,,,,,,,,,,,,,,,,,,,,,,,,,,color3,001,2019_Nov_21_1518,ProdSingRedo,3.2.3,59.948839675440794,
83,0,83,0,,,,,,,,,,,,,,,,,,,,,,,,,,,,724.3265242000343,None,husband,aloud,red,49,156,722.3307581000263,None,None,722.3307581000263,None,,,,,,,,,,,,,,,,,,,,,,,,,,,,,,,,,color3,001,2019_Nov_21_1518,ProdSingRedo,3.2.3,59.948839675440794,
84,0,84,0,,,,,,,,,,,,,,,,,,,,,,,,,,,,726.8433395000175,None,interview,silent,yellow,60,165,724.8447128999978,None,None,724.8447128999978,None,,,,,,,,,,,,,,,,,,,,,,,,,,,,,,,,,color3,001,2019_Nov_21_1518,ProdSingRedo,3.2.3,59.948839675440794,
85,0,85,0,,,,,,,,,,,,,,,,,,,,,,,,,,,,729.3601949999575,None,public,silent,yellow,68,244,727.360547499964,None,None,727.360547499964,None,,,,,,,,,,,,,,,,,,,,,,,,,,,,,,,,,color3,001,2019_Nov_21_1518,ProdSingRedo,3.2.3,59.948839675440794,
86,0,86,0,,,,,,,,,,,,,,,,,,,,,,,,,,,,731.8769813999534,None,build,sing,blue,7,35,729.8736828999827,None,None,729.8736828999827,None,,,,,,,,,,,,,,,,,,,,,,,,,,,,,,,,,color3,001,2019_Nov_21_1518,ProdSingRedo,3.2.3,59.948839675440794,
87,0,87,0,,,,,,,,,,,,,,,,,,,,,,,,,,,,734.3938075000187,None,short,aloud,red,50,285,732.3847447999287,None,None,732.3847447999287,None,,,,,,,,,,,,,,,,,,,,,,,,,,,,,,,,,color3,001,2019_Nov_21_1518,ProdSingRedo,3.2.3,59.948839675440794,
88,0,88,0,,,,,,,,,,,,,,,,,,,,,,,,,,,,736.9108037999831,None,touch,aloud,red,32,332,734.9052862999961,None,None,734.9052862999961,None,,,,,,,,,,,,,,,,,,,,,,,,,,,,,,,,,color3,001,2019_Nov_21_1518,ProdSingRedo,3.2.3,59.948839675440794,
89,0,89,0,,,,,,,,,,,,,,,,,,,,,,,,,,,,739.4275218999246,None,object,silent,yellow,64,204,737.4301970999222,None,None,737.4301970999222,None,,,,,,,,,,,,,,,,,,,,,,,,,,,,,,,,,color3,001,2019_Nov_21_1518,ProdSingRedo,3.2.3,59.948839675440794,
,,,,,,,,,,,,,,,,,,,,,,,,,,,,,,,,,,,,,,,,,,,739.9275316999992,None,k,54.751732599921525,739.9275316999992,None,,,,,,,,,,,,,,,,,,,,,,,,,,,color3,001,2019_Nov_21_1518,ProdSingRedo,3.2.3,59.948839675440794,
,,,,0,0,0,0,,,,,,,,,,,,,,,,,,,,,,,,856.2954161999514,None,,,,,,,,,,,,,,,,,staff,new_aloud,red,0,146,301,795.2216320999432,None,795.2216320999432,None,4,52.080945300054736,795.2216320999432,None,847.3440920999274,None,847.8629851000151,None,847.8629851000151,None,f,8.391551200067624,847.8629851000151,None,,,color3,001,2019_Nov_21_1518,ProdSingRedo,3.2.3,59.948839675440794,
,,,,1,0,1,0,,,,,,,,,,,,,,,,,,,,,,,,871.0608978000237,None,,,,,,,,,,,,,,,,,trail,new_sing,blue,1,112,336,856.8197257999564,None,856.8197257999564,None,1,11.250840099994093,856.8197257999564,None,868.1060334999347,None,868.6318966000108,None,868.6318966000108,None,f,2.390711599960923,868.6318966000108,None,,,color3,001,2019_Nov_21_1518,ProdSingRedo,3.2.3,59.948839675440794,
,,,,2,0,2,0,,,,,,,,,,,,,,,,,,,,,,,,888.4135105999885,None,,,,,,,,,,,,,,,,,skill,new_aloud,red,2,121,289,871.5847491000313,None,871.5847491000313,None,4,13.29379530006554,871.5847491000313,None,884.927235799958,None,885.4507561000064,None,885.4507561000064,None,f,2.9318592000054196,885.4507561000064,None,,,color3,001,2019_Nov_21_1518,ProdSingRedo,3.2.3,59.948839675440794,
,,,,3,0,3,0,,,,,,,,,,,,,,,,,,,,,,,,894.7310734000057,None,,,,,,,,,,,,,,,,,phrase,new_silent,yellow,3,159,220,888.9382974000182,None,888.9382974000182,None,1,1.8759346000151709,888.9382974000182,None,890.8485749999527,None,891.3692171999719,None,891.3692171999719,None,f,3.333727299934253,891.3692171999719,None,,,color3,001,2019_Nov_21_1518,ProdSingRedo,3.2.3,59.948839675440794,
,,,,4,0,4,0,,,,,,,,,,,,,,,,,,,,,,,,900.4637914999621,None,,,,,,,,,,,,,,,,,crisis,aloud,red,4,39,79,895.2510450999252,None,895.2510450999252,None,5,3.459556700079702,895.2510450999252,None,898.7571238999953,None,899.2792019000044,None,899.2792019000044,None,r,1.1514174999902025,899.2792019000044,None,,,color3,001,2019_Nov_21_1518,ProdSingRedo,3.2.3,59.948839675440794,
,,,,5,0,5,0,,,,,,,,,,,,,,,,,,,,,,,,909.2309859999223,None,,,,,,,,,,,,,,,,,blind,silent,yellow,5,72,24,900.9858679999597,None,900.9858679999597,None,2,6.3967626000521705,900.9858679999597,None,907.4279745999957,None,907.949413400027,None,907.949413400027,None,f,1.2571771000511944,907.949413400027,None,,,color3,001,2019_Nov_21_1518,ProdSingRedo,3.2.3,59.948839675440794,
,,,,6,0,6,0,,,,,,,,,,,,,,,,,,,,,,,,915.3483991000103,None,,,,,,,,,,,,,,,,,clear,new_silent,yellow,6,173,52,909.757508700015,None,909.757508700015,None,2,4.017124300007708,909.757508700015,None,913.8253408999881,None,914.3516759999329,None,914.3516759999329,None,f,0.9669108999660239,914.3516759999329,None,,,color3,001,2019_Nov_21_1518,ProdSingRedo,3.2.3,59.948839675440794,
,,,,7,0,7,0,,,,,,,,,,,,,,,,,,,,,,,,923.3154288999503,None,,,,,,,,,,,,,,,,,principal,new_aloud,red,7,139,236,915.8764984000009,None,915.8764984000009,None,5,5.090177700039931,915.8764984000009,None,921.0149555000244,None,921.5364937999984,None,921.5364937999984,None,r,1.7503439999418333,921.5364937999984,None,,,color3,001,2019_Nov_21_1518,ProdSingRedo,3.2.3,59.948839675440794,
,,,,8,0,8,0,,,,,,,,,,,,,,,,,,,,,,,,929.4661132999463,None,,,,,,,,,,,,,,,,,tragedy,silent,yellow,8,66,335,923.8415522000287,None,923.8415522000287,None,5,3.3171100999461487,923.8415522000287,None,927.197936099954,None,927.7197228999576,None,927.7197228999576,None,r,1.7192192000802606,927.7197228999576,None,,,color3,001,2019_Nov_21_1518,ProdSingRedo,3.2.3,59.948839675440794,
,,,,9,0,9,0,,,,,,,,,,,,,,,,,,,,,,,,937.9498414000263,None,,,,,,,,,,,,,,,,,business,new_sing,blue,9,110,38,929.9915281999856,None,929.9915281999856,None,2,6.431572200031951,929.9915281999856,None,936.4703018999426,None,936.9851581000257,None,936.9851581000257,None,f,0.9255413999781013,936.9851581000257,None,,,color3,001,2019_Nov_21_1518,ProdSingRedo,3.2.3,59.948839675440794,
,,,,10,0,10,0,,,,,,,,,,,,,,,,,,,,,,,,944.4827015999472,None,,,,,,,,,,,,,,,,,finance,new_sing,blue,10,118,129,938.4767579999752,None,938.4767579999752,None,2,4.7218149999389425,938.4767579999752,None,943.2498200000264,None,943.7733390999492,None,943.7733390999492,None,f,0.6733038000529632,943.7733390999492,None,,,color3,001,2019_Nov_21_1518,ProdSingRedo,3.2.3,59.948839675440794,
,,,,11,0,11,0,,,,,,,,,,,,,,,,,,,,,,,,949.5503702999558,None,,,,,,,,,,,,,,,,,dispute,new_sing,blue,11,102,99,944.9982208999572,None,944.9982208999572,None,2,3.03240220004227,944.9982208999572,None,948.0826919999672,None,948.6057933999691,None,948.6057933999691,None,f,0.9207923000212759,948.6057933999691,None,,,color3,001,2019_Nov_21_1518,ProdSingRedo,3.2.3,59.948839675440794,
,,,,12,0,12,0,,,,,,,,,,,,,,,,,,,,,,,,956.7342913999455,None,,,,,,,,,,,,,,,,,under,aloud,red,12,30,343,950.0749484000262,None,950.0749484000262,None,4,4.9556947000091895,950.0749484000262,None,955.0782580999658,None,955.6025760000339,None,955.6025760000339,None,f,1.108083999948576,955.6025760000339,None,,,color3,001,2019_Nov_21_1518,ProdSingRedo,3.2.3,59.948839675440794,
,,,,13,0,13,0,,,,,,,,,,,,,,,,,,,,,,,,962.4679223999847,None,,,,,,,,,,,,,,,,,worker,new_silent,yellow,13,151,356,957.2612376000034,None,957.2612376000034,None,4,2.6977247999748215,957.2612376000034,None,959.9970836000284,None,960.5251627999824,None,960.5251627999824,None,f,1.913453400018625,960.5251627999824,None,,,color3,001,2019_Nov_21_1518,ProdSingRedo,3.2.3,59.948839675440794,
,,,,14,0,14,0,,,,,,,,,,,,,,,,,,,,,,,,967.9687434999505,None,,,,,,,,,,,,,,,,,resistance,new_sing,blue,14,114,262,962.9959419999504,None,962.9959419999504,None,5,3.898725699982606,962.9959419999504,None,966.9345681000268,None,967.4594005999388,None,967.4594005999388,None,r,0.4835458999732509,967.4594005999388,None,,,color3,001,2019_Nov_21_1518,ProdSingRedo,3.2.3,59.948839675440794,
,,,,15,0,15,0,,,,,,,,,,,,,,,,,,,,,,,,972.0037049999228,None,,,,,,,,,,,,,,,,,machinery,new_aloud,red,15,120,175,968.4954087999649,None,968.4954087999649,None,1,2.3031935999169946,968.4954087999649,None,970.8504991999362,None,971.376379400026,None,971.376379400026,None,f,0.5902360000181943,971.376379400026,None,,,color3,001,2019_Nov_21_1518,ProdSingRedo,3.2.3,59.948839675440794,
,,,,16,0,16,0,,,,,,,,,,,,,,,,,,,,,,,,978.5189355999464,None,,,,,,,,,,,,,,,,,trial,new_aloud,red,16,149,341,972.5264927999815,None,972.5264927999815,None,4,4.656123999971896,972.5264927999815,None,977.2330653999234,None,977.7535789000103,None,977.7535789000103,None,r,0.7410640999441966,977.7535789000103,None,,,color3,001,2019_Nov_21_1518,ProdSingRedo,3.2.3,59.948839675440794,
,,,,17,0,17,0,,,,,,,,,,,,,,,,,,,,,,,,985.336264399928,None,,,,,,,,,,,,,,,,,debate,new_aloud,red,17,129,87,979.0440561999567,None,979.0440561999567,None,4,3.1386022999649867,979.0440561999567,None,982.2379627999617,None,982.7587686999468,None,982.7587686999468,None,r,2.5437346000690013,982.7587686999468,None,,,color3,001,2019_Nov_21_1518,ProdSingRedo,3.2.3,59.948839675440794,
,,,,18,0,18,0,,,,,,,,,,,,,,,,,,,,,,,,991.2358382999664,None,,,,,,,,,,,,,,,,,search,new_sing,blue,18,115,276,985.8616351999808,None,985.8616351999808,None,2,3.47296769998502,985.8616351999808,None,989.3873309999472,None,989.9044996999437,None,989.9044996999437,None,f,1.2942174000199884,989.9044996999437,None,,,color3,001,2019_Nov_21_1518,ProdSingRedo,3.2.3,59.948839675440794,
,,,,19,0,19,0,,,,,,,,,,,,,,,,,,,,,,,,997.7380771000171,None,,,,,,,,,,,,,,,,,salary,sing,blue,19,9,271,991.7680607999209,None,991.7680607999209,None,4,5.038606600021012,991.7680607999209,None,996.8567978999345,None,997.3756316999206,None,997.3756316999206,None,r,0.3269744999706745,997.3756316999206,None,,,color3,001,2019_Nov_21_1518,ProdSingRedo,3.2.3,59.948839675440794,
,,,,20,0,20,0,,,,,,,,,,,,,,,,,,,,,,,,1003.7384666999569,None,,,,,,,,,,,,,,,,,individual,new_silent,yellow,20,150,160,998.2672927000094,None,998.2672927000094,None,4,4.571462500025518,998.2672927000094,None,1002.8902963999426,None,1003.4084811999928,None,1003.4084811999928,None,r,0.3026102000148967,1003.4084811999928,None,,,color3,001,2019_Nov_21_1518,ProdSingRedo,3.2.3,59.948839675440794,
,,,,21,0,21,0,,,,,,,,,,,,,,,,,,,,,,,,1011.0047355999704,None,,,,,,,,,,,,,,,,,range,new_silent,yellow,21,174,251,1004.2639632999199,None,1004.2639632999199,None,2,2.5106264000060037,1004.2639632999199,None,1006.8235562000191,None,1007.3455428000307,None,1007.3455428000307,None,f,3.6290619999635965,1007.3455428000307,None,,,color3,001,2019_Nov_21_1518,ProdSingRedo,3.2.3,59.948839675440794,
,,,,22,0,22,0,,,,,,,,,,,,,,,,,,,,,,,,1015.5885509999935,None,,,,,,,,,,,,,,,,,attack,silent,yellow,22,63,13,1011.5135754999937,None,1011.5135754999937,None,2,1.80506200005766,1011.5135754999937,None,1013.3752041999251,None,1013.8968033000128,None,1013.8968033000128,None,f,1.6539370999671519,1013.8968033000128,None,,,color3,001,2019_Nov_21_1518,ProdSingRedo,3.2.3,59.948839675440794,
,,,,23,0,23,0,,,,,,,,,,,,,,,,,,,,,,,,1022.8054407000309,None,,,,,,,,,,,,,,,,,interview,silent,yellow,23,60,165,1016.1178358999314,None,1016.1178358999314,None,6,5.288860699976794,1016.1178358999314,None,1021.4567245999351,None,1021.976535600028,None,1021.976535600028,None,r,0.7981167999096215,1021.976535600028,None,,,color3,001,2019_Nov_21_1518,ProdSingRedo,3.2.3,59.948839675440794,
,,,,24,0,24,0,,,,,,,,,,,,,,,,,,,,,,,,1027.004939800012,None,,,,,,,,,,,,,,,,,guide,aloud,red,24,33,147,1023.3301306000212,None,1023.3301306000212,None,5,2.588677200023085,1023.3301306000212,None,1025.965326000005,None,1026.4886533999816,None,1026.4886533999816,None,r,0.47802779998164624,1026.4886533999816,None,,,color3,001,2019_Nov_21_1518,ProdSingRedo,3.2.3,59.948839675440794,
,,,,25,0,25,0,,,,,,,,,,,,,,,,,,,,,,,,1032.5060720000183,None,,,,,,,,,,,,,,,,,public,silent,yellow,25,68,244,1027.5336278999457,None,1027.5336278999457,None,3,3.208961099968292,1027.5336278999457,None,1030.7918132999912,None,1031.3109512999654,None,1031.3109512999654,None,f,1.1598357999464497,1031.3109512999654,None,,,color3,001,2019_Nov_21_1518,ProdSingRedo,3.2.3,59.948839675440794,
,,,,26,0,26,0,,,,,,,,,,,,,,,,,,,,,,,,1036.6896665999666,None,,,,,,,,,,,,,,,,,angle,new_aloud,red,26,147,7,1033.0391249000095,None,1033.0391249000095,None,2,2.559577399981208,1033.0391249000095,None,1035.6395741000306,None,1036.1606936999597,None,1036.1606936999597,None,f,0.4939810000360012,1036.1606936999597,None,,,color3,001,2019_Nov_21_1518,ProdSingRedo,3.2.3,59.948839675440794,
,,,,27,0,27,0,,,,,,,,,,,,,,,,,,,,,,,,1042.5392553999554,None,,,,,,,,,,,,,,,,,produce,new_silent,yellow,27,155,239,1037.2134386999533,None,1037.2134386999533,None,4,3.3452470999909565,1037.2134386999533,None,1040.6052201000275,None,1041.127920800005,None,1041.127920800005,None,r,1.382677499903366,1041.127920800005,None,,,color3,001,2019_Nov_21_1518,ProdSingRedo,3.2.3,59.948839675440794,
,,,,28,0,28,0,,,,,,,,,,,,,,,,,,,,,,,,1047.6404365999624,None,,,,,,,,,,,,,,,,,defeat,sing,blue,28,23,88,1043.0493798999814,None,1043.0493798999814,None,2,2.861285399994813,1043.0493798999814,None,1045.9495875999564,None,1046.480279600015,None,1046.480279600015,None,f,1.1264519999967888,1046.480279600015,None,,,color3,001,2019_Nov_21_1518,ProdSingRedo,3.2.3,59.948839675440794,
,,,,29,0,29,0,,,,,,,,,,,,,,,,,,,,,,,,1053.5734620000003,None,,,,,,,,,,,,,,,,,century,sing,blue,29,3,45,1048.1652657999657,None,1048.1652657999657,None,4,4.641380700049922,1048.1652657999657,None,1052.852942800033,None,1053.377743799938,None,1053.377743799938,None,f,0.15690870000980794,1053.377743799938,None,,,color3,001,2019_Nov_21_1518,ProdSingRedo,3.2.3,59.948839675440794,
,,,,30,0,30,0,,,,,,,,,,,,,,,,,,,,,,,,1059.0077476999722,None,,,,,,,,,,,,,,,,,thing,new_sing,blue,30,109,328,1054.097447499982,None,1054.097447499982,None,2,3.9812015999341384,1054.097447499982,None,1058.119957500021,None,1058.6427276999457,None,1058.6427276999457,None,f,0.3400442999554798,1058.6427276999457,None,,,color3,001,2019_Nov_21_1518,ProdSingRedo,3.2.3,59.948839675440794,
,,,,31,0,31,0,,,,,,,,,,,,,,,,,,,,,,,,1064.7742983999196,None,,,,,,,,,,,,,,,,,executive,new_aloud,red,31,141,122,1059.5360860999208,None,1059.5360860999208,None,4,4.36661810008809,1059.5360860999208,None,1063.9538649999304,None,1064.4807152999565,None,1064.4807152999565,None,r,0.25396949995774776,1064.4807152999565,None,,,color3,001,2019_Nov_21_1518,ProdSingRedo,3.2.3,59.948839675440794,
,,,,32,0,32,0,,,,,,,,,,,,,,,,,,,,,,,,1072.3413738999516,None,,,,,,,,,,,,,,,,,listen,new_aloud,red,32,131,172,1065.29575499997,None,1065.29575499997,None,4,5.271073399926536,1065.29575499997,None,1070.600578899961,None,1071.1087379999226,None,1071.1087379999226,None,r,1.194010299979709,1071.1087379999226,None,,,color3,001,2019_Nov_21_1518,ProdSingRedo,3.2.3,59.948839675440794,
,,,,33,0,33,0,,,,,,,,,,,,,,,,,,,,,,,,1076.158833399997,None,,,,,,,,,,,,,,,,,dream,sing,blue,33,8,104,1072.8685212000273,None,1072.8685212000273,None,4,2.3383124000392854,1072.8685212000273,None,1075.257926399936,None,1075.779240499949,None,1075.779240499949,None,r,0.3474531000247225,1075.779240499949,None,,,color3,001,2019_Nov_21_1518,ProdSingRedo,3.2.3,59.948839675440794,
,,,,34,0,34,0,,,,,,,,,,,,,,,,,,,,,,,,1079.6095049999421,None,,,,,,,,,,,,,,,,,comfort,sing,blue,34,10,59,1076.6873034000164,None,1076.6873034000164,None,2,1.9834168000379577,1076.6873034000164,None,1078.7235251999227,None,1079.2461727999616,None,1079.2461727999616,None,f,0.3368923000525683,1079.2461727999616,None,,,color3,001,2019_Nov_21_1518,ProdSingRedo,3.2.3,59.948839675440794,
,,,,35,0,35,0,,,,,,,,,,,,,,,,,,,,,,,,1082.927121500019,None,,,,,,,,,,,,,,,,,dozen,sing,blue,35,6,102,1080.1338999000145,None,1080.1338999000145,None,4,1.968825799995102,1080.1338999000145,None,1082.1544529999373,None,1082.677848399966,None,1082.677848399966,None,r,0.21685399999842048,1082.677848399966,None,,,color3,001,2019_Nov_21_1518,ProdSingRedo,3.2.3,59.948839675440794,
,,,,36,0,36,0,,,,,,,,,,,,,,,,,,,,,,,,1086.1436035999795,None,,,,,,,,,,,,,,,,,author,aloud,red,36,34,15,1083.4497851999477,None,1083.4497851999477,None,4,1.8290287000127137,1083.4497851999477,None,1085.3258600999834,None,1085.8439673000248,None,1085.8439673000248,None,r,0.27468569995835423,1085.8439673000248,None,,,color3,001,2019_Nov_21_1518,ProdSingRedo,3.2.3,59.948839675440794,
,,,,37,0,37,0,,,,,,,,,,,,,,,,,,,,,,,,1089.627661800012,None,,,,,,,,,,,,,,,,,empty,new_silent,yellow,37,176,112,1086.6676713000052,None,1086.6676713000052,None,2,2.1389863000949845,1086.6676713000052,None,1088.8549905000255,None,1089.3782006999245,None,1089.3782006999245,None,f,0.22095099999569356,1089.3782006999245,None,,,color3,001,2019_Nov_21_1518,ProdSingRedo,3.2.3,59.948839675440794,
,,,,38,0,38,0,,,,,,,,,,,,,,,,,,,,,,,,1095.3261330999667,None,,,,,,,,,,,,,,,,,distance,silent,yellow,38,79,100,1090.153080399963,None,1090.153080399963,None,4,4.253612800035626,1090.153080399963,None,1094.4602554999292,None,1094.9825355999637,None,1094.9825355999637,None,r,0.30425239994656295,1094.9825355999637,None,,,color3,001,2019_Nov_21_1518,ProdSingRedo,3.2.3,59.948839675440794,
,,,,39,0,39,0,,,,,,,,,,,,,,,,,,,,,,,,1100.4603396999883,None,,,,,,,,,,,,,,,,,finish,new_aloud,red,39,137,130,1095.8518058999907,None,1095.8518058999907,None,3,2.650759799988009,1095.8518058999907,None,1098.5362060000189,None,1099.0478873000247,None,1099.0478873000247,None,f,1.3748288999777287,1099.0478873000247,None,,,color3,001,2019_Nov_21_1518,ProdSingRedo,3.2.3,59.948839675440794,
,,,,40,0,40,0,,,,,,,,,,,,,,,,,,,,,,,,1104.1441843999783,None,,,,,,,,,,,,,,,,,problem,new_silent,yellow,40,157,238,1100.98717019998,None,1100.98717019998,None,3,2.2195393999572843,1100.98717019998,None,1103.2590175999794,None,1103.78206639993,None,1103.78206639993,None,f,0.33674010005779564,1103.78206639993,None,,,color3,001,2019_Nov_21_1518,ProdSingRedo,3.2.3,59.948839675440794,
,,,,41,0,41,0,,,,,,,,,,,,,,,,,,,,,,,,1115.0451460999902,None,,,,,,,,,,,,,,,,,track,new_silent,yellow,41,158,334,1104.6714917999925,None,1104.6714917999925,None,4,8.943274999968708,1104.6714917999925,None,1113.657517499989,None,1114.183583099977,None,1114.183583099977,None,f,0.8310996999498457,1114.183583099977,None,,,color3,001,2019_Nov_21_1518,ProdSingRedo,3.2.3,59.948839675440794,
,,,,42,0,42,0,,,,,,,,,,,,,,,,,,,,,,,,1119.7621460999362,None,,,,,,,,,,,,,,,,,south,new_sing,blue,42,107,296,1115.5715922999661,None,1115.5715922999661,None,2,3.3390264000045136,1115.5715922999661,None,1118.9598518999992,None,1119.4831895999378,None,1119.4831895999378,None,f,0.2517185000469908,1119.4831895999378,None,,,color3,001,2019_Nov_21_1518,ProdSingRedo,3.2.3,59.948839675440794,
,,,,43,0,43,0,,,,,,,,,,,,,,,,,,,,,,,,1124.8615658000344,None,,,,,,,,,,,,,,,,,stranger,new_aloud,red,43,135,309,1120.2858703000238,None,1120.2858703000238,None,3,3.5929225001018494,1120.2858703000238,None,1123.9296418000013,None,1124.451871600002,None,1124.451871600002,None,f,0.3708243001019582,1124.451871600002,None,,,color3,001,2019_Nov_21_1518,ProdSingRedo,3.2.3,59.948839675440794,
,,,,44,0,44,0,,,,,,,,,,,,,,,,,,,,,,,,1128.662335400004,None,,,,,,,,,,,,,,,,,character,aloud,red,44,52,46,1125.38704219996,None,1125.38704219996,None,5,2.6197647999506444,1125.38704219996,None,1128.064472900005,None,1128.587059399928,None,1128.587059399928,None,r,0.05154350004158914,1128.587059399928,None,,,color3,001,2019_Nov_21_1518,ProdSingRedo,3.2.3,59.948839675440794,
,,,,45,0,45,0,,,,,,,,,,,,,,,,,,,,,,,,1132.3618194999872,None,,,,,,,,,,,,,,,,,background,new_silent,yellow,45,154,16,1129.194351800019,None,1129.194351800019,None,2,2.1246204000199214,1129.194351800019,None,1131.361670800019,None,1131.8822860999499,None,1131.8822860999499,None,f,0.44437979999929667,1131.8822860999499,None,,,color3,001,2019_Nov_21_1518,ProdSingRedo,3.2.3,59.948839675440794,
,,,,46,0,46,0,,,,,,,,,,,,,,,,,,,,,,,,1136.1296886999626,None,,,,,,,,,,,,,,,,,treatment,new_silent,yellow,46,168,339,1132.8856883000117,None,1132.8856883000117,None,2,2.1530443999217823,1132.8856883000117,None,1135.076395799988,None,1135.6010858999798,None,1135.6010858999798,None,f,0.49376399989705533,1135.6010858999798,None,,,color3,001,2019_Nov_21_1518,ProdSingRedo,3.2.3,59.948839675440794,
,,,,47,0,47,0,,,,,,,,,,,,,,,,,,,,,,,,1140.9794099000283,None,,,,,,,,,,,,,,,,,bitter,new_sing,blue,47,104,23,1136.654241399956,None,1136.654241399956,None,3,3.5285803000442684,1136.654241399956,None,1140.2267983999336,None,1140.7493991999654,None,1140.7493991999654,None,f,0.19335339998360723,1140.7493991999654,None,,,color3,001,2019_Nov_21_1518,ProdSingRedo,3.2.3,59.948839675440794,
,,,,48,0,48,0,,,,,,,,,,,,,,,,,,,,,,,,1148.4803122000303,None,,,,,,,,,,,,,,,,,count,new_silent,yellow,48,152,72,1141.5056845999788,None,1141.5056845999788,None,4,6.124989799922332,1141.5056845999788,None,1147.6854369000066,None,1148.2007802999578,None,1148.2007802999578,None,r,0.2539522999431938,1148.2007802999578,None,,,color3,001,2019_Nov_21_1518,ProdSingRedo,3.2.3,59.948839675440794,
,,,,49,0,49,0,,,,,,,,,,,,,,,,,,,,,,,,1151.9799591000192,None,,,,,,,,,,,,,,,,,leader,aloud,red,49,56,168,1149.0062142999377,None,1149.0062142999377,None,4,2.192468099994585,1149.0062142999377,None,1151.2435595999705,None,1151.767699799966,None,1151.767699799966,None,r,0.18301509995944798,1151.767699799966,None,,,color3,001,2019_Nov_21_1518,ProdSingRedo,3.2.3,59.948839675440794,
,,,,50,0,50,0,,,,,,,,,,,,,,,,,,,,,,,,1155.3635152999777,None,,,,,,,,,,,,,,,,,personnel,silent,yellow,50,70,219,1152.505937299924,None,1152.505937299924,None,3,2.116859000059776,1152.505937299924,None,1154.6616553999484,None,1155.1823899999727,None,1155.1823899999727,None,f,0.1443839999847114,1155.1823899999727,None,,,color3,001,2019_Nov_21_1518,ProdSingRedo,3.2.3,59.948839675440794,
,,,,51,0,51,0,,,,,,,,,,,,,,,,,,,,,,,,1162.8816636999836,None,,,,,,,,,,,,,,,,,growth,silent,yellow,51,80,144,1155.890740099945,None,1155.890740099945,None,3,3.420006300089881,1155.890740099945,None,1159.3647680999711,None,1159.884745499934,None,1159.884745499934,None,f,2.970095600001514,1159.884745499934,None,,,color3,001,2019_Nov_21_1518,ProdSingRedo,3.2.3,59.948839675440794,
,,,,52,0,52,0,,,,,,,,,,,,,,,,,,,,,,,,1166.7643108000048,None,,,,,,,,,,,,,,,,,marriage,silent,yellow,52,76,179,1163.4119385000085,None,1163.4119385000085,None,3,2.1867520000087097,1163.4119385000085,None,1165.6455528999213,None,1166.1705901999958,None,1166.1705901999958,None,f,0.556073100073263,1166.1705901999958,None,,,color3,001,2019_Nov_21_1518,ProdSingRedo,3.2.3,59.948839675440794,
,,,,53,0,53,0,,,,,,,,,,,,,,,,,,,,,,,,1172.216084399959,None,,,,,,,,,,,,,,,,,health,silent,yellow,53,69,149,1167.2903634000104,None,1167.2903634000104,None,3,2.4123420999385417,1167.2903634000104,None,1169.7503546000225,None,1170.266497900011,None,1170.266497900011,None,f,1.924272199976258,1170.266497900011,None,,,color3,001,2019_Nov_21_1518,ProdSingRedo,3.2.3,59.948839675440794,
,,,,54,0,54,0,,,,,,,,,,,,,,,,,,,,,,,,1176.3318551999982,None,,,,,,,,,,,,,,,,,weight,new_sing,blue,54,111,353,1172.7430331999203,None,1172.7430331999203,None,2,2.5437606000341475,1172.7430331999203,None,1175.3304786999943,None,1175.8547745000105,None,1175.8547745000105,None,f,0.44002400001045316,1175.8547745000105,None,,,color3,001,2019_Nov_21_1518,ProdSingRedo,3.2.3,59.948839675440794,
,,,,55,0,55,0,,,,,,,,,,,,,,,,,,,,,,,,1180.9330313999671,None,,,,,,,,,,,,,,,,,alert,silent,yellow,55,67,6,1176.8571055999491,None,1176.8571055999491,None,4,3.301516499952413,1176.8571055999491,None,1180.1938498999225,None,1180.7168721000198,None,1180.7168721000198,None,r,0.1858124000718817,1180.7168721000198,None,,,color3,001,2019_Nov_21_1518,ProdSingRedo,3.2.3,59.948839675440794,
,,,,56,0,56,0,,,,,,,,,,,,,,,,,,,,,,,,1193.7335424999474,None,,,,,,,,,,,,,,,,,smooth,silent,yellow,56,74,292,1181.4536283999914,None,1181.4536283999914,None,2,10.26506459992379,1181.4536283999914,None,1191.7631687999237,None,1192.273783099954,None,1192.273783099954,None,f,1.4290788000216708,1192.273783099954,None,,,color3,001,2019_Nov_21_1518,ProdSingRedo,3.2.3,59.948839675440794,
,,,,57,0,57,0,,,,,,,,,,,,,,,,,,,,,,,,1200.350121699972,None,,,,,,,,,,,,,,,,,patient,silent,yellow,57,87,213,1194.259195499937,None,1194.259195499937,None,4,3.7714986000210047,1194.259195499937,None,1198.0780106999446,None,1198.6055893999292,None,1198.6055893999292,None,r,1.7051626000320539,1198.6055893999292,None,,,color3,001,2019_Nov_21_1518,ProdSingRedo,3.2.3,59.948839675440794,
,,,,58,0,58,0,,,,,,,,,,,,,,,,,,,,,,,,1203.6502713999944,None,,,,,,,,,,,,,,,,,light,aloud,red,58,45,171,1200.8764930999605,None,1200.8764930999605,None,4,1.954246599925682,1200.8764930999605,None,1202.8837424999801,None,1203.4045586999273,None,1203.4045586999273,None,r,0.2101429000031203,1203.4045586999273,None,,,color3,001,2019_Nov_21_1518,ProdSingRedo,3.2.3,59.948839675440794,
,,,,59,0,59,0,,,,,,,,,,,,,,,,,,,,,,,,1207.0515373999951,None,,,,,,,,,,,,,,,,,right,new_sing,blue,59,93,265,1204.1766714999685,None,1204.1766714999685,None,3,2.0303230999270454,1204.1766714999685,None,1206.2501553000184,None,1206.7704400999937,None,1206.7704400999937,None,f,0.24428059998899698,1206.7704400999937,None,,,color3,001,2019_Nov_21_1518,ProdSingRedo,3.2.3,59.948839675440794,
,,,,60,0,60,0,,,,,,,,,,,,,,,,,,,,,,,,1209.71740590001,None,,,,,,,,,,,,,,,,,quantity,new_aloud,red,60,128,245,1207.5787284999387,None,1207.5787284999387,None,3,1.1960334000177681,1207.5787284999387,None,1208.8156754999654,None,1209.3408897999907,None,1209.3408897999907,None,f,0.3379113000119105,1209.3408897999907,None,,,color3,001,2019_Nov_21_1518,ProdSingRedo,3.2.3,59.948839675440794,
,,,,61,0,61,0,,,,,,,,,,,,,,,,,,,,,,,,1212.4684666999383,None,,,,,,,,,,,,,,,,,testimony,new_sing,blue,61,108,325,1210.2434684999753,None,1210.2434684999753,None,2,1.4112707000458613,1210.2434684999753,None,1211.6960117999697,None,1212.2210391999688,None,1212.2210391999688,None,f,0.21777430002111942,1212.2210391999688,None,,,color3,001,2019_Nov_21_1518,ProdSingRedo,3.2.3,59.948839675440794,
,,,,62,0,62,0,,,,,,,,,,,,,,,,,,,,,,,,1215.9010757999495,None,,,,,,,,,,,,,,,,,pretty,silent,yellow,62,86,233,1212.9885102999397,None,1212.9885102999397,None,2,2.162175999954343,1212.9885102999397,None,1215.2003463000292,None,1215.7200082000345,None,1215.7200082000345,None,f,0.14273630001116544,1215.7200082000345,None,,,color3,001,2019_Nov_21_1518,ProdSingRedo,3.2.3,59.948839675440794,
,,,,63,0,63,0,,,,,,,,,,,,,,,,,,,,,,,,1218.8180118999444,None,,,,,,,,,,,,,,,,,design,silent,yellow,63,62,91,1216.4274537999881,None,1216.4274537999881,None,3,1.2992463000118732,1216.4274537999881,None,1217.7600594999967,None,1218.2723334999755,None,1218.2723334999755,None,f,0.5103950999910012,1218.2723334999755,None,,,color3,001,2019_Nov_21_1518,ProdSingRedo,3.2.3,59.948839675440794,
,,,,64,0,64,0,,,,,,,,,,,,,,,,,,,,,,,,1223.0349656000035,None,,,,,,,,,,,,,,,,,waste,sing,blue,64,20,350,1219.3413617999759,None,1219.3413617999759,None,4,2.105392700061202,1219.3413617999759,None,1221.497540500015,None,1222.0205296999775,None,1222.0205296999775,None,r,0.9784154000226408,1222.0205296999775,None,,,color3,001,2019_Nov_21_1518,ProdSingRedo,3.2.3,59.948839675440794,
,,,,65,0,65,0,,,,,,,,,,,,,,,,,,,,,,,,1226.552611000021,None,,,,,,,,,,,,,,,,,sight,new_sing,blue,65,91,286,1223.5613206999842,None,1223.5613206999842,None,3,2.1814417999703437,1223.5613206999842,None,1225.7837493999396,None,1226.3036471999949,None,1226.3036471999949,None,f,0.21517870004754514,1226.3036471999949,None,,,color3,001,2019_Nov_21_1518,ProdSingRedo,3.2.3,59.948839675440794,
,,,,66,0,66,0,,,,,,,,,,,,,,,,,,,,,,,,1233.4857320999727,None,,,,,,,,,,,,,,,,,motion,new_sing,blue,66,113,194,1227.0731291000266,None,1227.0731291000266,None,3,5.421667100046761,1227.0731291000266,None,1232.5305413999595,None,1233.0515292999335,None,1233.0515292999335,None,f,0.3952376999659464,1233.0515292999335,None,,,color3,001,2019_Nov_21_1518,ProdSingRedo,3.2.3,59.948839675440794,
,,,,67,0,67,0,,,,,,,,,,,,,,,,,,,,,,,,1238.9699268999975,None,,,,,,,,,,,,,,,,,provision,sing,blue,67,24,243,1234.0121373999864,None,1234.0121373999864,None,2,4.050620199996047,1234.0121373999864,None,1238.0974473999813,None,1238.624614099972,None,1238.624614099972,None,f,0.31024290004279464,1238.624614099972,None,,,color3,001,2019_Nov_21_1518,ProdSingRedo,3.2.3,59.948839675440794,
,,,,68,0,68,0,,,,,,,,,,,,,,,,,,,,,,,,1245.0293912999332,None,,,,,,,,,,,,,,,,,safety,new_silent,yellow,68,171,270,1239.497253999929,None,1239.497253999929,None,4,3.9495820000302047,1239.497253999929,None,1243.5081838000333,None,1244.0232318999479,None,1244.0232318999479,None,f,0.9754744999809191,1244.0232318999479,None,,,color3,001,2019_Nov_21_1518,ProdSingRedo,3.2.3,59.948839675440794,
,,,,69,0,69,0,,,,,,,,,,,,,,,,,,,,,,,,1248.1875322000124,None,,,,,,,,,,,,,,,,,center,new_sing,blue,69,103,44,1245.542162299971,None,1245.542162299971,None,4,1.8966758999740705,1245.542162299971,None,1247.4813661000226,None,1248.002997100004,None,1248.002997100004,None,f,0.15619119990151376,1248.002997100004,None,,,color3,001,2019_Nov_21_1518,ProdSingRedo,3.2.3,59.948839675440794,
,,,,70,0,70,0,,,,,,,,,,,,,,,,,,,,,,,,1251.5376409000019,None,,,,,,,,,,,,,,,,,hunger,new_sing,blue,70,98,155,1248.7130752999801,None,1248.7130752999801,None,4,1.8457340999739245,1248.7130752999801,None,1250.6034672999522,None,1251.1268246999243,None,1251.1268246999243,None,f,0.37584350001998246,1251.1268246999243,None,,,color3,001,2019_Nov_21_1518,ProdSingRedo,3.2.3,59.948839675440794,
,,,,71,0,71,0,,,,,,,,,,,,,,,,,,,,,,,,1255.9781123999273,None,,,,,,,,,,,,,,,,,reading,aloud,red,71,42,254,1252.0648737000301,None,1252.0648737000301,None,5,3.19791470002383,1252.0648737000301,None,1255.3044079999672,None,1255.8113371999934,None,1255.8113371999934,None,r,0.1474018000299111,1255.8113371999934,None,,,color3,001,2019_Nov_21_1518,ProdSingRedo,3.2.3,59.948839675440794,
,,,,72,0,72,0,,,,,,,,,,,,,,,,,,,,,,,,1261.7124118999345,None,,,,,,,,,,,,,,,,,rough,new_silent,yellow,72,166,266,1256.4790184999583,None,1256.4790184999583,None,4,2.7354662999277934,1256.4790184999583,None,1259.2472235999303,None,1259.7619292000309,None,1259.7619292000309,None,f,1.9244923999067396,1259.7619292000309,None,,,color3,001,2019_Nov_21_1518,ProdSingRedo,3.2.3,59.948839675440794,
,,,,73,0,73,0,,,,,,,,,,,,,,,,,,,,,,,,1267.3123184000142,None,,,,,,,,,,,,,,,,,degree,aloud,red,73,46,89,1262.2119930000044,None,1262.2119930000044,None,4,4.394519500085153,1262.2119930000044,None,1266.630666699959,None,1267.1460970999906,None,1267.1460970999906,None,r,0.14835239993408322,1267.1460970999906,None,,,color3,001,2019_Nov_21_1518,ProdSingRedo,3.2.3,59.948839675440794,
,,,,74,0,74,0,,,,,,,,,,,,,,,,,,,,,,,,1274.3224256000249,None,,,,,,,,,,,,,,,,,bicycle,silent,yellow,74,61,21,1267.815231799963,None,1267.815231799963,None,6,5.639504700084217,1267.815231799963,None,1273.5102556999773,None,1274.0293849000009,None,1274.0293849000009,None,f,0.26563429995439947,1274.0293849000009,None,,,color3,001,2019_Nov_21_1518,ProdSingRedo,3.2.3,59.948839675440794,
,,,,75,0,75,0,,,,,,,,,,,,,,,,,,,,,,,,1278.7729216000298,None,,,,,,,,,,,,,,,,,notice,sing,blue,75,14,201,1274.8431216999888,None,1274.8431216999888,None,5,2.7876953999511898,1274.8431216999888,None,1277.6644086999586,None,1278.1727584999753,None,1278.1727584999753,None,f,0.5699808999197558,1278.1727584999753,None,,,color3,001,2019_Nov_21_1518,ProdSingRedo,3.2.3,59.948839675440794,
,,,,76,0,76,0,,,,,,,,,,,,,,,,,,,,,,,,1290.83990729996,None,,,,,,,,,,,,,,,,,evidence,new_sing,blue,76,97,120,1279.299227099982,None,1279.299227099982,None,4,9.275554399937391,1279.299227099982,None,1288.6238160999492,None,1289.143765399931,None,1289.143765399931,None,f,1.6710047000087798,1289.143765399931,None,,,color3,001,2019_Nov_21_1518,ProdSingRedo,3.2.3,59.948839675440794,
,,,,77,0,77,0,,,,,,,,,,,,,,,,,,,,,,,,1295.7574572999729,None,,,,,,,,,,,,,,,,,quarter,sing,blue,77,13,246,1291.3684310999233,None,1291.3684310999233,None,5,3.662399100023322,1291.3684310999233,None,1295.0676687000087,None,1295.595423999941,None,1295.595423999941,None,r,0.13153100002091378,1295.595423999941,None,,,color3,001,2019_Nov_21_1518,ProdSingRedo,3.2.3,59.948839675440794,
,,,,78,0,78,0,,,,,,,,,,,,,,,,,,,,,,,,1300.5568096999777,None,,,,,,,,,,,,,,,,,candidate,aloud,red,78,59,39,1296.2856481999625,None,1296.2856481999625,None,6,3.5532500999979675,1296.2856481999625,None,1299.8942068000324,None,1300.415263599949,None,1300.415263599949,None,r,0.10354130004998296,1300.415263599949,None,,,color3,001,2019_Nov_21_1518,ProdSingRedo,3.2.3,59.948839675440794,
,,,,79,0,79,0,,,,,,,,,,,,,,,,,,,,,,,,1303.690334899933,None,,,,,,,,,,,,,,,,,estate,new_aloud,red,79,136,119,1301.0833436999237,None,1301.0833436999237,None,2,1.7954866000218317,1301.0833436999237,None,1302.920962999924,None,1303.445892799995,None,1303.445892799995,None,f,0.21775730000808835,1303.445892799995,None,,,color3,001,2019_Nov_21_1518,ProdSingRedo,3.2.3,59.948839675440794,
,,,,80,0,80,0,,,,,,,,,,,,,,,,,,,,,,,,1307.3249057999346,None,,,,,,,,,,,,,,,,,place,silent,yellow,80,85,222,1304.21414679999,None,1304.21414679999,None,4,2.392587299924344,1304.21414679999,None,1306.6496151000028,None,1307.1619385000085,None,1307.1619385000085,None,f,0.13280280004255474,1307.1619385000085,None,,,color3,001,2019_Nov_21_1518,ProdSingRedo,3.2.3,59.948839675440794,
,,,,81,0,81,0,,,,,,,,,,,,,,,,,,,,,,,,1311.3582822999451,None,,,,,,,,,,,,,,,,,cross,silent,yellow,81,65,80,1307.844405699987,None,1307.844405699987,None,4,2.7622783000115305,1307.844405699987,None,1310.6513799999375,None,1311.173309899983,None,1311.173309899983,None,f,0.153485499904491,1311.173309899983,None,,,color3,001,2019_Nov_21_1518,ProdSingRedo,3.2.3,59.948839675440794,
,,,,82,0,82,0,,,,,,,,,,,,,,,,,,,,,,,,1314.691859100014,None,,,,,,,,,,,,,,,,,shape,silent,yellow,82,83,282,1311.8839605000103,None,1311.8839605000103,None,4,2.0908209000481293,1311.8839605000103,None,1314.0217183999484,None,1314.5454183999682,None,1314.5454183999682,None,f,0.11736519995611161,1314.5454183999682,None,,,color3,001,2019_Nov_21_1518,ProdSingRedo,3.2.3,59.948839675440794,
,,,,83,0,83,0,,,,,,,,,,,,,,,,,,,,,,,,1317.492146799923,None,,,,,,,,,,,,,,,,,atmosphere,new_silent,yellow,83,170,12,1315.2173698999686,None,1315.2173698999686,None,2,1.3976934000384063,1315.2173698999686,None,1316.6576490999432,None,1317.1770378999645,None,1317.1770378999645,None,f,0.28571830003056675,1317.1770378999645,None,,,color3,001,2019_Nov_21_1518,ProdSingRedo,3.2.3,59.948839675440794,
,,,,84,0,84,0,,,,,,,,,,,,,,,,,,,,,,,,1322.0926663000137,None,,,,,,,,,,,,,,,,,medicine,new_aloud,red,84,130,186,1318.0146456999937,None,1318.0146456999937,None,5,2.1522105999756604,1318.0146456999937,None,1320.202414899948,None,1320.7265165999997,None,1320.7265165999997,None,f,1.3284328000154346,1320.7265165999997,None,,,color3,001,2019_Nov_21_1518,ProdSingRedo,3.2.3,59.948839675440794,
,,,,85,0,85,0,,,,,,,,,,,,,,,,,,,,,,,,1326.2419485999271,None,,,,,,,,,,,,,,,,,husband,aloud,red,85,49,156,1322.6244812000077,None,1322.6244812000077,None,5,2.710205000010319,1322.6244812000077,None,1325.3814461999573,None,1325.9018633000087,None,1325.9018633000087,None,r,0.3049917999887839,1325.9018633000087,None,,,color3,001,2019_Nov_21_1518,ProdSingRedo,3.2.3,59.948839675440794,
,,,,86,0,86,0,,,,,,,,,,,,,,,,,,,,,,,,1329.7929569999687,None,,,,,,,,,,,,,,,,,guest,new_silent,yellow,86,167,146,1326.7663515999448,None,1326.7663515999448,None,4,1.472450300003402,1326.7663515999448,None,1328.2891206999775,None,1328.810245599947,None,1328.810245599947,None,f,0.9565451999660581,1328.810245599947,None,,,color3,001,2019_Nov_21_1518,ProdSingRedo,3.2.3,59.948839675440794,
,,,,87,0,87,0,,,,,,,,,,,,,,,,,,,,,,,,1340.1271776999347,None,,,,,,,,,,,,,,,,,exchange,new_sing,blue,87,106,121,1330.3168538999744,None,1330.3168538999744,None,4,8.921950799995102,1330.3168538999744,None,1339.2886477999855,None,1339.817058500019,None,1339.817058500019,None,r,0.2777280999580398,1339.817058500019,None,,,color3,001,2019_Nov_21_1518,ProdSingRedo,3.2.3,59.948839675440794,
,,,,88,0,88,0,,,,,,,,,,,,,,,,,,,,,,,,1348.5776242000284,None,,,,,,,,,,,,,,,,,instrument,aloud,red,88,47,163,1340.6604036999634,None,1340.6604036999634,None,4,7.1784419000614434,1340.6604036999634,None,1347.894153799978,None,1348.415381000028,None,1348.415381000028,None,r,0.1357904999749735,1348.415381000028,None,,,color3,001,2019_Nov_21_1518,ProdSingRedo,3.2.3,59.948839675440794,
,,,,89,0,89,0,,,,,,,,,,,,,,,,,,,,,,,,1352.8604482000228,None,,,,,,,,,,,,,,,,,guard,sing,blue,89,11,145,1349.1021341999294,None,1349.1021341999294,None,4,2.9366288000019267,1349.1021341999294,None,1352.089973299997,None,1352.6127927999478,None,1352.6127927999478,None,f,0.20998440007679164,1352.6127927999478,None,,,color3,001,2019_Nov_21_1518,ProdSingRedo,3.2.3,59.948839675440794,
,,,,90,0,90,0,,,,,,,,,,,,,,,,,,,,,,,,1355.861522299936,None,,,,,,,,,,,,,,,,,match,new_sing,blue,90,100,181,1353.3841564999893,None,1353.3841564999893,None,3,1.558588600018993,1353.3841564999893,None,1354.9926185000222,None,1355.5131125999615,None,1355.5131125999615,None,f,0.3178550999145955,1355.5131125999615,None,,,color3,001,2019_Nov_21_1518,ProdSingRedo,3.2.3,59.948839675440794,
,,,,91,0,91,0,,,,,,,,,,,,,,,,,,,,,,,,1361.328917899984,None,,,,,,,,,,,,,,,,,dance,new_silent,yellow,91,177,84,1356.3844828000292,None,1356.3844828000292,None,4,4.126271500019357,1356.3844828000292,None,1360.5564485000214,None,1361.0830070999218,None,1361.0830070999218,None,r,0.22001180006191134,1361.0830070999218,None,,,color3,001,2019_Nov_21_1518,ProdSingRedo,3.2.3,59.948839675440794,
,,,,92,0,92,0,,,,,,,,,,,,,,,,,,,,,,,,1364.211227199994,None,,,,,,,,,,,,,,,,,little,new_sing,blue,92,99,174,1361.849000499933,None,1361.849000499933,None,3,1.5018824998987839,1361.849000499933,None,1363.3894989999244,None,1363.9097608999582,None,1363.9097608999582,None,f,0.2730368999764323,1363.9097608999582,None,,,color3,001,2019_Nov_21_1518,ProdSingRedo,3.2.3,59.948839675440794,
,,,,93,0,93,0,,,,,,,,,,,,,,,,,,,,,,,,1374.1291949999286,None,,,,,,,,,,,,,,,,,contract,new_sing,blue,93,94,68,1364.7383222000208,None,1364.7383222000208,None,4,8.700480200001039,1364.7383222000208,None,1373.479286900023,None,1374.0004915000172,None,1374.0004915000172,None,r,0.10241250006947666,1374.0004915000172,None,,,color3,001,2019_Nov_21_1518,ProdSingRedo,3.2.3,59.948839675440794,
,,,,94,0,94,0,,,,,,,,,,,,,,,,,,,,,,,,1377.0461233999813,None,,,,,,,,,,,,,,,,,foundation,new_aloud,red,94,148,132,1374.6558322999626,None,1374.6558322999626,None,2,1.550956099992618,1374.6558322999626,None,1376.2648327000206,None,1376.785307199927,None,1376.785307199927,None,f,0.22954709990881383,1376.785307199927,None,,,color3,001,2019_Nov_21_1518,ProdSingRedo,3.2.3,59.948839675440794,
,,,,95,0,95,0,,,,,,,,,,,,,,,,,,,,,,,,1380.129568299977,None,,,,,,,,,,,,,,,,,prime,sing,blue,95,1,235,1377.565703399945,None,1377.565703399945,None,2,1.7452120000962168,1377.565703399945,None,1379.3571086999727,None,1379.879411599948,None,1379.879411599948,None,f,0.2152829000260681,1379.879411599948,None,,,color3,001,2019_Nov_21_1518,ProdSingRedo,3.2.3,59.948839675440794,
,,,,96,0,96,0,,,,,,,,,,,,,,,,,,,,,,,,1383.929894199944,None,,,,,,,,,,,,,,,,,service,new_silent,yellow,96,161,280,1380.6590764999855,None,1380.6590764999855,None,4,2.443841899977997,1380.6590764999855,None,1383.1436448999448,None,1383.6681776000187,None,1383.6681776000187,None,r,0.22659189999103546,1383.6681776000187,None,,,color3,001,2019_Nov_21_1518,ProdSingRedo,3.2.3,59.948839675440794,
,,,,97,0,97,0,,,,,,,,,,,,,,,,,,,,,,,,1392.2297762000235,None,,,,,,,,,,,,,,,,,working,sing,blue,97,2,357,1384.4597965999274,None,1384.4597965999274,None,3,6.227133500040509,1384.4597965999274,None,1390.7308285000036,None,1391.2546406999463,None,1391.2546406999463,None,r,0.9361302999313921,1391.2546406999463,None,,,color3,001,2019_Nov_21_1518,ProdSingRedo,3.2.3,59.948839675440794,
,,,,98,0,98,0,,,,,,,,,,,,,,,,,,,,,,,,1395.7808471999597,None,,,,,,,,,,,,,,,,,trash,sing,blue,98,26,337,1392.7560122000286,None,1392.7560122000286,None,4,2.12277850008104,1392.7560122000286,None,1394.929639799986,None,1395.4499289999949,None,1395.4499289999949,None,r,0.30082939995918423,1395.4499289999949,None,,,color3,001,2019_Nov_21_1518,ProdSingRedo,3.2.3,59.948839675440794,
,,,,99,0,99,0,,,,,,,,,,,,,,,,,,,,,,,,1399.4470514999703,None,,,,,,,,,,,,,,,,,figure,new_aloud,red,99,133,128,1396.3070510999532,None,1396.3070510999532,None,3,2.3557033999823034,1396.3070510999532,None,1398.7119487000164,None,1399.2358880999964,None,1399.2358880999964,None,f,0.17889099998865277,1399.2358880999964,None,,,color3,001,2019_Nov_21_1518,ProdSingRedo,3.2.3,59.948839675440794,
,,,,100,0,100,0,,,,,,,,,,,,,,,,,,,,,,,,1403.1977684999583,None,,,,,,,,,,,,,,,,,passage,aloud,red,100,53,212,1399.9760938999243,None,1399.9760938999243,None,5,2.150789799983613,1399.9760938999243,None,1402.1815627999604,None,1402.703695000033,None,1402.703695000033,None,r,0.46317000000271946,1402.703695000033,None,,,color3,001,2019_Nov_21_1518,ProdSingRedo,3.2.3,59.948839675440794,
,,,,101,0,101,0,,,,,,,,,,,,,,,,,,,,,,,,1406.8981848999392,None,,,,,,,,,,,,,,,,,owner,silent,yellow,101,78,208,1403.7241572999628,None,1403.7241572999628,None,3,2.202701299916953,1403.7241572999628,None,1405.9753856000025,None,1406.501782599953,None,1406.501782599953,None,f,0.3609779999824241,1406.501782599953,None,,,color3,001,2019_Nov_21_1518,ProdSingRedo,3.2.3,59.948839675440794,
,,,,102,0,102,0,,,,,,,,,,,,,,,,,,,,,,,,1413.5664667999372,None,,,,,,,,,,,,,,,,,period,new_silent,yellow,102,175,217,1407.4166316000046,None,1407.4166316000046,None,4,4.23018149996642,1407.4166316000046,None,1411.6914192999247,None,1412.214191999985,None,1412.214191999985,None,r,1.3207614999264479,1412.214191999985,None,,,color3,001,2019_Nov_21_1518,ProdSingRedo,3.2.3,59.948839675440794,
,,,,103,0,103,0,,,,,,,,,,,,,,,,,,,,,,,,1416.632100699935,None,,,,,,,,,,,,,,,,,mayor,new_silent,yellow,103,178,183,1414.090973699931,None,1414.090973699931,None,2,1.5801334999268875,1414.090973699931,None,1415.7144720000215,None,1416.2343700999627,None,1416.2343700999627,None,f,0.3643979000626132,1416.2343700999627,None,,,color3,001,2019_Nov_21_1518,ProdSingRedo,3.2.3,59.948839675440794,
,,,,104,0,104,0,,,,,,,,,,,,,,,,,,,,,,,,1420.348383900011,None,,,,,,,,,,,,,,,,,strength,aloud,red,104,40,310,1417.1592007,None,1417.1592007,None,4,2.26367230003234,1417.1592007,None,1419.4644747999264,None,1419.9841427999781,None,1419.9841427999781,None,r,0.3266993999714032,1419.9841427999781,None,,,color3,001,2019_Nov_21_1518,ProdSingRedo,3.2.3,59.948839675440794,
,,,,105,0,105,0,,,,,,,,,,,,,,,,,,,,,,,,1424.1992738000117,None,,,,,,,,,,,,,,,,,object,silent,yellow,105,64,204,1420.8755112999352,None,1420.8755112999352,None,3,2.539242099970579,1420.8755112999352,None,1423.4635976999998,None,1423.9873564000009,None,1423.9873564000009,None,f,0.18739269999787211,1423.9873564000009,None,,,color3,001,2019_Nov_21_1518,ProdSingRedo,3.2.3,59.948839675440794,
,,,,106,0,106,0,,,,,,,,,,,,,,,,,,,,,,,,1436.4661611999618,None,,,,,,,,,,,,,,,,,number,new_aloud,red,106,140,203,1424.731224499992,None,1424.731224499992,None,3,4.987847000011243,1424.731224499992,None,1429.7649009999586,None,1430.2892931000097,None,1430.2892931000097,None,f,6.141679399996065,1430.2892931000097,None,,,color3,001,2019_Nov_21_1518,ProdSingRedo,3.2.3,59.948839675440794,
,,,,107,0,107,0,,,,,,,,,,,,,,,,,,,,,,,,1444.0170008999994,None,,,,,,,,,,,,,,,,,running,new_silent,yellow,107,160,268,1436.9920195000013,None,1436.9920195000013,None,4,4.686854899977334,1436.9920195000013,None,1441.731802299968,None,1442.2650698999641,None,1442.2650698999641,None,f,1.725822199950926,1442.2650698999641,None,,,color3,001,2019_Nov_21_1518,ProdSingRedo,3.2.3,59.948839675440794,
,,,,108,0,108,0,,,,,,,,,,,,,,,,,,,,,,,,1458.4517021999927,None,,,,,,,,,,,,,,,,,broke,aloud,red,108,48,32,1444.5452661999734,None,1444.5452661999734,None,3,12.029798700008541,1444.5452661999734,None,1456.6150119999656,None,1457.1371792999562,None,1457.1371792999562,None,f,1.2856568000279367,1457.1371792999562,None,,,color3,001,2019_Nov_21_1518,ProdSingRedo,3.2.3,59.948839675440794,
,,,,109,0,109,0,,,,,,,,,,,,,,,,,,,,,,,,1462.5363011999289,None,,,,,,,,,,,,,,,,,drove,new_aloud,red,109,126,106,1458.976437699981,None,1458.976437699981,None,4,2.5584632999962196,1458.976437699981,None,1461.5829635999398,None,1462.1040659999708,None,1462.1040659999708,None,f,0.40674020000733435,1462.1040659999708,None,,,color3,001,2019_Nov_21_1518,ProdSingRedo,3.2.3,59.948839675440794,
,,,,110,0,110,0,,,,,,,,,,,,,,,,,,,,,,,,1466.435756699997,None,,,,,,,,,,,,,,,,,equipment,aloud,red,110,43,116,1463.0624230999965,None,1463.0624230999965,None,5,2.536421800032258,1463.0624230999965,None,1465.6559325000271,None,1466.17741689994,None,1466.17741689994,None,r,0.22998639999423176,1466.17741689994,None,,,color3,001,2019_Nov_21_1518,ProdSingRedo,3.2.3,59.948839675440794,
,,,,111,0,111,0,,,,,,,,,,,,,,,,,,,,,,,,1469.6850578000303,None,,,,,,,,,,,,,,,,,fashion,new_silent,yellow,111,165,125,1466.9604852999328,None,1466.9604852999328,None,3,1.9023445000639185,1466.9604852999328,None,1468.917224899982,None,1469.437329999986,None,1469.437329999986,None,f,0.2095417999662459,1469.437329999986,None,,,color3,001,2019_Nov_21_1518,ProdSingRedo,3.2.3,59.948839675440794,
,,,,112,0,112,0,,,,,,,,,,,,,,,,,,,,,,,,1476.352887099958,None,,,,,,,,,,,,,,,,,music,silent,yellow,112,71,196,1470.2082107999595,None,1470.2082107999595,None,6,4.3745960999513045,1470.2082107999595,None,1474.635294699925,None,1475.1549081000267,None,1475.1549081000267,None,f,1.1719631999731064,1475.1549081000267,None,,,color3,001,2019_Nov_21_1518,ProdSingRedo,3.2.3,59.948839675440794,
,,,,113,0,113,0,,,,,,,,,,,,,,,,,,,,,,,,1480.5697946000146,None,,,,,,,,,,,,,,,,,management,new_silent,yellow,113,169,177,1476.883131999988,None,1476.883131999988,None,5,2.651671100058593,1476.883131999988,None,1479.5892296999227,None,1480.1071847999701,None,1480.1071847999701,None,r,0.42767390003427863,1480.1071847999701,None,,,color3,001,2019_Nov_21_1518,ProdSingRedo,3.2.3,59.948839675440794,
,,,,114,0,114,0,,,,,,,,,,,,,,,,,,,,,,,,1485.1701895999722,None,,,,,,,,,,,,,,,,,account,new_silent,yellow,114,162,1,1481.0945648000343,None,1481.0945648000343,None,3,3.048568700090982,1481.0945648000343,None,1484.187566999928,None,1484.710187299992,None,1484.710187299992,None,f,0.424656999995932,1484.710187299992,None,,,color3,001,2019_Nov_21_1518,ProdSingRedo,3.2.3,59.948839675440794,
,,,,115,0,115,0,,,,,,,,,,,,,,,,,,,,,,,,1488.1703918999992,None,,,,,,,,,,,,,,,,,symbol,new_aloud,red,115,143,321,1485.7004302999703,None,1485.7004302999703,None,3,1.530371499946341,1485.7004302999703,None,1487.2810545000248,None,1487.8118137000129,None,1487.8118137000129,None,f,0.3231930999318138,1487.8118137000129,None,,,color3,001,2019_Nov_21_1518,ProdSingRedo,3.2.3,59.948839675440794,
,,,,116,0,116,0,,,,,,,,,,,,,,,,,,,,,,,,1491.2542256999295,None,,,,,,,,,,,,,,,,,straight,silent,yellow,116,73,307,1488.698799500009,None,1488.698799500009,None,5,1.716047600028105,1488.698799500009,None,1490.4647941000294,None,1490.9940711000236,None,1490.9940711000236,None,r,0.2208157000131905,1490.9940711000236,None,,,color3,001,2019_Nov_21_1518,ProdSingRedo,3.2.3,59.948839675440794,
,,,,117,0,117,0,,,,,,,,,,,,,,,,,,,,,,,,1494.8210794000188,None,,,,,,,,,,,,,,,,,brief,new_sing,blue,117,117,28,1491.7776065999642,None,1491.7776065999642,None,3,2.2132565999636427,1491.7776065999642,None,1494.030658200034,None,1494.559708799934,None,1494.559708799934,None,f,0.22326140000950545,1494.559708799934,None,,,color3,001,2019_Nov_21_1518,ProdSingRedo,3.2.3,59.948839675440794,
,,,,118,0,118,0,,,,,,,,,,,,,,,,,,,,,,,,1499.3870601999806,None,,,,,,,,,,,,,,,,,sound,new_sing,blue,118,116,295,1495.3435211000033,None,1495.3435211000033,None,5,2.7513271999778226,1495.3435211000033,None,1498.1339520999463,None,1498.6571990000084,None,1498.6571990000084,None,r,0.693669900065288,1498.6571990000084,None,,,color3,001,2019_Nov_21_1518,ProdSingRedo,3.2.3,59.948839675440794,
,,,,119,0,119,0,,,,,,,,,,,,,,,,,,,,,,,,1504.9713297999697,None,,,,,,,,,,,,,,,,,present,new_aloud,red,119,145,231,1499.9104967999738,None,1499.9104967999738,None,3,3.944308999925852,1499.9104967999738,None,1503.895702400012,None,1504.4035858999705,None,1504.4035858999705,None,r,0.5397816000040621,1504.4035858999705,None,,,color3,001,2019_Nov_21_1518,ProdSingRedo,3.2.3,59.948839675440794,
,,,,120,0,120,0,,,,,,,,,,,,,,,,,,,,,,,,1510.2551407000283,None,,,,,,,,,,,,,,,,,style,new_aloud,red,120,127,311,1505.4960310999304,None,1505.4960310999304,None,3,3.926843599998392,1505.4960310999304,None,1509.4703952999553,None,1509.9913208999205,None,1509.9913208999205,None,f,0.23944480007048696,1509.9913208999205,None,,,color3,001,2019_Nov_21_1518,ProdSingRedo,3.2.3,59.948839675440794,
,,,,121,0,121,0,,,,,,,,,,,,,,,,,,,,,,,,1513.0220079999417,None,,,,,,,,,,,,,,,,,cover,new_aloud,red,121,142,77,1510.7807717999676,None,1510.7807717999676,None,2,1.2580980999628082,1510.7807717999676,None,1512.0838556999806,None,1512.6088881000178,None,1512.6088881000178,None,f,0.3819782000500709,1512.6088881000178,None,,,color3,001,2019_Nov_21_1518,ProdSingRedo,3.2.3,59.948839675440794,
,,,,122,0,122,0,,,,,,,,,,,,,,,,,,,,,,,,1516.8389944999944,None,,,,,,,,,,,,,,,,,breath,silent,yellow,122,77,27,1513.5498830999713,None,1513.5498830999713,None,3,2.3130183999892324,1513.5498830999713,None,1515.8994485000148,None,1516.429860599921,None,1516.429860599921,None,f,0.3770353998988867,1516.429860599921,None,,,color3,001,2019_Nov_21_1518,ProdSingRedo,3.2.3,59.948839675440794,
,,,,123,0,123,0,,,,,,,,,,,,,,,,,,,,,,,,1522.2894205999328,None,,,,,,,,,,,,,,,,,write,sing,blue,123,27,358,1517.3614930999465,None,1517.3614930999465,None,5,4.157385900034569,1517.3614930999465,None,1521.5708063000347,None,1522.09121470002,None,1522.09121470002,None,r,0.16356820007786155,1522.09121470002,None,,,color3,001,2019_Nov_21_1518,ProdSingRedo,3.2.3,59.948839675440794,
,,,,124,0,124,0,,,,,,,,,,,,,,,,,,,,,,,,1527.589074700023,None,,,,,,,,,,,,,,,,,revolution,silent,yellow,124,88,264,1522.8205220999662,None,1522.8205220999662,None,3,4.02643219998572,1522.8205220999662,None,1526.8929301999742,None,1527.4148618000327,None,1527.4148618000327,None,f,0.13610500004142523,1527.4148618000327,None,,,color3,001,2019_Nov_21_1518,ProdSingRedo,3.2.3,59.948839675440794,
,,,,125,0,125,0,,,,,,,,,,,,,,,,,,,,,,,,1533.6999848999549,None,,,,,,,,,,,,,,,,,colonel,new_sing,blue,125,101,55,1528.1113668000326,None,1528.1113668000326,None,2,4.7195561999687925,1528.1113668000326,None,1532.8678409999702,None,1533.3888897999423,None,1533.3888897999423,None,f,0.2818059999262914,1533.3888897999423,None,,,color3,001,2019_Nov_21_1518,ProdSingRedo,3.2.3,59.948839675440794,
,,,,126,0,126,0,,,,,,,,,,,,,,,,,,,,,,,,1537.8570495999884,None,,,,,,,,,,,,,,,,,answer,new_silent,yellow,126,156,8,1534.240305299987,None,1534.240305299987,None,5,2.798487199936062,1534.240305299987,None,1537.091281699948,None,1537.6107358000008,None,1537.6107358000008,None,r,0.2120656999759376,1537.6107358000008,None,,,color3,001,2019_Nov_21_1518,ProdSingRedo,3.2.3,59.948839675440794,
,,,,127,0,127,0,,,,,,,,,,,,,,,,,,,,,,,,1545.191828800016,None,,,,,,,,,,,,,,,,,pressure,sing,blue,127,5,232,1538.383574699983,None,1538.383574699983,None,5,2.3113311999477446,1538.383574699983,None,1540.7358587000053,None,1541.2628284000093,None,1541.2628284000093,None,f,3.9039453000295907,1541.2628284000093,None,,,color3,001,2019_Nov_21_1518,ProdSingRedo,3.2.3,59.948839675440794,
,,,,128,0,128,0,,,,,,,,,,,,,,,,,,,,,,,,1549.8738275999203,None,,,,,,,,,,,,,,,,,murder,aloud,red,128,37,195,1545.7148366000038,None,1545.7148366000038,None,3,3.3079961999319494,1545.7148366000038,None,1549.0709386999952,None,1549.595868699951,None,1549.595868699951,None,f,0.24306879995856434,1549.595868699951,None,,,color3,001,2019_Nov_21_1518,ProdSingRedo,3.2.3,59.948839675440794,
,,,,129,0,129,0,,,,,,,,,,,,,,,,,,,,,,,,1561.7753352000145,None,,,,,,,,,,,,,,,,,review,new_sing,blue,129,96,263,1550.397913099965,None,1550.397913099965,None,5,10.273013100028038,1550.397913099965,None,1560.7198216000106,None,1561.2492529000156,None,1561.2492529000156,None,f,0.4936642999527976,1561.2492529000156,None,,,color3,001,2019_Nov_21_1518,ProdSingRedo,3.2.3,59.948839675440794,
,,,,130,0,130,0,,,,,,,,,,,,,,,,,,,,,,,,1566.942380100023,None,,,,,,,,,,,,,,,,,fight,new_silent,yellow,130,172,127,1562.3008994000265,None,1562.3008994000265,None,5,1.4101024999981746,1562.3008994000265,None,1563.7502774000168,None,1564.2636084000114,None,1564.2636084000114,None,r,2.6472767000086606,1564.2636084000114,None,,,color3,001,2019_Nov_21_1518,ProdSingRedo,3.2.3,59.948839675440794,
,,,,131,0,131,0,,,,,,,,,,,,,,,,,,,,,,,,1569.6268329999875,None,,,,,,,,,,,,,,,,,clean,sing,blue,131,21,51,1567.4652922999812,None,1567.4652922999812,None,5,1.3175090999575332,1567.4652922999812,None,1568.8257390999934,None,1569.3462206999538,None,1569.3462206999538,None,f,0.24459629994817078,1569.3462206999538,None,,,color3,001,2019_Nov_21_1518,ProdSingRedo,3.2.3,59.948839675440794,
,,,,132,0,132,0,,,,,,,,,,,,,,,,,,,,,,,,1577.6941859999206,None,,,,,,,,,,,,,,,,,space,new_aloud,red,132,122,297,1570.1508857000154,None,1570.1508857000154,None,2,5.8399983999552205,1570.1508857000154,None,1576.0409484999254,None,1576.5613504999783,None,1576.5613504999783,None,f,1.1015024000080302,1576.5613504999783,None,,,color3,001,2019_Nov_21_1518,ProdSingRedo,3.2.3,59.948839675440794,
,,,,133,0,133,0,,,,,,,,,,,,,,,,,,,,,,,,1582.5099599999376,None,,,,,,,,,,,,,,,,,series,new_aloud,red,133,125,279,1578.2138254999882,None,1578.2138254999882,None,3,3.40908989997115,1578.2138254999882,None,1581.6721652999986,None,1582.1917363000102,None,1582.1917363000102,None,f,0.28717350005172193,1582.1917363000102,None,,,color3,001,2019_Nov_21_1518,ProdSingRedo,3.2.3,59.948839675440794,
,,,,134,0,134,0,,,,,,,,,,,,,,,,,,,,,,,,1586.5438347000163,None,,,,,,,,,,,,,,,,,narrow,new_sing,blue,134,95,197,1583.0339448000304,None,1583.0339448000304,None,4,2.253014500020072,1583.0339448000304,None,1585.3413083999185,None,1585.8641962999245,None,1585.8641962999245,None,f,0.6466650000074878,1585.8641962999245,None,,,color3,001,2019_Nov_21_1518,ProdSingRedo,3.2.3,59.948839675440794,
,,,,135,0,135,0,,,,,,,,,,,,,,,,,,,,,,,,1590.927297999966,None,,,,,,,,,,,,,,,,,pattern,silent,yellow,135,81,214,1587.076000000001,None,1587.076000000001,None,5,2.9788826000876725,1587.076000000001,None,1590.1085614999756,None,1590.6319394999882,None,1590.6319394999882,None,r,0.27097469998989254,1590.6319394999882,None,,,color3,001,2019_Nov_21_1518,ProdSingRedo,3.2.3,59.948839675440794,
,,,,136,0,136,0,,,,,,,,,,,,,,,,,,,,,,,,1595.9944159999723,None,,,,,,,,,,,,,,,,,discovery,sing,blue,136,17,95,1591.4572198999813,None,1591.4572198999813,None,4,3.3099410999566317,1591.4572198999813,None,1594.8123267999617,None,1595.3349216999486,None,1595.3349216999486,None,f,0.6322715000715107,1595.3349216999486,None,,,color3,001,2019_Nov_21_1518,ProdSingRedo,3.2.3,59.948839675440794,
,,,,137,0,137,0,,,,,,,,,,,,,,,,,,,,,,,,1600.2946059999522,None,,,,,,,,,,,,,,,,,division,new_aloud,red,137,138,101,1596.5236789999763,None,1596.5236789999763,None,3,2.707223100005649,1596.5236789999763,None,1599.2706115000183,None,1599.8000461999327,None,1599.8000461999327,None,f,0.462845400092192,1599.8000461999327,None,,,color3,001,2019_Nov_21_1518,ProdSingRedo,3.2.3,59.948839675440794,
,,,,138,0,138,0,,,,,,,,,,,,,,,,,,,,,,,,1605.910686200019,None,,,,,,,,,,,,,,,,,goose,silent,yellow,138,89,138,1600.8181292000227,None,1600.8181292000227,None,4,4.236787999980152,1600.8181292000227,None,1605.1068855000194,None,1605.6300298999995,None,1605.6300298999995,None,f,0.24879789992701262,1605.6300298999995,None,,,color3,001,2019_Nov_21_1518,ProdSingRedo,3.2.3,59.948839675440794,
,,,,139,0,139,0,,,,,,,,,,,,,,,,,,,,,,,,1610.5115281000035,None,,,,,,,,,,,,,,,,,master,new_sing,blue,139,119,180,1606.4354392000241,None,1606.4354392000241,None,4,3.123460099915974,1606.4354392000241,None,1609.6112735000206,None,1610.1331689999206,None,1610.1331689999206,None,f,0.35368539998307824,1610.1331689999206,None,,,color3,001,2019_Nov_21_1518,ProdSingRedo,3.2.3,59.948839675440794,
,,,,140,0,140,0,,,,,,,,,,,,,,,,,,,,,,,,1615.5120805000188,None,,,,,,,,,,,,,,,,,junior,new_aloud,red,140,123,167,1611.038373999996,None,1611.038373999996,None,4,3.2967602000571787,1611.038373999996,None,1614.3795400999952,None,1614.9014146999689,None,1614.9014146999689,None,f,0.5855976999737322,1614.9014146999689,None,,,color3,001,2019_Nov_21_1518,ProdSingRedo,3.2.3,59.948839675440794,
,,,,141,0,141,0,,,,,,,,,,,,,,,,,,,,,,,,1618.7958790999837,None,,,,,,,,,,,,,,,,,touch,aloud,red,141,32,332,1616.0353153999895,None,1616.0353153999895,None,4,1.8357744999229908,1616.0353153999895,None,1617.91064919997,None,1618.4328508999897,None,1618.4328508999897,None,f,0.33405649999622256,1618.4328508999897,None,,,color3,001,2019_Nov_21_1518,ProdSingRedo,3.2.3,59.948839675440794,
,,,,142,0,142,0,,,,,,,,,,,,,,,,,,,,,,,,1623.2625723999226,None,,,,,,,,,,,,,,,,,youth,aloud,red,142,31,359,1619.3224727999186,None,1619.3224727999186,None,4,3.2044779000570998,1619.3224727999186,None,1622.5741865999298,None,1623.1015986999264,None,1623.1015986999264,None,f,0.12940249999519438,1623.1015986999264,None,,,color3,001,2019_Nov_21_1518,ProdSingRedo,3.2.3,59.948839675440794,
,,,,143,0,143,0,,,,,,,,,,,,,,,,,,,,,,,,1626.9957003999734,None,,,,,,,,,,,,,,,,,orchestra,new_sing,blue,143,90,206,1623.7891892000334,None,1623.7891892000334,None,1,2.2417203000513837,1623.7891892000334,None,1626.0789171999786,None,1626.5990073999856,None,1626.5990073999856,None,f,0.3599127000197768,1626.5990073999856,None,,,color3,001,2019_Nov_21_1518,ProdSingRedo,3.2.3,59.948839675440794,
,,,,144,0,144,0,,,,,,,,,,,,,,,,,,,,,,,,1632.0292422999628,None,,,,,,,,,,,,,,,,,weather,sing,blue,144,16,352,1627.5217627999373,None,1627.5217627999373,None,5,3.413605700014159,1627.5217627999373,None,1630.9818592999363,None,1631.5082587000215,None,1631.5082587000215,None,r,0.48265050002373755,1631.5082587000215,None,,,color3,001,2019_Nov_21_1518,ProdSingRedo,3.2.3,59.948839675440794,
,,,,145,0,145,0,,,,,,,,,,,,,,,,,,,,,,,,1636.847157799988,None,,,,,,,,,,,,,,,,,danger,aloud,red,145,54,85,1632.5574567000149,None,1632.5574567000149,None,5,3.3621559999883175,1632.5574567000149,None,1635.9584097999614,None,1636.4879503999837,None,1636.4879503999837,None,f,0.33492669998668134,1636.4879503999837,None,,,color3,001,2019_Nov_21_1518,ProdSingRedo,3.2.3,59.948839675440794,
,,,,146,0,146,0,,,,,,,,,,,,,,,,,,,,,,,,1641.3642139999429,None,,,,,,,,,,,,,,,,,solution,new_silent,yellow,146,153,294,1637.3692458999576,None,1637.3692458999576,None,4,3.1416552999289706,1637.3692458999576,None,1640.5650083000073,None,1641.0847231999505,None,1641.0847231999505,None,f,0.25013589998707175,1641.0847231999505,None,,,color3,001,2019_Nov_21_1518,ProdSingRedo,3.2.3,59.948839675440794,
,,,,147,0,147,0,,,,,,,,,,,,,,,,,,,,,,,,1648.9481859999942,None,,,,,,,,,,,,,,,,,bucket,sing,blue,147,28,33,1641.8917717000004,None,1641.8917717000004,None,4,2.8911640000296757,1641.8917717000004,None,1644.834045000025,None,1645.3550563999452,None,1645.3550563999452,None,f,3.5638915000017732,1645.3550563999452,None,,,color3,001,2019_Nov_21_1518,ProdSingRedo,3.2.3,59.948839675440794,
,,,,148,0,148,0,,,,,,,,,,,,,,,,,,,,,,,,1654.9976731999777,None,,,,,,,,,,,,,,,,,state,sing,blue,148,4,303,1649.474077599938,None,1649.474077599938,None,4,2.4447970000328496,1649.474077599938,None,1651.96286650002,None,1652.4835227000294,None,1652.4835227000294,None,f,2.475451400037855,1652.4835227000294,None,,,color3,001,2019_Nov_21_1518,ProdSingRedo,3.2.3,59.948839675440794,
,,,,149,0,149,0,,,,,,,,,,,,,,,,,,,,,,,,1660.2318876999198,None,,,,,,,,,,,,,,,,,comedy,new_silent,yellow,149,164,58,1655.5239430000074,None,1655.5239430000074,None,4,4.05907069996465,1655.5239430000074,None,1659.6254207999445,None,1660.1521655999823,None,1660.1521655999823,None,r,0.04668559995479882,1660.1521655999823,None,,,color3,001,2019_Nov_21_1518,ProdSingRedo,3.2.3,59.948839675440794,
,,,,150,0,150,0,,,,,,,,,,,,,,,,,,,,,,,,1664.1656654999824,None,,,,,,,,,,,,,,,,,nature,sing,blue,150,0,200,1660.7593485999387,None,1660.7593485999387,None,3,2.535588900092989,1660.7593485999387,None,1663.355127500021,None,1663.8731449999614,None,1663.8731449999614,None,f,0.2617878000019118,1663.8731449999614,None,,,color3,001,2019_Nov_21_1518,ProdSingRedo,3.2.3,59.948839675440794,
,,,,151,0,151,0,,,,,,,,,,,,,,,,,,,,,,,,1673.365305299987,None,,,,,,,,,,,,,,,,,congress,aloud,red,151,35,67,1664.6912378999405,None,1664.6912378999405,None,5,7.764067500014789,1664.6912378999405,None,1672.496480199974,None,1673.0217916999245,None,1673.0217916999245,None,r,0.30512420006562024,1673.0217916999245,None,,,color3,001,2019_Nov_21_1518,ProdSingRedo,3.2.3,59.948839675440794,
,,,,152,0,152,0,,,,,,,,,,,,,,,,,,,,,,,,1679.3170950999483,None,,,,,,,,,,,,,,,,,institute,new_silent,yellow,152,179,162,1673.8926221999573,None,1673.8926221999573,None,3,2.914317899965681,1673.8926221999573,None,1676.851658300031,None,1677.3712101000128,None,1677.3712101000128,None,f,1.9077695000451058,1677.3712101000128,None,,,color3,001,2019_Nov_21_1518,ProdSingRedo,3.2.3,59.948839675440794,
,,,,153,0,153,0,,,,,,,,,,,,,,,,,,,,,,,,1683.4336966000265,None,,,,,,,,,,,,,,,,,agreement,aloud,red,153,58,5,1679.8431209999835,None,1679.8431209999835,None,6,2.691823899978772,1679.8431209999835,None,1682.5844262000173,None,1683.1042340999702,None,1683.1042340999702,None,r,0.3030962999910116,1683.1042340999702,None,,,color3,001,2019_Nov_21_1518,ProdSingRedo,3.2.3,59.948839675440794,
,,,,154,0,154,0,,,,,,,,,,,,,,,,,,,,,,,,1687.7838746999623,None,,,,,,,,,,,,,,,,,harmony,new_aloud,red,154,144,148,1683.9609385000076,None,1683.9609385000076,None,3,2.9740205000853166,1683.9609385000076,None,1686.981828799937,None,1687.5062409000238,None,1687.5062409000238,None,f,0.25277669995557517,1687.5062409000238,None,,,color3,001,2019_Nov_21_1518,ProdSingRedo,3.2.3,59.948839675440794,
,,,,155,0,155,0,,,,,,,,,,,,,,,,,,,,,,,,1697.3739018000197,None,,,,,,,,,,,,,,,,,quick,silent,yellow,155,82,248,1688.3121167999925,None,1688.3121167999925,None,5,7.69501989998389,1688.3121167999925,None,1696.0467364999931,None,1696.574226800003,None,1696.574226800003,None,f,0.7606221000896767,1696.574226800003,None,,,color3,001,2019_Nov_21_1518,ProdSingRedo,3.2.3,59.948839675440794,
,,,,156,0,156,0,,,,,,,,,,,,,,,,,,,,,,,,1701.7514354999876,None,,,,,,,,,,,,,,,,,department,aloud,red,156,36,90,1697.8954097999958,None,1697.8954097999958,None,3,2.919485400081612,1697.8954097999958,None,1700.8673846999882,None,1701.386316500022,None,1701.386316500022,None,f,0.34050619998015463,1701.386316500022,None,,,color3,001,2019_Nov_21_1518,ProdSingRedo,3.2.3,59.948839675440794,
,,,,157,0,157,0,,,,,,,,,,,,,,,,,,,,,,,,1710.118678699946,None,,,,,,,,,,,,,,,,,damage,aloud,red,157,44,83,1702.2789618999232,None,1702.2789618999232,None,5,6.599926299997605,1702.2789618999232,None,1708.9356512000086,None,1709.4550462999614,None,1709.4550462999614,None,r,0.6399191999807954,1709.4550462999614,None,,,color3,001,2019_Nov_21_1518,ProdSingRedo,3.2.3,59.948839675440794,
,,,,158,0,158,0,,,,,,,,,,,,,,,,,,,,,,,,1724.6367021999322,None,,,,,,,,,,,,,,,,,display,new_aloud,red,158,132,98,1710.6453684000298,None,1710.6453684000298,None,3,13.153571999981068,1710.6453684000298,None,1723.8507847000146,None,1724.3732540999772,None,1724.3732540999772,None,f,0.22571619995869696,1724.3732540999772,None,,,color3,001,2019_Nov_21_1518,ProdSingRedo,3.2.3,59.948839675440794,
,,,,159,0,159,0,,,,,,,,,,,,,,,,,,,,,,,,1727.5365911999252,None,,,,,,,,,,,,,,,,,message,aloud,red,159,51,189,1725.1627973000286,None,1725.1627973000286,None,5,1.5484614999732003,1725.1627973000286,None,1726.7557376000332,None,1727.2734653999796,None,1727.2734653999796,None,r,0.2294341999804601,1727.2734653999796,None,,,color3,001,2019_Nov_21_1518,ProdSingRedo,3.2.3,59.948839675440794,
,,,,160,0,160,0,,,,,,,,,,,,,,,,,,,,,,,,1738.954003599938,None,,,,,,,,,,,,,,,,,citizen,silent,yellow,160,84,50,1728.0619769999757,None,1728.0619769999757,None,5,10.04890679998789,1728.0619769999757,None,1738.1527857999317,None,1738.6747453999706,None,1738.6747453999706,None,f,0.2442682000109926,1738.6747453999706,None,,,color3,001,2019_Nov_21_1518,ProdSingRedo,3.2.3,59.948839675440794,
,,,,161,0,161,0,,,,,,,,,,,,,,,,,,,,,,,,1742.8542401000159,None,,,,,,,,,,,,,,,,,surface,aloud,red,161,38,316,1739.4806291999994,None,1739.4806291999994,None,3,2.5583439000183716,1739.4806291999994,None,1742.0884558999678,None,1742.607728300034,None,1742.607728300034,None,f,0.21524170006159693,1742.607728300034,None,,,color3,001,2019_Nov_21_1518,ProdSingRedo,3.2.3,59.948839675440794,
,,,,162,0,162,0,,,,,,,,,,,,,,,,,,,,,,,,1750.7216034999583,None,,,,,,,,,,,,,,,,,raise,aloud,red,162,41,250,1743.3800135999918,None,1743.3800135999918,None,3,6.587022299994715,1743.3800135999918,None,1750.0153265999397,None,1750.541741700028,None,1750.541741700028,None,f,0.1532177000772208,1750.541741700028,None,,,color3,001,2019_Nov_21_1518,ProdSingRedo,3.2.3,59.948839675440794,
,,,,163,0,163,0,,,,,,,,,,,,,,,,,,,,,,,,1754.6385138999904,None,,,,,,,,,,,,,,,,,build,sing,blue,163,7,35,1751.248643500032,None,1751.248643500032,None,5,1.6383001999929547,1751.248643500032,None,1752.9437589999288,None,1753.4585489999736,None,1753.4585489999736,None,r,1.148512399988249,1753.4585489999736,None,,,color3,001,2019_Nov_21_1518,ProdSingRedo,3.2.3,59.948839675440794,
,,,,164,0,164,0,,,,,,,,,,,,,,,,,,,,,,,,1761.0721871999558,None,,,,,,,,,,,,,,,,,title,new_sing,blue,164,105,331,1755.1591276000254,None,1755.1591276000254,None,3,5.095775100053288,1755.1591276000254,None,1760.3006965999957,None,1760.8209899999201,None,1760.8209899999201,None,f,0.21792339999228716,1760.8209899999201,None,,,color3,001,2019_Nov_21_1518,ProdSingRedo,3.2.3,59.948839675440794,
,,,,165,0,165,0,,,,,,,,,,,,,,,,,,,,,,,,1764.6391085999785,None,,,,,,,,,,,,,,,,,shear,sing,blue,165,29,283,1761.5978365000337,None,1761.5978365000337,None,2,1.9051605999702588,1761.5978365000337,None,1763.5478324999567,None,1764.0594481999287,None,1764.0594481999287,None,f,0.555572499986738,1764.0594481999287,None,,,color3,001,2019_Nov_21_1518,ProdSingRedo,3.2.3,59.948839675440794,
,,,,166,0,166,0,,,,,,,,,,,,,,,,,,,,,,,,1769.8060682999203,None,,,,,,,,,,,,,,,,,committee,sing,blue,166,15,62,1765.161714399932,None,1765.161714399932,None,4,3.7811365999514237,1765.161714399932,None,1768.9877528999932,None,1769.5077644999838,None,1769.5077644999838,None,f,0.2672434999840334,1769.5077644999838,None,,,color3,001,2019_Nov_21_1518,ProdSingRedo,3.2.3,59.948839675440794,
,,,,167,0,167,0,,,,,,,,,,,,,,,,,,,,,,,,1773.056324300007,None,,,,,,,,,,,,,,,,,short,aloud,red,167,50,285,1770.3271816000342,None,1770.3271816000342,None,5,1.8638029999565333,1770.3271816000342,None,1772.2337327999994,None,1772.755210399977,None,1772.755210399977,None,f,0.2677994000259787,1772.755210399977,None,,,color3,001,2019_Nov_21_1518,ProdSingRedo,3.2.3,59.948839675440794,
,,,,168,0,168,0,,,,,,,,,,,,,,,,,,,,,,,,1785.6747396999272,None,,,,,,,,,,,,,,,,,fellow,sing,blue,168,19,126,1773.581835799967,None,1773.581835799967,None,4,11.241092399926856,1773.581835799967,None,1784.8742933999747,None,1785.3941882000072,None,1785.3941882000072,None,f,0.2448215999174863,1785.3941882000072,None,,,color3,001,2019_Nov_21_1518,ProdSingRedo,3.2.3,59.948839675440794,
,,,,169,0,169,0,,,,,,,,,,,,,,,,,,,,,,,,1792.541124899988,None,,,,,,,,,,,,,,,,,election,new_sing,blue,169,92,109,1786.1946353999665,None,1786.1946353999665,None,5,5.436569000012241,1786.1946353999665,None,1791.6694295000052,None,1792.1905769000296,None,1792.1905769000296,None,f,0.32036279991734773,1792.1905769000296,None,,,color3,001,2019_Nov_21_1518,ProdSingRedo,3.2.3,59.948839675440794,
,,,,170,0,170,0,,,,,,,,,,,,,,,,,,,,,,,,1800.3739830999402,None,,,,,,,,,,,,,,,,,smell,sing,blue,170,12,291,1793.0624987999909,None,1793.0624987999909,None,2,1.4964757999405265,1793.0624987999909,None,1794.5966412000125,None,1795.1065839999355,None,1795.1065839999355,None,f,5.236474300036207,1795.1065839999355,None,,,color3,001,2019_Nov_21_1518,ProdSingRedo,3.2.3,59.948839675440794,
,,,,171,0,171,0,,,,,,,,,,,,,,,,,,,,,,,,1804.8773586000316,None,,,,,,,,,,,,,,,,,portion,silent,yellow,171,75,228,1800.894942099927,None,1800.894942099927,None,4,3.1204122999915853,1800.894942099927,None,1804.047888699919,None,1804.5595746999606,None,1804.5595746999606,None,r,0.28819220000877976,1804.5595746999606,None,,,color3,001,2019_Nov_21_1518,ProdSingRedo,3.2.3,59.948839675440794,
,,,,172,0,172,0,,,,,,,,,,,,,,,,,,,,,,,,1808.2253961999668,None,,,,,,,,,,,,,,,,,balance,new_aloud,red,172,124,17,1805.399776999955,None,1805.399776999955,None,4,1.967251400114037,1805.399776999955,None,1807.4062578999437,None,1807.9349842999363,None,1807.9349842999363,None,f,0.25594840000849217,1807.9349842999363,None,,,color3,001,2019_Nov_21_1518,ProdSingRedo,3.2.3,59.948839675440794,
,,,,173,0,173,0,,,,,,,,,,,,,,,,,,,,,,,,1812.5757004999323,None,,,,,,,,,,,,,,,,,thick,aloud,red,173,57,327,1808.750138000003,None,1808.750138000003,None,5,1.8888569000409916,1808.750138000003,None,1810.6884209000273,None,1811.210272999946,None,1811.210272999946,None,r,1.3327019000425935,1811.210272999946,None,,,color3,001,2019_Nov_21_1518,ProdSingRedo,3.2.3,59.948839675440794,
,,,,174,0,174,0,,,,,,,,,,,,,,,,,,,,,,,,1816.7426442999858,None,,,,,,,,,,,,,,,,,territory,sing,blue,174,18,324,1813.1008074999554,None,1813.1008074999554,None,5,2.8421108999755234,1813.1008074999554,None,1815.9859225000255,None,1816.5128369999584,None,1816.5128369999584,None,r,0.19813839998096228,1816.5128369999584,None,,,color3,001,2019_Nov_21_1518,ProdSingRedo,3.2.3,59.948839675440794,
,,,,175,0,175,0,,,,,,,,,,,,,,,,,,,,,,,,1824.2099229999585,None,,,,,,,,,,,,,,,,,history,new_silent,yellow,175,163,153,1817.267891800031,None,1817.267891800031,None,4,3.2190839999821037,1817.267891800031,None,1820.5401798000094,None,1821.0612465000013,None,1821.0612465000013,None,f,3.1221818999620155,1821.0612465000013,None,,,color3,001,2019_Nov_21_1518,ProdSingRedo,3.2.3,59.948839675440794,
,,,,176,0,176,0,,,,,,,,,,,,,,,,,,,,,,,,1832.9601542999735,None,,,,,,,,,,,,,,,,,taste,sing,blue,176,22,322,1824.7362726000138,None,1824.7362726000138,None,4,4.614745300030336,1824.7362726000138,None,1829.3913782000309,None,1829.9129075999372,None,1829.9129075999372,None,r,3.022082700044848,1829.9129075999372,None,,,color3,001,2019_Nov_21_1518,ProdSingRedo,3.2.3,59.948839675440794,
,,,,177,0,177,0,,,,,,,,,,,,,,,,,,,,,,,,1838.2431274999399,None,,,,,,,,,,,,,,,,,speech,aloud,red,177,55,298,1833.4820704000304,None,1833.4820704000304,None,5,3.4129714000737295,1833.4820704000304,None,1836.9383008999284,None,1837.4604954000097,None,1837.4604954000097,None,r,0.7465192000381649,1837.4604954000097,None,,,color3,001,2019_Nov_21_1518,ProdSingRedo,3.2.3,59.948839675440794,
,,,,178,0,178,0,,,,,,,,,,,,,,,,,,,,,,,,1846.4279436999932,None,,,,,,,,,,,,,,,,,member,new_aloud,red,178,134,188,1838.7697019999614,None,1838.7697019999614,None,4,5.861290799919516,1838.7697019999614,None,1844.6706362999976,None,1845.2007756999228,None,1845.2007756999228,None,f,1.1982198000187054,1845.2007756999228,None,,,color3,001,2019_Nov_21_1518,ProdSingRedo,3.2.3,59.948839675440794,
,,,,179,0,179,0,,,,,,,,,,,,,,,,,,,,,,,,1850.4776376999216,None,,,,,,,,,,,,,,,,,season,sing,blue,179,25,277,1846.9494468999328,None,1846.9494468999328,None,4,2.5135212999302894,1846.9494468999328,None,1849.5104315999197,None,1850.031803400023,None,1850.031803400023,None,f,0.4072090000845492,1850.031803400023,None,,,color3,001,2019_Nov_21_1518,ProdSingRedo,3.2.3,59.948839675440794,
,,,,,,,,,,,,,,,,,,,,,,,,,,,,,,,,,,,,,,,,,,,,,,,,,,,,,,,,,,,,,,,,,,,,,,,,,1850.9873673999682,None,,,,,,,
