StudyLoop.thisRepN,StudyLoop.thisTrialN,StudyLoop.thisN,StudyLoop.thisIndex,TestLoop.thisRepN,TestLoop.thisTrialN,TestLoop.thisN,TestLoop.thisIndex,textCondition.started,textCondition.stopped,keyCondition.keys,keyCondition.rt,keyCondition.started,keyCondition.stopped,Condition,stim_colors,color_sing,color_aloud,color_silent,textWelcome.started,textWelcome.stopped,keyWelcome.keys,keyWelcome.rt,keyWelcome.started,keyWelcome.stopped,textAloud.started,textAloud.stopped,textSilent.started,textSilent.stopped,textSing.started,textSing.stopped,textBlank500.started,textBlank500.stopped,study_word,study_type,study_color,study_num,study_word_num,textStudy.started,textStudy.stopped,keyStudy.keys,keyStudy.started,keyStudy.stopped,textTestInstructions.started,textTestInstructions.stopped,key_resp_3.keys,key_resp_3.rt,key_resp_3.started,key_resp_3.stopped,testWord,testType,testColor,testN,test_num,test_word_num,textConf.started,textConf.stopped,textConfScale.started,textConfScale.stopped,keyConf.keys,keyConf.rt,keyConf.started,keyConf.stopped,textTestBlank.started,textTestBlank.stopped,textRKN.started,textRKN.stopped,textRKNScale.started,textRKNScale.stopped,keyRKN.keys,keyRKN.rt,keyRKN.started,keyRKN.stopped,textEnd.started,textEnd.stopped,participant,session,date,expName,psychopyVersion,frameRate
,,,,,,,,13.80813707,None,y,1.982908556,13.80813707,None,,,,,,,,,,,,,,,,,,,,,,,,,,,,,,,,,,,,,,,,,,,,,,,,,,,,,,,,,,,,,,color9a,1,2019_Dec_02_1616,ProdSingRedo,3.2.4,59.96180835
,,,,,,,,,,,,,,ColoredTest,"['red', 'yellow', 'blue']",red,yellow,blue,15.93962418,None,space,670.1706513,15.93962418,None,,,,,,,,,,,,,,,,,,,,,,,,,,,,,,,,,,,,,,,,,,,,,,,,,,,color9a,1,2019_Dec_02_1616,ProdSingRedo,3.2.4,59.96180835
0,0,0,0,,,,,,,,,,,,,,,,,,,,,,15.93962418,None,15.93962418,None,15.93962418,None,688.6460159,None,clean,sing,red,28,51,686.6453435,None,None,686.6453435,None,,,,,,,,,,,,,,,,,,,,,,,,,,,,,,,,,color9a,1,2019_Dec_02_1616,ProdSingRedo,3.2.4,59.96180835
1,0,1,0,,,,,,,,,,,,,,,,,,,,,,,,,,,,691.1633928,None,collection,aloud,yellow,44,54,689.1628094,None,None,689.1628094,None,,,,,,,,,,,,,,,,,,,,,,,,,,,,,,,,,color9a,1,2019_Dec_02_1616,ProdSingRedo,3.2.4,59.96180835
2,0,2,0,,,,,,,,,,,,,,,,,,,,,,,,,,,,693.6809069,None,right,sing,red,8,265,691.6802476,None,None,691.6802476,None,,,,,,,,,,,,,,,,,,,,,,,,,,,,,,,,,color9a,1,2019_Dec_02_1616,ProdSingRedo,3.2.4,59.96180835
3,0,3,0,,,,,,,,,,,,,,,,,,,,,,,,,,,,696.1983417,None,engineer,silent,blue,73,114,694.1976582,None,None,694.1976582,None,,,,,,,,,,,,,,,,,,,,,,,,,,,,,,,,,color9a,1,2019_Dec_02_1616,ProdSingRedo,3.2.4,59.96180835
4,0,4,0,,,,,,,,,,,,,,,,,,,,,,,,,,,,698.7157743,None,income,sing,red,19,159,696.7151399,None,None,696.7151399,None,,,,,,,,,,,,,,,,,,,,,,,,,,,,,,,,,color9a,1,2019_Dec_02_1616,ProdSingRedo,3.2.4,59.96180835
5,0,5,0,,,,,,,,,,,,,,,,,,,,,,,,,,,,701.2332353,None,speech,aloud,yellow,37,298,699.2325756,None,None,699.2325756,None,,,,,,,,,,,,,,,,,,,,,,,,,,,,,,,,,color9a,1,2019_Dec_02_1616,ProdSingRedo,3.2.4,59.96180835
6,0,6,0,,,,,,,,,,,,,,,,,,,,,,,,,,,,703.750671,None,cross,aloud,yellow,47,80,701.7500154,None,None,701.7500154,None,,,,,,,,,,,,,,,,,,,,,,,,,,,,,,,,,color9a,1,2019_Dec_02_1616,ProdSingRedo,3.2.4,59.96180835
7,0,7,0,,,,,,,,,,,,,,,,,,,,,,,,,,,,706.2681126,None,shock,silent,blue,70,284,704.267327,None,None,704.267327,None,,,,,,,,,,,,,,,,,,,,,,,,,,,,,,,,,color9a,1,2019_Dec_02_1616,ProdSingRedo,3.2.4,59.96180835
8,0,8,0,,,,,,,,,,,,,,,,,,,,,,,,,,,,708.7855471,None,mayor,sing,red,25,183,706.7849263,None,None,706.7849263,None,,,,,,,,,,,,,,,,,,,,,,,,,,,,,,,,,color9a,1,2019_Dec_02_1616,ProdSingRedo,3.2.4,59.96180835
9,0,9,0,,,,,,,,,,,,,,,,,,,,,,,,,,,,711.3029735,None,empty,aloud,yellow,50,112,709.3021596,None,None,709.3021596,None,,,,,,,,,,,,,,,,,,,,,,,,,,,,,,,,,color9a,1,2019_Dec_02_1616,ProdSingRedo,3.2.4,59.96180835
10,0,10,0,,,,,,,,,,,,,,,,,,,,,,,,,,,,713.8203993,None,thing,aloud,yellow,46,328,711.8197648,None,None,711.8197648,None,,,,,,,,,,,,,,,,,,,,,,,,,,,,,,,,,color9a,1,2019_Dec_02_1616,ProdSingRedo,3.2.4,59.96180835
11,0,11,0,,,,,,,,,,,,,,,,,,,,,,,,,,,,716.3378453,None,reach,aloud,yellow,51,253,714.337204,None,None,714.337204,None,,,,,,,,,,,,,,,,,,,,,,,,,,,,,,,,,color9a,1,2019_Dec_02_1616,ProdSingRedo,3.2.4,59.96180835
12,0,12,0,,,,,,,,,,,,,,,,,,,,,,,,,,,,718.8552772,None,afternoon,sing,red,3,3,716.8546313,None,None,716.8546313,None,,,,,,,,,,,,,,,,,,,,,,,,,,,,,,,,,color9a,1,2019_Dec_02_1616,ProdSingRedo,3.2.4,59.96180835
13,0,13,0,,,,,,,,,,,,,,,,,,,,,,,,,,,,721.3727428,None,testimony,silent,blue,78,325,719.3720975,None,None,719.3720975,None,,,,,,,,,,,,,,,,,,,,,,,,,,,,,,,,,color9a,1,2019_Dec_02_1616,ProdSingRedo,3.2.4,59.96180835
14,0,14,0,,,,,,,,,,,,,,,,,,,,,,,,,,,,723.8901817,None,interview,silent,blue,63,165,721.8934298,None,None,721.8934298,None,,,,,,,,,,,,,,,,,,,,,,,,,,,,,,,,,color9a,1,2019_Dec_02_1616,ProdSingRedo,3.2.4,59.96180835
15,0,15,0,,,,,,,,,,,,,,,,,,,,,,,,,,,,726.4075816,None,growth,aloud,yellow,58,144,724.4069618,None,None,724.4069618,None,,,,,,,,,,,,,,,,,,,,,,,,,,,,,,,,,color9a,1,2019_Dec_02_1616,ProdSingRedo,3.2.4,59.96180835
16,0,16,0,,,,,,,,,,,,,,,,,,,,,,,,,,,,728.9250674,None,position,silent,blue,87,229,726.9243841,None,None,726.9243841,None,,,,,,,,,,,,,,,,,,,,,,,,,,,,,,,,,color9a,1,2019_Dec_02_1616,ProdSingRedo,3.2.4,59.96180835
17,0,17,0,,,,,,,,,,,,,,,,,,,,,,,,,,,,731.4424664,None,curve,sing,red,12,82,729.4418323,None,None,729.4418323,None,,,,,,,,,,,,,,,,,,,,,,,,,,,,,,,,,color9a,1,2019_Dec_02_1616,ProdSingRedo,3.2.4,59.96180835
18,0,18,0,,,,,,,,,,,,,,,,,,,,,,,,,,,,733.9599432,None,service,silent,blue,89,280,731.9592217,None,None,731.9592217,None,,,,,,,,,,,,,,,,,,,,,,,,,,,,,,,,,color9a,1,2019_Dec_02_1616,ProdSingRedo,3.2.4,59.96180835
19,0,19,0,,,,,,,,,,,,,,,,,,,,,,,,,,,,736.4773572,None,revolution,sing,red,23,264,734.47657,None,None,734.47657,None,,,,,,,,,,,,,,,,,,,,,,,,,,,,,,,,,color9a,1,2019_Dec_02_1616,ProdSingRedo,3.2.4,59.96180835
20,0,20,0,,,,,,,,,,,,,,,,,,,,,,,,,,,,738.9947951,None,music,silent,blue,80,196,736.994123,None,None,736.994123,None,,,,,,,,,,,,,,,,,,,,,,,,,,,,,,,,,color9a,1,2019_Dec_02_1616,ProdSingRedo,3.2.4,59.96180835
21,0,21,0,,,,,,,,,,,,,,,,,,,,,,,,,,,,741.5121708,None,department,aloud,yellow,34,90,739.5114682,None,None,739.5114682,None,,,,,,,,,,,,,,,,,,,,,,,,,,,,,,,,,color9a,1,2019_Dec_02_1616,ProdSingRedo,3.2.4,59.96180835
22,0,22,0,,,,,,,,,,,,,,,,,,,,,,,,,,,,744.0296917,None,dream,silent,blue,72,104,742.0290305,None,None,742.0290305,None,,,,,,,,,,,,,,,,,,,,,,,,,,,,,,,,,color9a,1,2019_Dec_02_1616,ProdSingRedo,3.2.4,59.96180835
23,0,23,0,,,,,,,,,,,,,,,,,,,,,,,,,,,,746.5471088,None,safety,sing,red,18,270,744.5463316,None,None,744.5463316,None,,,,,,,,,,,,,,,,,,,,,,,,,,,,,,,,,color9a,1,2019_Dec_02_1616,ProdSingRedo,3.2.4,59.96180835
24,0,24,0,,,,,,,,,,,,,,,,,,,,,,,,,,,,749.0645467,None,shape,sing,red,4,282,747.0639113,None,None,747.0639113,None,,,,,,,,,,,,,,,,,,,,,,,,,,,,,,,,,color9a,1,2019_Dec_02_1616,ProdSingRedo,3.2.4,59.96180835
25,0,25,0,,,,,,,,,,,,,,,,,,,,,,,,,,,,751.5820054,None,escape,sing,red,1,118,749.5813436,None,None,749.5813436,None,,,,,,,,,,,,,,,,,,,,,,,,,,,,,,,,,color9a,1,2019_Dec_02_1616,ProdSingRedo,3.2.4,59.96180835
26,0,26,0,,,,,,,,,,,,,,,,,,,,,,,,,,,,754.0994181,None,profession,sing,red,26,241,752.0987774,None,None,752.0987774,None,,,,,,,,,,,,,,,,,,,,,,,,,,,,,,,,,color9a,1,2019_Dec_02_1616,ProdSingRedo,3.2.4,59.96180835
27,0,27,0,,,,,,,,,,,,,,,,,,,,,,,,,,,,756.6168871,None,motion,aloud,yellow,54,194,754.6162038,None,None,754.6162038,None,,,,,,,,,,,,,,,,,,,,,,,,,,,,,,,,,color9a,1,2019_Dec_02_1616,ProdSingRedo,3.2.4,59.96180835
28,0,28,0,,,,,,,,,,,,,,,,,,,,,,,,,,,,759.1343213,None,disease,silent,blue,77,97,757.1336542,None,None,757.1336542,None,,,,,,,,,,,,,,,,,,,,,,,,,,,,,,,,,color9a,1,2019_Dec_02_1616,ProdSingRedo,3.2.4,59.96180835
29,0,29,0,,,,,,,,,,,,,,,,,,,,,,,,,,,,761.6517629,None,message,silent,blue,84,189,759.6510492,None,None,759.6510492,None,,,,,,,,,,,,,,,,,,,,,,,,,,,,,,,,,color9a,1,2019_Dec_02_1616,ProdSingRedo,3.2.4,59.96180835
30,0,30,0,,,,,,,,,,,,,,,,,,,,,,,,,,,,764.16917,None,incident,aloud,yellow,42,158,762.1685287,None,None,762.1685287,None,,,,,,,,,,,,,,,,,,,,,,,,,,,,,,,,,color9a,1,2019_Dec_02_1616,ProdSingRedo,3.2.4,59.96180835
31,0,31,0,,,,,,,,,,,,,,,,,,,,,,,,,,,,766.6864782,None,drink,aloud,yellow,56,105,764.6857965,None,None,764.6857965,None,,,,,,,,,,,,,,,,,,,,,,,,,,,,,,,,,color9a,1,2019_Dec_02_1616,ProdSingRedo,3.2.4,59.96180835
32,0,32,0,,,,,,,,,,,,,,,,,,,,,,,,,,,,769.2039914,None,break,sing,red,17,26,767.2032522,None,None,767.2032522,None,,,,,,,,,,,,,,,,,,,,,,,,,,,,,,,,,color9a,1,2019_Dec_02_1616,ProdSingRedo,3.2.4,59.96180835
33,0,33,0,,,,,,,,,,,,,,,,,,,,,,,,,,,,771.7215071,None,narrow,silent,blue,88,197,769.7207028,None,None,769.7207028,None,,,,,,,,,,,,,,,,,,,,,,,,,,,,,,,,,color9a,1,2019_Dec_02_1616,ProdSingRedo,3.2.4,59.96180835
34,0,34,0,,,,,,,,,,,,,,,,,,,,,,,,,,,,774.2389446,None,figure,aloud,yellow,49,128,772.2382807,None,None,772.2382807,None,,,,,,,,,,,,,,,,,,,,,,,,,,,,,,,,,color9a,1,2019_Dec_02_1616,ProdSingRedo,3.2.4,59.96180835
35,0,35,0,,,,,,,,,,,,,,,,,,,,,,,,,,,,776.756381,None,instrument,silent,blue,69,163,774.7556109,None,None,774.7556109,None,,,,,,,,,,,,,,,,,,,,,,,,,,,,,,,,,color9a,1,2019_Dec_02_1616,ProdSingRedo,3.2.4,59.96180835
36,0,36,0,,,,,,,,,,,,,,,,,,,,,,,,,,,,779.2738341,None,piece,silent,blue,68,221,777.2731509,None,None,777.2731509,None,,,,,,,,,,,,,,,,,,,,,,,,,,,,,,,,,color9a,1,2019_Dec_02_1616,ProdSingRedo,3.2.4,59.96180835
37,0,37,0,,,,,,,,,,,,,,,,,,,,,,,,,,,,781.791268,None,entrance,aloud,yellow,48,115,779.7906115,None,None,779.7906115,None,,,,,,,,,,,,,,,,,,,,,,,,,,,,,,,,,color9a,1,2019_Dec_02_1616,ProdSingRedo,3.2.4,59.96180835
38,0,38,0,,,,,,,,,,,,,,,,,,,,,,,,,,,,784.3086238,None,sunset,sing,red,0,315,782.3080117,None,None,782.3080117,None,,,,,,,,,,,,,,,,,,,,,,,,,,,,,,,,,color9a,1,2019_Dec_02_1616,ProdSingRedo,3.2.4,59.96180835
39,0,39,0,,,,,,,,,,,,,,,,,,,,,,,,,,,,786.826117,None,bucket,sing,red,22,33,784.8254953,None,None,784.8254953,None,,,,,,,,,,,,,,,,,,,,,,,,,,,,,,,,,color9a,1,2019_Dec_02_1616,ProdSingRedo,3.2.4,59.96180835
40,0,40,0,,,,,,,,,,,,,,,,,,,,,,,,,,,,789.3435755,None,comedy,aloud,yellow,31,58,787.3428934,None,None,787.3428934,None,,,,,,,,,,,,,,,,,,,,,,,,,,,,,,,,,color9a,1,2019_Dec_02_1616,ProdSingRedo,3.2.4,59.96180835
41,0,41,0,,,,,,,,,,,,,,,,,,,,,,,,,,,,791.8609792,None,discussion,aloud,yellow,41,96,789.8603537,None,None,789.8603537,None,,,,,,,,,,,,,,,,,,,,,,,,,,,,,,,,,color9a,1,2019_Dec_02_1616,ProdSingRedo,3.2.4,59.96180835
42,0,42,0,,,,,,,,,,,,,,,,,,,,,,,,,,,,794.3783381,None,account,aloud,yellow,36,1,792.3777752,None,None,792.3777752,None,,,,,,,,,,,,,,,,,,,,,,,,,,,,,,,,,color9a,1,2019_Dec_02_1616,ProdSingRedo,3.2.4,59.96180835
43,0,43,0,,,,,,,,,,,,,,,,,,,,,,,,,,,,796.8958858,None,goose,sing,red,16,138,794.8952336,None,None,794.8952336,None,,,,,,,,,,,,,,,,,,,,,,,,,,,,,,,,,color9a,1,2019_Dec_02_1616,ProdSingRedo,3.2.4,59.96180835
44,0,44,0,,,,,,,,,,,,,,,,,,,,,,,,,,,,799.4133311,None,couch,aloud,yellow,57,70,797.4126618,None,None,797.4126618,None,,,,,,,,,,,,,,,,,,,,,,,,,,,,,,,,,color9a,1,2019_Dec_02_1616,ProdSingRedo,3.2.4,59.96180835
45,0,45,0,,,,,,,,,,,,,,,,,,,,,,,,,,,,801.9307678,None,state,sing,red,15,303,799.9301088,None,None,799.9301088,None,,,,,,,,,,,,,,,,,,,,,,,,,,,,,,,,,color9a,1,2019_Dec_02_1616,ProdSingRedo,3.2.4,59.96180835
46,0,46,0,,,,,,,,,,,,,,,,,,,,,,,,,,,,804.4481808,None,quick,silent,blue,64,248,802.4478769,None,None,802.4478769,None,,,,,,,,,,,,,,,,,,,,,,,,,,,,,,,,,color9a,1,2019_Dec_02_1616,ProdSingRedo,3.2.4,59.96180835
47,0,47,0,,,,,,,,,,,,,,,,,,,,,,,,,,,,806.9656433,None,light,aloud,yellow,32,171,804.9649643,None,None,804.9649643,None,,,,,,,,,,,,,,,,,,,,,,,,,,,,,,,,,color9a,1,2019_Dec_02_1616,ProdSingRedo,3.2.4,59.96180835
48,0,48,0,,,,,,,,,,,,,,,,,,,,,,,,,,,,809.483056,None,pretty,silent,blue,67,233,807.482308,None,None,807.482308,None,,,,,,,,,,,,,,,,,,,,,,,,,,,,,,,,,color9a,1,2019_Dec_02_1616,ProdSingRedo,3.2.4,59.96180835
49,0,49,0,,,,,,,,,,,,,,,,,,,,,,,,,,,,812.000529,None,territory,sing,red,9,324,809.9997935,None,None,809.9997935,None,,,,,,,,,,,,,,,,,,,,,,,,,,,,,,,,,color9a,1,2019_Dec_02_1616,ProdSingRedo,3.2.4,59.96180835
50,0,50,0,,,,,,,,,,,,,,,,,,,,,,,,,,,,814.5179402,None,clear,sing,red,5,52,812.5172933,None,None,812.5172933,None,,,,,,,,,,,,,,,,,,,,,,,,,,,,,,,,,color9a,1,2019_Dec_02_1616,ProdSingRedo,3.2.4,59.96180835
51,0,51,0,,,,,,,,,,,,,,,,,,,,,,,,,,,,817.0354005,None,broke,silent,blue,83,32,815.0347393,None,None,815.0347393,None,,,,,,,,,,,,,,,,,,,,,,,,,,,,,,,,,color9a,1,2019_Dec_02_1616,ProdSingRedo,3.2.4,59.96180835
52,0,52,0,,,,,,,,,,,,,,,,,,,,,,,,,,,,819.5527849,None,waste,silent,blue,75,350,817.5521557,None,None,817.5521557,None,,,,,,,,,,,,,,,,,,,,,,,,,,,,,,,,,color9a,1,2019_Dec_02_1616,ProdSingRedo,3.2.4,59.96180835
53,0,53,0,,,,,,,,,,,,,,,,,,,,,,,,,,,,822.070261,None,principal,silent,blue,82,236,820.0696151,None,None,820.0696151,None,,,,,,,,,,,,,,,,,,,,,,,,,,,,,,,,,color9a,1,2019_Dec_02_1616,ProdSingRedo,3.2.4,59.96180835
54,0,54,0,,,,,,,,,,,,,,,,,,,,,,,,,,,,824.5877291,None,vision,silent,blue,85,347,822.5870601,None,None,822.5870601,None,,,,,,,,,,,,,,,,,,,,,,,,,,,,,,,,,color9a,1,2019_Dec_02_1616,ProdSingRedo,3.2.4,59.96180835
55,0,55,0,,,,,,,,,,,,,,,,,,,,,,,,,,,,827.1051269,None,gesture,silent,blue,62,137,825.1044918,None,None,825.1044918,None,,,,,,,,,,,,,,,,,,,,,,,,,,,,,,,,,color9a,1,2019_Dec_02_1616,ProdSingRedo,3.2.4,59.96180835
56,0,56,0,,,,,,,,,,,,,,,,,,,,,,,,,,,,829.6225971,None,present,sing,red,14,231,827.6219089,None,None,827.6219089,None,,,,,,,,,,,,,,,,,,,,,,,,,,,,,,,,,color9a,1,2019_Dec_02_1616,ProdSingRedo,3.2.4,59.96180835
57,0,57,0,,,,,,,,,,,,,,,,,,,,,,,,,,,,832.1399243,None,colonel,aloud,yellow,39,55,830.1392516,None,None,830.1392516,None,,,,,,,,,,,,,,,,,,,,,,,,,,,,,,,,,color9a,1,2019_Dec_02_1616,ProdSingRedo,3.2.4,59.96180835
58,0,58,0,,,,,,,,,,,,,,,,,,,,,,,,,,,,834.6574627,None,track,silent,blue,60,334,832.656669,None,None,832.656669,None,,,,,,,,,,,,,,,,,,,,,,,,,,,,,,,,,color9a,1,2019_Dec_02_1616,ProdSingRedo,3.2.4,59.96180835
59,0,59,0,,,,,,,,,,,,,,,,,,,,,,,,,,,,837.1748875,None,commercial,sing,red,6,61,835.1741283,None,None,835.1741283,None,,,,,,,,,,,,,,,,,,,,,,,,,,,,,,,,,color9a,1,2019_Dec_02_1616,ProdSingRedo,3.2.4,59.96180835
60,0,60,0,,,,,,,,,,,,,,,,,,,,,,,,,,,,839.6923372,None,bureau,sing,red,13,37,837.6915087,None,None,837.6915087,None,,,,,,,,,,,,,,,,,,,,,,,,,,,,,,,,,color9a,1,2019_Dec_02_1616,ProdSingRedo,3.2.4,59.96180835
61,0,61,0,,,,,,,,,,,,,,,,,,,,,,,,,,,,842.2097064,None,committee,aloud,yellow,33,62,840.2091049,None,None,840.2091049,None,,,,,,,,,,,,,,,,,,,,,,,,,,,,,,,,,color9a,1,2019_Dec_02_1616,ProdSingRedo,3.2.4,59.96180835
62,0,62,0,,,,,,,,,,,,,,,,,,,,,,,,,,,,844.7272096,None,junior,silent,blue,74,167,842.7277706,None,None,842.7277706,None,,,,,,,,,,,,,,,,,,,,,,,,,,,,,,,,,color9a,1,2019_Dec_02_1616,ProdSingRedo,3.2.4,59.96180835
63,0,63,0,,,,,,,,,,,,,,,,,,,,,,,,,,,,847.2446487,None,youth,aloud,yellow,55,359,845.2439938,None,None,845.2439938,None,,,,,,,,,,,,,,,,,,,,,,,,,,,,,,,,,color9a,1,2019_Dec_02_1616,ProdSingRedo,3.2.4,59.96180835
64,0,64,0,,,,,,,,,,,,,,,,,,,,,,,,,,,,849.762087,None,working,sing,red,7,357,847.7614276,None,None,847.7614276,None,,,,,,,,,,,,,,,,,,,,,,,,,,,,,,,,,color9a,1,2019_Dec_02_1616,ProdSingRedo,3.2.4,59.96180835
65,0,65,0,,,,,,,,,,,,,,,,,,,,,,,,,,,,852.2795587,None,executive,aloud,yellow,52,122,850.2788627,None,None,850.2788627,None,,,,,,,,,,,,,,,,,,,,,,,,,,,,,,,,,color9a,1,2019_Dec_02_1616,ProdSingRedo,3.2.4,59.96180835
66,0,66,0,,,,,,,,,,,,,,,,,,,,,,,,,,,,854.7969587,None,edition,aloud,yellow,38,107,852.7963208,None,None,852.7963208,None,,,,,,,,,,,,,,,,,,,,,,,,,,,,,,,,,color9a,1,2019_Dec_02_1616,ProdSingRedo,3.2.4,59.96180835
67,0,67,0,,,,,,,,,,,,,,,,,,,,,,,,,,,,857.314429,None,style,silent,blue,81,311,855.313741,None,None,855.313741,None,,,,,,,,,,,,,,,,,,,,,,,,,,,,,,,,,color9a,1,2019_Dec_02_1616,ProdSingRedo,3.2.4,59.96180835
68,0,68,0,,,,,,,,,,,,,,,,,,,,,,,,,,,,859.8318864,None,grade,sing,red,21,140,857.8311917,None,None,857.8311917,None,,,,,,,,,,,,,,,,,,,,,,,,,,,,,,,,,color9a,1,2019_Dec_02_1616,ProdSingRedo,3.2.4,59.96180835
69,0,69,0,,,,,,,,,,,,,,,,,,,,,,,,,,,,862.3492761,None,expansion,aloud,yellow,30,123,860.3484703,None,None,860.3484703,None,,,,,,,,,,,,,,,,,,,,,,,,,,,,,,,,,color9a,1,2019_Dec_02_1616,ProdSingRedo,3.2.4,59.96180835
70,0,70,0,,,,,,,,,,,,,,,,,,,,,,,,,,,,864.8667078,None,dance,silent,blue,66,84,862.8660728,None,None,862.8660728,None,,,,,,,,,,,,,,,,,,,,,,,,,,,,,,,,,color9a,1,2019_Dec_02_1616,ProdSingRedo,3.2.4,59.96180835
71,0,71,0,,,,,,,,,,,,,,,,,,,,,,,,,,,,867.3841597,None,threat,silent,blue,71,329,865.3833779,None,None,865.3833779,None,,,,,,,,,,,,,,,,,,,,,,,,,,,,,,,,,color9a,1,2019_Dec_02_1616,ProdSingRedo,3.2.4,59.96180835
72,0,72,0,,,,,,,,,,,,,,,,,,,,,,,,,,,,869.9015771,None,trend,silent,blue,61,340,867.9009364,None,None,867.9009364,None,,,,,,,,,,,,,,,,,,,,,,,,,,,,,,,,,color9a,1,2019_Dec_02_1616,ProdSingRedo,3.2.4,59.96180835
73,0,73,0,,,,,,,,,,,,,,,,,,,,,,,,,,,,872.419034,None,season,sing,red,2,277,870.4183821,None,None,870.4183821,None,,,,,,,,,,,,,,,,,,,,,,,,,,,,,,,,,color9a,1,2019_Dec_02_1616,ProdSingRedo,3.2.4,59.96180835
74,0,74,0,,,,,,,,,,,,,,,,,,,,,,,,,,,,874.9364837,None,beginning,sing,red,10,19,872.9357603,None,None,872.9357603,None,,,,,,,,,,,,,,,,,,,,,,,,,,,,,,,,,color9a,1,2019_Dec_02_1616,ProdSingRedo,3.2.4,59.96180835
75,0,75,0,,,,,,,,,,,,,,,,,,,,,,,,,,,,877.4538923,None,mechanical,aloud,yellow,53,185,875.4532467,None,None,875.4532467,None,,,,,,,,,,,,,,,,,,,,,,,,,,,,,,,,,color9a,1,2019_Dec_02_1616,ProdSingRedo,3.2.4,59.96180835
76,0,76,0,,,,,,,,,,,,,,,,,,,,,,,,,,,,879.9713558,None,region,aloud,yellow,59,256,877.9706915,None,None,877.9706915,None,,,,,,,,,,,,,,,,,,,,,,,,,,,,,,,,,color9a,1,2019_Dec_02_1616,ProdSingRedo,3.2.4,59.96180835
77,0,77,0,,,,,,,,,,,,,,,,,,,,,,,,,,,,882.4887955,None,short,silent,blue,86,285,880.4881418,None,None,880.4881418,None,,,,,,,,,,,,,,,,,,,,,,,,,,,,,,,,,color9a,1,2019_Dec_02_1616,ProdSingRedo,3.2.4,59.96180835
78,0,78,0,,,,,,,,,,,,,,,,,,,,,,,,,,,,885.0062406,None,citizen,aloud,yellow,45,50,883.0095658,None,None,883.0095658,None,,,,,,,,,,,,,,,,,,,,,,,,,,,,,,,,,color9a,1,2019_Dec_02_1616,ProdSingRedo,3.2.4,59.96180835
79,0,79,0,,,,,,,,,,,,,,,,,,,,,,,,,,,,887.5236539,None,country,aloud,yellow,43,73,885.5230219,None,None,885.5230219,None,,,,,,,,,,,,,,,,,,,,,,,,,,,,,,,,,color9a,1,2019_Dec_02_1616,ProdSingRedo,3.2.4,59.96180835
80,0,80,0,,,,,,,,,,,,,,,,,,,,,,,,,,,,890.0409904,None,history,sing,red,29,153,888.0403983,None,None,888.0403983,None,,,,,,,,,,,,,,,,,,,,,,,,,,,,,,,,,color9a,1,2019_Dec_02_1616,ProdSingRedo,3.2.4,59.96180835
81,0,81,0,,,,,,,,,,,,,,,,,,,,,,,,,,,,892.558526,None,benefit,sing,red,24,20,890.5577677,None,None,890.5577677,None,,,,,,,,,,,,,,,,,,,,,,,,,,,,,,,,,color9a,1,2019_Dec_02_1616,ProdSingRedo,3.2.4,59.96180835
82,0,82,0,,,,,,,,,,,,,,,,,,,,,,,,,,,,895.0759856,None,smell,sing,red,27,291,893.0753683,None,None,893.0753683,None,,,,,,,,,,,,,,,,,,,,,,,,,,,,,,,,,color9a,1,2019_Dec_02_1616,ProdSingRedo,3.2.4,59.96180835
83,0,83,0,,,,,,,,,,,,,,,,,,,,,,,,,,,,897.5934083,None,article,aloud,yellow,35,11,895.5927577,None,None,895.5927577,None,,,,,,,,,,,,,,,,,,,,,,,,,,,,,,,,,color9a,1,2019_Dec_02_1616,ProdSingRedo,3.2.4,59.96180835
84,0,84,0,,,,,,,,,,,,,,,,,,,,,,,,,,,,900.1108593,None,display,silent,blue,76,98,898.1100587,None,None,898.1100587,None,,,,,,,,,,,,,,,,,,,,,,,,,,,,,,,,,color9a,1,2019_Dec_02_1616,ProdSingRedo,3.2.4,59.96180835
85,0,85,0,,,,,,,,,,,,,,,,,,,,,,,,,,,,902.6282944,None,corner,aloud,yellow,40,69,900.6276453,None,None,900.6276453,None,,,,,,,,,,,,,,,,,,,,,,,,,,,,,,,,,color9a,1,2019_Dec_02_1616,ProdSingRedo,3.2.4,59.96180835
86,0,86,0,,,,,,,,,,,,,,,,,,,,,,,,,,,,905.145718,None,appeal,sing,red,11,9,903.1450978,None,None,903.1450978,None,,,,,,,,,,,,,,,,,,,,,,,,,,,,,,,,,color9a,1,2019_Dec_02_1616,ProdSingRedo,3.2.4,59.96180835
87,0,87,0,,,,,,,,,,,,,,,,,,,,,,,,,,,,907.6631957,None,tragedy,sing,red,20,335,905.6625177,None,None,905.6625177,None,,,,,,,,,,,,,,,,,,,,,,,,,,,,,,,,,color9a,1,2019_Dec_02_1616,ProdSingRedo,3.2.4,59.96180835
88,0,88,0,,,,,,,,,,,,,,,,,,,,,,,,,,,,910.1806099,None,council,silent,blue,79,71,908.1799624,None,None,908.1799624,None,,,,,,,,,,,,,,,,,,,,,,,,,,,,,,,,,color9a,1,2019_Dec_02_1616,ProdSingRedo,3.2.4,59.96180835
89,0,89,0,,,,,,,,,,,,,,,,,,,,,,,,,,,,912.6980724,None,chief,silent,blue,65,48,910.6973692,None,None,910.6973692,None,,,,,,,,,,,,,,,,,,,,,,,,,,,,,,,,,color9a,1,2019_Dec_02_1616,ProdSingRedo,3.2.4,59.96180835
,,,,,,,,,,,,,,,,,,,,,,,,,,,,,,,,,,,,,,,,,,,913.1982096,None,k,105.0837243,913.1982096,None,,,,,,,,,,,,,,,,,,,,,,,,,,,color9a,1,2019_Dec_02_1616,ProdSingRedo,3.2.4,59.96180835
,,,,0,0,0,0,,,,,,,,,,,,,,,,,,,,,,,,1026.282793,None,,,,,,,,,,,,,,,,,heavy,new_silent,blue,0,170,151,1018.832577,None,1018.832577,None,1,3.576904345,1018.832577,None,1022.46485,None,1022.981728,None,1022.981728,None,n,3.251567607,1022.981728,None,,,color9a,1,2019_Dec_02_1616,ProdSingRedo,3.2.4,59.96180835
,,,,1,0,1,0,,,,,,,,,,,,,,,,,,,,,,,,1034.902116,None,,,,,,,,,,,,,,,,,committee,aloud,yellow,1,33,62,1026.799535,None,1026.799535,None,6,4.217640674,1026.799535,None,1031.054743,None,1031.567606,None,1031.567606,None,r,3.289178985,1031.567606,None,,,color9a,1,2019_Dec_02_1616,ProdSingRedo,3.2.4,59.96180835
,,,,2,0,2,0,,,,,,,,,,,,,,,,,,,,,,,,1043.154672,None,,,,,,,,,,,,,,,,,shape,sing,red,2,4,282,1035.418829,None,1035.418829,None,6,4.517741439,1035.418829,None,1039.973262,None,1040.487176,None,1040.487176,None,r,2.633340383,1040.487176,None,,,color9a,1,2019_Dec_02_1616,ProdSingRedo,3.2.4,59.96180835
,,,,3,0,3,0,,,,,,,,,,,,,,,,,,,,,,,,1049.089807,None,,,,,,,,,,,,,,,,,graduate,new_sing,red,3,112,141,1043.671371,None,1043.671371,None,1,2.632869214,1043.671371,None,1046.338797,None,1046.855786,None,1046.855786,None,n,2.192350587,1046.855786,None,,,color9a,1,2019_Dec_02_1616,ProdSingRedo,3.2.4,59.96180835
,,,,4,0,4,0,,,,,,,,,,,,,,,,,,,,,,,,1056.675508,None,,,,,,,,,,,,,,,,,history,sing,red,4,29,153,1049.606501,None,1049.606501,None,6,4.217255342,1049.606501,None,1053.863113,None,1054.374564,None,1054.374564,None,r,2.257727008,1054.374564,None,,,color9a,1,2019_Dec_02_1616,ProdSingRedo,3.2.4,59.96180835
,,,,5,0,5,0,,,,,,,,,,,,,,,,,,,,,,,,1063.160799,None,,,,,,,,,,,,,,,,,disease,silent,blue,5,77,97,1057.192164,None,1057.192164,None,6,3.391653009,1057.192164,None,1060.629662,None,1061.143522,None,1061.143522,None,r,1.975749905,1061.143522,None,,,color9a,1,2019_Dec_02_1616,ProdSingRedo,3.2.4,59.96180835
,,,,6,0,6,0,,,,,,,,,,,,,,,,,,,,,,,,1068.995921,None,,,,,,,,,,,,,,,,,clean,sing,red,6,28,51,1063.677483,None,1063.677483,None,6,3.201531064,1063.677483,None,1066.913111,None,1067.428729,None,1067.428729,None,r,1.522050065,1067.428729,None,,,color9a,1,2019_Dec_02_1616,ProdSingRedo,3.2.4,59.96180835
,,,,7,0,7,0,,,,,,,,,,,,,,,,,,,,,,,,1074.36423,None,,,,,,,,,,,,,,,,,vision,silent,blue,7,85,347,1069.512829,None,1069.512829,None,1,2.157918897,1069.512829,None,1071.715991,None,1072.230272,None,1072.230272,None,n,2.096131131,1072.230272,None,,,color9a,1,2019_Dec_02_1616,ProdSingRedo,3.2.4,59.96180835
,,,,8,0,8,0,,,,,,,,,,,,,,,,,,,,,,,,1082.96687,None,,,,,,,,,,,,,,,,,curve,sing,red,8,12,82,1074.882539,None,1074.882539,None,1,4.579508367,1074.882539,None,1079.515729,None,1080.015845,None,1080.015845,None,n,2.910285469,1080.015845,None,,,color9a,1,2019_Dec_02_1616,ProdSingRedo,3.2.4,59.96180835
,,,,9,0,9,0,,,,,,,,,,,,,,,,,,,,,,,,1089.002057,None,,,,,,,,,,,,,,,,,account,aloud,yellow,9,36,1,1083.483683,None,1083.483683,None,6,2.697982528,1083.483683,None,1086.220328,None,1086.734692,None,1086.734692,None,r,2.22323063,1086.734692,None,,,color9a,1,2019_Dec_02_1616,ProdSingRedo,3.2.4,59.96180835
,,,,10,0,10,0,,,,,,,,,,,,,,,,,,,,,,,,1096.354315,None,,,,,,,,,,,,,,,,,rough,new_silent,blue,10,176,266,1089.518862,None,1089.518862,None,1,4.422278963,1089.518862,None,1093.990462,None,1094.503746,None,1094.503746,None,f,1.805673304,1094.503746,None,,,color9a,1,2019_Dec_02_1616,ProdSingRedo,3.2.4,59.96180835
,,,,11,0,11,0,,,,,,,,,,,,,,,,,,,,,,,,1105.290391,None,,,,,,,,,,,,,,,,,permit,new_silent,blue,11,156,218,1096.871126,None,1096.871126,None,2,5.773695734,1096.871126,None,1102.692389,None,1103.206397,None,1103.206397,None,f,2.038078192,1103.206397,None,,,color9a,1,2019_Dec_02_1616,ProdSingRedo,3.2.4,59.96180835
,,,,12,0,12,0,,,,,,,,,,,,,,,,,,,,,,,,1111.042177,None,,,,,,,,,,,,,,,,,threat,silent,blue,12,71,329,1105.807206,None,1105.807206,None,6,2.965088745,1105.807206,None,1108.812553,None,1109.324955,None,1109.324955,None,r,1.679186791,1109.324955,None,,,color9a,1,2019_Dec_02_1616,ProdSingRedo,3.2.4,59.96180835
,,,,13,0,13,0,,,,,,,,,,,,,,,,,,,,,,,,1117.444114,None,,,,,,,,,,,,,,,,,error,new_silent,blue,13,155,117,1111.558973,None,1111.558973,None,1,3.125298796,1111.558973,None,1114.728476,None,1115.243363,None,1115.243363,None,n,2.160427442,1115.243363,None,,,color9a,1,2019_Dec_02_1616,ProdSingRedo,3.2.4,59.96180835
,,,,14,0,14,0,,,,,,,,,,,,,,,,,,,,,,,,1129.431128,None,,,,,,,,,,,,,,,,,motion,aloud,yellow,14,54,194,1117.960901,None,1117.960901,None,6,4.891015765,1117.960901,None,1122.900374,None,1123.412602,None,1123.412602,None,f,5.982422148,1123.412602,None,,,color9a,1,2019_Dec_02_1616,ProdSingRedo,3.2.4,59.96180835
,,,,15,0,15,0,,,,,,,,,,,,,,,,,,,,,,,,1135.516279,None,,,,,,,,,,,,,,,,,smell,sing,red,15,27,291,1129.947924,None,1129.947924,None,4,3.943040235,1129.947924,None,1133.932327,None,1134.449267,None,1134.449267,None,f,1.025614152,1134.449267,None,,,color9a,1,2019_Dec_02_1616,ProdSingRedo,3.2.4,59.96180835
,,,,16,0,16,0,,,,,,,,,,,,,,,,,,,,,,,,1142.318391,None,,,,,,,,,,,,,,,,,interior,new_aloud,yellow,16,126,164,1136.033036,None,1136.033036,None,3,4.289331376,1136.033036,None,1140.372462,None,1140.884622,None,1140.884622,None,f,1.397610569,1140.884622,None,,,color9a,1,2019_Dec_02_1616,ProdSingRedo,3.2.4,59.96180835
,,,,17,0,17,0,,,,,,,,,,,,,,,,,,,,,,,,1150.07077,None,,,,,,,,,,,,,,,,,meeting,new_aloud,yellow,17,125,187,1142.835032,None,1142.835032,None,5,5.550963019,1142.835032,None,1148.420055,None,1148.937097,None,1148.937097,None,f,1.096611319,1148.937097,None,,,color9a,1,2019_Dec_02_1616,ProdSingRedo,3.2.4,59.96180835
,,,,18,0,18,0,,,,,,,,,,,,,,,,,,,,,,,,1155.222342,None,,,,,,,,,,,,,,,,,master,new_sing,red,18,96,180,1150.587563,None,1150.587563,None,1,1.862063314,1150.587563,None,1152.491084,None,1153.004997,None,1153.004997,None,n,2.180440441,1153.004997,None,,,color9a,1,2019_Dec_02_1616,ProdSingRedo,3.2.4,59.96180835
,,,,19,0,19,0,,,,,,,,,,,,,,,,,,,,,,,,1160.94078,None,,,,,,,,,,,,,,,,,quarter,new_silent,blue,19,178,246,1155.739021,None,1155.739021,None,1,3.102223356,1155.739021,None,1158.891134,None,1159.40698,None,1159.40698,None,n,1.490710982,1159.40698,None,,,color9a,1,2019_Dec_02_1616,ProdSingRedo,3.2.4,59.96180835
,,,,20,0,20,0,,,,,,,,,,,,,,,,,,,,,,,,1166.14236,None,,,,,,,,,,,,,,,,,community,new_aloud,yellow,20,129,63,1161.460068,None,1161.460068,None,6,2.124809278,1161.460068,None,1163.628687,None,1164.141635,None,1164.141635,None,r,1.955073537,1164.141635,None,,,color9a,1,2019_Dec_02_1616,ProdSingRedo,3.2.4,59.96180835
,,,,21,0,21,0,,,,,,,,,,,,,,,,,,,,,,,,1172.010838,None,,,,,,,,,,,,,,,,,safety,sing,red,21,18,270,1166.658995,None,1166.658995,None,4,3.621460094,1166.658995,None,1170.33302,None,1170.843813,None,1170.843813,None,f,1.132700029,1170.843813,None,,,color9a,1,2019_Dec_02_1616,ProdSingRedo,3.2.4,59.96180835
,,,,22,0,22,0,,,,,,,,,,,,,,,,,,,,,,,,1176.69562,None,,,,,,,,,,,,,,,,,present,sing,red,22,14,231,1172.527612,None,1172.527612,None,3,2.560844807,1172.527612,None,1175.133089,None,1175.64527,None,1175.64527,None,f,1.010809819,1175.64527,None,,,color9a,1,2019_Dec_02_1616,ProdSingRedo,3.2.4,59.96180835
,,,,23,0,23,0,,,,,,,,,,,,,,,,,,,,,,,,1182.197292,None,,,,,,,,,,,,,,,,,music,silent,blue,23,80,196,1177.212267,None,1177.212267,None,1,2.07590976,1177.212267,None,1179.332996,None,1179.835578,None,1179.835578,None,n,2.316158126,1179.835578,None,,,color9a,1,2019_Dec_02_1616,ProdSingRedo,3.2.4,59.96180835
,,,,24,0,24,0,,,,,,,,,,,,,,,,,,,,,,,,1187.015426,None,,,,,,,,,,,,,,,,,touch,new_sing,red,24,94,332,1182.714073,None,1182.714073,None,1,2.18149816,1182.714073,None,1184.934952,None,1185.448289,None,1185.448289,None,n,1.519220566,1185.448289,None,,,color9a,1,2019_Dec_02_1616,ProdSingRedo,3.2.4,59.96180835
,,,,25,0,25,0,,,,,,,,,,,,,,,,,,,,,,,,1197.185233,None,,,,,,,,,,,,,,,,,drink,aloud,yellow,25,56,105,1187.532139,None,1187.532139,None,1,7.691320858,1187.532139,None,1195.284547,None,1195.784682,None,1195.784682,None,n,1.358487409,1195.784682,None,,,color9a,1,2019_Dec_02_1616,ProdSingRedo,3.2.4,59.96180835
,,,,26,0,26,0,,,,,,,,,,,,,,,,,,,,,,,,1207.58841,None,,,,,,,,,,,,,,,,,finance,new_silent,blue,26,177,129,1197.701874,None,1197.701874,None,3,7.520558809,1197.701874,None,1205.270911,None,1205.787875,None,1205.787875,None,n,1.754280791,1205.787875,None,,,color9a,1,2019_Dec_02_1616,ProdSingRedo,3.2.4,59.96180835
,,,,27,0,27,0,,,,,,,,,,,,,,,,,,,,,,,,1214.407155,None,,,,,,,,,,,,,,,,,season,sing,red,27,2,277,1208.105195,None,1208.105195,None,1,4.844965961,1208.105195,None,1212.992719,None,1213.506863,None,1213.506863,None,n,0.866979639,1213.506863,None,,,color9a,1,2019_Dec_02_1616,ProdSingRedo,3.2.4,59.96180835
,,,,28,0,28,0,,,,,,,,,,,,,,,,,,,,,,,,1224.193497,None,,,,,,,,,,,,,,,,,entrance,aloud,yellow,28,48,115,1214.923816,None,1214.923816,None,1,7.761752623,1214.923816,None,1222.726602,None,1223.2432,None,1223.2432,None,n,0.906542245,1223.2432,None,,,color9a,1,2019_Dec_02_1616,ProdSingRedo,3.2.4,59.96180835
,,,,29,0,29,0,,,,,,,,,,,,,,,,,,,,,,,,1230.178683,None,,,,,,,,,,,,,,,,,comedy,aloud,yellow,29,31,58,1224.710628,None,1224.710628,None,5,3.750443023,1224.710628,None,1228.501166,None,1229.011642,None,1229.011642,None,f,1.12924697,1229.011642,None,,,color9a,1,2019_Dec_02_1616,ProdSingRedo,3.2.4,59.96180835
,,,,30,0,30,0,,,,,,,,,,,,,,,,,,,,,,,,1237.680949,None,,,,,,,,,,,,,,,,,background,new_silent,blue,30,171,16,1230.70005,None,1230.70005,None,1,5.296579596,1230.70005,None,1236.047023,None,1236.547142,None,1236.547142,None,n,1.097231146,1236.547142,None,,,color9a,1,2019_Dec_02_1616,ProdSingRedo,3.2.4,59.96180835
,,,,31,0,31,0,,,,,,,,,,,,,,,,,,,,,,,,1242.232366,None,,,,,,,,,,,,,,,,,engineer,silent,blue,31,73,114,1238.197595,None,1238.197595,None,1,2.310680131,1238.197595,None,1240.552466,None,1241.065348,None,1241.065348,None,n,1.13075813,1241.065348,None,,,color9a,1,2019_Dec_02_1616,ProdSingRedo,3.2.4,59.96180835
,,,,32,0,32,0,,,,,,,,,,,,,,,,,,,,,,,,1250.901687,None,,,,,,,,,,,,,,,,,religion,new_sing,red,32,101,258,1242.749169,None,1242.749169,None,6,6.110787738,1242.749169,None,1248.904969,None,1249.417878,None,1249.417878,None,r,1.441930267,1249.417878,None,,,color9a,1,2019_Dec_02_1616,ProdSingRedo,3.2.4,59.96180835
,,,,33,0,33,0,,,,,,,,,,,,,,,,,,,,,,,,1254.869582,None,,,,,,,,,,,,,,,,,pancakes,new_silent,blue,33,159,210,1251.42088,None,1251.42088,None,1,1.566515934,1251.42088,None,1253.052297,None,1253.55246,None,1253.55246,None,n,1.283012431,1253.55246,None,,,color9a,1,2019_Dec_02_1616,ProdSingRedo,3.2.4,59.96180835
,,,,34,0,34,0,,,,,,,,,,,,,,,,,,,,,,,,1259.637681,None,,,,,,,,,,,,,,,,,council,silent,blue,34,79,71,1255.386395,None,1255.386395,None,1,2.976955971,1255.386395,None,1258.406446,None,1258.920787,None,1258.920787,None,n,0.68218361,1258.920787,None,,,color9a,1,2019_Dec_02_1616,ProdSingRedo,3.2.4,59.96180835
,,,,35,0,35,0,,,,,,,,,,,,,,,,,,,,,,,,1263.955649,None,,,,,,,,,,,,,,,,,division,new_aloud,yellow,35,148,101,1260.156858,None,1260.156858,None,1,2.190200628,1260.156858,None,1262.373962,None,1262.905369,None,1262.905369,None,n,1.017451585,1262.905369,None,,,color9a,1,2019_Dec_02_1616,ProdSingRedo,3.2.4,59.96180835
,,,,36,0,36,0,,,,,,,,,,,,,,,,,,,,,,,,1269.307325,None,,,,,,,,,,,,,,,,,solution,new_aloud,yellow,36,137,294,1264.472454,None,1264.472454,None,2,3.314134123,1264.472454,None,1267.827451,None,1268.340364,None,1268.340364,None,f,0.918069857,1268.340364,None,,,color9a,1,2019_Dec_02_1616,ProdSingRedo,3.2.4,59.96180835
,,,,37,0,37,0,,,,,,,,,,,,,,,,,,,,,,,,1275.009078,None,,,,,,,,,,,,,,,,,territory,sing,red,37,9,324,1269.82404,None,1269.82404,None,4,2.954162611,1269.82404,None,1272.841723,None,1273.341904,None,1273.341904,None,f,1.620111899,1273.341904,None,,,color9a,1,2019_Dec_02_1616,ProdSingRedo,3.2.4,59.96180835
,,,,38,0,38,0,,,,,,,,,,,,,,,,,,,,,,,,1283.244944,None,,,,,,,,,,,,,,,,,atmosphere,new_aloud,yellow,38,138,12,1275.525912,None,1275.525912,None,1,5.924300789,1275.525912,None,1281.494345,None,1282.01123,None,1282.01123,None,f,1.198397716,1282.01123,None,,,color9a,1,2019_Dec_02_1616,ProdSingRedo,3.2.4,59.96180835
,,,,39,0,39,0,,,,,,,,,,,,,,,,,,,,,,,,1288.963361,None,,,,,,,,,,,,,,,,,tragedy,sing,red,39,20,335,1283.761551,None,1283.761551,None,5,3.56007632,1283.761551,None,1287.368071,None,1287.879481,None,1287.879481,None,f,1.04990219,1287.879481,None,,,color9a,1,2019_Dec_02_1616,ProdSingRedo,3.2.4,59.96180835
,,,,40,0,40,0,,,,,,,,,,,,,,,,,,,,,,,,1295.265287,None,,,,,,,,,,,,,,,,,danger,new_sing,red,40,90,85,1289.48018,None,1289.48018,None,3,3.968898834,1289.48018,None,1293.500842,None,1294.014902,None,1294.014902,None,f,1.209971046,1294.014902,None,,,color9a,1,2019_Dec_02_1616,ProdSingRedo,3.2.4,59.96180835
,,,,41,0,41,0,,,,,,,,,,,,,,,,,,,,,,,,1298.883055,None,,,,,,,,,,,,,,,,,display,silent,blue,41,76,98,1295.783265,None,1295.783265,None,1,1.553423047,1295.783265,None,1297.387662,None,1297.899285,None,1297.899285,None,n,0.949538317,1297.899285,None,,,color9a,1,2019_Dec_02_1616,ProdSingRedo,3.2.4,59.96180835
,,,,42,0,42,0,,,,,,,,,,,,,,,,,,,,,,,,1303.934591,None,,,,,,,,,,,,,,,,,swift,new_sing,red,42,110,320,1299.399737,None,1299.399737,None,1,3.128748433,1299.399737,None,1302.570799,None,1303.084354,None,1303.084354,None,n,0.812003135,1303.084354,None,,,color9a,1,2019_Dec_02_1616,ProdSingRedo,3.2.4,59.96180835
,,,,43,0,43,0,,,,,,,,,,,,,,,,,,,,,,,,1308.485959,None,,,,,,,,,,,,,,,,,thing,aloud,yellow,43,46,328,1304.451428,None,1304.451428,None,1,2.65265767,1304.451428,None,1307.155161,None,1307.669119,None,1307.669119,None,n,0.778884808,1307.669119,None,,,color9a,1,2019_Dec_02_1616,ProdSingRedo,3.2.4,59.96180835
,,,,44,0,44,0,,,,,,,,,,,,,,,,,,,,,,,,1314.354446,None,,,,,,,,,,,,,,,,,volume,new_sing,red,44,100,349,1309.002703,None,1309.002703,None,4,3.813111858,1309.002703,None,1312.860999,None,1313.370707,None,1313.370707,None,f,0.949066215,1313.370707,None,,,color9a,1,2019_Dec_02_1616,ProdSingRedo,3.2.4,59.96180835
,,,,45,0,45,0,,,,,,,,,,,,,,,,,,,,,,,,1319.489404,None,,,,,,,,,,,,,,,,,mayor,sing,red,45,25,183,1314.87274,None,1314.87274,None,5,2.991038779,1314.87274,None,1317.909915,None,1318.422237,None,1318.422237,None,f,1.025400182,1318.422237,None,,,color9a,1,2019_Dec_02_1616,ProdSingRedo,3.2.4,59.96180835
,,,,46,0,46,0,,,,,,,,,,,,,,,,,,,,,,,,1324.924344,None,,,,,,,,,,,,,,,,,production,new_aloud,yellow,46,142,240,1320.006056,None,1320.006056,None,1,3.089072622,1320.006056,None,1323.140389,None,1323.657341,None,1323.657341,None,n,1.229652828,1323.657341,None,,,color9a,1,2019_Dec_02_1616,ProdSingRedo,3.2.4,59.96180835
,,,,47,0,47,0,,,,,,,,,,,,,,,,,,,,,,,,1330.22601,None,,,,,,,,,,,,,,,,,couch,aloud,yellow,47,57,70,1325.441123,None,1325.441123,None,6,2.461765684,1325.441123,None,1327.945384,None,1328.458766,None,1328.458766,None,r,1.732002451,1328.458766,None,,,color9a,1,2019_Dec_02_1616,ProdSingRedo,3.2.4,59.96180835
,,,,48,0,48,0,,,,,,,,,,,,,,,,,,,,,,,,1336.661291,None,,,,,,,,,,,,,,,,,track,silent,blue,48,60,334,1330.742808,None,1330.742808,None,6,4.111625889,1330.742808,None,1334.910677,None,1335.410925,None,1335.410925,None,r,1.211418762,1335.410925,None,,,color9a,1,2019_Dec_02_1616,ProdSingRedo,3.2.4,59.96180835
,,,,49,0,49,0,,,,,,,,,,,,,,,,,,,,,,,,1341.329379,None,,,,,,,,,,,,,,,,,clear,sing,red,49,5,52,1337.178132,None,1337.178132,None,6,2.419971636,1337.178132,None,1339.648077,None,1340.162349,None,1340.162349,None,r,1.131735611,1340.162349,None,,,color9a,1,2019_Dec_02_1616,ProdSingRedo,3.2.4,59.96180835
,,,,50,0,50,0,,,,,,,,,,,,,,,,,,,,,,,,1347.564651,None,,,,,,,,,,,,,,,,,pretty,silent,blue,50,67,233,1341.846104,None,1341.846104,None,3,4.359917398,1341.846104,None,1346.253703,None,1346.764247,None,1346.764247,None,f,0.753389459,1346.764247,None,,,color9a,1,2019_Dec_02_1616,ProdSingRedo,3.2.4,59.96180835
,,,,51,0,51,0,,,,,,,,,,,,,,,,,,,,,,,,1351.966003,None,,,,,,,,,,,,,,,,,principal,silent,blue,51,82,236,1348.081298,None,1348.081298,None,6,2.108508091,1348.081298,None,1350.236176,None,1350.748958,None,1350.748958,None,r,1.17654918,1350.748958,None,,,color9a,1,2019_Dec_02_1616,ProdSingRedo,3.2.4,59.96180835
,,,,52,0,52,0,,,,,,,,,,,,,,,,,,,,,,,,1359.768388,None,,,,,,,,,,,,,,,,,research,new_silent,blue,52,174,261,1352.48282,None,1352.48282,None,6,4.514297088,1352.48282,None,1357.038196,None,1357.551066,None,1357.551066,None,r,2.181911794,1357.551066,None,,,color9a,1,2019_Dec_02_1616,ProdSingRedo,3.2.4,59.96180835
,,,,53,0,53,0,,,,,,,,,,,,,,,,,,,,,,,,1365.186724,None,,,,,,,,,,,,,,,,,commercial,sing,red,53,6,61,1360.285147,None,1360.285147,None,6,2.192000087,1360.285147,None,1362.520022,None,1363.036073,None,1363.036073,None,r,2.11256325,1363.036073,None,,,color9a,1,2019_Dec_02_1616,ProdSingRedo,3.2.4,59.96180835
,,,,54,0,54,0,,,,,,,,,,,,,,,,,,,,,,,,1370.755105,None,,,,,,,,,,,,,,,,,scale,new_silent,blue,54,162,272,1365.703565,None,1365.703565,None,2,3.116951804,1365.703565,None,1368.858189,None,1369.371333,None,1369.371333,None,f,1.336863417,1369.371333,None,,,color9a,1,2019_Dec_02_1616,ProdSingRedo,3.2.4,59.96180835
,,,,55,0,55,0,,,,,,,,,,,,,,,,,,,,,,,,1375.173143,None,,,,,,,,,,,,,,,,,question,new_sing,red,55,93,247,1371.272845,None,1371.272845,None,6,2.115390572,1371.272845,None,1373.439139,None,1373.939261,None,1373.939261,None,r,1.192991251,1373.939261,None,,,color9a,1,2019_Dec_02_1616,ProdSingRedo,3.2.4,59.96180835
,,,,56,0,56,0,,,,,,,,,,,,,,,,,,,,,,,,1378.774189,None,,,,,,,,,,,,,,,,,thick,new_aloud,yellow,56,130,327,1375.689802,None,1375.689802,None,1,1.45845662,1375.689802,None,1377.195668,None,1377.7072,None,1377.7072,None,n,1.032702206,1377.7072,None,,,color9a,1,2019_Dec_02_1616,ProdSingRedo,3.2.4,59.96180835
,,,,57,0,57,0,,,,,,,,,,,,,,,,,,,,,,,,1384.375944,None,,,,,,,,,,,,,,,,,dream,silent,blue,57,72,104,1379.291034,None,1379.291034,None,5,2.48056733,1379.291034,None,1381.808369,None,1382.325293,None,1382.325293,None,f,2.006620929,1382.325293,None,,,color9a,1,2019_Dec_02_1616,ProdSingRedo,3.2.4,59.96180835
,,,,58,0,58,0,,,,,,,,,,,,,,,,,,,,,,,,1392.345052,None,,,,,,,,,,,,,,,,,message,silent,blue,58,84,189,1384.892619,None,1384.892619,None,5,2.807293938,1384.892619,None,1387.743604,None,1388.260468,None,1388.260468,None,f,4.038419051,1388.260468,None,,,color9a,1,2019_Dec_02_1616,ProdSingRedo,3.2.4,59.96180835
,,,,59,0,59,0,,,,,,,,,,,,,,,,,,,,,,,,1397.630026,None,,,,,,,,,,,,,,,,,junior,silent,blue,59,74,167,1392.862096,None,1392.862096,None,2,2.91674592,1392.862096,None,1395.815468,None,1396.329599,None,1396.329599,None,f,1.257399212,1396.329599,None,,,color9a,1,2019_Dec_02_1616,ProdSingRedo,3.2.4,59.96180835
,,,,60,0,60,0,,,,,,,,,,,,,,,,,,,,,,,,1407.482975,None,,,,,,,,,,,,,,,,,death,new_silent,blue,60,175,86,1398.146686,None,1398.146686,None,1,6.951625454,1398.146686,None,1405.135112,None,1405.649047,None,1405.649047,None,n,1.784991339,1405.649047,None,,,color9a,1,2019_Dec_02_1616,ProdSingRedo,3.2.4,59.96180835
,,,,61,0,61,0,,,,,,,,,,,,,,,,,,,,,,,,1412.201123,None,,,,,,,,,,,,,,,,,split,new_sing,red,61,104,299,1407.99984,None,1407.99984,None,1,2.642338924,1407.99984,None,1410.687106,None,1411.200844,None,1411.200844,None,n,0.960849472,1411.200844,None,,,color9a,1,2019_Dec_02_1616,ProdSingRedo,3.2.4,59.96180835
,,,,62,0,62,0,,,,,,,,,,,,,,,,,,,,,,,,1418.019587,None,,,,,,,,,,,,,,,,,grade,sing,red,62,21,140,1412.717949,None,1412.717949,None,1,3.419491138,1412.717949,None,1416.185666,None,1416.702524,None,1416.702524,None,n,1.275093689,1416.702524,None,,,color9a,1,2019_Dec_02_1616,ProdSingRedo,3.2.4,59.96180835
,,,,63,0,63,0,,,,,,,,,,,,,,,,,,,,,,,,1421.370626,None,,,,,,,,,,,,,,,,,resistance,new_silent,blue,63,164,262,1418.536403,None,1418.536403,None,1,1.56086751,1418.536403,None,1420.140163,None,1420.653608,None,1420.653608,None,n,0.675821746,1420.653608,None,,,color9a,1,2019_Dec_02_1616,ProdSingRedo,3.2.4,59.96180835
,,,,64,0,64,0,,,,,,,,,,,,,,,,,,,,,,,,1425.888658,None,,,,,,,,,,,,,,,,,goose,sing,red,64,16,138,1421.887427,None,1421.887427,None,6,2.001610681,1421.887427,None,1423.922373,None,1424.438235,None,1424.438235,None,r,1.410629126,1424.438235,None,,,color9a,1,2019_Dec_02_1616,ProdSingRedo,3.2.4,59.96180835
,,,,65,0,65,0,,,,,,,,,,,,,,,,,,,,,,,,1430.056614,None,,,,,,,,,,,,,,,,,problem,new_sing,red,65,98,238,1426.407791,None,1426.407791,None,1,1.873235451,1426.407791,None,1428.339335,None,1428.839429,None,1428.839429,None,n,1.177248936,1428.839429,None,,,color9a,1,2019_Dec_02_1616,ProdSingRedo,3.2.4,59.96180835
,,,,66,0,66,0,,,,,,,,,,,,,,,,,,,,,,,,1435.00812,None,,,,,,,,,,,,,,,,,dance,silent,blue,66,66,84,1430.573338,None,1430.573338,None,4,2.411097185,1430.573338,None,1433.026923,None,1433.540992,None,1433.540992,None,f,1.419413076,1433.540992,None,,,color9a,1,2019_Dec_02_1616,ProdSingRedo,3.2.4,59.96180835
,,,,67,0,67,0,,,,,,,,,,,,,,,,,,,,,,,,1440.443143,None,,,,,,,,,,,,,,,,,collection,aloud,yellow,67,44,54,1435.524792,None,1435.524792,None,5,2.899371775,1435.524792,None,1438.463991,None,1438.975879,None,1438.975879,None,f,1.432172569,1438.975879,None,,,color9a,1,2019_Dec_02_1616,ProdSingRedo,3.2.4,59.96180835
,,,,68,0,68,0,,,,,,,,,,,,,,,,,,,,,,,,1443.927457,None,,,,,,,,,,,,,,,,,little,new_silent,blue,68,152,174,1440.959786,None,1440.959786,None,1,1.872462299,1440.959786,None,1442.860693,None,1443.377359,None,1443.377359,None,n,0.502384766,1443.377359,None,,,color9a,1,2019_Dec_02_1616,ProdSingRedo,3.2.4,59.96180835
,,,,69,0,69,0,,,,,,,,,,,,,,,,,,,,,,,,1449.395844,None,,,,,,,,,,,,,,,,,marriage,new_silent,blue,69,172,179,1444.444232,None,1444.444232,None,5,3.187274718,1444.444232,None,1447.680027,None,1448.195511,None,1448.195511,None,f,1.163926218,1448.195511,None,,,color9a,1,2019_Dec_02_1616,ProdSingRedo,3.2.4,59.96180835
,,,,70,0,70,0,,,,,,,,,,,,,,,,,,,,,,,,1454.330743,None,,,,,,,,,,,,,,,,,benefit,sing,red,70,24,20,1449.912807,None,1449.912807,None,2,2.718477892,1449.912807,None,1452.685866,None,1453.196875,None,1453.196875,None,n,1.098314056,1453.196875,None,,,color9a,1,2019_Dec_02_1616,ProdSingRedo,3.2.4,59.96180835
,,,,71,0,71,0,,,,,,,,,,,,,,,,,,,,,,,,1461.983067,None,,,,,,,,,,,,,,,,,provision,new_sing,red,71,117,243,1454.848421,None,1454.848421,None,1,5.68634451,1454.848421,None,1460.58514,None,1461.099471,None,1461.099471,None,n,0.843470972,1461.099471,None,,,color9a,1,2019_Dec_02_1616,ProdSingRedo,3.2.4,59.96180835
,,,,72,0,72,0,,,,,,,,,,,,,,,,,,,,,,,,1467.451411,None,,,,,,,,,,,,,,,,,strength,new_aloud,yellow,72,132,310,1462.499733,None,1462.499733,None,5,3.442970881,1462.499733,None,1466.000962,None,1466.501099,None,1466.501099,None,f,0.913263938,1466.501099,None,,,color9a,1,2019_Dec_02_1616,ProdSingRedo,3.2.4,59.96180835
,,,,73,0,73,0,,,,,,,,,,,,,,,,,,,,,,,,1471.719393,None,,,,,,,,,,,,,,,,,taste,new_sing,red,73,118,322,1467.968232,None,1467.968232,None,3,2.013969603,1467.968232,None,1470.021756,None,1470.53568,None,1470.53568,None,f,1.134474608,1470.53568,None,,,color9a,1,2019_Dec_02_1616,ProdSingRedo,3.2.4,59.96180835
,,,,74,0,74,0,,,,,,,,,,,,,,,,,,,,,,,,1478.32141,None,,,,,,,,,,,,,,,,,department,aloud,yellow,74,34,90,1472.236213,None,1472.236213,None,3,4.113618481,1472.236213,None,1476.389415,None,1476.904303,None,1476.904303,None,f,1.373983722,1476.904303,None,,,color9a,1,2019_Dec_02_1616,ProdSingRedo,3.2.4,59.96180835
,,,,75,0,75,0,,,,,,,,,,,,,,,,,,,,,,,,1482.489361,None,,,,,,,,,,,,,,,,,piece,silent,blue,75,68,221,1478.838227,None,1478.838227,None,1,1.935347592,1478.838227,None,1480.824418,None,1481.338993,None,1481.338993,None,n,1.114461608,1481.338993,None,,,color9a,1,2019_Dec_02_1616,ProdSingRedo,3.2.4,59.96180835
,,,,76,0,76,0,,,,,,,,,,,,,,,,,,,,,,,,1488.574511,None,,,,,,,,,,,,,,,,,pattern,new_silent,blue,76,173,214,1483.006176,None,1483.006176,None,1,3.703037249,1483.006176,None,1486.760249,None,1487.274152,None,1487.274152,None,n,1.259160107,1487.274152,None,,,color9a,1,2019_Dec_02_1616,ProdSingRedo,3.2.4,59.96180835
,,,,77,0,77,0,,,,,,,,,,,,,,,,,,,,,,,,1492.642408,None,,,,,,,,,,,,,,,,,sweet,new_silent,blue,77,167,319,1489.091386,None,1489.091386,None,1,2.129553618,1489.091386,None,1491.261712,None,1491.775527,None,1491.775527,None,n,0.821551529,1491.775527,None,,,color9a,1,2019_Dec_02_1616,ProdSingRedo,3.2.4,59.96180835
,,,,78,0,78,0,,,,,,,,,,,,,,,,,,,,,,,,1496.610342,None,,,,,,,,,,,,,,,,,light,aloud,yellow,78,32,171,1493.159145,None,1493.159145,None,1,2.493715576,1493.159145,None,1495.696346,None,1496.210229,None,1496.210229,None,n,0.354320289,1496.210229,None,,,color9a,1,2019_Dec_02_1616,ProdSingRedo,3.2.4,59.96180835
,,,,79,0,79,0,,,,,,,,,,,,,,,,,,,,,,,,1500.061371,None,,,,,,,,,,,,,,,,,quantity,new_aloud,yellow,79,123,245,1497.129625,None,1497.129625,None,1,1.93907651,1497.129625,None,1499.127678,None,1499.627792,None,1499.627792,None,n,0.384572418,1499.627792,None,,,color9a,1,2019_Dec_02_1616,ProdSingRedo,3.2.4,59.96180835
,,,,80,0,80,0,,,,,,,,,,,,,,,,,,,,,,,,1504.712826,None,,,,,,,,,,,,,,,,,executive,aloud,yellow,80,52,122,1500.581359,None,1500.581359,None,6,1.878865837,1500.581359,None,1502.512035,None,1502.996793,None,1502.996793,None,r,1.671746371,1502.996793,None,,,color9a,1,2019_Dec_02_1616,ProdSingRedo,3.2.4,59.96180835
,,,,81,0,81,0,,,,,,,,,,,,,,,,,,,,,,,,1508.630594,None,,,,,,,,,,,,,,,,,edition,aloud,yellow,81,38,107,1505.229631,None,1505.229631,None,6,1.694338514,1505.229631,None,1506.96673,None,1507.480361,None,1507.480361,None,r,1.115640618,1507.480361,None,,,color9a,1,2019_Dec_02_1616,ProdSingRedo,3.2.4,59.96180835
,,,,82,0,82,0,,,,,,,,,,,,,,,,,,,,,,,,1513.598873,None,,,,,,,,,,,,,,,,,congress,new_aloud,yellow,82,124,67,1509.147367,None,1509.147367,None,3,3.136294283,1509.147367,None,1512.332366,None,1512.848598,None,1512.848598,None,f,0.714954547,1512.848598,None,,,color9a,1,2019_Dec_02_1616,ProdSingRedo,3.2.4,59.96180835
,,,,83,0,83,0,,,,,,,,,,,,,,,,,,,,,,,,1520.567625,None,,,,,,,,,,,,,,,,,sunset,sing,red,83,0,315,1514.115674,None,1514.115674,None,2,4.727805163,1514.115674,None,1518.887892,None,1519.400647,None,1519.400647,None,n,1.122832547,1519.400647,None,,,color9a,1,2019_Dec_02_1616,ProdSingRedo,3.2.4,59.96180835
,,,,84,0,84,0,,,,,,,,,,,,,,,,,,,,,,,,1525.369174,None,,,,,,,,,,,,,,,,,broad,new_silent,blue,84,165,31,1521.0844,None,1521.0844,None,3,2.966488877,1521.0844,None,1524.087925,None,1524.602219,None,1524.602219,None,f,0.720526465,1524.602219,None,,,color9a,1,2019_Dec_02_1616,ProdSingRedo,3.2.4,59.96180835
,,,,85,0,85,0,,,,,,,,,,,,,,,,,,,,,,,,1528.953579,None,,,,,,,,,,,,,,,,,waste,silent,blue,85,75,350,1525.885837,None,1525.885837,None,1,1.741414936,1525.885837,None,1527.673357,None,1528.186681,None,1528.186681,None,n,0.719862786,1528.186681,None,,,color9a,1,2019_Dec_02_1616,ProdSingRedo,3.2.4,59.96180835
,,,,86,0,86,0,,,,,,,,,,,,,,,,,,,,,,,,1533.555006,None,,,,,,,,,,,,,,,,,angle,new_aloud,yellow,86,128,7,1529.470412,None,1529.470412,None,3,2.908248715,1529.470412,None,1532.422418,None,1532.938148,None,1532.938148,None,f,0.568186017,1532.938148,None,,,color9a,1,2019_Dec_02_1616,ProdSingRedo,3.2.4,59.96180835
,,,,87,0,87,0,,,,,,,,,,,,,,,,,,,,,,,,1537.839648,None,,,,,,,,,,,,,,,,,burden,new_silent,blue,87,166,36,1534.05499,None,1534.05499,None,6,1.867428415,1534.05499,None,1535.961846,None,1536.472431,None,1536.472431,None,r,1.321575475,1536.472431,None,,,color9a,1,2019_Dec_02_1616,ProdSingRedo,3.2.4,59.96180835
,,,,88,0,88,0,,,,,,,,,,,,,,,,,,,,,,,,1543.441339,None,,,,,,,,,,,,,,,,,number,new_aloud,yellow,88,136,203,1538.358368,None,1538.358368,None,6,3.243497408,1538.358368,None,1541.657358,None,1542.157639,None,1542.157639,None,r,1.235999142,1542.157639,None,,,color9a,1,2019_Dec_02_1616,ProdSingRedo,3.2.4,59.96180835
,,,,89,0,89,0,,,,,,,,,,,,,,,,,,,,,,,,1547.625981,None,,,,,,,,,,,,,,,,,colonel,aloud,yellow,89,39,55,1543.958198,None,1543.958198,None,6,2.019381354,1543.958198,None,1546.027645,None,1546.542317,None,1546.542317,None,r,1.043314849,1546.542317,None,,,color9a,1,2019_Dec_02_1616,ProdSingRedo,3.2.4,59.96180835
,,,,90,0,90,0,,,,,,,,,,,,,,,,,,,,,,,,1552.994359,None,,,,,,,,,,,,,,,,,patient,new_silent,blue,90,158,213,1548.142673,None,1548.142673,None,6,3.202595003,1548.142673,None,1551.396763,None,1551.910624,None,1551.910624,None,r,1.04276593,1551.910624,None,,,color9a,1,2019_Dec_02_1616,ProdSingRedo,3.2.4,59.96180835
,,,,91,0,91,0,,,,,,,,,,,,,,,,,,,,,,,,1557.629054,None,,,,,,,,,,,,,,,,,style,silent,blue,91,81,311,1553.511322,None,1553.511322,None,1,2.641904765,1553.511322,None,1556.211804,None,1556.712108,None,1556.712108,None,n,0.880685822,1556.712108,None,,,color9a,1,2019_Dec_02_1616,ProdSingRedo,3.2.4,59.96180835
,,,,92,0,92,0,,,,,,,,,,,,,,,,,,,,,,,,1566.765192,None,,,,,,,,,,,,,,,,,gesture,silent,blue,92,62,137,1558.14587,None,1558.14587,None,2,7.366505671,1558.14587,None,1565.55098,None,1566.06498,None,1566.06498,None,f,0.663326916,1566.06498,None,,,color9a,1,2019_Dec_02_1616,ProdSingRedo,3.2.4,59.96180835
,,,,93,0,93,0,,,,,,,,,,,,,,,,,,,,,,,,1571.049836,None,,,,,,,,,,,,,,,,,region,aloud,yellow,93,59,256,1567.282024,None,1567.282024,None,6,1.942335503,1567.282024,None,1569.266112,None,1569.782761,None,1569.782761,None,r,1.225511832,1569.782761,None,,,color9a,1,2019_Dec_02_1616,ProdSingRedo,3.2.4,59.96180835
,,,,94,0,94,0,,,,,,,,,,,,,,,,,,,,,,,,1575.334438,None,,,,,,,,,,,,,,,,,produce,new_aloud,yellow,94,143,239,1571.566513,None,1571.566513,None,3,1.793642179,1571.566513,None,1573.401744,None,1573.917373,None,1573.917373,None,f,1.370333488,1573.917373,None,,,color9a,1,2019_Dec_02_1616,ProdSingRedo,3.2.4,59.96180835
,,,,95,0,95,0,,,,,,,,,,,,,,,,,,,,,,,,1583.103509,None,,,,,,,,,,,,,,,,,crowd,new_aloud,yellow,95,140,81,1575.851266,None,1575.851266,None,5,5.644411755,1575.851266,None,1581.53619,None,1582.053182,None,1582.053182,None,f,1.018155072,1582.053182,None,,,color9a,1,2019_Dec_02_1616,ProdSingRedo,3.2.4,59.96180835
,,,,96,0,96,0,,,,,,,,,,,,,,,,,,,,,,,,1587.088068,None,,,,,,,,,,,,,,,,,afternoon,sing,red,96,3,3,1583.620345,None,1583.620345,None,4,2.186726732,1583.620345,None,1585.85453,None,1586.371122,None,1586.371122,None,f,0.683859601,1586.371122,None,,,color9a,1,2019_Dec_02_1616,ProdSingRedo,3.2.4,59.96180835
,,,,97,0,97,0,,,,,,,,,,,,,,,,,,,,,,,,1591.706134,None,,,,,,,,,,,,,,,,,concern,new_silent,blue,97,179,65,1587.604901,None,1587.604901,None,3,3.202083094,1587.604901,None,1590.858354,None,1591.372727,None,1591.372727,None,f,0.298012695,1591.372727,None,,,color9a,1,2019_Dec_02_1616,ProdSingRedo,3.2.4,59.96180835
,,,,98,0,98,0,,,,,,,,,,,,,,,,,,,,,,,,1596.174205,None,,,,,,,,,,,,,,,,,public,new_silent,blue,98,160,244,1592.224233,None,1592.224233,None,5,2.630364712,1592.224233,None,1594.897685,None,1595.407237,None,1595.407237,None,f,0.719417742,1595.407237,None,,,color9a,1,2019_Dec_02_1616,ProdSingRedo,3.2.4,59.96180835
,,,,99,0,99,0,,,,,,,,,,,,,,,,,,,,,,,,1599.741964,None,,,,,,,,,,,,,,,,,budget,new_sing,red,99,107,34,1596.691177,None,1596.691177,None,1,1.731210017,1596.691177,None,1598.459252,None,1598.975031,None,1598.975031,None,n,0.719182002,1598.975031,None,,,color9a,1,2019_Dec_02_1616,ProdSingRedo,3.2.4,59.96180835
,,,,100,0,100,0,,,,,,,,,,,,,,,,,,,,,,,,1604.109967,None,,,,,,,,,,,,,,,,,bucket,sing,red,100,22,33,1600.261297,None,1600.261297,None,3,2.705452493,1600.261297,None,1603.014678,None,1603.526429,None,1603.526429,None,f,0.535534815,1603.526429,None,,,color9a,1,2019_Dec_02_1616,ProdSingRedo,3.2.4,59.96180835
,,,,101,0,101,0,,,,,,,,,,,,,,,,,,,,,,,,1608.411143,None,,,,,,,,,,,,,,,,,growth,aloud,yellow,101,58,144,1604.626645,None,1604.626645,None,4,2.635141397,1604.626645,None,1607.313545,None,1607.827788,None,1607.827788,None,f,0.561705972,1607.827788,None,,,color9a,1,2019_Dec_02_1616,ProdSingRedo,3.2.4,59.96180835
,,,,102,0,102,0,,,,,,,,,,,,,,,,,,,,,,,,1612.529213,None,,,,,,,,,,,,,,,,,addition,new_sing,red,102,97,2,1608.928043,None,1608.928043,None,6,1.781503447,1608.928043,None,1610.747845,None,1611.262022,None,1611.262022,None,r,1.23150889,1611.262022,None,,,color9a,1,2019_Dec_02_1616,ProdSingRedo,3.2.4,59.96180835
,,,,103,0,103,0,,,,,,,,,,,,,,,,,,,,,,,,1616.530454,None,,,,,,,,,,,,,,,,,guard,new_sing,red,103,114,145,1613.046022,None,1613.046022,None,2,2.167359062,1613.046022,None,1615.247989,None,1615.763531,None,1615.763531,None,f,0.721988176,1615.763531,None,,,color9a,1,2019_Dec_02_1616,ProdSingRedo,3.2.4,59.96180835
,,,,104,0,104,0,,,,,,,,,,,,,,,,,,,,,,,,1622.165491,None,,,,,,,,,,,,,,,,,quick,silent,blue,104,64,248,1617.047241,None,1617.047241,None,4,4.190254742,1617.047241,None,1621.284875,None,1621.798717,None,1621.798717,None,f,0.33411509,1621.798717,None,,,color9a,1,2019_Dec_02_1616,ProdSingRedo,3.2.4,59.96180835
,,,,105,0,105,0,,,,,,,,,,,,,,,,,,,,,,,,1629.034244,None,,,,,,,,,,,,,,,,,shock,silent,blue,105,70,284,1622.68217,None,1622.68217,None,2,5.594632411,1622.68217,None,1628.325051,None,1628.834095,None,1628.834095,None,f,0.162379914,1628.834095,None,,,color9a,1,2019_Dec_02_1616,ProdSingRedo,3.2.4,59.96180835
,,,,106,0,106,0,,,,,,,,,,,,,,,,,,,,,,,,1632.185243,None,,,,,,,,,,,,,,,,,member,new_silent,blue,106,154,188,1629.552266,None,1629.552266,None,2,1.84410635,1629.552266,None,1631.451632,None,1631.951699,None,1631.951699,None,f,0.188852432,1631.951699,None,,,color9a,1,2019_Dec_02_1616,ProdSingRedo,3.2.4,59.96180835
,,,,107,0,107,0,,,,,,,,,,,,,,,,,,,,,,,,1640.654491,None,,,,,,,,,,,,,,,,,chief,silent,blue,107,65,48,1632.701929,None,1632.701929,None,5,7.013929794,1632.701929,None,1639.75579,None,1640.271042,None,1640.271042,None,f,0.341026183,1640.271042,None,,,color9a,1,2019_Dec_02_1616,ProdSingRedo,3.2.4,59.96180835
,,,,108,0,108,0,,,,,,,,,,,,,,,,,,,,,,,,1644.755769,None,,,,,,,,,,,,,,,,,article,aloud,yellow,108,35,11,1641.171207,None,1641.171207,None,5,2.728414728,1641.171207,None,1643.942926,None,1644.455676,None,1644.455676,None,f,0.259813212,1644.455676,None,,,color9a,1,2019_Dec_02_1616,ProdSingRedo,3.2.4,59.96180835
,,,,109,0,109,0,,,,,,,,,,,,,,,,,,,,,,,,1648.140125,None,,,,,,,,,,,,,,,,,pressure,new_aloud,yellow,109,141,232,1645.27244,None,1645.27244,None,1,1.97894452,1645.27244,None,1647.289636,None,1647.806698,None,1647.806698,None,n,0.284652968,1647.806698,None,,,color9a,1,2019_Dec_02_1616,ProdSingRedo,3.2.4,59.96180835
,,,,110,0,110,0,,,,,,,,,,,,,,,,,,,,,,,,1651.12438,None,,,,,,,,,,,,,,,,,watch,new_sing,red,110,99,351,1648.656933,None,1648.656933,None,1,1.538609384,1648.656933,None,1650.243792,None,1650.757609,None,1650.757609,None,n,0.333640811,1650.757609,None,,,color9a,1,2019_Dec_02_1616,ProdSingRedo,3.2.4,59.96180835
,,,,111,0,111,0,,,,,,,,,,,,,,,,,,,,,,,,1655.092242,None,,,,,,,,,,,,,,,,,passage,new_sing,red,111,113,212,1651.641087,None,1651.641087,None,1,2.353831393,1651.641087,None,1654.041809,None,1654.558772,None,1654.558772,None,n,0.49236085,1654.558772,None,,,color9a,1,2019_Dec_02_1616,ProdSingRedo,3.2.4,59.96180835
,,,,112,0,112,0,,,,,,,,,,,,,,,,,,,,,,,,1661.810941,None,,,,,,,,,,,,,,,,,turkey,new_aloud,yellow,112,135,342,1655.610952,None,1655.610952,None,1,4.927634112,1655.610952,None,1660.581213,None,1661.094089,None,1661.094089,None,n,0.67672894,1661.094089,None,,,color9a,1,2019_Dec_02_1616,ProdSingRedo,3.2.4,59.96180835
,,,,113,0,113,0,,,,,,,,,,,,,,,,,,,,,,,,1665.262044,None,,,,,,,,,,,,,,,,,profession,sing,red,113,26,241,1662.327789,None,1662.327789,None,4,2.074862304,1662.327789,None,1664.447313,None,1664.961942,None,1664.961942,None,f,0.256861178,1664.961942,None,,,color9a,1,2019_Dec_02_1616,ProdSingRedo,3.2.4,59.96180835
,,,,114,0,114,0,,,,,,,,,,,,,,,,,,,,,,,,1670.280243,None,,,,,,,,,,,,,,,,,bureau,sing,red,114,13,37,1665.778943,None,1665.778943,None,6,1.551281485,1665.778943,None,1667.384696,None,1667.896047,None,1667.896047,None,r,2.337873242,1667.896047,None,,,color9a,1,2019_Dec_02_1616,ProdSingRedo,3.2.4,59.96180835
,,,,115,0,115,0,,,,,,,,,,,,,,,,,,,,,,,,1675.398486,None,,,,,,,,,,,,,,,,,revolution,sing,red,115,23,264,1670.798469,None,1670.798469,None,2,3.755708603,1670.798469,None,1674.614828,None,1675.11509,None,1675.11509,None,f,0.246618005,1675.11509,None,,,color9a,1,2019_Dec_02_1616,ProdSingRedo,3.2.4,59.96180835
,,,,116,0,116,0,,,,,,,,,,,,,,,,,,,,,,,,1679.049623,None,,,,,,,,,,,,,,,,,column,new_silent,blue,116,168,57,1675.915273,None,1675.915273,None,1,1.822682644,1675.915273,None,1677.785705,None,1678.299372,None,1678.299372,None,n,0.702000989,1678.299372,None,,,color9a,1,2019_Dec_02_1616,ProdSingRedo,3.2.4,59.96180835
,,,,117,0,117,0,,,,,,,,,,,,,,,,,,,,,,,,1683.601076,None,,,,,,,,,,,,,,,,,build,new_aloud,yellow,117,146,35,1679.56629,None,1679.56629,None,1,2.659206757,1679.56629,None,1682.26924,None,1682.78406,None,1682.78406,None,n,0.79313338,1682.78406,None,,,color9a,1,2019_Dec_02_1616,ProdSingRedo,3.2.4,59.96180835
,,,,118,0,118,0,,,,,,,,,,,,,,,,,,,,,,,,1690.986612,None,,,,,,,,,,,,,,,,,mechanical,aloud,yellow,118,53,185,1684.117659,None,1684.117659,None,1,5.539075266,1684.117659,None,1689.704844,None,1690.219551,None,1690.219551,None,n,0.725407957,1690.219551,None,,,color9a,1,2019_Dec_02_1616,ProdSingRedo,3.2.4,59.96180835
,,,,119,0,119,0,,,,,,,,,,,,,,,,,,,,,,,,1694.671038,None,,,,,,,,,,,,,,,,,equipment,new_aloud,yellow,119,120,116,1691.503594,None,1691.503594,None,3,2.320885983,1691.503594,None,1693.887461,None,1694.387526,None,1694.387526,None,f,0.236914732,1694.387526,None,,,color9a,1,2019_Dec_02_1616,ProdSingRedo,3.2.4,59.96180835
,,,,120,0,120,0,,,,,,,,,,,,,,,,,,,,,,,,1701.156394,None,,,,,,,,,,,,,,,,,position,silent,blue,120,87,229,1695.187734,None,1695.187734,None,1,4.636422416,1695.187734,None,1699.874076,None,1700.389501,None,1700.389501,None,n,0.72316252,1700.389501,None,,,color9a,1,2019_Dec_02_1616,ProdSingRedo,3.2.4,59.96180835
,,,,121,0,121,0,,,,,,,,,,,,,,,,,,,,,,,,1710.009093,None,,,,,,,,,,,,,,,,,force,new_silent,blue,121,153,131,1701.673062,None,1701.673062,None,2,7.478803947,1701.673062,None,1709.195871,None,1709.708995,None,1709.708995,None,f,0.26672555,1709.708995,None,,,color9a,1,2019_Dec_02_1616,ProdSingRedo,3.2.4,59.96180835
,,,,122,0,122,0,,,,,,,,,,,,,,,,,,,,,,,,1717.694782,None,,,,,,,,,,,,,,,,,country,aloud,yellow,122,43,73,1710.525793,None,1710.525793,None,2,6.17761965,1710.525793,None,1716.747122,None,1717.261314,None,1717.261314,None,f,0.393776843,1717.261314,None,,,color9a,1,2019_Dec_02_1616,ProdSingRedo,3.2.4,59.96180835
,,,,123,0,123,0,,,,,,,,,,,,,,,,,,,,,,,,1720.312219,None,,,,,,,,,,,,,,,,,mankind,new_sing,red,123,95,178,1718.21347,None,1718.21347,None,1,1.297621143,1718.21347,None,1719.561906,None,1720.062025,None,1720.062025,None,n,0.216883072,1720.062025,None,,,color9a,1,2019_Dec_02_1616,ProdSingRedo,3.2.4,59.96180835
,,,,124,0,124,0,,,,,,,,,,,,,,,,,,,,,,,,1722.996422,None,,,,,,,,,,,,,,,,,hearing,new_sing,red,124,103,150,1720.829085,None,1720.829085,None,1,1.313739461,1720.829085,None,1722.182396,None,1722.696302,None,1722.696302,None,n,0.254756625,1722.696302,None,,,color9a,1,2019_Dec_02_1616,ProdSingRedo,3.2.4,59.96180835
,,,,125,0,125,0,,,,,,,,,,,,,,,,,,,,,,,,1726.047357,None,,,,,,,,,,,,,,,,,command,new_sing,red,125,92,60,1723.51309,None,1723.51309,None,1,1.661517816,1723.51309,None,1725.216697,None,1725.730463,None,1725.730463,None,n,0.284063619,1725.730463,None,,,color9a,1,2019_Dec_02_1616,ProdSingRedo,3.2.4,59.96180835
,,,,126,0,126,0,,,,,,,,,,,,,,,,,,,,,,,,1729.064941,None,,,,,,,,,,,,,,,,,interview,silent,blue,126,63,165,1726.56665,None,1726.56665,None,4,1.808034745,1726.56665,None,1728.431264,None,1728.931524,None,1728.931524,None,f,0.099005415,1728.931524,None,,,color9a,1,2019_Dec_02_1616,ProdSingRedo,3.2.4,59.96180835
,,,,127,0,127,0,,,,,,,,,,,,,,,,,,,,,,,,1731.815796,None,,,,,,,,,,,,,,,,,childhood,new_aloud,yellow,127,133,49,1729.581761,None,1729.581761,None,1,1.448517296,1729.581761,None,1731.069325,None,1731.582283,None,1731.582283,None,n,0.200097655,1731.582283,None,,,color9a,1,2019_Dec_02_1616,ProdSingRedo,3.2.4,59.96180835
,,,,128,0,128,0,,,,,,,,,,,,,,,,,,,,,,,,1734.850054,None,,,,,,,,,,,,,,,,,worker,new_aloud,yellow,128,145,356,1732.332515,None,1732.332515,None,1,1.681546988,1732.332515,None,1734.056769,None,1734.566605,None,1734.566605,None,n,0.247366899,1734.566605,None,,,color9a,1,2019_Dec_02_1616,ProdSingRedo,3.2.4,59.96180835
,,,,129,0,129,0,,,,,,,,,,,,,,,,,,,,,,,,1740.218357,None,,,,,,,,,,,,,,,,,escape,sing,red,129,1,118,1735.366711,None,1735.366711,None,3,3.527320622,1735.366711,None,1738.934413,None,1739.45144,None,1739.45144,None,f,0.722743289,1739.45144,None,,,color9a,1,2019_Dec_02_1616,ProdSingRedo,3.2.4,59.96180835
,,,,130,0,130,0,,,,,,,,,,,,,,,,,,,,,,,,1742.852462,None,,,,,,,,,,,,,,,,,poetry,new_aloud,yellow,130,121,225,1740.735059,None,1740.735059,None,1,1.278577849,1740.735059,None,1742.054874,None,1742.569074,None,1742.569074,None,n,0.244428549,1742.569074,None,,,color9a,1,2019_Dec_02_1616,ProdSingRedo,3.2.4,59.96180835
,,,,131,0,131,0,,,,,,,,,,,,,,,,,,,,,,,,1747.0204,None,,,,,,,,,,,,,,,,,attack,new_silent,blue,131,169,13,1743.369246,None,1743.369246,None,1,2.852127411,1743.369246,None,1746.277612,None,1746.7869,None,1746.7869,None,n,0.186340778,1746.7869,None,,,color9a,1,2019_Dec_02_1616,ProdSingRedo,3.2.4,59.96180835
,,,,132,0,132,0,,,,,,,,,,,,,,,,,,,,,,,,1750.921635,None,,,,,,,,,,,,,,,,,speech,aloud,yellow,132,37,298,1747.537128,None,1747.537128,None,3,2.563999925,1747.537128,None,1750.141467,None,1750.654732,None,1750.654732,None,f,0.222801447,1750.654732,None,,,color9a,1,2019_Dec_02_1616,ProdSingRedo,3.2.4,59.96180835
,,,,133,0,133,0,,,,,,,,,,,,,,,,,,,,,,,,1761.574909,None,,,,,,,,,,,,,,,,,right,sing,red,133,8,265,1751.438285,None,1751.438285,None,1,8.886219487,1751.438285,None,1760.361207,None,1760.874692,None,1760.874692,None,n,0.665899839,1760.874692,None,,,color9a,1,2019_Dec_02_1616,ProdSingRedo,3.2.4,59.96180835
,,,,134,0,134,0,,,,,,,,,,,,,,,,,,,,,,,,1765.442766,None,,,,,,,,,,,,,,,,,raise,new_silent,blue,134,151,250,1762.09158,None,1762.09158,None,1,1.824902267,1762.09158,None,1763.962386,None,1764.475787,None,1764.475787,None,n,0.92837492,1764.475787,None,,,color9a,1,2019_Dec_02_1616,ProdSingRedo,3.2.4,59.96180835
,,,,135,0,135,0,,,,,,,,,,,,,,,,,,,,,,,,1773.812006,None,,,,,,,,,,,,,,,,,session,new_aloud,yellow,135,147,281,1765.959432,None,1765.959432,None,1,7.124648179,1765.959432,None,1773.129781,None,1773.645274,None,1773.645274,None,n,0.118376194,1773.645274,None,,,color9a,1,2019_Dec_02_1616,ProdSingRedo,3.2.4,59.96180835
,,,,136,0,136,0,,,,,,,,,,,,,,,,,,,,,,,,1780.080566,None,,,,,,,,,,,,,,,,,write,new_sing,red,136,119,358,1774.328691,None,1774.328691,None,1,5.106621551,1774.328691,None,1779.483599,None,1779.997223,None,1779.997223,None,n,0.046060378,1779.997223,None,,,color9a,1,2019_Dec_02_1616,ProdSingRedo,3.2.4,59.96180835
,,,,137,0,137,0,,,,,,,,,,,,,,,,,,,,,,,,1787.237879,None,,,,,,,,,,,,,,,,,platform,new_sing,red,137,115,224,1780.597237,None,1780.597237,None,3,5.949659297,1780.597237,None,1786.587263,None,1787.099345,None,1787.099345,None,f,0.103431289,1787.099345,None,,,color9a,1,2019_Dec_02_1616,ProdSingRedo,3.2.4,59.96180835
,,,,138,0,138,0,,,,,,,,,,,,,,,,,,,,,,,,1791.083962,None,,,,,,,,,,,,,,,,,discussion,aloud,yellow,138,41,96,1787.766084,None,1787.766084,None,6,1.596647084,1787.766084,None,1789.40526,None,1789.916926,None,1789.916926,None,r,1.133720428,1789.916926,None,,,color9a,1,2019_Dec_02_1616,ProdSingRedo,3.2.4,59.96180835
,,,,139,0,139,0,,,,,,,,,,,,,,,,,,,,,,,,1794.935134,None,,,,,,,,,,,,,,,,,instrument,silent,blue,139,69,163,1791.600647,None,1791.600647,None,6,2.377791013,1791.600647,None,1794.021986,None,1794.53501,None,1794.53501,None,r,0.355892095,1794.53501,None,,,color9a,1,2019_Dec_02_1616,ProdSingRedo,3.2.4,59.96180835
,,,,140,0,140,0,,,,,,,,,,,,,,,,,,,,,,,,1799.253137,None,,,,,,,,,,,,,,,,,expansion,aloud,yellow,140,30,123,1795.451838,None,1795.451838,None,1,3.030333923,1795.451838,None,1798.524181,None,1799.036378,None,1799.036378,None,n,0.181720838,1799.036378,None,,,color9a,1,2019_Dec_02_1616,ProdSingRedo,3.2.4,59.96180835
,,,,141,0,141,0,,,,,,,,,,,,,,,,,,,,,,,,1803.57109,None,,,,,,,,,,,,,,,,,society,new_silent,blue,141,157,293,1799.769809,None,1799.769809,None,3,3.096100031,1799.769809,None,1802.910675,None,1803.42092,None,1803.42092,None,f,0.116970775,1803.42092,None,,,color9a,1,2019_Dec_02_1616,ProdSingRedo,3.2.4,59.96180835
,,,,142,0,142,0,,,,,,,,,,,,,,,,,,,,,,,,1806.788764,None,,,,,,,,,,,,,,,,,cross,aloud,yellow,142,47,80,1804.071267,None,1804.071267,None,1,2.026649168,1804.071267,None,1806.142317,None,1806.655386,None,1806.655386,None,n,0.098278913,1806.655386,None,,,color9a,1,2019_Dec_02_1616,ProdSingRedo,3.2.4,59.96180835
,,,,143,0,143,0,,,,,,,,,,,,,,,,,,,,,,,,1809.889718,None,,,,,,,,,,,,,,,,,trend,silent,blue,143,61,340,1807.305578,None,1807.305578,None,3,1.663949232,1807.305578,None,1809.007887,None,1809.52294,None,1809.52294,None,f,0.318530452,1809.52294,None,,,color9a,1,2019_Dec_02_1616,ProdSingRedo,3.2.4,59.96180835
,,,,144,0,144,0,,,,,,,,,,,,,,,,,,,,,,,,1813.107361,None,,,,,,,,,,,,,,,,,school,new_sing,red,144,102,274,1810.406506,None,1810.406506,None,1,1.723471968,1810.406506,None,1812.17692,None,1812.690513,None,1812.690513,None,n,0.382902958,1812.690513,None,,,color9a,1,2019_Dec_02_1616,ProdSingRedo,3.2.4,59.96180835
,,,,145,0,145,0,,,,,,,,,,,,,,,,,,,,,,,,1822.643621,None,,,,,,,,,,,,,,,,,empty,aloud,yellow,145,50,112,1813.624006,None,1813.624006,None,2,7.56888826,1813.624006,None,1821.233641,None,1821.743351,None,1821.743351,None,f,0.865283743,1821.743351,None,,,color9a,1,2019_Dec_02_1616,ProdSingRedo,3.2.4,59.96180835
,,,,146,0,146,0,,,,,,,,,,,,,,,,,,,,,,,,1830.712772,None,,,,,,,,,,,,,,,,,rapid,new_sing,red,146,106,252,1823.160335,None,1823.160335,None,1,5.048036487,1823.160335,None,1828.247959,None,1828.76215,None,1828.76215,None,n,1.910170709,1828.76215,None,,,color9a,1,2019_Dec_02_1616,ProdSingRedo,3.2.4,59.96180835
,,,,147,0,147,0,,,,,,,,,,,,,,,,,,,,,,,,1836.064404,None,,,,,,,,,,,,,,,,,title,new_aloud,yellow,147,144,331,1831.229436,None,1831.229436,None,6,2.786497212,1831.229436,None,1834.066469,None,1834.580611,None,1834.580611,None,f,1.443441116,1834.580611,None,,,color9a,1,2019_Dec_02_1616,ProdSingRedo,3.2.4,59.96180835
,,,,148,0,148,0,,,,,,,,,,,,,,,,,,,,,,,,1839.815563,None,,,,,,,,,,,,,,,,,youth,aloud,yellow,148,55,359,1836.581958,None,1836.581958,None,4,2.265857542,1836.581958,None,1838.885112,None,1839.398659,None,1839.398659,None,f,0.368918738,1839.398659,None,,,color9a,1,2019_Dec_02_1616,ProdSingRedo,3.2.4,59.96180835
,,,,149,0,149,0,,,,,,,,,,,,,,,,,,,,,,,,1845.450616,None,,,,,,,,,,,,,,,,,corner,aloud,yellow,149,40,69,1840.332313,None,1840.332313,None,4,3.339444425,1840.332313,None,1843.717308,None,1844.233574,None,1844.233574,None,f,1.181716173,1844.233574,None,,,color9a,1,2019_Dec_02_1616,ProdSingRedo,3.2.4,59.96180835
,,,,150,0,150,0,,,,,,,,,,,,,,,,,,,,,,,,1849.768614,None,,,,,,,,,,,,,,,,,working,sing,red,150,7,357,1845.96723,None,1845.96723,None,2,3.095841899,1845.96723,None,1849.11826,None,1849.618362,None,1849.618362,None,f,0.108888136,1849.618362,None,,,color9a,1,2019_Dec_02_1616,ProdSingRedo,3.2.4,59.96180835
,,,,151,0,151,0,,,,,,,,,,,,,,,,,,,,,,,,1852.68617,None,,,,,,,,,,,,,,,,,broke,silent,blue,151,83,32,1850.28556,None,1850.28556,None,1,1.505818854,1850.28556,None,1851.852485,None,1852.352581,None,1852.352581,None,n,0.294233706,1852.352581,None,,,color9a,1,2019_Dec_02_1616,ProdSingRedo,3.2.4,59.96180835
,,,,152,0,152,0,,,,,,,,,,,,,,,,,,,,,,,,1855.620338,None,,,,,,,,,,,,,,,,,citizen,aloud,yellow,152,45,50,1853.204833,None,1853.204833,None,5,1.585836332,1853.204833,None,1854.853411,None,1855.35354,None,1855.35354,None,f,0.229155535,1855.35354,None,,,color9a,1,2019_Dec_02_1616,ProdSingRedo,3.2.4,59.96180835
,,,,153,0,153,0,,,,,,,,,,,,,,,,,,,,,,,,1859.504899,None,,,,,,,,,,,,,,,,,suspect,new_sing,red,153,111,318,1856.13711,None,1856.13711,None,5,2.053326325,1856.13711,None,1858.237655,None,1858.754671,None,1858.754671,None,f,0.70796197,1858.754671,None,,,color9a,1,2019_Dec_02_1616,ProdSingRedo,3.2.4,59.96180835
,,,,154,0,154,0,,,,,,,,,,,,,,,,,,,,,,,,1864.839835,None,,,,,,,,,,,,,,,,,foundation,new_aloud,yellow,154,122,132,1860.021747,None,1860.021747,None,1,4.20045935,1860.021747,None,1864.244645,None,1864.773088,None,1864.773088,None,n,0.033134499,1864.773088,None,,,color9a,1,2019_Dec_02_1616,ProdSingRedo,3.2.4,59.96180835
,,,,155,0,155,0,,,,,,,,,,,,,,,,,,,,,,,,1868.674413,None,,,,,,,,,,,,,,,,,length,new_aloud,yellow,155,134,169,1865.356728,None,1865.356728,None,1,2.297220883,1865.356728,None,1867.693734,None,1868.207607,None,1868.207607,None,n,0.430263948,1868.207607,None,,,color9a,1,2019_Dec_02_1616,ProdSingRedo,3.2.4,59.96180835
,,,,156,0,156,0,,,,,,,,,,,,,,,,,,,,,,,,1873.009019,None,,,,,,,,,,,,,,,,,testimony,silent,blue,156,78,325,1869.192714,None,1869.192714,None,3,3.125156356,1869.192714,None,1872.36383,None,1872.875556,None,1872.875556,None,f,0.098058412,1872.875556,None,,,color9a,1,2019_Dec_02_1616,ProdSingRedo,3.2.4,59.96180835
,,,,157,0,157,0,,,,,,,,,,,,,,,,,,,,,,,,1878.427383,None,,,,,,,,,,,,,,,,,group,new_aloud,yellow,157,131,143,1873.525752,None,1873.525752,None,2,4.015564423,1873.525752,None,1877.579987,None,1878.093955,None,1878.093955,None,n,0.295319726,1878.093955,None,,,color9a,1,2019_Dec_02_1616,ProdSingRedo,3.2.4,59.96180835
,,,,158,0,158,0,,,,,,,,,,,,,,,,,,,,,,,,1885.913017,None,,,,,,,,,,,,,,,,,income,sing,red,158,19,159,1878.944201,None,1878.944201,None,2,5.412652197,1878.944201,None,1884.395705,None,1884.912677,None,1884.912677,None,n,0.956623572,1884.912677,None,,,color9a,1,2019_Dec_02_1616,ProdSingRedo,3.2.4,59.96180835
,,,,159,0,159,0,,,,,,,,,,,,,,,,,,,,,,,,1888.947275,None,,,,,,,,,,,,,,,,,listen,new_aloud,yellow,159,127,172,1886.429682,None,1886.429682,None,4,1.854914614,1886.429682,None,1888.333688,None,1888.847266,None,1888.847266,None,f,0.061358894,1888.847266,None,,,color9a,1,2019_Dec_02_1616,ProdSingRedo,3.2.4,59.96180835
,,,,160,0,160,0,,,,,,,,,,,,,,,,,,,,,,,,1892.965185,None,,,,,,,,,,,,,,,,,height,new_sing,red,160,116,152,1889.463943,None,1889.463943,None,6,2.356991177,1889.463943,None,1891.864664,None,1892.381686,None,1892.381686,None,r,0.550794767,1892.381686,None,,,color9a,1,2019_Dec_02_1616,ProdSingRedo,3.2.4,59.96180835
,,,,161,0,161,0,,,,,,,,,,,,,,,,,,,,,,,,1898.666917,None,,,,,,,,,,,,,,,,,device,new_sing,red,161,109,93,1893.481876,None,1893.481876,None,1,2.426580747,1893.481876,None,1895.957064,None,1896.466266,None,1896.466266,None,n,2.153690509,1896.466266,None,,,color9a,1,2019_Dec_02_1616,ProdSingRedo,3.2.4,59.96180835
,,,,162,0,162,0,,,,,,,,,,,,,,,,,,,,,,,,1902.084645,None,,,,,,,,,,,,,,,,,appeal,sing,red,162,11,9,1899.183568,None,1899.183568,None,6,2.212313826,1899.183568,None,1901.434434,None,1901.951273,None,1901.951273,None,r,0.084571796,1901.951273,None,,,color9a,1,2019_Dec_02_1616,ProdSingRedo,3.2.4,59.96180835
,,,,163,0,163,0,,,,,,,,,,,,,,,,,,,,,,,,1906.302603,None,,,,,,,,,,,,,,,,,short,silent,blue,163,86,285,1902.601319,None,1902.601319,None,4,3.098300994,1902.601319,None,1905.738405,None,1906.25258,None,1906.25258,None,f,0.014994666,1906.25258,None,,,color9a,1,2019_Dec_02_1616,ProdSingRedo,3.2.4,59.96180835
,,,,164,0,164,0,,,,,,,,,,,,,,,,,,,,,,,,1910.03705,None,,,,,,,,,,,,,,,,,service,silent,blue,164,89,280,1906.821413,None,1906.821413,None,3,2.614063214,1906.821413,None,1909.474245,None,1909.987064,None,1909.987064,None,f,0.016377383,1909.987064,None,,,color9a,1,2019_Dec_02_1616,ProdSingRedo,3.2.4,59.96180835
,,,,165,0,165,0,,,,,,,,,,,,,,,,,,,,,,,,1914.855236,None,,,,,,,,,,,,,,,,,close,new_silent,blue,165,163,53,1910.553761,None,1910.553761,None,1,3.63326823,1910.553761,None,1914.22458,None,1914.738531,None,1914.738531,None,n,0.073028012,1914.738531,None,,,color9a,1,2019_Dec_02_1616,ProdSingRedo,3.2.4,59.96180835
,,,,166,0,166,0,,,,,,,,,,,,,,,,,,,,,,,,1924.557956,None,,,,,,,,,,,,,,,,,century,new_sing,red,166,108,45,1915.372412,None,1915.372412,None,1,7.198201163,1915.372412,None,1922.61079,None,1923.124319,None,1923.124319,None,n,1.413879101,1923.124319,None,,,color9a,1,2019_Dec_02_1616,ProdSingRedo,3.2.4,59.96180835
,,,,167,0,167,0,,,,,,,,,,,,,,,,,,,,,,,,1928.759494,None,,,,,,,,,,,,,,,,,match,new_sing,red,167,105,181,1925.078753,None,1925.078753,None,1,2.931371116,1925.078753,None,1928.059235,None,1928.57611,None,1928.57611,None,n,0.146079971,1928.57611,None,,,color9a,1,2019_Dec_02_1616,ProdSingRedo,3.2.4,59.96180835
,,,,168,0,168,0,,,,,,,,,,,,,,,,,,,,,,,,1936.278464,None,,,,,,,,,,,,,,,,,beginning,sing,red,168,10,19,1929.277402,None,1929.277402,None,3,5.156956656,1929.277402,None,1934.485153,None,1934.994583,None,1934.994583,None,f,1.247160704,1934.994583,None,,,color9a,1,2019_Dec_02_1616,ProdSingRedo,3.2.4,59.96180835
,,,,169,0,169,0,,,,,,,,,,,,,,,,,,,,,,,,1940.829863,None,,,,,,,,,,,,,,,,,running,new_aloud,yellow,169,149,268,1936.795289,None,1936.795289,None,4,2.966168856,1936.795289,None,1939.798147,None,1940.313031,None,1940.313031,None,f,0.480436709,1940.313031,None,,,color9a,1,2019_Dec_02_1616,ProdSingRedo,3.2.4,59.96180835
,,,,170,0,170,0,,,,,,,,,,,,,,,,,,,,,,,,1944.230899,None,,,,,,,,,,,,,,,,,incident,aloud,yellow,170,42,158,1941.346672,None,1941.346672,None,3,2.262531683,1941.346672,None,1943.651384,None,1944.164206,None,1944.164206,None,f,0.029037355,1944.164206,None,,,color9a,1,2019_Dec_02_1616,ProdSingRedo,3.2.4,59.96180835
,,,,171,0,171,0,,,,,,,,,,,,,,,,,,,,,,,,1949.71589,None,,,,,,,,,,,,,,,,,state,sing,red,171,15,303,1944.747568,None,1944.747568,None,1,3.94940272,1944.747568,None,1948.735581,None,1949.249115,None,1949.249115,None,n,0.424163637,1949.249115,None,,,color9a,1,2019_Dec_02_1616,ProdSingRedo,3.2.4,59.96180835
,,,,172,0,172,0,,,,,,,,,,,,,,,,,,,,,,,,1957.801729,None,,,,,,,,,,,,,,,,,break,sing,red,172,17,26,1950.232707,None,1950.232707,None,1,3.935954979,1950.232707,None,1954.224734,None,1954.733973,None,1954.733973,None,f,3.026688665,1954.733973,None,,,color9a,1,2019_Dec_02_1616,ProdSingRedo,3.2.4,59.96180835
,,,,173,0,173,0,,,,,,,,,,,,,,,,,,,,,,,,1962.886613,None,,,,,,,,,,,,,,,,,second,new_sing,red,173,91,278,1958.318532,None,1958.318532,None,2,3.017704119,1958.318532,None,1961.369802,None,1961.886303,None,1961.886303,None,f,0.953734983,1961.886303,None,,,color9a,1,2019_Dec_02_1616,ProdSingRedo,3.2.4,59.96180835
,,,,174,0,174,0,,,,,,,,,,,,,,,,,,,,,,,,1969.088504,None,,,,,,,,,,,,,,,,,figure,aloud,yellow,174,49,128,1963.403284,None,1963.403284,None,3,2.941122594,1963.403284,None,1966.390326,None,1966.904498,None,1966.904498,None,f,2.135249315,1966.904498,None,,,color9a,1,2019_Dec_02_1616,ProdSingRedo,3.2.4,59.96180835
,,,,175,0,175,0,,,,,,,,,,,,,,,,,,,,,,,,1972.73964,None,,,,,,,,,,,,,,,,,management,new_aloud,yellow,175,139,177,1969.605322,None,1969.605322,None,4,2.362231255,1969.605322,None,1972.01031,None,1972.522791,None,1972.522791,None,f,0.180757975,1972.522791,None,,,color9a,1,2019_Dec_02_1616,ProdSingRedo,3.2.4,59.96180835
,,,,176,0,176,0,,,,,,,,,,,,,,,,,,,,,,,,1976.874247,None,,,,,,,,,,,,,,,,,reach,aloud,yellow,176,51,253,1973.256446,None,1973.256446,None,4,2.086827807,1973.256446,None,1975.392514,None,1975.907286,None,1975.907286,None,f,0.92425756,1975.907286,None,,,color9a,1,2019_Dec_02_1616,ProdSingRedo,3.2.4,59.96180835
,,,,177,0,177,0,,,,,,,,,,,,,,,,,,,,,,,,1979.64173,None,,,,,,,,,,,,,,,,,narrow,silent,blue,177,88,197,1977.39095,None,1977.39095,None,1,1.456614864,1977.39095,None,1978.891348,None,1979.408318,None,1979.408318,None,n,0.191014832,1979.408318,None,,,color9a,1,2019_Dec_02_1616,ProdSingRedo,3.2.4,59.96180835
,,,,178,0,178,0,,,,,,,,,,,,,,,,,,,,,,,,1982.375936,None,,,,,,,,,,,,,,,,,weather,new_silent,blue,178,150,352,1980.15858,None,1980.15858,None,1,1.328349728,1980.15858,None,1981.526836,None,1982.042481,None,1982.042481,None,n,0.292665943,1982.042481,None,,,color9a,1,2019_Dec_02_1616,ProdSingRedo,3.2.4,59.96180835
,,,,179,0,179,0,,,,,,,,,,,,,,,,,,,,,,,,1985.276775,None,,,,,,,,,,,,,,,,,private,new_silent,blue,179,161,237,1982.895091,None,1982.895091,None,1,1.575703565,1982.895091,None,1984.526491,None,1985.026695,None,1985.026695,None,n,0.203941643,1985.026695,None,,,color9a,1,2019_Dec_02_1616,ProdSingRedo,3.2.4,59.96180835
,,,,,,,,,,,,,,,,,,,,,,,,,,,,,,,,,,,,,,,,,,,,,,,,,,,,,,,,,,,,,,,,,,,,,,,,,1985.777009,None,,,,,,
