StudyLoop.thisRepN,StudyLoop.thisTrialN,StudyLoop.thisN,StudyLoop.thisIndex,TestLoop.thisRepN,TestLoop.thisTrialN,TestLoop.thisN,TestLoop.thisIndex,textCondition.started,textCondition.stopped,keyCondition.keys,keyCondition.rt,keyCondition.started,keyCondition.stopped,Condition,stim_colors,color_sing,color_aloud,color_silent,textWelcome.started,textWelcome.stopped,keyWelcome.keys,keyWelcome.rt,keyWelcome.started,keyWelcome.stopped,textAloud.started,textAloud.stopped,textSilent.started,textSilent.stopped,textSing.started,textSing.stopped,textBlank500.started,textBlank500.stopped,study_word,study_type,study_color,study_num,study_word_num,textStudy.started,textStudy.stopped,keyStudy.keys,keyStudy.started,keyStudy.stopped,textTestInstructions.started,textTestInstructions.stopped,key_resp_3.keys,key_resp_3.rt,key_resp_3.started,key_resp_3.stopped,testWord,testType,testColor,testN,test_num,test_word_num,textConf.started,textConf.stopped,textConfScale.started,textConfScale.stopped,keyConf.keys,keyConf.rt,keyConf.started,keyConf.stopped,textTestBlank.started,textTestBlank.stopped,textRKN.started,textRKN.stopped,textRKNScale.started,textRKNScale.stopped,keyRKN.keys,keyRKN.rt,keyRKN.started,keyRKN.stopped,textEnd.started,textEnd.stopped,participant,session,date,expName,psychopyVersion,frameRate,
,,,,,,,,305.5924086999148,None,y,8.200497899204493,305.5924086999148,None,,,,,,,,,,,,,,,,,,,,,,,,,,,,,,,,,,,,,,,,,,,,,,,,,,,,,,,,,,,,,,color31,001,2022_Apr_01_1049,ProdSingRedo,3.2.3,59.98332487182604,
,,,,,,,,,,,,,,ColoredTest,"['yellow', 'red', 'blue']",yellow,red,blue,313.8579788990319,None,space,816.557289801538,313.8579788990319,None,,,,,,,,,,,,,,,,,,,,,,,,,,,,,,,,,,,,,,,,,,,,,,,,,,,color31,001,2022_Apr_01_1049,ProdSingRedo,3.2.3,59.98332487182604,
0,0,0,0,,,,,,,,,,,,,,,,,,,,,,313.8579788990319,None,313.8579788990319,None,313.8579788990319,None,1132.9714489988983,None,suggestion,sing,yellow,18,314,1130.965432599187,None,None,1130.965432599187,None,,,,,,,,,,,,,,,,,,,,,,,,,,,,,,,,,color31,001,2022_Apr_01_1049,ProdSingRedo,3.2.3,59.98332487182604,
1,0,1,0,,,,,,,,,,,,,,,,,,,,,,,,,,,,1135.4870093986392,None,minute,aloud,red,52,192,1133.4829372987151,None,None,1133.4829372987151,None,,,,,,,,,,,,,,,,,,,,,,,,,,,,,,,,,color31,001,2022_Apr_01_1049,ProdSingRedo,3.2.3,59.98332487182604,
2,0,2,0,,,,,,,,,,,,,,,,,,,,,,,,,,,,1137.9864010997117,None,treatment,silent,blue,75,339,1135.985848698765,None,None,1135.985848698765,None,,,,,,,,,,,,,,,,,,,,,,,,,,,,,,,,,color31,001,2022_Apr_01_1049,ProdSingRedo,3.2.3,59.98332487182604,
3,0,3,0,,,,,,,,,,,,,,,,,,,,,,,,,,,,1140.503221899271,None,scale,sing,yellow,1,272,1138.5005727987736,None,None,1138.5005727987736,None,,,,,,,,,,,,,,,,,,,,,,,,,,,,,,,,,color31,001,2022_Apr_01_1049,ProdSingRedo,3.2.3,59.98332487182604,
4,0,4,0,,,,,,,,,,,,,,,,,,,,,,,,,,,,1143.0200434997678,None,degree,silent,blue,66,89,1141.0156362988055,None,None,1141.0156362988055,None,,,,,,,,,,,,,,,,,,,,,,,,,,,,,,,,,color31,001,2022_Apr_01_1049,ProdSingRedo,3.2.3,59.98332487182604,
5,0,5,0,,,,,,,,,,,,,,,,,,,,,,,,,,,,1145.536915499717,None,story,sing,yellow,14,306,1143.5388453993946,None,None,1143.5388453993946,None,,,,,,,,,,,,,,,,,,,,,,,,,,,,,,,,,color31,001,2022_Apr_01_1049,ProdSingRedo,3.2.3,59.98332487182604,
6,0,6,0,,,,,,,,,,,,,,,,,,,,,,,,,,,,1148.053650898859,None,article,aloud,red,49,11,1146.0491981003433,None,None,1146.0491981003433,None,,,,,,,,,,,,,,,,,,,,,,,,,,,,,,,,,color31,001,2022_Apr_01_1049,ProdSingRedo,3.2.3,59.98332487182604,
7,0,7,0,,,,,,,,,,,,,,,,,,,,,,,,,,,,1150.5704535990953,None,partner,sing,yellow,6,211,1148.5708678998053,None,None,1148.5708678998053,None,,,,,,,,,,,,,,,,,,,,,,,,,,,,,,,,,color31,001,2022_Apr_01_1049,ProdSingRedo,3.2.3,59.98332487182604,
8,0,8,0,,,,,,,,,,,,,,,,,,,,,,,,,,,,1153.0873130001128,None,employment,aloud,red,30,111,1151.0864971000701,None,None,1151.0864971000701,None,,,,,,,,,,,,,,,,,,,,,,,,,,,,,,,,,color31,001,2022_Apr_01_1049,ProdSingRedo,3.2.3,59.98332487182604,
9,0,9,0,,,,,,,,,,,,,,,,,,,,,,,,,,,,1155.6044021993876,None,running,aloud,red,51,268,1153.6041019000113,None,None,1153.6041019000113,None,,,,,,,,,,,,,,,,,,,,,,,,,,,,,,,,,color31,001,2022_Apr_01_1049,ProdSingRedo,3.2.3,59.98332487182604,
10,0,10,0,,,,,,,,,,,,,,,,,,,,,,,,,,,,1158.1200321987271,None,discovery,silent,blue,61,95,1156.1315639987588,None,None,1156.1315639987588,None,,,,,,,,,,,,,,,,,,,,,,,,,,,,,,,,,color31,001,2022_Apr_01_1049,ProdSingRedo,3.2.3,59.98332487182604,
11,0,11,0,,,,,,,,,,,,,,,,,,,,,,,,,,,,1160.6378274988383,None,cousin,aloud,red,53,76,1158.635334899649,None,None,1158.635334899649,None,,,,,,,,,,,,,,,,,,,,,,,,,,,,,,,,,color31,001,2022_Apr_01_1049,ProdSingRedo,3.2.3,59.98332487182604,
12,0,12,0,,,,,,,,,,,,,,,,,,,,,,,,,,,,1163.154148299247,None,salary,sing,yellow,4,271,1161.1415966004133,None,None,1161.1415966004133,None,,,,,,,,,,,,,,,,,,,,,,,,,,,,,,,,,color31,001,2022_Apr_01_1049,ProdSingRedo,3.2.3,59.98332487182604,
13,0,13,0,,,,,,,,,,,,,,,,,,,,,,,,,,,,1165.6700924001634,None,watch,silent,blue,80,351,1163.6682554986328,None,None,1163.6682554986328,None,,,,,,,,,,,,,,,,,,,,,,,,,,,,,,,,,color31,001,2022_Apr_01_1049,ProdSingRedo,3.2.3,59.98332487182604,
14,0,14,0,,,,,,,,,,,,,,,,,,,,,,,,,,,,1168.1716353986412,None,ground,silent,blue,70,142,1166.172387599945,None,None,1166.172387599945,None,,,,,,,,,,,,,,,,,,,,,,,,,,,,,,,,,color31,001,2022_Apr_01_1049,ProdSingRedo,3.2.3,59.98332487182604,
15,0,15,0,,,,,,,,,,,,,,,,,,,,,,,,,,,,1170.688508398831,None,broad,sing,yellow,3,31,1168.6952325999737,None,None,1168.6952325999737,None,,,,,,,,,,,,,,,,,,,,,,,,,,,,,,,,,color31,001,2022_Apr_01_1049,ProdSingRedo,3.2.3,59.98332487182604,
16,0,16,0,,,,,,,,,,,,,,,,,,,,,,,,,,,,1173.2053126990795,None,problem,silent,blue,69,238,1171.204955900088,None,None,1171.204955900088,None,,,,,,,,,,,,,,,,,,,,,,,,,,,,,,,,,color31,001,2022_Apr_01_1049,ProdSingRedo,3.2.3,59.98332487182604,
17,0,17,0,,,,,,,,,,,,,,,,,,,,,,,,,,,,1175.7221261002123,None,judge,sing,yellow,23,166,1173.7274513002485,None,None,1173.7274513002485,None,,,,,,,,,,,,,,,,,,,,,,,,,,,,,,,,,color31,001,2022_Apr_01_1049,ProdSingRedo,3.2.3,59.98332487182604,
18,0,18,0,,,,,,,,,,,,,,,,,,,,,,,,,,,,1178.2383705992252,None,reach,silent,blue,67,253,1176.2334646992385,None,None,1176.2334646992385,None,,,,,,,,,,,,,,,,,,,,,,,,,,,,,,,,,color31,001,2022_Apr_01_1049,ProdSingRedo,3.2.3,59.98332487182604,
19,0,19,0,,,,,,,,,,,,,,,,,,,,,,,,,,,,1180.7558107990772,None,pattern,silent,blue,76,214,1178.752873999998,None,None,1178.752873999998,None,,,,,,,,,,,,,,,,,,,,,,,,,,,,,,,,,color31,001,2022_Apr_01_1049,ProdSingRedo,3.2.3,59.98332487182604,
20,0,20,0,,,,,,,,,,,,,,,,,,,,,,,,,,,,1183.272789400071,None,youth,sing,yellow,5,359,1181.2692175991833,None,None,1181.2692175991833,None,,,,,,,,,,,,,,,,,,,,,,,,,,,,,,,,,color31,001,2022_Apr_01_1049,ProdSingRedo,3.2.3,59.98332487182604,
21,0,21,0,,,,,,,,,,,,,,,,,,,,,,,,,,,,1185.7894767988473,None,course,silent,blue,65,74,1183.7899331003428,None,None,1183.7899331003428,None,,,,,,,,,,,,,,,,,,,,,,,,,,,,,,,,,color31,001,2022_Apr_01_1049,ProdSingRedo,3.2.3,59.98332487182604,
22,0,22,0,,,,,,,,,,,,,,,,,,,,,,,,,,,,1188.3062736988068,None,height,sing,yellow,27,152,1186.3038164991885,None,None,1186.3038164991885,None,,,,,,,,,,,,,,,,,,,,,,,,,,,,,,,,,color31,001,2022_Apr_01_1049,ProdSingRedo,3.2.3,59.98332487182604,
23,0,23,0,,,,,,,,,,,,,,,,,,,,,,,,,,,,1190.8247045986354,None,career,silent,blue,63,42,1188.8219852000475,None,None,1188.8219852000475,None,,,,,,,,,,,,,,,,,,,,,,,,,,,,,,,,,color31,001,2022_Apr_01_1049,ProdSingRedo,3.2.3,59.98332487182604,
24,0,24,0,,,,,,,,,,,,,,,,,,,,,,,,,,,,1193.3401044998318,None,territory,sing,yellow,25,324,1191.3386048004031,None,None,1191.3386048004031,None,,,,,,,,,,,,,,,,,,,,,,,,,,,,,,,,,color31,001,2022_Apr_01_1049,ProdSingRedo,3.2.3,59.98332487182604,
25,0,25,0,,,,,,,,,,,,,,,,,,,,,,,,,,,,1195.8559012003243,None,estate,aloud,red,40,119,1193.853827798739,None,None,1193.853827798739,None,,,,,,,,,,,,,,,,,,,,,,,,,,,,,,,,,color31,001,2022_Apr_01_1049,ProdSingRedo,3.2.3,59.98332487182604,
26,0,26,0,,,,,,,,,,,,,,,,,,,,,,,,,,,,1198.3574038986117,None,count,aloud,red,47,72,1196.357163298875,None,None,1196.357163298875,None,,,,,,,,,,,,,,,,,,,,,,,,,,,,,,,,,color31,001,2022_Apr_01_1049,ProdSingRedo,3.2.3,59.98332487182604,
27,0,27,0,,,,,,,,,,,,,,,,,,,,,,,,,,,,1200.8739202991128,None,service,sing,yellow,15,280,1198.8728532996029,None,None,1198.8728532996029,None,,,,,,,,,,,,,,,,,,,,,,,,,,,,,,,,,color31,001,2022_Apr_01_1049,ProdSingRedo,3.2.3,59.98332487182604,
28,0,28,0,,,,,,,,,,,,,,,,,,,,,,,,,,,,1203.389350099489,None,search,silent,blue,87,276,1201.387203099206,None,None,1201.387203099206,None,,,,,,,,,,,,,,,,,,,,,,,,,,,,,,,,,color31,001,2022_Apr_01_1049,ProdSingRedo,3.2.3,59.98332487182604,
29,0,29,0,,,,,,,,,,,,,,,,,,,,,,,,,,,,1205.9075168985873,None,generation,sing,yellow,9,136,1203.9076881986111,None,None,1203.9076881986111,None,,,,,,,,,,,,,,,,,,,,,,,,,,,,,,,,,color31,001,2022_Apr_01_1049,ProdSingRedo,3.2.3,59.98332487182604,
30,0,30,0,,,,,,,,,,,,,,,,,,,,,,,,,,,,1208.423599500209,None,payment,silent,blue,77,215,1206.4205384999514,None,None,1206.4205384999514,None,,,,,,,,,,,,,,,,,,,,,,,,,,,,,,,,,color31,001,2022_Apr_01_1049,ProdSingRedo,3.2.3,59.98332487182604,
31,0,31,0,,,,,,,,,,,,,,,,,,,,,,,,,,,,1210.9411976989359,None,still,aloud,red,57,304,1208.9324898999184,None,None,1208.9324898999184,None,,,,,,,,,,,,,,,,,,,,,,,,,,,,,,,,,color31,001,2022_Apr_01_1049,ProdSingRedo,3.2.3,59.98332487182604,
32,0,32,0,,,,,,,,,,,,,,,,,,,,,,,,,,,,1213.4579830989242,None,testimony,sing,yellow,21,325,1211.456309499219,None,None,1211.456309499219,None,,,,,,,,,,,,,,,,,,,,,,,,,,,,,,,,,color31,001,2022_Apr_01_1049,ProdSingRedo,3.2.3,59.98332487182604,
33,0,33,0,,,,,,,,,,,,,,,,,,,,,,,,,,,,1215.9747761990875,None,display,silent,blue,82,98,1213.9692182000726,None,None,1213.9692182000726,None,,,,,,,,,,,,,,,,,,,,,,,,,,,,,,,,,color31,001,2022_Apr_01_1049,ProdSingRedo,3.2.3,59.98332487182604,
34,0,34,0,,,,,,,,,,,,,,,,,,,,,,,,,,,,1218.491576500237,None,burden,sing,yellow,8,36,1216.4902104996145,None,None,1216.4902104996145,None,,,,,,,,,,,,,,,,,,,,,,,,,,,,,,,,,color31,001,2022_Apr_01_1049,ProdSingRedo,3.2.3,59.98332487182604,
35,0,35,0,,,,,,,,,,,,,,,,,,,,,,,,,,,,1221.0084237996489,None,symbol,aloud,red,35,321,1219.0089072994888,None,None,1219.0089072994888,None,,,,,,,,,,,,,,,,,,,,,,,,,,,,,,,,,color31,001,2022_Apr_01_1049,ProdSingRedo,3.2.3,59.98332487182604,
36,0,36,0,,,,,,,,,,,,,,,,,,,,,,,,,,,,1223.5251577999443,None,production,silent,blue,73,240,1221.5248534996063,None,None,1221.5248534996063,None,,,,,,,,,,,,,,,,,,,,,,,,,,,,,,,,,color31,001,2022_Apr_01_1049,ProdSingRedo,3.2.3,59.98332487182604,
37,0,37,0,,,,,,,,,,,,,,,,,,,,,,,,,,,,1226.0408792998642,None,hunger,silent,blue,74,155,1224.0410654991865,None,None,1224.0410654991865,None,,,,,,,,,,,,,,,,,,,,,,,,,,,,,,,,,color31,001,2022_Apr_01_1049,ProdSingRedo,3.2.3,59.98332487182604,
38,0,38,0,,,,,,,,,,,,,,,,,,,,,,,,,,,,1228.5591003000736,None,plane,sing,yellow,16,223,1226.554933698848,None,None,1226.554933698848,None,,,,,,,,,,,,,,,,,,,,,,,,,,,,,,,,,color31,001,2022_Apr_01_1049,ProdSingRedo,3.2.3,59.98332487182604,
39,0,39,0,,,,,,,,,,,,,,,,,,,,,,,,,,,,1231.0759172998369,None,resistance,aloud,red,46,262,1229.0748168993741,None,None,1229.0748168993741,None,,,,,,,,,,,,,,,,,,,,,,,,,,,,,,,,,color31,001,2022_Apr_01_1049,ProdSingRedo,3.2.3,59.98332487182604,
40,0,40,0,,,,,,,,,,,,,,,,,,,,,,,,,,,,1233.5927750002593,None,guide,silent,blue,85,147,1231.587408600375,None,None,1231.587408600375,None,,,,,,,,,,,,,,,,,,,,,,,,,,,,,,,,,color31,001,2022_Apr_01_1049,ProdSingRedo,3.2.3,59.98332487182604,
41,0,41,0,,,,,,,,,,,,,,,,,,,,,,,,,,,,1236.109721198678,None,center,aloud,red,48,44,1234.101503700018,None,None,1234.101503700018,None,,,,,,,,,,,,,,,,,,,,,,,,,,,,,,,,,color31,001,2022_Apr_01_1049,ProdSingRedo,3.2.3,59.98332487182604,
42,0,42,0,,,,,,,,,,,,,,,,,,,,,,,,,,,,1238.627367399633,None,science,silent,blue,81,275,1236.6197682991624,None,None,1236.6197682991624,None,,,,,,,,,,,,,,,,,,,,,,,,,,,,,,,,,color31,001,2022_Apr_01_1049,ProdSingRedo,3.2.3,59.98332487182604,
43,0,43,0,,,,,,,,,,,,,,,,,,,,,,,,,,,,1241.126728599891,None,command,sing,yellow,0,60,1239.1259332988411,None,None,1239.1259332988411,None,,,,,,,,,,,,,,,,,,,,,,,,,,,,,,,,,color31,001,2022_Apr_01_1049,ProdSingRedo,3.2.3,59.98332487182604,
44,0,44,0,,,,,,,,,,,,,,,,,,,,,,,,,,,,1243.6432984992862,None,owner,aloud,red,45,208,1241.640896299854,None,None,1241.640896299854,None,,,,,,,,,,,,,,,,,,,,,,,,,,,,,,,,,color31,001,2022_Apr_01_1049,ProdSingRedo,3.2.3,59.98332487182604,
45,0,45,0,,,,,,,,,,,,,,,,,,,,,,,,,,,,1246.160111900419,None,collection,aloud,red,50,54,1244.1554268989712,None,None,1244.1554268989712,None,,,,,,,,,,,,,,,,,,,,,,,,,,,,,,,,,color31,001,2022_Apr_01_1049,ProdSingRedo,3.2.3,59.98332487182604,
46,0,46,0,,,,,,,,,,,,,,,,,,,,,,,,,,,,1248.6770011000335,None,afternoon,aloud,red,55,3,1246.6736059002578,None,None,1246.6736059002578,None,,,,,,,,,,,,,,,,,,,,,,,,,,,,,,,,,color31,001,2022_Apr_01_1049,ProdSingRedo,3.2.3,59.98332487182604,
47,0,47,0,,,,,,,,,,,,,,,,,,,,,,,,,,,,1251.1937230993062,None,device,aloud,red,31,93,1249.1784888003021,None,None,1249.1784888003021,None,,,,,,,,,,,,,,,,,,,,,,,,,,,,,,,,,color31,001,2022_Apr_01_1049,ProdSingRedo,3.2.3,59.98332487182604,
48,0,48,0,,,,,,,,,,,,,,,,,,,,,,,,,,,,1253.7107317000628,None,foundation,sing,yellow,13,132,1251.7131526991725,None,None,1251.7131526991725,None,,,,,,,,,,,,,,,,,,,,,,,,,,,,,,,,,color31,001,2022_Apr_01_1049,ProdSingRedo,3.2.3,59.98332487182604,
49,0,49,0,,,,,,,,,,,,,,,,,,,,,,,,,,,,1256.2265974991024,None,period,sing,yellow,12,217,1254.2193505000323,None,None,1254.2193505000323,None,,,,,,,,,,,,,,,,,,,,,,,,,,,,,,,,,color31,001,2022_Apr_01_1049,ProdSingRedo,3.2.3,59.98332487182604,
50,0,50,0,,,,,,,,,,,,,,,,,,,,,,,,,,,,1258.7442645002156,None,waste,aloud,red,33,350,1256.7392202001065,None,None,1256.7392202001065,None,,,,,,,,,,,,,,,,,,,,,,,,,,,,,,,,,color31,001,2022_Apr_01_1049,ProdSingRedo,3.2.3,59.98332487182604,
51,0,51,0,,,,,,,,,,,,,,,,,,,,,,,,,,,,1261.2604893986136,None,concern,aloud,red,36,65,1259.2532419003546,None,None,1259.2532419003546,None,,,,,,,,,,,,,,,,,,,,,,,,,,,,,,,,,color31,001,2022_Apr_01_1049,ProdSingRedo,3.2.3,59.98332487182604,
52,0,52,0,,,,,,,,,,,,,,,,,,,,,,,,,,,,1263.778050199151,None,bicycle,sing,yellow,17,21,1261.7750751990825,None,None,1261.7750751990825,None,,,,,,,,,,,,,,,,,,,,,,,,,,,,,,,,,color31,001,2022_Apr_01_1049,ProdSingRedo,3.2.3,59.98332487182604,
53,0,53,0,,,,,,,,,,,,,,,,,,,,,,,,,,,,1266.2947487998754,None,majority,silent,blue,60,176,1264.2864659000188,None,None,1264.2864659000188,None,,,,,,,,,,,,,,,,,,,,,,,,,,,,,,,,,color31,001,2022_Apr_01_1049,ProdSingRedo,3.2.3,59.98332487182604,
54,0,54,0,,,,,,,,,,,,,,,,,,,,,,,,,,,,1268.811616199091,None,express,silent,blue,84,124,1266.8064791988581,None,None,1266.8064791988581,None,,,,,,,,,,,,,,,,,,,,,,,,,,,,,,,,,color31,001,2022_Apr_01_1049,ProdSingRedo,3.2.3,59.98332487182604,
55,0,55,0,,,,,,,,,,,,,,,,,,,,,,,,,,,,1271.3285491988063,None,health,sing,yellow,20,149,1269.327812898904,None,None,1269.327812898904,None,,,,,,,,,,,,,,,,,,,,,,,,,,,,,,,,,color31,001,2022_Apr_01_1049,ProdSingRedo,3.2.3,59.98332487182604,
56,0,56,0,,,,,,,,,,,,,,,,,,,,,,,,,,,,1273.845649799332,None,contract,silent,blue,78,68,1271.8433128986508,None,None,1271.8433128986508,None,,,,,,,,,,,,,,,,,,,,,,,,,,,,,,,,,color31,001,2022_Apr_01_1049,ProdSingRedo,3.2.3,59.98332487182604,
57,0,57,0,,,,,,,,,,,,,,,,,,,,,,,,,,,,1276.3622097987682,None,measure,aloud,red,58,184,1274.3611028995365,None,None,1274.3611028995365,None,,,,,,,,,,,,,,,,,,,,,,,,,,,,,,,,,color31,001,2022_Apr_01_1049,ProdSingRedo,3.2.3,59.98332487182604,
58,0,58,0,,,,,,,,,,,,,,,,,,,,,,,,,,,,1278.8788964003325,None,rough,aloud,red,34,266,1276.874898198992,None,None,1276.874898198992,None,,,,,,,,,,,,,,,,,,,,,,,,,,,,,,,,,color31,001,2022_Apr_01_1049,ProdSingRedo,3.2.3,59.98332487182604,
59,0,59,0,,,,,,,,,,,,,,,,,,,,,,,,,,,,1281.3957685995847,None,expansion,silent,blue,83,123,1279.3943597003818,None,None,1279.3943597003818,None,,,,,,,,,,,,,,,,,,,,,,,,,,,,,,,,,color31,001,2022_Apr_01_1049,ProdSingRedo,3.2.3,59.98332487182604,
60,0,60,0,,,,,,,,,,,,,,,,,,,,,,,,,,,,1283.9125436004251,None,provision,aloud,red,37,243,1281.9129964001477,None,None,1281.9129964001477,None,,,,,,,,,,,,,,,,,,,,,,,,,,,,,,,,,color31,001,2022_Apr_01_1049,ProdSingRedo,3.2.3,59.98332487182604,
61,0,61,0,,,,,,,,,,,,,,,,,,,,,,,,,,,,1286.4293246995658,None,entrance,aloud,red,43,115,1284.4260265994817,None,None,1284.4260265994817,None,,,,,,,,,,,,,,,,,,,,,,,,,,,,,,,,,color31,001,2022_Apr_01_1049,ProdSingRedo,3.2.3,59.98332487182604,
62,0,62,0,,,,,,,,,,,,,,,,,,,,,,,,,,,,1288.946227800101,None,government,aloud,red,42,139,1286.947235899046,None,None,1286.947235899046,None,,,,,,,,,,,,,,,,,,,,,,,,,,,,,,,,,color31,001,2022_Apr_01_1049,ProdSingRedo,3.2.3,59.98332487182604,
63,0,63,0,,,,,,,,,,,,,,,,,,,,,,,,,,,,1291.4630346000195,None,dispute,silent,blue,88,99,1289.4618448987603,None,None,1289.4618448987603,None,,,,,,,,,,,,,,,,,,,,,,,,,,,,,,,,,color31,001,2022_Apr_01_1049,ProdSingRedo,3.2.3,59.98332487182604,
64,0,64,0,,,,,,,,,,,,,,,,,,,,,,,,,,,,1293.979859398678,None,pretty,silent,blue,68,233,1291.9764543995261,None,None,1291.9764543995261,None,,,,,,,,,,,,,,,,,,,,,,,,,,,,,,,,,color31,001,2022_Apr_01_1049,ProdSingRedo,3.2.3,59.98332487182604,
65,0,65,0,,,,,,,,,,,,,,,,,,,,,,,,,,,,1296.4967918992043,None,season,sing,yellow,7,277,1294.4947357997298,None,None,1294.4947357997298,None,,,,,,,,,,,,,,,,,,,,,,,,,,,,,,,,,color31,001,2022_Apr_01_1049,ProdSingRedo,3.2.3,59.98332487182604,
66,0,66,0,,,,,,,,,,,,,,,,,,,,,,,,,,,,1299.0140217989683,None,people,sing,yellow,28,216,1297.006367199123,None,None,1297.006367199123,None,,,,,,,,,,,,,,,,,,,,,,,,,,,,,,,,,color31,001,2022_Apr_01_1049,ProdSingRedo,3.2.3,59.98332487182604,
67,0,67,0,,,,,,,,,,,,,,,,,,,,,,,,,,,,1301.5305716004223,None,escape,aloud,red,56,118,1299.5287602990866,None,None,1299.5287602990866,None,,,,,,,,,,,,,,,,,,,,,,,,,,,,,,,,,color31,001,2022_Apr_01_1049,ProdSingRedo,3.2.3,59.98332487182604,
68,0,68,0,,,,,,,,,,,,,,,,,,,,,,,,,,,,1304.0472518000752,None,agreement,silent,blue,62,5,1302.049599500373,None,None,1302.049599500373,None,,,,,,,,,,,,,,,,,,,,,,,,,,,,,,,,,color31,001,2022_Apr_01_1049,ProdSingRedo,3.2.3,59.98332487182604,
69,0,69,0,,,,,,,,,,,,,,,,,,,,,,,,,,,,1306.564020300284,None,victory,sing,yellow,10,346,1304.5612994991243,None,None,1304.5612994991243,None,,,,,,,,,,,,,,,,,,,,,,,,,,,,,,,,,color31,001,2022_Apr_01_1049,ProdSingRedo,3.2.3,59.98332487182604,
70,0,70,0,,,,,,,,,,,,,,,,,,,,,,,,,,,,1309.0808802992105,None,poetry,aloud,red,41,225,1307.0777572002262,None,None,1307.0777572002262,None,,,,,,,,,,,,,,,,,,,,,,,,,,,,,,,,,color31,001,2022_Apr_01_1049,ProdSingRedo,3.2.3,59.98332487182604,
71,0,71,0,,,,,,,,,,,,,,,,,,,,,,,,,,,,1311.5976739991456,None,dance,silent,blue,89,84,1309.592704899609,None,None,1309.592704899609,None,,,,,,,,,,,,,,,,,,,,,,,,,,,,,,,,,color31,001,2022_Apr_01_1049,ProdSingRedo,3.2.3,59.98332487182604,
72,0,72,0,,,,,,,,,,,,,,,,,,,,,,,,,,,,1314.114631799981,None,shock,sing,yellow,29,284,1312.11249489896,None,None,1312.11249489896,None,,,,,,,,,,,,,,,,,,,,,,,,,,,,,,,,,color31,001,2022_Apr_01_1049,ProdSingRedo,3.2.3,59.98332487182604,
73,0,73,0,,,,,,,,,,,,,,,,,,,,,,,,,,,,1316.6313656996936,None,income,silent,blue,72,159,1314.6253130994737,None,None,1314.6253130994737,None,,,,,,,,,,,,,,,,,,,,,,,,,,,,,,,,,color31,001,2022_Apr_01_1049,ProdSingRedo,3.2.3,59.98332487182604,
74,0,74,0,,,,,,,,,,,,,,,,,,,,,,,,,,,,1319.1481945998967,None,rural,aloud,red,32,269,1317.145394699648,None,None,1317.145394699648,None,,,,,,,,,,,,,,,,,,,,,,,,,,,,,,,,,color31,001,2022_Apr_01_1049,ProdSingRedo,3.2.3,59.98332487182604,
75,0,75,0,,,,,,,,,,,,,,,,,,,,,,,,,,,,1321.6650779992342,None,captain,aloud,red,44,41,1319.6718552988023,None,None,1319.6718552988023,None,,,,,,,,,,,,,,,,,,,,,,,,,,,,,,,,,color31,001,2022_Apr_01_1049,ProdSingRedo,3.2.3,59.98332487182604,
76,0,76,0,,,,,,,,,,,,,,,,,,,,,,,,,,,,1324.181834999472,None,beauty,sing,yellow,24,18,1322.1824900992215,None,None,1322.1824900992215,None,,,,,,,,,,,,,,,,,,,,,,,,,,,,,,,,,color31,001,2022_Apr_01_1049,ProdSingRedo,3.2.3,59.98332487182604,
77,0,77,0,,,,,,,,,,,,,,,,,,,,,,,,,,,,1326.698689199984,None,century,aloud,red,38,45,1324.7027863003314,None,None,1324.7027863003314,None,,,,,,,,,,,,,,,,,,,,,,,,,,,,,,,,,color31,001,2022_Apr_01_1049,ProdSingRedo,3.2.3,59.98332487182604,
78,0,78,0,,,,,,,,,,,,,,,,,,,,,,,,,,,,1329.215522998944,None,substance,sing,yellow,19,313,1327.2198203988373,None,None,1327.2198203988373,None,,,,,,,,,,,,,,,,,,,,,,,,,,,,,,,,,color31,001,2022_Apr_01_1049,ProdSingRedo,3.2.3,59.98332487182604,
79,0,79,0,,,,,,,,,,,,,,,,,,,,,,,,,,,,1331.7323687002063,None,union,silent,blue,86,344,1329.7270601000637,None,None,1329.7270601000637,None,,,,,,,,,,,,,,,,,,,,,,,,,,,,,,,,,color31,001,2022_Apr_01_1049,ProdSingRedo,3.2.3,59.98332487182604,
80,0,80,0,,,,,,,,,,,,,,,,,,,,,,,,,,,,1334.2494623996317,None,distance,silent,blue,64,100,1332.245937898755,None,None,1332.245937898755,None,,,,,,,,,,,,,,,,,,,,,,,,,,,,,,,,,color31,001,2022_Apr_01_1049,ProdSingRedo,3.2.3,59.98332487182604,
81,0,81,0,,,,,,,,,,,,,,,,,,,,,,,,,,,,1336.7660234998912,None,block,sing,yellow,22,25,1334.7606309987605,None,None,1334.7606309987605,None,,,,,,,,,,,,,,,,,,,,,,,,,,,,,,,,,color31,001,2022_Apr_01_1049,ProdSingRedo,3.2.3,59.98332487182604,
82,0,82,0,,,,,,,,,,,,,,,,,,,,,,,,,,,,1339.2829387988895,None,sleep,sing,yellow,2,290,1337.275022899732,None,None,1337.275022899732,None,,,,,,,,,,,,,,,,,,,,,,,,,,,,,,,,,color31,001,2022_Apr_01_1049,ProdSingRedo,3.2.3,59.98332487182604,
83,0,83,0,,,,,,,,,,,,,,,,,,,,,,,,,,,,1341.7999973986298,None,bitter,aloud,red,59,23,1339.7943781986833,None,None,1339.7943781986833,None,,,,,,,,,,,,,,,,,,,,,,,,,,,,,,,,,color31,001,2022_Apr_01_1049,ProdSingRedo,3.2.3,59.98332487182604,
84,0,84,0,,,,,,,,,,,,,,,,,,,,,,,,,,,,1344.316645199433,None,crowd,aloud,red,39,81,1342.3153175003827,None,None,1342.3153175003827,None,,,,,,,,,,,,,,,,,,,,,,,,,,,,,,,,,color31,001,2022_Apr_01_1049,ProdSingRedo,3.2.3,59.98332487182604,
85,0,85,0,,,,,,,,,,,,,,,,,,,,,,,,,,,,1346.8334164991975,None,thing,sing,yellow,11,328,1344.8267864994705,None,None,1344.8267864994705,None,,,,,,,,,,,,,,,,,,,,,,,,,,,,,,,,,color31,001,2022_Apr_01_1049,ProdSingRedo,3.2.3,59.98332487182604,
86,0,86,0,,,,,,,,,,,,,,,,,,,,,,,,,,,,1349.3501958996058,None,report,sing,yellow,26,259,1347.3430941998959,None,None,1347.3430941998959,None,,,,,,,,,,,,,,,,,,,,,,,,,,,,,,,,,color31,001,2022_Apr_01_1049,ProdSingRedo,3.2.3,59.98332487182604,
87,0,87,0,,,,,,,,,,,,,,,,,,,,,,,,,,,,1351.8670023996383,None,novel,silent,blue,71,202,1349.8626859001815,None,None,1349.8626859001815,None,,,,,,,,,,,,,,,,,,,,,,,,,,,,,,,,,color31,001,2022_Apr_01_1049,ProdSingRedo,3.2.3,59.98332487182604,
88,0,88,0,,,,,,,,,,,,,,,,,,,,,,,,,,,,1354.3838146999478,None,appearance,silent,blue,79,10,1352.3852148987353,None,None,1352.3852148987353,None,,,,,,,,,,,,,,,,,,,,,,,,,,,,,,,,,color31,001,2022_Apr_01_1049,ProdSingRedo,3.2.3,59.98332487182604,
89,0,89,0,,,,,,,,,,,,,,,,,,,,,,,,,,,,1356.9007328990847,None,master,aloud,red,54,180,1354.9001647997648,None,None,1354.9001647997648,None,,,,,,,,,,,,,,,,,,,,,,,,,,,,,,,,,color31,001,2022_Apr_01_1049,ProdSingRedo,3.2.3,59.98332487182604,
,,,,,,,,,,,,,,,,,,,,,,,,,,,,,,,,,,,,,,,,,,,1357.4006702993065,None,k,212.75768869929016,1357.4006702993065,None,,,,,,,,,,,,,,,,,,,,,,,,,,,color31,001,2022_Apr_01_1049,ProdSingRedo,3.2.3,59.98332487182604,
,,,,0,0,0,0,,,,,,,,,,,,,,,,,,,,,,,,1583.2242980990559,None,,,,,,,,,,,,,,,,,income,silent,blue,0,72,159,1570.6990446001291,None,1570.6990446001291,None,5,7.491265099495649,1570.6990446001291,None,1578.2400112003088,None,1578.7625718992203,None,1578.7625718992203,None,n,4.411793099716306,1578.7625718992203,None,,,color31,001,2022_Apr_01_1049,ProdSingRedo,3.2.3,59.98332487182604,
,,,,1,0,1,0,,,,,,,,,,,,,,,,,,,,,,,,1592.9737360998988,None,,,,,,,,,,,,,,,,,permit,new_aloud,red,1,122,218,1583.7468322999775,None,1583.7468322999775,None,2,3.6594550013542175,1583.7468322999775,None,1587.455248599872,None,1587.9731219001114,None,1587.9731219001114,None,n,4.961087299510837,1587.9731219001114,None,,,color31,001,2022_Apr_01_1049,ProdSingRedo,3.2.3,59.98332487182604,
,,,,2,0,2,0,,,,,,,,,,,,,,,,,,,,,,,,1599.4150552991778,None,,,,,,,,,,,,,,,,,general,new_aloud,red,2,136,135,1593.4842993002385,None,1593.4842993002385,None,1,3.2816295996308327,1593.4842993002385,None,1596.7895341999829,None,1597.2983775995672,None,1597.2983775995672,None,n,2.0997674986720085,1597.2983775995672,None,,,color31,001,2022_Apr_01_1049,ProdSingRedo,3.2.3,59.98332487182604,
,,,,3,0,3,0,,,,,,,,,,,,,,,,,,,,,,,,1607.4517201986164,None,,,,,,,,,,,,,,,,,disease,new_silent,blue,3,168,97,1599.9154372997582,None,1599.9154372997582,None,3,5.178499698638916,1599.9154372997582,None,1605.1175560988486,None,1605.6321187987924,None,1605.6321187987924,None,n,1.789802299812436,1605.6321187987924,None,,,color31,001,2022_Apr_01_1049,ProdSingRedo,3.2.3,59.98332487182604,
,,,,4,0,4,0,,,,,,,,,,,,,,,,,,,,,,,,1616.4502358995378,None,,,,,,,,,,,,,,,,,entrance,aloud,red,4,43,115,1607.9658188000321,None,1607.9658188000321,None,4,5.872412798926234,1607.9658188000321,None,1613.8846682999283,None,1614.3949571996927,None,1614.3949571996927,None,f,2.026976700872183,1614.3949571996927,None,,,color31,001,2022_Apr_01_1049,ProdSingRedo,3.2.3,59.98332487182604,
,,,,5,0,5,0,,,,,,,,,,,,,,,,,,,,,,,,1621.862710699439,None,,,,,,,,,,,,,,,,,state,new_silent,blue,5,164,303,1616.9687895998359,None,1616.9687895998359,None,2,2.5572055988013744,1616.9687895998359,None,1619.553303198889,None,1620.0674604997039,None,1620.0674604997039,None,n,1.7627105992287397,1620.0674604997039,None,,,color31,001,2022_Apr_01_1049,ProdSingRedo,3.2.3,59.98332487182604,
,,,,6,0,6,0,,,,,,,,,,,,,,,,,,,,,,,,1627.1288162991405,None,,,,,,,,,,,,,,,,,religion,new_aloud,red,6,131,258,1622.3876198995858,None,1622.3876198995858,None,1,2.402642199769616,1622.3876198995858,None,1624.8370989002287,None,1625.3585337996483,None,1625.3585337996483,None,n,1.7436334006488323,1625.3585337996483,None,,,color31,001,2022_Apr_01_1049,ProdSingRedo,3.2.3,59.98332487182604,
,,,,7,0,7,0,,,,,,,,,,,,,,,,,,,,,,,,1633.8264725003392,None,,,,,,,,,,,,,,,,,territory,sing,yellow,7,25,324,1627.6515049003065,None,1627.6515049003065,None,6,3.642680799588561,1627.6515049003065,None,1631.3414209987968,None,1631.8654477000237,None,1631.8654477000237,None,r,1.9247009996324778,1631.8654477000237,None,,,color31,001,2022_Apr_01_1049,ProdSingRedo,3.2.3,59.98332487182604,
,,,,8,0,8,0,,,,,,,,,,,,,,,,,,,,,,,,1640.911549899727,None,,,,,,,,,,,,,,,,,substance,sing,yellow,8,19,313,1634.3591130990535,None,1634.3591130990535,None,6,4.1990328989923,1634.3591130990535,None,1638.5999874994159,None,1639.1100494991988,None,1639.1100494991988,None,r,1.768207998946309,1639.1100494991988,None,,,color31,001,2022_Apr_01_1049,ProdSingRedo,3.2.3,59.98332487182604,
,,,,9,0,9,0,,,,,,,,,,,,,,,,,,,,,,,,1647.2857988998294,None,,,,,,,,,,,,,,,,,mayor,new_aloud,red,9,123,183,1641.4387819003314,None,1641.4387819003314,None,1,2.6151873003691435,1641.4387819003314,None,1644.1073855999857,None,1644.628630599007,None,1644.628630599007,None,n,2.6332149002701044,1644.628630599007,None,,,color31,001,2022_Apr_01_1049,ProdSingRedo,3.2.3,59.98332487182604,
,,,,10,0,10,0,,,,,,,,,,,,,,,,,,,,,,,,1654.1627652999014,None,,,,,,,,,,,,,,,,,suspect,new_silent,blue,10,173,318,1647.7876867000014,None,1647.7876867000014,None,5,4.547070099040866,1647.7876867000014,None,1652.3745202999562,None,1652.8987348992378,None,1652.8987348992378,None,f,1.2276870012283325,1652.8987348992378,None,,,color31,001,2022_Apr_01_1049,ProdSingRedo,3.2.3,59.98332487182604,
,,,,11,0,11,0,,,,,,,,,,,,,,,,,,,,,,,,1662.2460016999394,None,,,,,,,,,,,,,,,,,novel,silent,blue,11,71,202,1654.685738299042,None,1654.685738299042,None,3,3.1765768993645906,1654.685738299042,None,1657.9120934996754,None,1658.4322743993253,None,1658.4322743993253,None,n,3.789827199652791,1658.4322743993253,None,,,color31,001,2022_Apr_01_1049,ProdSingRedo,3.2.3,59.98332487182604,
,,,,12,0,12,0,,,,,,,,,,,,,,,,,,,,,,,,1670.807589199394,None,,,,,,,,,,,,,,,,,division,new_aloud,red,12,142,101,1662.7717058993876,None,1662.7717058993876,None,3,6.258396100252867,1662.7717058993876,None,1669.084270099178,None,1669.5987259987742,None,1669.5987259987742,None,n,1.1834166012704372,1669.5987259987742,None,,,color31,001,2022_Apr_01_1049,ProdSingRedo,3.2.3,59.98332487182604,
,,,,13,0,13,0,,,,,,,,,,,,,,,,,,,,,,,,1676.322738898918,None,,,,,,,,,,,,,,,,,captain,aloud,red,13,44,41,1671.3423039987683,None,1671.3423039987683,None,6,2.9280003011226654,1671.3423039987683,None,1674.3220527991652,None,1674.8274363987148,None,1674.8274363987148,None,r,1.4663357995450497,1674.8274363987148,None,,,color31,001,2022_Apr_01_1049,ProdSingRedo,3.2.3,59.98332487182604,
,,,,14,0,14,0,,,,,,,,,,,,,,,,,,,,,,,,1683.5209688004106,None,,,,,,,,,,,,,,,,,watch,silent,blue,14,80,351,1676.8547977991402,None,1676.8547977991402,None,4,5.055447900667787,1676.8547977991402,None,1681.9562234003097,None,1682.4670024998486,None,1682.4670024998486,None,f,1.0351020004600286,1682.4670024998486,None,,,color31,001,2022_Apr_01_1049,ProdSingRedo,3.2.3,59.98332487182604,
,,,,15,0,15,0,,,,,,,,,,,,,,,,,,,,,,,,1688.2811554986984,None,,,,,,,,,,,,,,,,,agreement,silent,blue,15,62,5,1684.0413313992321,None,1684.0413313992321,None,2,2.660980798304081,1684.0413313992321,None,1686.7478209994733,None,1687.26472369954,None,1687.26472369954,None,n,0.981344498693943,1687.26472369954,None,,,color31,001,2022_Apr_01_1049,ProdSingRedo,3.2.3,59.98332487182604,
,,,,16,0,16,0,,,,,,,,,,,,,,,,,,,,,,,,1695.2243494987488,None,,,,,,,,,,,,,,,,,health,sing,yellow,16,20,149,1688.8073653001338,None,1688.8073653001338,None,4,4.7507006991654634,1688.8073653001338,None,1693.6117387004197,None,1694.1259148996323,None,1694.1259148996323,None,f,1.0718895997852087,1694.1259148996323,None,,,color31,001,2022_Apr_01_1049,ProdSingRedo,3.2.3,59.98332487182604,
,,,,17,0,17,0,,,,,,,,,,,,,,,,,,,,,,,,1702.7645561993122,None,,,,,,,,,,,,,,,,,fight,new_aloud,red,17,148,127,1695.7545064985752,None,1695.7545064985752,None,2,2.779609400779009,1695.7545064985752,None,1698.5702925994992,None,1699.087428798899,None,1699.087428798899,None,n,3.638578500598669,1699.087428798899,None,,,color31,001,2022_Apr_01_1049,ProdSingRedo,3.2.3,59.98332487182604,
,,,,18,0,18,0,,,,,,,,,,,,,,,,,,,,,,,,1708.3482143003494,None,,,,,,,,,,,,,,,,,spoke,new_sing,yellow,18,99,300,1703.2903770003468,None,1703.2903770003468,None,1,2.4273143000900745,1703.2903770003468,None,1705.7478230986744,None,1706.257857998833,None,1706.257857998833,None,n,2.0521965008229017,1706.257857998833,None,,,color31,001,2022_Apr_01_1049,ProdSingRedo,3.2.3,59.98332487182604,
,,,,19,0,19,0,,,,,,,,,,,,,,,,,,,,,,,,1716.600284298882,None,,,,,,,,,,,,,,,,,listen,new_silent,blue,19,163,172,1708.8708199001849,None,1708.8708199001849,None,3,5.487395100295544,1708.8708199001849,None,1714.3956077992916,None,1714.9178470987827,None,1714.9178470987827,None,n,1.656250100582838,1714.9178470987827,None,,,color31,001,2022_Apr_01_1049,ProdSingRedo,3.2.3,59.98332487182604,
,,,,20,0,20,0,,,,,,,,,,,,,,,,,,,,,,,,1720.6071672998369,None,,,,,,,,,,,,,,,,,worker,new_aloud,red,20,133,356,1717.1284520998597,None,1717.1284520998597,None,1,2.4052885994315147,1717.1284520998597,None,1719.5660493001342,None,1720.078797498718,None,1720.078797498718,None,n,0.48717729933559895,1720.078797498718,None,,,color31,001,2022_Apr_01_1049,ProdSingRedo,3.2.3,59.98332487182604,
,,,,21,0,21,0,,,,,,,,,,,,,,,,,,,,,,,,1723.81787519902,None,,,,,,,,,,,,,,,,,curve,new_aloud,red,21,147,82,1721.1318279989064,None,1721.1318279989064,None,1,1.6739661991596222,1721.1318279989064,None,1722.8262635990977,None,1723.3556491993368,None,1723.3556491993368,None,n,0.4263289999216795,1723.3556491993368,None,,,color31,001,2022_Apr_01_1049,ProdSingRedo,3.2.3,59.98332487182604,
,,,,22,0,22,0,,,,,,,,,,,,,,,,,,,,,,,,1730.8005379997194,None,,,,,,,,,,,,,,,,,suggestion,sing,yellow,22,18,314,1724.3447931986302,None,1724.3447931986302,None,2,4.717251800000668,1724.3447931986302,None,1729.1097377985716,None,1729.628708999604,None,1729.628708999604,None,n,1.1455701999366283,1729.628708999604,None,,,color31,001,2022_Apr_01_1049,ProdSingRedo,3.2.3,59.98332487182604,
,,,,23,0,23,0,,,,,,,,,,,,,,,,,,,,,,,,1734.4188754986972,None,,,,,,,,,,,,,,,,,meeting,new_sing,yellow,23,119,187,1731.3251721989363,None,1731.3251721989363,None,1,2.416534300893545,1731.3251721989363,None,1733.759274698794,None,1734.2888479996473,None,1734.2888479996473,None,n,0.09361790120601654,1734.2888479996473,None,,,color31,001,2022_Apr_01_1049,ProdSingRedo,3.2.3,59.98332487182604,
,,,,24,0,24,0,,,,,,,,,,,,,,,,,,,,,,,,1739.8410240001976,None,,,,,,,,,,,,,,,,,master,aloud,red,24,54,180,1734.9441825002432,None,1734.9441825002432,None,6,3.3017689995467663,1734.9441825002432,None,1738.2950470000505,None,1738.80821570009,None,1738.80821570009,None,r,1.0137607995420694,1738.80821570009,None,,,color31,001,2022_Apr_01_1049,ProdSingRedo,3.2.3,59.98332487182604,
,,,,25,0,25,0,,,,,,,,,,,,,,,,,,,,,,,,1746.084340499714,None,,,,,,,,,,,,,,,,,light,new_silent,blue,25,155,171,1740.3625341001898,None,1740.3625341001898,None,3,4.171437498182058,1740.3625341001898,None,1744.5824733003974,None,1745.099892700091,None,1745.099892700091,None,n,0.9460679013282061,1745.099892700091,None,,,color31,001,2022_Apr_01_1049,ProdSingRedo,3.2.3,59.98332487182604,
,,,,26,0,26,0,,,,,,,,,,,,,,,,,,,,,,,,1751.525321599096,None,,,,,,,,,,,,,,,,,union,silent,blue,26,86,344,1746.6059920992702,None,1746.6059920992702,None,5,2.8240112997591496,1746.6059920992702,None,1749.480279199779,None,1750.0031700991094,None,1750.0031700991094,None,f,1.50645250082016,1750.0031700991094,None,,,color31,001,2022_Apr_01_1049,ProdSingRedo,3.2.3,59.98332487182604,
,,,,27,0,27,0,,,,,,,,,,,,,,,,,,,,,,,,1756.4939307998866,None,,,,,,,,,,,,,,,,,hunger,silent,blue,27,74,155,1752.0407065991312,None,1752.0407065991312,None,5,2.5570624005049467,1752.0407065991312,None,1754.646306199953,None,1755.1767346989363,None,1755.1767346989363,None,f,1.2928979005664587,1755.1767346989363,None,,,color31,001,2022_Apr_01_1049,ProdSingRedo,3.2.3,59.98332487182604,
,,,,28,0,28,0,,,,,,,,,,,,,,,,,,,,,,,,1761.0598526000977,None,,,,,,,,,,,,,,,,,rough,aloud,red,28,34,266,1757.0114283002913,None,1757.0114283002913,None,6,2.3944074008613825,1757.0114283002913,None,1759.4289857000113,None,1759.9465174991637,None,1759.9465174991637,None,r,1.0830800998955965,1759.9465174991637,None,,,color31,001,2022_Apr_01_1049,ProdSingRedo,3.2.3,59.98332487182604,
,,,,29,0,29,0,,,,,,,,,,,,,,,,,,,,,,,,1766.5533376988024,None,,,,,,,,,,,,,,,,,answer,new_aloud,red,29,129,8,1761.5639494992793,None,1761.5639494992793,None,2,3.281785000115633,1761.5639494992793,None,1764.891430299729,None,1765.4002040997148,None,1765.4002040997148,None,n,1.1259992998093367,1765.4002040997148,None,,,color31,001,2022_Apr_01_1049,ProdSingRedo,3.2.3,59.98332487182604,
,,,,30,0,30,0,,,,,,,,,,,,,,,,,,,,,,,,1773.8437606003135,None,,,,,,,,,,,,,,,,,smell,new_aloud,red,30,149,291,1767.0739553999156,None,1767.0739553999156,None,1,4.932215301319957,1767.0739553999156,None,1772.0473274998367,None,1772.570742700249,None,1772.570742700249,None,n,1.250926699489355,1772.570742700249,None,,,color31,001,2022_Apr_01_1049,ProdSingRedo,3.2.3,59.98332487182604,
,,,,31,0,31,0,,,,,,,,,,,,,,,,,,,,,,,,1777.8746098000556,None,,,,,,,,,,,,,,,,,crowd,aloud,red,31,39,81,1774.3451793994755,None,1774.3451793994755,None,6,2.0128027014434338,1774.3451793994755,None,1776.401184398681,None,1776.9319732990116,None,1776.9319732990116,None,r,0.9059257004410028,1776.9319732990116,None,,,color31,001,2022_Apr_01_1049,ProdSingRedo,3.2.3,59.98332487182604,
,,,,32,0,32,0,,,,,,,,,,,,,,,,,,,,,,,,1783.0462790001184,None,,,,,,,,,,,,,,,,,republic,new_sing,yellow,32,102,260,1778.4002815987915,None,1778.4002815987915,None,1,2.5261484999209642,1778.4002815987915,None,1780.975588399917,None,1781.4923563990742,None,1781.4923563990742,None,n,1.529372500255704,1781.4923563990742,None,,,color31,001,2022_Apr_01_1049,ProdSingRedo,3.2.3,59.98332487182604,
,,,,33,0,33,0,,,,,,,,,,,,,,,,,,,,,,,,1787.2044476997107,None,,,,,,,,,,,,,,,,,rural,aloud,red,33,32,269,1783.5657496992499,None,1783.5657496992499,None,6,1.9200839009135962,1783.5657496992499,None,1785.5450136996806,None,1786.0536853987724,None,1786.0536853987724,None,r,1.1123027987778187,1786.0536853987724,None,,,color31,001,2022_Apr_01_1049,ProdSingRedo,3.2.3,59.98332487182604,
,,,,34,0,34,0,,,,,,,,,,,,,,,,,,,,,,,,1797.09596609883,None,,,,,,,,,,,,,,,,,mankind,new_silent,blue,34,165,178,1787.7326269000769,None,1787.7326269000769,None,1,7.161219500005245,1787.7326269000769,None,1794.9148829989135,None,1795.4394832998514,None,1795.4394832998514,None,n,1.638289401307702,1795.4394832998514,None,,,color31,001,2022_Apr_01_1049,ProdSingRedo,3.2.3,59.98332487182604,
,,,,35,0,35,0,,,,,,,,,,,,,,,,,,,,,,,,1802.8719066996127,None,,,,,,,,,,,,,,,,,level,new_aloud,red,35,143,170,1797.6040444988757,None,1797.6040444988757,None,1,3.7934907004237175,1797.6040444988757,None,1801.4306904003024,None,1801.94547569938,None,1801.94547569938,None,n,0.8923730999231339,1801.94547569938,None,,,color31,001,2022_Apr_01_1049,ProdSingRedo,3.2.3,59.98332487182604,
,,,,36,0,36,0,,,,,,,,,,,,,,,,,,,,,,,,1810.089206699282,None,,,,,,,,,,,,,,,,,staff,new_silent,blue,36,159,301,1803.39436510019,None,1803.39436510019,None,4,4.315606899559498,1803.39436510019,None,1807.7496966999024,None,1808.2744929995388,None,1808.2744929995388,None,n,1.7877523005008698,1808.2744929995388,None,,,color31,001,2022_Apr_01_1049,ProdSingRedo,3.2.3,59.98332487182604,
,,,,37,0,37,0,,,,,,,,,,,,,,,,,,,,,,,,1821.3729084990919,None,,,,,,,,,,,,,,,,,payment,silent,blue,37,77,215,1810.6165263988078,None,1810.6165263988078,None,2,8.805064300075173,1810.6165263988078,None,1819.4629122000188,None,1819.9636512994766,None,1819.9636512994766,None,n,1.3781940005719662,1819.9636512994766,None,,,color31,001,2022_Apr_01_1049,ProdSingRedo,3.2.3,59.98332487182604,
,,,,38,0,38,0,,,,,,,,,,,,,,,,,,,,,,,,1827.8319482002407,None,,,,,,,,,,,,,,,,,service,sing,yellow,38,15,280,1821.8999573998153,None,1821.8999573998153,None,5,3.2981170006096363,1821.8999573998153,None,1825.2388223987073,None,1825.7466403003782,None,1825.7466403003782,None,f,2.0671300999820232,1825.7466403003782,None,,,color31,001,2022_Apr_01_1049,ProdSingRedo,3.2.3,59.98332487182604,
,,,,39,0,39,0,,,,,,,,,,,,,,,,,,,,,,,,1832.0739711988717,None,,,,,,,,,,,,,,,,,profession,new_sing,yellow,39,93,241,1828.3503690995276,None,1828.3503690995276,None,1,2.6234340015798807,1828.3503690995276,None,1831.0296342000365,None,1831.5303808003664,None,1831.5303808003664,None,n,0.5162197984755039,1831.5303808003664,None,,,color31,001,2022_Apr_01_1049,ProdSingRedo,3.2.3,59.98332487182604,
,,,,40,0,40,0,,,,,,,,,,,,,,,,,,,,,,,,1836.7087561003864,None,,,,,,,,,,,,,,,,,direction,new_silent,blue,40,157,94,1832.5968455988914,None,1832.5968455988914,None,5,2.3290033992379904,1832.5968455988914,None,1834.9752750992775,None,1835.492272298783,None,1835.492272298783,None,f,1.177751300856471,1835.492272298783,None,,,color31,001,2022_Apr_01_1049,ProdSingRedo,3.2.3,59.98332487182604,
,,,,41,0,41,0,,,,,,,,,,,,,,,,,,,,,,,,1841.8818253986537,None,,,,,,,,,,,,,,,,,month,new_sing,yellow,41,114,193,1837.2292228993028,None,1837.2292228993028,None,1,2.736887201666832,1837.2292228993028,None,1839.9977317992598,None,1840.5077090002596,None,1840.5077090002596,None,n,1.3457502014935017,1840.5077090002596,None,,,color31,001,2022_Apr_01_1049,ProdSingRedo,3.2.3,59.98332487182604,
,,,,42,0,42,0,,,,,,,,,,,,,,,,,,,,,,,,1846.7086846996099,None,,,,,,,,,,,,,,,,,route,new_aloud,red,42,132,267,1842.3868984989822,None,1842.3868984989822,None,1,2.962770599871874,1842.3868984989822,None,1845.3808395992965,None,1845.88147640042,None,1845.88147640042,None,n,0.7962900996208191,1845.88147640042,None,,,color31,001,2022_Apr_01_1049,ProdSingRedo,3.2.3,59.98332487182604,
,,,,43,0,43,0,,,,,,,,,,,,,,,,,,,,,,,,1850.9671190995723,None,,,,,,,,,,,,,,,,,season,sing,yellow,43,7,277,1847.2343176994473,None,1847.2343176994473,None,6,2.643366100266576,1847.2343176994473,None,1849.9008064996451,None,1850.4087208993733,None,1850.4087208993733,None,r,0.5407126005738974,1850.4087208993733,None,,,color31,001,2022_Apr_01_1049,ProdSingRedo,3.2.3,59.98332487182604,
,,,,44,0,44,0,,,,,,,,,,,,,,,,,,,,,,,,1858.4414317999035,None,,,,,,,,,,,,,,,,,science,silent,blue,44,81,275,1851.4825221989304,None,1851.4825221989304,None,3,5.283318301662803,1851.4825221989304,None,1856.8050795998424,None,1857.324214199558,None,1857.324214199558,None,n,1.0816180985420942,1857.324214199558,None,,,color31,001,2022_Apr_01_1049,ProdSingRedo,3.2.3,59.98332487182604,
,,,,45,0,45,0,,,,,,,,,,,,,,,,,,,,,,,,1864.3086054995656,None,,,,,,,,,,,,,,,,,symbol,aloud,red,45,35,321,1858.9748455993831,None,1858.9748455993831,None,3,4.2071811985224485,1858.9748455993831,None,1863.2197604998946,None,1863.7491760998964,None,1863.7491760998964,None,n,0.5205429010093212,1863.7491760998964,None,,,color31,001,2022_Apr_01_1049,ProdSingRedo,3.2.3,59.98332487182604,
,,,,46,0,46,0,,,,,,,,,,,,,,,,,,,,,,,,1869.1596182994545,None,,,,,,,,,,,,,,,,,exchange,new_silent,blue,46,171,121,1864.8268259987235,None,1864.8268259987235,None,5,2.675042599439621,1864.8268259987235,None,1867.5409788992256,None,1868.0647331997752,None,1868.0647331997752,None,n,1.0691451001912355,1868.0647331997752,None,,,color31,001,2022_Apr_01_1049,ProdSingRedo,3.2.3,59.98332487182604,
,,,,47,0,47,0,,,,,,,,,,,,,,,,,,,,,,,,1880.426084998995,None,,,,,,,,,,,,,,,,,speech,new_sing,yellow,47,95,298,1869.6798183992505,None,1869.6798183992505,None,5,9.310001000761986,1869.6798183992505,None,1879.0377126000822,None,1879.5604151003063,None,1879.5604151003063,None,f,0.8293459992855787,1879.5604151003063,None,,,color31,001,2022_Apr_01_1049,ProdSingRedo,3.2.3,59.98332487182604,
,,,,48,0,48,0,,,,,,,,,,,,,,,,,,,,,,,,1886.353106899187,None,,,,,,,,,,,,,,,,,sight,new_silent,blue,48,150,286,1880.9491732995957,None,1880.9491732995957,None,4,3.512592600658536,1880.9491732995957,None,1884.5082491990179,None,1885.0300372987986,None,1885.0300372987986,None,f,1.3034549988806248,1885.0300372987986,None,,,color31,001,2022_Apr_01_1049,ProdSingRedo,3.2.3,59.98332487182604,
,,,,49,0,49,0,,,,,,,,,,,,,,,,,,,,,,,,1895.394968399778,None,,,,,,,,,,,,,,,,,finance,new_silent,blue,49,161,129,1886.871444799006,None,1886.871444799006,None,6,3.598386300727725,1886.871444799006,None,1890.5109464991838,None,1891.0353670995682,None,1891.0353670995682,None,f,4.3225244004279375,1891.0353670995682,None,,,color31,001,2022_Apr_01_1049,ProdSingRedo,3.2.3,59.98332487182604,
,,,,50,0,50,0,,,,,,,,,,,,,,,,,,,,,,,,1900.454103698954,None,,,,,,,,,,,,,,,,,sweet,new_silent,blue,50,177,319,1895.9158401992172,None,1895.9158401992172,None,5,2.9861909989267588,1895.9158401992172,None,1898.94120339863,None,1899.464727198705,None,1899.464727198705,None,f,0.9488642998039722,1899.464727198705,None,,,color31,001,2022_Apr_01_1049,ProdSingRedo,3.2.3,59.98332487182604,
,,,,51,0,51,0,,,,,,,,,,,,,,,,,,,,,,,,1910.1452920995653,None,,,,,,,,,,,,,,,,,length,new_aloud,red,51,125,169,1900.980682099238,None,1900.980682099238,None,2,6.160942401736975,1900.980682099238,None,1907.1992339994758,None,1907.7110465001315,None,1907.7110465001315,None,n,2.4071981012821198,1907.7110465001315,None,,,color31,001,2022_Apr_01_1049,ProdSingRedo,3.2.3,59.98332487182604,
,,,,52,0,52,0,,,,,,,,,,,,,,,,,,,,,,,,1915.0470818988979,None,,,,,,,,,,,,,,,,,contract,silent,blue,52,78,68,1910.6709333993495,None,1910.6709333993495,None,3,2.734484199434519,1910.6709333993495,None,1913.4425175003707,None,1913.9526592995971,None,1913.9526592995971,None,n,1.0689821001142263,1913.9526592995971,None,,,color31,001,2022_Apr_01_1049,ProdSingRedo,3.2.3,59.98332487182604,
,,,,53,0,53,0,,,,,,,,,,,,,,,,,,,,,,,,1918.1462735999376,None,,,,,,,,,,,,,,,,,clean,new_silent,blue,53,174,51,1915.5603714995086,None,1915.5603714995086,None,1,1.621272200718522,1915.5603714995086,None,1917.2273241002113,None,1917.7508124001324,None,1917.7508124001324,None,n,0.36731719970703125,1917.7508124001324,None,,,color31,001,2022_Apr_01_1049,ProdSingRedo,3.2.3,59.98332487182604,
,,,,54,0,54,0,,,,,,,,,,,,,,,,,,,,,,,,1923.0296852998435,None,,,,,,,,,,,,,,,,,impact,new_sing,yellow,54,98,157,1918.6718568988144,None,1918.6718568988144,None,2,2.9818059001117945,1918.6718568988144,None,1921.6896949987859,None,1922.2166703995317,None,1922.2166703995317,None,n,0.7809239998459816,1922.2166703995317,None,,,color31,001,2022_Apr_01_1049,ProdSingRedo,3.2.3,59.98332487182604,
,,,,55,0,55,0,,,,,,,,,,,,,,,,,,,,,,,,1927.5835286993533,None,,,,,,,,,,,,,,,,,broad,sing,yellow,55,3,31,1923.5566645991057,None,1923.5566645991057,None,6,2.4249884001910686,1923.5566645991057,None,1926.0293455999345,None,1926.548680499196,None,1926.548680499196,None,r,1.0011995993554592,1926.548680499196,None,,,color31,001,2022_Apr_01_1049,ProdSingRedo,3.2.3,59.98332487182604,
,,,,56,0,56,0,,,,,,,,,,,,,,,,,,,,,,,,1931.3645792994648,None,,,,,,,,,,,,,,,,,orchestra,new_sing,yellow,56,108,206,1928.1039998997003,None,1928.1039998997003,None,1,1.9497434012591839,1928.1039998997003,None,1930.090283298865,None,1930.6170543003827,None,1930.6170543003827,None,n,0.7084769010543823,1930.6170543003827,None,,,color31,001,2022_Apr_01_1049,ProdSingRedo,3.2.3,59.98332487182604,
,,,,57,0,57,0,,,,,,,,,,,,,,,,,,,,,,,,1937.063702300191,None,,,,,,,,,,,,,,,,,population,new_sing,yellow,57,100,227,1931.888014798984,None,1931.888014798984,None,1,2.8855763003230095,1931.888014798984,None,1934.826630299911,None,1935.358269000426,None,1935.358269000426,None,n,1.679525999352336,1935.358269000426,None,,,color31,001,2022_Apr_01_1049,ProdSingRedo,3.2.3,59.98332487182604,
,,,,58,0,58,0,,,,,,,,,,,,,,,,,,,,,,,,1941.2148249987513,None,,,,,,,,,,,,,,,,,trash,new_sing,yellow,58,109,337,1937.5865550003946,None,1937.5865550003946,None,1,1.4673878997564316,1937.5865550003946,None,1939.0903034992516,None,1939.619806099683,None,1939.619806099683,None,n,1.5700592007488012,1939.619806099683,None,,,color31,001,2022_Apr_01_1049,ProdSingRedo,3.2.3,59.98332487182604,
,,,,59,0,59,0,,,,,,,,,,,,,,,,,,,,,,,,1946.4318786989897,None,,,,,,,,,,,,,,,,,report,sing,yellow,59,26,259,1941.735789500177,None,1941.735789500177,None,6,2.2218698002398014,1941.735789500177,None,1944.0052102003247,None,1944.514301000163,None,1944.514301000163,None,r,1.891423398628831,1944.514301000163,None,,,color31,001,2022_Apr_01_1049,ProdSingRedo,3.2.3,59.98332487182604,
,,,,60,0,60,0,,,,,,,,,,,,,,,,,,,,,,,,1951.481151400134,None,,,,,,,,,,,,,,,,,drink,new_silent,blue,60,160,105,1946.9556456003338,None,1946.9556456003338,None,5,2.9775865003466606,1946.9556456003338,None,1949.960536699742,None,1950.4819734990597,None,1950.4819734990597,None,f,0.9636931996792555,1950.4819734990597,None,,,color31,001,2022_Apr_01_1049,ProdSingRedo,3.2.3,59.98332487182604,
,,,,61,0,61,0,,,,,,,,,,,,,,,,,,,,,,,,1956.5988139994442,None,,,,,,,,,,,,,,,,,treatment,silent,blue,61,75,339,1952.0087604001164,None,1952.0087604001164,None,4,3.532837400212884,1952.0087604001164,None,1955.5826516002417,None,1956.10307719931,None,1956.10307719931,None,f,0.46251749992370605,1956.10307719931,None,,,color31,001,2022_Apr_01_1049,ProdSingRedo,3.2.3,59.98332487182604,
,,,,62,0,62,0,,,,,,,,,,,,,,,,,,,,,,,,1963.3654950987548,None,,,,,,,,,,,,,,,,,swift,new_aloud,red,62,144,320,1957.1281732991338,None,1957.1281732991338,None,2,3.677429599687457,1957.1281732991338,None,1960.857008298859,None,1961.3751662988216,None,1961.3751662988216,None,n,1.950458200648427,1961.3751662988216,None,,,color31,001,2022_Apr_01_1049,ProdSingRedo,3.2.3,59.98332487182604,
,,,,63,0,63,0,,,,,,,,,,,,,,,,,,,,,,,,1968.7327714990824,None,,,,,,,,,,,,,,,,,bitter,aloud,red,63,59,23,1963.889949299395,None,1963.889949299395,None,1,3.299659499898553,1963.889949299395,None,1967.2252925988287,None,1967.757001100108,None,1967.757001100108,None,n,0.9447729997336864,1967.757001100108,None,,,color31,001,2022_Apr_01_1049,ProdSingRedo,3.2.3,59.98332487182604,
,,,,64,0,64,0,,,,,,,,,,,,,,,,,,,,,,,,2017.1690614987165,None,,,,,,,,,,,,,,,,,member,new_sing,yellow,64,90,188,1969.2596370000392,None,1969.2596370000392,None,2,45.985886201262474,1969.2596370000392,None,2015.2835593987256,None,2015.8067864999175,None,2015.8067864999175,None,n,1.3355398997664452,2015.8067864999175,None,,,color31,001,2022_Apr_01_1049,ProdSingRedo,3.2.3,59.98332487182604,
,,,,65,0,65,0,,,,,,,,,,,,,,,,,,,,,,,,2021.7866594996303,None,,,,,,,,,,,,,,,,,burden,sing,yellow,65,8,36,2017.697078999132,None,2017.697078999132,None,1,3.412872700020671,2017.697078999132,None,2021.1526691000909,None,2021.6743320990354,None,2021.6743320990354,None,n,0.07505999878048897,2021.6743320990354,None,,,color31,001,2022_Apr_01_1049,ProdSingRedo,3.2.3,59.98332487182604,
,,,,66,0,66,0,,,,,,,,,,,,,,,,,,,,,,,,2026.2553115990013,None,,,,,,,,,,,,,,,,,session,new_sing,yellow,66,105,281,2022.3058745991439,None,2022.3058745991439,None,1,1.347555099055171,2022.3058745991439,None,2023.6981878001243,None,2024.2191121000797,None,2024.2191121000797,None,n,2.0024417992681265,2024.2191121000797,None,,,color31,001,2022_Apr_01_1049,ProdSingRedo,3.2.3,59.98332487182604,
,,,,67,0,67,0,,,,,,,,,,,,,,,,,,,,,,,,2029.886462699622,None,,,,,,,,,,,,,,,,,guide,silent,blue,67,85,147,2026.775219898671,None,2026.775219898671,None,5,2.47815060056746,2026.775219898671,None,2029.2959350999445,None,2029.8217489998788,None,2029.8217489998788,None,f,0.03976610116660595,2029.8217489998788,None,,,color31,001,2022_Apr_01_1049,ProdSingRedo,3.2.3,59.98332487182604,
,,,,68,0,68,0,,,,,,,,,,,,,,,,,,,,,,,,2034.6374246999621,None,,,,,,,,,,,,,,,,,motion,new_sing,yellow,68,110,194,2030.4084532987326,None,2030.4084532987326,None,1,2.748930899426341,2030.4084532987326,None,2033.1979914996773,None,2033.7105793990195,None,2033.7105793990195,None,n,0.8868816997855902,2033.7105793990195,None,,,color31,001,2022_Apr_01_1049,ProdSingRedo,3.2.3,59.98332487182604,
,,,,69,0,69,0,,,,,,,,,,,,,,,,,,,,,,,,2041.6557112988085,None,,,,,,,,,,,,,,,,,close,new_aloud,red,69,138,53,2035.1588661987334,None,2035.1588661987334,None,4,4.334881899878383,2035.1588661987334,None,2039.527380598709,None,2040.0363055001944,None,2040.0363055001944,None,f,1.5850491002202034,2040.0363055001944,None,,,color31,001,2022_Apr_01_1049,ProdSingRedo,3.2.3,59.98332487182604,
,,,,70,0,70,0,,,,,,,,,,,,,,,,,,,,,,,,2047.0548259001225,None,,,,,,,,,,,,,,,,,plane,sing,yellow,70,16,223,2042.181101700291,None,2042.181101700291,None,6,3.080470699816942,2042.181101700291,None,2045.3034201990813,None,2045.8234572000802,None,2045.8234572000802,None,r,1.1980776004493237,2045.8234572000802,None,,,color31,001,2022_Apr_01_1049,ProdSingRedo,3.2.3,59.98332487182604,
,,,,71,0,71,0,,,,,,,,,,,,,,,,,,,,,,,,2051.19262399897,None,,,,,,,,,,,,,,,,,management,new_silent,blue,71,176,177,2047.5897934995592,None,2047.5897934995592,None,5,2.2398643996566534,2047.5897934995592,None,2049.8717496003956,None,2050.397766498849,None,2050.397766498849,None,f,0.759791100397706,2050.397766498849,None,,,color31,001,2022_Apr_01_1049,ProdSingRedo,3.2.3,59.98332487182604,
,,,,72,0,72,0,,,,,,,,,,,,,,,,,,,,,,,,2054.895292500034,None,,,,,,,,,,,,,,,,,surprise,new_aloud,red,72,127,317,2051.7192406989634,None,2051.7192406989634,None,6,1.8220828007906675,2051.7192406989634,None,2053.5881210993975,None,2054.108610998839,None,2054.108610998839,None,r,0.7446902990341187,2054.108610998839,None,,,color31,001,2022_Apr_01_1049,ProdSingRedo,3.2.3,59.98332487182604,
,,,,73,0,73,0,,,,,,,,,,,,,,,,,,,,,,,,2059.623399399221,None,,,,,,,,,,,,,,,,,device,aloud,red,73,31,93,2055.413942899555,None,2055.413942899555,None,6,3.14340210147202,2055.413942899555,None,2058.6024569999427,None,2059.126192599535,None,2059.126192599535,None,r,0.46321249939501286,2059.126192599535,None,,,color31,001,2022_Apr_01_1049,ProdSingRedo,3.2.3,59.98332487182604,
,,,,74,0,74,0,,,,,,,,,,,,,,,,,,,,,,,,2064.6740704998374,None,,,,,,,,,,,,,,,,,center,aloud,red,74,48,44,2060.144720800221,None,2060.144720800221,None,5,3.172631800174713,2060.144720800221,None,2063.365239098668,None,2063.8889501001686,None,2063.8889501001686,None,f,0.7482663001865149,2063.8889501001686,None,,,color31,001,2022_Apr_01_1049,ProdSingRedo,3.2.3,59.98332487182604,
,,,,75,0,75,0,,,,,,,,,,,,,,,,,,,,,,,,2071.623782299459,None,,,,,,,,,,,,,,,,,society,new_sing,yellow,75,117,293,2065.1968972999603,None,2065.1968972999603,None,3,4.840411799028516,2065.1968972999603,None,2070.086798099801,None,2070.6113520003855,None,2070.6113520003855,None,n,0.977981299161911,2070.6113520003855,None,,,color31,001,2022_Apr_01_1049,ProdSingRedo,3.2.3,59.98332487182604,
,,,,76,0,76,0,,,,,,,,,,,,,,,,,,,,,,,,2078.9062565993518,None,,,,,,,,,,,,,,,,,material,new_sing,yellow,76,104,182,2072.1508651990443,None,2072.1508651990443,None,3,5.382596800103784,2072.1508651990443,None,2077.591970600188,None,2078.1153025999665,None,2078.1153025999665,None,n,0.754127299413085,2078.1153025999665,None,,,color31,001,2022_Apr_01_1049,ProdSingRedo,3.2.3,59.98332487182604,
,,,,77,0,77,0,,,,,,,,,,,,,,,,,,,,,,,,2086.640498198569,None,,,,,,,,,,,,,,,,,command,sing,yellow,77,0,60,2079.4331617988646,None,2079.4331617988646,None,3,5.3721340000629425,2079.4331617988646,None,2084.8567552994937,None,2085.3793786987662,None,2085.3793786987662,None,n,1.2261507008224726,2085.3793786987662,None,,,color31,001,2022_Apr_01_1049,ProdSingRedo,3.2.3,59.98332487182604,
,,,,78,0,78,0,,,,,,,,,,,,,,,,,,,,,,,,2090.8741030991077,None,,,,,,,,,,,,,,,,,comfort,new_silent,blue,78,178,59,2087.169837400317,None,2087.169837400317,None,4,2.2194241993129253,2087.169837400317,None,2089.444236299023,None,2089.9570961985737,None,2089.9570961985737,None,f,0.8882612008601427,2089.9570961985737,None,,,color31,001,2022_Apr_01_1049,ProdSingRedo,3.2.3,59.98332487182604,
,,,,79,0,79,0,,,,,,,,,,,,,,,,,,,,,,,,2099.90793729946,None,,,,,,,,,,,,,,,,,dozen,new_aloud,red,79,145,102,2091.4011885002255,None,2091.4011885002255,None,1,5.915941601619124,2091.4011885002255,None,2097.347469000146,None,2097.8632298000157,None,2097.8632298000157,None,n,2.0141752008348703,2097.8632298000157,None,,,color31,001,2022_Apr_01_1049,ProdSingRedo,3.2.3,59.98332487182604,
,,,,80,0,80,0,,,,,,,,,,,,,,,,,,,,,,,,2105.6088477987796,None,,,,,,,,,,,,,,,,,defeat,new_aloud,red,80,124,88,2100.4374645985663,None,2100.4374645985663,None,4,2.623936800286174,2100.4374645985663,None,2103.104163600132,None,2103.631176199764,None,2103.631176199764,None,f,1.9503346011042595,2103.631176199764,None,,,color31,001,2022_Apr_01_1049,ProdSingRedo,3.2.3,59.98332487182604,
,,,,81,0,81,0,,,,,,,,,,,,,,,,,,,,,,,,2109.563661199063,None,,,,,,,,,,,,,,,,,period,sing,yellow,81,12,217,2106.1310357991606,None,2106.1310357991606,None,6,1.8582648988813162,2106.1310357991606,None,2108.0358202997595,None,2108.5597299989313,None,2108.5597299989313,None,r,0.9735783003270626,2108.5597299989313,None,,,color31,001,2022_Apr_01_1049,ProdSingRedo,3.2.3,59.98332487182604,
,,,,82,0,82,0,,,,,,,,,,,,,,,,,,,,,,,,2114.2236486002803,None,,,,,,,,,,,,,,,,,ground,silent,blue,82,70,142,2110.083258599043,None,2110.083258599043,None,5,2.8504310995340347,2110.083258599043,None,2112.9737780001014,None,2113.4957582000643,None,2113.4957582000643,None,f,0.6935489997267723,2113.4957582000643,None,,,color31,001,2022_Apr_01_1049,ProdSingRedo,3.2.3,59.98332487182604,
,,,,83,0,83,0,,,,,,,,,,,,,,,,,,,,,,,,2121.1099558994174,None,,,,,,,,,,,,,,,,,public,new_sing,yellow,83,118,244,2114.7541045993567,None,2114.7541045993567,None,4,4.811401300132275,2114.7541045993567,None,2119.6035475991666,None,2120.1309847999364,None,2120.1309847999364,None,f,0.9541589003056288,2120.1309847999364,None,,,color31,001,2022_Apr_01_1049,ProdSingRedo,3.2.3,59.98332487182604,
,,,,84,0,84,0,,,,,,,,,,,,,,,,,,,,,,,,2127.193403299898,None,,,,,,,,,,,,,,,,,dance,silent,blue,84,89,84,2121.632427100092,None,2121.632427100092,None,4,2.3090221006423235,2121.632427100092,None,2123.994920199737,None,2124.5120743997395,None,2124.5120743997395,None,f,2.6537085995078087,2124.5120743997395,None,,,color31,001,2022_Apr_01_1049,ProdSingRedo,3.2.3,59.98332487182604,
,,,,85,0,85,0,,,,,,,,,,,,,,,,,,,,,,,,2133.1764199994504,None,,,,,,,,,,,,,,,,,scale,sing,yellow,85,1,272,2127.719298100099,None,2127.719298100099,None,5,3.9819914996623993,2127.719298100099,None,2131.742810100317,None,2132.2647324986756,None,2132.2647324986756,None,f,0.8766200002282858,2132.2647324986756,None,,,color31,001,2022_Apr_01_1049,ProdSingRedo,3.2.3,59.98332487182604,
,,,,86,0,86,0,,,,,,,,,,,,,,,,,,,,,,,,2137.586151499301,None,,,,,,,,,,,,,,,,,expansion,silent,blue,86,83,123,2133.7043220996857,None,2133.7043220996857,None,3,2.5728723015636206,2133.7043220996857,None,2136.3263301998377,None,2136.846093999222,None,2136.846093999222,None,n,0.7190789990127087,2136.846093999222,None,,,color31,001,2022_Apr_01_1049,ProdSingRedo,3.2.3,59.98332487182604,
,,,,87,0,87,0,,,,,,,,,,,,,,,,,,,,,,,,2144.063137099147,None,,,,,,,,,,,,,,,,,order,new_silent,blue,87,175,207,2138.1007556002587,None,2138.1007556002587,None,4,2.688433500006795,2138.1007556002587,None,2140.834440300241,None,2141.3427291996777,None,2141.3427291996777,None,f,2.686489598825574,2141.3427291996777,None,,,color31,001,2022_Apr_01_1049,ProdSingRedo,3.2.3,59.98332487182604,
,,,,88,0,88,0,,,,,,,,,,,,,,,,,,,,,,,,2149.3285031989217,None,,,,,,,,,,,,,,,,,waste,aloud,red,88,33,350,2144.5841178987175,None,2144.5841178987175,None,5,3.1011017989367247,2144.5841178987175,None,2147.726442798972,None,2148.246173499152,None,2148.246173499152,None,f,1.0553622990846634,2148.246173499152,None,,,color31,001,2022_Apr_01_1049,ProdSingRedo,3.2.3,59.98332487182604,
,,,,89,0,89,0,,,,,,,,,,,,,,,,,,,,,,,,2154.762336399406,None,,,,,,,,,,,,,,,,,dream,new_aloud,red,89,120,104,2149.853362798691,None,2149.853362798691,None,5,3.695753000676632,2149.853362798691,None,2153.587562398985,None,2154.1235264986753,None,2154.1235264986753,None,f,0.6102534998208284,2154.1235264986753,None,,,color31,001,2022_Apr_01_1049,ProdSingRedo,3.2.3,59.98332487182604,
,,,,90,0,90,0,,,,,,,,,,,,,,,,,,,,,,,,2158.0131764002144,None,,,,,,,,,,,,,,,,,graduate,new_aloud,red,90,146,141,2155.2906170003116,None,2155.2906170003116,None,1,1.8585489001125097,2155.2906170003116,None,2157.1935256998986,None,2157.719955800101,None,2157.719955800101,None,n,0.261260898783803,2157.719955800101,None,,,color31,001,2022_Apr_01_1049,ProdSingRedo,3.2.3,59.98332487182604,
,,,,91,0,91,0,,,,,,,,,,,,,,,,,,,,,,,,2161.9948308002204,None,,,,,,,,,,,,,,,,,display,silent,blue,91,82,98,2158.5310018993914,None,2158.5310018993914,None,4,1.986870501190424,2158.5310018993914,None,2160.5654178000987,None,2161.0814241003245,None,2161.0814241003245,None,f,0.8757697008550167,2161.0814241003245,None,,,color31,001,2022_Apr_01_1049,ProdSingRedo,3.2.3,59.98332487182604,
,,,,92,0,92,0,,,,,,,,,,,,,,,,,,,,,,,,2166.0295365992934,None,,,,,,,,,,,,,,,,,estate,aloud,red,92,40,119,2162.5209480989724,None,2162.5209480989724,None,1,2.5403559003025293,2162.5209480989724,None,2165.106397099793,None,2165.6325863990933,None,2165.6325863990933,None,n,0.36456070095300674,2165.6325863990933,None,,,color31,001,2022_Apr_01_1049,ProdSingRedo,3.2.3,59.98332487182604,
,,,,93,0,93,0,,,,,,,,,,,,,,,,,,,,,,,,2172.497599299997,None,,,,,,,,,,,,,,,,,people,sing,yellow,93,28,216,2166.5507516991347,None,2166.5507516991347,None,6,4.270433701574802,2166.5507516991347,None,2170.8577861003578,None,2171.3790576998144,None,2171.3790576998144,None,r,1.0819834992289543,2171.3790576998144,None,,,color31,001,2022_Apr_01_1049,ProdSingRedo,3.2.3,59.98332487182604,
,,,,94,0,94,0,,,,,,,,,,,,,,,,,,,,,,,,2178.246293598786,None,,,,,,,,,,,,,,,,,minute,aloud,red,94,52,192,2173.0210593994707,None,2173.0210593994707,None,5,4.2322904001921415,2173.0210593994707,None,2177.2928042989224,None,2177.818672899157,None,2177.818672899157,None,f,0.4026063997298479,2177.818672899157,None,,,color31,001,2022_Apr_01_1049,ProdSingRedo,3.2.3,59.98332487182604,
,,,,95,0,95,0,,,,,,,,,,,,,,,,,,,,,,,,2183.4981605000794,None,,,,,,,,,,,,,,,,,shape,new_sing,yellow,95,96,282,2178.77612509951,None,2178.77612509951,None,2,3.204974800348282,2178.77612509951,None,2182.032379798591,None,2182.5515493992716,None,2182.5515493992716,None,n,0.9177624005824327,2182.5515493992716,None,,,color31,001,2022_Apr_01_1049,ProdSingRedo,3.2.3,59.98332487182604,
,,,,96,0,96,0,,,,,,,,,,,,,,,,,,,,,,,,2188.982472099364,None,,,,,,,,,,,,,,,,,degree,silent,blue,96,66,89,2184.0223206002265,None,2184.0223206002265,None,6,2.7109731007367373,2184.0223206002265,None,2186.783033600077,None,2187.3016419000924,None,2187.3016419000924,None,r,1.647462198510766,2187.3016419000924,None,,,color31,001,2022_Apr_01_1049,ProdSingRedo,3.2.3,59.98332487182604,
,,,,97,0,97,0,,,,,,,,,,,,,,,,,,,,,,,,2193.0966254994273,None,,,,,,,,,,,,,,,,,century,aloud,red,97,38,45,2189.5085812993348,None,2189.5085812993348,None,6,2.568418599665165,2189.5085812993348,None,2192.118480699137,None,2192.6362752001733,None,2192.6362752001733,None,r,0.4249406009912491,2192.6362752001733,None,,,color31,001,2022_Apr_01_1049,ProdSingRedo,3.2.3,59.98332487182604,
,,,,98,0,98,0,,,,,,,,,,,,,,,,,,,,,,,,2197.0831880997866,None,,,,,,,,,,,,,,,,,poetry,aloud,red,98,41,225,2193.615620099008,None,2193.615620099008,None,5,2.509390501305461,2193.615620099008,None,2196.1791765987873,None,2196.699292199686,None,2196.699292199686,None,f,0.3542416002601385,2196.699292199686,None,,,color31,001,2022_Apr_01_1049,ProdSingRedo,3.2.3,59.98332487182604,
,,,,99,0,99,0,,,,,,,,,,,,,,,,,,,,,,,,2202.5840802993625,None,,,,,,,,,,,,,,,,,judge,sing,yellow,99,23,166,2197.6121357996017,None,2197.6121357996017,None,5,4.136931199580431,2197.6121357996017,None,2201.7958885990083,None,2202.3242606986314,None,2202.3242606986314,None,f,0.22484569996595383,2202.3242606986314,None,,,color31,001,2022_Apr_01_1049,ProdSingRedo,3.2.3,59.98332487182604,
,,,,100,0,100,0,,,,,,,,,,,,,,,,,,,,,,,,2206.865199899301,None,,,,,,,,,,,,,,,,,article,aloud,red,100,49,11,2203.1090583987534,None,2203.1090583987534,None,3,2.400066399946809,2203.1090583987534,None,2205.5637937989086,None,2206.0824995990843,None,2206.0824995990843,None,n,0.7553432006388903,2206.0824995990843,None,,,color31,001,2022_Apr_01_1049,ProdSingRedo,3.2.3,59.98332487182604,
,,,,101,0,101,0,,,,,,,,,,,,,,,,,,,,,,,,2212.782334400341,None,,,,,,,,,,,,,,,,,generation,sing,yellow,101,9,136,2207.393569599837,None,2207.393569599837,None,2,4.1315005999058485,2207.393569599837,None,2211.5853043999523,None,2212.1094051003456,None,2212.1094051003456,None,n,0.6396326012909412,2212.1094051003456,None,,,color31,001,2022_Apr_01_1049,ProdSingRedo,3.2.3,59.98332487182604,
,,,,102,0,102,0,,,,,,,,,,,,,,,,,,,,,,,,2216.4067052993923,None,,,,,,,,,,,,,,,,,problem,silent,blue,102,69,238,2213.3144278991967,None,2213.3144278991967,None,4,2.4342967998236418,2213.3144278991967,None,2215.774380499497,None,2216.2916678003967,None,2216.2916678003967,None,f,0.09723380021750927,2216.2916678003967,None,,,color31,001,2022_Apr_01_1049,ProdSingRedo,3.2.3,59.98332487182604,
,,,,103,0,103,0,,,,,,,,,,,,,,,,,,,,,,,,2220.0128916986287,None,,,,,,,,,,,,,,,,,appearance,silent,blue,103,79,10,2216.929557800293,None,2216.929557800293,None,1,1.8674032986164093,2216.929557800293,None,2218.839960999787,None,2219.3728467989713,None,2219.3728467989713,None,n,0.6165711004287004,2219.3728467989713,None,,,color31,001,2022_Apr_01_1049,ProdSingRedo,3.2.3,59.98332487182604,
,,,,104,0,104,0,,,,,,,,,,,,,,,,,,,,,,,,2226.4002040997148,None,,,,,,,,,,,,,,,,,concern,aloud,red,104,36,65,2220.535253798589,None,2220.535253798589,None,2,4.90959519892931,2220.535253798589,None,2225.482756199315,None,2225.9995023999363,None,2225.9995023999363,None,n,0.36560779996216297,2225.9995023999363,None,,,color31,001,2022_Apr_01_1049,ProdSingRedo,3.2.3,59.98332487182604,
,,,,105,0,105,0,,,,,,,,,,,,,,,,,,,,,,,,2229.2167336996645,None,,,,,,,,,,,,,,,,,brilliant,new_aloud,red,105,134,30,2226.928841000423,None,2226.928841000423,None,1,1.332218600437045,2226.928841000423,None,2228.3151044994593,None,2228.8413695003837,None,2228.8413695003837,None,n,0.3478692006319761,2228.8413695003837,None,,,color31,001,2022_Apr_01_1049,ProdSingRedo,3.2.3,59.98332487182604,
,,,,106,0,106,0,,,,,,,,,,,,,,,,,,,,,,,,2233.266289498657,None,,,,,,,,,,,,,,,,,clear,new_aloud,red,106,130,52,2229.7421652991325,None,2229.7421652991325,None,4,1.8549012001603842,2229.7421652991325,None,2231.6450478993356,None,2232.1740838997066,None,2232.1740838997066,None,n,1.0549942012876272,2232.1740838997066,None,,,color31,001,2022_Apr_01_1049,ProdSingRedo,3.2.3,59.98332487182604,
,,,,107,0,107,0,,,,,,,,,,,,,,,,,,,,,,,,2236.518284799531,None,,,,,,,,,,,,,,,,,thing,sing,yellow,107,11,328,2233.791343400255,None,2233.791343400255,None,1,1.8536897990852594,2233.791343400255,None,2235.697414498776,None,2236.219402000308,None,2236.219402000308,None,n,0.2736095990985632,2236.219402000308,None,,,color31,001,2022_Apr_01_1049,ProdSingRedo,3.2.3,59.98332487182604,
,,,,108,0,108,0,,,,,,,,,,,,,,,,,,,,,,,,2242.27602859959,None,,,,,,,,,,,,,,,,,military,new_aloud,red,108,141,190,2237.0426953993738,None,2237.0426953993738,None,2,4.434315700083971,2237.0426953993738,None,2241.5342137999833,None,2242.054908098653,None,2242.054908098653,None,n,0.18205839954316616,2242.054908098653,None,,,color31,001,2022_Apr_01_1049,ProdSingRedo,3.2.3,59.98332487182604,
,,,,109,0,109,0,,,,,,,,,,,,,,,,,,,,,,,,2247.0379417985678,None,,,,,,,,,,,,,,,,,build,new_silent,blue,109,179,35,2242.7947255987674,None,2242.7947255987674,None,4,1.9542148988693953,2242.7947255987674,None,2244.800066700205,None,2245.321921998635,None,2245.321921998635,None,n,1.6830052006989717,2245.321921998635,None,,,color31,001,2022_Apr_01_1049,ProdSingRedo,3.2.3,59.98332487182604,
,,,,110,0,110,0,,,,,,,,,,,,,,,,,,,,,,,,2252.2851227000356,None,,,,,,,,,,,,,,,,,running,aloud,red,110,51,268,2247.5687672998756,None,2247.5687672998756,None,1,3.620201898738742,2247.5687672998756,None,2251.2337239999324,None,2251.7589077986777,None,2251.7589077986777,None,n,0.49401869997382164,2251.7589077986777,None,,,color31,001,2022_Apr_01_1049,ProdSingRedo,3.2.3,59.98332487182604,
,,,,111,0,111,0,,,,,,,,,,,,,,,,,,,,,,,,2256.000868199393,None,,,,,,,,,,,,,,,,,mechanical,new_silent,blue,111,158,185,2252.80016740039,None,2252.80016740039,None,4,1.7887348998337984,2252.80016740039,None,2254.6390445996076,None,2255.1602862998843,None,2255.1602862998843,None,n,0.8046086002141237,2255.1602862998843,None,,,color31,001,2022_Apr_01_1049,ProdSingRedo,3.2.3,59.98332487182604,
,,,,112,0,112,0,,,,,,,,,,,,,,,,,,,,,,,,2259.7355345003307,None,,,,,,,,,,,,,,,,,chief,new_silent,blue,112,156,48,2256.5264555998147,None,2256.5264555998147,None,1,1.8385725002735853,2256.5264555998147,None,2258.4122898001224,None,2258.93593069911,None,2258.93593069911,None,n,0.7649994995445013,2258.93593069911,None,,,color31,001,2022_Apr_01_1049,ProdSingRedo,3.2.3,59.98332487182604,
,,,,113,0,113,0,,,,,,,,,,,,,,,,,,,,,,,,2265.3360175993294,None,,,,,,,,,,,,,,,,,skill,new_aloud,red,113,137,289,2260.2619294989854,None,2260.2619294989854,None,3,2.975016100332141,2260.2619294989854,None,2263.2851052992046,None,2263.803216699511,None,2263.803216699511,None,n,1.4977397006005049,2263.803216699511,None,,,color31,001,2022_Apr_01_1049,ProdSingRedo,3.2.3,59.98332487182604,
,,,,114,0,114,0,,,,,,,,,,,,,,,,,,,,,,,,2270.6858549993485,None,,,,,,,,,,,,,,,,,commercial,new_sing,yellow,114,97,61,2265.8638860993087,None,2265.8638860993087,None,2,3.909010199829936,2265.8638860993087,None,2269.815210700035,None,2270.3418463990092,None,2270.3418463990092,None,n,0.319268099963665,2270.3418463990092,None,,,color31,001,2022_Apr_01_1049,ProdSingRedo,3.2.3,59.98332487182604,
,,,,115,0,115,0,,,,,,,,,,,,,,,,,,,,,,,,2275.2527986001223,None,,,,,,,,,,,,,,,,,dispute,silent,blue,115,88,99,2271.213569998741,None,2271.213569998741,None,4,2.007438300177455,2271.213569998741,None,2273.261425599456,None,2273.774282500148,None,2273.774282500148,None,n,1.4467120002955198,2273.774282500148,None,,,color31,001,2022_Apr_01_1049,ProdSingRedo,3.2.3,59.98332487182604,
,,,,116,0,116,0,,,,,,,,,,,,,,,,,,,,,,,,2279.3362261988223,None,,,,,,,,,,,,,,,,,testimony,sing,yellow,116,21,325,2275.763134399429,None,2275.763134399429,None,6,2.114544501528144,2275.763134399429,None,2277.9219767991453,None,2278.4399845991284,None,2278.4399845991284,None,r,0.8609727993607521,2278.4399845991284,None,,,color31,001,2022_Apr_01_1049,ProdSingRedo,3.2.3,59.98332487182604,
,,,,117,0,117,0,,,,,,,,,,,,,,,,,,,,,,,,2282.819773999974,None,,,,,,,,,,,,,,,,,tragedy,new_sing,yellow,117,92,335,2279.8655638992786,None,2279.8655638992786,None,1,2.0754280015826225,2279.8655638992786,None,2281.9631158988923,None,2282.4918510001153,None,2282.4918510001153,None,n,0.29701999947428703,2282.4918510001153,None,,,color31,001,2022_Apr_01_1049,ProdSingRedo,3.2.3,59.98332487182604,
,,,,118,0,118,0,,,,,,,,,,,,,,,,,,,,,,,,2287.5706814993173,None,,,,,,,,,,,,,,,,,afternoon,aloud,red,118,55,3,2283.3464899994433,None,2283.3464899994433,None,2,3.4583925995975733,2283.3464899994433,None,2286.847494399175,None,2287.3808094002306,None,2287.3808094002306,None,n,0.15208590030670166,2287.3808094002306,None,,,color31,001,2022_Apr_01_1049,ProdSingRedo,3.2.3,59.98332487182604,
,,,,119,0,119,0,,,,,,,,,,,,,,,,,,,,,,,,2294.0553054995835,None,,,,,,,,,,,,,,,,,majority,silent,blue,119,60,176,2288.101041799411,None,2288.101041799411,None,3,4.128113500773907,2288.101041799411,None,2292.273525999859,None,2292.798277599737,None,2292.798277599737,None,n,1.231029300019145,2292.798277599737,None,,,color31,001,2022_Apr_01_1049,ProdSingRedo,3.2.3,59.98332487182604,
,,,,120,0,120,0,,,,,,,,,,,,,,,,,,,,,,,,2298.263147998601,None,,,,,,,,,,,,,,,,,charter,new_sing,yellow,120,113,47,2294.579515699297,None,2294.579515699297,None,1,2.1214963011443615,2294.579515699297,None,2296.755479199812,None,2297.2740944996476,None,2297.2740944996476,None,n,0.9625723008066416,2297.2740944996476,None,,,color31,001,2022_Apr_01_1049,ProdSingRedo,3.2.3,59.98332487182604,
,,,,121,0,121,0,,,,,,,,,,,,,,,,,,,,,,,,2302.842895699665,None,,,,,,,,,,,,,,,,,course,silent,blue,121,65,74,2298.781568000093,None,2298.781568000093,None,4,2.6872412990778685,2298.781568000093,None,2301.5175708997995,None,2302.0425677001476,None,2302.0425677001476,None,n,0.7547596003860235,2302.0425677001476,None,,,color31,001,2022_Apr_01_1049,ProdSingRedo,3.2.3,59.98332487182604,
,,,,122,0,122,0,,,,,,,,,,,,,,,,,,,,,,,,2306.6217141002417,None,,,,,,,,,,,,,,,,,couch,new_silent,blue,122,169,70,2303.3643848001957,None,2303.3643848001957,None,3,1.72918670065701,2303.3643848001957,None,2305.1358743999153,None,2305.645560098812,None,2305.645560098812,None,n,0.9433139991015196,2305.645560098812,None,,,color31,001,2022_Apr_01_1049,ProdSingRedo,3.2.3,59.98332487182604,
,,,,123,0,123,0,,,,,,,,,,,,,,,,,,,,,,,,2310.4739682991058,None,,,,,,,,,,,,,,,,,evidence,new_sing,yellow,123,94,120,2307.1510255988687,None,2307.1510255988687,None,1,1.942061299458146,2307.1510255988687,None,2309.1347195990384,None,2309.6604311000556,None,2309.6604311000556,None,n,0.7846307009458542,2309.6604311000556,None,,,color31,001,2022_Apr_01_1049,ProdSingRedo,3.2.3,59.98332487182604,
,,,,124,0,124,0,,,,,,,,,,,,,,,,,,,,,,,,2315.022636299953,None,,,,,,,,,,,,,,,,,partner,sing,yellow,124,6,211,2310.9992982987314,None,2310.9992982987314,None,3,2.7495946995913982,2310.9992982987314,None,2313.7845042999834,None,2314.3105468992144,None,2314.3105468992144,None,n,0.6866989005357027,2314.3105468992144,None,,,color31,001,2022_Apr_01_1049,ProdSingRedo,3.2.3,59.98332487182604,
,,,,125,0,125,0,,,,,,,,,,,,,,,,,,,,,,,,2321.6900053992867,None,,,,,,,,,,,,,,,,,drama,new_aloud,red,125,139,103,2315.5483318995684,None,2315.5483318995684,None,1,5.272573100402951,2315.5483318995684,None,2320.8739005997777,None,2321.3940462991595,None,2321.3940462991595,None,n,0.2672200985252857,2321.3940462991595,None,,,color31,001,2022_Apr_01_1049,ProdSingRedo,3.2.3,59.98332487182604,
,,,,126,0,126,0,,,,,,,,,,,,,,,,,,,,,,,,2326.088469699025,None,,,,,,,,,,,,,,,,,government,aloud,red,126,42,139,2322.219123799354,None,2322.219123799354,None,4,2.521720200777054,2322.219123799354,None,2324.7914716992527,None,2325.31138429977,None,2325.31138429977,None,f,0.7414510995149612,2325.31138429977,None,,,color31,001,2022_Apr_01_1049,ProdSingRedo,3.2.3,59.98332487182604,
,,,,127,0,127,0,,,,,,,,,,,,,,,,,,,,,,,,2331.9905954990536,None,,,,,,,,,,,,,,,,,height,sing,yellow,127,27,152,2326.617350598797,None,2326.617350598797,None,6,3.6754701994359493,2326.617350598797,None,2330.3385060001165,None,2330.8607608992606,None,2330.8607608992606,None,r,1.104322899132967,2330.8607608992606,None,,,color31,001,2022_Apr_01_1049,ProdSingRedo,3.2.3,59.98332487182604,
,,,,128,0,128,0,,,,,,,,,,,,,,,,,,,,,,,,2337.057989599183,None,,,,,,,,,,,,,,,,,collection,aloud,red,128,50,54,2332.514857199043,None,2332.514857199043,None,3,3.3536307010799646,2332.514857199043,None,2335.9022656995803,None,2336.416327100247,None,2336.416327100247,None,n,0.6130416002124548,2336.416327100247,None,,,color31,001,2022_Apr_01_1049,ProdSingRedo,3.2.3,59.98332487182604,
,,,,129,0,129,0,,,,,,,,,,,,,,,,,,,,,,,,2340.9733977988362,None,,,,,,,,,,,,,,,,,match,new_sing,yellow,129,111,181,2337.5833473000675,None,2337.5833473000675,None,1,2.605373799800873,2337.5833473000675,None,2340.239490199834,None,2340.7495865989476,None,2340.7495865989476,None,n,0.19122429937124252,2340.7495865989476,None,,,color31,001,2022_Apr_01_1049,ProdSingRedo,3.2.3,59.98332487182604,
,,,,130,0,130,0,,,,,,,,,,,,,,,,,,,,,,,,2346.6075123995543,None,,,,,,,,,,,,,,,,,salary,sing,yellow,130,4,271,2341.50421419926,None,2341.50421419926,None,1,3.964539499953389,2341.50421419926,None,2345.526419399306,None,2346.046487899497,None,2346.046487899497,None,n,0.5344078000634909,2346.046487899497,None,,,color31,001,2022_Apr_01_1049,ProdSingRedo,3.2.3,59.98332487182604,
,,,,131,0,131,0,,,,,,,,,,,,,,,,,,,,,,,,2350.190861798823,None,,,,,,,,,,,,,,,,,bicycle,sing,yellow,131,17,21,2347.135846098885,None,2347.135846098885,None,6,1.6689905002713203,2347.135846098885,None,2348.8558820988983,None,2349.3813965003937,None,2349.3813965003937,None,r,0.7752542998641729,2349.3813965003937,None,,,color31,001,2022_Apr_01_1049,ProdSingRedo,3.2.3,59.98332487182604,
,,,,132,0,132,0,,,,,,,,,,,,,,,,,,,,,,,,2353.2405683994293,None,,,,,,,,,,,,,,,,,candidate,new_aloud,red,132,135,39,2350.7166887000203,None,2350.7166887000203,None,1,1.832387000322342,2350.7166887000203,None,2352.5867219995707,None,2353.1139985993505,None,2353.1139985993505,None,n,0.09084809944033623,2353.1139985993505,None,,,color31,001,2022_Apr_01_1049,ProdSingRedo,3.2.3,59.98332487182604,
,,,,133,0,133,0,,,,,,,,,,,,,,,,,,,,,,,,2357.3416606001556,None,,,,,,,,,,,,,,,,,column,new_silent,blue,133,170,57,2353.7674883995205,None,2353.7674883995205,None,1,2.6455700006335974,2353.7674883995205,None,2356.450730299577,None,2356.9806599989533,None,2356.9806599989533,None,n,0.3361711986362934,2356.9806599989533,None,,,color31,001,2022_Apr_01_1049,ProdSingRedo,3.2.3,59.98332487182604,
,,,,134,0,134,0,,,,,,,,,,,,,,,,,,,,,,,,2362.941955599934,None,,,,,,,,,,,,,,,,,quantity,new_silent,blue,134,166,245,2357.88208379969,None,2357.88208379969,None,3,3.258662199601531,2357.88208379969,None,2361.1961071994156,None,2361.717337500304,None,2361.717337500304,None,n,1.1914710998535156,2361.717337500304,None,,,color31,001,2022_Apr_01_1049,ProdSingRedo,3.2.3,59.98332487182604,
,,,,135,0,135,0,,,,,,,,,,,,,,,,,,,,,,,,2366.527989000082,None,,,,,,,,,,,,,,,,,trail,new_silent,blue,135,162,336,2363.4690991993994,None,2363.4690991993994,None,1,2.231291400268674,2363.4690991993994,None,2365.7177277002484,None,2366.2337318994105,None,2366.2337318994105,None,n,0.2671860009431839,2366.2337318994105,None,,,color31,001,2022_Apr_01_1049,ProdSingRedo,3.2.3,59.98332487182604,
,,,,136,0,136,0,,,,,,,,,,,,,,,,,,,,,,,,2369.7914326991886,None,,,,,,,,,,,,,,,,,cousin,aloud,red,136,53,76,2367.051531199366,None,2367.051531199366,None,6,1.5852118991315365,2367.051531199366,None,2368.686523899436,None,2369.2113332003355,None,2369.2113332003355,None,r,0.5456232987344265,2369.2113332003355,None,,,color31,001,2022_Apr_01_1049,ProdSingRedo,3.2.3,59.98332487182604,
,,,,137,0,137,0,,,,,,,,,,,,,,,,,,,,,,,,2373.843076499179,None,,,,,,,,,,,,,,,,,store,new_silent,blue,137,167,305,2370.3132969997823,None,2370.3132969997823,None,3,2.6680060997605324,2370.3132969997823,None,2373.021355099976,None,2373.542080398649,None,2373.542080398649,None,f,0.26270619966089725,2373.542080398649,None,,,color31,001,2022_Apr_01_1049,ProdSingRedo,3.2.3,59.98332487182604,
,,,,138,0,138,0,,,,,,,,,,,,,,,,,,,,,,,,2379.559620199725,None,,,,,,,,,,,,,,,,,distance,silent,blue,138,64,100,2374.3689092993736,None,2374.3689092993736,None,4,4.3398224003612995,2374.3689092993736,None,2378.7599545996636,None,2379.2808916997164,None,2379.2808916997164,None,f,0.2437056005001068,2379.2808916997164,None,,,color31,001,2022_Apr_01_1049,ProdSingRedo,3.2.3,59.98332487182604,
,,,,139,0,139,0,,,,,,,,,,,,,,,,,,,,,,,,2383.1233335994184,None,,,,,,,,,,,,,,,,,benefit,new_silent,blue,139,154,20,2380.0913806986064,None,2380.0913806986064,None,2,2.2095145005732775,2380.0913806986064,None,2382.3410327993333,None,2382.867210900411,None,2382.867210900411,None,n,0.21782010048627853,2382.867210900411,None,,,color31,001,2022_Apr_01_1049,ProdSingRedo,3.2.3,59.98332487182604,
,,,,140,0,140,0,,,,,,,,,,,,,,,,,,,,,,,,2387.276550900191,None,,,,,,,,,,,,,,,,,production,silent,blue,140,73,240,2383.6535221002996,None,2383.6535221002996,None,4,2.0231376998126507,2383.6535221002996,None,2385.7271788995713,None,2386.2512130998075,None,2386.2512130998075,None,f,0.9855995010584593,2386.2512130998075,None,,,color31,001,2022_Apr_01_1049,ProdSingRedo,3.2.3,59.98332487182604,
,,,,141,0,141,0,,,,,,,,,,,,,,,,,,,,,,,,2390.393039500341,None,,,,,,,,,,,,,,,,,pattern,silent,blue,141,76,214,2387.803612899035,None,2387.803612899035,None,4,1.7691975012421608,2387.803612899035,None,2389.6244312003255,None,2390.1363814994693,None,2390.1363814994693,None,f,0.22043619863688946,2390.1363814994693,None,,,color31,001,2022_Apr_01_1049,ProdSingRedo,3.2.3,59.98332487182604,
,,,,142,0,142,0,,,,,,,,,,,,,,,,,,,,,,,,2395.0266803000122,None,,,,,,,,,,,,,,,,,growth,new_aloud,red,142,128,144,2390.9177096989006,None,2390.9177096989006,None,2,2.9350090008229017,2390.9177096989006,None,2393.89482379891,None,2394.415896899998,None,2394.415896899998,None,n,0.5727417003363371,2394.415896899998,None,,,color31,001,2022_Apr_01_1049,ProdSingRedo,3.2.3,59.98332487182604,
,,,,143,0,143,0,,,,,,,,,,,,,,,,,,,,,,,,2401.477663099766,None,,,,,,,,,,,,,,,,,resistance,aloud,red,143,46,262,2395.5420983992517,None,2395.5420983992517,None,2,4.358878398314118,2395.5420983992517,None,2399.9447141997516,None,2400.464506899938,None,2400.464506899938,None,n,0.9801385998725891,2400.464506899938,None,,,color31,001,2022_Apr_01_1049,ProdSingRedo,3.2.3,59.98332487182604,
,,,,144,0,144,0,,,,,,,,,,,,,,,,,,,,,,,,2406.0467758998275,None,,,,,,,,,,,,,,,,,quick,new_sing,yellow,144,112,248,2402.0058687999845,None,2402.0058687999845,None,1,2.0947222989052534,2402.0058687999845,None,2404.137334998697,None,2404.6352709997445,None,2404.6352709997445,None,n,1.3775676991790533,2404.6352709997445,None,,,color31,001,2022_Apr_01_1049,ProdSingRedo,3.2.3,59.98332487182604,
,,,,145,0,145,0,,,,,,,,,,,,,,,,,,,,,,,,2410.6631637997925,None,,,,,,,,,,,,,,,,,sleep,sing,yellow,145,2,290,2406.565787099302,None,2406.565787099302,None,1,2.8390151001513004,2406.565787099302,None,2409.453372899443,None,2409.9616049993783,None,2409.9616049993783,None,n,0.6752752996981144,2409.9616049993783,None,,,color31,001,2022_Apr_01_1049,ProdSingRedo,3.2.3,59.98332487182604,
,,,,146,0,146,0,,,,,,,,,,,,,,,,,,,,,,,,2414.0618527997285,None,,,,,,,,,,,,,,,,,foundation,sing,yellow,146,13,132,2411.1935518998653,None,2411.1935518998653,None,1,1.9077081996947527,2411.1935518998653,None,2413.145467599854,None,2413.6718213986605,None,2413.6718213986605,None,n,0.3648476991802454,2413.6718213986605,None,,,color31,001,2022_Apr_01_1049,ProdSingRedo,3.2.3,59.98332487182604,
,,,,147,0,147,0,,,,,,,,,,,,,,,,,,,,,,,,2417.1278969999403,None,,,,,,,,,,,,,,,,,cover,new_silent,blue,147,172,77,2414.5880567990243,None,2414.5880567990243,None,1,1.7131431009620428,2414.5880567990243,None,2416.3431202992797,None,2416.8625067994,None,2416.8625067994,None,n,0.23012440092861652,2416.8625067994,None,,,color31,001,2022_Apr_01_1049,ProdSingRedo,3.2.3,59.98332487182604,
,,,,148,0,148,0,,,,,,,,,,,,,,,,,,,,,,,,2420.8830049987882,None,,,,,,,,,,,,,,,,,youth,sing,yellow,148,5,359,2417.6559336986393,None,2417.6559336986393,None,6,1.7566676009446383,2417.6559336986393,None,2419.473087599501,None,2419.9832840003073,None,2419.9832840003073,None,r,0.8695457987487316,2419.9832840003073,None,,,color31,001,2022_Apr_01_1049,ProdSingRedo,3.2.3,59.98332487182604,
,,,,149,0,149,0,,,,,,,,,,,,,,,,,,,,,,,,2424.6471753995866,None,,,,,,,,,,,,,,,,,reach,silent,blue,149,67,253,2421.4054889995605,None,2421.4054889995605,None,3,1.999185798689723,2421.4054889995605,None,2423.438254998997,None,2423.9527544993907,None,2423.9527544993907,None,f,0.6680348999798298,2423.9527544993907,None,,,color31,001,2022_Apr_01_1049,ProdSingRedo,3.2.3,59.98332487182604,
,,,,150,0,150,0,,,,,,,,,,,,,,,,,,,,,,,,2427.7363563999534,None,,,,,,,,,,,,,,,,,design,new_silent,blue,150,151,91,2425.172480300069,None,2425.172480300069,None,5,1.8481783997267485,2425.172480300069,None,2427.0609577987343,None,2427.58506359905,None,2427.58506359905,None,f,0.11563139967620373,2427.58506359905,None,,,color31,001,2022_Apr_01_1049,ProdSingRedo,3.2.3,59.98332487182604,
,,,,151,0,151,0,,,,,,,,,,,,,,,,,,,,,,,,2430.612950500101,None,,,,,,,,,,,,,,,,,sunset,new_silent,blue,151,152,315,2428.2566770985723,None,2428.2566770985723,None,1,1.6439667008817196,2428.2566770985723,None,2429.9434651993215,None,2430.4665964003652,None,2430.4665964003652,None,n,0.11409670114517212,2430.4665964003652,None,,,color31,001,2022_Apr_01_1049,ProdSingRedo,3.2.3,59.98332487182604,
,,,,152,0,152,0,,,,,,,,,,,,,,,,,,,,,,,,2436.196099899709,None,,,,,,,,,,,,,,,,,universal,new_sing,yellow,152,106,345,2431.144078399986,None,2431.144078399986,None,1,3.2448095995932817,2431.144078399986,None,2434.435327500105,None,2434.959191799164,None,2434.959191799164,None,n,1.1974976994097233,2434.959191799164,None,,,color31,001,2022_Apr_01_1049,ProdSingRedo,3.2.3,59.98332487182604,
,,,,153,0,153,0,,,,,,,,,,,,,,,,,,,,,,,,2440.9973555989563,None,,,,,,,,,,,,,,,,,interior,new_sing,yellow,153,91,164,2436.718640798703,None,2436.718640798703,None,1,1.622000701725483,2436.718640798703,None,2438.3921964988112,None,2438.9114512000233,None,2438.9114512000233,None,n,2.0531967990100384,2438.9114512000233,None,,,color31,001,2022_Apr_01_1049,ProdSingRedo,3.2.3,59.98332487182604,
,,,,154,0,154,0,,,,,,,,,,,,,,,,,,,,,,,,2448.8647005986422,None,,,,,,,,,,,,,,,,,count,aloud,red,154,47,72,2441.521897898987,None,2441.521897898987,None,3,4.610776899382472,2441.521897898987,None,2446.175955399871,None,2446.700657900423,None,2446.700657900423,None,n,2.1280259992927313,2446.700657900423,None,,,color31,001,2022_Apr_01_1049,ProdSingRedo,3.2.3,59.98332487182604,
,,,,155,0,155,0,,,,,,,,,,,,,,,,,,,,,,,,2457.7648930996656,None,,,,,,,,,,,,,,,,,enemy,new_sing,yellow,155,115,113,2449.3855517990887,None,2449.3855517990887,None,3,4.427208300679922,2449.3855517990887,None,2453.8572522997856,None,2454.382891599089,None,2454.382891599089,None,f,3.357591500505805,2454.382891599089,None,,,color31,001,2022_Apr_01_1049,ProdSingRedo,3.2.3,59.98332487182604,
,,,,156,0,156,0,,,,,,,,,,,,,,,,,,,,,,,,2462.047576298937,None,,,,,,,,,,,,,,,,,story,sing,yellow,156,14,306,2458.2882556002587,None,2458.2882556002587,None,3,2.7642780002206564,2458.2882556002587,None,2461.09033370018,None,2461.601130899042,None,2461.601130899042,None,f,0.41146920062601566,2461.601130899042,None,,,color31,001,2022_Apr_01_1049,ProdSingRedo,3.2.3,59.98332487182604,
,,,,157,0,157,0,,,,,,,,,,,,,,,,,,,,,,,,2467.5312331989408,None,,,,,,,,,,,,,,,,,block,sing,yellow,157,22,25,2462.5747394002974,None,2462.5747394002974,None,6,3.5016670003533363,2462.5747394002974,None,2466.133983699605,None,2466.652724198997,None,2466.652724198997,None,r,0.8398157991468906,2466.652724198997,None,,,color31,001,2022_Apr_01_1049,ProdSingRedo,3.2.3,59.98332487182604,
,,,,158,0,158,0,,,,,,,,,,,,,,,,,,,,,,,,2472.099268298596,None,,,,,,,,,,,,,,,,,working,new_sing,yellow,158,107,357,2468.052349500358,None,2468.052349500358,None,2,2.552506498992443,2468.052349500358,None,2470.6556438989937,None,2471.180897500366,None,2471.180897500366,None,n,0.8878176007419825,2471.180897500366,None,,,color31,001,2022_Apr_01_1049,ProdSingRedo,3.2.3,59.98332487182604,
,,,,159,0,159,0,,,,,,,,,,,,,,,,,,,,,,,,2476.1828322988003,None,,,,,,,,,,,,,,,,,shock,sing,yellow,159,29,284,2472.624081099406,None,2472.624081099406,None,6,2.7647369001060724,2472.624081099406,None,2475.425701400265,None,2475.950935298577,None,2475.950935298577,None,r,0.1975585985928774,2475.950935298577,None,,,color31,001,2022_Apr_01_1049,ProdSingRedo,3.2.3,59.98332487182604,
,,,,160,0,160,0,,,,,,,,,,,,,,,,,,,,,,,,2480.933525700122,None,,,,,,,,,,,,,,,,,notice,new_sing,yellow,160,101,201,2476.704521900043,None,2476.704521900043,None,1,2.6281042005866766,2476.704521900043,None,2479.377996498719,None,2479.9003675002605,None,2479.9003675002605,None,n,1.008406599983573,2479.9003675002605,None,,,color31,001,2022_Apr_01_1049,ProdSingRedo,3.2.3,59.98332487182604,
,,,,161,0,161,0,,,,,,,,,,,,,,,,,,,,,,,,2484.317690199241,None,,,,,,,,,,,,,,,,,prime,new_aloud,red,161,121,235,2481.452387999743,None,2481.452387999743,None,1,1.8882122989743948,2481.452387999743,None,2483.3742401003838,None,2483.882486499846,None,2483.882486499846,None,n,0.40999930165708065,2483.882486499846,None,,,color31,001,2022_Apr_01_1049,ProdSingRedo,3.2.3,59.98332487182604,
,,,,162,0,162,0,,,,,,,,,,,,,,,,,,,,,,,,2488.518202599138,None,,,,,,,,,,,,,,,,,patient,new_aloud,red,162,126,213,2484.8427176997066,None,2484.8427176997066,None,4,2.6098622009158134,2484.8427176997066,None,2487.4941494986415,None,2488.020496999845,None,2488.020496999845,None,f,0.46405440010130405,2488.020496999845,None,,,color31,001,2022_Apr_01_1049,ProdSingRedo,3.2.3,59.98332487182604,
,,,,163,0,163,0,,,,,,,,,,,,,,,,,,,,,,,,2493.6708859987557,None,,,,,,,,,,,,,,,,,express,silent,blue,163,84,124,2489.038447799161,None,2489.038447799161,None,1,3.213886998593807,2489.038447799161,None,2492.2823533993214,None,2492.8042631987482,None,2492.8042631987482,None,n,0.8323641009628773,2492.8042631987482,None,,,color31,001,2022_Apr_01_1049,ProdSingRedo,3.2.3,59.98332487182604,
,,,,164,0,164,0,,,,,,,,,,,,,,,,,,,,,,,,2496.635621299967,None,,,,,,,,,,,,,,,,,search,silent,blue,164,87,276,2494.192614099011,None,2494.192614099011,None,4,1.6678641010075808,2494.192614099011,None,2495.918939098716,None,2496.437232799828,None,2496.437232799828,None,f,0.1593686006963253,2496.437232799828,None,,,color31,001,2022_Apr_01_1049,ProdSingRedo,3.2.3,59.98332487182604,
,,,,165,0,165,0,,,,,,,,,,,,,,,,,,,,,,,,2499.9212804995477,None,,,,,,,,,,,,,,,,,birth,new_sing,yellow,165,116,22,2497.1594823002815,None,2497.1594823002815,None,1,1.8689910005778074,2497.1594823002815,None,2499.081297999248,None,2499.6021870989352,None,2499.6021870989352,None,n,0.2904087007045746,2499.6021870989352,None,,,color31,001,2022_Apr_01_1049,ProdSingRedo,3.2.3,59.98332487182604,
,,,,166,0,166,0,,,,,,,,,,,,,,,,,,,,,,,,2507.319772399962,None,,,,,,,,,,,,,,,,,victory,sing,yellow,166,10,346,2500.447115899995,None,2500.447115899995,None,4,5.9413094986230135,2500.447115899995,None,2506.4348692987114,None,2506.9542787000537,None,2506.9542787000537,None,f,0.33823930099606514,2506.9542787000537,None,,,color31,001,2022_Apr_01_1049,ProdSingRedo,3.2.3,59.98332487182604,
,,,,167,0,167,0,,,,,,,,,,,,,,,,,,,,,,,,2512.0856064986438,None,,,,,,,,,,,,,,,,,measure,aloud,red,167,58,184,2507.847376799211,None,2507.847376799211,None,5,2.804993899539113,2507.847376799211,None,2510.7062379997224,None,2511.2262300997972,None,2511.2262300997972,None,f,0.8343999981880188,2511.2262300997972,None,,,color31,001,2022_Apr_01_1049,ProdSingRedo,3.2.3,59.98332487182604,
,,,,168,0,168,0,,,,,,,,,,,,,,,,,,,,,,,,2518.4015209991485,None,,,,,,,,,,,,,,,,,pretty,silent,blue,168,68,233,2512.6102105993778,None,2512.6102105993778,None,3,3.9942114017903805,2512.6102105993778,None,2516.644029598683,None,2517.15480109863,None,2517.15480109863,None,f,1.209749599918723,2517.15480109863,None,,,color31,001,2022_Apr_01_1049,ProdSingRedo,3.2.3,59.98332487182604,
,,,,169,0,169,0,,,,,,,,,,,,,,,,,,,,,,,,2524.4816669002175,None,,,,,,,,,,,,,,,,,still,aloud,red,169,57,304,2518.922857299447,None,2518.922857299447,None,3,4.138040700927377,2518.922857299447,None,2523.0944506991655,None,2523.601975299418,None,2523.601975299418,None,n,0.8502123989164829,2523.601975299418,None,,,color31,001,2022_Apr_01_1049,ProdSingRedo,3.2.3,59.98332487182604,
,,,,170,0,170,0,,,,,,,,,,,,,,,,,,,,,,,,2531.5030444990844,None,,,,,,,,,,,,,,,,,provision,aloud,red,170,37,243,2524.995584798977,None,2524.995584798977,None,3,4.5369770005345345,2524.995584798977,None,2529.5860350988805,None,2530.108300399035,None,2530.108300399035,None,n,1.360121000558138,2530.108300399035,None,,,color31,001,2022_Apr_01_1049,ProdSingRedo,3.2.3,59.98332487182604,
,,,,171,0,171,0,,,,,,,,,,,,,,,,,,,,,,,,2538.1618370004,None,,,,,,,,,,,,,,,,,point,new_aloud,red,171,140,226,2532.024749599397,None,2532.024749599397,None,2,5.084547899663448,2532.024749599397,None,2537.147836899385,None,2537.6679213996977,None,2537.6679213996977,None,n,0.4642110988497734,2537.6679213996977,None,,,color31,001,2022_Apr_01_1049,ProdSingRedo,3.2.3,59.98332487182604,
,,,,172,0,172,0,,,,,,,,,,,,,,,,,,,,,,,,2541.2627402003855,None,,,,,,,,,,,,,,,,,instrument,new_silent,blue,172,153,163,2538.6814598999918,None,2538.6814598999918,None,1,1.6909507010132074,2538.6814598999918,None,2540.4142978992313,None,2540.942359799519,None,2540.942359799519,None,n,0.302012100815773,2540.942359799519,None,,,color31,001,2022_Apr_01_1049,ProdSingRedo,3.2.3,59.98332487182604,
,,,,173,0,173,0,,,,,,,,,,,,,,,,,,,,,,,,2546.012886699289,None,,,,,,,,,,,,,,,,,guard,new_sing,yellow,173,103,145,2541.7941103000194,None,2541.7941103000194,None,1,2.962483000010252,2541.7941103000194,None,2544.8043347988278,None,2545.32324180007,None,2545.32324180007,None,n,0.6648335997015238,2545.32324180007,None,,,color31,001,2022_Apr_01_1049,ProdSingRedo,3.2.3,59.98332487182604,
,,,,174,0,174,0,,,,,,,,,,,,,,,,,,,,,,,,2550.054431900382,None,,,,,,,,,,,,,,,,,career,silent,blue,174,63,42,2546.5258646998554,None,2546.5258646998554,None,4,1.9746496994048357,2546.5258646998554,None,2548.5561461001635,None,2549.0760439988226,None,2549.0760439988226,None,f,0.952564800158143,2549.0760439988226,None,,,color31,001,2022_Apr_01_1049,ProdSingRedo,3.2.3,59.98332487182604,
,,,,175,0,175,0,,,,,,,,,,,,,,,,,,,,,,,,2554.406475799158,None,,,,,,,,,,,,,,,,,employment,aloud,red,175,30,111,2550.578981200233,None,2550.578981200233,None,4,2.7295280005782843,2550.578981200233,None,2553.3542213998735,None,2553.875675998628,None,2553.875675998628,None,f,0.496908700093627,2553.875675998628,None,,,color31,001,2022_Apr_01_1049,ProdSingRedo,3.2.3,59.98332487182604,
,,,,176,0,176,0,,,,,,,,,,,,,,,,,,,,,,,,2560.1540257986635,None,,,,,,,,,,,,,,,,,discovery,silent,blue,176,61,95,2554.9345110990107,None,2554.9345110990107,None,4,2.8779258001595736,2554.9345110990107,None,2557.859889699146,None,2558.3795606996864,None,2558.3795606996864,None,n,1.7367899008095264,2558.3795606996864,None,,,color31,001,2022_Apr_01_1049,ProdSingRedo,3.2.3,59.98332487182604,
,,,,177,0,177,0,,,,,,,,,,,,,,,,,,,,,,,,2565.672561299056,None,,,,,,,,,,,,,,,,,escape,aloud,red,177,56,118,2560.6810873001814,None,2560.6810873001814,None,3,3.2272050008177757,2560.6810873001814,None,2563.952716499567,None,2564.4843095000833,None,2564.4843095000833,None,n,1.152063500136137,2564.4843095000833,None,,,color31,001,2022_Apr_01_1049,ProdSingRedo,3.2.3,59.98332487182604,
,,,,178,0,178,0,,,,,,,,,,,,,,,,,,,,,,,,2570.260712498799,None,,,,,,,,,,,,,,,,,owner,aloud,red,178,45,208,2566.1965076997876,None,2566.1965076997876,None,6,2.287907999008894,2566.1965076997876,None,2568.538469199091,None,2569.056072799489,None,2569.056072799489,None,r,1.1642175000160933,2569.056072799489,None,,,color31,001,2022_Apr_01_1049,ProdSingRedo,3.2.3,59.98332487182604,
,,,,179,0,179,0,,,,,,,,,,,,,,,,,,,,,,,,2584.389536499977,None,,,,,,,,,,,,,,,,,beauty,sing,yellow,179,24,18,2570.788673698902,None,2570.788673698902,None,6,8.935640400275588,2570.788673698902,None,2579.7767952997237,None,2580.2986641991884,None,2580.2986641991884,None,r,4.0576220992952585,2580.2986641991884,None,,,color31,001,2022_Apr_01_1049,ProdSingRedo,3.2.3,59.98332487182604,
,,,,,,,,,,,,,,,,,,,,,,,,,,,,,,,,,,,,,,,,,,,,,,,,,,,,,,,,,,,,,,,,,,,,,,,,,2584.89831369929,None,,,,,,,
