StudyLoop.thisRepN,StudyLoop.thisTrialN,StudyLoop.thisN,StudyLoop.thisIndex,TestLoop.thisRepN,TestLoop.thisTrialN,TestLoop.thisN,TestLoop.thisIndex,textCondition.started,textCondition.stopped,keyCondition.keys,keyCondition.rt,keyCondition.started,keyCondition.stopped,Condition,stim_colors,color_sing,color_aloud,color_silent,textWelcome.started,textWelcome.stopped,keyWelcome.keys,keyWelcome.rt,keyWelcome.started,keyWelcome.stopped,textAloud.started,textAloud.stopped,textSilent.started,textSilent.stopped,textSing.started,textSing.stopped,textBlank500.started,textBlank500.stopped,study_word,study_type,study_color,study_num,study_word_num,textStudy.started,textStudy.stopped,keyStudy.keys,keyStudy.started,keyStudy.stopped,textTestInstructions.started,textTestInstructions.stopped,key_resp_3.keys,key_resp_3.rt,key_resp_3.started,key_resp_3.stopped,testWord,testType,testColor,testN,test_num,test_word_num,textConf.started,textConf.stopped,textConfScale.started,textConfScale.stopped,keyConf.keys,keyConf.rt,keyConf.started,keyConf.stopped,textTestBlank.started,textTestBlank.stopped,textRKN.started,textRKN.stopped,textRKNScale.started,textRKNScale.stopped,keyRKN.keys,keyRKN.rt,keyRKN.started,keyRKN.stopped,textEnd.started,textEnd.stopped,participant,session,date,expName,psychopyVersion,frameRate,
,,,,,,,,27.39312329981476,None,y,2.7926220996305346,27.39312329981476,None,,,,,,,,,,,,,,,,,,,,,,,,,,,,,,,,,,,,,,,,,,,,,,,,,,,,,,,,,,,,,,color26,001,2022_Jan_27_1047,ProdSingRedo,3.2.3,59.9598389151794,
,,,,,,,,,,,,,,ColoredTest,"['red', 'yellow', 'blue']",red,yellow,blue,30.259269599802792,None,space,977.532747999765,30.259269599802792,None,,,,,,,,,,,,,,,,,,,,,,,,,,,,,,,,,,,,,,,,,,,,,,,,,,,color26,001,2022_Jan_27_1047,ProdSingRedo,3.2.3,59.9598389151794,
0,0,0,0,,,,,,,,,,,,,,,,,,,,,,30.259269599802792,None,30.259269599802792,None,30.259269599802792,None,1010.3295247992501,None,addition,silent,blue,78,2,1008.3349827993661,None,None,1008.3349827993661,None,,,,,,,,,,,,,,,,,,,,,,,,,,,,,,,,,color26,001,2022_Jan_27_1047,ProdSingRedo,3.2.3,59.9598389151794,
1,0,1,0,,,,,,,,,,,,,,,,,,,,,,,,,,,,1012.8486701995134,None,private,aloud,yellow,55,237,1010.8495316999033,None,None,1010.8495316999033,None,,,,,,,,,,,,,,,,,,,,,,,,,,,,,,,,,color26,001,2022_Jan_27_1047,ProdSingRedo,3.2.3,59.9598389151794,
2,0,2,0,,,,,,,,,,,,,,,,,,,,,,,,,,,,1015.3678409997374,None,trial,sing,red,17,341,1013.3605601992458,None,None,1013.3605601992458,None,,,,,,,,,,,,,,,,,,,,,,,,,,,,,,,,,color26,001,2022_Jan_27_1047,ProdSingRedo,3.2.3,59.9598389151794,
3,0,3,0,,,,,,,,,,,,,,,,,,,,,,,,,,,,1017.8870160998777,None,passage,silent,blue,88,212,1015.8861535992473,None,None,1015.8861535992473,None,,,,,,,,,,,,,,,,,,,,,,,,,,,,,,,,,color26,001,2022_Jan_27_1047,ProdSingRedo,3.2.3,59.9598389151794,
4,0,4,0,,,,,,,,,,,,,,,,,,,,,,,,,,,,1020.4062349991873,None,question,sing,red,14,247,1018.4110040999949,None,None,1018.4110040999949,None,,,,,,,,,,,,,,,,,,,,,,,,,,,,,,,,,color26,001,2022_Jan_27_1047,ProdSingRedo,3.2.3,59.9598389151794,
5,0,5,0,,,,,,,,,,,,,,,,,,,,,,,,,,,,1022.9253345998004,None,emergency,sing,red,23,110,1020.9311501998454,None,None,1020.9311501998454,None,,,,,,,,,,,,,,,,,,,,,,,,,,,,,,,,,color26,001,2022_Jan_27_1047,ProdSingRedo,3.2.3,59.9598389151794,
6,0,6,0,,,,,,,,,,,,,,,,,,,,,,,,,,,,1025.444618099369,None,month,silent,blue,62,193,1023.4341557994485,None,None,1023.4341557994485,None,,,,,,,,,,,,,,,,,,,,,,,,,,,,,,,,,color26,001,2022_Jan_27_1047,ProdSingRedo,3.2.3,59.9598389151794,
7,0,7,0,,,,,,,,,,,,,,,,,,,,,,,,,,,,1027.9637933997437,None,portion,silent,blue,85,228,1025.9577978998423,None,None,1025.9577978998423,None,,,,,,,,,,,,,,,,,,,,,,,,,,,,,,,,,color26,001,2022_Jan_27_1047,ProdSingRedo,3.2.3,59.9598389151794,
8,0,8,0,,,,,,,,,,,,,,,,,,,,,,,,,,,,1030.4828577991575,None,angle,silent,blue,80,7,1028.4824564000592,None,None,1028.4824564000592,None,,,,,,,,,,,,,,,,,,,,,,,,,,,,,,,,,color26,001,2022_Jan_27_1047,ProdSingRedo,3.2.3,59.9598389151794,
9,0,9,0,,,,,,,,,,,,,,,,,,,,,,,,,,,,1033.0021285992116,None,husband,silent,blue,77,156,1031.00602829922,None,None,1031.00602829922,None,,,,,,,,,,,,,,,,,,,,,,,,,,,,,,,,,color26,001,2022_Jan_27_1047,ProdSingRedo,3.2.3,59.9598389151794,
10,0,10,0,,,,,,,,,,,,,,,,,,,,,,,,,,,,1035.5212570996955,None,impact,sing,red,8,157,1033.5164669994265,None,None,1033.5164669994265,None,,,,,,,,,,,,,,,,,,,,,,,,,,,,,,,,,color26,001,2022_Jan_27_1047,ProdSingRedo,3.2.3,59.9598389151794,
11,0,11,0,,,,,,,,,,,,,,,,,,,,,,,,,,,,1038.0404465999454,None,period,aloud,yellow,53,217,1036.0358960991725,None,None,1036.0358960991725,None,,,,,,,,,,,,,,,,,,,,,,,,,,,,,,,,,color26,001,2022_Jan_27_1047,ProdSingRedo,3.2.3,59.9598389151794,
12,0,12,0,,,,,,,,,,,,,,,,,,,,,,,,,,,,1040.5596806993708,None,produce,silent,blue,89,239,1038.556489999406,None,None,1038.556489999406,None,,,,,,,,,,,,,,,,,,,,,,,,,,,,,,,,,color26,001,2022_Jan_27_1047,ProdSingRedo,3.2.3,59.9598389151794,
13,0,13,0,,,,,,,,,,,,,,,,,,,,,,,,,,,,1043.0787577992305,None,build,silent,blue,61,35,1041.0753884995356,None,None,1041.0753884995356,None,,,,,,,,,,,,,,,,,,,,,,,,,,,,,,,,,color26,001,2022_Jan_27_1047,ProdSingRedo,3.2.3,59.9598389151794,
14,0,14,0,,,,,,,,,,,,,,,,,,,,,,,,,,,,1045.597976299934,None,subject,sing,red,28,312,1043.6089795995504,None,None,1043.6089795995504,None,,,,,,,,,,,,,,,,,,,,,,,,,,,,,,,,,color26,001,2022_Jan_27_1047,ProdSingRedo,3.2.3,59.9598389151794,
15,0,15,0,,,,,,,,,,,,,,,,,,,,,,,,,,,,1048.1004689997062,None,suggestion,silent,blue,79,314,1046.0994713995606,None,None,1046.0994713995606,None,,,,,,,,,,,,,,,,,,,,,,,,,,,,,,,,,color26,001,2022_Jan_27_1047,ProdSingRedo,3.2.3,59.9598389151794,
16,0,16,0,,,,,,,,,,,,,,,,,,,,,,,,,,,,1050.6197196999565,None,ground,aloud,yellow,56,142,1048.6170282000676,None,None,1048.6170282000676,None,,,,,,,,,,,,,,,,,,,,,,,,,,,,,,,,,color26,001,2022_Jan_27_1047,ProdSingRedo,3.2.3,59.9598389151794,
17,0,17,0,,,,,,,,,,,,,,,,,,,,,,,,,,,,1053.1388691999018,None,medicine,sing,red,16,186,1051.1289551993832,None,None,1051.1289551993832,None,,,,,,,,,,,,,,,,,,,,,,,,,,,,,,,,,color26,001,2022_Jan_27_1047,ProdSingRedo,3.2.3,59.9598389151794,
18,0,18,0,,,,,,,,,,,,,,,,,,,,,,,,,,,,1055.6580125996843,None,marriage,sing,red,5,179,1053.6545870993286,None,None,1053.6545870993286,None,,,,,,,,,,,,,,,,,,,,,,,,,,,,,,,,,color26,001,2022_Jan_27_1047,ProdSingRedo,3.2.3,59.9598389151794,
19,0,19,0,,,,,,,,,,,,,,,,,,,,,,,,,,,,1058.1771930996329,None,quarter,sing,red,24,246,1056.174238000065,None,None,1056.174238000065,None,,,,,,,,,,,,,,,,,,,,,,,,,,,,,,,,,color26,001,2022_Jan_27_1047,ProdSingRedo,3.2.3,59.9598389151794,
20,0,20,0,,,,,,,,,,,,,,,,,,,,,,,,,,,,1060.6797056999058,None,brilliant,silent,blue,87,30,1058.677314799279,None,None,1058.677314799279,None,,,,,,,,,,,,,,,,,,,,,,,,,,,,,,,,,color26,001,2022_Jan_27_1047,ProdSingRedo,3.2.3,59.9598389151794,
21,0,21,0,,,,,,,,,,,,,,,,,,,,,,,,,,,,1063.1989357993007,None,candidate,silent,blue,64,39,1061.1978158997372,None,None,1061.1978158997372,None,,,,,,,,,,,,,,,,,,,,,,,,,,,,,,,,,color26,001,2022_Jan_27_1047,ProdSingRedo,3.2.3,59.9598389151794,
22,0,22,0,,,,,,,,,,,,,,,,,,,,,,,,,,,,1065.7181084994227,None,minor,aloud,yellow,54,191,1063.7073983000591,None,None,1063.7073983000591,None,,,,,,,,,,,,,,,,,,,,,,,,,,,,,,,,,color26,001,2022_Jan_27_1047,ProdSingRedo,3.2.3,59.9598389151794,
23,0,23,0,,,,,,,,,,,,,,,,,,,,,,,,,,,,1068.2372574992478,None,author,aloud,yellow,57,15,1066.230466099456,None,None,1066.230466099456,None,,,,,,,,,,,,,,,,,,,,,,,,,,,,,,,,,color26,001,2022_Jan_27_1047,ProdSingRedo,3.2.3,59.9598389151794,
24,0,24,0,,,,,,,,,,,,,,,,,,,,,,,,,,,,1070.7564408993348,None,surface,sing,red,19,316,1068.7537429993972,None,None,1068.7537429993972,None,,,,,,,,,,,,,,,,,,,,,,,,,,,,,,,,,color26,001,2022_Jan_27_1047,ProdSingRedo,3.2.3,59.9598389151794,
25,0,25,0,,,,,,,,,,,,,,,,,,,,,,,,,,,,1073.27562619932,None,power,sing,red,26,230,1071.271889699623,None,None,1071.271889699623,None,,,,,,,,,,,,,,,,,,,,,,,,,,,,,,,,,color26,001,2022_Jan_27_1047,ProdSingRedo,3.2.3,59.9598389151794,
26,0,26,0,,,,,,,,,,,,,,,,,,,,,,,,,,,,1075.7947527999058,None,colonel,silent,blue,65,55,1073.7864049999043,None,None,1073.7864049999043,None,,,,,,,,,,,,,,,,,,,,,,,,,,,,,,,,,color26,001,2022_Jan_27_1047,ProdSingRedo,3.2.3,59.9598389151794,
27,0,27,0,,,,,,,,,,,,,,,,,,,,,,,,,,,,1078.3139350991696,None,beginning,silent,blue,86,19,1076.314742299728,None,None,1076.314742299728,None,,,,,,,,,,,,,,,,,,,,,,,,,,,,,,,,,color26,001,2022_Jan_27_1047,ProdSingRedo,3.2.3,59.9598389151794,
28,0,28,0,,,,,,,,,,,,,,,,,,,,,,,,,,,,1080.8331570997834,None,oxygen,silent,blue,60,209,1078.8275558995083,None,None,1078.8275558995083,None,,,,,,,,,,,,,,,,,,,,,,,,,,,,,,,,,color26,001,2022_Jan_27_1047,ProdSingRedo,3.2.3,59.9598389151794,
29,0,29,0,,,,,,,,,,,,,,,,,,,,,,,,,,,,1083.3522977996618,None,column,aloud,yellow,46,57,1081.346766599454,None,None,1081.346766599454,None,,,,,,,,,,,,,,,,,,,,,,,,,,,,,,,,,color26,001,2022_Jan_27_1047,ProdSingRedo,3.2.3,59.9598389151794,
30,0,30,0,,,,,,,,,,,,,,,,,,,,,,,,,,,,1085.8714611995965,None,quantity,aloud,yellow,32,245,1083.8705838993192,None,None,1083.8705838993192,None,,,,,,,,,,,,,,,,,,,,,,,,,,,,,,,,,color26,001,2022_Jan_27_1047,ProdSingRedo,3.2.3,59.9598389151794,
31,0,31,0,,,,,,,,,,,,,,,,,,,,,,,,,,,,1088.3906755000353,None,dispute,aloud,yellow,35,99,1086.3860470000654,None,None,1086.3860470000654,None,,,,,,,,,,,,,,,,,,,,,,,,,,,,,,,,,color26,001,2022_Jan_27_1047,ProdSingRedo,3.2.3,59.9598389151794,
32,0,32,0,,,,,,,,,,,,,,,,,,,,,,,,,,,,1090.9098877999932,None,rough,sing,red,20,266,1088.9049658998847,None,None,1088.9049658998847,None,,,,,,,,,,,,,,,,,,,,,,,,,,,,,,,,,color26,001,2022_Jan_27_1047,ProdSingRedo,3.2.3,59.9598389151794,
33,0,33,0,,,,,,,,,,,,,,,,,,,,,,,,,,,,1093.4290408995003,None,employment,aloud,yellow,38,111,1091.428300499916,None,None,1091.428300499916,None,,,,,,,,,,,,,,,,,,,,,,,,,,,,,,,,,color26,001,2022_Jan_27_1047,ProdSingRedo,3.2.3,59.9598389151794,
34,0,34,0,,,,,,,,,,,,,,,,,,,,,,,,,,,,1095.9481496997178,None,prime,aloud,yellow,44,235,1093.9391272999346,None,None,1093.9391272999346,None,,,,,,,,,,,,,,,,,,,,,,,,,,,,,,,,,color26,001,2022_Jan_27_1047,ProdSingRedo,3.2.3,59.9598389151794,
35,0,35,0,,,,,,,,,,,,,,,,,,,,,,,,,,,,1098.4674827000126,None,region,sing,red,1,256,1096.4633354991674,None,None,1096.4633354991674,None,,,,,,,,,,,,,,,,,,,,,,,,,,,,,,,,,color26,001,2022_Jan_27_1047,ProdSingRedo,3.2.3,59.9598389151794,
36,0,36,0,,,,,,,,,,,,,,,,,,,,,,,,,,,,1100.9866378000006,None,carry,sing,red,0,43,1098.9839530996978,None,None,1098.9839530996978,None,,,,,,,,,,,,,,,,,,,,,,,,,,,,,,,,,color26,001,2022_Jan_27_1047,ProdSingRedo,3.2.3,59.9598389151794,
37,0,37,0,,,,,,,,,,,,,,,,,,,,,,,,,,,,1103.5057202996686,None,narrow,silent,blue,73,197,1101.5055776992813,None,None,1101.5055776992813,None,,,,,,,,,,,,,,,,,,,,,,,,,,,,,,,,,color26,001,2022_Jan_27_1047,ProdSingRedo,3.2.3,59.9598389151794,
38,0,38,0,,,,,,,,,,,,,,,,,,,,,,,,,,,,1106.0248916000128,None,edition,aloud,yellow,31,107,1104.0179977994412,None,None,1104.0179977994412,None,,,,,,,,,,,,,,,,,,,,,,,,,,,,,,,,,color26,001,2022_Jan_27_1047,ProdSingRedo,3.2.3,59.9598389151794,
39,0,39,0,,,,,,,,,,,,,,,,,,,,,,,,,,,,1108.5441096993163,None,route,aloud,yellow,58,267,1106.5388506995514,None,None,1106.5388506995514,None,,,,,,,,,,,,,,,,,,,,,,,,,,,,,,,,,color26,001,2022_Jan_27_1047,ProdSingRedo,3.2.3,59.9598389151794,
40,0,40,0,,,,,,,,,,,,,,,,,,,,,,,,,,,,1111.063206399791,None,scene,sing,red,29,273,1109.054278999567,None,None,1109.054278999567,None,,,,,,,,,,,,,,,,,,,,,,,,,,,,,,,,,color26,001,2022_Jan_27_1047,ProdSingRedo,3.2.3,59.9598389151794,
41,0,41,0,,,,,,,,,,,,,,,,,,,,,,,,,,,,1113.5824285000563,None,graduate,sing,red,6,141,1111.584524099715,None,None,1111.584524099715,None,,,,,,,,,,,,,,,,,,,,,,,,,,,,,,,,,color26,001,2022_Jan_27_1047,ProdSingRedo,3.2.3,59.9598389151794,
42,0,42,0,,,,,,,,,,,,,,,,,,,,,,,,,,,,1116.1016075992957,None,music,aloud,yellow,33,196,1114.0963662993163,None,None,1114.0963662993163,None,,,,,,,,,,,,,,,,,,,,,,,,,,,,,,,,,color26,001,2022_Jan_27_1047,ProdSingRedo,3.2.3,59.9598389151794,
43,0,43,0,,,,,,,,,,,,,,,,,,,,,,,,,,,,1118.6208383999765,None,attack,aloud,yellow,41,13,1116.621924199164,None,None,1116.621924199164,None,,,,,,,,,,,,,,,,,,,,,,,,,,,,,,,,,color26,001,2022_Jan_27_1047,ProdSingRedo,3.2.3,59.9598389151794,
44,0,44,0,,,,,,,,,,,,,,,,,,,,,,,,,,,,1121.1399585995823,None,smell,aloud,yellow,30,291,1119.130440599285,None,None,1119.130440599285,None,,,,,,,,,,,,,,,,,,,,,,,,,,,,,,,,,color26,001,2022_Jan_27_1047,ProdSingRedo,3.2.3,59.9598389151794,
45,0,45,0,,,,,,,,,,,,,,,,,,,,,,,,,,,,1123.6591443000361,None,victory,silent,blue,75,346,1121.661306399852,None,None,1121.661306399852,None,,,,,,,,,,,,,,,,,,,,,,,,,,,,,,,,,color26,001,2022_Jan_27_1047,ProdSingRedo,3.2.3,59.9598389151794,
46,0,46,0,,,,,,,,,,,,,,,,,,,,,,,,,,,,1126.1783252991736,None,height,sing,red,18,152,1124.1737626995891,None,None,1124.1737626995891,None,,,,,,,,,,,,,,,,,,,,,,,,,,,,,,,,,color26,001,2022_Jan_27_1047,ProdSingRedo,3.2.3,59.9598389151794,
47,0,47,0,,,,,,,,,,,,,,,,,,,,,,,,,,,,1128.6975362999365,None,weight,aloud,yellow,39,353,1126.6920518996194,None,None,1126.6920518996194,None,,,,,,,,,,,,,,,,,,,,,,,,,,,,,,,,,color26,001,2022_Jan_27_1047,ProdSingRedo,3.2.3,59.9598389151794,
48,0,48,0,,,,,,,,,,,,,,,,,,,,,,,,,,,,1131.2167290998623,None,season,sing,red,4,277,1129.2123602991924,None,None,1129.2123602991924,None,,,,,,,,,,,,,,,,,,,,,,,,,,,,,,,,,color26,001,2022_Jan_27_1047,ProdSingRedo,3.2.3,59.9598389151794,
49,0,49,0,,,,,,,,,,,,,,,,,,,,,,,,,,,,1133.7358952993527,None,hunger,sing,red,7,155,1131.738906099461,None,None,1131.738906099461,None,,,,,,,,,,,,,,,,,,,,,,,,,,,,,,,,,color26,001,2022_Jan_27_1047,ProdSingRedo,3.2.3,59.9598389151794,
50,0,50,0,,,,,,,,,,,,,,,,,,,,,,,,,,,,1136.2550397999585,None,agency,silent,blue,72,4,1134.2553948992863,None,None,1134.2553948992863,None,,,,,,,,,,,,,,,,,,,,,,,,,,,,,,,,,color26,001,2022_Jan_27_1047,ProdSingRedo,3.2.3,59.9598389151794,
51,0,51,0,,,,,,,,,,,,,,,,,,,,,,,,,,,,1138.7742172991857,None,population,silent,blue,66,227,1136.7748725991696,None,None,1136.7748725991696,None,,,,,,,,,,,,,,,,,,,,,,,,,,,,,,,,,color26,001,2022_Jan_27_1047,ProdSingRedo,3.2.3,59.9598389151794,
52,0,52,0,,,,,,,,,,,,,,,,,,,,,,,,,,,,1141.2933973995969,None,force,sing,red,10,131,1139.2896936992183,None,None,1139.2896936992183,None,,,,,,,,,,,,,,,,,,,,,,,,,,,,,,,,,color26,001,2022_Jan_27_1047,ProdSingRedo,3.2.3,59.9598389151794,
53,0,53,0,,,,,,,,,,,,,,,,,,,,,,,,,,,,1143.8127279998735,None,country,silent,blue,70,73,1141.8159584999084,None,None,1141.8159584999084,None,,,,,,,,,,,,,,,,,,,,,,,,,,,,,,,,,color26,001,2022_Jan_27_1047,ProdSingRedo,3.2.3,59.9598389151794,
54,0,54,0,,,,,,,,,,,,,,,,,,,,,,,,,,,,1146.331801599823,None,group,aloud,yellow,43,143,1144.3283112999052,None,None,1144.3283112999052,None,,,,,,,,,,,,,,,,,,,,,,,,,,,,,,,,,color26,001,2022_Jan_27_1047,ProdSingRedo,3.2.3,59.9598389151794,
55,0,55,0,,,,,,,,,,,,,,,,,,,,,,,,,,,,1148.850987199694,None,number,silent,blue,67,203,1146.853524199687,None,None,1146.853524199687,None,,,,,,,,,,,,,,,,,,,,,,,,,,,,,,,,,color26,001,2022_Jan_27_1047,ProdSingRedo,3.2.3,59.9598389151794,
56,0,56,0,,,,,,,,,,,,,,,,,,,,,,,,,,,,1151.3701561000198,None,guard,aloud,yellow,50,145,1149.3642143998295,None,None,1149.3642143998295,None,,,,,,,,,,,,,,,,,,,,,,,,,,,,,,,,,color26,001,2022_Jan_27_1047,ProdSingRedo,3.2.3,59.9598389151794,
57,0,57,0,,,,,,,,,,,,,,,,,,,,,,,,,,,,1153.8893820997328,None,nation,silent,blue,74,198,1151.8846349995583,None,None,1151.8846349995583,None,,,,,,,,,,,,,,,,,,,,,,,,,,,,,,,,,color26,001,2022_Jan_27_1047,ProdSingRedo,3.2.3,59.9598389151794,
58,0,58,0,,,,,,,,,,,,,,,,,,,,,,,,,,,,1156.408515099436,None,error,silent,blue,81,117,1154.4011784000322,None,None,1154.4011784000322,None,,,,,,,,,,,,,,,,,,,,,,,,,,,,,,,,,color26,001,2022_Jan_27_1047,ProdSingRedo,3.2.3,59.9598389151794,
59,0,59,0,,,,,,,,,,,,,,,,,,,,,,,,,,,,1158.9275527000427,None,title,aloud,yellow,42,331,1156.9184311991557,None,None,1156.9184311991557,None,,,,,,,,,,,,,,,,,,,,,,,,,,,,,,,,,color26,001,2022_Jan_27_1047,ProdSingRedo,3.2.3,59.9598389151794,
60,0,60,0,,,,,,,,,,,,,,,,,,,,,,,,,,,,1161.4468382997438,None,leader,sing,red,22,168,1159.4427759991959,None,None,1159.4427759991959,None,,,,,,,,,,,,,,,,,,,,,,,,,,,,,,,,,color26,001,2022_Jan_27_1047,ProdSingRedo,3.2.3,59.9598389151794,
61,0,61,0,,,,,,,,,,,,,,,,,,,,,,,,,,,,1163.9660345995799,None,design,aloud,yellow,36,91,1161.9647100996226,None,None,1161.9647100996226,None,,,,,,,,,,,,,,,,,,,,,,,,,,,,,,,,,color26,001,2022_Jan_27_1047,ProdSingRedo,3.2.3,59.9598389151794,
62,0,62,0,,,,,,,,,,,,,,,,,,,,,,,,,,,,1166.4851727997884,None,sunset,aloud,yellow,34,315,1164.481295099482,None,None,1164.481295099482,None,,,,,,,,,,,,,,,,,,,,,,,,,,,,,,,,,color26,001,2022_Jan_27_1047,ProdSingRedo,3.2.3,59.9598389151794,
63,0,63,0,,,,,,,,,,,,,,,,,,,,,,,,,,,,1169.0043657999486,None,charter,sing,red,21,47,1166.9970704996958,None,None,1166.9970704996958,None,,,,,,,,,,,,,,,,,,,,,,,,,,,,,,,,,color26,001,2022_Jan_27_1047,ProdSingRedo,3.2.3,59.9598389151794,
64,0,64,0,,,,,,,,,,,,,,,,,,,,,,,,,,,,1171.5234766993672,None,message,sing,red,12,189,1169.5190707994625,None,None,1169.5190707994625,None,,,,,,,,,,,,,,,,,,,,,,,,,,,,,,,,,color26,001,2022_Jan_27_1047,ProdSingRedo,3.2.3,59.9598389151794,
65,0,65,0,,,,,,,,,,,,,,,,,,,,,,,,,,,,1174.0427190996706,None,cousin,aloud,yellow,47,76,1172.039394499734,None,None,1172.039394499734,None,,,,,,,,,,,,,,,,,,,,,,,,,,,,,,,,,color26,001,2022_Jan_27_1047,ProdSingRedo,3.2.3,59.9598389151794,
66,0,66,0,,,,,,,,,,,,,,,,,,,,,,,,,,,,1176.5618981998414,None,opening,silent,blue,82,205,1174.5548181999475,None,None,1174.5548181999475,None,,,,,,,,,,,,,,,,,,,,,,,,,,,,,,,,,color26,001,2022_Jan_27_1047,ProdSingRedo,3.2.3,59.9598389151794,
67,0,67,0,,,,,,,,,,,,,,,,,,,,,,,,,,,,1179.0807297993451,None,still,silent,blue,63,304,1177.073343699798,None,None,1177.073343699798,None,,,,,,,,,,,,,,,,,,,,,,,,,,,,,,,,,color26,001,2022_Jan_27_1047,ProdSingRedo,3.2.3,59.9598389151794,
68,0,68,0,,,,,,,,,,,,,,,,,,,,,,,,,,,,1181.5834758998826,None,surprise,silent,blue,69,317,1179.5811268994585,None,None,1179.5811268994585,None,,,,,,,,,,,,,,,,,,,,,,,,,,,,,,,,,color26,001,2022_Jan_27_1047,ProdSingRedo,3.2.3,59.9598389151794,
69,0,69,0,,,,,,,,,,,,,,,,,,,,,,,,,,,,1184.1024506995454,None,religion,aloud,yellow,49,258,1182.103718499653,None,None,1182.103718499653,None,,,,,,,,,,,,,,,,,,,,,,,,,,,,,,,,,color26,001,2022_Jan_27_1047,ProdSingRedo,3.2.3,59.9598389151794,
70,0,70,0,,,,,,,,,,,,,,,,,,,,,,,,,,,,1186.6219955999404,None,thing,sing,red,3,328,1184.617881199345,None,None,1184.617881199345,None,,,,,,,,,,,,,,,,,,,,,,,,,,,,,,,,,color26,001,2022_Jan_27_1047,ProdSingRedo,3.2.3,59.9598389151794,
71,0,71,0,,,,,,,,,,,,,,,,,,,,,,,,,,,,1189.1411434998736,None,block,aloud,yellow,48,25,1187.1371853994206,None,None,1187.1371853994206,None,,,,,,,,,,,,,,,,,,,,,,,,,,,,,,,,,color26,001,2022_Jan_27_1047,ProdSingRedo,3.2.3,59.9598389151794,
72,0,72,0,,,,,,,,,,,,,,,,,,,,,,,,,,,,1191.6603158991784,None,strain,aloud,yellow,40,308,1189.6576725998893,None,None,1189.6576725998893,None,,,,,,,,,,,,,,,,,,,,,,,,,,,,,,,,,color26,001,2022_Jan_27_1047,ProdSingRedo,3.2.3,59.9598389151794,
73,0,73,0,,,,,,,,,,,,,,,,,,,,,,,,,,,,1194.1794917993248,None,shear,aloud,yellow,59,283,1192.174546899274,None,None,1192.174546899274,None,,,,,,,,,,,,,,,,,,,,,,,,,,,,,,,,,color26,001,2022_Jan_27_1047,ProdSingRedo,3.2.3,59.9598389151794,
74,0,74,0,,,,,,,,,,,,,,,,,,,,,,,,,,,,1196.698717199266,None,goose,sing,red,13,138,1194.6934793991968,None,None,1194.6934793991968,None,,,,,,,,,,,,,,,,,,,,,,,,,,,,,,,,,color26,001,2022_Jan_27_1047,ProdSingRedo,3.2.3,59.9598389151794,
75,0,75,0,,,,,,,,,,,,,,,,,,,,,,,,,,,,1199.2178489994258,None,shock,aloud,yellow,45,284,1197.2095109000802,None,None,1197.2095109000802,None,,,,,,,,,,,,,,,,,,,,,,,,,,,,,,,,,color26,001,2022_Jan_27_1047,ProdSingRedo,3.2.3,59.9598389151794,
76,0,76,0,,,,,,,,,,,,,,,,,,,,,,,,,,,,1201.7370275994763,None,empty,aloud,yellow,52,112,1199.7270884998143,None,None,1199.7270884998143,None,,,,,,,,,,,,,,,,,,,,,,,,,,,,,,,,,color26,001,2022_Jan_27_1047,ProdSingRedo,3.2.3,59.9598389151794,
77,0,77,0,,,,,,,,,,,,,,,,,,,,,,,,,,,,1204.2562198992819,None,bureau,silent,blue,84,37,1202.2512790998444,None,None,1202.2512790998444,None,,,,,,,,,,,,,,,,,,,,,,,,,,,,,,,,,color26,001,2022_Jan_27_1047,ProdSingRedo,3.2.3,59.9598389151794,
78,0,78,0,,,,,,,,,,,,,,,,,,,,,,,,,,,,1206.7753850994632,None,phrase,silent,blue,68,220,1204.7701223995537,None,None,1204.7701223995537,None,,,,,,,,,,,,,,,,,,,,,,,,,,,,,,,,,color26,001,2022_Jan_27_1047,ProdSingRedo,3.2.3,59.9598389151794,
79,0,79,0,,,,,,,,,,,,,,,,,,,,,,,,,,,,1209.2941340999678,None,present,silent,blue,71,231,1207.2878767997026,None,None,1207.2878767997026,None,,,,,,,,,,,,,,,,,,,,,,,,,,,,,,,,,color26,001,2022_Jan_27_1047,ProdSingRedo,3.2.3,59.9598389151794,
80,0,80,0,,,,,,,,,,,,,,,,,,,,,,,,,,,,1211.7970562996343,None,appeal,sing,red,9,9,1209.7949387999251,None,None,1209.7949387999251,None,,,,,,,,,,,,,,,,,,,,,,,,,,,,,,,,,color26,001,2022_Jan_27_1047,ProdSingRedo,3.2.3,59.9598389151794,
81,0,81,0,,,,,,,,,,,,,,,,,,,,,,,,,,,,1214.3162389993668,None,master,sing,red,25,180,1212.3172490000725,None,None,1212.3172490000725,None,,,,,,,,,,,,,,,,,,,,,,,,,,,,,,,,,color26,001,2022_Jan_27_1047,ProdSingRedo,3.2.3,59.9598389151794,
82,0,82,0,,,,,,,,,,,,,,,,,,,,,,,,,,,,1216.8354048999026,None,watch,sing,red,27,351,1214.8295345995575,None,None,1214.8295345995575,None,,,,,,,,,,,,,,,,,,,,,,,,,,,,,,,,,color26,001,2022_Jan_27_1047,ProdSingRedo,3.2.3,59.9598389151794,
83,0,83,0,,,,,,,,,,,,,,,,,,,,,,,,,,,,1219.3546075997874,None,cross,silent,blue,76,80,1217.3467947999015,None,None,1217.3467947999015,None,,,,,,,,,,,,,,,,,,,,,,,,,,,,,,,,,color26,001,2022_Jan_27_1047,ProdSingRedo,3.2.3,59.9598389151794,
84,0,84,0,,,,,,,,,,,,,,,,,,,,,,,,,,,,1221.8737875996158,None,volume,silent,blue,83,349,1219.8656348995864,None,None,1219.8656348995864,None,,,,,,,,,,,,,,,,,,,,,,,,,,,,,,,,,color26,001,2022_Jan_27_1047,ProdSingRedo,3.2.3,59.9598389151794,
85,0,85,0,,,,,,,,,,,,,,,,,,,,,,,,,,,,1224.3928979998454,None,estate,sing,red,2,119,1222.390918799676,None,None,1222.390918799676,None,,,,,,,,,,,,,,,,,,,,,,,,,,,,,,,,,color26,001,2022_Jan_27_1047,ProdSingRedo,3.2.3,59.9598389151794,
86,0,86,0,,,,,,,,,,,,,,,,,,,,,,,,,,,,1226.912065799348,None,sweet,sing,red,11,319,1224.9070381997153,None,None,1224.9070381997153,None,,,,,,,,,,,,,,,,,,,,,,,,,,,,,,,,,color26,001,2022_Jan_27_1047,ProdSingRedo,3.2.3,59.9598389151794,
87,0,87,0,,,,,,,,,,,,,,,,,,,,,,,,,,,,1229.4312658999115,None,staff,aloud,yellow,37,301,1227.422982399352,None,None,1227.422982399352,None,,,,,,,,,,,,,,,,,,,,,,,,,,,,,,,,,color26,001,2022_Jan_27_1047,ProdSingRedo,3.2.3,59.9598389151794,
88,0,88,0,,,,,,,,,,,,,,,,,,,,,,,,,,,,1231.9504868993536,None,salary,sing,red,15,271,1229.9541900996119,None,None,1229.9541900996119,None,,,,,,,,,,,,,,,,,,,,,,,,,,,,,,,,,color26,001,2022_Jan_27_1047,ProdSingRedo,3.2.3,59.9598389151794,
89,0,89,0,,,,,,,,,,,,,,,,,,,,,,,,,,,,1234.4696623999625,None,whole,aloud,yellow,51,355,1232.4625319000334,None,None,1232.4625319000334,None,,,,,,,,,,,,,,,,,,,,,,,,,,,,,,,,,color26,001,2022_Jan_27_1047,ProdSingRedo,3.2.3,59.9598389151794,
,,,,,,,,,,,,,,,,,,,,,,,,,,,,,,,,,,,,,,,,,,,1234.9704335993156,None,k,182.9327948000282,1234.9704335993156,None,,,,,,,,,,,,,,,,,,,,,,,,,,,color26,001,2022_Jan_27_1047,ProdSingRedo,3.2.3,59.9598389151794,
,,,,0,0,0,0,,,,,,,,,,,,,,,,,,,,,,,,1432.912973999977,None,,,,,,,,,,,,,,,,,emergency,sing,red,0,23,110,1418.4399294992909,None,1418.4399294992909,None,6,6.54311260022223,1418.4399294992909,None,1425.0353258997202,None,1425.5585400993004,None,1425.5585400993004,None,r,7.312215299345553,1425.5585400993004,None,,,color26,001,2022_Jan_27_1047,ProdSingRedo,3.2.3,59.9598389151794,
,,,,1,0,1,0,,,,,,,,,,,,,,,,,,,,,,,,1444.0515999998897,None,,,,,,,,,,,,,,,,,guide,new_sing,red,1,91,147,1433.4340782994404,None,1433.4340782994404,None,4,7.756756899878383,1433.4340782994404,None,1441.2340457998216,None,1441.7535524992272,None,1441.7535524992272,None,f,2.26120170019567,1441.7535524992272,None,,,color26,001,2022_Jan_27_1047,ProdSingRedo,3.2.3,59.9598389151794,
,,,,2,0,2,0,,,,,,,,,,,,,,,,,,,,,,,,1451.9963499000296,None,,,,,,,,,,,,,,,,,weight,aloud,yellow,2,39,353,1444.58543859981,None,1444.58543859981,None,6,4.325280699878931,1444.58543859981,None,1448.9611963992938,None,1449.4766446994618,None,1449.4766446994618,None,r,2.4821266001090407,1449.4766446994618,None,,,color26,001,2022_Jan_27_1047,ProdSingRedo,3.2.3,59.9598389151794,
,,,,3,0,3,0,,,,,,,,,,,,,,,,,,,,,,,,1458.3369735991582,None,,,,,,,,,,,,,,,,,appeal,sing,red,3,9,9,1452.5295555992052,None,1452.5295555992052,None,6,2.3735063998028636,1452.5295555992052,None,1454.945582400076,None,1455.4681083997712,None,1455.4681083997712,None,r,2.826550499536097,1455.4681083997712,None,,,color26,001,2022_Jan_27_1047,ProdSingRedo,3.2.3,59.9598389151794,
,,,,4,0,4,0,,,,,,,,,,,,,,,,,,,,,,,,1465.1230705995113,None,,,,,,,,,,,,,,,,,split,new_sing,red,4,97,299,1458.8601102996618,None,1458.8601102996618,None,4,3.370635399594903,1458.8601102996618,None,1462.2629031995311,None,1462.7740342998877,None,1462.7740342998877,None,n,2.312634600326419,1462.7740342998877,None,,,color26,001,2022_Jan_27_1047,ProdSingRedo,3.2.3,59.9598389151794,
,,,,5,0,5,0,,,,,,,,,,,,,,,,,,,,,,,,1476.1846022000536,None,,,,,,,,,,,,,,,,,safety,new_silent,blue,5,164,270,1465.650569299236,None,1465.650569299236,None,4,7.163753000088036,1465.650569299236,None,1472.8510494995862,None,1473.375463699922,None,1473.375463699922,None,n,2.775194300338626,1473.375463699922,None,,,color26,001,2022_Jan_27_1047,ProdSingRedo,3.2.3,59.9598389151794,
,,,,6,0,6,0,,,,,,,,,,,,,,,,,,,,,,,,1484.5295407995582,None,,,,,,,,,,,,,,,,,south,new_silent,blue,6,172,296,1476.715425499715,None,1476.715425499715,None,3,3.8349791998043656,1476.715425499715,None,1480.6037667999044,None,1481.1269902000204,None,1481.1269902000204,None,f,3.368008700199425,1481.1269902000204,None,,,color26,001,2022_Jan_27_1047,ProdSingRedo,3.2.3,59.9598389151794,
,,,,7,0,7,0,,,,,,,,,,,,,,,,,,,,,,,,1488.6312270993367,None,,,,,,,,,,,,,,,,,bureau,silent,blue,7,84,37,1485.0603358997032,None,1485.0603358997032,None,2,2.114334700629115,1485.0603358997032,None,1487.232198599726,None,1487.7522550998256,None,1487.7522550998256,None,f,0.8554020998999476,1487.7522550998256,None,,,color26,001,2022_Jan_27_1047,ProdSingRedo,3.2.3,59.9598389151794,
,,,,8,0,8,0,,,,,,,,,,,,,,,,,,,,,,,,1494.903539299965,None,,,,,,,,,,,,,,,,,angle,silent,blue,8,80,7,1489.1610721992329,None,1489.1610721992329,None,6,2.5416397992521524,1489.1610721992329,None,1491.7513917991892,None,1492.2719067996368,None,1492.2719067996368,None,f,2.6067634001374245,1492.2719067996368,None,,,color26,001,2022_Jan_27_1047,ProdSingRedo,3.2.3,59.9598389151794,
,,,,9,0,9,0,,,,,,,,,,,,,,,,,,,,,,,,1499.5315821999684,None,,,,,,,,,,,,,,,,,brief,new_sing,red,9,116,28,1495.4332251995802,None,1495.4332251995802,None,4,2.429793299175799,1495.4332251995802,None,1497.900528899394,None,1498.4300242997706,None,1498.4300242997706,None,n,1.0566102992743254,1498.4300242997706,None,,,color26,001,2022_Jan_27_1047,ProdSingRedo,3.2.3,59.9598389151794,
,,,,10,0,10,0,,,,,,,,,,,,,,,,,,,,,,,,1504.5187364993617,None,,,,,,,,,,,,,,,,,build,silent,blue,10,61,35,1500.0556318992749,None,1500.0556318992749,None,5,2.103079699911177,1500.0556318992749,None,1502.214560199529,None,1502.7359895994887,None,1502.7359895994887,None,f,1.7426063995808363,1502.7359895994887,None,,,color26,001,2022_Jan_27_1047,ProdSingRedo,3.2.3,59.9598389151794,
,,,,11,0,11,0,,,,,,,,,,,,,,,,,,,,,,,,1525.033832299523,None,,,,,,,,,,,,,,,,,owner,new_aloud,yellow,11,141,208,1505.040509100072,None,1505.040509100072,None,4,13.910120300017297,1505.040509100072,None,1518.992835899815,None,1519.5172389000654,None,1519.5172389000654,None,f,5.481356999836862,1519.5172389000654,None,,,color26,001,2022_Jan_27_1047,ProdSingRedo,3.2.3,59.9598389151794,
,,,,12,0,12,0,,,,,,,,,,,,,,,,,,,,,,,,1530.37822579965,None,,,,,,,,,,,,,,,,,minor,aloud,yellow,12,54,191,1525.557859200053,None,1525.557859200053,None,5,2.0887123998254538,1525.557859200053,None,1527.6811074996367,None,1528.2044896995649,None,1528.2044896995649,None,f,2.1380324997007847,1528.2044896995649,None,,,color26,001,2022_Jan_27_1047,ProdSingRedo,3.2.3,59.9598389151794,
,,,,13,0,13,0,,,,,,,,,,,,,,,,,,,,,,,,1537.0472037997097,None,,,,,,,,,,,,,,,,,force,sing,red,13,10,131,1530.8999594999477,None,1530.8999594999477,None,4,2.2183224000036716,1530.8999594999477,None,1533.1452726991847,None,1533.660254699178,None,1533.660254699178,None,f,3.354473900049925,1533.660254699178,None,,,color26,001,2022_Jan_27_1047,ProdSingRedo,3.2.3,59.9598389151794,
,,,,14,0,14,0,,,,,,,,,,,,,,,,,,,,,,,,1544.8933453997597,None,,,,,,,,,,,,,,,,,music,aloud,yellow,14,33,196,1537.5743044996634,None,1537.5743044996634,None,5,2.167784799821675,1537.5743044996634,None,1539.7570576993749,None,1540.2579071000218,None,1540.2579071000218,None,r,4.60487940069288,1540.2579071000218,None,,,color26,001,2022_Jan_27_1047,ProdSingRedo,3.2.3,59.9598389151794,
,,,,15,0,15,0,,,,,,,,,,,,,,,,,,,,,,,,1551.2157900994644,None,,,,,,,,,,,,,,,,,addition,silent,blue,15,78,2,1545.415151999332,None,1545.415151999332,None,4,3.535627900622785,1545.415151999332,None,1548.9921287996694,None,1549.5136800995097,None,1549.5136800995097,None,f,1.6689368998631835,1549.5136800995097,None,,,color26,001,2022_Jan_27_1047,ProdSingRedo,3.2.3,59.9598389151794,
,,,,16,0,16,0,,,,,,,,,,,,,,,,,,,,,,,,1556.5369560997933,None,,,,,,,,,,,,,,,,,message,sing,red,16,12,189,1551.7429965995252,None,1551.7429965995252,None,6,1.7196043003350496,1551.7429965995252,None,1553.512366099283,None,1554.0308126993477,None,1554.0308126993477,None,r,2.4638379998505116,1554.0308126993477,None,,,color26,001,2022_Jan_27_1047,ProdSingRedo,3.2.3,59.9598389151794,
,,,,17,0,17,0,,,,,,,,,,,,,,,,,,,,,,,,1561.8712630998343,None,,,,,,,,,,,,,,,,,author,aloud,yellow,17,57,15,1557.0566951995715,None,1557.0566951995715,None,6,1.9181059999391437,1557.0566951995715,None,1559.020177799277,None,1559.5386806000024,None,1559.5386806000024,None,f,2.3081914000213146,1559.5386806000024,None,,,color26,001,2022_Jan_27_1047,ProdSingRedo,3.2.3,59.9598389151794,
,,,,18,0,18,0,,,,,,,,,,,,,,,,,,,,,,,,1569.3189007993788,None,,,,,,,,,,,,,,,,,victory,silent,blue,18,75,346,1562.4009798998013,None,1562.4009798998013,None,4,3.4215722996741533,1562.4009798998013,None,1565.8746877992526,None,1566.3961133994162,None,1566.3961133994162,None,f,2.890285300090909,1566.3961133994162,None,,,color26,001,2022_Jan_27_1047,ProdSingRedo,3.2.3,59.9598389151794,
,,,,19,0,19,0,,,,,,,,,,,,,,,,,,,,,,,,1576.1044894000515,None,,,,,,,,,,,,,,,,,career,new_sing,red,19,100,42,1569.8211918994784,None,1569.8211918994784,None,4,4.153215100057423,1569.8211918994784,None,1574.018818399869,None,1574.5402537994087,None,1574.5402537994087,None,f,1.5221338998526335,1574.5402537994087,None,,,color26,001,2022_Jan_27_1047,ProdSingRedo,3.2.3,59.9598389151794,
,,,,20,0,20,0,,,,,,,,,,,,,,,,,,,,,,,,1583.3446840997785,None,,,,,,,,,,,,,,,,,machinery,new_silent,blue,20,173,175,1576.629860399291,None,1576.629860399291,None,4,3.169043199159205,1576.629860399291,None,1579.83433829993,None,1580.3658663993701,None,1580.3658663993701,None,n,2.944596500135958,1580.3658663993701,None,,,color26,001,2022_Jan_27_1047,ProdSingRedo,3.2.3,59.9598389151794,
,,,,21,0,21,0,,,,,,,,,,,,,,,,,,,,,,,,1588.1969101997092,None,,,,,,,,,,,,,,,,,shock,aloud,yellow,21,45,284,1583.860693499446,None,1583.860693499446,None,5,2.138335299678147,1583.860693499446,None,1586.0448797000572,None,1586.5659350994974,None,1586.5659350994974,None,r,1.6006093993782997,1586.5659350994974,None,,,color26,001,2022_Jan_27_1047,ProdSingRedo,3.2.3,59.9598389151794,
,,,,22,0,22,0,,,,,,,,,,,,,,,,,,,,,,,,1603.4616593997926,None,,,,,,,,,,,,,,,,,question,sing,red,22,14,247,1588.729561199434,None,1588.729561199434,None,5,6.100813599303365,1588.729561199434,None,1594.8687795996666,None,1595.3962653996423,None,1595.3962653996423,None,f,8.034295699559152,1595.3962653996423,None,,,color26,001,2022_Jan_27_1047,ProdSingRedo,3.2.3,59.9598389151794,
,,,,23,0,23,0,,,,,,,,,,,,,,,,,,,,,,,,1610.154755000025,None,,,,,,,,,,,,,,,,,figure,new_sing,red,23,90,128,1603.996033899486,None,1603.996033899486,None,4,3.3544381000101566,1603.996033899486,None,1607.3974492000416,None,1607.920293099247,None,1607.920293099247,None,n,2.1980897998437285,1607.920293099247,None,,,color26,001,2022_Jan_27_1047,ProdSingRedo,3.2.3,59.9598389151794,
,,,,24,0,24,0,,,,,,,,,,,,,,,,,,,,,,,,1614.6552412994206,None,,,,,,,,,,,,,,,,,drama,new_aloud,yellow,24,144,103,1610.6789190992713,None,1610.6789190992713,None,4,1.7994045000523329,1610.6789190992713,None,1612.524644699879,None,1613.0416818996891,None,1613.0416818996891,None,f,1.580803300254047,1613.0416818996891,None,,,color26,001,2022_Jan_27_1047,ProdSingRedo,3.2.3,59.9598389151794,
,,,,25,0,25,0,,,,,,,,,,,,,,,,,,,,,,,,1620.6865044999868,None,,,,,,,,,,,,,,,,,drove,new_aloud,yellow,25,139,106,1615.18640819937,None,1615.18640819937,None,4,3.7721691001206636,1615.18640819937,None,1619.006670399569,None,1619.5321295000613,None,1619.5321295000613,None,f,1.1143161999061704,1619.5321295000613,None,,,color26,001,2022_Jan_27_1047,ProdSingRedo,3.2.3,59.9598389151794,
,,,,26,0,26,0,,,,,,,,,,,,,,,,,,,,,,,,1625.7243073992431,None,,,,,,,,,,,,,,,,,swift,new_silent,blue,26,177,320,1621.2069662995636,None,1621.2069662995636,None,5,2.719335500150919,1621.2069662995636,None,1623.9621639996767,None,1624.4908542996272,None,1624.4908542996272,None,f,1.1960599003359675,1624.4908542996272,None,,,color26,001,2022_Jan_27_1047,ProdSingRedo,3.2.3,59.9598389151794,
,,,,27,0,27,0,,,,,,,,,,,,,,,,,,,,,,,,1630.6777208996937,None,,,,,,,,,,,,,,,,,length,new_sing,red,27,109,169,1626.2496833996847,None,1626.2496833996847,None,4,1.9088327996432781,1626.2496833996847,None,1628.2062610993162,None,1628.7227850994095,None,1628.7227850994095,None,n,1.9156446000561118,1628.7227850994095,None,,,color26,001,2022_Jan_27_1047,ProdSingRedo,3.2.3,59.9598389151794,
,,,,28,0,28,0,,,,,,,,,,,,,,,,,,,,,,,,1636.214121799916,None,,,,,,,,,,,,,,,,,research,new_sing,red,28,106,261,1631.2014291994274,None,1631.2014291994274,None,3,2.756948900409043,1631.2014291994274,None,1634.0281080994755,None,1634.5465289996937,None,1634.5465289996937,None,f,1.6279234997928143,1634.5465289996937,None,,,color26,001,2022_Jan_27_1047,ProdSingRedo,3.2.3,59.9598389151794,
,,,,29,0,29,0,,,,,,,,,,,,,,,,,,,,,,,,1643.0540738999844,None,,,,,,,,,,,,,,,,,estate,sing,red,29,2,119,1636.745146099478,None,1636.745146099478,None,6,2.133131400682032,1636.745146099478,None,1638.9329411992803,None,1639.451748199761,None,1639.451748199761,None,r,3.57072380091995,1639.451748199761,None,,,color26,001,2022_Jan_27_1047,ProdSingRedo,3.2.3,59.9598389151794,
,,,,30,0,30,0,,,,,,,,,,,,,,,,,,,,,,,,1648.1263018995523,None,,,,,,,,,,,,,,,,,debate,new_sing,red,30,94,87,1643.5802620993927,None,1643.5802620993927,None,4,2.082091400399804,1643.5802620993927,None,1645.7097157994285,None,1646.234795499593,None,1646.234795499593,None,n,1.8595525994896889,1646.234795499593,None,,,color26,001,2022_Jan_27_1047,ProdSingRedo,3.2.3,59.9598389151794,
,,,,31,0,31,0,,,,,,,,,,,,,,,,,,,,,,,,1655.1299778996035,None,,,,,,,,,,,,,,,,,phrase,silent,blue,31,68,220,1648.6520871995017,None,1648.6520871995017,None,4,1.6662917993962765,1648.6520871995017,None,1650.3559407992288,None,1650.8801327999681,None,1650.8801327999681,None,r,4.2222444005310535,1650.8801327999681,None,,,color26,001,2022_Jan_27_1047,ProdSingRedo,3.2.3,59.9598389151794,
,,,,32,0,32,0,,,,,,,,,,,,,,,,,,,,,,,,1672.1639224998653,None,,,,,,,,,,,,,,,,,passage,silent,blue,32,88,212,1655.6605426995084,None,1655.6605426995084,None,6,3.5059688994660974,1655.6605426995084,None,1659.2256417991593,None,1659.72678289935,None,1659.72678289935,None,f,12.399610599502921,1659.72678289935,None,,,color26,001,2022_Jan_27_1047,ProdSingRedo,3.2.3,59.9598389151794,
,,,,33,0,33,0,,,,,,,,,,,,,,,,,,,,,,,,1686.2661266997457,None,,,,,,,,,,,,,,,,,interview,new_aloud,yellow,33,123,165,1672.6975922994316,None,1672.6975922994316,None,6,4.156796200200915,1672.6975922994316,None,1676.904648100026,None,1677.4270394993946,None,1677.4270394993946,None,f,8.803278999403119,1677.4270394993946,None,,,color26,001,2022_Jan_27_1047,ProdSingRedo,3.2.3,59.9598389151794,
,,,,34,0,34,0,,,,,,,,,,,,,,,,,,,,,,,,1693.301833000034,None,,,,,,,,,,,,,,,,,burden,new_sing,red,34,93,36,1686.7899909000844,None,1686.7899909000844,None,4,4.128345199860632,1686.7899909000844,None,1690.9694262994453,None,1691.4886066997424,None,1691.4886066997424,None,r,1.7817450994625688,1691.4886066997424,None,,,color26,001,2022_Jan_27_1047,ProdSingRedo,3.2.3,59.9598389151794,
,,,,35,0,35,0,,,,,,,,,,,,,,,,,,,,,,,,1696.7129210997373,None,,,,,,,,,,,,,,,,,block,aloud,yellow,35,48,25,1693.8327350998297,None,1693.8327350998297,None,4,1.9895215006545186,1693.8327350998297,None,1695.8721920996904,None,1696.392897799611,None,1696.392897799611,None,r,0.2856825003400445,1696.392897799611,None,,,color26,001,2022_Jan_27_1047,ProdSingRedo,3.2.3,59.9598389151794,
,,,,36,0,36,0,,,,,,,,,,,,,,,,,,,,,,,,1701.1088291993365,None,,,,,,,,,,,,,,,,,route,aloud,yellow,36,58,267,1697.2335869995877,None,1697.2335869995877,None,5,3.132695800624788,1697.2335869995877,None,1700.4032465992495,None,1700.9280054997653,None,1700.9280054997653,None,r,0.14240019954741,1700.9280054997653,None,,,color26,001,2022_Jan_27_1047,ProdSingRedo,3.2.3,59.9598389151794,
,,,,37,0,37,0,,,,,,,,,,,,,,,,,,,,,,,,1709.2573504997417,None,,,,,,,,,,,,,,,,,entrance,new_silent,blue,37,155,115,1701.6371696991846,None,1701.6371696991846,None,5,5.201086099259555,1701.6371696991846,None,1706.878983299248,None,1707.4083564998582,None,1707.4083564998582,None,r,1.8139142002910376,1707.4083564998582,None,,,color26,001,2022_Jan_27_1047,ProdSingRedo,3.2.3,59.9598389151794,
,,,,38,0,38,0,,,,,,,,,,,,,,,,,,,,,,,,1716.8781678993255,None,,,,,,,,,,,,,,,,,season,sing,red,38,4,277,1709.779155199416,None,1709.779155199416,None,5,4.899205699563026,1709.779155199416,None,1714.718952300027,None,1715.2435564994812,None,1715.2435564994812,None,r,1.5949042001739144,1715.2435564994812,None,,,color26,001,2022_Jan_27_1047,ProdSingRedo,3.2.3,59.9598389151794,
,,,,39,0,39,0,,,,,,,,,,,,,,,,,,,,,,,,1725.3228569999337,None,,,,,,,,,,,,,,,,,literature,new_silent,blue,39,179,173,1717.407671599649,None,1717.407671599649,None,4,4.478518099524081,1717.407671599649,None,1721.9371198993176,None,1722.4505542991683,None,1722.4505542991683,None,n,2.827930700033903,1722.4505542991683,None,,,color26,001,2022_Jan_27_1047,ProdSingRedo,3.2.3,59.9598389151794,
,,,,40,0,40,0,,,,,,,,,,,,,,,,,,,,,,,,1734.7178740995005,None,,,,,,,,,,,,,,,,,edition,aloud,yellow,40,31,107,1725.8409195998684,None,1725.8409195998684,None,6,3.605222100391984,1725.8409195998684,None,1729.485416399315,None,1730.006310599856,None,1730.006310599856,None,f,4.679952999576926,1730.006310599856,None,,,color26,001,2022_Jan_27_1047,ProdSingRedo,3.2.3,59.9598389151794,
,,,,41,0,41,0,,,,,,,,,,,,,,,,,,,,,,,,1742.3549449993297,None,,,,,,,,,,,,,,,,,medicine,sing,red,41,16,186,1735.2348408000544,None,1735.2348408000544,None,5,3.571815200150013,1735.2348408000544,None,1738.8435956994072,None,1739.3649947000667,None,1739.3649947000667,None,n,2.961444000713527,1739.3649947000667,None,,,color26,001,2022_Jan_27_1047,ProdSingRedo,3.2.3,59.9598389151794,
,,,,42,0,42,0,,,,,,,,,,,,,,,,,,,,,,,,1746.90384349972,None,,,,,,,,,,,,,,,,,running,new_silent,blue,42,168,268,1742.87857649941,None,1742.87857649941,None,4,1.687648099847138,1742.87857649941,None,1744.620812099427,None,1745.1409802995622,None,1745.1409802995622,None,n,1.7292991997674108,1745.1409802995622,None,,,color26,001,2022_Jan_27_1047,ProdSingRedo,3.2.3,59.9598389151794,
,,,,43,0,43,0,,,,,,,,,,,,,,,,,,,,,,,,1755.1305809998885,None,,,,,,,,,,,,,,,,,column,aloud,yellow,43,46,57,1747.4267118992284,None,1747.4267118992284,None,6,3.28340179938823,1747.4267118992284,None,1750.7566294996068,None,1751.2610719995573,None,1751.2610719995573,None,f,3.8411201993003488,1751.2610719995573,None,,,color26,001,2022_Jan_27_1047,ProdSingRedo,3.2.3,59.9598389151794,
,,,,44,0,44,0,,,,,,,,,,,,,,,,,,,,,,,,1761.0340374996886,None,,,,,,,,,,,,,,,,,watch,sing,red,44,27,351,1755.6568640992045,None,1755.6568640992045,None,5,2.9172692000865936,1755.6568640992045,None,1758.6156863998622,None,1759.1355667999014,None,1759.1355667999014,None,n,1.8625811003148556,1759.1355667999014,None,,,color26,001,2022_Jan_27_1047,ProdSingRedo,3.2.3,59.9598389151794,
,,,,45,0,45,0,,,,,,,,,,,,,,,,,,,,,,,,1765.697215899825,None,,,,,,,,,,,,,,,,,turkey,new_sing,red,45,92,342,1761.5657640993595,None,1761.5657640993595,None,3,2.104478399269283,1761.5657640993595,None,1763.7284312993288,None,1764.249913699925,None,1764.249913699925,None,f,1.4122142000123858,1764.249913699925,None,,,color26,001,2022_Jan_27_1047,ProdSingRedo,3.2.3,59.9598389151794,
,,,,46,0,46,0,,,,,,,,,,,,,,,,,,,,,,,,1770.2292809998617,None,,,,,,,,,,,,,,,,,voice,new_aloud,yellow,46,131,348,1766.21395189967,None,1766.21395189967,None,5,1.7525268997997046,1766.21395189967,None,1768.0097987996414,None,1768.5291389999911,None,1768.5291389999911,None,r,1.6610760008916259,1768.5291389999911,None,,,color26,001,2022_Jan_27_1047,ProdSingRedo,3.2.3,59.9598389151794,
,,,,47,0,47,0,,,,,,,,,,,,,,,,,,,,,,,,1781.7890379000455,None,,,,,,,,,,,,,,,,,nation,silent,blue,47,74,198,1770.7540042996407,None,1770.7540042996407,None,4,9.443660399876535,1770.7540042996407,None,1780.217723899521,None,1780.7441269997507,None,1780.7441269997507,None,n,1.014027999714017,1780.7441269997507,None,,,color26,001,2022_Jan_27_1047,ProdSingRedo,3.2.3,59.9598389151794,
,,,,48,0,48,0,,,,,,,,,,,,,,,,,,,,,,,,1786.7623835997656,None,,,,,,,,,,,,,,,,,budget,new_silent,blue,48,166,34,1782.3269736999646,None,1782.3269736999646,None,4,2.2231019996106625,1782.3269736999646,None,1784.5936837000772,None,1785.1153120994568,None,1785.1153120994568,None,f,1.6107286997139454,1785.1153120994568,None,,,color26,001,2022_Jan_27_1047,ProdSingRedo,3.2.3,59.9598389151794,
,,,,49,0,49,0,,,,,,,,,,,,,,,,,,,,,,,,1793.484872999601,None,,,,,,,,,,,,,,,,,close,new_sing,red,49,108,53,1787.2886894000694,None,1787.2886894000694,None,4,2.629397999495268,1787.2886894000694,None,1789.9582570996135,None,1790.4674962991849,None,1790.4674962991849,None,n,2.9945897003635764,1790.4674962991849,None,,,color26,001,2022_Jan_27_1047,ProdSingRedo,3.2.3,59.9598389151794,
,,,,50,0,50,0,,,,,,,,,,,,,,,,,,,,,,,,1800.0297705000266,None,,,,,,,,,,,,,,,,,birth,new_sing,red,50,104,22,1794.0107288993895,None,1794.0107288993895,None,4,1.419259000569582,1794.0107288993895,None,1795.4718602998182,None,1795.9894935991615,None,1795.9894935991615,None,r,4.008895399980247,1795.9894935991615,None,,,color26,001,2022_Jan_27_1047,ProdSingRedo,3.2.3,59.9598389151794,
,,,,51,0,51,0,,,,,,,,,,,,,,,,,,,,,,,,1804.9121524998918,None,,,,,,,,,,,,,,,,,private,aloud,yellow,51,55,237,1800.5540550993755,None,1800.5540550993755,None,6,2.5079223001375794,1800.5540550993755,None,1803.1145421992987,None,1803.6339472997934,None,1803.6339472997934,None,r,1.2441195994615555,1803.6339472997934,None,,,color26,001,2022_Jan_27_1047,ProdSingRedo,3.2.3,59.9598389151794,
,,,,52,0,52,0,,,,,,,,,,,,,,,,,,,,,,,,1816.07372580003,None,,,,,,,,,,,,,,,,,error,silent,blue,52,81,117,1805.4379072999582,None,1805.4379072999582,None,5,8.096138699911535,1805.4379072999582,None,1813.5813079997897,None,1814.0831140000373,None,1814.0831140000373,None,r,1.962992399930954,1814.0831140000373,None,,,color26,001,2022_Jan_27_1047,ProdSingRedo,3.2.3,59.9598389151794,
,,,,53,0,53,0,,,,,,,,,,,,,,,,,,,,,,,,1822.6018458995968,None,,,,,,,,,,,,,,,,,rapid,new_sing,red,53,112,252,1816.6048311991617,None,1816.6048311991617,None,3,2.345140299759805,1816.6048311991617,None,1818.991580799222,None,1819.5154201993719,None,1819.5154201993719,None,f,3.0586331002414227,1819.5154201993719,None,,,color26,001,2022_Jan_27_1047,ProdSingRedo,3.2.3,59.9598389151794,
,,,,54,0,54,0,,,,,,,,,,,,,,,,,,,,,,,,1830.2368194991723,None,,,,,,,,,,,,,,,,,employment,aloud,yellow,54,38,111,1823.1287913993,None,1823.1287913993,None,6,2.581232700496912,1823.1287913993,None,1825.753203199245,None,1826.270631399937,None,1826.270631399937,None,r,3.9436501003801823,1826.270631399937,None,,,color26,001,2022_Jan_27_1047,ProdSingRedo,3.2.3,59.9598389151794,
,,,,55,0,55,0,,,,,,,,,,,,,,,,,,,,,,,,1843.6958087999374,None,,,,,,,,,,,,,,,,,straight,new_aloud,yellow,55,145,307,1830.7693759994581,None,1830.7693759994581,None,5,11.060161899775267,1830.7693759994581,None,1841.8651489000767,None,1842.388685300015,None,1842.388685300015,None,f,1.2653978997841477,1842.388685300015,None,,,color26,001,2022_Jan_27_1047,ProdSingRedo,3.2.3,59.9598389151794,
,,,,56,0,56,0,,,,,,,,,,,,,,,,,,,,,,,,1846.946738999337,None,,,,,,,,,,,,,,,,,staff,aloud,yellow,56,37,301,1844.2269435999915,None,1844.2269435999915,None,5,1.5310391001403332,1844.2269435999915,None,1845.7994252992794,None,1846.3046036995947,None,1846.3046036995947,None,f,0.61299719940871,1846.3046036995947,None,,,color26,001,2022_Jan_27_1047,ProdSingRedo,3.2.3,59.9598389151794,
,,,,57,0,57,0,,,,,,,,,,,,,,,,,,,,,,,,1853.1771507998928,None,,,,,,,,,,,,,,,,,scene,sing,red,57,29,273,1847.4541684994474,None,1847.4541684994474,None,5,3.8078126003965735,1847.4541684994474,None,1851.2998369000852,None,1851.8140125991777,None,1851.8140125991777,None,f,1.327900799922645,1851.8140125991777,None,,,color26,001,2022_Jan_27_1047,ProdSingRedo,3.2.3,59.9598389151794,
,,,,58,0,58,0,,,,,,,,,,,,,,,,,,,,,,,,1856.763568399474,None,,,,,,,,,,,,,,,,,conference,new_sing,red,58,103,66,1853.7067043995485,None,1853.7067043995485,None,5,1.9552378999069333,1853.7067043995485,None,1855.7170682996511,None,1856.2391268992797,None,1856.2391268992797,None,f,0.48676769994199276,1856.2391268992797,None,,,color26,001,2022_Jan_27_1047,ProdSingRedo,3.2.3,59.9598389151794,
,,,,59,0,59,0,,,,,,,,,,,,,,,,,,,,,,,,1861.4532701000571,None,,,,,,,,,,,,,,,,,oxygen,silent,blue,59,60,209,1857.2971886992455,None,1857.2971886992455,None,5,2.7887442000210285,1857.2971886992455,None,1860.1394225992262,None,1860.6584135992453,None,1860.6584135992453,None,f,0.7634200993925333,1860.6584135992453,None,,,color26,001,2022_Jan_27_1047,ProdSingRedo,3.2.3,59.9598389151794,
,,,,60,0,60,0,,,,,,,,,,,,,,,,,,,,,,,,1864.6307181995362,None,,,,,,,,,,,,,,,,,sight,new_aloud,yellow,60,121,286,1861.9763325992972,None,1861.9763325992972,None,5,1.5897432006895542,1861.9763325992972,None,1863.625381199643,None,1864.1397290993482,None,1864.1397290993482,None,f,0.4583238000050187,1864.1397290993482,None,,,color26,001,2022_Jan_27_1047,ProdSingRedo,3.2.3,59.9598389151794,
,,,,61,0,61,0,,,,,,,,,,,,,,,,,,,,,,,,1869.3492695996538,None,,,,,,,,,,,,,,,,,population,silent,blue,61,66,227,1865.1530780997127,None,1865.1530780997127,None,4,1.9408988999202847,1865.1530780997127,None,1867.1445464994758,None,1867.6645463993773,None,1867.6645463993773,None,n,1.6533014001324773,1867.6645463993773,None,,,color26,001,2022_Jan_27_1047,ProdSingRedo,3.2.3,59.9598389151794,
,,,,62,0,62,0,,,,,,,,,,,,,,,,,,,,,,,,1872.6020523998886,None,,,,,,,,,,,,,,,,,cross,silent,blue,62,76,80,1869.8530581993982,None,1869.8530581993982,None,4,1.6569268004968762,1869.8530581993982,None,1871.557788499631,None,1872.079714199528,None,1872.079714199528,None,n,0.4862005999311805,1872.079714199528,None,,,color26,001,2022_Jan_27_1047,ProdSingRedo,3.2.3,59.9598389151794,
,,,,63,0,63,0,,,,,,,,,,,,,,,,,,,,,,,,1875.9404735993594,None,,,,,,,,,,,,,,,,,trial,sing,red,63,17,341,1873.1308340998366,None,1873.1308340998366,None,5,1.355061400681734,1873.1308340998366,None,1874.5351751996204,None,1875.05274909921,None,1875.05274909921,None,f,0.8571312995627522,1875.05274909921,None,,,color26,001,2022_Jan_27_1047,ProdSingRedo,3.2.3,59.9598389151794,
,,,,64,0,64,0,,,,,,,,,,,,,,,,,,,,,,,,1881.0743215996772,None,,,,,,,,,,,,,,,,,charter,sing,red,64,21,47,1876.4638939993456,None,1876.4638939993456,None,5,1.613964299671352,1876.4638939993456,None,1878.121747999452,None,1878.6432296996936,None,1878.6432296996936,None,r,2.4028243999928236,1878.6432296996936,None,,,color26,001,2022_Jan_27_1047,ProdSingRedo,3.2.3,59.9598389151794,
,,,,65,0,65,0,,,,,,,,,,,,,,,,,,,,,,,,1891.8052103994414,None,,,,,,,,,,,,,,,,,color,new_aloud,yellow,65,143,56,1881.595968899317,None,1881.595968899317,None,6,2.5299121998250484,1881.595968899317,None,1884.1761868996546,None,1884.6943851998076,None,1884.6943851998076,None,r,7.079439099878073,1884.6943851998076,None,,,color26,001,2022_Jan_27_1047,ProdSingRedo,3.2.3,59.9598389151794,
,,,,66,0,66,0,,,,,,,,,,,,,,,,,,,,,,,,1901.3068127995357,None,,,,,,,,,,,,,,,,,colonel,silent,blue,66,65,55,1892.3216538997367,None,1892.3216538997367,None,6,2.6682044994086027,1892.3216538997367,None,1895.0315485997126,None,1895.5451930994168,None,1895.5451930994168,None,r,5.724745600484312,1895.5451930994168,None,,,color26,001,2022_Jan_27_1047,ProdSingRedo,3.2.3,59.9598389151794,
,,,,67,0,67,0,,,,,,,,,,,,,,,,,,,,,,,,1905.5942691992968,None,,,,,,,,,,,,,,,,,cousin,aloud,yellow,67,47,76,1901.8399946996942,None,1901.8399946996942,None,6,1.8142728004604578,1901.8399946996942,None,1903.695072199218,None,1904.2160318996757,None,1904.2160318996757,None,r,1.349574999883771,1904.2160318996757,None,,,color26,001,2022_Jan_27_1047,ProdSingRedo,3.2.3,59.9598389151794,
,,,,68,0,68,0,,,,,,,,,,,,,,,,,,,,,,,,1910.0234510991722,None,,,,,,,,,,,,,,,,,salary,sing,red,68,15,271,1906.1342434994876,None,1906.1342434994876,None,6,2.31966619938612,1906.1342434994876,None,1908.5060393996537,None,1909.0309103997424,None,1909.0309103997424,None,r,0.9589145993813872,1909.0309103997424,None,,,color26,001,2022_Jan_27_1047,ProdSingRedo,3.2.3,59.9598389151794,
,,,,69,0,69,0,,,,,,,,,,,,,,,,,,,,,,,,1914.7591483993456,None,,,,,,,,,,,,,,,,,smell,aloud,yellow,69,30,291,1910.542859999463,None,1910.542859999463,None,6,1.6950903991237283,1910.542859999463,None,1912.2825053995475,None,1912.802720000036,None,1912.802720000036,None,r,1.9232505997642875,1912.802720000036,None,,,color26,001,2022_Jan_27_1047,ProdSingRedo,3.2.3,59.9598389151794,
,,,,70,0,70,0,,,,,,,,,,,,,,,,,,,,,,,,1920.5770400995389,None,,,,,,,,,,,,,,,,,income,new_silent,blue,70,171,159,1915.2778655998409,None,1915.2778655998409,None,3,2.6640705997124314,1915.2778655998409,None,1917.9900703998283,None,1918.51158549916,None,1918.51158549916,None,f,2.0303260991349816,1918.51158549916,None,,,color26,001,2022_Jan_27_1047,ProdSingRedo,3.2.3,59.9598389151794,
,,,,71,0,71,0,,,,,,,,,,,,,,,,,,,,,,,,1927.6020198995247,None,,,,,,,,,,,,,,,,,household,new_silent,blue,71,157,154,1921.106694799848,None,1921.106694799848,None,1,2.7472366001456976,1921.106694799848,None,1923.899031699635,None,1924.4191069994122,None,1924.4191069994122,None,n,3.154653299599886,1924.4191069994122,None,,,color26,001,2022_Jan_27_1047,ProdSingRedo,3.2.3,59.9598389151794,
,,,,72,0,72,0,,,,,,,,,,,,,,,,,,,,,,,,1931.3231074996293,None,,,,,,,,,,,,,,,,,congress,new_sing,red,72,105,67,1928.1303296992555,None,1928.1303296992555,None,1,2.0110814003273845,1928.1303296992555,None,1930.1696205995977,None,1930.6951350998133,None,1930.6951350998133,None,n,0.5986634995788336,1930.6951350998133,None,,,color26,001,2022_Jan_27_1047,ProdSingRedo,3.2.3,59.9598389151794,
,,,,73,0,73,0,,,,,,,,,,,,,,,,,,,,,,,,1937.246803799644,None,,,,,,,,,,,,,,,,,quick,new_sing,red,73,111,248,1931.8511431999505,None,1931.8511431999505,None,4,3.762393300421536,1931.8511431999505,None,1935.6603007996455,None,1936.1656726999208,None,1936.1656726999208,None,n,1.0402450999245048,1936.1656726999208,None,,,color26,001,2022_Jan_27_1047,ProdSingRedo,3.2.3,59.9598389151794,
,,,,74,0,74,0,,,,,,,,,,,,,,,,,,,,,,,,1940.747807099484,None,,,,,,,,,,,,,,,,,clean,new_silent,blue,74,150,51,1937.7755779996514,None,1937.7755779996514,None,4,1.598207799717784,1937.7755779996514,None,1939.4146925993264,None,1939.9355655992404,None,1939.9355655992404,None,n,0.7823571003973484,1939.9355655992404,None,,,color26,001,2022_Jan_27_1047,ProdSingRedo,3.2.3,59.9598389151794,
,,,,75,0,75,0,,,,,,,,,,,,,,,,,,,,,,,,1945.5758153991774,None,,,,,,,,,,,,,,,,,pancakes,new_silent,blue,75,167,210,1941.2748883999884,None,1941.2748883999884,None,4,2.762877699919045,1941.2748883999884,None,1944.0916286995634,None,1944.6109559992328,None,1944.6109559992328,None,n,0.9229047996923327,1944.6109559992328,None,,,color26,001,2022_Jan_27_1047,ProdSingRedo,3.2.3,59.9598389151794,
,,,,76,0,76,0,,,,,,,,,,,,,,,,,,,,,,,,1952.8457716992125,None,,,,,,,,,,,,,,,,,light,new_aloud,yellow,76,126,171,1946.0999641995877,None,1946.0999641995877,None,1,4.265720400027931,1946.0999641995877,None,1950.406964899972,None,1950.9296564999968,None,1950.9296564999968,None,n,1.8763343002647161,1950.9296564999968,None,,,color26,001,2022_Jan_27_1047,ProdSingRedo,3.2.3,59.9598389151794,
,,,,77,0,77,0,,,,,,,,,,,,,,,,,,,,,,,,1960.6842959998176,None,,,,,,,,,,,,,,,,,period,aloud,yellow,77,53,217,1953.3678648993373,None,1953.3678648993373,None,6,5.5100142005831,1953.3678648993373,None,1958.92743219994,None,1959.4513049991801,None,1959.4513049991801,None,r,1.2023644000291824,1959.4513049991801,None,,,color26,001,2022_Jan_27_1047,ProdSingRedo,3.2.3,59.9598389151794,
,,,,78,0,78,0,,,,,,,,,,,,,,,,,,,,,,,,1964.2273857994005,None,,,,,,,,,,,,,,,,,surface,sing,red,78,19,316,1961.2163406992331,None,1961.2163406992331,None,6,1.9094500998035073,1961.2163406992331,None,1963.172627499327,None,1963.6980816992,None,1963.6980816992,None,r,0.4916252000257373,1963.6980816992,None,,,color26,001,2022_Jan_27_1047,ProdSingRedo,3.2.3,59.9598389151794,
,,,,79,0,79,0,,,,,,,,,,,,,,,,,,,,,,,,1969.0619002999738,None,,,,,,,,,,,,,,,,,state,new_aloud,yellow,79,125,303,1964.750424399972,None,1964.750424399972,None,6,3.0315946992486715,1964.750424399972,None,1967.8284644996747,None,1968.3453961992636,None,1968.3453961992636,None,r,0.6763157993555069,1968.3453961992636,None,,,color26,001,2022_Jan_27_1047,ProdSingRedo,3.2.3,59.9598389151794,
,,,,80,0,80,0,,,,,,,,,,,,,,,,,,,,,,,,1972.3236201992258,None,,,,,,,,,,,,,,,,,portion,silent,blue,80,85,228,1969.5825171992183,None,1969.5825171992183,None,6,1.8632797999307513,1969.5825171992183,None,1971.4938689991832,None,1972.0148147,None,1972.0148147,None,r,0.2787311002612114,1972.0148147,None,,,color26,001,2022_Jan_27_1047,ProdSingRedo,3.2.3,59.9598389151794,
,,,,81,0,81,0,,,,,,,,,,,,,,,,,,,,,,,,1976.3996675992385,None,,,,,,,,,,,,,,,,,second,new_aloud,yellow,81,134,278,1972.8518186993897,None,1972.8518186993897,None,4,1.7061032997444272,1972.8518186993897,None,1974.596936199814,None,1975.1142170997337,None,1975.1142170997337,None,n,1.2514597997069359,1975.1142170997337,None,,,color26,001,2022_Jan_27_1047,ProdSingRedo,3.2.3,59.9598389151794,
,,,,82,0,82,0,,,,,,,,,,,,,,,,,,,,,,,,1980.3770506996661,None,,,,,,,,,,,,,,,,,grade,new_silent,blue,82,152,140,1976.9308539992198,None,1976.9308539992198,None,1,2.202984900213778,1976.9308539992198,None,1979.189252499491,None,1979.7073952993378,None,1979.7073952993378,None,n,0.626302600838244,1979.7073952993378,None,,,color26,001,2022_Jan_27_1047,ProdSingRedo,3.2.3,59.9598389151794,
,,,,83,0,83,0,,,,,,,,,,,,,,,,,,,,,,,,1986.1765273995697,None,,,,,,,,,,,,,,,,,prime,aloud,yellow,83,44,235,1980.8971874993294,None,1980.8971874993294,None,4,3.9884815998375416,1980.8971874993294,None,1984.9221181999892,None,1985.4425502000377,None,1985.4425502000377,None,f,0.6991218999028206,1985.4425502000377,None,,,color26,001,2022_Jan_27_1047,ProdSingRedo,3.2.3,59.9598389151794,
,,,,84,0,84,0,,,,,,,,,,,,,,,,,,,,,,,,1989.4635568000376,None,,,,,,,,,,,,,,,,,design,aloud,yellow,84,36,91,1986.7027995996177,None,1986.7027995996177,None,4,1.7109110997989774,1986.7027995996177,None,1988.461444599554,None,1988.9854120993987,None,1988.9854120993987,None,f,0.44451919943094254,1988.9854120993987,None,,,color26,001,2022_Jan_27_1047,ProdSingRedo,3.2.3,59.9598389151794,
,,,,85,0,85,0,,,,,,,,,,,,,,,,,,,,,,,,2007.117497999221,None,,,,,,,,,,,,,,,,,election,new_silent,blue,85,174,109,1989.9737478997558,None,1989.9737478997558,None,6,6.312087600119412,1989.9737478997558,None,1996.3283345000818,None,1996.8415927998722,None,1996.8415927998722,None,f,10.236222499981523,1996.8415927998722,None,,,color26,001,2022_Jan_27_1047,ProdSingRedo,3.2.3,59.9598389151794,
,,,,86,0,86,0,,,,,,,,,,,,,,,,,,,,,,,,2013.3385763997212,None,,,,,,,,,,,,,,,,,title,aloud,yellow,86,42,331,2007.6396036995575,None,2007.6396036995575,None,3,2.3900049002841115,2007.6396036995575,None,2010.0803487999365,None,2010.6033117994666,None,2010.6033117994666,None,n,2.7064340002834797,2010.6033117994666,None,,,color26,001,2022_Jan_27_1047,ProdSingRedo,3.2.3,59.9598389151794,
,,,,87,0,87,0,,,,,,,,,,,,,,,,,,,,,,,,2018.5333457998931,None,,,,,,,,,,,,,,,,,power,sing,red,87,26,230,2013.8689658995718,None,2013.8689658995718,None,6,2.0007843002676964,2013.8689658995718,None,2015.9242767998949,None,2016.4442454995587,None,2016.4442454995587,None,f,2.0579142002388835,2016.4442454995587,None,,,color26,001,2022_Jan_27_1047,ProdSingRedo,3.2.3,59.9598389151794,
,,,,88,0,88,0,,,,,,,,,,,,,,,,,,,,,,,,2024.5314125996083,None,,,,,,,,,,,,,,,,,direction,new_aloud,yellow,88,146,94,2019.0531865991652,None,2019.0531865991652,None,4,3.3282922003418207,2019.0531865991652,None,2022.4252672996372,None,2022.939176700078,None,2022.939176700078,None,n,1.554454599507153,2022.939176700078,None,,,color26,001,2022_Jan_27_1047,ProdSingRedo,3.2.3,59.9598389151794,
,,,,89,0,89,0,,,,,,,,,,,,,,,,,,,,,,,,2028.53736629989,None,,,,,,,,,,,,,,,,,afternoon,new_sing,red,89,96,3,2025.0581564996392,None,2025.0581564996392,None,2,1.8434683000668883,2025.0581564996392,None,2026.9482803996652,None,2027.4689974999055,None,2027.4689974999055,None,n,1.0407793000340462,2027.4689974999055,None,,,color26,001,2022_Jan_27_1047,ProdSingRedo,3.2.3,59.9598389151794,
,,,,90,0,90,0,,,,,,,,,,,,,,,,,,,,,,,,2036.0632628994063,None,,,,,,,,,,,,,,,,,whole,aloud,yellow,90,51,355,2029.0661728996783,None,2029.0661728996783,None,2,4.291476000100374,2029.0661728996783,None,2033.4046966992319,None,2033.92851160001,None,2033.92851160001,None,f,2.0932113006711006,2033.92851160001,None,,,color26,001,2022_Jan_27_1047,ProdSingRedo,3.2.3,59.9598389151794,
,,,,91,0,91,0,,,,,,,,,,,,,,,,,,,,,,,,2041.3408351000398,None,,,,,,,,,,,,,,,,,court,new_aloud,yellow,91,124,75,2036.5871415995061,None,2036.5871415995061,None,2,1.5546496994793415,2036.5871415995061,None,2038.1961460998282,None,2038.7186070000753,None,2038.7186070000753,None,n,2.5830704998224974,2038.7186070000753,None,,,color26,001,2022_Jan_27_1047,ProdSingRedo,3.2.3,59.9598389151794,
,,,,92,0,92,0,,,,,,,,,,,,,,,,,,,,,,,,2045.1195029998198,None,,,,,,,,,,,,,,,,,group,aloud,yellow,92,43,143,2041.8603753000498,None,2041.8603753000498,None,6,1.3211757000535727,2041.8603753000498,None,2043.2380812996998,None,2043.75384559948,None,2043.75384559948,None,r,1.3399312999099493,2043.75384559948,None,,,color26,001,2022_Jan_27_1047,ProdSingRedo,3.2.3,59.9598389151794,
,,,,93,0,93,0,,,,,,,,,,,,,,,,,,,,,,,,2048.2064461000264,None,,,,,,,,,,,,,,,,,crime,new_sing,red,93,102,78,2045.6420811992139,None,2045.6420811992139,None,6,1.5154961999505758,2045.6420811992139,None,2047.1988173993304,None,2047.7238117996603,None,2047.7238117996603,None,r,0.4496627999469638,2047.7238117996603,None,,,color26,001,2022_Jan_27_1047,ProdSingRedo,3.2.3,59.9598389151794,
,,,,94,0,94,0,,,,,,,,,,,,,,,,,,,,,,,,2051.8915178999305,None,,,,,,,,,,,,,,,,,bucket,new_aloud,yellow,94,127,33,2048.7348442999646,None,2048.7348442999646,None,2,1.598543300293386,2048.7348442999646,None,2050.3506038999185,None,2050.8632833994925,None,2050.8632833994925,None,n,0.9905677000060678,2050.8632833994925,None,,,color26,001,2022_Jan_27_1047,ProdSingRedo,3.2.3,59.9598389151794,
,,,,95,0,95,0,,,,,,,,,,,,,,,,,,,,,,,,2055.0524144992232,None,,,,,,,,,,,,,,,,,height,sing,red,95,18,152,2052.4191154995933,None,2052.4191154995933,None,6,1.6346439002081752,2052.4191154995933,None,2054.099942899309,None,2054.615103499964,None,2054.615103499964,None,f,0.3984616994857788,2054.615103499964,None,,,color26,001,2022_Jan_27_1047,ProdSingRedo,3.2.3,59.9598389151794,
,,,,96,0,96,0,,,,,,,,,,,,,,,,,,,,,,,,2059.452769899741,None,,,,,,,,,,,,,,,,,century,new_sing,red,96,101,45,2055.584069499746,None,2055.584069499746,None,1,1.9736179001629353,2055.584069499746,None,2057.6014498993754,None,2058.1225286992267,None,2058.1225286992267,None,n,1.2911382000893354,2058.1225286992267,None,,,color26,001,2022_Jan_27_1047,ProdSingRedo,3.2.3,59.9598389151794,
,,,,97,0,97,0,,,,,,,,,,,,,,,,,,,,,,,,2062.5098334997892,None,,,,,,,,,,,,,,,,,attack,aloud,yellow,97,41,13,2059.978495099582,None,2059.978495099582,None,6,1.2909128991886973,2059.978495099582,None,2061.326046199538,None,2061.8417110992596,None,2061.8417110992596,None,r,0.6358072003349662,2061.8417110992596,None,,,color26,001,2022_Jan_27_1047,ProdSingRedo,3.2.3,59.9598389151794,
,,,,98,0,98,0,,,,,,,,,,,,,,,,,,,,,,,,2065.539415899664,None,,,,,,,,,,,,,,,,,brilliant,silent,blue,98,87,30,2063.0378545997664,None,2063.0378545997664,None,6,1.415727799758315,2063.0378545997664,None,2064.5102648995817,None,2065.028279199265,None,2065.028279199265,None,r,0.48128960002213717,2065.028279199265,None,,,color26,001,2022_Jan_27_1047,ProdSingRedo,3.2.3,59.9598389151794,
,,,,99,0,99,0,,,,,,,,,,,,,,,,,,,,,,,,2068.881014599465,None,,,,,,,,,,,,,,,,,union,new_silent,blue,99,158,344,2066.065615899861,None,2066.065615899861,None,2,1.5719515001401305,2066.065615899861,None,2067.6916224993765,None,2068.2147417999804,None,2068.2147417999804,None,n,0.6227119993418455,2068.2147417999804,None,,,color26,001,2022_Jan_27_1047,ProdSingRedo,3.2.3,59.9598389151794,
,,,,100,0,100,0,,,,,,,,,,,,,,,,,,,,,,,,2074.1342588998377,None,,,,,,,,,,,,,,,,,material,new_aloud,yellow,100,135,182,2069.4065996995196,None,2069.4065996995196,None,3,2.3748964006081223,2069.4065996995196,None,2071.839294699952,None,2072.3610310992226,None,2072.3610310992226,None,f,1.7325927000492811,2072.3610310992226,None,,,color26,001,2022_Jan_27_1047,ProdSingRedo,3.2.3,59.9598389151794,
,,,,101,0,101,0,,,,,,,,,,,,,,,,,,,,,,,,2079.5099790999666,None,,,,,,,,,,,,,,,,,patient,new_sing,red,101,95,213,2074.66728579998,None,2074.66728579998,None,6,1.394217699766159,2074.66728579998,None,2076.120418800041,None,2076.6257448000833,None,2076.6257448000833,None,r,2.843692399561405,2076.6257448000833,None,,,color26,001,2022_Jan_27_1047,ProdSingRedo,3.2.3,59.9598389151794,
,,,,102,0,102,0,,,,,,,,,,,,,,,,,,,,,,,,2082.6421967996284,None,,,,,,,,,,,,,,,,,strain,aloud,yellow,102,40,308,2080.01555189956,None,2080.01555189956,None,6,1.5178854996338487,2080.01555189956,None,2081.591184400022,None,2082.1103742998093,None,2082.1103742998093,None,r,0.49493249971419573,2082.1103742998093,None,,,color26,001,2022_Jan_27_1047,ProdSingRedo,3.2.3,59.9598389151794,
,,,,103,0,103,0,,,,,,,,,,,,,,,,,,,,,,,,2087.0841898992658,None,,,,,,,,,,,,,,,,,danger,new_sing,red,103,118,85,2083.169350799173,None,2083.169350799173,None,1,1.9721699003130198,2083.169350799173,None,2085.1864008996636,None,2085.717551100068,None,2085.717551100068,None,f,1.32792229950428,2085.717551100068,None,,,color26,001,2022_Jan_27_1047,ProdSingRedo,3.2.3,59.9598389151794,
,,,,104,0,104,0,,,,,,,,,,,,,,,,,,,,,,,,2091.3327831998467,None,,,,,,,,,,,,,,,,,universal,new_silent,blue,104,163,345,2087.6102821994573,None,2087.6102821994573,None,1,1.4753216002136469,2087.6102821994573,None,2089.13483799994,None,2089.650933600031,None,2089.650933600031,None,r,1.6586515000090003,2089.650933600031,None,,,color26,001,2022_Jan_27_1047,ProdSingRedo,3.2.3,59.9598389151794,
,,,,105,0,105,0,,,,,,,,,,,,,,,,,,,,,,,,2095.470352499746,None,,,,,,,,,,,,,,,,,quantity,aloud,yellow,105,32,245,2091.8633418995887,None,2091.8633418995887,None,6,2.0381971998140216,2091.8633418995887,None,2093.9515402996913,None,2094.4770462997258,None,2094.4770462997258,None,r,0.9687358001247048,2094.4770462997258,None,,,color26,001,2022_Jan_27_1047,ProdSingRedo,3.2.3,59.9598389151794,
,,,,106,0,106,0,,,,,,,,,,,,,,,,,,,,,,,,2103.9104001000524,None,,,,,,,,,,,,,,,,,impact,sing,red,106,8,157,2095.998368099332,None,2095.998368099332,None,6,6.86310419999063,2095.998368099332,None,2102.9103617994115,None,2103.4345809994265,None,2103.4345809994265,None,r,0.442930799908936,2103.4345809994265,None,,,color26,001,2022_Jan_27_1047,ProdSingRedo,3.2.3,59.9598389151794,
,,,,107,0,107,0,,,,,,,,,,,,,,,,,,,,,,,,2107.1825936995447,None,,,,,,,,,,,,,,,,,suspect,new_sing,red,107,99,318,2104.4365657996386,None,2104.4365657996386,None,4,1.4170334003865719,2104.4365657996386,None,2105.903024699539,None,2106.4245794992894,None,2106.4245794992894,None,n,0.7329302001744509,2106.4245794992894,None,,,color26,001,2022_Jan_27_1047,ProdSingRedo,3.2.3,59.9598389151794,
,,,,108,0,108,0,,,,,,,,,,,,,,,,,,,,,,,,2110.608756199479,None,,,,,,,,,,,,,,,,,guard,aloud,yellow,108,50,145,2107.706426699646,None,2107.706426699646,None,6,1.49910799972713,2107.706426699646,None,2109.247097999789,None,2109.75870439969,None,2109.75870439969,None,f,0.8147490993142128,2109.75870439969,None,,,color26,001,2022_Jan_27_1047,ProdSingRedo,3.2.3,59.9598389151794,
,,,,109,0,109,0,,,,,,,,,,,,,,,,,,,,,,,,2113.8875570995733,None,,,,,,,,,,,,,,,,,history,new_aloud,yellow,109,130,153,2111.127596599981,None,2111.127596599981,None,6,1.3181517999619246,2111.127596599981,None,2112.4807420000434,None,2113.0061098998412,None,2113.0061098998412,None,f,0.8474320005625486,2113.0061098998412,None,,,color26,001,2022_Jan_27_1047,ProdSingRedo,3.2.3,59.9598389151794,
,,,,110,0,110,0,,,,,,,,,,,,,,,,,,,,,,,,2120.233258499764,None,,,,,,,,,,,,,,,,,thing,sing,red,110,3,328,2114.414109000005,None,2114.414109000005,None,4,4.8153874007985,2114.414109000005,None,2119.2743363995105,None,2119.7968236999586,None,2119.7968236999586,None,f,0.392594700679183,2119.7968236999586,None,,,color26,001,2022_Jan_27_1047,ProdSingRedo,3.2.3,59.9598389151794,
,,,,111,0,111,0,,,,,,,,,,,,,,,,,,,,,,,,2123.697384699248,None,,,,,,,,,,,,,,,,,symbol,new_silent,blue,111,160,321,2120.755851599388,None,2120.755851599388,None,5,2.137646099552512,2120.755851599388,None,2122.9515426997095,None,2123.463250699453,None,2123.463250699453,None,n,0.2061805995181203,2123.463250699453,None,,,color26,001,2022_Jan_27_1047,ProdSingRedo,3.2.3,59.9598389151794,
,,,,112,0,112,0,,,,,,,,,,,,,,,,,,,,,,,,2127.856547099538,None,,,,,,,,,,,,,,,,,corner,new_aloud,yellow,112,129,69,2124.2233977997676,None,2124.2233977997676,None,4,2.1181966001167893,2124.2233977997676,None,2126.38115260005,None,2126.899970399216,None,2126.899970399216,None,f,0.9133385997265577,2126.899970399216,None,,,color26,001,2022_Jan_27_1047,ProdSingRedo,3.2.3,59.9598389151794,
,,,,113,0,113,0,,,,,,,,,,,,,,,,,,,,,,,,2135.6614270992577,None,,,,,,,,,,,,,,,,,raise,new_sing,red,113,119,250,2128.3810346992686,None,2128.3810346992686,None,2,3.1765019996091723,2128.3810346992686,None,2131.6063072998077,None,2132.1254736995324,None,2132.1254736995324,None,r,3.496085399761796,2132.1254736995324,None,,,color26,001,2022_Jan_27_1047,ProdSingRedo,3.2.3,59.9598389151794,
,,,,114,0,114,0,,,,,,,,,,,,,,,,,,,,,,,,2139.6563860997558,None,,,,,,,,,,,,,,,,,division,new_aloud,yellow,114,133,101,2136.1868326999247,None,2136.1868326999247,None,6,1.610564799979329,2136.1868326999247,None,2137.849737700075,None,2138.355538699776,None,2138.355538699776,None,f,1.273433200083673,2138.355538699776,None,,,color26,001,2022_Jan_27_1047,ProdSingRedo,3.2.3,59.9598389151794,
,,,,115,0,115,0,,,,,,,,,,,,,,,,,,,,,,,,2143.957657199353,None,,,,,,,,,,,,,,,,,hunger,sing,red,115,7,155,2140.1569007998332,None,2140.1569007998332,None,6,1.9766121003776789,2140.1569007998332,None,2142.1810812000185,None,2142.7115622991696,None,2142.7115622991696,None,f,1.2056905999779701,2142.7115622991696,None,,,color26,001,2022_Jan_27_1047,ProdSingRedo,3.2.3,59.9598389151794,
,,,,116,0,116,0,,,,,,,,,,,,,,,,,,,,,,,,2146.843888499774,None,,,,,,,,,,,,,,,,,produce,silent,blue,116,89,239,2144.48158449959,None,2144.48158449959,None,5,1.2038227999582887,2144.48158449959,None,2145.743884800002,None,2146.2572606997564,None,2146.2572606997564,None,f,0.5482831997796893,2146.2572606997564,None,,,color26,001,2022_Jan_27_1047,ProdSingRedo,3.2.3,59.9598389151794,
,,,,117,0,117,0,,,,,,,,,,,,,,,,,,,,,,,,2150.0939877992496,None,,,,,,,,,,,,,,,,,opening,silent,blue,117,82,205,2147.3647109000012,None,2147.3647109000012,None,6,1.1606361996382475,2147.3647109000012,None,2148.5719384998083,None,2149.091572199948,None,2149.091572199948,None,f,0.9617959000170231,2149.091572199948,None,,,color26,001,2022_Jan_27_1047,ProdSingRedo,3.2.3,59.9598389151794,
,,,,118,0,118,0,,,,,,,,,,,,,,,,,,,,,,,,2153.7614581994712,None,,,,,,,,,,,,,,,,,cover,new_aloud,yellow,118,149,77,2150.6137470994145,None,2150.6137470994145,None,5,1.351707300171256,2150.6137470994145,None,2152.0123538998887,None,2152.5307041993365,None,2152.5307041993365,None,f,1.202692300081253,2152.5307041993365,None,,,color26,001,2022_Jan_27_1047,ProdSingRedo,3.2.3,59.9598389151794,
,,,,119,0,119,0,,,,,,,,,,,,,,,,,,,,,,,,2156.647084400058,None,,,,,,,,,,,,,,,,,discussion,new_aloud,yellow,119,136,96,2154.2892926996574,None,2154.2892926996574,None,6,1.5960959000512958,2154.2892926996574,None,2155.9360980000347,None,2156.4566323999316,None,2156.4566323999316,None,r,0.16483529936522245,2156.4566323999316,None,,,color26,001,2022_Jan_27_1047,ProdSingRedo,3.2.3,59.9598389151794,
,,,,120,0,120,0,,,,,,,,,,,,,,,,,,,,,,,,2160.724149399437,None,,,,,,,,,,,,,,,,,nature,new_aloud,yellow,120,120,200,2157.1798824993894,None,2157.1798824993894,None,3,1.4735436998307705,2157.1798824993894,None,2158.7086781999096,None,2159.220848799683,None,2159.220848799683,None,f,1.472804400138557,2159.220848799683,None,,,color26,001,2022_Jan_27_1047,ProdSingRedo,3.2.3,59.9598389151794,
,,,,121,0,121,0,,,,,,,,,,,,,,,,,,,,,,,,2165.290520399809,None,,,,,,,,,,,,,,,,,suggestion,silent,blue,121,79,314,2161.2518086992204,None,2161.2518086992204,None,1,2.281804599799216,2161.2518086992204,None,2163.5915810996667,None,2164.110665000044,None,2164.110665000044,None,f,1.1506815003231168,2164.110665000044,None,,,color26,001,2022_Jan_27_1047,ProdSingRedo,3.2.3,59.9598389151794,
,,,,122,0,122,0,,,,,,,,,,,,,,,,,,,,,,,,2176.0055141998455,None,,,,,,,,,,,,,,,,,leader,sing,red,122,22,168,2165.814840199426,None,2165.814840199426,None,6,1.7424574000760913,2165.814840199426,None,2167.6109390994534,None,2168.1296581998467,None,2168.1296581998467,None,n,7.843905500136316,2168.1296581998467,None,,,color26,001,2022_Jan_27_1047,ProdSingRedo,3.2.3,59.9598389151794,
,,,,123,0,123,0,,,,,,,,,,,,,,,,,,,,,,,,2180.973822599277,None,,,,,,,,,,,,,,,,,rural,new_aloud,yellow,123,137,269,2176.527046499774,None,2176.527046499774,None,6,2.07037889957428,2176.527046499774,None,2178.653795999475,None,2179.1755363000557,None,2179.1755363000557,None,f,1.7658935002982616,2179.1755363000557,None,,,color26,001,2022_Jan_27_1047,ProdSingRedo,3.2.3,59.9598389151794,
,,,,124,0,124,0,,,,,,,,,,,,,,,,,,,,,,,,2193.5241568991914,None,,,,,,,,,,,,,,,,,narrow,silent,blue,124,73,197,2181.498553399928,None,2181.498553399928,None,1,2.250693299807608,2181.498553399928,None,2183.7991360994056,None,2184.2996757999063,None,2184.2996757999063,None,f,9.185524900443852,2184.2996757999063,None,,,color26,001,2022_Jan_27_1047,ProdSingRedo,3.2.3,59.9598389151794,
,,,,125,0,125,0,,,,,,,,,,,,,,,,,,,,,,,,2196.4426865996793,None,,,,,,,,,,,,,,,,,sunset,aloud,yellow,125,34,315,2194.042546399869,None,2194.042546399869,None,6,1.2426146008074284,2194.042546399869,None,2195.339400799945,None,2195.856153199449,None,2195.856153199449,None,r,0.5410939995199442,2195.856153199449,None,,,color26,001,2022_Jan_27_1047,ProdSingRedo,3.2.3,59.9598389151794,
,,,,126,0,126,0,,,,,,,,,,,,,,,,,,,,,,,,2203.031131199561,None,,,,,,,,,,,,,,,,,search,new_silent,blue,126,159,276,2196.964914399199,None,2196.964914399199,None,5,1.9125110004097223,2196.964914399199,None,2198.926799699664,None,2199.4425720991567,None,2199.4425720991567,None,n,3.5548780001699924,2199.4425720991567,None,,,color26,001,2022_Jan_27_1047,ProdSingRedo,3.2.3,59.9598389151794,
,,,,127,0,127,0,,,,,,,,,,,,,,,,,,,,,,,,2206.1960472995415,None,,,,,,,,,,,,,,,,,subject,sing,red,127,28,312,2203.5577409993857,None,2203.5577409993857,None,5,1.711596199311316,2203.5577409993857,None,2205.3216396998614,None,2205.821740899235,None,2205.821740899235,None,f,0.35141299944370985,2205.821740899235,None,,,color26,001,2022_Jan_27_1047,ProdSingRedo,3.2.3,59.9598389151794,
,,,,128,0,128,0,,,,,,,,,,,,,,,,,,,,,,,,2210.7370425993577,None,,,,,,,,,,,,,,,,,still,silent,blue,128,63,304,2206.7197279995307,None,2206.7197279995307,None,4,2.357348100282252,2206.7197279995307,None,2209.1209012996405,None,2209.6353294998407,None,2209.6353294998407,None,f,1.0738800996914506,2209.6353294998407,None,,,color26,001,2022_Jan_27_1047,ProdSingRedo,3.2.3,59.9598389151794,
,,,,129,0,129,0,,,,,,,,,,,,,,,,,,,,,,,,2214.572130199522,None,,,,,,,,,,,,,,,,,marriage,sing,red,129,5,179,2211.2646816000342,None,2211.2646816000342,None,6,1.3487021997570992,2211.2646816000342,None,2212.660143399611,None,2213.1779370000586,None,2213.1779370000586,None,f,1.355450600385666,2213.1779370000586,None,,,color26,001,2022_Jan_27_1047,ProdSingRedo,3.2.3,59.9598389151794,
,,,,130,0,130,0,,,,,,,,,,,,,,,,,,,,,,,,2217.21300829947,None,,,,,,,,,,,,,,,,,quarter,sing,red,130,24,246,2215.1018352992833,None,2215.1018352992833,None,6,1.2553891008719802,2215.1018352992833,None,2216.405009199865,None,2216.9309048000723,None,2216.9309048000723,None,f,0.24211429990828037,2216.9309048000723,None,,,color26,001,2022_Jan_27_1047,ProdSingRedo,3.2.3,59.9598389151794,
,,,,131,0,131,0,,,,,,,,,,,,,,,,,,,,,,,,2223.419213199988,None,,,,,,,,,,,,,,,,,husband,silent,blue,131,77,156,2217.7443419992924,None,2217.7443419992924,None,6,2.0210105003789067,2217.7443419992924,None,2219.82121980004,None,2220.331624499522,None,2220.331624499522,None,f,3.058054800145328,2220.331624499522,None,,,color26,001,2022_Jan_27_1047,ProdSingRedo,3.2.3,59.9598389151794,
,,,,132,0,132,0,,,,,,,,,,,,,,,,,,,,,,,,2229.9787270994857,None,,,,,,,,,,,,,,,,,series,new_sing,red,132,98,279,2223.939672499895,None,2223.939672499895,None,4,4.193704300560057,2223.939672499895,None,2228.1849152995273,None,2228.701034399681,None,2228.701034399681,None,f,1.247784100472927,2228.701034399681,None,,,color26,001,2022_Jan_27_1047,ProdSingRedo,3.2.3,59.9598389151794,
,,,,133,0,133,0,,,,,,,,,,,,,,,,,,,,,,,,2234.5140674998984,None,,,,,,,,,,,,,,,,,goose,sing,red,133,13,138,2230.4946898994967,None,2230.4946898994967,None,5,1.7104137996211648,2230.4946898994967,None,2232.259329099208,None,2232.7745813997462,None,2232.7745813997462,None,r,1.7026859000325203,2232.7745813997462,None,,,color26,001,2022_Jan_27_1047,ProdSingRedo,3.2.3,59.9598389151794,
,,,,134,0,134,0,,,,,,,,,,,,,,,,,,,,,,,,2237.6333853993565,None,,,,,,,,,,,,,,,,,solution,new_aloud,yellow,134,132,294,2235.0335595998913,None,2235.0335595998913,None,4,1.395626399666071,2235.0335595998913,None,2236.4763773996383,None,2237.0000860998407,None,2237.0000860998407,None,f,0.5970720006152987,2237.0000860998407,None,,,color26,001,2022_Jan_27_1047,ProdSingRedo,3.2.3,59.9598389151794,
,,,,135,0,135,0,,,,,,,,,,,,,,,,,,,,,,,,2240.5674891993403,None,,,,,,,,,,,,,,,,,count,new_sing,red,135,113,72,2238.1536396993324,None,2238.1536396993324,None,5,1.2115766005590558,2238.1536396993324,None,2239.4162169992924,None,2239.9345037993044,None,2239.9345037993044,None,r,0.5907370001077652,2239.9345037993044,None,,,color26,001,2022_Jan_27_1047,ProdSingRedo,3.2.3,59.9598389151794,
,,,,136,0,136,0,,,,,,,,,,,,,,,,,,,,,,,,2243.8197168996558,None,,,,,,,,,,,,,,,,,country,silent,blue,136,70,73,2241.0952384993434,None,2241.0952384993434,None,4,1.334068899974227,2241.0952384993434,None,2242.4842860996723,None,2243.0065965997055,None,2243.0065965997055,None,n,0.7746398998424411,2243.0065965997055,None,,,color26,001,2022_Jan_27_1047,ProdSingRedo,3.2.3,59.9598389151794,
,,,,137,0,137,0,,,,,,,,,,,,,,,,,,,,,,,,2246.49157120008,None,,,,,,,,,,,,,,,,,committee,new_sing,red,137,114,62,2244.3474621996284,None,2244.3474621996284,None,4,1.1296854000538588,2244.3474621996284,None,2245.525132299401,None,2246.033913099207,None,2246.033913099207,None,n,0.4193693995475769,2246.033913099207,None,,,color26,001,2022_Jan_27_1047,ProdSingRedo,3.2.3,59.9598389151794,
,,,,138,0,138,0,,,,,,,,,,,,,,,,,,,,,,,,2249.5889798998833,None,,,,,,,,,,,,,,,,,breath,new_aloud,yellow,138,138,27,2247.0209063999355,None,2247.0209063999355,None,5,1.3921529995277524,2247.0209063999355,None,2248.463656099513,None,2248.9796025995165,None,2248.9796025995165,None,f,0.5776451993733644,2248.9796025995165,None,,,color26,001,2022_Jan_27_1047,ProdSingRedo,3.2.3,59.9598389151794,
,,,,139,0,139,0,,,,,,,,,,,,,,,,,,,,,,,,2252.291994399391,None,,,,,,,,,,,,,,,,,evidence,new_silent,blue,139,154,120,2250.116548899561,None,2250.116548899561,None,5,1.1606572000309825,2250.116548899561,None,2251.3246158994734,None,2251.8485516998917,None,2251.8485516998917,None,f,0.4129931991919875,2251.8485516998917,None,,,color26,001,2022_Jan_27_1047,ProdSingRedo,3.2.3,59.9598389151794,
,,,,140,0,140,0,,,,,,,,,,,,,,,,,,,,,,,,2255.050059199333,None,,,,,,,,,,,,,,,,,carry,sing,red,140,0,43,2252.8332622991875,None,2252.8332622991875,None,4,1.2439419003203511,2252.8332622991875,None,2254.1289960993454,None,2254.649383899756,None,2254.649383899756,None,r,0.37186009995639324,2254.649383899756,None,,,color26,001,2022_Jan_27_1047,ProdSingRedo,3.2.3,59.9598389151794,
,,,,141,0,141,0,,,,,,,,,,,,,,,,,,,,,,,,2257.7143524996936,None,,,,,,,,,,,,,,,,,concern,new_silent,blue,141,169,65,2255.571024700068,None,2255.571024700068,None,4,1.0340529000386596,2255.571024700068,None,2256.643168599345,None,2257.1648653000593,None,2257.1648653000593,None,n,0.5124564999714494,2257.1648653000593,None,,,color26,001,2022_Jan_27_1047,ProdSingRedo,3.2.3,59.9598389151794,
,,,,142,0,142,0,,,,,,,,,,,,,,,,,,,,,,,,2260.1419631997123,None,,,,,,,,,,,,,,,,,rough,sing,red,142,20,266,2258.245070199482,None,2258.245070199482,None,4,1.2240466000512242,2258.245070199482,None,2259.5262217000127,None,2260.0256892992184,None,2260.0256892992184,None,n,0.09107809979468584,2260.0256892992184,None,,,color26,001,2022_Jan_27_1047,ProdSingRedo,3.2.3,59.9598389151794,
,,,,143,0,143,0,,,,,,,,,,,,,,,,,,,,,,,,2262.526451599784,None,,,,,,,,,,,,,,,,,incident,new_silent,blue,143,170,158,2260.660698399879,None,2260.660698399879,None,5,1.1205350002273917,2260.660698399879,None,2261.8365007992834,None,2262.352231199853,None,2262.352231199853,None,f,0.14087919984012842,2262.352231199853,None,,,color26,001,2022_Jan_27_1047,ProdSingRedo,3.2.3,59.9598389151794,
,,,,144,0,144,0,,,,,,,,,,,,,,,,,,,,,,,,2266.5251336991787,None,,,,,,,,,,,,,,,,,ground,aloud,yellow,144,56,142,2263.04574089963,None,2263.04574089963,None,5,1.3754268996417522,2263.04574089963,None,2264.4709335993975,None,2264.9938773000613,None,2264.9938773000613,None,f,1.491266899742186,2264.9938773000613,None,,,color26,001,2022_Jan_27_1047,ProdSingRedo,3.2.3,59.9598389151794,
,,,,145,0,145,0,,,,,,,,,,,,,,,,,,,,,,,,2275.352167800069,None,,,,,,,,,,,,,,,,,capital,new_silent,blue,145,165,40,2267.056075599976,None,2267.056075599976,None,3,5.837090799584985,2267.056075599976,None,2272.9504442997277,None,2273.475058099255,None,2273.475058099255,None,f,1.834115800447762,2273.475058099255,None,,,color26,001,2022_Jan_27_1047,ProdSingRedo,3.2.3,59.9598389151794,
,,,,146,0,146,0,,,,,,,,,,,,,,,,,,,,,,,,2278.2070822995156,None,,,,,,,,,,,,,,,,,balance,new_aloud,yellow,146,142,17,2275.8835678994656,None,2275.8835678994656,None,5,1.4735693000257015,2275.8835678994656,None,2277.402480399236,None,2277.9251699000597,None,2277.9251699000597,None,f,0.24791460018604994,2277.9251699000597,None,,,color26,001,2022_Jan_27_1047,ProdSingRedo,3.2.3,59.9598389151794,
,,,,147,0,147,0,,,,,,,,,,,,,,,,,,,,,,,,2282.941494599916,None,,,,,,,,,,,,,,,,,graduate,sing,red,147,6,141,2278.73322299961,None,2278.73322299961,None,6,2.063891200348735,2278.73322299961,None,2280.8403054997325,None,2281.361335299909,None,2281.361335299909,None,r,1.5557383000850677,2281.361335299909,None,,,color26,001,2022_Jan_27_1047,ProdSingRedo,3.2.3,59.9598389151794,
,,,,148,0,148,0,,,,,,,,,,,,,,,,,,,,,,,,2287.0435730991885,None,,,,,,,,,,,,,,,,,dispute,aloud,yellow,148,35,99,2283.4663589997217,None,2283.4663589997217,None,6,2.0587838999927044,2283.4663589997217,None,2285.5786582995206,None,2286.099892999977,None,2286.099892999977,None,r,0.9051013002172112,2286.099892999977,None,,,color26,001,2022_Jan_27_1047,ProdSingRedo,3.2.3,59.9598389151794,
,,,,149,0,149,0,,,,,,,,,,,,,,,,,,,,,,,,2291.231061499566,None,,,,,,,,,,,,,,,,,comfort,new_silent,blue,149,151,59,2287.571835000068,None,2287.571835000068,None,6,2.144825200550258,2287.571835000068,None,2289.740009699948,None,2290.255642599426,None,2290.255642599426,None,r,0.9414307000115514,2290.255642599426,None,,,color26,001,2022_Jan_27_1047,ProdSingRedo,3.2.3,59.9598389151794,
,,,,150,0,150,0,,,,,,,,,,,,,,,,,,,,,,,,2297.8122087996453,None,,,,,,,,,,,,,,,,,payment,new_silent,blue,150,156,215,2291.7645511999726,None,2291.7645511999726,None,4,2.2325990004464984,2291.7645511999726,None,2294.051643499173,None,2294.5757288997993,None,2294.5757288997993,None,f,3.197583000175655,2294.5757288997993,None,,,color26,001,2022_Jan_27_1047,ProdSingRedo,3.2.3,59.9598389151794,
,,,,151,0,151,0,,,,,,,,,,,,,,,,,,,,,,,,2306.109884900041,None,,,,,,,,,,,,,,,,,problem,new_aloud,yellow,151,147,238,2298.3324107993394,None,2298.3324107993394,None,3,1.9207059005275369,2298.3324107993394,None,2300.3059241995215,None,2300.8299800995737,None,2300.8299800995737,None,r,5.2470281003043056,2300.8299800995737,None,,,color26,001,2022_Jan_27_1047,ProdSingRedo,3.2.3,59.9598389151794,
,,,,152,0,152,0,,,,,,,,,,,,,,,,,,,,,,,,2311.984337799251,None,,,,,,,,,,,,,,,,,crisis,new_aloud,yellow,152,140,79,2306.6358108995482,None,2306.6358108995482,None,1,2.2014632001519203,2306.6358108995482,None,2308.878101299517,None,2309.3992711994797,None,2309.3992711994797,None,r,2.557981500402093,2309.3992711994797,None,,,color26,001,2022_Jan_27_1047,ProdSingRedo,3.2.3,59.9598389151794,
,,,,153,0,153,0,,,,,,,,,,,,,,,,,,,,,,,,2317.11688209977,None,,,,,,,,,,,,,,,,,surprise,silent,blue,153,69,317,2312.515999400057,None,2312.515999400057,None,6,3.4970647003501654,2312.515999400057,None,2316.0575879998505,None,2316.5774957994,None,2316.5774957994,None,f,0.5074616996571422,2316.5774957994,None,,,color26,001,2022_Jan_27_1047,ProdSingRedo,3.2.3,59.9598389151794,
,,,,154,0,154,0,,,,,,,,,,,,,,,,,,,,,,,,2321.383425699547,None,,,,,,,,,,,,,,,,,shear,aloud,yellow,154,59,283,2317.6380358999595,None,2317.6380358999595,None,6,1.2469076998531818,2317.6380358999595,None,2318.940157899633,None,2319.463950799778,None,2319.463950799778,None,f,1.8850041003897786,2319.463950799778,None,,,color26,001,2022_Jan_27_1047,ProdSingRedo,3.2.3,59.9598389151794,
,,,,155,0,155,0,,,,,,,,,,,,,,,,,,,,,,,,2324.3976233992726,None,,,,,,,,,,,,,,,,,candidate,silent,blue,155,64,39,2321.9074772000313,None,2321.9074772000313,None,6,1.801175500266254,2321.9074772000313,None,2323.740125099197,None,2324.2574392994866,None,2324.2574392994866,None,f,0.10757269989699125,2324.2574392994866,None,,,color26,001,2022_Jan_27_1047,ProdSingRedo,3.2.3,59.9598389151794,
,,,,156,0,156,0,,,,,,,,,,,,,,,,,,,,,,,,2329.473817399703,None,,,,,,,,,,,,,,,,,number,silent,blue,156,67,203,2324.9367350991815,None,2324.9367350991815,None,6,0.9806618001312017,2324.9367350991815,None,2325.9723739996552,None,2326.4939091000706,None,2326.4939091000706,None,f,2.951455899514258,2326.4939091000706,None,,,color26,001,2022_Jan_27_1047,ProdSingRedo,3.2.3,59.9598389151794,
,,,,157,0,157,0,,,,,,,,,,,,,,,,,,,,,,,,2332.9305218998343,None,,,,,,,,,,,,,,,,,meeting,new_aloud,yellow,157,148,187,2329.988043899648,None,2329.988043899648,None,5,1.689037799835205,2329.988043899648,None,2331.721116199158,None,2332.240807599388,None,2332.240807599388,None,f,0.6522676004096866,2332.240807599388,None,,,color26,001,2022_Jan_27_1047,ProdSingRedo,3.2.3,59.9598389151794,
,,,,158,0,158,0,,,,,,,,,,,,,,,,,,,,,,,,2336.041609299369,None,,,,,,,,,,,,,,,,,broke,new_silent,blue,158,175,32,2333.4546365998685,None,2333.4546365998685,None,4,1.382260100916028,2333.4546365998685,None,2334.894596199505,None,2335.409837299958,None,2335.409837299958,None,n,0.5951669998466969,2335.409837299958,None,,,color26,001,2022_Jan_27_1047,ProdSingRedo,3.2.3,59.9598389151794,
,,,,159,0,159,0,,,,,,,,,,,,,,,,,,,,,,,,2341.051731299609,None,,,,,,,,,,,,,,,,,volume,silent,blue,159,83,349,2336.5742574995384,None,2336.5742574995384,None,5,2.5109449001029134,2336.5742574995384,None,2339.1315423995256,None,2339.6515693999827,None,2339.6515693999827,None,r,1.3616190003231168,2339.6515693999827,None,,,color26,001,2022_Jan_27_1047,ProdSingRedo,3.2.3,59.9598389151794,
,,,,160,0,160,0,,,,,,,,,,,,,,,,,,,,,,,,2344.1903957994655,None,,,,,,,,,,,,,,,,,exchange,new_silent,blue,160,176,121,2341.5645662993193,None,2341.5645662993193,None,6,1.304453100077808,2341.5645662993193,None,2342.9160946998745,None,2343.444232000038,None,2343.444232000038,None,f,0.7127231992781162,2343.444232000038,None,,,color26,001,2022_Jan_27_1047,ProdSingRedo,3.2.3,59.9598389151794,
,,,,161,0,161,0,,,,,,,,,,,,,,,,,,,,,,,,2347.269639299251,None,,,,,,,,,,,,,,,,,master,sing,red,161,25,180,2344.715912499465,None,2344.715912499465,None,6,1.1853268006816506,2344.715912499465,None,2345.9514520000666,None,2346.4719360992312,None,2346.4719360992312,None,f,0.7649491000920534,2346.4719360992312,None,,,color26,001,2022_Jan_27_1047,ProdSingRedo,3.2.3,59.9598389151794,
,,,,162,0,162,0,,,,,,,,,,,,,,,,,,,,,,,,2350.1317186998203,None,,,,,,,,,,,,,,,,,damage,new_sing,red,162,117,83,2347.8023130996153,None,2347.8023130996153,None,6,1.1308453995734453,2347.8023130996153,None,2348.9957985999063,None,2349.512792999856,None,2349.512792999856,None,f,0.5877235000953078,2349.512792999856,None,,,color26,001,2022_Jan_27_1047,ProdSingRedo,3.2.3,59.9598389151794,
,,,,163,0,163,0,,,,,,,,,,,,,,,,,,,,,,,,2358.5011530993506,None,,,,,,,,,,,,,,,,,bitter,new_sing,red,163,107,23,2350.648680099286,None,2350.648680099286,None,2,5.164179599843919,2350.648680099286,None,2355.8590399995446,None,2356.382241799496,None,2356.382241799496,None,f,2.078753300011158,2356.382241799496,None,,,color26,001,2022_Jan_27_1047,ProdSingRedo,3.2.3,59.9598389151794,
,,,,164,0,164,0,,,,,,,,,,,,,,,,,,,,,,,,2362.618826800026,None,,,,,,,,,,,,,,,,,range,new_silent,blue,164,178,251,2359.024057199247,None,2359.024057199247,None,4,2.5887213991954923,2359.024057199247,None,2361.6587375998497,None,2362.1781450994313,None,2362.1781450994313,None,n,0.410852400586009,2362.1781450994313,None,,,color26,001,2022_Jan_27_1047,ProdSingRedo,3.2.3,59.9598389151794,
,,,,165,0,165,0,,,,,,,,,,,,,,,,,,,,,,,,2370.082088799216,None,,,,,,,,,,,,,,,,,religion,aloud,yellow,165,49,258,2363.154415999539,None,2363.154415999539,None,6,2.9225508999079466,2363.154415999539,None,2366.125659399666,None,2366.645222099498,None,2366.645222099498,None,r,3.3997454000636935,2366.645222099498,None,,,color26,001,2022_Jan_27_1047,ProdSingRedo,3.2.3,59.9598389151794,
,,,,166,0,166,0,,,,,,,,,,,,,,,,,,,,,,,,2374.2696547992527,None,,,,,,,,,,,,,,,,,month,silent,blue,166,62,193,2370.601787899621,None,2370.601787899621,None,2,1.6991254994645715,2370.601787899621,None,2372.3427706994116,None,2372.8613282991573,None,2372.8613282991573,None,n,1.3755863001570106,2372.8613282991573,None,,,color26,001,2022_Jan_27_1047,ProdSingRedo,3.2.3,59.9598389151794,
,,,,167,0,167,0,,,,,,,,,,,,,,,,,,,,,,,,2382.9460480995476,None,,,,,,,,,,,,,,,,,expansion,new_sing,red,167,110,123,2374.7921148994938,None,2374.7921148994938,None,5,1.7486566994339228,2374.7921148994938,None,2376.584018900059,None,2377.106345899403,None,2377.106345899403,None,f,5.802671999670565,2377.106345899403,None,,,color26,001,2022_Jan_27_1047,ProdSingRedo,3.2.3,59.9598389151794,
,,,,168,0,168,0,,,,,,,,,,,,,,,,,,,,,,,,2397.454586699605,None,,,,,,,,,,,,,,,,,frank,new_sing,red,168,115,133,2383.47114160005,None,2383.47114160005,None,4,3.821604799479246,2383.47114160005,None,2387.344006399624,None,2387.8751297993585,None,2387.8751297993585,None,n,9.553616899996996,2387.8751297993585,None,,,color26,001,2022_Jan_27_1047,ProdSingRedo,3.2.3,59.9598389151794,
,,,,169,0,169,0,,,,,,,,,,,,,,,,,,,,,,,,2401.4585124999285,None,,,,,,,,,,,,,,,,,beginning,silent,blue,169,86,19,2397.986772899516,None,2397.986772899516,None,4,2.0264371996745467,2397.986772899516,None,2400.0580642996356,None,2400.583410399966,None,2400.583410399966,None,f,0.8454541005194187,2400.583410399966,None,,,color26,001,2022_Jan_27_1047,ProdSingRedo,3.2.3,59.9598389151794,
,,,,170,0,170,0,,,,,,,,,,,,,,,,,,,,,,,,2404.360318900086,None,,,,,,,,,,,,,,,,,harmony,new_aloud,yellow,170,122,148,2401.986596199684,None,2401.986596199684,None,6,1.2742874994874,2401.986596199684,None,2403.311793499626,None,2403.8325624996796,None,2403.8325624996796,None,r,0.4923224998638034,2403.8325624996796,None,,,color26,001,2022_Jan_27_1047,ProdSingRedo,3.2.3,59.9598389151794,
,,,,171,0,171,0,,,,,,,,,,,,,,,,,,,,,,,,2407.6304087992758,None,,,,,,,,,,,,,,,,,agency,silent,blue,171,72,4,2404.889649000019,None,2404.889649000019,None,6,1.4432788006961346,2404.889649000019,None,2406.37950219959,None,2406.9013305995613,None,2406.9013305995613,None,r,0.6954500004649162,2406.9013305995613,None,,,color26,001,2022_Jan_27_1047,ProdSingRedo,3.2.3,59.9598389151794,
,,,,172,0,172,0,,,,,,,,,,,,,,,,,,,,,,,,2415.1279743993655,None,,,,,,,,,,,,,,,,,youth,new_silent,blue,172,161,359,2408.158109699376,None,2408.158109699376,None,4,1.7664644001051784,2408.158109699376,None,2409.9466379992664,None,2410.4702617991716,None,2410.4702617991716,None,r,4.6224731002002954,2410.4702617991716,None,,,color26,001,2022_Jan_27_1047,ProdSingRedo,3.2.3,59.9598389151794,
,,,,173,0,173,0,,,,,,,,,,,,,,,,,,,,,,,,2419.8748092995957,None,,,,,,,,,,,,,,,,,strength,new_aloud,yellow,173,128,310,2415.6325383000076,None,2415.6325383000076,None,6,3.4603107003495097,2415.6325383000076,None,2419.1437363000587,None,2419.664629499428,None,2419.664629499428,None,r,0.17234059982001781,2419.664629499428,None,,,color26,001,2022_Jan_27_1047,ProdSingRedo,3.2.3,59.9598389151794,
,,,,174,0,174,0,,,,,,,,,,,,,,,,,,,,,,,,2425.0308561995625,None,,,,,,,,,,,,,,,,,relation,new_silent,blue,174,153,257,2420.405581799336,None,2420.405581799336,None,2,1.7431784998625517,2420.405581799336,None,2422.196548199281,None,2422.715664399788,None,2422.715664399788,None,f,2.281479699537158,2422.715664399788,None,,,color26,001,2022_Jan_27_1047,ProdSingRedo,3.2.3,59.9598389151794,
,,,,175,0,175,0,,,,,,,,,,,,,,,,,,,,,,,,2435.6066405000165,None,,,,,,,,,,,,,,,,,sweet,sing,red,175,11,319,2425.558628999628,None,2425.558628999628,None,6,2.174387499690056,2425.558628999628,None,2427.7796563999727,None,2428.3056465992704,None,2428.3056465992704,None,r,7.267061700113118,2428.3056465992704,None,,,color26,001,2022_Jan_27_1047,ProdSingRedo,3.2.3,59.9598389151794,
,,,,176,0,176,0,,,,,,,,,,,,,,,,,,,,,,,,2441.4804200995713,None,,,,,,,,,,,,,,,,,spoke,new_silent,blue,176,162,300,2436.1365336999297,None,2436.1365336999297,None,4,3.4278334006667137,2436.1365336999297,None,2439.608825000003,None,2440.1214731000364,None,2440.1214731000364,None,f,1.3313250001519918,2440.1214731000364,None,,,color26,001,2022_Jan_27_1047,ProdSingRedo,3.2.3,59.9598389151794,
,,,,177,0,177,0,,,,,,,,,,,,,,,,,,,,,,,,2445.944013099186,None,,,,,,,,,,,,,,,,,empty,aloud,yellow,177,52,112,2442.006633799523,None,2442.006633799523,None,4,2.3978883996605873,2442.006633799523,None,2444.435594299808,None,2444.951523100026,None,2444.951523100026,None,r,0.9493736000731587,2444.951523100026,None,,,color26,001,2022_Jan_27_1047,ProdSingRedo,3.2.3,59.9598389151794,
,,,,178,0,178,0,,,,,,,,,,,,,,,,,,,,,,,,2459.48426009994,None,,,,,,,,,,,,,,,,,present,silent,blue,178,71,231,2446.4625817993656,None,2446.4625817993656,None,5,6.422512699849904,2446.4625817993656,None,2452.9219033997506,None,2453.443828999996,None,2453.443828999996,None,f,6.009188799187541,2453.443828999996,None,,,color26,001,2022_Jan_27_1047,ProdSingRedo,3.2.3,59.9598389151794,
,,,,179,0,179,0,,,,,,,,,,,,,,,,,,,,,,,,2462.783731899224,None,,,,,,,,,,,,,,,,,region,sing,red,179,1,256,2460.0136209996417,None,2460.0136209996417,None,5,1.8473158003762364,2460.0136209996417,None,2461.9011027999222,None,2462.420488799922,None,2462.420488799922,None,f,0.3287173993885517,2462.420488799922,None,,,color26,001,2022_Jan_27_1047,ProdSingRedo,3.2.3,59.9598389151794,
,,,,,,,,,,,,,,,,,,,,,,,,,,,,,,,,,,,,,,,,,,,,,,,,,,,,,,,,,,,,,,,,,,,,,,,,,2463.295344299637,None,,,,,,,
