StudyLoop.thisRepN,StudyLoop.thisTrialN,StudyLoop.thisN,StudyLoop.thisIndex,TestLoop.thisRepN,TestLoop.thisTrialN,TestLoop.thisN,TestLoop.thisIndex,textCondition.started,textCondition.stopped,keyCondition.keys,keyCondition.rt,keyCondition.started,keyCondition.stopped,Condition,stim_colors,color_sing,color_aloud,color_silent,textWelcome.started,textWelcome.stopped,keyWelcome.keys,keyWelcome.rt,keyWelcome.started,keyWelcome.stopped,textAloud.started,textAloud.stopped,textSilent.started,textSilent.stopped,textSing.started,textSing.stopped,textBlank500.started,textBlank500.stopped,study_word,study_type,study_color,study_num,study_word_num,textStudy.started,textStudy.stopped,keyStudy.keys,keyStudy.started,keyStudy.stopped,textTestInstructions.started,textTestInstructions.stopped,key_resp_3.keys,key_resp_3.rt,key_resp_3.started,key_resp_3.stopped,testWord,testType,testColor,testN,test_num,test_word_num,textConf.started,textConf.stopped,textConfScale.started,textConfScale.stopped,keyConf.keys,keyConf.rt,keyConf.started,keyConf.stopped,textTestBlank.started,textTestBlank.stopped,textRKN.started,textRKN.stopped,textRKNScale.started,textRKNScale.stopped,keyRKN.keys,keyRKN.rt,keyRKN.started,keyRKN.stopped,textEnd.started,textEnd.stopped,participant,session,date,expName,psychopyVersion,frameRate,
,,,,,,,,468.5795060999226,None,y,3.3134885001927614,468.5795060999226,None,,,,,,,,,,,,,,,,,,,,,,,,,,,,,,,,,,,,,,,,,,,,,,,,,,,,,,,,,,,,,,color15,001,2021_Nov_01_1225,ProdSingRedo,3.2.3,59.96469279926563,
,,,,,,,,,,,,,,ColoredTest,"['blue', 'yellow', 'red']",blue,yellow,red,471.94490299979225,None,space,3963.1191234998405,471.94490299979225,None,,,,,,,,,,,,,,,,,,,,,,,,,,,,,,,,,,,,,,,,,,,,,,,,,,,color15,001,2021_Nov_01_1225,ProdSingRedo,3.2.3,59.96469279926563,
0,0,0,0,,,,,,,,,,,,,,,,,,,,,,471.94490299979225,None,471.94490299979225,None,471.94490299979225,None,4437.609154899837,None,citizen,sing,blue,7,50,4435.616838200018,None,None,4435.616838200018,None,,,,,,,,,,,,,,,,,,,,,,,,,,,,,,,,,color15,001,2021_Nov_01_1225,ProdSingRedo,3.2.3,59.96469279926563,
1,0,1,0,,,,,,,,,,,,,,,,,,,,,,,,,,,,4440.128344899975,None,dozen,sing,blue,0,102,4438.119975399924,None,None,4438.119975399924,None,,,,,,,,,,,,,,,,,,,,,,,,,,,,,,,,,color15,001,2021_Nov_01_1225,ProdSingRedo,3.2.3,59.96469279926563,
2,0,2,0,,,,,,,,,,,,,,,,,,,,,,,,,,,,4442.647390499944,None,rough,sing,blue,4,266,4440.644899399951,None,None,4440.644899399951,None,,,,,,,,,,,,,,,,,,,,,,,,,,,,,,,,,color15,001,2021_Nov_01_1225,ProdSingRedo,3.2.3,59.96469279926563,
3,0,3,0,,,,,,,,,,,,,,,,,,,,,,,,,,,,4445.166695899796,None,agency,silent,red,65,4,4443.167866899865,None,None,4443.167866899865,None,,,,,,,,,,,,,,,,,,,,,,,,,,,,,,,,,color15,001,2021_Nov_01_1225,ProdSingRedo,3.2.3,59.96469279926563,
4,0,4,0,,,,,,,,,,,,,,,,,,,,,,,,,,,,4447.669194999849,None,patient,sing,blue,13,213,4445.666830400005,None,None,4445.666830400005,None,,,,,,,,,,,,,,,,,,,,,,,,,,,,,,,,,color15,001,2021_Nov_01_1225,ProdSingRedo,3.2.3,59.96469279926563,
5,0,5,0,,,,,,,,,,,,,,,,,,,,,,,,,,,,4450.188388299895,None,incident,aloud,yellow,33,158,4448.178469599923,None,None,4448.178469599923,None,,,,,,,,,,,,,,,,,,,,,,,,,,,,,,,,,color15,001,2021_Nov_01_1225,ProdSingRedo,3.2.3,59.96469279926563,
6,0,6,0,,,,,,,,,,,,,,,,,,,,,,,,,,,,4452.707568399841,None,crisis,sing,blue,14,79,4450.694472200004,None,None,4450.694472200004,None,,,,,,,,,,,,,,,,,,,,,,,,,,,,,,,,,color15,001,2021_Nov_01_1225,ProdSingRedo,3.2.3,59.96469279926563,
7,0,7,0,,,,,,,,,,,,,,,,,,,,,,,,,,,,4455.226765199797,None,taste,sing,blue,15,322,4453.21986959991,None,None,4453.21986959991,None,,,,,,,,,,,,,,,,,,,,,,,,,,,,,,,,,color15,001,2021_Nov_01_1225,ProdSingRedo,3.2.3,59.96469279926563,
8,0,8,0,,,,,,,,,,,,,,,,,,,,,,,,,,,,4457.74598469981,None,birth,aloud,yellow,52,22,4455.744283499895,None,None,4455.744283499895,None,,,,,,,,,,,,,,,,,,,,,,,,,,,,,,,,,color15,001,2021_Nov_01_1225,ProdSingRedo,3.2.3,59.96469279926563,
9,0,9,0,,,,,,,,,,,,,,,,,,,,,,,,,,,,4460.2651911999565,None,music,silent,red,83,196,4458.256235899869,None,None,4458.256235899869,None,,,,,,,,,,,,,,,,,,,,,,,,,,,,,,,,,color15,001,2021_Nov_01_1225,ProdSingRedo,3.2.3,59.96469279926563,
10,0,10,0,,,,,,,,,,,,,,,,,,,,,,,,,,,,4462.784402799793,None,waste,aloud,yellow,35,350,4460.778726599878,None,None,4460.778726599878,None,,,,,,,,,,,,,,,,,,,,,,,,,,,,,,,,,color15,001,2021_Nov_01_1225,ProdSingRedo,3.2.3,59.96469279926563,
11,0,11,0,,,,,,,,,,,,,,,,,,,,,,,,,,,,4465.3035643999465,None,broad,silent,red,76,31,4463.298630199861,None,None,4463.298630199861,None,,,,,,,,,,,,,,,,,,,,,,,,,,,,,,,,,color15,001,2021_Nov_01_1225,ProdSingRedo,3.2.3,59.96469279926563,
12,0,12,0,,,,,,,,,,,,,,,,,,,,,,,,,,,,4467.822682800004,None,hunger,sing,blue,16,155,4465.819819899974,None,None,4465.819819899974,None,,,,,,,,,,,,,,,,,,,,,,,,,,,,,,,,,color15,001,2021_Nov_01_1225,ProdSingRedo,3.2.3,59.96469279926563,
13,0,13,0,,,,,,,,,,,,,,,,,,,,,,,,,,,,4470.341930900002,None,color,silent,red,70,56,4468.329560699873,None,None,4468.329560699873,None,,,,,,,,,,,,,,,,,,,,,,,,,,,,,,,,,color15,001,2021_Nov_01_1225,ProdSingRedo,3.2.3,59.96469279926563,
14,0,14,0,,,,,,,,,,,,,,,,,,,,,,,,,,,,4472.861121899914,None,sweet,sing,blue,25,319,4470.85302839987,None,None,4470.85302839987,None,,,,,,,,,,,,,,,,,,,,,,,,,,,,,,,,,color15,001,2021_Nov_01_1225,ProdSingRedo,3.2.3,59.96469279926563,
15,0,15,0,,,,,,,,,,,,,,,,,,,,,,,,,,,,4475.379931899952,None,candidate,silent,red,67,39,4473.3771557,None,None,4473.3771557,None,,,,,,,,,,,,,,,,,,,,,,,,,,,,,,,,,color15,001,2021_Nov_01_1225,ProdSingRedo,3.2.3,59.96469279926563,
16,0,16,0,,,,,,,,,,,,,,,,,,,,,,,,,,,,4477.882738499902,None,evidence,silent,red,78,120,4475.880469499854,None,None,4475.880469499854,None,,,,,,,,,,,,,,,,,,,,,,,,,,,,,,,,,color15,001,2021_Nov_01_1225,ProdSingRedo,3.2.3,59.96469279926563,
17,0,17,0,,,,,,,,,,,,,,,,,,,,,,,,,,,,4480.401932199951,None,conference,silent,red,73,66,4478.397647799924,None,None,4478.397647799924,None,,,,,,,,,,,,,,,,,,,,,,,,,,,,,,,,,color15,001,2021_Nov_01_1225,ProdSingRedo,3.2.3,59.96469279926563,
18,0,18,0,,,,,,,,,,,,,,,,,,,,,,,,,,,,4482.921104599955,None,guide,aloud,yellow,39,147,4480.911256499821,None,None,4480.911256499821,None,,,,,,,,,,,,,,,,,,,,,,,,,,,,,,,,,color15,001,2021_Nov_01_1225,ProdSingRedo,3.2.3,59.96469279926563,
19,0,19,0,,,,,,,,,,,,,,,,,,,,,,,,,,,,4485.44043279998,None,light,silent,red,79,171,4483.432418699842,None,None,4483.432418699842,None,,,,,,,,,,,,,,,,,,,,,,,,,,,,,,,,,color15,001,2021_Nov_01_1225,ProdSingRedo,3.2.3,59.96469279926563,
20,0,20,0,,,,,,,,,,,,,,,,,,,,,,,,,,,,4487.959495199844,None,reading,sing,blue,19,254,4485.955794299953,None,None,4485.955794299953,None,,,,,,,,,,,,,,,,,,,,,,,,,,,,,,,,,color15,001,2021_Nov_01_1225,ProdSingRedo,3.2.3,59.96469279926563,
21,0,21,0,,,,,,,,,,,,,,,,,,,,,,,,,,,,4490.478682699846,None,impact,aloud,yellow,34,157,4488.47258699988,None,None,4488.47258699988,None,,,,,,,,,,,,,,,,,,,,,,,,,,,,,,,,,color15,001,2021_Nov_01_1225,ProdSingRedo,3.2.3,59.96469279926563,
22,0,22,0,,,,,,,,,,,,,,,,,,,,,,,,,,,,4492.997852399945,None,tough,sing,blue,28,333,4490.99192189984,None,None,4490.99192189984,None,,,,,,,,,,,,,,,,,,,,,,,,,,,,,,,,,color15,001,2021_Nov_01_1225,ProdSingRedo,3.2.3,59.96469279926563,
23,0,23,0,,,,,,,,,,,,,,,,,,,,,,,,,,,,4495.5170357997995,None,close,aloud,yellow,58,53,4493.505187499803,None,None,4493.505187499803,None,,,,,,,,,,,,,,,,,,,,,,,,,,,,,,,,,color15,001,2021_Nov_01_1225,ProdSingRedo,3.2.3,59.96469279926563,
24,0,24,0,,,,,,,,,,,,,,,,,,,,,,,,,,,,4498.036218699999,None,beginning,sing,blue,12,19,4496.0337317998055,None,None,4496.0337317998055,None,,,,,,,,,,,,,,,,,,,,,,,,,,,,,,,,,color15,001,2021_Nov_01_1225,ProdSingRedo,3.2.3,59.96469279926563,
25,0,25,0,,,,,,,,,,,,,,,,,,,,,,,,,,,,4500.555438499898,None,title,aloud,yellow,38,331,4498.543659099843,None,None,4498.543659099843,None,,,,,,,,,,,,,,,,,,,,,,,,,,,,,,,,,color15,001,2021_Nov_01_1225,ProdSingRedo,3.2.3,59.96469279926563,
26,0,26,0,,,,,,,,,,,,,,,,,,,,,,,,,,,,4503.0746484999545,None,marriage,sing,blue,1,179,4501.070883299923,None,None,4501.070883299923,None,,,,,,,,,,,,,,,,,,,,,,,,,,,,,,,,,color15,001,2021_Nov_01_1225,ProdSingRedo,3.2.3,59.96469279926563,
27,0,27,0,,,,,,,,,,,,,,,,,,,,,,,,,,,,4505.593388999812,None,blind,sing,blue,11,24,4503.5846247999,None,None,4503.5846247999,None,,,,,,,,,,,,,,,,,,,,,,,,,,,,,,,,,color15,001,2021_Nov_01_1225,ProdSingRedo,3.2.3,59.96469279926563,
28,0,28,0,,,,,,,,,,,,,,,,,,,,,,,,,,,,4508.096357899951,None,dispute,silent,red,86,99,4506.094028799795,None,None,4506.094028799795,None,,,,,,,,,,,,,,,,,,,,,,,,,,,,,,,,,color15,001,2021_Nov_01_1225,ProdSingRedo,3.2.3,59.96469279926563,
29,0,29,0,,,,,,,,,,,,,,,,,,,,,,,,,,,,4510.615469599841,None,owner,aloud,yellow,50,208,4508.607327800011,None,None,4508.607327800011,None,,,,,,,,,,,,,,,,,,,,,,,,,,,,,,,,,color15,001,2021_Nov_01_1225,ProdSingRedo,3.2.3,59.96469279926563,
30,0,30,0,,,,,,,,,,,,,,,,,,,,,,,,,,,,4513.134649999905,None,figure,aloud,yellow,45,128,4511.128713299986,None,None,4511.128713299986,None,,,,,,,,,,,,,,,,,,,,,,,,,,,,,,,,,color15,001,2021_Nov_01_1225,ProdSingRedo,3.2.3,59.96469279926563,
31,0,31,0,,,,,,,,,,,,,,,,,,,,,,,,,,,,4515.653905899962,None,period,sing,blue,24,217,4513.642004799796,None,None,4513.642004799796,None,,,,,,,,,,,,,,,,,,,,,,,,,,,,,,,,,color15,001,2021_Nov_01_1225,ProdSingRedo,3.2.3,59.96469279926563,
32,0,32,0,,,,,,,,,,,,,,,,,,,,,,,,,,,,4518.173032299848,None,order,aloud,yellow,54,207,4516.1601803000085,None,None,4516.1601803000085,None,,,,,,,,,,,,,,,,,,,,,,,,,,,,,,,,,color15,001,2021_Nov_01_1225,ProdSingRedo,3.2.3,59.96469279926563,
33,0,33,0,,,,,,,,,,,,,,,,,,,,,,,,,,,,4520.6922462999355,None,season,silent,red,87,277,4518.685101599898,None,None,4518.685101599898,None,,,,,,,,,,,,,,,,,,,,,,,,,,,,,,,,,color15,001,2021_Nov_01_1225,ProdSingRedo,3.2.3,59.96469279926563,
34,0,34,0,,,,,,,,,,,,,,,,,,,,,,,,,,,,4523.211403899826,None,under,silent,red,64,343,4521.201809999999,None,None,4521.201809999999,None,,,,,,,,,,,,,,,,,,,,,,,,,,,,,,,,,color15,001,2021_Nov_01_1225,ProdSingRedo,3.2.3,59.96469279926563,
35,0,35,0,,,,,,,,,,,,,,,,,,,,,,,,,,,,4525.730456199963,None,tennis,aloud,yellow,41,323,4523.71874429984,None,None,4523.71874429984,None,,,,,,,,,,,,,,,,,,,,,,,,,,,,,,,,,color15,001,2021_Nov_01_1225,ProdSingRedo,3.2.3,59.96469279926563,
36,0,36,0,,,,,,,,,,,,,,,,,,,,,,,,,,,,4528.249756699894,None,design,silent,red,74,91,4526.2425565999,None,None,4526.2425565999,None,,,,,,,,,,,,,,,,,,,,,,,,,,,,,,,,,color15,001,2021_Nov_01_1225,ProdSingRedo,3.2.3,59.96469279926563,
37,0,37,0,,,,,,,,,,,,,,,,,,,,,,,,,,,,4530.7690053000115,None,curve,silent,red,77,82,4528.763818899868,None,None,4528.763818899868,None,,,,,,,,,,,,,,,,,,,,,,,,,,,,,,,,,color15,001,2021_Nov_01_1225,ProdSingRedo,3.2.3,59.96469279926563,
38,0,38,0,,,,,,,,,,,,,,,,,,,,,,,,,,,,4533.288130299887,None,executive,silent,red,69,122,4531.287180699874,None,None,4531.287180699874,None,,,,,,,,,,,,,,,,,,,,,,,,,,,,,,,,,color15,001,2021_Nov_01_1225,ProdSingRedo,3.2.3,59.96469279926563,
39,0,39,0,,,,,,,,,,,,,,,,,,,,,,,,,,,,4535.807029699907,None,oxygen,silent,red,88,209,4533.803347299807,None,None,4533.803347299807,None,,,,,,,,,,,,,,,,,,,,,,,,,,,,,,,,,color15,001,2021_Nov_01_1225,ProdSingRedo,3.2.3,59.96469279926563,
40,0,40,0,,,,,,,,,,,,,,,,,,,,,,,,,,,,4538.309733199887,None,universal,sing,blue,2,345,4536.307691199938,None,None,4536.307691199938,None,,,,,,,,,,,,,,,,,,,,,,,,,,,,,,,,,color15,001,2021_Nov_01_1225,ProdSingRedo,3.2.3,59.96469279926563,
41,0,41,0,,,,,,,,,,,,,,,,,,,,,,,,,,,,4540.828889600001,None,accident,aloud,yellow,59,0,4538.825162899913,None,None,4538.825162899913,None,,,,,,,,,,,,,,,,,,,,,,,,,,,,,,,,,color15,001,2021_Nov_01_1225,ProdSingRedo,3.2.3,59.96469279926563,
42,0,42,0,,,,,,,,,,,,,,,,,,,,,,,,,,,,4543.348239499843,None,shock,silent,red,71,284,4541.344796299934,None,None,4541.344796299934,None,,,,,,,,,,,,,,,,,,,,,,,,,,,,,,,,,color15,001,2021_Nov_01_1225,ProdSingRedo,3.2.3,59.96469279926563,
43,0,43,0,,,,,,,,,,,,,,,,,,,,,,,,,,,,4545.867476099869,None,smooth,aloud,yellow,53,292,4543.854552299948,None,None,4543.854552299948,None,,,,,,,,,,,,,,,,,,,,,,,,,,,,,,,,,color15,001,2021_Nov_01_1225,ProdSingRedo,3.2.3,59.96469279926563,
44,0,44,0,,,,,,,,,,,,,,,,,,,,,,,,,,,,4548.386613799958,None,alert,silent,red,75,6,4546.376514799893,None,None,4546.376514799893,None,,,,,,,,,,,,,,,,,,,,,,,,,,,,,,,,,color15,001,2021_Nov_01_1225,ProdSingRedo,3.2.3,59.96469279926563,
45,0,45,0,,,,,,,,,,,,,,,,,,,,,,,,,,,,4550.905857099919,None,measure,silent,red,72,184,4548.899700599955,None,None,4548.899700599955,None,,,,,,,,,,,,,,,,,,,,,,,,,,,,,,,,,color15,001,2021_Nov_01_1225,ProdSingRedo,3.2.3,59.96469279926563,
46,0,46,0,,,,,,,,,,,,,,,,,,,,,,,,,,,,4553.424931999994,None,crowd,aloud,yellow,46,81,4551.4175652998965,None,None,4551.4175652998965,None,,,,,,,,,,,,,,,,,,,,,,,,,,,,,,,,,color15,001,2021_Nov_01_1225,ProdSingRedo,3.2.3,59.96469279926563,
47,0,47,0,,,,,,,,,,,,,,,,,,,,,,,,,,,,4555.9441084999125,None,education,aloud,yellow,48,108,4553.939289300004,None,None,4553.939289300004,None,,,,,,,,,,,,,,,,,,,,,,,,,,,,,,,,,color15,001,2021_Nov_01_1225,ProdSingRedo,3.2.3,59.96469279926563,
48,0,48,0,,,,,,,,,,,,,,,,,,,,,,,,,,,,4558.46333469986,None,short,sing,blue,9,285,4556.451027299976,None,None,4556.451027299976,None,,,,,,,,,,,,,,,,,,,,,,,,,,,,,,,,,color15,001,2021_Nov_01_1225,ProdSingRedo,3.2.3,59.96469279926563,
49,0,49,0,,,,,,,,,,,,,,,,,,,,,,,,,,,,4560.982436100021,None,interior,sing,blue,3,164,4558.970568299992,None,None,4558.970568299992,None,,,,,,,,,,,,,,,,,,,,,,,,,,,,,,,,,color15,001,2021_Nov_01_1225,ProdSingRedo,3.2.3,59.96469279926563,
50,0,50,0,,,,,,,,,,,,,,,,,,,,,,,,,,,,4563.501691899961,None,clear,sing,blue,22,52,4561.4945772998035,None,None,4561.4945772998035,None,,,,,,,,,,,,,,,,,,,,,,,,,,,,,,,,,color15,001,2021_Nov_01_1225,ProdSingRedo,3.2.3,59.96469279926563,
51,0,51,0,,,,,,,,,,,,,,,,,,,,,,,,,,,,4566.0206269999035,None,trail,sing,blue,21,336,4564.015759099973,None,None,4564.015759099973,None,,,,,,,,,,,,,,,,,,,,,,,,,,,,,,,,,color15,001,2021_Nov_01_1225,ProdSingRedo,3.2.3,59.96469279926563,
52,0,52,0,,,,,,,,,,,,,,,,,,,,,,,,,,,,4568.540086899884,None,voice,aloud,yellow,51,348,4566.53432430001,None,None,4566.53432430001,None,,,,,,,,,,,,,,,,,,,,,,,,,,,,,,,,,color15,001,2021_Nov_01_1225,ProdSingRedo,3.2.3,59.96469279926563,
53,0,53,0,,,,,,,,,,,,,,,,,,,,,,,,,,,,4571.05922559998,None,contract,sing,blue,27,68,4569.053216299973,None,None,4569.053216299973,None,,,,,,,,,,,,,,,,,,,,,,,,,,,,,,,,,color15,001,2021_Nov_01_1225,ProdSingRedo,3.2.3,59.96469279926563,
54,0,54,0,,,,,,,,,,,,,,,,,,,,,,,,,,,,4573.578441999853,None,equipment,aloud,yellow,44,116,4571.579120799899,None,None,4571.579120799899,None,,,,,,,,,,,,,,,,,,,,,,,,,,,,,,,,,color15,001,2021_Nov_01_1225,ProdSingRedo,3.2.3,59.96469279926563,
55,0,55,0,,,,,,,,,,,,,,,,,,,,,,,,,,,,4576.097680599894,None,nation,silent,red,61,198,4574.091079699807,None,None,4574.091079699807,None,,,,,,,,,,,,,,,,,,,,,,,,,,,,,,,,,color15,001,2021_Nov_01_1225,ProdSingRedo,3.2.3,59.96469279926563,
56,0,56,0,,,,,,,,,,,,,,,,,,,,,,,,,,,,4578.616743899882,None,population,sing,blue,10,227,4576.61850319989,None,None,4576.61850319989,None,,,,,,,,,,,,,,,,,,,,,,,,,,,,,,,,,color15,001,2021_Nov_01_1225,ProdSingRedo,3.2.3,59.96469279926563,
57,0,57,0,,,,,,,,,,,,,,,,,,,,,,,,,,,,4581.135961099993,None,surprise,silent,red,84,317,4579.128968799952,None,None,4579.128968799952,None,,,,,,,,,,,,,,,,,,,,,,,,,,,,,,,,,color15,001,2021_Nov_01_1225,ProdSingRedo,3.2.3,59.96469279926563,
58,0,58,0,,,,,,,,,,,,,,,,,,,,,,,,,,,,4583.65514399996,None,platform,aloud,yellow,32,224,4581.656102099922,None,None,4581.656102099922,None,,,,,,,,,,,,,,,,,,,,,,,,,,,,,,,,,color15,001,2021_Nov_01_1225,ProdSingRedo,3.2.3,59.96469279926563,
59,0,59,0,,,,,,,,,,,,,,,,,,,,,,,,,,,,4586.174341299804,None,generation,aloud,yellow,31,136,4584.170475699939,None,None,4584.170475699939,None,,,,,,,,,,,,,,,,,,,,,,,,,,,,,,,,,color15,001,2021_Nov_01_1225,ProdSingRedo,3.2.3,59.96469279926563,
60,0,60,0,,,,,,,,,,,,,,,,,,,,,,,,,,,,4588.69358969992,None,error,aloud,yellow,56,117,4586.682574699866,None,None,4586.682574699866,None,,,,,,,,,,,,,,,,,,,,,,,,,,,,,,,,,color15,001,2021_Nov_01_1225,ProdSingRedo,3.2.3,59.96469279926563,
61,0,61,0,,,,,,,,,,,,,,,,,,,,,,,,,,,,4591.212719799951,None,prime,aloud,yellow,40,235,4589.199944799999,None,None,4589.199944799999,None,,,,,,,,,,,,,,,,,,,,,,,,,,,,,,,,,color15,001,2021_Nov_01_1225,ProdSingRedo,3.2.3,59.96469279926563,
62,0,62,0,,,,,,,,,,,,,,,,,,,,,,,,,,,,4593.731944399886,None,leader,silent,red,62,168,4591.724351399811,None,None,4591.724351399811,None,,,,,,,,,,,,,,,,,,,,,,,,,,,,,,,,,color15,001,2021_Nov_01_1225,ProdSingRedo,3.2.3,59.96469279926563,
63,0,63,0,,,,,,,,,,,,,,,,,,,,,,,,,,,,4596.2509596999735,None,still,sing,blue,18,304,4594.240894699935,None,None,4594.240894699935,None,,,,,,,,,,,,,,,,,,,,,,,,,,,,,,,,,color15,001,2021_Nov_01_1225,ProdSingRedo,3.2.3,59.96469279926563,
64,0,64,0,,,,,,,,,,,,,,,,,,,,,,,,,,,,4598.7702750999015,None,recall,aloud,yellow,30,255,4596.76503010001,None,None,4596.76503010001,None,,,,,,,,,,,,,,,,,,,,,,,,,,,,,,,,,color15,001,2021_Nov_01_1225,ProdSingRedo,3.2.3,59.96469279926563,
65,0,65,0,,,,,,,,,,,,,,,,,,,,,,,,,,,,4601.289200299885,None,tragedy,silent,red,85,335,4599.284086499829,None,None,4599.284086499829,None,,,,,,,,,,,,,,,,,,,,,,,,,,,,,,,,,color15,001,2021_Nov_01_1225,ProdSingRedo,3.2.3,59.96469279926563,
66,0,66,0,,,,,,,,,,,,,,,,,,,,,,,,,,,,4603.791964299977,None,trial,aloud,yellow,42,341,4601.789750499884,None,None,4601.789750499884,None,,,,,,,,,,,,,,,,,,,,,,,,,,,,,,,,,color15,001,2021_Nov_01_1225,ProdSingRedo,3.2.3,59.96469279926563,
67,0,67,0,,,,,,,,,,,,,,,,,,,,,,,,,,,,4606.311125600012,None,quantity,sing,blue,23,245,4604.3094455997925,None,None,4604.3094455997925,None,,,,,,,,,,,,,,,,,,,,,,,,,,,,,,,,,color15,001,2021_Nov_01_1225,ProdSingRedo,3.2.3,59.96469279926563,
68,0,68,0,,,,,,,,,,,,,,,,,,,,,,,,,,,,4608.830382499844,None,broke,silent,red,68,32,4606.8220595999155,None,None,4606.8220595999155,None,,,,,,,,,,,,,,,,,,,,,,,,,,,,,,,,,color15,001,2021_Nov_01_1225,ProdSingRedo,3.2.3,59.96469279926563,
69,0,69,0,,,,,,,,,,,,,,,,,,,,,,,,,,,,4611.349576399894,None,opening,sing,blue,17,205,4609.34244479984,None,None,4609.34244479984,None,,,,,,,,,,,,,,,,,,,,,,,,,,,,,,,,,color15,001,2021_Nov_01_1225,ProdSingRedo,3.2.3,59.96469279926563,
70,0,70,0,,,,,,,,,,,,,,,,,,,,,,,,,,,,4613.868730299873,None,working,silent,red,89,357,4611.870625199983,None,None,4611.870625199983,None,,,,,,,,,,,,,,,,,,,,,,,,,,,,,,,,,color15,001,2021_Nov_01_1225,ProdSingRedo,3.2.3,59.96469279926563,
71,0,71,0,,,,,,,,,,,,,,,,,,,,,,,,,,,,4616.387880299939,None,worker,sing,blue,6,356,4614.38613749994,None,None,4614.38613749994,None,,,,,,,,,,,,,,,,,,,,,,,,,,,,,,,,,color15,001,2021_Nov_01_1225,ProdSingRedo,3.2.3,59.96469279926563,
72,0,72,0,,,,,,,,,,,,,,,,,,,,,,,,,,,,4618.907052399823,None,smell,silent,red,63,291,4616.8952595999,None,None,4616.8952595999,None,,,,,,,,,,,,,,,,,,,,,,,,,,,,,,,,,color15,001,2021_Nov_01_1225,ProdSingRedo,3.2.3,59.96469279926563,
73,0,73,0,,,,,,,,,,,,,,,,,,,,,,,,,,,,4621.426079399884,None,quiet,sing,blue,29,249,4619.419929799857,None,None,4619.419929799857,None,,,,,,,,,,,,,,,,,,,,,,,,,,,,,,,,,color15,001,2021_Nov_01_1225,ProdSingRedo,3.2.3,59.96469279926563,
74,0,74,0,,,,,,,,,,,,,,,,,,,,,,,,,,,,4623.945451899897,None,raise,sing,blue,5,250,4621.940025500022,None,None,4621.940025500022,None,,,,,,,,,,,,,,,,,,,,,,,,,,,,,,,,,color15,001,2021_Nov_01_1225,ProdSingRedo,3.2.3,59.96469279926563,
75,0,75,0,,,,,,,,,,,,,,,,,,,,,,,,,,,,4626.447924799984,None,portion,silent,red,60,228,4624.445804199902,None,None,4624.445804199902,None,,,,,,,,,,,,,,,,,,,,,,,,,,,,,,,,,color15,001,2021_Nov_01_1225,ProdSingRedo,3.2.3,59.96469279926563,
76,0,76,0,,,,,,,,,,,,,,,,,,,,,,,,,,,,4628.967119799927,None,election,aloud,yellow,49,109,4626.959150499897,None,None,4626.959150499897,None,,,,,,,,,,,,,,,,,,,,,,,,,,,,,,,,,color15,001,2021_Nov_01_1225,ProdSingRedo,3.2.3,59.96469279926563,
77,0,77,0,,,,,,,,,,,,,,,,,,,,,,,,,,,,4631.486308599822,None,relation,sing,blue,20,257,4629.480361999944,None,None,4629.480361999944,None,,,,,,,,,,,,,,,,,,,,,,,,,,,,,,,,,color15,001,2021_Nov_01_1225,ProdSingRedo,3.2.3,59.96469279926563,
78,0,78,0,,,,,,,,,,,,,,,,,,,,,,,,,,,,4634.005498699844,None,majority,silent,red,82,176,4632.011174499989,None,None,4632.011174499989,None,,,,,,,,,,,,,,,,,,,,,,,,,,,,,,,,,color15,001,2021_Nov_01_1225,ProdSingRedo,3.2.3,59.96469279926563,
79,0,79,0,,,,,,,,,,,,,,,,,,,,,,,,,,,,4636.524664099794,None,machinery,silent,red,80,175,4634.521219599992,None,None,4634.521219599992,None,,,,,,,,,,,,,,,,,,,,,,,,,,,,,,,,,color15,001,2021_Nov_01_1225,ProdSingRedo,3.2.3,59.96469279926563,
80,0,80,0,,,,,,,,,,,,,,,,,,,,,,,,,,,,4639.043851199793,None,review,aloud,yellow,43,263,4637.039580299985,None,None,4637.039580299985,None,,,,,,,,,,,,,,,,,,,,,,,,,,,,,,,,,color15,001,2021_Nov_01_1225,ProdSingRedo,3.2.3,59.96469279926563,
81,0,81,0,,,,,,,,,,,,,,,,,,,,,,,,,,,,4641.563027299941,None,appeal,silent,red,66,9,4639.565280299867,None,None,4639.565280299867,None,,,,,,,,,,,,,,,,,,,,,,,,,,,,,,,,,color15,001,2021_Nov_01_1225,ProdSingRedo,3.2.3,59.96469279926563,
82,0,82,0,,,,,,,,,,,,,,,,,,,,,,,,,,,,4644.082220399985,None,build,aloud,yellow,36,35,4642.074636499863,None,None,4642.074636499863,None,,,,,,,,,,,,,,,,,,,,,,,,,,,,,,,,,color15,001,2021_Nov_01_1225,ProdSingRedo,3.2.3,59.96469279926563,
83,0,83,0,,,,,,,,,,,,,,,,,,,,,,,,,,,,4646.601531599881,None,goose,aloud,yellow,57,138,4644.591734800022,None,None,4644.591734800022,None,,,,,,,,,,,,,,,,,,,,,,,,,,,,,,,,,color15,001,2021_Nov_01_1225,ProdSingRedo,3.2.3,59.96469279926563,
84,0,84,0,,,,,,,,,,,,,,,,,,,,,,,,,,,,4649.120642599883,None,union,sing,blue,26,344,4647.112708800007,None,None,4647.112708800007,None,,,,,,,,,,,,,,,,,,,,,,,,,,,,,,,,,color15,001,2021_Nov_01_1225,ProdSingRedo,3.2.3,59.96469279926563,
85,0,85,0,,,,,,,,,,,,,,,,,,,,,,,,,,,,4651.639774599811,None,private,silent,red,81,237,4649.635366299888,None,None,4649.635366299888,None,,,,,,,,,,,,,,,,,,,,,,,,,,,,,,,,,color15,001,2021_Nov_01_1225,ProdSingRedo,3.2.3,59.96469279926563,
86,0,86,0,,,,,,,,,,,,,,,,,,,,,,,,,,,,4654.159020899795,None,notice,sing,blue,8,201,4652.149100499926,None,None,4652.149100499926,None,,,,,,,,,,,,,,,,,,,,,,,,,,,,,,,,,color15,001,2021_Nov_01_1225,ProdSingRedo,3.2.3,59.96469279926563,
87,0,87,0,,,,,,,,,,,,,,,,,,,,,,,,,,,,4656.678176699905,None,colonel,aloud,yellow,37,55,4654.667375899851,None,None,4654.667375899851,None,,,,,,,,,,,,,,,,,,,,,,,,,,,,,,,,,color15,001,2021_Nov_01_1225,ProdSingRedo,3.2.3,59.96469279926563,
88,0,88,0,,,,,,,,,,,,,,,,,,,,,,,,,,,,4659.197338399943,None,message,aloud,yellow,47,189,4657.19010040001,None,None,4657.19010040001,None,,,,,,,,,,,,,,,,,,,,,,,,,,,,,,,,,color15,001,2021_Nov_01_1225,ProdSingRedo,3.2.3,59.96469279926563,
89,0,89,0,,,,,,,,,,,,,,,,,,,,,,,,,,,,4661.716509899823,None,society,aloud,yellow,55,293,4659.712824599817,None,None,4659.712824599817,None,,,,,,,,,,,,,,,,,,,,,,,,,,,,,,,,,color15,001,2021_Nov_01_1225,ProdSingRedo,3.2.3,59.96469279926563,
,,,,,,,,,,,,,,,,,,,,,,,,,,,,,,,,,,,,,,,,,,,4662.217275699833,None,k,126.74284349987283,4662.217275699833,None,,,,,,,,,,,,,,,,,,,,,,,,,,,color15,001,2021_Nov_01_1225,ProdSingRedo,3.2.3,59.96469279926563,
,,,,0,0,0,0,,,,,,,,,,,,,,,,,,,,,,,,4805.5361734000035,None,,,,,,,,,,,,,,,,,figure,aloud,yellow,0,45,128,4789.505923799938,None,4789.505923799938,None,4,8.50227150018327,4789.505923799938,None,4798.0641409999225,None,4798.583188899793,None,4798.583188899793,None,f,6.921028600074351,4798.583188899793,None,,,color15,001,2021_Nov_01_1225,ProdSingRedo,3.2.3,59.96469279926563,
,,,,1,0,1,0,,,,,,,,,,,,,,,,,,,,,,,,4812.006745999912,None,,,,,,,,,,,,,,,,,session,new_aloud,yellow,1,120,281,4806.044677399797,None,4806.044677399797,None,3,4.299646500032395,4806.044677399797,None,4810.381097299978,None,4810.888399299933,None,4810.888399299933,None,f,1.0878536000382155,4810.888399299933,None,,,color15,001,2021_Nov_01_1225,ProdSingRedo,3.2.3,59.96469279926563,
,,,,2,0,2,0,,,,,,,,,,,,,,,,,,,,,,,,4818.380709399935,None,,,,,,,,,,,,,,,,,produce,new_sing,blue,2,107,239,4812.536257599946,None,4812.536257599946,None,1,3.5679087000899017,4812.536257599946,None,4816.1410014999565,None,4816.6481769999955,None,4816.6481769999955,None,n,1.7040888001210988,4816.6481769999955,None,,,color15,001,2021_Nov_01_1225,ProdSingRedo,3.2.3,59.96469279926563,
,,,,3,0,3,0,,,,,,,,,,,,,,,,,,,,,,,,4824.67003329983,None,,,,,,,,,,,,,,,,,weather,new_sing,blue,3,117,352,4818.90374349989,None,4818.90374349989,None,1,1.632606599945575,4818.90374349989,None,4820.581227999879,None,4821.106366199907,None,4821.106366199907,None,n,3.5418914000038058,4821.106366199907,None,,,color15,001,2021_Nov_01_1225,ProdSingRedo,3.2.3,59.96469279926563,
,,,,4,0,4,0,,,,,,,,,,,,,,,,,,,,,,,,4828.949741699966,None,,,,,,,,,,,,,,,,,route,new_sing,blue,4,98,267,4825.1988648998085,None,4825.1988648998085,None,2,2.081644100137055,4825.1988648998085,None,4827.327172799967,None,4827.839326899964,None,4827.839326899964,None,n,1.065128300106153,4827.839326899964,None,,,color15,001,2021_Nov_01_1225,ProdSingRedo,3.2.3,59.96469279926563,
,,,,5,0,5,0,,,,,,,,,,,,,,,,,,,,,,,,4832.494111899985,None,,,,,,,,,,,,,,,,,mankind,new_aloud,yellow,5,123,178,4829.4692157998215,None,4829.4692157998215,None,1,2.2431237001437694,4829.4692157998215,None,4831.763630799949,None,4832.2667743999045,None,4832.2667743999045,None,n,0.20529609988443553,4832.2667743999045,None,,,color15,001,2021_Nov_01_1225,ProdSingRedo,3.2.3,59.96469279926563,
,,,,6,0,6,0,,,,,,,,,,,,,,,,,,,,,,,,4838.422139199916,None,,,,,,,,,,,,,,,,,impact,aloud,yellow,6,34,157,4833.022885099985,None,4833.022885099985,None,3,3.6493679999839514,4833.022885099985,None,4836.7135291998275,None,4837.220703099854,None,4837.220703099854,None,f,1.1715806999709457,4837.220703099854,None,,,color15,001,2021_Nov_01_1225,ProdSingRedo,3.2.3,59.96469279926563,
,,,,7,0,7,0,,,,,,,,,,,,,,,,,,,,,,,,4843.271745499922,None,,,,,,,,,,,,,,,,,sweet,sing,blue,7,25,319,4838.941101299832,None,4838.941101299832,None,1,2.8351641001645476,4838.941101299832,None,4841.8171882999595,None,4842.320893299999,None,4842.320893299999,None,n,0.9276950000785291,4842.320893299999,None,,,color15,001,2021_Nov_01_1225,ProdSingRedo,3.2.3,59.96469279926563,
,,,,8,0,8,0,,,,,,,,,,,,,,,,,,,,,,,,4845.638909799978,None,,,,,,,,,,,,,,,,,judge,new_sing,blue,8,101,166,4843.798941399902,None,4843.798941399902,None,1,1.1935220998711884,4843.798941399902,None,4845.042230999796,None,4845.535747299902,None,4845.535747299902,None,n,0.07248009997420013,4845.535747299902,None,,,color15,001,2021_Nov_01_1225,ProdSingRedo,3.2.3,59.96469279926563,
,,,,9,0,9,0,,,,,,,,,,,,,,,,,,,,,,,,4850.48042869987,None,,,,,,,,,,,,,,,,,position,new_sing,blue,9,100,229,4846.166033099871,None,4846.166033099871,None,6,2.618765600025654,4846.166033099871,None,4848.822359499987,None,4849.327318299795,None,4849.327318299795,None,r,1.1291485000401735,4849.327318299795,None,,,color15,001,2021_Nov_01_1225,ProdSingRedo,3.2.3,59.96469279926563,
,,,,10,0,10,0,,,,,,,,,,,,,,,,,,,,,,,,4857.102735499851,None,,,,,,,,,,,,,,,,,service,new_sing,blue,10,119,280,4851.003094799817,None,4851.003094799817,None,5,3.941239699954167,4851.003094799817,None,4854.982108199969,None,4855.4882964999415,None,4855.4882964999415,None,f,1.591947800014168,4855.4882964999415,None,,,color15,001,2021_Nov_01_1225,ProdSingRedo,3.2.3,59.96469279926563,
,,,,11,0,11,0,,,,,,,,,,,,,,,,,,,,,,,,4862.176071799826,None,,,,,,,,,,,,,,,,,union,sing,blue,11,26,344,4857.6370541998185,None,4857.6370541998185,None,6,2.8912907999474555,4857.6370541998185,None,4860.569329999853,None,4861.0734802000225,None,4861.0734802000225,None,r,1.0707057998515666,4861.0734802000225,None,,,color15,001,2021_Nov_01_1225,ProdSingRedo,3.2.3,59.96469279926563,
,,,,12,0,12,0,,,,,,,,,,,,,,,,,,,,,,,,4866.337748399936,None,,,,,,,,,,,,,,,,,center,new_sing,blue,12,92,44,4862.696088799974,None,4862.696088799974,None,2,2.9277343000285327,4862.696088799974,None,4865.662790599978,None,4866.170812699944,None,4866.170812699944,None,n,0.1410831999965012,4866.170812699944,None,,,color15,001,2021_Nov_01_1225,ProdSingRedo,3.2.3,59.96469279926563,
,,,,13,0,13,0,,,,,,,,,,,,,,,,,,,,,,,,4870.999985799892,None,,,,,,,,,,,,,,,,,executive,silent,red,13,69,122,4866.860122199869,None,4866.860122199869,None,5,2.388158099958673,4866.860122199869,None,4869.300488399807,None,4869.824561599875,None,4869.824561599875,None,r,1.1438402000349015,4869.824561599875,None,,,color15,001,2021_Nov_01_1225,ProdSingRedo,3.2.3,59.96469279926563,
,,,,14,0,14,0,,,,,,,,,,,,,,,,,,,,,,,,4874.102446099976,None,,,,,,,,,,,,,,,,,council,new_aloud,yellow,14,142,71,4871.525024799863,None,4871.525024799863,None,1,1.5793053999077529,4871.525024799863,None,4873.151517599821,None,4873.672067799838,None,4873.672067799838,None,n,0.39232330000959337,4873.672067799838,None,,,color15,001,2021_Nov_01_1225,ProdSingRedo,3.2.3,59.96469279926563,
,,,,15,0,15,0,,,,,,,,,,,,,,,,,,,,,,,,4876.864651999902,None,,,,,,,,,,,,,,,,,measure,silent,red,15,72,184,4874.632655299967,None,4874.632655299967,None,1,1.5837226998992264,4874.632655299967,None,4876.260568499798,None,4876.774256899953,None,4876.774256899953,None,n,0.06582580017857254,4876.774256899953,None,,,color15,001,2021_Nov_01_1225,ProdSingRedo,3.2.3,59.96469279926563,
,,,,16,0,16,0,,,,,,,,,,,,,,,,,,,,,,,,4881.903116100002,None,,,,,,,,,,,,,,,,,dispute,silent,red,16,86,99,4877.384851299925,None,4877.384851299925,None,4,2.5356813999824226,4877.384851299925,None,4879.976519899908,None,4880.497296799906,None,4880.497296799906,None,f,1.3749122999142855,4880.497296799906,None,,,color15,001,2021_Nov_01_1225,ProdSingRedo,3.2.3,59.96469279926563,
,,,,17,0,17,0,,,,,,,,,,,,,,,,,,,,,,,,4885.680784799857,None,,,,,,,,,,,,,,,,,private,silent,red,17,81,237,4882.423449399881,None,4882.423449399881,None,5,1.944847400067374,4882.423449399881,None,4884.415352399927,None,4884.909243599977,None,4884.909243599977,None,r,0.7470027999952435,4884.909243599977,None,,,color15,001,2021_Nov_01_1225,ProdSingRedo,3.2.3,59.96469279926563,
,,,,18,0,18,0,,,,,,,,,,,,,,,,,,,,,,,,4889.267336299876,None,,,,,,,,,,,,,,,,,beginning,sing,blue,18,12,19,4886.211356399814,None,4886.211356399814,None,6,2.2449870998971164,4886.211356399814,None,4888.501078999834,None,4889.007825899869,None,4889.007825899869,None,r,0.2327242000028491,4889.007825899869,None,,,color15,001,2021_Nov_01_1225,ProdSingRedo,3.2.3,59.96469279926563,
,,,,19,0,19,0,,,,,,,,,,,,,,,,,,,,,,,,4893.5046111999545,None,,,,,,,,,,,,,,,,,election,aloud,yellow,19,49,109,4889.790764699923,None,4889.790764699923,None,4,2.12148329988122,4889.790764699923,None,4891.948128100019,None,4892.452825999819,None,4892.452825999819,None,f,1.0276353999506682,4892.452825999819,None,,,color15,001,2021_Nov_01_1225,ProdSingRedo,3.2.3,59.96469279926563,
,,,,20,0,20,0,,,,,,,,,,,,,,,,,,,,,,,,4897.975829300005,None,,,,,,,,,,,,,,,,,smooth,aloud,yellow,20,53,292,4894.017122899881,None,4894.017122899881,None,5,2.142787699820474,4894.017122899881,None,4896.1840131999925,None,4896.691848499933,None,4896.691848499933,None,f,1.2604233000893146,4896.691848499933,None,,,color15,001,2021_Nov_01_1225,ProdSingRedo,3.2.3,59.96469279926563,
,,,,21,0,21,0,,,,,,,,,,,,,,,,,,,,,,,,4902.980221099919,None,,,,,,,,,,,,,,,,,review,aloud,yellow,21,43,263,4898.50378849986,None,4898.50378849986,None,4,2.0087043000385165,4898.50378849986,None,4900.561763799982,None,4901.083280199906,None,4901.083280199906,None,f,1.860978800104931,4901.083280199906,None,,,color15,001,2021_Nov_01_1225,ProdSingRedo,3.2.3,59.96469279926563,
,,,,22,0,22,0,,,,,,,,,,,,,,,,,,,,,,,,4906.900826799916,None,,,,,,,,,,,,,,,,,contract,sing,blue,22,27,68,4903.504291199846,None,4903.504291199846,None,6,1.656170800095424,4903.504291199846,None,4905.197029499803,None,4905.720773499925,None,4905.720773499925,None,r,1.1434740000404418,4905.720773499925,None,,,color15,001,2021_Nov_01_1225,ProdSingRedo,3.2.3,59.96469279926563,
,,,,23,0,23,0,,,,,,,,,,,,,,,,,,,,,,,,4910.672915699892,None,,,,,,,,,,,,,,,,,native,new_aloud,yellow,23,139,199,4907.429479499813,None,4907.429479499813,None,1,1.8108602999709547,4907.429479499813,None,4909.288785999874,None,4909.794220999815,None,4909.794220999815,None,n,0.8461399001535028,4909.794220999815,None,,,color15,001,2021_Nov_01_1225,ProdSingRedo,3.2.3,59.96469279926563,
,,,,24,0,24,0,,,,,,,,,,,,,,,,,,,,,,,,4913.308395599946,None,,,,,,,,,,,,,,,,,trend,new_sing,blue,24,102,340,4911.195110199973,None,4911.195110199973,None,1,1.4291719000320882,4911.195110199973,None,4912.669990399852,None,4913.189489200013,None,4913.189489200013,None,n,0.09081820002757013,4913.189489200013,None,,,color15,001,2021_Nov_01_1225,ProdSingRedo,3.2.3,59.96469279926563,
,,,,25,0,25,0,,,,,,,,,,,,,,,,,,,,,,,,4916.911062299972,None,,,,,,,,,,,,,,,,,period,sing,blue,25,24,217,4913.829273599898,None,4913.829273599898,None,6,1.8910986001137644,4913.829273599898,None,4915.747660299996,None,4916.25990840001,None,4916.25990840001,None,r,0.628395700128749,4916.25990840001,None,,,color15,001,2021_Nov_01_1225,ProdSingRedo,3.2.3,59.96469279926563,
,,,,26,0,26,0,,,,,,,,,,,,,,,,,,,,,,,,4924.2188287999015,None,,,,,,,,,,,,,,,,,notice,sing,blue,26,8,201,4917.432554299943,None,4917.432554299943,None,4,4.087759700138122,4917.432554299943,None,4921.558886999963,None,4922.068966999883,None,4922.068966999883,None,f,2.123392099980265,4922.068966999883,None,,,color15,001,2021_Nov_01_1225,ProdSingRedo,3.2.3,59.96469279926563,
,,,,27,0,27,0,,,,,,,,,,,,,,,,,,,,,,,,4930.1259233998135,None,,,,,,,,,,,,,,,,,alert,silent,red,27,75,6,4924.740510699805,None,4924.740510699805,None,6,3.6678459998220205,4924.740510699805,None,4928.453870199854,None,4928.978005699813,None,4928.978005699813,None,r,1.118334800004959,4928.978005699813,None,,,color15,001,2021_Nov_01_1225,ProdSingRedo,3.2.3,59.96469279926563,
,,,,28,0,28,0,,,,,,,,,,,,,,,,,,,,,,,,4933.59493859997,None,,,,,,,,,,,,,,,,,pretty,new_sing,blue,28,91,233,4930.64806789998,None,4930.64806789998,None,1,2.1362745000515133,4930.64806789998,None,4932.82465799991,None,4933.3296510998625,None,4933.3296510998625,None,n,0.23868539999239147,4933.3296510998625,None,,,color15,001,2021_Nov_01_1225,ProdSingRedo,3.2.3,59.96469279926563,
,,,,29,0,29,0,,,,,,,,,,,,,,,,,,,,,,,,4935.980561299948,None,,,,,,,,,,,,,,,,,shear,new_aloud,yellow,29,136,283,4934.118813199922,None,4934.118813199922,None,1,1.153568700188771,4934.118813199922,None,4935.30645969999,None,4935.813509200001,None,4935.813509200001,None,n,0.13882409990765154,4935.813509200001,None,,,color15,001,2021_Nov_01_1225,ProdSingRedo,3.2.3,59.96469279926563,
,,,,30,0,30,0,,,,,,,,,,,,,,,,,,,,,,,,4938.782152900007,None,,,,,,,,,,,,,,,,,murder,new_sing,blue,30,116,195,4936.504333699821,None,4936.504333699821,None,1,1.632052700035274,4936.504333699821,None,4938.183182499837,None,4938.7036094998475,None,4938.7036094998475,None,n,0.049012199975550175,4938.7036094998475,None,,,color15,001,2021_Nov_01_1225,ProdSingRedo,3.2.3,59.96469279926563,
,,,,31,0,31,0,,,,,,,,,,,,,,,,,,,,,,,,4947.090666299919,None,,,,,,,,,,,,,,,,,month,new_aloud,yellow,31,146,193,4939.307743699988,None,4939.307743699988,None,1,7.044550999999046,4939.307743699988,None,4946.385879099835,None,4946.8976929998025,None,4946.8976929998025,None,n,0.15873290016315877,4946.8976929998025,None,,,color15,001,2021_Nov_01_1225,ProdSingRedo,3.2.3,59.96469279926563,
,,,,32,0,32,0,,,,,,,,,,,,,,,,,,,,,,,,4951.246700600022,None,,,,,,,,,,,,,,,,,raise,sing,blue,32,5,250,4947.61586349993,None,4947.61586349993,None,5,2.432580600026995,4947.61586349993,None,4950.092928999802,None,4950.5981726998,None,4950.5981726998,None,f,0.6182107001077384,4950.5981726998,None,,,color15,001,2021_Nov_01_1225,ProdSingRedo,3.2.3,59.96469279926563,
,,,,33,0,33,0,,,,,,,,,,,,,,,,,,,,,,,,4955.593429300003,None,,,,,,,,,,,,,,,,,smell,silent,red,33,63,291,4951.767753199907,None,4951.767753199907,None,2,2.3846885000821203,4951.767753199907,None,4954.194521099795,None,4954.714132099878,None,4954.714132099878,None,n,0.8386113999877125,4954.714132099878,None,,,color15,001,2021_Nov_01_1225,ProdSingRedo,3.2.3,59.96469279926563,
,,,,34,0,34,0,,,,,,,,,,,,,,,,,,,,,,,,4960.455022299895,None,,,,,,,,,,,,,,,,,build,aloud,yellow,34,36,35,4956.094770899974,None,4956.094770899974,None,3,3.2341133998706937,4956.094770899974,None,4959.364918799838,None,4959.873259600019,None,4959.873259600019,None,n,0.5511771000456065,4959.873259600019,None,,,color15,001,2021_Nov_01_1225,ProdSingRedo,3.2.3,59.96469279926563,
,,,,35,0,35,0,,,,,,,,,,,,,,,,,,,,,,,,4965.87828309997,None,,,,,,,,,,,,,,,,,budget,new_sing,blue,35,95,34,4960.981731999898,None,4960.981731999898,None,5,3.082585799973458,4960.981731999898,None,4964.104905799963,None,4964.613463899819,None,4964.613463899819,None,f,1.2349436001386493,4964.613463899819,None,,,color15,001,2021_Nov_01_1225,ProdSingRedo,3.2.3,59.96469279926563,
,,,,36,0,36,0,,,,,,,,,,,,,,,,,,,,,,,,4968.773271400016,None,,,,,,,,,,,,,,,,,research,new_silent,red,36,150,261,4966.40524360002,None,4966.40524360002,None,1,1.7791422998998314,4966.40524360002,None,4968.2287182,None,4968.73426619987,None,4968.73426619987,None,n,0.017965100007131696,4968.73426619987,None,,,color15,001,2021_Nov_01_1225,ProdSingRedo,3.2.3,59.96469279926563,
,,,,37,0,37,0,,,,,,,,,,,,,,,,,,,,,,,,4971.227008800022,None,,,,,,,,,,,,,,,,,hunger,sing,blue,37,16,155,4969.293004399864,None,4969.293004399864,None,1,1.3636974999681115,4969.293004399864,None,4970.698185599875,None,4971.203544899821,None,4971.203544899821,None,n,0.004470800049602985,4971.203544899821,None,,,color15,001,2021_Nov_01_1225,ProdSingRedo,3.2.3,59.96469279926563,
,,,,38,0,38,0,,,,,,,,,,,,,,,,,,,,,,,,4974.752728799824,None,,,,,,,,,,,,,,,,,literature,new_sing,blue,38,99,173,4971.750103299972,None,4971.750103299972,None,1,1.3542583000380546,4971.750103299972,None,4973.155415699817,None,4973.660393300001,None,4973.660393300001,None,n,1.067950800061226,4973.660393300001,None,,,color15,001,2021_Nov_01_1225,ProdSingRedo,3.2.3,59.96469279926563,
,,,,39,0,39,0,,,,,,,,,,,,,,,,,,,,,,,,4978.98030299996,None,,,,,,,,,,,,,,,,,marriage,sing,blue,39,1,179,4975.282510199817,None,4975.282510199817,None,6,2.5575918001122773,4975.282510199817,None,4977.882854199968,None,4978.382920699893,None,4978.382920699893,None,r,0.5533573001157492,4978.382920699893,None,,,color15,001,2021_Nov_01_1225,ProdSingRedo,3.2.3,59.96469279926563,
,,,,40,0,40,0,,,,,,,,,,,,,,,,,,,,,,,,4983.4111187998205,None,,,,,,,,,,,,,,,,,medicine,new_aloud,yellow,40,135,186,4979.497099699918,None,4979.497099699918,None,1,1.191283700056374,4979.497099699918,None,4980.737370699877,None,4981.242919399869,None,4981.242919399869,None,n,2.1333143999800086,4981.242919399869,None,,,color15,001,2021_Nov_01_1225,ProdSingRedo,3.2.3,59.96469279926563,
,,,,41,0,41,0,,,,,,,,,,,,,,,,,,,,,,,,4991.4520874999,None,,,,,,,,,,,,,,,,,leader,silent,red,41,62,168,4983.937774199992,None,4983.937774199992,None,5,5.782704999903217,4983.937774199992,None,4989.7611408999655,None,4990.2709590999875,None,4990.2709590999875,None,r,1.145490000024438,4990.2709590999875,None,,,color15,001,2021_Nov_01_1225,ProdSingRedo,3.2.3,59.96469279926563,
,,,,42,0,42,0,,,,,,,,,,,,,,,,,,,,,,,,4995.20197970001,None,,,,,,,,,,,,,,,,,message,aloud,yellow,42,47,189,4991.977592999814,None,4991.977592999814,None,4,1.7189110000617802,4991.977592999814,None,4993.739735899959,None,4994.258813799825,None,4994.258813799825,None,f,0.9253451998811215,4994.258813799825,None,,,color15,001,2021_Nov_01_1225,ProdSingRedo,3.2.3,59.96469279926563,
,,,,43,0,43,0,,,,,,,,,,,,,,,,,,,,,,,,4998.115670999978,None,,,,,,,,,,,,,,,,,balance,new_aloud,yellow,43,127,17,4995.7390881998,None,4995.7390881998,None,1,1.4613018000964075,4995.7390881998,None,4997.2454899,None,4997.75024549989,None,4997.75024549989,None,n,0.33799210004508495,4997.75024549989,None,,,color15,001,2021_Nov_01_1225,ProdSingRedo,3.2.3,59.96469279926563,
,,,,44,0,44,0,,,,,,,,,,,,,,,,,,,,,,,,5000.82759339991,None,,,,,,,,,,,,,,,,,pressure,new_silent,red,44,179,232,4998.637841399992,None,4998.637841399992,None,1,1.5306004998274148,4998.637841399992,None,5000.222055200022,None,5000.730779999867,None,5000.730779999867,None,n,0.06156649999320507,5000.730779999867,None,,,color15,001,2021_Nov_01_1225,ProdSingRedo,3.2.3,59.96469279926563,
,,,,45,0,45,0,,,,,,,,,,,,,,,,,,,,,,,,5004.232136699837,None,,,,,,,,,,,,,,,,,platform,aloud,yellow,45,32,224,5001.357036100002,None,5001.357036100002,None,3,1.9633585000410676,5001.357036100002,None,5003.366761300014,None,5003.887628099881,None,5003.887628099881,None,f,0.3128114999271929,5003.887628099881,None,,,color15,001,2021_Nov_01_1225,ProdSingRedo,3.2.3,59.96469279926563,
,,,,46,0,46,0,,,,,,,,,,,,,,,,,,,,,,,,5006.851560999872,None,,,,,,,,,,,,,,,,,stranger,new_silent,red,46,172,309,5004.757399800001,None,5004.757399800001,None,1,1.4509969998616725,5004.757399800001,None,5006.250845799921,None,5006.772761899978,None,5006.772761899978,None,n,0.05156679986976087,5006.772761899978,None,,,color15,001,2021_Nov_01_1225,ProdSingRedo,3.2.3,59.96469279926563,
,,,,47,0,47,0,,,,,,,,,,,,,,,,,,,,,,,,5013.4427393998485,None,,,,,,,,,,,,,,,,,concern,new_aloud,yellow,47,133,65,5007.373191199964,None,5007.373191199964,None,3,4.859187999973074,5007.373191199964,None,5012.273263799958,None,5012.78843039996,None,5012.78843039996,None,f,0.6281971000134945,5012.78843039996,None,,,color15,001,2021_Nov_01_1225,ProdSingRedo,3.2.3,59.96469279926563,
,,,,48,0,48,0,,,,,,,,,,,,,,,,,,,,,,,,5015.66997869988,None,,,,,,,,,,,,,,,,,generation,aloud,yellow,48,31,136,5013.971212199889,None,5013.971212199889,None,1,1.0938431001268327,5013.971212199889,None,5015.106851799879,None,5015.625015199883,None,5015.625015199883,None,n,0.01495380001142621,5015.625015199883,None,,,color15,001,2021_Nov_01_1225,ProdSingRedo,3.2.3,59.96469279926563,
,,,,49,0,49,0,,,,,,,,,,,,,,,,,,,,,,,,5019.630264599808,None,,,,,,,,,,,,,,,,,public,new_silent,red,49,168,244,5016.171561099822,None,5016.171561099822,None,4,2.788838499924168,5016.171561099822,None,5019.0148594998755,None,5019.517986099934,None,5019.517986099934,None,f,0.08241019980050623,5019.517986099934,None,,,color15,001,2021_Nov_01_1225,ProdSingRedo,3.2.3,59.96469279926563,
,,,,50,0,50,0,,,,,,,,,,,,,,,,,,,,,,,,5027.421347899828,None,,,,,,,,,,,,,,,,,design,silent,red,50,74,91,5020.156950999983,None,5020.156950999983,None,5,6.307602100074291,5020.156950999983,None,5026.500998699805,None,5027.03035889985,None,5027.03035889985,None,f,0.35427659982815385,5027.03035889985,None,,,color15,001,2021_Nov_01_1225,ProdSingRedo,3.2.3,59.96469279926563,
,,,,51,0,51,0,,,,,,,,,,,,,,,,,,,,,,,,5030.073998800013,None,,,,,,,,,,,,,,,,,curve,silent,red,51,77,82,5027.948919599876,None,5027.948919599876,None,1,1.139549900079146,5027.948919599876,None,5029.140257799998,None,5029.663015999831,None,5029.663015999831,None,n,0.3773600000422448,5029.663015999831,None,,,color15,001,2021_Nov_01_1225,ProdSingRedo,3.2.3,59.96469279926563,
,,,,52,0,52,0,,,,,,,,,,,,,,,,,,,,,,,,5033.561428899877,None,,,,,,,,,,,,,,,,,mechanical,new_sing,blue,52,90,185,5030.611302699894,None,5030.611302699894,None,1,1.2290854998864233,5030.611302699894,None,5031.896977699827,None,5032.41625699983,None,5032.41625699983,None,n,1.120322700124234,5032.41625699983,None,,,color15,001,2021_Nov_01_1225,ProdSingRedo,3.2.3,59.96469279926563,
,,,,53,0,53,0,,,,,,,,,,,,,,,,,,,,,,,,5035.813757399796,None,,,,,,,,,,,,,,,,,guard,new_aloud,yellow,53,130,145,5034.084983599838,None,5034.084983599838,None,1,1.123319000005722,5034.084983599838,None,5035.238856700016,None,5035.747211299837,None,5035.747211299837,None,n,0.03713339986279607,5035.747211299837,None,,,color15,001,2021_Nov_01_1225,ProdSingRedo,3.2.3,59.96469279926563,
,,,,54,0,54,0,,,,,,,,,,,,,,,,,,,,,,,,5038.949380999897,None,,,,,,,,,,,,,,,,,threat,new_silent,red,54,173,329,5036.341250699945,None,5036.341250699945,None,1,1.8189656001050025,5036.341250699945,None,5038.199629599927,None,5038.719577400014,None,5038.719577400014,None,n,0.20900019980035722,5038.719577400014,None,,,color15,001,2021_Nov_01_1225,ProdSingRedo,3.2.3,59.96469279926563,
,,,,55,0,55,0,,,,,,,,,,,,,,,,,,,,,,,,5043.483558799839,None,,,,,,,,,,,,,,,,,voice,aloud,yellow,55,51,348,5039.464203399839,None,5039.464203399839,None,4,3.400429999921471,5039.464203399839,None,5042.901430799859,None,5043.42232179991,None,5043.42232179991,None,f,0.04192609991878271,5043.42232179991,None,,,color15,001,2021_Nov_01_1225,ProdSingRedo,3.2.3,59.96469279926563,
,,,,56,0,56,0,,,,,,,,,,,,,,,,,,,,,,,,5046.757287599845,None,,,,,,,,,,,,,,,,,course,new_silent,red,56,160,74,5044.013223999878,None,5044.013223999878,None,1,1.4510697000660002,5044.013223999878,None,5045.501725999871,None,5046.017462699907,None,5046.017462699907,None,n,0.7030387001577765,5046.017462699907,None,,,color15,001,2021_Nov_01_1225,ProdSingRedo,3.2.3,59.96469279926563,
,,,,57,0,57,0,,,,,,,,,,,,,,,,,,,,,,,,5050.18864930002,None,,,,,,,,,,,,,,,,,space,new_silent,red,57,176,297,5047.2841588999145,None,5047.2841588999145,None,1,2.284246899886057,5047.2841588999145,None,5049.612052900018,None,5050.1313757000025,None,5050.1313757000025,None,n,0.02878289995715022,5050.1313757000025,None,,,color15,001,2021_Nov_01_1225,ProdSingRedo,3.2.3,59.96469279926563,
,,,,58,0,58,0,,,,,,,,,,,,,,,,,,,,,,,,5054.865002400009,None,,,,,,,,,,,,,,,,,trash,new_silent,red,58,170,337,5050.705103599932,None,5050.705103599932,None,1,3.5355586998630315,5050.705103599932,None,5054.278433499858,None,5054.7835668998305,None,5054.7835668998305,None,n,0.0565480999648571,5054.7835668998305,None,,,color15,001,2021_Nov_01_1225,ProdSingRedo,3.2.3,59.96469279926563,
,,,,59,0,59,0,,,,,,,,,,,,,,,,,,,,,,,,5060.454824500019,None,,,,,,,,,,,,,,,,,opening,sing,blue,59,17,205,5055.391805300023,None,5055.391805300023,None,6,3.832635600119829,5055.391805300023,None,5059.269771399908,None,5059.788366199937,None,5059.788366199937,None,r,0.6360774000640959,5059.788366199937,None,,,color15,001,2021_Nov_01_1225,ProdSingRedo,3.2.3,59.96469279926563,
,,,,60,0,60,0,,,,,,,,,,,,,,,,,,,,,,,,5064.093047899893,None,,,,,,,,,,,,,,,,,dozen,sing,blue,60,0,102,5060.9791194999125,None,5060.9791194999125,None,6,2.1733411999884993,5060.9791194999125,None,5063.189410199877,None,5063.7020602999255,None,5063.7020602999255,None,r,0.36238600010983646,5063.7020602999255,None,,,color15,001,2021_Nov_01_1225,ProdSingRedo,3.2.3,59.96469279926563,
,,,,61,0,61,0,,,,,,,,,,,,,,,,,,,,,,,,5068.713421799941,None,,,,,,,,,,,,,,,,,evidence,silent,red,61,78,120,5064.6202074999455,None,5064.6202074999455,None,4,2.8202241000253707,5064.6202074999455,None,5067.479891599854,None,5068.0008103,None,5068.0008103,None,f,0.6796291000209749,5068.0008103,None,,,color15,001,2021_Nov_01_1225,ProdSingRedo,3.2.3,59.96469279926563,
,,,,62,0,62,0,,,,,,,,,,,,,,,,,,,,,,,,5071.966477899812,None,,,,,,,,,,,,,,,,,travel,new_silent,red,62,161,338,5069.240850499831,None,5069.240850499831,None,3,2.0637197999749333,5069.240850499831,None,5071.350910299923,None,5071.870916099986,None,5071.870916099986,None,f,0.06555430009029806,5071.870916099986,None,,,color15,001,2021_Nov_01_1225,ProdSingRedo,3.2.3,59.96469279926563,
,,,,63,0,63,0,,,,,,,,,,,,,,,,,,,,,,,,5074.196017300012,None,,,,,,,,,,,,,,,,,store,new_aloud,yellow,63,134,305,5072.48697540001,None,5072.48697540001,None,1,1.1214288999326527,5072.48697540001,None,5073.646328900009,None,5074.152350299992,None,5074.152350299992,None,n,0.023851900128647685,5074.152350299992,None,,,color15,001,2021_Nov_01_1225,ProdSingRedo,3.2.3,59.96469279926563,
,,,,64,0,64,0,,,,,,,,,,,,,,,,,,,,,,,,5078.9067966998555,None,,,,,,,,,,,,,,,,,broke,silent,red,64,68,32,5074.711890899809,None,5074.711890899809,None,1,2.47267710021697,5074.711890899809,None,5077.237086999929,None,5077.7592997998,None,5077.7592997998,None,n,1.121131399879232,5077.7592997998,None,,,color15,001,2021_Nov_01_1225,ProdSingRedo,3.2.3,59.96469279926563,
,,,,65,0,65,0,,,,,,,,,,,,,,,,,,,,,,,,5081.719597199932,None,,,,,,,,,,,,,,,,,crowd,aloud,yellow,65,46,81,5079.430488199927,None,5079.430488199927,None,1,1.7062125999946147,5079.430488199927,None,5081.171364299953,None,5081.695045199944,None,5081.695045199944,None,n,0.009114400018006563,5081.695045199944,None,,,color15,001,2021_Nov_01_1225,ProdSingRedo,3.2.3,59.96469279926563,
,,,,66,0,66,0,,,,,,,,,,,,,,,,,,,,,,,,5084.696348299971,None,,,,,,,,,,,,,,,,,partner,new_sing,blue,66,118,211,5082.2380158999,None,5082.2380158999,None,1,1.0904683000408113,5082.2380158999,None,5083.376670199912,None,5083.881775599904,None,5083.881775599904,None,n,0.7829271000809968,5083.881775599904,None,,,color15,001,2021_Nov_01_1225,ProdSingRedo,3.2.3,59.96469279926563,
,,,,67,0,67,0,,,,,,,,,,,,,,,,,,,,,,,,5086.893986799987,None,,,,,,,,,,,,,,,,,congress,new_silent,red,67,156,67,5085.224507999839,None,5085.224507999839,None,1,1.0482171000912786,5085.224507999839,None,5086.315398799954,None,5086.833066899795,None,5086.833066899795,None,n,0.039188999915495515,5086.833066899795,None,,,color15,001,2021_Nov_01_1225,ProdSingRedo,3.2.3,59.96469279926563,
,,,,68,0,68,0,,,,,,,,,,,,,,,,,,,,,,,,5089.895233599935,None,,,,,,,,,,,,,,,,,graduate,new_aloud,yellow,68,125,141,5087.425616999855,None,5087.425616999855,None,2,1.8468764000572264,5087.425616999855,None,5089.319293999812,None,5089.824605099857,None,5089.824605099857,None,n,0.03953920002095401,5089.824605099857,None,,,color15,001,2021_Nov_01_1225,ProdSingRedo,3.2.3,59.96469279926563,
,,,,69,0,69,0,,,,,,,,,,,,,,,,,,,,,,,,5094.018992199795,None,,,,,,,,,,,,,,,,,trail,sing,blue,69,21,336,5090.411820399808,None,5090.411820399808,None,4,2.5491837000008672,5090.411820399808,None,5093.002308900002,None,5093.508172799833,None,5093.508172799833,None,f,0.4761395000386983,5093.508172799833,None,,,color15,001,2021_Nov_01_1225,ProdSingRedo,3.2.3,59.96469279926563,
,,,,70,0,70,0,,,,,,,,,,,,,,,,,,,,,,,,5096.942673799815,None,,,,,,,,,,,,,,,,,attack,new_silent,red,70,169,13,5094.548581799958,None,5094.548581799958,None,1,1.0758734999690205,5094.548581799958,None,5095.676288599847,None,5096.196515599964,None,5096.196515599964,None,n,0.7159619999583811,5096.196515599964,None,,,color15,001,2021_Nov_01_1225,ProdSingRedo,3.2.3,59.96469279926563,
,,,,71,0,71,0,,,,,,,,,,,,,,,,,,,,,,,,5099.587522499962,None,,,,,,,,,,,,,,,,,nation,silent,red,71,61,198,5097.471306300024,None,5097.471306300024,None,5,1.5451018000021577,5097.471306300024,None,5099.052212700015,None,5099.55595119996,None,5099.55595119996,None,f,0.012242400087416172,5099.55595119996,None,,,color15,001,2021_Nov_01_1225,ProdSingRedo,3.2.3,59.96469279926563,
,,,,72,0,72,0,,,,,,,,,,,,,,,,,,,,,,,,5104.108450099826,None,,,,,,,,,,,,,,,,,industry,new_aloud,yellow,72,138,161,5100.100523399888,None,5100.100523399888,None,3,3.371658500051126,5100.100523399888,None,5103.516056299908,None,5104.0127202,None,5104.0127202,None,f,0.05957389995455742,5104.0127202,None,,,color15,001,2021_Nov_01_1225,ProdSingRedo,3.2.3,59.96469279926563,
,,,,73,0,73,0,,,,,,,,,,,,,,,,,,,,,,,,5106.801586299902,None,,,,,,,,,,,,,,,,,universal,sing,blue,73,2,345,5104.609285499901,None,5104.609285499901,None,5,1.2468469000887126,5104.609285499901,None,5105.878914499888,None,5106.394438099815,None,5106.394438099815,None,f,0.38209440000355244,5106.394438099815,None,,,color15,001,2021_Nov_01_1225,ProdSingRedo,3.2.3,59.96469279926563,
,,,,74,0,74,0,,,,,,,,,,,,,,,,,,,,,,,,5114.3751989998855,None,,,,,,,,,,,,,,,,,harmony,new_sing,blue,74,104,148,5107.330192699796,None,5107.330192699796,None,2,6.246263600187376,5107.330192699796,None,5113.623377299868,None,5114.148749199929,None,5114.148749199929,None,n,0.20352900004945695,5114.148749199929,None,,,color15,001,2021_Nov_01_1225,ProdSingRedo,3.2.3,59.96469279926563,
,,,,75,0,75,0,,,,,,,,,,,,,,,,,,,,,,,,5117.262799100019,None,,,,,,,,,,,,,,,,,state,new_silent,red,75,151,303,5114.90273309988,None,5114.90273309988,None,1,1.313785299891606,5114.90273309988,None,5116.257953099906,None,5116.7642621998675,None,5116.7642621998675,None,n,0.4682987001724541,5116.7642621998675,None,,,color15,001,2021_Nov_01_1225,ProdSingRedo,3.2.3,59.96469279926563,
,,,,76,0,76,0,,,,,,,,,,,,,,,,,,,,,,,,5120.199069999857,None,,,,,,,,,,,,,,,,,minor,new_silent,red,76,177,191,5117.784351699986,None,5117.784351699986,None,1,1.2483355000149459,5117.784351699986,None,5119.0753495998215,None,5119.58303219988,None,5119.58303219988,None,n,0.5855594000313431,5119.58303219988,None,,,color15,001,2021_Nov_01_1225,ProdSingRedo,3.2.3,59.96469279926563,
,,,,77,0,77,0,,,,,,,,,,,,,,,,,,,,,,,,5122.412552000023,None,,,,,,,,,,,,,,,,,government,new_aloud,yellow,77,145,139,5120.728271599859,None,5120.728271599859,None,1,1.0800218000076711,5120.728271599859,None,5121.845321799861,None,5122.3558270998765,None,5122.3558270998765,None,n,0.03645889996550977,5122.3558270998765,None,,,color15,001,2021_Nov_01_1225,ProdSingRedo,3.2.3,59.96469279926563,
,,,,78,0,78,0,,,,,,,,,,,,,,,,,,,,,,,,5127.75564709981,None,,,,,,,,,,,,,,,,,equipment,aloud,yellow,78,44,116,5122.94803079986,None,5122.94803079986,None,5,3.8604852999560535,5122.94803079986,None,5126.853333499981,None,5127.3775718999095,None,5127.3775718999095,None,r,0.3508526999503374,5127.3775718999095,None,,,color15,001,2021_Nov_01_1225,ProdSingRedo,3.2.3,59.96469279926563,
,,,,79,0,79,0,,,,,,,,,,,,,,,,,,,,,,,,5133.337902099825,None,,,,,,,,,,,,,,,,,light,silent,red,79,79,171,5128.28247179999,None,5128.28247179999,None,4,4.013991400133818,5128.28247179999,None,5132.34041789989,None,5132.863020199817,None,5132.863020199817,None,f,0.45731070009060204,5132.863020199817,None,,,color15,001,2021_Nov_01_1225,ProdSingRedo,3.2.3,59.96469279926563,
,,,,80,0,80,0,,,,,,,,,,,,,,,,,,,,,,,,5136.731467799982,None,,,,,,,,,,,,,,,,,trial,aloud,yellow,80,42,341,5133.8538722000085,None,5133.8538722000085,None,3,2.2581444999668747,5133.8538722000085,None,5136.145470799878,None,5136.6694004000165,None,5136.6694004000165,None,f,0.034970499807968736,5136.6694004000165,None,,,color15,001,2021_Nov_01_1225,ProdSingRedo,3.2.3,59.96469279926563,
,,,,81,0,81,0,,,,,,,,,,,,,,,,,,,,,,,,5142.55236319988,None,,,,,,,,,,,,,,,,,burden,new_aloud,yellow,81,141,36,5137.257350699976,None,5137.257350699976,None,4,4.70320100011304,5137.257350699976,None,5142.002746099839,None,5142.526215699967,None,5142.526215699967,None,f,0.002481200033798814,5142.526215699967,None,,,color15,001,2021_Nov_01_1225,ProdSingRedo,3.2.3,59.96469279926563,
,,,,82,0,82,0,,,,,,,,,,,,,,,,,,,,,,,,5147.591809999896,None,,,,,,,,,,,,,,,,,grade,new_silent,red,82,157,140,5143.080416299868,None,5143.080416299868,None,2,3.2562273000366986,5143.080416299868,None,5146.390490999911,None,5146.895800499944,None,5146.895800499944,None,f,0.6726599999237806,5146.895800499944,None,,,color15,001,2021_Nov_01_1225,ProdSingRedo,3.2.3,59.96469279926563,
,,,,83,0,83,0,,,,,,,,,,,,,,,,,,,,,,,,5150.52864959999,None,,,,,,,,,,,,,,,,,escape,new_sing,blue,83,106,118,5148.116966599831,None,5148.116966599831,None,1,1.3635927001014352,5148.116966599831,None,5149.527462599799,None,5150.049648099812,None,5150.049648099812,None,n,0.4547036997973919,5150.049648099812,None,,,color15,001,2021_Nov_01_1225,ProdSingRedo,3.2.3,59.96469279926563,
,,,,84,0,84,0,,,,,,,,,,,,,,,,,,,,,,,,5152.998493399937,None,,,,,,,,,,,,,,,,,science,new_silent,red,84,153,275,5151.051851899829,None,5151.051851899829,None,1,1.2526976999361068,5151.051851899829,None,5152.342299300013,None,5152.84561869991,None,5152.84561869991,None,n,0.1231627999804914,5152.84561869991,None,,,color15,001,2021_Nov_01_1225,ProdSingRedo,3.2.3,59.96469279926563,
,,,,85,0,85,0,,,,,,,,,,,,,,,,,,,,,,,,5156.24986929982,None,,,,,,,,,,,,,,,,,suspect,new_sing,blue,85,105,318,5153.523699600017,None,5153.523699600017,None,1,1.1247865001205355,5153.523699600017,None,5154.693588099908,None,5155.203446500003,None,5155.203446500003,None,n,1.0130082999821752,5155.203446500003,None,,,color15,001,2021_Nov_01_1225,ProdSingRedo,3.2.3,59.96469279926563,
,,,,86,0,86,0,,,,,,,,,,,,,,,,,,,,,,,,5159.37077069981,None,,,,,,,,,,,,,,,,,majority,silent,red,86,82,176,5156.781822599936,None,5156.781822599936,None,1,1.4907039999961853,5156.781822599936,None,5158.321169199888,None,5158.826972399838,None,5158.826972399838,None,n,0.5178206998389214,5158.826972399838,None,,,color15,001,2021_Nov_01_1225,ProdSingRedo,3.2.3,59.96469279926563,
,,,,87,0,87,0,,,,,,,,,,,,,,,,,,,,,,,,5161.649469599826,None,,,,,,,,,,,,,,,,,title,aloud,yellow,87,38,331,5159.8929567998275,None,5159.8929567998275,None,1,1.1554010000545532,5159.8929567998275,None,5161.08358869981,None,5161.594260999933,None,5161.594260999933,None,n,0.02999949990771711,5161.594260999933,None,,,color15,001,2021_Nov_01_1225,ProdSingRedo,3.2.3,59.96469279926563,
,,,,88,0,88,0,,,,,,,,,,,,,,,,,,,,,,,,5167.694422899978,None,,,,,,,,,,,,,,,,,tough,sing,blue,88,28,333,5162.165264899842,None,5162.165264899842,None,4,4.842863199999556,5162.165264899842,None,5167.038136899937,None,5167.538789700018,None,5167.538789700018,None,f,0.12555989995598793,5167.538789700018,None,,,color15,001,2021_Nov_01_1225,ProdSingRedo,3.2.3,59.96469279926563,
,,,,89,0,89,0,,,,,,,,,,,,,,,,,,,,,,,,5172.967460499844,None,,,,,,,,,,,,,,,,,waste,aloud,yellow,89,35,350,5168.218149599852,None,5168.218149599852,None,5,3.1665060000959784,5168.218149599852,None,5171.433922299882,None,5171.951724199811,None,5171.951724199811,None,r,0.9846687999088317,5171.951724199811,None,,,color15,001,2021_Nov_01_1225,ProdSingRedo,3.2.3,59.96469279926563,
,,,,90,0,90,0,,,,,,,,,,,,,,,,,,,,,,,,5175.868834999856,None,,,,,,,,,,,,,,,,,drama,new_aloud,yellow,90,149,103,5173.4930864998605,None,5173.4930864998605,None,1,1.2274297000840306,5173.4930864998605,None,5174.76416989998,None,5175.271714599803,None,5175.271714599803,None,n,0.5607781999278814,5175.271714599803,None,,,color15,001,2021_Nov_01_1225,ProdSingRedo,3.2.3,59.96469279926563,
,,,,91,0,91,0,,,,,,,,,,,,,,,,,,,,,,,,5178.6742403998505,None,,,,,,,,,,,,,,,,,count,new_sing,blue,91,110,72,5176.394499499816,None,5176.394499499816,None,1,1.0139385000802577,5176.394499499816,None,5177.453453299822,None,5177.973705099896,None,5177.973705099896,None,n,0.6667434999253601,5177.973705099896,None,,,color15,001,2021_Nov_01_1225,ProdSingRedo,3.2.3,59.96469279926563,
,,,,92,0,92,0,,,,,,,,,,,,,,,,,,,,,,,,5181.927442099899,None,,,,,,,,,,,,,,,,,watch,new_aloud,yellow,92,137,351,5179.197202899959,None,5179.197202899959,None,2,1.6195576000027359,5179.197202899959,None,5180.852925699903,None,5181.362912399927,None,5181.362912399927,None,n,0.5336082999128848,5181.362912399927,None,,,color15,001,2021_Nov_01_1225,ProdSingRedo,3.2.3,59.96469279926563,
,,,,93,0,93,0,,,,,,,,,,,,,,,,,,,,,,,,5185.379139599856,None,,,,,,,,,,,,,,,,,worker,sing,blue,93,6,356,5182.4582942000125,None,5182.4582942000125,None,3,1.7184737001080066,5182.4582942000125,None,5184.229001699947,None,5184.734816699987,None,5184.734816699987,None,n,0.6096190998796374,5184.734816699987,None,,,color15,001,2021_Nov_01_1225,ProdSingRedo,3.2.3,59.96469279926563,
,,,,94,0,94,0,,,,,,,,,,,,,,,,,,,,,,,,5189.7845748998225,None,,,,,,,,,,,,,,,,,color,silent,red,94,70,56,5185.9014104998205,None,5185.9014104998205,None,1,2.779346900060773,5185.9014104998205,None,5188.728260899894,None,5189.234755799873,None,5189.234755799873,None,n,0.5178602000232786,5189.234755799873,None,,,color15,001,2021_Nov_01_1225,ProdSingRedo,3.2.3,59.96469279926563,
,,,,95,0,95,0,,,,,,,,,,,,,,,,,,,,,,,,5192.481969699962,None,,,,,,,,,,,,,,,,,clear,sing,blue,95,22,52,5190.31433149986,None,5190.31433149986,None,6,1.5181294998619705,5190.31433149986,None,5191.883793900022,None,5192.389864399796,None,5192.389864399796,None,r,0.06638669990934432,5192.389864399796,None,,,color15,001,2021_Nov_01_1225,ProdSingRedo,3.2.3,59.96469279926563,
,,,,96,0,96,0,,,,,,,,,,,,,,,,,,,,,,,,5195.733386799926,None,,,,,,,,,,,,,,,,,interior,sing,blue,96,3,164,5192.994277499849,None,5192.994277499849,None,6,1.558283699909225,5192.994277499849,None,5194.600607499946,None,5195.10545579996,None,5195.10545579996,None,r,0.6065946999005973,5195.10545579996,None,,,color15,001,2021_Nov_01_1225,ProdSingRedo,3.2.3,59.96469279926563,
,,,,97,0,97,0,,,,,,,,,,,,,,,,,,,,,,,,5198.826666499954,None,,,,,,,,,,,,,,,,,orchestra,new_aloud,yellow,97,128,206,5196.234025199898,None,5196.234025199898,None,1,1.3425205999519676,5196.234025199898,None,5197.621486600023,None,5198.147418599809,None,5198.147418599809,None,n,0.6530516999773681,5198.147418599809,None,,,color15,001,2021_Nov_01_1225,ProdSingRedo,3.2.3,59.96469279926563,
,,,,98,0,98,0,,,,,,,,,,,,,,,,,,,,,,,,5211.922499299981,None,,,,,,,,,,,,,,,,,bucket,new_silent,red,98,152,33,5199.355566599872,None,5199.355566599872,None,1,11.557000800035894,5199.355566599872,None,5210.952638000017,None,5211.461730499985,None,5211.461730499985,None,n,0.42680149991065264,5211.461730499985,None,,,color15,001,2021_Nov_01_1225,ProdSingRedo,3.2.3,59.96469279926563,
,,,,99,0,99,0,,,,,,,,,,,,,,,,,,,,,,,,5217.54689290002,None,,,,,,,,,,,,,,,,,guide,aloud,yellow,99,39,147,5212.451610799879,None,5212.451610799879,None,5,3.3810056999791414,5212.451610799879,None,5215.875251999823,None,5216.384518199833,None,5216.384518199833,None,r,1.1280396999791265,5216.384518199833,None,,,color15,001,2021_Nov_01_1225,ProdSingRedo,3.2.3,59.96469279926563,
,,,,100,0,100,0,,,,,,,,,,,,,,,,,,,,,,,,5221.017172199907,None,,,,,,,,,,,,,,,,,colonel,aloud,yellow,100,37,55,5218.069203999825,None,5218.069203999825,None,6,1.9712034000549465,5218.069203999825,None,5220.076853499981,None,5220.583028599853,None,5220.583028599853,None,r,0.4096790999174118,5220.583028599853,None,,,color15,001,2021_Nov_01_1225,ProdSingRedo,3.2.3,59.96469279926563,
,,,,101,0,101,0,,,,,,,,,,,,,,,,,,,,,,,,5225.764323199866,None,,,,,,,,,,,,,,,,,order,aloud,yellow,101,54,207,5221.539957099827,None,5221.539957099827,None,6,3.1805809000506997,5221.539957099827,None,5224.765896999976,None,5225.284726399928,None,5225.284726399928,None,r,0.45137930009514093,5225.284726399928,None,,,color15,001,2021_Nov_01_1225,ProdSingRedo,3.2.3,59.96469279926563,
,,,,102,0,102,0,,,,,,,,,,,,,,,,,,,,,,,,5229.183647099882,None,,,,,,,,,,,,,,,,,running,new_sing,blue,102,108,268,5226.264065499883,None,5226.264065499883,None,1,2.2081636001821607,5226.264065499883,None,5228.522978499997,None,5229.028408000013,None,5229.028408000013,None,n,0.12389810010790825,5229.028408000013,None,,,color15,001,2021_Nov_01_1225,ProdSingRedo,3.2.3,59.96469279926563,
,,,,103,0,103,0,,,,,,,,,,,,,,,,,,,,,,,,5233.511499000015,None,,,,,,,,,,,,,,,,,emergency,new_aloud,yellow,103,124,110,5229.684257899877,None,5229.684257899877,None,1,2.6602950000669807,5229.684257899877,None,5232.39967319998,None,5232.9191522998735,None,5232.9191522998735,None,n,0.5613293000496924,5232.9191522998735,None,,,color15,001,2021_Nov_01_1225,ProdSingRedo,3.2.3,59.96469279926563,
,,,,104,0,104,0,,,,,,,,,,,,,,,,,,,,,,,,5236.648347900016,None,,,,,,,,,,,,,,,,,working,silent,red,104,89,357,5234.04006319982,None,5234.04006319982,None,2,1.7044609999284148,5234.04006319982,None,5235.800118600018,None,5236.310424699914,None,5236.310424699914,None,n,0.31418449990451336,5236.310424699914,None,,,color15,001,2021_Nov_01_1225,ProdSingRedo,3.2.3,59.96469279926563,
,,,,105,0,105,0,,,,,,,,,,,,,,,,,,,,,,,,5240.216465799836,None,,,,,,,,,,,,,,,,,taste,sing,blue,105,15,322,5237.176243499853,None,5237.176243499853,None,6,1.4804698000662029,5237.176243499853,None,5238.702577699907,None,5239.219346999889,None,5239.219346999889,None,r,0.9653632999397814,5239.219346999889,None,,,color15,001,2021_Nov_01_1225,ProdSingRedo,3.2.3,59.96469279926563,
,,,,106,0,106,0,,,,,,,,,,,,,,,,,,,,,,,,5246.05711009982,None,,,,,,,,,,,,,,,,,sound,new_silent,red,106,171,295,5240.743398400024,None,5240.743398400024,None,5,4.441236600046977,5240.743398400024,None,5245.22129879985,None,5245.725734399864,None,5245.725734399864,None,r,0.30677339993417263,5245.725734399864,None,,,color15,001,2021_Nov_01_1225,ProdSingRedo,3.2.3,59.96469279926563,
,,,,107,0,107,0,,,,,,,,,,,,,,,,,,,,,,,,5253.616052899975,None,,,,,,,,,,,,,,,,,rough,sing,blue,107,4,266,5246.584654799895,None,5246.584654799895,None,5,4.303812199970707,5246.584654799895,None,5250.930800299859,None,5251.452434399864,None,5251.452434399864,None,r,2.139986499911174,5251.452434399864,None,,,color15,001,2021_Nov_01_1225,ProdSingRedo,3.2.3,59.96469279926563,
,,,,108,0,108,0,,,,,,,,,,,,,,,,,,,,,,,,5260.548315299908,None,,,,,,,,,,,,,,,,,society,aloud,yellow,108,55,293,5254.138721199939,None,5254.138721199939,None,5,3.5977580999024212,5254.138721199939,None,5257.780831599841,None,5258.3046306998,None,5258.3046306998,None,r,2.2236095999833196,5258.3046306998,None,,,color15,001,2021_Nov_01_1225,ProdSingRedo,3.2.3,59.96469279926563,
,,,,109,0,109,0,,,,,,,,,,,,,,,,,,,,,,,,5266.760957699968,None,,,,,,,,,,,,,,,,,surface,new_sing,blue,109,93,316,5261.0676912998315,None,5261.0676912998315,None,1,1.7488641000818461,5261.0676912998315,None,5262.8523534999695,None,5263.351081199944,None,5263.351081199944,None,f,3.3854704999830574,5263.351081199944,None,,,color15,001,2021_Nov_01_1225,ProdSingRedo,3.2.3,59.96469279926563,
,,,,110,0,110,0,,,,,,,,,,,,,,,,,,,,,,,,5271.7656121999025,None,,,,,,,,,,,,,,,,,hearing,new_sing,blue,110,109,150,5267.288289699936,None,5267.288289699936,None,3,3.328320800093934,5267.288289699936,None,5270.667404499836,None,5271.1937229998875,None,5271.1937229998875,None,f,0.53502619988285,5271.1937229998875,None,,,color15,001,2021_Nov_01_1225,ProdSingRedo,3.2.3,59.96469279926563,
,,,,111,0,111,0,,,,,,,,,,,,,,,,,,,,,,,,5273.983349799877,None,,,,,,,,,,,,,,,,,birth,aloud,yellow,111,52,22,5272.2940213999245,None,5272.2940213999245,None,1,1.090604200027883,5272.2940213999245,None,5273.428910699906,None,5273.937114199856,None,5273.937114199856,None,n,0.015282500069588423,5273.937114199856,None,,,color15,001,2021_Nov_01_1225,ProdSingRedo,3.2.3,59.96469279926563,
,,,,112,0,112,0,,,,,,,,,,,,,,,,,,,,,,,,5276.75491899997,None,,,,,,,,,,,,,,,,,error,aloud,yellow,112,56,117,5274.508169499924,None,5274.508169499924,None,1,1.0205304000992328,5274.508169499924,None,5275.567020499846,None,5276.087447099853,None,5276.087447099853,None,n,0.6331178001128137,5276.087447099853,None,,,color15,001,2021_Nov_01_1225,ProdSingRedo,3.2.3,59.96469279926563,
,,,,113,0,113,0,,,,,,,,,,,,,,,,,,,,,,,,5279.97436699993,None,,,,,,,,,,,,,,,,,region,new_silent,red,113,158,256,5277.281812699977,None,5277.281812699977,None,3,1.774703900096938,5277.281812699977,None,5279.102198599838,None,5279.610199499875,None,5279.610199499875,None,f,0.34232719987630844,5279.610199499875,None,,,color15,001,2021_Nov_01_1225,ProdSingRedo,3.2.3,59.96469279926563,
,,,,114,0,114,0,,,,,,,,,,,,,,,,,,,,,,,,5283.094721299829,None,,,,,,,,,,,,,,,,,reach,new_silent,red,114,165,253,5280.50044470001,None,5280.50044470001,None,1,1.6760617999825627,5280.50044470001,None,5282.225331999827,None,5282.746574699879,None,5282.746574699879,None,n,0.32599540008232,5282.746574699879,None,,,color15,001,2021_Nov_01_1225,ProdSingRedo,3.2.3,59.96469279926563,
,,,,115,0,115,0,,,,,,,,,,,,,,,,,,,,,,,,5285.856854900019,None,,,,,,,,,,,,,,,,,business,new_aloud,yellow,115,143,38,5283.624534599949,None,5283.624534599949,None,1,1.0720659999642521,5283.624534599949,None,5284.750344099943,None,5285.27124599996,None,5285.27124599996,None,n,0.5689569001551718,5285.27124599996,None,,,color15,001,2021_Nov_01_1225,ProdSingRedo,3.2.3,59.96469279926563,
,,,,116,0,116,0,,,,,,,,,,,,,,,,,,,,,,,,5288.3321426999755,None,,,,,,,,,,,,,,,,,citizen,sing,blue,116,7,50,5286.358822199982,None,5286.358822199982,None,5,1.3138603998813778,5286.358822199982,None,5287.712795999832,None,5288.2436219998635,None,5288.2436219998635,None,r,0.05267070000991225,5288.2436219998635,None,,,color15,001,2021_Nov_01_1225,ProdSingRedo,3.2.3,59.96469279926563,
,,,,117,0,117,0,,,,,,,,,,,,,,,,,,,,,,,,5292.44576069992,None,,,,,,,,,,,,,,,,,shock,silent,red,117,71,284,5288.855344999814,None,5288.855344999814,None,2,2.641522499965504,5288.855344999814,None,5291.5327405999415,None,5292.030047399923,None,5292.030047399923,None,n,0.3703570000361651,5292.030047399923,None,,,color15,001,2021_Nov_01_1225,ProdSingRedo,3.2.3,59.96469279926563,
,,,,118,0,118,0,,,,,,,,,,,,,,,,,,,,,,,,5295.791529199807,None,,,,,,,,,,,,,,,,,instrument,new_sing,blue,118,103,163,5292.947543199873,None,5292.947543199873,None,3,1.8611435999628156,5292.947543199873,None,5294.851810899796,None,5295.360505699879,None,5295.360505699879,None,f,0.40014009992592037,5295.360505699879,None,,,color15,001,2021_Nov_01_1225,ProdSingRedo,3.2.3,59.96469279926563,
,,,,119,0,119,0,,,,,,,,,,,,,,,,,,,,,,,,5301.128836499993,None,,,,,,,,,,,,,,,,,quiet,sing,blue,119,29,249,5296.317124199821,None,5296.317124199821,None,3,4.019819299923256,5296.317124199821,None,5300.380426199874,None,5300.8999706998,None,5300.8999706998,None,f,0.19653149996884167,5300.8999706998,None,,,color15,001,2021_Nov_01_1225,ProdSingRedo,3.2.3,59.96469279926563,
,,,,120,0,120,0,,,,,,,,,,,,,,,,,,,,,,,,5303.781529799802,None,,,,,,,,,,,,,,,,,still,sing,blue,120,18,304,5301.65247929981,None,5301.65247929981,None,1,1.2681893000844866,5301.65247929981,None,5302.9641604998615,None,5303.480625999859,None,5303.480625999859,None,n,0.2719446001574397,5303.480625999859,None,,,color15,001,2021_Nov_01_1225,ProdSingRedo,3.2.3,59.96469279926563,
,,,,121,0,121,0,,,,,,,,,,,,,,,,,,,,,,,,5308.435576800024,None,,,,,,,,,,,,,,,,,tragedy,silent,red,121,85,335,5304.306481499923,None,5304.306481499923,None,3,3.5022553999442607,5304.306481499923,None,5307.8547741000075,None,5308.3580029997975,None,5308.3580029997975,None,f,0.042503700125962496,5308.3580029997975,None,,,color15,001,2021_Nov_01_1225,ProdSingRedo,3.2.3,59.96469279926563,
,,,,122,0,122,0,,,,,,,,,,,,,,,,,,,,,,,,5312.033208400011,None,,,,,,,,,,,,,,,,,machinery,silent,red,122,80,175,5308.967168999836,None,5308.967168999836,None,6,2.09730749996379,5308.967168999836,None,5311.107592699816,None,5311.614938499872,None,5311.614938499872,None,r,0.4015334998257458,5311.614938499872,None,,,color15,001,2021_Nov_01_1225,ProdSingRedo,3.2.3,59.96469279926563,
,,,,123,0,123,0,,,,,,,,,,,,,,,,,,,,,,,,5318.312853900017,None,,,,,,,,,,,,,,,,,silence,new_aloud,yellow,123,148,288,5312.546426499961,None,5312.546426499961,None,4,5.134196400176734,5312.546426499961,None,5317.724517899798,None,5318.2276259998325,None,5318.2276259998325,None,f,0.06091490015387535,5318.2276259998325,None,,,color15,001,2021_Nov_01_1225,ProdSingRedo,3.2.3,59.96469279926563,
,,,,124,0,124,0,,,,,,,,,,,,,,,,,,,,,,,,5321.298744899919,None,,,,,,,,,,,,,,,,,population,sing,blue,124,10,227,5318.8447021998,None,5318.8447021998,None,4,1.4038614998571575,5318.8447021998,None,5320.300836199895,None,5320.802759899991,None,5320.802759899991,None,f,0.46186989988200366,5320.802759899991,None,,,color15,001,2021_Nov_01_1225,ProdSingRedo,3.2.3,59.96469279926563,
,,,,125,0,125,0,,,,,,,,,,,,,,,,,,,,,,,,5332.259398799855,None,,,,,,,,,,,,,,,,,agency,silent,red,125,65,4,5321.8267184,None,5321.8267184,None,3,9.789891000138596,5321.8267184,None,5331.66009219992,None,5332.180302199908,None,5332.180302199908,None,n,0.044365999987348914,5332.180302199908,None,,,color15,001,2021_Nov_01_1225,ProdSingRedo,3.2.3,59.96469279926563,
,,,,126,0,126,0,,,,,,,,,,,,,,,,,,,,,,,,5335.445834199898,None,,,,,,,,,,,,,,,,,blind,sing,blue,126,11,24,5332.785270699998,None,5332.785270699998,None,1,1.4312456001061946,5332.785270699998,None,5334.259460199857,None,5334.782791899983,None,5334.782791899983,None,n,0.6257733998354524,5334.782791899983,None,,,color15,001,2021_Nov_01_1225,ProdSingRedo,3.2.3,59.96469279926563,
,,,,127,0,127,0,,,,,,,,,,,,,,,,,,,,,,,,5337.981802799972,None,,,,,,,,,,,,,,,,,music,silent,red,127,83,196,5335.973154800013,None,5335.973154800013,None,1,1.035818099975586,5335.973154800013,None,5337.04733709991,None,5337.568400399992,None,5337.568400399992,None,n,0.37623059982433915,5337.568400399992,None,,,color15,001,2021_Nov_01_1225,ProdSingRedo,3.2.3,59.96469279926563,
,,,,128,0,128,0,,,,,,,,,,,,,,,,,,,,,,,,5341.1355806000065,None,,,,,,,,,,,,,,,,,company,new_sing,blue,128,113,64,5338.513434899971,None,5338.513434899971,None,1,1.151270000031218,5338.513434899971,None,5339.713621999836,None,5340.241026700009,None,5340.241026700009,None,n,0.8636157000437379,5340.241026700009,None,,,color15,001,2021_Nov_01_1225,ProdSingRedo,3.2.3,59.96469279926563,
,,,,129,0,129,0,,,,,,,,,,,,,,,,,,,,,,,,5343.5435717999935,None,,,,,,,,,,,,,,,,,cousin,new_aloud,yellow,129,144,76,5341.6611622998025,None,5341.6611622998025,None,1,1.1634599000681192,5341.6611622998025,None,5342.870698799845,None,5343.375225999858,None,5343.375225999858,None,n,0.12931480002589524,5343.375225999858,None,,,color15,001,2021_Nov_01_1225,ProdSingRedo,3.2.3,59.96469279926563,
,,,,130,0,130,0,,,,,,,,,,,,,,,,,,,,,,,,5346.625542299822,None,,,,,,,,,,,,,,,,,style,new_sing,blue,130,96,311,5344.0640649998095,None,5344.0640649998095,None,3,1.6720840998459607,5344.0640649998095,None,5345.775647699833,None,5346.2841588999145,None,5346.2841588999145,None,f,0.3083051999565214,5346.2841588999145,None,,,color15,001,2021_Nov_01_1225,ProdSingRedo,3.2.3,59.96469279926563,
,,,,131,0,131,0,,,,,,,,,,,,,,,,,,,,,,,,5350.860247999895,None,,,,,,,,,,,,,,,,,reading,sing,blue,131,19,254,5347.15362509992,None,5347.15362509992,None,2,3.071075899992138,5347.15362509992,None,5350.27046889998,None,5350.775606999872,None,5350.775606999872,None,f,0.04870060016401112,5350.775606999872,None,,,color15,001,2021_Nov_01_1225,ProdSingRedo,3.2.3,59.96469279926563,
,,,,132,0,132,0,,,,,,,,,,,,,,,,,,,,,,,,5357.050958500011,None,,,,,,,,,,,,,,,,,crisis,sing,blue,132,14,79,5351.3823981999885,None,5351.3823981999885,None,4,4.786194999935105,5351.3823981999885,None,5356.211131999968,None,5356.72343569994,None,5356.72343569994,None,f,0.2931319000199437,5356.72343569994,None,,,color15,001,2021_Nov_01_1225,ProdSingRedo,3.2.3,59.96469279926563,
,,,,133,0,133,0,,,,,,,,,,,,,,,,,,,,,,,,5361.8219675999135,None,,,,,,,,,,,,,,,,,place,new_aloud,yellow,133,122,222,5357.576604499947,None,5357.576604499947,None,1,3.616008600220084,5357.576604499947,None,5361.237606599927,None,5361.744542700006,None,5361.744542700006,None,n,0.04803530010394752,5361.744542700006,None,,,color15,001,2021_Nov_01_1225,ProdSingRedo,3.2.3,59.96469279926563,
,,,,134,0,134,0,,,,,,,,,,,,,,,,,,,,,,,,5363.958438799949,None,,,,,,,,,,,,,,,,,prime,aloud,yellow,134,40,235,5362.3444928999525,None,5362.3444928999525,None,1,0.9362425999715924,5362.3444928999525,None,5363.316379899858,None,5363.825503199827,None,5363.825503199827,None,n,0.10313879977911711,5363.825503199827,None,,,color15,001,2021_Nov_01_1225,ProdSingRedo,3.2.3,59.96469279926563,
,,,,135,0,135,0,,,,,,,,,,,,,,,,,,,,,,,,5367.4505560998805,None,,,,,,,,,,,,,,,,,appeal,silent,red,135,66,9,5364.482809299836,None,5364.482809299836,None,3,2.34992210008204,5364.482809299836,None,5366.877970199799,None,5367.382327299798,None,5367.382327299798,None,f,0.026085699908435345,5367.382327299798,None,,,color15,001,2021_Nov_01_1225,ProdSingRedo,3.2.3,59.96469279926563,
,,,,136,0,136,0,,,,,,,,,,,,,,,,,,,,,,,,5369.828944499837,None,,,,,,,,,,,,,,,,,junior,new_sing,blue,136,97,167,5367.972053299891,None,5367.972053299891,None,1,1.2045698000583798,5367.972053299891,None,5369.230653999839,None,5369.733726099832,None,5369.733726099832,None,n,0.0746991999913007,5369.733726099832,None,,,color15,001,2021_Nov_01_1225,ProdSingRedo,3.2.3,59.96469279926563,
,,,,137,0,137,0,,,,,,,,,,,,,,,,,,,,,,,,5372.086114199832,None,,,,,,,,,,,,,,,,,profession,new_aloud,yellow,137,147,241,5370.361159099964,None,5370.361159099964,None,1,1.1434341999702156,5370.361159099964,None,5371.550340999849,None,5372.05891929986,None,5372.05891929986,None,n,0.005628699902445078,5372.05891929986,None,,,color15,001,2021_Nov_01_1225,ProdSingRedo,3.2.3,59.96469279926563,
,,,,138,0,138,0,,,,,,,,,,,,,,,,,,,,,,,,5375.202346300008,None,,,,,,,,,,,,,,,,,present,new_silent,red,138,155,231,5372.607901899843,None,5372.607901899843,None,4,1.5609712998848408,5372.607901899843,None,5374.213607899845,None,5374.721251399955,None,5374.721251399955,None,f,0.44736630003899336,5374.721251399955,None,,,color15,001,2021_Nov_01_1225,ProdSingRedo,3.2.3,59.96469279926563,
,,,,139,0,139,0,,,,,,,,,,,,,,,,,,,,,,,,5378.249261199962,None,,,,,,,,,,,,,,,,,interview,new_sing,blue,139,114,165,5375.72164299991,None,5375.72164299991,None,3,1.9113061998505145,5375.72164299991,None,5377.675721599953,None,5378.179562799865,None,5378.179562799865,None,f,0.052810699911788106,5378.179562799865,None,,,color15,001,2021_Nov_01_1225,ProdSingRedo,3.2.3,59.96469279926563,
,,,,140,0,140,0,,,,,,,,,,,,,,,,,,,,,,,,5383.394516799832,None,,,,,,,,,,,,,,,,,people,new_silent,red,140,166,216,5378.761582899839,None,5378.761582899839,None,1,3.9270558001007885,5378.761582899839,None,5382.722872299841,None,5383.244109099964,None,5383.244109099964,None,n,0.11648080009035766,5383.244109099964,None,,,color15,001,2021_Nov_01_1225,ProdSingRedo,3.2.3,59.96469279926563,
,,,,141,0,141,0,,,,,,,,,,,,,,,,,,,,,,,,5385.628969099838,None,,,,,,,,,,,,,,,,,short,sing,blue,141,9,285,5383.9157072999515,None,5383.9157072999515,None,1,0.9728063000366092,5383.9157072999515,None,5384.924749499885,None,5385.443946499843,None,5385.443946499843,None,n,0.14882580004632473,5385.443946499843,None,,,color15,001,2021_Nov_01_1225,ProdSingRedo,3.2.3,59.96469279926563,
,,,,142,0,142,0,,,,,,,,,,,,,,,,,,,,,,,,5388.886631099973,None,,,,,,,,,,,,,,,,,listen,new_aloud,yellow,142,126,172,5386.151292799972,None,5386.151292799972,None,4,1.9534273999743164,5386.151292799972,None,5388.1440941998735,None,5388.650691299932,None,5388.650691299932,None,f,0.19797029998153448,5388.650691299932,None,,,color15,001,2021_Nov_01_1225,ProdSingRedo,3.2.3,59.96469279926563,
,,,,143,0,143,0,,,,,,,,,,,,,,,,,,,,,,,,5391.986541299848,None,,,,,,,,,,,,,,,,,patient,sing,blue,143,13,213,5389.409106899984,None,5389.409106899984,None,4,1.2076185999903828,5389.409106899984,None,5390.669106299989,None,5391.1920284000225,None,5391.1920284000225,None,f,0.7687385999597609,5391.1920284000225,None,,,color15,001,2021_Nov_01_1225,ProdSingRedo,3.2.3,59.96469279926563,
,,,,144,0,144,0,,,,,,,,,,,,,,,,,,,,,,,,5397.5256705000065,None,,,,,,,,,,,,,,,,,comedy,new_aloud,yellow,144,121,58,5392.511609399924,None,5392.511609399924,None,5,4.105009000049904,5392.511609399924,None,5396.654916099971,None,5397.175827899948,None,5397.175827899948,None,r,0.32085570017807186,5397.175827899948,None,,,color15,001,2021_Nov_01_1225,ProdSingRedo,3.2.3,59.96469279926563,
,,,,145,0,145,0,,,,,,,,,,,,,,,,,,,,,,,,5400.5777164998,None,,,,,,,,,,,,,,,,,relation,sing,blue,145,20,257,5398.050436699996,None,5398.050436699996,None,4,1.5744012999348342,5398.050436699996,None,5399.672217299929,None,5400.18445890001,None,5400.18445890001,None,f,0.3601075999904424,5400.18445890001,None,,,color15,001,2021_Nov_01_1225,ProdSingRedo,3.2.3,59.96469279926563,
,,,,146,0,146,0,,,,,,,,,,,,,,,,,,,,,,,,5402.990684399847,None,,,,,,,,,,,,,,,,,quantity,sing,blue,146,23,245,5401.107493599877,None,5401.107493599877,None,1,1.3176078000105917,5401.107493599877,None,5402.461964899907,None,5402.9629444999155,None,5402.9629444999155,None,n,0.005462599918246269,5402.9629444999155,None,,,color15,001,2021_Nov_01_1225,ProdSingRedo,3.2.3,59.96469279926563,
,,,,147,0,147,0,,,,,,,,,,,,,,,,,,,,,,,,5405.876776000019,None,,,,,,,,,,,,,,,,,search,new_aloud,yellow,147,132,276,5403.507941799937,None,5403.507941799937,None,4,1.7651374998968095,5403.507941799937,None,5405.312869299902,None,5405.826989899855,None,5405.826989899855,None,f,0.029288999969139695,5405.826989899855,None,,,color15,001,2021_Nov_01_1225,ProdSingRedo,3.2.3,59.96469279926563,
,,,,148,0,148,0,,,,,,,,,,,,,,,,,,,,,,,,5409.270418199943,None,,,,,,,,,,,,,,,,,tennis,aloud,yellow,148,41,323,5406.377556799911,None,5406.377556799911,None,5,1.7750487001612782,5406.377556799911,None,5408.196704600006,None,5408.704612699803,None,5408.704612699803,None,r,0.5360242000315338,5408.704612699803,None,,,color15,001,2021_Nov_01_1225,ProdSingRedo,3.2.3,59.96469279926563,
,,,,149,0,149,0,,,,,,,,,,,,,,,,,,,,,,,,5412.107071499806,None,,,,,,,,,,,,,,,,,distance,new_silent,red,149,163,100,5409.796633699909,None,5409.796633699909,None,2,1.5561051000840962,5409.796633699909,None,5411.406464499887,None,5411.927137799794,None,5411.927137799794,None,n,0.15354100009426475,5411.927137799794,None,,,color15,001,2021_Nov_01_1225,ProdSingRedo,3.2.3,59.96469279926563,
,,,,150,0,150,0,,,,,,,,,,,,,,,,,,,,,,,,5418.466118299868,None,,,,,,,,,,,,,,,,,detective,new_silent,red,150,164,92,5412.632291999878,None,5412.632291999878,None,3,4.984356899978593,5412.632291999878,None,5417.666254299926,None,5418.157587799942,None,5418.157587799942,None,r,0.26708520017564297,5418.157587799942,None,,,color15,001,2021_Nov_01_1225,ProdSingRedo,3.2.3,59.96469279926563,
,,,,151,0,151,0,,,,,,,,,,,,,,,,,,,,,,,,5422.733828899916,None,,,,,,,,,,,,,,,,,chief,new_aloud,yellow,151,129,48,5418.989998499863,None,5418.989998499863,None,1,3.098883500089869,5418.989998499863,None,5422.130053299945,None,5422.651604600018,None,5422.651604600018,None,n,0.053007000125944614,5422.651604600018,None,,,color15,001,2021_Nov_01_1225,ProdSingRedo,3.2.3,59.96469279926563,
,,,,152,0,152,0,,,,,,,,,,,,,,,,,,,,,,,,5427.405190399848,None,,,,,,,,,,,,,,,,,division,new_sing,blue,152,94,101,5423.266739199869,None,5423.266739199869,None,2,3.045957699883729,5423.266739199869,None,5426.348898699973,None,5426.861608299892,None,5426.861608299892,None,f,0.5150786000303924,5426.861608299892,None,,,color15,001,2021_Nov_01_1225,ProdSingRedo,3.2.3,59.96469279926563,
,,,,153,0,153,0,,,,,,,,,,,,,,,,,,,,,,,,5431.177370599937,None,,,,,,,,,,,,,,,,,under,silent,red,153,64,343,5427.928101499798,None,5427.928101499798,None,1,2.5366082000546157,5427.928101499798,None,5430.506204499863,None,5431.025986699853,None,5431.025986699853,None,n,0.12704810011200607,5431.025986699853,None,,,color15,001,2021_Nov_01_1225,ProdSingRedo,3.2.3,59.96469279926563,
,,,,154,0,154,0,,,,,,,,,,,,,,,,,,,,,,,,5434.0612050998025,None,,,,,,,,,,,,,,,,,accident,aloud,yellow,154,59,0,5431.701863999944,None,5431.701863999944,None,1,1.314988800091669,5431.701863999944,None,5433.059131999966,None,5433.5631474999245,None,5433.5631474999245,None,n,0.4614085000939667,5433.5631474999245,None,,,color15,001,2021_Nov_01_1225,ProdSingRedo,3.2.3,59.96469279926563,
,,,,155,0,155,0,,,,,,,,,,,,,,,,,,,,,,,,5436.613409399986,None,,,,,,,,,,,,,,,,,solution,new_silent,red,155,178,294,5434.589066199958,None,5434.589066199958,None,5,1.323215999873355,5434.589066199958,None,5435.943985099904,None,5436.457714000018,None,5436.457714000018,None,r,0.13492710003629327,5436.457714000018,None,,,color15,001,2021_Nov_01_1225,ProdSingRedo,3.2.3,59.96469279926563,
,,,,156,0,156,0,,,,,,,,,,,,,,,,,,,,,,,,5441.335483899806,None,,,,,,,,,,,,,,,,,straight,new_sing,blue,156,115,307,5437.142430200009,None,5437.142430200009,None,1,2.0341683998703957,5437.142430200009,None,5439.219534599921,None,5439.740036699921,None,5439.740036699921,None,n,1.5569421998225152,5439.740036699921,None,,,color15,001,2021_Nov_01_1225,ProdSingRedo,3.2.3,59.96469279926563,
,,,,157,0,157,0,,,,,,,,,,,,,,,,,,,,,,,,5445.372459699865,None,,,,,,,,,,,,,,,,,portion,silent,red,157,60,228,5441.857044999953,None,5441.857044999953,None,5,2.4717910999897867,5441.857044999953,None,5444.3684607998,None,5444.8745665999595,None,5444.8745665999595,None,r,0.462087000021711,5444.8745665999595,None,,,color15,001,2021_Nov_01_1225,ProdSingRedo,3.2.3,59.96469279926563,
,,,,158,0,158,0,,,,,,,,,,,,,,,,,,,,,,,,5457.683594199829,None,,,,,,,,,,,,,,,,,oxygen,silent,red,158,88,209,5445.90193809988,None,5445.90193809988,None,3,11.138817900093272,5445.90193809988,None,5457.087296499871,None,5457.594198599923,None,5457.594198599923,None,f,0.05420380015857518,5457.594198599923,None,,,color15,001,2021_Nov_01_1225,ProdSingRedo,3.2.3,59.96469279926563,
,,,,159,0,159,0,,,,,,,,,,,,,,,,,,,,,,,,5460.253951699939,None,,,,,,,,,,,,,,,,,author,new_silent,red,159,159,15,5458.211286999984,None,5458.211286999984,None,1,1.3895083998795599,5458.211286999984,None,5459.650969999842,None,5460.172286799876,None,5460.172286799876,None,n,0.044204700039699674,5460.172286799876,None,,,color15,001,2021_Nov_01_1225,ProdSingRedo,3.2.3,59.96469279926563,
,,,,160,0,160,0,,,,,,,,,,,,,,,,,,,,,,,,5463.792664199835,None,,,,,,,,,,,,,,,,,close,aloud,yellow,160,58,53,5460.775999699952,None,5460.775999699952,None,4,1.784757100045681,5460.775999699952,None,5462.602130099898,None,5463.106790699996,None,5463.106790699996,None,f,0.6539246998727322,5463.106790699996,None,,,color15,001,2021_Nov_01_1225,ProdSingRedo,3.2.3,59.96469279926563,
,,,,161,0,161,0,,,,,,,,,,,,,,,,,,,,,,,,5467.961789299967,None,,,,,,,,,,,,,,,,,incident,aloud,yellow,161,33,158,5464.316864799941,None,5464.316864799941,None,6,3.0359606998972595,5464.316864799941,None,5467.389559499919,None,5467.896832899889,None,5467.896832899889,None,r,0.03180430014617741,5467.896832899889,None,,,color15,001,2021_Nov_01_1225,ProdSingRedo,3.2.3,59.96469279926563,
,,,,162,0,162,0,,,,,,,,,,,,,,,,,,,,,,,,5471.130991999991,None,,,,,,,,,,,,,,,,,conference,silent,red,162,73,66,5468.488808499882,None,5468.488808499882,None,1,1.351841100025922,5468.488808499882,None,5469.876814399846,None,5470.3848923998885,None,5470.3848923998885,None,n,0.7119574998505414,5470.3848923998885,None,,,color15,001,2021_Nov_01_1225,ProdSingRedo,3.2.3,59.96469279926563,
,,,,163,0,163,0,,,,,,,,,,,,,,,,,,,,,,,,5474.336920399917,None,,,,,,,,,,,,,,,,,meeting,new_sing,blue,163,112,187,5471.658180399798,None,5471.658180399798,None,3,1.7424675000365824,5471.658180399798,None,5473.444796599913,None,5473.955311700003,None,5473.955311700003,None,f,0.35762899997644126,5473.955311700003,None,,,color15,001,2021_Nov_01_1225,ProdSingRedo,3.2.3,59.96469279926563,
,,,,164,0,164,0,,,,,,,,,,,,,,,,,,,,,,,,5476.672266899841,None,,,,,,,,,,,,,,,,,turkey,new_silent,red,164,175,342,5474.86821009987,None,5474.86821009987,None,1,1.0284775998443365,5474.86821009987,None,5475.934893199941,None,5476.461545399856,None,5476.461545399856,None,n,0.18719030008651316,5476.461545399856,None,,,color15,001,2021_Nov_01_1225,ProdSingRedo,3.2.3,59.96469279926563,
,,,,165,0,165,0,,,,,,,,,,,,,,,,,,,,,,,,5479.609508599853,None,,,,,,,,,,,,,,,,,surprise,silent,red,165,84,317,5477.199420799967,None,5477.199420799967,None,2,1.7212914999108762,5477.199420799967,None,5478.973765899893,None,5479.491231599823,None,5479.491231599823,None,n,0.08531210012733936,5479.491231599823,None,,,color15,001,2021_Nov_01_1225,ProdSingRedo,3.2.3,59.96469279926563,
,,,,166,0,166,0,,,,,,,,,,,,,,,,,,,,,,,,5484.328760199947,None,,,,,,,,,,,,,,,,,recall,aloud,yellow,166,30,255,5480.12617990002,None,5480.12617990002,None,5,3.3386617000214756,5480.12617990002,None,5483.509426699951,None,5484.023792200023,None,5484.023792200023,None,r,0.2807145998813212,5484.023792200023,None,,,color15,001,2021_Nov_01_1225,ProdSingRedo,3.2.3,59.96469279926563,
,,,,167,0,167,0,,,,,,,,,,,,,,,,,,,,,,,,5488.19978369982,None,,,,,,,,,,,,,,,,,season,silent,red,167,87,277,5484.856894599972,None,5484.856894599972,None,2,2.6878871000371873,5484.856894599972,None,5487.597439199919,None,5488.122056499822,None,5488.122056499822,None,n,0.04653880000114441,5488.122056499822,None,,,color15,001,2021_Nov_01_1225,ProdSingRedo,3.2.3,59.96469279926563,
,,,,168,0,168,0,,,,,,,,,,,,,,,,,,,,,,,,5490.368067499949,None,,,,,,,,,,,,,,,,,sunset,new_aloud,yellow,168,140,315,5488.725570499897,None,5488.725570499897,None,1,0.9791200999170542,5488.725570499897,None,5489.750335099874,None,5490.258271300001,None,5490.258271300001,None,n,0.08632200001738966,5490.258271300001,None,,,color15,001,2021_Nov_01_1225,ProdSingRedo,3.2.3,59.96469279926563,
,,,,169,0,169,0,,,,,,,,,,,,,,,,,,,,,,,,5492.970711899921,None,,,,,,,,,,,,,,,,,rapid,new_silent,red,169,167,252,5490.891880299896,None,5490.891880299896,None,1,1.389111999887973,5490.891880299896,None,5492.314168999903,None,5492.82106300001,None,5492.82106300001,None,n,0.12365429988130927,5492.82106300001,None,,,color15,001,2021_Nov_01_1225,ProdSingRedo,3.2.3,59.96469279926563,
,,,,170,0,170,0,,,,,,,,,,,,,,,,,,,,,,,,5498.125242399983,None,,,,,,,,,,,,,,,,,collection,new_silent,red,170,154,54,5493.496208800003,None,5493.496208800003,None,6,1.8403777999337763,5493.496208800003,None,5495.387680299813,None,5495.900360899977,None,5495.900360899977,None,r,2.1886668000370264,5495.900360899977,None,,,color15,001,2021_Nov_01_1225,ProdSingRedo,3.2.3,59.96469279926563,
,,,,171,0,171,0,,,,,,,,,,,,,,,,,,,,,,,,5500.728365099989,None,,,,,,,,,,,,,,,,,resistance,new_aloud,yellow,171,131,262,5498.651912999805,None,5498.651912999805,None,4,1.2608382999897003,5498.651912999805,None,5499.961272999877,None,5500.46536469995,None,5500.46536469995,None,f,0.239288599928841,5500.46536469995,None,,,color15,001,2021_Nov_01_1225,ProdSingRedo,3.2.3,59.96469279926563,
,,,,172,0,172,0,,,,,,,,,,,,,,,,,,,,,,,,5505.298751699971,None,,,,,,,,,,,,,,,,,broad,silent,red,172,76,31,5501.259155599866,None,5501.259155599866,None,5,1.9255876000970602,5501.259155599866,None,5503.228888999904,None,5503.7373075999785,None,5503.7373075999785,None,f,1.5356503000948578,5503.7373075999785,None,,,color15,001,2021_Nov_01_1225,ProdSingRedo,3.2.3,59.96469279926563,
,,,,173,0,173,0,,,,,,,,,,,,,,,,,,,,,,,,5509.103402099805,None,,,,,,,,,,,,,,,,,education,aloud,yellow,173,48,108,5505.838473199867,None,5505.838473199867,None,6,2.1463080998510122,5505.838473199867,None,5508.033082499867,None,5508.543475499842,None,5508.543475499842,None,r,0.5375715000554919,5508.543475499842,None,,,color15,001,2021_Nov_01_1225,ProdSingRedo,3.2.3,59.96469279926563,
,,,,174,0,174,0,,,,,,,,,,,,,,,,,,,,,,,,5511.272368399892,None,,,,,,,,,,,,,,,,,husband,new_sing,blue,174,111,156,5509.635401599808,None,5509.635401599808,None,1,0.9492734000086784,5509.635401599808,None,5510.640665899962,None,5511.164920199895,None,5511.164920199895,None,n,0.08379629999399185,5511.164920199895,None,,,color15,001,2021_Nov_01_1225,ProdSingRedo,3.2.3,59.96469279926563,
,,,,175,0,175,0,,,,,,,,,,,,,,,,,,,,,,,,5514.275789499981,None,,,,,,,,,,,,,,,,,drove,new_silent,red,175,162,106,5511.797901700018,None,5511.797901700018,None,1,1.4107723999768496,5511.797901700018,None,5513.256107799942,None,5513.779554799898,None,5513.779554799898,None,n,0.46924819983541965,5513.779554799898,None,,,color15,001,2021_Nov_01_1225,ProdSingRedo,3.2.3,59.96469279926563,
,,,,176,0,176,0,,,,,,,,,,,,,,,,,,,,,,,,5517.427676199935,None,,,,,,,,,,,,,,,,,goose,aloud,yellow,176,57,138,5514.804278599797,None,5514.804278599797,None,6,1.700761399930343,5514.804278599797,None,5516.544477999909,None,5517.062680099858,None,5517.062680099858,None,r,0.33812289987690747,5517.062680099858,None,,,color15,001,2021_Nov_01_1225,ProdSingRedo,3.2.3,59.96469279926563,
,,,,177,0,177,0,,,,,,,,,,,,,,,,,,,,,,,,5520.531807599822,None,,,,,,,,,,,,,,,,,candidate,silent,red,177,67,39,5517.965954799904,None,5517.965954799904,None,5,1.8590130000375211,5517.965954799904,None,5519.867214899976,None,5520.38946389989,None,5520.38946389989,None,r,0.11525110015645623,5520.38946389989,None,,,color15,001,2021_Nov_01_1225,ProdSingRedo,3.2.3,59.96469279926563,
,,,,178,0,178,0,,,,,,,,,,,,,,,,,,,,,,,,5523.033473499818,None,,,,,,,,,,,,,,,,,owner,aloud,yellow,178,50,208,5521.054236099822,None,5521.054236099822,None,1,0.9305595001205802,5521.054236099822,None,5522.033016799949,None,5522.5526597998105,None,5522.5526597998105,None,n,0.44823339977301657,5522.5526597998105,None,,,color15,001,2021_Nov_01_1225,ProdSingRedo,3.2.3,59.96469279926563,
,,,,179,0,179,0,,,,,,,,,,,,,,,,,,,,,,,,5527.954340899829,None,,,,,,,,,,,,,,,,,novel,new_silent,red,179,174,202,5523.558845799882,None,5523.558845799882,None,4,3.4500192999839783,5523.558845799882,None,5527.058972399915,None,5527.573849399807,None,5527.573849399807,None,f,0.35514210001565516,5527.573849399807,None,,,color15,001,2021_Nov_01_1225,ProdSingRedo,3.2.3,59.96469279926563,
,,,,,,,,,,,,,,,,,,,,,,,,,,,,,,,,,,,,,,,,,,,,,,,,,,,,,,,,,,,,,,,,,,,,,,,,,5528.466916000005,None,,,,,,,
