StudyLoop.thisRepN,StudyLoop.thisTrialN,StudyLoop.thisN,StudyLoop.thisIndex,TestLoop.thisRepN,TestLoop.thisTrialN,TestLoop.thisN,TestLoop.thisIndex,textCondition.started,textCondition.stopped,keyCondition.keys,keyCondition.rt,keyCondition.started,keyCondition.stopped,Condition,stim_colors,color_sing,color_aloud,color_silent,textWelcome.started,textWelcome.stopped,keyWelcome.keys,keyWelcome.rt,keyWelcome.started,keyWelcome.stopped,textAloud.started,textAloud.stopped,textSilent.started,textSilent.stopped,textSing.started,textSing.stopped,textBlank500.started,textBlank500.stopped,study_word,study_type,study_color,study_num,study_word_num,textStudy.started,textStudy.stopped,keyStudy.keys,keyStudy.started,keyStudy.stopped,textTestInstructions.started,textTestInstructions.stopped,key_resp_3.keys,key_resp_3.rt,key_resp_3.started,key_resp_3.stopped,testWord,testType,testColor,testN,test_num,test_word_num,textConf.started,textConf.stopped,textConfScale.started,textConfScale.stopped,keyConf.keys,keyConf.rt,keyConf.started,keyConf.stopped,textTestBlank.started,textTestBlank.stopped,textRKN.started,textRKN.stopped,textRKNScale.started,textRKNScale.stopped,keyRKN.keys,keyRKN.rt,keyRKN.started,keyRKN.stopped,textEnd.started,textEnd.stopped,participant,session,date,expName,psychopyVersion,frameRate,
,,,,,,,,18.252476199995726,None,y,1.1233394001610577,18.252476199995726,None,,,,,,,,,,,,,,,,,,,,,,,,,,,,,,,,,,,,,,,,,,,,,,,,,,,,,,,,,,,,,,color_57,001,2022_May_05_1331,ProdSingRedo,3.2.3,59.9239804316117,
,,,,,,,,,,,,,,ColoredTest,"['yellow', 'red', 'blue']",yellow,red,blue,19.42145949997939,None,space,207.84789330000058,19.42145949997939,None,,,,,,,,,,,,,,,,,,,,,,,,,,,,,,,,,,,,,,,,,,,,,,,,,,,color_57,001,2022_May_05_1331,ProdSingRedo,3.2.3,59.9239804316117,
0,0,0,0,,,,,,,,,,,,,,,,,,,,,,19.42145949997939,None,19.42145949997939,None,19.42145949997939,None,229.82033849996515,None,guide,aloud,red,48,147,227.80765390000306,None,None,227.80765390000306,None,,,,,,,,,,,,,,,,,,,,,,,,,,,,,,,,,color_57,001,2022_May_05_1331,ProdSingRedo,3.2.3,59.9239804316117,
1,0,1,0,,,,,,,,,,,,,,,,,,,,,,,,,,,,232.335582499858,None,count,sing,yellow,28,72,230.33041809988208,None,None,230.33041809988208,None,,,,,,,,,,,,,,,,,,,,,,,,,,,,,,,,,color_57,001,2022_May_05_1331,ProdSingRedo,3.2.3,59.9239804316117,
2,0,2,0,,,,,,,,,,,,,,,,,,,,,,,,,,,,234.85256409994327,None,music,silent,blue,89,196,232.84827449987642,None,None,232.84827449987642,None,,,,,,,,,,,,,,,,,,,,,,,,,,,,,,,,,color_57,001,2022_May_05_1331,ProdSingRedo,3.2.3,59.9239804316117,
3,0,3,0,,,,,,,,,,,,,,,,,,,,,,,,,,,,237.36909940000623,None,shock,sing,yellow,6,284,235.36782529996708,None,None,235.36782529996708,None,,,,,,,,,,,,,,,,,,,,,,,,,,,,,,,,,color_57,001,2022_May_05_1331,ProdSingRedo,3.2.3,59.9239804316117,
4,0,4,0,,,,,,,,,,,,,,,,,,,,,,,,,,,,239.88612139993347,None,frank,sing,yellow,1,133,237.8768428999465,None,None,237.8768428999465,None,,,,,,,,,,,,,,,,,,,,,,,,,,,,,,,,,color_57,001,2022_May_05_1331,ProdSingRedo,3.2.3,59.9239804316117,
5,0,5,0,,,,,,,,,,,,,,,,,,,,,,,,,,,,242.4029647000134,None,concern,aloud,red,35,65,240.3949605000671,None,None,240.3949605000671,None,,,,,,,,,,,,,,,,,,,,,,,,,,,,,,,,,color_57,001,2022_May_05_1331,ProdSingRedo,3.2.3,59.9239804316117,
6,0,6,0,,,,,,,,,,,,,,,,,,,,,,,,,,,,244.90237240004353,None,weather,aloud,red,32,352,242.9015440000221,None,None,242.9015440000221,None,,,,,,,,,,,,,,,,,,,,,,,,,,,,,,,,,color_57,001,2022_May_05_1331,ProdSingRedo,3.2.3,59.9239804316117,
7,0,7,0,,,,,,,,,,,,,,,,,,,,,,,,,,,,247.41902739997022,None,clear,silent,blue,85,52,245.40984219987877,None,None,245.40984219987877,None,,,,,,,,,,,,,,,,,,,,,,,,,,,,,,,,,color_57,001,2022_May_05_1331,ProdSingRedo,3.2.3,59.9239804316117,
8,0,8,0,,,,,,,,,,,,,,,,,,,,,,,,,,,,249.92014009994455,None,broke,aloud,red,36,32,247.92079650005326,None,None,247.92079650005326,None,,,,,,,,,,,,,,,,,,,,,,,,,,,,,,,,,color_57,001,2022_May_05_1331,ProdSingRedo,3.2.3,59.9239804316117,
9,0,9,0,,,,,,,,,,,,,,,,,,,,,,,,,,,,252.43690559989773,None,plane,silent,blue,64,223,250.4352843000088,None,None,250.4352843000088,None,,,,,,,,,,,,,,,,,,,,,,,,,,,,,,,,,color_57,001,2022_May_05_1331,ProdSingRedo,3.2.3,59.9239804316117,
10,0,10,0,,,,,,,,,,,,,,,,,,,,,,,,,,,,254.95364780002274,None,murder,silent,blue,71,195,252.9409179999493,None,None,252.9409179999493,None,,,,,,,,,,,,,,,,,,,,,,,,,,,,,,,,,color_57,001,2022_May_05_1331,ProdSingRedo,3.2.3,59.9239804316117,
11,0,11,0,,,,,,,,,,,,,,,,,,,,,,,,,,,,257.47065200004727,None,principal,sing,yellow,11,236,255.4680578999687,None,None,255.4680578999687,None,,,,,,,,,,,,,,,,,,,,,,,,,,,,,,,,,color_57,001,2022_May_05_1331,ProdSingRedo,3.2.3,59.9239804316117,
12,0,12,0,,,,,,,,,,,,,,,,,,,,,,,,,,,,259.9863899999764,None,citizen,sing,yellow,15,50,257.9925232999958,None,None,257.9925232999958,None,,,,,,,,,,,,,,,,,,,,,,,,,,,,,,,,,color_57,001,2022_May_05_1331,ProdSingRedo,3.2.3,59.9239804316117,
13,0,13,0,,,,,,,,,,,,,,,,,,,,,,,,,,,,262.5042898999527,None,clean,aloud,red,49,51,260.49828840000555,None,None,260.49828840000555,None,,,,,,,,,,,,,,,,,,,,,,,,,,,,,,,,,color_57,001,2022_May_05_1331,ProdSingRedo,3.2.3,59.9239804316117,
14,0,14,0,,,,,,,,,,,,,,,,,,,,,,,,,,,,265.0210573999211,None,range,silent,blue,77,251,263.02299780002795,None,None,263.02299780002795,None,,,,,,,,,,,,,,,,,,,,,,,,,,,,,,,,,color_57,001,2022_May_05_1331,ProdSingRedo,3.2.3,59.9239804316117,
15,0,15,0,,,,,,,,,,,,,,,,,,,,,,,,,,,,267.53713770001195,None,question,aloud,red,41,247,265.5406623999588,None,None,265.5406623999588,None,,,,,,,,,,,,,,,,,,,,,,,,,,,,,,,,,color_57,001,2022_May_05_1331,ProdSingRedo,3.2.3,59.9239804316117,
16,0,16,0,,,,,,,,,,,,,,,,,,,,,,,,,,,,270.05471349996515,None,fight,aloud,red,55,127,268.0516488000285,None,None,268.0516488000285,None,,,,,,,,,,,,,,,,,,,,,,,,,,,,,,,,,color_57,001,2022_May_05_1331,ProdSingRedo,3.2.3,59.9239804316117,
17,0,17,0,,,,,,,,,,,,,,,,,,,,,,,,,,,,272.5718501000665,None,relation,silent,blue,66,257,270.5681493000593,None,None,270.5681493000593,None,,,,,,,,,,,,,,,,,,,,,,,,,,,,,,,,,color_57,001,2022_May_05_1331,ProdSingRedo,3.2.3,59.9239804316117,
18,0,18,0,,,,,,,,,,,,,,,,,,,,,,,,,,,,275.07078399998136,None,smooth,silent,blue,68,292,273.0708546999376,None,None,273.0708546999376,None,,,,,,,,,,,,,,,,,,,,,,,,,,,,,,,,,color_57,001,2022_May_05_1331,ProdSingRedo,3.2.3,59.9239804316117,
19,0,19,0,,,,,,,,,,,,,,,,,,,,,,,,,,,,277.5886856999714,None,strength,sing,yellow,25,310,275.58537600003183,None,None,275.58537600003183,None,,,,,,,,,,,,,,,,,,,,,,,,,,,,,,,,,color_57,001,2022_May_05_1331,ProdSingRedo,3.2.3,59.9239804316117,
20,0,20,0,,,,,,,,,,,,,,,,,,,,,,,,,,,,280.1055592999328,None,charter,sing,yellow,9,47,278.0935583000537,None,None,278.0935583000537,None,,,,,,,,,,,,,,,,,,,,,,,,,,,,,,,,,color_57,001,2022_May_05_1331,ProdSingRedo,3.2.3,59.9239804316117,
21,0,21,0,,,,,,,,,,,,,,,,,,,,,,,,,,,,282.62237349990755,None,crisis,aloud,red,46,79,280.6160834999755,None,None,280.6160834999755,None,,,,,,,,,,,,,,,,,,,,,,,,,,,,,,,,,color_57,001,2022_May_05_1331,ProdSingRedo,3.2.3,59.9239804316117,
22,0,22,0,,,,,,,,,,,,,,,,,,,,,,,,,,,,285.13912139995955,None,century,sing,yellow,12,45,283.14776469999924,None,None,283.14776469999924,None,,,,,,,,,,,,,,,,,,,,,,,,,,,,,,,,,color_57,001,2022_May_05_1331,ProdSingRedo,3.2.3,59.9239804316117,
23,0,23,0,,,,,,,,,,,,,,,,,,,,,,,,,,,,287.6559186000377,None,fashion,sing,yellow,16,125,285.6515925999265,None,None,285.6515925999265,None,,,,,,,,,,,,,,,,,,,,,,,,,,,,,,,,,color_57,001,2022_May_05_1331,ProdSingRedo,3.2.3,59.9239804316117,
24,0,24,0,,,,,,,,,,,,,,,,,,,,,,,,,,,,290.1730948998593,None,judge,silent,blue,80,166,288.17879349994473,None,None,288.17879349994473,None,,,,,,,,,,,,,,,,,,,,,,,,,,,,,,,,,color_57,001,2022_May_05_1331,ProdSingRedo,3.2.3,59.9239804316117,
25,0,25,0,,,,,,,,,,,,,,,,,,,,,,,,,,,,292.6897163998801,None,drama,silent,blue,63,103,290.68133519985713,None,None,290.68133519985713,None,,,,,,,,,,,,,,,,,,,,,,,,,,,,,,,,,color_57,001,2022_May_05_1331,ProdSingRedo,3.2.3,59.9239804316117,
26,0,26,0,,,,,,,,,,,,,,,,,,,,,,,,,,,,295.2066231998615,None,column,silent,blue,78,57,293.2020910999272,None,None,293.2020910999272,None,,,,,,,,,,,,,,,,,,,,,,,,,,,,,,,,,color_57,001,2022_May_05_1331,ProdSingRedo,3.2.3,59.9239804316117,
27,0,27,0,,,,,,,,,,,,,,,,,,,,,,,,,,,,297.72322169994004,None,corner,aloud,red,54,69,295.7171574998647,None,None,295.7171574998647,None,,,,,,,,,,,,,,,,,,,,,,,,,,,,,,,,,color_57,001,2022_May_05_1331,ProdSingRedo,3.2.3,59.9239804316117,
28,0,28,0,,,,,,,,,,,,,,,,,,,,,,,,,,,,300.2402247998398,None,worker,aloud,red,47,356,298.24174649990164,None,None,298.24174649990164,None,,,,,,,,,,,,,,,,,,,,,,,,,,,,,,,,,color_57,001,2022_May_05_1331,ProdSingRedo,3.2.3,59.9239804316117,
29,0,29,0,,,,,,,,,,,,,,,,,,,,,,,,,,,,302.75600999989547,None,individual,silent,blue,61,160,300.7655613999814,None,None,300.7655613999814,None,,,,,,,,,,,,,,,,,,,,,,,,,,,,,,,,,color_57,001,2022_May_05_1331,ProdSingRedo,3.2.3,59.9239804316117,
30,0,30,0,,,,,,,,,,,,,,,,,,,,,,,,,,,,305.27287019998766,None,match,aloud,red,33,181,303.25752069987357,None,None,303.25752069987357,None,,,,,,,,,,,,,,,,,,,,,,,,,,,,,,,,,color_57,001,2022_May_05_1331,ProdSingRedo,3.2.3,59.9239804316117,
31,0,31,0,,,,,,,,,,,,,,,,,,,,,,,,,,,,307.7907237999607,None,native,sing,yellow,22,199,305.7755458999891,None,None,305.7755458999891,None,,,,,,,,,,,,,,,,,,,,,,,,,,,,,,,,,color_57,001,2022_May_05_1331,ProdSingRedo,3.2.3,59.9239804316117,
32,0,32,0,,,,,,,,,,,,,,,,,,,,,,,,,,,,310.31510829995386,None,present,silent,blue,67,231,308.301746299956,None,None,308.301746299956,None,,,,,,,,,,,,,,,,,,,,,,,,,,,,,,,,,color_57,001,2022_May_05_1331,ProdSingRedo,3.2.3,59.9239804316117,
33,0,33,0,,,,,,,,,,,,,,,,,,,,,,,,,,,,312.82458029990084,None,appearance,silent,blue,86,10,310.8196827999782,None,None,310.8196827999782,None,,,,,,,,,,,,,,,,,,,,,,,,,,,,,,,,,color_57,001,2022_May_05_1331,ProdSingRedo,3.2.3,59.9239804316117,
34,0,34,0,,,,,,,,,,,,,,,,,,,,,,,,,,,,315.3410920999013,None,beginning,silent,blue,74,19,313.3425080999732,None,None,313.3425080999732,None,,,,,,,,,,,,,,,,,,,,,,,,,,,,,,,,,color_57,001,2022_May_05_1331,ProdSingRedo,3.2.3,59.9239804316117,
35,0,35,0,,,,,,,,,,,,,,,,,,,,,,,,,,,,317.85792570002377,None,welcome,sing,yellow,13,354,315.8539032000117,None,None,315.8539032000117,None,,,,,,,,,,,,,,,,,,,,,,,,,,,,,,,,,color_57,001,2022_May_05_1331,ProdSingRedo,3.2.3,59.9239804316117,
36,0,36,0,,,,,,,,,,,,,,,,,,,,,,,,,,,,320.3749917000532,None,short,sing,yellow,2,285,318.3674466998782,None,None,318.3674466998782,None,,,,,,,,,,,,,,,,,,,,,,,,,,,,,,,,,color_57,001,2022_May_05_1331,ProdSingRedo,3.2.3,59.9239804316117,
37,0,37,0,,,,,,,,,,,,,,,,,,,,,,,,,,,,322.89165799994953,None,household,aloud,red,51,154,320.8905652000103,None,None,320.8905652000103,None,,,,,,,,,,,,,,,,,,,,,,,,,,,,,,,,,color_57,001,2022_May_05_1331,ProdSingRedo,3.2.3,59.9239804316117,
38,0,38,0,,,,,,,,,,,,,,,,,,,,,,,,,,,,325.40849529998377,None,trend,aloud,red,52,340,323.40122979995795,None,None,323.40122979995795,None,,,,,,,,,,,,,,,,,,,,,,,,,,,,,,,,,color_57,001,2022_May_05_1331,ProdSingRedo,3.2.3,59.9239804316117,
39,0,39,0,,,,,,,,,,,,,,,,,,,,,,,,,,,,327.9256800999865,None,period,silent,blue,73,217,325.91732929996215,None,None,325.91732929996215,None,,,,,,,,,,,,,,,,,,,,,,,,,,,,,,,,,color_57,001,2022_May_05_1331,ProdSingRedo,3.2.3,59.9239804316117,
40,0,40,0,,,,,,,,,,,,,,,,,,,,,,,,,,,,330.44217840000056,None,season,sing,yellow,5,277,328.43827679986134,None,None,328.43827679986134,None,,,,,,,,,,,,,,,,,,,,,,,,,,,,,,,,,color_57,001,2022_May_05_1331,ProdSingRedo,3.2.3,59.9239804316117,
41,0,41,0,,,,,,,,,,,,,,,,,,,,,,,,,,,,332.95754029997624,None,accident,silent,blue,69,0,330.95657929987647,None,None,330.95657929987647,None,,,,,,,,,,,,,,,,,,,,,,,,,,,,,,,,,color_57,001,2022_May_05_1331,ProdSingRedo,3.2.3,59.9239804316117,
42,0,42,0,,,,,,,,,,,,,,,,,,,,,,,,,,,,335.45943729998544,None,notice,silent,blue,84,201,333.45848260005005,None,None,333.45848260005005,None,,,,,,,,,,,,,,,,,,,,,,,,,,,,,,,,,color_57,001,2022_May_05_1331,ProdSingRedo,3.2.3,59.9239804316117,
43,0,43,0,,,,,,,,,,,,,,,,,,,,,,,,,,,,337.97607719991356,None,member,aloud,red,42,188,335.9750600999687,None,None,335.9750600999687,None,,,,,,,,,,,,,,,,,,,,,,,,,,,,,,,,,color_57,001,2022_May_05_1331,ProdSingRedo,3.2.3,59.9239804316117,
44,0,44,0,,,,,,,,,,,,,,,,,,,,,,,,,,,,340.4928214000538,None,candidate,sing,yellow,8,39,338.49172489997,None,None,338.49172489997,None,,,,,,,,,,,,,,,,,,,,,,,,,,,,,,,,,color_57,001,2022_May_05_1331,ProdSingRedo,3.2.3,59.9239804316117,
45,0,45,0,,,,,,,,,,,,,,,,,,,,,,,,,,,,343.00978459999897,None,turkey,silent,blue,76,342,341.01144949998707,None,None,341.01144949998707,None,,,,,,,,,,,,,,,,,,,,,,,,,,,,,,,,,color_57,001,2022_May_05_1331,ProdSingRedo,3.2.3,59.9239804316117,
46,0,46,0,,,,,,,,,,,,,,,,,,,,,,,,,,,,345.52650070004165,None,reach,sing,yellow,24,253,343.5242240000516,None,None,343.5242240000516,None,,,,,,,,,,,,,,,,,,,,,,,,,,,,,,,,,color_57,001,2022_May_05_1331,ProdSingRedo,3.2.3,59.9239804316117,
47,0,47,0,,,,,,,,,,,,,,,,,,,,,,,,,,,,348.04336879984476,None,appeal,silent,blue,62,9,346.0408462998457,None,None,346.0408462998457,None,,,,,,,,,,,,,,,,,,,,,,,,,,,,,,,,,color_57,001,2022_May_05_1331,ProdSingRedo,3.2.3,59.9239804316117,
48,0,48,0,,,,,,,,,,,,,,,,,,,,,,,,,,,,350.56032110005617,None,junior,silent,blue,65,167,348.55936199985445,None,None,348.55936199985445,None,,,,,,,,,,,,,,,,,,,,,,,,,,,,,,,,,color_57,001,2022_May_05_1331,ProdSingRedo,3.2.3,59.9239804316117,
49,0,49,0,,,,,,,,,,,,,,,,,,,,,,,,,,,,353.0770161000546,None,expansion,aloud,red,34,123,351.07575309998356,None,None,351.07575309998356,None,,,,,,,,,,,,,,,,,,,,,,,,,,,,,,,,,color_57,001,2022_May_05_1331,ProdSingRedo,3.2.3,59.9239804316117,
50,0,50,0,,,,,,,,,,,,,,,,,,,,,,,,,,,,355.59390300000086,None,scene,sing,yellow,26,273,353.5878481999971,None,None,353.5878481999971,None,,,,,,,,,,,,,,,,,,,,,,,,,,,,,,,,,color_57,001,2022_May_05_1331,ProdSingRedo,3.2.3,59.9239804316117,
51,0,51,0,,,,,,,,,,,,,,,,,,,,,,,,,,,,358.1106375998352,None,whole,sing,yellow,21,355,356.10833920002915,None,None,356.10833920002915,None,,,,,,,,,,,,,,,,,,,,,,,,,,,,,,,,,color_57,001,2022_May_05_1331,ProdSingRedo,3.2.3,59.9239804316117,
52,0,52,0,,,,,,,,,,,,,,,,,,,,,,,,,,,,360.62756429985166,None,profession,sing,yellow,17,241,358.62245829985477,None,None,358.62245829985477,None,,,,,,,,,,,,,,,,,,,,,,,,,,,,,,,,,color_57,001,2022_May_05_1331,ProdSingRedo,3.2.3,59.9239804316117,
53,0,53,0,,,,,,,,,,,,,,,,,,,,,,,,,,,,363.1435082999524,None,escape,silent,blue,83,118,361.1428051998373,None,None,361.1428051998373,None,,,,,,,,,,,,,,,,,,,,,,,,,,,,,,,,,color_57,001,2022_May_05_1331,ProdSingRedo,3.2.3,59.9239804316117,
54,0,54,0,,,,,,,,,,,,,,,,,,,,,,,,,,,,365.64627619995736,None,rural,silent,blue,88,269,363.64374609990045,None,None,363.64374609990045,None,,,,,,,,,,,,,,,,,,,,,,,,,,,,,,,,,color_57,001,2022_May_05_1331,ProdSingRedo,3.2.3,59.9239804316117,
55,0,55,0,,,,,,,,,,,,,,,,,,,,,,,,,,,,368.1780568000395,None,article,aloud,red,37,11,366.1726166999433,None,None,366.1726166999433,None,,,,,,,,,,,,,,,,,,,,,,,,,,,,,,,,,color_57,001,2022_May_05_1331,ProdSingRedo,3.2.3,59.9239804316117,
56,0,56,0,,,,,,,,,,,,,,,,,,,,,,,,,,,,370.6949730999768,None,agency,sing,yellow,29,4,368.69450099999085,None,None,368.69450099999085,None,,,,,,,,,,,,,,,,,,,,,,,,,,,,,,,,,color_57,001,2022_May_05_1331,ProdSingRedo,3.2.3,59.9239804316117,
57,0,57,0,,,,,,,,,,,,,,,,,,,,,,,,,,,,373.2116421998944,None,pancakes,sing,yellow,3,210,371.2123588998802,None,None,371.2123588998802,None,,,,,,,,,,,,,,,,,,,,,,,,,,,,,,,,,color_57,001,2022_May_05_1331,ProdSingRedo,3.2.3,59.9239804316117,
58,0,58,0,,,,,,,,,,,,,,,,,,,,,,,,,,,,375.7285879999399,None,narrow,sing,yellow,14,197,373.7248094000388,None,None,373.7248094000388,None,,,,,,,,,,,,,,,,,,,,,,,,,,,,,,,,,color_57,001,2022_May_05_1331,ProdSingRedo,3.2.3,59.9239804316117,
59,0,59,0,,,,,,,,,,,,,,,,,,,,,,,,,,,,378.2452251999639,None,point,aloud,red,58,226,376.23746089986525,None,None,376.23746089986525,None,,,,,,,,,,,,,,,,,,,,,,,,,,,,,,,,,color_57,001,2022_May_05_1331,ProdSingRedo,3.2.3,59.9239804316117,
60,0,60,0,,,,,,,,,,,,,,,,,,,,,,,,,,,,380.7620299998671,None,search,aloud,red,56,276,378.7585336000193,None,None,378.7585336000193,None,,,,,,,,,,,,,,,,,,,,,,,,,,,,,,,,,color_57,001,2022_May_05_1331,ProdSingRedo,3.2.3,59.9239804316117,
61,0,61,0,,,,,,,,,,,,,,,,,,,,,,,,,,,,383.2790391999297,None,payment,aloud,red,53,215,381.2637193999253,None,None,381.2637193999253,None,,,,,,,,,,,,,,,,,,,,,,,,,,,,,,,,,color_57,001,2022_May_05_1331,ProdSingRedo,3.2.3,59.9239804316117,
62,0,62,0,,,,,,,,,,,,,,,,,,,,,,,,,,,,385.79618000006303,None,title,sing,yellow,7,331,383.7868705999572,None,None,383.7868705999572,None,,,,,,,,,,,,,,,,,,,,,,,,,,,,,,,,,color_57,001,2022_May_05_1331,ProdSingRedo,3.2.3,59.9239804316117,
63,0,63,0,,,,,,,,,,,,,,,,,,,,,,,,,,,,388.3125136999879,None,education,aloud,red,43,108,386.313208400039,None,None,386.313208400039,None,,,,,,,,,,,,,,,,,,,,,,,,,,,,,,,,,color_57,001,2022_May_05_1331,ProdSingRedo,3.2.3,59.9239804316117,
64,0,64,0,,,,,,,,,,,,,,,,,,,,,,,,,,,,390.8295235000551,None,hunger,sing,yellow,27,155,388.82996360003017,None,None,388.82996360003017,None,,,,,,,,,,,,,,,,,,,,,,,,,,,,,,,,,color_57,001,2022_May_05_1331,ProdSingRedo,3.2.3,59.9239804316117,
65,0,65,0,,,,,,,,,,,,,,,,,,,,,,,,,,,,393.34509989991784,None,election,aloud,red,30,109,391.3403433000203,None,None,391.3403433000203,None,,,,,,,,,,,,,,,,,,,,,,,,,,,,,,,,,color_57,001,2022_May_05_1331,ProdSingRedo,3.2.3,59.9239804316117,
66,0,66,0,,,,,,,,,,,,,,,,,,,,,,,,,,,,395.86315379990265,None,country,sing,yellow,19,73,393.8633495999966,None,None,393.8633495999966,None,,,,,,,,,,,,,,,,,,,,,,,,,,,,,,,,,color_57,001,2022_May_05_1331,ProdSingRedo,3.2.3,59.9239804316117,
67,0,67,0,,,,,,,,,,,,,,,,,,,,,,,,,,,,398.3633451999631,None,permit,aloud,red,44,218,396.36259469995275,None,None,396.36259469995275,None,,,,,,,,,,,,,,,,,,,,,,,,,,,,,,,,,color_57,001,2022_May_05_1331,ProdSingRedo,3.2.3,59.9239804316117,
68,0,68,0,,,,,,,,,,,,,,,,,,,,,,,,,,,,400.88017229991965,None,safety,aloud,red,45,270,398.87960699992254,None,None,398.87960699992254,None,,,,,,,,,,,,,,,,,,,,,,,,,,,,,,,,,color_57,001,2022_May_05_1331,ProdSingRedo,3.2.3,59.9239804316117,
69,0,69,0,,,,,,,,,,,,,,,,,,,,,,,,,,,,403.3972149998881,None,drove,sing,yellow,18,106,401.39206049987115,None,None,401.39206049987115,None,,,,,,,,,,,,,,,,,,,,,,,,,,,,,,,,,color_57,001,2022_May_05_1331,ProdSingRedo,3.2.3,59.9239804316117,
70,0,70,0,,,,,,,,,,,,,,,,,,,,,,,,,,,,405.91394490003586,None,property,aloud,red,40,242,403.902454999974,None,None,403.902454999974,None,,,,,,,,,,,,,,,,,,,,,,,,,,,,,,,,,color_57,001,2022_May_05_1331,ProdSingRedo,3.2.3,59.9239804316117,
71,0,71,0,,,,,,,,,,,,,,,,,,,,,,,,,,,,408.42982499999925,None,suggestion,silent,blue,79,314,406.43046869989485,None,None,406.43046869989485,None,,,,,,,,,,,,,,,,,,,,,,,,,,,,,,,,,color_57,001,2022_May_05_1331,ProdSingRedo,3.2.3,59.9239804316117,
72,0,72,0,,,,,,,,,,,,,,,,,,,,,,,,,,,,410.94757459987886,None,society,aloud,red,38,293,408.9442938999273,None,None,408.9442938999273,None,,,,,,,,,,,,,,,,,,,,,,,,,,,,,,,,,color_57,001,2022_May_05_1331,ProdSingRedo,3.2.3,59.9239804316117,
73,0,73,0,,,,,,,,,,,,,,,,,,,,,,,,,,,,413.46441309992224,None,material,sing,yellow,10,182,411.4603333999403,None,None,411.4603333999403,None,,,,,,,,,,,,,,,,,,,,,,,,,,,,,,,,,color_57,001,2022_May_05_1331,ProdSingRedo,3.2.3,59.9239804316117,
74,0,74,0,,,,,,,,,,,,,,,,,,,,,,,,,,,,415.9814679999836,None,management,silent,blue,75,177,413.98099850001745,None,None,413.98099850001745,None,,,,,,,,,,,,,,,,,,,,,,,,,,,,,,,,,color_57,001,2022_May_05_1331,ProdSingRedo,3.2.3,59.9239804316117,
75,0,75,0,,,,,,,,,,,,,,,,,,,,,,,,,,,,418.4972681000363,None,hearing,silent,blue,87,150,416.4965705999639,None,None,416.4965705999639,None,,,,,,,,,,,,,,,,,,,,,,,,,,,,,,,,,color_57,001,2022_May_05_1331,ProdSingRedo,3.2.3,59.9239804316117,
76,0,76,0,,,,,,,,,,,,,,,,,,,,,,,,,,,,421.01495219999924,None,sleep,aloud,red,31,290,419.0078904000111,None,None,419.0078904000111,None,,,,,,,,,,,,,,,,,,,,,,,,,,,,,,,,,color_57,001,2022_May_05_1331,ProdSingRedo,3.2.3,59.9239804316117,
77,0,77,0,,,,,,,,,,,,,,,,,,,,,,,,,,,,423.5314547000453,None,month,aloud,red,59,193,421.52366219996475,None,None,421.52366219996475,None,,,,,,,,,,,,,,,,,,,,,,,,,,,,,,,,,color_57,001,2022_May_05_1331,ProdSingRedo,3.2.3,59.9239804316117,
78,0,78,0,,,,,,,,,,,,,,,,,,,,,,,,,,,,426.04862429993227,None,stranger,aloud,red,39,309,424.050144799985,None,None,424.050144799985,None,,,,,,,,,,,,,,,,,,,,,,,,,,,,,,,,,color_57,001,2022_May_05_1331,ProdSingRedo,3.2.3,59.9239804316117,
79,0,79,0,,,,,,,,,,,,,,,,,,,,,,,,,,,,428.5490151999984,None,speech,silent,blue,60,298,426.5495128999464,None,None,426.5495128999464,None,,,,,,,,,,,,,,,,,,,,,,,,,,,,,,,,,color_57,001,2022_May_05_1331,ProdSingRedo,3.2.3,59.9239804316117,
80,0,80,0,,,,,,,,,,,,,,,,,,,,,,,,,,,,431.06554559990764,None,skill,sing,yellow,4,289,429.0645989999175,None,None,429.0645989999175,None,,,,,,,,,,,,,,,,,,,,,,,,,,,,,,,,,color_57,001,2022_May_05_1331,ProdSingRedo,3.2.3,59.9239804316117,
81,0,81,0,,,,,,,,,,,,,,,,,,,,,,,,,,,,433.5813783998601,None,death,sing,yellow,20,86,431.5773567999713,None,None,431.5773567999713,None,,,,,,,,,,,,,,,,,,,,,,,,,,,,,,,,,color_57,001,2022_May_05_1331,ProdSingRedo,3.2.3,59.9239804316117,
82,0,82,0,,,,,,,,,,,,,,,,,,,,,,,,,,,,436.0827049999498,None,committee,aloud,red,57,62,434.08179019996896,None,None,434.08179019996896,None,,,,,,,,,,,,,,,,,,,,,,,,,,,,,,,,,color_57,001,2022_May_05_1331,ProdSingRedo,3.2.3,59.9239804316117,
83,0,83,0,,,,,,,,,,,,,,,,,,,,,,,,,,,,438.59938899986446,None,quarter,silent,blue,81,246,436.59904209990054,None,None,436.59904209990054,None,,,,,,,,,,,,,,,,,,,,,,,,,,,,,,,,,color_57,001,2022_May_05_1331,ProdSingRedo,3.2.3,59.9239804316117,
84,0,84,0,,,,,,,,,,,,,,,,,,,,,,,,,,,,441.11534320004284,None,debate,silent,blue,70,87,439.11344849993475,None,None,439.11344849993475,None,,,,,,,,,,,,,,,,,,,,,,,,,,,,,,,,,color_57,001,2022_May_05_1331,ProdSingRedo,3.2.3,59.9239804316117,
85,0,85,0,,,,,,,,,,,,,,,,,,,,,,,,,,,,443.63315130001865,None,smell,silent,blue,82,291,441.62681769998744,None,None,441.62681769998744,None,,,,,,,,,,,,,,,,,,,,,,,,,,,,,,,,,color_57,001,2022_May_05_1331,ProdSingRedo,3.2.3,59.9239804316117,
86,0,86,0,,,,,,,,,,,,,,,,,,,,,,,,,,,,446.1500317999162,None,bucket,sing,yellow,0,33,444.1492512000259,None,None,444.1492512000259,None,,,,,,,,,,,,,,,,,,,,,,,,,,,,,,,,,color_57,001,2022_May_05_1331,ProdSingRedo,3.2.3,59.9239804316117,
87,0,87,0,,,,,,,,,,,,,,,,,,,,,,,,,,,,448.66691070003435,None,portion,sing,yellow,23,228,446.65926169999875,None,None,446.65926169999875,None,,,,,,,,,,,,,,,,,,,,,,,,,,,,,,,,,color_57,001,2022_May_05_1331,ProdSingRedo,3.2.3,59.9239804316117,
88,0,88,0,,,,,,,,,,,,,,,,,,,,,,,,,,,,451.18364900001325,None,chief,aloud,red,50,48,449.1828095000237,None,None,449.1828095000237,None,,,,,,,,,,,,,,,,,,,,,,,,,,,,,,,,,color_57,001,2022_May_05_1331,ProdSingRedo,3.2.3,59.9239804316117,
89,0,89,0,,,,,,,,,,,,,,,,,,,,,,,,,,,,453.700304799946,None,force,silent,blue,72,131,451.696186499903,None,None,451.696186499903,None,,,,,,,,,,,,,,,,,,,,,,,,,,,,,,,,,color_57,001,2022_May_05_1331,ProdSingRedo,3.2.3,59.9239804316117,
,,,,,,,,,,,,,,,,,,,,,,,,,,,,,,,,,,,,,,,,,,,454.2004350000061,None,k,141.79701800015755,454.2004350000061,None,,,,,,,,,,,,,,,,,,,,,,,,,,,color_57,001,2022_May_05_1331,ProdSingRedo,3.2.3,59.9239804316117,
,,,,0,0,0,0,,,,,,,,,,,,,,,,,,,,,,,,605.6886913999915,None,,,,,,,,,,,,,,,,,country,sing,yellow,0,19,73,596.5511634000577,None,596.5511634000577,None,4,4.622143300017342,596.5511634000577,None,601.2229466999415,None,601.7446445999667,None,601.7446445999667,None,r,3.916751499986276,601.7446445999667,None,,,color_57,001,2022_May_05_1331,ProdSingRedo,3.2.3,59.9239804316117,
,,,,1,0,1,0,,,,,,,,,,,,,,,,,,,,,,,,615.4126007999294,None,,,,,,,,,,,,,,,,,weather,aloud,red,1,32,352,606.2156483998988,None,606.2156483998988,None,6,6.126177399884909,606.2156483998988,None,612.3882144000381,None,612.9056120999157,None,612.9056120999157,None,f,2.4835866999346763,612.9056120999157,None,,,color_57,001,2022_May_05_1331,ProdSingRedo,3.2.3,59.9239804316117,
,,,,2,0,2,0,,,,,,,,,,,,,,,,,,,,,,,,625.170231099939,None,,,,,,,,,,,,,,,,,worker,aloud,red,2,47,356,615.9306155999657,None,615.9306155999657,None,6,4.9545666999183595,615.9306155999657,None,620.9373297998682,None,621.4544053999707,None,621.4544053999707,None,f,3.6867856001481414,621.4544053999707,None,,,color_57,001,2022_May_05_1331,ProdSingRedo,3.2.3,59.9239804316117,
,,,,3,0,3,0,,,,,,,,,,,,,,,,,,,,,,,,633.377869799966,None,,,,,,,,,,,,,,,,,debate,silent,blue,3,70,87,625.70055519999,None,625.70055519999,None,5,4.968730699969456,625.70055519999,None,630.7198572999332,None,631.2430785000324,None,631.2430785000324,None,f,2.1138374998699874,631.2430785000324,None,,,color_57,001,2022_May_05_1331,ProdSingRedo,3.2.3,59.9239804316117,
,,,,4,0,4,0,,,,,,,,,,,,,,,,,,,,,,,,641.2773527000099,None,,,,,,,,,,,,,,,,,crowd,new_sing,yellow,4,97,81,633.8972507999279,None,633.8972507999279,None,2,3.580446199979633,633.8972507999279,None,637.5120363000315,None,638.0192591999657,None,638.0192591999657,None,f,3.218008200172335,638.0192591999657,None,,,color_57,001,2022_May_05_1331,ProdSingRedo,3.2.3,59.9239804316117,
,,,,5,0,5,0,,,,,,,,,,,,,,,,,,,,,,,,647.1232012000401,None,,,,,,,,,,,,,,,,,broke,aloud,red,5,36,32,641.7853277998511,None,641.7853277998511,None,6,2.779913099948317,641.7853277998511,None,644.6155007998459,None,645.1312074000016,None,645.1312074000016,None,f,1.9623324000276625,645.1312074000016,None,,,color_57,001,2022_May_05_1331,ProdSingRedo,3.2.3,59.9239804316117,
,,,,6,0,6,0,,,,,,,,,,,,,,,,,,,,,,,,653.3717543999664,None,,,,,,,,,,,,,,,,,death,sing,yellow,6,20,86,647.6368427998386,None,647.6368427998386,None,6,3.3525717998854816,647.6368427998386,None,651.0331586999819,None,651.55742369988,None,651.55742369988,None,f,1.775803899858147,651.55742369988,None,,,color_57,001,2022_May_05_1331,ProdSingRedo,3.2.3,59.9239804316117,
,,,,7,0,7,0,,,,,,,,,,,,,,,,,,,,,,,,658.2560663998593,None,,,,,,,,,,,,,,,,,fashion,sing,yellow,7,16,125,653.8926182000432,None,653.8926182000432,None,6,2.192677400074899,653.8926182000432,None,656.1332429000176,None,656.6578013000544,None,656.6578013000544,None,f,1.563388700131327,656.6578013000544,None,,,color_57,001,2022_May_05_1331,ProdSingRedo,3.2.3,59.9239804316117,
,,,,8,0,8,0,,,,,,,,,,,,,,,,,,,,,,,,665.4273391000461,None,,,,,,,,,,,,,,,,,emergency,new_sing,yellow,8,109,110,658.7868643000256,None,658.7868643000256,None,2,4.57797889993526,658.7868643000256,None,663.400107299909,None,663.9303695999552,None,663.9303695999552,None,f,1.4673594001214951,663.9303695999552,None,,,color_57,001,2022_May_05_1331,ProdSingRedo,3.2.3,59.9239804316117,
,,,,9,0,9,0,,,,,,,,,,,,,,,,,,,,,,,,671.257041099947,None,,,,,,,,,,,,,,,,,election,aloud,red,9,30,109,665.9460946000181,None,665.9460946000181,None,6,2.755087200086564,665.9460946000181,None,668.753556399839,None,669.2654995999765,None,669.2654995999765,None,f,1.9640070998575538,669.2654995999765,None,,,color_57,001,2022_May_05_1331,ProdSingRedo,3.2.3,59.9239804316117,
,,,,10,0,10,0,,,,,,,,,,,,,,,,,,,,,,,,676.0420021000318,None,,,,,,,,,,,,,,,,,property,aloud,red,10,40,242,671.7843124999199,None,671.7843124999199,None,6,2.5489185000769794,671.7843124999199,None,674.3703364999965,None,674.8940731000621,None,674.8940731000621,None,f,1.1110865999944508,674.8940731000621,None,,,color_57,001,2022_May_05_1331,ProdSingRedo,3.2.3,59.9239804316117,
,,,,11,0,11,0,,,,,,,,,,,,,,,,,,,,,,,,681.2008576998487,None,,,,,,,,,,,,,,,,,count,sing,yellow,11,28,72,676.5625529000536,None,676.5625529000536,None,6,2.386962200049311,676.5625529000536,None,678.9955182999838,None,679.5007881000638,None,679.5007881000638,None,f,1.6722615000326186,679.5007881000638,None,,,color_57,001,2022_May_05_1331,ProdSingRedo,3.2.3,59.9239804316117,
,,,,12,0,12,0,,,,,,,,,,,,,,,,,,,,,,,,686.4792176999617,None,,,,,,,,,,,,,,,,,vision,new_aloud,red,12,124,347,681.723775099963,None,681.723775099963,None,1,1.8494161001872271,681.723775099963,None,683.6163610999938,None,684.1277836998925,None,684.1277836998925,None,f,2.3174280000384897,684.1277836998925,None,,,color_57,001,2022_May_05_1331,ProdSingRedo,3.2.3,59.9239804316117,
,,,,13,0,13,0,,,,,,,,,,,,,,,,,,,,,,,,692.9496148000471,None,,,,,,,,,,,,,,,,,agency,sing,yellow,13,29,4,686.9998027000111,None,686.9998027000111,None,6,4.365604300051928,686.9998027000111,None,691.4082720000297,None,691.9284903998487,None,691.9284903998487,None,f,0.9963245000690222,691.9284903998487,None,,,color_57,001,2022_May_05_1331,ProdSingRedo,3.2.3,59.9239804316117,
,,,,14,0,14,0,,,,,,,,,,,,,,,,,,,,,,,,698.7612664999906,None,,,,,,,,,,,,,,,,,commercial,new_aloud,red,14,142,61,693.4686989998445,None,693.4686989998445,None,1,2.2724933000281453,693.4686989998445,None,695.7914817999117,None,696.3027502000332,None,696.3027502000332,None,f,2.422519699903205,696.3027502000332,None,,,color_57,001,2022_May_05_1331,ProdSingRedo,3.2.3,59.9239804316117,
,,,,15,0,15,0,,,,,,,,,,,,,,,,,,,,,,,,704.6998580000363,None,,,,,,,,,,,,,,,,,portion,sing,yellow,15,23,228,699.2855807999149,None,699.2855807999149,None,6,3.319846000056714,699.2855807999149,None,702.6536401999183,None,703.1754040999804,None,703.1754040999804,None,f,1.4859853000380099,703.1754040999804,None,,,color_57,001,2022_May_05_1331,ProdSingRedo,3.2.3,59.9239804316117,
,,,,16,0,16,0,,,,,,,,,,,,,,,,,,,,,,,,715.6095346000511,None,,,,,,,,,,,,,,,,,appeal,silent,blue,16,62,9,705.2220107999165,None,705.2220107999165,None,2,6.359678599983454,705.2220107999165,None,711.6271374998614,None,712.1456899999175,None,712.1456899999175,None,r,3.427432400174439,712.1456899999175,None,,,color_57,001,2022_May_05_1331,ProdSingRedo,3.2.3,59.9239804316117,
,,,,17,0,17,0,,,,,,,,,,,,,,,,,,,,,,,,721.576764700003,None,,,,,,,,,,,,,,,,,chief,aloud,red,17,50,48,716.1305938998703,None,716.1305938998703,None,6,2.11476460006088,716.1305938998703,None,718.2894772998989,None,718.8043018998578,None,718.8043018998578,None,f,2.7370226001366973,718.8043018998578,None,,,color_57,001,2022_May_05_1331,ProdSingRedo,3.2.3,59.9239804316117,
,,,,18,0,18,0,,,,,,,,,,,,,,,,,,,,,,,,727.7613363999408,None,,,,,,,,,,,,,,,,,shear,new_silent,blue,18,165,283,722.1008420998696,None,722.1008420998696,None,1,2.136326399864629,722.1008420998696,None,724.2896481000353,None,724.8132728000637,None,724.8132728000637,None,f,2.912169999908656,724.8132728000637,None,,,color_57,001,2022_May_05_1331,ProdSingRedo,3.2.3,59.9239804316117,
,,,,19,0,19,0,,,,,,,,,,,,,,,,,,,,,,,,732.1945161998738,None,,,,,,,,,,,,,,,,,dance,new_sing,yellow,19,91,84,728.2830149999354,None,728.2830149999354,None,1,2.0821950000245124,728.2830149999354,None,730.4084167999681,None,730.9311236999929,None,730.9311236999929,None,f,1.2340520999860018,730.9311236999929,None,,,color_57,001,2022_May_05_1331,ProdSingRedo,3.2.3,59.9239804316117,
,,,,20,0,20,0,,,,,,,,,,,,,,,,,,,,,,,,736.4370015000459,None,,,,,,,,,,,,,,,,,trend,aloud,red,20,52,340,732.7168254998978,None,732.7168254998978,None,6,1.7684732000343502,732.7168254998978,None,734.5215157000348,None,735.0413939000573,None,735.0413939000573,None,f,1.371644499944523,735.0413939000573,None,,,color_57,001,2022_May_05_1331,ProdSingRedo,3.2.3,59.9239804316117,
,,,,21,0,21,0,,,,,,,,,,,,,,,,,,,,,,,,743.4212468999904,None,,,,,,,,,,,,,,,,,scale,new_silent,blue,21,150,272,736.9531143000349,None,736.9531143000349,None,1,2.3644468002021313,736.9531143000349,None,739.361850499874,None,739.8809539000504,None,739.8809539000504,None,r,3.50787640013732,739.8809539000504,None,,,color_57,001,2022_May_05_1331,ProdSingRedo,3.2.3,59.9239804316117,
,,,,22,0,22,0,,,,,,,,,,,,,,,,,,,,,,,,749.9459660998546,None,,,,,,,,,,,,,,,,,music,silent,blue,22,89,196,743.9527304000221,None,743.9527304000221,None,6,3.388621099991724,743.9527304000221,None,747.3925200998783,None,747.9145154999569,None,747.9145154999569,None,f,2.003165900008753,747.9145154999569,None,,,color_57,001,2022_May_05_1331,ProdSingRedo,3.2.3,59.9239804316117,
,,,,23,0,23,0,,,,,,,,,,,,,,,,,,,,,,,,754.7286355998367,None,,,,,,,,,,,,,,,,,bucket,sing,yellow,23,0,33,750.4759048998822,None,750.4759048998822,None,6,2.5449182000011206,750.4759048998822,None,753.0423029998783,None,753.555190499872,None,753.555190499872,None,f,1.1377811001148075,753.555190499872,None,,,color_57,001,2022_May_05_1331,ProdSingRedo,3.2.3,59.9239804316117,
,,,,24,0,24,0,,,,,,,,,,,,,,,,,,,,,,,,760.3797822999768,None,,,,,,,,,,,,,,,,,measure,new_aloud,red,24,125,184,755.2533988999203,None,755.2533988999203,None,1,3.2559388999361545,755.2533988999203,None,758.5568949000444,None,759.0860202000476,None,759.0860202000476,None,f,1.2633424000814557,759.0860202000476,None,,,color_57,001,2022_May_05_1331,ProdSingRedo,3.2.3,59.9239804316117,
,,,,25,0,25,0,,,,,,,,,,,,,,,,,,,,,,,,766.2631647998933,None,,,,,,,,,,,,,,,,,dream,new_sing,yellow,25,108,104,760.9060982000083,None,760.9060982000083,None,2,2.859100600006059,760.9060982000083,None,763.8107695998624,None,764.3238416998647,None,764.3238416998647,None,f,1.9053382000420243,764.3238416998647,None,,,color_57,001,2022_May_05_1331,ProdSingRedo,3.2.3,59.9239804316117,
,,,,26,0,26,0,,,,,,,,,,,,,,,,,,,,,,,,770.5815363000147,None,,,,,,,,,,,,,,,,,welcome,sing,yellow,26,13,354,766.7881318000145,None,766.7881318000145,None,6,1.8090168999042362,766.7881318000145,None,768.63924639998,None,769.171373500023,None,769.171373500023,None,f,1.3778764000162482,769.171373500023,None,,,color_57,001,2022_May_05_1331,ProdSingRedo,3.2.3,59.9239804316117,
,,,,27,0,27,0,,,,,,,,,,,,,,,,,,,,,,,,776.6305364998989,None,,,,,,,,,,,,,,,,,period,silent,blue,27,73,217,771.101662900066,None,771.101662900066,None,6,2.911643899977207,771.101662900066,None,774.0491108000278,None,774.5671365000308,None,774.5671365000308,None,f,2.0302528999745846,774.5671365000308,None,,,color_57,001,2022_May_05_1331,ProdSingRedo,3.2.3,59.9239804316117,
,,,,28,0,28,0,,,,,,,,,,,,,,,,,,,,,,,,781.1064426999073,None,,,,,,,,,,,,,,,,,hearing,silent,blue,28,87,150,777.1590755998623,None,777.1590755998623,None,5,1.9661157000809908,777.1590755998623,None,779.1803029999137,None,779.7017281998415,None,779.7017281998415,None,f,1.368196199880913,779.7017281998415,None,,,color_57,001,2022_May_05_1331,ProdSingRedo,3.2.3,59.9239804316117,
,,,,29,0,29,0,,,,,,,,,,,,,,,,,,,,,,,,786.5149832998868,None,,,,,,,,,,,,,,,,,exchange,new_silent,blue,29,164,121,781.6287467998918,None,781.6287467998918,None,1,2.080345199909061,781.6287467998918,None,783.7599932998419,None,784.256383900065,None,784.256383900065,None,f,2.2287588000763208,784.256383900065,None,,,color_57,001,2022_May_05_1331,ProdSingRedo,3.2.3,59.9239804316117,
,,,,30,0,30,0,,,,,,,,,,,,,,,,,,,,,,,,792.9320308999158,None,,,,,,,,,,,,,,,,,smooth,silent,blue,30,68,292,787.0364063000306,None,787.0364063000306,None,6,2.144758899929002,787.0364063000306,None,789.2258695999626,None,789.747854599962,None,789.747854599962,None,f,3.153433700092137,789.747854599962,None,,,color_57,001,2022_May_05_1331,ProdSingRedo,3.2.3,59.9239804316117,
,,,,31,0,31,0,,,,,,,,,,,,,,,,,,,,,,,,801.5990905000363,None,,,,,,,,,,,,,,,,,number,new_sing,yellow,31,93,203,793.4444193998352,None,793.4444193998352,None,5,5.824666499858722,793.4444193998352,None,799.3088155000005,None,799.8358064999338,None,799.8358064999338,None,f,1.7374141998589039,799.8358064999338,None,,,color_57,001,2022_May_05_1331,ProdSingRedo,3.2.3,59.9239804316117,
,,,,32,0,32,0,,,,,,,,,,,,,,,,,,,,,,,,806.9404757998418,None,,,,,,,,,,,,,,,,,strength,sing,yellow,32,25,310,802.1261149998754,None,802.1261149998754,None,6,3.6549980000127107,802.1261149998754,None,805.8186714998446,None,806.3378391000442,None,806.3378391000442,None,f,0.5789712001569569,806.3378391000442,None,,,color_57,001,2022_May_05_1331,ProdSingRedo,3.2.3,59.9239804316117,
,,,,33,0,33,0,,,,,,,,,,,,,,,,,,,,,,,,811.2093680999242,None,,,,,,,,,,,,,,,,,murder,silent,blue,33,71,195,807.4513145999517,None,807.4513145999517,None,6,2.6501837000250816,807.4513145999517,None,810.1368306998629,None,810.6561395998579,None,810.6561395998579,None,f,0.5250297000166029,810.6561395998579,None,,,color_57,001,2022_May_05_1331,ProdSingRedo,3.2.3,59.9239804316117,
,,,,34,0,34,0,,,,,,,,,,,,,,,,,,,,,,,,814.9334046000149,None,,,,,,,,,,,,,,,,,committee,aloud,red,34,57,62,811.7407100999262,None,811.7407100999262,None,6,1.9041625000536442,811.7407100999262,None,813.6760678000282,None,814.2008684000466,None,814.2008684000466,None,f,0.7003140000160784,814.2008684000466,None,,,color_57,001,2022_May_05_1331,ProdSingRedo,3.2.3,59.9239804316117,
,,,,35,0,35,0,,,,,,,,,,,,,,,,,,,,,,,,819.1676830998622,None,,,,,,,,,,,,,,,,,volume,new_aloud,red,35,138,349,815.4619068999309,None,815.4619068999309,None,1,1.687061999924481,815.4619068999309,None,817.1828127000481,None,817.6954713999294,None,817.6954713999294,None,f,1.4458195001352578,817.6954713999294,None,,,color_57,001,2022_May_05_1331,ProdSingRedo,3.2.3,59.9239804316117,
,,,,36,0,36,0,,,,,,,,,,,,,,,,,,,,,,,,824.9914136000443,None,,,,,,,,,,,,,,,,,safety,aloud,red,36,45,270,819.6964753998909,None,819.6964753998909,None,6,4.052642100024968,819.6964753998909,None,823.8024952998385,None,824.3102678998839,None,824.3102678998839,None,f,0.6625793999992311,824.3102678998839,None,,,color_57,001,2022_May_05_1331,ProdSingRedo,3.2.3,59.9239804316117,
,,,,37,0,37,0,,,,,,,,,,,,,,,,,,,,,,,,830.869126399979,None,,,,,,,,,,,,,,,,,surprise,new_sing,yellow,37,118,317,825.4979578999337,None,825.4979578999337,None,1,2.875598599901423,825.4979578999337,None,828.4059880999848,None,828.9323561999481,None,828.9323561999481,None,f,1.9050450001377612,828.9323561999481,None,,,color_57,001,2022_May_05_1331,ProdSingRedo,3.2.3,59.9239804316117,
,,,,38,0,38,0,,,,,,,,,,,,,,,,,,,,,,,,835.5512848999351,None,,,,,,,,,,,,,,,,,figure,new_silent,blue,38,167,128,831.3927378999069,None,831.3927378999069,None,2,2.38109300006181,831.3927378999069,None,833.8164438998792,None,834.3292171999346,None,834.3292171999346,None,f,1.1961448998190463,834.3292171999346,None,,,color_57,001,2022_May_05_1331,ProdSingRedo,3.2.3,59.9239804316117,
,,,,39,0,39,0,,,,,,,,,,,,,,,,,,,,,,,,840.9184210998937,None,,,,,,,,,,,,,,,,,session,new_silent,blue,39,151,281,836.0740487999283,None,836.0740487999283,None,2,2.1231192001141608,836.0740487999283,None,838.2482992999721,None,838.7599384998903,None,838.7599384998903,None,f,2.125151799991727,838.7599384998903,None,,,color_57,001,2022_May_05_1331,ProdSingRedo,3.2.3,59.9239804316117,
,,,,40,0,40,0,,,,,,,,,,,,,,,,,,,,,,,,845.8059906999115,None,,,,,,,,,,,,,,,,,write,new_aloud,red,40,134,358,841.4407732000109,None,841.4407732000109,None,1,2.2362311999313533,841.4407732000109,None,843.7234187999275,None,844.2381124000531,None,844.2381124000531,None,f,1.527144500054419,844.2381124000531,None,,,color_57,001,2022_May_05_1331,ProdSingRedo,3.2.3,59.9239804316117,
,,,,41,0,41,0,,,,,,,,,,,,,,,,,,,,,,,,855.8619991999585,None,,,,,,,,,,,,,,,,,present,silent,blue,41,67,231,846.3266527999658,None,846.3266527999658,None,2,7.526389800012112,846.3266527999658,None,853.886146799894,None,854.4007643000223,None,854.4007643000223,None,f,1.4362549998331815,854.4007643000223,None,,,color_57,001,2022_May_05_1331,ProdSingRedo,3.2.3,59.9239804316117,
,,,,42,0,42,0,,,,,,,,,,,,,,,,,,,,,,,,861.4355917999055,None,,,,,,,,,,,,,,,,,length,new_silent,blue,42,161,169,856.3805160999764,None,856.3805160999764,None,5,2.6326858000829816,856.3805160999764,None,859.0797949000262,None,859.5892868998926,None,859.5892868998926,None,f,1.8079396998509765,859.5892868998926,None,,,color_57,001,2022_May_05_1331,ProdSingRedo,3.2.3,59.9239804316117,
,,,,43,0,43,0,,,,,,,,,,,,,,,,,,,,,,,,866.1703021000139,None,,,,,,,,,,,,,,,,,pancakes,sing,yellow,43,3,210,861.963119099848,None,861.963119099848,None,6,3.2580616001505405,861.963119099848,None,865.2652257999871,None,865.793311299989,None,865.793311299989,None,f,0.34777399990707636,865.793311299989,None,,,color_57,001,2022_May_05_1331,ProdSingRedo,3.2.3,59.9239804316117,
,,,,44,0,44,0,,,,,,,,,,,,,,,,,,,,,,,,872.0171471999492,None,,,,,,,,,,,,,,,,,scene,sing,yellow,44,26,273,866.6905062999576,None,866.6905062999576,None,5,2.8423745001200587,866.6905062999576,None,869.5628376998939,None,870.0854636000004,None,870.0854636000004,None,f,1.8877775999717414,870.0854636000004,None,,,color_57,001,2022_May_05_1331,ProdSingRedo,3.2.3,59.9239804316117,
,,,,45,0,45,0,,,,,,,,,,,,,,,,,,,,,,,,877.0880882998463,None,,,,,,,,,,,,,,,,,reach,sing,yellow,45,24,253,872.5291658998467,None,872.5291658998467,None,6,1.8119814998935908,872.5291658998467,None,874.3820034000091,None,874.9085585998837,None,874.9085585998837,None,f,2.1529057000298053,874.9085585998837,None,,,color_57,001,2022_May_05_1331,ProdSingRedo,3.2.3,59.9239804316117,
,,,,46,0,46,0,,,,,,,,,,,,,,,,,,,,,,,,883.087924899999,None,,,,,,,,,,,,,,,,,guard,new_aloud,red,46,128,145,877.6131051999982,None,877.6131051999982,None,1,2.5038645998574793,877.6131051999982,None,880.1513090999797,None,880.6657389998436,None,880.6657389998436,None,f,2.387423299951479,880.6657389998436,None,,,color_57,001,2022_May_05_1331,ProdSingRedo,3.2.3,59.9239804316117,
,,,,47,0,47,0,,,,,,,,,,,,,,,,,,,,,,,,891.2050473999698,None,,,,,,,,,,,,,,,,,passage,new_sing,yellow,47,105,212,883.6171700998675,None,883.6171700998675,None,1,5.5796252998989075,883.6171700998675,None,889.2241446999833,None,889.7423497999553,None,889.7423497999553,None,f,1.4387678001075983,889.7423497999553,None,,,color_57,001,2022_May_05_1331,ProdSingRedo,3.2.3,59.9239804316117,
,,,,48,0,48,0,,,,,,,,,,,,,,,,,,,,,,,,898.222261399962,None,,,,,,,,,,,,,,,,,corner,aloud,red,48,54,69,891.7268367998768,None,891.7268367998768,None,5,4.782249999931082,891.7268367998768,None,896.5518038999289,None,897.0719498000108,None,897.0719498000108,None,f,1.1253122999332845,897.0719498000108,None,,,color_57,001,2022_May_05_1331,ProdSingRedo,3.2.3,59.9239804316117,
,,,,49,0,49,0,,,,,,,,,,,,,,,,,,,,,,,,904.7554031999316,None,,,,,,,,,,,,,,,,,community,new_silent,blue,49,152,63,898.7528140000068,None,898.7528140000068,None,6,4.324304099893197,898.7528140000068,None,903.104899500031,None,903.6159101999365,None,903.6159101999365,None,f,1.1013128999620676,903.6159101999365,None,,,color_57,001,2022_May_05_1331,ProdSingRedo,3.2.3,59.9239804316117,
,,,,50,0,50,0,,,,,,,,,,,,,,,,,,,,,,,,910.073800599901,None,,,,,,,,,,,,,,,,,produce,new_sing,yellow,50,96,239,905.2809762000106,None,905.2809762000106,None,1,2.8602366999257356,905.2809762000106,None,908.1879705998581,None,908.7097914000042,None,908.7097914000042,None,f,1.3358007001224905,908.7097914000042,None,,,color_57,001,2022_May_05_1331,ProdSingRedo,3.2.3,59.9239804316117,
,,,,51,0,51,0,,,,,,,,,,,,,,,,,,,,,,,,916.1748792999424,None,,,,,,,,,,,,,,,,,front,new_sing,yellow,51,115,134,910.6024945999961,None,910.6024945999961,None,2,3.2269648001529276,910.6024945999961,None,913.8658582000062,None,914.390721200034,None,914.390721200034,None,f,1.7506291999015957,914.390721200034,None,,,color_57,001,2022_May_05_1331,ProdSingRedo,3.2.3,59.9239804316117,
,,,,52,0,52,0,,,,,,,,,,,,,,,,,,,,,,,,926.583623399958,None,,,,,,,,,,,,,,,,,drama,silent,blue,52,63,103,916.7080460998695,None,916.7080460998695,None,6,8.177029100013897,916.7080460998695,None,924.9347987000365,None,925.4623342000414,None,925.4623342000414,None,f,1.0869281999766827,925.4623342000414,None,,,color_57,001,2022_May_05_1331,ProdSingRedo,3.2.3,59.9239804316117,
,,,,53,0,53,0,,,,,,,,,,,,,,,,,,,,,,,,932.5340372000355,None,,,,,,,,,,,,,,,,,search,aloud,red,53,56,276,927.1175356998574,None,927.1175356998574,None,5,3.447619799990207,927.1175356998574,None,930.6064693999942,None,931.129293399863,None,931.129293399863,None,f,1.371634699869901,931.129293399863,None,,,color_57,001,2022_May_05_1331,ProdSingRedo,3.2.3,59.9239804316117,
,,,,54,0,54,0,,,,,,,,,,,,,,,,,,,,,,,,936.324452099856,None,,,,,,,,,,,,,,,,,still,new_aloud,red,54,139,304,933.048290599836,None,933.048290599836,None,1,2.068878000136465,933.048290599836,None,935.1577472998761,None,935.6750109000131,None,935.6750109000131,None,f,0.6101867000106722,935.6750109000131,None,,,color_57,001,2022_May_05_1331,ProdSingRedo,3.2.3,59.9239804316117,
,,,,55,0,55,0,,,,,,,,,,,,,,,,,,,,,,,,940.2905067999382,None,,,,,,,,,,,,,,,,,question,aloud,red,55,41,247,936.8475969999563,None,936.8475969999563,None,6,2.6137779999990016,936.8475969999563,None,939.508477000054,None,940.0286762998439,None,940.0286762998439,None,f,0.2244778999593109,940.0286762998439,None,,,color_57,001,2022_May_05_1331,ProdSingRedo,3.2.3,59.9239804316117,
,,,,56,0,56,0,,,,,,,,,,,,,,,,,,,,,,,,943.5087142998818,None,,,,,,,,,,,,,,,,,principal,sing,yellow,56,11,236,940.8181197999511,None,940.8181197999511,None,6,1.8432619001250714,940.8181197999511,None,942.7126994999126,None,943.2275572998915,None,943.2275572998915,None,f,0.2496237000450492,943.2275572998915,None,,,color_57,001,2022_May_05_1331,ProdSingRedo,3.2.3,59.9239804316117,
,,,,57,0,57,0,,,,,,,,,,,,,,,,,,,,,,,,947.4681603999343,None,,,,,,,,,,,,,,,,,charter,sing,yellow,57,9,47,944.036894199904,None,944.036894199904,None,6,2.536400099983439,944.036894199904,None,946.6220772999804,None,947.147758099949,None,947.147758099949,None,f,0.29751769988797605,947.147758099949,None,,,color_57,001,2022_May_05_1331,ProdSingRedo,3.2.3,59.9239804316117,
,,,,58,0,58,0,,,,,,,,,,,,,,,,,,,,,,,,952.3015040999744,None,,,,,,,,,,,,,,,,,appearance,silent,blue,58,86,10,948.005877800053,None,948.005877800053,None,5,3.0232164000626653,948.005877800053,None,951.0783939999528,None,951.6046445998363,None,951.6046445998363,None,f,0.6644729999825358,951.6046445998363,None,,,color_57,001,2022_May_05_1331,ProdSingRedo,3.2.3,59.9239804316117,
,,,,59,0,59,0,,,,,,,,,,,,,,,,,,,,,,,,956.1786559999455,None,,,,,,,,,,,,,,,,,point,aloud,red,59,58,226,952.8317825999111,None,952.8317825999111,None,1,2.3652971999254078,952.8317825999111,None,955.2354057000484,None,955.7592994000297,None,955.7592994000297,None,f,0.3900227998383343,955.7592994000297,None,,,color_57,001,2022_May_05_1331,ProdSingRedo,3.2.3,59.9239804316117,
,,,,60,0,60,0,,,,,,,,,,,,,,,,,,,,,,,,961.6437500999309,None,,,,,,,,,,,,,,,,,concern,aloud,red,60,35,65,956.6971823999193,None,956.6971823999193,None,1,3.9479905997868627,956.6971823999193,None,960.6876594000496,None,961.2102016999852,None,961.2102016999852,None,f,0.3949855000246316,961.2102016999852,None,,,color_57,001,2022_May_05_1331,ProdSingRedo,3.2.3,59.9239804316117,
,,,,61,0,61,0,,,,,,,,,,,,,,,,,,,,,,,,966.4429211998358,None,,,,,,,,,,,,,,,,,entrance,new_aloud,red,61,132,115,962.1698000000324,None,962.1698000000324,None,2,3.275253599975258,962.1698000000324,None,965.4914567999076,None,966.0030868998729,None,966.0030868998729,None,f,0.40214570006355643,966.0030868998729,None,,,color_57,001,2022_May_05_1331,ProdSingRedo,3.2.3,59.9239804316117,
,,,,62,0,62,0,,,,,,,,,,,,,,,,,,,,,,,,971.1366987999063,None,,,,,,,,,,,,,,,,,congress,new_sing,yellow,62,95,67,966.9699593998957,None,966.9699593998957,None,1,3.1552891999017447,966.9699593998957,None,970.1730895999353,None,970.696500999853,None,970.696500999853,None,f,0.412547699874267,970.696500999853,None,,,color_57,001,2022_May_05_1331,ProdSingRedo,3.2.3,59.9239804316117,
,,,,63,0,63,0,,,,,,,,,,,,,,,,,,,,,,,,977.8943840998691,None,,,,,,,,,,,,,,,,,account,new_silent,blue,63,155,1,971.6680435999297,None,971.6680435999297,None,5,5.401266200002283,971.6680435999297,None,977.1064289999194,None,977.618668399984,None,977.618668399984,None,f,0.2507751998491585,977.618668399984,None,,,color_57,001,2022_May_05_1331,ProdSingRedo,3.2.3,59.9239804316117,
,,,,64,0,64,0,,,,,,,,,,,,,,,,,,,,,,,,982.6788608999923,None,,,,,,,,,,,,,,,,,light,new_aloud,red,64,127,171,978.4181321999058,None,978.4181321999058,None,1,3.411138900090009,978.4181321999058,None,981.8746780999936,None,982.4062077000272,None,982.4062077000272,None,f,0.23889350006356835,982.4062077000272,None,,,color_57,001,2022_May_05_1331,ProdSingRedo,3.2.3,59.9239804316117,
,,,,65,0,65,0,,,,,,,,,,,,,,,,,,,,,,,,986.9290618000086,None,,,,,,,,,,,,,,,,,payment,aloud,red,65,53,215,983.2092448999174,None,983.2092448999174,None,5,2.4198290000203997,983.2092448999174,None,985.6651528000366,None,986.1888941999059,None,986.1888941999059,None,f,0.7124361000023782,986.1888941999059,None,,,color_57,001,2022_May_05_1331,ProdSingRedo,3.2.3,59.9239804316117,
,,,,66,0,66,0,,,,,,,,,,,,,,,,,,,,,,,,991.8110563999508,None,,,,,,,,,,,,,,,,,running,new_aloud,red,66,136,268,987.4530761998612,None,987.4530761998612,None,1,2.04004990006797,987.4530761998612,None,989.5476847998798,None,990.0672466000542,None,990.0672466000542,None,f,1.7058902001008391,990.0672466000542,None,,,color_57,001,2022_May_05_1331,ProdSingRedo,3.2.3,59.9239804316117,
,,,,67,0,67,0,,,,,,,,,,,,,,,,,,,,,,,,997.1288341998588,None,,,,,,,,,,,,,,,,,thing,new_aloud,red,67,146,328,992.3367161999922,None,992.3367161999922,None,1,2.108146799961105,992.3367161999922,None,994.4803071999922,None,994.9865832999349,None,994.9865832999349,None,f,2.1070371998939663,994.9865832999349,None,,,color_57,001,2022_May_05_1331,ProdSingRedo,3.2.3,59.9239804316117,
,,,,68,0,68,0,,,,,,,,,,,,,,,,,,,,,,,,1009.0627295000013,None,,,,,,,,,,,,,,,,,turkey,silent,blue,68,76,342,997.6558067998849,None,997.6558067998849,None,2,10.341377400094643,997.6558067998849,None,1008.0443949999753,None,1008.5695323999971,None,1008.5695323999971,None,f,0.4677474000491202,1008.5695323999971,None,,,color_57,001,2022_May_05_1331,ProdSingRedo,3.2.3,59.9239804316117,
,,,,69,0,69,0,,,,,,,,,,,,,,,,,,,,,,,,1018.0125007999595,None,,,,,,,,,,,,,,,,,accident,silent,blue,69,69,0,1009.5875893998891,None,1009.5875893998891,None,5,7.313926100032404,1009.5875893998891,None,1016.9415869000368,None,1017.4577917000279,None,1017.4577917000279,None,f,0.5152831999585032,1017.4577917000279,None,,,color_57,001,2022_May_05_1331,ProdSingRedo,3.2.3,59.9239804316117,
,,,,70,0,70,0,,,,,,,,,,,,,,,,,,,,,,,,1024.8148425000254,None,,,,,,,,,,,,,,,,,rapid,new_silent,blue,70,160,252,1018.5258010998368,None,1018.5258010998368,None,1,4.93510299990885,1018.5258010998368,None,1023.5027065998875,None,1024.015949799912,None,1024.015949799912,None,f,0.7733024000190198,1024.015949799912,None,,,color_57,001,2022_May_05_1331,ProdSingRedo,3.2.3,59.9239804316117,
,,,,71,0,71,0,,,,,,,,,,,,,,,,,,,,,,,,1029.698852200061,None,,,,,,,,,,,,,,,,,clear,silent,blue,71,85,52,1025.338264199905,None,1025.338264199905,None,2,2.931410999968648,1025.338264199905,None,1028.3107572000008,None,1028.8352077000309,None,1028.8352077000309,None,f,0.8342149998061359,1028.8352077000309,None,,,color_57,001,2022_May_05_1331,ProdSingRedo,3.2.3,59.9239804316117,
,,,,72,0,72,0,,,,,,,,,,,,,,,,,,,,,,,,1034.69761929987,None,,,,,,,,,,,,,,,,,provision,new_sing,yellow,72,112,243,1030.2266317999456,None,1030.2266317999456,None,5,3.45845689997077,1030.2266317999456,None,1033.7306204999331,None,1034.2497433000244,None,1034.2497433000244,None,f,0.4194987998344004,1034.2497433000244,None,,,color_57,001,2022_May_05_1331,ProdSingRedo,3.2.3,59.9239804316117,
,,,,73,0,73,0,,,,,,,,,,,,,,,,,,,,,,,,1039.2986136998516,None,,,,,,,,,,,,,,,,,force,silent,blue,73,72,131,1035.2237821000163,None,1035.2237821000163,None,5,1.9093438999261707,1035.2237821000163,None,1037.1772087998688,None,1037.7000159998424,None,1037.7000159998424,None,f,1.5612193001434207,1037.7000159998424,None,,,color_57,001,2022_May_05_1331,ProdSingRedo,3.2.3,59.9239804316117,
,,,,74,0,74,0,,,,,,,,,,,,,,,,,,,,,,,,1047.6826267999131,None,,,,,,,,,,,,,,,,,evidence,new_silent,blue,74,154,120,1039.8256705999374,None,1039.8256705999374,None,5,6.283500100020319,1039.8256705999374,None,1046.1612344000023,None,1046.6858363999054,None,1046.6858363999054,None,f,0.9674299999605864,1046.6858363999054,None,,,color_57,001,2022_May_05_1331,ProdSingRedo,3.2.3,59.9239804316117,
,,,,75,0,75,0,,,,,,,,,,,,,,,,,,,,,,,,1052.875689999899,None,,,,,,,,,,,,,,,,,ground,new_sing,yellow,75,90,142,1048.2052412000485,None,1048.2052412000485,None,6,3.7922388000879437,1048.2052412000485,None,1052.0458608998451,None,1052.5685890999157,None,1052.5685890999157,None,f,0.27614440000616014,1052.5685890999157,None,,,color_57,001,2022_May_05_1331,ProdSingRedo,3.2.3,59.9239804316117,
,,,,76,0,76,0,,,,,,,,,,,,,,,,,,,,,,,,1060.6833222999703,None,,,,,,,,,,,,,,,,,direction,new_sing,yellow,76,117,94,1053.3893540999852,None,1053.3893540999852,None,1,6.6558756998274475,1053.3893540999852,None,1060.095312200021,None,1060.6169686999638,None,1060.6169686999638,None,f,0.028120500035583973,1060.6169686999638,None,,,color_57,001,2022_May_05_1331,ProdSingRedo,3.2.3,59.9239804316117,
,,,,77,0,77,0,,,,,,,,,,,,,,,,,,,,,,,,1065.8104741999414,None,,,,,,,,,,,,,,,,,business,new_silent,blue,77,172,38,1061.2115110000595,None,1061.2115110000595,None,6,3.6655953999143094,1061.2115110000595,None,1064.9334841000382,None,1065.4529724998865,None,1065.4529724998865,None,f,0.31203459994867444,1065.4529724998865,None,,,color_57,001,2022_May_05_1331,ProdSingRedo,3.2.3,59.9239804316117,
,,,,78,0,78,0,,,,,,,,,,,,,,,,,,,,,,,,1074.3181471000426,None,,,,,,,,,,,,,,,,,review,new_silent,blue,78,179,263,1066.3454772999976,None,1066.3454772999976,None,6,3.523623999906704,1066.3454772999976,None,1069.92504059989,None,1070.4414359000511,None,1070.4414359000511,None,f,3.8519528000615537,1070.4414359000511,None,,,color_57,001,2022_May_05_1331,ProdSingRedo,3.2.3,59.9239804316117,
,,,,79,0,79,0,,,,,,,,,,,,,,,,,,,,,,,,1079.5179554000497,None,,,,,,,,,,,,,,,,,detective,new_sing,yellow,79,101,92,1074.841958399862,None,1074.841958399862,None,1,3.763141500065103,1074.841958399862,None,1078.6488917998504,None,1079.171254399931,None,1079.171254399931,None,f,0.3219242000486702,1079.171254399931,None,,,color_57,001,2022_May_05_1331,ProdSingRedo,3.2.3,59.9239804316117,
,,,,80,0,80,0,,,,,,,,,,,,,,,,,,,,,,,,1083.9681652998552,None,,,,,,,,,,,,,,,,,contract,new_sing,yellow,80,107,68,1080.0454057999887,None,1080.0454057999887,None,2,2.855302100069821,1080.0454057999887,None,1082.9329258999787,None,1083.4415378998965,None,1083.4415378998965,None,f,0.49979520007036626,1083.4415378998965,None,,,color_57,001,2022_May_05_1331,ProdSingRedo,3.2.3,59.9239804316117,
,,,,81,0,81,0,,,,,,,,,,,,,,,,,,,,,,,,1087.650971799856,None,,,,,,,,,,,,,,,,,finish,new_sing,yellow,81,116,130,1084.4910762000363,None,1084.4910762000363,None,1,2.330171199981123,1084.4910762000363,None,1086.8530226000585,None,1087.3732473999262,None,1087.3732473999262,None,f,0.23985959985293448,1087.3732473999262,None,,,color_57,001,2022_May_05_1331,ProdSingRedo,3.2.3,59.9239804316117,
,,,,82,0,82,0,,,,,,,,,,,,,,,,,,,,,,,,1090.8847697998863,None,,,,,,,,,,,,,,,,,track,new_sing,yellow,82,102,334,1088.1786048999056,None,1088.1786048999056,None,1,1.5385670999530703,1088.1786048999056,None,1089.7682753000408,None,1090.2888859999366,None,1090.2888859999366,None,f,0.5562879000790417,1090.2888859999366,None,,,color_57,001,2022_May_05_1331,ProdSingRedo,3.2.3,59.9239804316117,
,,,,83,0,83,0,,,,,,,,,,,,,,,,,,,,,,,,1094.135137300007,None,,,,,,,,,,,,,,,,,youth,new_sing,yellow,83,103,359,1091.413450999884,None,1091.413450999884,None,1,1.4078186999540776,1091.413450999884,None,1092.8688729999121,None,1093.3931676000357,None,1093.3931676000357,None,f,0.7161496998742223,1093.3931676000357,None,,,color_57,001,2022_May_05_1331,ProdSingRedo,3.2.3,59.9239804316117,
,,,,84,0,84,0,,,,,,,,,,,,,,,,,,,,,,,,1097.786237299908,None,,,,,,,,,,,,,,,,,working,new_aloud,red,84,131,357,1094.6639352999628,None,1094.6639352999628,None,1,2.045499200001359,1094.6639352999628,None,1096.7479431000538,None,1097.2770189999137,None,1097.2770189999137,None,f,0.47214649990200996,1097.2770189999137,None,,,color_57,001,2022_May_05_1331,ProdSingRedo,3.2.3,59.9239804316117,
,,,,85,0,85,0,,,,,,,,,,,,,,,,,,,,,,,,1101.3361505998764,None,,,,,,,,,,,,,,,,,speech,silent,blue,85,60,298,1098.307339400053,None,1098.307339400053,None,5,1.7700138001237065,1098.307339400053,None,1100.115550499875,None,1100.6375066000037,None,1100.6375066000037,None,f,0.6717428001575172,1100.6375066000037,None,,,color_57,001,2022_May_05_1331,ProdSingRedo,3.2.3,59.9239804316117,
,,,,86,0,86,0,,,,,,,,,,,,,,,,,,,,,,,,1106.7536601000465,None,,,,,,,,,,,,,,,,,distance,new_sing,yellow,86,113,100,1101.8635578998365,None,1101.8635578998365,None,2,3.5814392999745905,1101.8635578998365,None,1105.4869824000634,None,1106.0071079998743,None,1106.0071079998743,None,f,0.7101031001657248,1106.0071079998743,None,,,color_57,001,2022_May_05_1331,ProdSingRedo,3.2.3,59.9239804316117,
,,,,87,0,87,0,,,,,,,,,,,,,,,,,,,,,,,,1111.5545262999367,None,,,,,,,,,,,,,,,,,month,aloud,red,87,59,193,1107.2719747000374,None,1107.2719747000374,None,6,3.2290968000888824,1107.2719747000374,None,1110.5475645000115,None,1111.0717362000141,None,1111.0717362000141,None,f,0.4453529000747949,1111.0717362000141,None,,,color_57,001,2022_May_05_1331,ProdSingRedo,3.2.3,59.9239804316117,
,,,,88,0,88,0,,,,,,,,,,,,,,,,,,,,,,,,1116.1046347999945,None,,,,,,,,,,,,,,,,,executive,new_aloud,red,88,120,122,1112.0862930000294,None,1112.0862930000294,None,1,2.0629211000632495,1112.0862930000294,None,1114.202667400008,None,1114.7321084998548,None,1114.7321084998548,None,f,1.3453108998946846,1114.7321084998548,None,,,color_57,001,2022_May_05_1331,ProdSingRedo,3.2.3,59.9239804316117,
,,,,89,0,89,0,,,,,,,,,,,,,,,,,,,,,,,,1119.9458840000443,None,,,,,,,,,,,,,,,,,group,new_sing,yellow,89,98,143,1116.628984699957,None,1116.628984699957,None,1,2.5360650001093745,1116.628984699957,None,1119.237529899925,None,1119.7442300999537,None,1119.7442300999537,None,f,0.18080980004742742,1119.7442300999537,None,,,color_57,001,2022_May_05_1331,ProdSingRedo,3.2.3,59.9239804316117,
,,,,90,0,90,0,,,,,,,,,,,,,,,,,,,,,,,,1127.6203304000665,None,,,,,,,,,,,,,,,,,rural,silent,blue,90,88,269,1120.4721530999523,None,1120.4721530999523,None,5,5.796899900073186,1120.4721530999523,None,1126.3196500998456,None,1126.845560299931,None,1126.845560299931,None,f,0.735704799881205,1126.845560299931,None,,,color_57,001,2022_May_05_1331,ProdSingRedo,3.2.3,59.9239804316117,
,,,,91,0,91,0,,,,,,,,,,,,,,,,,,,,,,,,1134.4383606000338,None,,,,,,,,,,,,,,,,,match,aloud,red,91,33,181,1128.1473594000563,None,1128.1473594000563,None,1,5.489721700083464,1128.1473594000563,None,1133.6841932998504,None,1134.1977673000656,None,1134.1977673000656,None,f,0.20732269994914532,1134.1977673000656,None,,,color_57,001,2022_May_05_1331,ProdSingRedo,3.2.3,59.9239804316117,
,,,,92,0,92,0,,,,,,,,,,,,,,,,,,,,,,,,1148.2097116999794,None,,,,,,,,,,,,,,,,,narrow,sing,yellow,92,14,197,1134.9630253999494,None,1134.9630253999494,None,1,10.953855300089344,1134.9630253999494,None,1145.9580498998985,None,1146.4683676999994,None,1146.4683676999994,None,f,1.704694600077346,1146.4683676999994,None,,,color_57,001,2022_May_05_1331,ProdSingRedo,3.2.3,59.9239804316117,
,,,,93,0,93,0,,,,,,,,,,,,,,,,,,,,,,,,1159.2566267999355,None,,,,,,,,,,,,,,,,,crisis,aloud,red,93,46,79,1148.729802899994,None,1148.729802899994,None,1,9.81127139995806,1148.729802899994,None,1158.584783700062,None,1159.1070045998786,None,1159.1070045998786,None,f,0.12243989994749427,1159.1070045998786,None,,,color_57,001,2022_May_05_1331,ProdSingRedo,3.2.3,59.9239804316117,
,,,,94,0,94,0,,,,,,,,,,,,,,,,,,,,,,,,1162.440971700009,None,,,,,,,,,,,,,,,,,notice,silent,blue,94,84,201,1159.7782333998475,None,1159.7782333998475,None,5,1.9628612999804318,1159.7782333998475,None,1161.7825219000224,None,1162.3055056000594,None,1162.3055056000594,None,f,0.09952940000221133,1162.3055056000594,None,,,color_57,001,2022_May_05_1331,ProdSingRedo,3.2.3,59.9239804316117,
,,,,95,0,95,0,,,,,,,,,,,,,,,,,,,,,,,,1166.6572815999389,None,,,,,,,,,,,,,,,,,leader,new_silent,blue,95,169,168,1162.9663857000414,None,1162.9663857000414,None,3,3.014883799944073,1162.9663857000414,None,1166.0166106000543,None,1166.5434882999398,None,1166.5434882999398,None,f,0.08608720009215176,1166.5434882999398,None,,,color_57,001,2022_May_05_1331,ProdSingRedo,3.2.3,59.9239804316117,
,,,,96,0,96,0,,,,,,,,,,,,,,,,,,,,,,,,1171.4418291000184,None,,,,,,,,,,,,,,,,,piece,new_aloud,red,96,129,221,1167.1782561000437,None,1167.1782561000437,None,1,3.275011599995196,1167.1782561000437,None,1170.5005931998603,None,1171.021086399909,None,1171.021086399909,None,f,0.3925836000125855,1171.021086399909,None,,,color_57,001,2022_May_05_1331,ProdSingRedo,3.2.3,59.9239804316117,
,,,,97,0,97,0,,,,,,,,,,,,,,,,,,,,,,,,1176.790563999908,None,,,,,,,,,,,,,,,,,junior,silent,blue,97,65,167,1171.9680037000217,None,1171.9680037000217,None,3,3.06118610012345,1171.9680037000217,None,1175.0673980999272,None,1175.5779514999595,None,1175.5779514999595,None,f,1.1790881000924855,1175.5779514999595,None,,,color_57,001,2022_May_05_1331,ProdSingRedo,3.2.3,59.9239804316117,
,,,,98,0,98,0,,,,,,,,,,,,,,,,,,,,,,,,1181.6017950000241,None,,,,,,,,,,,,,,,,,symbol,new_silent,blue,98,174,321,1177.3194303000346,None,1177.3194303000346,None,3,3.3737241998314857,1177.3194303000346,None,1180.7427013998386,None,1181.266445899848,None,1181.266445899848,None,f,0.3143734000623226,1181.266445899848,None,,,color_57,001,2022_May_05_1331,ProdSingRedo,3.2.3,59.9239804316117,
,,,,99,0,99,0,,,,,,,,,,,,,,,,,,,,,,,,1185.6903478999157,None,,,,,,,,,,,,,,,,,staff,new_aloud,red,99,144,301,1182.1150911999866,None,1182.1150911999866,None,1,2.6503452998586,1182.1150911999866,None,1184.8064049000386,None,1185.326432300033,None,1185.326432300033,None,f,0.326626299880445,1185.326432300033,None,,,color_57,001,2022_May_05_1331,ProdSingRedo,3.2.3,59.9239804316117,
,,,,100,0,100,0,,,,,,,,,,,,,,,,,,,,,,,,1189.1595035998616,None,,,,,,,,,,,,,,,,,instrument,new_aloud,red,100,135,163,1186.231384200044,None,1186.231384200044,None,1,1.933824999956414,1186.231384200044,None,1188.209068399854,None,1188.732268200023,None,1188.732268200023,None,f,0.3928382000885904,1188.732268200023,None,,,color_57,001,2022_May_05_1331,ProdSingRedo,3.2.3,59.9239804316117,
,,,,101,0,101,0,,,,,,,,,,,,,,,,,,,,,,,,1192.9918921999633,None,,,,,,,,,,,,,,,,,expansion,aloud,red,101,34,123,1189.6825379999354,None,1189.6825379999354,None,6,2.6744921000208706,1189.6825379999354,None,1192.408260300057,None,1192.9326897999272,None,1192.9326897999272,None,f,0.024674999993294477,1192.9326897999272,None,,,color_57,001,2022_May_05_1331,ProdSingRedo,3.2.3,59.9239804316117,
,,,,102,0,102,0,,,,,,,,,,,,,,,,,,,,,,,,1196.8262640999164,None,,,,,,,,,,,,,,,,,conference,new_sing,yellow,102,92,66,1193.5193163000513,None,1193.5193163000513,None,6,2.5737626999616623,1193.5193163000513,None,1196.135614000028,None,1196.6635900998954,None,1196.6635900998954,None,f,0.13379049999639392,1196.6635900998954,None,,,color_57,001,2022_May_05_1331,ProdSingRedo,3.2.3,59.9239804316117,
,,,,103,0,103,0,,,,,,,,,,,,,,,,,,,,,,,,1200.1592526000459,None,,,,,,,,,,,,,,,,,judge,silent,blue,103,80,166,1197.3549248999916,None,1197.3549248999916,None,3,1.7222305000759661,1197.3549248999916,None,1199.127952199895,None,1199.6515724998899,None,1199.6515724998899,None,f,0.4816147000528872,1199.6515724998899,None,,,color_57,001,2022_May_05_1331,ProdSingRedo,3.2.3,59.9239804316117,
,,,,104,0,104,0,,,,,,,,,,,,,,,,,,,,,,,,1210.0758344999049,None,,,,,,,,,,,,,,,,,threat,new_silent,blue,104,162,329,1200.6860372000374,None,1200.6860372000374,None,6,8.550990900024772,1200.6860372000374,None,1209.29087659996,None,1209.8120196000673,None,1209.8120196000673,None,f,0.22518420009873807,1209.8120196000673,None,,,color_57,001,2022_May_05_1331,ProdSingRedo,3.2.3,59.9239804316117,
,,,,105,0,105,0,,,,,,,,,,,,,,,,,,,,,,,,1213.4595979000442,None,,,,,,,,,,,,,,,,,birth,new_aloud,red,105,148,22,1210.6013731998391,None,1210.6013731998391,None,1,2.011677499860525,1210.6013731998391,None,1212.642172300024,None,1213.1541349999607,None,1213.1541349999607,None,f,0.26697829994373024,1213.1541349999607,None,,,color_57,001,2022_May_05_1331,ProdSingRedo,3.2.3,59.9239804316117,
,,,,106,0,106,0,,,,,,,,,,,,,,,,,,,,,,,,1217.9810327999294,None,,,,,,,,,,,,,,,,,empty,new_silent,blue,106,157,112,1213.9823536998592,None,1213.9823536998592,None,3,2.99870719993487,1213.9823536998592,None,1217.0273986000102,None,1217.547445199918,None,1217.547445199918,None,f,0.3937504000496119,1217.547445199918,None,,,color_57,001,2022_May_05_1331,ProdSingRedo,3.2.3,59.9239804316117,
,,,,107,0,107,0,,,,,,,,,,,,,,,,,,,,,,,,1222.3195257000625,None,,,,,,,,,,,,,,,,,husband,new_aloud,red,107,149,156,1218.5099865999073,None,1218.5099865999073,None,1,2.887138199992478,1218.5099865999073,None,1221.451460900018,None,1221.9650322999805,None,1221.9650322999805,None,f,0.327896700007841,1221.9650322999805,None,,,color_57,001,2022_May_05_1331,ProdSingRedo,3.2.3,59.9239804316117,
,,,,108,0,108,0,,,,,,,,,,,,,,,,,,,,,,,,1229.1112732000183,None,,,,,,,,,,,,,,,,,medicine,new_silent,blue,108,171,186,1222.8354586998466,None,1222.8354586998466,None,6,5.3137475999537855,1222.8354586998466,None,1228.19095869991,None,1228.7093243000563,None,1228.7093243000563,None,f,0.3759693999309093,1228.7093243000563,None,,,color_57,001,2022_May_05_1331,ProdSingRedo,3.2.3,59.9239804316117,
,,,,109,0,109,0,,,,,,,,,,,,,,,,,,,,,,,,1235.7451626998372,None,,,,,,,,,,,,,,,,,citizen,sing,yellow,109,15,50,1229.6366163999774,None,1229.6366163999774,None,6,5.448798400117084,1229.6366163999774,None,1235.1304134000093,None,1235.6373186998535,None,1235.6373186998535,None,f,0.07155720004811883,1235.6373186998535,None,,,color_57,001,2022_May_05_1331,ProdSingRedo,3.2.3,59.9239804316117,
,,,,110,0,110,0,,,,,,,,,,,,,,,,,,,,,,,,1239.3612488000654,None,,,,,,,,,,,,,,,,,title,sing,yellow,110,7,331,1236.266098699998,None,1236.266098699998,None,6,2.4108148999512196,1236.266098699998,None,1238.7100787998643,None,1239.228356699925,None,1239.228356699925,None,f,0.09681189991533756,1239.228356699925,None,,,color_57,001,2022_May_05_1331,ProdSingRedo,3.2.3,59.9239804316117,
,,,,111,0,111,0,,,,,,,,,,,,,,,,,,,,,,,,1242.4116024000105,None,,,,,,,,,,,,,,,,,curve,new_aloud,red,111,123,82,1239.8919351999648,None,1239.8919351999648,None,1,1.7929551999550313,1239.8919351999648,None,1241.714681699872,None,1242.2365307,None,1242.2365307,None,f,0.1365277001168579,1242.2365307,None,,,color_57,001,2022_May_05_1331,ProdSingRedo,3.2.3,59.9239804316117,
,,,,112,0,112,0,,,,,,,,,,,,,,,,,,,,,,,,1246.6721934999805,None,,,,,,,,,,,,,,,,,material,sing,yellow,112,10,182,1242.9279511000495,None,1242.9279511000495,None,6,2.9409596999175847,1242.9279511000495,None,1245.889719599858,None,1246.4168652000371,None,1246.4168652000371,None,f,0.22803699993528426,1246.4168652000371,None,,,color_57,001,2022_May_05_1331,ProdSingRedo,3.2.3,59.9239804316117,
,,,,113,0,113,0,,,,,,,,,,,,,,,,,,,,,,,,1250.761241399916,None,,,,,,,,,,,,,,,,,clean,aloud,red,113,49,51,1247.204573399853,None,1247.204573399853,None,6,2.4643709999509156,1247.204573399853,None,1249.7076512000058,None,1250.22292249999,None,1250.22292249999,None,f,0.5018511000089347,1250.22292249999,None,,,color_57,001,2022_May_05_1331,ProdSingRedo,3.2.3,59.9239804316117,
,,,,114,0,114,0,,,,,,,,,,,,,,,,,,,,,,,,1254.0963524999097,None,,,,,,,,,,,,,,,,,beginning,silent,blue,114,74,19,1251.2969308998436,None,1251.2969308998436,None,3,1.9640440000221133,1251.2969308998436,None,1253.3137517999858,None,1253.823889899999,None,1253.823889899999,None,f,0.2371820998378098,1253.823889899999,None,,,color_57,001,2022_May_05_1331,ProdSingRedo,3.2.3,59.9239804316117,
,,,,115,0,115,0,,,,,,,,,,,,,,,,,,,,,,,,1258.3465435998514,None,,,,,,,,,,,,,,,,,opening,new_silent,blue,115,156,205,1254.6171560999937,None,1254.6171560999937,None,5,2.796218000119552,1254.6171560999937,None,1257.4625112998765,None,1257.9830892998725,None,1257.9830892998725,None,f,0.3339245000388473,1257.9830892998725,None,,,color_57,001,2022_May_05_1331,ProdSingRedo,3.2.3,59.9239804316117,
,,,,116,0,116,0,,,,,,,,,,,,,,,,,,,,,,,,1264.980260899989,None,,,,,,,,,,,,,,,,,report,new_sing,yellow,116,99,259,1258.8648747999687,None,1258.8648747999687,None,1,5.123971100198105,1258.8648747999687,None,1264.0126722999848,None,1264.5277895999607,None,1264.5277895999607,None,f,0.42129540001042187,1264.5277895999607,None,,,color_57,001,2022_May_05_1331,ProdSingRedo,3.2.3,59.9239804316117,
,,,,117,0,117,0,,,,,,,,,,,,,,,,,,,,,,,,1268.8138363999315,None,,,,,,,,,,,,,,,,,guide,aloud,red,117,48,147,1265.5040380000137,None,1265.5040380000137,None,1,2.4292018997948617,1265.5040380000137,None,1267.978620099835,None,1268.50098240003,None,1268.50098240003,None,f,0.28813919983804226,1268.50098240003,None,,,color_57,001,2022_May_05_1331,ProdSingRedo,3.2.3,59.9239804316117,
,,,,118,0,118,0,,,,,,,,,,,,,,,,,,,,,,,,1272.9320407998748,None,,,,,,,,,,,,,,,,,drink,new_silent,blue,118,166,105,1269.3394281999208,None,1269.3394281999208,None,3,2.5935915999580175,1269.3394281999208,None,1271.9815994000528,None,1272.5001532000024,None,1272.5001532000024,None,f,0.4008743998128921,1272.5001532000024,None,,,color_57,001,2022_May_05_1331,ProdSingRedo,3.2.3,59.9239804316117,
,,,,119,0,119,0,,,,,,,,,,,,,,,,,,,,,,,,1277.3637276999652,None,,,,,,,,,,,,,,,,,danger,new_silent,blue,119,176,85,1273.4469502998982,None,1273.4469502998982,None,6,2.510139400139451,1273.4469502998982,None,1275.994807299925,None,1276.5187537998427,None,1276.5187537998427,None,f,0.8063566000200808,1276.5187537998427,None,,,color_57,001,2022_May_05_1331,ProdSingRedo,3.2.3,59.9239804316117,
,,,,120,0,120,0,,,,,,,,,,,,,,,,,,,,,,,,1282.1319365999661,None,,,,,,,,,,,,,,,,,smell,silent,blue,120,82,291,1277.886805899907,None,1277.886805899907,None,3,2.4942153999581933,1277.886805899907,None,1280.415012100013,None,1280.9366721999831,None,1280.9366721999831,None,f,1.1645764999557287,1280.9366721999831,None,,,color_57,001,2022_May_05_1331,ProdSingRedo,3.2.3,59.9239804316117,
,,,,121,0,121,0,,,,,,,,,,,,,,,,,,,,,,,,1289.5634673999157,None,,,,,,,,,,,,,,,,,answer,new_aloud,red,121,141,8,1282.6549573999364,None,1282.6549573999364,None,1,5.783003400079906,1282.6549573999364,None,1288.4769208000507,None,1288.9957345000003,None,1288.9957345000003,None,f,0.5291057999711484,1288.9957345000003,None,,,color_57,001,2022_May_05_1331,ProdSingRedo,3.2.3,59.9239804316117,
,,,,122,0,122,0,,,,,,,,,,,,,,,,,,,,,,,,1294.6000069999136,None,,,,,,,,,,,,,,,,,grade,new_aloud,red,122,137,140,1290.093527100049,None,1290.093527100049,None,1,3.1991864000447094,1290.093527100049,None,1293.329087199876,None,1293.8553853000049,None,1293.8553853000049,None,f,0.7096497998572886,1293.8553853000049,None,,,color_57,001,2022_May_05_1331,ProdSingRedo,3.2.3,59.9239804316117,
,,,,123,0,123,0,,,,,,,,,,,,,,,,,,,,,,,,1300.0995664999355,None,,,,,,,,,,,,,,,,,discussion,new_aloud,red,123,130,96,1295.1277358999941,None,1295.1277358999941,None,1,4.037313399836421,1295.1277358999941,None,1299.2133271000348,None,1299.7436158000492,None,1299.7436158000492,None,f,0.3254067001398653,1299.7436158000492,None,,,color_57,001,2022_May_05_1331,ProdSingRedo,3.2.3,59.9239804316117,
,,,,124,0,124,0,,,,,,,,,,,,,,,,,,,,,,,,1305.9322863998823,None,,,,,,,,,,,,,,,,,breath,new_aloud,red,124,126,27,1300.6239479000214,None,1300.6239479000214,None,1,2.733271700097248,1300.6239479000214,None,1303.4027636998799,None,1303.921824199846,None,1303.921824199846,None,f,1.9712137000169605,1303.921824199846,None,,,color_57,001,2022_May_05_1331,ProdSingRedo,3.2.3,59.9239804316117,
,,,,125,0,125,0,,,,,,,,,,,,,,,,,,,,,,,,1309.1174006999936,None,,,,,,,,,,,,,,,,,individual,silent,blue,125,61,160,1306.441707599908,None,1306.441707599908,None,6,1.9639355998951942,1306.441707599908,None,1308.4530489000026,None,1308.9795550999697,None,1308.9795550999697,None,f,0.10550300008617342,1308.9795550999697,None,,,color_57,001,2022_May_05_1331,ProdSingRedo,3.2.3,59.9239804316117,
,,,,126,0,126,0,,,,,,,,,,,,,,,,,,,,,,,,1313.133387299953,None,,,,,,,,,,,,,,,,,character,new_aloud,red,126,145,46,1309.6468617999926,None,1309.6468617999926,None,1,2.6303101000376046,1309.6468617999926,None,1312.3270963998511,None,1312.858744799858,None,1312.858744799858,None,f,0.2422777998726815,1312.858744799858,None,,,color_57,001,2022_May_05_1331,ProdSingRedo,3.2.3,59.9239804316117,
,,,,127,0,127,0,,,,,,,,,,,,,,,,,,,,,,,,1318.1093235998414,None,,,,,,,,,,,,,,,,,employment,new_sing,yellow,127,110,111,1313.6619698998984,None,1313.6619698998984,None,1,3.103215899784118,1313.6619698998984,None,1316.8211296000518,None,1317.3385524998885,None,1317.3385524998885,None,f,0.7463839000556618,1317.3385524998885,None,,,color_57,001,2022_May_05_1331,ProdSingRedo,3.2.3,59.9239804316117,
,,,,128,0,128,0,,,,,,,,,,,,,,,,,,,,,,,,1321.550779900048,None,,,,,,,,,,,,,,,,,society,aloud,red,128,38,293,1318.627159500029,None,1318.627159500029,None,5,2.193896599812433,1318.627159500029,None,1320.8688195999712,None,1321.3845344998408,None,1321.3845344998408,None,f,0.1325423999223858,1321.3845344998408,None,,,color_57,001,2022_May_05_1331,ProdSingRedo,3.2.3,59.9239804316117,
,,,,129,0,129,0,,,,,,,,,,,,,,,,,,,,,,,,1324.7998595000245,None,,,,,,,,,,,,,,,,,education,aloud,red,129,43,108,1322.081398600014,None,1322.081398600014,None,6,1.9475520998239517,1322.081398600014,None,1324.0827380998526,None,1324.5939913999755,None,1324.5939913999755,None,f,0.17107199993915856,1324.5939913999755,None,,,color_57,001,2022_May_05_1331,ProdSingRedo,3.2.3,59.9239804316117,
,,,,130,0,130,0,,,,,,,,,,,,,,,,,,,,,,,,1328.053384799976,None,,,,,,,,,,,,,,,,,error,new_silent,blue,130,168,117,1325.324367400026,None,1325.324367400026,None,3,1.944453400094062,1325.324367400026,None,1327.2979083999526,None,1327.8091765998397,None,1327.8091765998397,None,f,0.20393829979002476,1327.8091765998397,None,,,color_57,001,2022_May_05_1331,ProdSingRedo,3.2.3,59.9239804316117,
,,,,131,0,131,0,,,,,,,,,,,,,,,,,,,,,,,,1332.3507687000092,None,,,,,,,,,,,,,,,,,candidate,sing,yellow,131,8,39,1328.5812101999763,None,1328.5812101999763,None,6,3.0639376000035554,1328.5812101999763,None,1331.700106699951,None,1332.227576999925,None,1332.227576999925,None,f,0.08930370002053678,1332.227576999925,None,,,color_57,001,2022_May_05_1331,ProdSingRedo,3.2.3,59.9239804316117,
,,,,132,0,132,0,,,,,,,,,,,,,,,,,,,,,,,,1342.058871799847,None,,,,,,,,,,,,,,,,,court,new_sing,yellow,132,100,75,1332.872604999924,None,1332.872604999924,None,1,8.564527899958193,1332.872604999924,None,1341.482326899888,None,1341.992192799924,None,1341.992192799924,None,f,0.036515300162136555,1341.992192799924,None,,,color_57,001,2022_May_05_1331,ProdSingRedo,3.2.3,59.9239804316117,
,,,,133,0,133,0,,,,,,,,,,,,,,,,,,,,,,,,1345.2684454999398,None,,,,,,,,,,,,,,,,,permit,aloud,red,133,44,218,1342.5739510999992,None,1342.5739510999992,None,6,1.9111051000654697,1342.5739510999992,None,1344.530883600004,None,1345.0502422000282,None,1345.0502422000282,None,f,0.17888829996809363,1345.0502422000282,None,,,color_57,001,2022_May_05_1331,ProdSingRedo,3.2.3,59.9239804316117,
,,,,134,0,134,0,,,,,,,,,,,,,,,,,,,,,,,,1351.7466620998457,None,,,,,,,,,,,,,,,,,council,new_silent,blue,134,178,71,1345.7967846000101,None,1345.7967846000101,None,1,3.6562612000852823,1345.7967846000101,None,1349.4958518999629,None,1350.0254766999278,None,1350.0254766999278,None,f,1.7001193000469357,1350.0254766999278,None,,,color_57,001,2022_May_05_1331,ProdSingRedo,3.2.3,59.9239804316117,
,,,,135,0,135,0,,,,,,,,,,,,,,,,,,,,,,,,1356.0366346999072,None,,,,,,,,,,,,,,,,,dispute,new_sing,yellow,135,111,99,1352.2791952998377,None,1352.2791952998377,None,1,3.069773099850863,1352.2791952998377,None,1355.4005861999467,None,1355.9229677000549,None,1355.9229677000549,None,f,0.08209180017001927,1355.9229677000549,None,,,color_57,001,2022_May_05_1331,ProdSingRedo,3.2.3,59.9239804316117,
,,,,136,0,136,0,,,,,,,,,,,,,,,,,,,,,,,,1360.0959324999712,None,,,,,,,,,,,,,,,,,fight,aloud,red,136,55,127,1356.5628776999656,None,1356.5628776999656,None,1,2.6982419001869857,1356.5628776999656,None,1359.3010151998606,None,1359.835837499937,None,1359.835837499937,None,f,0.23299070005305111,1359.835837499937,None,,,color_57,001,2022_May_05_1331,ProdSingRedo,3.2.3,59.9239804316117,
,,,,137,0,137,0,,,,,,,,,,,,,,,,,,,,,,,,1364.2370861999225,None,,,,,,,,,,,,,,,,,surface,new_aloud,red,137,143,316,1360.6167766000144,None,1360.6167766000144,None,1,2.8606290000025183,1360.6167766000144,None,1363.5208024999592,None,1364.0423689000309,None,1364.0423689000309,None,f,0.17071150010451674,1364.0423689000309,None,,,color_57,001,2022_May_05_1331,ProdSingRedo,3.2.3,59.9239804316117,
,,,,138,0,138,0,,,,,,,,,,,,,,,,,,,,,,,,1368.6285734998528,None,,,,,,,,,,,,,,,,,drove,sing,yellow,138,18,106,1364.7617048998363,None,1364.7617048998363,None,4,3.003361400216818,1364.7617048998363,None,1367.8172146999277,None,1368.3307552998886,None,1368.3307552998886,None,f,0.2660709999036044,1368.3307552998886,None,,,color_57,001,2022_May_05_1331,ProdSingRedo,3.2.3,59.9239804316117,
,,,,139,0,139,0,,,,,,,,,,,,,,,,,,,,,,,,1375.107100999914,None,,,,,,,,,,,,,,,,,short,sing,yellow,139,2,285,1369.1514742998406,None,1369.1514742998406,None,4,5.0215618999209255,1369.1514742998406,None,1374.2144549000077,None,1374.7353518998716,None,1374.7353518998716,None,f,0.33372129988856614,1374.7353518998716,None,,,color_57,001,2022_May_05_1331,ProdSingRedo,3.2.3,59.9239804316117,
,,,,140,0,140,0,,,,,,,,,,,,,,,,,,,,,,,,1380.9214625998866,None,,,,,,,,,,,,,,,,,skill,sing,yellow,140,4,289,1375.6316269000527,None,1375.6316269000527,None,6,3.0455954000353813,1375.6316269000527,None,1378.7148418999277,None,1379.2429920998402,None,1379.2429920998402,None,f,1.6509694000706077,1379.2429920998402,None,,,color_57,001,2022_May_05_1331,ProdSingRedo,3.2.3,59.9239804316117,
,,,,141,0,141,0,,,,,,,,,,,,,,,,,,,,,,,,1390.9391985000111,None,,,,,,,,,,,,,,,,,sunset,new_sing,yellow,141,104,315,1381.4466672998387,None,1381.4466672998387,None,1,7.854507299838588,1381.4466672998387,None,1389.35211899993,None,1389.8751608000603,None,1389.8751608000603,None,f,1.0338415000587702,1389.8751608000603,None,,,color_57,001,2022_May_05_1331,ProdSingRedo,3.2.3,59.9239804316117,
,,,,142,0,142,0,,,,,,,,,,,,,,,,,,,,,,,,1400.2112507000566,None,,,,,,,,,,,,,,,,,article,aloud,red,142,37,11,1391.4643649999052,None,1391.4643649999052,None,6,4.132668599952012,1391.4643649999052,None,1395.632359399926,None,1396.1588234999217,None,1396.1588234999217,None,f,4.022327400045469,1396.1588234999217,None,,,color_57,001,2022_May_05_1331,ProdSingRedo,3.2.3,59.9239804316117,
,,,,143,0,143,0,,,,,,,,,,,,,,,,,,,,,,,,1404.0397413999308,None,,,,,,,,,,,,,,,,,range,silent,blue,143,77,251,1400.7316209999844,None,1400.7316209999844,None,3,2.305584199959412,1400.7316209999844,None,1403.0890474999323,None,1403.6115568999667,None,1403.6115568999667,None,f,0.3934810000937432,1403.6115568999667,None,,,color_57,001,2022_May_05_1331,ProdSingRedo,3.2.3,59.9239804316117,
,,,,144,0,144,0,,,,,,,,,,,,,,,,,,,,,,,,1407.0399577000644,None,,,,,,,,,,,,,,,,,tennis,new_aloud,red,144,140,323,1404.5623681000434,None,1404.5623681000434,None,1,1.6670397000852972,1404.5623681000434,None,1406.2673720000312,None,1406.7879808999132,None,1406.7879808999132,None,f,0.21701880008913577,1406.7879808999132,None,,,color_57,001,2022_May_05_1331,ProdSingRedo,3.2.3,59.9239804316117,
,,,,145,0,145,0,,,,,,,,,,,,,,,,,,,,,,,,1410.7227604999207,None,,,,,,,,,,,,,,,,,escape,silent,blue,145,83,118,1407.5659274999052,None,1407.5659274999052,None,1,2.2232862000819296,1407.5659274999052,None,1409.838995500002,None,1410.3605897999369,None,1410.3605897999369,None,f,0.32436839980073273,1410.3605897999369,None,,,color_57,001,2022_May_05_1331,ProdSingRedo,3.2.3,59.9239804316117,
,,,,146,0,146,0,,,,,,,,,,,,,,,,,,,,,,,,1420.2900650999509,None,,,,,,,,,,,,,,,,,whole,sing,yellow,146,21,355,1411.239173799986,None,1411.239173799986,None,3,6.797895800089464,1411.239173799986,None,1418.0857176999561,None,1418.6077409000136,None,1418.6077409000136,None,f,1.6453591999597847,1418.6077409000136,None,,,color_57,001,2022_May_05_1331,ProdSingRedo,3.2.3,59.9239804316117,
,,,,147,0,147,0,,,,,,,,,,,,,,,,,,,,,,,,1425.200460499851,None,,,,,,,,,,,,,,,,,stranger,aloud,red,147,39,309,1420.8201427999884,None,1420.8201427999884,None,6,2.848871299996972,1420.8201427999884,None,1423.7201653998345,None,1424.2467439998873,None,1424.2467439998873,None,f,0.9186462999787182,1424.2467439998873,None,,,color_57,001,2022_May_05_1331,ProdSingRedo,3.2.3,59.9239804316117,
,,,,148,0,148,0,,,,,,,,,,,,,,,,,,,,,,,,1430.6326955000404,None,,,,,,,,,,,,,,,,,raise,new_silent,blue,148,173,250,1425.7348724999465,None,1425.7348724999465,None,1,2.9982696999795735,1425.7348724999465,None,1428.7744864998385,None,1429.2943837000057,None,1429.2943837000057,None,f,1.3185431000310928,1429.2943837000057,None,,,color_57,001,2022_May_05_1331,ProdSingRedo,3.2.3,59.9239804316117,
,,,,149,0,149,0,,,,,,,,,,,,,,,,,,,,,,,,1434.9357487000525,None,,,,,,,,,,,,,,,,,pressure,new_silent,blue,149,177,232,1431.1501443998422,None,1431.1501443998422,None,6,2.4068591000977904,1431.1501443998422,None,1433.6074330999982,None,1434.129789999919,None,1434.129789999919,None,f,0.7871807999908924,1434.129789999919,None,,,color_57,001,2022_May_05_1331,ProdSingRedo,3.2.3,59.9239804316117,
,,,,150,0,150,0,,,,,,,,,,,,,,,,,,,,,,,,1440.984973799903,None,,,,,,,,,,,,,,,,,household,aloud,red,150,51,154,1435.4571740999818,None,1435.4571740999818,None,6,4.924202399794012,1435.4571740999818,None,1440.421584900003,None,1440.9487821999937,None,1440.9487821999937,None,f,0.0163376999553293,1440.9487821999937,None,,,color_57,001,2022_May_05_1331,ProdSingRedo,3.2.3,59.9239804316117,
,,,,151,0,151,0,,,,,,,,,,,,,,,,,,,,,,,,1445.4094012998976,None,,,,,,,,,,,,,,,,,shock,sing,yellow,151,6,284,1441.5175061998889,None,1441.5175061998889,None,1,2.5998080000281334,1441.5175061998889,None,1444.1558095000219,None,1444.684538200032,None,1444.684538200032,None,f,0.6971867999527603,1444.684538200032,None,,,color_57,001,2022_May_05_1331,ProdSingRedo,3.2.3,59.9239804316117,
,,,,152,0,152,0,,,,,,,,,,,,,,,,,,,,,,,,1454.8464136000257,None,,,,,,,,,,,,,,,,,plane,silent,blue,152,64,223,1445.9352861000225,None,1445.9352861000225,None,1,7.221494399942458,1445.9352861000225,None,1453.1944428000133,None,1453.7022460999433,None,1453.7022460999433,None,f,1.110728699946776,1453.7022460999433,None,,,color_57,001,2022_May_05_1331,ProdSingRedo,3.2.3,59.9239804316117,
,,,,153,0,153,0,,,,,,,,,,,,,,,,,,,,,,,,1459.0685675998684,None,,,,,,,,,,,,,,,,,quarter,silent,blue,153,81,246,1455.3711637000088,None,1455.3711637000088,None,4,2.585841399850324,1455.3711637000088,None,1458.004979299847,None,1458.5367641998455,None,1458.5367641998455,None,f,0.48423589998856187,1458.5367641998455,None,,,color_57,001,2022_May_05_1331,ProdSingRedo,3.2.3,59.9239804316117,
,,,,154,0,154,0,,,,,,,,,,,,,,,,,,,,,,,,1474.0609615999274,None,,,,,,,,,,,,,,,,,broad,new_silent,blue,154,153,31,1459.5879414000083,None,1459.5879414000083,None,4,12.809290600009263,1459.5879414000083,None,1472.440206399886,None,1472.9516330000479,None,1472.9516330000479,None,f,1.077433600090444,1472.9516330000479,None,,,color_57,001,2022_May_05_1331,ProdSingRedo,3.2.3,59.9239804316117,
,,,,155,0,155,0,,,,,,,,,,,,,,,,,,,,,,,,1481.060948499944,None,,,,,,,,,,,,,,,,,sleep,aloud,red,155,31,290,1474.5829127999023,None,1474.5829127999023,None,1,5.374140900094062,1474.5829127999023,None,1480.0139933999162,None,1480.5268739999738,None,1480.5268739999738,None,f,0.5021820000838488,1480.5268739999738,None,,,color_57,001,2022_May_05_1331,ProdSingRedo,3.2.3,59.9239804316117,
,,,,156,0,156,0,,,,,,,,,,,,,,,,,,,,,,,,1485.3118461000267,None,,,,,,,,,,,,,,,,,century,sing,yellow,156,12,45,1481.5965768999886,None,1481.5965768999886,None,6,2.7845014999620616,1481.5965768999886,None,1484.4288172000088,None,1484.9550393999089,None,1484.9550393999089,None,f,0.32189759984612465,1484.9550393999089,None,,,color_57,001,2022_May_05_1331,ProdSingRedo,3.2.3,59.9239804316117,
,,,,157,0,157,0,,,,,,,,,,,,,,,,,,,,,,,,1493.3199932998978,None,,,,,,,,,,,,,,,,,growth,new_silent,blue,157,158,144,1485.840862199897,None,1485.840862199897,None,1,6.80387319996953,1485.840862199897,None,1492.6729182000272,None,1493.188426000066,None,1493.188426000066,None,f,0.11273639998398721,1493.188426000066,None,,,color_57,001,2022_May_05_1331,ProdSingRedo,3.2.3,59.9239804316117,
,,,,158,0,158,0,,,,,,,,,,,,,,,,,,,,,,,,1496.3637220999226,None,,,,,,,,,,,,,,,,,brief,new_sing,yellow,158,119,28,1493.8463812998962,None,1493.8463812998962,None,1,1.7986365999095142,1493.8463812998962,None,1495.6905791999307,None,1496.216295799939,None,1496.216295799939,None,f,0.11677670013159513,1496.216295799939,None,,,color_57,001,2022_May_05_1331,ProdSingRedo,3.2.3,59.9239804316117,
,,,,159,0,159,0,,,,,,,,,,,,,,,,,,,,,,,,1499.8126725999173,None,,,,,,,,,,,,,,,,,hunger,sing,yellow,159,27,155,1496.8867003000341,None,1496.8867003000341,None,1,2.230304599972442,1496.8867003000341,None,1499.1613419998903,None,1499.6853538998403,None,1499.6853538998403,None,f,0.10354469995945692,1499.6853538998403,None,,,color_57,001,2022_May_05_1331,ProdSingRedo,3.2.3,59.9239804316117,
,,,,160,0,160,0,,,,,,,,,,,,,,,,,,,,,,,,1503.7887236999813,None,,,,,,,,,,,,,,,,,public,new_sing,yellow,160,106,244,1500.3363024999853,None,1500.3363024999853,None,1,2.5883736999239773,1500.3363024999853,None,1502.960100499913,None,1503.470067499904,None,1503.470067499904,None,f,0.29475459991954267,1503.470067499904,None,,,color_57,001,2022_May_05_1331,ProdSingRedo,3.2.3,59.9239804316117,
,,,,161,0,161,0,,,,,,,,,,,,,,,,,,,,,,,,1508.4634117998648,None,,,,,,,,,,,,,,,,,management,silent,blue,161,75,177,1504.310128299985,None,1504.310128299985,None,6,3.4868710001464933,1504.310128299985,None,1507.8510848998558,None,1508.3578266999684,None,1508.3578266999684,None,f,0.07940639997832477,1508.3578266999684,None,,,color_57,001,2022_May_05_1331,ProdSingRedo,3.2.3,59.9239804316117,
,,,,162,0,162,0,,,,,,,,,,,,,,,,,,,,,,,,1513.2638303998392,None,,,,,,,,,,,,,,,,,member,aloud,red,162,42,188,1508.9904974999372,None,1508.9904974999372,None,1,2.6065108999609947,1508.9904974999372,None,1511.6429035000037,None,1512.1694126999937,None,1512.1694126999937,None,f,1.067827899940312,1512.1694126999937,None,,,color_57,001,2022_May_05_1331,ProdSingRedo,3.2.3,59.9239804316117,
,,,,163,0,163,0,,,,,,,,,,,,,,,,,,,,,,,,1517.613784099929,None,,,,,,,,,,,,,,,,,second,new_aloud,red,163,133,278,1513.7854187998455,None,1513.7854187998455,None,6,2.467828899854794,1513.7854187998455,None,1516.2906269000378,None,1516.8156053998973,None,1516.8156053998973,None,f,0.7654180999379605,1516.8156053998973,None,,,color_57,001,2022_May_05_1331,ProdSingRedo,3.2.3,59.9239804316117,
,,,,164,0,164,0,,,,,,,,,,,,,,,,,,,,,,,,1521.7978948999662,None,,,,,,,,,,,,,,,,,season,sing,yellow,164,5,277,1518.1415415999945,None,1518.1415415999945,None,2,2.5755318999290466,1518.1415415999945,None,1520.760880699847,None,1521.2836106999312,None,1521.2836106999312,None,f,0.48145300010219216,1521.2836106999312,None,,,color_57,001,2022_May_05_1331,ProdSingRedo,3.2.3,59.9239804316117,
,,,,165,0,165,0,,,,,,,,,,,,,,,,,,,,,,,,1526.5402247998863,None,,,,,,,,,,,,,,,,,suggestion,silent,blue,165,79,314,1522.3242913000286,None,1522.3242913000286,None,5,2.8726489001419395,1522.3242913000286,None,1525.2488593999296,None,1525.768914599903,None,1525.768914599903,None,f,0.7479282999411225,1525.768914599903,None,,,color_57,001,2022_May_05_1331,ProdSingRedo,3.2.3,59.9239804316117,
,,,,166,0,166,0,,,,,,,,,,,,,,,,,,,,,,,,1529.932080199942,None,,,,,,,,,,,,,,,,,damage,new_aloud,red,166,121,83,1527.0602847998962,None,1527.0602847998962,None,1,2.0807839001063257,1527.0602847998962,None,1529.1931675998494,None,1529.719435899984,None,1529.719435899984,None,f,0.17354800016619265,1529.719435899984,None,,,color_57,001,2022_May_05_1331,ProdSingRedo,3.2.3,59.9239804316117,
,,,,167,0,167,0,,,,,,,,,,,,,,,,,,,,,,,,1533.832137899939,None,,,,,,,,,,,,,,,,,marriage,new_aloud,red,167,122,179,1530.460017999867,None,1530.460017999867,None,1,2.1687767999246716,1530.460017999867,None,1532.676354299998,None,1533.191434300039,None,1533.191434300039,None,f,0.6139102999586612,1533.191434300039,None,,,color_57,001,2022_May_05_1331,ProdSingRedo,3.2.3,59.9239804316117,
,,,,168,0,168,0,,,,,,,,,,,,,,,,,,,,,,,,1542.1319377999753,None,,,,,,,,,,,,,,,,,rough,new_sing,yellow,168,114,266,1534.3530361000448,None,1534.3530361000448,None,2,6.460126999998465,1534.3530361000448,None,1540.8621518998407,None,1541.3856210999656,None,1541.3856210999656,None,f,0.7073533998336643,1541.3856210999656,None,,,color_57,001,2022_May_05_1331,ProdSingRedo,3.2.3,59.9239804316117,
,,,,169,0,169,0,,,,,,,,,,,,,,,,,,,,,,,,1547.6659945999272,None,,,,,,,,,,,,,,,,,universal,new_silent,blue,169,175,345,1542.6613717,None,1542.6613717,None,5,3.119540800107643,1542.6613717,None,1545.8262320000213,None,1546.3577451000456,None,1546.3577451000456,None,f,1.2792750999797136,1546.3577451000456,None,,,color_57,001,2022_May_05_1331,ProdSingRedo,3.2.3,59.9239804316117,
,,,,170,0,170,0,,,,,,,,,,,,,,,,,,,,,,,,1554.0334942999762,None,,,,,,,,,,,,,,,,,school,new_aloud,red,170,147,274,1548.1876492998563,None,1548.1876492998563,None,1,4.94573609996587,1548.1876492998563,None,1553.179014999885,None,1553.6973800999112,None,1553.6973800999112,None,f,0.3081868998706341,1553.6973800999112,None,,,color_57,001,2022_May_05_1331,ProdSingRedo,3.2.3,59.9239804316117,
,,,,171,0,171,0,,,,,,,,,,,,,,,,,,,,,,,,1564.0668142999057,None,,,,,,,,,,,,,,,,,income,new_silent,blue,171,170,159,1554.5415661998559,None,1554.5415661998559,None,1,8.87945539993234,1554.5415661998559,None,1563.4464054999407,None,1563.966657700017,None,1563.966657700017,None,f,0.0701596001163125,1563.966657700017,None,,,color_57,001,2022_May_05_1331,ProdSingRedo,3.2.3,59.9239804316117,
,,,,172,0,172,0,,,,,,,,,,,,,,,,,,,,,,,,1567.2112368000671,None,,,,,,,,,,,,,,,,,frank,sing,yellow,172,1,133,1564.5824345999863,None,1564.5824345999863,None,1,1.934229000005871,1564.5824345999863,None,1566.546039100038,None,1567.0736694000661,None,1567.0736694000661,None,f,0.11609780020080507,1567.0736694000661,None,,,color_57,001,2022_May_05_1331,ProdSingRedo,3.2.3,59.9239804316117,
,,,,173,0,173,0,,,,,,,,,,,,,,,,,,,,,,,,1571.999702699948,None,,,,,,,,,,,,,,,,,touch,new_silent,blue,173,159,332,1567.7446260999423,None,1567.7446260999423,None,5,3.412650200072676,1567.7446260999423,None,1571.198649799917,None,1571.7203203998506,None,1571.7203203998506,None,f,0.23705000011250377,1571.7203203998506,None,,,color_57,001,2022_May_05_1331,ProdSingRedo,3.2.3,59.9239804316117,
,,,,174,0,174,0,,,,,,,,,,,,,,,,,,,,,,,,1578.8015586000402,None,,,,,,,,,,,,,,,,,profession,sing,yellow,174,17,241,1572.530396600021,None,1572.530396600021,None,6,4.1628657002002,1572.530396600021,None,1576.7346860999241,None,1577.257471599849,None,1577.257471599849,None,f,1.5164912000764161,1577.257471599849,None,,,color_57,001,2022_May_05_1331,ProdSingRedo,3.2.3,59.9239804316117,
,,,,175,0,175,0,,,,,,,,,,,,,,,,,,,,,,,,1582.0676339999773,None,,,,,,,,,,,,,,,,,height,new_sing,yellow,175,94,152,1579.3238152000122,None,1579.3238152000122,None,1,1.489140999969095,1579.3238152000122,None,1580.8699749999214,None,1581.389709400013,None,1581.389709400013,None,f,0.6393410998862237,1581.389709400013,None,,,color_57,001,2022_May_05_1331,ProdSingRedo,3.2.3,59.9239804316117,
,,,,176,0,176,0,,,,,,,,,,,,,,,,,,,,,,,,1584.6855272999965,None,,,,,,,,,,,,,,,,,relation,silent,blue,176,66,257,1582.5921727998648,None,1582.5921727998648,None,6,1.4368060000706464,1582.5921727998648,None,1584.094699600013,None,1584.602040699916,None,1584.602040699916,None,f,0.059183800127357244,1584.602040699916,None,,,color_57,001,2022_May_05_1331,ProdSingRedo,3.2.3,59.9239804316117,
,,,,177,0,177,0,,,,,,,,,,,,,,,,,,,,,,,,1589.128498399863,None,,,,,,,,,,,,,,,,,silence,new_silent,blue,177,163,288,1585.2100704999175,None,1585.2100704999175,None,5,1.3476995001547039,1585.2100704999175,None,1586.6038372998592,None,1587.1284084999934,None,1587.1284084999934,None,f,1.9566324001643807,1587.1284084999934,None,,,color_57,001,2022_May_05_1331,ProdSingRedo,3.2.3,59.9239804316117,
,,,,178,0,178,0,,,,,,,,,,,,,,,,,,,,,,,,1594.4026784000453,None,,,,,,,,,,,,,,,,,native,sing,yellow,178,22,199,1589.6650749999098,None,1589.6650749999098,None,6,3.6675949001219124,1589.6650749999098,None,1593.3677417999133,None,1593.8960869000293,None,1593.8960869000293,None,f,0.4690163000486791,1593.8960869000293,None,,,color_57,001,2022_May_05_1331,ProdSingRedo,3.2.3,59.9239804316117,
,,,,179,0,179,0,,,,,,,,,,,,,,,,,,,,,,,,1609.5201403000392,None,,,,,,,,,,,,,,,,,column,silent,blue,179,78,57,1594.9294109998737,None,1594.9294109998737,None,1,12.219667899888009,1594.9294109998737,None,1607.1965343998745,None,1607.7246832998935,None,1607.7246832998935,None,f,1.760376499965787,1607.7246832998935,None,,,color_57,001,2022_May_05_1331,ProdSingRedo,3.2.3,59.9239804316117,
,,,,,,,,,,,,,,,,,,,,,,,,,,,,,,,,,,,,,,,,,,,,,,,,,,,,,,,,,,,,,,,,,,,,,,,,,1610.029766399879,None,,,,,,,
