StudyLoop.thisRepN,StudyLoop.thisTrialN,StudyLoop.thisN,StudyLoop.thisIndex,TestLoop.thisRepN,TestLoop.thisTrialN,TestLoop.thisN,TestLoop.thisIndex,textCondition.started,textCondition.stopped,keyCondition.keys,keyCondition.rt,keyCondition.started,keyCondition.stopped,Condition,stim_colors,color_sing,color_aloud,color_silent,textWelcome.started,textWelcome.stopped,keyWelcome.keys,keyWelcome.rt,keyWelcome.started,keyWelcome.stopped,textAloud.started,textAloud.stopped,textSilent.started,textSilent.stopped,textSing.started,textSing.stopped,textBlank500.started,textBlank500.stopped,study_word,study_type,study_color,study_num,study_word_num,textStudy.started,textStudy.stopped,keyStudy.keys,keyStudy.started,keyStudy.stopped,textTestInstructions.started,textTestInstructions.stopped,key_resp_3.keys,key_resp_3.rt,key_resp_3.started,key_resp_3.stopped,testWord,testType,testColor,testN,test_num,test_word_num,textConf.started,textConf.stopped,textConfScale.started,textConfScale.stopped,keyConf.keys,keyConf.rt,keyConf.started,keyConf.stopped,textTestBlank.started,textTestBlank.stopped,textRKN.started,textRKN.stopped,textRKNScale.started,textRKNScale.stopped,keyRKN.keys,keyRKN.rt,keyRKN.started,keyRKN.stopped,textEnd.started,textEnd.stopped,participant,session,date,expName,psychopyVersion,frameRate,
,,,,,,,,13.439030000008643,None,y,2.328030100092292,13.439030000008643,None,,,,,,,,,,,,,,,,,,,,,,,,,,,,,,,,,,,,,,,,,,,,,,,,,,,,,,,,,,,,,,color19,001,2021_Nov_04_1055,ProdSingRedo,3.2.3,59.66010447609808,
,,,,,,,,,,,,,,ColoredTest,"['red', 'yellow', 'blue']",red,yellow,blue,15.814170199912041,None,space,282.7187115000561,15.814170199912041,None,,,,,,,,,,,,,,,,,,,,,,,,,,,,,,,,,,,,,,,,,,,,,,,,,,,color19,001,2021_Nov_04_1055,ProdSingRedo,3.2.3,59.66010447609808,
0,0,0,0,,,,,,,,,,,,,,,,,,,,,,15.814170199912041,None,15.814170199912041,None,15.814170199912041,None,301.07775539997965,None,clear,sing,red,7,52,299.0811781999655,None,None,299.0811781999655,None,,,,,,,,,,,,,,,,,,,,,,,,,,,,,,,,,color19,001,2021_Nov_04_1055,ProdSingRedo,3.2.3,59.66010447609808,
1,0,1,0,,,,,,,,,,,,,,,,,,,,,,,,,,,,303.5943918998819,None,strain,sing,red,5,308,301.5903013998177,None,None,301.5903013998177,None,,,,,,,,,,,,,,,,,,,,,,,,,,,,,,,,,color19,001,2021_Nov_04_1055,ProdSingRedo,3.2.3,59.66010447609808,
2,0,2,0,,,,,,,,,,,,,,,,,,,,,,,,,,,,306.11088339984417,None,threat,aloud,yellow,41,329,304.0969492997974,None,None,304.0969492997974,None,,,,,,,,,,,,,,,,,,,,,,,,,,,,,,,,,color19,001,2021_Nov_04_1055,ProdSingRedo,3.2.3,59.66010447609808,
3,0,3,0,,,,,,,,,,,,,,,,,,,,,,,,,,,,308.62825770000927,None,conference,sing,red,25,66,306.62564769992605,None,None,306.62564769992605,None,,,,,,,,,,,,,,,,,,,,,,,,,,,,,,,,,color19,001,2021_Nov_04_1055,ProdSingRedo,3.2.3,59.66010447609808,
4,0,4,0,,,,,,,,,,,,,,,,,,,,,,,,,,,,311.14488529996015,None,broke,aloud,yellow,45,32,309.15520279994234,None,None,309.15520279994234,None,,,,,,,,,,,,,,,,,,,,,,,,,,,,,,,,,color19,001,2021_Nov_04_1055,ProdSingRedo,3.2.3,59.66010447609808,
5,0,5,0,,,,,,,,,,,,,,,,,,,,,,,,,,,,313.66173849999905,None,pretty,sing,red,6,233,311.66275129979476,None,None,311.66275129979476,None,,,,,,,,,,,,,,,,,,,,,,,,,,,,,,,,,color19,001,2021_Nov_04_1055,ProdSingRedo,3.2.3,59.66010447609808,
6,0,6,0,,,,,,,,,,,,,,,,,,,,,,,,,,,,316.17785269999877,None,native,aloud,yellow,50,199,314.18377909995615,None,None,314.18377909995615,None,,,,,,,,,,,,,,,,,,,,,,,,,,,,,,,,,color19,001,2021_Nov_04_1055,ProdSingRedo,3.2.3,59.66010447609808,
7,0,7,0,,,,,,,,,,,,,,,,,,,,,,,,,,,,318.69545199978165,None,quarter,sing,red,26,246,316.6978601999581,None,None,316.6978601999581,None,,,,,,,,,,,,,,,,,,,,,,,,,,,,,,,,,color19,001,2021_Nov_04_1055,ProdSingRedo,3.2.3,59.66010447609808,
8,0,8,0,,,,,,,,,,,,,,,,,,,,,,,,,,,,321.2123854998499,None,sunset,silent,blue,70,315,319.19843259989284,None,None,319.19843259989284,None,,,,,,,,,,,,,,,,,,,,,,,,,,,,,,,,,color19,001,2021_Nov_04_1055,ProdSingRedo,3.2.3,59.66010447609808,
9,0,9,0,,,,,,,,,,,,,,,,,,,,,,,,,,,,323.7126996999141,None,sight,silent,blue,73,286,321.7131117999088,None,None,321.7131117999088,None,,,,,,,,,,,,,,,,,,,,,,,,,,,,,,,,,color19,001,2021_Nov_04_1055,ProdSingRedo,3.2.3,59.66010447609808,
10,0,10,0,,,,,,,,,,,,,,,,,,,,,,,,,,,,326.2292655999772,None,under,silent,blue,63,343,324.23009859980084,None,None,324.23009859980084,None,,,,,,,,,,,,,,,,,,,,,,,,,,,,,,,,,color19,001,2021_Nov_04_1055,ProdSingRedo,3.2.3,59.66010447609808,
11,0,11,0,,,,,,,,,,,,,,,,,,,,,,,,,,,,328.74615819985047,None,strength,aloud,yellow,44,310,326.7456142997835,None,None,326.7456142997835,None,,,,,,,,,,,,,,,,,,,,,,,,,,,,,,,,,color19,001,2021_Nov_04_1055,ProdSingRedo,3.2.3,59.66010447609808,
12,0,12,0,,,,,,,,,,,,,,,,,,,,,,,,,,,,331.26259339996614,None,guide,aloud,yellow,37,147,329.2570142999757,None,None,329.2570142999757,None,,,,,,,,,,,,,,,,,,,,,,,,,,,,,,,,,color19,001,2021_Nov_04_1055,ProdSingRedo,3.2.3,59.66010447609808,
13,0,13,0,,,,,,,,,,,,,,,,,,,,,,,,,,,,333.77888150000945,None,company,sing,red,13,64,331.7638399999123,None,None,331.7638399999123,None,,,,,,,,,,,,,,,,,,,,,,,,,,,,,,,,,color19,001,2021_Nov_04_1055,ProdSingRedo,3.2.3,59.66010447609808,
14,0,14,0,,,,,,,,,,,,,,,,,,,,,,,,,,,,336.2810850997921,None,heavy,silent,blue,88,151,334.2800445999019,None,None,334.2800445999019,None,,,,,,,,,,,,,,,,,,,,,,,,,,,,,,,,,color19,001,2021_Nov_04_1055,ProdSingRedo,3.2.3,59.66010447609808,
15,0,15,0,,,,,,,,,,,,,,,,,,,,,,,,,,,,338.79668649984524,None,material,sing,red,28,182,336.7977957997937,None,None,336.7977957997937,None,,,,,,,,,,,,,,,,,,,,,,,,,,,,,,,,,color19,001,2021_Nov_04_1055,ProdSingRedo,3.2.3,59.66010447609808,
16,0,16,0,,,,,,,,,,,,,,,,,,,,,,,,,,,,341.3136245999485,None,place,sing,red,22,222,339.30980609986,None,None,339.30980609986,None,,,,,,,,,,,,,,,,,,,,,,,,,,,,,,,,,color19,001,2021_Nov_04_1055,ProdSingRedo,3.2.3,59.66010447609808,
17,0,17,0,,,,,,,,,,,,,,,,,,,,,,,,,,,,343.8303425000049,None,public,sing,red,20,244,341.8262261999771,None,None,341.8262261999771,None,,,,,,,,,,,,,,,,,,,,,,,,,,,,,,,,,color19,001,2021_Nov_04_1055,ProdSingRedo,3.2.3,59.66010447609808,
18,0,18,0,,,,,,,,,,,,,,,,,,,,,,,,,,,,346.3472600998357,None,light,silent,blue,60,171,344.3430539998226,None,None,344.3430539998226,None,,,,,,,,,,,,,,,,,,,,,,,,,,,,,,,,,color19,001,2021_Nov_04_1055,ProdSingRedo,3.2.3,59.66010447609808,
19,0,19,0,,,,,,,,,,,,,,,,,,,,,,,,,,,,348.8641587998718,None,division,aloud,yellow,54,101,346.86163769988343,None,None,346.86163769988343,None,,,,,,,,,,,,,,,,,,,,,,,,,,,,,,,,,color19,001,2021_Nov_04_1055,ProdSingRedo,3.2.3,59.66010447609808,
20,0,20,0,,,,,,,,,,,,,,,,,,,,,,,,,,,,351.3809793998953,None,private,silent,blue,80,237,349.3821810998488,None,None,349.3821810998488,None,,,,,,,,,,,,,,,,,,,,,,,,,,,,,,,,,color19,001,2021_Nov_04_1055,ProdSingRedo,3.2.3,59.66010447609808,
21,0,21,0,,,,,,,,,,,,,,,,,,,,,,,,,,,,353.8979411998298,None,principal,sing,red,17,236,351.896581399953,None,None,351.896581399953,None,,,,,,,,,,,,,,,,,,,,,,,,,,,,,,,,,color19,001,2021_Nov_04_1055,ProdSingRedo,3.2.3,59.66010447609808,
22,0,22,0,,,,,,,,,,,,,,,,,,,,,,,,,,,,356.4146932999138,None,substance,aloud,yellow,52,313,354.41596839996055,None,None,354.41596839996055,None,,,,,,,,,,,,,,,,,,,,,,,,,,,,,,,,,color19,001,2021_Nov_04_1055,ProdSingRedo,3.2.3,59.66010447609808,
23,0,23,0,,,,,,,,,,,,,,,,,,,,,,,,,,,,358.93150049983524,None,taste,silent,blue,81,322,356.9274096998852,None,None,356.9274096998852,None,,,,,,,,,,,,,,,,,,,,,,,,,,,,,,,,,color19,001,2021_Nov_04_1055,ProdSingRedo,3.2.3,59.66010447609808,
24,0,24,0,,,,,,,,,,,,,,,,,,,,,,,,,,,,361.4483851999976,None,community,sing,red,15,63,359.44760489999317,None,None,359.44760489999317,None,,,,,,,,,,,,,,,,,,,,,,,,,,,,,,,,,color19,001,2021_Nov_04_1055,ProdSingRedo,3.2.3,59.66010447609808,
25,0,25,0,,,,,,,,,,,,,,,,,,,,,,,,,,,,363.96523529989645,None,dream,aloud,yellow,34,104,361.96186699997634,None,None,361.96186699997634,None,,,,,,,,,,,,,,,,,,,,,,,,,,,,,,,,,color19,001,2021_Nov_04_1055,ProdSingRedo,3.2.3,59.66010447609808,
26,0,26,0,,,,,,,,,,,,,,,,,,,,,,,,,,,,366.48218890000135,None,evidence,aloud,yellow,49,120,364.4815089998301,None,None,364.4815089998301,None,,,,,,,,,,,,,,,,,,,,,,,,,,,,,,,,,color19,001,2021_Nov_04_1055,ProdSingRedo,3.2.3,59.66010447609808,
27,0,27,0,,,,,,,,,,,,,,,,,,,,,,,,,,,,368.9988780999556,None,meeting,aloud,yellow,55,187,366.99504159996286,None,None,366.99504159996286,None,,,,,,,,,,,,,,,,,,,,,,,,,,,,,,,,,color19,001,2021_Nov_04_1055,ProdSingRedo,3.2.3,59.66010447609808,
28,0,28,0,,,,,,,,,,,,,,,,,,,,,,,,,,,,371.5147682998795,None,prime,sing,red,18,235,369.5073482999578,None,None,369.5073482999578,None,,,,,,,,,,,,,,,,,,,,,,,,,,,,,,,,,color19,001,2021_Nov_04_1055,ProdSingRedo,3.2.3,59.66010447609808,
29,0,29,0,,,,,,,,,,,,,,,,,,,,,,,,,,,,374.0324912997894,None,crowd,aloud,yellow,53,81,372.02822869992815,None,None,372.02822869992815,None,,,,,,,,,,,,,,,,,,,,,,,,,,,,,,,,,color19,001,2021_Nov_04_1055,ProdSingRedo,3.2.3,59.66010447609808,
30,0,30,0,,,,,,,,,,,,,,,,,,,,,,,,,,,,376.559102299856,None,number,sing,red,11,203,374.54891719995067,None,None,374.54891719995067,None,,,,,,,,,,,,,,,,,,,,,,,,,,,,,,,,,color19,001,2021_Nov_04_1055,ProdSingRedo,3.2.3,59.66010447609808,
31,0,31,0,,,,,,,,,,,,,,,,,,,,,,,,,,,,379.06626169988886,None,goose,silent,blue,83,138,377.0619612999726,None,None,377.0619612999726,None,,,,,,,,,,,,,,,,,,,,,,,,,,,,,,,,,color19,001,2021_Nov_04_1055,ProdSingRedo,3.2.3,59.66010447609808,
32,0,32,0,,,,,,,,,,,,,,,,,,,,,,,,,,,,381.583200099878,None,patient,sing,red,8,213,379.5765648998786,None,None,379.5765648998786,None,,,,,,,,,,,,,,,,,,,,,,,,,,,,,,,,,color19,001,2021_Nov_04_1055,ProdSingRedo,3.2.3,59.66010447609808,
33,0,33,0,,,,,,,,,,,,,,,,,,,,,,,,,,,,384.0998167998623,None,device,aloud,yellow,51,93,382.0987864998169,None,None,382.0987864998169,None,,,,,,,,,,,,,,,,,,,,,,,,,,,,,,,,,color19,001,2021_Nov_04_1055,ProdSingRedo,3.2.3,59.66010447609808,
34,0,34,0,,,,,,,,,,,,,,,,,,,,,,,,,,,,386.61677749990486,None,estate,aloud,yellow,32,119,384.6048940999899,None,None,384.6048940999899,None,,,,,,,,,,,,,,,,,,,,,,,,,,,,,,,,,color19,001,2021_Nov_04_1055,ProdSingRedo,3.2.3,59.66010447609808,
35,0,35,0,,,,,,,,,,,,,,,,,,,,,,,,,,,,389.1336207999848,None,colonel,silent,blue,78,55,387.1282958998345,None,None,387.1282958998345,None,,,,,,,,,,,,,,,,,,,,,,,,,,,,,,,,,color19,001,2021_Nov_04_1055,ProdSingRedo,3.2.3,59.66010447609808,
36,0,36,0,,,,,,,,,,,,,,,,,,,,,,,,,,,,391.6494607999921,None,engineer,silent,blue,65,114,389.64882619981654,None,None,389.64882619981654,None,,,,,,,,,,,,,,,,,,,,,,,,,,,,,,,,,color19,001,2021_Nov_04_1055,ProdSingRedo,3.2.3,59.66010447609808,
37,0,37,0,,,,,,,,,,,,,,,,,,,,,,,,,,,,394.16727359988727,None,month,sing,red,1,193,392.1603211998008,None,None,392.1603211998008,None,,,,,,,,,,,,,,,,,,,,,,,,,,,,,,,,,color19,001,2021_Nov_04_1055,ProdSingRedo,3.2.3,59.66010447609808,
38,0,38,0,,,,,,,,,,,,,,,,,,,,,,,,,,,,396.6697841999121,None,debate,silent,blue,75,87,394.666190699907,None,None,394.666190699907,None,,,,,,,,,,,,,,,,,,,,,,,,,,,,,,,,,color19,001,2021_Nov_04_1055,ProdSingRedo,3.2.3,59.66010447609808,
39,0,39,0,,,,,,,,,,,,,,,,,,,,,,,,,,,,399.2012494998053,None,vision,aloud,yellow,56,347,397.19471909990534,None,None,397.19471909990534,None,,,,,,,,,,,,,,,,,,,,,,,,,,,,,,,,,color19,001,2021_Nov_04_1055,ProdSingRedo,3.2.3,59.66010447609808,
40,0,40,0,,,,,,,,,,,,,,,,,,,,,,,,,,,,401.71774160000496,None,religion,silent,blue,89,258,399.7173967999406,None,None,399.7173967999406,None,,,,,,,,,,,,,,,,,,,,,,,,,,,,,,,,,color19,001,2021_Nov_04_1055,ProdSingRedo,3.2.3,59.66010447609808,
41,0,41,0,,,,,,,,,,,,,,,,,,,,,,,,,,,,404.23751059989445,None,story,silent,blue,87,306,402.22961789998226,None,None,402.22961789998226,None,,,,,,,,,,,,,,,,,,,,,,,,,,,,,,,,,color19,001,2021_Nov_04_1055,ProdSingRedo,3.2.3,59.66010447609808,
42,0,42,0,,,,,,,,,,,,,,,,,,,,,,,,,,,,406.75151539989747,None,production,aloud,yellow,46,240,404.73865389986895,None,None,404.73865389986895,None,,,,,,,,,,,,,,,,,,,,,,,,,,,,,,,,,color19,001,2021_Nov_04_1055,ProdSingRedo,3.2.3,59.66010447609808,
43,0,43,0,,,,,,,,,,,,,,,,,,,,,,,,,,,,409.26827959995717,None,mechanical,silent,blue,86,185,407.2658071999904,None,None,407.2658071999904,None,,,,,,,,,,,,,,,,,,,,,,,,,,,,,,,,,color19,001,2021_Nov_04_1055,ProdSingRedo,3.2.3,59.66010447609808,
44,0,44,0,,,,,,,,,,,,,,,,,,,,,,,,,,,,411.784358299803,None,universal,silent,blue,82,345,409.7864241998177,None,None,409.7864241998177,None,,,,,,,,,,,,,,,,,,,,,,,,,,,,,,,,,color19,001,2021_Nov_04_1055,ProdSingRedo,3.2.3,59.66010447609808,
45,0,45,0,,,,,,,,,,,,,,,,,,,,,,,,,,,,414.30197269981727,None,fight,sing,red,0,127,412.3017409997992,None,None,412.3017409997992,None,,,,,,,,,,,,,,,,,,,,,,,,,,,,,,,,,color19,001,2021_Nov_04_1055,ProdSingRedo,3.2.3,59.66010447609808,
46,0,46,0,,,,,,,,,,,,,,,,,,,,,,,,,,,,416.8187973999884,None,murder,aloud,yellow,42,195,414.81553679984063,None,None,414.81553679984063,None,,,,,,,,,,,,,,,,,,,,,,,,,,,,,,,,,color19,001,2021_Nov_04_1055,ProdSingRedo,3.2.3,59.66010447609808,
47,0,47,0,,,,,,,,,,,,,,,,,,,,,,,,,,,,419.33576559997164,None,height,silent,blue,61,152,417.33230169978924,None,None,417.33230169978924,None,,,,,,,,,,,,,,,,,,,,,,,,,,,,,,,,,color19,001,2021_Nov_04_1055,ProdSingRedo,3.2.3,59.66010447609808,
48,0,48,0,,,,,,,,,,,,,,,,,,,,,,,,,,,,421.8525024999399,None,author,aloud,yellow,47,15,419.8472078999039,None,None,419.8472078999039,None,,,,,,,,,,,,,,,,,,,,,,,,,,,,,,,,,color19,001,2021_Nov_04_1055,ProdSingRedo,3.2.3,59.66010447609808,
49,0,49,0,,,,,,,,,,,,,,,,,,,,,,,,,,,,424.3692016999703,None,hearing,aloud,yellow,39,150,422.36902139987797,None,None,422.36902139987797,None,,,,,,,,,,,,,,,,,,,,,,,,,,,,,,,,,color19,001,2021_Nov_04_1055,ProdSingRedo,3.2.3,59.66010447609808,
50,0,50,0,,,,,,,,,,,,,,,,,,,,,,,,,,,,426.88623999990523,None,growth,silent,blue,68,144,424.8838004998397,None,None,424.8838004998397,None,,,,,,,,,,,,,,,,,,,,,,,,,,,,,,,,,color19,001,2021_Nov_04_1055,ProdSingRedo,3.2.3,59.66010447609808,
51,0,51,0,,,,,,,,,,,,,,,,,,,,,,,,,,,,429.4029252999462,None,leader,silent,blue,66,168,427.39955779979937,None,None,427.39955779979937,None,,,,,,,,,,,,,,,,,,,,,,,,,,,,,,,,,color19,001,2021_Nov_04_1055,ProdSingRedo,3.2.3,59.66010447609808,
52,0,52,0,,,,,,,,,,,,,,,,,,,,,,,,,,,,431.9197748999577,None,damage,silent,blue,77,83,429.9165389998816,None,None,429.9165389998816,None,,,,,,,,,,,,,,,,,,,,,,,,,,,,,,,,,color19,001,2021_Nov_04_1055,ProdSingRedo,3.2.3,59.66010447609808,
53,0,53,0,,,,,,,,,,,,,,,,,,,,,,,,,,,,434.4366694998462,None,season,sing,red,16,277,432.4317540999036,None,None,432.4317540999036,None,,,,,,,,,,,,,,,,,,,,,,,,,,,,,,,,,color19,001,2021_Nov_04_1055,ProdSingRedo,3.2.3,59.66010447609808,
54,0,54,0,,,,,,,,,,,,,,,,,,,,,,,,,,,,436.9525409999769,None,court,aloud,yellow,30,75,434.94958029990084,None,None,434.94958029990084,None,,,,,,,,,,,,,,,,,,,,,,,,,,,,,,,,,color19,001,2021_Nov_04_1055,ProdSingRedo,3.2.3,59.66010447609808,
55,0,55,0,,,,,,,,,,,,,,,,,,,,,,,,,,,,439.47034569992684,None,clean,sing,red,3,51,437.4550770998467,None,None,437.4550770998467,None,,,,,,,,,,,,,,,,,,,,,,,,,,,,,,,,,color19,001,2021_Nov_04_1055,ProdSingRedo,3.2.3,59.66010447609808,
56,0,56,0,,,,,,,,,,,,,,,,,,,,,,,,,,,,441.9871101998724,None,degree,aloud,yellow,58,89,439.98012239998206,None,None,439.98012239998206,None,,,,,,,,,,,,,,,,,,,,,,,,,,,,,,,,,color19,001,2021_Nov_04_1055,ProdSingRedo,3.2.3,59.66010447609808,
57,0,57,0,,,,,,,,,,,,,,,,,,,,,,,,,,,,444.504013299942,None,quiet,aloud,yellow,38,249,442.501530099893,None,None,442.501530099893,None,,,,,,,,,,,,,,,,,,,,,,,,,,,,,,,,,color19,001,2021_Nov_04_1055,ProdSingRedo,3.2.3,59.66010447609808,
58,0,58,0,,,,,,,,,,,,,,,,,,,,,,,,,,,,447.0200114999898,None,safety,sing,red,4,270,445.02060719998553,None,None,445.02060719998553,None,,,,,,,,,,,,,,,,,,,,,,,,,,,,,,,,,color19,001,2021_Nov_04_1055,ProdSingRedo,3.2.3,59.66010447609808,
59,0,59,0,,,,,,,,,,,,,,,,,,,,,,,,,,,,449.5368050998077,None,working,aloud,yellow,33,357,447.52383169997483,None,None,447.52383169997483,None,,,,,,,,,,,,,,,,,,,,,,,,,,,,,,,,,color19,001,2021_Nov_04_1055,ProdSingRedo,3.2.3,59.66010447609808,
60,0,60,0,,,,,,,,,,,,,,,,,,,,,,,,,,,,452.05465289996937,None,quantity,silent,blue,64,245,450.0540869999677,None,None,450.0540869999677,None,,,,,,,,,,,,,,,,,,,,,,,,,,,,,,,,,color19,001,2021_Nov_04_1055,ProdSingRedo,3.2.3,59.66010447609808,
61,0,61,0,,,,,,,,,,,,,,,,,,,,,,,,,,,,454.5706815999001,None,victory,aloud,yellow,40,346,452.5560943998862,None,None,452.5560943998862,None,,,,,,,,,,,,,,,,,,,,,,,,,,,,,,,,,color19,001,2021_Nov_04_1055,ProdSingRedo,3.2.3,59.66010447609808,
62,0,62,0,,,,,,,,,,,,,,,,,,,,,,,,,,,,457.0882574999705,None,member,silent,blue,85,188,455.0883208999876,None,None,455.0883208999876,None,,,,,,,,,,,,,,,,,,,,,,,,,,,,,,,,,color19,001,2021_Nov_04_1055,ProdSingRedo,3.2.3,59.66010447609808,
63,0,63,0,,,,,,,,,,,,,,,,,,,,,,,,,,,,459.6125181999523,None,attack,silent,blue,67,13,457.59304769989103,None,None,457.59304769989103,None,,,,,,,,,,,,,,,,,,,,,,,,,,,,,,,,,color19,001,2021_Nov_04_1055,ProdSingRedo,3.2.3,59.66010447609808,
64,0,64,0,,,,,,,,,,,,,,,,,,,,,,,,,,,,462.12189309997484,None,concern,aloud,yellow,48,65,460.1206686999649,None,None,460.1206686999649,None,,,,,,,,,,,,,,,,,,,,,,,,,,,,,,,,,color19,001,2021_Nov_04_1055,ProdSingRedo,3.2.3,59.66010447609808,
65,0,65,0,,,,,,,,,,,,,,,,,,,,,,,,,,,,464.63814779999666,None,instrument,sing,red,14,163,462.6374226999469,None,None,462.6374226999469,None,,,,,,,,,,,,,,,,,,,,,,,,,,,,,,,,,color19,001,2021_Nov_04_1055,ProdSingRedo,3.2.3,59.66010447609808,
66,0,66,0,,,,,,,,,,,,,,,,,,,,,,,,,,,,467.1555658997968,None,society,silent,blue,74,293,465.15317899989896,None,None,465.15317899989896,None,,,,,,,,,,,,,,,,,,,,,,,,,,,,,,,,,color19,001,2021_Nov_04_1055,ProdSingRedo,3.2.3,59.66010447609808,
67,0,67,0,,,,,,,,,,,,,,,,,,,,,,,,,,,,469.6725941998884,None,orchestra,silent,blue,71,206,467.6849816998001,None,None,467.6849816998001,None,,,,,,,,,,,,,,,,,,,,,,,,,,,,,,,,,color19,001,2021_Nov_04_1055,ProdSingRedo,3.2.3,59.66010447609808,
68,0,68,0,,,,,,,,,,,,,,,,,,,,,,,,,,,,472.18926279991865,None,emergency,sing,red,29,110,470.18829229986295,None,None,470.18829229986295,None,,,,,,,,,,,,,,,,,,,,,,,,,,,,,,,,,color19,001,2021_Nov_04_1055,ProdSingRedo,3.2.3,59.66010447609808,
69,0,69,0,,,,,,,,,,,,,,,,,,,,,,,,,,,,474.7060792997945,None,build,silent,blue,69,35,472.7009087000042,None,None,472.7009087000042,None,,,,,,,,,,,,,,,,,,,,,,,,,,,,,,,,,color19,001,2021_Nov_04_1055,ProdSingRedo,3.2.3,59.66010447609808,
70,0,70,0,,,,,,,,,,,,,,,,,,,,,,,,,,,,477.22285299981013,None,design,aloud,yellow,36,91,475.2206192999147,None,None,475.2206192999147,None,,,,,,,,,,,,,,,,,,,,,,,,,,,,,,,,,color19,001,2021_Nov_04_1055,ProdSingRedo,3.2.3,59.66010447609808,
71,0,71,0,,,,,,,,,,,,,,,,,,,,,,,,,,,,479.7397417000029,None,expansion,silent,blue,84,123,477.7359950998798,None,None,477.7359950998798,None,,,,,,,,,,,,,,,,,,,,,,,,,,,,,,,,,color19,001,2021_Nov_04_1055,ProdSingRedo,3.2.3,59.66010447609808,
72,0,72,0,,,,,,,,,,,,,,,,,,,,,,,,,,,,482.25663540000096,None,primary,sing,red,2,234,480.25517379981466,None,None,480.25517379981466,None,,,,,,,,,,,,,,,,,,,,,,,,,,,,,,,,,color19,001,2021_Nov_04_1055,ProdSingRedo,3.2.3,59.66010447609808,
73,0,73,0,,,,,,,,,,,,,,,,,,,,,,,,,,,,484.77346689999104,None,object,aloud,yellow,35,204,482.77620229986496,None,None,482.77620229986496,None,,,,,,,,,,,,,,,,,,,,,,,,,,,,,,,,,color19,001,2021_Nov_04_1055,ProdSingRedo,3.2.3,59.66010447609808,
74,0,74,0,,,,,,,,,,,,,,,,,,,,,,,,,,,,487.2902434999123,None,rapid,silent,blue,79,252,485.27554279984906,None,None,485.27554279984906,None,,,,,,,,,,,,,,,,,,,,,,,,,,,,,,,,,color19,001,2021_Nov_04_1055,ProdSingRedo,3.2.3,59.66010447609808,
75,0,75,0,,,,,,,,,,,,,,,,,,,,,,,,,,,,489.80712739983574,None,people,sing,red,24,216,487.80001659994014,None,None,487.80001659994014,None,,,,,,,,,,,,,,,,,,,,,,,,,,,,,,,,,color19,001,2021_Nov_04_1055,ProdSingRedo,3.2.3,59.66010447609808,
76,0,76,0,,,,,,,,,,,,,,,,,,,,,,,,,,,,492.3231777998153,None,mankind,sing,red,9,178,490.33077229978517,None,None,490.33077229978517,None,,,,,,,,,,,,,,,,,,,,,,,,,,,,,,,,,color19,001,2021_Nov_04_1055,ProdSingRedo,3.2.3,59.66010447609808,
77,0,77,0,,,,,,,,,,,,,,,,,,,,,,,,,,,,494.84077739994973,None,brilliant,sing,red,27,30,492.8328689998016,None,None,492.8328689998016,None,,,,,,,,,,,,,,,,,,,,,,,,,,,,,,,,,color19,001,2021_Nov_04_1055,ProdSingRedo,3.2.3,59.66010447609808,
78,0,78,0,,,,,,,,,,,,,,,,,,,,,,,,,,,,497.3565811999142,None,running,sing,red,10,268,495.3603376999963,None,None,495.3603376999963,None,,,,,,,,,,,,,,,,,,,,,,,,,,,,,,,,,color19,001,2021_Nov_04_1055,ProdSingRedo,3.2.3,59.66010447609808,
79,0,79,0,,,,,,,,,,,,,,,,,,,,,,,,,,,,499.8743900000118,None,youth,aloud,yellow,31,359,497.872935899999,None,None,497.872935899999,None,,,,,,,,,,,,,,,,,,,,,,,,,,,,,,,,,color19,001,2021_Nov_04_1055,ProdSingRedo,3.2.3,59.66010447609808,
80,0,80,0,,,,,,,,,,,,,,,,,,,,,,,,,,,,502.3915734998882,None,fashion,silent,blue,72,125,500.376058699796,None,None,500.376058699796,None,,,,,,,,,,,,,,,,,,,,,,,,,,,,,,,,,color19,001,2021_Nov_04_1055,ProdSingRedo,3.2.3,59.66010447609808,
81,0,81,0,,,,,,,,,,,,,,,,,,,,,,,,,,,,504.9079802997876,None,reading,aloud,yellow,57,254,502.908941200003,None,None,502.908941200003,None,,,,,,,,,,,,,,,,,,,,,,,,,,,,,,,,,color19,001,2021_Nov_04_1055,ProdSingRedo,3.2.3,59.66010447609808,
82,0,82,0,,,,,,,,,,,,,,,,,,,,,,,,,,,,507.4249755998608,None,tragedy,aloud,yellow,59,335,505.4248909999151,None,None,505.4248909999151,None,,,,,,,,,,,,,,,,,,,,,,,,,,,,,,,,,color19,001,2021_Nov_04_1055,ProdSingRedo,3.2.3,59.66010447609808,
83,0,83,0,,,,,,,,,,,,,,,,,,,,,,,,,,,,509.9417667000089,None,general,silent,blue,62,135,507.93044039979577,None,None,507.93044039979577,None,,,,,,,,,,,,,,,,,,,,,,,,,,,,,,,,,color19,001,2021_Nov_04_1055,ProdSingRedo,3.2.3,59.66010447609808,
84,0,84,0,,,,,,,,,,,,,,,,,,,,,,,,,,,,512.4586600000039,None,comedy,sing,red,23,58,510.4552407998126,None,None,510.4552407998126,None,,,,,,,,,,,,,,,,,,,,,,,,,,,,,,,,,color19,001,2021_Nov_04_1055,ProdSingRedo,3.2.3,59.66010447609808,
85,0,85,0,,,,,,,,,,,,,,,,,,,,,,,,,,,,514.9756385998335,None,fellow,sing,red,19,126,512.9712700999808,None,None,512.9712700999808,None,,,,,,,,,,,,,,,,,,,,,,,,,,,,,,,,,color19,001,2021_Nov_04_1055,ProdSingRedo,3.2.3,59.66010447609808,
86,0,86,0,,,,,,,,,,,,,,,,,,,,,,,,,,,,517.4762029999401,None,minor,sing,red,21,191,515.4748817998916,None,None,515.4748817998916,None,,,,,,,,,,,,,,,,,,,,,,,,,,,,,,,,,color19,001,2021_Nov_04_1055,ProdSingRedo,3.2.3,59.66010447609808,
87,0,87,0,,,,,,,,,,,,,,,,,,,,,,,,,,,,519.9924855998252,None,brief,sing,red,12,28,517.9918428999372,None,None,517.9918428999372,None,,,,,,,,,,,,,,,,,,,,,,,,,,,,,,,,,color19,001,2021_Nov_04_1055,ProdSingRedo,3.2.3,59.66010447609808,
88,0,88,0,,,,,,,,,,,,,,,,,,,,,,,,,,,,522.5087703999598,None,citizen,aloud,yellow,43,50,520.5132789998315,None,None,520.5132789998315,None,,,,,,,,,,,,,,,,,,,,,,,,,,,,,,,,,color19,001,2021_Nov_04_1055,ProdSingRedo,3.2.3,59.66010447609808,
89,0,89,0,,,,,,,,,,,,,,,,,,,,,,,,,,,,525.0094736998435,None,interior,silent,blue,76,164,523.0085545999464,None,None,523.0085545999464,None,,,,,,,,,,,,,,,,,,,,,,,,,,,,,,,,,color19,001,2021_Nov_04_1055,ProdSingRedo,3.2.3,59.66010447609808,
,,,,,,,,,,,,,,,,,,,,,,,,,,,,,,,,,,,,,,,,,,,525.5096155998763,None,k,251.61089379992336,525.5096155998763,None,,,,,,,,,,,,,,,,,,,,,,,,,,,color19,001,2021_Nov_04_1055,ProdSingRedo,3.2.3,59.66010447609808,
,,,,0,0,0,0,,,,,,,,,,,,,,,,,,,,,,,,794.5800038999878,None,,,,,,,,,,,,,,,,,empty,new_sing,red,0,115,112,777.663654099917,None,777.663654099917,None,6,10.568152699852362,777.663654099917,None,788.2866921999957,None,788.8041981998831,None,788.8041981998831,None,f,5.755466100061312,788.8041981998831,None,,,color19,001,2021_Nov_04_1055,ProdSingRedo,3.2.3,59.66010447609808,
,,,,1,0,1,0,,,,,,,,,,,,,,,,,,,,,,,,806.7206021999009,None,,,,,,,,,,,,,,,,,emergency,sing,red,1,29,110,795.103208599845,None,795.103208599845,None,6,8.784557500155643,795.103208599845,None,803.9413438998163,None,804.4604330000002,None,804.4604330000002,None,r,2.227382499957457,804.4604330000002,None,,,color19,001,2021_Nov_04_1055,ProdSingRedo,3.2.3,59.66010447609808,
,,,,2,0,2,0,,,,,,,,,,,,,,,,,,,,,,,,817.3390293999109,None,,,,,,,,,,,,,,,,,service,new_silent,blue,2,154,280,807.2479185999837,None,807.2479185999837,None,3,7.312492500059307,807.2479185999837,None,814.6026563998312,None,815.1135307999793,None,815.1135307999793,None,n,2.198397299973294,815.1135307999793,None,,,color19,001,2021_Nov_04_1055,ProdSingRedo,3.2.3,59.66010447609808,
,,,,3,0,3,0,,,,,,,,,,,,,,,,,,,,,,,,823.8572545999195,None,,,,,,,,,,,,,,,,,instrument,sing,red,3,14,163,817.8678342998028,None,817.8678342998028,None,5,3.803869500057772,817.8678342998028,None,821.7093430999666,None,822.2247195998207,None,822.2247195998207,None,n,1.5910390999633819,822.2247195998207,None,,,color19,001,2021_Nov_04_1055,ProdSingRedo,3.2.3,59.66010447609808,
,,,,4,0,4,0,,,,,,,,,,,,,,,,,,,,,,,,835.2222668998875,None,,,,,,,,,,,,,,,,,close,new_silent,blue,4,170,53,824.3776936999056,None,824.3776936999056,None,2,5.766725099878386,824.3776936999056,None,830.1814843998291,None,830.7076705999207,None,830.7076705999207,None,n,4.476107000140473,830.7076705999207,None,,,color19,001,2021_Nov_04_1055,ProdSingRedo,3.2.3,59.66010447609808,
,,,,5,0,5,0,,,,,,,,,,,,,,,,,,,,,,,,842.0408178998623,None,,,,,,,,,,,,,,,,,sweet,new_aloud,yellow,5,128,319,835.7360866998788,None,835.7360866998788,None,1,4.839752299943939,835.7360866998788,None,840.6229468998499,None,841.1416786999907,None,841.1416786999907,None,n,0.866203400073573,841.1416786999907,None,,,color19,001,2021_Nov_04_1055,ProdSingRedo,3.2.3,59.66010447609808,
,,,,6,0,6,0,,,,,,,,,,,,,,,,,,,,,,,,849.9571253999602,None,,,,,,,,,,,,,,,,,thick,new_sing,red,6,92,327,842.5622500998434,None,842.5622500998434,None,3,5.99728829995729,842.5622500998434,None,848.6060903999023,None,849.1227927999571,None,849.1227927999571,None,n,0.797078600153327,849.1227927999571,None,,,color19,001,2021_Nov_04_1055,ProdSingRedo,3.2.3,59.66010447609808,
,,,,7,0,7,0,,,,,,,,,,,,,,,,,,,,,,,,856.9902410998475,None,,,,,,,,,,,,,,,,,degree,aloud,yellow,7,58,89,850.4883141999599,None,850.4883141999599,None,4,4.023665100103244,850.4883141999599,None,854.5574301998131,None,855.0758882998489,None,855.0758882998489,None,f,1.875820100074634,855.0758882998489,None,,,color19,001,2021_Nov_04_1055,ProdSingRedo,3.2.3,59.66010447609808,
,,,,8,0,8,0,,,,,,,,,,,,,,,,,,,,,,,,866.0599337997846,None,,,,,,,,,,,,,,,,,public,sing,red,8,20,244,857.5191460999195,None,857.5191460999195,None,5,3.4005503999069333,857.5191460999195,None,860.9651143997908,None,861.480092999991,None,861.480092999991,None,r,4.551855100085959,861.480092999991,None,,,color19,001,2021_Nov_04_1055,ProdSingRedo,3.2.3,59.66010447609808,
,,,,9,0,9,0,,,,,,,,,,,,,,,,,,,,,,,,870.3910472998396,None,,,,,,,,,,,,,,,,,science,new_aloud,yellow,9,144,275,866.5825220998377,None,866.5825220998377,None,1,2.50502479984425,866.5825220998377,None,869.1277719999198,None,869.6355504000094,None,869.6355504000094,None,n,0.716382599901408,869.6355504000094,None,,,color19,001,2021_Nov_04_1055,ProdSingRedo,3.2.3,59.66010447609808,
,,,,10,0,10,0,,,,,,,,,,,,,,,,,,,,,,,,875.9653874000069,None,,,,,,,,,,,,,,,,,disease,new_aloud,yellow,10,147,97,870.9204666998703,None,870.9204666998703,None,3,3.615656099980697,870.9204666998703,None,874.591079399921,None,875.1111968997866,None,875.1111968997866,None,n,0.8243533000349998,875.1111968997866,None,,,color19,001,2021_Nov_04_1055,ProdSingRedo,3.2.3,59.66010447609808,
,,,,11,0,11,0,,,,,,,,,,,,,,,,,,,,,,,,882.9685029999819,None,,,,,,,,,,,,,,,,,people,sing,red,11,24,216,876.4836452999152,None,876.4836452999152,None,6,3.340212299954146,876.4836452999152,None,879.8673135999124,None,880.3796205997933,None,880.3796205997933,None,r,2.555942100007087,880.3796205997933,None,,,color19,001,2021_Nov_04_1055,ProdSingRedo,3.2.3,59.66010447609808,
,,,,12,0,12,0,,,,,,,,,,,,,,,,,,,,,,,,889.4428939998616,None,,,,,,,,,,,,,,,,,comedy,sing,red,12,23,58,883.5040825000033,None,883.5040825000033,None,4,4.351693899836391,883.5040825000033,None,887.9007761999965,None,888.4137987999711,None,888.4137987999711,None,n,0.9940007000695914,888.4137987999711,None,,,color19,001,2021_Nov_04_1055,ProdSingRedo,3.2.3,59.66010447609808,
,,,,13,0,13,0,,,,,,,,,,,,,,,,,,,,,,,,895.7611065998208,None,,,,,,,,,,,,,,,,,goose,silent,blue,13,83,138,889.9690878998954,None,889.9690878998954,None,1,4.702728499891236,889.9690878998954,None,894.7267610998824,None,895.243544299854,None,895.243544299854,None,n,0.4762550999876112,895.243544299854,None,,,color19,001,2021_Nov_04_1055,ProdSingRedo,3.2.3,59.66010447609808,
,,,,14,0,14,0,,,,,,,,,,,,,,,,,,,,,,,,898.9767421998549,None,,,,,,,,,,,,,,,,,shock,new_aloud,yellow,14,145,284,896.2864163999911,None,896.2864163999911,None,1,1.3853716000448912,896.2864163999911,None,897.7159727998078,None,898.2340194999706,None,898.2340194999706,None,n,0.7179773000534624,898.2340194999706,None,,,color19,001,2021_Nov_04_1055,ProdSingRedo,3.2.3,59.66010447609808,
,,,,15,0,15,0,,,,,,,,,,,,,,,,,,,,,,,,904.3607468998525,None,,,,,,,,,,,,,,,,,series,new_sing,red,15,119,279,899.5008828998543,None,899.5008828998543,None,5,2.7150537001434714,899.5008828998543,None,902.242237099912,None,902.7510853998829,None,902.7510853998829,None,f,1.5767729000654072,902.7510853998829,None,,,color19,001,2021_Nov_04_1055,ProdSingRedo,3.2.3,59.66010447609808,
,,,,16,0,16,0,,,,,,,,,,,,,,,,,,,,,,,,907.2444480999839,None,,,,,,,,,,,,,,,,,dispute,new_silent,blue,16,159,99,904.8886300998274,None,904.8886300998274,None,1,1.4551319000311196,904.8886300998274,None,906.3936324999668,None,906.9129428998567,None,906.9129428998567,None,n,0.2946558000985533,906.9129428998567,None,,,color19,001,2021_Nov_04_1055,ProdSingRedo,3.2.3,59.66010447609808,
,,,,17,0,17,0,,,,,,,,,,,,,,,,,,,,,,,,911.6874601999298,None,,,,,,,,,,,,,,,,,pattern,new_sing,red,17,116,214,907.7743500999641,None,907.7743500999641,None,3,2.185378300026059,907.7743500999641,None,910.0137648999225,None,910.5316413999535,None,910.5316413999535,None,n,1.1241307000163943,910.5316413999535,None,,,color19,001,2021_Nov_04_1055,ProdSingRedo,3.2.3,59.66010447609808,
,,,,18,0,18,0,,,,,,,,,,,,,,,,,,,,,,,,918.3779619999696,None,,,,,,,,,,,,,,,,,management,new_silent,blue,18,153,177,912.2256678999402,None,912.2256678999402,None,4,4.518109600059688,912.2256678999402,None,916.7942827998195,None,917.3182206999045,None,917.3182206999045,None,n,1.0336257999297231,917.3182206999045,None,,,color19,001,2021_Nov_04_1055,ProdSingRedo,3.2.3,59.66010447609808,
,,,,19,0,19,0,,,,,,,,,,,,,,,,,,,,,,,,921.7459840998054,None,,,,,,,,,,,,,,,,,month,sing,red,19,1,193,918.9047791999765,None,918.9047791999765,None,1,1.6312520999927074,918.9047791999765,None,920.574731899891,None,921.0921922998969,None,921.0921922998969,None,n,0.6196975000202656,921.0921922998969,None,,,color19,001,2021_Nov_04_1055,ProdSingRedo,3.2.3,59.66010447609808,
,,,,20,0,20,0,,,,,,,,,,,,,,,,,,,,,,,,926.444765899796,None,,,,,,,,,,,,,,,,,command,new_sing,red,20,90,60,922.2736543999054,None,922.2736543999054,None,3,2.590236800024286,922.2736543999054,None,924.9126092998777,None,925.432427899912,None,925.432427899912,None,n,0.9754772998858243,925.432427899912,None,,,color19,001,2021_Nov_04_1055,ProdSingRedo,3.2.3,59.66010447609808,
,,,,21,0,21,0,,,,,,,,,,,,,,,,,,,,,,,,930.9976943999063,None,,,,,,,,,,,,,,,,,division,aloud,yellow,21,54,101,926.9739205997903,None,926.9739205997903,None,2,2.6256374998483807,926.9739205997903,None,929.6384559997823,None,930.1496742998715,None,930.1496742998715,None,n,0.8186385000590235,930.1496742998715,None,,,color19,001,2021_Nov_04_1055,ProdSingRedo,3.2.3,59.66010447609808,
,,,,22,0,22,0,,,,,,,,,,,,,,,,,,,,,,,,933.9751108998898,None,,,,,,,,,,,,,,,,,debate,silent,blue,22,75,87,931.5195507998578,None,931.5195507998578,None,2,1.2487892999779433,931.5195507998578,None,932.8067688997835,None,933.3337818998843,None,933.3337818998843,None,n,0.6098628998734057,933.3337818998843,None,,,color19,001,2021_Nov_04_1055,ProdSingRedo,3.2.3,59.66010447609808,
,,,,23,0,23,0,,,,,,,,,,,,,,,,,,,,,,,,939.8986934998538,None,,,,,,,,,,,,,,,,,population,new_silent,blue,23,166,227,934.490968399914,None,934.490968399914,None,1,3.8290154000278562,934.490968399914,None,938.3603041998576,None,938.8864790999796,None,938.8864790999796,None,n,0.9774552998133004,938.8864790999796,None,,,color19,001,2021_Nov_04_1055,ProdSingRedo,3.2.3,59.66010447609808,
,,,,24,0,24,0,,,,,,,,,,,,,,,,,,,,,,,,943.0152894000057,None,,,,,,,,,,,,,,,,,election,new_silent,blue,24,161,109,940.419916999992,None,940.419916999992,None,1,1.5639416000340134,940.419916999992,None,942.0211228998378,None,942.5239222999662,None,942.5239222999662,None,n,0.4519297000952065,942.5239222999662,None,,,color19,001,2021_Nov_04_1055,ProdSingRedo,3.2.3,59.66010447609808,
,,,,25,0,25,0,,,,,,,,,,,,,,,,,,,,,,,,948.1302711998578,None,,,,,,,,,,,,,,,,,company,sing,red,25,13,64,943.535802999977,None,943.535802999977,None,5,2.92009470006451,943.535802999977,None,946.4915536998305,None,947.0182453999296,None,947.0182453999296,None,f,1.0775345000438392,947.0182453999296,None,,,color19,001,2021_Nov_04_1055,ProdSingRedo,3.2.3,59.66010447609808,
,,,,26,0,26,0,,,,,,,,,,,,,,,,,,,,,,,,953.5000362999272,None,,,,,,,,,,,,,,,,,clear,sing,red,26,7,52,948.6586056000087,None,948.6586056000087,None,6,2.253272600006312,948.6586056000087,None,950.9581593999173,None,951.4825941999443,None,951.4825941999443,None,r,1.9892703001387417,951.4825941999443,None,,,color19,001,2021_Nov_04_1055,ProdSingRedo,3.2.3,59.66010447609808,
,,,,27,0,27,0,,,,,,,,,,,,,,,,,,,,,,,,957.8330922999885,None,,,,,,,,,,,,,,,,,defeat,new_aloud,yellow,27,131,88,954.0246559998486,None,954.0246559998486,None,4,2.3511999000329524,954.0246559998486,None,956.4322576997802,None,956.9524561997969,None,956.9524561997969,None,f,0.8475045000668615,956.9524561997969,None,,,color19,001,2021_Nov_04_1055,ProdSingRedo,3.2.3,59.66010447609808,
,,,,28,0,28,0,,,,,,,,,,,,,,,,,,,,,,,,965.4093807998579,None,,,,,,,,,,,,,,,,,community,sing,red,28,15,63,958.36261309986,None,958.36261309986,None,6,4.997410299954936,958.36261309986,None,963.4099878999405,None,963.9215765998233,None,963.9215765998233,None,f,1.4540854999795556,963.9215765998233,None,,,color19,001,2021_Nov_04_1055,ProdSingRedo,3.2.3,59.66010447609808,
,,,,29,0,29,0,,,,,,,,,,,,,,,,,,,,,,,,969.6685434998944,None,,,,,,,,,,,,,,,,,interior,silent,blue,29,76,164,965.9239173999522,None,965.9239173999522,None,3,2.2200505998916924,965.9239173999522,None,968.1952277999371,None,968.7122733998112,None,968.7122733998112,None,n,0.9195414001587778,968.7122733998112,None,,,color19,001,2021_Nov_04_1055,ProdSingRedo,3.2.3,59.66010447609808,
,,,,30,0,30,0,,,,,,,,,,,,,,,,,,,,,,,,975.0991583999712,None,,,,,,,,,,,,,,,,,personnel,new_silent,blue,30,172,219,970.1859666998498,None,970.1859666998498,None,2,3.5340894998516887,970.1859666998498,None,973.7579661000054,None,974.2828164999373,None,974.2828164999373,None,n,0.7891847998835146,974.2828164999373,None,,,color19,001,2021_Nov_04_1055,ProdSingRedo,3.2.3,59.66010447609808,
,,,,31,0,31,0,,,,,,,,,,,,,,,,,,,,,,,,979.9815824998077,None,,,,,,,,,,,,,,,,,rapid,silent,blue,31,79,252,975.6206830998417,None,975.6206830998417,None,1,1.6752172000706196,975.6206830998417,None,977.3469236998353,None,977.8667994998395,None,977.8667994998395,None,n,2.0770185000728816,977.8667994998395,None,,,color19,001,2021_Nov_04_1055,ProdSingRedo,3.2.3,59.66010447609808,
,,,,32,0,32,0,,,,,,,,,,,,,,,,,,,,,,,,986.73503409978,None,,,,,,,,,,,,,,,,,weight,new_sing,red,32,98,353,980.5091450999025,None,980.5091450999025,None,3,4.370728500187397,980.5091450999025,None,984.9347552999388,None,985.4524419999216,None,985.4524419999216,None,n,1.2516218000091612,985.4524419999216,None,,,color19,001,2021_Nov_04_1055,ProdSingRedo,3.2.3,59.66010447609808,
,,,,33,0,33,0,,,,,,,,,,,,,,,,,,,,,,,,993.4186801998876,None,,,,,,,,,,,,,,,,,message,new_aloud,yellow,33,122,189,987.2622682999354,None,987.2622682999354,None,4,3.9535747999325395,987.2622682999354,None,991.2656182998326,None,991.7871644999832,None,991.7871644999832,None,f,1.5969523000530899,991.7871644999832,None,,,color19,001,2021_Nov_04_1055,ProdSingRedo,3.2.3,59.66010447609808,
,,,,34,0,34,0,,,,,,,,,,,,,,,,,,,,,,,,1000.0004022999201,None,,,,,,,,,,,,,,,,,sight,silent,blue,34,73,286,993.9411696000025,None,993.9411696000025,None,4,3.931253100046888,993.9411696000025,None,997.9172431000043,None,998.4365389999002,None,998.4365389999002,None,f,1.5313491998240352,998.4365389999002,None,,,color19,001,2021_Nov_04_1055,ProdSingRedo,3.2.3,59.66010447609808,
,,,,35,0,35,0,,,,,,,,,,,,,,,,,,,,,,,,1004.5865880998317,None,,,,,,,,,,,,,,,,,question,new_aloud,yellow,35,126,247,1000.5296311997809,None,1000.5296311997809,None,3,3.0943537999410182,1000.5296311997809,None,1003.6688256999478,None,1004.1890600998886,None,1004.1890600998886,None,n,0.3628227999433875,1004.1890600998886,None,,,color19,001,2021_Nov_04_1055,ProdSingRedo,3.2.3,59.66010447609808,
,,,,36,0,36,0,,,,,,,,,,,,,,,,,,,,,,,,1010.2520517997909,None,,,,,,,,,,,,,,,,,conference,sing,red,36,25,66,1005.1145755997859,None,1005.1145755997859,None,6,3.429406899958849,1005.1145755997859,None,1008.5837516000029,None,1009.1061976999044,None,1009.1061976999044,None,f,1.109857700066641,1009.1061976999044,None,,,color19,001,2021_Nov_04_1055,ProdSingRedo,3.2.3,59.66010447609808,
,,,,37,0,37,0,,,,,,,,,,,,,,,,,,,,,,,,1013.9037479998078,None,,,,,,,,,,,,,,,,,frank,new_sing,red,37,95,133,1010.7776473998092,None,1010.7776473998092,None,1,1.8543128001037985,1010.7776473998092,None,1012.6881685999688,None,1013.2116470998153,None,1013.2116470998153,None,n,0.652352900011465,1013.2116470998153,None,,,color19,001,2021_Nov_04_1055,ProdSingRedo,3.2.3,59.66010447609808,
,,,,38,0,38,0,,,,,,,,,,,,,,,,,,,,,,,,1018.7847747998312,None,,,,,,,,,,,,,,,,,youth,aloud,yellow,38,31,359,1014.4304068000056,None,1014.4304068000056,None,6,2.7374994999263436,1014.4304068000056,None,1017.2197340999264,None,1017.7385453998577,None,1017.7385453998577,None,f,1.0135284999851137,1017.7385453998577,None,,,color19,001,2021_Nov_04_1055,ProdSingRedo,3.2.3,59.66010447609808,
,,,,39,0,39,0,,,,,,,,,,,,,,,,,,,,,,,,1024.7520951998886,None,,,,,,,,,,,,,,,,,household,new_silent,blue,39,155,154,1019.2994944998063,None,1019.2994944998063,None,2,3.78041910007596,1019.2994944998063,None,1023.1364213000052,None,1023.6558950999752,None,1023.6558950999752,None,n,1.0640482001472265,1023.6558950999752,None,,,color19,001,2021_Nov_04_1055,ProdSingRedo,3.2.3,59.66010447609808,
,,,,40,0,40,0,,,,,,,,,,,,,,,,,,,,,,,,1029.559970199829,None,,,,,,,,,,,,,,,,,crowd,aloud,yellow,40,53,81,1025.2700395998545,None,1025.2700395998545,None,4,2.7855563999619335,1025.2700395998545,None,1028.0793539998122,None,1028.6128373998217,None,1028.6128373998217,None,f,0.9146799000445753,1028.6128373998217,None,,,color19,001,2021_Nov_04_1055,ProdSingRedo,3.2.3,59.66010447609808,
,,,,41,0,41,0,,,,,,,,,,,,,,,,,,,,,,,,1033.6342807000037,None,,,,,,,,,,,,,,,,,number,sing,red,41,11,203,1030.0668237998616,None,1030.0668237998616,None,3,2.7891347999684513,1030.0668237998616,None,1032.9051214999054,None,1033.4229277998675,None,1033.4229277998675,None,n,0.17700150003656745,1033.4229277998675,None,,,color19,001,2021_Nov_04_1055,ProdSingRedo,3.2.3,59.66010447609808,
,,,,42,0,42,0,,,,,,,,,,,,,,,,,,,,,,,,1038.289000699995,None,,,,,,,,,,,,,,,,,straight,new_aloud,yellow,42,137,307,1034.1701836998109,None,1034.1701836998109,None,2,2.6297144000418484,1034.1701836998109,None,1036.852268899791,None,1037.3806473999284,None,1037.3806473999284,None,n,0.8672619999852031,1037.3806473999284,None,,,color19,001,2021_Nov_04_1055,ProdSingRedo,3.2.3,59.66010447609808,
,,,,43,0,43,0,,,,,,,,,,,,,,,,,,,,,,,,1043.020242099883,None,,,,,,,,,,,,,,,,,appeal,new_aloud,yellow,43,121,9,1038.815824399935,None,1038.815824399935,None,1,3.1444667000323534,1038.815824399935,None,1042.0021171998233,None,1042.5240831999108,None,1042.5240831999108,None,n,0.45978499995544553,1042.5240831999108,None,,,color19,001,2021_Nov_04_1055,ProdSingRedo,3.2.3,59.66010447609808,
,,,,44,0,44,0,,,,,,,,,,,,,,,,,,,,,,,,1047.2872746000066,None,,,,,,,,,,,,,,,,,still,new_silent,blue,44,165,304,1043.5304550998844,None,1043.5304550998844,None,3,2.7574875000864267,1043.5304550998844,None,1046.331185199786,None,1046.85043459991,None,1046.85043459991,None,n,0.3974792000371963,1046.85043459991,None,,,color19,001,2021_Nov_04_1055,ProdSingRedo,3.2.3,59.66010447609808,
,,,,45,0,45,0,,,,,,,,,,,,,,,,,,,,,,,,1052.3403417000081,None,,,,,,,,,,,,,,,,,fight,sing,red,45,0,127,1047.8185148998164,None,1047.8185148998164,None,1,1.781421799911186,1047.8185148998164,None,1049.6545967999846,None,1050.1732541997917,None,1050.1732541997917,None,n,2.130568200023845,1050.1732541997917,None,,,color19,001,2021_Nov_04_1055,ProdSingRedo,3.2.3,59.66010447609808,
,,,,46,0,46,0,,,,,,,,,,,,,,,,,,,,,,,,1057.091093099909,None,,,,,,,,,,,,,,,,,institute,new_sing,red,46,97,162,1052.8677803999744,None,1052.8677803999744,None,1,2.547822799999267,1052.8677803999744,None,1055.4619182997849,None,1055.963269899832,None,1055.963269899832,None,n,1.0926948001142591,1055.963269899832,None,,,color19,001,2021_Nov_04_1055,ProdSingRedo,3.2.3,59.66010447609808,
,,,,47,0,47,0,,,,,,,,,,,,,,,,,,,,,,,,1060.9544369999785,None,,,,,,,,,,,,,,,,,addition,new_silent,blue,47,171,2,1057.6111658997834,None,1057.6111658997834,None,3,2.388877399964258,1057.6111658997834,None,1060.0514540998265,None,1060.5727911998983,None,1060.5727911998983,None,n,0.35531429992988706,1060.5727911998983,None,,,color19,001,2021_Nov_04_1055,ProdSingRedo,3.2.3,59.66010447609808,
,,,,48,0,48,0,,,,,,,,,,,,,,,,,,,,,,,,1066.904437399935,None,,,,,,,,,,,,,,,,,working,aloud,yellow,48,33,357,1061.4857921998482,None,1061.4857921998482,None,4,3.8981188000179827,1061.4857921998482,None,1065.4414770998992,None,1065.9611296998337,None,1065.9611296998337,None,f,0.9108287000562996,1065.9611296998337,None,,,color19,001,2021_Nov_04_1055,ProdSingRedo,3.2.3,59.66010447609808,
,,,,49,0,49,0,,,,,,,,,,,,,,,,,,,,,,,,1070.973683099961,None,,,,,,,,,,,,,,,,,shear,new_sing,red,49,105,283,1067.431131699821,None,1067.431131699821,None,1,1.62475540000014,1067.431131699821,None,1069.0999258998781,None,1069.6235235999338,None,1069.6235235999338,None,n,1.3210058000404388,1069.6235235999338,None,,,color19,001,2021_Nov_04_1055,ProdSingRedo,3.2.3,59.66010447609808,
,,,,50,0,50,0,,,,,,,,,,,,,,,,,,,,,,,,1075.1750047998503,None,,,,,,,,,,,,,,,,,court,aloud,yellow,50,30,75,1071.4958956998307,None,1071.4958956998307,None,2,2.903950500069186,1071.4958956998307,None,1074.4609795999713,None,1074.9728843998164,None,1074.9728843998164,None,n,0.17193069984205067,1074.9728843998164,None,,,color19,001,2021_Nov_04_1055,ProdSingRedo,3.2.3,59.66010447609808,
,,,,51,0,51,0,,,,,,,,,,,,,,,,,,,,,,,,1079.5571084998082,None,,,,,,,,,,,,,,,,,beginning,new_silent,blue,51,173,19,1075.6981236999854,None,1075.6981236999854,None,3,3.2218531002290547,1075.6981236999854,None,1078.9684158999007,None,1079.4956821999513,None,1079.4956821999513,None,n,0.0325702999252826,1079.4956821999513,None,,,color19,001,2021_Nov_04_1055,ProdSingRedo,3.2.3,59.66010447609808,
,,,,52,0,52,0,,,,,,,,,,,,,,,,,,,,,,,,1082.5895547999535,None,,,,,,,,,,,,,,,,,trend,new_sing,red,52,99,340,1080.0786881998647,None,1080.0786881998647,None,1,1.5374574000015855,1080.0786881998647,None,1081.6643762998283,None,1082.1736505997833,None,1082.1736505997833,None,n,0.38629120006226003,1082.1736505997833,None,,,color19,001,2021_Nov_04_1055,ProdSingRedo,3.2.3,59.66010447609808,
,,,,53,0,53,0,,,,,,,,,,,,,,,,,,,,,,,,1085.6144479999784,None,,,,,,,,,,,,,,,,,shape,new_sing,red,53,93,282,1083.1159166998696,None,1083.1159166998696,None,1,1.4842807999812067,1083.1159166998696,None,1084.6553334998898,None,1085.1760425998364,None,1085.1760425998364,None,n,0.41558799985796213,1085.1760425998364,None,,,color19,001,2021_Nov_04_1055,ProdSingRedo,3.2.3,59.66010447609808,
,,,,54,0,54,0,,,,,,,,,,,,,,,,,,,,,,,,1087.6411762000062,None,,,,,,,,,,,,,,,,,carry,new_sing,red,54,111,43,1086.1310455999337,None,1086.1310455999337,None,1,0.6928650999907404,1086.1310455999337,None,1086.8757321999874,None,1087.393308099825,None,1087.393308099825,None,n,0.21464400016702712,1087.393308099825,None,,,color19,001,2021_Nov_04_1055,ProdSingRedo,3.2.3,59.66010447609808,
,,,,55,0,55,0,,,,,,,,,,,,,,,,,,,,,,,,1093.0164412998129,None,,,,,,,,,,,,,,,,,quarter,sing,red,55,26,246,1088.1677119999658,None,1088.1677119999658,None,5,3.3998830001801252,1088.1677119999658,None,1091.6000272999518,None,1092.1154722999781,None,1092.1154722999781,None,f,0.8842939999885857,1092.1154722999781,None,,,color19,001,2021_Nov_04_1055,ProdSingRedo,3.2.3,59.66010447609808,
,,,,56,0,56,0,,,,,,,,,,,,,,,,,,,,,,,,1101.4418144999072,None,,,,,,,,,,,,,,,,,reading,aloud,yellow,56,57,254,1093.5467620999552,None,1093.5467620999552,None,4,6.853117199847475,1093.5467620999552,None,1100.4439273998141,None,1100.9652239999268,None,1100.9652239999268,None,f,0.44272940000519156,1100.9652239999268,None,,,color19,001,2021_Nov_04_1055,ProdSingRedo,3.2.3,59.66010447609808,
,,,,57,0,57,0,,,,,,,,,,,,,,,,,,,,,,,,1104.9962517998647,None,,,,,,,,,,,,,,,,,strain,sing,red,57,5,308,1101.9710801998153,None,1101.9710801998153,None,1,1.4450530000030994,1101.9710801998153,None,1103.4531340999529,None,1103.9769197998103,None,1103.9769197998103,None,n,0.9751880001276731,1103.9769197998103,None,,,color19,001,2021_Nov_04_1055,ProdSingRedo,3.2.3,59.66010447609808,
,,,,58,0,58,0,,,,,,,,,,,,,,,,,,,,,,,,1108.0781694999896,None,,,,,,,,,,,,,,,,,budget,new_aloud,yellow,58,135,34,1105.5064733999316,None,1105.5064733999316,None,1,1.7655515000224113,1105.5064733999316,None,1107.3186694998294,None,1107.8462492998224,None,1107.8462492998224,None,n,0.20178200001828372,1107.8462492998224,None,,,color19,001,2021_Nov_04_1055,ProdSingRedo,3.2.3,59.66010447609808,
,,,,59,0,59,0,,,,,,,,,,,,,,,,,,,,,,,,1111.9247286999598,None,,,,,,,,,,,,,,,,,cross,new_silent,blue,59,178,80,1108.5983070000075,None,1108.5983070000075,None,1,1.7136218999512494,1108.5983070000075,None,1110.3487241999246,None,1110.8627264997922,None,1110.8627264997922,None,n,1.033377500018105,1110.8627264997922,None,,,color19,001,2021_Nov_04_1055,ProdSingRedo,3.2.3,59.66010447609808,
,,,,60,0,60,0,,,,,,,,,,,,,,,,,,,,,,,,1113.7677170999814,None,,,,,,,,,,,,,,,,,tennis,new_silent,blue,60,169,323,1112.4454245998058,None,1112.4454245998058,None,1,0.7306364001706243,1112.4454245998058,None,1113.2094990999904,None,1113.723761399975,None,1113.723761399975,None,n,0.004024399910122156,1113.723761399975,None,,,color19,001,2021_Nov_04_1055,ProdSingRedo,3.2.3,59.66010447609808,
,,,,61,0,61,0,,,,,,,,,,,,,,,,,,,,,,,,1116.6085869998205,None,,,,,,,,,,,,,,,,,threat,aloud,yellow,61,41,329,1114.3022300999146,None,1114.3022300999146,None,1,1.4574637000914663,1114.3022300999146,None,1115.7889728997834,None,1116.3116450000089,None,1116.3116450000089,None,n,0.27223869995214045,1116.3116450000089,None,,,color19,001,2021_Nov_04_1055,ProdSingRedo,3.2.3,59.66010447609808,
,,,,62,0,62,0,,,,,,,,,,,,,,,,,,,,,,,,1120.192984599853,None,,,,,,,,,,,,,,,,,meeting,aloud,yellow,62,55,187,1117.1298702999484,None,1117.1298702999484,None,5,1.838156299898401,1117.1298702999484,None,1119.0093942999374,None,1119.5172089999542,None,1119.5172089999542,None,f,0.6506884000264108,1119.5172089999542,None,,,color19,001,2021_Nov_04_1055,ProdSingRedo,3.2.3,59.66010447609808,
,,,,63,0,63,0,,,,,,,,,,,,,,,,,,,,,,,,1122.7087075999007,None,,,,,,,,,,,,,,,,,motion,new_silent,blue,63,167,194,1120.7138402999844,None,1120.7138402999844,None,1,1.3188249999657273,1120.7138402999844,None,1122.0735678998753,None,1122.5901112998836,None,1122.5901112998836,None,n,0.08993279980495572,1122.5901112998836,None,,,color19,001,2021_Nov_04_1055,ProdSingRedo,3.2.3,59.66010447609808,
,,,,64,0,64,0,,,,,,,,,,,,,,,,,,,,,,,,1127.8292977998499,None,,,,,,,,,,,,,,,,,light,silent,blue,64,60,171,1123.2381071997806,None,1123.2381071997806,None,1,2.034173799911514,1123.2381071997806,None,1125.3256072998047,None,1125.847416399978,None,1125.847416399978,None,n,1.9526210001204163,1125.847416399978,None,,,color19,001,2021_Nov_04_1055,ProdSingRedo,3.2.3,59.66010447609808,
,,,,65,0,65,0,,,,,,,,,,,,,,,,,,,,,,,,1132.692245299928,None,,,,,,,,,,,,,,,,,design,aloud,yellow,65,36,91,1128.352760499809,None,1128.352760499809,None,5,2.4798507001250982,1128.352760499809,None,1130.8688644999638,None,1131.3841382998507,None,1131.3841382998507,None,r,1.2719523999840021,1131.3841382998507,None,,,color19,001,2021_Nov_04_1055,ProdSingRedo,3.2.3,59.66010447609808,
,,,,66,0,66,0,,,,,,,,,,,,,,,,,,,,,,,,1140.2779710998293,None,,,,,,,,,,,,,,,,,interview,new_silent,blue,66,151,165,1133.2240644998383,None,1133.2240644998383,None,4,5.687952100066468,1133.2240644998383,None,1138.9636708998587,None,1139.4693050999194,None,1139.4693050999194,None,f,0.7706697001121938,1139.4693050999194,None,,,color19,001,2021_Nov_04_1055,ProdSingRedo,3.2.3,59.66010447609808,
,,,,67,0,67,0,,,,,,,,,,,,,,,,,,,,,,,,1143.716306499904,None,,,,,,,,,,,,,,,,,society,silent,blue,67,74,293,1140.8030273998156,None,1140.8030273998156,None,2,1.7569474000483751,1140.8030273998156,None,1142.6015210999176,None,1143.1157372999005,None,1143.1157372999005,None,n,0.5562381998170167,1143.1157372999005,None,,,color19,001,2021_Nov_04_1055,ProdSingRedo,3.2.3,59.66010447609808,
,,,,68,0,68,0,,,,,,,,,,,,,,,,,,,,,,,,1149.1381754998583,None,,,,,,,,,,,,,,,,,dream,aloud,yellow,68,34,104,1144.23585930001,None,1144.23585930001,None,4,3.4682579000946134,1144.23585930001,None,1147.7556509999558,None,1148.2799619999714,None,1148.2799619999714,None,f,0.8239130000583827,1148.2799619999714,None,,,color19,001,2021_Nov_04_1055,ProdSingRedo,3.2.3,59.66010447609808,
,,,,69,0,69,0,,,,,,,,,,,,,,,,,,,,,,,,1154.8144327998161,None,,,,,,,,,,,,,,,,,smell,new_silent,blue,69,162,291,1149.6617058999836,None,1149.6617058999836,None,4,3.882374000037089,1149.6617058999836,None,1153.5885611998383,None,1154.101559799863,None,1154.101559799863,None,f,0.6826096998993307,1154.101559799863,None,,,color19,001,2021_Nov_04_1055,ProdSingRedo,3.2.3,59.66010447609808,
,,,,70,0,70,0,,,,,,,,,,,,,,,,,,,,,,,,1158.6779421998654,None,,,,,,,,,,,,,,,,,broke,aloud,yellow,70,45,32,1155.3197218999267,None,1155.3197218999267,None,2,2.408096299972385,1155.3197218999267,None,1157.7703377997968,None,1158.29133609985,None,1158.29133609985,None,n,0.3566252999007702,1158.29133609985,None,,,color19,001,2021_Nov_04_1055,ProdSingRedo,3.2.3,59.66010447609808,
,,,,71,0,71,0,,,,,,,,,,,,,,,,,,,,,,,,1167.0296681998298,None,,,,,,,,,,,,,,,,,couch,new_silent,blue,71,177,70,1159.205037199892,None,1159.205037199892,None,5,4.250954299932346,1159.205037199892,None,1163.5126983998343,None,1164.0299738999456,None,1164.0299738999456,None,r,2.9619748999830335,1164.0299738999456,None,,,color19,001,2021_Nov_04_1055,ProdSingRedo,3.2.3,59.66010447609808,
,,,,72,0,72,0,,,,,,,,,,,,,,,,,,,,,,,,1171.0656275998335,None,,,,,,,,,,,,,,,,,sunset,silent,blue,72,70,315,1167.547230699798,None,1167.547230699798,None,2,1.9407422998920083,1167.547230699798,None,1169.5305202999152,None,1170.0477883999702,None,1170.0477883999702,None,n,0.984212800161913,1170.0477883999702,None,,,color19,001,2021_Nov_04_1055,ProdSingRedo,3.2.3,59.66010447609808,
,,,,73,0,73,0,,,,,,,,,,,,,,,,,,,,,,,,1175.8878972998355,None,,,,,,,,,,,,,,,,,pretty,sing,red,73,6,233,1171.5881054999772,None,1171.5881054999772,None,6,2.939883300103247,1171.5881054999772,None,1174.5801715999842,None,1175.100430799881,None,1175.100430799881,None,r,0.763225199887529,1175.100430799881,None,,,color19,001,2021_Nov_04_1055,ProdSingRedo,3.2.3,59.66010447609808,
,,,,74,0,74,0,,,,,,,,,,,,,,,,,,,,,,,,1180.997622899944,None,,,,,,,,,,,,,,,,,travel,new_sing,red,74,114,338,1176.4105064999312,None,1176.4105064999312,None,4,3.158288100035861,1176.4105064999312,None,1179.6133777999785,None,1180.1361594998743,None,1180.1361594998743,None,f,0.8325567999854684,1180.1361594998743,None,,,color19,001,2021_Nov_04_1055,ProdSingRedo,3.2.3,59.66010447609808,
,,,,75,0,75,0,,,,,,,,,,,,,,,,,,,,,,,,1183.529366799863,None,,,,,,,,,,,,,,,,,fellow,sing,red,75,19,126,1181.5257338997908,None,1181.5257338997908,None,1,1.3063717000186443,1181.5257338997908,None,1182.8746473998763,None,1183.3972689998336,None,1183.3972689998336,None,n,0.09872669982723892,1183.3972689998336,None,,,color19,001,2021_Nov_04_1055,ProdSingRedo,3.2.3,59.66010447609808,
,,,,76,0,76,0,,,,,,,,,,,,,,,,,,,,,,,,1188.8809154999908,None,,,,,,,,,,,,,,,,,department,new_aloud,yellow,76,149,90,1184.0565903999377,None,1184.0565903999377,None,2,3.815366999944672,1184.0565903999377,None,1187.9051539998036,None,1188.4173698998056,None,1188.4173698998056,None,n,0.43859739997424185,1188.4173698998056,None,,,color19,001,2021_Nov_04_1055,ProdSingRedo,3.2.3,59.66010447609808,
,,,,77,0,77,0,,,,,,,,,,,,,,,,,,,,,,,,1192.2966151,None,,,,,,,,,,,,,,,,,route,new_aloud,yellow,77,148,267,1189.4004285999108,None,1189.4004285999108,None,2,1.3115672999992967,1189.4004285999108,None,1190.7635529998224,None,1191.282031999901,None,1191.282031999901,None,n,0.9902220000512898,1191.282031999901,None,,,color19,001,2021_Nov_04_1055,ProdSingRedo,3.2.3,59.66010447609808,
,,,,78,0,78,0,,,,,,,,,,,,,,,,,,,,,,,,1198.9007378998213,None,,,,,,,,,,,,,,,,,leader,silent,blue,78,66,168,1192.824196799891,None,1192.824196799891,None,3,4.519984300015494,1192.824196799891,None,1197.3967059999704,None,1197.9146172998007,None,1197.9146172998007,None,n,0.9494247999973595,1197.9146172998007,None,,,color19,001,2021_Nov_04_1055,ProdSingRedo,3.2.3,59.66010447609808,
,,,,79,0,79,0,,,,,,,,,,,,,,,,,,,,,,,,1202.7231188998558,None,,,,,,,,,,,,,,,,,vision,aloud,yellow,79,56,347,1199.4180609998293,None,1199.4180609998293,None,3,2.4219729998148978,1199.4180609998293,None,1201.8812009999529,None,1202.3994291999843,None,1202.3994291999843,None,n,0.29644110007211566,1202.3994291999843,None,,,color19,001,2021_Nov_04_1055,ProdSingRedo,3.2.3,59.66010447609808,
,,,,80,0,80,0,,,,,,,,,,,,,,,,,,,,,,,,1206.5143851998728,None,,,,,,,,,,,,,,,,,mechanical,silent,blue,80,86,185,1203.2382540998515,None,1203.2382540998515,None,2,2.3934485998470336,1203.2382540998515,None,1205.6646034999285,None,1206.1739870999008,None,1206.1739870999008,None,n,0.31395859993062913,1206.1739870999008,None,,,color19,001,2021_Nov_04_1055,ProdSingRedo,3.2.3,59.66010447609808,
,,,,81,0,81,0,,,,,,,,,,,,,,,,,,,,,,,,1209.3804272999987,None,,,,,,,,,,,,,,,,,orchestra,silent,blue,81,71,206,1207.0327770998701,None,1207.0327770998701,None,1,1.3672426999546587,1207.0327770998701,None,1208.448424999835,None,1208.9672344999854,None,1208.9672344999854,None,n,0.376953300088644,1208.9672344999854,None,,,color19,001,2021_Nov_04_1055,ProdSingRedo,3.2.3,59.66010447609808,
,,,,82,0,82,0,,,,,,,,,,,,,,,,,,,,,,,,1213.0495381997898,None,,,,,,,,,,,,,,,,,general,silent,blue,82,62,135,1209.9113340999465,None,1209.9113340999465,None,3,2.216745699988678,1209.9113340999465,None,1212.18203669996,None,1212.7023709998466,None,1212.7023709998466,None,n,0.31371690006926656,1212.7023709998466,None,,,color19,001,2021_Nov_04_1055,ProdSingRedo,3.2.3,59.66010447609808,
,,,,83,0,83,0,,,,,,,,,,,,,,,,,,,,,,,,1218.1996901999228,None,,,,,,,,,,,,,,,,,group,new_sing,red,83,110,143,1213.562829399947,None,1213.562829399947,None,3,3.1333687999285758,1213.562829399947,None,1216.750479299808,None,1217.267077199882,None,1217.267077199882,None,n,0.9010042001027614,1217.267077199882,None,,,color19,001,2021_Nov_04_1055,ProdSingRedo,3.2.3,59.66010447609808,
,,,,84,0,84,0,,,,,,,,,,,,,,,,,,,,,,,,1224.1159756998532,None,,,,,,,,,,,,,,,,,damage,silent,blue,84,77,83,1218.7147986998316,None,1218.7147986998316,None,4,4.5413278001360595,1218.7147986998316,None,1223.3000976999756,None,1223.8204450998455,None,1223.8204450998455,None,f,0.259641399839893,1223.8204450998455,None,,,color19,001,2021_Nov_04_1055,ProdSingRedo,3.2.3,59.66010447609808,
,,,,85,0,85,0,,,,,,,,,,,,,,,,,,,,,,,,1227.3173209999222,None,,,,,,,,,,,,,,,,,country,new_silent,blue,85,150,73,1224.6499964999966,None,1224.6499964999966,None,2,1.662153200013563,1224.6499964999966,None,1226.3777486998588,None,1226.8879435998388,None,1226.8879435998388,None,n,0.39209580002352595,1226.8879435998388,None,,,color19,001,2021_Nov_04_1055,ProdSingRedo,3.2.3,59.66010447609808,
,,,,86,0,86,0,,,,,,,,,,,,,,,,,,,,,,,,1231.4251816999167,None,,,,,,,,,,,,,,,,,engineer,silent,blue,86,65,114,1227.8433067000005,None,1227.8433067000005,None,3,2.788668100023642,1227.8433067000005,None,1230.679519199999,None,1231.2068159999326,None,1231.2068159999326,None,n,0.1930744000710547,1231.2068159999326,None,,,color19,001,2021_Nov_04_1055,ProdSingRedo,3.2.3,59.66010447609808,
,,,,87,0,87,0,,,,,,,,,,,,,,,,,,,,,,,,1235.2025069999509,None,,,,,,,,,,,,,,,,,benefit,new_silent,blue,87,163,20,1231.941997999791,None,1231.941997999791,None,3,2.114383599953726,1231.941997999791,None,1234.098959799856,None,1234.6223435997963,None,1234.6223435997963,None,n,0.545662899967283,1234.6223435997963,None,,,color19,001,2021_Nov_04_1055,ProdSingRedo,3.2.3,59.66010447609808,
,,,,88,0,88,0,,,,,,,,,,,,,,,,,,,,,,,,1237.434878199827,None,,,,,,,,,,,,,,,,,produce,new_silent,blue,88,158,239,1235.7105462998152,None,1235.7105462998152,None,3,1.049711300060153,1235.7105462998152,None,1236.815723599866,None,1237.3382766998839,None,1237.3382766998839,None,n,0.06186000001616776,1237.3382766998839,None,,,color19,001,2021_Nov_04_1055,ProdSingRedo,3.2.3,59.66010447609808,
,,,,89,0,89,0,,,,,,,,,,,,,,,,,,,,,,,,1242.9334280998446,None,,,,,,,,,,,,,,,,,direction,new_aloud,yellow,89,127,94,1237.965023299912,None,1237.965023299912,None,3,3.4914027999620885,1237.965023299912,None,1241.4871308999136,None,1242.0074825999327,None,1242.0074825999327,None,n,0.8887390000745654,1242.0074825999327,None,,,color19,001,2021_Nov_04_1055,ProdSingRedo,3.2.3,59.66010447609808,
,,,,90,0,90,0,,,,,,,,,,,,,,,,,,,,,,,,1247.0516458000056,None,,,,,,,,,,,,,,,,,error,new_aloud,yellow,90,132,117,1243.4545578998514,None,1243.4545578998514,None,3,2.1214308000635356,1243.4545578998514,None,1245.6115723999683,None,1246.13167849998,None,1246.13167849998,None,n,0.8928306999150664,1246.13167849998,None,,,color19,001,2021_Nov_04_1055,ProdSingRedo,3.2.3,59.66010447609808,
,,,,91,0,91,0,,,,,,,,,,,,,,,,,,,,,,,,1251.2266881999094,None,,,,,,,,,,,,,,,,,graduate,new_aloud,yellow,91,146,141,1247.5831096000038,None,1247.5831096000038,None,4,2.83293450018391,1247.5831096000038,None,1250.472236600006,None,1250.991098499857,None,1250.991098499857,None,f,0.20880239992402494,1250.991098499857,None,,,color19,001,2021_Nov_04_1055,ProdSingRedo,3.2.3,59.66010447609808,
,,,,92,0,92,0,,,,,,,,,,,,,,,,,,,,,,,,1256.3855597998481,None,,,,,,,,,,,,,,,,,brilliant,sing,red,92,27,30,1251.740638999967,None,1251.740638999967,None,5,3.0675717999693006,1251.740638999967,None,1254.8553560997825,None,1255.37353969994,None,1255.37353969994,None,f,0.9785309000872076,1255.37353969994,None,,,color19,001,2021_Nov_04_1055,ProdSingRedo,3.2.3,59.66010447609808,
,,,,93,0,93,0,,,,,,,,,,,,,,,,,,,,,,,,1260.4017827999778,None,,,,,,,,,,,,,,,,,author,aloud,yellow,93,47,15,1256.9095040999819,None,1256.9095040999819,None,5,2.2185204999987036,1256.9095040999819,None,1259.1835393998772,None,1259.7022929999512,None,1259.7022929999512,None,f,0.6738808997906744,1259.7022929999512,None,,,color19,001,2021_Nov_04_1055,ProdSingRedo,3.2.3,59.66010447609808,
,,,,94,0,94,0,,,,,,,,,,,,,,,,,,,,,,,,1264.285008699866,None,,,,,,,,,,,,,,,,,quiet,aloud,yellow,94,38,249,1260.929792799987,None,1260.929792799987,None,4,2.3662055998574942,1260.929792799987,None,1263.3481534998864,None,1263.872019900009,None,1263.872019900009,None,n,0.3840392001438886,1263.872019900009,None,,,color19,001,2021_Nov_04_1055,ProdSingRedo,3.2.3,59.66010447609808,
,,,,95,0,95,0,,,,,,,,,,,,,,,,,,,,,,,,1270.0525160999969,None,,,,,,,,,,,,,,,,,thing,new_sing,red,95,118,328,1264.8090096998494,None,1264.8090096998494,None,1,4.375030300114304,1264.8090096998494,None,1269.233782999916,None,1269.7529062998947,None,1269.7529062998947,None,n,0.27172039984725416,1269.7529062998947,None,,,color19,001,2021_Nov_04_1055,ProdSingRedo,3.2.3,59.66010447609808,
,,,,96,0,96,0,,,,,,,,,,,,,,,,,,,,,,,,1275.9533220999874,None,,,,,,,,,,,,,,,,,murder,aloud,yellow,96,42,195,1270.576139499899,None,1270.576139499899,None,3,4.391940699890256,1270.576139499899,None,1275.0193374999799,None,1275.5278115998954,None,1275.5278115998954,None,n,0.40043779998086393,1275.5278115998954,None,,,color19,001,2021_Nov_04_1055,ProdSingRedo,3.2.3,59.66010447609808,
,,,,97,0,97,0,,,,,,,,,,,,,,,,,,,,,,,,1280.1058227999602,None,,,,,,,,,,,,,,,,,little,new_sing,red,97,109,174,1276.4744221,None,1276.4744221,None,1,1.9342988999560475,1276.4744221,None,1278.4491003998555,None,1278.9683834998868,None,1278.9683834998868,None,n,1.1037306999787688,1278.9683834998868,None,,,color19,001,2021_Nov_04_1055,ProdSingRedo,3.2.3,59.66010447609808,
,,,,98,0,98,0,,,,,,,,,,,,,,,,,,,,,,,,1287.0728300998453,None,,,,,,,,,,,,,,,,,hunger,new_silent,blue,98,164,155,1280.6186474999413,None,1280.6186474999413,None,3,5.653585999971256,1280.6186474999413,None,1286.31115759979,None,1286.81539649982,None,1286.81539649982,None,n,0.21682179998606443,1286.81539649982,None,,,color19,001,2021_Nov_04_1055,ProdSingRedo,3.2.3,59.66010447609808,
,,,,99,0,99,0,,,,,,,,,,,,,,,,,,,,,,,,1293.9380901998375,None,,,,,,,,,,,,,,,,,member,silent,blue,99,85,188,1287.598336899886,None,1287.598336899886,None,5,3.1945839000400156,1287.598336899886,None,1290.8393897998612,None,1291.3573296999093,None,1291.3573296999093,None,f,2.5547828001435846,1291.3573296999093,None,,,color19,001,2021_Nov_04_1055,ProdSingRedo,3.2.3,59.66010447609808,
,,,,100,0,100,0,,,,,,,,,,,,,,,,,,,,,,,,1298.235411199974,None,,,,,,,,,,,,,,,,,native,aloud,yellow,100,50,199,1294.4622103997972,None,1294.4622103997972,None,2,2.9059663000516593,1294.4622103997972,None,1297.4230246997904,None,1297.9440016997978,None,1297.9440016997978,None,n,0.26415699999779463,1297.9440016997978,None,,,color19,001,2021_Nov_04_1055,ProdSingRedo,3.2.3,59.66010447609808,
,,,,101,0,101,0,,,,,,,,,,,,,,,,,,,,,,,,1302.20460669999,None,,,,,,,,,,,,,,,,,build,silent,blue,101,69,35,1298.7615237999707,None,1298.7615237999707,None,3,2.6384699000045657,1298.7615237999707,None,1301.4488183998037,None,1301.9719068999402,None,1301.9719068999402,None,n,0.19620299991220236,1301.9719068999402,None,,,color19,001,2021_Nov_04_1055,ProdSingRedo,3.2.3,59.66010447609808,
,,,,102,0,102,0,,,,,,,,,,,,,,,,,,,,,,,,1306.0547826997936,None,,,,,,,,,,,,,,,,,tragedy,aloud,yellow,102,59,335,1302.7355835998897,None,1302.7355835998897,None,2,2.1844918997958302,1302.7355835998897,None,1304.9743642997928,None,1305.4931374997832,None,1305.4931374997832,None,n,0.5311239000875503,1305.4931374997832,None,,,color19,001,2021_Nov_04_1055,ProdSingRedo,3.2.3,59.66010447609808,
,,,,103,0,103,0,,,,,,,,,,,,,,,,,,,,,,,,1309.755223999964,None,,,,,,,,,,,,,,,,,production,aloud,yellow,103,46,240,1306.5819207997993,None,1306.5819207997993,None,3,2.4339449999388307,1306.5819207997993,None,1309.0664673999418,None,1309.594111799961,None,1309.594111799961,None,n,0.1344498998951167,1309.594111799961,None,,,color19,001,2021_Nov_04_1055,ProdSingRedo,3.2.3,59.66010447609808,
,,,,104,0,104,0,,,,,,,,,,,,,,,,,,,,,,,,1314.275095099816,None,,,,,,,,,,,,,,,,,government,new_sing,red,104,108,139,1310.2870530998334,None,1310.2870530998334,None,1,2.905051799956709,1310.2870530998334,None,1313.2443535998464,None,1313.7611193999182,None,1313.7611193999182,None,n,0.47897100006230175,1313.7611193999182,None,,,color19,001,2021_Nov_04_1055,ProdSingRedo,3.2.3,59.66010447609808,
,,,,105,0,105,0,,,,,,,,,,,,,,,,,,,,,,,,1320.0549964997917,None,,,,,,,,,,,,,,,,,place,sing,red,105,22,222,1314.7963740997948,None,1314.7963740997948,None,6,4.499613800086081,1314.7963740997948,None,1319.3225958999246,None,1319.8406420999672,None,1319.8406420999672,None,f,0.1753869999665767,1319.8406420999672,None,,,color19,001,2021_Nov_04_1055,ProdSingRedo,3.2.3,59.66010447609808,
,,,,106,0,106,0,,,,,,,,,,,,,,,,,,,,,,,,1323.7549321998376,None,,,,,,,,,,,,,,,,,scene,new_aloud,yellow,106,143,273,1320.5799561999738,None,1320.5799561999738,None,2,2.4761588000692427,1320.5799561999738,None,1323.1023607999086,None,1323.6194246998057,None,1323.6194246998057,None,n,0.10068560019135475,1323.6194246998057,None,,,color19,001,2021_Nov_04_1055,ProdSingRedo,3.2.3,59.66010447609808,
,,,,107,0,107,0,,,,,,,,,,,,,,,,,,,,,,,,1331.8251422999892,None,,,,,,,,,,,,,,,,,pressure,new_sing,red,107,96,232,1324.2820124998689,None,1324.2820124998689,None,2,5.966285899979994,1324.2820124998689,None,1330.2938289998565,None,1330.8091332998592,None,1330.8091332998592,None,n,0.9830857999622822,1330.8091332998592,None,,,color19,001,2021_Nov_04_1055,ProdSingRedo,3.2.3,59.66010447609808,
,,,,108,0,108,0,,,,,,,,,,,,,,,,,,,,,,,,1337.0401903998572,None,,,,,,,,,,,,,,,,,discussion,new_aloud,yellow,108,124,96,1332.3592475999612,None,1332.3592475999612,None,4,3.7049152001272887,1332.3592475999612,None,1336.1073632999323,None,1336.6269707998727,None,1336.6269707998727,None,n,0.38908899994567037,1336.6269707998727,None,,,color19,001,2021_Nov_04_1055,ProdSingRedo,3.2.3,59.66010447609808,
,,,,109,0,109,0,,,,,,,,,,,,,,,,,,,,,,,,1345.3941596997902,None,,,,,,,,,,,,,,,,,religion,silent,blue,109,89,258,1337.556522199884,None,1337.556522199884,None,4,6.7238573001232,1337.556522199884,None,1344.3255995998625,None,1344.8454200997949,None,1344.8454200997949,None,f,0.5148080000653863,1344.8454200997949,None,,,color19,001,2021_Nov_04_1055,ProdSingRedo,3.2.3,59.66010447609808,
,,,,110,0,110,0,,,,,,,,,,,,,,,,,,,,,,,,1348.8419832999352,None,,,,,,,,,,,,,,,,,growth,silent,blue,110,68,144,1345.9179999998305,None,1345.9179999998305,None,4,2.1221342000644654,1345.9179999998305,None,1348.0901218999643,None,1348.6018511999864,None,1348.6018511999864,None,f,0.19031769991852343,1348.6018511999864,None,,,color19,001,2021_Nov_04_1055,ProdSingRedo,3.2.3,59.66010447609808,
,,,,111,0,111,0,,,,,,,,,,,,,,,,,,,,,,,,1352.313075499842,None,,,,,,,,,,,,,,,,,taste,silent,blue,111,81,322,1349.3705290998332,None,1349.3705290998332,None,3,1.5976122000720352,1349.3705290998332,None,1351.0163700999692,None,1351.5302470999304,None,1351.5302470999304,None,f,0.7420506998896599,1351.5302470999304,None,,,color19,001,2021_Nov_04_1055,ProdSingRedo,3.2.3,59.66010447609808,
,,,,112,0,112,0,,,,,,,,,,,,,,,,,,,,,,,,1358.6514771999791,None,,,,,,,,,,,,,,,,,colonel,silent,blue,112,78,55,1352.8321934998967,None,1352.8321934998967,None,2,4.9601791999302804,1352.8321934998967,None,1357.8382388998289,None,1358.3570256999228,None,1358.3570256999228,None,n,0.2750090998597443,1358.3570256999228,None,,,color19,001,2021_Nov_04_1055,ProdSingRedo,3.2.3,59.66010447609808,
,,,,113,0,113,0,,,,,,,,,,,,,,,,,,,,,,,,1361.3342457998078,None,,,,,,,,,,,,,,,,,attack,silent,blue,113,67,13,1359.176643599989,None,1359.176643599989,None,2,1.0156610000412911,1359.176643599989,None,1360.2384675999638,None,1360.7621781998314,None,1360.7621781998314,None,n,0.5417679999954998,1360.7621781998314,None,,,color19,001,2021_Nov_04_1055,ProdSingRedo,3.2.3,59.66010447609808,
,,,,114,0,114,0,,,,,,,,,,,,,,,,,,,,,,,,1365.2261840999126,None,,,,,,,,,,,,,,,,,opening,new_sing,red,114,117,205,1361.8532824998256,None,1361.8532824998256,None,1,2.5388999998103827,1361.8532824998256,None,1364.4411538999993,None,1364.960289399838,None,1364.960289399838,None,n,0.2318616001866758,1364.960289399838,None,,,color19,001,2021_Nov_04_1055,ProdSingRedo,3.2.3,59.66010447609808,
,,,,115,0,115,0,,,,,,,,,,,,,,,,,,,,,,,,1369.20997599978,None,,,,,,,,,,,,,,,,,season,sing,red,115,16,277,1365.7573932998348,None,1365.7573932998348,None,1,2.594757799990475,1365.7573932998348,None,1368.3837620997801,None,1368.9004369999748,None,1368.9004369999748,None,n,0.27583259996026754,1368.9004369999748,None,,,color19,001,2021_Nov_04_1055,ProdSingRedo,3.2.3,59.66010447609808,
,,,,116,0,116,0,,,,,,,,,,,,,,,,,,,,,,,,1373.4623105998617,None,,,,,,,,,,,,,,,,,property,new_sing,red,116,107,242,1369.7352434999775,None,1369.7352434999775,None,3,1.6649578001815826,1369.7352434999775,None,1371.441468999954,None,1371.9623245999683,None,1371.9623245999683,None,n,1.4617709000594914,1371.9623245999683,None,,,color19,001,2021_Nov_04_1055,ProdSingRedo,3.2.3,59.66010447609808,
,,,,117,0,117,0,,,,,,,,,,,,,,,,,,,,,,,,1377.6930603999645,None,,,,,,,,,,,,,,,,,medicine,new_sing,red,117,113,186,1373.9834082999732,None,1373.9834082999732,None,3,3.0247438000515103,1373.9834082999732,None,1377.0498959999532,None,1377.562636999879,None,1377.562636999879,None,n,0.10150200012139976,1377.562636999879,None,,,color19,001,2021_Nov_04_1055,ProdSingRedo,3.2.3,59.66010447609808,
,,,,118,0,118,0,,,,,,,,,,,,,,,,,,,,,,,,1384.4598559997976,None,,,,,,,,,,,,,,,,,revolution,new_aloud,yellow,118,123,264,1378.2193062999286,None,1378.2193062999286,None,3,5.389017399866134,1378.2193062999286,None,1383.6700548999943,None,1384.183582099853,None,1384.183582099853,None,n,0.24056329997256398,1384.183582099853,None,,,color19,001,2021_Nov_04_1055,ProdSingRedo,3.2.3,59.66010447609808,
,,,,119,0,119,0,,,,,,,,,,,,,,,,,,,,,,,,1387.610958199948,None,,,,,,,,,,,,,,,,,crisis,new_aloud,yellow,119,125,79,1384.9819740999956,None,1384.9819740999956,None,2,1.8421620998997241,1384.9819740999956,None,1386.8721047998406,None,1387.3914713999256,None,1387.3914713999256,None,n,0.19279900006949902,1387.3914713999256,None,,,color19,001,2021_Nov_04_1055,ProdSingRedo,3.2.3,59.66010447609808,
,,,,120,0,120,0,,,,,,,,,,,,,,,,,,,,,,,,1390.8146406000014,None,,,,,,,,,,,,,,,,,surprise,new_aloud,yellow,120,142,317,1388.137820399832,None,1388.137820399832,None,2,1.8786362998653203,1388.137820399832,None,1390.0612824999262,None,1390.5775256999768,None,1390.5775256999768,None,n,0.20672499993816018,1390.5775256999768,None,,,color19,001,2021_Nov_04_1055,ProdSingRedo,3.2.3,59.66010447609808,
,,,,121,0,121,0,,,,,,,,,,,,,,,,,,,,,,,,1392.5460141999647,None,,,,,,,,,,,,,,,,,device,aloud,yellow,121,51,93,1391.3370077998843,None,1391.3370077998843,None,2,0.551158299902454,1391.3370077998843,None,1391.9419505000114,None,1392.4626303999685,None,1392.4626303999685,None,n,0.04964629979804158,1392.4626303999685,None,,,color19,001,2021_Nov_04_1055,ProdSingRedo,3.2.3,59.66010447609808,
,,,,122,0,122,0,,,,,,,,,,,,,,,,,,,,,,,,1398.3613827999216,None,,,,,,,,,,,,,,,,,victory,aloud,yellow,122,40,346,1393.0686839998234,None,1393.0686839998234,None,4,3.339450699975714,1393.0686839998234,None,1396.4624851997942,None,1396.9874473998789,None,1396.9874473998789,None,f,1.3489852999337018,1396.9874473998789,None,,,color19,001,2021_Nov_04_1055,ProdSingRedo,3.2.3,59.66010447609808,
,,,,123,0,123,0,,,,,,,,,,,,,,,,,,,,,,,,1402.3612442999147,None,,,,,,,,,,,,,,,,,prime,sing,red,123,18,235,1398.8822277998552,None,1398.8822277998552,None,2,2.7101286998949945,1398.8822277998552,None,1401.638835699996,None,1402.1581023999024,None,1402.1581023999024,None,n,0.1780983000062406,1402.1581023999024,None,,,color19,001,2021_Nov_04_1055,ProdSingRedo,3.2.3,59.66010447609808,
,,,,124,0,124,0,,,,,,,,,,,,,,,,,,,,,,,,1404.930115700001,None,,,,,,,,,,,,,,,,,material,sing,red,124,28,182,1402.8905805998947,None,1402.8905805998947,None,2,1.229728499893099,1402.8905805998947,None,1404.1719277999364,None,1404.7008513999172,None,1404.7008513999172,None,n,0.20326630002819002,1404.7008513999172,None,,,color19,001,2021_Nov_04_1055,ProdSingRedo,3.2.3,59.66010447609808,
,,,,125,0,125,0,,,,,,,,,,,,,,,,,,,,,,,,1408.7450990998186,None,,,,,,,,,,,,,,,,,angle,new_silent,blue,125,179,7,1405.4558493997902,None,1405.4558493997902,None,4,2.408139299834147,1405.4558493997902,None,1407.9084455999546,None,1408.414330799831,None,1408.414330799831,None,n,0.2978868999052793,1408.414330799831,None,,,color19,001,2021_Nov_04_1055,ProdSingRedo,3.2.3,59.66010447609808,
,,,,126,0,126,0,,,,,,,,,,,,,,,,,,,,,,,,1411.1695491999853,None,,,,,,,,,,,,,,,,,heavy,silent,blue,126,88,151,1409.2741201999597,None,1409.2741201999597,None,1,1.1819710000418127,1409.2741201999597,None,1410.5154459998012,None,1411.0312989999074,None,1411.0312989999074,None,n,0.12074830010533333,1411.0312989999074,None,,,color19,001,2021_Nov_04_1055,ProdSingRedo,3.2.3,59.66010447609808,
,,,,127,0,127,0,,,,,,,,,,,,,,,,,,,,,,,,1415.3361667999998,None,,,,,,,,,,,,,,,,,primary,sing,red,127,2,234,1411.6788573998492,None,1411.6788573998492,None,2,2.8334449999965727,1411.6788573998492,None,1414.5663885998074,None,1415.0863440998364,None,1415.0863440998364,None,n,0.22552420012652874,1415.0863440998364,None,,,color19,001,2021_Nov_04_1055,ProdSingRedo,3.2.3,59.66010447609808,
,,,,128,0,128,0,,,,,,,,,,,,,,,,,,,,,,,,1418.0465400000103,None,,,,,,,,,,,,,,,,,scale,new_sing,red,128,106,272,1415.8398472999688,None,1415.8398472999688,None,2,1.5450774999335408,1415.8398472999688,None,1417.4253204998095,None,1417.9474193998612,None,1417.9474193998612,None,n,0.06867550010792911,1417.9474193998612,None,,,color19,001,2021_Nov_04_1055,ProdSingRedo,3.2.3,59.66010447609808,
,,,,129,0,129,0,,,,,,,,,,,,,,,,,,,,,,,,1422.098752899794,None,,,,,,,,,,,,,,,,,region,new_silent,blue,129,156,256,1418.57380439993,None,1418.57380439993,None,4,2.338359300047159,1418.57380439993,None,1420.9663380999118,None,1421.4996917999815,None,1421.4996917999815,None,f,0.5567063998896629,1421.4996917999815,None,,,color19,001,2021_Nov_04_1055,ProdSingRedo,3.2.3,59.66010447609808,
,,,,130,0,130,0,,,,,,,,,,,,,,,,,,,,,,,,1429.197270500008,None,,,,,,,,,,,,,,,,,private,silent,blue,130,80,237,1422.6210508998483,None,1422.6210508998483,None,3,5.45913750003092,1422.6210508998483,None,1428.1331441998482,None,1428.6524697998539,None,1428.6524697998539,None,n,0.5165709999855608,1428.6524697998539,None,,,color19,001,2021_Nov_04_1055,ProdSingRedo,3.2.3,59.66010447609808,
,,,,131,0,131,0,,,,,,,,,,,,,,,,,,,,,,,,1432.7051921999082,None,,,,,,,,,,,,,,,,,atmosphere,new_aloud,yellow,131,134,12,1429.722049899865,None,1429.722049899865,None,1,2.0781300999224186,1429.722049899865,None,1431.8480238998309,None,1432.3663962997962,None,1432.3663962997962,None,n,0.3137165999505669,1432.3663962997962,None,,,color19,001,2021_Nov_04_1055,ProdSingRedo,3.2.3,59.66010447609808,
,,,,132,0,132,0,,,,,,,,,,,,,,,,,,,,,,,,1438.6219016998075,None,,,,,,,,,,,,,,,,,character,new_sing,red,132,102,46,1433.229967399966,None,1433.229967399966,None,5,3.1067196000367403,1433.229967399966,None,1436.3833121999633,None,1436.899859199999,None,1436.899859199999,None,r,1.6842815999407321,1436.899859199999,None,,,color19,001,2021_Nov_04_1055,ProdSingRedo,3.2.3,59.66010447609808,
,,,,133,0,133,0,,,,,,,,,,,,,,,,,,,,,,,,1444.2474604998715,None,,,,,,,,,,,,,,,,,count,new_sing,red,133,94,72,1439.1418368997984,None,1439.1418368997984,None,2,4.354180300142616,1439.1418368997984,None,1443.5235953999218,None,1444.040517799789,None,1444.040517799789,None,n,0.17579049989581108,1444.040517799789,None,,,color19,001,2021_Nov_04_1055,ProdSingRedo,3.2.3,59.66010447609808,
,,,,134,0,134,0,,,,,,,,,,,,,,,,,,,,,,,,1449.498854599893,None,,,,,,,,,,,,,,,,,object,aloud,yellow,134,35,204,1444.778117199894,None,1444.778117199894,None,4,3.1262294000480324,1444.778117199894,None,1447.9507559998892,None,1448.470246899873,None,1448.470246899873,None,f,0.9940097001381218,1448.470246899873,None,,,color19,001,2021_Nov_04_1055,ProdSingRedo,3.2.3,59.66010447609808,
,,,,135,0,135,0,,,,,,,,,,,,,,,,,,,,,,,,1453.698043699842,None,,,,,,,,,,,,,,,,,guide,aloud,yellow,135,37,147,1450.0194182998966,None,1450.0194182998966,None,2,2.4288159999996424,1450.0194182998966,None,1452.4958017999306,None,1453.0155098999385,None,1453.0155098999385,None,n,0.6567201998550445,1453.0155098999385,None,,,color19,001,2021_Nov_04_1055,ProdSingRedo,3.2.3,59.66010447609808,
,,,,136,0,136,0,,,,,,,,,,,,,,,,,,,,,,,,1456.531501499936,None,,,,,,,,,,,,,,,,,weather,new_aloud,yellow,136,141,352,1454.2188208999578,None,1454.2188208999578,None,1,1.3656957999337465,1454.2188208999578,None,1455.6470512999222,None,1456.142071899958,None,1456.142071899958,None,n,0.35410210001282394,1456.142071899958,None,,,color19,001,2021_Nov_04_1055,ProdSingRedo,3.2.3,59.66010447609808,
,,,,137,0,137,0,,,,,,,,,,,,,,,,,,,,,,,,1461.1227657999843,None,,,,,,,,,,,,,,,,,corner,new_aloud,yellow,137,140,69,1457.0530593998265,None,1457.0530593998265,None,1,3.091123699909076,1457.0530593998265,None,1460.1869451999664,None,1460.703824999975,None,1460.703824999975,None,n,0.3921206998638809,1460.703824999975,None,,,color19,001,2021_Nov_04_1055,ProdSingRedo,3.2.3,59.66010447609808,
,,,,138,0,138,0,,,,,,,,,,,,,,,,,,,,,,,,1464.6844833998475,None,,,,,,,,,,,,,,,,,relation,new_sing,red,138,104,257,1461.6423933999613,None,1461.6423933999613,None,1,2.0538965000305325,1461.6423933999613,None,1463.7495980998501,None,1464.2684949999675,None,1464.2684949999675,None,n,0.3797220999840647,1464.2684949999675,None,,,color19,001,2021_Nov_04_1055,ProdSingRedo,3.2.3,59.66010447609808,
,,,,139,0,139,0,,,,,,,,,,,,,,,,,,,,,,,,1468.2169722998515,None,,,,,,,,,,,,,,,,,trail,new_sing,red,139,112,336,1465.2094184998423,None,1465.2094184998423,None,2,2.3587984000332654,1465.2094184998423,None,1467.6179514999967,None,1468.1351427999325,None,1468.1351427999325,None,n,0.04111150000244379,1468.1351427999325,None,,,color19,001,2021_Nov_04_1055,ProdSingRedo,3.2.3,59.66010447609808,
,,,,140,0,140,0,,,,,,,,,,,,,,,,,,,,,,,,1472.1173066999763,None,,,,,,,,,,,,,,,,,expansion,silent,blue,140,84,123,1468.743224099977,None,1468.743224099977,None,3,2.6010058000683784,1468.743224099977,None,1471.398033299949,None,1471.9195701999124,None,1471.9195701999124,None,n,0.16070360015146434,1471.9195701999124,None,,,color19,001,2021_Nov_04_1055,ProdSingRedo,3.2.3,59.66010447609808,
,,,,141,0,141,0,,,,,,,,,,,,,,,,,,,,,,,,1474.305046299938,None,,,,,,,,,,,,,,,,,measure,new_silent,blue,141,152,184,1472.6330856999848,None,1472.6330856999848,None,3,0.9508348999079317,1472.6330856999848,None,1473.6097530999687,None,1474.1230345999356,None,1474.1230345999356,None,n,0.14947569998912513,1474.1230345999356,None,,,color19,001,2021_Nov_04_1055,ProdSingRedo,3.2.3,59.66010447609808,
,,,,142,0,142,0,,,,,,,,,,,,,,,,,,,,,,,,1476.754725100007,None,,,,,,,,,,,,,,,,,universal,silent,blue,142,82,345,1474.8159308999311,None,1474.8159308999311,None,1,1.0882028001360595,1474.8159308999311,None,1475.9320813999511,None,1476.440746499924,None,1476.440746499924,None,n,0.2794967999216169,1476.440746499924,None,,,color19,001,2021_Nov_04_1055,ProdSingRedo,3.2.3,59.66010447609808,
,,,,143,0,143,0,,,,,,,,,,,,,,,,,,,,,,,,1480.5465221998747,None,,,,,,,,,,,,,,,,,story,silent,blue,143,87,306,1477.273381299805,None,1477.273381299805,None,4,2.59930199990049,1477.273381299805,None,1479.9213521999773,None,1480.4370677999686,None,1480.4370677999686,None,f,0.07518889987841249,1480.4370677999686,None,,,color19,001,2021_Nov_04_1055,ProdSingRedo,3.2.3,59.66010447609808,
,,,,144,0,144,0,,,,,,,,,,,,,,,,,,,,,,,,1484.2015136999544,None,,,,,,,,,,,,,,,,,substance,aloud,yellow,144,52,313,1481.079655899899,None,1481.079655899899,None,2,2.2965587999206036,1481.079655899899,None,1483.4203708998393,None,1483.9370672998484,None,1483.9370672998484,None,n,0.22318689990788698,1483.9370672998484,None,,,color19,001,2021_Nov_04_1055,ProdSingRedo,3.2.3,59.66010447609808,
,,,,145,0,145,0,,,,,,,,,,,,,,,,,,,,,,,,1488.6801715998445,None,,,,,,,,,,,,,,,,,height,silent,blue,145,61,152,1484.7291466998868,None,1484.7291466998868,None,3,3.1112442000303417,1484.7291466998868,None,1487.8840183999855,None,1488.4021023998503,None,1488.4021023998503,None,n,0.2461965000256896,1488.4021023998503,None,,,color19,001,2021_Nov_04_1055,ProdSingRedo,3.2.3,59.66010447609808,
,,,,146,0,146,0,,,,,,,,,,,,,,,,,,,,,,,,1492.1171025999356,None,,,,,,,,,,,,,,,,,concern,aloud,yellow,146,48,65,1489.2092495998368,None,1489.2092495998368,None,3,2.2148984000086784,1489.2092495998368,None,1491.4657245997805,None,1491.9820002999622,None,1491.9820002999622,None,n,0.09807810001075268,1491.9820002999622,None,,,color19,001,2021_Nov_04_1055,ProdSingRedo,3.2.3,59.66010447609808,
,,,,147,0,147,0,,,,,,,,,,,,,,,,,,,,,,,,1494.5181007999927,None,,,,,,,,,,,,,,,,,fashion,silent,blue,147,72,125,1492.638407099992,None,1492.638407099992,None,3,1.018249599961564,1492.638407099992,None,1493.7007247998845,None,1494.2188651999459,None,1494.2188651999459,None,n,0.2614029000978917,1494.2188651999459,None,,,color19,001,2021_Nov_04_1055,ProdSingRedo,3.2.3,59.66010447609808,
,,,,148,0,148,0,,,,,,,,,,,,,,,,,,,,,,,,1497.5876195998862,None,,,,,,,,,,,,,,,,,mankind,sing,red,148,9,178,1495.06189849996,None,1495.06189849996,None,1,1.7864489001221955,1495.06189849996,None,1496.8912548997905,None,1497.4064768999815,None,1497.4064768999815,None,n,0.1537484999280423,1497.4064768999815,None,,,color19,001,2021_Nov_04_1055,ProdSingRedo,3.2.3,59.66010447609808,
,,,,149,0,149,0,,,,,,,,,,,,,,,,,,,,,,,,1500.6396967999171,None,,,,,,,,,,,,,,,,,trash,new_aloud,yellow,149,136,337,1498.1089079999365,None,1498.1089079999365,None,1,1.81937690009363,1498.1089079999365,None,1499.9818527000025,None,1500.504061699845,None,1500.504061699845,None,n,0.09609519992955029,1500.504061699845,None,,,color19,001,2021_Nov_04_1055,ProdSingRedo,3.2.3,59.66010447609808,
,,,,150,0,150,0,,,,,,,,,,,,,,,,,,,,,,,,1504.318131199805,None,,,,,,,,,,,,,,,,,surface,new_aloud,yellow,150,133,316,1501.1516910998616,None,1501.1516910998616,None,4,1.5766783999279141,1501.1516910998616,None,1502.7800856998656,None,1503.3131938998122,None,1503.3131938998122,None,f,0.9750674001406878,1503.3131938998122,None,,,color19,001,2021_Nov_04_1055,ProdSingRedo,3.2.3,59.66010447609808,
,,,,151,0,151,0,,,,,,,,,,,,,,,,,,,,,,,,1509.6379410999361,None,,,,,,,,,,,,,,,,,under,silent,blue,151,63,343,1504.84461489995,None,1504.84461489995,None,4,3.1477553001604974,1504.84461489995,None,1508.0289345998317,None,1508.5516101999674,None,1508.5516101999674,None,f,1.0569372999016196,1508.5516101999674,None,,,color19,001,2021_Nov_04_1055,ProdSingRedo,3.2.3,59.66010447609808,
,,,,152,0,152,0,,,,,,,,,,,,,,,,,,,,,,,,1512.6521490998566,None,,,,,,,,,,,,,,,,,union,new_silent,blue,152,175,344,1510.1564933999907,None,1510.1564933999907,None,1,1.4036156998481601,1510.1564933999907,None,1511.6010022999253,None,1512.1203536000103,None,1512.1203536000103,None,n,0.5043339000549167,1512.1203536000103,None,,,color19,001,2021_Nov_04_1055,ProdSingRedo,3.2.3,59.66010447609808,
,,,,153,0,153,0,,,,,,,,,,,,,,,,,,,,,,,,1515.8053200999275,None,,,,,,,,,,,,,,,,,minor,sing,red,153,21,191,1513.1792078998405,None,1513.1792078998405,None,1,2.0050758998841047,1513.1792078998405,None,1515.2141954000108,None,1515.7352967998013,None,1515.7352967998013,None,n,0.032973599852994084,1515.7352967998013,None,,,color19,001,2021_Nov_04_1055,ProdSingRedo,3.2.3,59.66010447609808,
,,,,154,0,154,0,,,,,,,,,,,,,,,,,,,,,,,,1520.1885457998142,None,,,,,,,,,,,,,,,,,store,new_silent,blue,154,157,305,1516.3112408998422,None,1516.3112408998422,None,2,3.185047199949622,1516.3112408998422,None,1519.5344151000027,None,1520.0551832998171,None,1520.0551832998171,None,n,0.1051562000066042,1520.0551832998171,None,,,color19,001,2021_Nov_04_1055,ProdSingRedo,3.2.3,59.66010447609808,
,,,,155,0,155,0,,,,,,,,,,,,,,,,,,,,,,,,1524.8389467999805,None,,,,,,,,,,,,,,,,,estate,aloud,yellow,155,32,119,1520.7132269998547,None,1520.7132269998547,None,6,2.4871682999655604,1520.7132269998547,None,1523.2536190999672,None,1523.7721620998345,None,1523.7721620998345,None,f,1.0365504999645054,1523.7721620998345,None,,,color19,001,2021_Nov_04_1055,ProdSingRedo,3.2.3,59.66010447609808,
,,,,156,0,156,0,,,,,,,,,,,,,,,,,,,,,,,,1530.9898117999546,None,,,,,,,,,,,,,,,,,running,sing,red,156,10,268,1525.3715176999103,None,1525.3715176999103,None,2,4.7967583001591265,1525.3715176999103,None,1530.2216050999705,None,1530.7413861998357,None,1530.7413861998357,None,n,0.21905079996213317,1530.7413861998357,None,,,color19,001,2021_Nov_04_1055,ProdSingRedo,3.2.3,59.66010447609808,
,,,,157,0,157,0,,,,,,,,,,,,,,,,,,,,,,,,1534.1062765999231,None,,,,,,,,,,,,,,,,,suggestion,new_sing,red,157,103,314,1531.5127492998727,None,1531.5127492998727,None,1,1.3355773999355733,1531.5127492998727,None,1532.8985838999506,None,1533.423561199801,None,1533.423561199801,None,n,0.6486647999845445,1533.423561199801,None,,,color19,001,2021_Nov_04_1055,ProdSingRedo,3.2.3,59.66010447609808,
,,,,158,0,158,0,,,,,,,,,,,,,,,,,,,,,,,,1537.5682201997843,None,,,,,,,,,,,,,,,,,evidence,aloud,yellow,158,49,120,1534.6331306998618,None,1534.6331306998618,None,6,1.6867718000430614,1534.6331306998618,None,1536.3562694999855,None,1536.860957799945,None,1536.860957799945,None,f,0.6752075999975204,1536.860957799945,None,,,color19,001,2021_Nov_04_1055,ProdSingRedo,3.2.3,59.66010447609808,
,,,,159,0,159,0,,,,,,,,,,,,,,,,,,,,,,,,1543.7345423998777,None,,,,,,,,,,,,,,,,,background,new_sing,red,159,101,16,1538.1037866999395,None,1538.1037866999395,None,4,4.608269199961796,1538.1037866999395,None,1542.7401186998468,None,1543.2608703000005,None,1543.2608703000005,None,f,0.4431958000641316,1543.2608703000005,None,,,color19,001,2021_Nov_04_1055,ProdSingRedo,3.2.3,59.66010447609808,
,,,,160,0,160,0,,,,,,,,,,,,,,,,,,,,,,,,1547.272614999907,None,,,,,,,,,,,,,,,,,principal,sing,red,160,17,236,1544.2633286998607,None,1544.2633286998607,None,6,2.024989699944854,1544.2633286998607,None,1546.336078299908,None,1546.8579832999967,None,1546.8579832999967,None,f,0.3823037000838667,1546.8579832999967,None,,,color19,001,2021_Nov_04_1055,ProdSingRedo,3.2.3,59.66010447609808,
,,,,161,0,161,0,,,,,,,,,,,,,,,,,,,,,,,,1551.4299367999192,None,,,,,,,,,,,,,,,,,worker,new_aloud,yellow,161,130,356,1547.801240599947,None,1547.801240599947,None,3,2.815063700079918,1547.801240599947,None,1550.6733879998792,None,1551.1927813999355,None,1551.1927813999355,None,n,0.2152849999256432,1551.1927813999355,None,,,color19,001,2021_Nov_04_1055,ProdSingRedo,3.2.3,59.66010447609808,
,,,,162,0,162,0,,,,,,,,,,,,,,,,,,,,,,,,1555.0229237999301,None,,,,,,,,,,,,,,,,,signal,new_silent,blue,162,174,287,1551.941128499806,None,1551.941128499806,None,3,2.37119790003635,1551.941128499806,None,1554.3507027998567,None,1554.8771760999225,None,1554.8771760999225,None,n,0.11518560000695288,1554.8771760999225,None,,,color19,001,2021_Nov_04_1055,ProdSingRedo,3.2.3,59.66010447609808,
,,,,163,0,163,0,,,,,,,,,,,,,,,,,,,,,,,,1560.356844899943,None,,,,,,,,,,,,,,,,,hearing,aloud,yellow,163,39,150,1555.5465782999527,None,1555.5465782999527,None,5,3.637852600077167,1555.5465782999527,None,1559.2359137998428,None,1559.759139199974,None,1559.759139199974,None,f,0.5610541999340057,1559.759139199974,None,,,color19,001,2021_Nov_04_1055,ProdSingRedo,3.2.3,59.66010447609808,
,,,,164,0,164,0,,,,,,,,,,,,,,,,,,,,,,,,1565.0742686998565,None,,,,,,,,,,,,,,,,,citizen,aloud,yellow,164,43,50,1560.8817870998755,None,1560.8817870998755,None,6,3.5342107000760734,1560.8817870998755,None,1564.471213299781,None,1564.9931457999628,None,1564.9931457999628,None,f,0.04721579980105162,1564.9931457999628,None,,,color19,001,2021_Nov_04_1055,ProdSingRedo,3.2.3,59.66010447609808,
,,,,165,0,165,0,,,,,,,,,,,,,,,,,,,,,,,,1569.1895875998307,None,,,,,,,,,,,,,,,,,strength,aloud,yellow,165,44,310,1565.5809819998685,None,1565.5809819998685,None,6,1.747569000115618,1565.5809819998685,None,1567.3812589999288,None,1567.892702799989,None,1567.892702799989,None,r,1.259602899895981,1567.892702799989,None,,,color19,001,2021_Nov_04_1055,ProdSingRedo,3.2.3,59.66010447609808,
,,,,166,0,166,0,,,,,,,,,,,,,,,,,,,,,,,,1573.257200699998,None,,,,,,,,,,,,,,,,,length,new_aloud,yellow,166,129,169,1569.7157875997946,None,1569.7157875997946,None,4,2.8444423999171704,1569.7157875997946,None,1572.6118570999242,None,1573.1250672999304,None,1573.1250672999304,None,f,0.10725809982977808,1573.1250672999304,None,,,color19,001,2021_Nov_04_1055,ProdSingRedo,3.2.3,59.66010447609808,
,,,,167,0,167,0,,,,,,,,,,,,,,,,,,,,,,,,1576.0639336998574,None,,,,,,,,,,,,,,,,,phrase,new_silent,blue,167,160,220,1573.783083199989,None,1573.783083199989,None,1,1.6731102000921965,1573.783083199989,None,1575.5083954997826,None,1576.0257743999828,None,1576.0257743999828,None,n,0.0063495999202132225,1576.0257743999828,None,,,color19,001,2021_Nov_04_1055,ProdSingRedo,3.2.3,59.66010447609808,
,,,,168,0,168,0,,,,,,,,,,,,,,,,,,,,,,,,1580.7412380999885,None,,,,,,,,,,,,,,,,,detective,new_aloud,yellow,168,120,92,1576.5849079999607,None,1576.5849079999607,None,4,3.4714750999119133,1576.5849079999607,None,1580.1080648999196,None,1580.6261022998951,None,1580.6261022998951,None,f,0.08689870010130107,1580.6261022998951,None,,,color19,001,2021_Nov_04_1055,ProdSingRedo,3.2.3,59.66010447609808,
,,,,169,0,169,0,,,,,,,,,,,,,,,,,,,,,,,,1583.4168087998405,None,,,,,,,,,,,,,,,,,safety,sing,red,169,4,270,1581.2731792998966,None,1581.2731792998966,None,6,1.4950596999842674,1581.2731792998966,None,1582.8116390998475,None,1583.334690899821,None,1583.334690899821,None,f,0.04942820011638105,1583.334690899821,None,,,color19,001,2021_Nov_04_1055,ProdSingRedo,3.2.3,59.66010447609808,
,,,,170,0,170,0,,,,,,,,,,,,,,,,,,,,,,,,1586.5909015999641,None,,,,,,,,,,,,,,,,,pancakes,new_sing,red,170,91,210,1583.9551779998,None,1583.9551779998,None,1,1.6773031998891383,1583.9551779998,None,1585.6722866999917,None,1586.1999462998938,None,1586.1999462998938,None,n,0.36036649998277426,1586.1999462998938,None,,,color19,001,2021_Nov_04_1055,ProdSingRedo,3.2.3,59.66010447609808,
,,,,171,0,171,0,,,,,,,,,,,,,,,,,,,,,,,,1589.957475299947,None,,,,,,,,,,,,,,,,,entrance,new_aloud,yellow,171,139,115,1587.1214439999312,None,1587.1214439999312,None,3,2.110870199976489,1587.1214439999312,None,1589.283019799972,None,1589.7947621999774,None,1589.7947621999774,None,n,0.13359880005009472,1589.7947621999774,None,,,color19,001,2021_Nov_04_1055,ProdSingRedo,3.2.3,59.66010447609808,
,,,,172,0,172,0,,,,,,,,,,,,,,,,,,,,,,,,1592.7255244997796,None,,,,,,,,,,,,,,,,,quantity,silent,blue,172,64,245,1590.4881940998603,None,1590.4881940998603,None,1,1.384058800060302,1590.4881940998603,None,1591.9255874999799,None,1592.446505999891,None,1592.446505999891,None,n,0.2504575001075864,1592.446505999891,None,,,color19,001,2021_Nov_04_1055,ProdSingRedo,3.2.3,59.66010447609808,
,,,,173,0,173,0,,,,,,,,,,,,,,,,,,,,,,,,1595.998133599991,None,,,,,,,,,,,,,,,,,health,new_sing,red,173,100,149,1593.253574399976,None,1593.253574399976,None,3,2.0903811999596655,1593.253574399976,None,1595.3766004999634,None,1595.8831240998115,None,1595.8831240998115,None,n,0.092889100080356,1595.8831240998115,None,,,color19,001,2021_Nov_04_1055,ProdSingRedo,3.2.3,59.66010447609808,
,,,,174,0,174,0,,,,,,,,,,,,,,,,,,,,,,,,1599.6687923998106,None,,,,,,,,,,,,,,,,,patient,sing,red,174,8,213,1596.5181007999927,None,1596.5181007999927,None,4,1.906250299885869,1596.5181007999927,None,1598.4739129999653,None,1598.9861289998516,None,1598.9861289998516,None,f,0.6381415000651032,1598.9861289998516,None,,,color19,001,2021_Nov_04_1055,ProdSingRedo,3.2.3,59.66010447609808,
,,,,175,0,175,0,,,,,,,,,,,,,,,,,,,,,,,,1603.1088139999192,None,,,,,,,,,,,,,,,,,brief,sing,red,175,12,28,1600.1924347998574,None,1600.1924347998574,None,3,2.1599034999962896,1600.1924347998574,None,1602.413761699805,None,1602.9281345999334,None,1602.9281345999334,None,n,0.14423799980431795,1602.9281345999334,None,,,color19,001,2021_Nov_04_1055,ProdSingRedo,3.2.3,59.66010447609808,
,,,,176,0,176,0,,,,,,,,,,,,,,,,,,,,,,,,1608.4761286999565,None,,,,,,,,,,,,,,,,,burden,new_aloud,yellow,176,138,36,1603.635605999967,None,1603.635605999967,None,3,4.164833400165662,1603.635605999967,None,1607.836087799864,None,1608.3608610997908,None,1608.3608610997908,None,n,0.07955400017090142,1608.3608610997908,None,,,color19,001,2021_Nov_04_1055,ProdSingRedo,3.2.3,59.66010447609808,
,,,,177,0,177,0,,,,,,,,,,,,,,,,,,,,,,,,1611.3285824998748,None,,,,,,,,,,,,,,,,,equipment,new_silent,blue,177,176,116,1609.008588399971,None,1609.008588399971,None,2,1.6156997000798583,1609.008588399971,None,1610.6795858999249,None,1611.1955855998676,None,1611.1955855998676,None,n,0.1008119999896735,1611.1955855998676,None,,,color19,001,2021_Nov_04_1055,ProdSingRedo,3.2.3,59.66010447609808,
,,,,178,0,178,0,,,,,,,,,,,,,,,,,,,,,,,,1614.3592918999493,None,,,,,,,,,,,,,,,,,clean,sing,red,178,3,51,1611.8527553998865,None,1611.8527553998865,None,3,1.8516685999929905,1611.8527553998865,None,1613.7523473999463,None,1614.277166799875,None,1614.277166799875,None,n,0.05150919989682734,1614.277166799875,None,,,color19,001,2021_Nov_04_1055,ProdSingRedo,3.2.3,59.66010447609808,
,,,,179,0,179,0,,,,,,,,,,,,,,,,,,,,,,,,1620.8596931998618,None,,,,,,,,,,,,,,,,,school,new_silent,blue,179,168,274,1614.880875799805,None,1614.880875799805,None,2,4.7195812000427395,1614.880875799805,None,1619.640880699968,None,1620.1605790997855,None,1620.1605790997855,None,n,0.6720179999247193,1620.1605790997855,None,,,color19,001,2021_Nov_04_1055,ProdSingRedo,3.2.3,59.66010447609808,
,,,,,,,,,,,,,,,,,,,,,,,,,,,,,,,,,,,,,,,,,,,,,,,,,,,,,,,,,,,,,,,,,,,,,,,,,1621.3686600998044,None,,,,,,,
