StudyLoop.thisRepN,StudyLoop.thisTrialN,StudyLoop.thisN,StudyLoop.thisIndex,TestLoop.thisRepN,TestLoop.thisTrialN,TestLoop.thisN,TestLoop.thisIndex,textCondition.started,textCondition.stopped,keyCondition.keys,keyCondition.rt,keyCondition.started,keyCondition.stopped,Condition,stim_colors,color_sing,color_aloud,color_silent,textWelcome.started,textWelcome.stopped,keyWelcome.keys,keyWelcome.rt,keyWelcome.started,keyWelcome.stopped,textAloud.started,textAloud.stopped,textSilent.started,textSilent.stopped,textSing.started,textSing.stopped,textBlank500.started,textBlank500.stopped,study_word,study_type,study_color,study_num,study_word_num,textStudy.started,textStudy.stopped,keyStudy.keys,keyStudy.started,keyStudy.stopped,textTestInstructions.started,textTestInstructions.stopped,key_resp_3.keys,key_resp_3.rt,key_resp_3.started,key_resp_3.stopped,testWord,testType,testColor,testN,test_num,test_word_num,textConf.started,textConf.stopped,textConfScale.started,textConfScale.stopped,keyConf.keys,keyConf.rt,keyConf.started,keyConf.stopped,textTestBlank.started,textTestBlank.stopped,textRKN.started,textRKN.stopped,textRKNScale.started,textRKNScale.stopped,keyRKN.keys,keyRKN.rt,keyRKN.started,keyRKN.stopped,textEnd.started,textEnd.stopped,participant,session,date,expName,psychopyVersion,frameRate,
,,,,,,,,24.9271706007421,None,y,2.234163999557495,24.9271706007421,None,,,,,,,,,,,,,,,,,,,,,,,,,,,,,,,,,,,,,,,,,,,,,,,,,,,,,,,,,,,,,,color36,001,2022_Apr_18_1457,ProdSingRedo,3.2.3,59.8937967102657,
,,,,,,,,,,,,,,ColoredTest,"['red', 'yellow', 'blue']",red,yellow,blue,27.19352040067315,None,space,270.1435279008001,27.19352040067315,None,,,,,,,,,,,,,,,,,,,,,,,,,,,,,,,,,,,,,,,,,,,,,,,,,,,color36,001,2022_Apr_18_1457,ProdSingRedo,3.2.3,59.8937967102657,
0,0,0,0,,,,,,,,,,,,,,,,,,,,,,27.19352040067315,None,27.19352040067315,None,27.19352040067315,None,299.8810299001634,None,public,aloud,yellow,37,244,297.8934799991548,None,None,297.8934799991548,None,,,,,,,,,,,,,,,,,,,,,,,,,,,,,,,,,color36,001,2022_Apr_18_1457,ProdSingRedo,3.2.3,59.8937967102657,
1,0,1,0,,,,,,,,,,,,,,,,,,,,,,,,,,,,302.4002381991595,None,phrase,sing,red,15,220,300.39837170019746,None,None,300.39837170019746,None,,,,,,,,,,,,,,,,,,,,,,,,,,,,,,,,,color36,001,2022_Apr_18_1457,ProdSingRedo,3.2.3,59.8937967102657,
2,0,2,0,,,,,,,,,,,,,,,,,,,,,,,,,,,,304.91979599930346,None,community,silent,blue,73,63,302.9285195991397,None,None,302.9285195991397,None,,,,,,,,,,,,,,,,,,,,,,,,,,,,,,,,,color36,001,2022_Apr_18_1457,ProdSingRedo,3.2.3,59.8937967102657,
3,0,3,0,,,,,,,,,,,,,,,,,,,,,,,,,,,,307.4387289006263,None,sound,aloud,yellow,40,295,305.4343321993947,None,None,305.4343321993947,None,,,,,,,,,,,,,,,,,,,,,,,,,,,,,,,,,color36,001,2022_Apr_18_1457,ProdSingRedo,3.2.3,59.8937967102657,
4,0,4,0,,,,,,,,,,,,,,,,,,,,,,,,,,,,309.95856880024076,None,accident,sing,red,2,0,307.95387060008943,None,None,307.95387060008943,None,,,,,,,,,,,,,,,,,,,,,,,,,,,,,,,,,color36,001,2022_Apr_18_1457,ProdSingRedo,3.2.3,59.8937967102657,
5,0,5,0,,,,,,,,,,,,,,,,,,,,,,,,,,,,312.47709410078824,None,conference,sing,red,8,66,310.47474999912083,None,None,310.47474999912083,None,,,,,,,,,,,,,,,,,,,,,,,,,,,,,,,,,color36,001,2022_Apr_18_1457,ProdSingRedo,3.2.3,59.8937967102657,
6,0,6,0,,,,,,,,,,,,,,,,,,,,,,,,,,,,314.9962349999696,None,beginning,sing,red,0,19,312.99605550058186,None,None,312.99605550058186,None,,,,,,,,,,,,,,,,,,,,,,,,,,,,,,,,,color36,001,2022_Apr_18_1457,ProdSingRedo,3.2.3,59.8937967102657,
7,0,7,0,,,,,,,,,,,,,,,,,,,,,,,,,,,,317.5154381990433,None,height,sing,red,24,152,315.5152074005455,None,None,315.5152074005455,None,,,,,,,,,,,,,,,,,,,,,,,,,,,,,,,,,color36,001,2022_Apr_18_1457,ProdSingRedo,3.2.3,59.8937967102657,
8,0,8,0,,,,,,,,,,,,,,,,,,,,,,,,,,,,320.0369780994952,None,frank,silent,blue,83,133,318.0387290995568,None,None,318.0387290995568,None,,,,,,,,,,,,,,,,,,,,,,,,,,,,,,,,,color36,001,2022_Apr_18_1457,ProdSingRedo,3.2.3,59.8937967102657,
9,0,9,0,,,,,,,,,,,,,,,,,,,,,,,,,,,,322.55370149947703,None,place,aloud,yellow,54,222,320.5426562000066,None,None,320.5426562000066,None,,,,,,,,,,,,,,,,,,,,,,,,,,,,,,,,,color36,001,2022_Apr_18_1457,ProdSingRedo,3.2.3,59.8937967102657,
10,0,10,0,,,,,,,,,,,,,,,,,,,,,,,,,,,,325.072997700423,None,travel,silent,blue,67,338,323.07644079998136,None,None,323.07644079998136,None,,,,,,,,,,,,,,,,,,,,,,,,,,,,,,,,,color36,001,2022_Apr_18_1457,ProdSingRedo,3.2.3,59.8937967102657,
11,0,11,0,,,,,,,,,,,,,,,,,,,,,,,,,,,,327.59221339970827,None,throw,silent,blue,70,330,325.58317770063877,None,None,325.58317770063877,None,,,,,,,,,,,,,,,,,,,,,,,,,,,,,,,,,color36,001,2022_Apr_18_1457,ProdSingRedo,3.2.3,59.8937967102657,
12,0,12,0,,,,,,,,,,,,,,,,,,,,,,,,,,,,330.11123630031943,None,clean,sing,red,22,51,328.1062179002911,None,None,328.1062179002911,None,,,,,,,,,,,,,,,,,,,,,,,,,,,,,,,,,color36,001,2022_Apr_18_1457,ProdSingRedo,3.2.3,59.8937967102657,
13,0,13,0,,,,,,,,,,,,,,,,,,,,,,,,,,,,332.63078510016203,None,reading,silent,blue,72,254,330.6234505996108,None,None,330.6234505996108,None,,,,,,,,,,,,,,,,,,,,,,,,,,,,,,,,,color36,001,2022_Apr_18_1457,ProdSingRedo,3.2.3,59.8937967102657,
14,0,14,0,,,,,,,,,,,,,,,,,,,,,,,,,,,,335.14988609962165,None,dance,sing,red,26,84,333.1466585993767,None,None,333.1466585993767,None,,,,,,,,,,,,,,,,,,,,,,,,,,,,,,,,,color36,001,2022_Apr_18_1457,ProdSingRedo,3.2.3,59.8937967102657,
15,0,15,0,,,,,,,,,,,,,,,,,,,,,,,,,,,,337.66870900057256,None,literature,silent,blue,63,173,335.66811859980226,None,None,335.66811859980226,None,,,,,,,,,,,,,,,,,,,,,,,,,,,,,,,,,color36,001,2022_Apr_18_1457,ProdSingRedo,3.2.3,59.8937967102657,
16,0,16,0,,,,,,,,,,,,,,,,,,,,,,,,,,,,340.1883499007672,None,subject,aloud,yellow,30,312,338.19157570041716,None,None,338.19157570041716,None,,,,,,,,,,,,,,,,,,,,,,,,,,,,,,,,,color36,001,2022_Apr_18_1457,ProdSingRedo,3.2.3,59.8937967102657,
17,0,17,0,,,,,,,,,,,,,,,,,,,,,,,,,,,,342.7068153992295,None,title,aloud,yellow,46,331,340.6966088991612,None,None,340.6966088991612,None,,,,,,,,,,,,,,,,,,,,,,,,,,,,,,,,,color36,001,2022_Apr_18_1457,ProdSingRedo,3.2.3,59.8937967102657,
18,0,18,0,,,,,,,,,,,,,,,,,,,,,,,,,,,,345.22625130042434,None,passage,aloud,yellow,32,212,343.2259176000953,None,None,343.2259176000953,None,,,,,,,,,,,,,,,,,,,,,,,,,,,,,,,,,color36,001,2022_Apr_18_1457,ProdSingRedo,3.2.3,59.8937967102657,
19,0,19,0,,,,,,,,,,,,,,,,,,,,,,,,,,,,347.7456403002143,None,machinery,sing,red,19,175,345.7408365998417,None,None,345.7408365998417,None,,,,,,,,,,,,,,,,,,,,,,,,,,,,,,,,,color36,001,2022_Apr_18_1457,ProdSingRedo,3.2.3,59.8937967102657,
20,0,20,0,,,,,,,,,,,,,,,,,,,,,,,,,,,,350.2648168001324,None,business,silent,blue,64,38,348.2625610996038,None,None,348.2625610996038,None,,,,,,,,,,,,,,,,,,,,,,,,,,,,,,,,,color36,001,2022_Apr_18_1457,ProdSingRedo,3.2.3,59.8937967102657,
21,0,21,0,,,,,,,,,,,,,,,,,,,,,,,,,,,,352.78396929986775,None,murder,silent,blue,60,195,350.7788446992636,None,None,350.7788446992636,None,,,,,,,,,,,,,,,,,,,,,,,,,,,,,,,,,color36,001,2022_Apr_18_1457,ProdSingRedo,3.2.3,59.8937967102657,
22,0,22,0,,,,,,,,,,,,,,,,,,,,,,,,,,,,355.30294560082257,None,substance,sing,red,9,313,353.30294590070844,None,None,353.30294590070844,None,,,,,,,,,,,,,,,,,,,,,,,,,,,,,,,,,color36,001,2022_Apr_18_1457,ProdSingRedo,3.2.3,59.8937967102657,
23,0,23,0,,,,,,,,,,,,,,,,,,,,,,,,,,,,357.8235643003136,None,quick,silent,blue,76,248,355.8138300999999,None,None,355.8138300999999,None,,,,,,,,,,,,,,,,,,,,,,,,,,,,,,,,,color36,001,2022_Apr_18_1457,ProdSingRedo,3.2.3,59.8937967102657,
24,0,24,0,,,,,,,,,,,,,,,,,,,,,,,,,,,,360.34129269979894,None,personnel,aloud,yellow,36,219,358.3373849000782,None,None,358.3373849000782,None,,,,,,,,,,,,,,,,,,,,,,,,,,,,,,,,,color36,001,2022_Apr_18_1457,ProdSingRedo,3.2.3,59.8937967102657,
25,0,25,0,,,,,,,,,,,,,,,,,,,,,,,,,,,,362.8607567008585,None,little,sing,red,11,174,360.85231900028884,None,None,360.85231900028884,None,,,,,,,,,,,,,,,,,,,,,,,,,,,,,,,,,color36,001,2022_Apr_18_1457,ProdSingRedo,3.2.3,59.8937967102657,
26,0,26,0,,,,,,,,,,,,,,,,,,,,,,,,,,,,365.38126520067453,None,problem,sing,red,23,238,363.3774413000792,None,None,363.3774413000792,None,,,,,,,,,,,,,,,,,,,,,,,,,,,,,,,,,color36,001,2022_Apr_18_1457,ProdSingRedo,3.2.3,59.8937967102657,
27,0,27,0,,,,,,,,,,,,,,,,,,,,,,,,,,,,367.9008178990334,None,range,sing,red,18,251,365.89935950003564,None,None,365.89935950003564,None,,,,,,,,,,,,,,,,,,,,,,,,,,,,,,,,,color36,001,2022_Apr_18_1457,ProdSingRedo,3.2.3,59.8937967102657,
28,0,28,0,,,,,,,,,,,,,,,,,,,,,,,,,,,,370.4182750992477,None,material,sing,red,1,182,368.41805679909885,None,None,368.41805679909885,None,,,,,,,,,,,,,,,,,,,,,,,,,,,,,,,,,color36,001,2022_Apr_18_1457,ProdSingRedo,3.2.3,59.8937967102657,
29,0,29,0,,,,,,,,,,,,,,,,,,,,,,,,,,,,372.93732750043273,None,meeting,sing,red,7,187,370.9392380993813,None,None,370.9392380993813,None,,,,,,,,,,,,,,,,,,,,,,,,,,,,,,,,,color36,001,2022_Apr_18_1457,ProdSingRedo,3.2.3,59.8937967102657,
30,0,30,0,,,,,,,,,,,,,,,,,,,,,,,,,,,,375.45658689923584,None,budget,sing,red,13,34,373.4571202993393,None,None,373.4571202993393,None,,,,,,,,,,,,,,,,,,,,,,,,,,,,,,,,,color36,001,2022_Apr_18_1457,ProdSingRedo,3.2.3,59.8937967102657,
31,0,31,0,,,,,,,,,,,,,,,,,,,,,,,,,,,,377.97572609968483,None,poetry,sing,red,14,225,375.97443770058453,None,None,375.97443770058453,None,,,,,,,,,,,,,,,,,,,,,,,,,,,,,,,,,color36,001,2022_Apr_18_1457,ProdSingRedo,3.2.3,59.8937967102657,
32,0,32,0,,,,,,,,,,,,,,,,,,,,,,,,,,,,380.49479350075126,None,balance,silent,blue,88,17,378.4957954008132,None,None,378.4957954008132,None,,,,,,,,,,,,,,,,,,,,,,,,,,,,,,,,,color36,001,2022_Apr_18_1457,ProdSingRedo,3.2.3,59.8937967102657,
33,0,33,0,,,,,,,,,,,,,,,,,,,,,,,,,,,,383.01423089951277,None,minor,silent,blue,75,191,381.0097509007901,None,None,381.0097509007901,None,,,,,,,,,,,,,,,,,,,,,,,,,,,,,,,,,color36,001,2022_Apr_18_1457,ProdSingRedo,3.2.3,59.8937967102657,
34,0,34,0,,,,,,,,,,,,,,,,,,,,,,,,,,,,385.5339682996273,None,length,sing,red,27,169,383.5319795999676,None,None,383.5319795999676,None,,,,,,,,,,,,,,,,,,,,,,,,,,,,,,,,,color36,001,2022_Apr_18_1457,ProdSingRedo,3.2.3,59.8937967102657,
35,0,35,0,,,,,,,,,,,,,,,,,,,,,,,,,,,,388.0531885996461,None,smooth,sing,red,12,292,386.05028280057013,None,None,386.05028280057013,None,,,,,,,,,,,,,,,,,,,,,,,,,,,,,,,,,color36,001,2022_Apr_18_1457,ProdSingRedo,3.2.3,59.8937967102657,
36,0,36,0,,,,,,,,,,,,,,,,,,,,,,,,,,,,390.57307559996843,None,management,sing,red,20,177,388.5723225995898,None,None,388.5723225995898,None,,,,,,,,,,,,,,,,,,,,,,,,,,,,,,,,,color36,001,2022_Apr_18_1457,ProdSingRedo,3.2.3,59.8937967102657,
37,0,37,0,,,,,,,,,,,,,,,,,,,,,,,,,,,,393.090773800388,None,candidate,aloud,yellow,50,39,391.0950607005507,None,None,391.0950607005507,None,,,,,,,,,,,,,,,,,,,,,,,,,,,,,,,,,color36,001,2022_Apr_18_1457,ProdSingRedo,3.2.3,59.8937967102657,
38,0,38,0,,,,,,,,,,,,,,,,,,,,,,,,,,,,395.61045159958303,None,group,silent,blue,74,143,393.60793760046363,None,None,393.60793760046363,None,,,,,,,,,,,,,,,,,,,,,,,,,,,,,,,,,color36,001,2022_Apr_18_1457,ProdSingRedo,3.2.3,59.8937967102657,
39,0,39,0,,,,,,,,,,,,,,,,,,,,,,,,,,,,398.1291853003204,None,touch,silent,blue,77,332,396.13045920059085,None,None,396.13045920059085,None,,,,,,,,,,,,,,,,,,,,,,,,,,,,,,,,,color36,001,2022_Apr_18_1457,ProdSingRedo,3.2.3,59.8937967102657,
40,0,40,0,,,,,,,,,,,,,,,,,,,,,,,,,,,,400.64817940071225,None,crowd,aloud,yellow,58,81,398.6470375992358,None,None,398.6470375992358,None,,,,,,,,,,,,,,,,,,,,,,,,,,,,,,,,,color36,001,2022_Apr_18_1457,ProdSingRedo,3.2.3,59.8937967102657,
41,0,41,0,,,,,,,,,,,,,,,,,,,,,,,,,,,,403.1676017008722,None,danger,aloud,yellow,45,85,401.16077399998903,None,None,401.16077399998903,None,,,,,,,,,,,,,,,,,,,,,,,,,,,,,,,,,color36,001,2022_Apr_18_1457,ProdSingRedo,3.2.3,59.8937967102657,
42,0,42,0,,,,,,,,,,,,,,,,,,,,,,,,,,,,405.68721090070903,None,level,sing,red,16,170,403.68348450027406,None,None,403.68348450027406,None,,,,,,,,,,,,,,,,,,,,,,,,,,,,,,,,,color36,001,2022_Apr_18_1457,ProdSingRedo,3.2.3,59.8937967102657,
43,0,43,0,,,,,,,,,,,,,,,,,,,,,,,,,,,,408.2061282005161,None,attack,aloud,yellow,31,13,406.21080490015447,None,None,406.21080490015447,None,,,,,,,,,,,,,,,,,,,,,,,,,,,,,,,,,color36,001,2022_Apr_18_1457,ProdSingRedo,3.2.3,59.8937967102657,
44,0,44,0,,,,,,,,,,,,,,,,,,,,,,,,,,,,410.7248771004379,None,nature,sing,red,25,200,408.72770440019667,None,None,408.72770440019667,None,,,,,,,,,,,,,,,,,,,,,,,,,,,,,,,,,color36,001,2022_Apr_18_1457,ProdSingRedo,3.2.3,59.8937967102657,
45,0,45,0,,,,,,,,,,,,,,,,,,,,,,,,,,,,413.2448050994426,None,right,aloud,yellow,56,265,411.24275819957256,None,None,411.24275819957256,None,,,,,,,,,,,,,,,,,,,,,,,,,,,,,,,,,color36,001,2022_Apr_18_1457,ProdSingRedo,3.2.3,59.8937967102657,
46,0,46,0,,,,,,,,,,,,,,,,,,,,,,,,,,,,415.76343340054154,None,agreement,aloud,yellow,43,5,413.75945040024817,None,None,413.75945040024817,None,,,,,,,,,,,,,,,,,,,,,,,,,,,,,,,,,color36,001,2022_Apr_18_1457,ProdSingRedo,3.2.3,59.8937967102657,
47,0,47,0,,,,,,,,,,,,,,,,,,,,,,,,,,,,418.2838211990893,None,pressure,silent,blue,89,232,416.28523530066013,None,None,416.28523530066013,None,,,,,,,,,,,,,,,,,,,,,,,,,,,,,,,,,color36,001,2022_Apr_18_1457,ProdSingRedo,3.2.3,59.8937967102657,
48,0,48,0,,,,,,,,,,,,,,,,,,,,,,,,,,,,420.8018025998026,None,bucket,aloud,yellow,38,33,418.7958588004112,None,None,418.7958588004112,None,,,,,,,,,,,,,,,,,,,,,,,,,,,,,,,,,color36,001,2022_Apr_18_1457,ProdSingRedo,3.2.3,59.8937967102657,
49,0,49,0,,,,,,,,,,,,,,,,,,,,,,,,,,,,423.3222611993551,None,portion,sing,red,21,228,421.3172759003937,None,None,421.3172759003937,None,,,,,,,,,,,,,,,,,,,,,,,,,,,,,,,,,color36,001,2022_Apr_18_1457,ProdSingRedo,3.2.3,59.8937967102657,
50,0,50,0,,,,,,,,,,,,,,,,,,,,,,,,,,,,425.8399774003774,None,working,silent,blue,86,357,423.84175439924,None,None,423.84175439924,None,,,,,,,,,,,,,,,,,,,,,,,,,,,,,,,,,color36,001,2022_Apr_18_1457,ProdSingRedo,3.2.3,59.8937967102657,
51,0,51,0,,,,,,,,,,,,,,,,,,,,,,,,,,,,428.3596471995115,None,appearance,silent,blue,82,10,426.36019049957395,None,None,426.36019049957395,None,,,,,,,,,,,,,,,,,,,,,,,,,,,,,,,,,color36,001,2022_Apr_18_1457,ProdSingRedo,3.2.3,59.8937967102657,
52,0,52,0,,,,,,,,,,,,,,,,,,,,,,,,,,,,430.8783436007798,None,growth,aloud,yellow,44,144,428.8800156004727,None,None,428.8800156004727,None,,,,,,,,,,,,,,,,,,,,,,,,,,,,,,,,,color36,001,2022_Apr_18_1457,ProdSingRedo,3.2.3,59.8937967102657,
53,0,53,0,,,,,,,,,,,,,,,,,,,,,,,,,,,,433.3831677995622,None,period,silent,blue,69,217,431.37843769975007,None,None,431.37843769975007,None,,,,,,,,,,,,,,,,,,,,,,,,,,,,,,,,,color36,001,2022_Apr_18_1457,ProdSingRedo,3.2.3,59.8937967102657,
54,0,54,0,,,,,,,,,,,,,,,,,,,,,,,,,,,,435.89999460056424,None,bureau,aloud,yellow,47,37,433.89728979952633,None,None,433.89728979952633,None,,,,,,,,,,,,,,,,,,,,,,,,,,,,,,,,,color36,001,2022_Apr_18_1457,ProdSingRedo,3.2.3,59.8937967102657,
55,0,55,0,,,,,,,,,,,,,,,,,,,,,,,,,,,,438.42003780044615,None,engineer,aloud,yellow,51,114,436.4236562997103,None,None,436.4236562997103,None,,,,,,,,,,,,,,,,,,,,,,,,,,,,,,,,,color36,001,2022_Apr_18_1457,ProdSingRedo,3.2.3,59.8937967102657,
56,0,56,0,,,,,,,,,,,,,,,,,,,,,,,,,,,,440.9383962992579,None,shear,sing,red,5,283,438.9343036003411,None,None,438.9343036003411,None,,,,,,,,,,,,,,,,,,,,,,,,,,,,,,,,,color36,001,2022_Apr_18_1457,ProdSingRedo,3.2.3,59.8937967102657,
57,0,57,0,,,,,,,,,,,,,,,,,,,,,,,,,,,,443.4585351999849,None,permit,silent,blue,78,218,441.4555754996836,None,None,441.4555754996836,None,,,,,,,,,,,,,,,,,,,,,,,,,,,,,,,,,color36,001,2022_Apr_18_1457,ProdSingRedo,3.2.3,59.8937967102657,
58,0,58,0,,,,,,,,,,,,,,,,,,,,,,,,,,,,445.9769209008664,None,military,sing,red,10,190,443.9781445991248,None,None,443.9781445991248,None,,,,,,,,,,,,,,,,,,,,,,,,,,,,,,,,,color36,001,2022_Apr_18_1457,ProdSingRedo,3.2.3,59.8937967102657,
59,0,59,0,,,,,,,,,,,,,,,,,,,,,,,,,,,,448.49529450014234,None,order,silent,blue,62,207,446.49334730021656,None,None,446.49334730021656,None,,,,,,,,,,,,,,,,,,,,,,,,,,,,,,,,,color36,001,2022_Apr_18_1457,ProdSingRedo,3.2.3,59.8937967102657,
60,0,60,0,,,,,,,,,,,,,,,,,,,,,,,,,,,,450.9983958005905,None,season,aloud,yellow,33,277,448.9976176992059,None,None,448.9976176992059,None,,,,,,,,,,,,,,,,,,,,,,,,,,,,,,,,,color36,001,2022_Apr_18_1457,ProdSingRedo,3.2.3,59.8937967102657,
61,0,61,0,,,,,,,,,,,,,,,,,,,,,,,,,,,,453.51769150048494,None,school,silent,blue,65,274,451.51139250025153,None,None,451.51139250025153,None,,,,,,,,,,,,,,,,,,,,,,,,,,,,,,,,,color36,001,2022_Apr_18_1457,ProdSingRedo,3.2.3,59.8937967102657,
62,0,62,0,,,,,,,,,,,,,,,,,,,,,,,,,,,,456.036921499297,None,signal,silent,blue,68,287,454.03409250080585,None,None,454.03409250080585,None,,,,,,,,,,,,,,,,,,,,,,,,,,,,,,,,,color36,001,2022_Apr_18_1457,ProdSingRedo,3.2.3,59.8937967102657,
63,0,63,0,,,,,,,,,,,,,,,,,,,,,,,,,,,,458.55604049935937,None,universal,aloud,yellow,41,345,456.56253200024366,None,None,456.56253200024366,None,,,,,,,,,,,,,,,,,,,,,,,,,,,,,,,,,color36,001,2022_Apr_18_1457,ProdSingRedo,3.2.3,59.8937967102657,
64,0,64,0,,,,,,,,,,,,,,,,,,,,,,,,,,,,461.0752818007022,None,native,silent,blue,66,199,459.0739198997617,None,None,459.0739198997617,None,,,,,,,,,,,,,,,,,,,,,,,,,,,,,,,,,color36,001,2022_Apr_18_1457,ProdSingRedo,3.2.3,59.8937967102657,
65,0,65,0,,,,,,,,,,,,,,,,,,,,,,,,,,,,463.595152400434,None,union,silent,blue,71,344,461.59370700083673,None,None,461.59370700083673,None,,,,,,,,,,,,,,,,,,,,,,,,,,,,,,,,,color36,001,2022_Apr_18_1457,ProdSingRedo,3.2.3,59.8937967102657,
66,0,66,0,,,,,,,,,,,,,,,,,,,,,,,,,,,,466.1123686991632,None,mankind,aloud,yellow,55,178,464.1161934006959,None,None,464.1161934006959,None,,,,,,,,,,,,,,,,,,,,,,,,,,,,,,,,,color36,001,2022_Apr_18_1457,ProdSingRedo,3.2.3,59.8937967102657,
67,0,67,0,,,,,,,,,,,,,,,,,,,,,,,,,,,,468.63263130001724,None,review,sing,red,6,263,466.6265462003648,None,None,466.6265462003648,None,,,,,,,,,,,,,,,,,,,,,,,,,,,,,,,,,color36,001,2022_Apr_18_1457,ProdSingRedo,3.2.3,59.8937967102657,
68,0,68,0,,,,,,,,,,,,,,,,,,,,,,,,,,,,471.1518300008029,None,brief,aloud,yellow,59,28,469.1493932995945,None,None,469.1493932995945,None,,,,,,,,,,,,,,,,,,,,,,,,,,,,,,,,,color36,001,2022_Apr_18_1457,ProdSingRedo,3.2.3,59.8937967102657,
69,0,69,0,,,,,,,,,,,,,,,,,,,,,,,,,,,,473.6711663007736,None,surprise,silent,blue,85,317,471.67468490079045,None,None,471.67468490079045,None,,,,,,,,,,,,,,,,,,,,,,,,,,,,,,,,,color36,001,2022_Apr_18_1457,ProdSingRedo,3.2.3,59.8937967102657,
70,0,70,0,,,,,,,,,,,,,,,,,,,,,,,,,,,,476.19035469926894,None,express,aloud,yellow,42,124,474.1829799991101,None,None,474.1829799991101,None,,,,,,,,,,,,,,,,,,,,,,,,,,,,,,,,,color36,001,2022_Apr_18_1457,ProdSingRedo,3.2.3,59.8937967102657,
71,0,71,0,,,,,,,,,,,,,,,,,,,,,,,,,,,,478.70956129953265,None,month,sing,red,4,193,476.70970919914544,None,None,476.70970919914544,None,,,,,,,,,,,,,,,,,,,,,,,,,,,,,,,,,color36,001,2022_Apr_18_1457,ProdSingRedo,3.2.3,59.8937967102657,
72,0,72,0,,,,,,,,,,,,,,,,,,,,,,,,,,,,481.21287270076573,None,orchestra,silent,blue,61,206,479.2105475999415,None,None,479.2105475999415,None,,,,,,,,,,,,,,,,,,,,,,,,,,,,,,,,,color36,001,2022_Apr_18_1457,ProdSingRedo,3.2.3,59.8937967102657,
73,0,73,0,,,,,,,,,,,,,,,,,,,,,,,,,,,,483.7312326002866,None,direction,sing,red,29,94,481.7265118006617,None,None,481.7265118006617,None,,,,,,,,,,,,,,,,,,,,,,,,,,,,,,,,,color36,001,2022_Apr_18_1457,ProdSingRedo,3.2.3,59.8937967102657,
74,0,74,0,,,,,,,,,,,,,,,,,,,,,,,,,,,,486.24958110041916,None,instrument,silent,blue,84,163,484.25076190009713,None,None,484.25076190009713,None,,,,,,,,,,,,,,,,,,,,,,,,,,,,,,,,,color36,001,2022_Apr_18_1457,ProdSingRedo,3.2.3,59.8937967102657,
75,0,75,0,,,,,,,,,,,,,,,,,,,,,,,,,,,,488.7695706002414,None,junior,sing,red,17,167,486.7702884990722,None,None,486.7702884990722,None,,,,,,,,,,,,,,,,,,,,,,,,,,,,,,,,,color36,001,2022_Apr_18_1457,ProdSingRedo,3.2.3,59.8937967102657,
76,0,76,0,,,,,,,,,,,,,,,,,,,,,,,,,,,,491.28860050067306,None,vision,aloud,yellow,53,347,489.27630979940295,None,None,489.27630979940295,None,,,,,,,,,,,,,,,,,,,,,,,,,,,,,,,,,color36,001,2022_Apr_18_1457,ProdSingRedo,3.2.3,59.8937967102657,
77,0,77,0,,,,,,,,,,,,,,,,,,,,,,,,,,,,493.8087533004582,None,surface,aloud,yellow,57,316,491.8067851997912,None,None,491.8067851997912,None,,,,,,,,,,,,,,,,,,,,,,,,,,,,,,,,,color36,001,2022_Apr_18_1457,ProdSingRedo,3.2.3,59.8937967102657,
78,0,78,0,,,,,,,,,,,,,,,,,,,,,,,,,,,,496.32709060050547,None,turkey,aloud,yellow,35,342,494.32686620019376,None,None,494.32686620019376,None,,,,,,,,,,,,,,,,,,,,,,,,,,,,,,,,,color36,001,2022_Apr_18_1457,ProdSingRedo,3.2.3,59.8937967102657,
79,0,79,0,,,,,,,,,,,,,,,,,,,,,,,,,,,,498.8462326005101,None,symbol,aloud,yellow,52,321,496.8436430990696,None,None,496.8436430990696,None,,,,,,,,,,,,,,,,,,,,,,,,,,,,,,,,,color36,001,2022_Apr_18_1457,ProdSingRedo,3.2.3,59.8937967102657,
80,0,80,0,,,,,,,,,,,,,,,,,,,,,,,,,,,,501.3652532007545,None,pattern,aloud,yellow,39,214,499.36456229910254,None,None,499.36456229910254,None,,,,,,,,,,,,,,,,,,,,,,,,,,,,,,,,,color36,001,2022_Apr_18_1457,ProdSingRedo,3.2.3,59.8937967102657,
81,0,81,0,,,,,,,,,,,,,,,,,,,,,,,,,,,,503.8845933005214,None,generation,silent,blue,79,136,501.887295300141,None,None,501.887295300141,None,,,,,,,,,,,,,,,,,,,,,,,,,,,,,,,,,color36,001,2022_Apr_18_1457,ProdSingRedo,3.2.3,59.8937967102657,
82,0,82,0,,,,,,,,,,,,,,,,,,,,,,,,,,,,506.40381520055234,None,guide,aloud,yellow,34,147,504.39851539954543,None,None,504.39851539954543,None,,,,,,,,,,,,,,,,,,,,,,,,,,,,,,,,,color36,001,2022_Apr_18_1457,ProdSingRedo,3.2.3,59.8937967102657,
83,0,83,0,,,,,,,,,,,,,,,,,,,,,,,,,,,,508.9053080994636,None,space,aloud,yellow,49,297,506.9056997001171,None,None,506.9056997001171,None,,,,,,,,,,,,,,,,,,,,,,,,,,,,,,,,,color36,001,2022_Apr_18_1457,ProdSingRedo,3.2.3,59.8937967102657,
84,0,84,0,,,,,,,,,,,,,,,,,,,,,,,,,,,,511.40919749997556,None,account,silent,blue,87,1,509.40578269958496,None,None,509.40578269958496,None,,,,,,,,,,,,,,,,,,,,,,,,,,,,,,,,,color36,001,2022_Apr_18_1457,ProdSingRedo,3.2.3,59.8937967102657,
85,0,85,0,,,,,,,,,,,,,,,,,,,,,,,,,,,,513.929357599467,None,smell,sing,red,28,291,511.9216121006757,None,None,511.9216121006757,None,,,,,,,,,,,,,,,,,,,,,,,,,,,,,,,,,color36,001,2022_Apr_18_1457,ProdSingRedo,3.2.3,59.8937967102657,
86,0,86,0,,,,,,,,,,,,,,,,,,,,,,,,,,,,516.4485359992832,None,discovery,silent,blue,80,95,514.4490347001702,None,None,514.4490347001702,None,,,,,,,,,,,,,,,,,,,,,,,,,,,,,,,,,color36,001,2022_Apr_18_1457,ProdSingRedo,3.2.3,59.8937967102657,
87,0,87,0,,,,,,,,,,,,,,,,,,,,,,,,,,,,518.9663127996027,None,pretty,sing,red,3,233,516.9593024998903,None,None,516.9593024998903,None,,,,,,,,,,,,,,,,,,,,,,,,,,,,,,,,,color36,001,2022_Apr_18_1457,ProdSingRedo,3.2.3,59.8937967102657,
88,0,88,0,,,,,,,,,,,,,,,,,,,,,,,,,,,,521.4857669007033,None,primary,aloud,yellow,48,234,519.4869234003127,None,None,519.4869234003127,None,,,,,,,,,,,,,,,,,,,,,,,,,,,,,,,,,color36,001,2022_Apr_18_1457,ProdSingRedo,3.2.3,59.8937967102657,
89,0,89,0,,,,,,,,,,,,,,,,,,,,,,,,,,,,524.0063722003251,None,company,silent,blue,81,64,522.0064128004014,None,None,522.0064128004014,None,,,,,,,,,,,,,,,,,,,,,,,,,,,,,,,,,color36,001,2022_Apr_18_1457,ProdSingRedo,3.2.3,59.8937967102657,
,,,,,,,,,,,,,,,,,,,,,,,,,,,,,,,,,,,,,,,,,,,524.5051474999636,None,k,125.35159059986472,524.5051474999636,None,,,,,,,,,,,,,,,,,,,,,,,,,,,color36,001,2022_Apr_18_1457,ProdSingRedo,3.2.3,59.8937967102657,
,,,,0,0,0,0,,,,,,,,,,,,,,,,,,,,,,,,671.0284030996263,None,,,,,,,,,,,,,,,,,beauty,new_silent,blue,0,164,18,650.4069579001516,None,650.4069579001516,None,3,14.721435001119971,650.4069579001516,None,665.1761362999678,None,665.6976602002978,None,665.6976602002978,None,f,5.302791299298406,665.6976602002978,None,,,color36,001,2022_Apr_18_1457,ProdSingRedo,3.2.3,59.8937967102657,
,,,,1,0,1,0,,,,,,,,,,,,,,,,,,,,,,,,677.9843626990914,None,,,,,,,,,,,,,,,,,bureau,aloud,yellow,1,47,37,671.5533812996,None,671.5533812996,None,6,3.1352871004492044,671.5533812996,None,674.7227980997413,None,675.2342201005667,None,675.2342201005667,None,r,2.718112898990512,675.2342201005667,None,,,color36,001,2022_Apr_18_1457,ProdSingRedo,3.2.3,59.8937967102657,
,,,,2,0,2,0,,,,,,,,,,,,,,,,,,,,,,,,691.6331677995622,None,,,,,,,,,,,,,,,,,junior,sing,red,2,17,167,678.5128620993346,None,678.5128620993346,None,5,9.599514799192548,678.5128620993346,None,688.1590439006686,None,688.6815792992711,None,688.6815792992711,None,f,2.9186937008053064,688.6815792992711,None,,,color36,001,2022_Apr_18_1457,ProdSingRedo,3.2.3,59.8937967102657,
,,,,3,0,3,0,,,,,,,,,,,,,,,,,,,,,,,,696.9855410996825,None,,,,,,,,,,,,,,,,,discovery,silent,blue,3,80,95,692.1593788992614,None,692.1593788992614,None,6,3.048919999971986,692.1593788992614,None,695.2584882993251,None,695.7751892004162,None,695.7751892004162,None,f,1.1772700995206833,695.7751892004162,None,,,color36,001,2022_Apr_18_1457,ProdSingRedo,3.2.3,59.8937967102657,
,,,,4,0,4,0,,,,,,,,,,,,,,,,,,,,,,,,704.028751200065,None,,,,,,,,,,,,,,,,,length,sing,red,4,27,169,697.5129010993987,None,697.5129010993987,None,6,2.9274097997695208,697.5129010993987,None,700.493854900822,None,701.0108758006245,None,701.0108758006245,None,r,2.9813490007072687,701.0108758006245,None,,,color36,001,2022_Apr_18_1457,ProdSingRedo,3.2.3,59.8937967102657,
,,,,5,0,5,0,,,,,,,,,,,,,,,,,,,,,,,,709.4821911007166,None,,,,,,,,,,,,,,,,,emergency,new_silent,blue,5,171,110,704.5576774999499,None,704.5576774999499,None,2,3.1546304002404213,704.5576774999499,None,707.768493000418,None,708.2867315001786,None,708.2867315001786,None,n,1.1614948995411396,708.2867315001786,None,,,color36,001,2022_Apr_18_1457,ProdSingRedo,3.2.3,59.8937967102657,
,,,,6,0,6,0,,,,,,,,,,,,,,,,,,,,,,,,715.204502100125,None,,,,,,,,,,,,,,,,,signal,silent,blue,6,68,287,710.0163161996752,None,710.0163161996752,None,4,3.487909698858857,710.0163161996752,None,713.5653774999082,None,714.0818656999618,None,714.0818656999618,None,f,1.0948247984051704,714.0818656999618,None,,,color36,001,2022_Apr_18_1457,ProdSingRedo,3.2.3,59.8937967102657,
,,,,7,0,7,0,,,,,,,,,,,,,,,,,,,,,,,,720.5770660992712,None,,,,,,,,,,,,,,,,,household,new_aloud,yellow,7,148,154,715.7343733999878,None,715.7343733999878,None,1,2.0578675996512175,715.7343733999878,None,717.8406115006655,None,718.3631730005145,None,718.3631730005145,None,n,2.181113099679351,718.3631730005145,None,,,color36,001,2022_Apr_18_1457,ProdSingRedo,3.2.3,59.8937967102657,
,,,,8,0,8,0,,,,,,,,,,,,,,,,,,,,,,,,726.8653555996716,None,,,,,,,,,,,,,,,,,principal,new_silent,blue,8,156,236,721.1039495002478,None,721.1039495002478,None,3,3.6007077991962433,721.1039495002478,None,724.74873650074,None,725.2644760999829,None,725.2644760999829,None,f,1.5676616001874208,725.2644760999829,None,,,color36,001,2022_Apr_18_1457,ProdSingRedo,3.2.3,59.8937967102657,
,,,,9,0,9,0,,,,,,,,,,,,,,,,,,,,,,,,732.9547853004187,None,,,,,,,,,,,,,,,,,department,new_sing,red,9,109,90,727.3916414994746,None,727.3916414994746,None,6,3.3687105011194944,727.3916414994746,None,730.8089320994914,None,731.3236384000629,None,731.3236384000629,None,r,1.5966733992099762,731.3236384000629,None,,,color36,001,2022_Apr_18_1457,ProdSingRedo,3.2.3,59.8937967102657,
,,,,10,0,10,0,,,,,,,,,,,,,,,,,,,,,,,,737.5764224994928,None,,,,,,,,,,,,,,,,,voice,new_silent,blue,10,160,348,733.4797187000513,None,733.4797187000513,None,1,2.600594500079751,733.4797187000513,None,736.1305940002203,None,736.6434726994485,None,736.6434726994485,None,n,0.8928303997963667,736.6434726994485,None,,,color36,001,2022_Apr_18_1457,ProdSingRedo,3.2.3,59.8937967102657,
,,,,11,0,11,0,,,,,,,,,,,,,,,,,,,,,,,,740.8120485004038,None,,,,,,,,,,,,,,,,,native,silent,blue,11,66,199,738.1073410995305,None,738.1073410995305,None,1,1.340888999402523,738.1073410995305,None,739.4912224002182,None,740.0213849004358,None,740.0213849004358,None,n,0.7551176995038986,740.0213849004358,None,,,color36,001,2022_Apr_18_1457,ProdSingRedo,3.2.3,59.8937967102657,
,,,,12,0,12,0,,,,,,,,,,,,,,,,,,,,,,,,745.2005643993616,None,,,,,,,,,,,,,,,,,finance,new_silent,blue,12,170,129,741.3402651008219,None,741.3402651008219,None,4,1.9483984000980854,741.3402651008219,None,743.3277688995004,None,743.8546085990965,None,743.8546085990965,None,r,1.3215218000113964,743.8546085990965,None,,,color36,001,2022_Apr_18_1457,ProdSingRedo,3.2.3,59.8937967102657,
,,,,13,0,13,0,,,,,,,,,,,,,,,,,,,,,,,,750.1552852001041,None,,,,,,,,,,,,,,,,,second,new_silent,blue,13,178,278,745.7227900996804,None,745.7227900996804,None,4,2.5172939002513885,745.7227900996804,None,748.2772805001587,None,748.8002077993006,None,748.8002077993006,None,f,1.3199092000722885,748.8002077993006,None,,,color36,001,2022_Apr_18_1457,ProdSingRedo,3.2.3,59.8937967102657,
,,,,14,0,14,0,,,,,,,,,,,,,,,,,,,,,,,,754.3929759003222,None,,,,,,,,,,,,,,,,,employment,new_silent,blue,14,153,111,750.6808685995638,None,750.6808685995638,None,1,1.919292999431491,750.6808685995638,None,752.6429910995066,None,753.163428299129,None,753.163428299129,None,n,1.204882599413395,753.163428299129,None,,,color36,001,2022_Apr_18_1457,ProdSingRedo,3.2.3,59.8937967102657,
,,,,15,0,15,0,,,,,,,,,,,,,,,,,,,,,,,,758.6128921993077,None,,,,,,,,,,,,,,,,,curve,new_silent,blue,15,168,82,754.924513200298,None,754.924513200298,None,3,2.0676390007138252,754.924513200298,None,757.0399535000324,None,757.569116499275,None,757.569116499275,None,n,1.007151698693633,757.569116499275,None,,,color36,001,2022_Apr_18_1457,ProdSingRedo,3.2.3,59.8937967102657,
,,,,16,0,16,0,,,,,,,,,,,,,,,,,,,,,,,,766.1540696006268,None,,,,,,,,,,,,,,,,,growth,aloud,yellow,16,44,144,759.1487042997032,None,759.1487042997032,None,6,4.579328699037433,759.1487042997032,None,763.7707045003772,None,764.2910038996488,None,764.2910038996488,None,r,1.837499000132084,764.2910038996488,None,,,color36,001,2022_Apr_18_1457,ProdSingRedo,3.2.3,59.8937967102657,
,,,,17,0,17,0,,,,,,,,,,,,,,,,,,,,,,,,772.3779243007302,None,,,,,,,,,,,,,,,,,skill,new_silent,blue,17,173,289,766.679514400661,None,766.679514400661,None,4,3.392603900283575,766.679514400661,None,770.1212609000504,None,770.6476451996714,None,770.6476451996714,None,n,1.7047424986958504,770.6476451996714,None,,,color36,001,2022_Apr_18_1457,ProdSingRedo,3.2.3,59.8937967102657,
,,,,18,0,18,0,,,,,,,,,,,,,,,,,,,,,,,,782.8054173998535,None,,,,,,,,,,,,,,,,,agency,new_sing,red,18,106,4,772.9036132004112,None,772.9036132004112,None,4,8.032469300553203,772.9036132004112,None,780.9924417994916,None,781.5079950001091,None,781.5079950001091,None,f,1.2601025011390448,781.5079950001091,None,,,color36,001,2022_Apr_18_1457,ProdSingRedo,3.2.3,59.8937967102657,
,,,,19,0,19,0,,,,,,,,,,,,,,,,,,,,,,,,787.7420439999551,None,,,,,,,,,,,,,,,,,level,sing,red,19,16,170,783.3322244994342,None,783.3322244994342,None,5,2.8919546008110046,783.3322244994342,None,786.2742027007043,None,786.7940346002579,None,786.7940346002579,None,f,0.918044300749898,786.7940346002579,None,,,color36,001,2022_Apr_18_1457,ProdSingRedo,3.2.3,59.8937967102657,
,,,,20,0,20,0,,,,,,,,,,,,,,,,,,,,,,,,792.7649169992656,None,,,,,,,,,,,,,,,,,crowd,aloud,yellow,20,58,81,788.2654181998223,None,788.2654181998223,None,5,2.7507577016949654,788.2654181998223,None,791.0562663991004,None,791.5839754994959,None,791.5839754994959,None,n,1.1440782994031906,791.5839754994959,None,,,color36,001,2022_Apr_18_1457,ProdSingRedo,3.2.3,59.8937967102657,
,,,,21,0,21,0,,,,,,,,,,,,,,,,,,,,,,,,798.3033492993563,None,,,,,,,,,,,,,,,,,military,sing,red,21,10,190,793.2968010008335,None,793.2968010008335,None,6,3.3197571001946926,793.2968010008335,None,796.6668877992779,None,797.1962743997574,None,797.1962743997574,None,f,1.0758627001196146,797.1962743997574,None,,,color36,001,2022_Apr_18_1457,ProdSingRedo,3.2.3,59.8937967102657,
,,,,22,0,22,0,,,,,,,,,,,,,,,,,,,,,,,,804.1762819997966,None,,,,,,,,,,,,,,,,,vision,aloud,yellow,22,53,347,798.8261601999402,None,798.8261601999402,None,5,3.5901008006185293,798.8261601999402,None,802.4531788006425,None,802.9774185996503,None,802.9774185996503,None,f,1.158653099089861,802.9774185996503,None,,,color36,001,2022_Apr_18_1457,ProdSingRedo,3.2.3,59.8937967102657,
,,,,23,0,23,0,,,,,,,,,,,,,,,,,,,,,,,,812.1007470991462,None,,,,,,,,,,,,,,,,,danger,aloud,yellow,23,45,85,804.6918940003961,None,804.6918940003961,None,4,5.412490699440241,804.6918940003961,None,810.1507794000208,None,810.6701219994575,None,810.6701219994575,None,r,1.4020677991211414,810.6701219994575,None,,,color36,001,2022_Apr_18_1457,ProdSingRedo,3.2.3,59.8937967102657,
,,,,24,0,24,0,,,,,,,,,,,,,,,,,,,,,,,,818.5913463998586,None,,,,,,,,,,,,,,,,,personnel,aloud,yellow,24,36,219,812.6238480005413,None,812.6238480005413,None,1,4.344353798776865,812.6238480005413,None,817.0106962993741,None,817.5253820996732,None,817.5253820996732,None,n,1.0347662009298801,817.5253820996732,None,,,color36,001,2022_Apr_18_1457,ProdSingRedo,3.2.3,59.8937967102657,
,,,,25,0,25,0,,,,,,,,,,,,,,,,,,,,,,,,821.9103669002652,None,,,,,,,,,,,,,,,,,bucket,aloud,yellow,25,38,33,819.1202742997557,None,819.1202742997557,None,1,1.607854600995779,819.1202742997557,None,820.7844941001385,None,821.2978217992932,None,821.2978217992932,None,n,0.5822653993964195,821.2978217992932,None,,,color36,001,2022_Apr_18_1457,ProdSingRedo,3.2.3,59.8937967102657,
,,,,26,0,26,0,,,,,,,,,,,,,,,,,,,,,,,,824.9467168003321,None,,,,,,,,,,,,,,,,,piece,new_aloud,yellow,26,121,221,822.4324609991163,None,822.4324609991163,None,1,1.3200439997017384,822.4324609991163,None,823.7872259002179,None,824.2969838995486,None,824.2969838995486,None,n,0.6151407007128,824.2969838995486,None,,,color36,001,2022_Apr_18_1457,ProdSingRedo,3.2.3,59.8937967102657,
,,,,27,0,27,0,,,,,,,,,,,,,,,,,,,,,,,,828.9270713999867,None,,,,,,,,,,,,,,,,,strain,new_aloud,yellow,27,137,308,825.4729938991368,None,825.4729938991368,None,1,1.9670678991824389,825.4729938991368,None,827.4759996999055,None,828.0089573003352,None,828.0089573003352,None,n,0.8869727998971939,828.0089573003352,None,,,color36,001,2022_Apr_18_1457,ProdSingRedo,3.2.3,59.8937967102657,
,,,,28,0,28,0,,,,,,,,,,,,,,,,,,,,,,,,834.0559592992067,None,,,,,,,,,,,,,,,,,gesture,new_sing,red,28,94,137,829.4638704005629,None,829.4638704005629,None,1,2.8802838008850813,829.4638704005629,None,832.3941929992288,None,832.911245400086,None,832.911245400086,None,n,1.1207394003868103,832.911245400086,None,,,color36,001,2022_Apr_18_1457,ProdSingRedo,3.2.3,59.8937967102657,
,,,,29,0,29,0,,,,,,,,,,,,,,,,,,,,,,,,842.3138260003179,None,,,,,,,,,,,,,,,,,tragedy,new_silent,blue,29,157,335,834.5822606999427,None,834.5822606999427,None,3,5.8177431002259254,834.5822606999427,None,840.4500072002411,None,840.9703024998307,None,840.9703024998307,None,f,1.3097157999873161,840.9703024998307,None,,,color36,001,2022_Apr_18_1457,ProdSingRedo,3.2.3,59.8937967102657,
,,,,30,0,30,0,,,,,,,,,,,,,,,,,,,,,,,,850.6214949004352,None,,,,,,,,,,,,,,,,,management,sing,red,30,20,177,842.8459377996624,None,842.8459377996624,None,5,5.818089600652456,842.8459377996624,None,848.7188095990568,None,849.2356279995292,None,849.2356279995292,None,r,1.3483405001461506,849.2356279995292,None,,,color36,001,2022_Apr_18_1457,ProdSingRedo,3.2.3,59.8937967102657,
,,,,31,0,31,0,,,,,,,,,,,,,,,,,,,,,,,,855.7785826995969,None,,,,,,,,,,,,,,,,,literature,silent,blue,31,63,173,851.1549437996,None,851.1549437996,None,3,3.0694829989224672,851.1549437996,None,854.2709302008152,None,854.8032661993057,None,854.8032661993057,None,f,0.9489924013614655,854.8032661993057,None,,,color36,001,2022_Apr_18_1457,ProdSingRedo,3.2.3,59.8937967102657,
,,,,32,0,32,0,,,,,,,,,,,,,,,,,,,,,,,,859.4987390004098,None,,,,,,,,,,,,,,,,,order,silent,blue,32,62,207,856.2872783001512,None,856.2872783001512,None,5,1.6086842007935047,856.2872783001512,None,857.9418564997613,None,858.4621879998595,None,858.4621879998595,None,f,1.0101106017827988,858.4621879998595,None,,,color36,001,2022_Apr_18_1457,ProdSingRedo,3.2.3,59.8937967102657,
,,,,33,0,33,0,,,,,,,,,,,,,,,,,,,,,,,,863.3682349994779,None,,,,,,,,,,,,,,,,,surprise,silent,blue,33,85,317,860.02504610084,None,860.02504610084,None,2,1.583126800134778,860.02504610084,None,861.6492979004979,None,862.1764780003577,None,862.1764780003577,None,f,1.1596019994467497,862.1764780003577,None,,,color36,001,2022_Apr_18_1457,ProdSingRedo,3.2.3,59.8937967102657,
,,,,34,0,34,0,,,,,,,,,,,,,,,,,,,,,,,,867.9061884991825,None,,,,,,,,,,,,,,,,,career,new_sing,red,34,93,42,863.8968886993825,None,863.8968886993825,None,1,2.50316789932549,863.8968886993825,None,866.4465868994594,None,866.9569244999439,None,866.9569244999439,None,n,0.9231196008622646,866.9569244999439,None,,,color36,001,2022_Apr_18_1457,ProdSingRedo,3.2.3,59.8937967102657,
,,,,35,0,35,0,,,,,,,,,,,,,,,,,,,,,,,,873.4785757996142,None,,,,,,,,,,,,,,,,,subject,aloud,yellow,35,30,312,868.4364145006984,None,868.4364145006984,None,3,3.4674904998391867,868.4364145006984,None,871.9602119997144,None,872.4844559002668,None,872.4844559002668,None,f,0.9634029008448124,872.4844559002668,None,,,color36,001,2022_Apr_18_1457,ProdSingRedo,3.2.3,59.8937967102657,
,,,,36,0,36,0,,,,,,,,,,,,,,,,,,,,,,,,878.199828600511,None,,,,,,,,,,,,,,,,,tennis,new_sing,red,36,111,323,874.002296499908,None,874.002296499908,None,1,2.565580900758505,874.002296499908,None,876.6117381993681,None,877.131020700559,None,877.131020700559,None,n,1.0370470006018877,877.131020700559,None,,,color36,001,2022_Apr_18_1457,ProdSingRedo,3.2.3,59.8937967102657,
,,,,37,0,37,0,,,,,,,,,,,,,,,,,,,,,,,,887.5788860004395,None,,,,,,,,,,,,,,,,,pattern,aloud,yellow,37,39,214,878.7285961005837,None,878.7285961005837,None,4,5.751497000455856,878.7285961005837,None,884.5235018990934,None,885.0436806995422,None,885.0436806995422,None,f,2.508278999477625,885.0436806995422,None,,,color36,001,2022_Apr_18_1457,ProdSingRedo,3.2.3,59.8937967102657,
,,,,38,0,38,0,,,,,,,,,,,,,,,,,,,,,,,,891.8287151008844,None,,,,,,,,,,,,,,,,,month,sing,red,38,4,193,888.0991903003305,None,888.0991903003305,None,1,1.8126574996858835,888.0991903003305,None,889.9568162001669,None,890.4796149991453,None,890.4796149991453,None,n,1.3123255986720324,890.4796149991453,None,,,color36,001,2022_Apr_18_1457,ProdSingRedo,3.2.3,59.8937967102657,
,,,,39,0,39,0,,,,,,,,,,,,,,,,,,,,,,,,897.1517423000187,None,,,,,,,,,,,,,,,,,story,new_sing,red,39,116,306,892.355848800391,None,892.355848800391,None,3,3.292347500100732,892.355848800391,None,895.6973605994135,None,896.2196782007813,None,896.2196782007813,None,f,0.9081955999135971,896.2196782007813,None,,,color36,001,2022_Apr_18_1457,ProdSingRedo,3.2.3,59.8937967102657,
,,,,40,0,40,0,,,,,,,,,,,,,,,,,,,,,,,,905.459721699357,None,,,,,,,,,,,,,,,,,bright,new_silent,blue,40,179,29,897.6757874991745,None,897.6757874991745,None,2,6.420163499191403,897.6757874991745,None,904.1442173998803,None,904.6512660998851,None,904.6512660998851,None,n,0.7727119997143745,904.6512660998851,None,,,color36,001,2022_Apr_18_1457,ProdSingRedo,3.2.3,59.8937967102657,
,,,,41,0,41,0,,,,,,,,,,,,,,,,,,,,,,,,910.5208055991679,None,,,,,,,,,,,,,,,,,worker,new_sing,red,41,119,356,905.9909988995641,None,905.9909988995641,None,6,3.080937098711729,905.9909988995641,None,909.1083466000855,None,909.6372970994562,None,909.6372970994562,None,r,0.8427099995315075,909.6372970994562,None,,,color36,001,2022_Apr_18_1457,ProdSingRedo,3.2.3,59.8937967102657,
,,,,42,0,42,0,,,,,,,,,,,,,,,,,,,,,,,,914.9684465005994,None,,,,,,,,,,,,,,,,,match,new_aloud,yellow,42,141,181,911.047366200015,None,911.047366200015,None,4,2.19247530028224,911.047366200015,None,913.2789491992444,None,913.7948553003371,None,913.7948553003371,None,f,1.1490521002560854,913.7948553003371,None,,,color36,001,2022_Apr_18_1457,ProdSingRedo,3.2.3,59.8937967102657,
,,,,43,0,43,0,,,,,,,,,,,,,,,,,,,,,,,,920.6265433002263,None,,,,,,,,,,,,,,,,,resistance,new_sing,red,43,108,262,915.4952589999884,None,915.4952589999884,None,1,3.8886421006172895,915.4952589999884,None,919.4236766994,None,919.9486181996763,None,919.9486181996763,None,n,0.6431671008467674,919.9486181996763,None,,,color36,001,2022_Apr_18_1457,ProdSingRedo,3.2.3,59.8937967102657,
,,,,44,0,44,0,,,,,,,,,,,,,,,,,,,,,,,,924.3990733996034,None,,,,,,,,,,,,,,,,,travel,silent,blue,44,67,338,921.1545988004655,None,921.1545988004655,None,6,2.101351000368595,921.1545988004655,None,923.3132543005049,None,923.8354593999684,None,923.8354593999684,None,r,0.524497501552105,923.8354593999684,None,,,color36,001,2022_Apr_18_1457,ProdSingRedo,3.2.3,59.8937967102657,
,,,,45,0,45,0,,,,,,,,,,,,,,,,,,,,,,,,929.3911511991173,None,,,,,,,,,,,,,,,,,portion,sing,red,45,21,228,924.9200886003673,None,924.9200886003673,None,3,2.6638280004262924,924.9200886003673,None,927.6272174008191,None,928.1504206005484,None,928.1504206005484,None,f,1.2089994996786118,928.1504206005484,None,,,color36,001,2022_Apr_18_1457,ProdSingRedo,3.2.3,59.8937967102657,
,,,,46,0,46,0,,,,,,,,,,,,,,,,,,,,,,,,935.7396482005715,None,,,,,,,,,,,,,,,,,fashion,new_aloud,yellow,46,139,125,929.9083258006722,None,929.9083258006722,None,5,4.443697800859809,929.9083258006722,None,934.3992587998509,None,934.9316879007965,None,934.9316879007965,None,r,0.780112499371171,934.9316879007965,None,,,color36,001,2022_Apr_18_1457,ProdSingRedo,3.2.3,59.8937967102657,
,,,,47,0,47,0,,,,,,,,,,,,,,,,,,,,,,,,942.2199824005365,None,,,,,,,,,,,,,,,,,meeting,sing,red,47,7,187,936.2652633991092,None,936.2652633991092,None,5,4.5744530986994505,936.2652633991092,None,940.892406899482,None,941.4148018993437,None,941.4148018993437,None,r,0.7690919004380703,941.4148018993437,None,,,color36,001,2022_Apr_18_1457,ProdSingRedo,3.2.3,59.8937967102657,
,,,,48,0,48,0,,,,,,,,,,,,,,,,,,,,,,,,946.9520411994308,None,,,,,,,,,,,,,,,,,article,new_sing,red,48,90,11,942.7470670994371,None,942.7470670994371,None,4,3.068649599328637,942.7470670994371,None,945.8692012000829,None,946.3889326993376,None,946.3889326993376,None,f,0.5307395998388529,946.3889326993376,None,,,color36,001,2022_Apr_18_1457,ProdSingRedo,3.2.3,59.8937967102657,
,,,,49,0,49,0,,,,,,,,,,,,,,,,,,,,,,,,951.9743703007698,None,,,,,,,,,,,,,,,,,cousin,new_silent,blue,49,155,76,947.4752214998007,None,947.4752214998007,None,1,2.956606399267912,947.4752214998007,None,950.4898764993995,None,951.0090686008334,None,951.0090686008334,None,n,0.9349747002124786,951.0090686008334,None,,,color36,001,2022_Apr_18_1457,ProdSingRedo,3.2.3,59.8937967102657,
,,,,50,0,50,0,,,,,,,,,,,,,,,,,,,,,,,,955.1598834991455,None,,,,,,,,,,,,,,,,,account,silent,blue,50,87,1,952.5093297008425,None,952.5093297008425,None,2,1.5387792009860277,952.5093297008425,None,954.1002590991557,None,954.614798700437,None,954.614798700437,None,n,0.5209902990609407,954.614798700437,None,,,color36,001,2022_Apr_18_1457,ProdSingRedo,3.2.3,59.8937967102657,
,,,,51,0,51,0,,,,,,,,,,,,,,,,,,,,,,,,960.0798582006246,None,,,,,,,,,,,,,,,,,smell,sing,red,51,28,291,955.6824325006455,None,955.6824325006455,None,6,3.4689578004181385,955.6824325006455,None,959.1736418996006,None,959.6881041992456,None,959.6881041992456,None,r,0.36789789982140064,959.6881041992456,None,,,color36,001,2022_Apr_18_1457,ProdSingRedo,3.2.3,59.8937967102657,
,,,,52,0,52,0,,,,,,,,,,,,,,,,,,,,,,,,964.7966328002512,None,,,,,,,,,,,,,,,,,right,aloud,yellow,52,56,265,960.6072177998722,None,960.6072177998722,None,4,2.6964541003108025,960.6072177998722,None,963.3564960993826,None,963.8588941991329,None,963.8588941991329,None,f,0.9085924010723829,963.8588941991329,None,,,color36,001,2022_Apr_18_1457,ProdSingRedo,3.2.3,59.8937967102657,
,,,,53,0,53,0,,,,,,,,,,,,,,,,,,,,,,,,969.1921896003187,None,,,,,,,,,,,,,,,,,sweet,new_aloud,yellow,53,145,319,965.3295293990523,None,965.3295293990523,None,5,2.9343037996441126,965.3295293990523,None,968.308439899236,None,968.8259816002101,None,968.8259816002101,None,f,0.32592480070888996,968.8259816002101,None,,,color36,001,2022_Apr_18_1457,ProdSingRedo,3.2.3,59.8937967102657,
,,,,54,0,54,0,,,,,,,,,,,,,,,,,,,,,,,,975.1477262992412,None,,,,,,,,,,,,,,,,,interior,new_silent,blue,54,159,164,969.7103749997914,None,969.7103749997914,None,3,3.7295869011431932,969.7103749997914,None,973.4899841006845,None,974.0140225999057,None,974.0140225999057,None,n,1.097639499232173,974.0140225999057,None,,,color36,001,2022_Apr_18_1457,ProdSingRedo,3.2.3,59.8937967102657,
,,,,55,0,55,0,,,,,,,,,,,,,,,,,,,,,,,,980.8356954008341,None,,,,,,,,,,,,,,,,,range,sing,red,55,18,251,975.6730410996825,None,975.6730410996825,None,5,4.254881700500846,975.6730410996825,None,979.9852863997221,None,980.5079557001591,None,980.5079557001591,None,f,0.3001975007355213,980.5079557001591,None,,,color36,001,2022_Apr_18_1457,ProdSingRedo,3.2.3,59.8937967102657,
,,,,56,0,56,0,,,,,,,,,,,,,,,,,,,,,,,,984.4704659990966,None,,,,,,,,,,,,,,,,,community,silent,blue,56,73,63,981.366488000378,None,981.366488000378,None,1,2.1931356005370617,981.366488000378,None,983.599813900888,None,984.1279016006738,None,984.1279016006738,None,n,0.3039156012237072,984.1279016006738,None,,,color36,001,2022_Apr_18_1457,ProdSingRedo,3.2.3,59.8937967102657,
,,,,57,0,57,0,,,,,,,,,,,,,,,,,,,,,,,,988.3930022008717,None,,,,,,,,,,,,,,,,,dance,sing,red,57,26,84,984.9983300995082,None,984.9983300995082,None,1,1.9693483989685774,984.9983300995082,None,987.0015031993389,None,987.5123081002384,None,987.5123081002384,None,n,0.8471917007118464,987.5123081002384,None,,,color36,001,2022_Apr_18_1457,ProdSingRedo,3.2.3,59.8937967102657,
,,,,58,0,58,0,,,,,,,,,,,,,,,,,,,,,,,,991.9848766997457,None,,,,,,,,,,,,,,,,,review,sing,red,58,6,263,988.9067965000868,None,988.9067965000868,None,1,2.1409539002925158,988.9067965000868,None,991.094433600083,None,991.6168587002903,None,991.6168587002903,None,n,0.3269549999386072,991.6168587002903,None,,,color36,001,2022_Apr_18_1457,ProdSingRedo,3.2.3,59.8937967102657,
,,,,59,0,59,0,,,,,,,,,,,,,,,,,,,,,,,,997.3539835996926,None,,,,,,,,,,,,,,,,,rural,new_silent,blue,59,158,269,992.5096777994186,None,992.5096777994186,None,6,3.0899762008339167,992.5096777994186,None,995.6553805992007,None,996.1730802990496,None,996.1730802990496,None,r,1.1468540001660585,996.1730802990496,None,,,color36,001,2022_Apr_18_1457,ProdSingRedo,3.2.3,59.8937967102657,
,,,,60,0,60,0,,,,,,,,,,,,,,,,,,,,,,,,1004.7538066003472,None,,,,,,,,,,,,,,,,,machinery,sing,red,60,19,175,997.8797997999936,None,997.8797997999936,None,6,4.631901800632477,997.8797997999936,None,1002.5569045003504,None,1003.0824382007122,None,1003.0824382007122,None,r,1.636998599395156,1003.0824382007122,None,,,color36,001,2022_Apr_18_1457,ProdSingRedo,3.2.3,59.8937967102657,
,,,,61,0,61,0,,,,,,,,,,,,,,,,,,,,,,,,1011.1342504993081,None,,,,,,,,,,,,,,,,,surface,aloud,yellow,61,57,316,1005.2909389995039,None,1005.2909389995039,None,4,3.868946800008416,1005.2909389995039,None,1009.2136432994157,None,1009.741144200787,None,1009.741144200787,None,n,1.3624073006212711,1009.741144200787,None,,,color36,001,2022_Apr_18_1457,ProdSingRedo,3.2.3,59.8937967102657,
,,,,62,0,62,0,,,,,,,,,,,,,,,,,,,,,,,,1015.7535429000854,None,,,,,,,,,,,,,,,,,sound,aloud,yellow,62,40,295,1011.6583817992359,None,1011.6583817992359,None,4,1.917281599715352,1011.6583817992359,None,1013.6183921005577,None,1014.1378777995706,None,1014.1378777995706,None,n,1.5817658007144928,1014.1378777995706,None,,,color36,001,2022_Apr_18_1457,ProdSingRedo,3.2.3,59.8937967102657,
,,,,63,0,63,0,,,,,,,,,,,,,,,,,,,,,,,,1020.7577541992068,None,,,,,,,,,,,,,,,,,accident,sing,red,63,2,0,1016.2801802996546,None,1016.2801802996546,None,6,2.9031877014786005,1016.2801802996546,None,1019.2189355008304,None,1019.7312339004129,None,1019.7312339004129,None,f,0.9883469007909298,1019.7312339004129,None,,,color36,001,2022_Apr_18_1457,ProdSingRedo,3.2.3,59.8937967102657,
,,,,64,0,64,0,,,,,,,,,,,,,,,,,,,,,,,,1025.7996360007674,None,,,,,,,,,,,,,,,,,brief,aloud,yellow,64,59,28,1021.2855286002159,None,1021.2855286002159,None,4,3.490481100976467,1021.2855286002159,None,1024.8215228002518,None,1025.3542851991951,None,1025.3542851991951,None,n,0.4050102010369301,1025.3542851991951,None,,,color36,001,2022_Apr_18_1457,ProdSingRedo,3.2.3,59.8937967102657,
,,,,65,0,65,0,,,,,,,,,,,,,,,,,,,,,,,,1032.4104335997254,None,,,,,,,,,,,,,,,,,clean,sing,red,65,22,51,1026.3065821994096,None,1026.3065821994096,None,6,4.277147699147463,1026.3065821994096,None,1030.635853400454,None,1031.1576731000096,None,1031.1576731000096,None,r,1.2179850991815329,1031.1576731000096,None,,,color36,001,2022_Apr_18_1457,ProdSingRedo,3.2.3,59.8937967102657,
,,,,66,0,66,0,,,,,,,,,,,,,,,,,,,,,,,,1036.4754320997745,None,,,,,,,,,,,,,,,,,corner,new_sing,red,66,103,69,1032.926271699369,None,1032.926271699369,None,1,2.201323000714183,1032.926271699369,None,1035.1665302999318,None,1035.6926961001009,None,1035.6926961001009,None,n,0.7553912997245789,1035.6926961001009,None,,,color36,001,2022_Apr_18_1457,ProdSingRedo,3.2.3,59.8937967102657,
,,,,67,0,67,0,,,,,,,,,,,,,,,,,,,,,,,,1039.9775686003268,None,,,,,,,,,,,,,,,,,engineer,aloud,yellow,67,51,114,1036.986803399399,None,1036.986803399399,None,6,2.044767800718546,1036.986803399399,None,1039.0691957995296,None,1039.5828606002033,None,1039.5828606002033,None,r,0.3607407994568348,1039.5828606002033,None,,,color36,001,2022_Apr_18_1457,ProdSingRedo,3.2.3,59.8937967102657,
,,,,68,0,68,0,,,,,,,,,,,,,,,,,,,,,,,,1044.7665062993765,None,,,,,,,,,,,,,,,,,territory,new_aloud,yellow,68,147,324,1040.5029748994857,None,1040.5029748994857,None,6,3.3285851012915373,1040.5029748994857,None,1043.8855271991342,None,1044.4040763992816,None,1044.4040763992816,None,r,0.33160549961030483,1044.4040763992816,None,,,color36,001,2022_Apr_18_1457,ProdSingRedo,3.2.3,59.8937967102657,
,,,,69,0,69,0,,,,,,,,,,,,,,,,,,,,,,,,1047.6007969994098,None,,,,,,,,,,,,,,,,,victory,new_silent,blue,69,172,346,1045.295668600127,None,1045.295668600127,None,3,1.663621099665761,1045.295668600127,None,1046.9869481995702,None,1047.5083571001887,None,1047.5083571001887,None,n,0.05926609970629215,1047.5083571001887,None,,,color36,001,2022_Apr_18_1457,ProdSingRedo,3.2.3,59.8937967102657,
,,,,70,0,70,0,,,,,,,,,,,,,,,,,,,,,,,,1056.3784373998642,None,,,,,,,,,,,,,,,,,master,new_aloud,yellow,70,130,180,1048.127732200548,None,1048.127732200548,None,5,6.680267199873924,1048.127732200548,None,1054.859938800335,None,1055.3816899005324,None,1055.3816899005324,None,f,0.9618768002837896,1055.3816899005324,None,,,color36,001,2022_Apr_18_1457,ProdSingRedo,3.2.3,59.8937967102657,
,,,,71,0,71,0,,,,,,,,,,,,,,,,,,,,,,,,1061.0045602992177,None,,,,,,,,,,,,,,,,,solution,new_aloud,yellow,71,138,294,1056.9066224992275,None,1056.9066224992275,None,3,2.076894499361515,1056.9066224992275,None,1059.0300782006234,None,1059.5495868008584,None,1059.5495868008584,None,n,1.4100391995161772,1059.5495868008584,None,,,color36,001,2022_Apr_18_1457,ProdSingRedo,3.2.3,59.8937967102657,
,,,,72,0,72,0,,,,,,,,,,,,,,,,,,,,,,,,1064.8539448995143,None,,,,,,,,,,,,,,,,,period,silent,blue,72,69,217,1061.5211344994605,None,1061.5211344994605,None,4,2.0873674005270004,1061.5211344994605,None,1063.6519905999303,None,1064.1653025001287,None,1064.1653025001287,None,f,0.6504046004265547,1064.1653025001287,None,,,color36,001,2022_Apr_18_1457,ProdSingRedo,3.2.3,59.8937967102657,
,,,,73,0,73,0,,,,,,,,,,,,,,,,,,,,,,,,1071.4585771001875,None,,,,,,,,,,,,,,,,,public,aloud,yellow,73,37,244,1065.3773229997605,None,1065.3773229997605,None,5,4.358262900263071,1065.3773229997605,None,1069.7855974007398,None,1070.3114327006042,None,1070.3114327006042,None,f,1.1123677007853985,1070.3114327006042,None,,,color36,001,2022_Apr_18_1457,ProdSingRedo,3.2.3,59.8937967102657,
,,,,74,0,74,0,,,,,,,,,,,,,,,,,,,,,,,,1076.2857099995017,None,,,,,,,,,,,,,,,,,society,new_sing,red,74,118,293,1071.9861657992005,None,1071.9861657992005,None,1,2.6373070999979973,1071.9861657992005,None,1074.6736591998488,None,1075.1997270006686,None,1075.1997270006686,None,n,1.0557548999786377,1075.1997270006686,None,,,color36,001,2022_Apr_18_1457,ProdSingRedo,3.2.3,59.8937967102657,
,,,,75,0,75,0,,,,,,,,,,,,,,,,,,,,,,,,1081.1356364991516,None,,,,,,,,,,,,,,,,,discussion,new_sing,red,75,112,96,1076.806135199964,None,1076.806135199964,None,1,3.097368000075221,1076.806135199964,None,1079.95307629928,None,1080.4610699005425,None,1080.4610699005425,None,n,0.6504152994602919,1080.4610699005425,None,,,color36,001,2022_Apr_18_1457,ProdSingRedo,3.2.3,59.8937967102657,
,,,,76,0,76,0,,,,,,,,,,,,,,,,,,,,,,,,1086.6750093996525,None,,,,,,,,,,,,,,,,,court,new_aloud,yellow,76,149,75,1081.660237500444,None,1081.660237500444,None,6,3.283415300771594,1081.660237500444,None,1084.9884823001921,None,1085.5081553999335,None,1085.5081553999335,None,r,1.1397941000759602,1085.5081553999335,None,,,color36,001,2022_Apr_18_1457,ProdSingRedo,3.2.3,59.8937967102657,
,,,,77,0,77,0,,,,,,,,,,,,,,,,,,,,,,,,1090.4105878993869,None,,,,,,,,,,,,,,,,,citizen,new_aloud,yellow,77,127,50,1087.1858571004122,None,1087.1858571004122,None,3,2.2536292001605034,1087.1858571004122,None,1089.4926370996982,None,1090.013464000076,None,1090.013464000076,None,n,0.3623095992952585,1090.013464000076,None,,,color36,001,2022_Apr_18_1457,ProdSingRedo,3.2.3,59.8937967102657,
,,,,78,0,78,0,,,,,,,,,,,,,,,,,,,,,,,,1094.9647493008524,None,,,,,,,,,,,,,,,,,answer,new_silent,blue,78,151,8,1090.9372482001781,None,1090.9372482001781,None,4,1.5102315004915,1090.9372482001781,None,1092.4963882993907,None,1093.0203428994864,None,1093.0203428994864,None,n,1.907125499099493,1093.0203428994864,None,,,color36,001,2022_Apr_18_1457,ProdSingRedo,3.2.3,59.8937967102657,
,,,,79,0,79,0,,,,,,,,,,,,,,,,,,,,,,,,1098.7683153990656,None,,,,,,,,,,,,,,,,,balance,silent,blue,79,88,17,1095.49576099962,None,1095.49576099962,None,2,2.16763730160892,1095.49576099962,None,1097.7151027005166,None,1098.2400407996029,None,1098.2400407996029,None,n,0.5035379994660616,1098.2400407996029,None,,,color36,001,2022_Apr_18_1457,ProdSingRedo,3.2.3,59.8937967102657,
,,,,80,0,80,0,,,,,,,,,,,,,,,,,,,,,,,,1103.3772998992354,None,,,,,,,,,,,,,,,,,mankind,aloud,yellow,80,55,178,1099.2987820990384,None,1099.2987820990384,None,6,3.108668699860573,1099.2987820990384,None,1102.456222699955,None,1102.9821894001216,None,1102.9821894001216,None,r,0.35332709923386574,1102.9821894001216,None,,,color36,001,2022_Apr_18_1457,ProdSingRedo,3.2.3,59.8937967102657,
,,,,81,0,81,0,,,,,,,,,,,,,,,,,,,,,,,,1108.4959968999028,None,,,,,,,,,,,,,,,,,touch,silent,blue,81,77,332,1103.8993382994086,None,1103.8993382994086,None,3,3.428339399397373,1103.8993382994086,None,1107.3732900992036,None,1107.882197899744,None,1107.882197899744,None,n,0.5892047006636858,1107.882197899744,None,,,color36,001,2022_Apr_18_1457,ProdSingRedo,3.2.3,59.8937967102657,
,,,,82,0,82,0,,,,,,,,,,,,,,,,,,,,,,,,1118.4420823007822,None,,,,,,,,,,,,,,,,,childhood,new_aloud,yellow,82,140,49,1109.0050271004438,None,1109.0050271004438,None,5,8.10641559958458,1109.0050271004438,None,1117.1497642993927,None,1117.6723918002099,None,1117.6723918002099,None,f,0.7350494004786015,1117.6723918002099,None,,,color36,001,2022_Apr_18_1457,ProdSingRedo,3.2.3,59.8937967102657,
,,,,83,0,83,0,,,,,,,,,,,,,,,,,,,,,,,,1121.4108572993428,None,,,,,,,,,,,,,,,,,volume,new_aloud,yellow,83,128,349,1118.9680534005165,None,1118.9680534005165,None,1,1.4798700995743275,1118.9680534005165,None,1120.4889985006303,None,1121.0156206004322,None,1121.0156206004322,None,n,0.359850300475955,1121.0156206004322,None,,,color36,001,2022_Apr_18_1457,ProdSingRedo,3.2.3,59.8937967102657,
,,,,84,0,84,0,,,,,,,,,,,,,,,,,,,,,,,,1125.4974729996175,None,,,,,,,,,,,,,,,,,beginning,sing,red,84,0,19,1121.9408547002822,None,1121.9408547002822,None,6,2.5788166001439095,1121.9408547002822,None,1124.5638152994215,None,1125.085200799629,None,1125.085200799629,None,r,0.37840390019118786,1125.085200799629,None,,,color36,001,2022_Apr_18_1457,ProdSingRedo,3.2.3,59.8937967102657,
,,,,85,0,85,0,,,,,,,,,,,,,,,,,,,,,,,,1131.3180851005018,None,,,,,,,,,,,,,,,,,budget,sing,red,85,13,34,1126.0267388001084,None,1126.0267388001084,None,6,3.8447893001139164,1126.0267388001084,None,1129.9175953008235,None,1130.4383470006287,None,1130.4383470006287,None,r,0.8410697989165783,1130.4383470006287,None,,,color36,001,2022_Apr_18_1457,ProdSingRedo,3.2.3,59.8937967102657,
,,,,86,0,86,0,,,,,,,,,,,,,,,,,,,,,,,,1135.489451399073,None,,,,,,,,,,,,,,,,,fight,new_sing,red,86,117,127,1131.8457078002393,None,1131.8457078002393,None,1,2.3697413988411427,1131.8457078002393,None,1134.2777948006988,None,1134.7930465005338,None,1134.7930465005338,None,n,0.6706172991544008,1134.7930465005338,None,,,color36,001,2022_Apr_18_1457,ProdSingRedo,3.2.3,59.8937967102657,
,,,,87,0,87,0,,,,,,,,,,,,,,,,,,,,,,,,1138.6416648998857,None,,,,,,,,,,,,,,,,,charter,new_sing,red,87,101,47,1136.0163566991687,None,1136.0163566991687,None,1,1.2471037991344929,1136.0163566991687,None,1137.306927099824,None,1137.827836100012,None,1137.827836100012,None,n,0.7796497996896505,1137.827836100012,None,,,color36,001,2022_Apr_18_1457,ProdSingRedo,3.2.3,59.8937967102657,
,,,,88,0,88,0,,,,,,,,,,,,,,,,,,,,,,,,1141.8439441993833,None,,,,,,,,,,,,,,,,,people,new_sing,red,88,113,216,1139.1499749999493,None,1139.1499749999493,None,1,1.585793798789382,1139.1499749999493,None,1140.7694137990475,None,1141.2796170990914,None,1141.2796170990914,None,n,0.5278880000114441,1141.2796170990914,None,,,color36,001,2022_Apr_18_1457,ProdSingRedo,3.2.3,59.8937967102657,
,,,,89,0,89,0,,,,,,,,,,,,,,,,,,,,,,,,1148.2192085999995,None,,,,,,,,,,,,,,,,,agreement,aloud,yellow,89,43,5,1142.3742133993655,None,1142.3742133993655,None,5,4.593171399086714,1142.3742133993655,None,1147.0177354998887,None,1147.5383048001677,None,1147.5383048001677,None,f,0.6534965988248587,1147.5383048001677,None,,,color36,001,2022_Apr_18_1457,ProdSingRedo,3.2.3,59.8937967102657,
,,,,90,0,90,0,,,,,,,,,,,,,,,,,,,,,,,,1154.1579813007265,None,,,,,,,,,,,,,,,,,shear,sing,red,90,5,283,1148.7302410993725,None,1148.7302410993725,None,1,4.437129000201821,1148.7302410993725,None,1153.2074062004685,None,1153.7245665993541,None,1153.7245665993541,None,n,0.40287300013005733,1153.7245665993541,None,,,color36,001,2022_Apr_18_1457,ProdSingRedo,3.2.3,59.8937967102657,
,,,,91,0,91,0,,,,,,,,,,,,,,,,,,,,,,,,1159.6639047004282,None,,,,,,,,,,,,,,,,,author,new_aloud,yellow,91,143,15,1154.6835120990872,None,1154.6835120990872,None,1,4.067826500162482,1154.6835120990872,None,1158.7910160999745,None,1159.3051280993968,None,1159.3051280993968,None,n,0.33439490012824535,1159.3051280993968,None,,,color36,001,2022_Apr_18_1457,ProdSingRedo,3.2.3,59.8937967102657,
,,,,92,0,92,0,,,,,,,,,,,,,,,,,,,,,,,,1163.7860688008368,None,,,,,,,,,,,,,,,,,finish,new_aloud,yellow,92,136,130,1160.1907915007323,None,1160.1907915007323,None,1,2.320524699985981,1160.1907915007323,None,1162.563368100673,None,1163.084171500057,None,1163.084171500057,None,n,0.6671735011041164,1163.084171500057,None,,,color36,001,2022_Apr_18_1457,ProdSingRedo,3.2.3,59.8937967102657,
,,,,93,0,93,0,,,,,,,,,,,,,,,,,,,,,,,,1168.1381247993559,None,,,,,,,,,,,,,,,,,provision,new_silent,blue,93,176,243,1164.3139724992216,None,1164.3139724992216,None,4,2.5570962000638247,1164.3139724992216,None,1166.9003787003458,None,1167.4259633999318,None,1167.4259633999318,None,f,0.677709499374032,1167.4259633999318,None,,,color36,001,2022_Apr_18_1457,ProdSingRedo,3.2.3,59.8937967102657,
,,,,94,0,94,0,,,,,,,,,,,,,,,,,,,,,,,,1174.2776204999536,None,,,,,,,,,,,,,,,,,guide,aloud,yellow,94,34,147,1168.6648360993713,None,1168.6648360993713,None,5,3.982489299029112,1168.6648360993713,None,1172.6854704990983,None,1173.1942241992801,None,1173.1942241992801,None,f,1.0450929012149572,1173.1942241992801,None,,,color36,001,2022_Apr_18_1457,ProdSingRedo,3.2.3,59.8937967102657,
,,,,95,0,95,0,,,,,,,,,,,,,,,,,,,,,,,,1178.6835191007704,None,,,,,,,,,,,,,,,,,general,new_aloud,yellow,95,131,135,1174.806031499058,None,1174.806031499058,None,4,2.625307099893689,1174.806031499058,None,1177.4682845007628,None,1177.985097900033,None,1177.985097900033,None,f,0.6707356013357639,1177.985097900033,None,,,color36,001,2022_Apr_18_1457,ProdSingRedo,3.2.3,59.8937967102657,
,,,,96,0,96,0,,,,,,,,,,,,,,,,,,,,,,,,1184.7546255998313,None,,,,,,,,,,,,,,,,,material,sing,red,96,1,182,1179.2126119006425,None,1179.2126119006425,None,3,4.4827231001108885,1179.2126119006425,None,1183.732779700309,None,1184.2622024007142,None,1184.2622024007142,None,f,0.45741960033774376,1184.2622024007142,None,,,color36,001,2022_Apr_18_1457,ProdSingRedo,3.2.3,59.8937967102657,
,,,,97,0,97,0,,,,,,,,,,,,,,,,,,,,,,,,1188.2749994006008,None,,,,,,,,,,,,,,,,,pressure,silent,blue,97,89,232,1185.2811197992414,None,1185.2811197992414,None,6,1.8541480004787445,1185.2811197992414,None,1187.1964899990708,None,1187.7099919002503,None,1187.7099919002503,None,r,0.5373286996036768,1187.7099919002503,None,,,color36,001,2022_Apr_18_1457,ProdSingRedo,3.2.3,59.8937967102657,
,,,,98,0,98,0,,,,,,,,,,,,,,,,,,,,,,,,1192.429483300075,None,,,,,,,,,,,,,,,,,trial,new_silent,blue,98,169,341,1188.8006187994033,None,1188.8006187994033,None,5,2.6386923994868994,1188.8006187994033,None,1191.4936257004738,None,1192.0166784003377,None,1192.0166784003377,None,r,0.3827259987592697,1192.0166784003377,None,,,color36,001,2022_Apr_18_1457,ProdSingRedo,3.2.3,59.8937967102657,
,,,,99,0,99,0,,,,,,,,,,,,,,,,,,,,,,,,1196.1660556998104,None,,,,,,,,,,,,,,,,,generation,silent,blue,99,79,136,1192.957792000845,None,1192.957792000845,None,6,1.6574744991958141,1192.957792000845,None,1194.6678675990552,None,1195.1855816002935,None,1195.1855816002935,None,r,0.9417525008320808,1195.1855816002935,None,,,color36,001,2022_Apr_18_1457,ProdSingRedo,3.2.3,59.8937967102657,
,,,,100,0,100,0,,,,,,,,,,,,,,,,,,,,,,,,1199.5606737993658,None,,,,,,,,,,,,,,,,,collection,new_silent,blue,100,174,54,1196.6908858995885,None,1196.6908858995885,None,2,1.6124311983585358,1196.6908858995885,None,1198.347348999232,None,1198.8513379003853,None,1198.8513379003853,None,n,0.6835976988077164,1198.8513379003853,None,,,color36,001,2022_Apr_18_1457,ProdSingRedo,3.2.3,59.8937967102657,
,,,,101,0,101,0,,,,,,,,,,,,,,,,,,,,,,,,1204.9256107006222,None,,,,,,,,,,,,,,,,,straight,new_silent,blue,101,177,307,1200.07617210038,None,1200.07617210038,None,6,3.267086699604988,1200.07617210038,None,1203.3949183002114,None,1203.9151540007442,None,1203.9151540007442,None,f,0.9801428988575935,1203.9151540007442,None,,,color36,001,2022_Apr_18_1457,ProdSingRedo,3.2.3,59.8937967102657,
,,,,102,0,102,0,,,,,,,,,,,,,,,,,,,,,,,,1208.946084799245,None,,,,,,,,,,,,,,,,,quick,silent,blue,102,76,248,1205.4508452005684,None,1205.4508452005684,None,1,2.436387099325657,1205.4508452005684,None,1207.9285598993301,None,1208.4329397007823,None,1208.4329397007823,None,n,0.47828229889273643,1208.4329397007823,None,,,color36,001,2022_Apr_18_1457,ProdSingRedo,3.2.3,59.8937967102657,
,,,,103,0,103,0,,,,,,,,,,,,,,,,,,,,,,,,1212.3872942999005,None,,,,,,,,,,,,,,,,,relation,new_sing,red,103,114,257,1209.4747541006655,None,1209.4747541006655,None,1,1.9002950992435217,1209.4747541006655,None,1211.4075453002006,None,1211.928581399843,None,1211.928581399843,None,n,0.4144567996263504,1211.928581399843,None,,,color36,001,2022_Apr_18_1457,ProdSingRedo,3.2.3,59.8937967102657,
,,,,104,0,104,0,,,,,,,,,,,,,,,,,,,,,,,,1216.5536039005965,None,,,,,,,,,,,,,,,,,throw,silent,blue,104,70,330,1212.89628469944,None,1212.89628469944,None,3,2.014886200428009,1212.89628469944,None,1214.9519075006247,None,1215.4719072002918,None,1215.4719072002918,None,f,1.0553852003067732,1215.4719072002918,None,,,color36,001,2022_Apr_18_1457,ProdSingRedo,3.2.3,59.8937967102657,
,,,,105,0,105,0,,,,,,,,,,,,,,,,,,,,,,,,1220.0404640994966,None,,,,,,,,,,,,,,,,,sight,new_silent,blue,105,162,286,1217.0792111996561,None,1217.0792111996561,None,4,1.7521608006209135,1217.0792111996561,None,1218.8715745992959,None,1219.3920639008284,None,1219.3920639008284,None,f,0.6151873003691435,1219.3920639008284,None,,,color36,001,2022_Apr_18_1457,ProdSingRedo,3.2.3,59.8937967102657,
,,,,106,0,106,0,,,,,,,,,,,,,,,,,,,,,,,,1224.9780560992658,None,,,,,,,,,,,,,,,,,conference,sing,red,106,8,66,1220.5715941004455,None,1220.5715941004455,None,2,3.0599124003201723,1220.5715941004455,None,1223.6791903991252,None,1224.1992118991911,None,1224.1992118991911,None,n,0.7442646995186806,1224.1992118991911,None,,,color36,001,2022_Apr_18_1457,ProdSingRedo,3.2.3,59.8937967102657,
,,,,107,0,107,0,,,,,,,,,,,,,,,,,,,,,,,,1229.607120199129,None,,,,,,,,,,,,,,,,,group,silent,blue,107,74,143,1225.5066924002022,None,1225.5066924002022,None,6,2.84462290070951,1225.5066924002022,None,1228.3994248006493,None,1228.912086399272,None,1228.912086399272,None,r,0.6708105001598597,1228.912086399272,None,,,color36,001,2022_Apr_18_1457,ProdSingRedo,3.2.3,59.8937967102657,
,,,,108,0,108,0,,,,,,,,,,,,,,,,,,,,,,,,1234.1545784007758,None,,,,,,,,,,,,,,,,,symbol,aloud,yellow,108,52,321,1230.1299706008285,None,1230.1299706008285,None,6,2.925303900614381,1230.1299706008285,None,1233.104172900319,None,1233.6264980994165,None,1233.6264980994165,None,r,0.4926317986100912,1233.6264980994165,None,,,color36,001,2022_Apr_18_1457,ProdSingRedo,3.2.3,59.8937967102657,
,,,,109,0,109,0,,,,,,,,,,,,,,,,,,,,,,,,1240.343901699409,None,,,,,,,,,,,,,,,,,private,new_sing,red,109,107,237,1234.685362400487,None,1234.685362400487,None,1,4.865989599376917,1234.685362400487,None,1239.5984409991652,None,1240.1155376005918,None,1240.1155376005918,None,n,0.20375859923660755,1240.1155376005918,None,,,color36,001,2022_Apr_18_1457,ProdSingRedo,3.2.3,59.8937967102657,
,,,,110,0,110,0,,,,,,,,,,,,,,,,,,,,,,,,1243.4470761995763,None,,,,,,,,,,,,,,,,,express,aloud,yellow,110,42,124,1240.8666698001325,None,1240.8666698001325,None,3,1.620805999264121,1240.8666698001325,None,1242.5276264995337,None,1243.0448131002486,None,1243.0448131002486,None,n,0.3782871011644602,1243.0448131002486,None,,,color36,001,2022_Apr_18_1457,ProdSingRedo,3.2.3,59.8937967102657,
,,,,111,0,111,0,,,,,,,,,,,,,,,,,,,,,,,,1250.3560495004058,None,,,,,,,,,,,,,,,,,problem,sing,red,111,23,238,1243.9743882007897,None,1243.9743882007897,None,1,4.801412200555205,1243.9743882007897,None,1248.8198482003063,None,1249.3401781003922,None,1249.3401781003922,None,n,0.9877304993569851,1249.3401781003922,None,,,color36,001,2022_Apr_18_1457,ProdSingRedo,3.2.3,59.8937967102657,
,,,,112,0,112,0,,,,,,,,,,,,,,,,,,,,,,,,1254.3090147990733,None,,,,,,,,,,,,,,,,,safety,new_aloud,yellow,112,122,270,1250.8856722991914,None,1250.8856722991914,None,6,2.4175972007215023,1250.8856722991914,None,1253.3611696995795,None,1253.8799095004797,None,1253.8799095004797,None,r,0.39936639927327633,1253.8799095004797,None,,,color36,001,2022_Apr_18_1457,ProdSingRedo,3.2.3,59.8937967102657,
,,,,113,0,113,0,,,,,,,,,,,,,,,,,,,,,,,,1259.3200716003776,None,,,,,,,,,,,,,,,,,youth,new_aloud,yellow,113,132,359,1254.8365775998682,None,1254.8365775998682,None,6,3.362686600536108,1254.8365775998682,None,1258.2438992001116,None,1258.7683425992727,None,1258.7683425992727,None,r,0.5346267987042665,1258.7683425992727,None,,,color36,001,2022_Apr_18_1457,ProdSingRedo,3.2.3,59.8937967102657,
,,,,114,0,114,0,,,,,,,,,,,,,,,,,,,,,,,,1269.3722667992115,None,,,,,,,,,,,,,,,,,break,new_sing,red,114,95,26,1259.8233461007476,None,1259.8233461007476,None,1,8.19985879957676,1259.8233461007476,None,1268.073298599571,None,1268.5921828001738,None,1268.5921828001738,None,n,0.7432435005903244,1268.5921828001738,None,,,color36,001,2022_Apr_18_1457,ProdSingRedo,3.2.3,59.8937967102657,
,,,,115,0,115,0,,,,,,,,,,,,,,,,,,,,,,,,1273.3118964992464,None,,,,,,,,,,,,,,,,,sunset,new_aloud,yellow,115,129,315,1269.9009648002684,None,1269.9009648002684,None,1,2.5379045996814966,1269.9009648002684,None,1272.4758918005973,None,1272.9993731994182,None,1272.9993731994182,None,n,0.27969969995319843,1272.9993731994182,None,,,color36,001,2022_Apr_18_1457,ProdSingRedo,3.2.3,59.8937967102657,
,,,,116,0,116,0,,,,,,,,,,,,,,,,,,,,,,,,1278.0219730008394,None,,,,,,,,,,,,,,,,,title,aloud,yellow,116,46,331,1273.8190889004618,None,1273.8190889004618,None,4,3.32425170019269,1273.8190889004618,None,1277.1910098996013,None,1277.7127136997879,None,1277.7127136997879,None,f,0.27800120040774345,1277.7127136997879,None,,,color36,001,2022_Apr_18_1457,ProdSingRedo,3.2.3,59.8937967102657,
,,,,117,0,117,0,,,,,,,,,,,,,,,,,,,,,,,,1280.4790687002242,None,,,,,,,,,,,,,,,,,passage,aloud,yellow,117,32,212,1278.5454286001623,None,1278.5454286001623,None,4,1.309706600382924,1278.5454286001623,None,1279.9020076002926,None,1280.4229582995176,None,1280.4229582995176,None,f,0.008269401267170906,1280.4229582995176,None,,,color36,001,2022_Apr_18_1457,ProdSingRedo,3.2.3,59.8937967102657,
,,,,118,0,118,0,,,,,,,,,,,,,,,,,,,,,,,,1287.0405704993755,None,,,,,,,,,,,,,,,,,pretty,sing,red,118,3,233,1281.0093242991716,None,1281.0093242991716,None,1,3.6137534007430077,1281.0093242991716,None,1284.6699714008719,None,1285.1930133998394,None,1285.1930133998394,None,n,1.814181400462985,1285.1930133998394,None,,,color36,001,2022_Apr_18_1457,ProdSingRedo,3.2.3,59.8937967102657,
,,,,119,0,119,0,,,,,,,,,,,,,,,,,,,,,,,,1290.4602802004665,None,,,,,,,,,,,,,,,,,substance,sing,red,119,9,313,1287.5703701004386,None,1287.5703701004386,None,1,1.644651498645544,1287.5703701004386,None,1289.2406271006912,None,1289.7506450992078,None,1289.7506450992078,None,n,0.6726227011531591,1289.7506450992078,None,,,color36,001,2022_Apr_18_1457,ProdSingRedo,3.2.3,59.8937967102657,
,,,,120,0,120,0,,,,,,,,,,,,,,,,,,,,,,,,1296.298901900649,None,,,,,,,,,,,,,,,,,candidate,aloud,yellow,120,50,39,1290.993657199666,None,1290.993657199666,None,4,3.9735446013510227,1290.993657199666,None,1295.0242456998676,None,1295.5363650992513,None,1295.5363650992513,None,f,0.7269069012254477,1295.5363650992513,None,,,color36,001,2022_Apr_18_1457,ProdSingRedo,3.2.3,59.8937967102657,
,,,,121,0,121,0,,,,,,,,,,,,,,,,,,,,,,,,1302.6234885007143,None,,,,,,,,,,,,,,,,,phrase,sing,red,121,15,220,1296.8279417995363,None,1296.8279417995363,None,4,4.027086898684502,1296.8279417995363,None,1300.9022521991283,None,1301.4262073002756,None,1301.4262073002756,None,f,1.156988300383091,1301.4262073002756,None,,,color36,001,2022_Apr_18_1457,ProdSingRedo,3.2.3,59.8937967102657,
,,,,122,0,122,0,,,,,,,,,,,,,,,,,,,,,,,,1309.111808700487,None,,,,,,,,,,,,,,,,,split,new_aloud,yellow,122,135,299,1303.1452796999365,None,1303.1452796999365,None,1,5.301816400140524,1303.1452796999365,None,1308.4884358998388,None,1309.0083322003484,None,1309.0083322003484,None,n,0.0708576999604702,1309.0083322003484,None,,,color36,001,2022_Apr_18_1457,ProdSingRedo,3.2.3,59.8937967102657,
,,,,123,0,123,0,,,,,,,,,,,,,,,,,,,,,,,,1315.1174132991582,None,,,,,,,,,,,,,,,,,weather,new_sing,red,123,98,352,1309.636999199167,None,1309.636999199167,None,3,2.3222537003457546,1309.636999199167,None,1312.010977100581,None,1312.5393531993032,None,1312.5393531993032,None,n,2.539731999859214,1312.5393531993032,None,,,color36,001,2022_Apr_18_1457,ProdSingRedo,3.2.3,59.8937967102657,
,,,,124,0,124,0,,,,,,,,,,,,,,,,,,,,,,,,1320.706676999107,None,,,,,,,,,,,,,,,,,industry,new_silent,blue,124,166,161,1315.6503906007856,None,1315.6503906007856,None,3,3.9083700999617577,1315.6503906007856,None,1319.5922993998975,None,1320.1152382008731,None,1320.1152382008731,None,f,0.5558118000626564,1320.1152382008731,None,,,color36,001,2022_Apr_18_1457,ProdSingRedo,3.2.3,59.8937967102657,
,,,,125,0,125,0,,,,,,,,,,,,,,,,,,,,,,,,1324.8599804006517,None,,,,,,,,,,,,,,,,,universal,aloud,yellow,125,41,345,1321.2404184006155,None,1321.2404184006155,None,6,2.6547085996717215,1321.2404184006155,None,1323.9483451992273,None,1324.4696366004646,None,1324.4696366004646,None,r,0.3533840011805296,1324.4696366004646,None,,,color36,001,2022_Apr_18_1457,ProdSingRedo,3.2.3,59.8937967102657,
,,,,126,0,126,0,,,,,,,,,,,,,,,,,,,,,,,,1328.9584829993546,None,,,,,,,,,,,,,,,,,drink,new_aloud,yellow,126,125,105,1325.3834057990462,None,1325.3834057990462,None,6,2.4475992005318403,1325.3834057990462,None,1327.8747923001647,None,1328.3822965007275,None,1328.3822965007275,None,r,0.5370052997022867,1328.3822965007275,None,,,color36,001,2022_Apr_18_1457,ProdSingRedo,3.2.3,59.8937967102657,
,,,,127,0,127,0,,,,,,,,,,,,,,,,,,,,,,,,1332.1691855993122,None,,,,,,,,,,,,,,,,,birth,new_aloud,yellow,127,120,22,1329.4743792004883,None,1329.4743792004883,None,1,1.7407475002110004,1329.4743792004883,None,1331.2630134001374,None,1331.7867616992444,None,1331.7867616992444,None,n,0.34822059981524944,1331.7867616992444,None,,,color36,001,2022_Apr_18_1457,ProdSingRedo,3.2.3,59.8937967102657,
,,,,128,0,128,0,,,,,,,,,,,,,,,,,,,,,,,,1337.791343100369,None,,,,,,,,,,,,,,,,,nature,sing,red,128,25,200,1332.6998043004423,None,1332.6998043004423,None,6,3.3871576990932226,1332.6998043004423,None,1336.1339685991406,None,1336.6619974002242,None,1336.6619974002242,None,f,1.0970383007079363,1336.6619974002242,None,,,color36,001,2022_Apr_18_1457,ProdSingRedo,3.2.3,59.8937967102657,
,,,,129,0,129,0,,,,,,,,,,,,,,,,,,,,,,,,1342.2282042000443,None,,,,,,,,,,,,,,,,,space,aloud,yellow,129,49,297,1338.3048710990697,None,1338.3048710990697,None,6,3.038340199738741,1338.3048710990697,None,1341.3937368001789,None,1341.9130990002304,None,1341.9130990002304,None,r,0.28598690032958984,1341.9130990002304,None,,,color36,001,2022_Apr_18_1457,ProdSingRedo,3.2.3,59.8937967102657,
,,,,130,0,130,0,,,,,,,,,,,,,,,,,,,,,,,,1345.2662800997496,None,,,,,,,,,,,,,,,,,figure,new_silent,blue,130,154,128,1342.754621900618,None,1342.754621900618,None,1,1.7172099985182285,1342.754621900618,None,1344.516400899738,None,1345.0368399992585,None,1345.0368399992585,None,n,0.20227649994194508,1345.0368399992585,None,,,color36,001,2022_Apr_18_1457,ProdSingRedo,3.2.3,59.8937967102657,
,,,,131,0,131,0,,,,,,,,,,,,,,,,,,,,,,,,1349.376341899857,None,,,,,,,,,,,,,,,,,primary,aloud,yellow,131,48,234,1345.796814199537,None,1345.796814199537,None,3,2.0106256995350122,1345.796814199537,None,1347.8526035994291,None,1348.3775698002428,None,1348.3775698002428,None,f,0.9811116009950638,1348.3775698002428,None,,,color36,001,2022_Apr_18_1457,ProdSingRedo,3.2.3,59.8937967102657,
,,,,132,0,132,0,,,,,,,,,,,,,,,,,,,,,,,,1355.1918998993933,None,,,,,,,,,,,,,,,,,height,sing,red,132,24,152,1349.87919629924,None,1349.87919629924,None,2,4.151815099641681,1349.87919629924,None,1354.0675403997302,None,1354.5969951990992,None,1354.5969951990992,None,n,0.5702490992844105,1354.5969951990992,None,,,color36,001,2022_Apr_18_1457,ProdSingRedo,3.2.3,59.8937967102657,
,,,,133,0,133,0,,,,,,,,,,,,,,,,,,,,,,,,1358.6611560992897,None,,,,,,,,,,,,,,,,,union,silent,blue,133,71,344,1355.7146276999265,None,1355.7146276999265,None,2,2.092417800799012,1355.7146276999265,None,1357.857765700668,None,1358.38034529984,None,1358.38034529984,None,n,0.24259219877421856,1358.38034529984,None,,,color36,001,2022_Apr_18_1457,ProdSingRedo,3.2.3,59.8937967102657,
,,,,134,0,134,0,,,,,,,,,,,,,,,,,,,,,,,,1362.0486965999007,None,,,,,,,,,,,,,,,,,carry,new_sing,red,134,115,43,1359.1895691994578,None,1359.1895691994578,None,1,1.873388398438692,1359.1895691994578,None,1361.1157789994031,None,1361.637843100354,None,1361.637843100354,None,n,0.3855594005435705,1361.637843100354,None,,,color36,001,2022_Apr_18_1457,ProdSingRedo,3.2.3,59.8937967102657,
,,,,135,0,135,0,,,,,,,,,,,,,,,,,,,,,,,,1367.4700058996677,None,,,,,,,,,,,,,,,,,minor,silent,blue,135,75,191,1362.5708664990962,None,1362.5708664990962,None,3,2.8924106005579233,1362.5708664990962,None,1365.5134334992617,None,1366.0365484002978,None,1366.0365484002978,None,f,1.3945904988795519,1366.0365484002978,None,,,color36,001,2022_Apr_18_1457,ProdSingRedo,3.2.3,59.8937967102657,
,,,,136,0,136,0,,,,,,,,,,,,,,,,,,,,,,,,1371.8930865004659,None,,,,,,,,,,,,,,,,,appearance,silent,blue,136,82,10,1368.002597399056,None,1368.002597399056,None,1,3.0124683994799852,1368.002597399056,None,1371.0544137991965,None,1371.584018399939,None,1371.584018399939,None,f,0.2711294014006853,1371.584018399939,None,,,color36,001,2022_Apr_18_1457,ProdSingRedo,3.2.3,59.8937967102657,
,,,,137,0,137,0,,,,,,,,,,,,,,,,,,,,,,,,1376.2795039005578,None,,,,,,,,,,,,,,,,,threat,new_sing,red,137,102,329,1372.4207697995007,None,1372.4207697995007,None,1,2.922360099852085,1372.4207697995007,None,1375.3926793001592,None,1375.917223699391,None,1375.917223699391,None,n,0.3296548016369343,1375.917223699391,None,,,color36,001,2022_Apr_18_1457,ProdSingRedo,3.2.3,59.8937967102657,
,,,,138,0,138,0,,,,,,,,,,,,,,,,,,,,,,,,1380.4339378997684,None,,,,,,,,,,,,,,,,,chief,new_aloud,yellow,138,146,48,1376.8049266003072,None,1376.8049266003072,None,5,2.361642299219966,1376.8049266003072,None,1379.1906225997955,None,1379.690120799467,None,1379.690120799467,None,f,0.7173493001610041,1379.690120799467,None,,,color36,001,2022_Apr_18_1457,ProdSingRedo,3.2.3,59.8937967102657,
,,,,139,0,139,0,,,,,,,,,,,,,,,,,,,,,,,,1385.3536868002266,None,,,,,,,,,,,,,,,,,research,new_sing,red,139,92,261,1380.9607120007277,None,1380.9607120007277,None,1,3.1183723006397486,1380.9607120007277,None,1384.1191652994603,None,1384.639322500676,None,1384.639322500676,None,n,0.679679099470377,1384.639322500676,None,,,color36,001,2022_Apr_18_1457,ProdSingRedo,3.2.3,59.8937967102657,
,,,,140,0,140,0,,,,,,,,,,,,,,,,,,,,,,,,1390.0926350001246,None,,,,,,,,,,,,,,,,,dozen,new_sing,red,140,110,102,1385.8799015004188,None,1385.8799015004188,None,1,2.503140499815345,1385.8799015004188,None,1388.4174147993326,None,1388.9283460006118,None,1388.9283460006118,None,n,1.1265833992511034,1388.9283460006118,None,,,color36,001,2022_Apr_18_1457,ProdSingRedo,3.2.3,59.8937967102657,
,,,,141,0,141,0,,,,,,,,,,,,,,,,,,,,,,,,1399.5183952003717,None,,,,,,,,,,,,,,,,,individual,new_aloud,yellow,141,142,160,1390.6246581990272,None,1390.6246581990272,None,4,7.38245340064168,1390.6246581990272,None,1398.0607699993998,None,1398.5620822999626,None,1398.5620822999626,None,f,0.9250114001333714,1398.5620822999626,None,,,color36,001,2022_Apr_18_1457,ProdSingRedo,3.2.3,59.8937967102657,
,,,,142,0,142,0,,,,,,,,,,,,,,,,,,,,,,,,1403.0395145006478,None,,,,,,,,,,,,,,,,,alert,new_aloud,yellow,142,124,6,1400.0439167004079,None,1400.0439167004079,None,5,1.8351872991770506,1400.0439167004079,None,1401.915056599304,None,1402.4446885995567,None,1402.4446885995567,None,f,0.5621703006327152,1402.4446885995567,None,,,color36,001,2022_Apr_18_1457,ProdSingRedo,3.2.3,59.8937967102657,
,,,,143,0,143,0,,,,,,,,,,,,,,,,,,,,,,,,1407.1432179994881,None,,,,,,,,,,,,,,,,,murder,silent,blue,143,60,195,1403.5638938006014,None,1403.5638938006014,None,1,2.643145000562072,1403.5638938006014,None,1406.2575390003622,None,1406.782538600266,None,1406.782538600266,None,n,0.32878229953348637,1406.782538600266,None,,,color36,001,2022_Apr_18_1457,ProdSingRedo,3.2.3,59.8937967102657,
,,,,144,0,144,0,,,,,,,,,,,,,,,,,,,,,,,,1411.4145544990897,None,,,,,,,,,,,,,,,,,audience,new_sing,red,144,97,14,1407.6682303007692,None,1407.6682303007692,None,1,2.802877500653267,1407.6682303007692,None,1410.5125884003937,None,1411.0338774994016,None,1411.0338774994016,None,n,0.35687760077416897,1411.0338774994016,None,,,color36,001,2022_Apr_18_1457,ProdSingRedo,3.2.3,59.8937967102657,
,,,,145,0,145,0,,,,,,,,,,,,,,,,,,,,,,,,1416.3032913003117,None,,,,,,,,,,,,,,,,,edition,new_sing,red,145,91,107,1411.9369249008596,None,1411.9369249008596,None,4,2.485852001234889,1411.9369249008596,None,1414.464891700074,None,1414.984640000388,None,1414.984640000388,None,f,1.2862953003495932,1414.984640000388,None,,,color36,001,2022_Apr_18_1457,ProdSingRedo,3.2.3,59.8937967102657,
,,,,146,0,146,0,,,,,,,,,,,,,,,,,,,,,,,,1420.1578930001706,None,,,,,,,,,,,,,,,,,quantity,new_sing,red,146,96,245,1416.83543260023,None,1416.83543260023,None,4,2.299456199631095,1416.83543260023,None,1419.1895854007453,None,1419.7114828005433,None,1419.7114828005433,None,f,0.41541129909455776,1419.7114828005433,None,,,color36,001,2022_Apr_18_1457,ProdSingRedo,3.2.3,59.8937967102657,
,,,,147,0,147,0,,,,,,,,,,,,,,,,,,,,,,,,1423.3614278007299,None,,,,,,,,,,,,,,,,,report,new_silent,blue,147,167,259,1420.6795493997633,None,1420.6795493997633,None,2,1.559314200654626,1420.6795493997633,None,1422.2897072006017,None,1422.8086268994957,None,1422.8086268994957,None,n,0.5182684995234013,1422.8086268994957,None,,,color36,001,2022_Apr_18_1457,ProdSingRedo,3.2.3,59.8937967102657,
,,,,148,0,148,0,,,,,,,,,,,,,,,,,,,,,,,,1426.2961606997997,None,,,,,,,,,,,,,,,,,committee,new_silent,blue,148,175,62,1423.8850583005697,None,1423.8850583005697,None,3,1.3937034998089075,1423.8850583005697,None,1425.322106000036,None,1425.8277375996113,None,1425.8277375996113,None,n,0.43509339913725853,1425.8277375996113,None,,,color36,001,2022_Apr_18_1457,ProdSingRedo,3.2.3,59.8937967102657,
,,,,149,0,149,0,,,,,,,,,,,,,,,,,,,,,,,,1431.3160373996943,None,,,,,,,,,,,,,,,,,clear,new_aloud,yellow,149,144,52,1426.8235193006694,None,1426.8235193006694,None,5,3.6793685015290976,1426.8235193006694,None,1430.5482299998403,None,1431.0680216997862,None,1431.0680216997862,None,f,0.21078160032629967,1431.0680216997862,None,,,color36,001,2022_Apr_18_1457,ProdSingRedo,3.2.3,59.8937967102657,
,,,,150,0,150,0,,,,,,,,,,,,,,,,,,,,,,,,1434.9039472006261,None,,,,,,,,,,,,,,,,,harmony,new_silent,blue,150,161,148,1431.8467200994492,None,1431.8467200994492,None,1,1.9362316001206636,1431.8467200994492,None,1433.8339058998972,None,1434.341345699504,None,1434.341345699504,None,n,0.5375030003488064,1434.341345699504,None,,,color36,001,2022_Apr_18_1457,ProdSingRedo,3.2.3,59.8937967102657,
,,,,151,0,151,0,,,,,,,,,,,,,,,,,,,,,,,,1438.6745513007045,None,,,,,,,,,,,,,,,,,working,silent,blue,151,86,357,1435.4357900004834,None,1435.4357900004834,None,1,2.187024598941207,1435.4357900004834,None,1437.6749590002,None,1438.1865874007344,None,1438.1865874007344,None,n,0.46013860031962395,1438.1865874007344,None,,,color36,001,2022_Apr_18_1457,ProdSingRedo,3.2.3,59.8937967102657,
,,,,152,0,152,0,,,,,,,,,,,,,,,,,,,,,,,,1444.6660753004253,None,,,,,,,,,,,,,,,,,election,new_aloud,yellow,152,126,109,1439.1825647000223,None,1439.1825647000223,None,4,3.8962833993136883,1439.1825647000223,None,1443.1255885995924,None,1443.6475530993193,None,1443.6475530993193,None,f,0.9913363996893167,1443.6475530993193,None,,,color36,001,2022_Apr_18_1457,ProdSingRedo,3.2.3,59.8937967102657,
,,,,153,0,153,0,,,,,,,,,,,,,,,,,,,,,,,,1447.4011317994446,None,,,,,,,,,,,,,,,,,instrument,silent,blue,153,84,163,1445.1981575991958,None,1445.1981575991958,None,1,1.2969359010457993,1445.1981575991958,None,1446.5504845008254,None,1447.0734761003405,None,1447.0734761003405,None,n,0.3014221005141735,1447.0734761003405,None,,,color36,001,2022_Apr_18_1457,ProdSingRedo,3.2.3,59.8937967102657,
,,,,154,0,154,0,,,,,,,,,,,,,,,,,,,,,,,,1451.7202947996557,None,,,,,,,,,,,,,,,,,leader,new_aloud,yellow,154,123,168,1447.9266167990863,None,1447.9266167990863,None,2,2.8402610011398792,1447.9266167990863,None,1450.8201778996736,None,1451.3424417991191,None,1451.3424417991191,None,n,0.34435890056192875,1451.3424417991191,None,,,color36,001,2022_Apr_18_1457,ProdSingRedo,3.2.3,59.8937967102657,
,,,,155,0,155,0,,,,,,,,,,,,,,,,,,,,,,,,1455.0401907004416,None,,,,,,,,,,,,,,,,,permit,silent,blue,155,78,218,1452.2435892000794,None,1452.2435892000794,None,4,1.875509200617671,1452.2435892000794,None,1454.1680191997439,None,1454.6725130993873,None,1454.6725130993873,None,f,0.3341988008469343,1454.6725130993873,None,,,color36,001,2022_Apr_18_1457,ProdSingRedo,3.2.3,59.8937967102657,
,,,,156,0,156,0,,,,,,,,,,,,,,,,,,,,,,,,1457.9266637992114,None,,,,,,,,,,,,,,,,,company,silent,blue,156,81,64,1455.5703858006746,None,1455.5703858006746,None,3,1.3644246011972427,1455.5703858006746,None,1456.9717446006835,None,1457.500043200329,None,1457.500043200329,None,f,0.39478630013763905,1457.500043200329,None,,,color36,001,2022_Apr_18_1457,ProdSingRedo,3.2.3,59.8937967102657,
,,,,157,0,157,0,,,,,,,,,,,,,,,,,,,,,,,,1462.1986759006977,None,,,,,,,,,,,,,,,,,couch,new_aloud,yellow,157,133,70,1458.4604972992092,None,1458.4604972992092,None,1,2.811218600720167,1458.4604972992092,None,1461.3117586001754,None,1461.8363438993692,None,1461.8363438993692,None,n,0.33048050105571747,1461.8363438993692,None,,,color36,001,2022_Apr_18_1457,ProdSingRedo,3.2.3,59.8937967102657,
,,,,158,0,158,0,,,,,,,,,,,,,,,,,,,,,,,,1466.3186597004533,None,,,,,,,,,,,,,,,,,attack,aloud,yellow,158,31,13,1462.7290467992425,None,1462.7290467992425,None,1,2.837729001417756,1462.7290467992425,None,1465.6210178993642,None,1466.1426113005728,None,1466.1426113005728,None,n,0.1524277999997139,1466.1426113005728,None,,,color36,001,2022_Apr_18_1457,ProdSingRedo,3.2.3,59.8937967102657,
,,,,159,0,159,0,,,,,,,,,,,,,,,,,,,,,,,,1473.87620970048,None,,,,,,,,,,,,,,,,,place,aloud,yellow,159,54,222,1466.8396841008216,None,1466.8396841008216,None,3,4.919036999344826,1466.8396841008216,None,1471.8070931993425,None,1472.3285191003233,None,1472.3285191003233,None,f,1.5104677006602287,1472.3285191003233,None,,,color36,001,2022_Apr_18_1457,ProdSingRedo,3.2.3,59.8937967102657,
,,,,160,0,160,0,,,,,,,,,,,,,,,,,,,,,,,,1477.3814994990826,None,,,,,,,,,,,,,,,,,season,aloud,yellow,160,33,277,1474.4041764996946,None,1474.4041764996946,None,1,1.6027467008680105,1474.4041764996946,None,1476.0617685001343,None,1476.5831745993346,None,1476.5831745993346,None,n,0.7677543982863426,1476.5831745993346,None,,,color36,001,2022_Apr_18_1457,ProdSingRedo,3.2.3,59.8937967102657,
,,,,161,0,161,0,,,,,,,,,,,,,,,,,,,,,,,,1480.0494247991592,None,,,,,,,,,,,,,,,,,contract,new_silent,blue,161,165,68,1477.904877299443,None,1477.904877299443,None,1,1.261854199692607,1477.904877299443,None,1479.2154683992267,None,1479.733795799315,None,1479.733795799315,None,n,0.28099160082638264,1479.733795799315,None,,,color36,001,2022_Apr_18_1457,ProdSingRedo,3.2.3,59.8937967102657,
,,,,162,0,162,0,,,,,,,,,,,,,,,,,,,,,,,,1483.28628090024,None,,,,,,,,,,,,,,,,,school,silent,blue,162,65,274,1480.5804198998958,None,1480.5804198998958,None,5,1.5305583998560905,1480.5804198998958,None,1482.1454659998417,None,1482.651185600087,None,1482.651185600087,None,f,0.6035600006580353,1482.651185600087,None,,,color36,001,2022_Apr_18_1457,ProdSingRedo,3.2.3,59.8937967102657,
,,,,163,0,163,0,,,,,,,,,,,,,,,,,,,,,,,,1488.0743997991085,None,,,,,,,,,,,,,,,,,broad,new_sing,red,163,99,31,1483.8118174001575,None,1483.8118174001575,None,1,2.730963099747896,1483.8118174001575,None,1486.5858296006918,None,1487.1117710992694,None,1487.1117710992694,None,n,0.927410701289773,1487.1117710992694,None,,,color36,001,2022_Apr_18_1457,ProdSingRedo,3.2.3,59.8937967102657,
,,,,164,0,164,0,,,,,,,,,,,,,,,,,,,,,,,,1491.259989099577,None,,,,,,,,,,,,,,,,,business,silent,blue,164,64,38,1488.6009247004986,None,1488.6009247004986,None,4,1.8937537986785173,1488.6009247004986,None,1490.538005899638,None,1491.0630245991051,None,1491.0630245991051,None,f,0.16765729896724224,1491.0630245991051,None,,,color36,001,2022_Apr_18_1457,ProdSingRedo,3.2.3,59.8937967102657,
,,,,165,0,165,0,,,,,,,,,,,,,,,,,,,,,,,,1494.12931760028,None,,,,,,,,,,,,,,,,,course,new_silent,blue,165,163,74,1491.7867451999336,None,1491.7867451999336,None,4,1.6840330995619297,1491.7867451999336,None,1493.5069338008761,None,1494.0341244004667,None,1494.0341244004667,None,f,0.06072600185871124,1494.0341244004667,None,,,color36,001,2022_Apr_18_1457,ProdSingRedo,3.2.3,59.8937967102657,
,,,,166,0,166,0,,,,,,,,,,,,,,,,,,,,,,,,1497.8834006991237,None,,,,,,,,,,,,,,,,,orchestra,silent,blue,166,61,206,1494.6575710996985,None,1494.6575710996985,None,6,2.1571217011660337,1494.6575710996985,None,1496.8630666993558,None,1497.3703172001988,None,1497.3703172001988,None,r,0.47652640007436275,1497.3703172001988,None,,,color36,001,2022_Apr_18_1457,ProdSingRedo,3.2.3,59.8937967102657,
,,,,167,0,167,0,,,,,,,,,,,,,,,,,,,,,,,,1501.5379576999694,None,,,,,,,,,,,,,,,,,reading,silent,blue,167,72,254,1498.415412299335,None,1498.415412299335,None,4,2.0634575001895428,1498.415412299335,None,1500.5253532994539,None,1501.0428464002907,None,1501.0428464002907,None,r,0.46851160004734993,1501.0428464002907,None,,,color36,001,2022_Apr_18_1457,ProdSingRedo,3.2.3,59.8937967102657,
,,,,168,0,168,0,,,,,,,,,,,,,,,,,,,,,,,,1508.828522099182,None,,,,,,,,,,,,,,,,,smooth,sing,red,168,12,292,1502.0608741994947,None,1502.0608741994947,None,6,4.6819163002073765,1502.0608741994947,None,1506.7882950007915,None,1507.3101337999105,None,1507.3101337999105,None,f,1.480665199458599,1507.3101337999105,None,,,color36,001,2022_Apr_18_1457,ProdSingRedo,3.2.3,59.8937967102657,
,,,,169,0,169,0,,,,,,,,,,,,,,,,,,,,,,,,1513.7328593004495,None,,,,,,,,,,,,,,,,,angle,new_aloud,yellow,169,134,7,1509.3565101996064,None,1509.3565101996064,None,1,3.0991898998618126,1509.3565101996064,None,1512.497316800058,None,1513.019541600719,None,1513.019541600719,None,n,0.6752492003142834,1513.019541600719,None,,,color36,001,2022_Apr_18_1457,ProdSingRedo,3.2.3,59.8937967102657,
,,,,170,0,170,0,,,,,,,,,,,,,,,,,,,,,,,,1518.7556394003332,None,,,,,,,,,,,,,,,,,object,new_sing,red,170,104,204,1514.2628566995263,None,1514.2628566995263,None,5,2.6801776997745037,1514.2628566995263,None,1516.9759091008455,None,1517.4926174990833,None,1517.4926174990833,None,f,1.226172300055623,1517.4926174990833,None,,,color36,001,2022_Apr_18_1457,ProdSingRedo,3.2.3,59.8937967102657,
,,,,171,0,171,0,,,,,,,,,,,,,,,,,,,,,,,,1522.2488346993923,None,,,,,,,,,,,,,,,,,guest,new_sing,red,171,105,146,1519.2794170994312,None,1519.2794170994312,None,2,2.015234898775816,1519.2794170994312,None,1521.3365400992334,None,1521.8577785007656,None,1521.8577785007656,None,n,0.36475539952516556,1521.8577785007656,None,,,color36,001,2022_Apr_18_1457,ProdSingRedo,3.2.3,59.8937967102657,
,,,,172,0,172,0,,,,,,,,,,,,,,,,,,,,,,,,1526.2995196990669,None,,,,,,,,,,,,,,,,,direction,sing,red,172,29,94,1522.7700571008027,None,1522.7700571008027,None,1,2.5086480006575584,1522.7700571008027,None,1525.3233480993658,None,1525.8445542007685,None,1525.8445542007685,None,n,0.42625669948756695,1525.8445542007685,None,,,color36,001,2022_Apr_18_1457,ProdSingRedo,3.2.3,59.8937967102657,
,,,,173,0,173,0,,,,,,,,,,,,,,,,,,,,,,,,1530.0478249005973,None,,,,,,,,,,,,,,,,,drama,new_silent,blue,173,150,103,1526.835485599935,None,1526.835485599935,None,5,1.7550498992204666,1526.835485599935,None,1528.6301397997886,None,1529.1389093995094,None,1529.1389093995094,None,f,0.8756859991699457,1529.1389093995094,None,,,color36,001,2022_Apr_18_1457,ProdSingRedo,3.2.3,59.8937967102657,
,,,,174,0,174,0,,,,,,,,,,,,,,,,,,,,,,,,1533.4706918001175,None,,,,,,,,,,,,,,,,,turkey,aloud,yellow,174,35,342,1530.5825699996203,None,1530.5825699996203,None,6,1.8800924997776747,1530.5825699996203,None,1532.5158635005355,None,1533.0447126999497,None,1533.0447126999497,None,r,0.3939865995198488,1533.0447126999497,None,,,color36,001,2022_Apr_18_1457,ProdSingRedo,3.2.3,59.8937967102657,
,,,,175,0,175,0,,,,,,,,,,,,,,,,,,,,,,,,1536.9232982993126,None,,,,,,,,,,,,,,,,,frank,silent,blue,175,83,133,1533.9992881994694,None,1533.9992881994694,None,1,1.3432849999517202,1533.9992881994694,None,1535.390218699351,None,1535.9109774008393,None,1535.9109774008393,None,n,0.9836545009166002,1535.9109774008393,None,,,color36,001,2022_Apr_18_1457,ProdSingRedo,3.2.3,59.8937967102657,
,,,,176,0,176,0,,,,,,,,,,,,,,,,,,,,,,,,1540.5610485002398,None,,,,,,,,,,,,,,,,,congress,new_sing,red,176,100,67,1537.4503035005182,None,1537.4503035005182,None,2,1.8365010991692543,1537.4503035005182,None,1539.3405188005418,None,1539.8624962996691,None,1539.8624962996691,None,n,0.6642879992723465,1539.8624962996691,None,,,color36,001,2022_Apr_18_1457,ProdSingRedo,3.2.3,59.8937967102657,
,,,,177,0,177,0,,,,,,,,,,,,,,,,,,,,,,,,1546.1638760007918,None,,,,,,,,,,,,,,,,,poetry,sing,red,177,14,225,1541.0845669005066,None,1541.0845669005066,None,1,4.186490999534726,1541.0845669005066,None,1545.310999199748,None,1545.8339054007083,None,1545.8339054007083,None,n,0.2927345000207424,1545.8339054007083,None,,,color36,001,2022_Apr_18_1457,ProdSingRedo,3.2.3,59.8937967102657,
,,,,178,0,178,0,,,,,,,,,,,,,,,,,,,,,,,,1550.7528722006828,None,,,,,,,,,,,,,,,,,little,sing,red,178,11,174,1546.6878037992865,None,1546.6878037992865,None,6,2.5668365005403757,1546.6878037992865,None,1549.2973020002246,None,1549.8203074000776,None,1549.8203074000776,None,f,0.9066824000328779,1549.8203074000776,None,,,color36,001,2022_Apr_18_1457,ProdSingRedo,3.2.3,59.8937967102657,
,,,,179,0,179,0,,,,,,,,,,,,,,,,,,,,,,,,1555.4907625000924,None,,,,,,,,,,,,,,,,,drove,new_silent,blue,179,152,106,1551.2780690994114,None,1551.2780690994114,None,2,2.3605589009821415,1551.2780690994114,None,1553.6852579992265,None,1554.2086833007634,None,1554.2086833007634,None,n,1.2461033016443253,1554.2086833007634,None,,,color36,001,2022_Apr_18_1457,ProdSingRedo,3.2.3,59.8937967102657,
,,,,,,,,,,,,,,,,,,,,,,,,,,,,,,,,,,,,,,,,,,,,,,,,,,,,,,,,,,,,,,,,,,,,,,,,,1556.0011716000736,None,,,,,,,
