StudyLoop.thisRepN,StudyLoop.thisTrialN,StudyLoop.thisN,StudyLoop.thisIndex,TestLoop.thisRepN,TestLoop.thisTrialN,TestLoop.thisN,TestLoop.thisIndex,textCondition.started,textCondition.stopped,keyCondition.keys,keyCondition.rt,keyCondition.started,keyCondition.stopped,Condition,stim_colors,color_sing,color_aloud,color_silent,textWelcome.started,textWelcome.stopped,keyWelcome.keys,keyWelcome.rt,keyWelcome.started,keyWelcome.stopped,textAloud.started,textAloud.stopped,textSilent.started,textSilent.stopped,textSing.started,textSing.stopped,textBlank500.started,textBlank500.stopped,study_word,study_type,study_color,study_num,study_word_num,textStudy.started,textStudy.stopped,keyStudy.keys,keyStudy.started,keyStudy.stopped,textTestInstructions.started,textTestInstructions.stopped,key_resp_3.keys,key_resp_3.rt,key_resp_3.started,key_resp_3.stopped,testWord,testType,testColor,testN,test_num,test_word_num,textConf.started,textConf.stopped,textConfScale.started,textConfScale.stopped,keyConf.keys,keyConf.rt,keyConf.started,keyConf.stopped,textTestBlank.started,textTestBlank.stopped,textRKN.started,textRKN.stopped,textRKNScale.started,textRKNScale.stopped,keyRKN.keys,keyRKN.rt,keyRKN.started,keyRKN.stopped,textEnd.started,textEnd.stopped,participant,session,date,expName,psychopyVersion,frameRate,
,,,,,,,,40.57027189992368,None,y,5.488838799763471,40.57027189992368,None,,,,,,,,,,,,,,,,,,,,,,,,,,,,,,,,,,,,,,,,,,,,,,,,,,,,,,,,,,,,,,color20,001,2021_Nov_08_1414,ProdSingRedo,3.2.3,60.41817851238902,
,,,,,,,,,,,,,,ColoredTest,"['blue', 'yellow', 'red']",blue,yellow,red,46.127819099929184,None,space,132.93147210031748,46.127819099929184,None,,,,,,,,,,,,,,,,,,,,,,,,,,,,,,,,,,,,,,,,,,,,,,,,,,,color20,001,2021_Nov_08_1414,ProdSingRedo,3.2.3,60.41817851238902,
0,0,0,0,,,,,,,,,,,,,,,,,,,,,,46.127819099929184,None,46.127819099929184,None,46.127819099929184,None,181.60199650004506,None,bucket,silent,red,63,33,179.61333699990064,None,None,179.61333699990064,None,,,,,,,,,,,,,,,,,,,,,,,,,,,,,,,,,color20,001,2021_Nov_08_1414,ProdSingRedo,3.2.3,60.41817851238902,
1,0,1,0,,,,,,,,,,,,,,,,,,,,,,,,,,,,184.104618600104,None,phrase,sing,blue,13,220,182.1017709998414,None,None,182.1017709998414,None,,,,,,,,,,,,,,,,,,,,,,,,,,,,,,,,,color20,001,2021_Nov_08_1414,ProdSingRedo,3.2.3,60.41817851238902,
2,0,2,0,,,,,,,,,,,,,,,,,,,,,,,,,,,,186.6074843998067,None,property,sing,blue,3,242,184.60612720018253,None,None,184.60612720018253,None,,,,,,,,,,,,,,,,,,,,,,,,,,,,,,,,,color20,001,2021_Nov_08_1414,ProdSingRedo,3.2.3,60.41817851238902,
3,0,3,0,,,,,,,,,,,,,,,,,,,,,,,,,,,,189.12651359988376,None,corner,aloud,yellow,41,69,187.12005400005728,None,None,187.12005400005728,None,,,,,,,,,,,,,,,,,,,,,,,,,,,,,,,,,color20,001,2021_Nov_08_1414,ProdSingRedo,3.2.3,60.41817851238902,
4,0,4,0,,,,,,,,,,,,,,,,,,,,,,,,,,,,191.6454384000972,None,season,sing,blue,0,277,189.64133139979094,None,None,189.64133139979094,None,,,,,,,,,,,,,,,,,,,,,,,,,,,,,,,,,color20,001,2021_Nov_08_1414,ProdSingRedo,3.2.3,60.41817851238902,
5,0,5,0,,,,,,,,,,,,,,,,,,,,,,,,,,,,194.16480069980025,None,rough,silent,red,62,266,192.1596331000328,None,None,192.1596331000328,None,,,,,,,,,,,,,,,,,,,,,,,,,,,,,,,,,color20,001,2021_Nov_08_1414,ProdSingRedo,3.2.3,60.41817851238902,
6,0,6,0,,,,,,,,,,,,,,,,,,,,,,,,,,,,196.68363469978794,None,principal,silent,red,68,236,194.67976879980415,None,None,194.67976879980415,None,,,,,,,,,,,,,,,,,,,,,,,,,,,,,,,,,color20,001,2021_Nov_08_1414,ProdSingRedo,3.2.3,60.41817851238902,
7,0,7,0,,,,,,,,,,,,,,,,,,,,,,,,,,,,199.20316730020568,None,birth,aloud,yellow,39,22,197.19715180015191,None,None,197.19715180015191,None,,,,,,,,,,,,,,,,,,,,,,,,,,,,,,,,,color20,001,2021_Nov_08_1414,ProdSingRedo,3.2.3,60.41817851238902,
8,0,8,0,,,,,,,,,,,,,,,,,,,,,,,,,,,,201.7241994999349,None,ground,sing,blue,7,142,199.72107770014554,None,None,199.72107770014554,None,,,,,,,,,,,,,,,,,,,,,,,,,,,,,,,,,color20,001,2021_Nov_08_1414,ProdSingRedo,3.2.3,60.41817851238902,
9,0,9,0,,,,,,,,,,,,,,,,,,,,,,,,,,,,204.2419086000882,None,afternoon,silent,red,84,3,202.2375171999447,None,None,202.2375171999447,None,,,,,,,,,,,,,,,,,,,,,,,,,,,,,,,,,color20,001,2021_Nov_08_1414,ProdSingRedo,3.2.3,60.41817851238902,
10,0,10,0,,,,,,,,,,,,,,,,,,,,,,,,,,,,206.76081709982827,None,owner,silent,red,64,208,204.75440109986812,None,None,204.75440109986812,None,,,,,,,,,,,,,,,,,,,,,,,,,,,,,,,,,color20,001,2021_Nov_08_1414,ProdSingRedo,3.2.3,60.41817851238902,
11,0,11,0,,,,,,,,,,,,,,,,,,,,,,,,,,,,209.27970169996843,None,contract,aloud,yellow,43,68,207.27652129996568,None,None,207.27652129996568,None,,,,,,,,,,,,,,,,,,,,,,,,,,,,,,,,,color20,001,2021_Nov_08_1414,ProdSingRedo,3.2.3,60.41817851238902,
12,0,12,0,,,,,,,,,,,,,,,,,,,,,,,,,,,,211.7981036999263,None,fellow,silent,red,80,126,209.79423000011593,None,None,209.79423000011593,None,,,,,,,,,,,,,,,,,,,,,,,,,,,,,,,,,color20,001,2021_Nov_08_1414,ProdSingRedo,3.2.3,60.41817851238902,
13,0,13,0,,,,,,,,,,,,,,,,,,,,,,,,,,,,214.31822879984975,None,suspect,silent,red,81,318,212.31295480020344,None,None,212.31295480020344,None,,,,,,,,,,,,,,,,,,,,,,,,,,,,,,,,,color20,001,2021_Nov_08_1414,ProdSingRedo,3.2.3,60.41817851238902,
14,0,14,0,,,,,,,,,,,,,,,,,,,,,,,,,,,,216.83737620012835,None,brilliant,sing,blue,22,30,214.8351233000867,None,None,214.8351233000867,None,,,,,,,,,,,,,,,,,,,,,,,,,,,,,,,,,color20,001,2021_Nov_08_1414,ProdSingRedo,3.2.3,60.41817851238902,
15,0,15,0,,,,,,,,,,,,,,,,,,,,,,,,,,,,219.3568970002234,None,balance,aloud,yellow,54,17,217.35227329982445,None,None,217.35227329982445,None,,,,,,,,,,,,,,,,,,,,,,,,,,,,,,,,,color20,001,2021_Nov_08_1414,ProdSingRedo,3.2.3,60.41817851238902,
16,0,16,0,,,,,,,,,,,,,,,,,,,,,,,,,,,,221.85859629977494,None,court,aloud,yellow,49,75,219.85721709998325,None,None,219.85721709998325,None,,,,,,,,,,,,,,,,,,,,,,,,,,,,,,,,,color20,001,2021_Nov_08_1414,ProdSingRedo,3.2.3,60.41817851238902,
17,0,17,0,,,,,,,,,,,,,,,,,,,,,,,,,,,,224.3783007999882,None,stranger,aloud,yellow,52,309,222.3801158000715,None,None,222.3801158000715,None,,,,,,,,,,,,,,,,,,,,,,,,,,,,,,,,,color20,001,2021_Nov_08_1414,ProdSingRedo,3.2.3,60.41817851238902,
18,0,18,0,,,,,,,,,,,,,,,,,,,,,,,,,,,,226.8975960998796,None,health,silent,red,78,149,224.8931081998162,None,None,224.8931081998162,None,,,,,,,,,,,,,,,,,,,,,,,,,,,,,,,,,color20,001,2021_Nov_08_1414,ProdSingRedo,3.2.3,60.41817851238902,
19,0,19,0,,,,,,,,,,,,,,,,,,,,,,,,,,,,229.41707309987396,None,weight,aloud,yellow,33,353,227.4133708998561,None,None,227.4133708998561,None,,,,,,,,,,,,,,,,,,,,,,,,,,,,,,,,,color20,001,2021_Nov_08_1414,ProdSingRedo,3.2.3,60.41817851238902,
20,0,20,0,,,,,,,,,,,,,,,,,,,,,,,,,,,,231.93575699999928,None,month,sing,blue,10,193,229.92570349993184,None,None,229.92570349993184,None,,,,,,,,,,,,,,,,,,,,,,,,,,,,,,,,,color20,001,2021_Nov_08_1414,ProdSingRedo,3.2.3,60.41817851238902,
21,0,21,0,,,,,,,,,,,,,,,,,,,,,,,,,,,,234.4548769001849,None,breath,sing,blue,2,27,232.4497499000281,None,None,232.4497499000281,None,,,,,,,,,,,,,,,,,,,,,,,,,,,,,,,,,color20,001,2021_Nov_08_1414,ProdSingRedo,3.2.3,60.41817851238902,
22,0,22,0,,,,,,,,,,,,,,,,,,,,,,,,,,,,236.97407320002094,None,universal,sing,blue,8,345,234.97962810005993,None,None,234.97962810005993,None,,,,,,,,,,,,,,,,,,,,,,,,,,,,,,,,,color20,001,2021_Nov_08_1414,ProdSingRedo,3.2.3,60.41817851238902,
23,0,23,0,,,,,,,,,,,,,,,,,,,,,,,,,,,,239.4935288000852,None,number,silent,red,65,203,237.49024390010163,None,None,237.49024390010163,None,,,,,,,,,,,,,,,,,,,,,,,,,,,,,,,,,color20,001,2021_Nov_08_1414,ProdSingRedo,3.2.3,60.41817851238902,
24,0,24,0,,,,,,,,,,,,,,,,,,,,,,,,,,,,242.012836500071,None,motion,sing,blue,27,194,240.0047540999949,None,None,240.0047540999949,None,,,,,,,,,,,,,,,,,,,,,,,,,,,,,,,,,color20,001,2021_Nov_08_1414,ProdSingRedo,3.2.3,60.41817851238902,
25,0,25,0,,,,,,,,,,,,,,,,,,,,,,,,,,,,244.53156709996983,None,quantity,sing,blue,1,245,242.53855929989368,None,None,242.53855929989368,None,,,,,,,,,,,,,,,,,,,,,,,,,,,,,,,,,color20,001,2021_Nov_08_1414,ProdSingRedo,3.2.3,60.41817851238902,
26,0,26,0,,,,,,,,,,,,,,,,,,,,,,,,,,,,247.04991769976914,None,tough,aloud,yellow,40,333,245.04643179988489,None,None,245.04643179988489,None,,,,,,,,,,,,,,,,,,,,,,,,,,,,,,,,,color20,001,2021_Nov_08_1414,ProdSingRedo,3.2.3,60.41817851238902,
27,0,27,0,,,,,,,,,,,,,,,,,,,,,,,,,,,,249.55237360019237,None,society,sing,blue,9,293,247.55038220016286,None,None,247.55038220016286,None,,,,,,,,,,,,,,,,,,,,,,,,,,,,,,,,,color20,001,2021_Nov_08_1414,ProdSingRedo,3.2.3,60.41817851238902,
28,0,28,0,,,,,,,,,,,,,,,,,,,,,,,,,,,,252.0551590998657,None,angle,aloud,yellow,38,7,250.05343509977683,None,None,250.05343509977683,None,,,,,,,,,,,,,,,,,,,,,,,,,,,,,,,,,color20,001,2021_Nov_08_1414,ProdSingRedo,3.2.3,60.41817851238902,
29,0,29,0,,,,,,,,,,,,,,,,,,,,,,,,,,,,254.5749559001997,None,clear,silent,red,71,52,252.57027869997546,None,None,252.57027869997546,None,,,,,,,,,,,,,,,,,,,,,,,,,,,,,,,,,color20,001,2021_Nov_08_1414,ProdSingRedo,3.2.3,60.41817851238902,
30,0,30,0,,,,,,,,,,,,,,,,,,,,,,,,,,,,257.07825430016965,None,space,sing,blue,11,297,255.0768912998028,None,None,255.0768912998028,None,,,,,,,,,,,,,,,,,,,,,,,,,,,,,,,,,color20,001,2021_Nov_08_1414,ProdSingRedo,3.2.3,60.41817851238902,
31,0,31,0,,,,,,,,,,,,,,,,,,,,,,,,,,,,259.59684439981356,None,state,silent,red,86,303,257.59367919992656,None,None,257.59367919992656,None,,,,,,,,,,,,,,,,,,,,,,,,,,,,,,,,,color20,001,2021_Nov_08_1414,ProdSingRedo,3.2.3,60.41817851238902,
32,0,32,0,,,,,,,,,,,,,,,,,,,,,,,,,,,,262.11579619999975,None,measure,aloud,yellow,35,184,260.11396110011265,None,None,260.11396110011265,None,,,,,,,,,,,,,,,,,,,,,,,,,,,,,,,,,color20,001,2021_Nov_08_1414,ProdSingRedo,3.2.3,60.41817851238902,
33,0,33,0,,,,,,,,,,,,,,,,,,,,,,,,,,,,264.63506559981033,None,surprise,silent,red,89,317,262.6309306002222,None,None,262.6309306002222,None,,,,,,,,,,,,,,,,,,,,,,,,,,,,,,,,,color20,001,2021_Nov_08_1414,ProdSingRedo,3.2.3,60.41817851238902,
34,0,34,0,,,,,,,,,,,,,,,,,,,,,,,,,,,,267.15424330020323,None,graduate,sing,blue,4,141,265.1551439999603,None,None,265.1551439999603,None,,,,,,,,,,,,,,,,,,,,,,,,,,,,,,,,,color20,001,2021_Nov_08_1414,ProdSingRedo,3.2.3,60.41817851238902,
35,0,35,0,,,,,,,,,,,,,,,,,,,,,,,,,,,,269.67351090023294,None,sweet,aloud,yellow,53,319,267.6665047002025,None,None,267.6665047002025,None,,,,,,,,,,,,,,,,,,,,,,,,,,,,,,,,,color20,001,2021_Nov_08_1414,ProdSingRedo,3.2.3,60.41817851238902,
36,0,36,0,,,,,,,,,,,,,,,,,,,,,,,,,,,,272.192768599838,None,direction,sing,blue,29,94,270.18261960009113,None,None,270.18261960009113,None,,,,,,,,,,,,,,,,,,,,,,,,,,,,,,,,,color20,001,2021_Nov_08_1414,ProdSingRedo,3.2.3,60.41817851238902,
37,0,37,0,,,,,,,,,,,,,,,,,,,,,,,,,,,,274.7122150999494,None,government,silent,red,85,139,272.713347800076,None,None,272.713347800076,None,,,,,,,,,,,,,,,,,,,,,,,,,,,,,,,,,color20,001,2021_Nov_08_1414,ProdSingRedo,3.2.3,60.41817851238902,
38,0,38,0,,,,,,,,,,,,,,,,,,,,,,,,,,,,277.2311447998509,None,review,sing,blue,6,263,275.228073600214,None,None,275.228073600214,None,,,,,,,,,,,,,,,,,,,,,,,,,,,,,,,,,color20,001,2021_Nov_08_1414,ProdSingRedo,3.2.3,60.41817851238902,
39,0,39,0,,,,,,,,,,,,,,,,,,,,,,,,,,,,279.74943329999223,None,chief,aloud,yellow,30,48,277.7452861000784,None,None,277.7452861000784,None,,,,,,,,,,,,,,,,,,,,,,,,,,,,,,,,,color20,001,2021_Nov_08_1414,ProdSingRedo,3.2.3,60.41817851238902,
40,0,40,0,,,,,,,,,,,,,,,,,,,,,,,,,,,,282.25261970004067,None,volume,silent,red,77,349,280.2500244001858,None,None,280.2500244001858,None,,,,,,,,,,,,,,,,,,,,,,,,,,,,,,,,,color20,001,2021_Nov_08_1414,ProdSingRedo,3.2.3,60.41817851238902,
41,0,41,0,,,,,,,,,,,,,,,,,,,,,,,,,,,,284.7719280999154,None,council,aloud,yellow,50,71,282.76556919980794,None,None,282.76556919980794,None,,,,,,,,,,,,,,,,,,,,,,,,,,,,,,,,,color20,001,2021_Nov_08_1414,ProdSingRedo,3.2.3,60.41817851238902,
42,0,42,0,,,,,,,,,,,,,,,,,,,,,,,,,,,,287.29103340022266,None,exchange,silent,red,87,121,285.2904525999911,None,None,285.2904525999911,None,,,,,,,,,,,,,,,,,,,,,,,,,,,,,,,,,color20,001,2021_Nov_08_1414,ProdSingRedo,3.2.3,60.41817851238902,
43,0,43,0,,,,,,,,,,,,,,,,,,,,,,,,,,,,289.81034500012174,None,session,sing,blue,24,281,287.8003866998479,None,None,287.8003866998479,None,,,,,,,,,,,,,,,,,,,,,,,,,,,,,,,,,color20,001,2021_Nov_08_1414,ProdSingRedo,3.2.3,60.41817851238902,
44,0,44,0,,,,,,,,,,,,,,,,,,,,,,,,,,,,292.32964849984273,None,taste,aloud,yellow,56,322,290.324385299813,None,None,290.324385299813,None,,,,,,,,,,,,,,,,,,,,,,,,,,,,,,,,,color20,001,2021_Nov_08_1414,ProdSingRedo,3.2.3,60.41817851238902,
45,0,45,0,,,,,,,,,,,,,,,,,,,,,,,,,,,,294.84877579985186,None,household,silent,red,74,154,292.8489475999959,None,None,292.8489475999959,None,,,,,,,,,,,,,,,,,,,,,,,,,,,,,,,,,color20,001,2021_Nov_08_1414,ProdSingRedo,3.2.3,60.41817851238902,
46,0,46,0,,,,,,,,,,,,,,,,,,,,,,,,,,,,297.3678836999461,None,union,sing,blue,12,344,295.3614749000408,None,None,295.3614749000408,None,,,,,,,,,,,,,,,,,,,,,,,,,,,,,,,,,color20,001,2021_Nov_08_1414,ProdSingRedo,3.2.3,60.41817851238902,
47,0,47,0,,,,,,,,,,,,,,,,,,,,,,,,,,,,299.8872849000618,None,debate,sing,blue,21,87,297.88317590020597,None,None,297.88317590020597,None,,,,,,,,,,,,,,,,,,,,,,,,,,,,,,,,,color20,001,2021_Nov_08_1414,ProdSingRedo,3.2.3,60.41817851238902,
48,0,48,0,,,,,,,,,,,,,,,,,,,,,,,,,,,,302.40612290007994,None,alert,sing,blue,28,6,300.39909170009196,None,None,300.39909170009196,None,,,,,,,,,,,,,,,,,,,,,,,,,,,,,,,,,color20,001,2021_Nov_08_1414,ProdSingRedo,3.2.3,60.41817851238902,
49,0,49,0,,,,,,,,,,,,,,,,,,,,,,,,,,,,304.9256548001431,None,trial,silent,red,88,341,302.91745349997655,None,None,302.91745349997655,None,,,,,,,,,,,,,,,,,,,,,,,,,,,,,,,,,color20,001,2021_Nov_08_1414,ProdSingRedo,3.2.3,60.41817851238902,
50,0,50,0,,,,,,,,,,,,,,,,,,,,,,,,,,,,307.44491010019556,None,crisis,silent,red,79,79,305.4368957001716,None,None,305.4368957001716,None,,,,,,,,,,,,,,,,,,,,,,,,,,,,,,,,,color20,001,2021_Nov_08_1414,ProdSingRedo,3.2.3,60.41817851238902,
51,0,51,0,,,,,,,,,,,,,,,,,,,,,,,,,,,,309.9625960001722,None,command,silent,red,67,60,307.9626251999289,None,None,307.9626251999289,None,,,,,,,,,,,,,,,,,,,,,,,,,,,,,,,,,color20,001,2021_Nov_08_1414,ProdSingRedo,3.2.3,60.41817851238902,
52,0,52,0,,,,,,,,,,,,,,,,,,,,,,,,,,,,312.4656011997722,None,finance,aloud,yellow,58,129,310.46423579985276,None,None,310.46423579985276,None,,,,,,,,,,,,,,,,,,,,,,,,,,,,,,,,,color20,001,2021_Nov_08_1414,ProdSingRedo,3.2.3,60.41817851238902,
53,0,53,0,,,,,,,,,,,,,,,,,,,,,,,,,,,,314.98531700018793,None,finish,sing,blue,5,130,312.9919472998008,None,None,312.9919472998008,None,,,,,,,,,,,,,,,,,,,,,,,,,,,,,,,,,color20,001,2021_Nov_08_1414,ProdSingRedo,3.2.3,60.41817851238902,
54,0,54,0,,,,,,,,,,,,,,,,,,,,,,,,,,,,317.5047547002323,None,attack,silent,red,69,13,315.50831380020827,None,None,315.50831380020827,None,,,,,,,,,,,,,,,,,,,,,,,,,,,,,,,,,color20,001,2021_Nov_08_1414,ProdSingRedo,3.2.3,60.41817851238902,
55,0,55,0,,,,,,,,,,,,,,,,,,,,,,,,,,,,320.02392570022494,None,series,aloud,yellow,55,279,318.0162165001966,None,None,318.0162165001966,None,,,,,,,,,,,,,,,,,,,,,,,,,,,,,,,,,color20,001,2021_Nov_08_1414,ProdSingRedo,3.2.3,60.41817851238902,
56,0,56,0,,,,,,,,,,,,,,,,,,,,,,,,,,,,322.54324010014534,None,prime,silent,red,61,235,320.5332673001103,None,None,320.5332673001103,None,,,,,,,,,,,,,,,,,,,,,,,,,,,,,,,,,color20,001,2021_Nov_08_1414,ProdSingRedo,3.2.3,60.41817851238902,
57,0,57,0,,,,,,,,,,,,,,,,,,,,,,,,,,,,325.06206879997626,None,swift,aloud,yellow,57,320,323.06364679988474,None,None,323.06364679988474,None,,,,,,,,,,,,,,,,,,,,,,,,,,,,,,,,,color20,001,2021_Nov_08_1414,ProdSingRedo,3.2.3,60.41817851238902,
58,0,58,0,,,,,,,,,,,,,,,,,,,,,,,,,,,,327.5813790000975,None,figure,silent,red,82,128,325.5765673001297,None,None,325.5765673001297,None,,,,,,,,,,,,,,,,,,,,,,,,,,,,,,,,,color20,001,2021_Nov_08_1414,ProdSingRedo,3.2.3,60.41817851238902,
59,0,59,0,,,,,,,,,,,,,,,,,,,,,,,,,,,,330.10049720015377,None,watch,aloud,yellow,34,351,328.0936719002202,None,None,328.0936719002202,None,,,,,,,,,,,,,,,,,,,,,,,,,,,,,,,,,color20,001,2021_Nov_08_1414,ProdSingRedo,3.2.3,60.41817851238902,
60,0,60,0,,,,,,,,,,,,,,,,,,,,,,,,,,,,332.61989339999855,None,shape,aloud,yellow,47,282,330.6136115998961,None,None,330.6136115998961,None,,,,,,,,,,,,,,,,,,,,,,,,,,,,,,,,,color20,001,2021_Nov_08_1414,ProdSingRedo,3.2.3,60.41817851238902,
61,0,61,0,,,,,,,,,,,,,,,,,,,,,,,,,,,,335.1384577001445,None,clean,sing,blue,20,51,333.13470420008525,None,None,333.13470420008525,None,,,,,,,,,,,,,,,,,,,,,,,,,,,,,,,,,color20,001,2021_Nov_08_1414,ProdSingRedo,3.2.3,60.41817851238902,
62,0,62,0,,,,,,,,,,,,,,,,,,,,,,,,,,,,337.6580376001075,None,machinery,sing,blue,17,175,335.66583270020783,None,None,335.66583270020783,None,,,,,,,,,,,,,,,,,,,,,,,,,,,,,,,,,color20,001,2021_Nov_08_1414,ProdSingRedo,3.2.3,60.41817851238902,
63,0,63,0,,,,,,,,,,,,,,,,,,,,,,,,,,,,340.1764874001965,None,sleep,sing,blue,23,290,338.1673506000079,None,None,338.1673506000079,None,,,,,,,,,,,,,,,,,,,,,,,,,,,,,,,,,color20,001,2021_Nov_08_1414,ProdSingRedo,3.2.3,60.41817851238902,
64,0,64,0,,,,,,,,,,,,,,,,,,,,,,,,,,,,342.6965779000893,None,congress,sing,blue,26,67,340.6921494998969,None,None,340.6921494998969,None,,,,,,,,,,,,,,,,,,,,,,,,,,,,,,,,,color20,001,2021_Nov_08_1414,ProdSingRedo,3.2.3,60.41817851238902,
65,0,65,0,,,,,,,,,,,,,,,,,,,,,,,,,,,,345.19908280018717,None,meeting,sing,blue,18,187,343.1935625001788,None,None,343.1935625001788,None,,,,,,,,,,,,,,,,,,,,,,,,,,,,,,,,,color20,001,2021_Nov_08_1414,ProdSingRedo,3.2.3,60.41817851238902,
66,0,66,0,,,,,,,,,,,,,,,,,,,,,,,,,,,,347.7182983001694,None,music,sing,blue,25,196,345.71463310020044,None,None,345.71463310020044,None,,,,,,,,,,,,,,,,,,,,,,,,,,,,,,,,,color20,001,2021_Nov_08_1414,ProdSingRedo,3.2.3,60.41817851238902,
67,0,67,0,,,,,,,,,,,,,,,,,,,,,,,,,,,,350.23744710022584,None,spoke,aloud,yellow,32,300,348.233393299859,None,None,348.233393299859,None,,,,,,,,,,,,,,,,,,,,,,,,,,,,,,,,,color20,001,2021_Nov_08_1414,ProdSingRedo,3.2.3,60.41817851238902,
68,0,68,0,,,,,,,,,,,,,,,,,,,,,,,,,,,,352.75647909985855,None,republic,silent,red,60,260,350.7545715998858,None,None,350.7545715998858,None,,,,,,,,,,,,,,,,,,,,,,,,,,,,,,,,,color20,001,2021_Nov_08_1414,ProdSingRedo,3.2.3,60.41817851238902,
69,0,69,0,,,,,,,,,,,,,,,,,,,,,,,,,,,,355.27577990014106,None,agreement,silent,red,76,5,353.26965499995276,None,None,353.26965499995276,None,,,,,,,,,,,,,,,,,,,,,,,,,,,,,,,,,color20,001,2021_Nov_08_1414,ProdSingRedo,3.2.3,60.41817851238902,
70,0,70,0,,,,,,,,,,,,,,,,,,,,,,,,,,,,357.7948151999153,None,frank,aloud,yellow,59,133,355.79652770003304,None,None,355.79652770003304,None,,,,,,,,,,,,,,,,,,,,,,,,,,,,,,,,,color20,001,2021_Nov_08_1414,ProdSingRedo,3.2.3,60.41817851238902,
71,0,71,0,,,,,,,,,,,,,,,,,,,,,,,,,,,,360.31408410007134,None,collection,aloud,yellow,37,54,358.30825289990753,None,None,358.30825289990753,None,,,,,,,,,,,,,,,,,,,,,,,,,,,,,,,,,color20,001,2021_Nov_08_1414,ProdSingRedo,3.2.3,60.41817851238902,
72,0,72,0,,,,,,,,,,,,,,,,,,,,,,,,,,,,362.8333617998287,None,account,aloud,yellow,31,1,360.8340794998221,None,None,360.8340794998221,None,,,,,,,,,,,,,,,,,,,,,,,,,,,,,,,,,color20,001,2021_Nov_08_1414,ProdSingRedo,3.2.3,60.41817851238902,
73,0,73,0,,,,,,,,,,,,,,,,,,,,,,,,,,,,365.35247249994427,None,order,silent,red,70,207,363.34369779983535,None,None,363.34369779983535,None,,,,,,,,,,,,,,,,,,,,,,,,,,,,,,,,,color20,001,2021_Nov_08_1414,ProdSingRedo,3.2.3,60.41817851238902,
74,0,74,0,,,,,,,,,,,,,,,,,,,,,,,,,,,,367.87224960001186,None,substance,sing,blue,16,313,365.8704980001785,None,None,365.8704980001785,None,,,,,,,,,,,,,,,,,,,,,,,,,,,,,,,,,color20,001,2021_Nov_08_1414,ProdSingRedo,3.2.3,60.41817851238902,
75,0,75,0,,,,,,,,,,,,,,,,,,,,,,,,,,,,370.3898605001159,None,career,sing,blue,19,42,368.38671569991857,None,None,368.38671569991857,None,,,,,,,,,,,,,,,,,,,,,,,,,,,,,,,,,color20,001,2021_Nov_08_1414,ProdSingRedo,3.2.3,60.41817851238902,
76,0,76,0,,,,,,,,,,,,,,,,,,,,,,,,,,,,372.9101467002183,None,voice,silent,red,66,348,370.90199080016464,None,None,370.90199080016464,None,,,,,,,,,,,,,,,,,,,,,,,,,,,,,,,,,color20,001,2021_Nov_08_1414,ProdSingRedo,3.2.3,60.41817851238902,
77,0,77,0,,,,,,,,,,,,,,,,,,,,,,,,,,,,375.4290931997821,None,cousin,silent,red,83,76,373.4236138998531,None,None,373.4236138998531,None,,,,,,,,,,,,,,,,,,,,,,,,,,,,,,,,,color20,001,2021_Nov_08_1414,ProdSingRedo,3.2.3,60.41817851238902,
78,0,78,0,,,,,,,,,,,,,,,,,,,,,,,,,,,,377.94827659986913,None,column,aloud,yellow,51,57,375.94763279985636,None,None,375.94763279985636,None,,,,,,,,,,,,,,,,,,,,,,,,,,,,,,,,,color20,001,2021_Nov_08_1414,ProdSingRedo,3.2.3,60.41817851238902,
79,0,79,0,,,,,,,,,,,,,,,,,,,,,,,,,,,,380.4676622999832,None,degree,aloud,yellow,48,89,378.46280429977924,None,None,378.46280429977924,None,,,,,,,,,,,,,,,,,,,,,,,,,,,,,,,,,color20,001,2021_Nov_08_1414,ProdSingRedo,3.2.3,60.41817851238902,
80,0,80,0,,,,,,,,,,,,,,,,,,,,,,,,,,,,382.98670929996297,None,range,silent,red,72,251,380.98085570009425,None,None,380.98085570009425,None,,,,,,,,,,,,,,,,,,,,,,,,,,,,,,,,,color20,001,2021_Nov_08_1414,ProdSingRedo,3.2.3,60.41817851238902,
81,0,81,0,,,,,,,,,,,,,,,,,,,,,,,,,,,,385.50596449989825,None,count,silent,red,75,72,383.5006265998818,None,None,383.5006265998818,None,,,,,,,,,,,,,,,,,,,,,,,,,,,,,,,,,color20,001,2021_Nov_08_1414,ProdSingRedo,3.2.3,60.41817851238902,
82,0,82,0,,,,,,,,,,,,,,,,,,,,,,,,,,,,388.0252586998977,None,plane,aloud,yellow,42,223,386.0218062000349,None,None,386.0218062000349,None,,,,,,,,,,,,,,,,,,,,,,,,,,,,,,,,,color20,001,2021_Nov_08_1414,ProdSingRedo,3.2.3,60.41817851238902,
83,0,83,0,,,,,,,,,,,,,,,,,,,,,,,,,,,,390.5445921998471,None,point,aloud,yellow,36,226,388.53574129985645,None,None,388.53574129985645,None,,,,,,,,,,,,,,,,,,,,,,,,,,,,,,,,,color20,001,2021_Nov_08_1414,ProdSingRedo,3.2.3,60.41817851238902,
84,0,84,0,,,,,,,,,,,,,,,,,,,,,,,,,,,,393.0638184999116,None,curve,aloud,yellow,46,82,391.05906370002776,None,None,391.05906370002776,None,,,,,,,,,,,,,,,,,,,,,,,,,,,,,,,,,color20,001,2021_Nov_08_1414,ProdSingRedo,3.2.3,60.41817851238902,
85,0,85,0,,,,,,,,,,,,,,,,,,,,,,,,,,,,395.58254190022126,None,dozen,aloud,yellow,44,102,393.5891418000683,None,None,393.5891418000683,None,,,,,,,,,,,,,,,,,,,,,,,,,,,,,,,,,color20,001,2021_Nov_08_1414,ProdSingRedo,3.2.3,60.41817851238902,
86,0,86,0,,,,,,,,,,,,,,,,,,,,,,,,,,,,398.1019800999202,None,report,sing,blue,14,259,396.0916717001237,None,None,396.0916717001237,None,,,,,,,,,,,,,,,,,,,,,,,,,,,,,,,,,color20,001,2021_Nov_08_1414,ProdSingRedo,3.2.3,60.41817851238902,
87,0,87,0,,,,,,,,,,,,,,,,,,,,,,,,,,,,400.6197045999579,None,piece,silent,red,73,221,398.61266430001706,None,None,398.61266430001706,None,,,,,,,,,,,,,,,,,,,,,,,,,,,,,,,,,color20,001,2021_Nov_08_1414,ProdSingRedo,3.2.3,60.41817851238902,
88,0,88,0,,,,,,,,,,,,,,,,,,,,,,,,,,,,403.1407778002322,None,opening,sing,blue,15,205,401.139730299823,None,None,401.139730299823,None,,,,,,,,,,,,,,,,,,,,,,,,,,,,,,,,,color20,001,2021_Nov_08_1414,ProdSingRedo,3.2.3,60.41817851238902,
89,0,89,0,,,,,,,,,,,,,,,,,,,,,,,,,,,,405.65935100009665,None,hunger,aloud,yellow,45,155,403.65864280005917,None,None,403.65864280005917,None,,,,,,,,,,,,,,,,,,,,,,,,,,,,,,,,,color20,001,2021_Nov_08_1414,ProdSingRedo,3.2.3,60.41817851238902,
,,,,,,,,,,,,,,,,,,,,,,,,,,,,,,,,,,,,,,,,,,,406.16011400008574,None,k,168.739341000095,406.16011400008574,None,,,,,,,,,,,,,,,,,,,,,,,,,,,color20,001,2021_Nov_08_1414,ProdSingRedo,3.2.3,60.41817851238902,
,,,,0,0,0,0,,,,,,,,,,,,,,,,,,,,,,,,589.7567869001068,None,,,,,,,,,,,,,,,,,cousin,silent,red,0,83,76,575.4456628998742,None,575.4456628998742,None,1,10.197948799934238,575.4456628998742,None,585.6955770999193,None,586.2192685999908,None,586.2192685999908,None,n,3.504208100028336,586.2192685999908,None,,,color20,001,2021_Nov_08_1414,ProdSingRedo,3.2.3,60.41817851238902,
,,,,1,0,1,0,,,,,,,,,,,,,,,,,,,,,,,,616.2784947999753,None,,,,,,,,,,,,,,,,,century,new_silent,red,1,171,45,590.284762499854,None,590.284762499854,None,3,21.48672890011221,590.284762499854,None,611.8242943999358,None,612.3467882000841,None,612.3467882000841,None,f,3.8966407999396324,612.3467882000841,None,,,color20,001,2021_Nov_08_1414,ProdSingRedo,3.2.3,60.41817851238902,
,,,,2,0,2,0,,,,,,,,,,,,,,,,,,,,,,,,622.801763500087,None,,,,,,,,,,,,,,,,,contract,aloud,yellow,2,43,68,616.8065627999604,None,616.8065627999604,None,5,2.980987799819559,616.8065627999604,None,619.8314729002304,None,620.3539331997745,None,620.3539331997745,None,r,2.417616100050509,620.3539331997745,None,,,color20,001,2021_Nov_08_1414,ProdSingRedo,3.2.3,60.41817851238902,
,,,,3,0,3,0,,,,,,,,,,,,,,,,,,,,,,,,628.2730719000101,None,,,,,,,,,,,,,,,,,agreement,silent,red,3,76,5,623.3297516000457,None,623.3297516000457,None,3,3.4015558999963105,623.3297516000457,None,626.7959134001285,None,627.3131789001636,None,627.3131789001636,None,n,0.9223910998553038,627.3131789001636,None,,,color20,001,2021_Nov_08_1414,ProdSingRedo,3.2.3,60.41817851238902,
,,,,4,0,4,0,,,,,,,,,,,,,,,,,,,,,,,,632.2268309001811,None,,,,,,,,,,,,,,,,,majority,new_silent,red,4,166,176,628.8095451998524,None,628.8095451998524,None,1,1.9616177999414504,628.8095451998524,None,630.8019012999721,None,631.3196535999887,None,631.3196535999887,None,n,0.8758883001282811,631.3196535999887,None,,,color20,001,2021_Nov_08_1414,ProdSingRedo,3.2.3,60.41817851238902,
,,,,5,0,5,0,,,,,,,,,,,,,,,,,,,,,,,,639.0010099997744,None,,,,,,,,,,,,,,,,,union,sing,blue,5,12,344,632.7527052001096,None,632.7527052001096,None,6,2.2908321996219456,632.7527052001096,None,635.0924952002242,None,635.6138503998518,None,635.6138503998518,None,r,3.357729700393975,635.6138503998518,None,,,color20,001,2021_Nov_08_1414,ProdSingRedo,3.2.3,60.41817851238902,
,,,,6,0,6,0,,,,,,,,,,,,,,,,,,,,,,,,643.1602591997944,None,,,,,,,,,,,,,,,,,review,sing,blue,6,6,263,639.5301918000914,None,639.5301918000914,None,2,2.2012995998375118,639.5301918000914,None,641.7881006998941,None,642.3067120998167,None,642.3067120998167,None,n,0.8247354999184608,642.3067120998167,None,,,color20,001,2021_Nov_08_1414,ProdSingRedo,3.2.3,60.41817851238902,
,,,,7,0,7,0,,,,,,,,,,,,,,,,,,,,,,,,647.880689300131,None,,,,,,,,,,,,,,,,,column,aloud,yellow,7,51,57,643.6828095000237,None,643.6828095000237,None,6,2.2168137999251485,643.6828095000237,None,645.9379418999888,None,646.4691038997844,None,646.4691038997844,None,f,1.3744939002208412,646.4691038997844,None,,,color20,001,2021_Nov_08_1414,ProdSingRedo,3.2.3,60.41817851238902,
,,,,8,0,8,0,,,,,,,,,,,,,,,,,,,,,,,,651.9473665999249,None,,,,,,,,,,,,,,,,,owner,silent,red,8,64,208,648.4099293001927,None,648.4099293001927,None,1,2.257604899816215,648.4099293001927,None,650.708411899861,None,651.2307572998106,None,651.2307572998106,None,n,0.692707400303334,651.2307572998106,None,,,color20,001,2021_Nov_08_1414,ProdSingRedo,3.2.3,60.41817851238902,
,,,,9,0,9,0,,,,,,,,,,,,,,,,,,,,,,,,657.6590542998165,None,,,,,,,,,,,,,,,,,community,new_aloud,yellow,9,129,63,652.4762264997698,None,652.4762264997698,None,3,3.343363100197166,652.4762264997698,None,655.8673581001349,None,656.3749060002156,None,656.3749060002156,None,n,1.24459209991619,656.3749060002156,None,,,color20,001,2021_Nov_08_1414,ProdSingRedo,3.2.3,60.41817851238902,
,,,,10,0,10,0,,,,,,,,,,,,,,,,,,,,,,,,661.95762069989,None,,,,,,,,,,,,,,,,,command,silent,red,10,67,60,658.1774829998612,None,658.1774829998612,None,5,2.3381815999746323,658.1774829998612,None,660.5500517999753,None,661.0760328997858,None,661.0760328997858,None,n,0.8476661001332104,661.0760328997858,None,,,color20,001,2021_Nov_08_1414,ProdSingRedo,3.2.3,60.41817851238902,
,,,,11,0,11,0,,,,,,,,,,,,,,,,,,,,,,,,666.3275811998174,None,,,,,,,,,,,,,,,,,crime,new_silent,red,11,154,78,662.4796756999567,None,662.4796756999567,None,1,2.4438267000950873,662.4796756999567,None,664.9687501997687,None,665.47402290022,None,665.47402290022,None,n,0.8255707998760045,665.47402290022,None,,,color20,001,2021_Nov_08_1414,ProdSingRedo,3.2.3,60.41817851238902,
,,,,12,0,12,0,,,,,,,,,,,,,,,,,,,,,,,,670.916443400085,None,,,,,,,,,,,,,,,,,level,new_sing,blue,12,116,170,666.8516255998984,None,666.8516255998984,None,2,2.599886600393802,666.8516255998984,None,669.4932642001659,None,670.016925800126,None,670.016925800126,None,n,0.8666078997775912,670.016925800126,None,,,color20,001,2021_Nov_08_1414,ProdSingRedo,3.2.3,60.41817851238902,
,,,,13,0,13,0,,,,,,,,,,,,,,,,,,,,,,,,709.0701280999929,None,,,,,,,,,,,,,,,,,brief,new_sing,blue,13,96,28,671.438077100087,None,671.438077100087,None,3,35.3576140999794,671.438077100087,None,706.8559543001465,None,707.3733938001096,None,707.3733938001096,None,n,1.6624233000911772,707.3733938001096,None,,,color20,001,2021_Nov_08_1414,ProdSingRedo,3.2.3,60.41817851238902,
,,,,14,0,14,0,,,,,,,,,,,,,,,,,,,,,,,,713.1746252002195,None,,,,,,,,,,,,,,,,,machinery,sing,blue,14,17,175,709.5998884001747,None,709.5998884001747,None,6,1.9157436997629702,709.5998884001747,None,711.5614809999242,None,712.0782669000328,None,712.0782669000328,None,f,1.0613051000982523,712.0782669000328,None,,,color20,001,2021_Nov_08_1414,ProdSingRedo,3.2.3,60.41817851238902,
,,,,15,0,15,0,,,,,,,,,,,,,,,,,,,,,,,,719.6871047001332,None,,,,,,,,,,,,,,,,,opening,sing,blue,15,15,205,713.7006803997792,None,713.7006803997792,None,5,2.1268540997989476,713.7006803997792,None,715.8701218999922,None,716.378287400119,None,716.378287400119,None,r,3.2654224997386336,716.378287400119,None,,,color20,001,2021_Nov_08_1414,ProdSingRedo,3.2.3,60.41817851238902,
,,,,16,0,16,0,,,,,,,,,,,,,,,,,,,,,,,,726.0384475002065,None,,,,,,,,,,,,,,,,,nation,new_silent,red,16,157,198,720.2077436000109,None,720.2077436000109,None,3,3.1958222002722323,720.2077436000109,None,723.4537848001346,None,723.963602299802,None,723.963602299802,None,f,2.048400199972093,723.963602299802,None,,,color20,001,2021_Nov_08_1414,ProdSingRedo,3.2.3,60.41817851238902,
,,,,17,0,17,0,,,,,,,,,,,,,,,,,,,,,,,,730.5000240998343,None,,,,,,,,,,,,,,,,,election,new_silent,red,17,155,109,726.5610390999354,None,726.5610390999354,None,1,2.122516800183803,726.5610390999354,None,728.7182729998603,None,729.239363099914,None,729.239363099914,None,n,1.2359107001684606,729.239363099914,None,,,color20,001,2021_Nov_08_1414,ProdSingRedo,3.2.3,60.41817851238902,
,,,,18,0,18,0,,,,,,,,,,,,,,,,,,,,,,,,736.3579763998277,None,,,,,,,,,,,,,,,,,breath,sing,blue,18,2,27,731.0183545001782,None,731.0183545001782,None,1,3.457428799942136,731.0183545001782,None,734.5281421998516,None,735.0531584001146,None,735.0531584001146,None,n,1.2781854001805186,735.0531584001146,None,,,color20,001,2021_Nov_08_1414,ProdSingRedo,3.2.3,60.41817851238902,
,,,,19,0,19,0,,,,,,,,,,,,,,,,,,,,,,,,739.9353652000427,None,,,,,,,,,,,,,,,,,piece,silent,red,19,73,221,736.8693027999252,None,736.8693027999252,None,1,1.934484800323844,736.8693027999252,None,738.8444014000706,None,739.3651069998741,None,739.3651069998741,None,n,0.5347687001340091,739.3651069998741,None,,,color20,001,2021_Nov_08_1414,ProdSingRedo,3.2.3,60.41817851238902,
,,,,20,0,20,0,,,,,,,,,,,,,,,,,,,,,,,,745.1528846002184,None,,,,,,,,,,,,,,,,,finish,sing,blue,20,5,130,740.4613613002002,None,740.4613613002002,None,5,3.014445099979639,740.4613613002002,None,743.5230459999293,None,744.0405855001882,None,744.0405855001882,None,f,1.0912721999920905,744.0405855001882,None,,,color20,001,2021_Nov_08_1414,ProdSingRedo,3.2.3,60.41817851238902,
,,,,21,0,21,0,,,,,,,,,,,,,,,,,,,,,,,,748.4438775000162,None,,,,,,,,,,,,,,,,,ground,sing,blue,21,7,142,745.6822564001195,None,745.6822564001195,None,1,1.4176634000614285,745.6822564001195,None,747.1363817998208,None,747.6631923997775,None,747.6631923997775,None,n,0.7484466996975243,747.6631923997775,None,,,color20,001,2021_Nov_08_1414,ProdSingRedo,3.2.3,60.41817851238902,
,,,,22,0,22,0,,,,,,,,,,,,,,,,,,,,,,,,753.2416574000381,None,,,,,,,,,,,,,,,,,touch,new_aloud,yellow,22,122,332,748.9716154998168,None,748.9716154998168,None,1,3.367759699933231,748.9716154998168,None,752.3580104000866,None,752.8791000000201,None,752.8791000000201,None,n,0.32436739979311824,752.8791000000201,None,,,color20,001,2021_Nov_08_1414,ProdSingRedo,3.2.3,60.41817851238902,
,,,,23,0,23,0,,,,,,,,,,,,,,,,,,,,,,,,756.3342121001333,None,,,,,,,,,,,,,,,,,weather,new_sing,blue,23,111,352,753.7741728997789,None,753.7741728997789,None,1,1.6212415001355112,753.7741728997789,None,755.4549734001048,None,755.9747864999808,None,755.9747864999808,None,n,0.32488329987972975,755.9747864999808,None,,,color20,001,2021_Nov_08_1414,ProdSingRedo,3.2.3,60.41817851238902,
,,,,24,0,24,0,,,,,,,,,,,,,,,,,,,,,,,,759.386856299825,None,,,,,,,,,,,,,,,,,solution,new_silent,red,24,159,294,756.8622272000648,None,756.8622272000648,None,1,1.6853004000149667,756.8622272000648,None,758.5862952000462,None,759.1074335998856,None,759.1074335998856,None,n,0.2562226001173258,759.1074335998856,None,,,color20,001,2021_Nov_08_1414,ProdSingRedo,3.2.3,60.41817851238902,
,,,,25,0,25,0,,,,,,,,,,,,,,,,,,,,,,,,762.2067753002048,None,,,,,,,,,,,,,,,,,little,new_aloud,yellow,25,132,174,759.8977744001895,None,759.8977744001895,None,2,1.4578189998865128,759.8977744001895,None,761.4008353999816,None,761.9055976001546,None,761.9055976001546,None,n,0.2741208001971245,761.9055976001546,None,,,color20,001,2021_Nov_08_1414,ProdSingRedo,3.2.3,60.41817851238902,
,,,,26,0,26,0,,,,,,,,,,,,,,,,,,,,,,,,765.5926846000366,None,,,,,,,,,,,,,,,,,number,silent,red,26,65,203,762.7315472997725,None,762.7315472997725,None,3,2.000194299966097,762.7315472997725,None,764.770672599785,None,765.2976974002086,None,765.2976974002086,None,n,0.2579707996919751,765.2976974002086,None,,,color20,001,2021_Nov_08_1414,ProdSingRedo,3.2.3,60.41817851238902,
,,,,27,0,27,0,,,,,,,,,,,,,,,,,,,,,,,,769.9151348001324,None,,,,,,,,,,,,,,,,,property,sing,blue,27,3,242,766.11735090008,None,766.11735090008,None,6,2.038431500084698,766.11735090008,None,768.189611800015,None,768.7013778998516,None,768.7013778998516,None,r,1.1744319996796548,768.7013778998516,None,,,color20,001,2021_Nov_08_1414,ProdSingRedo,3.2.3,60.41817851238902,
,,,,28,0,28,0,,,,,,,,,,,,,,,,,,,,,,,,773.802129200194,None,,,,,,,,,,,,,,,,,budget,new_aloud,yellow,28,143,34,770.4430247000419,None,770.4430247000419,None,5,2.104637200012803,770.4430247000419,None,772.600224299822,None,773.121674799826,None,773.121674799826,None,r,0.6500949999317527,773.121674799826,None,,,color20,001,2021_Nov_08_1414,ProdSingRedo,3.2.3,60.41817851238902,
,,,,29,0,29,0,,,,,,,,,,,,,,,,,,,,,,,,776.8065956998616,None,,,,,,,,,,,,,,,,,pressure,new_sing,blue,29,114,232,774.3331432999112,None,774.3331432999112,None,2,1.6225148001685739,774.3331432999112,None,776.0038641998544,None,776.5246743001044,None,776.5246743001044,None,n,0.255131000187248,776.5246743001044,None,,,color20,001,2021_Nov_08_1414,ProdSingRedo,3.2.3,60.41817851238902,
,,,,30,0,30,0,,,,,,,,,,,,,,,,,,,,,,,,781.7108098999597,None,,,,,,,,,,,,,,,,,spoke,aloud,yellow,30,32,300,777.3325441000052,None,777.3325441000052,None,1,3.455132399685681,777.3325441000052,None,780.8414961001836,None,781.3619357999414,None,781.3619357999414,None,n,0.3223837995901704,781.3619357999414,None,,,color20,001,2021_Nov_08_1414,ProdSingRedo,3.2.3,60.41817851238902,
,,,,31,0,31,0,,,,,,,,,,,,,,,,,,,,,,,,786.8991241999902,None,,,,,,,,,,,,,,,,,motion,sing,blue,31,27,194,782.2320153000765,None,782.2320153000765,None,4,3.123595300130546,782.2320153000765,None,785.3914080001414,None,785.9122417001054,None,785.9122417001054,None,f,0.955700000282377,785.9122417001054,None,,,color20,001,2021_Nov_08_1414,ProdSingRedo,3.2.3,60.41817851238902,
,,,,32,0,32,0,,,,,,,,,,,,,,,,,,,,,,,,790.159674399998,None,,,,,,,,,,,,,,,,,audience,new_aloud,yellow,32,136,14,787.4297373001464,None,787.4297373001464,None,1,1.7579252002760768,787.4297373001464,None,789.2354720998555,None,789.745783700142,None,789.745783700142,None,n,0.38558429991826415,789.745783700142,None,,,color20,001,2021_Nov_08_1414,ProdSingRedo,3.2.3,60.41817851238902,
,,,,33,0,33,0,,,,,,,,,,,,,,,,,,,,,,,,792.9213093002327,None,,,,,,,,,,,,,,,,,drama,new_aloud,yellow,33,149,103,790.661552300211,None,790.661552300211,None,1,1.3663113000802696,790.661552300211,None,792.0680626998655,None,792.5918960999697,None,792.5918960999697,None,n,0.29183979984372854,792.5918960999697,None,,,color20,001,2021_Nov_08_1414,ProdSingRedo,3.2.3,60.41817851238902,
,,,,34,0,34,0,,,,,,,,,,,,,,,,,,,,,,,,796.5602871999145,None,,,,,,,,,,,,,,,,,range,silent,red,34,72,251,793.4472495000809,None,793.4472495000809,None,6,1.8686697999946773,793.4472495000809,None,795.3610952999443,None,795.8767209001817,None,795.8767209001817,None,f,0.6559655996970832,795.8767209001817,None,,,color20,001,2021_Nov_08_1414,ProdSingRedo,3.2.3,60.41817851238902,
,,,,35,0,35,0,,,,,,,,,,,,,,,,,,,,,,,,801.028636300005,None,,,,,,,,,,,,,,,,,silence,new_silent,red,35,161,288,797.0813680998981,None,797.0813680998981,None,3,2.8423020001500845,797.0813680998981,None,799.97502969997,None,800.494049299974,None,800.494049299974,None,n,0.5097429999150336,800.494049299974,None,,,color20,001,2021_Nov_08_1414,ProdSingRedo,3.2.3,60.41817851238902,
,,,,36,0,36,0,,,,,,,,,,,,,,,,,,,,,,,,804.9660895001143,None,,,,,,,,,,,,,,,,,generation,new_sing,blue,36,105,136,801.5607171999291,None,801.5607171999291,None,2,2.6029213997535408,801.5607171999291,None,804.2148625999689,None,804.7249834998511,None,804.7249834998511,None,n,0.21519200038164854,804.7249834998511,None,,,color20,001,2021_Nov_08_1414,ProdSingRedo,3.2.3,60.41817851238902,
,,,,37,0,37,0,,,,,,,,,,,,,,,,,,,,,,,,807.4364904998802,None,,,,,,,,,,,,,,,,,clear,silent,red,37,71,52,805.4934065998532,None,805.4934065998532,None,1,1.0862893001176417,805.4934065998532,None,806.6336443000473,None,807.1532850000076,None,807.1532850000076,None,n,0.25040140002965927,807.1532850000076,None,,,color20,001,2021_Nov_08_1414,ProdSingRedo,3.2.3,60.41817851238902,
,,,,38,0,38,0,,,,,,,,,,,,,,,,,,,,,,,,809.8062304002233,None,,,,,,,,,,,,,,,,,sweet,aloud,yellow,38,53,319,807.9647590001114,None,807.9647590001114,None,1,0.9190066000446677,807.9647590001114,None,808.9299277001992,None,809.442991099786,None,809.442991099786,None,n,0.32862629974260926,809.442991099786,None,,,color20,001,2021_Nov_08_1414,ProdSingRedo,3.2.3,60.41817851238902,
,,,,39,0,39,0,,,,,,,,,,,,,,,,,,,,,,,,813.5828188997693,None,,,,,,,,,,,,,,,,,narrow,new_aloud,yellow,39,120,197,810.3370126001537,None,810.3370126001537,None,3,1.8026211000978947,810.3370126001537,None,812.1912449002266,None,812.7096140999347,None,812.7096140999347,None,f,0.8457630001939833,812.7096140999347,None,,,color20,001,2021_Nov_08_1414,ProdSingRedo,3.2.3,60.41817851238902,
,,,,40,0,40,0,,,,,,,,,,,,,,,,,,,,,,,,816.0685665998608,None,,,,,,,,,,,,,,,,,household,silent,red,40,74,154,814.087719600182,None,814.087719600182,None,1,1.3637740002013743,814.087719600182,None,815.4708127998747,None,815.9862218000926,None,815.9862218000926,None,n,0.05713739991188049,815.9862218000926,None,,,color20,001,2021_Nov_08_1414,ProdSingRedo,3.2.3,60.41817851238902,
,,,,41,0,41,0,,,,,,,,,,,,,,,,,,,,,,,,819.4481724998914,None,,,,,,,,,,,,,,,,,space,sing,blue,41,11,297,816.5702257999219,None,816.5702257999219,None,5,1.6175660002045333,816.5702257999219,None,818.2267831000499,None,818.7493969001807,None,818.7493969001807,None,f,0.6623040996491909,818.7493969001807,None,,,color20,001,2021_Nov_08_1414,ProdSingRedo,3.2.3,60.41817851238902,
,,,,42,0,42,0,,,,,,,,,,,,,,,,,,,,,,,,822.8338800999336,None,,,,,,,,,,,,,,,,,court,aloud,yellow,42,49,75,819.9568460998125,None,819.9568460998125,None,4,1.9747787998057902,819.9568460998125,None,821.9780194000341,None,822.4843521998264,None,822.4843521998264,None,f,0.31945129996165633,822.4843521998264,None,,,color20,001,2021_Nov_08_1414,ProdSingRedo,3.2.3,60.41817851238902,
,,,,43,0,43,0,,,,,,,,,,,,,,,,,,,,,,,,825.9200698002242,None,,,,,,,,,,,,,,,,,vision,new_silent,red,43,151,347,823.3574037998915,None,823.3574037998915,None,2,1.822245900053531,823.3574037998915,None,825.2160032000393,None,825.738395600114,None,825.738395600114,None,n,0.1453808997757733,825.738395600114,None,,,color20,001,2021_Nov_08_1414,ProdSingRedo,3.2.3,60.41817851238902,
,,,,44,0,44,0,,,,,,,,,,,,,,,,,,,,,,,,828.2588420999236,None,,,,,,,,,,,,,,,,,afternoon,silent,red,44,84,3,826.4457749999128,None,826.4457749999128,None,1,1.1504689999856055,826.4457749999128,None,827.6390852998011,None,828.1573016000912,None,828.1573016000912,None,n,0.0703753000125289,828.1573016000912,None,,,color20,001,2021_Nov_08_1414,ProdSingRedo,3.2.3,60.41817851238902,
,,,,45,0,45,0,,,,,,,,,,,,,,,,,,,,,,,,831.1360534001142,None,,,,,,,,,,,,,,,,,resistance,new_silent,red,45,178,262,828.785283899866,None,828.785283899866,None,1,1.6663903999142349,828.785283899866,None,830.4927949998528,None,831.015508200042,None,831.015508200042,None,n,0.09205609979107976,831.015508200042,None,,,color20,001,2021_Nov_08_1414,ProdSingRedo,3.2.3,60.41817851238902,
,,,,46,0,46,0,,,,,,,,,,,,,,,,,,,,,,,,836.4314361000434,None,,,,,,,,,,,,,,,,,taste,aloud,yellow,46,56,322,831.6512062000111,None,831.6512062000111,None,4,3.880521500017494,831.6512062000111,None,835.5789302000776,None,836.083450099919,None,836.083450099919,None,f,0.31219909992069006,836.083450099919,None,,,color20,001,2021_Nov_08_1414,ProdSingRedo,3.2.3,60.41817851238902,
,,,,47,0,47,0,,,,,,,,,,,,,,,,,,,,,,,,841.1685832999647,None,,,,,,,,,,,,,,,,,institute,new_sing,blue,47,107,162,836.9596115001477,None,836.9596115001477,None,2,3.356066500302404,836.9596115001477,None,840.368172199931,None,840.8893344001845,None,840.8893344001845,None,n,0.2423587995581329,840.8893344001845,None,,,color20,001,2021_Nov_08_1414,ProdSingRedo,3.2.3,60.41817851238902,
,,,,48,0,48,0,,,,,,,,,,,,,,,,,,,,,,,,845.5235175001435,None,,,,,,,,,,,,,,,,,patient,new_sing,blue,48,93,213,841.6926175998524,None,841.6926175998524,None,1,3.022993799764663,841.6926175998524,None,844.749979800079,None,845.2577917999588,None,845.2577917999588,None,n,0.24186139972880483,845.2577917999588,None,,,color20,001,2021_Nov_08_1414,ProdSingRedo,3.2.3,60.41817851238902,
,,,,49,0,49,0,,,,,,,,,,,,,,,,,,,,,,,,848.5437250002287,None,,,,,,,,,,,,,,,,,safety,new_sing,blue,49,101,270,846.0466042999178,None,846.0466042999178,None,3,1.7010506000369787,846.0466042999178,None,847.7874782998115,None,848.3141939998604,None,848.3141939998604,None,n,0.19350269995629787,848.3141939998604,None,,,color20,001,2021_Nov_08_1414,ProdSingRedo,3.2.3,60.41817851238902,
,,,,50,0,50,0,,,,,,,,,,,,,,,,,,,,,,,,852.8808774999343,None,,,,,,,,,,,,,,,,,couch,new_silent,red,50,174,70,849.0720532000996,None,849.0720532000996,None,4,2.4355510002933443,849.0720532000996,None,851.5620772000402,None,852.0826445999555,None,852.0826445999555,None,f,0.7612632000818849,852.0826445999555,None,,,color20,001,2021_Nov_08_1414,ProdSingRedo,3.2.3,60.41817851238902,
,,,,51,0,51,0,,,,,,,,,,,,,,,,,,,,,,,,856.9361149999313,None,,,,,,,,,,,,,,,,,hunger,aloud,yellow,51,45,155,853.4105901001021,None,853.4105901001021,None,5,2.1690660999156535,853.4105901001021,None,855.6385650001466,None,856.1563283000141,None,856.1563283000141,None,f,0.7433632002212107,856.1563283000141,None,,,color20,001,2021_Nov_08_1414,ProdSingRedo,3.2.3,60.41817851238902,
,,,,52,0,52,0,,,,,,,,,,,,,,,,,,,,,,,,861.0892850998789,None,,,,,,,,,,,,,,,,,report,sing,blue,52,14,259,857.4581698002294,None,857.4581698002294,None,6,2.12946950038895,857.4581698002294,None,859.6283971001394,None,860.135023099836,None,860.135023099836,None,r,0.9168446003459394,860.135023099836,None,,,color20,001,2021_Nov_08_1414,ProdSingRedo,3.2.3,60.41817851238902,
,,,,53,0,53,0,,,,,,,,,,,,,,,,,,,,,,,,866.3289219001308,None,,,,,,,,,,,,,,,,,brilliant,sing,blue,53,22,30,861.618854700122,None,861.618854700122,None,5,3.42481549968943,861.618854700122,None,865.0979283000343,None,865.6159617998637,None,865.6159617998637,None,f,0.6757306000217795,865.6159617998637,None,,,color20,001,2021_Nov_08_1414,ProdSingRedo,3.2.3,60.41817851238902,
,,,,54,0,54,0,,,,,,,,,,,,,,,,,,,,,,,,869.0147873000242,None,,,,,,,,,,,,,,,,,material,new_aloud,yellow,54,127,182,866.856964299921,None,866.856964299921,None,1,1.3148038000799716,866.856964299921,None,868.2094962000847,None,868.7185038998723,None,868.7185038998723,None,n,0.2611702997237444,868.7185038998723,None,,,color20,001,2021_Nov_08_1414,ProdSingRedo,3.2.3,60.41817851238902,
,,,,55,0,55,0,,,,,,,,,,,,,,,,,,,,,,,,872.949709400069,None,,,,,,,,,,,,,,,,,strength,new_aloud,yellow,55,139,310,869.5416447999887,None,869.5416447999887,None,4,2.470033199992031,869.5416447999887,None,872.0669721001759,None,872.5862441998906,None,872.5862441998906,None,f,0.3294543996453285,872.5862441998906,None,,,color20,001,2021_Nov_08_1414,ProdSingRedo,3.2.3,60.41817851238902,
,,,,56,0,56,0,,,,,,,,,,,,,,,,,,,,,,,,876.1964175999165,None,,,,,,,,,,,,,,,,,order,silent,red,56,70,207,873.470850800164,None,873.470850800164,None,1,1.9091146998107433,873.470850800164,None,875.410358000081,None,875.92668829998,None,875.92668829998,None,n,0.24466730002313852,875.92668829998,None,,,color20,001,2021_Nov_08_1414,ProdSingRedo,3.2.3,60.41817851238902,
,,,,57,0,57,0,,,,,,,,,,,,,,,,,,,,,,,,880.3661962999031,None,,,,,,,,,,,,,,,,,direction,sing,blue,57,29,94,876.717802000232,None,876.717802000232,None,6,1.6860100999474525,876.717802000232,None,878.4533374998719,None,878.9735968001187,None,878.9735968001187,None,f,1.3742243996821344,878.9735968001187,None,,,color20,001,2021_Nov_08_1414,ProdSingRedo,3.2.3,60.41817851238902,
,,,,58,0,58,0,,,,,,,,,,,,,,,,,,,,,,,,884.8022707998753,None,,,,,,,,,,,,,,,,,agency,new_sing,blue,58,90,4,880.8869183999486,None,880.8869183999486,None,5,3.0688302000053227,880.8869183999486,None,883.997745399829,None,884.5170784997754,None,884.5170784997754,None,f,0.25504570035263896,884.5170784997754,None,,,color20,001,2021_Nov_08_1414,ProdSingRedo,3.2.3,60.41817851238902,
,,,,59,0,59,0,,,,,,,,,,,,,,,,,,,,,,,,888.9657967002131,None,,,,,,,,,,,,,,,,,general,new_silent,red,59,150,135,885.3263121000491,None,885.3263121000491,None,3,2.3416245002299547,885.3263121000491,None,887.7111148000695,None,888.2374970000237,None,888.2374970000237,None,f,0.6942368000745773,888.2374970000237,None,,,color20,001,2021_Nov_08_1414,ProdSingRedo,3.2.3,60.41817851238902,
,,,,60,0,60,0,,,,,,,,,,,,,,,,,,,,,,,,894.1210301998071,None,,,,,,,,,,,,,,,,,graduate,sing,blue,60,4,141,889.4983608000912,None,889.4983608000912,None,1,2.9694505999796093,889.4983608000912,None,892.516683800146,None,893.0438441000879,None,893.0438441000879,None,n,1.0398642998188734,893.0438441000879,None,,,color20,001,2021_Nov_08_1414,ProdSingRedo,3.2.3,60.41817851238902,
,,,,61,0,61,0,,,,,,,,,,,,,,,,,,,,,,,,899.1774458000436,None,,,,,,,,,,,,,,,,,passage,new_sing,blue,61,117,212,894.6501889000647,None,894.6501889000647,None,5,3.6255773999728262,894.6501889000647,None,898.326916300226,None,898.8312511998229,None,898.8312511998229,None,f,0.30840039998292923,898.8312511998229,None,,,color20,001,2021_Nov_08_1414,ProdSingRedo,3.2.3,60.41817851238902,
,,,,62,0,62,0,,,,,,,,,,,,,,,,,,,,,,,,903.5188473002054,None,,,,,,,,,,,,,,,,,measure,aloud,yellow,62,35,184,899.7056100000627,None,899.7056100000627,None,6,2.3781473999843,899.7056100000627,None,902.132669699844,None,902.6366674001329,None,902.6366674001329,None,f,0.8550340998917818,902.6366674001329,None,,,color20,001,2021_Nov_08_1414,ProdSingRedo,3.2.3,60.41817851238902,
,,,,63,0,63,0,,,,,,,,,,,,,,,,,,,,,,,,907.9376280000433,None,,,,,,,,,,,,,,,,,exchange,silent,red,63,87,121,904.0443374998868,None,904.0443374998868,None,6,3.0155115998350084,904.0443374998868,None,907.1053785998374,None,907.6247936999425,None,907.6247936999425,None,f,0.28309360006824136,907.6247936999425,None,,,color20,001,2021_Nov_08_1414,ProdSingRedo,3.2.3,60.41817851238902,
,,,,64,0,64,0,,,,,,,,,,,,,,,,,,,,,,,,910.938678199891,None,,,,,,,,,,,,,,,,,foundation,new_sing,blue,64,110,132,908.466878300067,None,908.466878300067,None,3,1.6245842003263533,908.466878300067,None,910.1202242001891,None,910.6301253000274,None,910.6301253000274,None,n,0.28565119998529553,910.6301253000274,None,,,color20,001,2021_Nov_08_1414,ProdSingRedo,3.2.3,60.41817851238902,
,,,,65,0,65,0,,,,,,,,,,,,,,,,,,,,,,,,914.9937300002202,None,,,,,,,,,,,,,,,,,state,silent,red,65,86,303,911.468286999967,None,911.468286999967,None,1,1.5594603000208735,911.468286999967,None,913.0732575999573,None,913.5940351001918,None,913.5940351001918,None,n,1.3696866002865136,913.5940351001918,None,,,color20,001,2021_Nov_08_1414,ProdSingRedo,3.2.3,60.41817851238902,
,,,,66,0,66,0,,,,,,,,,,,,,,,,,,,,,,,,919.9808894000016,None,,,,,,,,,,,,,,,,,object,new_aloud,yellow,66,148,204,915.518304000143,None,915.518304000143,None,6,2.7814564001746476,915.518304000143,None,918.3422003998421,None,918.8687664000317,None,918.8687664000317,None,f,1.0789852002635598,918.8687664000317,None,,,color20,001,2021_Nov_08_1414,ProdSingRedo,3.2.3,60.41817851238902,
,,,,67,0,67,0,,,,,,,,,,,,,,,,,,,,,,,,923.5870059002191,None,,,,,,,,,,,,,,,,,crisis,silent,red,67,79,79,920.5033057001419,None,920.5033057001419,None,6,2.276502000167966,920.5033057001419,None,922.8336835000664,None,923.3490364998579,None,923.3490364998579,None,f,0.2067136000841856,923.3490364998579,None,,,color20,001,2021_Nov_08_1414,ProdSingRedo,3.2.3,60.41817851238902,
,,,,68,0,68,0,,,,,,,,,,,,,,,,,,,,,,,,927.8889294001274,None,,,,,,,,,,,,,,,,,escape,new_sing,blue,68,91,118,924.1125415000133,None,924.1125415000133,None,5,1.9393293000757694,924.1125415000133,None,926.103523099795,None,926.62354280008,None,926.62354280008,None,n,1.2281988002359867,926.62354280008,None,,,color20,001,2021_Nov_08_1414,ProdSingRedo,3.2.3,60.41817851238902,
,,,,69,0,69,0,,,,,,,,,,,,,,,,,,,,,,,,933.9298322000541,None,,,,,,,,,,,,,,,,,meeting,sing,blue,69,18,187,928.4139951998368,None,928.4139951998368,None,6,3.053870199713856,928.4139951998368,None,931.507584599778,None,932.0180017999373,None,932.0180017999373,None,r,1.8738179998472333,932.0180017999373,None,,,color20,001,2021_Nov_08_1414,ProdSingRedo,3.2.3,60.41817851238902,
,,,,70,0,70,0,,,,,,,,,,,,,,,,,,,,,,,,940.3929861998186,None,,,,,,,,,,,,,,,,,birth,aloud,yellow,70,39,22,934.4635176002048,None,934.4635176002048,None,3,2.532259900122881,934.4635176002048,None,937.0471133999527,None,937.5692675998434,None,937.5692675998434,None,n,2.8021730999462306,937.5692675998434,None,,,color20,001,2021_Nov_08_1414,ProdSingRedo,3.2.3,60.41817851238902,
,,,,71,0,71,0,,,,,,,,,,,,,,,,,,,,,,,,944.0890513001941,None,,,,,,,,,,,,,,,,,mechanical,new_silent,red,71,160,185,940.8957806997932,None,940.8957806997932,None,1,1.7802162999287248,940.8957806997932,None,942.7270925999619,None,943.2623991002329,None,943.2623991002329,None,n,0.7974069998599589,943.2623991002329,None,,,color20,001,2021_Nov_08_1414,ProdSingRedo,3.2.3,60.41817851238902,
,,,,72,0,72,0,,,,,,,,,,,,,,,,,,,,,,,,947.5099396998994,None,,,,,,,,,,,,,,,,,center,new_silent,red,72,164,44,944.6156362001784,None,944.6156362001784,None,1,1.7480628998018801,944.6156362001784,None,946.4025212000124,None,946.9218048998155,None,946.9218048998155,None,n,0.5623444002121687,946.9218048998155,None,,,color20,001,2021_Nov_08_1414,ProdSingRedo,3.2.3,60.41817851238902,
,,,,73,0,73,0,,,,,,,,,,,,,,,,,,,,,,,,950.7787886997685,None,,,,,,,,,,,,,,,,,expansion,new_silent,red,73,172,123,948.0351884998381,None,948.0351884998381,None,1,1.8085201997309923,948.0351884998381,None,949.8975573000498,None,950.415662500076,None,950.415662500076,None,n,0.32430060021579266,950.415662500076,None,,,color20,001,2021_Nov_08_1414,ProdSingRedo,3.2.3,60.41817851238902,
,,,,74,0,74,0,,,,,,,,,,,,,,,,,,,,,,,,954.9002569997683,None,,,,,,,,,,,,,,,,,emergency,new_sing,blue,74,115,110,951.3073674999177,None,951.3073674999177,None,6,2.7045089001767337,951.3073674999177,None,954.0652330000885,None,954.588650399819,None,954.588650399819,None,f,0.2869752002879977,954.588650399819,None,,,color20,001,2021_Nov_08_1414,ProdSingRedo,3.2.3,60.41817851238902,
,,,,75,0,75,0,,,,,,,,,,,,,,,,,,,,,,,,959.738050899934,None,,,,,,,,,,,,,,,,,member,new_silent,red,75,156,188,955.4164932002313,None,955.4164932002313,None,4,2.2353177000768483,955.4164932002313,None,957.7035348000936,None,958.2230445998721,None,958.2230445998721,None,n,1.4767509000375867,958.2230445998721,None,,,color20,001,2021_Nov_08_1414,ProdSingRedo,3.2.3,60.41817851238902,
,,,,76,0,76,0,,,,,,,,,,,,,,,,,,,,,,,,974.5872200001031,None,,,,,,,,,,,,,,,,,season,sing,blue,76,0,277,960.265034600161,None,960.265034600161,None,3,11.14672389999032,960.265034600161,None,971.4635895001702,None,971.9870734000579,None,971.9870734000579,None,f,2.5607414999976754,971.9870734000579,None,,,color20,001,2021_Nov_08_1414,ProdSingRedo,3.2.3,60.41817851238902,
,,,,77,0,77,0,,,,,,,,,,,,,,,,,,,,,,,,978.2111141998321,None,,,,,,,,,,,,,,,,,minute,new_aloud,yellow,77,147,192,975.1124590002,None,975.1124590002,None,5,1.971331600099802,975.1124590002,None,977.136012500152,None,977.6588309998624,None,977.6588309998624,None,f,0.5129185998812318,977.6588309998624,None,,,color20,001,2021_Nov_08_1414,ProdSingRedo,3.2.3,60.41817851238902,
,,,,78,0,78,0,,,,,,,,,,,,,,,,,,,,,,,,981.1917468002066,None,,,,,,,,,,,,,,,,,bucket,silent,red,78,63,33,978.7297358000651,None,978.7297358000651,None,1,1.4980938998050988,978.7297358000651,None,980.2773612998426,None,980.7954187998548,None,980.7954187998548,None,n,0.36045189993456006,980.7954187998548,None,,,color20,001,2021_Nov_08_1414,ProdSingRedo,3.2.3,60.41817851238902,
,,,,79,0,79,0,,,,,,,,,,,,,,,,,,,,,,,,983.9115932001732,None,,,,,,,,,,,,,,,,,guide,new_silent,red,79,163,147,981.725423600059,None,981.725423600059,None,1,1.2944671995937824,981.725423600059,None,983.0542452000082,None,983.5650844001211,None,983.5650844001211,None,n,0.31073120003566146,983.5650844001211,None,,,color20,001,2021_Nov_08_1414,ProdSingRedo,3.2.3,60.41817851238902,
,,,,80,0,80,0,,,,,,,,,,,,,,,,,,,,,,,,987.0347959999926,None,,,,,,,,,,,,,,,,,impact,new_sing,blue,80,104,157,984.4434442999773,None,984.4434442999773,None,1,1.4403848997317255,984.4434442999773,None,985.9269690997899,None,986.4502512998879,None,986.4502512998879,None,n,0.5535821998491883,986.4502512998879,None,,,color20,001,2021_Nov_08_1414,ProdSingRedo,3.2.3,60.41817851238902,
,,,,81,0,81,0,,,,,,,,,,,,,,,,,,,,,,,,991.2211988000199,None,,,,,,,,,,,,,,,,,education,new_silent,red,81,175,108,987.5633624000475,None,987.5633624000475,None,4,2.128648899961263,987.5633624000475,None,989.7377919000573,None,990.2580083999783,None,990.2580083999783,None,f,0.9297861000522971,990.2580083999783,None,,,color20,001,2021_Nov_08_1414,ProdSingRedo,3.2.3,60.41817851238902,
,,,,82,0,82,0,,,,,,,,,,,,,,,,,,,,,,,,995.0568677000701,None,,,,,,,,,,,,,,,,,place,new_aloud,yellow,82,142,222,991.7532958998345,None,991.7532958998345,None,4,2.4024181999266148,991.7532958998345,None,994.2038885001093,None,994.7077909000218,None,994.7077909000218,None,f,0.32002689968794584,994.7077909000218,None,,,color20,001,2021_Nov_08_1414,ProdSingRedo,3.2.3,60.41817851238902,
,,,,83,0,83,0,,,,,,,,,,,,,,,,,,,,,,,,998.0433144997805,None,,,,,,,,,,,,,,,,,trail,new_sing,blue,83,92,336,995.5836697998457,None,995.5836697998457,None,1,1.5240655997768044,995.5836697998457,None,997.1575965001248,None,997.6790260002017,None,997.6790260002017,None,n,0.33283190010115504,997.6790260002017,None,,,color20,001,2021_Nov_08_1414,ProdSingRedo,3.2.3,60.41817851238902,
,,,,84,0,84,0,,,,,,,,,,,,,,,,,,,,,,,,1002.14767270023,None,,,,,,,,,,,,,,,,,finance,aloud,yellow,84,58,129,998.5714942999184,None,998.5714942999184,None,6,2.1283769998699427,998.5714942999184,None,1000.7433132999577,None,1001.2499889000319,None,1001.2499889000319,None,f,0.8657953999936581,1001.2499889000319,None,,,color20,001,2021_Nov_08_1414,ProdSingRedo,3.2.3,60.41817851238902,
,,,,85,0,85,0,,,,,,,,,,,,,,,,,,,,,,,,1005.0324957999401,None,,,,,,,,,,,,,,,,,death,new_sing,blue,85,103,86,1002.6699232999235,None,1002.6699232999235,None,1,1.478100299835205,1002.6699232999235,None,1004.1950370999984,None,1004.7097478001378,None,1004.7097478001378,None,n,0.29385629994794726,1004.7097478001378,None,,,color20,001,2021_Nov_08_1414,ProdSingRedo,3.2.3,60.41817851238902,
,,,,86,0,86,0,,,,,,,,,,,,,,,,,,,,,,,,1008.1017498997971,None,,,,,,,,,,,,,,,,,second,new_sing,blue,86,119,278,1005.5597330001183,None,1005.5597330001183,None,1,1.7239001002162695,1005.5597330001183,None,1007.31234579999,None,1007.8207478001714,None,1007.8207478001714,None,n,0.24701229995116591,1007.8207478001714,None,,,color20,001,2021_Nov_08_1414,ProdSingRedo,3.2.3,60.41817851238902,
,,,,87,0,87,0,,,,,,,,,,,,,,,,,,,,,,,,1011.5595920002088,None,,,,,,,,,,,,,,,,,career,sing,blue,87,19,42,1008.6306845000945,None,1008.6306845000945,None,4,2.0531182000413537,1008.6306845000945,None,1010.7364829001017,None,1011.2629506997764,None,1011.2629506997764,None,f,0.2608727999031544,1011.2629506997764,None,,,color20,001,2021_Nov_08_1414,ProdSingRedo,3.2.3,60.41817851238902,
,,,,88,0,88,0,,,,,,,,,,,,,,,,,,,,,,,,1014.8297239998356,None,,,,,,,,,,,,,,,,,trend,new_aloud,yellow,88,123,340,1012.0821770997718,None,1012.0821770997718,None,5,1.9058892000466585,1012.0821770997718,None,1014.0340244001709,None,1014.5396870998666,None,1014.5396870998666,None,f,0.25618490017950535,1014.5396870998666,None,,,color20,001,2021_Nov_08_1414,ProdSingRedo,3.2.3,60.41817851238902,
,,,,89,0,89,0,,,,,,,,,,,,,,,,,,,,,,,,1018.2619592999108,None,,,,,,,,,,,,,,,,,collection,aloud,yellow,89,37,54,1015.3510650000535,None,1015.3510650000535,None,2,1.8606731002219021,1015.3510650000535,None,1017.2542997999117,None,1017.7646999000572,None,1017.7646999000572,None,n,0.4631562000140548,1017.7646999000572,None,,,color20,001,2021_Nov_08_1414,ProdSingRedo,3.2.3,60.41817851238902,
,,,,90,0,90,0,,,,,,,,,,,,,,,,,,,,,,,,1025.5400665001944,None,,,,,,,,,,,,,,,,,history,new_aloud,yellow,90,146,153,1018.7885262002237,None,1018.7885262002237,None,4,5.847271899692714,1018.7885262002237,None,1024.6845327001065,None,1025.2043269998394,None,1025.2043269998394,None,f,0.30362819973379374,1025.2043269998394,None,,,color20,001,2021_Nov_08_1414,ProdSingRedo,3.2.3,60.41817851238902,
,,,,91,0,91,0,,,,,,,,,,,,,,,,,,,,,,,,1028.4905022000894,None,,,,,,,,,,,,,,,,,dozen,aloud,yellow,91,44,102,1026.064566299785,None,1026.064566299785,None,5,1.532185500022024,1026.064566299785,None,1027.6374311000109,None,1028.1500459997915,None,1028.1500459997915,None,f,0.3097950997762382,1028.1500459997915,None,,,color20,001,2021_Nov_08_1414,ProdSingRedo,3.2.3,60.41817851238902,
,,,,92,0,92,0,,,,,,,,,,,,,,,,,,,,,,,,1033.1785753997974,None,,,,,,,,,,,,,,,,,figure,silent,red,92,82,128,1029.0122592002153,None,1029.0122592002153,None,2,2.5035731997340918,1029.0122592002153,None,1031.5578093999065,None,1032.0889758998528,None,1032.0889758998528,None,f,1.058968700002879,1032.0889758998528,None,,,color20,001,2021_Nov_08_1414,ProdSingRedo,3.2.3,60.41817851238902,
,,,,93,0,93,0,,,,,,,,,,,,,,,,,,,,,,,,1036.1141539001837,None,,,,,,,,,,,,,,,,,oxygen,new_sing,blue,93,106,209,1033.7111605000682,None,1033.7111605000682,None,1,1.4128250000067055,1033.7111605000682,None,1035.1800465001725,None,1035.686406900175,None,1035.686406900175,None,n,0.389344799797982,1035.686406900175,None,,,color20,001,2021_Nov_08_1414,ProdSingRedo,3.2.3,60.41817851238902,
,,,,94,0,94,0,,,,,,,,,,,,,,,,,,,,,,,,1039.2163284998387,None,,,,,,,,,,,,,,,,,shock,new_aloud,yellow,94,144,284,1036.642960099969,None,1036.642960099969,None,1,1.8974399999715388,1036.642960099969,None,1038.5783154000528,None,1039.101753400173,None,1039.101753400173,None,n,0.07801380008459091,1039.101753400173,None,,,color20,001,2021_Nov_08_1414,ProdSingRedo,3.2.3,60.41817851238902,
,,,,95,0,95,0,,,,,,,,,,,,,,,,,,,,,,,,1042.8044640999287,None,,,,,,,,,,,,,,,,,length,new_aloud,yellow,95,124,169,1039.7451697001234,None,1039.7451697001234,None,1,2.1707230997271836,1039.7451697001234,None,1041.9668589998037,None,1042.4908015001565,None,1042.4908015001565,None,n,0.2891232999972999,1042.4908015001565,None,,,color20,001,2021_Nov_08_1414,ProdSingRedo,3.2.3,60.41817851238902,
,,,,96,0,96,0,,,,,,,,,,,,,,,,,,,,,,,,1046.4241427998058,None,,,,,,,,,,,,,,,,,stranger,aloud,yellow,96,52,309,1043.326541100163,None,1043.326541100163,None,1,1.3172968998551369,1043.326541100163,None,1044.694347300101,None,1045.2110071000643,None,1045.2110071000643,None,n,1.1849239999428391,1045.2110071000643,None,,,color20,001,2021_Nov_08_1414,ProdSingRedo,3.2.3,60.41817851238902,
,,,,97,0,97,0,,,,,,,,,,,,,,,,,,,,,,,,1054.3545790999196,None,,,,,,,,,,,,,,,,,question,new_aloud,yellow,97,135,247,1046.9558556000702,None,1046.9558556000702,None,4,6.400378699880093,1046.9558556000702,None,1053.397280599922,None,1053.9200581000187,None,1053.9200581000187,None,n,0.40404479997232556,1053.9200581000187,None,,,color20,001,2021_Nov_08_1414,ProdSingRedo,3.2.3,60.41817851238902,
,,,,98,0,98,0,,,,,,,,,,,,,,,,,,,,,,,,1063.859908199869,None,,,,,,,,,,,,,,,,,attack,silent,red,98,69,13,1054.8819112000056,None,1054.8819112000056,None,4,7.777926899958402,1054.8819112000056,None,1062.7059177998453,None,1063.2306355000474,None,1063.2306355000474,None,n,0.5891668000258505,1063.2306355000474,None,,,color20,001,2021_Nov_08_1414,ProdSingRedo,3.2.3,60.41817851238902,
,,,,99,0,99,0,,,,,,,,,,,,,,,,,,,,,,,,1069.9840710000135,None,,,,,,,,,,,,,,,,,clean,sing,blue,99,20,51,1064.3829669998959,None,1064.3829669998959,None,6,3.6769540002569556,1064.3829669998959,None,1068.1052892999724,None,1068.6241639000364,None,1068.6241639000364,None,r,1.331605200190097,1068.6241639000364,None,,,color20,001,2021_Nov_08_1414,ProdSingRedo,3.2.3,60.41817851238902,
,,,,100,0,100,0,,,,,,,,,,,,,,,,,,,,,,,,1073.6444311998785,None,,,,,,,,,,,,,,,,,people,new_sing,blue,100,113,216,1070.4902898999862,None,1070.4902898999862,None,5,1.73771069990471,1070.4902898999862,None,1072.277940200176,None,1072.7986421999522,None,1072.7986421999522,None,f,0.8210088000632823,1072.7986421999522,None,,,color20,001,2021_Nov_08_1414,ProdSingRedo,3.2.3,60.41817851238902,
,,,,101,0,101,0,,,,,,,,,,,,,,,,,,,,,,,,1077.640759299975,None,,,,,,,,,,,,,,,,,smell,new_aloud,yellow,101,138,291,1074.156550299842,None,1074.156550299842,None,4,2.239627900067717,1074.156550299842,None,1076.4324440998025,None,1076.95191850001,None,1076.95191850001,None,f,0.6599727999418974,1076.95191850001,None,,,color20,001,2021_Nov_08_1414,ProdSingRedo,3.2.3,60.41817851238902,
,,,,102,0,102,0,,,,,,,,,,,,,,,,,,,,,,,,1082.2291224999353,None,,,,,,,,,,,,,,,,,working,new_sing,blue,102,108,357,1078.1739034000784,None,1078.1739034000784,None,5,2.773804400116205,1078.1739034000784,None,1080.9948704000562,None,1081.5172188999131,None,1081.5172188999131,None,f,0.6707075997255743,1081.5172188999131,None,,,color20,001,2021_Nov_08_1414,ProdSingRedo,3.2.3,60.41817851238902,
,,,,103,0,103,0,,,,,,,,,,,,,,,,,,,,,,,,1086.1820236002095,None,,,,,,,,,,,,,,,,,color,new_sing,blue,103,118,56,1082.748707599938,None,1082.748707599938,None,6,2.623111399821937,1082.748707599938,None,1085.412574400194,None,1085.9281713999808,None,1085.9281713999808,None,r,0.22777950018644333,1085.9281713999808,None,,,color20,001,2021_Nov_08_1414,ProdSingRedo,3.2.3,60.41817851238902,
,,,,104,0,104,0,,,,,,,,,,,,,,,,,,,,,,,,1089.5340765002184,None,,,,,,,,,,,,,,,,,drove,new_sing,blue,104,95,106,1086.7124840999022,None,1086.7124840999022,None,1,2.083405100274831,1086.7124840999022,None,1088.8479566997848,None,1089.368315000087,None,1089.368315000087,None,n,0.1401052000001073,1089.368315000087,None,,,color20,001,2021_Nov_08_1414,ProdSingRedo,3.2.3,60.41817851238902,
,,,,105,0,105,0,,,,,,,,,,,,,,,,,,,,,,,,1092.8702075998299,None,,,,,,,,,,,,,,,,,month,sing,blue,105,10,193,1090.0427141999826,None,1090.0427141999826,None,3,1.4812473999336362,1090.0427141999826,None,1091.5606689997949,None,1092.0692512998357,None,1092.0692512998357,None,f,0.7669367999769747,1092.0692512998357,None,,,color20,001,2021_Nov_08_1414,ProdSingRedo,3.2.3,60.41817851238902,
,,,,106,0,106,0,,,,,,,,,,,,,,,,,,,,,,,,1101.8638737001456,None,,,,,,,,,,,,,,,,,running,new_silent,red,106,168,268,1093.3988375999033,None,1093.3988375999033,None,2,7.125094700139016,1093.3988375999033,None,1100.5804082998075,None,1101.0979955000803,None,1101.0979955000803,None,n,0.7378540001809597,1101.0979955000803,None,,,color20,001,2021_Nov_08_1414,ProdSingRedo,3.2.3,60.41817851238902,
,,,,107,0,107,0,,,,,,,,,,,,,,,,,,,,,,,,1105.0827035000548,None,,,,,,,,,,,,,,,,,principal,silent,red,107,68,236,1102.3918257998303,None,1102.3918257998303,None,3,1.844059799797833,1102.3918257998303,None,1104.2819805000909,None,1104.8026716997847,None,1104.8026716997847,None,n,0.24132000003010035,1104.8026716997847,None,,,color20,001,2021_Nov_08_1414,ProdSingRedo,3.2.3,60.41817851238902,
,,,,108,0,108,0,,,,,,,,,,,,,,,,,,,,,,,,1108.9096094002016,None,,,,,,,,,,,,,,,,,relation,new_aloud,yellow,108,141,257,1105.6106738001108,None,1105.6106738001108,None,1,2.4496247000060976,1105.6106738001108,None,1108.1027481001802,None,1108.623225899879,None,1108.623225899879,None,n,0.252706800121814,1108.623225899879,None,,,color20,001,2021_Nov_08_1414,ProdSingRedo,3.2.3,60.41817851238902,
,,,,109,0,109,0,,,,,,,,,,,,,,,,,,,,,,,,1112.4314441001043,None,,,,,,,,,,,,,,,,,article,new_silent,red,109,176,11,1109.431156099774,None,1109.431156099774,None,1,2.2207343000918627,1109.431156099774,None,1111.7032952997833,None,1112.2092446000315,None,1112.2092446000315,None,n,0.19420679984614253,1112.2092446000315,None,,,color20,001,2021_Nov_08_1414,ProdSingRedo,3.2.3,60.41817851238902,
,,,,110,0,110,0,,,,,,,,,,,,,,,,,,,,,,,,1115.3753900001757,None,,,,,,,,,,,,,,,,,swift,aloud,yellow,110,57,320,1112.9586184001528,None,1112.9586184001528,None,1,1.6692723999731243,1112.9586184001528,None,1114.6769054001197,None,1115.2013007001951,None,1115.2013007001951,None,n,0.1468170997686684,1115.2013007001951,None,,,color20,001,2021_Nov_08_1414,ProdSingRedo,3.2.3,60.41817851238902,
,,,,111,0,111,0,,,,,,,,,,,,,,,,,,,,,,,,1119.1639664000832,None,,,,,,,,,,,,,,,,,raise,new_sing,blue,111,102,250,1115.9029271001928,None,1115.9029271001928,None,2,2.3809551000595093,1115.9029271001928,None,1118.3225981001742,None,1118.8344943001866,None,1118.8344943001866,None,n,0.3052869001403451,1118.8344943001866,None,,,color20,001,2021_Nov_08_1414,ProdSingRedo,3.2.3,60.41817851238902,
,,,,112,0,112,0,,,,,,,,,,,,,,,,,,,,,,,,1122.3517762999982,None,,,,,,,,,,,,,,,,,dispute,new_silent,red,112,173,99,1119.6931745000184,None,1119.6931745000184,None,1,1.9508190997876227,1119.6931745000184,None,1121.7012718999758,None,1122.2219949001446,None,1122.2219949001446,None,n,0.10264379996806383,1122.2219949001446,None,,,color20,001,2021_Nov_08_1414,ProdSingRedo,3.2.3,60.41817851238902,
,,,,113,0,113,0,,,,,,,,,,,,,,,,,,,,,,,,1129.4574148999527,None,,,,,,,,,,,,,,,,,thick,new_aloud,yellow,113,145,327,1122.8741619000211,None,1122.8741619000211,None,1,5.706156499683857,1122.8741619000211,None,1128.6213567000814,None,1129.1405759998597,None,1129.1405759998597,None,n,0.27947890013456345,1129.1405759998597,None,,,color20,001,2021_Nov_08_1414,ProdSingRedo,3.2.3,60.41817851238902,
,,,,114,0,114,0,,,,,,,,,,,,,,,,,,,,,,,,1134.771471799817,None,,,,,,,,,,,,,,,,,frank,aloud,yellow,114,59,133,1129.9900739002042,None,1129.9900739002042,None,6,3.10189319960773,1129.9900739002042,None,1133.1334339999594,None,1133.6482771998271,None,1133.6482771998271,None,r,1.0915028001181781,1133.6482771998271,None,,,color20,001,2021_Nov_08_1414,ProdSingRedo,3.2.3,60.41817851238902,
,,,,115,0,115,0,,,,,,,,,,,,,,,,,,,,,,,,1138.583952699788,None,,,,,,,,,,,,,,,,,session,sing,blue,115,24,281,1135.2857300001197,None,1135.2857300001197,None,6,2.4709569001570344,1135.2857300001197,None,1137.7977784001268,None,1138.3147709998302,None,1138.3147709998302,None,r,0.24107389990240335,1138.3147709998302,None,,,color20,001,2021_Nov_08_1414,ProdSingRedo,3.2.3,60.41817851238902,
,,,,116,0,116,0,,,,,,,,,,,,,,,,,,,,,,,,1143.7550535998307,None,,,,,,,,,,,,,,,,,sleep,sing,blue,116,23,290,1139.1070217997767,None,1139.1070217997767,None,3,3.0893926001153886,1139.1070217997767,None,1142.2350269998424,None,1142.7517349999398,None,1142.7517349999398,None,f,0.9722752999514341,1142.7517349999398,None,,,color20,001,2021_Nov_08_1414,ProdSingRedo,3.2.3,60.41817851238902,
,,,,117,0,117,0,,,,,,,,,,,,,,,,,,,,,,,,1150.2029364001937,None,,,,,,,,,,,,,,,,,corner,aloud,yellow,117,41,69,1144.2825198001228,None,1144.2825198001228,None,3,5.1376146003603935,1144.2825198001228,None,1149.458566499874,None,1149.9691277001984,None,1149.9691277001984,None,f,0.21042619971558452,1149.9691277001984,None,,,color20,001,2021_Nov_08_1414,ProdSingRedo,3.2.3,60.41817851238902,
,,,,118,0,118,0,,,,,,,,,,,,,,,,,,,,,,,,1155.0321860997938,None,,,,,,,,,,,,,,,,,charter,new_silent,red,118,162,47,1150.7051980001852,None,1150.7051980001852,None,1,2.4907140000723302,1150.7051980001852,None,1153.2503621000797,None,1153.7740417998284,None,1153.7740417998284,None,n,1.2220124998129904,1153.7740417998284,None,,,color20,001,2021_Nov_08_1414,ProdSingRedo,3.2.3,60.41817851238902,
,,,,119,0,119,0,,,,,,,,,,,,,,,,,,,,,,,,1158.6708499998786,None,,,,,,,,,,,,,,,,,tough,aloud,yellow,119,40,333,1155.5624096998945,None,1155.5624096998945,None,6,2.3052680999971926,1155.5624096998945,None,1157.898786299862,None,1158.4112215000205,None,1158.4112215000205,None,f,0.22459550015628338,1158.4112215000205,None,,,color20,001,2021_Nov_08_1414,ProdSingRedo,3.2.3,60.41817851238902,
,,,,120,0,120,0,,,,,,,,,,,,,,,,,,,,,,,,1162.3673911998048,None,,,,,,,,,,,,,,,,,junior,new_sing,blue,120,98,167,1159.1859054998495,None,1159.1859054998495,None,5,2.553964499849826,1159.1859054998495,None,1161.7894656998105,None,1162.3019316000864,None,1162.3019316000864,None,f,0.03773429989814758,1162.3019316000864,None,,,color20,001,2021_Nov_08_1414,ProdSingRedo,3.2.3,60.41817851238902,
,,,,121,0,121,0,,,,,,,,,,,,,,,,,,,,,,,,1165.283759799786,None,,,,,,,,,,,,,,,,,orchestra,new_aloud,yellow,121,128,206,1162.882377800066,None,1162.882377800066,None,1,1.5612875004298985,1162.882377800066,None,1164.4777279999107,None,1164.9921796000563,None,1164.9921796000563,None,n,0.25176439993083477,1164.9921796000563,None,,,color20,001,2021_Nov_08_1414,ProdSingRedo,3.2.3,60.41817851238902,
,,,,122,0,122,0,,,,,,,,,,,,,,,,,,,,,,,,1169.524516100064,None,,,,,,,,,,,,,,,,,series,aloud,yellow,122,55,279,1165.7885822001845,None,1165.7885822001845,None,6,2.4870291999541223,1165.7885822001845,None,1168.3118695998564,None,1168.8333220998757,None,1168.8333220998757,None,r,0.6584322997368872,1168.8333220998757,None,,,color20,001,2021_Nov_08_1414,ProdSingRedo,3.2.3,60.41817851238902,
,,,,123,0,123,0,,,,,,,,,,,,,,,,,,,,,,,,1172.3905619001016,None,,,,,,,,,,,,,,,,,shear,new_aloud,yellow,123,130,283,1170.0380535000004,None,1170.0380535000004,None,1,1.589763100259006,1170.0380535000004,None,1171.6733196000569,None,1172.1822269000113,None,1172.1822269000113,None,n,0.1734977001324296,1172.1822269000113,None,,,color20,001,2021_Nov_08_1414,ProdSingRedo,3.2.3,60.41817851238902,
,,,,124,0,124,0,,,,,,,,,,,,,,,,,,,,,,,,1177.0525167998858,None,,,,,,,,,,,,,,,,,watch,aloud,yellow,124,34,351,1172.8991857999936,None,1172.8991857999936,None,3,3.4244198999367654,1172.8991857999936,None,1176.3553717997856,None,1176.8676276998594,None,1176.8676276998594,None,f,0.15230489987879992,1176.8676276998594,None,,,color20,001,2021_Nov_08_1414,ProdSingRedo,3.2.3,60.41817851238902,
,,,,125,0,125,0,,,,,,,,,,,,,,,,,,,,,,,,1180.683416900225,None,,,,,,,,,,,,,,,,,account,aloud,yellow,125,31,1,1177.5904341000132,None,1177.5904341000132,None,5,2.3811329999007285,1177.5904341000132,None,1180.0058260001242,None,1180.5165538000874,None,1180.5165538000874,None,f,0.1511100004427135,1180.5165538000874,None,,,color20,001,2021_Nov_08_1414,ProdSingRedo,3.2.3,60.41817851238902,
,,,,126,0,126,0,,,,,,,,,,,,,,,,,,,,,,,,1184.904310400132,None,,,,,,,,,,,,,,,,,symbol,new_sing,blue,126,112,321,1181.1971765002236,None,1181.1971765002236,None,1,1.8144743000157177,1181.1971765002236,None,1183.0434540999122,None,1183.5546769998036,None,1183.5546769998036,None,n,1.3289266000501812,1183.5546769998036,None,,,color20,001,2021_Nov_08_1414,ProdSingRedo,3.2.3,60.41817851238902,
,,,,127,0,127,0,,,,,,,,,,,,,,,,,,,,,,,,1188.77509739995,None,,,,,,,,,,,,,,,,,substance,sing,blue,127,16,313,1185.4093546997756,None,1185.4093546997756,None,6,2.5143423001281917,1185.4093546997756,None,1187.9426254001446,None,1188.4576814998873,None,1188.4576814998873,None,f,0.2901735999621451,1188.4576814998873,None,,,color20,001,2021_Nov_08_1414,ProdSingRedo,3.2.3,60.41817851238902,
,,,,128,0,128,0,,,,,,,,,,,,,,,,,,,,,,,,1196.66564380005,None,,,,,,,,,,,,,,,,,phrase,sing,blue,128,13,220,1189.2764485999942,None,1189.2764485999942,None,4,5.799168800003827,1189.2764485999942,None,1195.1111817001365,None,1195.6149190999568,None,1195.6149190999568,None,f,1.0286282002925873,1195.6149190999568,None,,,color20,001,2021_Nov_08_1414,ProdSingRedo,3.2.3,60.41817851238902,
,,,,129,0,129,0,,,,,,,,,,,,,,,,,,,,,,,,1202.9553934000432,None,,,,,,,,,,,,,,,,,search,new_aloud,yellow,129,134,276,1197.1692793997936,None,1197.1692793997936,None,1,4.458422199822962,1197.1692793997936,None,1201.6562465000898,None,1202.1714248000644,None,1202.1714248000644,None,n,0.7681839000433683,1202.1714248000644,None,,,color20,001,2021_Nov_08_1414,ProdSingRedo,3.2.3,60.41817851238902,
,,,,130,0,130,0,,,,,,,,,,,,,,,,,,,,,,,,1210.87984339986,None,,,,,,,,,,,,,,,,,literature,new_silent,red,130,169,173,1203.4572533997707,None,1203.4572533997707,None,3,5.514430300332606,1203.4572533997707,None,1209.0012679998763,None,1209.5165845002048,None,1209.5165845002048,None,f,1.3350492999888957,1209.5165845002048,None,,,color20,001,2021_Nov_08_1414,ProdSingRedo,3.2.3,60.41817851238902,
,,,,131,0,131,0,,,,,,,,,,,,,,,,,,,,,,,,1214.1177727999166,None,,,,,,,,,,,,,,,,,voice,silent,red,131,66,348,1211.380757200066,None,1211.380757200066,None,1,1.4711298001930118,1211.380757200066,None,1212.9037306997925,None,1213.4158226000145,None,1213.4158226000145,None,n,0.6758326999843121,1213.4158226000145,None,,,color20,001,2021_Nov_08_1414,ProdSingRedo,3.2.3,60.41817851238902,
,,,,132,0,132,0,,,,,,,,,,,,,,,,,,,,,,,,1225.094907199964,None,,,,,,,,,,,,,,,,,damage,new_silent,red,132,153,83,1214.6383233000524,None,1214.6383233000524,None,2,9.109285099897534,1214.6383233000524,None,1223.778175599873,None,1224.2933382000774,None,1224.2933382000774,None,n,0.7826225999742746,1224.2933382000774,None,,,color20,001,2021_Nov_08_1414,ProdSingRedo,3.2.3,60.41817851238902,
,,,,133,0,133,0,,,,,,,,,,,,,,,,,,,,,,,,1231.133987300098,None,,,,,,,,,,,,,,,,,society,sing,blue,133,9,293,1225.5950162000954,None,1225.5950162000954,None,6,3.7766281003132463,1225.5950162000954,None,1229.4013070999645,None,1229.9159050001763,None,1229.9159050001763,None,f,1.1999524999409914,1229.9159050001763,None,,,color20,001,2021_Nov_08_1414,ProdSingRedo,3.2.3,60.41817851238902,
,,,,134,0,134,0,,,,,,,,,,,,,,,,,,,,,,,,1234.5540418000892,None,,,,,,,,,,,,,,,,,health,silent,red,134,78,149,1231.6360121998005,None,1231.6360121998005,None,6,2.0237289001233876,1231.6360121998005,None,1233.690787800122,None,1234.2036113999784,None,1234.2036113999784,None,f,0.3200746001675725,1234.2036113999784,None,,,color20,001,2021_Nov_08_1414,ProdSingRedo,3.2.3,60.41817851238902,
,,,,135,0,135,0,,,,,,,,,,,,,,,,,,,,,,,,1238.3908069999889,None,,,,,,,,,,,,,,,,,trial,silent,red,135,88,341,1235.0571133000776,None,1235.0571133000776,None,6,1.9705639001913369,1235.0571133000776,None,1237.0585139999166,None,1237.5736401998438,None,1237.5736401998438,None,f,0.7984198997728527,1237.5736401998438,None,,,color20,001,2021_Nov_08_1414,ProdSingRedo,3.2.3,60.41817851238902,
,,,,136,0,136,0,,,,,,,,,,,,,,,,,,,,,,,,1241.5942172999494,None,,,,,,,,,,,,,,,,,guard,new_silent,red,136,170,145,1238.8940067999065,None,1238.8940067999065,None,4,1.757598000112921,1238.8940067999065,None,1240.6782744000666,None,1241.1941114999354,None,1241.1941114999354,None,n,0.3776479000225663,1241.1941114999354,None,,,color20,001,2021_Nov_08_1414,ProdSingRedo,3.2.3,60.41817851238902,
,,,,137,0,137,0,,,,,,,,,,,,,,,,,,,,,,,,1245.2476810999215,None,,,,,,,,,,,,,,,,,council,aloud,yellow,137,50,71,1242.0960221001878,None,1242.0960221001878,None,6,1.3077213997021317,1242.0960221001878,None,1243.435119099915,None,1243.946412499994,None,1243.946412499994,None,r,1.2811973998323083,1243.946412499994,None,,,color20,001,2021_Nov_08_1414,ProdSingRedo,3.2.3,60.41817851238902,
,,,,138,0,138,0,,,,,,,,,,,,,,,,,,,,,,,,1251.1458442001604,None,,,,,,,,,,,,,,,,,marriage,new_silent,red,138,177,179,1245.749891600106,None,1245.749891600106,None,5,3.9101479998789728,1245.749891600106,None,1249.713418299798,None,1250.2346414998174,None,1250.2346414998174,None,f,0.8733168998733163,1250.2346414998174,None,,,color20,001,2021_Nov_08_1414,ProdSingRedo,3.2.3,60.41817851238902,
,,,,139,0,139,0,,,,,,,,,,,,,,,,,,,,,,,,1254.16610640008,None,,,,,,,,,,,,,,,,,block,new_sing,blue,139,99,25,1251.674478100147,None,1251.674478100147,None,1,1.5535303000360727,1251.674478100147,None,1253.282966400031,None,1253.800908499863,None,1253.800908499863,None,n,0.3392928000539541,1253.800908499863,None,,,color20,001,2021_Nov_08_1414,ProdSingRedo,3.2.3,60.41817851238902,
,,,,140,0,140,0,,,,,,,,,,,,,,,,,,,,,,,,1257.035244999919,None,,,,,,,,,,,,,,,,,degree,aloud,yellow,140,48,89,1254.6933961999603,None,1254.6933961999603,None,1,1.4785795998759568,1254.6933961999603,None,1256.2158297002316,None,1256.7204784001224,None,1256.7204784001224,None,n,0.2756140003912151,1256.7204784001224,None,,,color20,001,2021_Nov_08_1414,ProdSingRedo,3.2.3,60.41817851238902,
,,,,141,0,141,0,,,,,,,,,,,,,,,,,,,,,,,,1259.5962445000187,None,,,,,,,,,,,,,,,,,disease,new_silent,red,141,167,97,1257.544210900087,None,1257.544210900087,None,1,1.2681511002592742,1257.544210900087,None,1258.8498157998547,None,1259.3486461001448,None,1259.3486461001448,None,n,0.2310612997971475,1259.3486461001448,None,,,color20,001,2021_Nov_08_1414,ProdSingRedo,3.2.3,60.41817851238902,
,,,,142,0,142,0,,,,,,,,,,,,,,,,,,,,,,,,1262.5904652001336,None,,,,,,,,,,,,,,,,,government,silent,red,142,85,139,1260.1216178000905,None,1260.1216178000905,None,1,1.730419300030917,1260.1216178000905,None,1261.9090645997785,None,1262.4316694000736,None,1262.4316694000736,None,n,0.1332211997359991,1262.4316694000736,None,,,color20,001,2021_Nov_08_1414,ProdSingRedo,3.2.3,60.41817851238902,
,,,,143,0,143,0,,,,,,,,,,,,,,,,,,,,,,,,1266.0783462999389,None,,,,,,,,,,,,,,,,,listen,new_sing,blue,143,100,172,1263.1137222000398,None,1263.1137222000398,None,2,1.7143044001422822,1263.1137222000398,None,1264.8721584999003,None,1265.3930174000561,None,1265.3930174000561,None,n,0.6589828003197908,1265.3930174000561,None,,,color20,001,2021_Nov_08_1414,ProdSingRedo,3.2.3,60.41817851238902,
,,,,144,0,144,0,,,,,,,,,,,,,,,,,,,,,,,,1268.5130083998665,None,,,,,,,,,,,,,,,,,title,new_silent,red,144,158,331,1266.5994083001278,None,1266.5994083001278,None,1,1.276649700012058,1266.5994083001278,None,1267.9259975999594,None,1268.4449104000814,None,1268.4449104000814,None,n,0.039061800111085176,1268.4449104000814,None,,,color20,001,2021_Nov_08_1414,ProdSingRedo,3.2.3,60.41817851238902,
,,,,145,0,145,0,,,,,,,,,,,,,,,,,,,,,,,,1272.3663277998567,None,,,,,,,,,,,,,,,,,weight,aloud,yellow,145,33,353,1269.037287299987,None,1269.037287299987,None,5,1.462449099868536,1269.037287299987,None,1270.5270922998898,None,1271.0529072000645,None,1271.0529072000645,None,f,1.2869855999015272,1271.0529072000645,None,,,color20,001,2021_Nov_08_1414,ProdSingRedo,3.2.3,60.41817851238902,
,,,,146,0,146,0,,,,,,,,,,,,,,,,,,,,,,,,1276.4886149000376,None,,,,,,,,,,,,,,,,,victory,new_silent,red,146,152,346,1272.893756700214,None,1272.893756700214,None,6,2.30242109997198,1272.893756700214,None,1275.2358849002048,None,1275.7559333997779,None,1275.7559333997779,None,f,0.7040339997038245,1275.7559333997779,None,,,color20,001,2021_Nov_08_1414,ProdSingRedo,3.2.3,60.41817851238902,
,,,,147,0,147,0,,,,,,,,,,,,,,,,,,,,,,,,1283.534102700185,None,,,,,,,,,,,,,,,,,rough,silent,red,147,62,266,1277.0148971998133,None,1277.0148971998133,None,3,5.325275199953467,1277.0148971998133,None,1282.3883576998487,None,1282.91486980021,None,1282.91486980021,None,n,0.5851775002665818,1282.91486980021,None,,,color20,001,2021_Nov_08_1414,ProdSingRedo,3.2.3,60.41817851238902,
,,,,148,0,148,0,,,,,,,,,,,,,,,,,,,,,,,,1291.786272500176,None,,,,,,,,,,,,,,,,,prime,silent,red,148,61,235,1284.050203599967,None,1284.050203599967,None,3,5.561945699620992,1284.050203599967,None,1289.6616837000474,None,1290.1817481000908,None,1290.1817481000908,None,n,1.566256099846214,1290.1817481000908,None,,,color20,001,2021_Nov_08_1414,ProdSingRedo,3.2.3,60.41817851238902,
,,,,149,0,149,0,,,,,,,,,,,,,,,,,,,,,,,,1304.5815433999524,None,,,,,,,,,,,,,,,,,chief,aloud,yellow,149,30,48,1292.312682399992,None,1292.312682399992,None,6,2.09128599986434,1292.312682399992,None,1294.4481927999295,None,1294.9554461999796,None,1294.9554461999796,None,f,9.600726299919188,1294.9554461999796,None,,,color20,001,2021_Nov_08_1414,ProdSingRedo,3.2.3,60.41817851238902,
,,,,150,0,150,0,,,,,,,,,,,,,,,,,,,,,,,,1314.3923172000796,None,,,,,,,,,,,,,,,,,point,aloud,yellow,150,36,226,1305.1086698002182,None,1305.1086698002182,None,4,3.4473617002367973,1305.1086698002182,None,1308.5972774000838,None,1309.1169250998646,None,1309.1169250998646,None,f,5.247350900433958,1309.1169250998646,None,,,color20,001,2021_Nov_08_1414,ProdSingRedo,3.2.3,60.41817851238902,
,,,,151,0,151,0,,,,,,,,,,,,,,,,,,,,,,,,1317.8468108000234,None,,,,,,,,,,,,,,,,,business,new_aloud,yellow,151,131,38,1314.9175289999694,None,1314.9175289999694,None,4,2.014569000340998,1314.9175289999694,None,1316.9758615000173,None,1317.4980521998368,None,1317.4980521998368,None,f,0.322246499825269,1317.4980521998368,None,,,color20,001,2021_Nov_08_1414,ProdSingRedo,3.2.3,60.41817851238902,
,,,,152,0,152,0,,,,,,,,,,,,,,,,,,,,,,,,1321.7096191998571,None,,,,,,,,,,,,,,,,,quantity,sing,blue,152,1,245,1318.3788195000961,None,1318.3788195000961,None,6,2.432843600399792,1318.3788195000961,None,1320.8437347002327,None,1321.361918500159,None,1321.361918500159,None,r,0.32978879986330867,1321.361918500159,None,,,color20,001,2021_Nov_08_1414,ProdSingRedo,3.2.3,60.41817851238902,
,,,,153,0,153,0,,,,,,,,,,,,,,,,,,,,,,,,1328.3406560001895,None,,,,,,,,,,,,,,,,,message,new_silent,red,153,179,189,1322.2250923998654,None,1322.2250923998654,None,3,3.0589405996724963,1322.2250923998654,None,1325.3363649998792,None,1325.8555029998533,None,1325.8555029998533,None,f,2.4525168002583086,1325.8555029998533,None,,,color20,001,2021_Nov_08_1414,ProdSingRedo,3.2.3,60.41817851238902,
,,,,154,0,154,0,,,,,,,,,,,,,,,,,,,,,,,,1330.9931197999977,None,,,,,,,,,,,,,,,,,territory,new_aloud,yellow,154,137,324,1328.8657948998734,None,1328.8657948998734,None,1,1.2740120999515057,1328.8657948998734,None,1330.171222299803,None,1330.6836445000954,None,1330.6836445000954,None,n,0.28046329971402884,1330.6836445000954,None,,,color20,001,2021_Nov_08_1414,ProdSingRedo,3.2.3,60.41817851238902,
,,,,155,0,155,0,,,,,,,,,,,,,,,,,,,,,,,,1336.3258324000053,None,,,,,,,,,,,,,,,,,congress,sing,blue,155,26,67,1331.5219832002185,None,1331.5219832002185,None,6,3.506214000284672,1331.5219832002185,None,1335.0727877998725,None,1335.587067199871,None,1335.587067199871,None,f,0.68891859985888,1335.587067199871,None,,,color20,001,2021_Nov_08_1414,ProdSingRedo,3.2.3,60.41817851238902,
,,,,156,0,156,0,,,,,,,,,,,,,,,,,,,,,,,,1340.4180843997747,None,,,,,,,,,,,,,,,,,husband,new_sing,blue,156,97,156,1336.859973100014,None,1336.859973100014,None,3,1.4560321001335979,1336.859973100014,None,1338.3694364000112,None,1338.8957642000169,None,1338.8957642000169,None,n,1.492294100113213,1338.8957642000169,None,,,color20,001,2021_Nov_08_1414,ProdSingRedo,3.2.3,60.41817851238902,
,,,,157,0,157,0,,,,,,,,,,,,,,,,,,,,,,,,1343.172339799814,None,,,,,,,,,,,,,,,,,plane,aloud,yellow,157,42,223,1340.9466959000565,None,1340.9466959000565,None,1,1.553244600072503,1340.9466959000565,None,1342.5541310999542,None,1343.072311699856,None,1343.072311699856,None,n,0.07569569954648614,1343.072311699856,None,,,color20,001,2021_Nov_08_1414,ProdSingRedo,3.2.3,60.41817851238902,
,,,,158,0,158,0,,,,,,,,,,,,,,,,,,,,,,,,1348.1443036999553,None,,,,,,,,,,,,,,,,,shape,aloud,yellow,158,47,282,1343.6977241998538,None,1343.6977241998538,None,1,3.6502620996907353,1343.6977241998538,None,1347.3909144001082,None,1347.9117760998197,None,1347.9117760998197,None,n,0.2047905996441841,1347.9117760998197,None,,,color20,001,2021_Nov_08_1414,ProdSingRedo,3.2.3,60.41817851238902,
,,,,159,0,159,0,,,,,,,,,,,,,,,,,,,,,,,,1353.165123200044,None,,,,,,,,,,,,,,,,,music,sing,blue,159,25,196,1348.6687227999792,None,1348.6687227999792,None,5,3.647389200050384,1348.6687227999792,None,1352.373555299826,None,1352.887278500013,None,1352.887278500013,None,f,0.25290169985964894,1352.887278500013,None,,,color20,001,2021_Nov_08_1414,ProdSingRedo,3.2.3,60.41817851238902,
,,,,160,0,160,0,,,,,,,,,,,,,,,,,,,,,,,,1355.902332900092,None,,,,,,,,,,,,,,,,,angle,aloud,yellow,160,38,7,1353.6759198000655,None,1353.6759198000655,None,1,1.4322652998380363,1353.6759198000655,None,1355.1446433998644,None,1355.6715262997895,None,1355.6715262997895,None,n,0.19653189973905683,1355.6715262997895,None,,,color20,001,2021_Nov_08_1414,ProdSingRedo,3.2.3,60.41817851238902,
,,,,161,0,161,0,,,,,,,,,,,,,,,,,,,,,,,,1358.8377966000699,None,,,,,,,,,,,,,,,,,public,new_aloud,yellow,161,125,244,1356.4266920001246,None,1356.4266920001246,None,1,1.6974496999755502,1356.4266920001246,None,1358.170853999909,None,1358.6901131998748,None,1358.6901131998748,None,n,0.11390209989622235,1358.6901131998748,None,,,color20,001,2021_Nov_08_1414,ProdSingRedo,3.2.3,60.41817851238902,
,,,,162,0,162,0,,,,,,,,,,,,,,,,,,,,,,,,1361.3561109998263,None,,,,,,,,,,,,,,,,,express,new_sing,blue,162,94,124,1359.360337300226,None,1359.360337300226,None,1,1.2676526000723243,1359.360337300226,None,1360.6514900000766,None,1361.1735084000975,None,1361.1735084000975,None,n,0.15051870001479983,1361.1735084000975,None,,,color20,001,2021_Nov_08_1414,ProdSingRedo,3.2.3,60.41817851238902,
,,,,163,0,163,0,,,,,,,,,,,,,,,,,,,,,,,,1364.2765199001878,None,,,,,,,,,,,,,,,,,count,silent,red,163,75,72,1361.8816316002049,None,1361.8816316002049,None,1,1.7224433002993464,1361.8816316002049,None,1363.654803500045,None,1364.1781879998744,None,1364.1781879998744,None,n,0.07380580017343163,1364.1781879998744,None,,,color20,001,2021_Nov_08_1414,ProdSingRedo,3.2.3,60.41817851238902,
,,,,164,0,164,0,,,,,,,,,,,,,,,,,,,,,,,,1367.5293097998947,None,,,,,,,,,,,,,,,,,republic,silent,red,164,60,260,1364.80444250023,None,1364.80444250023,None,6,1.895601900294423,1364.80444250023,None,1366.7443571002223,None,1367.265567400027,None,1367.265567400027,None,f,0.23451869981363416,1367.265567400027,None,,,color20,001,2021_Nov_08_1414,ProdSingRedo,3.2.3,60.41817851238902,
,,,,165,0,165,0,,,,,,,,,,,,,,,,,,,,,,,,1370.5481250998564,None,,,,,,,,,,,,,,,,,grade,new_aloud,yellow,165,126,140,1368.0569783998653,None,1368.0569783998653,None,4,1.8191204001195729,1368.0569783998653,None,1369.9295092001557,None,1370.454090199899,None,1370.454090199899,None,f,0.07025940017774701,1370.454090199899,None,,,color20,001,2021_Nov_08_1414,ProdSingRedo,3.2.3,60.41817851238902,
,,,,166,0,166,0,,,,,,,,,,,,,,,,,,,,,,,,1374.8369650999084,None,,,,,,,,,,,,,,,,,suspect,silent,red,166,81,318,1371.0714537999593,None,1371.0714537999593,None,4,3.0846249000169337,1371.0714537999593,None,1374.204109299928,None,1374.7225844999775,None,1374.7225844999775,None,f,0.0815306999720633,1374.7225844999775,None,,,color20,001,2021_Nov_08_1414,ProdSingRedo,3.2.3,60.41817851238902,
,,,,167,0,167,0,,,,,,,,,,,,,,,,,,,,,,,,1377.5726223001257,None,,,,,,,,,,,,,,,,,universal,sing,blue,167,8,345,1375.3648184998892,None,1375.3648184998892,None,6,1.4072420997545123,1375.3648184998892,None,1376.8257830999792,None,1377.348919000011,None,1377.348919000011,None,r,0.1913525997661054,1377.348919000011,None,,,color20,001,2021_Nov_08_1414,ProdSingRedo,3.2.3,60.41817851238902,
,,,,168,0,168,0,,,,,,,,,,,,,,,,,,,,,,,,1380.8084547999315,None,,,,,,,,,,,,,,,,,debate,sing,blue,168,21,87,1378.098247999791,None,1378.098247999791,None,6,1.8738561999052763,1378.098247999791,None,1380.0205728998408,None,1380.5439718998969,None,1380.5439718998969,None,r,0.23615380004048347,1380.5439718998969,None,,,color20,001,2021_Nov_08_1414,ProdSingRedo,3.2.3,60.41817851238902,
,,,,169,0,169,0,,,,,,,,,,,,,,,,,,,,,,,,1385.964738199953,None,,,,,,,,,,,,,,,,,group,new_aloud,yellow,169,121,143,1381.3338758000173,None,1381.3338758000173,None,6,3.750035199802369,1381.3338758000173,None,1385.1407293002121,None,1385.6484966999851,None,1385.6484966999851,None,r,0.29156209994107485,1385.6484966999851,None,,,color20,001,2021_Nov_08_1414,ProdSingRedo,3.2.3,60.41817851238902,
,,,,170,0,170,0,,,,,,,,,,,,,,,,,,,,,,,,1391.369852299802,None,,,,,,,,,,,,,,,,,split,new_aloud,yellow,170,140,299,1386.4849657001905,None,1386.4849657001905,None,6,4.158940599765629,1386.4849657001905,None,1390.6608155001886,None,1391.1689919000491,None,1391.1689919000491,None,f,0.17119479971006513,1391.1689919000491,None,,,color20,001,2021_Nov_08_1414,ProdSingRedo,3.2.3,60.41817851238902,
,,,,171,0,171,0,,,,,,,,,,,,,,,,,,,,,,,,1394.1621403000318,None,,,,,,,,,,,,,,,,,surprise,silent,red,171,89,317,1391.8979469002225,None,1391.8979469002225,None,6,1.4983223997987807,1391.8979469002225,None,1393.438841999974,None,1393.9572266000323,None,1393.9572266000323,None,f,0.17484889971092343,1393.9572266000323,None,,,color20,001,2021_Nov_08_1414,ProdSingRedo,3.2.3,60.41817851238902,
,,,,172,0,172,0,,,,,,,,,,,,,,,,,,,,,,,,1400.0110145001672,None,,,,,,,,,,,,,,,,,industry,new_sing,blue,172,109,161,1394.6804666998796,None,1394.6804666998796,None,4,4.355763499625027,1394.6804666998796,None,1399.0801161001436,None,1399.5945788999088,None,1399.5945788999088,None,f,0.3934539998881519,1399.5945788999088,None,,,color20,001,2021_Nov_08_1414,ProdSingRedo,3.2.3,60.41817851238902,
,,,,173,0,173,0,,,,,,,,,,,,,,,,,,,,,,,,1403.4836842999794,None,,,,,,,,,,,,,,,,,course,new_silent,red,173,165,74,1400.5357876000926,None,1400.5357876000926,None,5,2.1962886000983417,1400.5357876000926,None,1402.7769853998907,None,1403.3025297001004,None,1403.3025297001004,None,f,0.14958570012822747,1403.3025297001004,None,,,color20,001,2021_Nov_08_1414,ProdSingRedo,3.2.3,60.41817851238902,
,,,,174,0,174,0,,,,,,,,,,,,,,,,,,,,,,,,1407.8711200999096,None,,,,,,,,,,,,,,,,,nature,new_aloud,yellow,174,133,200,1404.0075542000122,None,1404.0075542000122,None,6,2.83672419982031,1404.0075542000122,None,1406.8868240001611,None,1407.4097016998567,None,1407.4097016998567,None,r,0.4345622002147138,1407.4097016998567,None,,,color20,001,2021_Nov_08_1414,ProdSingRedo,3.2.3,60.41817851238902,
,,,,175,0,175,0,,,,,,,,,,,,,,,,,,,,,,,,1411.6216742000543,None,,,,,,,,,,,,,,,,,alert,sing,blue,175,28,6,1408.3925768001936,None,1408.3925768001936,None,6,2.379558799788356,1408.3925768001936,None,1410.8170582000166,None,1411.3397327000275,None,1411.3397327000275,None,f,0.24846679996699095,1411.3397327000275,None,,,color20,001,2021_Nov_08_1414,ProdSingRedo,3.2.3,60.41817851238902,
,,,,176,0,176,0,,,,,,,,,,,,,,,,,,,,,,,,1418.5228544999845,None,,,,,,,,,,,,,,,,,volume,silent,red,176,77,349,1412.1544595998712,None,1412.1544595998712,None,4,5.641594799701124,1412.1544595998712,None,1417.8505473998375,None,1418.3683159998618,None,1418.3683159998618,None,f,0.11585130030289292,1418.3683159998618,None,,,color20,001,2021_Nov_08_1414,ProdSingRedo,3.2.3,60.41817851238902,
,,,,177,0,177,0,,,,,,,,,,,,,,,,,,,,,,,,1421.6586454999633,None,,,,,,,,,,,,,,,,,curve,aloud,yellow,177,46,82,1419.0494459997863,None,1419.0494459997863,None,1,1.6742663001641631,1419.0494459997863,None,1420.7536797998473,None,1421.2721791001968,None,1421.2721791001968,None,n,0.35570789966732264,1421.2721791001968,None,,,color20,001,2021_Nov_08_1414,ProdSingRedo,3.2.3,60.41817851238902,
,,,,178,0,178,0,,,,,,,,,,,,,,,,,,,,,,,,1426.1873440998606,None,,,,,,,,,,,,,,,,,balance,aloud,yellow,178,54,17,1422.17745930003,None,1422.17745930003,None,4,1.6988780000247061,1422.17745930003,None,1423.9189855000004,None,1424.4245633999817,None,1424.4245633999817,None,f,1.723523000255227,1424.4245633999817,None,,,color20,001,2021_Nov_08_1414,ProdSingRedo,3.2.3,60.41817851238902,
,,,,179,0,179,0,,,,,,,,,,,,,,,,,,,,,,,,1431.276687500067,None,,,,,,,,,,,,,,,,,fellow,silent,red,179,80,126,1426.7136976001784,None,1426.7136976001784,None,1,3.2025624997913837,1426.7136976001784,None,1429.954843299929,None,1430.4705396997742,None,1430.4705396997742,None,n,0.7735313000157475,1430.4705396997742,None,,,color20,001,2021_Nov_08_1414,ProdSingRedo,3.2.3,60.41817851238902,
,,,,,,,,,,,,,,,,,,,,,,,,,,,,,,,,,,,,,,,,,,,,,,,,,,,,,,,,,,,,,,,,,,,,,,,,,1431.7859284002334,None,,,,,,,
