StudyLoop.thisRepN,StudyLoop.thisTrialN,StudyLoop.thisN,StudyLoop.thisIndex,TestLoop.thisRepN,TestLoop.thisTrialN,TestLoop.thisN,TestLoop.thisIndex,textCondition.started,textCondition.stopped,keyCondition.keys,keyCondition.rt,keyCondition.started,keyCondition.stopped,Condition,stim_colors,color_sing,color_aloud,color_silent,textWelcome.started,textWelcome.stopped,keyWelcome.keys,keyWelcome.rt,keyWelcome.started,keyWelcome.stopped,textAloud.started,textAloud.stopped,textSilent.started,textSilent.stopped,textSing.started,textSing.stopped,textBlank500.started,textBlank500.stopped,study_word,study_type,study_color,study_num,study_word_num,textStudy.started,textStudy.stopped,keyStudy.keys,keyStudy.started,keyStudy.stopped,textTestInstructions.started,textTestInstructions.stopped,key_resp_3.keys,key_resp_3.rt,key_resp_3.started,key_resp_3.stopped,testWord,testType,testColor,testN,test_num,test_word_num,textConf.started,textConf.stopped,textConfScale.started,textConfScale.stopped,keyConf.keys,keyConf.rt,keyConf.started,keyConf.stopped,textTestBlank.started,textTestBlank.stopped,textRKN.started,textRKN.stopped,textRKNScale.started,textRKNScale.stopped,keyRKN.keys,keyRKN.rt,keyRKN.started,keyRKN.stopped,textEnd.started,textEnd.stopped,participant,session,date,expName,psychopyVersion,frameRate,
,,,,,,,,333.4854903006926,None,y,7.375804699957371,333.4854903006926,None,,,,,,,,,,,,,,,,,,,,,,,,,,,,,,,,,,,,,,,,,,,,,,,,,,,,,,,,,,,,,,color 28,001,2022_Feb_17_1550,ProdSingRedo,3.2.3,60.03359458009395,
,,,,,,,,,,,,,,ColoredTest,"['red', 'blue', 'yellow']",red,blue,yellow,340.9229375002906,None,space,2070.9582970002666,340.9229375002906,None,,,,,,,,,,,,,,,,,,,,,,,,,,,,,,,,,,,,,,,,,,,,,,,,,,,color 28,001,2022_Feb_17_1550,ProdSingRedo,3.2.3,60.03359458009395,
0,0,0,0,,,,,,,,,,,,,,,,,,,,,,340.9229375002906,None,340.9229375002906,None,340.9229375002906,None,2414.437151500024,None,research,sing,red,19,261,2412.4297721004114,None,None,2412.4297721004114,None,,,,,,,,,,,,,,,,,,,,,,,,,,,,,,,,,color 28,001,2022_Feb_17_1550,ProdSingRedo,3.2.3,60.03359458009395,
1,0,1,0,,,,,,,,,,,,,,,,,,,,,,,,,,,,2416.953937800601,None,sight,aloud,blue,56,286,2414.9509708005935,None,None,2414.9509708005935,None,,,,,,,,,,,,,,,,,,,,,,,,,,,,,,,,,color 28,001,2022_Feb_17_1550,ProdSingRedo,3.2.3,60.03359458009395,
2,0,2,0,,,,,,,,,,,,,,,,,,,,,,,,,,,,2419.470870899968,None,angle,silent,yellow,74,7,2417.4684073999524,None,None,2417.4684073999524,None,,,,,,,,,,,,,,,,,,,,,,,,,,,,,,,,,color 28,001,2022_Feb_17_1550,ProdSingRedo,3.2.3,60.03359458009395,
3,0,3,0,,,,,,,,,,,,,,,,,,,,,,,,,,,,2421.987602800131,None,degree,silent,yellow,86,89,2419.9841392999515,None,None,2419.9841392999515,None,,,,,,,,,,,,,,,,,,,,,,,,,,,,,,,,,color 28,001,2022_Feb_17_1550,ProdSingRedo,3.2.3,60.03359458009395,
4,0,4,0,,,,,,,,,,,,,,,,,,,,,,,,,,,,2424.504494899884,None,build,sing,red,12,35,2422.5053479000926,None,None,2422.5053479000926,None,,,,,,,,,,,,,,,,,,,,,,,,,,,,,,,,,color 28,001,2022_Feb_17_1550,ProdSingRedo,3.2.3,60.03359458009395,
5,0,5,0,,,,,,,,,,,,,,,,,,,,,,,,,,,,2427.021387900226,None,second,silent,yellow,82,278,2425.0131555004045,None,None,2425.0131555004045,None,,,,,,,,,,,,,,,,,,,,,,,,,,,,,,,,,color 28,001,2022_Feb_17_1550,ProdSingRedo,3.2.3,60.03359458009395,
6,0,6,0,,,,,,,,,,,,,,,,,,,,,,,,,,,,2429.5382659006864,None,broad,silent,yellow,72,31,2427.5351117001846,None,None,2427.5351117001846,None,,,,,,,,,,,,,,,,,,,,,,,,,,,,,,,,,color 28,001,2022_Feb_17_1550,ProdSingRedo,3.2.3,60.03359458009395,
7,0,7,0,,,,,,,,,,,,,,,,,,,,,,,,,,,,2432.0538669005036,None,report,aloud,blue,38,259,2430.046760899946,None,None,2430.046760899946,None,,,,,,,,,,,,,,,,,,,,,,,,,,,,,,,,,color 28,001,2022_Feb_17_1550,ProdSingRedo,3.2.3,60.03359458009395,
8,0,8,0,,,,,,,,,,,,,,,,,,,,,,,,,,,,2434.5717943999916,None,course,silent,yellow,75,74,2432.5682954005897,None,None,2432.5682954005897,None,,,,,,,,,,,,,,,,,,,,,,,,,,,,,,,,,color 28,001,2022_Feb_17_1550,ProdSingRedo,3.2.3,60.03359458009395,
9,0,9,0,,,,,,,,,,,,,,,,,,,,,,,,,,,,2437.0886141005903,None,scene,aloud,blue,57,273,2435.079486399889,None,None,2435.079486399889,None,,,,,,,,,,,,,,,,,,,,,,,,,,,,,,,,,color 28,001,2022_Feb_17_1550,ProdSingRedo,3.2.3,60.03359458009395,
10,0,10,0,,,,,,,,,,,,,,,,,,,,,,,,,,,,2439.6053597005084,None,master,aloud,blue,37,180,2437.600342299789,None,None,2437.600342299789,None,,,,,,,,,,,,,,,,,,,,,,,,,,,,,,,,,color 28,001,2022_Feb_17_1550,ProdSingRedo,3.2.3,60.03359458009395,
11,0,11,0,,,,,,,,,,,,,,,,,,,,,,,,,,,,2442.122281299904,None,poetry,sing,red,15,225,2440.115779399872,None,None,2440.115779399872,None,,,,,,,,,,,,,,,,,,,,,,,,,,,,,,,,,color 28,001,2022_Feb_17_1550,ProdSingRedo,3.2.3,60.03359458009395,
12,0,12,0,,,,,,,,,,,,,,,,,,,,,,,,,,,,2444.6391463000327,None,defeat,aloud,blue,58,88,2442.639863300137,None,None,2442.639863300137,None,,,,,,,,,,,,,,,,,,,,,,,,,,,,,,,,,color 28,001,2022_Feb_17_1550,ProdSingRedo,3.2.3,60.03359458009395,
13,0,13,0,,,,,,,,,,,,,,,,,,,,,,,,,,,,2447.155956700444,None,volume,silent,yellow,62,349,2445.1617323001847,None,None,2445.1617323001847,None,,,,,,,,,,,,,,,,,,,,,,,,,,,,,,,,,color 28,001,2022_Feb_17_1550,ProdSingRedo,3.2.3,60.03359458009395,
14,0,14,0,,,,,,,,,,,,,,,,,,,,,,,,,,,,2449.6728856004775,None,appeal,silent,yellow,78,9,2447.671111800708,None,None,2447.671111800708,None,,,,,,,,,,,,,,,,,,,,,,,,,,,,,,,,,color 28,001,2022_Feb_17_1550,ProdSingRedo,3.2.3,60.03359458009395,
15,0,15,0,,,,,,,,,,,,,,,,,,,,,,,,,,,,2452.189651899971,None,beauty,silent,yellow,87,18,2450.1901061004028,None,None,2450.1901061004028,None,,,,,,,,,,,,,,,,,,,,,,,,,,,,,,,,,color 28,001,2022_Feb_17_1550,ProdSingRedo,3.2.3,60.03359458009395,
16,0,16,0,,,,,,,,,,,,,,,,,,,,,,,,,,,,2454.7065342999995,None,period,silent,yellow,69,217,2452.6909321006387,None,None,2452.6909321006387,None,,,,,,,,,,,,,,,,,,,,,,,,,,,,,,,,,color 28,001,2022_Feb_17_1550,ProdSingRedo,3.2.3,60.03359458009395,
17,0,17,0,,,,,,,,,,,,,,,,,,,,,,,,,,,,2457.2231641002,None,order,sing,red,25,207,2455.2149368999526,None,None,2455.2149368999526,None,,,,,,,,,,,,,,,,,,,,,,,,,,,,,,,,,color 28,001,2022_Feb_17_1550,ProdSingRedo,3.2.3,60.03359458009395,
18,0,18,0,,,,,,,,,,,,,,,,,,,,,,,,,,,,2459.740207700059,None,empty,silent,yellow,84,112,2457.7354608001187,None,None,2457.7354608001187,None,,,,,,,,,,,,,,,,,,,,,,,,,,,,,,,,,color 28,001,2022_Feb_17_1550,ProdSingRedo,3.2.3,60.03359458009395,
19,0,19,0,,,,,,,,,,,,,,,,,,,,,,,,,,,,2462.2564460001886,None,split,sing,red,14,299,2460.2487265001982,None,None,2460.2487265001982,None,,,,,,,,,,,,,,,,,,,,,,,,,,,,,,,,,color 28,001,2022_Feb_17_1550,ProdSingRedo,3.2.3,60.03359458009395,
20,0,20,0,,,,,,,,,,,,,,,,,,,,,,,,,,,,2464.7737645003945,None,break,silent,yellow,71,26,2462.772900899872,None,None,2462.772900899872,None,,,,,,,,,,,,,,,,,,,,,,,,,,,,,,,,,color 28,001,2022_Feb_17_1550,ProdSingRedo,3.2.3,60.03359458009395,
21,0,21,0,,,,,,,,,,,,,,,,,,,,,,,,,,,,2467.2893385998905,None,oxygen,aloud,blue,40,209,2465.288871699944,None,None,2465.288871699944,None,,,,,,,,,,,,,,,,,,,,,,,,,,,,,,,,,color 28,001,2022_Feb_17_1550,ProdSingRedo,3.2.3,60.03359458009395,
22,0,22,0,,,,,,,,,,,,,,,,,,,,,,,,,,,,2469.7913869004697,None,smooth,sing,red,3,292,2467.790721000172,None,None,2467.790721000172,None,,,,,,,,,,,,,,,,,,,,,,,,,,,,,,,,,color 28,001,2022_Feb_17_1550,ProdSingRedo,3.2.3,60.03359458009395,
23,0,23,0,,,,,,,,,,,,,,,,,,,,,,,,,,,,2472.3076245998964,None,death,aloud,blue,54,86,2470.304128999822,None,None,2470.304128999822,None,,,,,,,,,,,,,,,,,,,,,,,,,,,,,,,,,color 28,001,2022_Feb_17_1550,ProdSingRedo,3.2.3,60.03359458009395,
24,0,24,0,,,,,,,,,,,,,,,,,,,,,,,,,,,,2474.824481599964,None,group,aloud,blue,50,143,2472.8204423999414,None,None,2472.8204423999414,None,,,,,,,,,,,,,,,,,,,,,,,,,,,,,,,,,color 28,001,2022_Feb_17_1550,ProdSingRedo,3.2.3,60.03359458009395,
25,0,25,0,,,,,,,,,,,,,,,,,,,,,,,,,,,,2477.3414853001013,None,shape,sing,red,29,282,2475.3366702003404,None,None,2475.3366702003404,None,,,,,,,,,,,,,,,,,,,,,,,,,,,,,,,,,color 28,001,2022_Feb_17_1550,ProdSingRedo,3.2.3,60.03359458009395,
26,0,26,0,,,,,,,,,,,,,,,,,,,,,,,,,,,,2479.8580641001463,None,entrance,sing,red,23,115,2477.8552021002397,None,None,2477.8552021002397,None,,,,,,,,,,,,,,,,,,,,,,,,,,,,,,,,,color 28,001,2022_Feb_17_1550,ProdSingRedo,3.2.3,60.03359458009395,
27,0,27,0,,,,,,,,,,,,,,,,,,,,,,,,,,,,2482.3749175006524,None,scale,sing,red,11,272,2480.371961100027,None,None,2480.371961100027,None,,,,,,,,,,,,,,,,,,,,,,,,,,,,,,,,,color 28,001,2022_Feb_17_1550,ProdSingRedo,3.2.3,60.03359458009395,
28,0,28,0,,,,,,,,,,,,,,,,,,,,,,,,,,,,2484.8917225999758,None,stand,aloud,blue,42,302,2482.905178400688,None,None,2482.905178400688,None,,,,,,,,,,,,,,,,,,,,,,,,,,,,,,,,,color 28,001,2022_Feb_17_1550,ProdSingRedo,3.2.3,60.03359458009395,
29,0,29,0,,,,,,,,,,,,,,,,,,,,,,,,,,,,2487.408571300097,None,turkey,sing,red,26,342,2485.409135799855,None,None,2485.409135799855,None,,,,,,,,,,,,,,,,,,,,,,,,,,,,,,,,,color 28,001,2022_Feb_17_1550,ProdSingRedo,3.2.3,60.03359458009395,
30,0,30,0,,,,,,,,,,,,,,,,,,,,,,,,,,,,2489.9253937005997,None,watch,aloud,blue,35,351,2487.9202219005674,None,None,2487.9202219005674,None,,,,,,,,,,,,,,,,,,,,,,,,,,,,,,,,,color 28,001,2022_Feb_17_1550,ProdSingRedo,3.2.3,60.03359458009395,
31,0,31,0,,,,,,,,,,,,,,,,,,,,,,,,,,,,2492.4422836005688,None,appearance,silent,yellow,67,10,2490.4389545004815,None,None,2490.4389545004815,None,,,,,,,,,,,,,,,,,,,,,,,,,,,,,,,,,color 28,001,2022_Feb_17_1550,ProdSingRedo,3.2.3,60.03359458009395,
32,0,32,0,,,,,,,,,,,,,,,,,,,,,,,,,,,,2494.9591397000477,None,material,silent,yellow,83,182,2492.958993700333,None,None,2492.958993700333,None,,,,,,,,,,,,,,,,,,,,,,,,,,,,,,,,,color 28,001,2022_Feb_17_1550,ProdSingRedo,3.2.3,60.03359458009395,
33,0,33,0,,,,,,,,,,,,,,,,,,,,,,,,,,,,2497.4759905999526,None,subject,aloud,blue,30,312,2495.4812895003706,None,None,2495.4812895003706,None,,,,,,,,,,,,,,,,,,,,,,,,,,,,,,,,,color 28,001,2022_Feb_17_1550,ProdSingRedo,3.2.3,60.03359458009395,
34,0,34,0,,,,,,,,,,,,,,,,,,,,,,,,,,,,2499.9928704006597,None,partner,sing,red,21,211,2497.98924920056,None,None,2497.98924920056,None,,,,,,,,,,,,,,,,,,,,,,,,,,,,,,,,,color 28,001,2022_Feb_17_1550,ProdSingRedo,3.2.3,60.03359458009395,
35,0,35,0,,,,,,,,,,,,,,,,,,,,,,,,,,,,2502.509596399963,None,length,sing,red,4,169,2500.5061410004273,None,None,2500.5061410004273,None,,,,,,,,,,,,,,,,,,,,,,,,,,,,,,,,,color 28,001,2022_Feb_17_1550,ProdSingRedo,3.2.3,60.03359458009395,
36,0,36,0,,,,,,,,,,,,,,,,,,,,,,,,,,,,2505.025491000153,None,figure,sing,red,28,128,2503.024706000462,None,None,2503.024706000462,None,,,,,,,,,,,,,,,,,,,,,,,,,,,,,,,,,color 28,001,2022_Feb_17_1550,ProdSingRedo,3.2.3,60.03359458009395,
37,0,37,0,,,,,,,,,,,,,,,,,,,,,,,,,,,,2507.543271600269,None,quick,silent,yellow,85,248,2505.5477093998343,None,None,2505.5477093998343,None,,,,,,,,,,,,,,,,,,,,,,,,,,,,,,,,,color 28,001,2022_Feb_17_1550,ProdSingRedo,3.2.3,60.03359458009395,
38,0,38,0,,,,,,,,,,,,,,,,,,,,,,,,,,,,2510.0594107005745,None,meeting,aloud,blue,36,187,2508.0457842005417,None,None,2508.0457842005417,None,,,,,,,,,,,,,,,,,,,,,,,,,,,,,,,,,color 28,001,2022_Feb_17_1550,ProdSingRedo,3.2.3,60.03359458009395,
39,0,39,0,,,,,,,,,,,,,,,,,,,,,,,,,,,,2512.5768905002624,None,election,sing,red,1,109,2510.5698269000277,None,None,2510.5698269000277,None,,,,,,,,,,,,,,,,,,,,,,,,,,,,,,,,,color 28,001,2022_Feb_17_1550,ProdSingRedo,3.2.3,60.03359458009395,
40,0,40,0,,,,,,,,,,,,,,,,,,,,,,,,,,,,2515.0932408003137,None,answer,sing,red,7,8,2513.0911634005606,None,None,2513.0911634005606,None,,,,,,,,,,,,,,,,,,,,,,,,,,,,,,,,,color 28,001,2022_Feb_17_1550,ProdSingRedo,3.2.3,60.03359458009395,
41,0,41,0,,,,,,,,,,,,,,,,,,,,,,,,,,,,2517.6105655999854,None,brilliant,sing,red,9,30,2515.6118800006807,None,None,2515.6118800006807,None,,,,,,,,,,,,,,,,,,,,,,,,,,,,,,,,,color 28,001,2022_Feb_17_1550,ProdSingRedo,3.2.3,60.03359458009395,
42,0,42,0,,,,,,,,,,,,,,,,,,,,,,,,,,,,2520.128256400116,None,display,sing,red,16,98,2518.124857900664,None,None,2518.124857900664,None,,,,,,,,,,,,,,,,,,,,,,,,,,,,,,,,,color 28,001,2022_Feb_17_1550,ProdSingRedo,3.2.3,60.03359458009395,
43,0,43,0,,,,,,,,,,,,,,,,,,,,,,,,,,,,2522.6442523002625,None,detective,sing,red,13,92,2520.643119400367,None,None,2520.643119400367,None,,,,,,,,,,,,,,,,,,,,,,,,,,,,,,,,,color 28,001,2022_Feb_17_1550,ProdSingRedo,3.2.3,60.03359458009395,
44,0,44,0,,,,,,,,,,,,,,,,,,,,,,,,,,,,2525.1610612003133,None,employment,silent,yellow,65,111,2523.158625899814,None,None,2523.158625899814,None,,,,,,,,,,,,,,,,,,,,,,,,,,,,,,,,,color 28,001,2022_Feb_17_1550,ProdSingRedo,3.2.3,60.03359458009395,
45,0,45,0,,,,,,,,,,,,,,,,,,,,,,,,,,,,2527.678108899854,None,birth,silent,yellow,89,22,2525.673546000384,None,None,2525.673546000384,None,,,,,,,,,,,,,,,,,,,,,,,,,,,,,,,,,color 28,001,2022_Feb_17_1550,ProdSingRedo,3.2.3,60.03359458009395,
46,0,46,0,,,,,,,,,,,,,,,,,,,,,,,,,,,,2530.1947237998247,None,audience,sing,red,24,14,2528.1903181001544,None,None,2528.1903181001544,None,,,,,,,,,,,,,,,,,,,,,,,,,,,,,,,,,color 28,001,2022_Feb_17_1550,ProdSingRedo,3.2.3,60.03359458009395,
47,0,47,0,,,,,,,,,,,,,,,,,,,,,,,,,,,,2532.7116028005257,None,shear,aloud,blue,47,283,2530.7095841998234,None,None,2530.7095841998234,None,,,,,,,,,,,,,,,,,,,,,,,,,,,,,,,,,color 28,001,2022_Feb_17_1550,ProdSingRedo,3.2.3,60.03359458009395,
48,0,48,0,,,,,,,,,,,,,,,,,,,,,,,,,,,,2535.228354600258,None,smell,aloud,blue,43,291,2533.220604999922,None,None,2533.220604999922,None,,,,,,,,,,,,,,,,,,,,,,,,,,,,,,,,,color 28,001,2022_Feb_17_1550,ProdSingRedo,3.2.3,60.03359458009395,
49,0,49,0,,,,,,,,,,,,,,,,,,,,,,,,,,,,2537.745137399994,None,region,sing,red,17,256,2535.742248600349,None,None,2535.742248600349,None,,,,,,,,,,,,,,,,,,,,,,,,,,,,,,,,,color 28,001,2022_Feb_17_1550,ProdSingRedo,3.2.3,60.03359458009395,
50,0,50,0,,,,,,,,,,,,,,,,,,,,,,,,,,,,2540.262196900323,None,notice,aloud,blue,49,201,2538.2598481997848,None,None,2538.2598481997848,None,,,,,,,,,,,,,,,,,,,,,,,,,,,,,,,,,color 28,001,2022_Feb_17_1550,ProdSingRedo,3.2.3,60.03359458009395,
51,0,51,0,,,,,,,,,,,,,,,,,,,,,,,,,,,,2542.7789452001452,None,speech,aloud,blue,52,298,2540.7707187002525,None,None,2540.7707187002525,None,,,,,,,,,,,,,,,,,,,,,,,,,,,,,,,,,color 28,001,2022_Feb_17_1550,ProdSingRedo,3.2.3,60.03359458009395,
52,0,52,0,,,,,,,,,,,,,,,,,,,,,,,,,,,,2545.27902500052,None,society,aloud,blue,53,293,2543.2797694001347,None,None,2543.2797694001347,None,,,,,,,,,,,,,,,,,,,,,,,,,,,,,,,,,color 28,001,2022_Feb_17_1550,ProdSingRedo,3.2.3,60.03359458009395,
53,0,53,0,,,,,,,,,,,,,,,,,,,,,,,,,,,,2547.7958780005574,None,center,silent,yellow,77,44,2545.7903303001076,None,None,2545.7903303001076,None,,,,,,,,,,,,,,,,,,,,,,,,,,,,,,,,,color 28,001,2022_Feb_17_1550,ProdSingRedo,3.2.3,60.03359458009395,
54,0,54,0,,,,,,,,,,,,,,,,,,,,,,,,,,,,2550.3127096006647,None,range,silent,yellow,81,251,2548.3121648002416,None,None,2548.3121648002416,None,,,,,,,,,,,,,,,,,,,,,,,,,,,,,,,,,color 28,001,2022_Feb_17_1550,ProdSingRedo,3.2.3,60.03359458009395,
55,0,55,0,,,,,,,,,,,,,,,,,,,,,,,,,,,,2552.8295250004157,None,thing,sing,red,27,328,2550.824328600429,None,None,2550.824328600429,None,,,,,,,,,,,,,,,,,,,,,,,,,,,,,,,,,color 28,001,2022_Feb_17_1550,ProdSingRedo,3.2.3,60.03359458009395,
56,0,56,0,,,,,,,,,,,,,,,,,,,,,,,,,,,,2555.3475200003013,None,salary,sing,red,0,271,2553.345582900569,None,None,2553.345582900569,None,,,,,,,,,,,,,,,,,,,,,,,,,,,,,,,,,color 28,001,2022_Feb_17_1550,ProdSingRedo,3.2.3,60.03359458009395,
57,0,57,0,,,,,,,,,,,,,,,,,,,,,,,,,,,,2557.8632078999653,None,season,aloud,blue,44,277,2555.8608237002045,None,None,2555.8608237002045,None,,,,,,,,,,,,,,,,,,,,,,,,,,,,,,,,,color 28,001,2022_Feb_17_1550,ProdSingRedo,3.2.3,60.03359458009395,
58,0,58,0,,,,,,,,,,,,,,,,,,,,,,,,,,,,2560.3800094006583,None,beginning,silent,yellow,80,19,2558.379723300226,None,None,2558.379723300226,None,,,,,,,,,,,,,,,,,,,,,,,,,,,,,,,,,color 28,001,2022_Feb_17_1550,ProdSingRedo,3.2.3,60.03359458009395,
59,0,59,0,,,,,,,,,,,,,,,,,,,,,,,,,,,,2562.8968976000324,None,block,aloud,blue,33,25,2560.893296400085,None,None,2560.893296400085,None,,,,,,,,,,,,,,,,,,,,,,,,,,,,,,,,,color 28,001,2022_Feb_17_1550,ProdSingRedo,3.2.3,60.03359458009395,
60,0,60,0,,,,,,,,,,,,,,,,,,,,,,,,,,,,2565.4136938005686,None,dance,silent,yellow,88,84,2563.4108864003792,None,None,2563.4108864003792,None,,,,,,,,,,,,,,,,,,,,,,,,,,,,,,,,,color 28,001,2022_Feb_17_1550,ProdSingRedo,3.2.3,60.03359458009395,
61,0,61,0,,,,,,,,,,,,,,,,,,,,,,,,,,,,2567.930451100692,None,novel,aloud,blue,41,202,2565.9250734997913,None,None,2565.9250734997913,None,,,,,,,,,,,,,,,,,,,,,,,,,,,,,,,,,color 28,001,2022_Feb_17_1550,ProdSingRedo,3.2.3,60.03359458009395,
62,0,62,0,,,,,,,,,,,,,,,,,,,,,,,,,,,,2570.4472114006057,None,treatment,silent,yellow,63,339,2568.4332466004416,None,None,2568.4332466004416,None,,,,,,,,,,,,,,,,,,,,,,,,,,,,,,,,,color 28,001,2022_Feb_17_1550,ProdSingRedo,3.2.3,60.03359458009395,
63,0,63,0,,,,,,,,,,,,,,,,,,,,,,,,,,,,2572.9641767004505,None,bitter,aloud,blue,39,23,2570.958682499826,None,None,2570.958682499826,None,,,,,,,,,,,,,,,,,,,,,,,,,,,,,,,,,color 28,001,2022_Feb_17_1550,ProdSingRedo,3.2.3,60.03359458009395,
64,0,64,0,,,,,,,,,,,,,,,,,,,,,,,,,,,,2575.481145400554,None,question,silent,yellow,64,247,2573.4758752007037,None,None,2573.4758752007037,None,,,,,,,,,,,,,,,,,,,,,,,,,,,,,,,,,color 28,001,2022_Feb_17_1550,ProdSingRedo,3.2.3,60.03359458009395,
65,0,65,0,,,,,,,,,,,,,,,,,,,,,,,,,,,,2577.9978558998555,None,military,aloud,blue,51,190,2575.9972441000864,None,None,2575.9972441000864,None,,,,,,,,,,,,,,,,,,,,,,,,,,,,,,,,,color 28,001,2022_Feb_17_1550,ProdSingRedo,3.2.3,60.03359458009395,
66,0,66,0,,,,,,,,,,,,,,,,,,,,,,,,,,,,2580.514738800004,None,charter,sing,red,22,47,2578.5117605002597,None,None,2578.5117605002597,None,,,,,,,,,,,,,,,,,,,,,,,,,,,,,,,,,color 28,001,2022_Feb_17_1550,ProdSingRedo,3.2.3,60.03359458009395,
67,0,67,0,,,,,,,,,,,,,,,,,,,,,,,,,,,,2583.0315088005736,None,household,sing,red,18,154,2581.0288562998176,None,None,2581.0288562998176,None,,,,,,,,,,,,,,,,,,,,,,,,,,,,,,,,,color 28,001,2022_Feb_17_1550,ProdSingRedo,3.2.3,60.03359458009395,
68,0,68,0,,,,,,,,,,,,,,,,,,,,,,,,,,,,2585.548307400197,None,portion,sing,red,6,228,2583.5425089001656,None,None,2583.5425089001656,None,,,,,,,,,,,,,,,,,,,,,,,,,,,,,,,,,color 28,001,2022_Feb_17_1550,ProdSingRedo,3.2.3,60.03359458009395,
69,0,69,0,,,,,,,,,,,,,,,,,,,,,,,,,,,,2588.065285200253,None,school,silent,yellow,60,274,2586.0611401004717,None,None,2586.0611401004717,None,,,,,,,,,,,,,,,,,,,,,,,,,,,,,,,,,color 28,001,2022_Feb_17_1550,ProdSingRedo,3.2.3,60.03359458009395,
70,0,70,0,,,,,,,,,,,,,,,,,,,,,,,,,,,,2590.582043999806,None,force,aloud,blue,48,131,2588.5771035002545,None,None,2588.5771035002545,None,,,,,,,,,,,,,,,,,,,,,,,,,,,,,,,,,color 28,001,2022_Feb_17_1550,ProdSingRedo,3.2.3,60.03359458009395,
71,0,71,0,,,,,,,,,,,,,,,,,,,,,,,,,,,,2593.09895899985,None,husband,aloud,blue,31,156,2591.0977921001613,None,None,2591.0977921001613,None,,,,,,,,,,,,,,,,,,,,,,,,,,,,,,,,,color 28,001,2022_Feb_17_1550,ProdSingRedo,3.2.3,60.03359458009395,
72,0,72,0,,,,,,,,,,,,,,,,,,,,,,,,,,,,2595.615794000216,None,bicycle,silent,yellow,73,21,2593.613968100399,None,None,2593.613968100399,None,,,,,,,,,,,,,,,,,,,,,,,,,,,,,,,,,color 28,001,2022_Feb_17_1550,ProdSingRedo,3.2.3,60.03359458009395,
73,0,73,0,,,,,,,,,,,,,,,,,,,,,,,,,,,,2598.1325015006587,None,cross,sing,red,20,80,2596.1235488001257,None,None,2596.1235488001257,None,,,,,,,,,,,,,,,,,,,,,,,,,,,,,,,,,color 28,001,2022_Feb_17_1550,ProdSingRedo,3.2.3,60.03359458009395,
74,0,74,0,,,,,,,,,,,,,,,,,,,,,,,,,,,,2600.6492974003777,None,passage,sing,red,10,212,2598.64694970008,None,None,2598.64694970008,None,,,,,,,,,,,,,,,,,,,,,,,,,,,,,,,,,color 28,001,2022_Feb_17_1550,ProdSingRedo,3.2.3,60.03359458009395,
75,0,75,0,,,,,,,,,,,,,,,,,,,,,,,,,,,,2603.166167200543,None,welcome,aloud,blue,45,354,2601.1630570003763,None,None,2601.1630570003763,None,,,,,,,,,,,,,,,,,,,,,,,,,,,,,,,,,color 28,001,2022_Feb_17_1550,ProdSingRedo,3.2.3,60.03359458009395,
76,0,76,0,,,,,,,,,,,,,,,,,,,,,,,,,,,,2605.6666579004377,None,throw,silent,yellow,76,330,2603.66500010062,None,None,2603.66500010062,None,,,,,,,,,,,,,,,,,,,,,,,,,,,,,,,,,color 28,001,2022_Feb_17_1550,ProdSingRedo,3.2.3,60.03359458009395,
77,0,77,0,,,,,,,,,,,,,,,,,,,,,,,,,,,,2608.182436699979,None,bucket,aloud,blue,46,33,2606.183808499947,None,None,2606.183808499947,None,,,,,,,,,,,,,,,,,,,,,,,,,,,,,,,,,color 28,001,2022_Feb_17_1550,ProdSingRedo,3.2.3,60.03359458009395,
78,0,78,0,,,,,,,,,,,,,,,,,,,,,,,,,,,,2610.7001374000683,None,gesture,sing,red,2,137,2608.6944960001856,None,None,2608.6944960001856,None,,,,,,,,,,,,,,,,,,,,,,,,,,,,,,,,,color 28,001,2022_Feb_17_1550,ProdSingRedo,3.2.3,60.03359458009395,
79,0,79,0,,,,,,,,,,,,,,,,,,,,,,,,,,,,2613.2173385005444,None,tennis,silent,yellow,79,323,2611.2012619003654,None,None,2611.2012619003654,None,,,,,,,,,,,,,,,,,,,,,,,,,,,,,,,,,color 28,001,2022_Feb_17_1550,ProdSingRedo,3.2.3,60.03359458009395,
80,0,80,0,,,,,,,,,,,,,,,,,,,,,,,,,,,,2615.7336683999747,None,people,sing,red,5,216,2613.7274624006823,None,None,2613.7274624006823,None,,,,,,,,,,,,,,,,,,,,,,,,,,,,,,,,,color 28,001,2022_Feb_17_1550,ProdSingRedo,3.2.3,60.03359458009395,
81,0,81,0,,,,,,,,,,,,,,,,,,,,,,,,,,,,2618.250475199893,None,testimony,silent,yellow,66,325,2616.24535309989,None,None,2616.24535309989,None,,,,,,,,,,,,,,,,,,,,,,,,,,,,,,,,,color 28,001,2022_Feb_17_1550,ProdSingRedo,3.2.3,60.03359458009395,
82,0,82,0,,,,,,,,,,,,,,,,,,,,,,,,,,,,2620.7673172000796,None,majority,silent,yellow,68,176,2618.77173880022,None,None,2618.77173880022,None,,,,,,,,,,,,,,,,,,,,,,,,,,,,,,,,,color 28,001,2022_Feb_17_1550,ProdSingRedo,3.2.3,60.03359458009395,
83,0,83,0,,,,,,,,,,,,,,,,,,,,,,,,,,,,2623.2834176998585,None,running,aloud,blue,55,268,2621.2833617003635,None,None,2621.2833617003635,None,,,,,,,,,,,,,,,,,,,,,,,,,,,,,,,,,color 28,001,2022_Feb_17_1550,ProdSingRedo,3.2.3,60.03359458009395,
84,0,84,0,,,,,,,,,,,,,,,,,,,,,,,,,,,,2625.8010848006234,None,budget,aloud,blue,34,34,2623.7987123001367,None,None,2623.7987123001367,None,,,,,,,,,,,,,,,,,,,,,,,,,,,,,,,,,color 28,001,2022_Feb_17_1550,ProdSingRedo,3.2.3,60.03359458009395,
85,0,85,0,,,,,,,,,,,,,,,,,,,,,,,,,,,,2628.317930600606,None,search,silent,yellow,70,276,2626.31727370061,None,None,2626.31727370061,None,,,,,,,,,,,,,,,,,,,,,,,,,,,,,,,,,color 28,001,2022_Feb_17_1550,ProdSingRedo,3.2.3,60.03359458009395,
86,0,86,0,,,,,,,,,,,,,,,,,,,,,,,,,,,,2630.834747100249,None,trend,silent,yellow,61,340,2628.826567900367,None,None,2628.826567900367,None,,,,,,,,,,,,,,,,,,,,,,,,,,,,,,,,,color 28,001,2022_Feb_17_1550,ProdSingRedo,3.2.3,60.03359458009395,
87,0,87,0,,,,,,,,,,,,,,,,,,,,,,,,,,,,2633.3514269003645,None,carry,sing,red,8,43,2631.351702400483,None,None,2631.351702400483,None,,,,,,,,,,,,,,,,,,,,,,,,,,,,,,,,,color 28,001,2022_Feb_17_1550,ProdSingRedo,3.2.3,60.03359458009395,
88,0,88,0,,,,,,,,,,,,,,,,,,,,,,,,,,,,2635.868243300356,None,theme,aloud,blue,59,326,2633.860171300359,None,None,2633.860171300359,None,,,,,,,,,,,,,,,,,,,,,,,,,,,,,,,,,color 28,001,2022_Feb_17_1550,ProdSingRedo,3.2.3,60.03359458009395,
89,0,89,0,,,,,,,,,,,,,,,,,,,,,,,,,,,,2638.383928500116,None,comfort,aloud,blue,32,59,2636.3817750001326,None,None,2636.3817750001326,None,,,,,,,,,,,,,,,,,,,,,,,,,,,,,,,,,color 28,001,2022_Feb_17_1550,ProdSingRedo,3.2.3,60.03359458009395,
,,,,,,,,,,,,,,,,,,,,,,,,,,,,,,,,,,,,,,,,,,,2638.883936200291,None,k,177.20440350007266,2638.883936200291,None,,,,,,,,,,,,,,,,,,,,,,,,,,,color 28,001,2022_Feb_17_1550,ProdSingRedo,3.2.3,60.03359458009395,
,,,,0,0,0,0,,,,,,,,,,,,,,,,,,,,,,,,2827.481260200031,None,,,,,,,,,,,,,,,,,escape,new_silent,yellow,0,158,118,2816.634872400202,None,2816.634872400202,None,2,6.261226499453187,2816.634872400202,None,2822.9241802003235,None,2823.4297019001096,None,2823.4297019001096,None,n,4.010604500770569,2823.4297019001096,None,,,color 28,001,2022_Feb_17_1550,ProdSingRedo,3.2.3,60.03359458009395,
,,,,1,0,1,0,,,,,,,,,,,,,,,,,,,,,,,,2850.3443342000246,None,,,,,,,,,,,,,,,,,public,new_silent,yellow,1,155,244,2827.9961492000148,None,2827.9961492000148,None,5,10.317144700326025,2827.9961492000148,None,2838.3490663003176,None,2838.8614558000118,None,2838.8614558000118,None,n,11.451198399998248,2838.8614558000118,None,,,color 28,001,2022_Feb_17_1550,ProdSingRedo,3.2.3,60.03359458009395,
,,,,2,0,2,0,,,,,,,,,,,,,,,,,,,,,,,,2859.0748306000605,None,,,,,,,,,,,,,,,,,revolution,new_sing,red,2,108,264,2850.8720348998904,None,2850.8720348998904,None,6,5.104365600273013,2850.8720348998904,None,2856.0258386004716,None,2856.5532841999084,None,2856.5532841999084,None,f,2.4952974999323487,2856.5532841999084,None,,,color 28,001,2022_Feb_17_1550,ProdSingRedo,3.2.3,60.03359458009395,
,,,,3,0,3,0,,,,,,,,,,,,,,,,,,,,,,,,2866.9260966004804,None,,,,,,,,,,,,,,,,,growth,new_aloud,blue,3,148,144,2859.6020739004016,None,2859.6020739004016,None,6,5.15028990060091,2859.6020739004016,None,2864.8044549003243,None,2865.3288227999583,None,2865.3288227999583,None,f,1.5674727000296116,2865.3288227999583,None,,,color 28,001,2022_Feb_17_1550,ProdSingRedo,3.2.3,60.03359458009395,
,,,,4,0,4,0,,,,,,,,,,,,,,,,,,,,,,,,2874.1593110999092,None,,,,,,,,,,,,,,,,,treatment,silent,yellow,4,63,339,2867.4527066005394,None,2867.4527066005394,None,4,4.579671800136566,2867.4527066005394,None,2872.0794278001413,None,2872.5960013000295,None,2872.5960013000295,None,f,1.5325082000344992,2872.5960013000295,None,,,color 28,001,2022_Feb_17_1550,ProdSingRedo,3.2.3,60.03359458009395,
,,,,5,0,5,0,,,,,,,,,,,,,,,,,,,,,,,,2888.043277000077,None,,,,,,,,,,,,,,,,,error,new_silent,yellow,5,162,117,2874.679137200117,None,2874.679137200117,None,4,5.449110200628638,2874.679137200117,None,2880.1673566000536,None,2880.676757200621,None,2880.676757200621,None,f,7.331417200155556,2880.676757200621,None,,,color 28,001,2022_Feb_17_1550,ProdSingRedo,3.2.3,60.03359458009395,
,,,,6,0,6,0,,,,,,,,,,,,,,,,,,,,,,,,2894.343834400177,None,,,,,,,,,,,,,,,,,death,aloud,blue,6,54,86,2888.5656677000225,None,2888.5656677000225,None,6,3.0675176000222564,2888.5656677000225,None,2891.6754029998556,None,2892.19400329981,None,2892.19400329981,None,r,2.1261735009029508,2892.19400329981,None,,,color 28,001,2022_Feb_17_1550,ProdSingRedo,3.2.3,60.03359458009395,
,,,,7,0,7,0,,,,,,,,,,,,,,,,,,,,,,,,2907.1952512999997,None,,,,,,,,,,,,,,,,,ground,new_sing,red,7,96,142,2894.8712562005967,None,2894.8712562005967,None,3,8.304838799871504,2894.8712562005967,None,2903.2290468998253,None,2903.7469434002414,None,2903.7469434002414,None,n,3.4131562002003193,2903.7469434002414,None,,,color 28,001,2022_Feb_17_1550,ProdSingRedo,3.2.3,60.03359458009395,
,,,,8,0,8,0,,,,,,,,,,,,,,,,,,,,,,,,2919.545518600382,None,,,,,,,,,,,,,,,,,congress,new_sing,red,8,101,67,2907.7218198999763,None,2907.7218198999763,None,2,9.462869100272655,2907.7218198999763,None,2917.2290655002,None,2917.749705100432,None,2917.749705100432,None,n,1.7625873005017638,2917.749705100432,None,,,color 28,001,2022_Feb_17_1550,ProdSingRedo,3.2.3,60.03359458009395,
,,,,9,0,9,0,,,,,,,,,,,,,,,,,,,,,,,,2927.5969185000286,None,,,,,,,,,,,,,,,,,personnel,new_aloud,blue,9,133,219,2920.0738965999335,None,2920.0738965999335,None,1,5.566259199753404,2920.0738965999335,None,2925.693936800584,None,2926.2105509005487,None,2926.2105509005487,None,n,1.3582049002870917,2926.2105509005487,None,,,color 28,001,2022_Feb_17_1550,ProdSingRedo,3.2.3,60.03359458009395,
,,,,10,0,10,0,,,,,,,,,,,,,,,,,,,,,,,,2946.273592500016,None,,,,,,,,,,,,,,,,,music,new_aloud,blue,10,121,196,2928.1213581999764,None,2928.1213581999764,None,2,16.278679500333965,2928.1213581999764,None,2944.450914300047,None,2944.9642977006733,None,2944.9642977006733,None,n,1.2914571994915605,2944.9642977006733,None,,,color 28,001,2022_Feb_17_1550,ProdSingRedo,3.2.3,60.03359458009395,
,,,,11,0,11,0,,,,,,,,,,,,,,,,,,,,,,,,2953.674218600616,None,,,,,,,,,,,,,,,,,volume,silent,yellow,11,62,349,2946.7862860001624,None,2946.7862860001624,None,3,5.061756200157106,2946.7862860001624,None,2951.9017756003886,None,2952.4186709998176,None,2952.4186709998176,None,n,1.2213548999279737,2952.4186709998176,None,,,color 28,001,2022_Feb_17_1550,ProdSingRedo,3.2.3,60.03359458009395,
,,,,12,0,12,0,,,,,,,,,,,,,,,,,,,,,,,,2960.3654681006446,None,,,,,,,,,,,,,,,,,stand,aloud,blue,12,42,302,2954.206096100621,None,2954.206096100621,None,5,4.089946899563074,2954.206096100621,None,2958.3483555000275,None,2958.8664846001193,None,2958.8664846001193,None,n,1.4701359001919627,2958.8664846001193,None,,,color 28,001,2022_Feb_17_1550,ProdSingRedo,3.2.3,60.03359458009395,
,,,,13,0,13,0,,,,,,,,,,,,,,,,,,,,,,,,2967.4988461006433,None,,,,,,,,,,,,,,,,,style,new_aloud,blue,13,141,311,2960.8817066000775,None,2960.8817066000775,None,2,5.1263506999239326,2960.8817066000775,None,2966.046401999891,None,2966.5671375999227,None,2966.5671375999227,None,n,0.8968214998021722,2966.5671375999227,None,,,color 28,001,2022_Feb_17_1550,ProdSingRedo,3.2.3,60.03359458009395,
,,,,14,0,14,0,,,,,,,,,,,,,,,,,,,,,,,,2973.0155875002965,None,,,,,,,,,,,,,,,,,victory,new_sing,red,14,92,346,2968.0259134005755,None,2968.0259134005755,None,1,3.7498113000765443,2968.0259134005755,None,2971.8140246002004,None,2972.323369900696,None,2972.323369900696,None,n,0.6607069997116923,2972.323369900696,None,,,color 28,001,2022_Feb_17_1550,ProdSingRedo,3.2.3,60.03359458009395,
,,,,15,0,15,0,,,,,,,,,,,,,,,,,,,,,,,,2979.7651933003217,None,,,,,,,,,,,,,,,,,smooth,sing,red,15,3,292,2973.5382791999727,None,2973.5382791999727,None,6,4.213945700787008,2973.5382791999727,None,2977.7946228999645,None,2978.313912000507,None,2978.313912000507,None,r,1.4140988001599908,2978.313912000507,None,,,color 28,001,2022_Feb_17_1550,ProdSingRedo,3.2.3,60.03359458009395,
,,,,16,0,16,0,,,,,,,,,,,,,,,,,,,,,,,,2988.884066199884,None,,,,,,,,,,,,,,,,,message,new_aloud,blue,16,136,189,2980.292287800461,None,2980.292287800461,None,3,6.059654000215232,2980.292287800461,None,2986.401778500527,None,2986.929031100124,None,2986.929031100124,None,n,1.9189015999436378,2986.929031100124,None,,,color 28,001,2022_Feb_17_1550,ProdSingRedo,3.2.3,60.03359458009395,
,,,,17,0,17,0,,,,,,,,,,,,,,,,,,,,,,,,2992.8013935005292,None,,,,,,,,,,,,,,,,,level,new_aloud,blue,17,134,170,2989.4095367006958,None,2989.4095367006958,None,1,1.710471000522375,2989.4095367006958,None,2991.1678349003196,None,2991.685516100377,None,2991.685516100377,None,n,1.074460000731051,2991.685516100377,None,,,color 28,001,2022_Feb_17_1550,ProdSingRedo,3.2.3,60.03359458009395,
,,,,18,0,18,0,,,,,,,,,,,,,,,,,,,,,,,,2997.551564000547,None,,,,,,,,,,,,,,,,,build,sing,red,18,12,35,2993.3247547000647,None,2993.3247547000647,None,6,2.643190899863839,2993.3247547000647,None,2996.015119300224,None,2996.533486000262,None,2996.533486000262,None,f,0.9785174001008272,2996.533486000262,None,,,color 28,001,2022_Feb_17_1550,ProdSingRedo,3.2.3,60.03359458009395,
,,,,19,0,19,0,,,,,,,,,,,,,,,,,,,,,,,,3007.753244999796,None,,,,,,,,,,,,,,,,,benefit,new_aloud,blue,19,131,20,2998.0776670007035,None,2998.0776670007035,None,2,7.626629000529647,2998.0776670007035,None,3005.746705500409,None,3006.273380599916,None,3006.273380599916,None,n,1.4385994002223015,3006.273380599916,None,,,color 28,001,2022_Feb_17_1550,ProdSingRedo,3.2.3,60.03359458009395,
,,,,20,0,20,0,,,,,,,,,,,,,,,,,,,,,,,,3012.970910999924,None,,,,,,,,,,,,,,,,,second,silent,yellow,20,82,278,3008.2590227006003,None,3008.2590227006003,None,5,2.3568973997607827,3008.2590227006003,None,3010.6623879000545,None,3011.1828490998596,None,3011.1828490998596,None,f,1.7452550996094942,3011.1828490998596,None,,,color 28,001,2022_Feb_17_1550,ProdSingRedo,3.2.3,60.03359458009395,
,,,,21,0,21,0,,,,,,,,,,,,,,,,,,,,,,,,3018.4563548006117,None,,,,,,,,,,,,,,,,,majority,silent,yellow,21,68,176,3013.4999683005735,None,3013.4999683005735,None,4,2.9319283002987504,3013.4999683005735,None,3016.4852322004735,None,3017.0098728006706,None,3017.0098728006706,None,f,1.4061150001361966,3017.0098728006706,None,,,color 28,001,2022_Feb_17_1550,ProdSingRedo,3.2.3,60.03359458009395,
,,,,22,0,22,0,,,,,,,,,,,,,,,,,,,,,,,,3023.9190661003813,None,,,,,,,,,,,,,,,,,shape,sing,red,22,29,282,3018.9787041004747,None,3018.9787041004747,None,3,3.0931914998218417,3018.9787041004747,None,3022.119820199907,None,3022.6372196003795,None,3022.6372196003795,None,f,1.2426682999357581,3022.6372196003795,None,,,color 28,001,2022_Feb_17_1550,ProdSingRedo,3.2.3,60.03359458009395,
,,,,23,0,23,0,,,,,,,,,,,,,,,,,,,,,,,,3032.327305600047,None,,,,,,,,,,,,,,,,,trash,new_aloud,blue,23,144,337,3024.4445960000157,None,3024.4445960000157,None,2,5.715431899763644,3024.4445960000157,None,3030.1962917000055,None,3030.7234383001924,None,3030.7234383001924,None,n,1.5882497001439333,3030.7234383001924,None,,,color 28,001,2022_Feb_17_1550,ProdSingRedo,3.2.3,60.03359458009395,
,,,,24,0,24,0,,,,,,,,,,,,,,,,,,,,,,,,3037.978717500344,None,,,,,,,,,,,,,,,,,order,sing,red,24,25,207,3032.8401359003037,None,3032.8401359003037,None,5,3.911890900693834,3032.8401359003037,None,3036.7991198999807,None,3037.3166762003675,None,3037.3166762003675,None,f,0.6349427998065948,3037.3166762003675,None,,,color 28,001,2022_Feb_17_1550,ProdSingRedo,3.2.3,60.03359458009395,
,,,,25,0,25,0,,,,,,,,,,,,,,,,,,,,,,,,3042.253759100102,None,,,,,,,,,,,,,,,,,husband,aloud,blue,25,31,156,3038.4935362003744,None,3038.4935362003744,None,6,2.1063810996711254,3038.4935362003744,None,3040.6568352999166,None,3041.175214700401,None,3041.175214700401,None,r,1.0486853998154402,3041.175214700401,None,,,color 28,001,2022_Feb_17_1550,ProdSingRedo,3.2.3,60.03359458009395,
,,,,26,0,26,0,,,,,,,,,,,,,,,,,,,,,,,,3046.6866426002234,None,,,,,,,,,,,,,,,,,master,aloud,blue,26,37,180,3042.7801277004182,None,3042.7801277004182,None,6,2.2199036004021764,3042.7801277004182,None,3045.0467648999766,None,3045.572571400553,None,3045.572571400553,None,r,1.075479599647224,3045.572571400553,None,,,color 28,001,2022_Feb_17_1550,ProdSingRedo,3.2.3,60.03359458009395,
,,,,27,0,27,0,,,,,,,,,,,,,,,,,,,,,,,,3056.7635390004143,None,,,,,,,,,,,,,,,,,voice,new_aloud,blue,27,120,348,3047.212656800635,None,3047.212656800635,None,4,8.083288699388504,3047.212656800635,None,3055.333084099926,None,3055.855963599868,None,3055.855963599868,None,f,0.8879420999437571,3055.855963599868,None,,,color 28,001,2022_Feb_17_1550,ProdSingRedo,3.2.3,60.03359458009395,
,,,,28,0,28,0,,,,,,,,,,,,,,,,,,,,,,,,3061.495411200449,None,,,,,,,,,,,,,,,,,mankind,new_aloud,blue,28,125,178,3057.3028313005343,None,3057.3028313005343,None,1,1.6412431001663208,3057.3028313005343,None,3058.9893428003415,None,3059.5119810001925,None,3059.5119810001925,None,n,1.9515167996287346,3059.5119810001925,None,,,color 28,001,2022_Feb_17_1550,ProdSingRedo,3.2.3,60.03359458009395,
,,,,29,0,29,0,,,,,,,,,,,,,,,,,,,,,,,,3068.3218812998384,None,,,,,,,,,,,,,,,,,under,new_sing,red,29,90,343,3061.9983165999874,None,3061.9983165999874,None,2,4.449530899524689,3061.9983165999874,None,3066.488813300617,None,3067.0043085999787,None,3067.0043085999787,None,n,1.28341990057379,3067.0043085999787,None,,,color 28,001,2022_Feb_17_1550,ProdSingRedo,3.2.3,60.03359458009395,
,,,,30,0,30,0,,,,,,,,,,,,,,,,,,,,,,,,3077.3401690004393,None,,,,,,,,,,,,,,,,,region,sing,red,30,17,256,3068.8644925998524,None,3068.8644925998524,None,2,3.7113509997725487,3068.8644925998524,None,3072.6241519004107,None,3073.140630000271,None,3073.140630000271,None,n,4.17150320019573,3073.140630000271,None,,,color 28,001,2022_Feb_17_1550,ProdSingRedo,3.2.3,60.03359458009395,
,,,,31,0,31,0,,,,,,,,,,,,,,,,,,,,,,,,3085.558630700223,None,,,,,,,,,,,,,,,,,rural,new_silent,yellow,31,168,269,3077.867075900547,None,3077.867075900547,None,5,6.10883040074259,3077.867075900547,None,3084.0277890004218,None,3084.547729000449,None,3084.547729000449,None,f,0.9801847999915481,3084.547729000449,None,,,color 28,001,2022_Feb_17_1550,ProdSingRedo,3.2.3,60.03359458009395,
,,,,32,0,32,0,,,,,,,,,,,,,,,,,,,,,,,,3089.573034199886,None,,,,,,,,,,,,,,,,,throw,silent,yellow,32,76,330,3086.080411300063,None,3086.080411300063,None,4,1.3114476995542645,3086.080411300063,None,3087.4385141003877,None,3087.9572892999277,None,3087.9572892999277,None,f,1.5866454001516104,3087.9572892999277,None,,,color 28,001,2022_Feb_17_1550,ProdSingRedo,3.2.3,60.03359458009395,
,,,,33,0,33,0,,,,,,,,,,,,,,,,,,,,,,,,3093.690037299879,None,,,,,,,,,,,,,,,,,beginning,silent,yellow,33,80,19,3090.0958056002855,None,3090.0958056002855,None,5,1.8876720992848277,3090.0958056002855,None,3092.0219718003646,None,3092.540726300329,None,3092.540726300329,None,f,1.1231476999819279,3092.540726300329,None,,,color 28,001,2022_Feb_17_1550,ProdSingRedo,3.2.3,60.03359458009395,
,,,,34,0,34,0,,,,,,,,,,,,,,,,,,,,,,,,3097.3450751006603,None,,,,,,,,,,,,,,,,,speech,aloud,blue,34,52,298,3094.2109805000946,None,3094.2109805000946,None,6,1.4608665006235242,3094.2109805000946,None,3095.71880120039,None,3096.2382794003934,None,3096.2382794003934,None,f,1.0655558006837964,3096.2382794003934,None,,,color 28,001,2022_Feb_17_1550,ProdSingRedo,3.2.3,60.03359458009395,
,,,,35,0,35,0,,,,,,,,,,,,,,,,,,,,,,,,3104.8254236998037,None,,,,,,,,,,,,,,,,,safety,new_silent,yellow,35,164,270,3097.8703546999022,None,3097.8703546999022,None,3,5.185414499603212,3097.8703546999022,None,3103.1107705999166,None,3103.6287210006267,None,3103.6287210006267,None,n,1.1632204996421933,3103.6287210006267,None,,,color 28,001,2022_Feb_17_1550,ProdSingRedo,3.2.3,60.03359458009395,
,,,,36,0,36,0,,,,,,,,,,,,,,,,,,,,,,,,3112.0592015003785,None,,,,,,,,,,,,,,,,,frank,new_sing,red,36,103,133,3105.3548828000203,None,3105.3548828000203,None,1,4.7408348005265,3105.3548828000203,None,3110.1415653005242,None,3110.6634327005595,None,3110.6634327005595,None,n,1.368431699462235,3110.6634327005595,None,,,color 28,001,2022_Feb_17_1550,ProdSingRedo,3.2.3,60.03359458009395,
,,,,37,0,37,0,,,,,,,,,,,,,,,,,,,,,,,,3117.3734812000766,None,,,,,,,,,,,,,,,,,detective,sing,red,37,13,92,3112.5849203998223,None,3112.5849203998223,None,6,3.1028217002749443,3112.5849203998223,None,3115.743077800609,None,3116.260887400247,None,3116.260887400247,None,f,1.0669309999793768,3116.260887400247,None,,,color 28,001,2022_Feb_17_1550,ProdSingRedo,3.2.3,60.03359458009395,
,,,,38,0,38,0,,,,,,,,,,,,,,,,,,,,,,,,3123.64887920022,None,,,,,,,,,,,,,,,,,hearing,new_aloud,blue,38,139,150,3117.9025356005877,None,3117.9025356005877,None,4,4.3848460000008345,3117.9025356005877,None,3122.324895100668,None,3122.845888700336,None,3122.845888700336,None,f,0.7618403006345034,3122.845888700336,None,,,color 28,001,2022_Feb_17_1550,ProdSingRedo,3.2.3,60.03359458009395,
,,,,39,0,39,0,,,,,,,,,,,,,,,,,,,,,,,,3127.926417999901,None,,,,,,,,,,,,,,,,,bucket,aloud,blue,39,46,33,3124.1701202001423,None,3124.1701202001423,None,6,1.7256062999367714,3124.1701202001423,None,3125.946238900535,None,3126.466504400596,None,3126.466504400596,None,f,1.4214527001604438,3126.466504400596,None,,,color 28,001,2022_Feb_17_1550,ProdSingRedo,3.2.3,60.03359458009395,
,,,,40,0,40,0,,,,,,,,,,,,,,,,,,,,,,,,3131.896625100635,None,,,,,,,,,,,,,,,,,judge,new_aloud,blue,40,123,166,3128.4558815006167,None,3128.4558815006167,None,5,2.016080600209534,3128.4558815006167,None,3130.528628299944,None,3131.0485848002136,None,3131.0485848002136,None,f,0.8155632000416517,3131.0485848002136,None,,,color 28,001,2022_Feb_17_1550,ProdSingRedo,3.2.3,60.03359458009395,
,,,,41,0,41,0,,,,,,,,,,,,,,,,,,,,,,,,3137.7937684003264,None,,,,,,,,,,,,,,,,,fellow,new_silent,yellow,41,161,126,3132.4025642005727,None,3132.4025642005727,None,3,3.4532235004007816,3132.4025642005727,None,3135.909142700024,None,3136.432131600566,None,3136.432131600566,None,n,1.3355681002140045,3136.432131600566,None,,,color 28,001,2022_Feb_17_1550,ProdSingRedo,3.2.3,60.03359458009395,
,,,,42,0,42,0,,,,,,,,,,,,,,,,,,,,,,,,3145.032457800582,None,,,,,,,,,,,,,,,,,trail,new_sing,red,42,107,336,3138.315717900172,None,3138.315717900172,None,3,4.828011999838054,3138.315717900172,None,3143.1936785997823,None,3143.710888300091,None,3143.710888300091,None,n,1.2807900998741388,3143.710888300091,None,,,color 28,001,2022_Feb_17_1550,ProdSingRedo,3.2.3,60.03359458009395,
,,,,43,0,43,0,,,,,,,,,,,,,,,,,,,,,,,,3148.9610061002895,None,,,,,,,,,,,,,,,,,report,aloud,blue,43,38,259,3145.5484889000654,None,3145.5484889000654,None,6,1.5953267002478242,3145.5484889000654,None,3147.18957420066,None,3147.7126000002027,None,3147.7126000002027,None,r,1.2232392001897097,3147.7126000002027,None,,,color 28,001,2022_Feb_17_1550,ProdSingRedo,3.2.3,60.03359458009395,
,,,,44,0,44,0,,,,,,,,,,,,,,,,,,,,,,,,3159.6278522005305,None,,,,,,,,,,,,,,,,,crisis,new_silent,yellow,44,153,79,3149.481762100011,None,3149.481762100011,None,4,7.613907299935818,3149.481762100011,None,3157.1412296006456,None,3157.6598813999444,None,3157.6598813999444,None,f,1.9319486003369093,3157.6598813999444,None,,,color 28,001,2022_Feb_17_1550,ProdSingRedo,3.2.3,60.03359458009395,
,,,,45,0,45,0,,,,,,,,,,,,,,,,,,,,,,,,3163.361246000044,None,,,,,,,,,,,,,,,,,shear,aloud,blue,45,47,283,3160.1507155001163,None,3160.1507155001163,None,6,1.5692483000457287,3160.1507155001163,None,3161.759256100282,None,3162.2793514002115,None,3162.2793514002115,None,r,1.0563377998769283,3162.2793514002115,None,,,color 28,001,2022_Feb_17_1550,ProdSingRedo,3.2.3,60.03359458009395,
,,,,46,0,46,0,,,,,,,,,,,,,,,,,,,,,,,,3170.663593100384,None,,,,,,,,,,,,,,,,,search,silent,yellow,46,70,276,3163.8890736000612,None,3163.8890736000612,None,3,5.038614800199866,3163.8890736000612,None,3168.966447500512,None,3169.4842388005927,None,3169.4842388005927,None,n,1.147422400303185,3169.4842388005927,None,,,color 28,001,2022_Feb_17_1550,ProdSingRedo,3.2.3,60.03359458009395,
,,,,47,0,47,0,,,,,,,,,,,,,,,,,,,,,,,,3175.968178000301,None,,,,,,,,,,,,,,,,,entrance,sing,red,47,23,115,3171.189933400601,None,3171.189933400601,None,5,3.394582699984312,3171.189933400601,None,3174.6290841000155,None,3175.149357800372,None,3175.149357800372,None,f,0.7863398995250463,3175.149357800372,None,,,color 28,001,2022_Feb_17_1550,ProdSingRedo,3.2.3,60.03359458009395,
,,,,48,0,48,0,,,,,,,,,,,,,,,,,,,,,,,,3187.1718867002055,None,,,,,,,,,,,,,,,,,month,new_sing,red,48,93,193,3176.4848237000406,None,3176.4848237000406,None,1,8.914992299862206,3176.4848237000406,None,3185.441091700457,None,3185.9608808001503,None,3185.9608808001503,None,n,1.1906842002645135,3185.9608808001503,None,,,color 28,001,2022_Feb_17_1550,ProdSingRedo,3.2.3,60.03359458009395,
,,,,49,0,49,0,,,,,,,,,,,,,,,,,,,,,,,,3190.479590700008,None,,,,,,,,,,,,,,,,,skill,new_sing,red,49,106,289,3187.690212599933,None,3187.690212599933,None,3,1.9174042996019125,3187.690212599933,None,3189.6625672997907,None,3190.190419600345,None,3190.190419600345,None,n,0.25719819962978363,3190.190419600345,None,,,color 28,001,2022_Feb_17_1550,ProdSingRedo,3.2.3,60.03359458009395,
,,,,50,0,50,0,,,,,,,,,,,,,,,,,,,,,,,,3193.8671580003574,None,,,,,,,,,,,,,,,,,novel,aloud,blue,50,41,202,3191.0055975001305,None,3191.0055975001305,None,6,1.2497669998556376,3191.0055975001305,None,3192.273048600182,None,3192.798335100524,None,3192.798335100524,None,f,1.0410575000569224,3192.798335100524,None,,,color 28,001,2022_Feb_17_1550,ProdSingRedo,3.2.3,60.03359458009395,
,,,,51,0,51,0,,,,,,,,,,,,,,,,,,,,,,,,3202.380362899974,None,,,,,,,,,,,,,,,,,length,sing,red,51,4,169,3194.3723629005253,None,3194.3723629005253,None,6,4.515406900085509,3194.3723629005253,None,3198.931193999946,None,3199.4487840002403,None,3199.4487840002403,None,f,2.8948655994609,3199.4487840002403,None,,,color 28,001,2022_Feb_17_1550,ProdSingRedo,3.2.3,60.03359458009395,
,,,,52,0,52,0,,,,,,,,,,,,,,,,,,,,,,,,3210.049791400321,None,,,,,,,,,,,,,,,,,bright,new_silent,yellow,52,154,29,3202.907447400503,None,3202.907447400503,None,4,5.748341900296509,3202.907447400503,None,3208.6987712997943,None,3209.2183574000373,None,3209.2183574000373,None,f,0.797253399156034,3209.2183574000373,None,,,color 28,001,2022_Feb_17_1550,ProdSingRedo,3.2.3,60.03359458009395,
,,,,53,0,53,0,,,,,,,,,,,,,,,,,,,,,,,,3216.050244100392,None,,,,,,,,,,,,,,,,,title,new_aloud,blue,53,129,331,3210.5713684000075,None,3210.5713684000075,None,3,3.9801345001906157,3210.5713684000075,None,3214.595322799869,None,3215.111726200208,None,3215.111726200208,None,n,0.9038035999983549,3215.111726200208,None,,,color 28,001,2022_Feb_17_1550,ProdSingRedo,3.2.3,60.03359458009395,
,,,,54,0,54,0,,,,,,,,,,,,,,,,,,,,,,,,3220.2152577005327,None,,,,,,,,,,,,,,,,,cross,sing,red,54,20,80,3216.569404399954,None,3216.569404399954,None,6,1.6701409993693233,3216.569404399954,None,3218.27950550057,None,3218.799272700213,None,3218.799272700213,None,f,1.3762738993391395,3218.799272700213,None,,,color 28,001,2022_Feb_17_1550,ProdSingRedo,3.2.3,60.03359458009395,
,,,,55,0,55,0,,,,,,,,,,,,,,,,,,,,,,,,3224.6991586005315,None,,,,,,,,,,,,,,,,,trend,silent,yellow,55,61,340,3220.738328500651,None,3220.738328500651,None,3,2.2852798998355865,3220.738328500651,None,3223.0595984002575,None,3223.5726236999035,None,3223.5726236999035,None,n,1.0909319994971156,3223.5726236999035,None,,,color 28,001,2022_Feb_17_1550,ProdSingRedo,3.2.3,60.03359458009395,
,,,,56,0,56,0,,,,,,,,,,,,,,,,,,,,,,,,3234.0679579004645,None,,,,,,,,,,,,,,,,,council,new_silent,yellow,56,150,71,3225.223351799883,None,3225.223351799883,None,6,7.3282777005806565,3225.223351799883,None,3232.598479100503,None,3233.115764000453,None,3233.115764000453,None,f,0.9156999997794628,3233.115764000453,None,,,color 28,001,2022_Feb_17_1550,ProdSingRedo,3.2.3,60.03359458009395,
,,,,57,0,57,0,,,,,,,,,,,,,,,,,,,,,,,,3240.232982300222,None,,,,,,,,,,,,,,,,,carry,sing,red,57,8,43,3234.6003445005044,None,3234.6003445005044,None,5,4.135229799896479,3234.6003445005044,None,3238.7815853999928,None,3239.3095569005236,None,3239.3095569005236,None,f,0.8898400999605656,3239.3095569005236,None,,,color 28,001,2022_Feb_17_1550,ProdSingRedo,3.2.3,60.03359458009395,
,,,,58,0,58,0,,,,,,,,,,,,,,,,,,,,,,,,3244.069618700072,None,,,,,,,,,,,,,,,,,income,new_silent,yellow,58,152,159,3240.7556517003104,None,3240.7556517003104,None,3,1.579514599405229,3240.7556517003104,None,3242.363271600567,None,3242.882253800519,None,3242.882253800519,None,n,1.1492331000044942,3242.882253800519,None,,,color 28,001,2022_Feb_17_1550,ProdSingRedo,3.2.3,60.03359458009395,
,,,,59,0,59,0,,,,,,,,,,,,,,,,,,,,,,,,3249.2700131004676,None,,,,,,,,,,,,,,,,,block,aloud,blue,59,33,25,3244.594801899977,None,3244.594801899977,None,6,3.332849900238216,3244.594801899977,None,3247.985389799811,None,3248.5087195001543,None,3248.5087195001543,None,r,0.7310464000329375,3248.5087195001543,None,,,color 28,001,2022_Feb_17_1550,ProdSingRedo,3.2.3,60.03359458009395,
,,,,60,0,60,0,,,,,,,,,,,,,,,,,,,,,,,,3259.50117589999,None,,,,,,,,,,,,,,,,,question,silent,yellow,60,64,247,3249.7941183000803,None,3249.7941183000803,None,4,8.093330400064588,3249.7941183000803,None,3257.929335200228,None,3258.456364800222,None,3258.456364800222,None,f,1.0150811998173594,3258.456364800222,None,,,color 28,001,2022_Feb_17_1550,ProdSingRedo,3.2.3,60.03359458009395,
,,,,61,0,61,0,,,,,,,,,,,,,,,,,,,,,,,,3264.485588500276,None,,,,,,,,,,,,,,,,,produce,new_sing,red,61,111,239,3260.0271062999964,None,3260.0271062999964,None,6,2.964515400119126,3260.0271062999964,None,3263.0281293001026,None,3263.554286500439,None,3263.554286500439,None,r,0.9011879004538059,3263.554286500439,None,,,color 28,001,2022_Feb_17_1550,ProdSingRedo,3.2.3,60.03359458009395,
,,,,62,0,62,0,,,,,,,,,,,,,,,,,,,,,,,,3271.2353287003934,None,,,,,,,,,,,,,,,,,quick,silent,yellow,62,85,248,3265.0149199003354,None,3265.0149199003354,None,1,4.1846682000905275,3265.0149199003354,None,3269.2586965998635,None,3269.771712000482,None,3269.771712000482,None,n,1.4279030999168754,3269.771712000482,None,,,color 28,001,2022_Feb_17_1550,ProdSingRedo,3.2.3,60.03359458009395,
,,,,63,0,63,0,,,,,,,,,,,,,,,,,,,,,,,,3277.2376725003123,None,,,,,,,,,,,,,,,,,little,new_aloud,blue,63,138,174,3271.741899199784,None,3271.741899199784,None,1,3.617768400348723,3271.741899199784,None,3275.400417400524,None,3275.9214569004253,None,3275.9214569004253,None,n,1.286647000350058,3275.9214569004253,None,,,color 28,001,2022_Feb_17_1550,ProdSingRedo,3.2.3,60.03359458009395,
,,,,64,0,64,0,,,,,,,,,,,,,,,,,,,,,,,,3280.9222149001434,None,,,,,,,,,,,,,,,,,degree,silent,yellow,64,86,89,3277.7574867000803,None,3277.7574867000803,None,3,1.5380692007020116,3277.7574867000803,None,3279.353459600359,None,3279.8729055998847,None,3279.8729055998847,None,n,1.0225280998274684,3279.8729055998847,None,,,color 28,001,2022_Feb_17_1550,ProdSingRedo,3.2.3,60.03359458009395,
,,,,65,0,65,0,,,,,,,,,,,,,,,,,,,,,,,,3285.2030138000846,None,,,,,,,,,,,,,,,,,welcome,aloud,blue,65,45,354,3281.44376750011,None,3281.44376750011,None,6,1.9956940999254584,3281.44376750011,None,3283.4828742006794,None,3284.0045075006783,None,3284.0045075006783,None,f,1.1713480995967984,3284.0045075006783,None,,,color 28,001,2022_Feb_17_1550,ProdSingRedo,3.2.3,60.03359458009395,
,,,,66,0,66,0,,,,,,,,,,,,,,,,,,,,,,,,3287.93988860026,None,,,,,,,,,,,,,,,,,theme,aloud,blue,66,59,326,3285.724396600388,None,3285.724396600388,None,6,1.2430461999028921,3285.724396600388,None,3287.0138248000294,None,3287.5342346001416,None,3287.5342346001416,None,f,0.36911020055413246,3287.5342346001416,None,,,color 28,001,2022_Feb_17_1550,ProdSingRedo,3.2.3,60.03359458009395,
,,,,67,0,67,0,,,,,,,,,,,,,,,,,,,,,,,,3290.553641700186,None,,,,,,,,,,,,,,,,,reach,new_aloud,blue,67,145,253,3288.4609610000625,None,3288.4609610000625,None,6,1.3946260996162891,3288.4609610000625,None,3289.900320599787,None,3290.4215143006295,None,3290.4215143006295,None,f,0.10597490053623915,3290.4215143006295,None,,,color 28,001,2022_Feb_17_1550,ProdSingRedo,3.2.3,60.03359458009395,
,,,,68,0,68,0,,,,,,,,,,,,,,,,,,,,,,,,3295.437964200042,None,,,,,,,,,,,,,,,,,scale,sing,red,68,11,272,3291.086672999896,None,3291.086672999896,None,6,3.4089152002707124,3291.086672999896,None,3294.5351248998195,None,3295.055000499822,None,3295.055000499822,None,f,0.34445140045136213,3295.055000499822,None,,,color 28,001,2022_Feb_17_1550,ProdSingRedo,3.2.3,60.03359458009395,
,,,,69,0,69,0,,,,,,,,,,,,,,,,,,,,,,,,3302.838398400694,None,,,,,,,,,,,,,,,,,touch,new_sing,red,69,115,332,3295.9610336003825,None,3295.9610336003825,None,3,5.494011799804866,3295.9610336003825,None,3301.488708199933,None,3301.9948924006894,None,3301.9948924006894,None,n,0.8046151995658875,3301.9948924006894,None,,,color 28,001,2022_Feb_17_1550,ProdSingRedo,3.2.3,60.03359458009395,
,,,,70,0,70,0,,,,,,,,,,,,,,,,,,,,,,,,3308.0887083001435,None,,,,,,,,,,,,,,,,,group,aloud,blue,70,50,143,3303.3725837999955,None,3303.3725837999955,None,5,3.210848099552095,3303.3725837999955,None,3306.6275316001847,None,3307.146549800411,None,3307.146549800411,None,f,0.9168044999241829,3307.146549800411,None,,,color 28,001,2022_Feb_17_1550,ProdSingRedo,3.2.3,60.03359458009395,
,,,,71,0,71,0,,,,,,,,,,,,,,,,,,,,,,,,3311.6887428006157,None,,,,,,,,,,,,,,,,,oxygen,aloud,blue,71,40,209,3308.6212180005386,None,3308.6212180005386,None,6,2.0420595007017255,3308.6212180005386,None,3310.698925100267,None,3311.233161999844,None,3311.233161999844,None,r,0.42219110019505024,3311.233161999844,None,,,color 28,001,2022_Feb_17_1550,ProdSingRedo,3.2.3,60.03359458009395,
,,,,72,0,72,0,,,,,,,,,,,,,,,,,,,,,,,,3315.438051600009,None,,,,,,,,,,,,,,,,,split,sing,red,72,14,299,3312.1971385004,None,3312.1971385004,None,6,2.1942943008616567,3312.1971385004,None,3314.445824599825,None,3314.9530245000497,None,3314.9530245000497,None,r,0.45448660012334585,3314.9530245000497,None,,,color 28,001,2022_Feb_17_1550,ProdSingRedo,3.2.3,60.03359458009395,
,,,,73,0,73,0,,,,,,,,,,,,,,,,,,,,,,,,3322.4398477999493,None,,,,,,,,,,,,,,,,,tennis,silent,yellow,73,79,323,3315.962802399881,None,3315.962802399881,None,5,5.316800199449062,3315.962802399881,None,3321.3169025005773,None,3321.8366256002337,None,3321.8366256002337,None,f,0.5626912005245686,3321.8366256002337,None,,,color 28,001,2022_Feb_17_1550,ProdSingRedo,3.2.3,60.03359458009395,
,,,,74,0,74,0,,,,,,,,,,,,,,,,,,,,,,,,3325.523827000521,None,,,,,,,,,,,,,,,,,beauty,silent,yellow,74,87,18,3322.969957999885,None,3322.969957999885,None,6,1.4373777993023396,3322.969957999885,None,3324.4593222998083,None,3324.9758648006245,None,3324.9758648006245,None,r,0.5198962995782495,3324.9758648006245,None,,,color 28,001,2022_Feb_17_1550,ProdSingRedo,3.2.3,60.03359458009395,
,,,,75,0,75,0,,,,,,,,,,,,,,,,,,,,,,,,3331.0426126001403,None,,,,,,,,,,,,,,,,,light,new_silent,yellow,75,166,171,3326.0483638001606,None,3326.0483638001606,None,5,3.2633240008726716,3326.0483638001606,None,3329.353107600473,None,3329.8740253997967,None,3329.8740253997967,None,r,1.1333408998325467,3329.8740253997967,None,,,color 28,001,2022_Feb_17_1550,ProdSingRedo,3.2.3,60.03359458009395,
,,,,76,0,76,0,,,,,,,,,,,,,,,,,,,,,,,,3335.2574326004833,None,,,,,,,,,,,,,,,,,quantity,new_silent,yellow,76,171,245,3331.549443299882,None,3331.549443299882,None,3,2.0178804006427526,3331.549443299882,None,3333.6180356005207,None,3334.1511460999027,None,3334.1511460999027,None,n,1.0721565997228026,3334.1511460999027,None,,,color 28,001,2022_Feb_17_1550,ProdSingRedo,3.2.3,60.03359458009395,
,,,,77,0,77,0,,,,,,,,,,,,,,,,,,,,,,,,3338.590643300675,None,,,,,,,,,,,,,,,,,passage,sing,red,77,10,212,3335.779358699918,None,3335.779358699918,None,6,1.6599409999325871,3335.779358699918,None,3337.4946779003367,None,3338.0117851998657,None,3338.0117851998657,None,r,0.5474805999547243,3338.0117851998657,None,,,color 28,001,2022_Feb_17_1550,ProdSingRedo,3.2.3,60.03359458009395,
,,,,78,0,78,0,,,,,,,,,,,,,,,,,,,,,,,,3345.2061016000807,None,,,,,,,,,,,,,,,,,short,new_silent,yellow,78,178,285,3339.111461300403,None,3339.111461300403,None,5,5.135944100096822,3339.111461300403,None,3344.2843407001346,None,3344.7974351001903,None,3344.7974351001903,None,f,0.36983960028737783,3344.7974351001903,None,,,color 28,001,2022_Feb_17_1550,ProdSingRedo,3.2.3,60.03359458009395,
,,,,79,0,79,0,,,,,,,,,,,,,,,,,,,,,,,,3353.4904997004196,None,,,,,,,,,,,,,,,,,primary,new_aloud,blue,79,143,234,3345.7366291005164,None,3345.7366291005164,None,4,6.366773799993098,3345.7366291005164,None,3352.158420300111,None,3352.6838637003675,None,3352.6838637003675,None,f,0.7713545998558402,3352.6838637003675,None,,,color 28,001,2022_Feb_17_1550,ProdSingRedo,3.2.3,60.03359458009395,
,,,,80,0,80,0,,,,,,,,,,,,,,,,,,,,,,,,3359.903550299816,None,,,,,,,,,,,,,,,,,enemy,new_sing,red,80,104,113,3354.018124700524,None,3354.018124700524,None,1,4.4294841000810266,3354.018124700524,None,3358.487839700654,None,3359.0078484006226,None,3359.0078484006226,None,n,0.8476109998300672,3359.0078484006226,None,,,color 28,001,2022_Feb_17_1550,ProdSingRedo,3.2.3,60.03359458009395,
,,,,81,0,81,0,,,,,,,,,,,,,,,,,,,,,,,,3363.6586899003014,None,,,,,,,,,,,,,,,,,brilliant,sing,red,81,9,30,3360.4348555998877,None,3360.4348555998877,None,5,2.029203400015831,3360.4348555998877,None,3362.506416000426,None,3363.02952990029,None,3363.02952990029,None,f,0.5936441998928785,3363.02952990029,None,,,color 28,001,2022_Feb_17_1550,ProdSingRedo,3.2.3,60.03359458009395,
,,,,82,0,82,0,,,,,,,,,,,,,,,,,,,,,,,,3366.7759543005377,None,,,,,,,,,,,,,,,,,industry,new_sing,red,82,99,161,3364.1867311000824,None,3364.1867311000824,None,5,1.5006584003567696,3364.1867311000824,None,3365.741649400443,None,3366.264029400423,None,3366.264029400423,None,f,0.48718849942088127,3366.264029400423,None,,,color 28,001,2022_Feb_17_1550,ProdSingRedo,3.2.3,60.03359458009395,
,,,,83,0,83,0,,,,,,,,,,,,,,,,,,,,,,,,3375.0447634002194,None,,,,,,,,,,,,,,,,,salary,sing,red,83,0,271,3367.304651300423,None,3367.304651300423,None,5,6.110634699463844,3367.304651300423,None,3373.4573464998975,None,3373.9824926005676,None,3373.9824926005676,None,f,1.0330292005091906,3373.9824926005676,None,,,color 28,001,2022_Feb_17_1550,ProdSingRedo,3.2.3,60.03359458009395,
,,,,84,0,84,0,,,,,,,,,,,,,,,,,,,,,,,,3379.4493320006877,None,,,,,,,,,,,,,,,,,appearance,silent,yellow,84,67,10,3375.574384400621,None,3375.574384400621,None,6,1.8733414998278022,3375.574384400621,None,3377.503675600514,None,3378.0178991006687,None,3378.0178991006687,None,f,1.413167200051248,3378.0178991006687,None,,,color 28,001,2022_Feb_17_1550,ProdSingRedo,3.2.3,60.03359458009395,
,,,,85,0,85,0,,,,,,,,,,,,,,,,,,,,,,,,3387.4458558000624,None,,,,,,,,,,,,,,,,,break,silent,yellow,85,71,26,3379.967517000623,None,3379.967517000623,None,1,5.975648899562657,3379.967517000623,None,3385.993505500257,None,3386.5136998007074,None,3386.5136998007074,None,n,0.8934300998225808,3386.5136998007074,None,,,color 28,001,2022_Feb_17_1550,ProdSingRedo,3.2.3,60.03359458009395,
,,,,86,0,86,0,,,,,,,,,,,,,,,,,,,,,,,,3396.566155700013,None,,,,,,,,,,,,,,,,,people,sing,red,86,5,216,3387.9670454002917,None,3387.9670454002917,None,6,3.2402951000258327,3387.9670454002917,None,3391.2550225006416,None,3391.766956199892,None,3391.766956199892,None,f,4.760211700573564,3391.766956199892,None,,,color 28,001,2022_Feb_17_1550,ProdSingRedo,3.2.3,60.03359458009395,
,,,,87,0,87,0,,,,,,,,,,,,,,,,,,,,,,,,3399.8621928002685,None,,,,,,,,,,,,,,,,,dance,silent,yellow,87,88,84,3397.0871166000143,None,3397.0871166000143,None,5,1.8080871002748609,3397.0871166000143,None,3398.9457522006705,None,3399.460896300152,None,3399.460896300152,None,f,0.3703260002657771,3399.460896300152,None,,,color 28,001,2022_Feb_17_1550,ProdSingRedo,3.2.3,60.03359458009395,
,,,,88,0,88,0,,,,,,,,,,,,,,,,,,,,,,,,3405.7104408005252,None,,,,,,,,,,,,,,,,,watch,aloud,blue,88,35,351,3400.3846888998523,None,3400.3846888998523,None,6,3.7345096999779344,3400.3846888998523,None,3404.158818400465,None,3404.6795997004956,None,3404.6795997004956,None,f,0.9996547000482678,3404.6795997004956,None,,,color 28,001,2022_Feb_17_1550,ProdSingRedo,3.2.3,60.03359458009395,
,,,,89,0,89,0,,,,,,,,,,,,,,,,,,,,,,,,3409.0453174998984,None,,,,,,,,,,,,,,,,,figure,sing,red,89,28,128,3406.236940400675,None,3406.236940400675,None,6,1.6986556993797421,3406.236940400675,None,3407.9792948001996,None,3408.5005645006895,None,3408.5005645006895,None,f,0.5067202998325229,3408.5005645006895,None,,,color 28,001,2022_Feb_17_1550,ProdSingRedo,3.2.3,60.03359458009395,
,,,,90,0,90,0,,,,,,,,,,,,,,,,,,,,,,,,3411.515837000683,None,,,,,,,,,,,,,,,,,rough,new_sing,red,90,98,266,3409.569260899909,None,3409.569260899909,None,6,1.006114000454545,3409.569260899909,None,3410.6266900002956,None,3411.145961600356,None,3411.145961600356,None,f,0.33328380063176155,3411.145961600356,None,,,color 28,001,2022_Feb_17_1550,ProdSingRedo,3.2.3,60.03359458009395,
,,,,91,0,91,0,,,,,,,,,,,,,,,,,,,,,,,,3417.0946516999975,None,,,,,,,,,,,,,,,,,marriage,new_sing,red,91,102,179,3412.0350771006197,None,3412.0350771006197,None,5,4.028071000240743,3412.0350771006197,None,3416.115983900614,None,3416.6359266005456,None,3416.6359266005456,None,f,0.41938289999961853,3416.6359266005456,None,,,color 28,001,2022_Feb_17_1550,ProdSingRedo,3.2.3,60.03359458009395,
,,,,92,0,92,0,,,,,,,,,,,,,,,,,,,,,,,,3420.3461057003587,None,,,,,,,,,,,,,,,,,subject,aloud,blue,92,30,312,3417.6108738007024,None,3417.6108738007024,None,6,1.7084432002156973,3417.6108738007024,None,3419.3563879001886,None,3419.873088300228,None,3419.873088300228,None,r,0.43799380026757717,3419.873088300228,None,,,color 28,001,2022_Feb_17_1550,ProdSingRedo,3.2.3,60.03359458009395,
,,,,93,0,93,0,,,,,,,,,,,,,,,,,,,,,,,,3427.2293044002727,None,,,,,,,,,,,,,,,,,author,new_silent,yellow,93,160,15,3420.8749874997884,None,3420.8749874997884,None,4,4.716179799288511,3420.8749874997884,None,3425.6426506005228,None,3426.1641718000174,None,3426.1641718000174,None,f,1.0269435998052359,3426.1641718000174,None,,,color 28,001,2022_Feb_17_1550,ProdSingRedo,3.2.3,60.03359458009395,
,,,,94,0,94,0,,,,,,,,,,,,,,,,,,,,,,,,3430.0621654000133,None,,,,,,,,,,,,,,,,,force,aloud,blue,94,48,131,3427.7520086001605,None,3427.7520086001605,None,6,1.271148500032723,3427.7520086001605,None,3429.0738196000457,None,3429.5964178005233,None,3429.5964178005233,None,r,0.4347248999401927,3429.5964178005233,None,,,color 28,001,2022_Feb_17_1550,ProdSingRedo,3.2.3,60.03359458009395,
,,,,95,0,95,0,,,,,,,,,,,,,,,,,,,,,,,,3432.930414000526,None,,,,,,,,,,,,,,,,,partner,sing,red,95,21,211,3430.5897035999224,None,3430.5897035999224,None,6,1.2893815003335476,3430.5897035999224,None,3431.9308430003002,None,3432.44806670025,None,3432.44806670025,None,r,0.455256599932909,3432.44806670025,None,,,color 28,001,2022_Feb_17_1550,ProdSingRedo,3.2.3,60.03359458009395,
,,,,96,0,96,0,,,,,,,,,,,,,,,,,,,,,,,,3436.811921500601,None,,,,,,,,,,,,,,,,,signal,new_silent,yellow,96,179,287,3433.4545590998605,None,3433.4545590998605,None,5,2.368638299405575,3433.4545590998605,None,3435.889713600278,None,3436.4002580000088,None,3436.4002580000088,None,f,0.3748936001211405,3436.4002580000088,None,,,color 28,001,2022_Feb_17_1550,ProdSingRedo,3.2.3,60.03359458009395,
,,,,97,0,97,0,,,,,,,,,,,,,,,,,,,,,,,,3440.1959955003113,None,,,,,,,,,,,,,,,,,agency,new_aloud,blue,97,132,4,3437.3418802004308,None,3437.3418802004308,None,6,1.9371581999585032,3437.3418802004308,None,3439.3316913004965,None,3439.847316700034,None,3439.847316700034,None,r,0.31959510035812855,3439.847316700034,None,,,color 28,001,2022_Feb_17_1550,ProdSingRedo,3.2.3,60.03359458009395,
,,,,98,0,98,0,,,,,,,,,,,,,,,,,,,,,,,,3442.997915700078,None,,,,,,,,,,,,,,,,,threat,new_aloud,blue,98,140,329,3440.7060591001064,None,3440.7060591001064,None,6,1.349019999615848,3440.7060591001064,None,3442.096182900481,None,3442.616193899885,None,3442.616193899885,None,r,0.34292809944599867,3442.616193899885,None,,,color 28,001,2022_Feb_17_1550,ProdSingRedo,3.2.3,60.03359458009395,
,,,,99,0,99,0,,,,,,,,,,,,,,,,,,,,,,,,3448.148291000165,None,,,,,,,,,,,,,,,,,court,new_silent,yellow,99,157,75,3443.5220551006496,None,3443.5220551006496,None,3,2.63720600027591,3443.5220551006496,None,3446.2123942002654,None,3446.732783600688,None,3446.732783600688,None,n,1.3865761999040842,3446.732783600688,None,,,color 28,001,2022_Feb_17_1550,ProdSingRedo,3.2.3,60.03359458009395,
,,,,100,0,100,0,,,,,,,,,,,,,,,,,,,,,,,,3452.796333000064,None,,,,,,,,,,,,,,,,,graduate,new_silent,yellow,100,159,141,3448.6771464999765,None,3448.6771464999765,None,3,2.466041499748826,3448.6771464999765,None,3451.1933730002493,None,3451.7062924001366,None,3451.7062924001366,None,n,1.052933600731194,3451.7062924001366,None,,,color 28,001,2022_Feb_17_1550,ProdSingRedo,3.2.3,60.03359458009395,
,,,,101,0,101,0,,,,,,,,,,,,,,,,,,,,,,,,3459.666997300461,None,,,,,,,,,,,,,,,,,course,silent,yellow,101,75,74,3453.324276099913,None,3453.324276099913,None,4,1.8267802996560931,3453.324276099913,None,3455.196290000342,None,3455.718717600219,None,3455.718717600219,None,f,3.9123562993481755,3455.718717600219,None,,,color 28,001,2022_Feb_17_1550,ProdSingRedo,3.2.3,60.03359458009395,
,,,,102,0,102,0,,,,,,,,,,,,,,,,,,,,,,,,3463.0277622006834,None,,,,,,,,,,,,,,,,,space,new_silent,yellow,102,170,297,3460.190819900483,None,3460.190819900483,None,5,1.288144400343299,3460.190819900483,None,3461.532092800364,None,3462.05026740022,None,3462.05026740022,None,f,0.9251880999654531,3462.05026740022,None,,,color 28,001,2022_Feb_17_1550,ProdSingRedo,3.2.3,60.03359458009395,
,,,,103,0,103,0,,,,,,,,,,,,,,,,,,,,,,,,3466.070018200204,None,,,,,,,,,,,,,,,,,piece,new_sing,red,103,114,221,3463.549567900598,None,3463.549567900598,None,5,1.433543000370264,3463.549567900598,None,3465.026020400226,None,3465.5458705006167,None,3465.5458705006167,None,f,0.4853273006156087,3465.5458705006167,None,,,color 28,001,2022_Feb_17_1550,ProdSingRedo,3.2.3,60.03359458009395,
,,,,104,0,104,0,,,,,,,,,,,,,,,,,,,,,,,,3469.014668200165,None,,,,,,,,,,,,,,,,,household,sing,red,104,18,154,3466.5920603005216,None,3466.5920603005216,None,6,1.30305689945817,3466.5920603005216,None,3467.9498829003423,None,3468.465944800526,None,3468.465944800526,None,r,0.5251346994191408,3468.465944800526,None,,,color 28,001,2022_Feb_17_1550,ProdSingRedo,3.2.3,60.03359458009395,
,,,,105,0,105,0,,,,,,,,,,,,,,,,,,,,,,,,3472.781649599783,None,,,,,,,,,,,,,,,,,literature,new_aloud,blue,105,146,173,3469.5450613005087,None,3469.5450613005087,None,6,2.2779919002205133,3469.5450613005087,None,3471.8616403006017,None,3472.3884696001187,None,3472.3884696001187,None,r,0.362678200006485,3472.3884696001187,None,,,color 28,001,2022_Feb_17_1550,ProdSingRedo,3.2.3,60.03359458009395,
,,,,106,0,106,0,,,,,,,,,,,,,,,,,,,,,,,,3475.369823500514,None,,,,,,,,,,,,,,,,,engineer,new_aloud,blue,106,130,114,3473.3087862003595,None,3473.3087862003595,None,6,1.0102094998583198,3473.3087862003595,None,3474.3668371997774,None,3474.8831761004403,None,3474.8831761004403,None,r,0.44401649944484234,3474.8831761004403,None,,,color 28,001,2022_Feb_17_1550,ProdSingRedo,3.2.3,60.03359458009395,
,,,,107,0,107,0,,,,,,,,,,,,,,,,,,,,,,,,3478.465732499957,None,,,,,,,,,,,,,,,,,community,new_sing,red,107,105,63,3475.89569819998,None,3475.89569819998,None,4,1.4873005002737045,3475.89569819998,None,3477.434829399921,None,3477.954851999879,None,3477.954851999879,None,f,0.4762083003297448,3477.954851999879,None,,,color 28,001,2022_Feb_17_1550,ProdSingRedo,3.2.3,60.03359458009395,
,,,,108,0,108,0,,,,,,,,,,,,,,,,,,,,,,,,3481.316822600551,None,,,,,,,,,,,,,,,,,route,new_aloud,blue,108,122,267,3478.990279099904,None,3478.990279099904,None,6,1.265026899985969,3478.990279099904,None,3480.2997102998197,None,3480.824229899794,None,3480.824229899794,None,r,0.45482550002634525,3480.824229899794,None,,,color 28,001,2022_Feb_17_1550,ProdSingRedo,3.2.3,60.03359458009395,
,,,,109,0,109,0,,,,,,,,,,,,,,,,,,,,,,,,3487.454809100367,None,,,,,,,,,,,,,,,,,alert,new_silent,yellow,109,175,6,3481.8229767000303,None,3481.8229767000303,None,4,2.7760552000254393,3481.8229767000303,None,3484.6471238005906,None,3485.1658858004957,None,3485.1658858004957,None,f,2.257261799648404,3485.1658858004957,None,,,color 28,001,2022_Feb_17_1550,ProdSingRedo,3.2.3,60.03359458009395,
,,,,110,0,110,0,,,,,,,,,,,,,,,,,,,,,,,,3490.650939900428,None,,,,,,,,,,,,,,,,,notice,aloud,blue,110,49,201,3487.971021500416,None,3487.971021500416,None,6,1.7080941004678607,3487.971021500416,None,3489.728795500472,None,3490.253678000532,None,3490.253678000532,None,r,0.3695261999964714,3490.253678000532,None,,,color 28,001,2022_Feb_17_1550,ProdSingRedo,3.2.3,60.03359458009395,
,,,,111,0,111,0,,,,,,,,,,,,,,,,,,,,,,,,3495.5179844005033,None,,,,,,,,,,,,,,,,,center,silent,yellow,111,77,44,3491.1705072000623,None,3491.1705072000623,None,4,3.236709600314498,3491.1705072000623,None,3494.442248600535,None,3494.9507275000215,None,3494.9507275000215,None,f,0.5362721001729369,3494.9507275000215,None,,,color 28,001,2022_Feb_17_1550,ProdSingRedo,3.2.3,60.03359458009395,
,,,,112,0,112,0,,,,,,,,,,,,,,,,,,,,,,,,3500.7190006002784,None,,,,,,,,,,,,,,,,,turkey,sing,red,112,26,342,3496.0531724002212,None,3496.0531724002212,None,6,3.073883400298655,3496.0531724002212,None,3499.1855803998187,None,3499.710168200545,None,3499.710168200545,None,r,0.97685950063169,3499.710168200545,None,,,color 28,001,2022_Feb_17_1550,ProdSingRedo,3.2.3,60.03359458009395,
,,,,113,0,113,0,,,,,,,,,,,,,,,,,,,,,,,,3504.901757900603,None,,,,,,,,,,,,,,,,,finish,new_aloud,blue,113,142,130,3501.2431489005685,None,3501.2431489005685,None,1,2.164299899712205,3501.2431489005685,None,3503.445021700114,None,3503.967847700231,None,3503.967847700231,None,n,0.9031143998727202,3503.967847700231,None,,,color 28,001,2022_Feb_17_1550,ProdSingRedo,3.2.3,60.03359458009395,
,,,,114,0,114,0,,,,,,,,,,,,,,,,,,,,,,,,3509.684568900615,None,,,,,,,,,,,,,,,,,phrase,new_sing,red,114,94,220,3505.4269992001355,None,3505.4269992001355,None,4,3.2359226997941732,3505.4269992001355,None,3508.716503200121,None,3509.2344378000125,None,3509.2344378000125,None,f,0.41263690032064915,3509.2344378000125,None,,,color 28,001,2022_Feb_17_1550,ProdSingRedo,3.2.3,60.03359458009395,
,,,,115,0,115,0,,,,,,,,,,,,,,,,,,,,,,,,3512.1085140006617,None,,,,,,,,,,,,,,,,,election,sing,red,115,1,109,3510.206662000157,None,3510.206662000157,None,4,1.080447300337255,3510.206662000157,None,3511.32958240062,None,3511.840943600051,None,3511.840943600051,None,f,0.23796809930354357,3511.840943600051,None,,,color 28,001,2022_Feb_17_1550,ProdSingRedo,3.2.3,60.03359458009395,
,,,,116,0,116,0,,,,,,,,,,,,,,,,,,,,,,,,3515.083969499916,None,,,,,,,,,,,,,,,,,period,silent,yellow,116,69,217,3512.626071500592,None,3512.626071500592,None,4,1.5408021993935108,3512.626071500592,None,3514.2103415001184,None,3514.7329323999584,None,3514.7329323999584,None,f,0.31399739999324083,3514.7329323999584,None,,,color 28,001,2022_Feb_17_1550,ProdSingRedo,3.2.3,60.03359458009395,
,,,,117,0,117,0,,,,,,,,,,,,,,,,,,,,,,,,3517.5992999002337,None,,,,,,,,,,,,,,,,,budget,aloud,blue,117,34,34,3515.610983500257,None,3515.610983500257,None,6,1.2361093992367387,3515.610983500257,None,3516.9090531999245,None,3517.4224941004068,None,3517.4224941004068,None,r,0.13656880054622889,3517.4224941004068,None,,,color 28,001,2022_Feb_17_1550,ProdSingRedo,3.2.3,60.03359458009395,
,,,,118,0,118,0,,,,,,,,,,,,,,,,,,,,,,,,3523.387221700512,None,,,,,,,,,,,,,,,,,drama,new_sing,red,118,110,103,3518.128954799846,None,3518.128954799846,None,1,2.637922700494528,3518.128954799846,None,3520.8140515005216,None,3521.337755500339,None,3521.337755500339,None,n,2.013121100142598,3521.337755500339,None,,,color 28,001,2022_Feb_17_1550,ProdSingRedo,3.2.3,60.03359458009395,
,,,,119,0,119,0,,,,,,,,,,,,,,,,,,,,,,,,3528.1522920997813,None,,,,,,,,,,,,,,,,,research,sing,red,119,19,261,3523.9127969006076,None,3523.9127969006076,None,5,3.302118600346148,3523.9127969006076,None,3527.2643574997783,None,3527.79965060018,None,3527.79965060018,None,f,0.3193362997844815,3527.79965060018,None,,,color 28,001,2022_Feb_17_1550,ProdSingRedo,3.2.3,60.03359458009395,
,,,,120,0,120,0,,,,,,,,,,,,,,,,,,,,,,,,3532.169544700533,None,,,,,,,,,,,,,,,,,broad,silent,yellow,120,72,31,3528.67853000015,None,3528.67853000015,None,4,2.568454200401902,3528.67853000015,None,3531.3012398006395,None,3531.8207793999463,None,3531.8207793999463,None,f,0.3142054006457329,3531.8207793999463,None,,,color 28,001,2022_Feb_17_1550,ProdSingRedo,3.2.3,60.03359458009395,
,,,,121,0,121,0,,,,,,,,,,,,,,,,,,,,,,,,3534.669599200599,None,,,,,,,,,,,,,,,,,poetry,sing,red,121,15,225,3532.69174449984,None,3532.69174449984,None,5,1.243163799867034,3532.69174449984,None,3533.983859400265,None,3534.5051458003,None,3534.5051458003,None,f,0.1257401993498206,3534.5051458003,None,,,color 28,001,2022_Feb_17_1550,ProdSingRedo,3.2.3,60.03359458009395,
,,,,122,0,122,0,,,,,,,,,,,,,,,,,,,,,,,,3537.8353179004043,None,,,,,,,,,,,,,,,,,surface,new_aloud,blue,122,149,316,3535.1924098003656,None,3535.1924098003656,None,5,1.3828187994658947,3535.1924098003656,None,3536.6231157006696,None,3537.142630700022,None,3537.142630700022,None,f,0.6564851002767682,3537.142630700022,None,,,color 28,001,2022_Feb_17_1550,ProdSingRedo,3.2.3,60.03359458009395,
,,,,123,0,123,0,,,,,,,,,,,,,,,,,,,,,,,,3540.2370840003714,None,,,,,,,,,,,,,,,,,grade,new_aloud,blue,123,137,140,3538.3637105999514,None,3538.3637105999514,None,5,0.923208300024271,3538.3637105999514,None,3539.3383537000045,None,3539.855430500582,None,3539.855430500582,None,f,0.34363740030676126,3539.855430500582,None,,,color 28,001,2022_Feb_17_1550,ProdSingRedo,3.2.3,60.03359458009395,
,,,,124,0,124,0,,,,,,,,,,,,,,,,,,,,,,,,3543.057253600098,None,,,,,,,,,,,,,,,,,answer,sing,red,124,7,8,3540.762126000598,None,3540.762126000598,None,5,1.4365781005471945,3540.762126000598,None,3542.2295361002907,None,3542.761673300527,None,3542.761673300527,None,f,0.26129219960421324,3542.761673300527,None,,,color 28,001,2022_Feb_17_1550,ProdSingRedo,3.2.3,60.03359458009395,
,,,,125,0,125,0,,,,,,,,,,,,,,,,,,,,,,,,3545.520953000523,None,,,,,,,,,,,,,,,,,symbol,new_silent,yellow,125,169,321,3543.561982399784,None,3543.561982399784,None,5,1.1250032996758819,3543.561982399784,None,3544.731302300468,None,3545.2589495005086,None,3545.2589495005086,None,f,0.2279827008023858,3545.2589495005086,None,,,color 28,001,2022_Feb_17_1550,ProdSingRedo,3.2.3,60.03359458009395,
,,,,126,0,126,0,,,,,,,,,,,,,,,,,,,,,,,,3549.271241299808,None,,,,,,,,,,,,,,,,,estate,new_sing,red,126,119,119,3546.044794499874,None,3546.044794499874,None,5,2.034005799330771,3546.044794499874,None,3548.1219519004226,None,3548.6420970000327,None,3548.6420970000327,None,f,0.5887994999065995,3548.6420970000327,None,,,color 28,001,2022_Feb_17_1550,ProdSingRedo,3.2.3,60.03359458009395,
,,,,127,0,127,0,,,,,,,,,,,,,,,,,,,,,,,,3553.003299999982,None,,,,,,,,,,,,,,,,,gesture,sing,red,127,2,137,3549.79424160067,None,3549.79424160067,None,6,1.9966580998152494,3549.79424160067,None,3551.836273900233,None,3552.357601100579,None,3552.357601100579,None,f,0.6174146998673677,3552.357601100579,None,,,color 28,001,2022_Feb_17_1550,ProdSingRedo,3.2.3,60.03359458009395,
,,,,128,0,128,0,,,,,,,,,,,,,,,,,,,,,,,,3555.9547709999606,None,,,,,,,,,,,,,,,,,medicine,new_silent,yellow,128,173,186,3553.5279705002904,None,3553.5279705002904,None,6,1.5748281003907323,3553.5279705002904,None,3555.1500931000337,None,3555.674293300137,None,3555.674293300137,None,f,0.24460139963775873,3555.674293300137,None,,,color 28,001,2022_Feb_17_1550,ProdSingRedo,3.2.3,60.03359458009395,
,,,,129,0,129,0,,,,,,,,,,,,,,,,,,,,,,,,3558.8528359998018,None,,,,,,,,,,,,,,,,,reading,new_sing,red,129,116,254,3556.4847010998055,None,3556.4847010998055,None,3,1.2662881994619966,3556.4847010998055,None,3557.802750300616,None,3558.325063000433,None,3558.325063000433,None,n,0.48991999961435795,3558.325063000433,None,,,color 28,001,2022_Feb_17_1550,ProdSingRedo,3.2.3,60.03359458009395,
,,,,130,0,130,0,,,,,,,,,,,,,,,,,,,,,,,,3562.2708694003522,None,,,,,,,,,,,,,,,,,article,new_aloud,blue,130,127,11,3559.381714100018,None,3559.381714100018,None,5,1.769187199883163,3559.381714100018,None,3561.1966118998826,None,3561.7070890003815,None,3561.7070890003815,None,f,0.5317358002066612,3561.7070890003815,None,,,color 28,001,2022_Feb_17_1550,ProdSingRedo,3.2.3,60.03359458009395,
,,,,131,0,131,0,,,,,,,,,,,,,,,,,,,,,,,,3566.1018262999132,None,,,,,,,,,,,,,,,,,meeting,aloud,blue,131,36,187,3562.799183600582,None,3562.799183600582,None,6,1.1283752005547285,3562.799183600582,None,3563.9962442005053,None,3564.494952400215,None,3564.494952400215,None,r,1.5758710000663996,3564.494952400215,None,,,color 28,001,2022_Feb_17_1550,ProdSingRedo,3.2.3,60.03359458009395,
,,,,132,0,132,0,,,,,,,,,,,,,,,,,,,,,,,,3568.9392629005015,None,,,,,,,,,,,,,,,,,sight,aloud,blue,132,56,286,3566.630275500007,None,3566.630275500007,None,6,1.1362409004941583,3566.630275500007,None,3567.803353600204,None,3568.322645300068,None,3568.322645300068,None,r,0.5887136003002524,3568.322645300068,None,,,color 28,001,2022_Feb_17_1550,ProdSingRedo,3.2.3,60.03359458009395,
,,,,133,0,133,0,,,,,,,,,,,,,,,,,,,,,,,,3572.8726313002408,None,,,,,,,,,,,,,,,,,angle,silent,yellow,133,74,7,3569.469238500111,None,3569.469238500111,None,5,1.385670700110495,3569.469238500111,None,3570.9054556004703,None,3571.4234103001654,None,3571.4234103001654,None,f,1.4154388001188636,3571.4234103001654,None,,,color 28,001,2022_Feb_17_1550,ProdSingRedo,3.2.3,60.03359458009395,
,,,,134,0,134,0,,,,,,,,,,,,,,,,,,,,,,,,3577.372109000571,None,,,,,,,,,,,,,,,,,defeat,aloud,blue,134,58,88,3573.4021220002323,None,3573.4021220002323,None,6,2.828635700047016,3573.4021220002323,None,3576.2744660004973,None,3576.7916761003435,None,3576.7916761003435,None,f,0.5511342994868755,3576.7916761003435,None,,,color 28,001,2022_Feb_17_1550,ProdSingRedo,3.2.3,60.03359458009395,
,,,,135,0,135,0,,,,,,,,,,,,,,,,,,,,,,,,3588.3549448000267,None,,,,,,,,,,,,,,,,,sleep,new_silent,yellow,135,151,290,3577.885352600366,None,3577.885352600366,None,3,9.073533600196242,3577.885352600366,None,3586.9970348998904,None,3587.5059436000884,None,3587.5059436000884,None,n,0.812784899957478,3587.5059436000884,None,,,color 28,001,2022_Feb_17_1550,ProdSingRedo,3.2.3,60.03359458009395,
,,,,136,0,136,0,,,,,,,,,,,,,,,,,,,,,,,,3592.925158000551,None,,,,,,,,,,,,,,,,,employment,silent,yellow,136,65,111,3588.8854514006525,None,3588.8854514006525,None,3,1.7533599995076656,3588.8854514006525,None,3590.6857845000923,None,3591.2103450000286,None,3591.2103450000286,None,n,1.685545900836587,3591.2103450000286,None,,,color 28,001,2022_Feb_17_1550,ProdSingRedo,3.2.3,60.03359458009395,
,,,,137,0,137,0,,,,,,,,,,,,,,,,,,,,,,,,3596.4740647003055,None,,,,,,,,,,,,,,,,,bicycle,silent,yellow,137,73,21,3593.451965600252,None,3593.451965600252,None,5,1.8988526994362473,3593.451965600252,None,3595.40877140034,None,3595.928767800331,None,3595.928767800331,None,f,0.5184347005560994,3595.928767800331,None,,,color 28,001,2022_Feb_17_1550,ProdSingRedo,3.2.3,60.03359458009395,
,,,,138,0,138,0,,,,,,,,,,,,,,,,,,,,,,,,3599.0262558003888,None,,,,,,,,,,,,,,,,,department,new_sing,red,138,91,90,3597.0012206006795,None,3597.0012206006795,None,5,1.0215027993544936,3597.0012206006795,None,3598.0679230000824,None,3598.59565810021,None,3598.59565810021,None,f,0.403006199747324,3598.59565810021,None,,,color 28,001,2022_Feb_17_1550,ProdSingRedo,3.2.3,60.03359458009395,
,,,,139,0,139,0,,,,,,,,,,,,,,,,,,,,,,,,3601.258662399836,None,,,,,,,,,,,,,,,,,guide,new_aloud,blue,139,135,147,3599.548174000345,None,3599.548174000345,None,5,1.050793600268662,3599.548174000345,None,3600.638158100657,None,3601.157623500563,None,3601.157623500563,None,f,0.06511199939996004,3601.157623500563,None,,,color 28,001,2022_Feb_17_1550,ProdSingRedo,3.2.3,60.03359458009395,
,,,,140,0,140,0,,,,,,,,,,,,,,,,,,,,,,,,3603.5903075002134,None,,,,,,,,,,,,,,,,,column,new_silent,yellow,140,163,57,3601.7669660001993,None,3601.7669660001993,None,5,0.9678809000179172,3601.7669660001993,None,3602.789302499965,None,3603.309609199874,None,3603.309609199874,None,f,0.24909139983356,3603.309609199874,None,,,color 28,001,2022_Feb_17_1550,ProdSingRedo,3.2.3,60.03359458009395,
,,,,141,0,141,0,,,,,,,,,,,,,,,,,,,,,,,,3605.9794391002506,None,,,,,,,,,,,,,,,,,school,silent,yellow,141,60,274,3604.1131824003533,None,3604.1131824003533,None,5,0.9337909994646907,3604.1131824003533,None,3605.0857797004282,None,3605.6045376006514,None,3605.6045376006514,None,f,0.3382168998941779,3605.6045376006514,None,,,color 28,001,2022_Feb_17_1550,ProdSingRedo,3.2.3,60.03359458009395,
,,,,142,0,142,0,,,,,,,,,,,,,,,,,,,,,,,,3609.490814000368,None,,,,,,,,,,,,,,,,,bitter,aloud,blue,142,39,23,3606.4961032997817,None,3606.4961032997817,None,6,1.0627012997865677,3606.4961032997817,None,3607.607280100696,None,3608.124271400273,None,3608.124271400273,None,r,1.3391510006040335,3608.124271400273,None,,,color 28,001,2022_Feb_17_1550,ProdSingRedo,3.2.3,60.03359458009395,
,,,,143,0,143,0,,,,,,,,,,,,,,,,,,,,,,,,3613.1078182999045,None,,,,,,,,,,,,,,,,,charter,sing,red,143,22,47,3610.017349000089,None,3610.017349000089,None,5,1.173573799431324,3610.017349000089,None,3611.2398659000173,None,3611.7679601004347,None,3611.7679601004347,None,f,1.3028602004051208,3611.7679601004347,None,,,color 28,001,2022_Feb_17_1550,ProdSingRedo,3.2.3,60.03359458009395,
,,,,144,0,144,0,,,,,,,,,,,,,,,,,,,,,,,,3615.962994299829,None,,,,,,,,,,,,,,,,,property,new_sing,red,144,95,242,3613.6315505001694,None,3613.6315505001694,None,6,1.2630617003887892,3613.6315505001694,None,3614.9279861999676,None,3615.4430448003113,None,3615.4430448003113,None,f,0.48367669992148876,3615.4430448003113,None,,,color 28,001,2022_Feb_17_1550,ProdSingRedo,3.2.3,60.03359458009395,
,,,,145,0,145,0,,,,,,,,,,,,,,,,,,,,,,,,3618.774808600545,None,,,,,,,,,,,,,,,,,thing,sing,red,145,27,328,3616.482248700224,None,3616.482248700224,None,5,1.524494600482285,3616.482248700224,None,3618.055778400041,None,3618.5754243005067,None,3618.5754243005067,None,f,0.16736119985580444,3618.5754243005067,None,,,color 28,001,2022_Feb_17_1550,ProdSingRedo,3.2.3,60.03359458009395,
,,,,146,0,146,0,,,,,,,,,,,,,,,,,,,,,,,,3623.308546300046,None,,,,,,,,,,,,,,,,,material,silent,yellow,146,83,182,3619.3027747999877,None,3619.3027747999877,None,3,1.3601708998903632,3619.3027747999877,None,3620.6902149999514,None,3621.214500600472,None,3621.214500600472,None,n,2.0642167003825307,3621.214500600472,None,,,color 28,001,2022_Feb_17_1550,ProdSingRedo,3.2.3,60.03359458009395,
,,,,147,0,147,0,,,,,,,,,,,,,,,,,,,,,,,,3626.058222300373,None,,,,,,,,,,,,,,,,,scene,aloud,blue,147,57,273,3623.8296149000525,None,3623.8296149000525,None,6,1.1768070999532938,3623.8296149000525,None,3625.0420666001737,None,3625.5489444006234,None,3625.5489444006234,None,f,0.47367219999432564,3625.5489444006234,None,,,color 28,001,2022_Feb_17_1550,ProdSingRedo,3.2.3,60.03359458009395,
,,,,148,0,148,0,,,,,,,,,,,,,,,,,,,,,,,,3631.0945680998266,None,,,,,,,,,,,,,,,,,couch,new_aloud,blue,148,147,70,3626.5979212000966,None,3626.5979212000966,None,2,1.9288515001535416,3626.5979212000966,None,3628.578895700164,None,3629.103492300026,None,3629.103492300026,None,n,1.959264099597931,3629.103492300026,None,,,color 28,001,2022_Feb_17_1550,ProdSingRedo,3.2.3,60.03359458009395,
,,,,149,0,149,0,,,,,,,,,,,,,,,,,,,,,,,,3635.0268815001473,None,,,,,,,,,,,,,,,,,military,aloud,blue,149,51,190,3631.6077896999195,None,3631.6077896999195,None,6,1.8791799005120993,3631.6077896999195,None,3633.5472651999444,None,3634.0626546004787,None,3634.0626546004787,None,f,0.928023399785161,3634.0626546004787,None,,,color 28,001,2022_Feb_17_1550,ProdSingRedo,3.2.3,60.03359458009395,
,,,,150,0,150,0,,,,,,,,,,,,,,,,,,,,,,,,3639.162069500424,None,,,,,,,,,,,,,,,,,burden,new_aloud,blue,150,124,36,3635.5512516004965,None,3635.5512516004965,None,2,2.055913799442351,3635.5512516004965,None,3637.6577476002276,None,3638.177012500353,None,3638.177012500353,None,n,0.9576533995568752,3638.177012500353,None,,,color 28,001,2022_Feb_17_1550,ProdSingRedo,3.2.3,60.03359458009395,
,,,,151,0,151,0,,,,,,,,,,,,,,,,,,,,,,,,3641.546544100158,None,,,,,,,,,,,,,,,,,raise,new_sing,red,151,100,250,3639.686933800578,None,3639.686933800578,None,3,1.215803399682045,3639.686933800578,None,3640.945535100065,None,3641.4660934004933,None,3641.4660934004933,None,n,0.036778099834918976,3641.4660934004933,None,,,color 28,001,2022_Feb_17_1550,ProdSingRedo,3.2.3,60.03359458009395,
,,,,152,0,152,0,,,,,,,,,,,,,,,,,,,,,,,,3644.9354261998087,None,,,,,,,,,,,,,,,,,empty,silent,yellow,152,84,112,3642.070997300558,None,3642.070997300558,None,5,1.2797328997403383,3642.070997300558,None,3643.390298500657,None,3643.9102958999574,None,3643.9102958999574,None,f,0.9922705003991723,3643.9102958999574,None,,,color 28,001,2022_Feb_17_1550,ProdSingRedo,3.2.3,60.03359458009395,
,,,,153,0,153,0,,,,,,,,,,,,,,,,,,,,,,,,3647.1102654002607,None,,,,,,,,,,,,,,,,,smell,aloud,blue,153,43,291,3645.44787919987,None,3645.44787919987,None,6,0.9107868000864983,3645.44787919987,None,3646.404649700038,None,3646.9248478002846,None,3646.9248478002846,None,f,0.15391150023788214,3646.9248478002846,None,,,color 28,001,2022_Feb_17_1550,ProdSingRedo,3.2.3,60.03359458009395,
,,,,154,0,154,0,,,,,,,,,,,,,,,,,,,,,,,,3649.494088199921,None,,,,,,,,,,,,,,,,,season,aloud,blue,154,44,277,3647.6367065999657,None,3647.6367065999657,None,6,0.9539894992485642,3647.6367065999657,None,3648.6407158998773,None,3649.1626858003438,None,3649.1626858003438,None,f,0.2919687991961837,3649.1626858003438,None,,,color 28,001,2022_Feb_17_1550,ProdSingRedo,3.2.3,60.03359458009395,
,,,,155,0,155,0,,,,,,,,,,,,,,,,,,,,,,,,3652.811042100191,None,,,,,,,,,,,,,,,,,running,aloud,blue,155,55,268,3650.0204508006573,None,3650.0204508006573,None,2,1.546824200078845,3650.0204508006573,None,3651.6097006006166,None,3652.1272491002455,None,3652.1272491002455,None,n,0.6473705004900694,3652.1272491002455,None,,,color 28,001,2022_Feb_17_1550,ProdSingRedo,3.2.3,60.03359458009395,
,,,,156,0,156,0,,,,,,,,,,,,,,,,,,,,,,,,3655.611263600178,None,,,,,,,,,,,,,,,,,accident,new_sing,red,156,113,0,3653.338272199966,None,3653.338272199966,None,5,1.1244317004457116,3653.338272199966,None,3654.5095974002033,None,3655.029787200503,None,3655.029787200503,None,f,0.5533083006739616,3655.029787200503,None,,,color 28,001,2022_Feb_17_1550,ProdSingRedo,3.2.3,60.03359458009395,
,,,,157,0,157,0,,,,,,,,,,,,,,,,,,,,,,,,3658.160448600538,None,,,,,,,,,,,,,,,,,heavy,new_silent,yellow,157,165,151,3656.137313200161,None,3656.137313200161,None,6,1.1652154996991158,3656.137313200161,None,3657.3422213001177,None,3657.863893300295,None,3657.863893300295,None,f,0.26291940081864595,3657.863893300295,None,,,color 28,001,2022_Feb_17_1550,ProdSingRedo,3.2.3,60.03359458009395,
,,,,158,0,158,0,,,,,,,,,,,,,,,,,,,,,,,,3660.82881740015,None,,,,,,,,,,,,,,,,,birth,silent,yellow,158,89,22,3658.684546600096,None,3658.684546600096,None,6,1.194111400283873,3658.684546600096,None,3659.922541799955,None,3660.4438295001164,None,3660.4438295001164,None,f,0.35499830078333616,3660.4438295001164,None,,,color 28,001,2022_Feb_17_1550,ProdSingRedo,3.2.3,60.03359458009395,
,,,,159,0,159,0,,,,,,,,,,,,,,,,,,,,,,,,3663.384455100633,None,,,,,,,,,,,,,,,,,permit,new_aloud,blue,159,128,218,3661.350232100114,None,3661.350232100114,None,6,1.280443500727415,3661.350232100114,None,3662.6739619001746,None,3663.192238200456,None,3663.192238200456,None,f,0.15885759983211756,3663.192238200456,None,,,color 28,001,2022_Feb_17_1550,ProdSingRedo,3.2.3,60.03359458009395,
,,,,160,0,160,0,,,,,,,,,,,,,,,,,,,,,,,,3668.147167100571,None,,,,,,,,,,,,,,,,,republic,new_sing,red,160,117,260,3663.904100799933,None,3663.904100799933,None,6,2.702786900103092,3663.904100799933,None,3666.6611713999882,None,3667.1813625004143,None,3667.1813625004143,None,r,0.9293026998639107,3667.1813625004143,None,,,color 28,001,2022_Feb_17_1550,ProdSingRedo,3.2.3,60.03359458009395,
,,,,161,0,161,0,,,,,,,,,,,,,,,,,,,,,,,,3673.711430599913,None,,,,,,,,,,,,,,,,,write,new_silent,yellow,161,156,358,3668.6702567003667,None,3668.6702567003667,None,1,3.680778500624001,3668.6702567003667,None,3672.3945777006447,None,3672.910742800683,None,3672.910742800683,None,n,0.7760493997484446,3672.910742800683,None,,,color 28,001,2022_Feb_17_1550,ProdSingRedo,3.2.3,60.03359458009395,
,,,,162,0,162,0,,,,,,,,,,,,,,,,,,,,,,,,3676.462946000509,None,,,,,,,,,,,,,,,,,comfort,aloud,blue,162,32,59,3674.237770699896,None,3674.237770699896,None,6,1.2248929999768734,3674.237770699896,None,3675.5126435998827,None,3676.0302340006456,None,3676.0302340006456,None,f,0.4005538998171687,3676.0302340006456,None,,,color 28,001,2022_Feb_17_1550,ProdSingRedo,3.2.3,60.03359458009395,
,,,,163,0,163,0,,,,,,,,,,,,,,,,,,,,,,,,3680.346272500232,None,,,,,,,,,,,,,,,,,strength,new_sing,red,163,97,310,3676.9886035006493,None,3676.9886035006493,None,6,2.354412700049579,3676.9886035006493,None,3679.396551100537,None,3679.914767600596,None,3679.914767600596,None,f,0.40410960000008345,3679.914767600596,None,,,color 28,001,2022_Feb_17_1550,ProdSingRedo,3.2.3,60.03359458009395,
,,,,164,0,164,0,,,,,,,,,,,,,,,,,,,,,,,,3682.881986800581,None,,,,,,,,,,,,,,,,,audience,sing,red,164,24,14,3680.8717737998813,None,3680.8717737998813,None,6,0.990739899687469,3680.8717737998813,None,3681.9102341001853,None,3682.4312954004854,None,3682.4312954004854,None,f,0.4154505003243685,3682.4312954004854,None,,,color 28,001,2022_Feb_17_1550,ProdSingRedo,3.2.3,60.03359458009395,
,,,,165,0,165,0,,,,,,,,,,,,,,,,,,,,,,,,3685.347672900185,None,,,,,,,,,,,,,,,,,portion,sing,red,165,6,228,3683.403384299949,None,3683.403384299949,None,6,1.0113901998847723,3683.403384299949,None,3684.45799870044,None,3684.9777349000797,None,3684.9777349000797,None,f,0.34128279983997345,3684.9777349000797,None,,,color 28,001,2022_Feb_17_1550,ProdSingRedo,3.2.3,60.03359458009395,
,,,,166,0,166,0,,,,,,,,,,,,,,,,,,,,,,,,3688.8957994999364,None,,,,,,,,,,,,,,,,,expansion,new_sing,red,166,118,123,3685.8749350002035,None,3685.8749350002035,None,2,2.027459400705993,3685.8749350002035,None,3687.9223632998765,None,3688.438083600253,None,3688.438083600253,None,n,0.42480240017175674,3688.438083600253,None,,,color 28,001,2022_Feb_17_1550,ProdSingRedo,3.2.3,60.03359458009395,
,,,,167,0,167,0,,,,,,,,,,,,,,,,,,,,,,,,3691.485363200307,None,,,,,,,,,,,,,,,,,society,aloud,blue,167,53,293,3689.423735300079,None,3689.423735300079,None,6,1.022877000272274,3689.423735300079,None,3690.4925338998437,None,3691.0151933003217,None,3691.0151933003217,None,f,0.4315796000882983,3691.0151933003217,None,,,color 28,001,2022_Feb_17_1550,ProdSingRedo,3.2.3,60.03359458009395,
,,,,168,0,168,0,,,,,,,,,,,,,,,,,,,,,,,,3697.264982100576,None,,,,,,,,,,,,,,,,,territory,new_silent,yellow,168,172,324,3691.9904848998412,None,3691.9904848998412,None,5,4.479973699897528,3691.9904848998412,None,3696.4954436998814,None,3697.0217642001808,None,3697.0217642001808,None,f,0.21689360029995441,3697.0217642001808,None,,,color 28,001,2022_Feb_17_1550,ProdSingRedo,3.2.3,60.03359458009395,
,,,,169,0,169,0,,,,,,,,,,,,,,,,,,,,,,,,3699.7975689005107,None,,,,,,,,,,,,,,,,,capital,new_silent,yellow,169,167,40,3697.792901100591,None,3697.792901100591,None,6,1.0136297000572085,3697.792901100591,None,3698.8530615000054,None,3699.3692578999326,None,3699.3692578999326,None,r,0.3974240003153682,3699.3692578999326,None,,,color 28,001,2022_Feb_17_1550,ProdSingRedo,3.2.3,60.03359458009395,
,,,,170,0,170,0,,,,,,,,,,,,,,,,,,,,,,,,3702.431942000054,None,,,,,,,,,,,,,,,,,impact,new_silent,yellow,170,174,157,3700.3229434005916,None,3700.3229434005916,None,2,1.3641121005639434,3700.3229434005916,None,3701.7312719002366,None,3702.2497626999393,None,3702.2497626999393,None,n,0.1408231994137168,3702.2497626999393,None,,,color 28,001,2022_Feb_17_1550,ProdSingRedo,3.2.3,60.03359458009395,
,,,,171,0,171,0,,,,,,,,,,,,,,,,,,,,,,,,3705.9490109998733,None,,,,,,,,,,,,,,,,,store,new_silent,yellow,171,176,305,3702.9518431006,None,3702.9518431006,None,2,1.3827547002583742,3702.9518431006,None,3704.375752300024,None,3704.895391399972,None,3704.895391399972,None,f,1.0237747998908162,3704.895391399972,None,,,color 28,001,2022_Feb_17_1550,ProdSingRedo,3.2.3,60.03359458009395,
,,,,172,0,172,0,,,,,,,,,,,,,,,,,,,,,,,,3709.466300200671,None,,,,,,,,,,,,,,,,,testimony,silent,yellow,172,66,325,3706.4766375003383,None,3706.4766375003383,None,2,1.1621009996160865,3706.4766375003383,None,3707.6802360005677,None,3708.2003734000027,None,3708.2003734000027,None,n,1.2383459992706776,3708.2003734000027,None,,,color 28,001,2022_Feb_17_1550,ProdSingRedo,3.2.3,60.03359458009395,
,,,,173,0,173,0,,,,,,,,,,,,,,,,,,,,,,,,3714.224071100354,None,,,,,,,,,,,,,,,,,history,new_silent,yellow,173,177,153,3709.9916714001447,None,3709.9916714001447,None,2,3.1909951996058226,3709.9916714001447,None,3713.2287298999727,None,3713.7484988002107,None,3713.7484988002107,None,n,0.43408449925482273,3713.7484988002107,None,,,color 28,001,2022_Feb_17_1550,ProdSingRedo,3.2.3,60.03359458009395,
,,,,174,0,174,0,,,,,,,,,,,,,,,,,,,,,,,,3718.580481399782,None,,,,,,,,,,,,,,,,,display,sing,red,174,16,98,3714.7584461998194,None,3714.7584461998194,None,2,1.2241567000746727,3714.7584461998194,None,3716.034349200316,None,3716.5519531005993,None,3716.5519531005993,None,n,1.9905901001766324,3716.5519531005993,None,,,color 28,001,2022_Feb_17_1550,ProdSingRedo,3.2.3,60.03359458009395,
,,,,175,0,175,0,,,,,,,,,,,,,,,,,,,,,,,,3720.931793800555,None,,,,,,,,,,,,,,,,,mayor,new_aloud,blue,175,126,183,3719.1109429998323,None,3719.1109429998323,None,6,0.9997519999742508,3719.1109429998323,None,3720.1643702005967,None,3720.6861080005765,None,3720.6861080005765,None,f,0.21699339989572763,3720.6861080005765,None,,,color 28,001,2022_Feb_17_1550,ProdSingRedo,3.2.3,60.03359458009395,
,,,,176,0,176,0,,,,,,,,,,,,,,,,,,,,,,,,3724.3316440004855,None,,,,,,,,,,,,,,,,,quarter,new_sing,red,176,112,246,3721.4602532004938,None,3721.4602532004938,None,5,2.2265448002144694,3721.4602532004938,None,3723.725355600007,None,3724.253597400151,None,3724.253597400151,None,f,0.04904509987682104,3724.253597400151,None,,,color 28,001,2022_Feb_17_1550,ProdSingRedo,3.2.3,60.03359458009395,
,,,,177,0,177,0,,,,,,,,,,,,,,,,,,,,,,,,3726.4006738997996,None,,,,,,,,,,,,,,,,,range,silent,yellow,177,81,251,3724.85879749991,None,3724.85879749991,None,5,0.8838267996907234,3724.85879749991,None,3725.801338300109,None,3726.318873899989,None,3726.318873899989,None,f,0.05571519955992699,3726.318873899989,None,,,color 28,001,2022_Feb_17_1550,ProdSingRedo,3.2.3,60.03359458009395,
,,,,178,0,178,0,,,,,,,,,,,,,,,,,,,,,,,,3728.9741751998663,None,,,,,,,,,,,,,,,,,appeal,silent,yellow,178,78,9,3726.927711199969,None,3726.927711199969,None,3,1.4308993993327022,3726.927711199969,None,3728.421138400212,None,3728.9400206999853,None,3728.9400206999853,None,n,0.010389300063252449,3728.9400206999853,None,,,color 28,001,2022_Feb_17_1550,ProdSingRedo,3.2.3,60.03359458009395,
,,,,179,0,179,0,,,,,,,,,,,,,,,,,,,,,,,,3733.582495899871,None,,,,,,,,,,,,,,,,,staff,new_sing,red,179,109,301,3729.492070400156,None,3729.492070400156,None,3,2.4904576996341348,3729.492070400156,None,3732.032633599825,None,3732.549745400436,None,3732.549745400436,None,n,1.0008248006924987,3732.549745400436,None,,,color 28,001,2022_Feb_17_1550,ProdSingRedo,3.2.3,60.03359458009395,
,,,,,,,,,,,,,,,,,,,,,,,,,,,,,,,,,,,,,,,,,,,,,,,,,,,,,,,,,,,,,,,,,,,,,,,,,3734.0910288998857,None,,,,,,,
