StudyLoop.thisRepN,StudyLoop.thisTrialN,StudyLoop.thisN,StudyLoop.thisIndex,TestLoop.thisRepN,TestLoop.thisTrialN,TestLoop.thisN,TestLoop.thisIndex,textCondition.started,textCondition.stopped,keyCondition.keys,keyCondition.rt,keyCondition.started,keyCondition.stopped,Condition,stim_colors,color_sing,color_aloud,color_silent,textWelcome.started,textWelcome.stopped,keyWelcome.keys,keyWelcome.rt,keyWelcome.started,keyWelcome.stopped,textAloud.started,textAloud.stopped,textSilent.started,textSilent.stopped,textSing.started,textSing.stopped,textBlank500.started,textBlank500.stopped,study_word,study_type,study_color,study_num,study_word_num,textStudy.started,textStudy.stopped,keyStudy.keys,keyStudy.started,keyStudy.stopped,textTestInstructions.started,textTestInstructions.stopped,key_resp_3.keys,key_resp_3.rt,key_resp_3.started,key_resp_3.stopped,testWord,testType,testColor,testN,test_num,test_word_num,textConf.started,textConf.stopped,textConfScale.started,textConfScale.stopped,keyConf.keys,keyConf.rt,keyConf.started,keyConf.stopped,textTestBlank.started,textTestBlank.stopped,textRKN.started,textRKN.stopped,textRKNScale.started,textRKNScale.stopped,keyRKN.keys,keyRKN.rt,keyRKN.started,keyRKN.stopped,textEnd.started,textEnd.stopped,participant,session,date,expName,psychopyVersion,frameRate,
,,,,,,,,175.59348989999853,None,y,1.6817834000103176,175.59348989999853,None,,,,,,,,,,,,,,,,,,,,,,,,,,,,,,,,,,,,,,,,,,,,,,,,,,,,,,,,,,,,,,Color_50,001,2022_May_03_1555,ProdSingRedo,3.2.3,59.94729438409275,
,,,,,,,,,,,,,,ColoredTest,"['blue', 'yellow', 'red']",blue,yellow,red,177.3495733998716,None,space,164.97375160013326,177.3495733998716,None,,,,,,,,,,,,,,,,,,,,,,,,,,,,,,,,,,,,,,,,,,,,,,,,,,,Color_50,001,2022_May_03_1555,ProdSingRedo,3.2.3,59.94729438409275,
0,0,0,0,,,,,,,,,,,,,,,,,,,,,,177.3495733998716,None,177.3495733998716,None,177.3495733998716,None,344.87631829991005,None,candidate,sing,blue,19,39,342.86803680006415,None,None,342.86803680006415,None,,,,,,,,,,,,,,,,,,,,,,,,,,,,,,,,,Color_50,001,2022_May_03_1555,ProdSingRedo,3.2.3,59.94729438409275,
1,0,1,0,,,,,,,,,,,,,,,,,,,,,,,,,,,,347.39052159991115,None,shear,sing,blue,5,283,345.38609230006114,None,None,345.38609230006114,None,,,,,,,,,,,,,,,,,,,,,,,,,,,,,,,,,Color_50,001,2022_May_03_1555,ProdSingRedo,3.2.3,59.94729438409275,
2,0,2,0,,,,,,,,,,,,,,,,,,,,,,,,,,,,349.90739519987255,None,resistance,silent,red,80,262,347.90754759986885,None,None,347.90754759986885,None,,,,,,,,,,,,,,,,,,,,,,,,,,,,,,,,,Color_50,001,2022_May_03_1555,ProdSingRedo,3.2.3,59.94729438409275,
3,0,3,0,,,,,,,,,,,,,,,,,,,,,,,,,,,,352.4243441000581,None,interview,silent,red,87,165,350.42989280004986,None,None,350.42989280004986,None,,,,,,,,,,,,,,,,,,,,,,,,,,,,,,,,,Color_50,001,2022_May_03_1555,ProdSingRedo,3.2.3,59.94729438409275,
4,0,4,0,,,,,,,,,,,,,,,,,,,,,,,,,,,,354.94141229987144,None,color,sing,blue,17,56,352.9355343999341,None,None,352.9355343999341,None,,,,,,,,,,,,,,,,,,,,,,,,,,,,,,,,,Color_50,001,2022_May_03_1555,ProdSingRedo,3.2.3,59.94729438409275,
5,0,5,0,,,,,,,,,,,,,,,,,,,,,,,,,,,,357.4579234998673,None,orchestra,aloud,yellow,55,206,355.4548702999018,None,None,355.4548702999018,None,,,,,,,,,,,,,,,,,,,,,,,,,,,,,,,,,Color_50,001,2022_May_03_1555,ProdSingRedo,3.2.3,59.94729438409275,
6,0,6,0,,,,,,,,,,,,,,,,,,,,,,,,,,,,359.9747251998633,None,budget,sing,blue,22,34,357.97636829991825,None,None,357.97636829991825,None,,,,,,,,,,,,,,,,,,,,,,,,,,,,,,,,,Color_50,001,2022_May_03_1555,ProdSingRedo,3.2.3,59.94729438409275,
7,0,7,0,,,,,,,,,,,,,,,,,,,,,,,,,,,,362.49163419986144,None,balance,aloud,yellow,38,17,360.49609929998405,None,None,360.49609929998405,None,,,,,,,,,,,,,,,,,,,,,,,,,,,,,,,,,Color_50,001,2022_May_03_1555,ProdSingRedo,3.2.3,59.94729438409275,
8,0,8,0,,,,,,,,,,,,,,,,,,,,,,,,,,,,365.0083888999652,None,straight,aloud,yellow,34,307,363.0107050999068,None,None,363.0107050999068,None,,,,,,,,,,,,,,,,,,,,,,,,,,,,,,,,,Color_50,001,2022_May_03_1555,ProdSingRedo,3.2.3,59.94729438409275,
9,0,9,0,,,,,,,,,,,,,,,,,,,,,,,,,,,,367.52524759992957,None,provision,sing,blue,1,243,365.5261679000687,None,None,365.5261679000687,None,,,,,,,,,,,,,,,,,,,,,,,,,,,,,,,,,Color_50,001,2022_May_03_1555,ProdSingRedo,3.2.3,59.94729438409275,
10,0,10,0,,,,,,,,,,,,,,,,,,,,,,,,,,,,370.04211460007355,None,school,sing,blue,2,274,368.03538900008425,None,None,368.03538900008425,None,,,,,,,,,,,,,,,,,,,,,,,,,,,,,,,,,Color_50,001,2022_May_03_1555,ProdSingRedo,3.2.3,59.94729438409275,
11,0,11,0,,,,,,,,,,,,,,,,,,,,,,,,,,,,372.5582862000447,None,minute,aloud,yellow,43,192,370.5528563000262,None,None,370.5528563000262,None,,,,,,,,,,,,,,,,,,,,,,,,,,,,,,,,,Color_50,001,2022_May_03_1555,ProdSingRedo,3.2.3,59.94729438409275,
12,0,12,0,,,,,,,,,,,,,,,,,,,,,,,,,,,,375.0757156999316,None,threat,silent,red,75,329,373.0746758999303,None,None,373.0746758999303,None,,,,,,,,,,,,,,,,,,,,,,,,,,,,,,,,,Color_50,001,2022_May_03_1555,ProdSingRedo,3.2.3,59.94729438409275,
13,0,13,0,,,,,,,,,,,,,,,,,,,,,,,,,,,,377.5759602000471,None,space,silent,red,82,297,375.57435450004414,None,None,375.57435450004414,None,,,,,,,,,,,,,,,,,,,,,,,,,,,,,,,,,Color_50,001,2022_May_03_1555,ProdSingRedo,3.2.3,59.94729438409275,
14,0,14,0,,,,,,,,,,,,,,,,,,,,,,,,,,,,380.0929445999209,None,voice,aloud,yellow,59,348,378.0900840999093,None,None,378.0900840999093,None,,,,,,,,,,,,,,,,,,,,,,,,,,,,,,,,,Color_50,001,2022_May_03_1555,ProdSingRedo,3.2.3,59.94729438409275,
15,0,15,0,,,,,,,,,,,,,,,,,,,,,,,,,,,,382.60957019985653,None,mayor,sing,blue,11,183,380.6076398000587,None,None,380.6076398000587,None,,,,,,,,,,,,,,,,,,,,,,,,,,,,,,,,,Color_50,001,2022_May_03_1555,ProdSingRedo,3.2.3,59.94729438409275,
16,0,16,0,,,,,,,,,,,,,,,,,,,,,,,,,,,,385.1264432000462,None,music,silent,red,89,196,383.12549820006825,None,None,383.12549820006825,None,,,,,,,,,,,,,,,,,,,,,,,,,,,,,,,,,Color_50,001,2022_May_03_1555,ProdSingRedo,3.2.3,59.94729438409275,
17,0,17,0,,,,,,,,,,,,,,,,,,,,,,,,,,,,387.6450044999365,None,author,sing,blue,16,15,385.6395378999878,None,None,385.6395378999878,None,,,,,,,,,,,,,,,,,,,,,,,,,,,,,,,,,Color_50,001,2022_May_03_1555,ProdSingRedo,3.2.3,59.94729438409275,
18,0,18,0,,,,,,,,,,,,,,,,,,,,,,,,,,,,390.1601456999779,None,question,aloud,yellow,58,247,388.1647133999504,None,None,388.1647133999504,None,,,,,,,,,,,,,,,,,,,,,,,,,,,,,,,,,Color_50,001,2022_May_03_1555,ProdSingRedo,3.2.3,59.94729438409275,
19,0,19,0,,,,,,,,,,,,,,,,,,,,,,,,,,,,392.676913500065,None,block,silent,red,72,25,390.68055439996533,None,None,390.68055439996533,None,,,,,,,,,,,,,,,,,,,,,,,,,,,,,,,,,Color_50,001,2022_May_03_1555,ProdSingRedo,3.2.3,59.94729438409275,
20,0,20,0,,,,,,,,,,,,,,,,,,,,,,,,,,,,395.19360890006647,None,leader,silent,red,71,168,393.1892377000768,None,None,393.1892377000768,None,,,,,,,,,,,,,,,,,,,,,,,,,,,,,,,,,Color_50,001,2022_May_03_1555,ProdSingRedo,3.2.3,59.94729438409275,
21,0,21,0,,,,,,,,,,,,,,,,,,,,,,,,,,,,397.71067170007154,None,sight,aloud,yellow,56,286,395.7065624999814,None,None,395.7065624999814,None,,,,,,,,,,,,,,,,,,,,,,,,,,,,,,,,,Color_50,001,2022_May_03_1555,ProdSingRedo,3.2.3,59.94729438409275,
22,0,22,0,,,,,,,,,,,,,,,,,,,,,,,,,,,,400.22795039997436,None,alert,aloud,yellow,30,6,398.2230108000804,None,None,398.2230108000804,None,,,,,,,,,,,,,,,,,,,,,,,,,,,,,,,,,Color_50,001,2022_May_03_1555,ProdSingRedo,3.2.3,59.94729438409275,
23,0,23,0,,,,,,,,,,,,,,,,,,,,,,,,,,,,402.74441369995475,None,curve,sing,blue,8,82,400.74310839991085,None,None,400.74310839991085,None,,,,,,,,,,,,,,,,,,,,,,,,,,,,,,,,,Color_50,001,2022_May_03_1555,ProdSingRedo,3.2.3,59.94729438409275,
24,0,24,0,,,,,,,,,,,,,,,,,,,,,,,,,,,,405.26107100001536,None,crime,aloud,yellow,48,78,403.25373880006373,None,None,403.25373880006373,None,,,,,,,,,,,,,,,,,,,,,,,,,,,,,,,,,Color_50,001,2022_May_03_1555,ProdSingRedo,3.2.3,59.94729438409275,
25,0,25,0,,,,,,,,,,,,,,,,,,,,,,,,,,,,407.7620810000226,None,election,sing,blue,25,109,405.76073920005,None,None,405.76073920005,None,,,,,,,,,,,,,,,,,,,,,,,,,,,,,,,,,Color_50,001,2022_May_03_1555,ProdSingRedo,3.2.3,59.94729438409275,
26,0,26,0,,,,,,,,,,,,,,,,,,,,,,,,,,,,410.2782117999159,None,population,sing,blue,14,227,408.28461949992925,None,None,408.28461949992925,None,,,,,,,,,,,,,,,,,,,,,,,,,,,,,,,,,Color_50,001,2022_May_03_1555,ProdSingRedo,3.2.3,59.94729438409275,
27,0,27,0,,,,,,,,,,,,,,,,,,,,,,,,,,,,412.7949419999495,None,degree,sing,blue,4,89,410.7912939998787,None,None,410.7912939998787,None,,,,,,,,,,,,,,,,,,,,,,,,,,,,,,,,,Color_50,001,2022_May_03_1555,ProdSingRedo,3.2.3,59.94729438409275,
28,0,28,0,,,,,,,,,,,,,,,,,,,,,,,,,,,,415.31396639999,None,force,aloud,yellow,57,131,413.30631239991635,None,None,413.30631239991635,None,,,,,,,,,,,,,,,,,,,,,,,,,,,,,,,,,Color_50,001,2022_May_03_1555,ProdSingRedo,3.2.3,59.94729438409275,
29,0,29,0,,,,,,,,,,,,,,,,,,,,,,,,,,,,417.82875510002486,None,direction,silent,red,74,94,415.8220196000766,None,None,415.8220196000766,None,,,,,,,,,,,,,,,,,,,,,,,,,,,,,,,,,Color_50,001,2022_May_03_1555,ProdSingRedo,3.2.3,59.94729438409275,
30,0,30,0,,,,,,,,,,,,,,,,,,,,,,,,,,,,420.3454736000858,None,hunger,silent,red,66,155,418.346224399982,None,None,418.346224399982,None,,,,,,,,,,,,,,,,,,,,,,,,,,,,,,,,,Color_50,001,2022_May_03_1555,ProdSingRedo,3.2.3,59.94729438409275,
31,0,31,0,,,,,,,,,,,,,,,,,,,,,,,,,,,,422.8624328998849,None,trend,aloud,yellow,41,340,420.85466989991255,None,None,420.85466989991255,None,,,,,,,,,,,,,,,,,,,,,,,,,,,,,,,,,Color_50,001,2022_May_03_1555,ProdSingRedo,3.2.3,59.94729438409275,
32,0,32,0,,,,,,,,,,,,,,,,,,,,,,,,,,,,425.3794482999947,None,marriage,sing,blue,26,179,423.37671729992144,None,None,423.37671729992144,None,,,,,,,,,,,,,,,,,,,,,,,,,,,,,,,,,Color_50,001,2022_May_03_1555,ProdSingRedo,3.2.3,59.94729438409275,
33,0,33,0,,,,,,,,,,,,,,,,,,,,,,,,,,,,427.8959417999722,None,couch,silent,red,67,70,425.893461199943,None,None,425.893461199943,None,,,,,,,,,,,,,,,,,,,,,,,,,,,,,,,,,Color_50,001,2022_May_03_1555,ProdSingRedo,3.2.3,59.94729438409275,
34,0,34,0,,,,,,,,,,,,,,,,,,,,,,,,,,,,430.41145160002634,None,spoke,aloud,yellow,33,300,428.4085969000589,None,None,428.4085969000589,None,,,,,,,,,,,,,,,,,,,,,,,,,,,,,,,,,Color_50,001,2022_May_03_1555,ProdSingRedo,3.2.3,59.94729438409275,
35,0,35,0,,,,,,,,,,,,,,,,,,,,,,,,,,,,432.9319086999167,None,thing,silent,red,84,328,430.92553579993546,None,None,430.92553579993546,None,,,,,,,,,,,,,,,,,,,,,,,,,,,,,,,,,Color_50,001,2022_May_03_1555,ProdSingRedo,3.2.3,59.94729438409275,
36,0,36,0,,,,,,,,,,,,,,,,,,,,,,,,,,,,435.4455669999588,None,people,sing,blue,12,216,433.44923490006477,None,None,433.44923490006477,None,,,,,,,,,,,,,,,,,,,,,,,,,,,,,,,,,Color_50,001,2022_May_03_1555,ProdSingRedo,3.2.3,59.94729438409275,
37,0,37,0,,,,,,,,,,,,,,,,,,,,,,,,,,,,437.9633031000849,None,review,aloud,yellow,47,263,435.94793089991435,None,None,435.94793089991435,None,,,,,,,,,,,,,,,,,,,,,,,,,,,,,,,,,Color_50,001,2022_May_03_1555,ProdSingRedo,3.2.3,59.94729438409275,
38,0,38,0,,,,,,,,,,,,,,,,,,,,,,,,,,,,440.48040209989995,None,guard,silent,red,65,145,438.47601310000755,None,None,438.47601310000755,None,,,,,,,,,,,,,,,,,,,,,,,,,,,,,,,,,Color_50,001,2022_May_03_1555,ProdSingRedo,3.2.3,59.94729438409275,
39,0,39,0,,,,,,,,,,,,,,,,,,,,,,,,,,,,442.99692309997045,None,appeal,silent,red,69,9,440.99487089994363,None,None,440.99487089994363,None,,,,,,,,,,,,,,,,,,,,,,,,,,,,,,,,,Color_50,001,2022_May_03_1555,ProdSingRedo,3.2.3,59.94729438409275,
40,0,40,0,,,,,,,,,,,,,,,,,,,,,,,,,,,,445.51486220001243,None,public,sing,blue,3,244,443.5128490999341,None,None,443.5128490999341,None,,,,,,,,,,,,,,,,,,,,,,,,,,,,,,,,,Color_50,001,2022_May_03_1555,ProdSingRedo,3.2.3,59.94729438409275,
41,0,41,0,,,,,,,,,,,,,,,,,,,,,,,,,,,,448.03075619996525,None,account,sing,blue,18,1,446.02939280006103,None,None,446.02939280006103,None,,,,,,,,,,,,,,,,,,,,,,,,,,,,,,,,,Color_50,001,2022_May_03_1555,ProdSingRedo,3.2.3,59.94729438409275,
42,0,42,0,,,,,,,,,,,,,,,,,,,,,,,,,,,,450.5475172000006,None,equipment,aloud,yellow,54,116,448.544961999869,None,None,448.544961999869,None,,,,,,,,,,,,,,,,,,,,,,,,,,,,,,,,,Color_50,001,2022_May_03_1555,ProdSingRedo,3.2.3,59.94729438409275,
43,0,43,0,,,,,,,,,,,,,,,,,,,,,,,,,,,,453.06432959996164,None,tough,aloud,yellow,31,333,451.0610964000225,None,None,451.0610964000225,None,,,,,,,,,,,,,,,,,,,,,,,,,,,,,,,,,Color_50,001,2022_May_03_1555,ProdSingRedo,3.2.3,59.94729438409275,
44,0,44,0,,,,,,,,,,,,,,,,,,,,,,,,,,,,455.5812373999506,None,front,silent,red,60,134,453.5785145999398,None,None,453.5785145999398,None,,,,,,,,,,,,,,,,,,,,,,,,,,,,,,,,,Color_50,001,2022_May_03_1555,ProdSingRedo,3.2.3,59.94729438409275,
45,0,45,0,,,,,,,,,,,,,,,,,,,,,,,,,,,,458.09794880007394,None,profession,aloud,yellow,50,241,456.0986746000126,None,None,456.0986746000126,None,,,,,,,,,,,,,,,,,,,,,,,,,,,,,,,,,Color_50,001,2022_May_03_1555,ProdSingRedo,3.2.3,59.94729438409275,
46,0,46,0,,,,,,,,,,,,,,,,,,,,,,,,,,,,460.615443599876,None,territory,sing,blue,10,324,458.6123190000653,None,None,458.6123190000653,None,,,,,,,,,,,,,,,,,,,,,,,,,,,,,,,,,Color_50,001,2022_May_03_1555,ProdSingRedo,3.2.3,59.94729438409275,
47,0,47,0,,,,,,,,,,,,,,,,,,,,,,,,,,,,463.1316925000865,None,drove,silent,red,88,106,461.12781969993375,None,None,461.12781969993375,None,,,,,,,,,,,,,,,,,,,,,,,,,,,,,,,,,Color_50,001,2022_May_03_1555,ProdSingRedo,3.2.3,59.94729438409275,
48,0,48,0,,,,,,,,,,,,,,,,,,,,,,,,,,,,465.6471158999484,None,science,silent,red,68,275,463.64168150001206,None,None,463.64168150001206,None,,,,,,,,,,,,,,,,,,,,,,,,,,,,,,,,,Color_50,001,2022_May_03_1555,ProdSingRedo,3.2.3,59.94729438409275,
49,0,49,0,,,,,,,,,,,,,,,,,,,,,,,,,,,,468.1500452000182,None,angle,aloud,yellow,32,7,466.1496939000208,None,None,466.1496939000208,None,,,,,,,,,,,,,,,,,,,,,,,,,,,,,,,,,Color_50,001,2022_May_03_1555,ProdSingRedo,3.2.3,59.94729438409275,
50,0,50,0,,,,,,,,,,,,,,,,,,,,,,,,,,,,470.68216750002466,None,impact,aloud,yellow,45,157,468.6788886000868,None,None,468.6788886000868,None,,,,,,,,,,,,,,,,,,,,,,,,,,,,,,,,,Color_50,001,2022_May_03_1555,ProdSingRedo,3.2.3,59.94729438409275,
51,0,51,0,,,,,,,,,,,,,,,,,,,,,,,,,,,,473.1992709999904,None,working,sing,blue,9,357,471.2013236999046,None,None,471.2013236999046,None,,,,,,,,,,,,,,,,,,,,,,,,,,,,,,,,,Color_50,001,2022_May_03_1555,ProdSingRedo,3.2.3,59.94729438409275,
52,0,52,0,,,,,,,,,,,,,,,,,,,,,,,,,,,,475.71584030007944,None,place,silent,red,85,222,473.7133925999515,None,None,473.7133925999515,None,,,,,,,,,,,,,,,,,,,,,,,,,,,,,,,,,Color_50,001,2022_May_03_1555,ProdSingRedo,3.2.3,59.94729438409275,
53,0,53,0,,,,,,,,,,,,,,,,,,,,,,,,,,,,478.2314142000396,None,short,aloud,yellow,49,285,476.2255645999685,None,None,476.2255645999685,None,,,,,,,,,,,,,,,,,,,,,,,,,,,,,,,,,Color_50,001,2022_May_03_1555,ProdSingRedo,3.2.3,59.94729438409275,
54,0,54,0,,,,,,,,,,,,,,,,,,,,,,,,,,,,480.7496126999613,None,month,aloud,yellow,36,193,478.74126529996283,None,None,478.74126529996283,None,,,,,,,,,,,,,,,,,,,,,,,,,,,,,,,,,Color_50,001,2022_May_03_1555,ProdSingRedo,3.2.3,59.94729438409275,
55,0,55,0,,,,,,,,,,,,,,,,,,,,,,,,,,,,483.2663590000011,None,general,sing,blue,6,135,481.2674046999309,None,None,481.2674046999309,None,,,,,,,,,,,,,,,,,,,,,,,,,,,,,,,,,Color_50,001,2022_May_03_1555,ProdSingRedo,3.2.3,59.94729438409275,
56,0,56,0,,,,,,,,,,,,,,,,,,,,,,,,,,,,485.7832957999781,None,solution,silent,red,83,294,483.78311070008203,None,None,483.78311070008203,None,,,,,,,,,,,,,,,,,,,,,,,,,,,,,,,,,Color_50,001,2022_May_03_1555,ProdSingRedo,3.2.3,59.94729438409275,
57,0,57,0,,,,,,,,,,,,,,,,,,,,,,,,,,,,488.3001434998587,None,express,sing,blue,0,124,486.2918519999366,None,None,486.2918519999366,None,,,,,,,,,,,,,,,,,,,,,,,,,,,,,,,,,Color_50,001,2022_May_03_1555,ProdSingRedo,3.2.3,59.94729438409275,
58,0,58,0,,,,,,,,,,,,,,,,,,,,,,,,,,,,490.81798739987426,None,drink,silent,red,77,105,488.81144349998794,None,None,488.81144349998794,None,,,,,,,,,,,,,,,,,,,,,,,,,,,,,,,,,Color_50,001,2022_May_03_1555,ProdSingRedo,3.2.3,59.94729438409275,
59,0,59,0,,,,,,,,,,,,,,,,,,,,,,,,,,,,493.3337636999786,None,quiet,sing,blue,28,249,491.3337137999479,None,None,491.3337137999479,None,,,,,,,,,,,,,,,,,,,,,,,,,,,,,,,,,Color_50,001,2022_May_03_1555,ProdSingRedo,3.2.3,59.94729438409275,
60,0,60,0,,,,,,,,,,,,,,,,,,,,,,,,,,,,495.8495519000571,None,signal,aloud,yellow,35,287,493.8365712999366,None,None,493.8365712999366,None,,,,,,,,,,,,,,,,,,,,,,,,,,,,,,,,,Color_50,001,2022_May_03_1555,ProdSingRedo,3.2.3,59.94729438409275,
61,0,61,0,,,,,,,,,,,,,,,,,,,,,,,,,,,,498.36737190000713,None,research,aloud,yellow,40,261,496.3562606999185,None,None,496.3562606999185,None,,,,,,,,,,,,,,,,,,,,,,,,,,,,,,,,,Color_50,001,2022_May_03_1555,ProdSingRedo,3.2.3,59.94729438409275,
62,0,62,0,,,,,,,,,,,,,,,,,,,,,,,,,,,,500.8843102999963,None,subject,silent,red,79,312,498.8862884999253,None,None,498.8862884999253,None,,,,,,,,,,,,,,,,,,,,,,,,,,,,,,,,,Color_50,001,2022_May_03_1555,ProdSingRedo,3.2.3,59.94729438409275,
63,0,63,0,,,,,,,,,,,,,,,,,,,,,,,,,,,,503.4011132000014,None,platform,sing,blue,21,224,501.40018399991095,None,None,501.40018399991095,None,,,,,,,,,,,,,,,,,,,,,,,,,,,,,,,,,Color_50,001,2022_May_03_1555,ProdSingRedo,3.2.3,59.94729438409275,
64,0,64,0,,,,,,,,,,,,,,,,,,,,,,,,,,,,505.918133799918,None,search,aloud,yellow,44,276,503.9136619998608,None,None,503.9136619998608,None,,,,,,,,,,,,,,,,,,,,,,,,,,,,,,,,,Color_50,001,2022_May_03_1555,ProdSingRedo,3.2.3,59.94729438409275,
65,0,65,0,,,,,,,,,,,,,,,,,,,,,,,,,,,,508.43484800006263,None,notice,sing,blue,15,201,506.42856599995866,None,None,506.42856599995866,None,,,,,,,,,,,,,,,,,,,,,,,,,,,,,,,,,Color_50,001,2022_May_03_1555,ProdSingRedo,3.2.3,59.94729438409275,
66,0,66,0,,,,,,,,,,,,,,,,,,,,,,,,,,,,510.95153840002604,None,death,sing,blue,24,86,508.94733399990946,None,None,508.94733399990946,None,,,,,,,,,,,,,,,,,,,,,,,,,,,,,,,,,Color_50,001,2022_May_03_1555,ProdSingRedo,3.2.3,59.94729438409275,
67,0,67,0,,,,,,,,,,,,,,,,,,,,,,,,,,,,513.4684174999129,None,message,silent,red,62,189,511.46475819987245,None,None,511.46475819987245,None,,,,,,,,,,,,,,,,,,,,,,,,,,,,,,,,,Color_50,001,2022_May_03_1555,ProdSingRedo,3.2.3,59.94729438409275,
68,0,68,0,,,,,,,,,,,,,,,,,,,,,,,,,,,,515.9852326998953,None,passage,silent,red,76,212,513.9848154999781,None,None,513.9848154999781,None,,,,,,,,,,,,,,,,,,,,,,,,,,,,,,,,,Color_50,001,2022_May_03_1555,ProdSingRedo,3.2.3,59.94729438409275,
69,0,69,0,,,,,,,,,,,,,,,,,,,,,,,,,,,,518.5020530999172,None,answer,silent,red,73,8,516.503625900019,None,None,516.503625900019,None,,,,,,,,,,,,,,,,,,,,,,,,,,,,,,,,,Color_50,001,2022_May_03_1555,ProdSingRedo,3.2.3,59.94729438409275,
70,0,70,0,,,,,,,,,,,,,,,,,,,,,,,,,,,,521.0189435998909,None,ground,aloud,yellow,42,142,519.019980999874,None,None,519.019980999874,None,,,,,,,,,,,,,,,,,,,,,,,,,,,,,,,,,Color_50,001,2022_May_03_1555,ProdSingRedo,3.2.3,59.94729438409275,
71,0,71,0,,,,,,,,,,,,,,,,,,,,,,,,,,,,523.5357395000756,None,plane,silent,red,78,223,521.5314112999476,None,None,521.5314112999476,None,,,,,,,,,,,,,,,,,,,,,,,,,,,,,,,,,Color_50,001,2022_May_03_1555,ProdSingRedo,3.2.3,59.94729438409275,
72,0,72,0,,,,,,,,,,,,,,,,,,,,,,,,,,,,526.0512623998802,None,clean,silent,red,63,51,524.0480551000219,None,None,524.0480551000219,None,,,,,,,,,,,,,,,,,,,,,,,,,,,,,,,,,Color_50,001,2022_May_03_1555,ProdSingRedo,3.2.3,59.94729438409275,
73,0,73,0,,,,,,,,,,,,,,,,,,,,,,,,,,,,528.5694311000407,None,contract,sing,blue,13,68,526.5669104000553,None,None,526.5669104000553,None,,,,,,,,,,,,,,,,,,,,,,,,,,,,,,,,,Color_50,001,2022_May_03_1555,ProdSingRedo,3.2.3,59.94729438409275,
74,0,74,0,,,,,,,,,,,,,,,,,,,,,,,,,,,,531.0863423999399,None,level,sing,blue,27,170,529.0831321000587,None,None,529.0831321000587,None,,,,,,,,,,,,,,,,,,,,,,,,,,,,,,,,,Color_50,001,2022_May_03_1555,ProdSingRedo,3.2.3,59.94729438409275,
75,0,75,0,,,,,,,,,,,,,,,,,,,,,,,,,,,,533.6030576999765,None,pretty,silent,red,70,233,531.6031197998673,None,None,531.6031197998673,None,,,,,,,,,,,,,,,,,,,,,,,,,,,,,,,,,Color_50,001,2022_May_03_1555,ProdSingRedo,3.2.3,59.94729438409275,
76,0,76,0,,,,,,,,,,,,,,,,,,,,,,,,,,,,536.1189307998866,None,series,aloud,yellow,37,279,534.1117018999066,None,None,534.1117018999066,None,,,,,,,,,,,,,,,,,,,,,,,,,,,,,,,,,Color_50,001,2022_May_03_1555,ProdSingRedo,3.2.3,59.94729438409275,
77,0,77,0,,,,,,,,,,,,,,,,,,,,,,,,,,,,538.6370604999829,None,foundation,aloud,yellow,53,132,536.6399892999325,None,None,536.6399892999325,None,,,,,,,,,,,,,,,,,,,,,,,,,,,,,,,,,Color_50,001,2022_May_03_1555,ProdSingRedo,3.2.3,59.94729438409275,
78,0,78,0,,,,,,,,,,,,,,,,,,,,,,,,,,,,541.1536455999594,None,employment,silent,red,61,111,539.138493000064,None,None,539.138493000064,None,,,,,,,,,,,,,,,,,,,,,,,,,,,,,,,,,Color_50,001,2022_May_03_1555,ProdSingRedo,3.2.3,59.94729438409275,
79,0,79,0,,,,,,,,,,,,,,,,,,,,,,,,,,,,543.6705374000594,None,discovery,sing,blue,20,95,541.6681268999819,None,None,541.6681268999819,None,,,,,,,,,,,,,,,,,,,,,,,,,,,,,,,,,Color_50,001,2022_May_03_1555,ProdSingRedo,3.2.3,59.94729438409275,
80,0,80,0,,,,,,,,,,,,,,,,,,,,,,,,,,,,546.1873469999991,None,testimony,aloud,yellow,39,325,544.1826567000244,None,None,544.1826567000244,None,,,,,,,,,,,,,,,,,,,,,,,,,,,,,,,,,Color_50,001,2022_May_03_1555,ProdSingRedo,3.2.3,59.94729438409275,
81,0,81,0,,,,,,,,,,,,,,,,,,,,,,,,,,,,548.7041557999328,None,mechanical,sing,blue,7,185,546.7081496000756,None,None,546.7081496000756,None,,,,,,,,,,,,,,,,,,,,,,,,,,,,,,,,,Color_50,001,2022_May_03_1555,ProdSingRedo,3.2.3,59.94729438409275,
82,0,82,0,,,,,,,,,,,,,,,,,,,,,,,,,,,,551.225236899918,None,victory,aloud,yellow,51,346,549.2190715000033,None,None,549.2190715000033,None,,,,,,,,,,,,,,,,,,,,,,,,,,,,,,,,,Color_50,001,2022_May_03_1555,ProdSingRedo,3.2.3,59.94729438409275,
83,0,83,0,,,,,,,,,,,,,,,,,,,,,,,,,,,,553.7380548999645,None,permit,silent,red,86,218,551.7308771999087,None,None,551.7308771999087,None,,,,,,,,,,,,,,,,,,,,,,,,,,,,,,,,,Color_50,001,2022_May_03_1555,ProdSingRedo,3.2.3,59.94729438409275,
84,0,84,0,,,,,,,,,,,,,,,,,,,,,,,,,,,,556.2530866998713,None,literature,aloud,yellow,52,173,554.2650896999985,None,None,554.2650896999985,None,,,,,,,,,,,,,,,,,,,,,,,,,,,,,,,,,Color_50,001,2022_May_03_1555,ProdSingRedo,3.2.3,59.94729438409275,
85,0,85,0,,,,,,,,,,,,,,,,,,,,,,,,,,,,558.7708890000358,None,power,aloud,yellow,46,230,556.7568741000723,None,None,556.7568741000723,None,,,,,,,,,,,,,,,,,,,,,,,,,,,,,,,,,Color_50,001,2022_May_03_1555,ProdSingRedo,3.2.3,59.94729438409275,
86,0,86,0,,,,,,,,,,,,,,,,,,,,,,,,,,,,561.2883836000692,None,listen,silent,red,64,172,559.2799895000644,None,None,559.2799895000644,None,,,,,,,,,,,,,,,,,,,,,,,,,,,,,,,,,Color_50,001,2022_May_03_1555,ProdSingRedo,3.2.3,59.94729438409275,
87,0,87,0,,,,,,,,,,,,,,,,,,,,,,,,,,,,563.8051668000408,None,colonel,sing,blue,23,55,561.7946746998932,None,None,561.7946746998932,None,,,,,,,,,,,,,,,,,,,,,,,,,,,,,,,,,Color_50,001,2022_May_03_1555,ProdSingRedo,3.2.3,59.94729438409275,
88,0,88,0,,,,,,,,,,,,,,,,,,,,,,,,,,,,566.3219518999103,None,chief,sing,blue,29,48,564.3166825999506,None,None,564.3166825999506,None,,,,,,,,,,,,,,,,,,,,,,,,,,,,,,,,,Color_50,001,2022_May_03_1555,ProdSingRedo,3.2.3,59.94729438409275,
89,0,89,0,,,,,,,,,,,,,,,,,,,,,,,,,,,,568.8387897999492,None,problem,silent,red,81,238,566.8375993999653,None,None,566.8375993999653,None,,,,,,,,,,,,,,,,,,,,,,,,,,,,,,,,,Color_50,001,2022_May_03_1555,ProdSingRedo,3.2.3,59.94729438409275,
,,,,,,,,,,,,,,,,,,,,,,,,,,,,,,,,,,,,,,,,,,,569.3387813000008,None,k,141.0406602998264,569.3387813000008,None,,,,,,,,,,,,,,,,,,,,,,,,,,,Color_50,001,2022_May_03_1555,ProdSingRedo,3.2.3,59.94729438409275,
,,,,0,0,0,0,,,,,,,,,,,,,,,,,,,,,,,,730.4603122000117,None,,,,,,,,,,,,,,,,,drove,silent,red,0,88,106,710.9192878999747,None,710.9192878999747,None,2,13.715975499944761,710.9192878999747,None,724.6931884000078,None,725.2135763000697,None,725.2135763000697,None,n,5.205678400117904,725.2135763000697,None,,,Color_50,001,2022_May_03_1555,ProdSingRedo,3.2.3,59.94729438409275,
,,,,1,0,1,0,,,,,,,,,,,,,,,,,,,,,,,,735.7841713000089,None,,,,,,,,,,,,,,,,,block,silent,red,1,72,25,730.9847001999151,None,730.9847001999151,None,1,3.2423534002155066,730.9847001999151,None,734.2686522000004,None,734.7935963000637,None,734.7935963000637,None,n,0.9610978001728654,734.7935963000637,None,,,Color_50,001,2022_May_03_1555,ProdSingRedo,3.2.3,59.94729438409275,
,,,,2,0,2,0,,,,,,,,,,,,,,,,,,,,,,,,743.1257619999815,None,,,,,,,,,,,,,,,,,literature,aloud,yellow,2,52,173,736.3023198998999,None,736.3023198998999,None,6,2.7886940999887884,736.3023198998999,None,739.1560408999212,None,739.666724700015,None,739.666724700015,None,f,3.4243322999682277,739.666724700015,None,,,Color_50,001,2022_May_03_1555,ProdSingRedo,3.2.3,59.94729438409275,
,,,,3,0,3,0,,,,,,,,,,,,,,,,,,,,,,,,751.7441563999746,None,,,,,,,,,,,,,,,,,republic,new_sing,blue,3,108,260,743.6538037999999,None,743.6538037999999,None,1,6.117222500033677,743.6538037999999,None,749.822176199872,None,750.3459953998681,None,750.3459953998681,None,n,1.3610207000747323,750.3459953998681,None,,,Color_50,001,2022_May_03_1555,ProdSingRedo,3.2.3,59.94729438409275,
,,,,4,0,4,0,,,,,,,,,,,,,,,,,,,,,,,,761.4291298000608,None,,,,,,,,,,,,,,,,,express,sing,blue,4,0,124,752.2640215000138,None,752.2640215000138,None,1,7.115077700000256,752.2640215000138,None,759.4221685999073,None,759.9434358999133,None,759.9434358999133,None,n,1.4516628999263048,759.9434358999133,None,,,Color_50,001,2022_May_03_1555,ProdSingRedo,3.2.3,59.94729438409275,
,,,,5,0,5,0,,,,,,,,,,,,,,,,,,,,,,,,765.9352535000071,None,,,,,,,,,,,,,,,,,period,new_sing,blue,5,111,217,761.951148699969,None,761.951148699969,None,1,3.348882600199431,761.951148699969,None,765.3411276000552,None,765.8510372000746,None,765.8510372000746,None,n,0.0640056999400258,765.8510372000746,None,,,Color_50,001,2022_May_03_1555,ProdSingRedo,3.2.3,59.94729438409275,
,,,,6,0,6,0,,,,,,,,,,,,,,,,,,,,,,,,769.72671060008,None,,,,,,,,,,,,,,,,,account,sing,blue,6,18,1,766.4491030999925,None,766.4491030999925,None,1,1.6821918000932783,766.4491030999925,None,768.1715714000165,None,768.6995914999861,None,768.6995914999861,None,n,0.9914217998739332,768.6995914999861,None,,,Color_50,001,2022_May_03_1555,ProdSingRedo,3.2.3,59.94729438409275,
,,,,7,0,7,0,,,,,,,,,,,,,,,,,,,,,,,,773.979679199867,None,,,,,,,,,,,,,,,,,machinery,new_aloud,yellow,7,148,175,770.2597508998588,None,770.2597508998588,None,1,2.4238821000326425,770.2597508998588,None,772.7262442999054,None,773.2516326999757,None,773.2516326999757,None,n,0.6954888000618666,773.2516326999757,None,,,Color_50,001,2022_May_03_1555,ProdSingRedo,3.2.3,59.94729438409275,
,,,,8,0,8,0,,,,,,,,,,,,,,,,,,,,,,,,779.8818043000065,None,,,,,,,,,,,,,,,,,degree,sing,blue,8,4,89,774.5059821999166,None,774.5059821999166,None,6,3.593024400062859,774.5059821999166,None,778.1444895998575,None,778.6625657000113,None,778.6625657000113,None,f,1.1889076000079513,778.6625657000113,None,,,Color_50,001,2022_May_03_1555,ProdSingRedo,3.2.3,59.94729438409275,
,,,,9,0,9,0,,,,,,,,,,,,,,,,,,,,,,,,789.4295063000172,None,,,,,,,,,,,,,,,,,smell,new_silent,red,9,171,291,780.3999286000617,None,780.3999286000617,None,1,6.475087000057101,780.3999286000617,None,786.9240029000212,None,787.4438880998641,None,787.4438880998641,None,n,1.959377999883145,787.4438880998641,None,,,Color_50,001,2022_May_03_1555,ProdSingRedo,3.2.3,59.94729438409275,
,,,,10,0,10,0,,,,,,,,,,,,,,,,,,,,,,,,794.1799284000881,None,,,,,,,,,,,,,,,,,place,silent,red,10,85,222,789.9550908000674,None,789.9550908000674,None,3,2.3839110999833792,789.9550908000674,None,792.3760110998992,None,792.8985923000146,None,792.8985923000146,None,n,1.2564781999681145,792.8985923000146,None,,,Color_50,001,2022_May_03_1555,ProdSingRedo,3.2.3,59.94729438409275,
,,,,11,0,11,0,,,,,,,,,,,,,,,,,,,,,,,,803.0366722000763,None,,,,,,,,,,,,,,,,,escape,new_sing,blue,11,104,118,794.7069119999651,None,794.7069119999651,None,1,5.976063299924135,794.7069119999651,None,800.728707500035,None,801.249393499922,None,801.249393499922,None,n,1.761376200011,801.249393499922,None,,,Color_50,001,2022_May_03_1555,ProdSingRedo,3.2.3,59.94729438409275,
,,,,12,0,12,0,,,,,,,,,,,,,,,,,,,,,,,,810.4376266000327,None,,,,,,,,,,,,,,,,,agreement,new_silent,red,12,175,5,803.554970700061,None,803.554970700061,None,4,4.344206399982795,803.554970700061,None,807.9436808000319,None,808.4741902998649,None,808.4741902998649,None,f,1.9366460000164807,808.4741902998649,None,,,Color_50,001,2022_May_03_1555,ProdSingRedo,3.2.3,59.94729438409275,
,,,,13,0,13,0,,,,,,,,,,,,,,,,,,,,,,,,818.1004234000575,None,,,,,,,,,,,,,,,,,question,aloud,yellow,13,58,247,810.9610749999993,None,810.9610749999993,None,5,5.289899799972773,810.9610749999993,None,816.3002829998732,None,816.8195803000126,None,816.8195803000126,None,f,1.2476174000184983,816.8195803000126,None,,,Color_50,001,2022_May_03_1555,ProdSingRedo,3.2.3,59.94729438409275,
,,,,14,0,14,0,,,,,,,,,,,,,,,,,,,,,,,,822.684177499963,None,,,,,,,,,,,,,,,,,dance,new_aloud,yellow,14,126,84,818.6218602999579,None,818.6218602999579,None,1,2.8532724000979215,818.6218602999579,None,821.5315791999456,None,822.0514747998677,None,822.0514747998677,None,n,0.5916055000852793,822.0514747998677,None,,,Color_50,001,2022_May_03_1555,ProdSingRedo,3.2.3,59.94729438409275,
,,,,15,0,15,0,,,,,,,,,,,,,,,,,,,,,,,,828.5501009998843,None,,,,,,,,,,,,,,,,,research,aloud,yellow,15,40,261,823.2071970999241,None,823.2071970999241,None,5,3.5967756998725235,823.2071970999241,None,826.8469894998707,None,827.3707272000611,None,827.3707272000611,None,f,1.1524628000333905,827.3707272000611,None,,,Color_50,001,2022_May_03_1555,ProdSingRedo,3.2.3,59.94729438409275,
,,,,16,0,16,0,,,,,,,,,,,,,,,,,,,,,,,,834.0823734998703,None,,,,,,,,,,,,,,,,,crime,aloud,yellow,16,48,78,829.0710954000242,None,829.0710954000242,None,6,3.1165063998196274,829.0710954000242,None,832.2272733000573,None,832.7502754000016,None,832.7502754000016,None,f,1.2928561998996884,832.7502754000016,None,,,Color_50,001,2022_May_03_1555,ProdSingRedo,3.2.3,59.94729438409275,
,,,,17,0,17,0,,,,,,,,,,,,,,,,,,,,,,,,840.2826747999061,None,,,,,,,,,,,,,,,,,alert,aloud,yellow,17,30,6,834.607146400027,None,834.607146400027,None,6,4.460121399955824,834.607146400027,None,839.1140300000552,None,839.6340860999189,None,839.6340860999189,None,r,0.6169648999348283,839.6340860999189,None,,,Color_50,001,2022_May_03_1555,ProdSingRedo,3.2.3,59.94729438409275,
,,,,18,0,18,0,,,,,,,,,,,,,,,,,,,,,,,,847.4162143000867,None,,,,,,,,,,,,,,,,,level,sing,blue,18,27,170,840.8087249000091,None,840.8087249000091,None,1,5.649977599969134,840.8087249000091,None,846.4817277998663,None,847.0002778999042,None,847.0002778999042,None,n,0.378786199958995,847.0002778999042,None,,,Color_50,001,2022_May_03_1555,ProdSingRedo,3.2.3,59.94729438409275,
,,,,19,0,19,0,,,,,,,,,,,,,,,,,,,,,,,,852.1849396000616,None,,,,,,,,,,,,,,,,,length,new_aloud,yellow,19,128,169,847.9381800999399,None,847.9381800999399,None,1,2.4487826998811215,847.9381800999399,None,850.4350662999786,None,850.9535649998579,None,850.9535649998579,None,n,1.1935814002063125,850.9535649998579,None,,,Color_50,001,2022_May_03_1555,ProdSingRedo,3.2.3,59.94729438409275,
,,,,20,0,20,0,,,,,,,,,,,,,,,,,,,,,,,,859.3678909998853,None,,,,,,,,,,,,,,,,,author,sing,blue,20,16,15,852.7051331999246,None,852.7051331999246,None,3,4.625928800087422,852.7051331999246,None,857.3893380998634,None,857.9004957000725,None,857.9004957000725,None,f,1.4305829000659287,857.9004957000725,None,,,Color_50,001,2022_May_03_1555,ProdSingRedo,3.2.3,59.94729438409275,
,,,,21,0,21,0,,,,,,,,,,,,,,,,,,,,,,,,866.4018647000194,None,,,,,,,,,,,,,,,,,death,sing,blue,21,24,86,859.8950030000415,None,859.8950030000415,None,1,4.707778099924326,859.8950030000415,None,864.6289943999145,None,865.1540806000121,None,865.1540806000121,None,n,1.2168299001641572,865.1540806000121,None,,,Color_50,001,2022_May_03_1555,ProdSingRedo,3.2.3,59.94729438409275,
,,,,22,0,22,0,,,,,,,,,,,,,,,,,,,,,,,,872.5089944000356,None,,,,,,,,,,,,,,,,,chief,sing,blue,22,29,48,866.9259560999926,None,866.9259560999926,None,6,3.4690987998619676,866.9259560999926,None,870.4493708000518,None,870.9731802998576,None,870.9731802998576,None,r,1.5027008999604732,870.9731802998576,None,,,Color_50,001,2022_May_03_1555,ProdSingRedo,3.2.3,59.94729438409275,
,,,,23,0,23,0,,,,,,,,,,,,,,,,,,,,,,,,878.183912999928,None,,,,,,,,,,,,,,,,,dozen,new_aloud,yellow,23,146,102,873.0352270998992,None,873.0352270998992,None,2,3.567808900028467,873.0352270998992,None,876.6462586000562,None,877.1707355000544,None,877.1707355000544,None,f,0.9762901999056339,877.1707355000544,None,,,Color_50,001,2022_May_03_1555,ProdSingRedo,3.2.3,59.94729438409275,
,,,,24,0,24,0,,,,,,,,,,,,,,,,,,,,,,,,884.0514114999678,None,,,,,,,,,,,,,,,,,carry,new_aloud,yellow,24,139,43,878.7121172000188,None,878.7121172000188,None,5,4.018920699832961,878.7121172000188,None,882.7857788000256,None,883.3080649999902,None,883.3080649999902,None,f,0.7190635001752526,883.3080649999902,None,,,Color_50,001,2022_May_03_1555,ProdSingRedo,3.2.3,59.94729438409275,
,,,,25,0,25,0,,,,,,,,,,,,,,,,,,,,,,,,892.752807599958,None,,,,,,,,,,,,,,,,,angle,aloud,yellow,25,32,7,884.5783279999159,None,884.5783279999159,None,6,6.560750300064683,884.5783279999159,None,891.1894811000675,None,891.7049336000346,None,891.7049336000346,None,f,1.0101065998896956,891.7049336000346,None,,,Color_50,001,2022_May_03_1555,ProdSingRedo,3.2.3,59.94729438409275,
,,,,26,0,26,0,,,,,,,,,,,,,,,,,,,,,,,,897.9388198999222,None,,,,,,,,,,,,,,,,,nature,new_aloud,yellow,26,127,200,893.2818660999183,None,893.2818660999183,None,6,2.9292686998378485,893.2818660999183,None,896.2558762999251,None,896.7636007999536,None,896.7636007999536,None,f,1.1354053998365998,896.7636007999536,None,,,Color_50,001,2022_May_03_1555,ProdSingRedo,3.2.3,59.94729438409275,
,,,,27,0,27,0,,,,,,,,,,,,,,,,,,,,,,,,903.9393877000548,None,,,,,,,,,,,,,,,,,oxygen,new_silent,red,27,179,209,898.4606979000382,None,898.4606979000382,None,4,3.5582790998741984,898.4606979000382,None,902.0720703999978,None,902.5916369999759,None,902.5916369999759,None,f,1.315294000087306,902.5916369999759,None,,,Color_50,001,2022_May_03_1555,ProdSingRedo,3.2.3,59.94729438409275,
,,,,28,0,28,0,,,,,,,,,,,,,,,,,,,,,,,,910.5881926000584,None,,,,,,,,,,,,,,,,,count,new_sing,blue,28,106,72,904.4629269998986,None,904.4629269998986,None,4,4.068086500046775,904.4629269998986,None,908.5852149000857,None,909.1079263000283,None,909.1079263000283,None,r,1.4391212998889387,909.1079263000283,None,,,Color_50,001,2022_May_03_1555,ProdSingRedo,3.2.3,59.94729438409275,
,,,,29,0,29,0,,,,,,,,,,,,,,,,,,,,,,,,917.5244958000258,None,,,,,,,,,,,,,,,,,throw,new_silent,red,29,166,330,911.1114968999755,None,911.1114968999755,None,3,3.835509299999103,911.1114968999755,None,914.9873110000044,None,915.495906899916,None,915.495906899916,None,f,1.9950218999292701,915.495906899916,None,,,Color_50,001,2022_May_03_1555,ProdSingRedo,3.2.3,59.94729438409275,
,,,,30,0,30,0,,,,,,,,,,,,,,,,,,,,,,,,923.1368382999208,None,,,,,,,,,,,,,,,,,month,aloud,yellow,30,36,193,918.0431049999315,None,918.0431049999315,None,5,3.8318621998187155,918.0431049999315,None,921.9170494000427,None,922.4406675999053,None,922.4406675999053,None,f,0.6582783998455852,922.4406675999053,None,,,Color_50,001,2022_May_03_1555,ProdSingRedo,3.2.3,59.94729438409275,
,,,,31,0,31,0,,,,,,,,,,,,,,,,,,,,,,,,927.908024400007,None,,,,,,,,,,,,,,,,,review,aloud,yellow,31,47,263,923.665336899925,None,923.665336899925,None,6,2.562482099980116,923.665336899925,None,926.2705415999517,None,926.7807541000657,None,926.7807541000657,None,f,1.0941938001196831,926.7807541000657,None,,,Color_50,001,2022_May_03_1555,ProdSingRedo,3.2.3,59.94729438409275,
,,,,32,0,32,0,,,,,,,,,,,,,,,,,,,,,,,,933.608315099962,None,,,,,,,,,,,,,,,,,present,new_sing,blue,32,92,231,928.4269419000484,None,928.4269419000484,None,6,4.168242700165138,928.4269419000484,None,932.633308700053,None,933.1469594000373,None,933.1469594000373,None,r,0.4240111999679357,933.1469594000373,None,,,Color_50,001,2022_May_03_1555,ProdSingRedo,3.2.3,59.94729438409275,
,,,,33,0,33,0,,,,,,,,,,,,,,,,,,,,,,,,941.3911633999087,None,,,,,,,,,,,,,,,,,notice,sing,blue,33,15,201,934.1285627998877,None,934.1285627998877,None,1,5.54653779999353,934.1285627998877,None,939.7159680000041,None,940.2368421999272,None,940.2368421999272,None,n,1.1181306999642402,940.2368421999272,None,,,Color_50,001,2022_May_03_1555,ProdSingRedo,3.2.3,59.94729438409275,
,,,,34,0,34,0,,,,,,,,,,,,,,,,,,,,,,,,949.5231037000194,None,,,,,,,,,,,,,,,,,equipment,aloud,yellow,34,54,116,941.9224018000532,None,941.9224018000532,None,6,5.5045512998476624,941.9224018000532,None,947.4723557999823,None,947.9976852999534,None,947.9976852999534,None,f,1.4854997000657022,947.9976852999534,None,,,Color_50,001,2022_May_03_1555,ProdSingRedo,3.2.3,59.94729438409275,
,,,,35,0,35,0,,,,,,,,,,,,,,,,,,,,,,,,953.1236646000762,None,,,,,,,,,,,,,,,,,beauty,new_aloud,yellow,35,147,18,950.0520061999559,None,950.0520061999559,None,1,2.1349014001898468,950.0520061999559,None,952.242963100085,None,952.7638949998654,None,952.7638949998654,None,n,0.33512990013696253,952.7638949998654,None,,,Color_50,001,2022_May_03_1555,ProdSingRedo,3.2.3,59.94729438409275,
,,,,36,0,36,0,,,,,,,,,,,,,,,,,,,,,,,,963.0428617999423,None,,,,,,,,,,,,,,,,,profession,aloud,yellow,36,50,241,953.650107699912,None,953.650107699912,None,2,7.608971899840981,953.650107699912,None,961.3103056000546,None,961.8285210998729,None,961.8285210998729,None,f,1.1824202998541296,961.8285210998729,None,,,Color_50,001,2022_May_03_1555,ProdSingRedo,3.2.3,59.94729438409275,
,,,,37,0,37,0,,,,,,,,,,,,,,,,,,,,,,,,968.0908391999546,None,,,,,,,,,,,,,,,,,subject,silent,red,37,79,312,963.5712244000752,None,963.5712244000752,None,6,3.1279581000562757,963.5712244000752,None,966.7369104998652,None,967.2631717999466,None,967.2631717999466,None,f,0.7958844997920096,967.2631717999466,None,,,Color_50,001,2022_May_03_1555,ProdSingRedo,3.2.3,59.94729438409275,
,,,,38,0,38,0,,,,,,,,,,,,,,,,,,,,,,,,975.6815344998613,None,,,,,,,,,,,,,,,,,point,new_silent,red,38,162,226,968.6125518998597,None,968.6125518998597,None,2,5.702516300138086,968.6125518998597,None,974.3507222000044,None,974.8732380999718,None,974.8732380999718,None,f,0.7853771999944001,974.8732380999718,None,,,Color_50,001,2022_May_03_1555,ProdSingRedo,3.2.3,59.94729438409275,
,,,,39,0,39,0,,,,,,,,,,,,,,,,,,,,,,,,979.125809899997,None,,,,,,,,,,,,,,,,,couch,silent,red,39,67,70,976.1817393999081,None,976.1817393999081,None,1,2.037307199789211,976.1817393999081,None,978.264361999929,None,978.7806728000287,None,978.7806728000287,None,n,0.310267899883911,978.7806728000287,None,,,Color_50,001,2022_May_03_1555,ProdSingRedo,3.2.3,59.94729438409275,
,,,,40,0,40,0,,,,,,,,,,,,,,,,,,,,,,,,985.07665250008,None,,,,,,,,,,,,,,,,,threat,silent,red,40,75,329,979.6525771000888,None,979.6525771000888,None,5,3.926342099905014,979.6525771000888,None,983.6235823000316,None,984.1463482000399,None,984.1463482000399,None,f,0.9044900999870151,984.1463482000399,None,,,Color_50,001,2022_May_03_1555,ProdSingRedo,3.2.3,59.94729438409275,
,,,,41,0,41,0,,,,,,,,,,,,,,,,,,,,,,,,989.593055699952,None,,,,,,,,,,,,,,,,,quiet,sing,blue,41,28,249,985.6028366000392,None,985.6028366000392,None,1,3.1285972998011857,985.6028366000392,None,988.7780490999576,None,989.2964927998837,None,989.2964927998837,None,n,0.2664425999391824,989.2964927998837,None,,,Color_50,001,2022_May_03_1555,ProdSingRedo,3.2.3,59.94729438409275,
,,,,42,0,42,0,,,,,,,,,,,,,,,,,,,,,,,,996.8478321000002,None,,,,,,,,,,,,,,,,,series,aloud,yellow,42,37,279,990.1140751999337,None,990.1140751999337,None,1,5.92892329976894,990.1140751999337,None,996.0881429999135,None,996.6082176000345,None,996.6082176000345,None,n,0.19459609990008175,996.6082176000345,None,,,Color_50,001,2022_May_03_1555,ProdSingRedo,3.2.3,59.94729438409275,
,,,,43,0,43,0,,,,,,,,,,,,,,,,,,,,,,,,1005.5856220999267,None,,,,,,,,,,,,,,,,,fight,new_aloud,yellow,43,125,127,997.3587468999904,None,997.3587468999904,None,5,6.860364499967545,997.3587468999904,None,1004.2605888999533,None,1004.7815222998615,None,1004.7815222998615,None,f,0.7811568998731673,1004.7815222998615,None,,,Color_50,001,2022_May_03_1555,ProdSingRedo,3.2.3,59.94729438409275,
,,,,44,0,44,0,,,,,,,,,,,,,,,,,,,,,,,,1008.628861400066,None,,,,,,,,,,,,,,,,,youth,new_aloud,yellow,44,149,359,1006.1004278999753,None,1006.1004278999753,None,1,1.7668542999308556,1006.1004278999753,None,1007.9128997998778,None,1008.4326720999088,None,1008.4326720999088,None,n,0.15445949998684227,1008.4326720999088,None,,,Color_50,001,2022_May_03_1555,ProdSingRedo,3.2.3,59.94729438409275,
,,,,45,0,45,0,,,,,,,,,,,,,,,,,,,,,,,,1015.9627805000637,None,,,,,,,,,,,,,,,,,general,sing,blue,45,6,135,1009.154542000033,None,1009.154542000033,None,6,5.720662999898195,1009.154542000033,None,1014.9431342000607,None,1015.4496710998937,None,1015.4496710998937,None,f,0.48128710011951625,1015.4496710998937,None,,,Color_50,001,2022_May_03_1555,ProdSingRedo,3.2.3,59.94729438409275,
,,,,46,0,46,0,,,,,,,,,,,,,,,,,,,,,,,,1022.4448046998587,None,,,,,,,,,,,,,,,,,public,sing,blue,46,3,244,1016.4915142999962,None,1016.4915142999962,None,4,5.311675499891862,1016.4915142999962,None,1021.8442436000332,None,1022.3672696000431,None,1022.3672696000431,None,f,0.0520130000077188,1022.3672696000431,None,,,Color_50,001,2022_May_03_1555,ProdSingRedo,3.2.3,59.94729438409275,
,,,,47,0,47,0,,,,,,,,,,,,,,,,,,,,,,,,1028.928314599907,None,,,,,,,,,,,,,,,,,instrument,new_aloud,yellow,47,124,163,1022.9728454998694,None,1022.9728454998694,None,3,4.822172099957243,1022.9728454998694,None,1027.845400399994,None,1028.3695117998868,None,1028.3695117998868,None,f,0.5294054001569748,1028.3695117998868,None,,,Color_50,001,2022_May_03_1555,ProdSingRedo,3.2.3,59.94729438409275,
,,,,48,0,48,0,,,,,,,,,,,,,,,,,,,,,,,,1036.003867899999,None,,,,,,,,,,,,,,,,,hunger,silent,red,48,66,155,1029.4574857000262,None,1029.4574857000262,None,6,3.553495000116527,1029.4574857000262,None,1033.0648425999098,None,1033.5854346998967,None,1033.5854346998967,None,f,2.3932344000786543,1033.5854346998967,None,,,Color_50,001,2022_May_03_1555,ProdSingRedo,3.2.3,59.94729438409275,
,,,,49,0,49,0,,,,,,,,,,,,,,,,,,,,,,,,1040.5471991000231,None,,,,,,,,,,,,,,,,,fashion,new_sing,blue,49,119,125,1036.5165391999763,None,1036.5165391999763,None,1,3.4064953001216054,1036.5165391999763,None,1039.978983100038,None,1040.5056630000472,None,1040.5056630000472,None,n,0.009325700113549829,1040.5056630000472,None,,,Color_50,001,2022_May_03_1555,ProdSingRedo,3.2.3,59.94729438409275,
,,,,50,0,50,0,,,,,,,,,,,,,,,,,,,,,,,,1046.4801286000293,None,,,,,,,,,,,,,,,,,color,sing,blue,50,17,56,1041.0682760998607,None,1041.0682760998607,None,1,4.230961199849844,1041.0682760998607,None,1045.3435790999793,None,1045.8610566998832,None,1045.8610566998832,None,n,0.5904676001518965,1045.8610566998832,None,,,Color_50,001,2022_May_03_1555,ProdSingRedo,3.2.3,59.94729438409275,
,,,,51,0,51,0,,,,,,,,,,,,,,,,,,,,,,,,1054.6497126999311,None,,,,,,,,,,,,,,,,,resistance,silent,red,51,80,262,1047.007489599986,None,1047.007489599986,None,3,5.9877033000811934,1047.007489599986,None,1053.0489854000043,None,1053.5681121998932,None,1053.5681121998932,None,f,1.0511737999040633,1053.5681121998932,None,,,Color_50,001,2022_May_03_1555,ProdSingRedo,3.2.3,59.94729438409275,
,,,,52,0,52,0,,,,,,,,,,,,,,,,,,,,,,,,1059.1309904998634,None,,,,,,,,,,,,,,,,,executive,new_sing,blue,52,109,122,1055.1774325999431,None,1055.1774325999431,None,1,2.9375137998722494,1055.1774325999431,None,1058.1669121999294,None,1058.684619500069,None,1058.684619500069,None,n,0.4064172999933362,1058.684619500069,None,,,Color_50,001,2022_May_03_1555,ProdSingRedo,3.2.3,59.94729438409275,
,,,,53,0,53,0,,,,,,,,,,,,,,,,,,,,,,,,1064.4978358000517,None,,,,,,,,,,,,,,,,,native,new_aloud,yellow,53,141,199,1059.6583662999328,None,1059.6583662999328,None,6,2.944999099941924,1059.6583662999328,None,1062.645732200006,None,1063.1707621000241,None,1063.1707621000241,None,r,1.2963217000942677,1063.1707621000241,None,,,Color_50,001,2022_May_03_1555,ProdSingRedo,3.2.3,59.94729438409275,
,,,,54,0,54,0,,,,,,,,,,,,,,,,,,,,,,,,1075.2833259999752,None,,,,,,,,,,,,,,,,,candidate,sing,blue,54,19,39,1065.0299831000157,None,1065.0299831000157,None,1,9.557338000042364,1065.0299831000157,None,1074.6344161999878,None,1075.1531660000328,None,1075.1531660000328,None,n,0.0978067999240011,1075.1531660000328,None,,,Color_50,001,2022_May_03_1555,ProdSingRedo,3.2.3,59.94729438409275,
,,,,55,0,55,0,,,,,,,,,,,,,,,,,,,,,,,,1082.233899399871,None,,,,,,,,,,,,,,,,,voice,aloud,yellow,55,59,348,1075.806125300005,None,1075.806125300005,None,2,5.036924100015312,1075.806125300005,None,1080.8968446999788,None,1081.4158596999478,None,1081.4158596999478,None,f,0.7871330000925809,1081.4158596999478,None,,,Color_50,001,2022_May_03_1555,ProdSingRedo,3.2.3,59.94729438409275,
,,,,56,0,56,0,,,,,,,,,,,,,,,,,,,,,,,,1088.0443853999022,None,,,,,,,,,,,,,,,,,space,silent,red,56,82,297,1082.7577893000562,None,1082.7577893000562,None,1,4.613860599929467,1082.7577893000562,None,1087.4150725000072,None,1087.9334257999435,None,1087.9334257999435,None,n,0.06958510004915297,1087.9334257999435,None,,,Color_50,001,2022_May_03_1555,ProdSingRedo,3.2.3,59.94729438409275,
,,,,57,0,57,0,,,,,,,,,,,,,,,,,,,,,,,,1090.2663157000206,None,,,,,,,,,,,,,,,,,murder,new_silent,red,57,169,195,1088.578415799886,None,1088.578415799886,None,1,1.0165577998850495,1088.578415799886,None,1089.6486353999935,None,1090.1703315998893,None,1090.1703315998893,None,n,0.05665550008416176,1090.1703315998893,None,,,Color_50,001,2022_May_03_1555,ProdSingRedo,3.2.3,59.94729438409275,
,,,,58,0,58,0,,,,,,,,,,,,,,,,,,,,,,,,1093.694641900016,None,,,,,,,,,,,,,,,,,guide,new_sing,blue,58,94,147,1090.7923625998665,None,1090.7923625998665,None,1,2.06664239987731,1090.7923625998665,None,1092.914365899982,None,1093.4372181000654,None,1093.4372181000654,None,n,0.2056923999916762,1093.4372181000654,None,,,Color_50,001,2022_May_03_1555,ProdSingRedo,3.2.3,59.94729438409275,
,,,,59,0,59,0,,,,,,,,,,,,,,,,,,,,,,,,1101.166212500073,None,,,,,,,,,,,,,,,,,tough,aloud,yellow,59,31,333,1094.2239514999092,None,1094.2239514999092,None,4,5.451257900102064,1094.2239514999092,None,1099.7203643999528,None,1100.2338737000246,None,1100.2338737000246,None,f,0.9053662000223994,1100.2338737000246,None,,,Color_50,001,2022_May_03_1555,ProdSingRedo,3.2.3,59.94729438409275,
,,,,60,0,60,0,,,,,,,,,,,,,,,,,,,,,,,,1107.7880285999272,None,,,,,,,,,,,,,,,,,conference,new_silent,red,60,177,66,1101.6936673999298,None,1101.6936673999298,None,2,4.373445000033826,1101.6936673999298,None,1106.1183541999198,None,1106.6381176998839,None,1106.6381176998839,None,n,1.1169865999836475,1106.6381176998839,None,,,Color_50,001,2022_May_03_1555,ProdSingRedo,3.2.3,59.94729438409275,
,,,,61,0,61,0,,,,,,,,,,,,,,,,,,,,,,,,1116.1516781998798,None,,,,,,,,,,,,,,,,,election,sing,blue,61,25,109,1108.3039829998743,None,1108.3039829998743,None,3,6.658996499842033,1108.3039829998743,None,1115.0137044999283,None,1115.53241720004,None,1115.53241720004,None,f,0.5827608001418412,1115.53241720004,None,,,Color_50,001,2022_May_03_1555,ProdSingRedo,3.2.3,59.94729438409275,
,,,,62,0,62,0,,,,,,,,,,,,,,,,,,,,,,,,1121.269931799965,None,,,,,,,,,,,,,,,,,science,silent,red,62,68,275,1116.6748182999436,None,1116.6748182999436,None,1,3.648738200077787,1116.6748182999436,None,1120.3627056998666,None,1120.8832787000574,None,1120.8832787000574,None,n,0.3519192999228835,1120.8832787000574,None,,,Color_50,001,2022_May_03_1555,ProdSingRedo,3.2.3,59.94729438409275,
,,,,63,0,63,0,,,,,,,,,,,,,,,,,,,,,,,,1125.3013118000235,None,,,,,,,,,,,,,,,,,guard,silent,red,63,65,145,1121.793092200067,None,1121.793092200067,None,6,2.489890299970284,1121.793092200067,None,1124.3333991998807,None,1124.8541707999539,None,1124.8541707999539,None,f,0.41279969993047416,1124.8541707999539,None,,,Color_50,001,2022_May_03_1555,ProdSingRedo,3.2.3,59.94729438409275,
,,,,64,0,64,0,,,,,,,,,,,,,,,,,,,,,,,,1131.9363563999068,None,,,,,,,,,,,,,,,,,patient,new_aloud,yellow,64,130,213,1125.8123234000523,None,1125.8123234000523,None,6,4.574681699974462,1125.8123234000523,None,1130.4417493999936,None,1130.9624475999735,None,1130.9624475999735,None,f,0.9366327000316232,1130.9624475999735,None,,,Color_50,001,2022_May_03_1555,ProdSingRedo,3.2.3,59.94729438409275,
,,,,65,0,65,0,,,,,,,,,,,,,,,,,,,,,,,,1142.51851850003,None,,,,,,,,,,,,,,,,,company,new_silent,red,65,168,64,1132.4586211999413,None,1132.4586211999413,None,4,9.168686299817637,1132.4586211999413,None,1141.6730412999168,None,1142.2018164999317,None,1142.2018164999317,None,f,0.2811276998836547,1142.2018164999317,None,,,Color_50,001,2022_May_03_1555,ProdSingRedo,3.2.3,59.94729438409275,
,,,,66,0,66,0,,,,,,,,,,,,,,,,,,,,,,,,1145.8704136998858,None,,,,,,,,,,,,,,,,,permit,silent,red,66,86,218,1143.0406446999405,None,1143.0406446999405,None,1,1.8584109998773783,1143.0406446999405,None,1144.9464926999062,None,1145.4702691999264,None,1145.4702691999264,None,n,0.3730040998198092,1145.4702691999264,None,,,Color_50,001,2022_May_03_1555,ProdSingRedo,3.2.3,59.94729438409275,
,,,,67,0,67,0,,,,,,,,,,,,,,,,,,,,,,,,1150.2711422999855,None,,,,,,,,,,,,,,,,,victory,aloud,yellow,67,51,346,1146.398630300071,None,1146.398630300071,None,1,1.9804835000541061,1146.398630300071,None,1148.4166091999505,None,1148.9424862999003,None,1148.9424862999003,None,n,1.2924655000679195,1148.9424862999003,None,,,Color_50,001,2022_May_03_1555,ProdSingRedo,3.2.3,59.94729438409275,
,,,,68,0,68,0,,,,,,,,,,,,,,,,,,,,,,,,1154.98690550006,None,,,,,,,,,,,,,,,,,message,silent,red,68,62,189,1150.7981024000328,None,1150.7981024000328,None,2,3.445134300040081,1150.7981024000328,None,1154.2882983998861,None,1154.8052256000228,None,1154.8052256000228,None,n,0.14197540003806353,1154.8052256000228,None,,,Color_50,001,2022_May_03_1555,ProdSingRedo,3.2.3,59.94729438409275,
,,,,69,0,69,0,,,,,,,,,,,,,,,,,,,,,,,,1159.2374426999595,None,,,,,,,,,,,,,,,,,waste,new_aloud,yellow,69,142,350,1155.5010345000774,None,1155.5010345000774,None,1,3.0379913998767734,1155.5010345000774,None,1158.5954364000354,None,1159.1067305998877,None,1159.1067305998877,None,n,0.09614029992371798,1159.1067305998877,None,,,Color_50,001,2022_May_03_1555,ProdSingRedo,3.2.3,59.94729438409275,
,,,,70,0,70,0,,,,,,,,,,,,,,,,,,,,,,,,1163.1207202000078,None,,,,,,,,,,,,,,,,,spoke,aloud,yellow,70,33,300,1159.7696789000183,None,1159.7696789000183,None,2,2.3453253000043333,1159.7696789000183,None,1162.1620259999763,None,1162.6820284998976,None,1162.6820284998976,None,n,0.40884759998880327,1162.6820284998976,None,,,Color_50,001,2022_May_03_1555,ProdSingRedo,3.2.3,59.94729438409275,
,,,,71,0,71,0,,,,,,,,,,,,,,,,,,,,,,,,1168.487798999995,None,,,,,,,,,,,,,,,,,broad,new_sing,blue,71,112,31,1163.6419227998704,None,1163.6419227998704,None,1,3.825056599918753,1163.6419227998704,None,1167.5240616998635,None,1168.0435090998653,None,1168.0435090998653,None,n,0.41571139986626804,1168.0435090998653,None,,,Color_50,001,2022_May_03_1555,ProdSingRedo,3.2.3,59.94729438409275,
,,,,72,0,72,0,,,,,,,,,,,,,,,,,,,,,,,,1172.2304046000354,None,,,,,,,,,,,,,,,,,match,new_silent,red,72,174,181,1169.014901699964,None,1169.014901699964,None,4,2.4281450000125915,1169.014901699964,None,1171.474466299871,None,1171.9824534000363,None,1171.9824534000363,None,f,0.2203192999586463,1171.9824534000363,None,,,Color_50,001,2022_May_03_1555,ProdSingRedo,3.2.3,59.94729438409275,
,,,,73,0,73,0,,,,,,,,,,,,,,,,,,,,,,,,1175.5382360999938,None,,,,,,,,,,,,,,,,,plane,silent,red,73,78,223,1172.746325599961,None,1172.746325599961,None,5,2.0328691999893636,1172.746325599961,None,1174.8192145000212,None,1175.340445799986,None,1175.340445799986,None,f,0.16652970016002655,1175.340445799986,None,,,Color_50,001,2022_May_03_1555,ProdSingRedo,3.2.3,59.94729438409275,
,,,,74,0,74,0,,,,,,,,,,,,,,,,,,,,,,,,1179.657152700005,None,,,,,,,,,,,,,,,,,under,new_sing,blue,74,95,343,1176.0644433998968,None,1176.0644433998968,None,1,2.3630731001030654,1176.0644433998968,None,1178.4735111000482,None,1178.9918944998644,None,1178.9918944998644,None,n,0.6270442998502403,1178.9918944998644,None,,,Color_50,001,2022_May_03_1555,ProdSingRedo,3.2.3,59.94729438409275,
,,,,75,0,75,0,,,,,,,,,,,,,,,,,,,,,,,,1186.8236257000826,None,,,,,,,,,,,,,,,,,ground,aloud,yellow,75,42,142,1180.1819281999487,None,1180.1819281999487,None,2,3.8769509000703692,1180.1819281999487,None,1184.1056903998833,None,1184.6311126998626,None,1184.6311126998626,None,f,2.1642412999644876,1184.6311126998626,None,,,Color_50,001,2022_May_03_1555,ProdSingRedo,3.2.3,59.94729438409275,
,,,,76,0,76,0,,,,,,,,,,,,,,,,,,,,,,,,1190.9107878999785,None,,,,,,,,,,,,,,,,,sight,aloud,yellow,76,56,286,1187.3395859999582,None,1187.3395859999582,None,1,2.903303800150752,1187.3395859999582,None,1190.291957499925,None,1190.8098305999301,None,1190.8098305999301,None,n,0.06525099999271333,1190.8098305999301,None,,,Color_50,001,2022_May_03_1555,ProdSingRedo,3.2.3,59.94729438409275,
,,,,77,0,77,0,,,,,,,,,,,,,,,,,,,,,,,,1201.7080097999424,None,,,,,,,,,,,,,,,,,silence,new_sing,blue,77,102,288,1191.4296239998657,None,1191.4296239998657,None,1,7.90924259996973,1191.4296239998657,None,1199.3886523998808,None,1199.9073234999087,None,1199.9073234999087,None,n,1.7676967999432236,1199.9073234999087,None,,,Color_50,001,2022_May_03_1555,ProdSingRedo,3.2.3,59.94729438409275,
,,,,78,0,78,0,,,,,,,,,,,,,,,,,,,,,,,,1207.5401836000383,None,,,,,,,,,,,,,,,,,generation,new_silent,red,78,155,136,1202.2345787000377,None,1202.2345787000377,None,1,3.464488700032234,1202.2345787000377,None,1205.7410488999449,None,1206.2642037000041,None,1206.2642037000041,None,n,1.2351315000560135,1206.2642037000041,None,,,Color_50,001,2022_May_03_1555,ProdSingRedo,3.2.3,59.94729438409275,
,,,,79,0,79,0,,,,,,,,,,,,,,,,,,,,,,,,1211.507132699946,None,,,,,,,,,,,,,,,,,range,new_silent,red,79,161,251,1208.0699294998776,None,1208.0699294998776,None,5,1.7651496999897063,1208.0699294998776,None,1209.896570699988,None,1210.4130261000246,None,1210.4130261000246,None,f,1.0621191000100225,1210.4130261000246,None,,,Color_50,001,2022_May_03_1555,ProdSingRedo,3.2.3,59.94729438409275,
,,,,80,0,80,0,,,,,,,,,,,,,,,,,,,,,,,,1216.0998913000803,None,,,,,,,,,,,,,,,,,rough,new_silent,red,80,150,266,1212.0337412999943,None,1212.0337412999943,None,4,2.4331265999935567,1212.0337412999943,None,1214.5056785999332,None,1215.0211600000039,None,1215.0211600000039,None,f,1.053404999896884,1215.0211600000039,None,,,Color_50,001,2022_May_03_1555,ProdSingRedo,3.2.3,59.94729438409275,
,,,,81,0,81,0,,,,,,,,,,,,,,,,,,,,,,,,1222.842926699901,None,,,,,,,,,,,,,,,,,balance,aloud,yellow,81,38,17,1216.62097300007,None,1216.62097300007,None,5,4.542918700026348,1216.62097300007,None,1221.2131924999412,None,1221.7337308998685,None,1221.7337308998685,None,f,1.077371999854222,1221.7337308998685,None,,,Color_50,001,2022_May_03_1555,ProdSingRedo,3.2.3,59.94729438409275,
,,,,82,0,82,0,,,,,,,,,,,,,,,,,,,,,,,,1226.460840899963,None,,,,,,,,,,,,,,,,,shear,sing,blue,82,5,283,1223.3667675000615,None,1223.3667675000615,None,1,2.4362119999714196,1223.3667675000615,None,1225.8580428999849,None,1226.3772209999152,None,1226.3772209999152,None,n,0.05771930003538728,1226.3772209999152,None,,,Color_50,001,2022_May_03_1555,ProdSingRedo,3.2.3,59.94729438409275,
,,,,83,0,83,0,,,,,,,,,,,,,,,,,,,,,,,,1230.792891900055,None,,,,,,,,,,,,,,,,,business,new_aloud,yellow,83,134,38,1226.986309699947,None,1226.986309699947,None,2,2.3925634000916034,1226.986309699947,None,1229.4309499999508,None,1229.9496835998725,None,1229.9496835998725,None,n,0.8053613998927176,1229.9496835998725,None,,,Color_50,001,2022_May_03_1555,ProdSingRedo,3.2.3,59.94729438409275,
,,,,84,0,84,0,,,,,,,,,,,,,,,,,,,,,,,,1234.725608699955,None,,,,,,,,,,,,,,,,,population,sing,blue,84,14,227,1231.322066700086,None,1231.322066700086,None,1,2.3445691000670195,1231.322066700086,None,1233.6999884999823,None,1234.2015775998589,None,1234.2015775998589,None,n,0.4894001998472959,1234.2015775998589,None,,,Color_50,001,2022_May_03_1555,ProdSingRedo,3.2.3,59.94729438409275,
,,,,85,0,85,0,,,,,,,,,,,,,,,,,,,,,,,,1239.0100090999622,None,,,,,,,,,,,,,,,,,pretty,silent,red,85,70,233,1235.2505665000062,None,1235.2505665000062,None,6,2.73643169994466,1235.2505665000062,None,1238.0383458998986,None,1238.5599153998774,None,1238.5599153998774,None,f,0.4190829999279231,1238.5599153998774,None,,,Color_50,001,2022_May_03_1555,ProdSingRedo,3.2.3,59.94729438409275,
,,,,86,0,86,0,,,,,,,,,,,,,,,,,,,,,,,,1246.9600241999142,None,,,,,,,,,,,,,,,,,addition,new_aloud,yellow,86,138,2,1239.5311227000784,None,1239.5311227000784,None,1,6.63148029986769,1239.5311227000784,None,1246.1904825998936,None,1246.7133865999058,None,1246.7133865999058,None,n,0.21780199999921024,1246.7133865999058,None,,,Color_50,001,2022_May_03_1555,ProdSingRedo,3.2.3,59.94729438409275,
,,,,87,0,87,0,,,,,,,,,,,,,,,,,,,,,,,,1251.8941528000869,None,,,,,,,,,,,,,,,,,drink,silent,red,87,77,105,1247.4870257999282,None,1247.4870257999282,None,3,1.971847099950537,1247.4870257999282,None,1249.5068969998974,None,1250.0271032999735,None,1250.0271032999735,None,f,1.8318209999706596,1250.0271032999735,None,,,Color_50,001,2022_May_03_1555,ProdSingRedo,3.2.3,59.94729438409275,
,,,,88,0,88,0,,,,,,,,,,,,,,,,,,,,,,,,1259.744836299913,None,,,,,,,,,,,,,,,,,mayor,sing,blue,88,11,183,1252.420893299859,None,1252.420893299859,None,6,5.949979400029406,1252.420893299859,None,1258.4291749999393,None,1258.9589621999767,None,1258.9589621999767,None,r,0.7559700000565499,1258.9589621999767,None,,,Color_50,001,2022_May_03_1555,ProdSingRedo,3.2.3,59.94729438409275,
,,,,89,0,89,0,,,,,,,,,,,,,,,,,,,,,,,,1264.1767631999683,None,,,,,,,,,,,,,,,,,benefit,new_silent,red,89,159,20,1260.2750494000502,None,1260.2750494000502,None,1,3.1678696000017226,1260.2750494000502,None,1263.4956401998643,None,1264.0177116999403,None,1264.0177116999403,None,n,0.12137190019711852,1264.0177116999403,None,,,Color_50,001,2022_May_03_1555,ProdSingRedo,3.2.3,59.94729438409275,
,,,,90,0,90,0,,,,,,,,,,,,,,,,,,,,,,,,1268.3443273000885,None,,,,,,,,,,,,,,,,,orchestra,aloud,yellow,90,55,206,1264.7034748999868,None,1264.7034748999868,None,4,2.7475827999878675,1264.7034748999868,None,1267.4889348000288,None,1268.0174602000043,None,1268.0174602000043,None,f,0.28949619992636144,1268.0174602000043,None,,,Color_50,001,2022_May_03_1555,ProdSingRedo,3.2.3,59.94729438409275,
,,,,91,0,91,0,,,,,,,,,,,,,,,,,,,,,,,,1277.9283783000428,None,,,,,,,,,,,,,,,,,music,silent,red,91,89,196,1268.8716180999763,None,1268.8716180999763,None,4,8.30732490005903,1268.8716180999763,None,1277.2262416998856,None,1277.750328199938,None,1277.750328199938,None,f,0.14071820001117885,1277.750328199938,None,,,Color_50,001,2022_May_03_1555,ProdSingRedo,3.2.3,59.94729438409275,
,,,,92,0,92,0,,,,,,,,,,,,,,,,,,,,,,,,1281.163271300029,None,,,,,,,,,,,,,,,,,platform,sing,blue,92,21,224,1278.458763799863,None,1278.458763799863,None,1,2.016136000165716,1278.458763799863,None,1280.5324325999245,None,1281.05332369986,None,1281.05332369986,None,n,0.06959560001268983,1281.05332369986,None,,,Color_50,001,2022_May_03_1555,ProdSingRedo,3.2.3,59.94729438409275,
,,,,93,0,93,0,,,,,,,,,,,,,,,,,,,,,,,,1289.181838300079,None,,,,,,,,,,,,,,,,,trend,aloud,yellow,93,41,340,1281.6721689999104,None,1281.6721689999104,None,2,5.90726160001941,1281.6721689999104,None,1287.624173299875,None,1288.1450101998635,None,1288.1450101998635,None,f,1.0019604999106377,1288.1450101998635,None,,,Color_50,001,2022_May_03_1555,ProdSingRedo,3.2.3,59.94729438409275,
,,,,94,0,94,0,,,,,,,,,,,,,,,,,,,,,,,,1295.0229893000796,None,,,,,,,,,,,,,,,,,solution,silent,red,94,83,294,1289.7101193999406,None,1289.7101193999406,None,1,4.181080800015479,1289.7101193999406,None,1293.9471513000317,None,1294.4574245000258,None,1294.4574245000258,None,n,0.5215169000439346,1294.4574245000258,None,,,Color_50,001,2022_May_03_1555,ProdSingRedo,3.2.3,59.94729438409275,
,,,,95,0,95,0,,,,,,,,,,,,,,,,,,,,,,,,1298.999164900044,None,,,,,,,,,,,,,,,,,problem,silent,red,95,81,238,1295.5371415999252,None,1295.5371415999252,None,1,2.6418133000843227,1295.5371415999252,None,1298.2303118999116,None,1298.7544088000432,None,1298.7544088000432,None,n,0.21679370012134314,1298.7544088000432,None,,,Color_50,001,2022_May_03_1555,ProdSingRedo,3.2.3,59.94729438409275,
,,,,96,0,96,0,,,,,,,,,,,,,,,,,,,,,,,,1306.6333727000747,None,,,,,,,,,,,,,,,,,front,silent,red,96,60,134,1299.5209806999192,None,1299.5209806999192,None,1,6.377649100031704,1299.5209806999192,None,1305.9255152000114,None,1306.444314399967,None,1306.444314399967,None,n,0.15890930010937154,1306.444314399967,None,,,Color_50,001,2022_May_03_1555,ProdSingRedo,3.2.3,59.94729438409275,
,,,,97,0,97,0,,,,,,,,,,,,,,,,,,,,,,,,1310.7669778000563,None,,,,,,,,,,,,,,,,,impact,aloud,yellow,97,45,157,1307.157591599971,None,1307.157591599971,None,6,2.2773535000160336,1307.157591599971,None,1309.4796796999872,None,1309.9996974999085,None,1309.9996974999085,None,f,0.7393518001772463,1309.9996974999085,None,,,Color_50,001,2022_May_03_1555,ProdSingRedo,3.2.3,59.94729438409275,
,,,,98,0,98,0,,,,,,,,,,,,,,,,,,,,,,,,1318.6810188998934,None,,,,,,,,,,,,,,,,,thick,new_silent,red,98,172,327,1311.2877165998798,None,1311.2877165998798,None,4,6.515867900103331,1311.2877165998798,None,1317.847694199998,None,1318.3661485000048,None,1318.3661485000048,None,f,0.2767761000432074,1318.3661485000048,None,,,Color_50,001,2022_May_03_1555,ProdSingRedo,3.2.3,59.94729438409275,
,,,,99,0,99,0,,,,,,,,,,,,,,,,,,,,,,,,1323.7169111999683,None,,,,,,,,,,,,,,,,,poetry,new_sing,blue,99,93,225,1319.2038143998943,None,1319.2038143998943,None,1,3.6951239998452365,1319.2038143998943,None,1322.9460483998992,None,1323.466376699973,None,1323.466376699973,None,n,0.21658590016886592,1323.466376699973,None,,,Color_50,001,2022_May_03_1555,ProdSingRedo,3.2.3,59.94729438409275,
,,,,100,0,100,0,,,,,,,,,,,,,,,,,,,,,,,,1329.899807299953,None,,,,,,,,,,,,,,,,,majority,new_sing,blue,100,96,176,1324.2430056000594,None,1324.2430056000594,None,1,4.567994599929079,1324.2430056000594,None,1328.869435899891,None,1329.3912583000492,None,1329.3912583000492,None,n,0.4677238999865949,1329.3912583000492,None,,,Color_50,001,2022_May_03_1555,ProdSingRedo,3.2.3,59.94729438409275,
,,,,101,0,101,0,,,,,,,,,,,,,,,,,,,,,,,,1334.8019606000744,None,,,,,,,,,,,,,,,,,curve,sing,blue,101,8,82,1330.4242320000194,None,1330.4242320000194,None,1,3.73110150010325,1330.4242320000194,None,1334.2005713998806,None,1334.7213727000635,None,1334.7213727000635,None,n,0.050219199853017926,1334.7213727000635,None,,,Color_50,001,2022_May_03_1555,ProdSingRedo,3.2.3,59.94729438409275,
,,,,102,0,102,0,,,,,,,,,,,,,,,,,,,,,,,,1339.484375699889,None,,,,,,,,,,,,,,,,,stand,new_silent,red,102,160,302,1335.3255387998652,None,1335.3255387998652,None,4,2.6852992000058293,1335.3255387998652,None,1338.063880499918,None,1338.582937200088,None,1338.582937200088,None,n,0.8680053001735359,1338.582937200088,None,,,Color_50,001,2022_May_03_1555,ProdSingRedo,3.2.3,59.94729438409275,
,,,,103,0,103,0,,,,,,,,,,,,,,,,,,,,,,,,1344.2663896000013,None,,,,,,,,,,,,,,,,,order,new_silent,red,103,173,207,1340.003418300068,None,1340.003418300068,None,6,3.383464800193906,1340.003418300068,None,1343.425771099981,None,1343.9518822000828,None,1343.9518822000828,None,f,0.28318120003677905,1343.9518822000828,None,,,Color_50,001,2022_May_03_1555,ProdSingRedo,3.2.3,59.94729438409275,
,,,,104,0,104,0,,,,,,,,,,,,,,,,,,,,,,,,1350.9174259998836,None,,,,,,,,,,,,,,,,,birth,new_silent,red,104,151,22,1344.7906708999071,None,1344.7906708999071,None,3,3.948500500060618,1344.7906708999071,None,1348.783006799873,None,1349.3017941000871,None,1349.3017941000871,None,f,1.5894563999027014,1349.3017941000871,None,,,Color_50,001,2022_May_03_1555,ProdSingRedo,3.2.3,59.94729438409275,
,,,,105,0,105,0,,,,,,,,,,,,,,,,,,,,,,,,1355.9935733000748,None,,,,,,,,,,,,,,,,,mankind,new_silent,red,105,164,178,1351.4478744000662,None,1351.4478744000662,None,1,3.6031145001761615,1351.4478744000662,None,1355.1066932000685,None,1355.6224034000188,None,1355.6224034000188,None,n,0.34882950014434755,1355.6224034000188,None,,,Color_50,001,2022_May_03_1555,ProdSingRedo,3.2.3,59.94729438409275,
,,,,106,0,106,0,,,,,,,,,,,,,,,,,,,,,,,,1362.8687944998965,None,,,,,,,,,,,,,,,,,crowd,new_sing,blue,106,100,81,1356.5120862999465,None,1356.5120862999465,None,1,5.642756100045517,1356.5120862999465,None,1362.2006820000242,None,1362.7199428998865,None,1362.7199428998865,None,n,0.1073034000582993,1362.7199428998865,None,,,Color_50,001,2022_May_03_1555,ProdSingRedo,3.2.3,59.94729438409275,
,,,,107,0,107,0,,,,,,,,,,,,,,,,,,,,,,,,1368.5531063000672,None,,,,,,,,,,,,,,,,,finance,new_aloud,yellow,107,136,129,1363.3933129999787,None,1363.3933129999787,None,4,3.9455512000713497,1363.3933129999787,None,1367.3852657999378,None,1367.9061467999127,None,1367.9061467999127,None,f,0.6174552000593394,1367.9061467999127,None,,,Color_50,001,2022_May_03_1555,ProdSingRedo,3.2.3,59.94729438409275,
,,,,108,0,108,0,,,,,,,,,,,,,,,,,,,,,,,,1373.3043376000132,None,,,,,,,,,,,,,,,,,discussion,new_aloud,yellow,108,145,96,1369.0863171999808,None,1369.0863171999808,None,5,2.9325919998809695,1369.0863171999808,None,1372.0653234000783,None,1372.5776434000582,None,1372.5776434000582,None,f,0.6893492999952286,1372.5776434000582,None,,,Color_50,001,2022_May_03_1555,ProdSingRedo,3.2.3,59.94729438409275,
,,,,109,0,109,0,,,,,,,,,,,,,,,,,,,,,,,,1377.3186192999128,None,,,,,,,,,,,,,,,,,scene,new_sing,blue,109,97,273,1373.8263447000645,None,1373.8263447000645,None,5,2.7444313000887632,1373.8263447000645,None,1376.6013289999682,None,1377.1191036000382,None,1377.1191036000382,None,f,0.16375859989784658,1377.1191036000382,None,,,Color_50,001,2022_May_03_1555,ProdSingRedo,3.2.3,59.94729438409275,
,,,,110,0,110,0,,,,,,,,,,,,,,,,,,,,,,,,1382.1198875999544,None,,,,,,,,,,,,,,,,,volume,new_aloud,yellow,110,133,349,1377.8494794999715,None,1377.8494794999715,None,1,3.6257869000546634,1377.8494794999715,None,1381.5152426999994,None,1382.0390774998814,None,1382.0390774998814,None,n,0.04387330007739365,1382.0390774998814,None,,,Color_50,001,2022_May_03_1555,ProdSingRedo,3.2.3,59.94729438409275,
,,,,111,0,111,0,,,,,,,,,,,,,,,,,,,,,,,,1393.3538854999933,None,,,,,,,,,,,,,,,,,force,aloud,yellow,111,57,131,1382.6432191000786,None,1382.6432191000786,None,5,9.807682800106704,1382.6432191000786,None,1392.4962641999591,None,1393.0212828000076,None,1393.0212828000076,None,f,0.29368850006721914,1393.0212828000076,None,,,Color_50,001,2022_May_03_1555,ProdSingRedo,3.2.3,59.94729438409275,
,,,,112,0,112,0,,,,,,,,,,,,,,,,,,,,,,,,1400.6196812000126,None,,,,,,,,,,,,,,,,,light,new_silent,red,112,176,171,1393.8794476999901,None,1393.8794476999901,None,1,4.739440199919045,1393.8794476999901,None,1398.6700049000792,None,1399.191163700074,None,1399.191163700074,None,n,1.3957709001842886,1399.191163700074,None,,,Color_50,001,2022_May_03_1555,ProdSingRedo,3.2.3,59.94729438409275,
,,,,113,0,113,0,,,,,,,,,,,,,,,,,,,,,,,,1408.6214777000714,None,,,,,,,,,,,,,,,,,attack,new_aloud,yellow,113,144,13,1401.1511977000628,None,1401.1511977000628,None,1,6.747725100023672,1401.1511977000628,None,1407.9489559999201,None,1408.4692400998902,None,1408.4692400998902,None,n,0.11776950000785291,1408.4692400998902,None,,,Color_50,001,2022_May_03_1555,ProdSingRedo,3.2.3,59.94729438409275,
,,,,114,0,114,0,,,,,,,,,,,,,,,,,,,,,,,,1411.6716535000596,None,,,,,,,,,,,,,,,,,mechanical,sing,blue,114,7,185,1409.1495083000045,None,1409.1495083000045,None,1,1.8131335999350995,1409.1495083000045,None,1410.9938425999135,None,1411.5098025000188,None,1411.5098025000188,None,n,0.12530780001543462,1411.5098025000188,None,,,Color_50,001,2022_May_03_1555,ProdSingRedo,3.2.3,59.94729438409275,
,,,,115,0,115,0,,,,,,,,,,,,,,,,,,,,,,,,1419.7398727999534,None,,,,,,,,,,,,,,,,,report,new_aloud,yellow,115,122,259,1412.192201100057,None,1412.192201100057,None,4,6.266641200054437,1412.192201100057,None,1418.4914972998668,None,1419.0036452000495,None,1419.0036452000495,None,f,0.7033101001288742,1419.0036452000495,None,,,Color_50,001,2022_May_03_1555,ProdSingRedo,3.2.3,59.94729438409275,
,,,,116,0,116,0,,,,,,,,,,,,,,,,,,,,,,,,1424.6048073000275,None,,,,,,,,,,,,,,,,,direction,silent,red,116,74,94,1420.2616248000413,None,1420.2616248000413,None,3,2.9173405999317765,1420.2616248000413,None,1423.2198572999332,None,1423.7381885000505,None,1423.7381885000505,None,f,0.8326621998567134,1423.7381885000505,None,,,Color_50,001,2022_May_03_1555,ProdSingRedo,3.2.3,59.94729438409275,
,,,,117,0,117,0,,,,,,,,,,,,,,,,,,,,,,,,1429.2131391998846,None,,,,,,,,,,,,,,,,,story,new_aloud,yellow,117,135,306,1425.1302064999472,None,1425.1302064999472,None,3,2.497527099912986,1425.1302064999472,None,1427.6736478998791,None,1428.1902526998892,None,1428.1902526998892,None,f,0.9808986999560148,1428.1902526998892,None,,,Color_50,001,2022_May_03_1555,ProdSingRedo,3.2.3,59.94729438409275,
,,,,118,0,118,0,,,,,,,,,,,,,,,,,,,,,,,,1432.6267504999414,None,,,,,,,,,,,,,,,,,signal,aloud,yellow,118,35,287,1429.7309423000552,None,1429.7309423000552,None,1,1.7681654999032617,1429.7309423000552,None,1431.5584481998812,None,1432.0782508000266,None,1432.0782508000266,None,n,0.508580100024119,1432.0782508000266,None,,,Color_50,001,2022_May_03_1555,ProdSingRedo,3.2.3,59.94729438409275,
,,,,119,0,119,0,,,,,,,,,,,,,,,,,,,,,,,,1442.9063681999687,None,,,,,,,,,,,,,,,,,meeting,new_sing,blue,119,107,187,1433.145477199927,None,1433.145477199927,None,1,9.049962399993092,1433.145477199927,None,1442.2482980000786,None,1442.7630839999765,None,1442.7630839999765,None,n,0.11181399994529784,1442.7630839999765,None,,,Color_50,001,2022_May_03_1555,ProdSingRedo,3.2.3,59.94729438409275,
,,,,120,0,120,0,,,,,,,,,,,,,,,,,,,,,,,,1447.8084448000882,None,,,,,,,,,,,,,,,,,history,new_aloud,yellow,120,129,153,1443.4315506999847,None,1443.4315506999847,None,1,3.611361499875784,1443.4315506999847,None,1447.0924368998967,None,1447.6111874999478,None,1447.6111874999478,None,n,0.16790329990908504,1447.6111874999478,None,,,Color_50,001,2022_May_03_1555,ProdSingRedo,3.2.3,59.94729438409275,
,,,,121,0,121,0,,,,,,,,,,,,,,,,,,,,,,,,1451.256834300002,None,,,,,,,,,,,,,,,,,appeal,silent,red,121,69,9,1448.3202631999739,None,1448.3202631999739,None,4,2.2751986000221223,1448.3202631999739,None,1450.6255868999287,None,1451.1413885999937,None,1451.1413885999937,None,f,0.08558499999344349,1451.1413885999937,None,,,Color_50,001,2022_May_03_1555,ProdSingRedo,3.2.3,59.94729438409275,
,,,,122,0,122,0,,,,,,,,,,,,,,,,,,,,,,,,1455.1069066000637,None,,,,,,,,,,,,,,,,,brilliant,new_sing,blue,122,99,30,1451.7810348998755,None,1451.7810348998755,None,1,2.565942999906838,1451.7810348998755,None,1454.379950299859,None,1454.8971873000264,None,1454.8971873000264,None,n,0.18573520006611943,1454.8971873000264,None,,,Color_50,001,2022_May_03_1555,ProdSingRedo,3.2.3,59.94729438409275,
,,,,123,0,123,0,,,,,,,,,,,,,,,,,,,,,,,,1458.8241673000157,None,,,,,,,,,,,,,,,,,skill,new_sing,blue,123,103,289,1455.6173793999478,None,1455.6173793999478,None,1,2.5296918000094593,1455.6173793999478,None,1458.1899578999728,None,1458.7089249999262,None,1458.7089249999262,None,n,0.077981699956581,1458.7089249999262,None,,,Color_50,001,2022_May_03_1555,ProdSingRedo,3.2.3,59.94729438409275,
,,,,124,0,124,0,,,,,,,,,,,,,,,,,,,,,,,,1462.6925275998656,None,,,,,,,,,,,,,,,,,danger,new_aloud,yellow,124,132,85,1459.3519619998988,None,1459.3519619998988,None,1,2.2113403999246657,1459.3519619998988,None,1461.6100627998821,None,1462.1318574000616,None,1462.1318574000616,None,n,0.519160500029102,1462.1318574000616,None,,,Color_50,001,2022_May_03_1555,ProdSingRedo,3.2.3,59.94729438409275,
,,,,125,0,125,0,,,,,,,,,,,,,,,,,,,,,,,,1466.1927364000585,None,,,,,,,,,,,,,,,,,leader,silent,red,125,71,168,1463.21875,None,1463.21875,None,3,2.2963628999423236,1463.21875,None,1465.5588485999033,None,1466.0771190000232,None,1466.0771190000232,None,f,0.08659949991852045,1466.0771190000232,None,,,Color_50,001,2022_May_03_1555,ProdSingRedo,3.2.3,59.94729438409275,
,,,,126,0,126,0,,,,,,,,,,,,,,,,,,,,,,,,1471.3065088000149,None,,,,,,,,,,,,,,,,,disease,new_sing,blue,126,101,97,1466.6997386000585,None,1466.6997386000585,None,1,4.007101600058377,1466.6997386000585,None,1470.7576810999308,None,1471.2794593998697,None,1471.2794593998697,None,n,0.0034455000422894955,1471.2794593998697,None,,,Color_50,001,2022_May_03_1555,ProdSingRedo,3.2.3,59.94729438409275,
,,,,127,0,127,0,,,,,,,,,,,,,,,,,,,,,,,,1474.409554200014,None,,,,,,,,,,,,,,,,,education,new_silent,red,127,154,108,1471.836489399895,None,1471.836489399895,None,1,1.910910400096327,1471.836489399895,None,1473.793108599959,None,1474.3258237000555,None,1474.3258237000555,None,n,0.05301150004379451,1474.3258237000555,None,,,Color_50,001,2022_May_03_1555,ProdSingRedo,3.2.3,59.94729438409275,
,,,,128,0,128,0,,,,,,,,,,,,,,,,,,,,,,,,1478.0080099999905,None,,,,,,,,,,,,,,,,,budget,sing,blue,128,22,34,1474.9339802998584,None,1474.9339802998584,None,1,2.428887699963525,1474.9339802998584,None,1477.4124104999937,None,1477.931718799984,None,1477.931718799984,None,n,0.03889410011470318,1477.931718799984,None,,,Color_50,001,2022_May_03_1555,ProdSingRedo,3.2.3,59.94729438409275,
,,,,129,0,129,0,,,,,,,,,,,,,,,,,,,,,,,,1481.1602413000073,None,,,,,,,,,,,,,,,,,number,new_sing,blue,129,117,203,1478.5345405000262,None,1478.5345405000262,None,4,1.7323712001089007,1478.5345405000262,None,1480.293505199952,None,1480.814159499947,None,1480.814159499947,None,f,0.31673169997520745,1480.814159499947,None,,,Color_50,001,2022_May_03_1555,ProdSingRedo,3.2.3,59.94729438409275,
,,,,130,0,130,0,,,,,,,,,,,,,,,,,,,,,,,,1484.9109519999474,None,,,,,,,,,,,,,,,,,clear,new_sing,blue,130,105,52,1481.676011200063,None,1481.676011200063,None,1,2.1028290998656303,1481.676011200063,None,1483.8258386999369,None,1484.3463948999997,None,1484.3463948999997,None,n,0.5366954999044538,1484.3463948999997,None,,,Color_50,001,2022_May_03_1555,ProdSingRedo,3.2.3,59.94729438409275,
,,,,131,0,131,0,,,,,,,,,,,,,,,,,,,,,,,,1489.6112869000062,None,,,,,,,,,,,,,,,,,clean,silent,red,131,63,51,1485.4347534000408,None,1485.4347534000408,None,3,3.4881581999361515,1485.4347534000408,None,1488.9750876000617,None,1489.494564200053,None,1489.494564200053,None,f,0.08444190002046525,1489.494564200053,None,,,Color_50,001,2022_May_03_1555,ProdSingRedo,3.2.3,59.94729438409275,
,,,,132,0,132,0,,,,,,,,,,,,,,,,,,,,,,,,1493.293008199893,None,,,,,,,,,,,,,,,,,search,aloud,yellow,132,44,276,1490.136542999884,None,1490.136542999884,None,5,2.1628590000327677,1490.136542999884,None,1492.3441459999885,None,1492.8699612000491,None,1492.8699612000491,None,f,0.3889366998337209,1492.8699612000491,None,,,Color_50,001,2022_May_03_1555,ProdSingRedo,3.2.3,59.94729438409275,
,,,,133,0,133,0,,,,,,,,,,,,,,,,,,,,,,,,1500.7272623998579,None,,,,,,,,,,,,,,,,,comfort,new_aloud,yellow,133,140,59,1493.8092678999528,None,1493.8092678999528,None,2,5.457734500057995,1493.8092678999528,None,1499.3104127999395,None,1499.8385342999827,None,1499.8385342999827,None,n,0.8523811001796275,1499.8385342999827,None,,,Color_50,001,2022_May_03_1555,ProdSingRedo,3.2.3,59.94729438409275,
,,,,134,0,134,0,,,,,,,,,,,,,,,,,,,,,,,,1506.0954315999988,None,,,,,,,,,,,,,,,,,position,new_aloud,yellow,134,121,229,1501.250077799894,None,1501.250077799894,None,5,3.3288974999450147,1501.250077799894,None,1504.6228360999376,None,1505.1436826998834,None,1505.1436826998834,None,r,0.9151077000424266,1505.1436826998834,None,,,Color_50,001,2022_May_03_1555,ProdSingRedo,3.2.3,59.94729438409275,
,,,,135,0,135,0,,,,,,,,,,,,,,,,,,,,,,,,1509.5946388000157,None,,,,,,,,,,,,,,,,,testimony,aloud,yellow,135,39,325,1506.6171710998751,None,1506.6171710998751,None,6,2.241688100155443,1506.6171710998751,None,1508.9155828000512,None,1509.4323569000699,None,1509.4323569000699,None,r,0.12261830014176667,1509.4323569000699,None,,,Color_50,001,2022_May_03_1555,ProdSingRedo,3.2.3,59.94729438409275,
,,,,136,0,136,0,,,,,,,,,,,,,,,,,,,,,,,,1516.0698468999472,None,,,,,,,,,,,,,,,,,pattern,new_sing,blue,136,91,214,1510.1222971000243,None,1510.1222971000243,None,3,5.152745200088248,1510.1222971000243,None,1515.3337526000105,None,1515.836497799959,None,1515.836497799959,None,r,0.2061511001084,1515.836497799959,None,,,Color_50,001,2022_May_03_1555,ProdSingRedo,3.2.3,59.94729438409275,
,,,,137,0,137,0,,,,,,,,,,,,,,,,,,,,,,,,1523.527933999896,None,,,,,,,,,,,,,,,,,piece,new_silent,red,137,158,221,1516.579200899927,None,1516.579200899927,None,1,5.247672100085765,1516.579200899927,None,1521.8738168999553,None,1522.3851767999586,None,1522.3851767999586,None,n,1.1057344998698682,1522.3851767999586,None,,,Color_50,001,2022_May_03_1555,ProdSingRedo,3.2.3,59.94729438409275,
,,,,138,0,138,0,,,,,,,,,,,,,,,,,,,,,,,,1529.544402899919,None,,,,,,,,,,,,,,,,,employment,silent,red,138,61,111,1524.0620192000642,None,1524.0620192000642,None,1,4.341201700037345,1524.0620192000642,None,1528.447916999925,None,1528.9687166998629,None,1528.9687166998629,None,n,0.5381589001044631,1528.9687166998629,None,,,Color_50,001,2022_May_03_1555,ProdSingRedo,3.2.3,59.94729438409275,
,,,,139,0,139,0,,,,,,,,,,,,,,,,,,,,,,,,1533.5802408000454,None,,,,,,,,,,,,,,,,,discovery,sing,blue,139,20,95,1530.078729599947,None,1530.078729599947,None,1,2.836282700067386,1530.078729599947,None,1532.9677945999429,None,1533.4850311998744,None,1533.4850311998744,None,n,0.06983179994858801,1533.4850311998744,None,,,Color_50,001,2022_May_03_1555,ProdSingRedo,3.2.3,59.94729438409275,
,,,,140,0,140,0,,,,,,,,,,,,,,,,,,,,,,,,1538.3623647999484,None,,,,,,,,,,,,,,,,,drama,new_aloud,yellow,140,143,103,1534.107307799859,None,1534.107307799859,None,4,3.3676455998793244,1534.107307799859,None,1537.5289851999842,None,1538.0505750000011,None,1538.0505750000011,None,r,0.2803240001667291,1538.0505750000011,None,,,Color_50,001,2022_May_03_1555,ProdSingRedo,3.2.3,59.94729438409275,
,,,,141,0,141,0,,,,,,,,,,,,,,,,,,,,,,,,1542.7158699999563,None,,,,,,,,,,,,,,,,,marriage,sing,blue,141,26,179,1538.893541000085,None,1538.893541000085,None,1,3.1091888998635113,1538.893541000085,None,1542.0236055999994,None,1542.5407086999621,None,1542.5407086999621,None,n,0.13406930002383888,1542.5407086999621,None,,,Color_50,001,2022_May_03_1555,ProdSingRedo,3.2.3,59.94729438409275,
,,,,142,0,142,0,,,,,,,,,,,,,,,,,,,,,,,,1546.3365871999413,None,,,,,,,,,,,,,,,,,safety,new_silent,red,142,163,270,1543.2402663999237,None,1543.2402663999237,None,4,2.02651029988192,1543.2402663999237,None,1545.3012892999686,None,1545.8046317999251,None,1545.8046317999251,None,f,0.5018915000837296,1545.8046317999251,None,,,Color_50,001,2022_May_03_1555,ProdSingRedo,3.2.3,59.94729438409275,
,,,,143,0,143,0,,,,,,,,,,,,,,,,,,,,,,,,1550.6799651999027,None,,,,,,,,,,,,,,,,,tragedy,new_silent,red,143,153,335,1546.8629455999471,None,1546.8629455999471,None,1,2.724144699983299,1546.8629455999471,None,1549.6303949998692,None,1550.1544782998972,None,1550.1544782998972,None,n,0.4963467000052333,1550.1544782998972,None,,,Color_50,001,2022_May_03_1555,ProdSingRedo,3.2.3,59.94729438409275,
,,,,144,0,144,0,,,,,,,,,,,,,,,,,,,,,,,,1556.367013900075,None,,,,,,,,,,,,,,,,,weather,new_sing,blue,144,90,352,1551.2069918999914,None,1551.2069918999914,None,1,4.443783599883318,1551.2069918999914,None,1555.6944154000375,None,1556.2184156998992,None,1556.2184156998992,None,n,0.11257340013980865,1556.2184156998992,None,,,Color_50,001,2022_May_03_1555,ProdSingRedo,3.2.3,59.94729438409275,
,,,,145,0,145,0,,,,,,,,,,,,,,,,,,,,,,,,1560.9319166999776,None,,,,,,,,,,,,,,,,,people,sing,blue,145,12,216,1556.8871657999698,None,1556.8871657999698,None,4,3.355783199891448,1556.8871657999698,None,1560.2878216998652,None,1560.7972214999609,None,1560.7972214999609,None,r,0.09376509999856353,1560.7972214999609,None,,,Color_50,001,2022_May_03_1555,ProdSingRedo,3.2.3,59.94729438409275,
,,,,146,0,146,0,,,,,,,,,,,,,,,,,,,,,,,,1566.780069499975,None,,,,,,,,,,,,,,,,,short,aloud,yellow,146,49,285,1561.453024599934,None,1561.453024599934,None,6,4.701980399899185,1561.453024599934,None,1566.1938485999126,None,1566.7203959999606,None,1566.7203959999606,None,r,0.03434980008751154,1566.7203959999606,None,,,Color_50,001,2022_May_03_1555,ProdSingRedo,3.2.3,59.94729438409275,
,,,,147,0,147,0,,,,,,,,,,,,,,,,,,,,,,,,1569.9850900999736,None,,,,,,,,,,,,,,,,,minute,aloud,yellow,147,43,192,1567.3038806999102,None,1567.3038806999102,None,1,2.0192257999442518,1567.3038806999102,None,1569.364353199955,None,1569.8824531000573,None,1569.8824531000573,None,n,0.07299409992992878,1569.8824531000573,None,,,Color_50,001,2022_May_03_1555,ProdSingRedo,3.2.3,59.94729438409275,
,,,,148,0,148,0,,,,,,,,,,,,,,,,,,,,,,,,1573.7652608000208,None,,,,,,,,,,,,,,,,,colonel,sing,blue,148,23,55,1570.5029633999802,None,1570.5029633999802,None,6,2.2279637998435646,1570.5029633999802,None,1572.7706677999813,None,1573.2829440999776,None,1573.2829440999776,None,r,0.4478798001073301,1573.2829440999776,None,,,Color_50,001,2022_May_03_1555,ProdSingRedo,3.2.3,59.94729438409275,
,,,,149,0,149,0,,,,,,,,,,,,,,,,,,,,,,,,1578.3499449000228,None,,,,,,,,,,,,,,,,,territory,sing,blue,149,10,324,1574.2905061999336,None,1574.2905061999336,None,6,2.2248782999813557,1574.2905061999336,None,1576.5639106999151,None,1577.084635999985,None,1577.084635999985,None,f,1.2382855000905693,1577.084635999985,None,,,Color_50,001,2022_May_03_1555,ProdSingRedo,3.2.3,59.94729438409275,
,,,,150,0,150,0,,,,,,,,,,,,,,,,,,,,,,,,1582.316773999948,None,,,,,,,,,,,,,,,,,childhood,new_sing,blue,150,114,49,1578.874248899985,None,1578.874248899985,None,5,2.7205994001124054,1578.874248899985,None,1581.6491896000225,None,1582.1661237999797,None,1582.1661237999797,None,f,0.10887220012955368,1582.1661237999797,None,,,Color_50,001,2022_May_03_1555,ProdSingRedo,3.2.3,59.94729438409275,
,,,,151,0,151,0,,,,,,,,,,,,,,,,,,,,,,,,1586.883807899896,None,,,,,,,,,,,,,,,,,contract,sing,blue,151,13,68,1582.8437244999222,None,1582.8437244999222,None,1,2.727956800023094,1582.8437244999222,None,1585.6158227999695,None,1586.1360855000094,None,1586.1360855000094,None,n,0.7067404000554234,1586.1360855000094,None,,,Color_50,001,2022_May_03_1555,ProdSingRedo,3.2.3,59.94729438409275,
,,,,152,0,152,0,,,,,,,,,,,,,,,,,,,,,,,,1590.851479300065,None,,,,,,,,,,,,,,,,,power,aloud,yellow,152,46,230,1587.4055375999305,None,1587.4055375999305,None,3,2.5972746999468654,1587.4055375999305,None,1590.045331900008,None,1590.5679144999012,None,1590.5679144999012,None,r,0.2509836000390351,1590.5679144999012,None,,,Color_50,001,2022_May_03_1555,ProdSingRedo,3.2.3,59.94729438409275,
,,,,153,0,153,0,,,,,,,,,,,,,,,,,,,,,,,,1595.0178761999123,None,,,,,,,,,,,,,,,,,style,new_aloud,yellow,153,120,311,1591.3749379999936,None,1591.3749379999936,None,1,2.987899500178173,1591.3749379999936,None,1594.413512500003,None,1594.9348893000279,None,1594.9348893000279,None,n,0.05191799998283386,1594.9348893000279,None,,,Color_50,001,2022_May_03_1555,ProdSingRedo,3.2.3,59.94729438409275,
,,,,154,0,154,0,,,,,,,,,,,,,,,,,,,,,,,,1597.2679288999643,None,,,,,,,,,,,,,,,,,interview,silent,red,154,87,165,1595.5412880999502,None,1595.5412880999502,None,1,1.117664200020954,1595.5412880999502,None,1596.7004941999912,None,1597.223144999938,None,1597.223144999938,None,n,0.019704099977388978,1597.223144999938,None,,,Color_50,001,2022_May_03_1555,ProdSingRedo,3.2.3,59.94729438409275,
,,,,155,0,155,0,,,,,,,,,,,,,,,,,,,,,,,,1599.7060809000395,None,,,,,,,,,,,,,,,,,provision,sing,blue,155,1,243,1597.7928972998634,None,1597.7928972998634,None,1,1.2339812000282109,1597.7928972998634,None,1599.0835201998707,None,1599.6048790998757,None,1599.6048790998757,None,n,0.06195060000754893,1599.6048790998757,None,,,Color_50,001,2022_May_03_1555,ProdSingRedo,3.2.3,59.94729438409275,
,,,,156,0,156,0,,,,,,,,,,,,,,,,,,,,,,,,1602.7168590999208,None,,,,,,,,,,,,,,,,,swift,new_silent,red,156,170,320,1600.2324739999603,None,1600.2324739999603,None,4,1.8344653001986444,1600.2324739999603,None,1602.1094869999215,None,1602.6384111999068,None,1602.6384111999068,None,f,0.04449840006418526,1602.6384111999068,None,,,Color_50,001,2022_May_03_1555,ProdSingRedo,3.2.3,59.94729438409275,
,,,,157,0,157,0,,,,,,,,,,,,,,,,,,,,,,,,1606.9012482999824,None,,,,,,,,,,,,,,,,,foundation,aloud,yellow,157,53,132,1603.2526094000787,None,1603.2526094000787,None,3,2.773942200001329,1603.2526094000787,None,1606.0605635000393,None,1606.5762284998782,None,1606.5762284998782,None,f,0.2987735001370311,1606.5762284998782,None,,,Color_50,001,2022_May_03_1555,ProdSingRedo,3.2.3,59.94729438409275,
,,,,158,0,158,0,,,,,,,,,,,,,,,,,,,,,,,,1609.3832473999355,None,,,,,,,,,,,,,,,,,straight,aloud,yellow,158,34,307,1607.4308134000748,None,1607.4308134000748,None,1,1.2519643001724035,1607.4308134000748,None,1608.7340840999968,None,1609.2599935000762,None,1609.2599935000762,None,n,0.08684929995797575,1609.2599935000762,None,,,Color_50,001,2022_May_03_1555,ProdSingRedo,3.2.3,59.94729438409275,
,,,,159,0,159,0,,,,,,,,,,,,,,,,,,,,,,,,1615.5374229000881,None,,,,,,,,,,,,,,,,,bitter,new_silent,red,159,167,23,1609.9061006000265,None,1609.9061006000265,None,1,4.632848999928683,1609.9061006000265,None,1614.5808210000396,None,1615.1047298000194,None,1615.1047298000194,None,n,0.39409460010938346,1615.1047298000194,None,,,Color_50,001,2022_May_03_1555,ProdSingRedo,3.2.3,59.94729438409275,
,,,,160,0,160,0,,,,,,,,,,,,,,,,,,,,,,,,1619.971041599987,None,,,,,,,,,,,,,,,,,accident,new_sing,blue,160,98,0,1616.0606704999227,None,1616.0606704999227,None,4,2.750424100086093,1616.0606704999227,None,1618.8662853999995,None,1619.3877868000418,None,1619.3877868000418,None,r,0.5510138999670744,1619.3877868000418,None,,,Color_50,001,2022_May_03_1555,ProdSingRedo,3.2.3,59.94729438409275,
,,,,161,0,161,0,,,,,,,,,,,,,,,,,,,,,,,,1626.3873405000195,None,,,,,,,,,,,,,,,,,salary,new_silent,red,161,165,271,1620.4955380999018,None,1620.4955380999018,None,5,5.035342399962246,1620.4955380999018,None,1625.5878049000166,None,1626.1076328000054,None,1626.1076328000054,None,f,0.23923709988594055,1626.1076328000054,None,,,Color_50,001,2022_May_03_1555,ProdSingRedo,3.2.3,59.94729438409275,
,,,,162,0,162,0,,,,,,,,,,,,,,,,,,,,,,,,1631.269005900016,None,,,,,,,,,,,,,,,,,passage,silent,red,162,76,212,1626.9149920998607,None,1626.9149920998607,None,6,3.2957859998568892,1626.9149920998607,None,1630.2477138999384,None,1630.7737990999594,None,1630.7737990999594,None,r,0.469283799873665,1630.7737990999594,None,,,Color_50,001,2022_May_03_1555,ProdSingRedo,3.2.3,59.94729438409275,
,,,,163,0,163,0,,,,,,,,,,,,,,,,,,,,,,,,1636.9213310000487,None,,,,,,,,,,,,,,,,,edition,new_silent,red,163,157,107,1631.7919339998625,None,1631.7919339998625,None,1,4.442578700138256,1631.7919339998625,None,1636.261052899994,None,1636.772129900055,None,1636.772129900055,None,n,0.1106438001152128,1636.772129900055,None,,,Color_50,001,2022_May_03_1555,ProdSingRedo,3.2.3,59.94729438409275,
,,,,164,0,164,0,,,,,,,,,,,,,,,,,,,,,,,,1640.0361536999699,None,,,,,,,,,,,,,,,,,bureau,new_aloud,yellow,164,131,37,1637.4472667998634,None,1637.4472667998634,None,1,1.6835809999611229,1637.4472667998634,None,1639.1843498998787,None,1639.7084186000284,None,1639.7084186000284,None,n,0.29441600013524294,1639.7084186000284,None,,,Color_50,001,2022_May_03_1555,ProdSingRedo,3.2.3,59.94729438409275,
,,,,165,0,165,0,,,,,,,,,,,,,,,,,,,,,,,,1643.1550996000879,None,,,,,,,,,,,,,,,,,smooth,new_sing,blue,165,113,292,1640.5594375999644,None,1640.5594375999644,None,1,1.9234313999768347,1640.5594375999644,None,1642.5320661999285,None,1643.0503541999497,None,1643.0503541999497,None,n,0.07243940001353621,1643.0503541999497,None,,,Color_50,001,2022_May_03_1555,ProdSingRedo,3.2.3,59.94729438409275,
,,,,166,0,166,0,,,,,,,,,,,,,,,,,,,,,,,,1646.8698692999315,None,,,,,,,,,,,,,,,,,write,new_silent,red,166,156,358,1643.678143600002,None,1643.678143600002,None,3,1.8046848999802023,1643.678143600002,None,1645.533681300003,None,1646.0583377000876,None,1646.0583377000876,None,f,0.784734999993816,1646.0583377000876,None,,,Color_50,001,2022_May_03_1555,ProdSingRedo,3.2.3,59.94729438409275,
,,,,167,0,167,0,,,,,,,,,,,,,,,,,,,,,,,,1649.9538433998823,None,,,,,,,,,,,,,,,,,surprise,new_sing,blue,167,118,317,1647.381342299981,None,1647.381342299981,None,1,1.8855595998466015,1647.381342299981,None,1649.3180098999292,None,1649.8449154000264,None,1649.8449154000264,None,n,0.06991319986991584,1649.8449154000264,None,,,Color_50,001,2022_May_03_1555,ProdSingRedo,3.2.3,59.94729438409275,
,,,,168,0,168,0,,,,,,,,,,,,,,,,,,,,,,,,1659.5053943998646,None,,,,,,,,,,,,,,,,,brief,new_aloud,yellow,168,123,28,1650.4823517000768,None,1650.4823517000768,None,2,7.808400699868798,1650.4823517000768,None,1658.3306251999456,None,1658.8581175999716,None,1658.8581175999716,None,n,0.6167941999156028,1658.8581175999716,None,,,Color_50,001,2022_May_03_1555,ProdSingRedo,3.2.3,59.94729438409275,
,,,,169,0,169,0,,,,,,,,,,,,,,,,,,,,,,,,1663.187791199889,None,,,,,,,,,,,,,,,,,cross,new_silent,red,169,178,80,1660.0265921000391,None,1660.0265921000391,None,4,2.480308099882677,1660.0265921000391,None,1662.549489799887,None,1663.07066019997,None,1663.07066019997,None,f,0.08410960016772151,1663.07066019997,None,,,Color_50,001,2022_May_03_1555,ProdSingRedo,3.2.3,59.94729438409275,
,,,,170,0,170,0,,,,,,,,,,,,,,,,,,,,,,,,1667.437658000039,None,,,,,,,,,,,,,,,,,working,sing,blue,170,9,357,1663.7193857999519,None,1663.7193857999519,None,5,3.051413199864328,1663.7193857999519,None,1666.8276198999956,None,1667.3536729998887,None,1667.3536729998887,None,r,0.05743290018290281,1667.3536729998887,None,,,Color_50,001,2022_May_03_1555,ProdSingRedo,3.2.3,59.94729438409275,
,,,,171,0,171,0,,,,,,,,,,,,,,,,,,,,,,,,1671.207968099974,None,,,,,,,,,,,,,,,,,course,new_aloud,yellow,171,137,74,1667.9651963999495,None,1667.9651963999495,None,3,2.5977877001278102,1667.9651963999495,None,1670.6062682999764,None,1671.1258491000626,None,1671.1258491000626,None,r,0.0450487001799047,1671.1258491000626,None,,,Color_50,001,2022_May_03_1555,ProdSingRedo,3.2.3,59.94729438409275,
,,,,172,0,172,0,,,,,,,,,,,,,,,,,,,,,,,,1677.7725386999082,None,,,,,,,,,,,,,,,,,thing,silent,red,172,84,328,1671.732923500007,None,1671.732923500007,None,1,5.406029799953103,1671.732923500007,None,1677.1862989999354,None,1677.7064515000675,None,1677.7064515000675,None,n,0.02439849986694753,1677.7064515000675,None,,,Color_50,001,2022_May_03_1555,ProdSingRedo,3.2.3,59.94729438409275,
,,,,173,0,173,0,,,,,,,,,,,,,,,,,,,,,,,,1680.1890535000712,None,,,,,,,,,,,,,,,,,charter,new_sing,blue,173,110,47,1678.2991526999976,None,1678.2991526999976,None,1,1.2557020999956876,1678.2991526999976,None,1679.6060653999448,None,1680.1278236999642,None,1680.1278236999642,None,n,0.03513610013760626,1680.1278236999642,None,,,Color_50,001,2022_May_03_1555,ProdSingRedo,3.2.3,59.94729438409275,
,,,,174,0,174,0,,,,,,,,,,,,,,,,,,,,,,,,1683.524405800039,None,,,,,,,,,,,,,,,,,distance,new_sing,blue,174,116,100,1680.7159128999338,None,1680.7159128999338,None,3,2.0955773999448866,1680.7159128999338,None,1682.8567510999274,None,1683.3758380999789,None,1683.3758380999789,None,f,0.10697710001841187,1683.3758380999789,None,,,Color_50,001,2022_May_03_1555,ProdSingRedo,3.2.3,59.94729438409275,
,,,,175,0,175,0,,,,,,,,,,,,,,,,,,,,,,,,1687.9077335000038,None,,,,,,,,,,,,,,,,,school,sing,blue,175,2,274,1684.0487363000866,None,1684.0487363000866,None,6,3.1303429999388754,1684.0487363000866,None,1687.2208134999964,None,1687.7322124999482,None,1687.7322124999482,None,r,0.1426569998729974,1687.7322124999482,None,,,Color_50,001,2022_May_03_1555,ProdSingRedo,3.2.3,59.94729438409275,
,,,,176,0,176,0,,,,,,,,,,,,,,,,,,,,,,,,1690.765582199907,None,,,,,,,,,,,,,,,,,junior,new_sing,blue,176,115,167,1688.4360662999097,None,1688.4360662999097,None,1,1.334668600000441,1688.4360662999097,None,1689.8221827999223,None,1690.3456452998798,None,1690.3456452998798,None,n,0.3931956000160426,1690.3456452998798,None,,,Color_50,001,2022_May_03_1555,ProdSingRedo,3.2.3,59.94729438409275,
,,,,177,0,177,0,,,,,,,,,,,,,,,,,,,,,,,,1693.8155833000783,None,,,,,,,,,,,,,,,,,center,new_silent,red,177,152,44,1691.2973217999097,None,1691.2973217999097,None,1,1.801533600082621,1691.2973217999097,None,1693.1365481000394,None,1693.6573735000566,None,1693.6573735000566,None,n,0.12926009995862842,1693.6573735000566,None,,,Color_50,001,2022_May_03_1555,ProdSingRedo,3.2.3,59.94729438409275,
,,,,178,0,178,0,,,,,,,,,,,,,,,,,,,,,,,,1696.5585473000538,None,,,,,,,,,,,,,,,,,answer,silent,red,178,73,8,1694.3360508999322,None,1694.3360508999322,None,1,1.6264939999673516,1694.3360508999322,None,1695.9875894999132,None,1696.5116534000263,None,1696.5116534000263,None,n,0.011152599938213825,1696.5116534000263,None,,,Color_50,001,2022_May_03_1555,ProdSingRedo,3.2.3,59.94729438409275,
,,,,179,0,179,0,,,,,,,,,,,,,,,,,,,,,,,,1699.5248068000656,None,,,,,,,,,,,,,,,,,listen,silent,red,179,64,172,1697.0798569000326,None,1697.0798569000326,None,6,1.6832504998892546,1697.0798569000326,None,1698.8048529999796,None,1699.3254641999956,None,1699.3254641999956,None,f,0.17323259986005723,1699.3254641999956,None,,,Color_50,001,2022_May_03_1555,ProdSingRedo,3.2.3,59.94729438409275,
,,,,,,,,,,,,,,,,,,,,,,,,,,,,,,,,,,,,,,,,,,,,,,,,,,,,,,,,,,,,,,,,,,,,,,,,,1700.032273199875,None,,,,,,,
