StudyLoop.thisRepN,StudyLoop.thisTrialN,StudyLoop.thisN,StudyLoop.thisIndex,TestLoop.thisRepN,TestLoop.thisTrialN,TestLoop.thisN,TestLoop.thisIndex,textCondition.started,textCondition.stopped,keyCondition.keys,keyCondition.rt,keyCondition.started,keyCondition.stopped,Condition,stim_colors,color_sing,color_aloud,color_silent,textWelcome.started,textWelcome.stopped,keyWelcome.keys,keyWelcome.rt,keyWelcome.started,keyWelcome.stopped,textAloud.started,textAloud.stopped,textSilent.started,textSilent.stopped,textSing.started,textSing.stopped,textBlank500.started,textBlank500.stopped,study_word,study_type,study_color,study_num,study_word_num,textStudy.started,textStudy.stopped,keyStudy.keys,keyStudy.started,keyStudy.stopped,textTestInstructions.started,textTestInstructions.stopped,key_resp_3.keys,key_resp_3.rt,key_resp_3.started,key_resp_3.stopped,testWord,testType,testColor,testN,test_num,test_word_num,textConf.started,textConf.stopped,textConfScale.started,textConfScale.stopped,keyConf.keys,keyConf.rt,keyConf.started,keyConf.stopped,textTestBlank.started,textTestBlank.stopped,textRKN.started,textRKN.stopped,textRKNScale.started,textRKNScale.stopped,keyRKN.keys,keyRKN.rt,keyRKN.started,keyRKN.stopped,textEnd.started,textEnd.stopped,participant,session,date,expName,psychopyVersion,frameRate,
,,,,,,,,13.37722149991896,None,y,2.710452500032261,13.37722149991896,None,,,,,,,,,,,,,,,,,,,,,,,,,,,,,,,,,,,,,,,,,,,,,,,,,,,,,,,,,,,,,,color4,001,2019_Nov_21_1551,ProdSingRedo,3.2.3,59.94273072559632,
,,,,,,,,,,,,,,ColoredTest,"['red', 'yellow', 'blue']",red,yellow,blue,16.140071199974045,None,space,919.971940199961,16.140071199974045,None,,,,,,,,,,,,,,,,,,,,,,,,,,,,,,,,,,,,,,,,,,,,,,,,,,,color4,001,2019_Nov_21_1551,ProdSingRedo,3.2.3,59.94273072559632,
0,0,0,0,,,,,,,,,,,,,,,,,,,,,,16.140071199974045,None,16.140071199974045,None,16.140071199974045,None,938.6591025999514,None,pretty,sing,red,28,233,936.6651363999117,None,None,936.6651363999117,None,,,,,,,,,,,,,,,,,,,,,,,,,,,,,,,,,color4,001,2019_Nov_21_1551,ProdSingRedo,3.2.3,59.94273072559632,
1,0,1,0,,,,,,,,,,,,,,,,,,,,,,,,,,,,941.1759325999301,None,brilliant,silent,blue,88,30,939.1750405000057,None,None,939.1750405000057,None,,,,,,,,,,,,,,,,,,,,,,,,,,,,,,,,,color4,001,2019_Nov_21_1551,ProdSingRedo,3.2.3,59.94273072559632,
2,0,2,0,,,,,,,,,,,,,,,,,,,,,,,,,,,,943.6927613000153,None,council,sing,red,17,71,941.6875252999598,None,None,941.6875252999598,None,,,,,,,,,,,,,,,,,,,,,,,,,,,,,,,,,color4,001,2019_Nov_21_1551,ProdSingRedo,3.2.3,59.94273072559632,
3,0,3,0,,,,,,,,,,,,,,,,,,,,,,,,,,,,946.2095771000022,None,atmosphere,sing,red,21,12,944.2044489999535,None,None,944.2044489999535,None,,,,,,,,,,,,,,,,,,,,,,,,,,,,,,,,,color4,001,2019_Nov_21_1551,ProdSingRedo,3.2.3,59.94273072559632,
4,0,4,0,,,,,,,,,,,,,,,,,,,,,,,,,,,,948.7266062999843,None,close,sing,red,4,53,946.717269100016,None,None,946.717269100016,None,,,,,,,,,,,,,,,,,,,,,,,,,,,,,,,,,color4,001,2019_Nov_21_1551,ProdSingRedo,3.2.3,59.94273072559632,
5,0,5,0,,,,,,,,,,,,,,,,,,,,,,,,,,,,951.2432624999201,None,blind,silent,blue,86,24,949.2380219999468,None,None,949.2380219999468,None,,,,,,,,,,,,,,,,,,,,,,,,,,,,,,,,,color4,001,2019_Nov_21_1551,ProdSingRedo,3.2.3,59.94273072559632,
6,0,6,0,,,,,,,,,,,,,,,,,,,,,,,,,,,,953.7599945999682,None,danger,aloud,yellow,57,85,951.7591188999359,None,None,951.7591188999359,None,,,,,,,,,,,,,,,,,,,,,,,,,,,,,,,,,color4,001,2019_Nov_21_1551,ProdSingRedo,3.2.3,59.94273072559632,
7,0,7,0,,,,,,,,,,,,,,,,,,,,,,,,,,,,956.2769319999497,None,suspect,sing,red,3,318,954.276809199946,None,None,954.276809199946,None,,,,,,,,,,,,,,,,,,,,,,,,,,,,,,,,,color4,001,2019_Nov_21_1551,ProdSingRedo,3.2.3,59.94273072559632,
8,0,8,0,,,,,,,,,,,,,,,,,,,,,,,,,,,,958.7938242999371,None,brief,aloud,yellow,33,28,956.7904324999545,None,None,956.7904324999545,None,,,,,,,,,,,,,,,,,,,,,,,,,,,,,,,,,color4,001,2019_Nov_21_1551,ProdSingRedo,3.2.3,59.94273072559632,
9,0,9,0,,,,,,,,,,,,,,,,,,,,,,,,,,,,961.3106093999231,None,medicine,sing,red,29,186,959.3040256999666,None,None,959.3040256999666,None,,,,,,,,,,,,,,,,,,,,,,,,,,,,,,,,,color4,001,2019_Nov_21_1551,ProdSingRedo,3.2.3,59.94273072559632,
10,0,10,0,,,,,,,,,,,,,,,,,,,,,,,,,,,,963.8274645999772,None,comedy,sing,red,14,58,961.8220753999194,None,None,961.8220753999194,None,,,,,,,,,,,,,,,,,,,,,,,,,,,,,,,,,color4,001,2019_Nov_21_1551,ProdSingRedo,3.2.3,59.94273072559632,
11,0,11,0,,,,,,,,,,,,,,,,,,,,,,,,,,,,966.344359699986,None,broad,aloud,yellow,51,31,964.3427166999318,None,None,964.3427166999318,None,,,,,,,,,,,,,,,,,,,,,,,,,,,,,,,,,color4,001,2019_Nov_21_1551,ProdSingRedo,3.2.3,59.94273072559632,
12,0,12,0,,,,,,,,,,,,,,,,,,,,,,,,,,,,968.8611706999363,None,orchestra,sing,red,10,206,966.8610358999576,None,None,966.8610358999576,None,,,,,,,,,,,,,,,,,,,,,,,,,,,,,,,,,color4,001,2019_Nov_21_1551,ProdSingRedo,3.2.3,59.94273072559632,
13,0,13,0,,,,,,,,,,,,,,,,,,,,,,,,,,,,971.3779092999175,None,course,sing,red,0,74,969.3734472999349,None,None,969.3734472999349,None,,,,,,,,,,,,,,,,,,,,,,,,,,,,,,,,,color4,001,2019_Nov_21_1551,ProdSingRedo,3.2.3,59.94273072559632,
14,0,14,0,,,,,,,,,,,,,,,,,,,,,,,,,,,,973.894780099974,None,afternoon,sing,red,13,3,971.8913368999492,None,None,971.8913368999492,None,,,,,,,,,,,,,,,,,,,,,,,,,,,,,,,,,color4,001,2019_Nov_21_1551,ProdSingRedo,3.2.3,59.94273072559632,
15,0,15,0,,,,,,,,,,,,,,,,,,,,,,,,,,,,976.4115854999982,None,concern,silent,blue,67,65,974.4037298000185,None,None,974.4037298000185,None,,,,,,,,,,,,,,,,,,,,,,,,,,,,,,,,,color4,001,2019_Nov_21_1551,ProdSingRedo,3.2.3,59.94273072559632,
16,0,16,0,,,,,,,,,,,,,,,,,,,,,,,,,,,,978.9284373999108,None,growth,silent,blue,89,144,976.9276094000088,None,None,976.9276094000088,None,,,,,,,,,,,,,,,,,,,,,,,,,,,,,,,,,color4,001,2019_Nov_21_1551,ProdSingRedo,3.2.3,59.94273072559632,
17,0,17,0,,,,,,,,,,,,,,,,,,,,,,,,,,,,981.4452855999116,None,author,silent,blue,80,15,979.4410073999316,None,None,979.4410073999316,None,,,,,,,,,,,,,,,,,,,,,,,,,,,,,,,,,color4,001,2019_Nov_21_1551,ProdSingRedo,3.2.3,59.94273072559632,
18,0,18,0,,,,,,,,,,,,,,,,,,,,,,,,,,,,983.9622046999866,None,trash,sing,red,18,337,981.9567914999789,None,None,981.9567914999789,None,,,,,,,,,,,,,,,,,,,,,,,,,,,,,,,,,color4,001,2019_Nov_21_1551,ProdSingRedo,3.2.3,59.94273072559632,
19,0,19,0,,,,,,,,,,,,,,,,,,,,,,,,,,,,986.4790103000123,None,trend,silent,blue,63,340,984.4722137999488,None,None,984.4722137999488,None,,,,,,,,,,,,,,,,,,,,,,,,,,,,,,,,,color4,001,2019_Nov_21_1551,ProdSingRedo,3.2.3,59.94273072559632,
20,0,20,0,,,,,,,,,,,,,,,,,,,,,,,,,,,,988.9958728000056,None,relation,aloud,yellow,36,257,986.9903358999873,None,None,986.9903358999873,None,,,,,,,,,,,,,,,,,,,,,,,,,,,,,,,,,color4,001,2019_Nov_21_1551,ProdSingRedo,3.2.3,59.94273072559632,
21,0,21,0,,,,,,,,,,,,,,,,,,,,,,,,,,,,991.5127815000014,None,second,aloud,yellow,59,278,989.5043968999526,None,None,989.5043968999526,None,,,,,,,,,,,,,,,,,,,,,,,,,,,,,,,,,color4,001,2019_Nov_21_1551,ProdSingRedo,3.2.3,59.94273072559632,
22,0,22,0,,,,,,,,,,,,,,,,,,,,,,,,,,,,994.0294787000166,None,provision,aloud,yellow,52,243,992.0332885999233,None,None,992.0332885999233,None,,,,,,,,,,,,,,,,,,,,,,,,,,,,,,,,,color4,001,2019_Nov_21_1551,ProdSingRedo,3.2.3,59.94273072559632,
23,0,23,0,,,,,,,,,,,,,,,,,,,,,,,,,,,,996.5463776999386,None,dance,sing,red,23,84,994.5430292999372,None,None,994.5430292999372,None,,,,,,,,,,,,,,,,,,,,,,,,,,,,,,,,,color4,001,2019_Nov_21_1551,ProdSingRedo,3.2.3,59.94273072559632,
24,0,24,0,,,,,,,,,,,,,,,,,,,,,,,,,,,,999.0632083999226,None,population,silent,blue,84,227,997.0645935999928,None,None,997.0645935999928,None,,,,,,,,,,,,,,,,,,,,,,,,,,,,,,,,,color4,001,2019_Nov_21_1551,ProdSingRedo,3.2.3,59.94273072559632,
25,0,25,0,,,,,,,,,,,,,,,,,,,,,,,,,,,,1001.579999199952,None,worker,sing,red,8,356,999.5815648999996,None,None,999.5815648999996,None,,,,,,,,,,,,,,,,,,,,,,,,,,,,,,,,,color4,001,2019_Nov_21_1551,ProdSingRedo,3.2.3,59.94273072559632,
26,0,26,0,,,,,,,,,,,,,,,,,,,,,,,,,,,,1004.0968503999757,None,raise,silent,blue,71,250,1002.0924735999433,None,None,1002.0924735999433,None,,,,,,,,,,,,,,,,,,,,,,,,,,,,,,,,,color4,001,2019_Nov_21_1551,ProdSingRedo,3.2.3,59.94273072559632,
27,0,27,0,,,,,,,,,,,,,,,,,,,,,,,,,,,,1006.6136801999528,None,damage,silent,blue,70,83,1004.6126602999866,None,None,1004.6126602999866,None,,,,,,,,,,,,,,,,,,,,,,,,,,,,,,,,,color4,001,2019_Nov_21_1551,ProdSingRedo,3.2.3,59.94273072559632,
28,0,28,0,,,,,,,,,,,,,,,,,,,,,,,,,,,,1009.1304278000025,None,property,silent,blue,76,242,1007.1248595999787,None,None,1007.1248595999787,None,,,,,,,,,,,,,,,,,,,,,,,,,,,,,,,,,color4,001,2019_Nov_21_1551,ProdSingRedo,3.2.3,59.94273072559632,
29,0,29,0,,,,,,,,,,,,,,,,,,,,,,,,,,,,1011.647403699928,None,minor,silent,blue,85,191,1009.6384102000156,None,None,1009.6384102000156,None,,,,,,,,,,,,,,,,,,,,,,,,,,,,,,,,,color4,001,2019_Nov_21_1551,ProdSingRedo,3.2.3,59.94273072559632,
30,0,30,0,,,,,,,,,,,,,,,,,,,,,,,,,,,,1014.1642486999044,None,touch,aloud,yellow,46,332,1012.1590206999099,None,None,1012.1590206999099,None,,,,,,,,,,,,,,,,,,,,,,,,,,,,,,,,,color4,001,2019_Nov_21_1551,ProdSingRedo,3.2.3,59.94273072559632,
31,0,31,0,,,,,,,,,,,,,,,,,,,,,,,,,,,,1016.6810449999757,None,owner,aloud,yellow,45,208,1014.6760786999948,None,None,1014.6760786999948,None,,,,,,,,,,,,,,,,,,,,,,,,,,,,,,,,,color4,001,2019_Nov_21_1551,ProdSingRedo,3.2.3,59.94273072559632,
32,0,32,0,,,,,,,,,,,,,,,,,,,,,,,,,,,,1019.1979822999565,None,length,aloud,yellow,44,169,1017.1952046999941,None,None,1017.1952046999941,None,,,,,,,,,,,,,,,,,,,,,,,,,,,,,,,,,color4,001,2019_Nov_21_1551,ProdSingRedo,3.2.3,59.94273072559632,
33,0,33,0,,,,,,,,,,,,,,,,,,,,,,,,,,,,1021.7146878999192,None,staff,aloud,yellow,31,301,1019.7086238999618,None,None,1019.7086238999618,None,,,,,,,,,,,,,,,,,,,,,,,,,,,,,,,,,color4,001,2019_Nov_21_1551,ProdSingRedo,3.2.3,59.94273072559632,
34,0,34,0,,,,,,,,,,,,,,,,,,,,,,,,,,,,1024.2315383999376,None,career,aloud,yellow,42,42,1022.2270911999512,None,None,1022.2270911999512,None,,,,,,,,,,,,,,,,,,,,,,,,,,,,,,,,,color4,001,2019_Nov_21_1551,ProdSingRedo,3.2.3,59.94273072559632,
35,0,35,0,,,,,,,,,,,,,,,,,,,,,,,,,,,,1026.748415799928,None,substance,sing,red,15,313,1024.7502967999317,None,None,1024.7502967999317,None,,,,,,,,,,,,,,,,,,,,,,,,,,,,,,,,,color4,001,2019_Nov_21_1551,ProdSingRedo,3.2.3,59.94273072559632,
36,0,36,0,,,,,,,,,,,,,,,,,,,,,,,,,,,,1029.2653005999746,None,store,silent,blue,78,305,1027.2563225999475,None,None,1027.2563225999475,None,,,,,,,,,,,,,,,,,,,,,,,,,,,,,,,,,color4,001,2019_Nov_21_1551,ProdSingRedo,3.2.3,59.94273072559632,
37,0,37,0,,,,,,,,,,,,,,,,,,,,,,,,,,,,1031.782063899911,None,husband,aloud,yellow,40,156,1029.7845167999621,None,None,1029.7845167999621,None,,,,,,,,,,,,,,,,,,,,,,,,,,,,,,,,,color4,001,2019_Nov_21_1551,ProdSingRedo,3.2.3,59.94273072559632,
38,0,38,0,,,,,,,,,,,,,,,,,,,,,,,,,,,,1034.2989624999464,None,childhood,sing,red,27,49,1032.29197999998,None,None,1032.29197999998,None,,,,,,,,,,,,,,,,,,,,,,,,,,,,,,,,,color4,001,2019_Nov_21_1551,ProdSingRedo,3.2.3,59.94273072559632,
39,0,39,0,,,,,,,,,,,,,,,,,,,,,,,,,,,,1036.81578049995,None,swift,aloud,yellow,55,320,1034.810521599953,None,None,1034.810521599953,None,,,,,,,,,,,,,,,,,,,,,,,,,,,,,,,,,color4,001,2019_Nov_21_1551,ProdSingRedo,3.2.3,59.94273072559632,
40,0,40,0,,,,,,,,,,,,,,,,,,,,,,,,,,,,1039.3325737999985,None,testimony,sing,red,19,325,1037.327974200016,None,None,1037.327974200016,None,,,,,,,,,,,,,,,,,,,,,,,,,,,,,,,,,color4,001,2019_Nov_21_1551,ProdSingRedo,3.2.3,59.94273072559632,
41,0,41,0,,,,,,,,,,,,,,,,,,,,,,,,,,,,1041.8493907999946,None,weight,silent,blue,74,353,1039.8448604999576,None,None,1039.8448604999576,None,,,,,,,,,,,,,,,,,,,,,,,,,,,,,,,,,color4,001,2019_Nov_21_1551,ProdSingRedo,3.2.3,59.94273072559632,
42,0,42,0,,,,,,,,,,,,,,,,,,,,,,,,,,,,1044.366398199927,None,right,sing,red,24,265,1042.3629108999157,None,None,1042.3629108999157,None,,,,,,,,,,,,,,,,,,,,,,,,,,,,,,,,,color4,001,2019_Nov_21_1551,ProdSingRedo,3.2.3,59.94273072559632,
43,0,43,0,,,,,,,,,,,,,,,,,,,,,,,,,,,,1046.883112499956,None,state,silent,blue,69,303,1044.8798370999284,None,None,1044.8798370999284,None,,,,,,,,,,,,,,,,,,,,,,,,,,,,,,,,,color4,001,2019_Nov_21_1551,ProdSingRedo,3.2.3,59.94273072559632,
44,0,44,0,,,,,,,,,,,,,,,,,,,,,,,,,,,,1049.4003208999056,None,tennis,aloud,yellow,43,323,1047.3908009999432,None,None,1047.3908009999432,None,,,,,,,,,,,,,,,,,,,,,,,,,,,,,,,,,color4,001,2019_Nov_21_1551,ProdSingRedo,3.2.3,59.94273072559632,
45,0,45,0,,,,,,,,,,,,,,,,,,,,,,,,,,,,1051.9167446999345,None,incident,sing,red,1,158,1049.9118717999663,None,None,1049.9118717999663,None,,,,,,,,,,,,,,,,,,,,,,,,,,,,,,,,,color4,001,2019_Nov_21_1551,ProdSingRedo,3.2.3,59.94273072559632,
46,0,46,0,,,,,,,,,,,,,,,,,,,,,,,,,,,,1054.433555399999,None,budget,sing,red,20,34,1052.4415507999947,None,None,1052.4415507999947,None,,,,,,,,,,,,,,,,,,,,,,,,,,,,,,,,,color4,001,2019_Nov_21_1551,ProdSingRedo,3.2.3,59.94273072559632,
47,0,47,0,,,,,,,,,,,,,,,,,,,,,,,,,,,,1056.9504183999961,None,stand,aloud,yellow,56,302,1054.9461789999623,None,None,1054.9461789999623,None,,,,,,,,,,,,,,,,,,,,,,,,,,,,,,,,,color4,001,2019_Nov_21_1551,ProdSingRedo,3.2.3,59.94273072559632,
48,0,48,0,,,,,,,,,,,,,,,,,,,,,,,,,,,,1059.4679645999568,None,victory,aloud,yellow,32,346,1057.4651611999143,None,None,1057.4651611999143,None,,,,,,,,,,,,,,,,,,,,,,,,,,,,,,,,,color4,001,2019_Nov_21_1551,ProdSingRedo,3.2.3,59.94273072559632,
49,0,49,0,,,,,,,,,,,,,,,,,,,,,,,,,,,,1061.9842051999876,None,still,silent,blue,72,304,1059.9747209999477,None,None,1059.9747209999477,None,,,,,,,,,,,,,,,,,,,,,,,,,,,,,,,,,color4,001,2019_Nov_21_1551,ProdSingRedo,3.2.3,59.94273072559632,
50,0,50,0,,,,,,,,,,,,,,,,,,,,,,,,,,,,1064.5009313999908,None,broke,silent,blue,61,32,1062.4958055999596,None,None,1062.4958055999596,None,,,,,,,,,,,,,,,,,,,,,,,,,,,,,,,,,color4,001,2019_Nov_21_1551,ProdSingRedo,3.2.3,59.94273072559632,
51,0,51,0,,,,,,,,,,,,,,,,,,,,,,,,,,,,1067.017862699926,None,guest,aloud,yellow,53,146,1065.0113769000163,None,None,1065.0113769000163,None,,,,,,,,,,,,,,,,,,,,,,,,,,,,,,,,,color4,001,2019_Nov_21_1551,ProdSingRedo,3.2.3,59.94273072559632,
52,0,52,0,,,,,,,,,,,,,,,,,,,,,,,,,,,,1069.5346026999177,None,appearance,sing,red,6,10,1067.5346380999545,None,None,1067.5346380999545,None,,,,,,,,,,,,,,,,,,,,,,,,,,,,,,,,,color4,001,2019_Nov_21_1551,ProdSingRedo,3.2.3,59.94273072559632,
53,0,53,0,,,,,,,,,,,,,,,,,,,,,,,,,,,,1072.0514642999042,None,personnel,sing,red,25,219,1070.0453717999626,None,None,1070.0453717999626,None,,,,,,,,,,,,,,,,,,,,,,,,,,,,,,,,,color4,001,2019_Nov_21_1551,ProdSingRedo,3.2.3,59.94273072559632,
54,0,54,0,,,,,,,,,,,,,,,,,,,,,,,,,,,,1074.5683726000134,None,contract,sing,red,11,68,1072.565852199914,None,None,1072.565852199914,None,,,,,,,,,,,,,,,,,,,,,,,,,,,,,,,,,color4,001,2019_Nov_21_1551,ProdSingRedo,3.2.3,59.94273072559632,
55,0,55,0,,,,,,,,,,,,,,,,,,,,,,,,,,,,1077.0851333999308,None,shock,silent,blue,81,284,1075.0787995000137,None,None,1075.0787995000137,None,,,,,,,,,,,,,,,,,,,,,,,,,,,,,,,,,color4,001,2019_Nov_21_1551,ProdSingRedo,3.2.3,59.94273072559632,
56,0,56,0,,,,,,,,,,,,,,,,,,,,,,,,,,,,1079.6020407999167,None,addition,aloud,yellow,30,2,1077.5964979999699,None,None,1077.5964979999699,None,,,,,,,,,,,,,,,,,,,,,,,,,,,,,,,,,color4,001,2019_Nov_21_1551,ProdSingRedo,3.2.3,59.94273072559632,
57,0,57,0,,,,,,,,,,,,,,,,,,,,,,,,,,,,1082.1188012999482,None,education,silent,blue,66,108,1080.1201788999606,None,None,1080.1201788999606,None,,,,,,,,,,,,,,,,,,,,,,,,,,,,,,,,,color4,001,2019_Nov_21_1551,ProdSingRedo,3.2.3,59.94273072559632,
58,0,58,0,,,,,,,,,,,,,,,,,,,,,,,,,,,,1084.635813199915,None,portion,silent,blue,73,228,1082.6270290999673,None,None,1082.6270290999673,None,,,,,,,,,,,,,,,,,,,,,,,,,,,,,,,,,color4,001,2019_Nov_21_1551,ProdSingRedo,3.2.3,59.94273072559632,
59,0,59,0,,,,,,,,,,,,,,,,,,,,,,,,,,,,1087.1524852999719,None,instrument,aloud,yellow,35,163,1085.148049099953,None,None,1085.148049099953,None,,,,,,,,,,,,,,,,,,,,,,,,,,,,,,,,,color4,001,2019_Nov_21_1551,ProdSingRedo,3.2.3,59.94273072559632,
60,0,60,0,,,,,,,,,,,,,,,,,,,,,,,,,,,,1089.6692974999314,None,smell,aloud,yellow,34,291,1087.6601845999248,None,None,1087.6601845999248,None,,,,,,,,,,,,,,,,,,,,,,,,,,,,,,,,,color4,001,2019_Nov_21_1551,ProdSingRedo,3.2.3,59.94273072559632,
61,0,61,0,,,,,,,,,,,,,,,,,,,,,,,,,,,,1092.1861496999627,None,recall,aloud,yellow,38,255,1090.1814023000188,None,None,1090.1814023000188,None,,,,,,,,,,,,,,,,,,,,,,,,,,,,,,,,,color4,001,2019_Nov_21_1551,ProdSingRedo,3.2.3,59.94273072559632,
62,0,62,0,,,,,,,,,,,,,,,,,,,,,,,,,,,,1094.702970399987,None,profession,silent,blue,77,241,1092.7005200999556,None,None,1092.7005200999556,None,,,,,,,,,,,,,,,,,,,,,,,,,,,,,,,,,color4,001,2019_Nov_21_1551,ProdSingRedo,3.2.3,59.94273072559632,
63,0,63,0,,,,,,,,,,,,,,,,,,,,,,,,,,,,1097.2199200999457,None,entrance,aloud,yellow,47,115,1095.2166656999616,None,None,1095.2166656999616,None,,,,,,,,,,,,,,,,,,,,,,,,,,,,,,,,,color4,001,2019_Nov_21_1551,ProdSingRedo,3.2.3,59.94273072559632,
64,0,64,0,,,,,,,,,,,,,,,,,,,,,,,,,,,,1099.7367023999104,None,region,silent,blue,64,256,1097.7326968999114,None,None,1097.7326968999114,None,,,,,,,,,,,,,,,,,,,,,,,,,,,,,,,,,color4,001,2019_Nov_21_1551,ProdSingRedo,3.2.3,59.94273072559632,
65,0,65,0,,,,,,,,,,,,,,,,,,,,,,,,,,,,1102.2535198999103,None,science,sing,red,7,275,1100.246629799949,None,None,1100.246629799949,None,,,,,,,,,,,,,,,,,,,,,,,,,,,,,,,,,color4,001,2019_Nov_21_1551,ProdSingRedo,3.2.3,59.94273072559632,
66,0,66,0,,,,,,,,,,,,,,,,,,,,,,,,,,,,1104.770394799998,None,build,silent,blue,65,35,1102.766581099946,None,None,1102.766581099946,None,,,,,,,,,,,,,,,,,,,,,,,,,,,,,,,,,color4,001,2019_Nov_21_1551,ProdSingRedo,3.2.3,59.94273072559632,
67,0,67,0,,,,,,,,,,,,,,,,,,,,,,,,,,,,1107.2871745999437,None,health,sing,red,26,149,1105.2837656999473,None,None,1105.2837656999473,None,,,,,,,,,,,,,,,,,,,,,,,,,,,,,,,,,color4,001,2019_Nov_21_1551,ProdSingRedo,3.2.3,59.94273072559632,
68,0,68,0,,,,,,,,,,,,,,,,,,,,,,,,,,,,1109.8040568999713,None,leader,aloud,yellow,49,168,1107.8001110999612,None,None,1107.8001110999612,None,,,,,,,,,,,,,,,,,,,,,,,,,,,,,,,,,color4,001,2019_Nov_21_1551,ProdSingRedo,3.2.3,59.94273072559632,
69,0,69,0,,,,,,,,,,,,,,,,,,,,,,,,,,,,1112.3208347000182,None,review,silent,blue,75,263,1110.3176445999416,None,None,1110.3176445999416,None,,,,,,,,,,,,,,,,,,,,,,,,,,,,,,,,,color4,001,2019_Nov_21_1551,ProdSingRedo,3.2.3,59.94273072559632,
70,0,70,0,,,,,,,,,,,,,,,,,,,,,,,,,,,,1114.8376004999736,None,estate,sing,red,16,119,1112.8334408999654,None,None,1112.8334408999654,None,,,,,,,,,,,,,,,,,,,,,,,,,,,,,,,,,color4,001,2019_Nov_21_1551,ProdSingRedo,3.2.3,59.94273072559632,
71,0,71,0,,,,,,,,,,,,,,,,,,,,,,,,,,,,1117.3544506999897,None,phrase,aloud,yellow,54,220,1115.3531646999763,None,None,1115.3531646999763,None,,,,,,,,,,,,,,,,,,,,,,,,,,,,,,,,,color4,001,2019_Nov_21_1551,ProdSingRedo,3.2.3,59.94273072559632,
72,0,72,0,,,,,,,,,,,,,,,,,,,,,,,,,,,,1119.871364099905,None,mayor,sing,red,12,183,1117.8676798999077,None,None,1117.8676798999077,None,,,,,,,,,,,,,,,,,,,,,,,,,,,,,,,,,color4,001,2019_Nov_21_1551,ProdSingRedo,3.2.3,59.94273072559632,
73,0,73,0,,,,,,,,,,,,,,,,,,,,,,,,,,,,1122.3882271000184,None,disease,sing,red,9,97,1120.3861025999067,None,None,1120.3861025999067,None,,,,,,,,,,,,,,,,,,,,,,,,,,,,,,,,,color4,001,2019_Nov_21_1551,ProdSingRedo,3.2.3,59.94273072559632,
74,0,74,0,,,,,,,,,,,,,,,,,,,,,,,,,,,,1124.9050254999893,None,dream,silent,blue,83,104,1122.900865499978,None,None,1122.900865499978,None,,,,,,,,,,,,,,,,,,,,,,,,,,,,,,,,,color4,001,2019_Nov_21_1551,ProdSingRedo,3.2.3,59.94273072559632,
75,0,75,0,,,,,,,,,,,,,,,,,,,,,,,,,,,,1127.422073499998,None,little,silent,blue,82,174,1125.4122303000186,None,None,1125.4122303000186,None,,,,,,,,,,,,,,,,,,,,,,,,,,,,,,,,,color4,001,2019_Nov_21_1551,ProdSingRedo,3.2.3,59.94273072559632,
76,0,76,0,,,,,,,,,,,,,,,,,,,,,,,,,,,,1129.9387812999776,None,marriage,aloud,yellow,41,179,1127.9376259999117,None,None,1127.9376259999117,None,,,,,,,,,,,,,,,,,,,,,,,,,,,,,,,,,color4,001,2019_Nov_21_1551,ProdSingRedo,3.2.3,59.94273072559632,
77,0,77,0,,,,,,,,,,,,,,,,,,,,,,,,,,,,1132.4556274999632,None,style,silent,blue,79,311,1130.4490980999544,None,None,1130.4490980999544,None,,,,,,,,,,,,,,,,,,,,,,,,,,,,,,,,,color4,001,2019_Nov_21_1551,ProdSingRedo,3.2.3,59.94273072559632,
78,0,78,0,,,,,,,,,,,,,,,,,,,,,,,,,,,,1134.9724648999982,None,sight,silent,blue,62,286,1132.9656925000018,None,None,1132.9656925000018,None,,,,,,,,,,,,,,,,,,,,,,,,,,,,,,,,,color4,001,2019_Nov_21_1551,ProdSingRedo,3.2.3,59.94273072559632,
79,0,79,0,,,,,,,,,,,,,,,,,,,,,,,,,,,,1137.4892026999732,None,congress,sing,red,2,67,1135.4847617999185,None,None,1135.4847617999185,None,,,,,,,,,,,,,,,,,,,,,,,,,,,,,,,,,color4,001,2019_Nov_21_1551,ProdSingRedo,3.2.3,59.94273072559632,
80,0,80,0,,,,,,,,,,,,,,,,,,,,,,,,,,,,1140.0060646999627,None,point,aloud,yellow,58,226,1137.9980898000067,None,None,1137.9980898000067,None,,,,,,,,,,,,,,,,,,,,,,,,,,,,,,,,,color4,001,2019_Nov_21_1551,ProdSingRedo,3.2.3,59.94273072559632,
81,0,81,0,,,,,,,,,,,,,,,,,,,,,,,,,,,,1142.5229375999188,None,figure,silent,blue,68,128,1140.5193104000064,None,None,1140.5193104000064,None,,,,,,,,,,,,,,,,,,,,,,,,,,,,,,,,,color4,001,2019_Nov_21_1551,ProdSingRedo,3.2.3,59.94273072559632,
82,0,82,0,,,,,,,,,,,,,,,,,,,,,,,,,,,,1145.039944899967,None,dispute,aloud,yellow,39,99,1143.0387437000172,None,None,1143.0387437000172,None,,,,,,,,,,,,,,,,,,,,,,,,,,,,,,,,,color4,001,2019_Nov_21_1551,ProdSingRedo,3.2.3,59.94273072559632,
83,0,83,0,,,,,,,,,,,,,,,,,,,,,,,,,,,,1147.5399762999732,None,research,sing,red,22,261,1145.5406455999473,None,None,1145.5406455999473,None,,,,,,,,,,,,,,,,,,,,,,,,,,,,,,,,,color4,001,2019_Nov_21_1551,ProdSingRedo,3.2.3,59.94273072559632,
84,0,84,0,,,,,,,,,,,,,,,,,,,,,,,,,,,,1150.0567985000089,None,breath,sing,red,5,27,1148.0571075999178,None,None,1148.0571075999178,None,,,,,,,,,,,,,,,,,,,,,,,,,,,,,,,,,color4,001,2019_Nov_21_1551,ProdSingRedo,3.2.3,59.94273072559632,
85,0,85,0,,,,,,,,,,,,,,,,,,,,,,,,,,,,1152.5735777999507,None,group,aloud,yellow,37,143,1150.5712235999526,None,None,1150.5712235999526,None,,,,,,,,,,,,,,,,,,,,,,,,,,,,,,,,,color4,001,2019_Nov_21_1551,ProdSingRedo,3.2.3,59.94273072559632,
86,0,86,0,,,,,,,,,,,,,,,,,,,,,,,,,,,,1155.0904804000165,None,impact,aloud,yellow,50,157,1153.0904732999625,None,None,1153.0904732999625,None,,,,,,,,,,,,,,,,,,,,,,,,,,,,,,,,,color4,001,2019_Nov_21_1551,ProdSingRedo,3.2.3,59.94273072559632,
87,0,87,0,,,,,,,,,,,,,,,,,,,,,,,,,,,,1157.607336999965,None,center,silent,blue,60,44,1155.5991329000099,None,None,1155.5991329000099,None,,,,,,,,,,,,,,,,,,,,,,,,,,,,,,,,,color4,001,2019_Nov_21_1551,ProdSingRedo,3.2.3,59.94273072559632,
88,0,88,0,,,,,,,,,,,,,,,,,,,,,,,,,,,,1160.1241103999782,None,cover,silent,blue,87,77,1158.11969089997,None,None,1158.11969089997,None,,,,,,,,,,,,,,,,,,,,,,,,,,,,,,,,,color4,001,2019_Nov_21_1551,ProdSingRedo,3.2.3,59.94273072559632,
89,0,89,0,,,,,,,,,,,,,,,,,,,,,,,,,,,,1162.641258199932,None,interior,aloud,yellow,48,164,1160.6327364000026,None,None,1160.6327364000026,None,,,,,,,,,,,,,,,,,,,,,,,,,,,,,,,,,color4,001,2019_Nov_21_1551,ProdSingRedo,3.2.3,59.94273072559632,
,,,,,,,,,,,,,,,,,,,,,,,,,,,,,,,,,,,,,,,,,,,1163.1412085000193,None,k,44.37880970002152,1163.1412085000193,None,,,,,,,,,,,,,,,,,,,,,,,,,,,color4,001,2019_Nov_21_1551,ProdSingRedo,3.2.3,59.94273072559632,
,,,,0,0,0,0,,,,,,,,,,,,,,,,,,,,,,,,1233.655619999976,None,,,,,,,,,,,,,,,,,people,new_silent,blue,0,170,216,1208.0619736999506,None,1208.0619736999506,None,1,18.010099099949002,1208.0619736999506,None,1226.1149501999607,None,1226.636096799979,None,1226.636096799979,None,n,6.979927100008354,1226.636096799979,None,,,color4,001,2019_Nov_21_1551,ProdSingRedo,3.2.3,59.94273072559632,
,,,,1,0,1,0,,,,,,,,,,,,,,,,,,,,,,,,1239.5712488999125,None,,,,,,,,,,,,,,,,,portion,silent,blue,1,73,228,1234.177001599921,None,1234.177001599921,None,1,2.8231866999994963,1234.177001599921,None,1237.0489628999494,None,1237.571247600019,None,1237.571247600019,None,n,1.9647260000929236,1237.571247600019,None,,,color4,001,2019_Nov_21_1551,ProdSingRedo,3.2.3,59.94273072559632,
,,,,2,0,2,0,,,,,,,,,,,,,,,,,,,,,,,,1246.3220163999358,None,,,,,,,,,,,,,,,,,review,silent,blue,2,75,263,1240.1014360999689,None,1240.1014360999689,None,1,2.9865645999088883,1240.1014360999689,None,1243.1387666999362,None,1243.6600652999477,None,1243.6600652999477,None,n,2.6360232000006363,1243.6600652999477,None,,,color4,001,2019_Nov_21_1551,ProdSingRedo,3.2.3,59.94273072559632,
,,,,3,0,3,0,,,,,,,,,,,,,,,,,,,,,,,,1255.8226912999526,None,,,,,,,,,,,,,,,,,material,new_aloud,yellow,3,146,182,1246.848502799985,None,1246.848502799985,None,4,6.431798900011927,1246.848502799985,None,1253.3242067999672,None,1253.845851299935,None,1253.845851299935,None,f,1.9463664999930188,1253.845851299935,None,,,color4,001,2019_Nov_21_1551,ProdSingRedo,3.2.3,59.94273072559632,
,,,,4,0,4,0,,,,,,,,,,,,,,,,,,,,,,,,1264.80655139999,None,,,,,,,,,,,,,,,,,style,silent,blue,4,79,311,1256.3480992999393,None,1256.3480992999393,None,1,4.804059599991888,1256.3480992999393,None,1261.2033791999565,None,1261.7243031999096,None,1261.7243031999096,None,n,3.051891400013119,1261.7243031999096,None,,,color4,001,2019_Nov_21_1551,ProdSingRedo,3.2.3,59.94273072559632,
,,,,5,0,5,0,,,,,,,,,,,,,,,,,,,,,,,,1270.1068053999916,None,,,,,,,,,,,,,,,,,opening,new_aloud,yellow,5,131,205,1265.3289627999766,None,1265.3289627999766,None,1,2.7029528999701142,1265.3289627999766,None,1268.066088099964,None,1268.5918579999125,None,1268.5918579999125,None,n,1.4883100000442937,1268.5918579999125,None,,,color4,001,2019_Nov_21_1551,ProdSingRedo,3.2.3,59.94273072559632,
,,,,6,0,6,0,,,,,,,,,,,,,,,,,,,,,,,,1276.4410338000162,None,,,,,,,,,,,,,,,,,space,new_silent,blue,6,166,297,1270.6341102999868,None,1270.6341102999868,None,2,2.8698954000137746,1270.6341102999868,None,1273.5575096999528,None,1274.0754338999977,None,1274.0754338999977,None,f,2.3406883999705315,1274.0754338999977,None,,,color4,001,2019_Nov_21_1551,ProdSingRedo,3.2.3,59.94273072559632,
,,,,7,0,7,0,,,,,,,,,,,,,,,,,,,,,,,,1283.4242746999953,None,,,,,,,,,,,,,,,,,science,sing,red,7,7,275,1276.9631686999928,None,1276.9631686999928,None,6,3.3088818999240175,1276.9631686999928,None,1280.3193407999352,None,1280.8388713999884,None,1280.8388713999884,None,r,2.5531919999048114,1280.8388713999884,None,,,color4,001,2019_Nov_21_1551,ProdSingRedo,3.2.3,59.94273072559632,
,,,,8,0,8,0,,,,,,,,,,,,,,,,,,,,,,,,1288.8579234000063,None,,,,,,,,,,,,,,,,,incident,sing,red,8,1,158,1283.9472640999593,None,1283.9472640999593,None,6,3.188783199992031,1283.9472640999593,None,1287.1858195000095,None,1287.7060852999566,None,1287.7060852999566,None,r,1.1261649000225589,1287.7060852999566,None,,,color4,001,2019_Nov_21_1551,ProdSingRedo,3.2.3,59.94273072559632,
,,,,9,0,9,0,,,,,,,,,,,,,,,,,,,,,,,,1293.1075790999457,None,,,,,,,,,,,,,,,,,sight,silent,blue,9,62,286,1289.3853732999414,None,1289.3853732999414,None,1,2.0546520999632776,1289.3853732999414,None,1291.4876711999532,None,1292.0098987999372,None,1292.0098987999372,None,n,1.0621003999840468,1292.0098987999372,None,,,color4,001,2019_Nov_21_1551,ProdSingRedo,3.2.3,59.94273072559632,
,,,,10,0,10,0,,,,,,,,,,,,,,,,,,,,,,,,1297.3579729999183,None,,,,,,,,,,,,,,,,,couch,new_aloud,yellow,10,144,70,1293.6338161999593,None,1293.6338161999593,None,1,1.9901910000480711,1293.6338161999593,None,1295.6660165999783,None,1296.17897239991,None,1296.17897239991,None,n,1.1410494999727234,1296.17897239991,None,,,color4,001,2019_Nov_21_1551,ProdSingRedo,3.2.3,59.94273072559632,
,,,,11,0,11,0,,,,,,,,,,,,,,,,,,,,,,,,1303.2090990999714,None,,,,,,,,,,,,,,,,,appearance,sing,red,11,6,10,1297.891996499966,None,1297.891996499966,None,5,2.6040085999993607,1297.891996499966,None,1300.5447307999711,None,1301.0656033999985,None,1301.0656033999985,None,f,2.118579699890688,1301.0656033999985,None,,,color4,001,2019_Nov_21_1551,ProdSingRedo,3.2.3,59.94273072559632,
,,,,12,0,12,0,,,,,,,,,,,,,,,,,,,,,,,,1307.375865799957,None,,,,,,,,,,,,,,,,,smooth,new_sing,red,12,119,292,1303.7307680000085,None,1303.7307680000085,None,1,1.7733182000229135,1303.7307680000085,None,1305.5524953999557,None,1306.071922199917,None,1306.071922199917,None,n,1.2800006000325084,1306.071922199917,None,,,color4,001,2019_Nov_21_1551,ProdSingRedo,3.2.3,59.94273072559632,
,,,,13,0,13,0,,,,,,,,,,,,,,,,,,,,,,,,1312.1264559999108,None,,,,,,,,,,,,,,,,,interior,aloud,yellow,13,48,164,1307.9012204000028,None,1307.9012204000028,None,6,2.338801500038244,1307.9012204000028,None,1310.2873823000118,None,1310.8068834999576,None,1310.8068834999576,None,r,1.2892489000223577,1310.8068834999576,None,,,color4,001,2019_Nov_21_1551,ProdSingRedo,3.2.3,59.94273072559632,
,,,,14,0,14,0,,,,,,,,,,,,,,,,,,,,,,,,1317.1104754999978,None,,,,,,,,,,,,,,,,,thing,new_aloud,yellow,14,134,328,1312.649973499938,None,1312.649973499938,None,1,2.509976299945265,1312.649973499938,None,1315.2057851999998,None,1315.729010400013,None,1315.729010400013,None,n,1.3510529000777751,1315.729010400013,None,,,color4,001,2019_Nov_21_1551,ProdSingRedo,3.2.3,59.94273072559632,
,,,,15,0,15,0,,,,,,,,,,,,,,,,,,,,,,,,1321.6769263999304,None,,,,,,,,,,,,,,,,,breath,sing,red,15,5,27,1317.6409290999873,None,1317.6409290999873,None,5,2.31909500004258,1317.6409290999873,None,1320.0108581999084,None,1320.529478500015,None,1320.529478500015,None,r,1.1185608999803662,1320.529478500015,None,,,color4,001,2019_Nov_21_1551,ProdSingRedo,3.2.3,59.94273072559632,
,,,,16,0,16,0,,,,,,,,,,,,,,,,,,,,,,,,1325.4940469999565,None,,,,,,,,,,,,,,,,,oxygen,new_aloud,yellow,16,120,209,1322.2026075000176,None,1322.2026075000176,None,1,1.5893863999517635,1322.2026075000176,None,1323.8425002999138,None,1324.3631502999924,None,1324.3631502999924,None,n,1.1008587999967858,1324.3631502999924,None,,,color4,001,2019_Nov_21_1551,ProdSingRedo,3.2.3,59.94273072559632,
,,,,17,0,17,0,,,,,,,,,,,,,,,,,,,,,,,,1331.9943906000117,None,,,,,,,,,,,,,,,,,weight,silent,blue,17,74,353,1326.0183820999227,None,1326.0183820999227,None,1,3.541707399999723,1326.0183820999227,None,1329.6096653999994,None,1330.1280127000064,None,1330.1280127000064,None,n,1.8320177999557927,1330.1280127000064,None,,,color4,001,2019_Nov_21_1551,ProdSingRedo,3.2.3,59.94273072559632,
,,,,18,0,18,0,,,,,,,,,,,,,,,,,,,,,,,,1337.6634795999853,None,,,,,,,,,,,,,,,,,substance,sing,red,18,15,313,1332.529235899914,None,1332.529235899914,None,5,2.838876000023447,1332.529235899914,None,1335.4106664999854,None,1335.9365645999787,None,1335.9365645999787,None,f,1.6954596999567002,1335.9365645999787,None,,,color4,001,2019_Nov_21_1551,ProdSingRedo,3.2.3,59.94273072559632,
,,,,19,0,19,0,,,,,,,,,,,,,,,,,,,,,,,,1343.1446387999458,None,,,,,,,,,,,,,,,,,still,silent,blue,19,72,304,1338.1819228999084,None,1338.1819228999084,None,1,2.898143899976276,1338.1819228999084,None,1341.121285000001,None,1341.6428899000166,None,1341.6428899000166,None,n,1.4772663000039756,1341.6428899000166,None,,,color4,001,2019_Nov_21_1551,ProdSingRedo,3.2.3,59.94273072559632,
,,,,20,0,20,0,,,,,,,,,,,,,,,,,,,,,,,,1348.7623520999914,None,,,,,,,,,,,,,,,,,foundation,new_sing,red,20,98,132,1343.6754194999812,None,1343.6754194999812,None,1,2.9166387000586838,1343.6754194999812,None,1346.6475322999759,None,1347.167008999968,None,1347.167008999968,None,n,1.5610317999962717,1347.167008999968,None,,,color4,001,2019_Nov_21_1551,ProdSingRedo,3.2.3,59.94273072559632,
,,,,21,0,21,0,,,,,,,,,,,,,,,,,,,,,,,,1355.6292856999207,None,,,,,,,,,,,,,,,,,worker,sing,red,21,8,356,1349.2898483999306,None,1349.2898483999306,None,4,4.462437900016084,1349.2898483999306,None,1353.7963201999664,None,1354.3187716999091,None,1354.3187716999091,None,f,1.2812840000260621,1354.3187716999091,None,,,color4,001,2019_Nov_21_1551,ProdSingRedo,3.2.3,59.94273072559632,
,,,,22,0,22,0,,,,,,,,,,,,,,,,,,,,,,,,1360.3461582999444,None,,,,,,,,,,,,,,,,,danger,aloud,yellow,22,57,85,1356.156551299966,None,1356.156551299966,None,5,2.4516312000341713,1356.156551299966,None,1358.658631599974,None,1359.18300249998,None,1359.18300249998,None,r,1.1290255999192595,1359.18300249998,None,,,color4,001,2019_Nov_21_1551,ProdSingRedo,3.2.3,59.94273072559632,
,,,,23,0,23,0,,,,,,,,,,,,,,,,,,,,,,,,1365.212956000003,None,,,,,,,,,,,,,,,,,congress,sing,red,23,2,67,1360.8726389999501,None,1360.8726389999501,None,6,2.263539999956265,1360.8726389999501,None,1363.1784902999643,None,1363.6975277999882,None,1363.6975277999882,None,r,1.48656710004434,1363.6975277999882,None,,,color4,001,2019_Nov_21_1551,ProdSingRedo,3.2.3,59.94273072559632,
,,,,24,0,24,0,,,,,,,,,,,,,,,,,,,,,,,,1370.5795729999663,None,,,,,,,,,,,,,,,,,under,new_aloud,yellow,24,125,343,1365.7360615999205,None,1365.7360615999205,None,1,3.120042599970475,1365.7360615999205,None,1368.893628599937,None,1369.4146141000092,None,1369.4146141000092,None,n,1.1294423000654206,1369.4146141000092,None,,,color4,001,2019_Nov_21_1551,ProdSingRedo,3.2.3,59.94273072559632,
,,,,25,0,25,0,,,,,,,,,,,,,,,,,,,,,,,,1375.3807268999517,None,,,,,,,,,,,,,,,,,principal,new_silent,blue,25,158,236,1371.1052778000012,None,1371.1052778000012,None,1,2.4787862999364734,1371.1052778000012,None,1373.6280059999553,None,1374.1498035999248,None,1374.1498035999248,None,n,1.202722099958919,1374.1498035999248,None,,,color4,001,2019_Nov_21_1551,ProdSingRedo,3.2.3,59.94273072559632,
,,,,26,0,26,0,,,,,,,,,,,,,,,,,,,,,,,,1382.1810927999904,None,,,,,,,,,,,,,,,,,smell,aloud,yellow,26,34,291,1375.9022149000084,None,1375.9022149000084,None,2,4.354015200049616,1375.9022149000084,None,1380.2884702999145,None,1380.7956191999838,None,1380.7956191999838,None,f,1.3565611999947578,1380.7956191999838,None,,,color4,001,2019_Nov_21_1551,ProdSingRedo,3.2.3,59.94273072559632,
,,,,27,0,27,0,,,,,,,,,,,,,,,,,,,,,,,,1387.3816724999342,None,,,,,,,,,,,,,,,,,member,new_sing,red,27,95,188,1382.7074600999476,None,1382.7074600999476,None,1,2.9086627999786288,1382.7074600999476,None,1385.6598088999745,None,1386.1850339999655,None,1386.1850339999655,None,n,1.1669886000454426,1386.1850339999655,None,,,color4,001,2019_Nov_21_1551,ProdSingRedo,3.2.3,59.94273072559632,
,,,,28,0,28,0,,,,,,,,,,,,,,,,,,,,,,,,1393.7990099999588,None,,,,,,,,,,,,,,,,,education,silent,blue,28,66,108,1387.9080807999708,None,1387.9080807999708,None,1,4.092011100030504,1387.9080807999708,None,1392.0487555,None,1392.5718619999243,None,1392.5718619999243,None,n,1.1963969999924302,1392.5718619999243,None,,,color4,001,2019_Nov_21_1551,ProdSingRedo,3.2.3,59.94273072559632,
,,,,29,0,29,0,,,,,,,,,,,,,,,,,,,,,,,,1399.1981085999869,None,,,,,,,,,,,,,,,,,course,sing,red,29,0,74,1394.3240569999907,None,1394.3240569999907,None,5,2.555982999969274,1394.3240569999907,None,1396.9317798999837,None,1397.4533356999746,None,1397.4533356999746,None,f,1.706784600042738,1397.4533356999746,None,,,color4,001,2019_Nov_21_1551,ProdSingRedo,3.2.3,59.94273072559632,
,,,,30,0,30,0,,,,,,,,,,,,,,,,,,,,,,,,1403.6158020999283,None,,,,,,,,,,,,,,,,,enemy,new_silent,blue,30,151,113,1399.7236044999445,None,1399.7236044999445,None,1,2.2444942999863997,1399.7236044999445,None,1402.0115421999944,None,1402.5329738999717,None,1402.5329738999717,None,n,1.0591203001094982,1402.5329738999717,None,,,color4,001,2019_Nov_21_1551,ProdSingRedo,3.2.3,59.94273072559632,
,,,,31,0,31,0,,,,,,,,,,,,,,,,,,,,,,,,1408.032816199935,None,,,,,,,,,,,,,,,,,victory,aloud,yellow,31,32,346,1404.145350900013,None,1404.145350900013,None,6,2.3828772000269964,1404.145350900013,None,1406.5823058999376,None,1407.1024508000119,None,1407.1024508000119,None,r,0.9057492000283673,1407.1024508000119,None,,,color4,001,2019_Nov_21_1551,ProdSingRedo,3.2.3,59.94273072559632,
,,,,32,0,32,0,,,,,,,,,,,,,,,,,,,,,,,,1411.733067199937,None,,,,,,,,,,,,,,,,,tennis,aloud,yellow,32,43,323,1408.5566960999276,None,1408.5566960999276,None,6,1.6913272000383586,1408.5566960999276,None,1410.2898256999906,None,1410.7996934999246,None,1410.7996934999246,None,r,0.9043778999475762,1410.7996934999246,None,,,color4,001,2019_Nov_21_1551,ProdSingRedo,3.2.3,59.94273072559632,
,,,,33,0,33,0,,,,,,,,,,,,,,,,,,,,,,,,1417.8167379999068,None,,,,,,,,,,,,,,,,,partner,new_sing,red,33,113,211,1412.25861229992,None,1412.25861229992,None,2,3.7654703999869525,1412.25861229992,None,1416.0654345999938,None,1416.5882334999042,None,1416.5882334999042,None,n,1.1958849999355152,1416.5882334999042,None,,,color4,001,2019_Nov_21_1551,ProdSingRedo,3.2.3,59.94273072559632,
,,,,34,0,34,0,,,,,,,,,,,,,,,,,,,,,,,,1422.3830816999543,None,,,,,,,,,,,,,,,,,majority,new_silent,blue,34,179,176,1418.3535573999397,None,1418.3535573999397,None,1,2.5746019000653177,1418.3535573999397,None,1420.9781446999405,None,1421.505358299939,None,1421.505358299939,None,n,0.838810299988836,1421.505358299939,None,,,color4,001,2019_Nov_21_1551,ProdSingRedo,3.2.3,59.94273072559632,
,,,,35,0,35,0,,,,,,,,,,,,,,,,,,,,,,,,1427.1840412999736,None,,,,,,,,,,,,,,,,,private,new_sing,red,35,109,237,1422.9114326999988,None,1422.9114326999988,None,1,3.0566951000364497,1422.9114326999988,None,1426.0128901000135,None,1426.5391538999975,None,1426.5391538999975,None,n,0.6129617000697181,1426.5391538999975,None,,,color4,001,2019_Nov_21_1551,ProdSingRedo,3.2.3,59.94273072559632,
,,,,36,0,36,0,,,,,,,,,,,,,,,,,,,,,,,,1433.219235699973,None,,,,,,,,,,,,,,,,,candidate,new_aloud,yellow,36,126,39,1427.7133668999886,None,1427.7133668999886,None,4,3.9190148999914527,1427.7133668999886,None,1431.6816682999488,None,1432.2066432000138,None,1432.2066432000138,None,f,0.9855678000021726,1432.2066432000138,None,,,color4,001,2019_Nov_21_1551,ProdSingRedo,3.2.3,59.94273072559632,
,,,,37,0,37,0,,,,,,,,,,,,,,,,,,,,,,,,1439.3349204999395,None,,,,,,,,,,,,,,,,,dance,sing,red,37,23,84,1433.7444461999694,None,1433.7444461999694,None,1,2.7196720000356436,1433.7444461999694,None,1436.5151763999602,None,1437.0364784999983,None,1437.0364784999983,None,n,2.2678291000192985,1437.0364784999983,None,,,color4,001,2019_Nov_21_1551,ProdSingRedo,3.2.3,59.94273072559632,
,,,,38,0,38,0,,,,,,,,,,,,,,,,,,,,,,,,1444.219660499948,None,,,,,,,,,,,,,,,,,colonel,new_silent,blue,38,161,55,1439.85760019999,None,1439.85760019999,None,1,2.9744755000574514,1439.85760019999,None,1442.8739382999483,None,1443.387172000017,None,1443.387172000017,None,n,0.8049769999925047,1443.387172000017,None,,,color4,001,2019_Nov_21_1551,ProdSingRedo,3.2.3,59.94273072559632,
,,,,39,0,39,0,,,,,,,,,,,,,,,,,,,,,,,,1448.585487299948,None,,,,,,,,,,,,,,,,,defeat,new_silent,blue,39,169,88,1444.7458578000078,None,1444.7458578000078,None,1,2.4464122999925166,1444.7458578000078,None,1447.2364307999378,None,1447.7559332000092,None,1447.7559332000092,None,n,0.7962056000251323,1447.7559332000092,None,,,color4,001,2019_Nov_21_1551,ProdSingRedo,3.2.3,59.94273072559632,
,,,,40,0,40,0,,,,,,,,,,,,,,,,,,,,,,,,1454.2026829000097,None,,,,,,,,,,,,,,,,,little,silent,blue,40,82,174,1449.109812599956,None,1449.109812599956,None,1,3.322338599944487,1449.109812599956,None,1452.474509499967,None,1452.9857291999506,None,1452.9857291999506,None,n,1.1906148999696597,1452.9857291999506,None,,,color4,001,2019_Nov_21_1551,ProdSingRedo,3.2.3,59.94273072559632,
,,,,41,0,41,0,,,,,,,,,,,,,,,,,,,,,,,,1459.986444399925,None,,,,,,,,,,,,,,,,,pressure,new_aloud,yellow,41,149,232,1454.7288314999314,None,1454.7288314999314,None,1,4.4072500000474975,1454.7288314999314,None,1459.1859055999666,None,1459.7055962999584,None,1459.7055962999584,None,n,0.25456079992000014,1459.7055962999584,None,,,color4,001,2019_Nov_21_1551,ProdSingRedo,3.2.3,59.94273072559632,
,,,,42,0,42,0,,,,,,,,,,,,,,,,,,,,,,,,1465.419253299944,None,,,,,,,,,,,,,,,,,skill,new_silent,blue,42,155,289,1460.508978299913,None,1460.508978299913,None,5,2.77920540003106,1460.508978299913,None,1463.3346208999865,None,1463.8546923999675,None,1463.8546923999675,None,r,1.5294737999793142,1463.8546923999675,None,,,color4,001,2019_Nov_21_1551,ProdSingRedo,3.2.3,59.94273072559632,
,,,,43,0,43,0,,,,,,,,,,,,,,,,,,,,,,,,1469.8126729999203,None,,,,,,,,,,,,,,,,,provision,aloud,yellow,43,52,243,1465.9493025999982,None,1465.9493025999982,None,1,2.979001000057906,1465.9493025999982,None,1468.9680613999953,None,1469.490540199913,None,1469.490540199913,None,n,0.28579490003176033,1469.490540199913,None,,,color4,001,2019_Nov_21_1551,ProdSingRedo,3.2.3,59.94273072559632,
,,,,44,0,44,0,,,,,,,,,,,,,,,,,,,,,,,,1474.2464839000022,None,,,,,,,,,,,,,,,,,swift,aloud,yellow,44,55,320,1470.3331541999942,None,1470.3331541999942,None,1,3.2669655000790954,1470.3331541999942,None,1473.648944000015,None,1474.1764694999438,None,1474.1764694999438,None,n,0.039478000020608306,1474.1764694999438,None,,,color4,001,2019_Nov_21_1551,ProdSingRedo,3.2.3,59.94273072559632,
,,,,45,0,45,0,,,,,,,,,,,,,,,,,,,,,,,,1478.3542397000128,None,,,,,,,,,,,,,,,,,dispute,aloud,yellow,45,39,99,1474.7642232999206,None,1474.7642232999206,None,6,1.8679299999494106,1474.7642232999206,None,1476.6854956999887,None,1477.2056720999535,None,1477.2056720999535,None,r,1.1224985999288037,1477.2056720999535,None,,,color4,001,2019_Nov_21_1551,ProdSingRedo,3.2.3,59.94273072559632,
,,,,46,0,46,0,,,,,,,,,,,,,,,,,,,,,,,,1482.1041726999683,None,,,,,,,,,,,,,,,,,union,new_aloud,yellow,46,129,344,1478.8775985999964,None,1478.8775985999964,None,1,1.8993955000769347,1478.8775985999964,None,1480.8162775000092,None,1481.338566099992,None,1481.338566099992,None,n,0.7414957999717444,1481.338566099992,None,,,color4,001,2019_Nov_21_1551,ProdSingRedo,3.2.3,59.94273072559632,
,,,,47,0,47,0,,,,,,,,,,,,,,,,,,,,,,,,1487.6541508999653,None,,,,,,,,,,,,,,,,,property,silent,blue,47,76,242,1482.6362042999826,None,1482.6362042999826,None,4,3.0838776000309736,1482.6362042999826,None,1485.7672747999895,None,1486.2895599999465,None,1486.2895599999465,None,f,1.3266050999518484,1486.2895599999465,None,,,color4,001,2019_Nov_21_1551,ProdSingRedo,3.2.3,59.94273072559632,
,,,,48,0,48,0,,,,,,,,,,,,,,,,,,,,,,,,1491.9233740000054,None,,,,,,,,,,,,,,,,,husband,aloud,yellow,48,40,156,1488.1866347999312,None,1488.1866347999312,None,6,1.9095878000371158,1488.1866347999312,None,1490.1423839000054,None,1490.6686740999576,None,1490.6686740999576,None,r,1.2274898000760004,1490.6686740999576,None,,,color4,001,2019_Nov_21_1551,ProdSingRedo,3.2.3,59.94273072559632,
,,,,49,0,49,0,,,,,,,,,,,,,,,,,,,,,,,,1498.388165500015,None,,,,,,,,,,,,,,,,,group,aloud,yellow,49,37,143,1492.449148099986,None,1492.449148099986,None,5,4.895781500032172,1492.449148099986,None,1497.3814585999353,None,1497.908382799942,None,1497.908382799942,None,r,0.4437516999896616,1497.908382799942,None,,,color4,001,2019_Nov_21_1551,ProdSingRedo,3.2.3,59.94273072559632,
,,,,50,0,50,0,,,,,,,,,,,,,,,,,,,,,,,,1501.3058473999845,None,,,,,,,,,,,,,,,,,hearing,new_aloud,yellow,50,136,150,1498.911738900002,None,1498.911738900002,None,1,1.480507499887608,1498.911738900002,None,1500.4398041999666,None,1500.9610767000122,None,1500.9610767000122,None,n,0.31102859997190535,1500.9610767000122,None,,,color4,001,2019_Nov_21_1551,ProdSingRedo,3.2.3,59.94273072559632,
,,,,51,0,51,0,,,,,,,,,,,,,,,,,,,,,,,,1505.0221133999294,None,,,,,,,,,,,,,,,,,height,new_silent,blue,51,163,152,1501.8313882999355,None,1501.8313882999355,None,1,2.4247521000215784,1501.8313882999355,None,1504.3034594999626,None,1504.826425999985,None,1504.826425999985,None,n,0.15765029995236546,1504.826425999985,None,,,color4,001,2019_Nov_21_1551,ProdSingRedo,3.2.3,59.94273072559632,
,,,,52,0,52,0,,,,,,,,,,,,,,,,,,,,,,,,1508.339646999957,None,,,,,,,,,,,,,,,,,shear,new_aloud,yellow,52,148,283,1505.5541667999933,None,1505.5541667999933,None,1,2.0299867000430822,1505.5541667999933,None,1507.6353668000083,None,1508.157899199985,None,1508.157899199985,None,n,0.15457170002628118,1508.157899199985,None,,,color4,001,2019_Nov_21_1551,ProdSingRedo,3.2.3,59.94273072559632,
,,,,53,0,53,0,,,,,,,,,,,,,,,,,,,,,,,,1513.3558987999568,None,,,,,,,,,,,,,,,,,touch,aloud,yellow,53,46,332,1508.8637470999965,None,1508.8637470999965,None,1,2.99238339997828,1508.8637470999965,None,1511.8999604999553,None,1512.4280428999336,None,1512.4280428999336,None,n,0.8920687000500038,1512.4280428999336,None,,,color4,001,2019_Nov_21_1551,ProdSingRedo,3.2.3,59.94273072559632,
,,,,54,0,54,0,,,,,,,,,,,,,,,,,,,,,,,,1517.9896422999445,None,,,,,,,,,,,,,,,,,suspect,sing,red,54,3,318,1513.8845081999898,None,1513.8845081999898,None,5,3.3795798000646755,1513.8845081999898,None,1517.300225899904,None,1517.8261342999758,None,1517.8261342999758,None,f,0.12595509993843734,1517.8261342999758,None,,,color4,001,2019_Nov_21_1551,ProdSingRedo,3.2.3,59.94273072559632,
,,,,55,0,55,0,,,,,,,,,,,,,,,,,,,,,,,,1521.7415588999866,None,,,,,,,,,,,,,,,,,phrase,aloud,yellow,55,54,220,1518.516871299944,None,1518.516871299944,None,1,2.227226199931465,1518.516871299944,None,1520.7830494999653,None,1521.309773499961,None,1521.309773499961,None,n,0.4028690999839455,1521.309773499961,None,,,color4,001,2019_Nov_21_1551,ProdSingRedo,3.2.3,59.94273072559632,
,,,,56,0,56,0,,,,,,,,,,,,,,,,,,,,,,,,1527.2175428000046,None,,,,,,,,,,,,,,,,,escape,new_sing,red,56,112,118,1522.2659500999143,None,1522.2659500999143,None,2,4.3022117000073195,1522.2659500999143,None,1526.622058799956,None,1527.1414995999075,None,1527.1414995999075,None,n,0.05852680001407862,1527.1414995999075,None,,,color4,001,2019_Nov_21_1551,ProdSingRedo,3.2.3,59.94273072559632,
,,,,57,0,57,0,,,,,,,,,,,,,,,,,,,,,,,,1530.3411074000178,None,,,,,,,,,,,,,,,,,murder,new_sing,red,57,108,195,1527.7475556000136,None,1527.7475556000136,None,1,1.9167109000263736,1527.7475556000136,None,1529.7084080999484,None,1530.2248516000109,None,1530.2248516000109,None,n,0.08729339996352792,1530.2248516000109,None,,,color4,001,2019_Nov_21_1551,ProdSingRedo,3.2.3,59.94273072559632,
,,,,58,0,58,0,,,,,,,,,,,,,,,,,,,,,,,,1533.771879500011,None,,,,,,,,,,,,,,,,,fight,new_sing,red,58,117,127,1530.8619946999243,None,1530.8619946999243,None,1,1.922120500006713,1530.8619946999243,None,1532.82336629997,None,1533.3438076999737,None,1533.3438076999737,None,n,0.4003759999759495,1533.3438076999737,None,,,color4,001,2019_Nov_21_1551,ProdSingRedo,3.2.3,59.94273072559632,
,,,,59,0,59,0,,,,,,,,,,,,,,,,,,,,,,,,1537.8595515999477,None,,,,,,,,,,,,,,,,,weather,new_sing,red,59,116,352,1534.301671299967,None,1534.301671299967,None,2,2.866411800030619,1534.301671299967,None,1537.21423459996,None,1537.7279925999464,None,1537.7279925999464,None,f,0.10446110006887466,1537.7279925999464,None,,,color4,001,2019_Nov_21_1551,ProdSingRedo,3.2.3,59.94273072559632,
,,,,60,0,60,0,,,,,,,,,,,,,,,,,,,,,,,,1541.791849299916,None,,,,,,,,,,,,,,,,,testimony,sing,red,60,19,325,1538.3840487999842,None,1538.3840487999842,None,6,2.2322250999277458,1538.3840487999842,None,1540.6566252999473,None,1541.1760660000145,None,1541.1760660000145,None,f,0.5841078999219462,1541.1760660000145,None,,,color4,001,2019_Nov_21_1551,ProdSingRedo,3.2.3,59.94273072559632,
,,,,61,0,61,0,,,,,,,,,,,,,,,,,,,,,,,,1546.1247891999083,None,,,,,,,,,,,,,,,,,guard,new_aloud,yellow,61,138,145,1542.316606999957,None,1542.316606999957,None,1,1.9234856999246404,1542.316606999957,None,1544.2889035999542,None,1544.8073116999585,None,1544.8073116999585,None,n,1.2808587999315932,1544.8073116999585,None,,,color4,001,2019_Nov_21_1551,ProdSingRedo,3.2.3,59.94273072559632,
,,,,62,0,62,0,,,,,,,,,,,,,,,,,,,,,,,,1551.6927752000047,None,,,,,,,,,,,,,,,,,cover,silent,blue,62,87,77,1546.6524017999182,None,1546.6524017999182,None,2,3.819778800010681,1546.6524017999182,None,1550.5239557999885,None,1551.0439562000101,None,1551.0439562000101,None,n,0.6208683999720961,1551.0439562000101,None,,,color4,001,2019_Nov_21_1551,ProdSingRedo,3.2.3,59.94273072559632,
,,,,63,0,63,0,,,,,,,,,,,,,,,,,,,,,,,,1554.9750083999243,None,,,,,,,,,,,,,,,,,broad,aloud,yellow,63,51,31,1552.2176791999955,None,1552.2176791999955,None,6,1.6064363999757916,1552.2176791999955,None,1553.8766072000144,None,1554.3971842000028,None,1554.3971842000028,None,r,0.5391074999934062,1554.3971842000028,None,,,color4,001,2019_Nov_21_1551,ProdSingRedo,3.2.3,59.94273072559632,
,,,,64,0,64,0,,,,,,,,,,,,,,,,,,,,,,,,1560.8941766999196,None,,,,,,,,,,,,,,,,,ground,new_sing,red,64,118,142,1555.5054833999602,None,1555.5054833999602,None,1,3.4145962999900803,1555.5054833999602,None,1558.9744185999734,None,1559.495912399958,None,1559.495912399958,None,n,1.3682343000546098,1559.495912399958,None,,,color4,001,2019_Nov_21_1551,ProdSingRedo,3.2.3,59.94273072559632,
,,,,65,0,65,0,,,,,,,,,,,,,,,,,,,,,,,,1566.3113294999348,None,,,,,,,,,,,,,,,,,personnel,sing,red,65,25,219,1561.4158564999234,None,1561.4158564999234,None,6,3.6882793999975547,1561.4158564999234,None,1565.1566064999206,None,1565.6767795999767,None,1565.6767795999767,None,r,0.6033752999501303,1565.6767795999767,None,,,color4,001,2019_Nov_21_1551,ProdSingRedo,3.2.3,59.94273072559632,
,,,,66,0,66,0,,,,,,,,,,,,,,,,,,,,,,,,1570.1269963999512,None,,,,,,,,,,,,,,,,,south,new_silent,blue,66,172,296,1566.8311948999763,None,1566.8311948999763,None,1,2.3049347000196576,1566.8311948999763,None,1569.1758142999606,None,1569.6954758999636,None,1569.6954758999636,None,n,0.400723599945195,1569.6954758999636,None,,,color4,001,2019_Nov_21_1551,ProdSingRedo,3.2.3,59.94273072559632,
,,,,67,0,67,0,,,,,,,,,,,,,,,,,,,,,,,,1575.077042699908,None,,,,,,,,,,,,,,,,,damage,silent,blue,67,70,83,1570.6445531999925,None,1570.6445531999925,None,4,3.403651800006628,1570.6445531999925,None,1574.0909068000037,None,1574.615563099971,None,1574.615563099971,None,f,0.4246271000010893,1574.615563099971,None,,,color4,001,2019_Nov_21_1551,ProdSingRedo,3.2.3,59.94273072559632,
,,,,68,0,68,0,,,,,,,,,,,,,,,,,,,,,,,,1579.245001800009,None,,,,,,,,,,,,,,,,,second,aloud,yellow,68,59,278,1575.600429699989,None,1575.600429699989,None,6,2.9117143000476062,1575.600429699989,None,1578.554415499908,None,1579.0771194999106,None,1579.0771194999106,None,r,0.13954999996349216,1579.0771194999106,None,,,color4,001,2019_Nov_21_1551,ProdSingRedo,3.2.3,59.94273072559632,
,,,,69,0,69,0,,,,,,,,,,,,,,,,,,,,,,,,1583.1765261999099,None,,,,,,,,,,,,,,,,,dozen,new_silent,blue,69,152,102,1579.7762232999085,None,1579.7762232999085,None,1,2.3678962000412866,1579.7762232999085,None,1582.1963999000145,None,1582.7130525999237,None,1582.7130525999237,None,n,0.4390983999473974,1582.7130525999237,None,,,color4,001,2019_Nov_21_1551,ProdSingRedo,3.2.3,59.94273072559632,
,,,,70,0,70,0,,,,,,,,,,,,,,,,,,,,,,,,1587.0627831999445,None,,,,,,,,,,,,,,,,,instrument,aloud,yellow,70,35,163,1583.7052434999496,None,1583.7052434999496,None,6,2.5428519000997767,1583.7052434999496,None,1586.294470099965,None,1586.8162549999543,None,1586.8162549999543,None,r,0.21587849990464747,1586.8162549999543,None,,,color4,001,2019_Nov_21_1551,ProdSingRedo,3.2.3,59.94273072559632,
,,,,71,0,71,0,,,,,,,,,,,,,,,,,,,,,,,,1594.3287690000143,None,,,,,,,,,,,,,,,,,voice,new_silent,blue,71,175,348,1587.5864296999061,None,1587.5864296999061,None,2,5.021775000030175,1587.5864296999061,None,1592.657977499999,None,1593.1795225999085,None,1593.1795225999085,None,f,1.1246173999970779,1593.1795225999085,None,,,color4,001,2019_Nov_21_1551,ProdSingRedo,3.2.3,59.94273072559632,
,,,,72,0,72,0,,,,,,,,,,,,,,,,,,,,,,,,1597.7299356999574,None,,,,,,,,,,,,,,,,,beauty,new_aloud,yellow,72,140,18,1594.856145299971,None,1594.856145299971,None,1,1.8880507999565452,1594.856145299971,None,1596.7983838999644,None,1597.3174680999946,None,1597.3174680999946,None,n,0.37860170006752014,1597.3174680999946,None,,,color4,001,2019_Nov_21_1551,ProdSingRedo,3.2.3,59.94273072559632,
,,,,73,0,73,0,,,,,,,,,,,,,,,,,,,,,,,,1601.7960340999998,None,,,,,,,,,,,,,,,,,short,new_silent,blue,73,171,285,1598.2497714000056,None,1598.2497714000056,None,1,2.782584000029601,1598.2497714000056,None,1601.0736264999723,None,1601.5937492999947,None,1601.5937492999947,None,n,0.17487019998952746,1601.5937492999947,None,,,color4,001,2019_Nov_21_1551,ProdSingRedo,3.2.3,59.94273072559632,
,,,,74,0,74,0,,,,,,,,,,,,,,,,,,,,,,,,1606.7464079000056,None,,,,,,,,,,,,,,,,,dream,silent,blue,74,83,104,1602.3232804000145,None,1602.3232804000145,None,4,3.7811264999909326,1602.3232804000145,None,1606.144154299982,None,1606.6642400999554,None,1606.6642400999554,None,f,0.05595990002620965,1606.6642400999554,None,,,color4,001,2019_Nov_21_1551,ProdSingRedo,3.2.3,59.94273072559632,
,,,,75,0,75,0,,,,,,,,,,,,,,,,,,,,,,,,1610.3630438999971,None,,,,,,,,,,,,,,,,,engineer,new_silent,blue,75,168,114,1607.2691741000162,None,1607.2691741000162,None,1,2.426939900033176,1607.2691741000162,None,1609.7482863999903,None,1610.2667857999913,None,1610.2667857999913,None,n,0.06949600006919354,1610.2667857999913,None,,,color4,001,2019_Nov_21_1551,ProdSingRedo,3.2.3,59.94273072559632,
,,,,76,0,76,0,,,,,,,,,,,,,,,,,,,,,,,,1613.9794613999547,None,,,,,,,,,,,,,,,,,machinery,new_sing,red,76,114,175,1610.8904053999577,None,1610.8904053999577,None,1,2.373754500062205,1610.8904053999577,None,1613.3123894999735,None,1613.8340277000098,None,1613.8340277000098,None,n,0.11014599993359298,1613.8340277000098,None,,,color4,001,2019_Nov_21_1551,ProdSingRedo,3.2.3,59.94273072559632,
,,,,77,0,77,0,,,,,,,,,,,,,,,,,,,,,,,,1618.39590220002,None,,,,,,,,,,,,,,,,,chief,new_sing,red,77,115,48,1614.501152599929,None,1614.501152599929,None,1,3.187128799967468,1614.501152599929,None,1617.7272520000115,None,1618.2471740000183,None,1618.2471740000183,None,n,0.11309140000957996,1618.2471740000183,None,,,color4,001,2019_Nov_21_1551,ProdSingRedo,3.2.3,59.94273072559632,
,,,,78,0,78,0,,,,,,,,,,,,,,,,,,,,,,,,1623.698441799963,None,,,,,,,,,,,,,,,,,month,new_sing,red,78,106,193,1618.9176834999816,None,1618.9176834999816,None,2,3.2028158000903204,1618.9176834999816,None,1622.1534392000176,None,1622.6635474999202,None,1622.6635474999202,None,n,1.0005984000163153,1622.6635474999202,None,,,color4,001,2019_Nov_21_1551,ProdSingRedo,3.2.3,59.94273072559632,
,,,,79,0,79,0,,,,,,,,,,,,,,,,,,,,,,,,1629.9311175999464,None,,,,,,,,,,,,,,,,,meeting,new_silent,blue,79,154,187,1624.2219778000144,None,1624.2219778000144,None,1,5.010129300062545,1624.2219778000144,None,1629.2784511999926,None,1629.7995807999978,None,1629.7995807999978,None,n,0.09670820005703717,1629.7995807999978,None,,,color4,001,2019_Nov_21_1551,ProdSingRedo,3.2.3,59.94273072559632,
,,,,80,0,80,0,,,,,,,,,,,,,,,,,,,,,,,,1636.131766699953,None,,,,,,,,,,,,,,,,,trend,silent,blue,80,63,340,1630.4528896999545,None,1630.4528896999545,None,4,3.403391700005159,1630.4528896999545,None,1633.8920571999624,None,1634.4128975999774,None,1634.4128975999774,None,f,1.6916087000863627,1634.4128975999774,None,,,color4,001,2019_Nov_21_1551,ProdSingRedo,3.2.3,59.94273072559632,
,,,,81,0,81,0,,,,,,,,,,,,,,,,,,,,,,,,1641.014737999998,None,,,,,,,,,,,,,,,,,break,new_aloud,yellow,81,147,26,1636.6591959999641,None,1636.6591959999641,None,1,3.1889590999344364,1636.6591959999641,None,1639.8991096999962,None,1640.4178915999364,None,1640.4178915999364,None,n,0.566332699963823,1640.4178915999364,None,,,color4,001,2019_Nov_21_1551,ProdSingRedo,3.2.3,59.94273072559632,
,,,,82,0,82,0,,,,,,,,,,,,,,,,,,,,,,,,1645.4321605999721,None,,,,,,,,,,,,,,,,,blind,silent,blue,82,86,24,1641.5391727999086,None,1641.5391727999086,None,1,2.3889942000387236,1641.5391727999086,None,1643.97750119993,None,1644.4994571999414,None,1644.4994571999414,None,n,0.9087428000057116,1644.4994571999414,None,,,color4,001,2019_Nov_21_1551,ProdSingRedo,3.2.3,59.94273072559632,
,,,,83,0,83,0,,,,,,,,,,,,,,,,,,,,,,,,1651.0335907000117,None,,,,,,,,,,,,,,,,,brilliant,silent,blue,83,88,30,1645.9629345999565,None,1645.9629345999565,None,1,3.957269600010477,1645.9629345999565,None,1649.968374799937,None,1650.4874895999674,None,1650.4874895999674,None,n,0.5205813000211492,1650.4874895999674,None,,,color4,001,2019_Nov_21_1551,ProdSingRedo,3.2.3,59.94273072559632,
,,,,84,0,84,0,,,,,,,,,,,,,,,,,,,,,,,,1655.3498214000138,None,,,,,,,,,,,,,,,,,atmosphere,sing,red,84,21,12,1651.560784399975,None,1651.560784399975,None,5,2.703358000027947,1651.560784399975,None,1654.3102744999342,None,1654.8353461999213,None,1654.8353461999213,None,f,0.4847981999628246,1654.8353461999213,None,,,color4,001,2019_Nov_21_1551,ProdSingRedo,3.2.3,59.94273072559632,
,,,,85,0,85,0,,,,,,,,,,,,,,,,,,,,,,,,1662.4001043000026,None,,,,,,,,,,,,,,,,,shape,new_sing,red,85,91,282,1655.8707216000184,None,1655.8707216000184,None,4,4.057251700083725,1655.8707216000184,None,1659.9664271000074,None,1660.4756087999558,None,1660.4756087999558,None,f,1.8926493000471964,1660.4756087999558,None,,,color4,001,2019_Nov_21_1551,ProdSingRedo,3.2.3,59.94273072559632,
,,,,86,0,86,0,,,,,,,,,,,,,,,,,,,,,,,,1667.5997579999967,None,,,,,,,,,,,,,,,,,patient,new_silent,blue,86,159,213,1662.9221525000175,None,1662.9221525000175,None,5,3.1900779000716284,1662.9221525000175,None,1666.1651874999516,None,1666.6863232000032,None,1666.6863232000032,None,f,0.8739274000981823,1666.6863232000032,None,,,color4,001,2019_Nov_21_1551,ProdSingRedo,3.2.3,59.94273072559632,
,,,,87,0,87,0,,,,,,,,,,,,,,,,,,,,,,,,1671.300704299938,None,,,,,,,,,,,,,,,,,clear,new_sing,red,87,99,52,1668.125839299988,None,1668.125839299988,None,1,2.1544248000718653,1668.125839299988,None,1670.3290130000096,None,1670.8533845999045,None,1670.8533845999045,None,n,0.4194226999534294,1670.8533845999045,None,,,color4,001,2019_Nov_21_1551,ProdSingRedo,3.2.3,59.94273072559632,
,,,,88,0,88,0,,,,,,,,,,,,,,,,,,,,,,,,1675.1358076999895,None,,,,,,,,,,,,,,,,,marriage,aloud,yellow,88,41,179,1671.827090299921,None,1671.827090299921,None,5,2.365321999997832,1671.827090299921,None,1674.234680499998,None,1674.7589684999548,None,1674.7589684999548,None,r,0.34524930000770837,1674.7589684999548,None,,,color4,001,2019_Nov_21_1551,ProdSingRedo,3.2.3,59.94273072559632,
,,,,89,0,89,0,,,,,,,,,,,,,,,,,,,,,,,,1681.6513742000097,None,,,,,,,,,,,,,,,,,citizen,new_aloud,yellow,89,128,50,1675.6607764000073,None,1675.6607764000073,None,1,4.371727499994449,1675.6607764000073,None,1680.0795070999302,None,1680.6041311000008,None,1680.6041311000008,None,n,1.0120110999559984,1680.6041311000008,None,,,color4,001,2019_Nov_21_1551,ProdSingRedo,3.2.3,59.94273072559632,
,,,,90,0,90,0,,,,,,,,,,,,,,,,,,,,,,,,1686.9010475999676,None,,,,,,,,,,,,,,,,,owner,aloud,yellow,90,45,208,1682.1785817999626,None,1682.1785817999626,None,5,2.9335728998994455,1682.1785817999626,None,1685.166345699923,None,1685.6852415999165,None,1685.6852415999165,None,f,1.179018500028178,1685.6852415999165,None,,,color4,001,2019_Nov_21_1551,ProdSingRedo,3.2.3,59.94273072559632,
,,,,91,0,91,0,,,,,,,,,,,,,,,,,,,,,,,,1691.3513525999151,None,,,,,,,,,,,,,,,,,election,new_aloud,yellow,91,142,109,1687.4233228999656,None,1687.4233228999656,None,2,3.02493069996126,1687.4233228999656,None,1690.491937899962,None,1691.0139506999403,None,1691.0139506999403,None,n,0.298341799993068,1691.0139506999403,None,,,color4,001,2019_Nov_21_1551,ProdSingRedo,3.2.3,59.94273072559632,
,,,,92,0,92,0,,,,,,,,,,,,,,,,,,,,,,,,1697.8879851999227,None,,,,,,,,,,,,,,,,,budget,sing,red,92,20,34,1691.8812480999622,None,1691.8812480999622,None,2,4.766972699901089,1691.8812480999622,None,1696.6994399999967,None,1697.2243780000135,None,1697.2243780000135,None,f,0.6317983000772074,1697.2243780000135,None,,,color4,001,2019_Nov_21_1551,ProdSingRedo,3.2.3,59.94273072559632,
,,,,93,0,93,0,,,,,,,,,,,,,,,,,,,,,,,,1700.7525471999543,None,,,,,,,,,,,,,,,,,drove,new_aloud,yellow,93,141,106,1698.4134275999386,None,1698.4134275999386,None,1,1.5547251999378204,1698.4134275999386,None,1700.0181753999786,None,1700.5367291999282,None,1700.5367291999282,None,n,0.18347789999097586,1700.5367291999282,None,,,color4,001,2019_Nov_21_1551,ProdSingRedo,3.2.3,59.94273072559632,
,,,,94,0,94,0,,,,,,,,,,,,,,,,,,,,,,,,1705.8522846999113,None,,,,,,,,,,,,,,,,,center,silent,blue,94,60,44,1701.2742634000024,None,1701.2742634000024,None,4,3.5740634999237955,1701.2742634000024,None,1704.8984371999977,None,1705.4164633000037,None,1705.4164633000037,None,f,0.39972190000116825,1705.4164633000037,None,,,color4,001,2019_Nov_21_1551,ProdSingRedo,3.2.3,59.94273072559632,
,,,,95,0,95,0,,,,,,,,,,,,,,,,,,,,,,,,1709.670095999958,None,,,,,,,,,,,,,,,,,rapid,new_silent,blue,95,167,252,1706.3796903999755,None,1706.3796903999755,None,1,2.124551600078121,1706.3796903999755,None,1708.5483181999298,None,1709.0714137000032,None,1709.0714137000032,None,n,0.568747999961488,1709.0714137000032,None,,,color4,001,2019_Nov_21_1551,ProdSingRedo,3.2.3,59.94273072559632,
,,,,96,0,96,0,,,,,,,,,,,,,,,,,,,,,,,,1714.7369354999391,None,,,,,,,,,,,,,,,,,concern,silent,blue,96,67,65,1710.1916429999983,None,1710.1916429999983,None,5,3.472630000091158,1710.1916429999983,None,1713.7100132999476,None,1714.220174799906,None,1714.220174799906,None,f,0.49212499998975545,1714.220174799906,None,,,color4,001,2019_Nov_21_1551,ProdSingRedo,3.2.3,59.94273072559632,
,,,,97,0,97,0,,,,,,,,,,,,,,,,,,,,,,,,1718.8372489999747,None,,,,,,,,,,,,,,,,,council,sing,red,97,17,71,1715.26310500002,None,1715.26310500002,None,5,2.681200599996373,1715.26310500002,None,1717.986063499935,None,1718.5051915999502,None,1718.5051915999502,None,r,0.30305370001588017,1718.5051915999502,None,,,color4,001,2019_Nov_21_1551,ProdSingRedo,3.2.3,59.94273072559632,
,,,,98,0,98,0,,,,,,,,,,,,,,,,,,,,,,,,1723.8369477000087,None,,,,,,,,,,,,,,,,,figure,silent,blue,98,68,128,1719.3644074000185,None,1719.3644074000185,None,1,2.81235799996648,1719.3644074000185,None,1722.2206833999371,None,1722.7379587999312,None,1722.7379587999312,None,n,1.0623415000736713,1722.7379587999312,None,,,color4,001,2019_Nov_21_1551,ProdSingRedo,3.2.3,59.94273072559632,
,,,,99,0,99,0,,,,,,,,,,,,,,,,,,,,,,,,1728.6706221000059,None,,,,,,,,,,,,,,,,,store,silent,blue,99,78,305,1724.358210299979,None,1724.358210299979,None,1,3.2260360999498516,1724.358210299979,None,1727.6273173999507,None,1728.13607639994,None,1728.13607639994,None,n,0.49616450001485646,1728.13607639994,None,,,color4,001,2019_Nov_21_1551,ProdSingRedo,3.2.3,59.94273072559632,
,,,,100,0,100,0,,,,,,,,,,,,,,,,,,,,,,,,1733.3866905999603,None,,,,,,,,,,,,,,,,,direction,new_aloud,yellow,100,137,94,1729.1909970999695,None,1729.1909970999695,None,1,3.0812295000068843,1729.1909970999695,None,1732.311549999984,None,1732.822509199963,None,1732.822509199963,None,n,0.5383205999387428,1732.822509199963,None,,,color4,001,2019_Nov_21_1551,ProdSingRedo,3.2.3,59.94273072559632,
,,,,101,0,101,0,,,,,,,,,,,,,,,,,,,,,,,,1742.3718765999656,None,,,,,,,,,,,,,,,,,health,sing,red,101,26,149,1733.914601599914,None,1733.914601599914,None,2,6.830070600030012,1733.914601599914,None,1740.788089599926,None,1741.3065279999282,None,1741.3065279999282,None,f,1.0384455000748858,1741.3065279999282,None,,,color4,001,2019_Nov_21_1551,ProdSingRedo,3.2.3,59.94273072559632,
,,,,102,0,102,0,,,,,,,,,,,,,,,,,,,,,,,,1746.9717522999272,None,,,,,,,,,,,,,,,,,account,new_silent,blue,102,176,1,1742.9015693999827,None,1742.9015693999827,None,1,2.962756900000386,1742.9015693999827,None,1745.8999503999949,None,1746.4293431999395,None,1746.4293431999395,None,n,0.506870900047943,1746.4293431999395,None,,,color4,001,2019_Nov_21_1551,ProdSingRedo,3.2.3,59.94273072559632,
,,,,103,0,103,0,,,,,,,,,,,,,,,,,,,,,,,,1750.9055815999163,None,,,,,,,,,,,,,,,,,raise,silent,blue,103,71,250,1747.4981188999955,None,1747.4981188999955,None,4,2.0620517000788823,1747.4981188999955,None,1749.6039529999252,None,1750.1241060999455,None,1750.1241060999455,None,f,0.756186299957335,1750.1241060999455,None,,,color4,001,2019_Nov_21_1551,ProdSingRedo,3.2.3,59.94273072559632,
,,,,104,0,104,0,,,,,,,,,,,,,,,,,,,,,,,,1754.939660999924,None,,,,,,,,,,,,,,,,,region,silent,blue,104,64,256,1751.4326290999306,None,1751.4326290999306,None,5,2.0075976999942213,1751.4326290999306,None,1753.487323599984,None,1754.0078724999912,None,1754.0078724999912,None,r,0.8964679000200704,1754.0078724999912,None,,,color4,001,2019_Nov_21_1551,ProdSingRedo,3.2.3,59.94273072559632,
,,,,105,0,105,0,,,,,,,,,,,,,,,,,,,,,,,,1758.4054850999964,None,,,,,,,,,,,,,,,,,column,new_sing,red,105,100,57,1755.4652350000106,None,1755.4652350000106,None,1,2.015082999947481,1755.4652350000106,None,1757.5209656999214,None,1758.0414823999163,None,1758.0414823999163,None,n,0.3267565000569448,1758.0414823999163,None,,,color4,001,2019_Nov_21_1551,ProdSingRedo,3.2.3,59.94273072559632,
,,,,106,0,106,0,,,,,,,,,,,,,,,,,,,,,,,,1763.2735805999255,None,,,,,,,,,,,,,,,,,author,silent,blue,106,80,15,1758.93117180001,None,1758.93117180001,None,6,2.9009502000408247,1758.93117180001,None,1761.87024129997,None,1762.3904373999685,None,1762.3904373999685,None,r,0.8497379999607801,1762.3904373999685,None,,,color4,001,2019_Nov_21_1551,ProdSingRedo,3.2.3,59.94273072559632,
,,,,107,0,107,0,,,,,,,,,,,,,,,,,,,,,,,,1767.6737460999284,None,,,,,,,,,,,,,,,,,gesture,new_aloud,yellow,107,122,137,1763.8019118999364,None,1763.8019118999364,None,1,2.8785352000268176,1763.8019118999364,None,1766.7190705999965,None,1767.2451793999644,None,1767.2451793999644,None,n,0.40312979998998344,1767.2451793999644,None,,,color4,001,2019_Nov_21_1551,ProdSingRedo,3.2.3,59.94273072559632,
,,,,108,0,108,0,,,,,,,,,,,,,,,,,,,,,,,,1771.8408218999393,None,,,,,,,,,,,,,,,,,symbol,new_sing,red,108,104,321,1768.2027325999225,None,1768.2027325999225,None,1,2.349491799948737,1768.2027325999225,None,1770.6080541999545,None,1771.1274375999346,None,1771.1274375999346,None,n,0.6887882000301033,1771.1274375999346,None,,,color4,001,2019_Nov_21_1551,ProdSingRedo,3.2.3,59.94273072559632,
,,,,109,0,109,0,,,,,,,,,,,,,,,,,,,,,,,,1775.7737147000153,None,,,,,,,,,,,,,,,,,stand,aloud,yellow,109,56,302,1772.3616772999521,None,1772.3616772999521,None,1,2.3506974999327213,1772.3616772999521,None,1774.7543341999408,None,1775.2760434999363,None,1775.2760434999363,None,n,0.4601732000010088,1775.2760434999363,None,,,color4,001,2019_Nov_21_1551,ProdSingRedo,3.2.3,59.94273072559632,
,,,,110,0,110,0,,,,,,,,,,,,,,,,,,,,,,,,1779.9406845999183,None,,,,,,,,,,,,,,,,,population,silent,blue,110,84,227,1776.3037815999705,None,1776.3037815999705,None,5,2.3524379999144003,1776.3037815999705,None,1778.7105663999682,None,1779.2278748999815,None,1779.2278748999815,None,f,0.6763864000095055,1779.2278748999815,None,,,color4,001,2019_Nov_21_1551,ProdSingRedo,3.2.3,59.94273072559632,
,,,,111,0,111,0,,,,,,,,,,,,,,,,,,,,,,,,1784.4418882000027,None,,,,,,,,,,,,,,,,,comedy,sing,red,111,14,58,1780.4614905999042,None,1780.4614905999042,None,1,3.1708220000145957,1780.4614905999042,None,1783.673739299993,None,1784.2014612999046,None,1784.2014612999046,None,n,0.21495920000597835,1784.2014612999046,None,,,color4,001,2019_Nov_21_1551,ProdSingRedo,3.2.3,59.94273072559632,
,,,,112,0,112,0,,,,,,,,,,,,,,,,,,,,,,,,1789.525352699915,None,,,,,,,,,,,,,,,,,route,new_sing,red,112,102,267,1784.9636591000017,None,1784.9636591000017,None,1,3.452771899988875,1784.9636591000017,None,1788.4576071000192,None,1788.9768720999127,None,1788.9768720999127,None,n,0.5193006000481546,1788.9768720999127,None,,,color4,001,2019_Nov_21_1551,ProdSingRedo,3.2.3,59.94273072559632,
,,,,113,0,113,0,,,,,,,,,,,,,,,,,,,,,,,,1794.6759528999683,None,,,,,,,,,,,,,,,,,afternoon,sing,red,113,13,3,1790.0511175999418,None,1790.0511175999418,None,4,3.8611007999861613,1790.0511175999418,None,1793.9562722999835,None,1794.4771554999752,None,1794.4771554999752,None,f,0.16309749998617917,1794.4771554999752,None,,,color4,001,2019_Nov_21_1551,ProdSingRedo,3.2.3,59.94273072559632,
,,,,114,0,114,0,,,,,,,,,,,,,,,,,,,,,,,,1799.3752990999492,None,,,,,,,,,,,,,,,,,point,aloud,yellow,114,58,226,1795.1973451999947,None,1795.1973451999947,None,5,2.882846000022255,1795.1973451999947,None,1798.1221910999157,None,1798.6395735999104,None,1798.6395735999104,None,f,0.6967502000043169,1798.6395735999104,None,,,color4,001,2019_Nov_21_1551,ProdSingRedo,3.2.3,59.94273072559632,
,,,,115,0,115,0,,,,,,,,,,,,,,,,,,,,,,,,1804.026272399933,None,,,,,,,,,,,,,,,,,evidence,new_aloud,yellow,115,127,120,1799.9024497999344,None,1799.9024497999344,None,4,3.3300136999459937,1799.9024497999344,None,1803.2762920999667,None,1803.7967078000074,None,1803.7967078000074,None,f,0.20345250004902482,1803.7967078000074,None,,,color4,001,2019_Nov_21_1551,ProdSingRedo,3.2.3,59.94273072559632,
,,,,116,0,116,0,,,,,,,,,,,,,,,,,,,,,,,,1807.561195999966,None,,,,,,,,,,,,,,,,,state,silent,blue,116,69,303,1804.5509623999242,None,1804.5509623999242,None,1,2.129243699950166,1804.5509623999242,None,1806.7277128999121,None,1807.2440899999347,None,1807.2440899999347,None,n,0.27620970003772527,1807.2440899999347,None,,,color4,001,2019_Nov_21_1551,ProdSingRedo,3.2.3,59.94273072559632,
,,,,117,0,117,0,,,,,,,,,,,,,,,,,,,,,,,,1812.243626600015,None,,,,,,,,,,,,,,,,,force,new_silent,blue,117,156,131,1808.0855159999337,None,1808.0855159999337,None,3,3.418730700039305,1808.0855159999337,None,1811.5565120999236,None,1812.0758919999935,None,1812.0758919999935,None,f,0.14065960003063083,1812.0758919999935,None,,,color4,001,2019_Nov_21_1551,ProdSingRedo,3.2.3,59.94273072559632,
,,,,118,0,118,0,,,,,,,,,,,,,,,,,,,,,,,,1816.993967999937,None,,,,,,,,,,,,,,,,,guest,aloud,yellow,118,53,146,1812.7684019999579,None,1812.7684019999579,None,2,3.0958252999698743,1812.7684019999579,None,1815.9065143999178,None,1816.4269100999227,None,1816.4269100999227,None,n,0.5333396000787616,1816.4269100999227,None,,,color4,001,2019_Nov_21_1551,ProdSingRedo,3.2.3,59.94273072559632,
,,,,119,0,119,0,,,,,,,,,,,,,,,,,,,,,,,,1819.9781377000036,None,,,,,,,,,,,,,,,,,universal,new_aloud,yellow,119,139,345,1817.5267695999937,None,1817.5267695999937,None,1,1.5775660000508651,1817.5267695999937,None,1819.1600598999066,None,1819.6860577999614,None,1819.6860577999614,None,n,0.26621969998814166,1819.6860577999614,None,,,color4,001,2019_Nov_21_1551,ProdSingRedo,3.2.3,59.94273072559632,
,,,,120,0,120,0,,,,,,,,,,,,,,,,,,,,,,,,1824.9945326999296,None,,,,,,,,,,,,,,,,,broke,silent,blue,120,61,32,1820.5033756999765,None,1820.5033756999765,None,1,3.6491723000071943,1820.5033756999765,None,1824.1947343999054,None,1824.7117197000189,None,1824.7117197000189,None,n,0.256580000044778,1824.7117197000189,None,,,color4,001,2019_Nov_21_1551,ProdSingRedo,3.2.3,59.94273072559632,
,,,,121,0,121,0,,,,,,,,,,,,,,,,,,,,,,,,1829.0036756999325,None,,,,,,,,,,,,,,,,,length,aloud,yellow,121,44,169,1825.5172011000104,None,1825.5172011000104,None,5,2.8030047001084313,1825.5172011000104,None,1828.3599691999843,None,1828.8785771999974,None,1828.8785771999974,None,r,0.1056219000602141,1828.8785771999974,None,,,color4,001,2019_Nov_21_1551,ProdSingRedo,3.2.3,59.94273072559632,
,,,,122,0,122,0,,,,,,,,,,,,,,,,,,,,,,,,1832.6775549999438,None,,,,,,,,,,,,,,,,,tragedy,new_silent,blue,122,177,335,1829.5220766999992,None,1829.5220766999992,None,1,2.2701550000347197,1829.5220766999992,None,1831.843634299934,None,1832.3674577999627,None,1832.3674577999627,None,n,0.27293209999334067,1832.3674577999627,None,,,color4,001,2019_Nov_21_1551,ProdSingRedo,3.2.3,59.94273072559632,
,,,,123,0,123,0,,,,,,,,,,,,,,,,,,,,,,,,1836.7451987999957,None,,,,,,,,,,,,,,,,,disease,sing,red,123,9,97,1833.201207099948,None,1833.201207099948,None,6,2.807085599983111,1833.201207099948,None,1836.0542314000195,None,1836.5655127000064,None,1836.5655127000064,None,r,0.15477339993230999,1836.5655127000064,None,,,color4,001,2019_Nov_21_1551,ProdSingRedo,3.2.3,59.94273072559632,
,,,,124,0,124,0,,,,,,,,,,,,,,,,,,,,,,,,1840.6788589999778,None,,,,,,,,,,,,,,,,,heavy,new_aloud,yellow,124,124,151,1837.275542599964,None,1837.275542599964,None,1,2.364733300055377,1837.275542599964,None,1839.6871895999648,None,1840.2014744000044,None,1840.2014744000044,None,n,0.4468621000414714,1840.2014744000044,None,,,color4,001,2019_Nov_21_1551,ProdSingRedo,3.2.3,59.94273072559632,
,,,,125,0,125,0,,,,,,,,,,,,,,,,,,,,,,,,1844.4956548999762,None,,,,,,,,,,,,,,,,,shock,silent,blue,125,81,284,1841.201818099944,None,1841.201818099944,None,5,2.5025779999559745,1841.201818099944,None,1843.7415411999682,None,1844.2638637999771,None,1844.2638637999771,None,f,0.2084333999082446,1844.2638637999771,None,,,color4,001,2019_Nov_21_1551,ProdSingRedo,3.2.3,59.94273072559632,
,,,,126,0,126,0,,,,,,,,,,,,,,,,,,,,,,,,1848.0119796999497,None,,,,,,,,,,,,,,,,,orchestra,sing,red,126,10,206,1845.0236600999488,None,1845.0236600999488,None,6,2.1287168000126258,1845.0236600999488,None,1847.1951248999685,None,1847.716426900006,None,1847.716426900006,None,r,0.2598265999695286,1847.716426900006,None,,,color4,001,2019_Nov_21_1551,ProdSingRedo,3.2.3,59.94273072559632,
,,,,127,0,127,0,,,,,,,,,,,,,,,,,,,,,,,,1850.9130714000203,None,,,,,,,,,,,,,,,,,edition,new_sing,red,127,110,107,1848.5349688999122,None,1848.5349688999122,None,6,1.4731628999579698,1848.5349688999122,None,1850.0459464999149,None,1850.5617641999852,None,1850.5617641999852,None,r,0.31855570001062006,1850.5617641999852,None,,,color4,001,2019_Nov_21_1551,ProdSingRedo,3.2.3,59.94273072559632,
,,,,128,0,128,0,,,,,,,,,,,,,,,,,,,,,,,,1854.1953431000002,None,,,,,,,,,,,,,,,,,impact,aloud,yellow,128,50,157,1851.4367868999252,None,1851.4367868999252,None,6,1.6435044000390917,1851.4367868999252,None,1853.1219486999325,None,1853.6335230999393,None,1853.6335230999393,None,r,0.5267080999910831,1853.6335230999393,None,,,color4,001,2019_Nov_21_1551,ProdSingRedo,3.2.3,59.94273072559632,
,,,,129,0,129,0,,,,,,,,,,,,,,,,,,,,,,,,1858.8294234999921,None,,,,,,,,,,,,,,,,,front,new_aloud,yellow,129,133,134,1854.7212245999835,None,1854.7212245999835,None,2,3.0475613001035526,1854.7212245999835,None,1857.805170299951,None,1858.316962699988,None,1858.316962699988,None,f,0.4753780000610277,1858.316962699988,None,,,color4,001,2019_Nov_21_1551,ProdSingRedo,3.2.3,59.94273072559632,
,,,,130,0,130,0,,,,,,,,,,,,,,,,,,,,,,,,1864.0307730999775,None,,,,,,,,,,,,,,,,,quarter,new_sing,red,130,93,246,1859.358890399919,None,1859.358890399919,None,1,3.4174170000478625,1859.358890399919,None,1862.8310190999182,None,1863.3502405999461,None,1863.3502405999461,None,n,0.6500837000785396,1863.3502405999461,None,,,color4,001,2019_Nov_21_1551,ProdSingRedo,3.2.3,59.94273072559632,
,,,,131,0,131,0,,,,,,,,,,,,,,,,,,,,,,,,1868.8233002999332,None,,,,,,,,,,,,,,,,,profession,silent,blue,131,77,241,1864.5567488999804,None,1864.5567488999804,None,4,3.4114668000256643,1864.5567488999804,None,1868.0139224999584,None,1868.5341426999075,None,1868.5341426999075,None,f,0.25778419990092516,1868.5341426999075,None,,,color4,001,2019_Nov_21_1551,ProdSingRedo,3.2.3,59.94273072559632,
,,,,132,0,132,0,,,,,,,,,,,,,,,,,,,,,,,,1874.6659088999731,None,,,,,,,,,,,,,,,,,trash,sing,red,132,18,337,1869.34088839998,None,1869.34088839998,None,3,3.7233242000220343,1869.34088839998,None,1873.1061321999878,None,1873.6185752999736,None,1873.6185752999736,None,f,1.0216743000783026,1873.6185752999736,None,,,color4,001,2019_Nov_21_1551,ProdSingRedo,3.2.3,59.94273072559632,
,,,,133,0,133,0,,,,,,,,,,,,,,,,,,,,,,,,1878.8648871999467,None,,,,,,,,,,,,,,,,,childhood,sing,red,133,27,49,1875.1872254000045,None,1875.1872254000045,None,4,2.333364099962637,1875.1872254000045,None,1877.5609846999869,None,1878.0803338999394,None,1878.0803338999394,None,f,0.7598361999262124,1878.0803338999394,None,,,color4,001,2019_Nov_21_1551,ProdSingRedo,3.2.3,59.94273072559632,
,,,,134,0,134,0,,,,,,,,,,,,,,,,,,,,,,,,1882.5316153999884,None,,,,,,,,,,,,,,,,,trial,new_sing,red,134,94,341,1879.3904020999325,None,1879.3904020999325,None,1,2.4339012999553233,1879.3904020999325,None,1881.8594025999773,None,1882.3832354999613,None,1882.3832354999613,None,n,0.11296970001421869,1882.3832354999613,None,,,color4,001,2019_Nov_21_1551,ProdSingRedo,3.2.3,59.94273072559632,
,,,,135,0,135,0,,,,,,,,,,,,,,,,,,,,,,,,1886.1979023999302,None,,,,,,,,,,,,,,,,,build,silent,blue,135,65,35,1883.0569445999572,None,1883.0569445999572,None,4,2.439511099946685,1883.0569445999572,None,1885.545046599931,None,1886.0671154999873,None,1886.0671154999873,None,f,0.0931978999869898,1886.0671154999873,None,,,color4,001,2019_Nov_21_1551,ProdSingRedo,3.2.3,59.94273072559632,
,,,,136,0,136,0,,,,,,,,,,,,,,,,,,,,,,,,1892.8825529000023,None,,,,,,,,,,,,,,,,,pretty,sing,red,136,28,233,1886.7250071999151,None,1886.7250071999151,None,4,4.867232899996452,1886.7250071999151,None,1891.6398770000087,None,1892.1525641999906,None,1892.1525641999906,None,f,0.7038673999486491,1892.1525641999906,None,,,color4,001,2019_Nov_21_1551,ProdSingRedo,3.2.3,59.94273072559632,
,,,,137,0,137,0,,,,,,,,,,,,,,,,,,,,,,,,1897.2667432000162,None,,,,,,,,,,,,,,,,,addition,aloud,yellow,137,30,2,1893.409590599942,None,1893.409590599942,None,3,3.0148065999383107,1893.409590599942,None,1896.4633524999954,None,1896.9853463999461,None,1896.9853463999461,None,f,0.25497140001971275,1896.9853463999461,None,,,color4,001,2019_Nov_21_1551,ProdSingRedo,3.2.3,59.94273072559632,
,,,,138,0,138,0,,,,,,,,,,,,,,,,,,,,,,,,1900.0252018999308,None,,,,,,,,,,,,,,,,,attack,new_silent,blue,138,162,13,1897.7966591999866,None,1897.7966591999866,None,1,1.5081352000124753,1897.7966591999866,None,1899.3484004999045,None,1899.8717006999068,None,1899.8717006999068,None,n,0.1285918999928981,1899.8717006999068,None,,,color4,001,2019_Nov_21_1551,ProdSingRedo,3.2.3,59.94273072559632,
,,,,139,0,139,0,,,,,,,,,,,,,,,,,,,,,,,,1903.1831526999595,None,,,,,,,,,,,,,,,,,number,new_silent,blue,139,173,203,1900.5448235999793,None,1900.5448235999793,None,1,1.7916798000223935,1900.5448235999793,None,1902.3794726999477,None,1902.9099251999287,None,1902.9099251999287,None,n,0.24244459997862577,1902.9099251999287,None,,,color4,001,2019_Nov_21_1551,ProdSingRedo,3.2.3,59.94273072559632,
,,,,140,0,140,0,,,,,,,,,,,,,,,,,,,,,,,,1907.8334199999226,None,,,,,,,,,,,,,,,,,court,new_silent,blue,140,160,75,1903.7078733999515,None,1903.7078733999515,None,2,3.100621599936858,1903.7078733999515,None,1906.8457623999566,None,1907.3681861999212,None,1907.3681861999212,None,f,0.44028699991758913,1907.3681861999212,None,,,color4,001,2019_Nov_21_1551,ProdSingRedo,3.2.3,59.94273072559632,
,,,,141,0,141,0,,,,,,,,,,,,,,,,,,,,,,,,1910.4164209999144,None,,,,,,,,,,,,,,,,,poetry,new_sing,red,141,97,225,1908.3592549000168,None,1908.3592549000168,None,1,1.3610170000465587,1908.3592549000168,None,1909.7660284999292,None,1910.2842728999676,None,1910.2842728999676,None,n,0.10799980000592768,1910.2842728999676,None,,,color4,001,2019_Nov_21_1551,ProdSingRedo,3.2.3,59.94273072559632,
,,,,142,0,142,0,,,,,,,,,,,,,,,,,,,,,,,,1913.0171291999286,None,,,,,,,,,,,,,,,,,hunger,new_sing,red,142,111,155,1910.945249499986,None,1910.945249499986,None,1,1.3430853000609204,1910.945249499986,None,1912.333782200003,None,1912.8553010999458,None,1912.8553010999458,None,n,0.12899019999895245,1912.8553010999458,None,,,color4,001,2019_Nov_21_1551,ProdSingRedo,3.2.3,59.94273072559632,
,,,,143,0,143,0,,,,,,,,,,,,,,,,,,,,,,,,1917.8007205999456,None,,,,,,,,,,,,,,,,,close,sing,red,143,4,53,1913.5377174000023,None,1913.5377174000023,None,5,3.0226157000288367,1913.5377174000023,None,1916.5935025999788,None,1917.11526459991,None,1917.11526459991,None,r,0.6608893999364227,1917.11526459991,None,,,color4,001,2019_Nov_21_1551,ProdSingRedo,3.2.3,59.94273072559632,
,,,,144,0,144,0,,,,,,,,,,,,,,,,,,,,,,,,1922.80108809995,None,,,,,,,,,,,,,,,,,growth,silent,blue,144,89,144,1918.3273864999646,None,1918.3273864999646,None,4,3.081019200035371,1918.3273864999646,None,1921.4508378999308,None,1921.969097299967,None,1921.969097299967,None,r,0.8073364999145269,1921.969097299967,None,,,color4,001,2019_Nov_21_1551,ProdSingRedo,3.2.3,59.94273072559632,
,,,,145,0,145,0,,,,,,,,,,,,,,,,,,,,,,,,1926.6168092999142,None,,,,,,,,,,,,,,,,,entrance,aloud,yellow,145,47,115,1923.3231684999773,None,1923.3231684999773,None,5,2.4931119999382645,1923.3231684999773,None,1925.8664367999882,None,1926.3881978999125,None,1926.3881978999125,None,f,0.1960725000826642,1926.3881978999125,None,,,color4,001,2019_Nov_21_1551,ProdSingRedo,3.2.3,59.94273072559632,
,,,,146,0,146,0,,,,,,,,,,,,,,,,,,,,,,,,1930.5675379999448,None,,,,,,,,,,,,,,,,,relation,aloud,yellow,146,36,257,1927.144326300011,None,1927.144326300011,None,5,2.288118500029668,1927.144326300011,None,1929.477096799994,None,1929.9896251999307,None,1929.9896251999307,None,r,0.538748599938117,1929.9896251999307,None,,,color4,001,2019_Nov_21_1551,ProdSingRedo,3.2.3,59.94273072559632,
,,,,147,0,147,0,,,,,,,,,,,,,,,,,,,,,,,,1934.7685022999067,None,,,,,,,,,,,,,,,,,minor,silent,blue,147,85,191,1931.0910115999868,None,1931.0910115999868,None,1,2.813330200035125,1931.0910115999868,None,1933.945918399957,None,1934.465473099961,None,1934.465473099961,None,n,0.2788050000090152,1934.465473099961,None,,,color4,001,2019_Nov_21_1551,ProdSingRedo,3.2.3,59.94273072559632,
,,,,148,0,148,0,,,,,,,,,,,,,,,,,,,,,,,,1937.717952499981,None,,,,,,,,,,,,,,,,,mankind,new_aloud,yellow,148,145,178,1935.3015066999942,None,1935.3015066999942,None,1,1.5707273000152782,1935.3015066999942,None,1936.9148439000128,None,1937.4416621999117,None,1937.4416621999117,None,n,0.23883659997954965,1937.4416621999117,None,,,color4,001,2019_Nov_21_1551,ProdSingRedo,3.2.3,59.94273072559632,
,,,,149,0,149,0,,,,,,,,,,,,,,,,,,,,,,,,1941.5872855000198,None,,,,,,,,,,,,,,,,,medicine,sing,red,149,29,186,1938.2413492000196,None,1938.2413492000196,None,6,2.4390084999613464,1938.2413492000196,None,1940.7244400999043,None,1941.2366186999716,None,1941.2366186999716,None,r,0.3237140999408439,1941.2366186999716,None,,,color4,001,2019_Nov_21_1551,ProdSingRedo,3.2.3,59.94273072559632,
,,,,150,0,150,0,,,,,,,,,,,,,,,,,,,,,,,,1944.3124871000182,None,,,,,,,,,,,,,,,,,bicycle,new_sing,red,150,96,21,1942.1205457999604,None,1942.1205457999604,None,1,1.3278678000206128,1942.1205457999604,None,1943.503177799983,None,1944.027736699907,None,1944.027736699907,None,n,0.26046110002789646,1944.027736699907,None,,,color4,001,2019_Nov_21_1551,ProdSingRedo,3.2.3,59.94273072559632,
,,,,151,0,151,0,,,,,,,,,,,,,,,,,,,,,,,,1947.3354224999202,None,,,,,,,,,,,,,,,,,cousin,new_sing,red,151,107,76,1944.842537999968,None,1944.842537999968,None,1,1.5018405000446364,1944.842537999968,None,1946.3839710999746,None,1946.906181099941,None,1946.906181099941,None,n,0.39023840008303523,1946.906181099941,None,,,color4,001,2019_Nov_21_1551,ProdSingRedo,3.2.3,59.94273072559632,
,,,,152,0,152,0,,,,,,,,,,,,,,,,,,,,,,,,1952.93584749999,None,,,,,,,,,,,,,,,,,contract,sing,red,152,11,68,1947.8590259000193,None,1947.8590259000193,None,5,3.9972876000683755,1947.8590259000193,None,1951.9019408000167,None,1952.4247162999818,None,1952.4247162999818,None,r,0.4716857000021264,1952.4247162999818,None,,,color4,001,2019_Nov_21_1551,ProdSingRedo,3.2.3,59.94273072559632,
,,,,153,0,153,0,,,,,,,,,,,,,,,,,,,,,,,,1955.6032316999044,None,,,,,,,,,,,,,,,,,article,new_sing,red,153,92,11,1953.46209679998,None,1953.46209679998,None,1,1.1702535999938846,1953.46209679998,None,1954.684760299977,None,1955.2040360999526,None,1955.2040360999526,None,n,0.37247339996974915,1955.2040360999526,None,,,color4,001,2019_Nov_21_1551,ProdSingRedo,3.2.3,59.94273072559632,
,,,,154,0,154,0,,,,,,,,,,,,,,,,,,,,,,,,1959.853866499965,None,,,,,,,,,,,,,,,,,mayor,sing,red,154,12,183,1956.128086599987,None,1956.128086599987,None,1,2.6648561999900267,1956.128086599987,None,1958.8340122000081,None,1959.3564537999919,None,1959.3564537999919,None,n,0.4677847999846563,1959.3564537999919,None,,,color4,001,2019_Nov_21_1551,ProdSingRedo,3.2.3,59.94273072559632,
,,,,155,0,155,0,,,,,,,,,,,,,,,,,,,,,,,,1963.0366552999476,None,,,,,,,,,,,,,,,,,right,sing,red,155,24,265,1960.3790969999973,None,1960.3790969999973,None,1,1.6852522999979556,1960.3790969999973,None,1962.1122548999265,None,1962.6335024000145,None,1962.6335024000145,None,n,0.3748055000323802,1962.6335024000145,None,,,color4,001,2019_Nov_21_1551,ProdSingRedo,3.2.3,59.94273072559632,
,,,,156,0,156,0,,,,,,,,,,,,,,,,,,,,,,,,1966.7572064999258,None,,,,,,,,,,,,,,,,,century,new_sing,red,156,101,45,1963.5637410999043,None,1963.5637410999043,None,1,2.236693499959074,1963.5637410999043,None,1965.8529457999393,None,1966.376062599942,None,1966.376062599942,None,n,0.35229559999424964,1966.376062599942,None,,,color4,001,2019_Nov_21_1551,ProdSingRedo,3.2.3,59.94273072559632,
,,,,157,0,157,0,,,,,,,,,,,,,,,,,,,,,,,,1969.9542236999841,None,,,,,,,,,,,,,,,,,signal,new_sing,red,157,90,287,1967.2823253999231,None,1967.2823253999231,None,1,1.6379446999635547,1967.2823253999231,None,1968.9719071999425,None,1969.4901756999316,None,1969.4901756999316,None,n,0.430164200020954,1969.4901756999316,None,,,color4,001,2019_Nov_21_1551,ProdSingRedo,3.2.3,59.94273072559632,
,,,,158,0,158,0,,,,,,,,,,,,,,,,,,,,,,,,1974.3546495999908,None,,,,,,,,,,,,,,,,,title,new_silent,blue,158,178,331,1970.474611399928,None,1970.474611399928,None,2,3.1577542000450194,1970.474611399928,None,1973.6844609999098,None,1974.2025958999293,None,1974.2025958999293,None,f,0.11767829989548773,1974.2025958999293,None,,,color4,001,2019_Nov_21_1551,ProdSingRedo,3.2.3,59.94273072559632,
,,,,159,0,159,0,,,,,,,,,,,,,,,,,,,,,,,,1980.6050192000112,None,,,,,,,,,,,,,,,,,career,aloud,yellow,159,42,42,1974.8802617000183,None,1974.8802617000183,None,4,5.048371399985626,1974.8802617000183,None,1979.9709273999324,None,1980.492046999978,None,1980.492046999978,None,f,0.08445189998019487,1980.492046999978,None,,,color4,001,2019_Nov_21_1551,ProdSingRedo,3.2.3,59.94273072559632,
,,,,160,0,160,0,,,,,,,,,,,,,,,,,,,,,,,,1985.236488699913,None,,,,,,,,,,,,,,,,,agreement,new_sing,red,160,105,5,1981.1288921999512,None,1981.1288921999512,None,1,3.2075179000385106,1981.1288921999512,None,1984.3885845999466,None,1984.9054278999101,None,1984.9054278999101,None,n,0.29492670006584376,1984.9054278999101,None,,,color4,001,2019_Nov_21_1551,ProdSingRedo,3.2.3,59.94273072559632,
,,,,161,0,161,0,,,,,,,,,,,,,,,,,,,,,,,,1988.488845499931,None,,,,,,,,,,,,,,,,,throw,new_silent,blue,161,174,330,1985.7643621999305,None,1985.7643621999305,None,1,2.003962800023146,1985.7643621999305,None,1987.817070399993,None,1988.338662999915,None,1988.338662999915,None,n,0.11766720004379749,1988.338662999915,None,,,color4,001,2019_Nov_21_1551,ProdSingRedo,3.2.3,59.94273072559632,
,,,,162,0,162,0,,,,,,,,,,,,,,,,,,,,,,,,1992.4391713999212,None,,,,,,,,,,,,,,,,,leader,aloud,yellow,162,49,168,1989.014712199918,None,1989.014712199918,None,1,2.6257364000193775,1989.014712199918,None,1991.6861092000036,None,1992.2077698999783,None,1992.2077698999783,None,n,0.2007629000581801,1992.2077698999783,None,,,color4,001,2019_Nov_21_1551,ProdSingRedo,3.2.3,59.94273072559632,
,,,,163,0,163,0,,,,,,,,,,,,,,,,,,,,,,,,1995.9484451999888,None,,,,,,,,,,,,,,,,,pancakes,new_silent,blue,163,165,210,1992.9712436000118,None,1992.9712436000118,None,1,2.205051700002514,1992.9712436000118,None,1995.226413199911,None,1995.7443357999437,None,1995.7443357999437,None,n,0.18409110000357032,1995.7443357999437,None,,,color4,001,2019_Nov_21_1551,ProdSingRedo,3.2.3,59.94273072559632,
,,,,164,0,164,0,,,,,,,,,,,,,,,,,,,,,,,,1999.4055520999245,None,,,,,,,,,,,,,,,,,rough,new_aloud,yellow,164,135,266,1996.4604794000043,None,1996.4604794000043,None,1,2.2118277000263333,1996.4604794000043,None,1998.7146063999971,None,1999.2256954999175,None,1999.2256954999175,None,n,0.14274729997850955,1999.2256954999175,None,,,color4,001,2019_Nov_21_1551,ProdSingRedo,3.2.3,59.94273072559632,
,,,,165,0,165,0,,,,,,,,,,,,,,,,,,,,,,,,2004.2392663999926,None,,,,,,,,,,,,,,,,,estate,sing,red,165,16,119,1999.9333059999626,None,1999.9333059999626,None,5,3.6750891000265256,1999.9333059999626,None,2003.6541702999966,None,2004.1762297999812,None,2004.1762297999812,None,r,0.02409700001589954,2004.1762297999812,None,,,color4,001,2019_Nov_21_1551,ProdSingRedo,3.2.3,59.94273072559632,
,,,,166,0,166,0,,,,,,,,,,,,,,,,,,,,,,,,2007.923491399968,None,,,,,,,,,,,,,,,,,express,new_aloud,yellow,166,132,124,2004.7615644999314,None,2004.7615644999314,None,1,2.1908607999794185,2004.7615644999314,None,2007.0002762000076,None,2007.5225455999607,None,2007.5225455999607,None,n,0.36577319994103163,2007.5225455999607,None,,,color4,001,2019_Nov_21_1551,ProdSingRedo,3.2.3,59.94273072559632,
,,,,167,0,167,0,,,,,,,,,,,,,,,,,,,,,,,,2012.5123905999353,None,,,,,,,,,,,,,,,,,recall,aloud,yellow,167,38,255,2008.4499699999578,None,2008.4499699999578,None,3,3.478386399918236,2008.4499699999578,None,2011.9758129999973,None,2012.4930576999905,None,2012.4930576999905,None,f,0.003414900042116642,2012.4930576999905,None,,,color4,001,2019_Nov_21_1551,ProdSingRedo,3.2.3,59.94273072559632,
,,,,168,0,168,0,,,,,,,,,,,,,,,,,,,,,,,,2015.32376509998,None,,,,,,,,,,,,,,,,,plane,new_silent,blue,168,157,223,2013.0352306999266,None,2013.0352306999266,None,1,1.4690719000063837,2013.0352306999266,None,2014.5557250999846,None,2015.075851499918,None,2015.075851499918,None,n,0.220809799968265,2015.075851499918,None,,,color4,001,2019_Nov_21_1551,ProdSingRedo,3.2.3,59.94273072559632,
,,,,169,0,169,0,,,,,,,,,,,,,,,,,,,,,,,,2020.3078176999697,None,,,,,,,,,,,,,,,,,brief,aloud,yellow,169,33,28,2015.8512981999665,None,2015.8512981999665,None,3,3.221059100003913,2015.8512981999665,None,2019.116410599905,None,2019.6354083999759,None,2019.6354083999759,None,f,0.6452702000970021,2019.6354083999759,None,,,color4,001,2019_Nov_21_1551,ProdSingRedo,3.2.3,59.94273072559632,
,,,,170,0,170,0,,,,,,,,,,,,,,,,,,,,,,,,2023.6335408999585,None,,,,,,,,,,,,,,,,,quiet,new_aloud,yellow,170,130,249,2020.8343552999431,None,2020.8343552999431,None,1,2.1419675999786705,2020.8343552999431,None,2023.0239964999491,None,2023.5440681999316,None,2023.5440681999316,None,n,0.06409119989257306,2023.5440681999316,None,,,color4,001,2019_Nov_21_1551,ProdSingRedo,3.2.3,59.94273072559632,
,,,,171,0,171,0,,,,,,,,,,,,,,,,,,,,,,,,2026.674910999951,None,,,,,,,,,,,,,,,,,birth,new_aloud,yellow,171,121,22,2024.1471972999861,None,2024.1471972999861,None,1,1.8452938999980688,2024.1471972999861,None,2026.038364799926,None,2026.5578557999106,None,2026.5578557999106,None,n,0.08244110003579408,2026.5578557999106,None,,,color4,001,2019_Nov_21_1551,ProdSingRedo,3.2.3,59.94273072559632,
,,,,172,0,172,0,,,,,,,,,,,,,,,,,,,,,,,,2031.4920005999738,None,,,,,,,,,,,,,,,,,research,sing,red,172,22,261,2027.2018777999328,None,2027.2018777999328,None,4,3.5184801999712363,2027.2018777999328,None,2030.7744755999884,None,2031.2966366999317,None,2031.2966366999317,None,f,0.16794449998997152,2031.2966366999317,None,,,color4,001,2019_Nov_21_1551,ProdSingRedo,3.2.3,59.94273072559632,
,,,,173,0,173,0,,,,,,,,,,,,,,,,,,,,,,,,2034.1919608999742,None,,,,,,,,,,,,,,,,,grade,new_silent,blue,173,153,140,2032.0179906999692,None,2032.0179906999692,None,1,1.2703937001060694,2032.0179906999692,None,2033.3341139999684,None,2033.8478476000018,None,2033.8478476000018,None,n,0.3204925999743864,2033.8478476000018,None,,,color4,001,2019_Nov_21_1551,ProdSingRedo,3.2.3,59.94273072559632,
,,,,174,0,174,0,,,,,,,,,,,,,,,,,,,,,,,,2037.3582538999617,None,,,,,,,,,,,,,,,,,light,new_aloud,yellow,174,123,171,2034.7185546999099,None,2034.7185546999099,None,1,1.617776699946262,2034.7185546999099,None,2036.3881444999715,None,2036.9103674999205,None,2036.9103674999205,None,n,0.4099497999995947,2036.9103674999205,None,,,color4,001,2019_Nov_21_1551,ProdSingRedo,3.2.3,59.94273072559632,
,,,,175,0,175,0,,,,,,,,,,,,,,,,,,,,,,,,2041.7252858999418,None,,,,,,,,,,,,,,,,,device,new_silent,blue,175,164,93,2037.8844993999228,None,2037.8844993999228,None,1,3.036058000056073,2037.8844993999228,None,2040.9758120999904,None,2041.494295499986,None,2041.494295499986,None,n,0.19415319990366697,2041.494295499986,None,,,color4,001,2019_Nov_21_1551,ProdSingRedo,3.2.3,59.94273072559632,
,,,,176,0,176,0,,,,,,,,,,,,,,,,,,,,,,,,2045.609418499982,None,,,,,,,,,,,,,,,,,drink,new_silent,blue,176,150,105,2042.251162200002,None,2042.251162200002,None,1,2.5411346000619233,2042.251162200002,None,2044.8396909999428,None,2045.3589929000009,None,2045.3589929000009,None,n,0.2173725999891758,2045.3589929000009,None,,,color4,001,2019_Nov_21_1551,ProdSingRedo,3.2.3,59.94273072559632,
,,,,177,0,177,0,,,,,,,,,,,,,,,,,,,,,,,,2048.3517976999283,None,,,,,,,,,,,,,,,,,staff,aloud,yellow,177,31,301,2046.1368666999042,None,2046.1368666999042,None,5,1.5835361999925226,2046.1368666999042,None,2047.7725116999354,None,2048.2943260999164,None,2048.2943260999164,None,r,0.03385180002078414,2048.2943260999164,None,,,color4,001,2019_Nov_21_1551,ProdSingRedo,3.2.3,59.94273072559632,
,,,,178,0,178,0,,,,,,,,,,,,,,,,,,,,,,,,2053.1425304999575,None,,,,,,,,,,,,,,,,,crime,new_sing,red,178,103,78,2048.8635625999887,None,2048.8635625999887,None,5,3.4488142000045627,2048.8635625999887,None,2052.3527977999765,None,2052.8735431999667,None,2052.8735431999667,None,r,0.23084809991996735,2052.8735431999667,None,,,color4,001,2019_Nov_21_1551,ProdSingRedo,3.2.3,59.94273072559632,
,,,,179,0,179,0,,,,,,,,,,,,,,,,,,,,,,,,2057.910398399923,None,,,,,,,,,,,,,,,,,nature,new_aloud,yellow,179,143,200,2053.67061999999,None,2053.67061999999,None,3,2.8657242000335827,2053.67061999999,None,2056.575201699976,None,2057.1002019000007,None,2057.1002019000007,None,f,0.7801280000712723,2057.1002019000007,None,,,color4,001,2019_Nov_21_1551,ProdSingRedo,3.2.3,59.94273072559632,
,,,,,,,,,,,,,,,,,,,,,,,,,,,,,,,,,,,,,,,,,,,,,,,,,,,,,,,,,,,,,,,,,,,,,,,,,2058.4173257999355,None,,,,,,,
