StudyLoop.thisRepN,StudyLoop.thisTrialN,StudyLoop.thisN,StudyLoop.thisIndex,TestLoop.thisRepN,TestLoop.thisTrialN,TestLoop.thisN,TestLoop.thisIndex,textCondition.started,textCondition.stopped,keyCondition.keys,keyCondition.rt,keyCondition.started,keyCondition.stopped,Condition,stim_colors,color_sing,color_aloud,color_silent,textWelcome.started,textWelcome.stopped,keyWelcome.keys,keyWelcome.rt,keyWelcome.started,keyWelcome.stopped,textAloud.started,textAloud.stopped,textSilent.started,textSilent.stopped,textSing.started,textSing.stopped,textBlank500.started,textBlank500.stopped,study_word,study_type,study_color,study_num,study_word_num,textStudy.started,textStudy.stopped,keyStudy.keys,keyStudy.started,keyStudy.stopped,textTestInstructions.started,textTestInstructions.stopped,key_resp_3.keys,key_resp_3.rt,key_resp_3.started,key_resp_3.stopped,testWord,testType,testColor,testN,test_num,test_word_num,textConf.started,textConf.stopped,textConfScale.started,textConfScale.stopped,keyConf.keys,keyConf.rt,keyConf.started,keyConf.stopped,textTestBlank.started,textTestBlank.stopped,textRKN.started,textRKN.stopped,textRKNScale.started,textRKNScale.stopped,keyRKN.keys,keyRKN.rt,keyRKN.started,keyRKN.stopped,textEnd.started,textEnd.stopped,participant,session,date,expName,psychopyVersion,frameRate,
,,,,,,,,871.6594889983535,None,y,5.357684601098299,871.6594889983535,None,,,,,,,,,,,,,,,,,,,,,,,,,,,,,,,,,,,,,,,,,,,,,,,,,,,,,,,,,,,,,,nc_35,001,2022_Apr_12_1329,ProdSingRedo,3.2.3,60.01565164219165,
,,,,,,,,,,,,,,ColoredTest,"['yellow', 'blue', 'red']",yellow,blue,red,877.074355699122,None,space,216.9023023005575,877.074355699122,None,,,,,,,,,,,,,,,,,,,,,,,,,,,,,,,,,,,,,,,,,,,,,,,,,,,nc_35,001,2022_Apr_12_1329,ProdSingRedo,3.2.3,60.01565164219165,
0,0,0,0,,,,,,,,,,,,,,,,,,,,,,877.074355699122,None,877.074355699122,None,877.074355699122,None,1096.526203399524,None,industry,aloud,blue,33,161,1094.5351939983666,None,None,1094.5351939983666,None,,,,,,,,,,,,,,,,,,,,,,,,,,,,,,,,,nc_35,001,2022_Apr_12_1329,ProdSingRedo,3.2.3,60.01565164219165,
1,0,1,0,,,,,,,,,,,,,,,,,,,,,,,,,,,,1099.0434983987361,None,broke,aloud,blue,41,32,1097.0473001990467,None,None,1097.0473001990467,None,,,,,,,,,,,,,,,,,,,,,,,,,,,,,,,,,nc_35,001,2022_Apr_12_1329,ProdSingRedo,3.2.3,60.01565164219165,
2,0,2,0,,,,,,,,,,,,,,,,,,,,,,,,,,,,1101.5627182982862,None,impact,sing,yellow,2,157,1099.5552110988647,None,None,1099.5552110988647,None,,,,,,,,,,,,,,,,,,,,,,,,,,,,,,,,,nc_35,001,2022_Apr_12_1329,ProdSingRedo,3.2.3,60.01565164219165,
3,0,3,0,,,,,,,,,,,,,,,,,,,,,,,,,,,,1104.081849599257,None,addition,sing,yellow,12,2,1102.0745093990117,None,None,1102.0745093990117,None,,,,,,,,,,,,,,,,,,,,,,,,,,,,,,,,,nc_35,001,2022_Apr_12_1329,ProdSingRedo,3.2.3,60.01565164219165,
4,0,4,0,,,,,,,,,,,,,,,,,,,,,,,,,,,,1106.6010803990066,None,universal,sing,yellow,20,345,1104.6075673997402,None,None,1104.6075673997402,None,,,,,,,,,,,,,,,,,,,,,,,,,,,,,,,,,nc_35,001,2022_Apr_12_1329,ProdSingRedo,3.2.3,60.01565164219165,
5,0,5,0,,,,,,,,,,,,,,,,,,,,,,,,,,,,1109.1202139984816,None,member,silent,red,74,188,1107.1143582984805,None,None,1107.1143582984805,None,,,,,,,,,,,,,,,,,,,,,,,,,,,,,,,,,nc_35,001,2022_Apr_12_1329,ProdSingRedo,3.2.3,60.01565164219165,
6,0,6,0,,,,,,,,,,,,,,,,,,,,,,,,,,,,1111.6393577996641,None,signal,sing,yellow,25,287,1109.636366898194,None,None,1109.636366898194,None,,,,,,,,,,,,,,,,,,,,,,,,,,,,,,,,,nc_35,001,2022_Apr_12_1329,ProdSingRedo,3.2.3,60.01565164219165,
7,0,7,0,,,,,,,,,,,,,,,,,,,,,,,,,,,,1114.1418779995292,None,benefit,sing,yellow,7,20,1112.1394160985947,None,None,1112.1394160985947,None,,,,,,,,,,,,,,,,,,,,,,,,,,,,,,,,,nc_35,001,2022_Apr_12_1329,ProdSingRedo,3.2.3,60.01565164219165,
8,0,8,0,,,,,,,,,,,,,,,,,,,,,,,,,,,,1116.6610526982695,None,attack,aloud,blue,55,13,1114.6606755983084,None,None,1114.6606755983084,None,,,,,,,,,,,,,,,,,,,,,,,,,,,,,,,,,nc_35,001,2022_Apr_12_1329,ProdSingRedo,3.2.3,60.01565164219165,
9,0,9,0,,,,,,,,,,,,,,,,,,,,,,,,,,,,1119.180300699547,None,orchestra,aloud,blue,48,206,1117.174995398149,None,None,1117.174995398149,None,,,,,,,,,,,,,,,,,,,,,,,,,,,,,,,,,nc_35,001,2022_Apr_12_1329,ProdSingRedo,3.2.3,60.01565164219165,
10,0,10,0,,,,,,,,,,,,,,,,,,,,,,,,,,,,1121.6994112990797,None,collection,silent,red,77,54,1119.6957583986223,None,None,1119.6957583986223,None,,,,,,,,,,,,,,,,,,,,,,,,,,,,,,,,,nc_35,001,2022_Apr_12_1329,ProdSingRedo,3.2.3,60.01565164219165,
11,0,11,0,,,,,,,,,,,,,,,,,,,,,,,,,,,,1124.2018945999444,None,ground,silent,red,76,142,1122.2009879983962,None,None,1122.2009879983962,None,,,,,,,,,,,,,,,,,,,,,,,,,,,,,,,,,nc_35,001,2022_Apr_12_1329,ProdSingRedo,3.2.3,60.01565164219165,
12,0,12,0,,,,,,,,,,,,,,,,,,,,,,,,,,,,1126.721107698977,None,touch,silent,red,68,332,1124.7195313982666,None,None,1124.7195313982666,None,,,,,,,,,,,,,,,,,,,,,,,,,,,,,,,,,nc_35,001,2022_Apr_12_1329,ProdSingRedo,3.2.3,60.01565164219165,
13,0,13,0,,,,,,,,,,,,,,,,,,,,,,,,,,,,1129.2402525991201,None,committee,silent,red,80,62,1127.2302456982434,None,None,1127.2302456982434,None,,,,,,,,,,,,,,,,,,,,,,,,,,,,,,,,,nc_35,001,2022_Apr_12_1329,ProdSingRedo,3.2.3,60.01565164219165,
14,0,14,0,,,,,,,,,,,,,,,,,,,,,,,,,,,,1131.7593856994063,None,range,silent,red,66,251,1129.7541881985962,None,None,1129.7541881985962,None,,,,,,,,,,,,,,,,,,,,,,,,,,,,,,,,,nc_35,001,2022_Apr_12_1329,ProdSingRedo,3.2.3,60.01565164219165,
15,0,15,0,,,,,,,,,,,,,,,,,,,,,,,,,,,,1134.2786705996841,None,bucket,aloud,blue,31,33,1132.280965698883,None,None,1132.280965698883,None,,,,,,,,,,,,,,,,,,,,,,,,,,,,,,,,,nc_35,001,2022_Apr_12_1329,ProdSingRedo,3.2.3,60.01565164219165,
16,0,16,0,,,,,,,,,,,,,,,,,,,,,,,,,,,,1136.7977998983115,None,phrase,aloud,blue,40,220,1134.7911483999342,None,None,1134.7911483999342,None,,,,,,,,,,,,,,,,,,,,,,,,,,,,,,,,,nc_35,001,2022_Apr_12_1329,ProdSingRedo,3.2.3,60.01565164219165,
17,0,17,0,,,,,,,,,,,,,,,,,,,,,,,,,,,,1139.3169762995094,None,sight,sing,yellow,22,286,1137.3107799999416,None,None,1137.3107799999416,None,,,,,,,,,,,,,,,,,,,,,,,,,,,,,,,,,nc_35,001,2022_Apr_12_1329,ProdSingRedo,3.2.3,60.01565164219165,
18,0,18,0,,,,,,,,,,,,,,,,,,,,,,,,,,,,1141.8361081983894,None,junior,sing,yellow,15,167,1139.835364099592,None,None,1139.835364099592,None,,,,,,,,,,,,,,,,,,,,,,,,,,,,,,,,,nc_35,001,2022_Apr_12_1329,ProdSingRedo,3.2.3,60.01565164219165,
19,0,19,0,,,,,,,,,,,,,,,,,,,,,,,,,,,,1144.3553412985057,None,break,silent,red,81,26,1142.350859399885,None,None,1142.350859399885,None,,,,,,,,,,,,,,,,,,,,,,,,,,,,,,,,,nc_35,001,2022_Apr_12_1329,ProdSingRedo,3.2.3,60.01565164219165,
20,0,20,0,,,,,,,,,,,,,,,,,,,,,,,,,,,,1146.8745195996016,None,degree,aloud,blue,32,89,1144.8695226982236,None,None,1144.8695226982236,None,,,,,,,,,,,,,,,,,,,,,,,,,,,,,,,,,nc_35,001,2022_Apr_12_1329,ProdSingRedo,3.2.3,60.01565164219165,
21,0,21,0,,,,,,,,,,,,,,,,,,,,,,,,,,,,1149.393379798159,None,rough,aloud,blue,58,266,1147.387802299112,None,None,1147.387802299112,None,,,,,,,,,,,,,,,,,,,,,,,,,,,,,,,,,nc_35,001,2022_Apr_12_1329,ProdSingRedo,3.2.3,60.01565164219165,
22,0,22,0,,,,,,,,,,,,,,,,,,,,,,,,,,,,1151.8961846996099,None,health,sing,yellow,3,149,1149.8939629998058,None,None,1149.8939629998058,None,,,,,,,,,,,,,,,,,,,,,,,,,,,,,,,,,nc_35,001,2022_Apr_12_1329,ProdSingRedo,3.2.3,60.01565164219165,
23,0,23,0,,,,,,,,,,,,,,,,,,,,,,,,,,,,1154.398844299838,None,crowd,silent,red,83,81,1152.3963587991893,None,None,1152.3963587991893,None,,,,,,,,,,,,,,,,,,,,,,,,,,,,,,,,,nc_35,001,2022_Apr_12_1329,ProdSingRedo,3.2.3,60.01565164219165,
24,0,24,0,,,,,,,,,,,,,,,,,,,,,,,,,,,,1156.9178820997477,None,weather,aloud,blue,35,352,1154.9170585982502,None,None,1154.9170585982502,None,,,,,,,,,,,,,,,,,,,,,,,,,,,,,,,,,nc_35,001,2022_Apr_12_1329,ProdSingRedo,3.2.3,60.01565164219165,
25,0,25,0,,,,,,,,,,,,,,,,,,,,,,,,,,,,1159.4371317997575,None,profession,silent,red,89,241,1157.4329715985805,None,None,1157.4329715985805,None,,,,,,,,,,,,,,,,,,,,,,,,,,,,,,,,,nc_35,001,2022_Apr_12_1329,ProdSingRedo,3.2.3,60.01565164219165,
26,0,26,0,,,,,,,,,,,,,,,,,,,,,,,,,,,,1161.956227099523,None,murder,sing,yellow,26,195,1159.9479438997805,None,None,1159.9479438997805,None,,,,,,,,,,,,,,,,,,,,,,,,,,,,,,,,,nc_35,001,2022_Apr_12_1329,ProdSingRedo,3.2.3,60.01565164219165,
27,0,27,0,,,,,,,,,,,,,,,,,,,,,,,,,,,,1164.4755094982684,None,beauty,silent,red,73,18,1162.4712344985455,None,None,1162.4712344985455,None,,,,,,,,,,,,,,,,,,,,,,,,,,,,,,,,,nc_35,001,2022_Apr_12_1329,ProdSingRedo,3.2.3,60.01565164219165,
28,0,28,0,,,,,,,,,,,,,,,,,,,,,,,,,,,,1166.9945725984871,None,revolution,silent,red,63,264,1164.996067898348,None,None,1164.996067898348,None,,,,,,,,,,,,,,,,,,,,,,,,,,,,,,,,,nc_35,001,2022_Apr_12_1329,ProdSingRedo,3.2.3,60.01565164219165,
29,0,29,0,,,,,,,,,,,,,,,,,,,,,,,,,,,,1169.5137121994048,None,primary,silent,red,87,234,1167.5116872992367,None,None,1167.5116872992367,None,,,,,,,,,,,,,,,,,,,,,,,,,,,,,,,,,nc_35,001,2022_Apr_12_1329,ProdSingRedo,3.2.3,60.01565164219165,
30,0,30,0,,,,,,,,,,,,,,,,,,,,,,,,,,,,1172.0329326987267,None,question,sing,yellow,28,247,1170.036424698308,None,None,1170.036424698308,None,,,,,,,,,,,,,,,,,,,,,,,,,,,,,,,,,nc_35,001,2022_Apr_12_1329,ProdSingRedo,3.2.3,60.01565164219165,
31,0,31,0,,,,,,,,,,,,,,,,,,,,,,,,,,,,1174.5522063989192,None,pattern,aloud,blue,39,214,1172.547883398831,None,None,1172.547883398831,None,,,,,,,,,,,,,,,,,,,,,,,,,,,,,,,,,nc_35,001,2022_Apr_12_1329,ProdSingRedo,3.2.3,60.01565164219165,
32,0,32,0,,,,,,,,,,,,,,,,,,,,,,,,,,,,1177.071237899363,None,birth,silent,red,79,22,1175.0634045992047,None,None,1175.0634045992047,None,,,,,,,,,,,,,,,,,,,,,,,,,,,,,,,,,nc_35,001,2022_Apr_12_1329,ProdSingRedo,3.2.3,60.01565164219165,
33,0,33,0,,,,,,,,,,,,,,,,,,,,,,,,,,,,1179.5904652997851,None,dispute,silent,red,86,99,1177.5829994995147,None,None,1177.5829994995147,None,,,,,,,,,,,,,,,,,,,,,,,,,,,,,,,,,nc_35,001,2022_Apr_12_1329,ProdSingRedo,3.2.3,60.01565164219165,
34,0,34,0,,,,,,,,,,,,,,,,,,,,,,,,,,,,1182.1092756986618,None,institute,silent,red,67,162,1180.1051742993295,None,None,1180.1051742993295,None,,,,,,,,,,,,,,,,,,,,,,,,,,,,,,,,,nc_35,001,2022_Apr_12_1329,ProdSingRedo,3.2.3,60.01565164219165,
35,0,35,0,,,,,,,,,,,,,,,,,,,,,,,,,,,,1184.612106198445,None,incident,sing,yellow,29,158,1182.609982298687,None,None,1182.609982298687,None,,,,,,,,,,,,,,,,,,,,,,,,,,,,,,,,,nc_35,001,2022_Apr_12_1329,ProdSingRedo,3.2.3,60.01565164219165,
36,0,36,0,,,,,,,,,,,,,,,,,,,,,,,,,,,,1187.1313189994544,None,strain,aloud,blue,54,308,1185.1277943998575,None,None,1185.1277943998575,None,,,,,,,,,,,,,,,,,,,,,,,,,,,,,,,,,nc_35,001,2022_Apr_12_1329,ProdSingRedo,3.2.3,60.01565164219165,
37,0,37,0,,,,,,,,,,,,,,,,,,,,,,,,,,,,1189.6504521984607,None,chief,silent,red,82,48,1187.6421605981886,None,None,1187.6421605981886,None,,,,,,,,,,,,,,,,,,,,,,,,,,,,,,,,,nc_35,001,2022_Apr_12_1329,ProdSingRedo,3.2.3,60.01565164219165,
38,0,38,0,,,,,,,,,,,,,,,,,,,,,,,,,,,,1192.1696721985936,None,charter,sing,yellow,11,47,1190.1638074982911,None,None,1190.1638074982911,None,,,,,,,,,,,,,,,,,,,,,,,,,,,,,,,,,nc_35,001,2022_Apr_12_1329,ProdSingRedo,3.2.3,60.01565164219165,
39,0,39,0,,,,,,,,,,,,,,,,,,,,,,,,,,,,1194.688785199076,None,enemy,aloud,blue,45,113,1192.6795961000025,None,None,1192.6795961000025,None,,,,,,,,,,,,,,,,,,,,,,,,,,,,,,,,,nc_35,001,2022_Apr_12_1329,ProdSingRedo,3.2.3,60.01565164219165,
40,0,40,0,,,,,,,,,,,,,,,,,,,,,,,,,,,,1197.2081528995186,None,minor,sing,yellow,13,191,1195.1979844998568,None,None,1195.1979844998568,None,,,,,,,,,,,,,,,,,,,,,,,,,,,,,,,,,nc_35,001,2022_Apr_12_1329,ProdSingRedo,3.2.3,60.01565164219165,
41,0,41,0,,,,,,,,,,,,,,,,,,,,,,,,,,,,1199.7272281982005,None,machinery,silent,red,65,175,1197.724148498848,None,None,1197.724148498848,None,,,,,,,,,,,,,,,,,,,,,,,,,,,,,,,,,nc_35,001,2022_Apr_12_1329,ProdSingRedo,3.2.3,60.01565164219165,
42,0,42,0,,,,,,,,,,,,,,,,,,,,,,,,,,,,1202.2463848982006,None,republic,silent,red,61,260,1200.2480874992907,None,None,1200.2480874992907,None,,,,,,,,,,,,,,,,,,,,,,,,,,,,,,,,,nc_35,001,2022_Apr_12_1329,ProdSingRedo,3.2.3,60.01565164219165,
43,0,43,0,,,,,,,,,,,,,,,,,,,,,,,,,,,,1204.765556499362,None,period,silent,red,88,217,1202.756528198719,None,None,1202.756528198719,None,,,,,,,,,,,,,,,,,,,,,,,,,,,,,,,,,nc_35,001,2022_Apr_12_1329,ProdSingRedo,3.2.3,60.01565164219165,
44,0,44,0,,,,,,,,,,,,,,,,,,,,,,,,,,,,1207.284762199968,None,write,aloud,blue,37,358,1205.2784795984626,None,None,1205.2784795984626,None,,,,,,,,,,,,,,,,,,,,,,,,,,,,,,,,,nc_35,001,2022_Apr_12_1329,ProdSingRedo,3.2.3,60.01565164219165,
45,0,45,0,,,,,,,,,,,,,,,,,,,,,,,,,,,,1209.8038797993213,None,background,aloud,blue,51,16,1207.8023693989962,None,None,1207.8023693989962,None,,,,,,,,,,,,,,,,,,,,,,,,,,,,,,,,,nc_35,001,2022_Apr_12_1329,ProdSingRedo,3.2.3,60.01565164219165,
46,0,46,0,,,,,,,,,,,,,,,,,,,,,,,,,,,,1212.3227186985314,None,detective,sing,yellow,19,92,1210.3198383990675,None,None,1210.3198383990675,None,,,,,,,,,,,,,,,,,,,,,,,,,,,,,,,,,nc_35,001,2022_Apr_12_1329,ProdSingRedo,3.2.3,60.01565164219165,
47,0,47,0,,,,,,,,,,,,,,,,,,,,,,,,,,,,1214.825622798875,None,fight,aloud,blue,43,127,1212.8232638984919,None,None,1212.8232638984919,None,,,,,,,,,,,,,,,,,,,,,,,,,,,,,,,,,nc_35,001,2022_Apr_12_1329,ProdSingRedo,3.2.3,60.01565164219165,
48,0,48,0,,,,,,,,,,,,,,,,,,,,,,,,,,,,1217.3447983991355,None,colonel,aloud,blue,46,55,1215.3379832990468,None,None,1215.3379832990468,None,,,,,,,,,,,,,,,,,,,,,,,,,,,,,,,,,nc_35,001,2022_Apr_12_1329,ProdSingRedo,3.2.3,60.01565164219165,
49,0,49,0,,,,,,,,,,,,,,,,,,,,,,,,,,,,1219.8637651987374,None,congress,sing,yellow,5,67,1217.8583574984223,None,None,1217.8583574984223,None,,,,,,,,,,,,,,,,,,,,,,,,,,,,,,,,,nc_35,001,2022_Apr_12_1329,ProdSingRedo,3.2.3,60.01565164219165,
50,0,50,0,,,,,,,,,,,,,,,,,,,,,,,,,,,,1222.3831074982882,None,engineer,aloud,blue,52,114,1220.3796817995608,None,None,1220.3796817995608,None,,,,,,,,,,,,,,,,,,,,,,,,,,,,,,,,,nc_35,001,2022_Apr_12_1329,ProdSingRedo,3.2.3,60.01565164219165,
51,0,51,0,,,,,,,,,,,,,,,,,,,,,,,,,,,,1224.9023242983967,None,skill,sing,yellow,9,289,1222.8909312989563,None,None,1222.8909312989563,None,,,,,,,,,,,,,,,,,,,,,,,,,,,,,,,,,nc_35,001,2022_Apr_12_1329,ProdSingRedo,3.2.3,60.01565164219165,
52,0,52,0,,,,,,,,,,,,,,,,,,,,,,,,,,,,1227.421474499628,None,region,silent,red,70,256,1225.415033498779,None,None,1225.415033498779,None,,,,,,,,,,,,,,,,,,,,,,,,,,,,,,,,,nc_35,001,2022_Apr_12_1329,ProdSingRedo,3.2.3,60.01565164219165,
53,0,53,0,,,,,,,,,,,,,,,,,,,,,,,,,,,,1229.9406698998064,None,piece,aloud,blue,34,221,1227.9329007994384,None,None,1227.9329007994384,None,,,,,,,,,,,,,,,,,,,,,,,,,,,,,,,,,nc_35,001,2022_Apr_12_1329,ProdSingRedo,3.2.3,60.01565164219165,
54,0,54,0,,,,,,,,,,,,,,,,,,,,,,,,,,,,1232.459834098816,None,material,sing,yellow,1,182,1230.457684699446,None,None,1230.457684699446,None,,,,,,,,,,,,,,,,,,,,,,,,,,,,,,,,,nc_35,001,2022_Apr_12_1329,ProdSingRedo,3.2.3,60.01565164219165,
55,0,55,0,,,,,,,,,,,,,,,,,,,,,,,,,,,,1234.979033799842,None,vision,sing,yellow,27,347,1232.9696909990162,None,None,1232.9696909990162,None,,,,,,,,,,,,,,,,,,,,,,,,,,,,,,,,,nc_35,001,2022_Apr_12_1329,ProdSingRedo,3.2.3,60.01565164219165,
56,0,56,0,,,,,,,,,,,,,,,,,,,,,,,,,,,,1237.4982007984072,None,goose,sing,yellow,17,138,1235.4899105988443,None,None,1235.4899105988443,None,,,,,,,,,,,,,,,,,,,,,,,,,,,,,,,,,nc_35,001,2022_Apr_12_1329,ProdSingRedo,3.2.3,60.01565164219165,
57,0,57,0,,,,,,,,,,,,,,,,,,,,,,,,,,,,1240.017420399934,None,month,sing,yellow,8,193,1238.0059420987964,None,None,1238.0059420987964,None,,,,,,,,,,,,,,,,,,,,,,,,,,,,,,,,,nc_35,001,2022_Apr_12_1329,ProdSingRedo,3.2.3,60.01565164219165,
58,0,58,0,,,,,,,,,,,,,,,,,,,,,,,,,,,,1242.5364880990237,None,community,aloud,blue,42,63,1240.5332716982812,None,None,1240.5332716982812,None,,,,,,,,,,,,,,,,,,,,,,,,,,,,,,,,,nc_35,001,2022_Apr_12_1329,ProdSingRedo,3.2.3,60.01565164219165,
59,0,59,0,,,,,,,,,,,,,,,,,,,,,,,,,,,,1245.0559647995979,None,mechanical,aloud,blue,57,185,1243.0523902997375,None,None,1243.0523902997375,None,,,,,,,,,,,,,,,,,,,,,,,,,,,,,,,,,nc_35,001,2022_Apr_12_1329,ProdSingRedo,3.2.3,60.01565164219165,
60,0,60,0,,,,,,,,,,,,,,,,,,,,,,,,,,,,1247.5748732984066,None,speech,aloud,blue,36,298,1245.5649985987693,None,None,1245.5649985987693,None,,,,,,,,,,,,,,,,,,,,,,,,,,,,,,,,,nc_35,001,2022_Apr_12_1329,ProdSingRedo,3.2.3,60.01565164219165,
61,0,61,0,,,,,,,,,,,,,,,,,,,,,,,,,,,,1250.0940956994891,None,beginning,sing,yellow,10,19,1248.0937646999955,None,None,1248.0937646999955,None,,,,,,,,,,,,,,,,,,,,,,,,,,,,,,,,,nc_35,001,2022_Apr_12_1329,ProdSingRedo,3.2.3,60.01565164219165,
62,0,62,0,,,,,,,,,,,,,,,,,,,,,,,,,,,,1252.613257298246,None,volume,silent,red,60,349,1250.6108466982841,None,None,1250.6108466982841,None,,,,,,,,,,,,,,,,,,,,,,,,,,,,,,,,,nc_35,001,2022_Apr_12_1329,ProdSingRedo,3.2.3,60.01565164219165,
63,0,63,0,,,,,,,,,,,,,,,,,,,,,,,,,,,,1255.132474699989,None,report,sing,yellow,16,259,1253.12371179834,None,None,1253.12371179834,None,,,,,,,,,,,,,,,,,,,,,,,,,,,,,,,,,nc_35,001,2022_Apr_12_1329,ProdSingRedo,3.2.3,60.01565164219165,
64,0,64,0,,,,,,,,,,,,,,,,,,,,,,,,,,,,1257.6515675988048,None,principal,silent,red,85,236,1255.6452109999955,None,None,1255.6452109999955,None,,,,,,,,,,,,,,,,,,,,,,,,,,,,,,,,,nc_35,001,2022_Apr_12_1329,ProdSingRedo,3.2.3,60.01565164219165,
65,0,65,0,,,,,,,,,,,,,,,,,,,,,,,,,,,,1260.1707924995571,None,childhood,sing,yellow,18,49,1258.1631609983742,None,None,1258.1631609983742,None,,,,,,,,,,,,,,,,,,,,,,,,,,,,,,,,,nc_35,001,2022_Apr_12_1329,ProdSingRedo,3.2.3,60.01565164219165,
66,0,66,0,,,,,,,,,,,,,,,,,,,,,,,,,,,,1262.690030599013,None,route,aloud,blue,44,267,1260.6848910991102,None,None,1260.6848910991102,None,,,,,,,,,,,,,,,,,,,,,,,,,,,,,,,,,nc_35,001,2022_Apr_12_1329,ProdSingRedo,3.2.3,60.01565164219165,
67,0,67,0,,,,,,,,,,,,,,,,,,,,,,,,,,,,1265.2091509997845,None,private,silent,red,69,237,1263.2105490993708,None,None,1263.2105490993708,None,,,,,,,,,,,,,,,,,,,,,,,,,,,,,,,,,nc_35,001,2022_Apr_12_1329,ProdSingRedo,3.2.3,60.01565164219165,
68,0,68,0,,,,,,,,,,,,,,,,,,,,,,,,,,,,1267.7283895984292,None,provision,sing,yellow,23,243,1265.7231980990618,None,None,1265.7231980990618,None,,,,,,,,,,,,,,,,,,,,,,,,,,,,,,,,,nc_35,001,2022_Apr_12_1329,ProdSingRedo,3.2.3,60.01565164219165,
69,0,69,0,,,,,,,,,,,,,,,,,,,,,,,,,,,,1270.24753279984,None,escape,silent,red,78,118,1268.242246499285,None,None,1268.242246499285,None,,,,,,,,,,,,,,,,,,,,,,,,,,,,,,,,,nc_35,001,2022_Apr_12_1329,ProdSingRedo,3.2.3,60.01565164219165,
70,0,70,0,,,,,,,,,,,,,,,,,,,,,,,,,,,,1272.766359999776,None,level,sing,yellow,24,170,1270.7622077986598,None,None,1270.7622077986598,None,,,,,,,,,,,,,,,,,,,,,,,,,,,,,,,,,nc_35,001,2022_Apr_12_1329,ProdSingRedo,3.2.3,60.01565164219165,
71,0,71,0,,,,,,,,,,,,,,,,,,,,,,,,,,,,1275.285878399387,None,broad,sing,yellow,6,31,1273.2793935984373,None,None,1273.2793935984373,None,,,,,,,,,,,,,,,,,,,,,,,,,,,,,,,,,nc_35,001,2022_Apr_12_1329,ProdSingRedo,3.2.3,60.01565164219165,
72,0,72,0,,,,,,,,,,,,,,,,,,,,,,,,,,,,1277.8050388991833,None,stand,sing,yellow,14,302,1275.7993588987738,None,None,1275.7993588987738,None,,,,,,,,,,,,,,,,,,,,,,,,,,,,,,,,,nc_35,001,2022_Apr_12_1329,ProdSingRedo,3.2.3,60.01565164219165,
73,0,73,0,,,,,,,,,,,,,,,,,,,,,,,,,,,,1280.3242771998048,None,under,aloud,blue,49,343,1278.315297799185,None,None,1278.315297799185,None,,,,,,,,,,,,,,,,,,,,,,,,,,,,,,,,,nc_35,001,2022_Apr_12_1329,ProdSingRedo,3.2.3,60.01565164219165,
74,0,74,0,,,,,,,,,,,,,,,,,,,,,,,,,,,,1282.8434313982725,None,balance,silent,red,62,17,1280.838119899854,None,None,1280.838119899854,None,,,,,,,,,,,,,,,,,,,,,,,,,,,,,,,,,nc_35,001,2022_Apr_12_1329,ProdSingRedo,3.2.3,60.01565164219165,
75,0,75,0,,,,,,,,,,,,,,,,,,,,,,,,,,,,1285.3625779990107,None,angle,aloud,blue,50,7,1283.3556029982865,None,None,1283.3556029982865,None,,,,,,,,,,,,,,,,,,,,,,,,,,,,,,,,,nc_35,001,2022_Apr_12_1329,ProdSingRedo,3.2.3,60.01565164219165,
76,0,76,0,,,,,,,,,,,,,,,,,,,,,,,,,,,,1287.881773699075,None,foundation,silent,red,71,132,1285.8791228998452,None,None,1285.8791228998452,None,,,,,,,,,,,,,,,,,,,,,,,,,,,,,,,,,nc_35,001,2022_Apr_12_1329,ProdSingRedo,3.2.3,60.01565164219165,
77,0,77,0,,,,,,,,,,,,,,,,,,,,,,,,,,,,1290.4009432997555,None,council,sing,yellow,0,71,1288.394640399143,None,None,1288.394640399143,None,,,,,,,,,,,,,,,,,,,,,,,,,,,,,,,,,nc_35,001,2022_Apr_12_1329,ProdSingRedo,3.2.3,60.01565164219165,
78,0,78,0,,,,,,,,,,,,,,,,,,,,,,,,,,,,1292.920201499015,None,history,silent,red,75,153,1290.9129552990198,None,None,1290.9129552990198,None,,,,,,,,,,,,,,,,,,,,,,,,,,,,,,,,,nc_35,001,2022_Apr_12_1329,ProdSingRedo,3.2.3,60.01565164219165,
79,0,79,0,,,,,,,,,,,,,,,,,,,,,,,,,,,,1295.4393277987838,None,corner,sing,yellow,4,69,1293.4315787982196,None,None,1293.4315787982196,None,,,,,,,,,,,,,,,,,,,,,,,,,,,,,,,,,nc_35,001,2022_Apr_12_1329,ProdSingRedo,3.2.3,60.01565164219165,
80,0,80,0,,,,,,,,,,,,,,,,,,,,,,,,,,,,1297.941830098629,None,track,silent,red,64,334,1295.9395053982735,None,None,1295.9395053982735,None,,,,,,,,,,,,,,,,,,,,,,,,,,,,,,,,,nc_35,001,2022_Apr_12_1329,ProdSingRedo,3.2.3,60.01565164219165,
81,0,81,0,,,,,,,,,,,,,,,,,,,,,,,,,,,,1300.4606636986136,None,staff,aloud,blue,30,301,1298.4548620991409,None,None,1298.4548620991409,None,,,,,,,,,,,,,,,,,,,,,,,,,,,,,,,,,nc_35,001,2022_Apr_12_1329,ProdSingRedo,3.2.3,60.01565164219165,
82,0,82,0,,,,,,,,,,,,,,,,,,,,,,,,,,,,1302.980008199811,None,population,aloud,blue,56,227,1300.9789722990245,None,None,1300.9789722990245,None,,,,,,,,,,,,,,,,,,,,,,,,,,,,,,,,,nc_35,001,2022_Apr_12_1329,ProdSingRedo,3.2.3,60.01565164219165,
83,0,83,0,,,,,,,,,,,,,,,,,,,,,,,,,,,,1305.499296899885,None,recall,silent,red,72,255,1303.4933601990342,None,None,1303.4933601990342,None,,,,,,,,,,,,,,,,,,,,,,,,,,,,,,,,,nc_35,001,2022_Apr_12_1329,ProdSingRedo,3.2.3,60.01565164219165,
84,0,84,0,,,,,,,,,,,,,,,,,,,,,,,,,,,,1308.0185089986771,None,prime,aloud,blue,59,235,1306.0074970982969,None,None,1306.0074970982969,None,,,,,,,,,,,,,,,,,,,,,,,,,,,,,,,,,nc_35,001,2022_Apr_12_1329,ProdSingRedo,3.2.3,60.01565164219165,
85,0,85,0,,,,,,,,,,,,,,,,,,,,,,,,,,,,1310.537687599659,None,literature,aloud,blue,38,173,1308.5356855988503,None,None,1308.5356855988503,None,,,,,,,,,,,,,,,,,,,,,,,,,,,,,,,,,nc_35,001,2022_Apr_12_1329,ProdSingRedo,3.2.3,60.01565164219165,
86,0,86,0,,,,,,,,,,,,,,,,,,,,,,,,,,,,1313.0568020995706,None,music,aloud,blue,47,196,1311.0505568999797,None,None,1311.0505568999797,None,,,,,,,,,,,,,,,,,,,,,,,,,,,,,,,,,nc_35,001,2022_Apr_12_1329,ProdSingRedo,3.2.3,60.01565164219165,
87,0,87,0,,,,,,,,,,,,,,,,,,,,,,,,,,,,1315.5760525986552,None,account,sing,yellow,21,1,1313.57196899876,None,None,1313.57196899876,None,,,,,,,,,,,,,,,,,,,,,,,,,,,,,,,,,nc_35,001,2022_Apr_12_1329,ProdSingRedo,3.2.3,60.01565164219165,
88,0,88,0,,,,,,,,,,,,,,,,,,,,,,,,,,,,1318.0952162984759,None,conference,aloud,blue,53,66,1316.0892582982779,None,None,1316.0892582982779,None,,,,,,,,,,,,,,,,,,,,,,,,,,,,,,,,,nc_35,001,2022_Apr_12_1329,ProdSingRedo,3.2.3,60.01565164219165,
89,0,89,0,,,,,,,,,,,,,,,,,,,,,,,,,,,,1320.6143950987607,None,little,silent,red,84,174,1318.6030335985124,None,None,1318.6030335985124,None,,,,,,,,,,,,,,,,,,,,,,,,,,,,,,,,,nc_35,001,2022_Apr_12_1329,ProdSingRedo,3.2.3,60.01565164219165,
,,,,,,,,,,,,,,,,,,,,,,,,,,,,,,,,,,,,,,,,,,,1321.115219898522,None,k,122.78898349963129,1321.115219898522,None,,,,,,,,,,,,,,,,,,,,,,,,,,,nc_35,001,2022_Apr_12_1329,ProdSingRedo,3.2.3,60.01565164219165,
,,,,0,0,0,0,,,,,,,,,,,,,,,,,,,,,,,,1450.1547088995576,None,,,,,,,,,,,,,,,,,balance,silent,red,0,62,17,1444.445142198354,None,1444.445142198354,None,1,2.8509553000330925,1444.445142198354,None,1447.3538305982947,None,1447.8716873992234,None,1447.8716873992234,None,r,2.2561431992799044,1447.8716873992234,None,,,nc_35,001,2022_Apr_12_1329,ProdSingRedo,3.2.3,60.01565164219165,
,,,,1,0,1,0,,,,,,,,,,,,,,,,,,,,,,,,1458.6851121988147,None,,,,,,,,,,,,,,,,,match,new_sing,yellow,1,111,181,1450.6823575999588,None,1450.6823575999588,None,1,4.933864099904895,1450.6823575999588,None,1455.6505223996937,None,1456.1620867997408,None,1456.1620867997408,None,n,2.5015930999070406,1456.1620867997408,None,,,nc_35,001,2022_Apr_12_1329,ProdSingRedo,3.2.3,60.01565164219165,
,,,,2,0,2,0,,,,,,,,,,,,,,,,,,,,,,,,1464.1840499993414,None,,,,,,,,,,,,,,,,,enemy,aloud,blue,2,45,113,1459.2004424985498,None,1459.2004424985498,None,2,3.7916149012744427,1459.2004424985498,None,1463.044724598527,None,1463.5664424989372,None,1463.5664424989372,None,n,0.5776919014751911,1463.5664424989372,None,,,nc_35,001,2022_Apr_12_1329,ProdSingRedo,3.2.3,60.01565164219165,
,,,,3,0,3,0,,,,,,,,,,,,,,,,,,,,,,,,1470.107487199828,None,,,,,,,,,,,,,,,,,piece,aloud,blue,3,34,221,1464.7041521985084,None,1464.7041521985084,None,5,3.455810399726033,1464.7041521985084,None,1468.1972321998328,None,1468.717687299475,None,1468.717687299475,None,r,1.3545625004917383,1468.717687299475,None,,,nc_35,001,2022_Apr_12_1329,ProdSingRedo,3.2.3,60.01565164219165,
,,,,4,0,4,0,,,,,,,,,,,,,,,,,,,,,,,,1474.1097261998802,None,,,,,,,,,,,,,,,,,edition,new_sing,yellow,4,107,107,1470.6284629981965,None,1470.6284629981965,None,1,1.8916207011789083,1470.6284629981965,None,1472.5653463993222,None,1473.0754707995802,None,1473.0754707995802,None,n,1.0046900995075703,1473.0754707995802,None,,,nc_35,001,2022_Apr_12_1329,ProdSingRedo,3.2.3,60.01565164219165,
,,,,5,0,5,0,,,,,,,,,,,,,,,,,,,,,,,,1479.5474966987967,None,,,,,,,,,,,,,,,,,portion,new_sing,yellow,5,117,228,1474.618180198595,None,1474.618180198595,None,4,2.8537631016224623,1474.618180198595,None,1477.5139489993453,None,1478.0289002992213,None,1478.0289002992213,None,f,1.4831089992076159,1478.0289002992213,None,,,nc_35,001,2022_Apr_12_1329,ProdSingRedo,3.2.3,60.01565164219165,
,,,,6,0,6,0,,,,,,,,,,,,,,,,,,,,,,,,1483.6124270986766,None,,,,,,,,,,,,,,,,,listen,new_aloud,blue,6,121,172,1480.07225349918,None,1480.07225349918,None,5,2.367254000157118,1480.07225349918,None,1482.4592768996954,None,1482.9596050996333,None,1482.9596050996333,None,f,0.6320958007127047,1482.9596050996333,None,,,nc_35,001,2022_Apr_12_1329,ProdSingRedo,3.2.3,60.01565164219165,
,,,,7,0,7,0,,,,,,,,,,,,,,,,,,,,,,,,1488.8565148990601,None,,,,,,,,,,,,,,,,,chief,silent,red,7,82,48,1484.1421741992235,None,1484.1421741992235,None,4,2.410062901675701,1484.1421741992235,None,1486.6110112983733,None,1487.1230375990272,None,1487.1230375990272,None,f,1.7012607995420694,1487.1230375990272,None,,,nc_35,001,2022_Apr_12_1329,ProdSingRedo,3.2.3,60.01565164219165,
,,,,8,0,8,0,,,,,,,,,,,,,,,,,,,,,,,,1493.5447939988226,None,,,,,,,,,,,,,,,,,gesture,new_sing,yellow,8,98,137,1489.3854480981827,None,1489.3854480981827,None,1,1.9264240991324186,1489.3854480981827,None,1491.3529265988618,None,1491.8632514998317,None,1491.8632514998317,None,n,1.6488895006477833,1491.8632514998317,None,,,nc_35,001,2022_Apr_12_1329,ProdSingRedo,3.2.3,60.01565164219165,
,,,,9,0,9,0,,,,,,,,,,,,,,,,,,,,,,,,1498.7937919981778,None,,,,,,,,,,,,,,,,,light,new_sing,yellow,9,103,171,1494.0705335997045,None,1494.0705335997045,None,1,3.0656231995671988,1494.0705335997045,None,1497.1798928994685,None,1497.701060399413,None,1497.701060399413,None,n,1.074940599501133,1497.701060399413,None,,,nc_35,001,2022_Apr_12_1329,ProdSingRedo,3.2.3,60.01565164219165,
,,,,10,0,10,0,,,,,,,,,,,,,,,,,,,,,,,,1503.3210060987622,None,,,,,,,,,,,,,,,,,escape,silent,red,10,78,118,1499.3245601989329,None,1499.3245601989329,None,4,2.883448699489236,1499.3245601989329,None,1502.247030299157,None,1502.7618687991053,None,1502.7618687991053,None,f,0.5338973999023438,1502.7618687991053,None,,,nc_35,001,2022_Apr_12_1329,ProdSingRedo,3.2.3,60.01565164219165,
,,,,11,0,11,0,,,,,,,,,,,,,,,,,,,,,,,,1509.7098568994552,None,,,,,,,,,,,,,,,,,service,new_silent,red,11,160,280,1503.8477648999542,None,1503.8477648999542,None,4,1.808449700474739,1503.8477648999542,None,1505.706580299884,None,1506.2251983992755,None,1506.2251983992755,None,f,3.4467856008559465,1506.2251983992755,None,,,nc_35,001,2022_Apr_12_1329,ProdSingRedo,3.2.3,60.01565164219165,
,,,,12,0,12,0,,,,,,,,,,,,,,,,,,,,,,,,1513.1798421982676,None,,,,,,,,,,,,,,,,,reading,new_silent,red,12,168,254,1510.2403851989657,None,1510.2403851989657,None,4,1.8555421009659767,1510.2403851989657,None,1512.1524460986257,None,1512.656368298456,None,1512.656368298456,None,f,0.4874634984880686,1512.656368298456,None,,,nc_35,001,2022_Apr_12_1329,ProdSingRedo,3.2.3,60.01565164219165,
,,,,13,0,13,0,,,,,,,,,,,,,,,,,,,,,,,,1517.7361665982753,None,,,,,,,,,,,,,,,,,exchange,new_sing,yellow,13,101,121,1513.7088991999626,None,1513.7088991999626,None,6,2.5151783991605043,1513.7088991999626,None,1516.2706121988595,None,1516.7890775986016,None,1516.7890775986016,None,r,0.9148207996040583,1516.7890775986016,None,,,nc_35,001,2022_Apr_12_1329,ProdSingRedo,3.2.3,60.01565164219165,
,,,,14,0,14,0,,,,,,,,,,,,,,,,,,,,,,,,1521.6567210983485,None,,,,,,,,,,,,,,,,,charter,sing,yellow,14,11,47,1518.2518512997776,None,1518.2518512997776,None,6,2.443776700645685,1518.2518512997776,None,1520.7185761984438,None,1521.241584699601,None,1521.241584699601,None,r,0.3902586009353399,1521.241584699601,None,,,nc_35,001,2022_Apr_12_1329,ProdSingRedo,3.2.3,60.01565164219165,
,,,,15,0,15,0,,,,,,,,,,,,,,,,,,,,,,,,1526.0750376991928,None,,,,,,,,,,,,,,,,,atmosphere,new_sing,yellow,15,99,12,1522.1825452987105,None,1522.1825452987105,None,1,2.73747400008142,1522.1825452987105,None,1524.9544971995056,None,1525.4820397999138,None,1525.4820397999138,None,n,0.5655960999429226,1525.4820397999138,None,,,nc_35,001,2022_Apr_12_1329,ProdSingRedo,3.2.3,60.01565164219165,
,,,,16,0,16,0,,,,,,,,,,,,,,,,,,,,,,,,1533.4492091983557,None,,,,,,,,,,,,,,,,,incident,sing,yellow,16,29,158,1526.5987523999065,None,1526.5987523999065,None,3,4.4571921993047,1526.5987523999065,None,1531.0952515993267,None,1531.6154580991715,None,1531.6154580991715,None,f,1.8003797996789217,1531.6154580991715,None,,,nc_35,001,2022_Apr_12_1329,ProdSingRedo,3.2.3,60.01565164219165,
,,,,17,0,17,0,,,,,,,,,,,,,,,,,,,,,,,,1537.504944998771,None,,,,,,,,,,,,,,,,,provision,sing,yellow,17,23,243,1533.9776967987418,None,1533.9776967987418,None,6,1.9023630991578102,1533.9776967987418,None,1535.921922499314,None,1536.4401695989072,None,1536.4401695989072,None,f,1.0395081005990505,1536.4401695989072,None,,,nc_35,001,2022_Apr_12_1329,ProdSingRedo,3.2.3,60.01565164219165,
,,,,18,0,18,0,,,,,,,,,,,,,,,,,,,,,,,,1541.8928040992469,None,,,,,,,,,,,,,,,,,collection,silent,red,18,77,54,1538.0311196986586,None,1538.0311196986586,None,4,2.400814898312092,1538.0311196986586,None,1540.4722812995315,None,1540.9911738988012,None,1540.9911738988012,None,f,0.8646190986037254,1540.9911738988012,None,,,nc_35,001,2022_Apr_12_1329,ProdSingRedo,3.2.3,60.01565164219165,
,,,,19,0,19,0,,,,,,,,,,,,,,,,,,,,,,,,1545.1797036994249,None,,,,,,,,,,,,,,,,,material,sing,yellow,19,1,182,1542.4019049983472,None,1542.4019049983472,None,6,1.7898408994078636,1542.4019049983472,None,1544.241719899699,None,1544.7689386997372,None,1544.7689386997372,None,f,0.3829295001924038,1544.7689386997372,None,,,nc_35,001,2022_Apr_12_1329,ProdSingRedo,3.2.3,60.01565164219165,
,,,,20,0,20,0,,,,,,,,,,,,,,,,,,,,,,,,1550.1675402987748,None,,,,,,,,,,,,,,,,,review,new_sing,yellow,20,92,263,1545.7060819994658,None,1545.7060819994658,None,2,2.901690099388361,1545.7060819994658,None,1548.6474506985396,None,1549.17293609865,None,1549.17293609865,None,n,0.9630274996161461,1549.17293609865,None,,,nc_35,001,2022_Apr_12_1329,ProdSingRedo,3.2.3,60.01565164219165,
,,,,21,0,21,0,,,,,,,,,,,,,,,,,,,,,,,,1553.6780327986926,None,,,,,,,,,,,,,,,,,session,new_aloud,blue,21,137,281,1550.6919997986406,None,1550.6919997986406,None,5,1.9638706985861063,1550.6919997986406,None,1552.6953611988574,None,1553.2040408998728,None,1553.2040408998728,None,f,0.44378150068223476,1553.2040408998728,None,,,nc_35,001,2022_Apr_12_1329,ProdSingRedo,3.2.3,60.01565164219165,
,,,,22,0,22,0,,,,,,,,,,,,,,,,,,,,,,,,1556.8578750994056,None,,,,,,,,,,,,,,,,,volume,silent,red,22,60,349,1554.2002402991056,None,1554.2002402991056,None,4,1.8716525994241238,1554.2002402991056,None,1556.1192778982222,None,1556.644128298387,None,1556.644128298387,None,f,0.1876676995307207,1556.644128298387,None,,,nc_35,001,2022_Apr_12_1329,ProdSingRedo,3.2.3,60.01565164219165,
,,,,23,0,23,0,,,,,,,,,,,,,,,,,,,,,,,,1559.7101010996848,None,,,,,,,,,,,,,,,,,strain,aloud,blue,23,54,308,1557.3814962990582,None,1557.3814962990582,None,6,1.426410200074315,1557.3814962990582,None,1558.8581416998059,None,1559.3895293995738,None,1559.3895293995738,None,r,0.2905054986476898,1559.3895293995738,None,,,nc_35,001,2022_Apr_12_1329,ProdSingRedo,3.2.3,60.01565164219165,
,,,,24,0,24,0,,,,,,,,,,,,,,,,,,,,,,,,1562.5156871993095,None,,,,,,,,,,,,,,,,,goose,sing,yellow,24,17,138,1560.2344272993505,None,1560.2344272993505,None,6,1.4133635982871056,1560.2344272993505,None,1561.6928741987795,None,1562.2151470985264,None,1562.2151470985264,None,r,0.26455469988286495,1562.2151470985264,None,,,nc_35,001,2022_Apr_12_1329,ProdSingRedo,3.2.3,60.01565164219165,
,,,,25,0,25,0,,,,,,,,,,,,,,,,,,,,,,,,1565.0514299999923,None,,,,,,,,,,,,,,,,,weather,aloud,blue,25,35,352,1563.0433683991432,None,1563.0433683991432,None,6,1.1646512001752853,1563.0433683991432,None,1564.24569439888,None,1564.7689620982856,None,1564.7689620982856,None,r,0.24688149988651276,1564.7689620982856,None,,,nc_35,001,2022_Apr_12_1329,ProdSingRedo,3.2.3,60.01565164219165,
,,,,26,0,26,0,,,,,,,,,,,,,,,,,,,,,,,,1567.8688307981938,None,,,,,,,,,,,,,,,,,junior,sing,yellow,26,15,167,1565.5788941998035,None,1565.5788941998035,None,6,1.4050209000706673,1565.5788941998035,None,1567.0326756983995,None,1567.5567964985967,None,1567.5567964985967,None,r,0.27515019848942757,1567.5567964985967,None,,,nc_35,001,2022_Apr_12_1329,ProdSingRedo,3.2.3,60.01565164219165,
,,,,27,0,27,0,,,,,,,,,,,,,,,,,,,,,,,,1571.122197398916,None,,,,,,,,,,,,,,,,,interior,new_silent,red,27,156,164,1568.3897704984993,None,1568.3897704984993,None,6,1.8899047002196312,1568.3897704984993,None,1570.3156870994717,None,1570.8360607996583,None,1570.8360607996583,None,r,0.251749899238348,1570.8360607996583,None,,,nc_35,001,2022_Apr_12_1329,ProdSingRedo,3.2.3,60.01565164219165,
,,,,28,0,28,0,,,,,,,,,,,,,,,,,,,,,,,,1574.1298637986183,None,,,,,,,,,,,,,,,,,front,new_silent,red,28,176,134,1571.649239398539,None,1571.649239398539,None,2,1.6865040007978678,1571.649239398539,None,1573.388474598527,None,1573.9135634992272,None,1573.9135634992272,None,n,0.18234490044414997,1573.9135634992272,None,,,nc_35,001,2022_Apr_12_1329,ProdSingRedo,3.2.3,60.01565164219165,
,,,,29,0,29,0,,,,,,,,,,,,,,,,,,,,,,,,1577.2778711989522,None,,,,,,,,,,,,,,,,,machinery,silent,red,29,65,175,1574.6522894985974,None,1574.6522894985974,None,6,1.2673876993358135,1574.6522894985974,None,1575.9625210985541,None,1576.4825117997825,None,1576.4825117997825,None,f,0.7654660996049643,1576.4825117997825,None,,,nc_35,001,2022_Apr_12_1329,ProdSingRedo,3.2.3,60.01565164219165,
,,,,30,0,30,0,,,,,,,,,,,,,,,,,,,,,,,,1580.6416833996773,None,,,,,,,,,,,,,,,,,character,new_silent,red,30,163,46,1577.8061206992716,None,1577.8061206992716,None,3,2.129729900509119,1577.8061206992716,None,1579.9846891984344,None,1580.5045275986195,None,1580.5045275986195,None,f,0.1110231988132,1580.5045275986195,None,,,nc_35,001,2022_Apr_12_1329,ProdSingRedo,3.2.3,60.01565164219165,
,,,,31,0,31,0,,,,,,,,,,,,,,,,,,,,,,,,1583.8334915991873,None,,,,,,,,,,,,,,,,,scene,new_silent,red,31,151,273,1581.1573202982545,None,1581.1573202982545,None,2,1.8904486000537872,1581.1573202982545,None,1583.094156699255,None,1583.6084196995944,None,1583.6084196995944,None,n,0.1913962997496128,1583.6084196995944,None,,,nc_35,001,2022_Apr_12_1329,ProdSingRedo,3.2.3,60.01565164219165,
,,,,32,0,32,0,,,,,,,,,,,,,,,,,,,,,,,,1587.0210315994918,None,,,,,,,,,,,,,,,,,budget,new_sing,yellow,32,90,34,1584.3654133994132,None,1584.3654133994132,None,5,1.7943817991763353,1584.3654133994132,None,1586.206410098821,None,1586.715533098206,None,1586.715533098206,None,r,0.27626270055770874,1586.715533098206,None,,,nc_35,001,2022_Apr_12_1329,ProdSingRedo,3.2.3,60.01565164219165,
,,,,33,0,33,0,,,,,,,,,,,,,,,,,,,,,,,,1589.6234838999808,None,,,,,,,,,,,,,,,,,pattern,aloud,blue,33,39,214,1587.5489193983376,None,1587.5489193983376,None,6,1.1468768008053303,1587.5489193983376,None,1588.742234898731,None,1589.2602099999785,None,1589.2602099999785,None,r,0.3316272012889385,1589.2602099999785,None,,,nc_35,001,2022_Apr_12_1329,ProdSingRedo,3.2.3,60.01565164219165,
,,,,34,0,34,0,,,,,,,,,,,,,,,,,,,,,,,,1592.8475091997534,None,,,,,,,,,,,,,,,,,number,new_silent,red,34,171,203,1590.1546743996441,None,1590.1546743996441,None,3,1.597307899966836,1590.1546743996441,None,1591.7890501990914,None,1592.3167801983654,None,1592.3167801983654,None,f,0.4990867991000414,1592.3167801983654,None,,,nc_35,001,2022_Apr_12_1329,ProdSingRedo,3.2.3,60.01565164219165,
,,,,35,0,35,0,,,,,,,,,,,,,,,,,,,,,,,,1595.8131049983203,None,,,,,,,,,,,,,,,,,smooth,new_silent,red,35,164,292,1593.3681409992278,None,1593.3681409992278,None,1,1.5516890995204449,1593.3681409992278,None,1594.9582103993744,None,1595.4797890987247,None,1595.4797890987247,None,n,0.3039503004401922,1595.4797890987247,None,,,nc_35,001,2022_Apr_12_1329,ProdSingRedo,3.2.3,60.01565164219165,
,,,,36,0,36,0,,,,,,,,,,,,,,,,,,,,,,,,1599.766122398898,None,,,,,,,,,,,,,,,,,rural,new_sing,yellow,36,109,269,1596.3412368986756,None,1596.3412368986756,None,1,1.8186173997819424,1596.3412368986756,None,1598.21035659872,None,1598.7384124994278,None,1598.7384124994278,None,n,1.0052093993872404,1598.7384124994278,None,,,nc_35,001,2022_Apr_12_1329,ProdSingRedo,3.2.3,60.01565164219165,
,,,,37,0,37,0,,,,,,,,,,,,,,,,,,,,,,,,1605.2566663995385,None,,,,,,,,,,,,,,,,,executive,new_silent,red,37,172,122,1600.2993472982198,None,1600.2993472982198,None,3,3.7643619999289513,1600.2993472982198,None,1604.1078607998788,None,1604.626389298588,None,1604.626389298588,None,n,0.6052930001169443,1604.626389298588,None,,,nc_35,001,2022_Apr_12_1329,ProdSingRedo,3.2.3,60.01565164219165,
,,,,38,0,38,0,,,,,,,,,,,,,,,,,,,,,,,,1608.9261413998902,None,,,,,,,,,,,,,,,,,sight,sing,yellow,38,22,286,1605.781992599368,None,1605.781992599368,None,6,1.6097979992628098,1605.781992599368,None,1607.4390692990273,None,1607.9600186999887,None,1607.9600186999887,None,r,0.9357520006597042,1607.9600186999887,None,,,nc_35,001,2022_Apr_12_1329,ProdSingRedo,3.2.3,60.01565164219165,
,,,,39,0,39,0,,,,,,,,,,,,,,,,,,,,,,,,1611.679534399882,None,,,,,,,,,,,,,,,,,colonel,aloud,blue,39,46,55,1609.4501995984465,None,1609.4501995984465,None,6,1.2536449003964663,1609.4501995984465,None,1610.7397178988904,None,1611.2596191987395,None,1611.2596191987395,None,r,0.3959532994776964,1611.2596191987395,None,,,nc_35,001,2022_Apr_12_1329,ProdSingRedo,3.2.3,60.01565164219165,
,,,,40,0,40,0,,,,,,,,,,,,,,,,,,,,,,,,1615.3513091988862,None,,,,,,,,,,,,,,,,,scale,new_aloud,blue,40,144,272,1612.2067151982337,None,1612.2067151982337,None,6,1.6328413002192974,1612.2067151982337,None,1613.8807267993689,None,1614.4022120982409,None,1614.4022120982409,None,r,0.9175642002373934,1614.4022120982409,None,,,nc_35,001,2022_Apr_12_1329,ProdSingRedo,3.2.3,60.01565164219165,
,,,,41,0,41,0,,,,,,,,,,,,,,,,,,,,,,,,1617.9525472987443,None,,,,,,,,,,,,,,,,,level,sing,yellow,41,24,170,1615.87473089993,None,1615.87473089993,None,6,1.1089524999260902,1615.87473089993,None,1617.042724499479,None,1617.5555395986885,None,1617.5555395986885,None,r,0.37236930057406425,1617.5555395986885,None,,,nc_35,001,2022_Apr_12_1329,ProdSingRedo,3.2.3,60.01565164219165,
,,,,42,0,42,0,,,,,,,,,,,,,,,,,,,,,,,,1620.4721287991852,None,,,,,,,,,,,,,,,,,write,aloud,blue,42,37,358,1618.477647298947,None,1618.477647298947,None,6,0.9941032007336617,1618.477647298947,None,1619.517824999988,None,1620.035796198994,None,1620.035796198994,None,r,0.4120974000543356,1620.035796198994,None,,,nc_35,001,2022_Apr_12_1329,ProdSingRedo,3.2.3,60.01565164219165,
,,,,43,0,43,0,,,,,,,,,,,,,,,,,,,,,,,,1626.1755832992494,None,,,,,,,,,,,,,,,,,thing,new_aloud,blue,43,132,328,1620.9961895998567,None,1620.9961895998567,None,1,4.307461699470878,1620.9961895998567,None,1625.3414624985307,None,1625.8610904999077,None,1625.8610904999077,None,n,0.2904450986534357,1625.8610904999077,None,,,nc_35,001,2022_Apr_12_1329,ProdSingRedo,3.2.3,60.01565164219165,
,,,,44,0,44,0,,,,,,,,,,,,,,,,,,,,,,,,1629.146355099976,None,,,,,,,,,,,,,,,,,pretty,new_silent,red,44,155,233,1626.7005833983421,None,1626.7005833983421,None,1,1.779100900515914,1626.7005833983421,None,1628.526288498193,None,1629.0501160994172,None,1629.0501160994172,None,n,0.06972020119428635,1629.0501160994172,None,,,nc_35,001,2022_Apr_12_1329,ProdSingRedo,3.2.3,60.01565164219165,
,,,,45,0,45,0,,,,,,,,,,,,,,,,,,,,,,,,1632.2086482997984,None,,,,,,,,,,,,,,,,,council,sing,yellow,45,0,71,1629.6725048981607,None,1629.6725048981607,None,6,1.4552345983684063,1629.6725048981607,None,1631.18089379929,None,1631.702465299517,None,1631.702465299517,None,r,0.48876520060002804,1631.702465299517,None,,,nc_35,001,2022_Apr_12_1329,ProdSingRedo,3.2.3,60.01565164219165,
,,,,46,0,46,0,,,,,,,,,,,,,,,,,,,,,,,,1635.8874332997948,None,,,,,,,,,,,,,,,,,thick,new_aloud,blue,46,143,327,1632.709067499265,None,1632.709067499265,None,1,2.426206801086664,1632.709067499265,None,1635.1664528995752,None,1635.686799298972,None,1635.686799298972,None,n,0.16890340112149715,1635.686799298972,None,,,nc_35,001,2022_Apr_12_1329,ProdSingRedo,3.2.3,60.01565164219165,
,,,,47,0,47,0,,,,,,,,,,,,,,,,,,,,,,,,1639.2082845997065,None,,,,,,,,,,,,,,,,,profession,silent,red,47,89,241,1636.4186429996043,None,1636.4186429996043,None,5,1.8608573004603386,1636.4186429996043,None,1638.3194176983088,None,1638.8454107996076,None,1638.8454107996076,None,f,0.3303450997918844,1638.8454107996076,None,,,nc_35,001,2022_Apr_12_1329,ProdSingRedo,3.2.3,60.01565164219165,
,,,,48,0,48,0,,,,,,,,,,,,,,,,,,,,,,,,1643.0699741989374,None,,,,,,,,,,,,,,,,,background,aloud,blue,48,51,16,1639.7372567988932,None,1639.7372567988932,None,6,1.7503557987511158,1639.7372567988932,None,1641.551256198436,None,1642.0676880981773,None,1642.0676880981773,None,r,0.9795295000076294,1642.0676880981773,None,,,nc_35,001,2022_Apr_12_1329,ProdSingRedo,3.2.3,60.01565164219165,
,,,,49,0,49,0,,,,,,,,,,,,,,,,,,,,,,,,1646.9974737986922,None,,,,,,,,,,,,,,,,,space,new_sing,yellow,49,95,297,1643.5760433990508,None,1643.5760433990508,None,6,2.4476768001914024,1643.5760433990508,None,1646.0637088995427,None,1646.583282198757,None,1646.583282198757,None,r,0.38436200097203255,1646.583282198757,None,,,nc_35,001,2022_Apr_12_1329,ProdSingRedo,3.2.3,60.01565164219165,
,,,,50,0,50,0,,,,,,,,,,,,,,,,,,,,,,,,1650.3143265992403,None,,,,,,,,,,,,,,,,,master,new_sing,yellow,50,118,180,1647.5236213989556,None,1647.5236213989556,None,3,2.0599827002733946,1647.5236213989556,None,1649.6288984995335,None,1650.160090699792,None,1650.160090699792,None,n,0.11950409971177578,1650.160090699792,None,,,nc_35,001,2022_Apr_12_1329,ProdSingRedo,3.2.3,60.01565164219165,
,,,,51,0,51,0,,,,,,,,,,,,,,,,,,,,,,,,1653.3336068987846,None,,,,,,,,,,,,,,,,,region,silent,red,51,70,256,1650.841062599793,None,1650.841062599793,None,3,1.8865926004946232,1650.841062599793,None,1652.7688830997795,None,1653.2888831999153,None,1653.2888831999153,None,n,0.022430799901485443,1653.2888831999153,None,,,nc_35,001,2022_Apr_12_1329,ProdSingRedo,3.2.3,60.01565164219165,
,,,,52,0,52,0,,,,,,,,,,,,,,,,,,,,,,,,1656.5912855993956,None,,,,,,,,,,,,,,,,,shear,new_aloud,blue,52,135,283,1653.8624920994043,None,1653.8624920994043,None,1,1.961287498474121,1653.8624920994043,None,1655.8674503993243,None,1656.3909898996353,None,1656.3909898996353,None,n,0.17664710059762,1656.3909898996353,None,,,nc_35,001,2022_Apr_12_1329,ProdSingRedo,3.2.3,60.01565164219165,
,,,,53,0,53,0,,,,,,,,,,,,,,,,,,,,,,,,1659.526410298422,None,,,,,,,,,,,,,,,,,personnel,new_sing,yellow,53,102,219,1657.1133442986757,None,1657.1133442986757,None,1,1.790455300360918,1657.1133442986757,None,1658.9394171983004,None,1659.4594039991498,None,1659.4594039991498,None,n,0.04409069940447807,1659.4594039991498,None,,,nc_35,001,2022_Apr_12_1329,ProdSingRedo,3.2.3,60.01565164219165,
,,,,54,0,54,0,,,,,,,,,,,,,,,,,,,,,,,,1663.412852698937,None,,,,,,,,,,,,,,,,,bicycle,new_silent,red,54,165,21,1660.0575809981674,None,1660.0575809981674,None,1,1.582115299999714,1660.0575809981674,None,1661.686408098787,None,1662.2066491991282,None,1662.2066491991282,None,n,1.16890399903059,1662.2066491991282,None,,,nc_35,001,2022_Apr_12_1329,ProdSingRedo,3.2.3,60.01565164219165,
,,,,55,0,55,0,,,,,,,,,,,,,,,,,,,,,,,,1667.4824294988066,None,,,,,,,,,,,,,,,,,heavy,new_aloud,blue,55,127,151,1663.9399436991662,None,1663.9399436991662,None,2,2.6598281003534794,1663.9399436991662,None,1666.646382799372,None,1667.1728895995766,None,1667.1728895995766,None,n,0.2746495995670557,1667.1728895995766,None,,,nc_35,001,2022_Apr_12_1329,ProdSingRedo,3.2.3,60.01565164219165,
,,,,56,0,56,0,,,,,,,,,,,,,,,,,,,,,,,,1670.9887358993292,None,,,,,,,,,,,,,,,,,alert,new_silent,red,56,162,6,1668.007435798645,None,1668.007435798645,None,4,2.03210680000484,1668.007435798645,None,1670.0822941996157,None,1670.60851309821,None,1670.60851309821,None,f,0.35125009901821613,1670.60851309821,None,,,nc_35,001,2022_Apr_12_1329,ProdSingRedo,3.2.3,60.01565164219165,
,,,,57,0,57,0,,,,,,,,,,,,,,,,,,,,,,,,1678.8959970995784,None,,,,,,,,,,,,,,,,,congress,sing,yellow,57,5,67,1671.5098449997604,None,1671.5098449997604,None,4,5.9856867007911205,1671.5098449997604,None,1677.5549848992378,None,1678.0651558991522,None,1678.0651558991522,None,f,0.7984042000025511,1678.0651558991522,None,,,nc_35,001,2022_Apr_12_1329,ProdSingRedo,3.2.3,60.01565164219165,
,,,,58,0,58,0,,,,,,,,,,,,,,,,,,,,,,,,1682.3281946983188,None,,,,,,,,,,,,,,,,,cousin,new_aloud,blue,58,142,76,1679.4178632982075,None,1679.4178632982075,None,4,1.8136785998940468,1679.4178632982075,None,1681.2805914990604,None,1681.801393598318,None,1681.801393598318,None,f,0.4783167000859976,1681.801393598318,None,,,nc_35,001,2022_Apr_12_1329,ProdSingRedo,3.2.3,60.01565164219165,
,,,,59,0,59,0,,,,,,,,,,,,,,,,,,,,,,,,1685.3756596986204,None,,,,,,,,,,,,,,,,,crowd,silent,red,59,83,81,1682.8591185994446,None,1682.8591185994446,None,3,1.6205492001026869,1682.8591185994446,None,1684.5341984983534,None,1685.0537520982325,None,1685.0537520982325,None,f,0.28999209962785244,1685.0537520982325,None,,,nc_35,001,2022_Apr_12_1329,ProdSingRedo,3.2.3,60.01565164219165,
,,,,60,0,60,0,,,,,,,,,,,,,,,,,,,,,,,,1689.0907164998353,None,,,,,,,,,,,,,,,,,present,new_silent,red,60,178,231,1685.8900475986302,None,1685.8900475986302,None,4,2.341448299586773,1685.8900475986302,None,1688.2577749993652,None,1688.7697599995881,None,1688.7697599995881,None,f,0.2859916016459465,1688.7697599995881,None,,,nc_35,001,2022_Apr_12_1329,ProdSingRedo,3.2.3,60.01565164219165,
,,,,61,0,61,0,,,,,,,,,,,,,,,,,,,,,,,,1692.026728598401,None,,,,,,,,,,,,,,,,,rough,aloud,blue,61,58,266,1689.6170036997646,None,1689.6170036997646,None,6,1.3824615012854338,1689.6170036997646,None,1691.0415152981877,None,1691.5601382981986,None,1691.5601382981986,None,f,0.43160790018737316,1691.5601382981986,None,,,nc_35,001,2022_Apr_12_1329,ProdSingRedo,3.2.3,60.01565164219165,
,,,,62,0,62,0,,,,,,,,,,,,,,,,,,,,,,,,1694.7462208997458,None,,,,,,,,,,,,,,,,,mechanical,aloud,blue,62,57,185,1692.5379080995917,None,1692.5379080995917,None,6,1.1337917987257242,1692.5379080995917,None,1693.7161741983145,None,1694.2344110999256,None,1694.2344110999256,None,r,0.47735049948096275,1694.2344110999256,None,,,nc_35,001,2022_Apr_12_1329,ProdSingRedo,3.2.3,60.01565164219165,
,,,,63,0,63,0,,,,,,,,,,,,,,,,,,,,,,,,1697.9488662984222,None,,,,,,,,,,,,,,,,,owner,new_aloud,blue,63,134,208,1695.2720158994198,None,1695.2720158994198,None,1,1.7355934996157885,1695.2720158994198,None,1697.0454751998186,None,1697.5677052997053,None,1697.5677052997053,None,n,0.3439608998596668,1697.5677052997053,None,,,nc_35,001,2022_Apr_12_1329,ProdSingRedo,3.2.3,60.01565164219165,
,,,,64,0,64,0,,,,,,,,,,,,,,,,,,,,,,,,1701.0506463982165,None,,,,,,,,,,,,,,,,,vision,sing,yellow,64,27,347,1698.475217198953,None,1698.475217198953,None,6,1.7002344001084566,1698.475217198953,None,1700.2091389987618,None,1700.7212768997997,None,1700.7212768997997,None,r,0.2942858003079891,1700.7212768997997,None,,,nc_35,001,2022_Apr_12_1329,ProdSingRedo,3.2.3,60.01565164219165,
,,,,65,0,65,0,,,,,,,,,,,,,,,,,,,,,,,,1704.2381754983217,None,,,,,,,,,,,,,,,,,brilliant,new_silent,red,65,158,30,1701.5817839987576,None,1701.5817839987576,None,3,1.4419978000223637,1701.5817839987576,None,1703.0684208981693,None,1703.5922008994967,None,1703.5922008994967,None,n,0.6074241995811462,1703.5922008994967,None,,,nc_35,001,2022_Apr_12_1329,ProdSingRedo,3.2.3,60.01565164219165,
,,,,66,0,66,0,,,,,,,,,,,,,,,,,,,,,,,,1706.8897999990731,None,,,,,,,,,,,,,,,,,foundation,silent,red,66,71,132,1704.763352798298,None,1704.763352798298,None,2,1.3078412003815174,1704.763352798298,None,1706.1038850992918,None,1706.6267750989646,None,1706.6267750989646,None,n,0.2367487996816635,1706.6267750989646,None,,,nc_35,001,2022_Apr_12_1329,ProdSingRedo,3.2.3,60.01565164219165,
,,,,67,0,67,0,,,,,,,,,,,,,,,,,,,,,,,,1710.1102127991617,None,,,,,,,,,,,,,,,,,impact,sing,yellow,67,2,157,1707.4194758981466,None,1707.4194758981466,None,4,1.9400460999459028,1707.4194758981466,None,1709.4112528990954,None,1709.9298517983407,None,1709.9298517983407,None,f,0.14157910086214542,1709.9298517983407,None,,,nc_35,001,2022_Apr_12_1329,ProdSingRedo,3.2.3,60.01565164219165,
,,,,68,0,68,0,,,,,,,,,,,,,,,,,,,,,,,,1712.9979552999139,None,,,,,,,,,,,,,,,,,attack,aloud,blue,68,55,13,1710.6407027989626,None,1710.6407027989626,None,6,1.4707337003201246,1710.6407027989626,None,1712.1546402983367,None,1712.6676605995744,None,1712.6676605995744,None,r,0.2919468004256487,1712.6676605995744,None,,,nc_35,001,2022_Apr_12_1329,ProdSingRedo,3.2.3,60.01565164219165,
,,,,69,0,69,0,,,,,,,,,,,,,,,,,,,,,,,,1716.0660552997142,None,,,,,,,,,,,,,,,,,welcome,new_silent,red,69,177,354,1713.522117998451,None,1713.522117998451,None,5,1.6457085013389587,1713.522117998451,None,1715.2350504994392,None,1715.7340439986438,None,1715.7340439986438,None,f,0.29751599952578545,1715.7340439986438,None,,,nc_35,001,2022_Apr_12_1329,ProdSingRedo,3.2.3,60.01565164219165,
,,,,70,0,70,0,,,,,,,,,,,,,,,,,,,,,,,,1718.9028057996184,None,,,,,,,,,,,,,,,,,sleep,new_silent,red,70,152,290,1716.5873174984008,None,1716.5873174984008,None,4,1.484247699379921,1716.5873174984008,None,1718.113610798493,None,1718.6345523986965,None,1718.6345523986965,None,f,0.2369512002915144,1718.6345523986965,None,,,nc_35,001,2022_Apr_12_1329,ProdSingRedo,3.2.3,60.01565164219165,
,,,,71,0,71,0,,,,,,,,,,,,,,,,,,,,,,,,1722.5817915983498,None,,,,,,,,,,,,,,,,,health,sing,yellow,71,3,149,1719.4286692999303,None,1719.4286692999303,None,5,2.474849099293351,1719.4286692999303,None,1721.9543090984225,None,1722.4647372998297,None,1722.4647372998297,None,f,0.09441380016505718,1722.4647372998297,None,,,nc_35,001,2022_Apr_12_1329,ProdSingRedo,3.2.3,60.01565164219165,
,,,,72,0,72,0,,,,,,,,,,,,,,,,,,,,,,,,1725.0596075989306,None,,,,,,,,,,,,,,,,,signal,sing,yellow,72,25,287,1723.1016947999597,None,1723.1016947999597,None,6,1.2737396005541086,1723.1016947999597,None,1724.428540699184,None,1724.9464862998575,None,1724.9464862998575,None,r,0.08502130024135113,1724.9464862998575,None,,,nc_35,001,2022_Apr_12_1329,ProdSingRedo,3.2.3,60.01565164219165,
,,,,73,0,73,0,,,,,,,,,,,,,,,,,,,,,,,,1728.4798889998347,None,,,,,,,,,,,,,,,,,production,new_silent,red,73,154,240,1725.5877514984459,None,1725.5877514984459,None,4,2.0918501000851393,1725.5877514984459,None,1727.72294629924,None,1728.2497736997902,None,1728.2497736997902,None,f,0.1977682989090681,1728.2497736997902,None,,,nc_35,001,2022_Apr_12_1329,ProdSingRedo,3.2.3,60.01565164219165,
,,,,74,0,74,0,,,,,,,,,,,,,,,,,,,,,,,,1732.2659127991647,None,,,,,,,,,,,,,,,,,little,silent,red,74,84,174,1729.004693299532,None,1729.004693299532,None,1,1.65078179910779,1729.004693299532,None,1730.6901672985405,None,1731.199007799849,None,1731.199007799849,None,n,1.0324188005179167,1731.199007799849,None,,,nc_35,001,2022_Apr_12_1329,ProdSingRedo,3.2.3,60.01565164219165,
,,,,75,0,75,0,,,,,,,,,,,,,,,,,,,,,,,,1734.8343010991812,None,,,,,,,,,,,,,,,,,appeal,new_silent,red,75,166,9,1732.7942558992654,None,1732.7942558992654,None,1,1.2372131999582052,1732.7942558992654,None,1734.0845930986106,None,1734.6048988997936,None,1734.6048988997936,None,n,0.19473250024020672,1734.6048988997936,None,,,nc_35,001,2022_Apr_12_1329,ProdSingRedo,3.2.3,60.01565164219165,
,,,,76,0,76,0,,,,,,,,,,,,,,,,,,,,,,,,1737.6043258998543,None,,,,,,,,,,,,,,,,,whole,new_silent,red,76,169,355,1735.3599640987813,None,1735.3599640987813,None,1,1.4235718995332718,1735.3599640987813,None,1736.8341507986188,None,1737.3553941994905,None,1737.3553941994905,None,n,0.22016460075974464,1737.3553941994905,None,,,nc_35,001,2022_Apr_12_1329,ProdSingRedo,3.2.3,60.01565164219165,
,,,,77,0,77,0,,,,,,,,,,,,,,,,,,,,,,,,1742.5268783997744,None,,,,,,,,,,,,,,,,,broke,aloud,blue,77,41,32,1738.1239646989852,None,1738.1239646989852,None,5,3.771815801039338,1738.1239646989852,None,1741.9438450988382,None,1742.464092399925,None,1742.464092399925,None,f,0.03924870118498802,1742.464092399925,None,,,nc_35,001,2022_Apr_12_1329,ProdSingRedo,3.2.3,60.01565164219165,
,,,,78,0,78,0,,,,,,,,,,,,,,,,,,,,,,,,1746.9815972987562,None,,,,,,,,,,,,,,,,,music,aloud,blue,78,47,196,1743.0519913993776,None,1743.0519913993776,None,4,2.3795317001640797,1743.0519913993776,None,1745.4780640993267,None,1745.999471699819,None,1745.999471699819,None,f,0.9521150998771191,1745.999471699819,None,,,nc_35,001,2022_Apr_12_1329,ProdSingRedo,3.2.3,60.01565164219165,
,,,,79,0,79,0,,,,,,,,,,,,,,,,,,,,,,,,1749.5823269989341,None,,,,,,,,,,,,,,,,,staff,aloud,blue,79,30,301,1747.5057688988745,None,1747.5057688988745,None,6,1.3177342005074024,1747.5057688988745,None,1748.8620066996664,None,1749.3853927999735,None,1749.3853927999735,None,f,0.1660264991223812,1749.3853927999735,None,,,nc_35,001,2022_Apr_12_1329,ProdSingRedo,3.2.3,60.01565164219165,
,,,,80,0,80,0,,,,,,,,,,,,,,,,,,,,,,,,1752.794944299385,None,,,,,,,,,,,,,,,,,blind,new_sing,yellow,80,94,24,1750.1082129999995,None,1750.1082129999995,None,1,1.9393569994717836,1750.1082129999995,None,1752.1006585992873,None,1752.6116768997163,None,1752.6116768997163,None,n,0.15541869960725307,1752.6116768997163,None,,,nc_35,001,2022_Apr_12_1329,ProdSingRedo,3.2.3,60.01565164219165,
,,,,81,0,81,0,,,,,,,,,,,,,,,,,,,,,,,,1755.721867898479,None,,,,,,,,,,,,,,,,,phrase,aloud,blue,81,40,220,1753.301747199148,None,1753.301747199148,None,6,1.146000200882554,1753.301747199148,None,1754.4811800997704,None,1754.9942134991288,None,1754.9942134991288,None,r,0.6932462006807327,1754.9942134991288,None,,,nc_35,001,2022_Apr_12_1329,ProdSingRedo,3.2.3,60.01565164219165,
,,,,82,0,82,0,,,,,,,,,,,,,,,,,,,,,,,,1759.440700698644,None,,,,,,,,,,,,,,,,,birth,silent,red,82,79,22,1756.2475397996604,None,1756.2475397996604,None,4,2.3119093012064695,1756.2475397996604,None,1758.6052194982767,None,1759.126699598506,None,1759.126699598506,None,f,0.2807033993303776,1759.126699598506,None,,,nc_35,001,2022_Apr_12_1329,ProdSingRedo,3.2.3,60.01565164219165,
,,,,83,0,83,0,,,,,,,,,,,,,,,,,,,,,,,,1763.546867299825,None,,,,,,,,,,,,,,,,,captain,new_aloud,blue,83,129,41,1759.9668451994658,None,1759.9668451994658,None,3,2.800536399707198,1759.9668451994658,None,1762.8125721998513,None,1763.3397196996957,None,1763.3397196996957,None,f,0.1800471991300583,1763.3397196996957,None,,,nc_35,001,2022_Apr_12_1329,ProdSingRedo,3.2.3,60.01565164219165,
,,,,84,0,84,0,,,,,,,,,,,,,,,,,,,,,,,,1766.692815799266,None,,,,,,,,,,,,,,,,,corner,sing,yellow,84,4,69,1764.0690840985626,None,1764.0690840985626,None,5,1.754306599497795,1764.0690840985626,None,1765.8616947997361,None,1766.3824776988477,None,1766.3824776988477,None,f,0.28855549916625023,1766.3824776988477,None,,,nc_35,001,2022_Apr_12_1329,ProdSingRedo,3.2.3,60.01565164219165,
,,,,85,0,85,0,,,,,,,,,,,,,,,,,,,,,,,,1769.5710612982512,None,,,,,,,,,,,,,,,,,agency,new_silent,red,85,170,4,1767.2122771982104,None,1767.2122771982104,None,4,1.4191680010408163,1767.2122771982104,None,1768.6857321988791,None,1769.2032837998122,None,1769.2032837998122,None,f,0.33244279958307743,1769.2032837998122,None,,,nc_35,001,2022_Apr_12_1329,ProdSingRedo,3.2.3,60.01565164219165,
,,,,86,0,86,0,,,,,,,,,,,,,,,,,,,,,,,,1772.2925603985786,None,,,,,,,,,,,,,,,,,public,new_aloud,blue,86,120,244,1770.100290298462,None,1770.100290298462,None,6,1.3389552999287844,1770.100290298462,None,1771.4758976995945,None,1771.9943676982075,None,1771.9943676982075,None,r,0.2690158002078533,1771.9943676982075,None,,,nc_35,001,2022_Apr_12_1329,ProdSingRedo,3.2.3,60.01565164219165,
,,,,87,0,87,0,,,,,,,,,,,,,,,,,,,,,,,,1774.7268913984299,None,,,,,,,,,,,,,,,,,conference,aloud,blue,87,53,66,1772.818716198206,None,1772.818716198206,None,6,1.0764832999557257,1772.818716198206,None,1773.9408917985857,None,1774.449338098988,None,1774.449338098988,None,r,0.24613150022923946,1774.449338098988,None,,,nc_35,001,2022_Apr_12_1329,ProdSingRedo,3.2.3,60.01565164219165,
,,,,88,0,88,0,,,,,,,,,,,,,,,,,,,,,,,,1778.1272897999734,None,,,,,,,,,,,,,,,,,author,new_sing,yellow,88,119,15,1775.2497105989605,None,1775.2497105989605,None,1,2.109561998397112,1775.2497105989605,None,1777.4081742987037,None,1777.9200603999197,None,1777.9200603999197,None,n,0.17552649974822998,1777.9200603999197,None,,,nc_35,001,2022_Apr_12_1329,ProdSingRedo,3.2.3,60.01565164219165,
,,,,89,0,89,0,,,,,,,,,,,,,,,,,,,,,,,,1781.315785098821,None,,,,,,,,,,,,,,,,,breath,new_aloud,blue,89,126,27,1778.6527056992054,None,1778.6527056992054,None,1,1.8108340986073017,1778.6527056992054,None,1780.515348598361,None,1781.0427727997303,None,1781.0427727997303,None,n,0.2446643002331257,1781.0427727997303,None,,,nc_35,001,2022_Apr_12_1329,ProdSingRedo,3.2.3,60.01565164219165,
,,,,90,0,90,0,,,,,,,,,,,,,,,,,,,,,,,,1784.4344866983593,None,,,,,,,,,,,,,,,,,nation,new_sing,yellow,90,91,198,1781.8433094993234,None,1781.8433094993234,None,1,1.6999639999121428,1781.8433094993234,None,1783.5782855991274,None,1784.1042297985405,None,1784.1042297985405,None,n,0.3032012991607189,1784.1042297985405,None,,,nc_35,001,2022_Apr_12_1329,ProdSingRedo,3.2.3,60.01565164219165,
,,,,91,0,91,0,,,,,,,,,,,,,,,,,,,,,,,,1787.287970399484,None,,,,,,,,,,,,,,,,,motion,new_sing,yellow,91,108,194,1784.955339498818,None,1784.955339498818,None,1,1.4759145993739367,1784.955339498818,None,1786.4798095989972,None,1786.9861792996526,None,1786.9861792996526,None,n,0.26919559948146343,1786.9861792996526,None,,,nc_35,001,2022_Apr_12_1329,ProdSingRedo,3.2.3,60.01565164219165,
,,,,92,0,92,0,,,,,,,,,,,,,,,,,,,,,,,,1791.2227739989758,None,,,,,,,,,,,,,,,,,orchestra,aloud,blue,92,48,206,1787.814629798755,None,1787.814629798755,None,6,2.4166896995157003,1787.814629798755,None,1790.2684132996947,None,1790.7931904997677,None,1790.7931904997677,None,r,0.4063633009791374,1790.7931904997677,None,,,nc_35,001,2022_Apr_12_1329,ProdSingRedo,3.2.3,60.01565164219165,
,,,,93,0,93,0,,,,,,,,,,,,,,,,,,,,,,,,1793.911719398573,None,,,,,,,,,,,,,,,,,universal,sing,yellow,93,20,345,1791.7557788994163,None,1791.7557788994163,None,6,1.2516741994768381,1791.7557788994163,None,1793.0580784995109,None,1793.5859053991735,None,1793.5859053991735,None,r,0.29347010143101215,1793.5859053991735,None,,,nc_35,001,2022_Apr_12_1329,ProdSingRedo,3.2.3,60.01565164219165,
,,,,94,0,94,0,,,,,,,,,,,,,,,,,,,,,,,,1796.6299609988928,None,,,,,,,,,,,,,,,,,question,sing,yellow,94,28,247,1794.4375039990991,None,1794.4375039990991,None,1,1.5299331992864609,1794.4375039990991,None,1796.016338499263,None,1796.533672798425,None,1796.533672798425,None,n,0.07359779998660088,1796.533672798425,None,,,nc_35,001,2022_Apr_12_1329,ProdSingRedo,3.2.3,60.01565164219165,
,,,,95,0,95,0,,,,,,,,,,,,,,,,,,,,,,,,1800.7001153994352,None,,,,,,,,,,,,,,,,,industry,aloud,blue,95,33,161,1797.159905999899,None,1797.159905999899,None,4,2.4073840007185936,1797.159905999899,None,1799.617519998923,None,1800.1393617987633,None,1800.1393617987633,None,f,0.52419270016253,1800.1393617987633,None,,,nc_35,001,2022_Apr_12_1329,ProdSingRedo,3.2.3,60.01565164219165,
,,,,96,0,96,0,,,,,,,,,,,,,,,,,,,,,,,,1803.3890774995089,None,,,,,,,,,,,,,,,,,skill,sing,yellow,96,9,289,1801.2287903986871,None,1801.2287903986871,None,6,1.266633801162243,1801.2287903986871,None,1802.532890399918,None,1803.063214899972,None,1803.063214899972,None,r,0.29609519988298416,1803.063214899972,None,,,nc_35,001,2022_Apr_12_1329,ProdSingRedo,3.2.3,60.01565164219165,
,,,,97,0,97,0,,,,,,,,,,,,,,,,,,,,,,,,1807.4911952987313,None,,,,,,,,,,,,,,,,,report,sing,yellow,97,16,259,1803.9103825986385,None,1803.9103825986385,None,1,2.5850221011787653,1803.9103825986385,None,1806.5371190998703,None,1807.0563521999866,None,1807.0563521999866,None,n,0.3989962004125118,1807.0563521999866,None,,,nc_35,001,2022_Apr_12_1329,ProdSingRedo,3.2.3,60.01565164219165,
,,,,98,0,98,0,,,,,,,,,,,,,,,,,,,,,,,,1811.1440387982875,None,,,,,,,,,,,,,,,,,graduate,new_silent,red,98,175,141,1808.0230868998915,None,1808.0230868998915,None,3,2.2002086993306875,1808.0230868998915,None,1810.2757686991245,None,1810.7826477997005,None,1810.7826477997005,None,f,0.3288355004042387,1810.7826477997005,None,,,nc_35,001,2022_Apr_12_1329,ProdSingRedo,3.2.3,60.01565164219165,
,,,,99,0,99,0,,,,,,,,,,,,,,,,,,,,,,,,1813.9395180996507,None,,,,,,,,,,,,,,,,,community,aloud,blue,99,42,63,1811.6744223982096,None,1811.6744223982096,None,6,1.2605763990432024,1811.6744223982096,None,1812.959654899314,None,1813.483330199495,None,1813.483330199495,None,r,0.4199781995266676,1813.483330199495,None,,,nc_35,001,2022_Apr_12_1329,ProdSingRedo,3.2.3,60.01565164219165,
,,,,100,0,100,0,,,,,,,,,,,,,,,,,,,,,,,,1816.7198674995452,None,,,,,,,,,,,,,,,,,answer,new_aloud,blue,100,136,8,1814.4636031985283,None,1814.4636031985283,None,6,1.3038240000605583,1814.4636031985283,None,1815.8165222983807,None,1816.3352827988565,None,1816.3352827988565,None,r,0.3440569993108511,1816.3352827988565,None,,,nc_35,001,2022_Apr_12_1329,ProdSingRedo,3.2.3,60.01565164219165,
,,,,101,0,101,0,,,,,,,,,,,,,,,,,,,,,,,,1822.8572350982577,None,,,,,,,,,,,,,,,,,second,new_silent,red,101,161,278,1817.2381889987737,None,1817.2381889987737,None,4,4.089272098615766,1817.2381889987737,None,1821.365339299664,None,1821.8733649998903,None,1821.8733649998903,None,f,0.9578603003174067,1821.8733649998903,None,,,nc_35,001,2022_Apr_12_1329,ProdSingRedo,3.2.3,60.01565164219165,
,,,,102,0,102,0,,,,,,,,,,,,,,,,,,,,,,,,1825.4253192991018,None,,,,,,,,,,,,,,,,,prime,aloud,blue,102,59,235,1823.3759774994105,None,1823.3759774994105,None,6,1.1676010992377996,1823.3759774994105,None,1824.5832501985133,None,1825.0918951984495,None,1825.0918951984495,None,r,0.2992294002324343,1825.0918951984495,None,,,nc_35,001,2022_Apr_12_1329,ProdSingRedo,3.2.3,60.01565164219165,
,,,,103,0,103,0,,,,,,,,,,,,,,,,,,,,,,,,1828.2459560986608,None,,,,,,,,,,,,,,,,,quantity,new_sing,yellow,103,112,245,1825.955242998898,None,1825.955242998898,None,1,1.3240725994110107,1825.955242998898,None,1827.3302532993257,None,1827.8506307993084,None,1827.8506307993084,None,n,0.35684060119092464,1827.8506307993084,None,,,nc_35,001,2022_Apr_12_1329,ProdSingRedo,3.2.3,60.01565164219165,
,,,,104,0,104,0,,,,,,,,,,,,,,,,,,,,,,,,1831.8310815989971,None,,,,,,,,,,,,,,,,,commercial,new_sing,yellow,104,97,61,1828.7881702985615,None,1828.7881702985615,None,1,2.2832660991698503,1828.7881702985615,None,1831.118468299508,None,1831.6365814991295,None,1831.6365814991295,None,n,0.1705844011157751,1831.6365814991295,None,,,nc_35,001,2022_Apr_12_1329,ProdSingRedo,3.2.3,60.01565164219165,
,,,,105,0,105,0,,,,,,,,,,,,,,,,,,,,,,,,1835.096325499937,None,,,,,,,,,,,,,,,,,population,aloud,blue,105,56,227,1832.3586461991072,None,1832.3586461991072,None,5,1.8566045984625816,1832.3586461991072,None,1834.271585199982,None,1834.789536498487,None,1834.789536498487,None,f,0.25786460004746914,1834.789536498487,None,,,nc_35,001,2022_Apr_12_1329,ProdSingRedo,3.2.3,60.01565164219165,
,,,,106,0,106,0,,,,,,,,,,,,,,,,,,,,,,,,1838.1466692984104,None,,,,,,,,,,,,,,,,,point,new_aloud,blue,106,140,226,1835.620894499123,None,1835.620894499123,None,1,1.6499029006808996,1835.620894499123,None,1837.2990271989256,None,1837.8192454986274,None,1837.8192454986274,None,n,0.29954110085964203,1837.8192454986274,None,,,nc_35,001,2022_Apr_12_1329,ProdSingRedo,3.2.3,60.01565164219165,
,,,,107,0,107,0,,,,,,,,,,,,,,,,,,,,,,,,1841.556640798226,None,,,,,,,,,,,,,,,,,month,sing,yellow,107,8,193,1838.660287199542,None,1838.660287199542,None,1,1.9709140006452799,1838.660287199542,None,1840.6698779985309,None,1841.1835316997021,None,1841.1835316997021,None,n,0.3355365991592407,1841.1835316997021,None,,,nc_35,001,2022_Apr_12_1329,ProdSingRedo,3.2.3,60.01565164219165,
,,,,108,0,108,0,,,,,,,,,,,,,,,,,,,,,,,,1845.5305300988257,None,,,,,,,,,,,,,,,,,institute,silent,red,108,67,162,1842.08687469922,None,1842.08687469922,None,5,2.70427200011909,1842.08687469922,None,1844.8397434987128,None,1845.366678899154,None,1845.366678899154,None,f,0.13652870059013367,1845.366678899154,None,,,nc_35,001,2022_Apr_12_1329,ProdSingRedo,3.2.3,60.01565164219165,
,,,,109,0,109,0,,,,,,,,,,,,,,,,,,,,,,,,1848.3141307998449,None,,,,,,,,,,,,,,,,,clear,new_aloud,blue,109,145,52,1846.0555769987404,None,1846.0555769987404,None,1,1.3917414993047714,1846.0555769987404,None,1847.4959899988025,None,1848.0192002989352,None,1848.0192002989352,None,n,0.2599660996347666,1848.0192002989352,None,,,nc_35,001,2022_Apr_12_1329,ProdSingRedo,3.2.3,60.01565164219165,
,,,,110,0,110,0,,,,,,,,,,,,,,,,,,,,,,,,1850.968288898468,None,,,,,,,,,,,,,,,,,bucket,aloud,blue,110,31,33,1848.8445093985647,None,1848.8445093985647,None,6,1.1947923004627228,1848.8445093985647,None,1850.0848220996559,None,1850.6057286988944,None,1850.6057286988944,None,r,0.3376740999519825,1850.6057286988944,None,,,nc_35,001,2022_Apr_12_1329,ProdSingRedo,3.2.3,60.01565164219165,
,,,,111,0,111,0,,,,,,,,,,,,,,,,,,,,,,,,1853.6701964996755,None,,,,,,,,,,,,,,,,,course,new_sing,yellow,111,105,74,1851.4961919989437,None,1851.4961919989437,None,1,1.430927898734808,1851.4961919989437,None,1852.96681759879,None,1853.4727797992527,None,1853.4727797992527,None,n,0.17480150051414967,1853.4727797992527,None,,,nc_35,001,2022_Apr_12_1329,ProdSingRedo,3.2.3,60.01565164219165,
,,,,112,0,112,0,,,,,,,,,,,,,,,,,,,,,,,,1856.5779988989234,None,,,,,,,,,,,,,,,,,south,new_sing,yellow,112,114,296,1854.1963667999953,None,1854.1963667999953,None,1,1.6110766995698214,1854.1963667999953,None,1855.8556911982596,None,1856.3743730988353,None,1856.3743730988353,None,n,0.1608904004096985,1856.3743730988353,None,,,nc_35,001,2022_Apr_12_1329,ProdSingRedo,3.2.3,60.01565164219165,
,,,,113,0,113,0,,,,,,,,,,,,,,,,,,,,,,,,1859.5927871987224,None,,,,,,,,,,,,,,,,,dispute,silent,red,113,86,99,1857.103071598336,None,1857.103071598336,None,4,1.6640903986990452,1857.103071598336,None,1858.8144623991102,None,1859.334521399811,None,1859.334521399811,None,f,0.23277650028467178,1859.334521399811,None,,,nc_35,001,2022_Apr_12_1329,ProdSingRedo,3.2.3,60.01565164219165,
,,,,114,0,114,0,,,,,,,,,,,,,,,,,,,,,,,,1862.9127416983247,None,,,,,,,,,,,,,,,,,childhood,sing,yellow,114,18,49,1860.1160224992782,None,1860.1160224992782,None,6,1.6671265996992588,1860.1160224992782,None,1861.8194423988461,None,1862.3294355999678,None,1862.3294355999678,None,r,0.5497408006340265,1862.3294355999678,None,,,nc_35,001,2022_Apr_12_1329,ProdSingRedo,3.2.3,60.01565164219165,
,,,,115,0,115,0,,,,,,,,,,,,,,,,,,,,,,,,1865.5986780989915,None,,,,,,,,,,,,,,,,,broad,sing,yellow,115,6,31,1863.4415227994323,None,1863.4415227994323,None,6,1.3016654998064041,1863.4415227994323,None,1864.7951613999903,None,1865.3203770983964,None,1865.3203770983964,None,r,0.2548674996942282,1865.3203770983964,None,,,nc_35,001,2022_Apr_12_1329,ProdSingRedo,3.2.3,60.01565164219165,
,,,,116,0,116,0,,,,,,,,,,,,,,,,,,,,,,,,1872.1970472987741,None,,,,,,,,,,,,,,,,,revolution,silent,red,116,63,264,1866.1315827984363,None,1866.1315827984363,None,3,3.2517514005303383,1866.1315827984363,None,1869.440472599119,None,1869.964836999774,None,1869.964836999774,None,f,2.1862312983721495,1869.964836999774,None,,,nc_35,001,2022_Apr_12_1329,ProdSingRedo,3.2.3,60.01565164219165,
,,,,117,0,117,0,,,,,,,,,,,,,,,,,,,,,,,,1875.6116467993706,None,,,,,,,,,,,,,,,,,express,new_aloud,blue,117,139,124,1872.697839198634,None,1872.697839198634,None,3,2.1572741009294987,1872.697839198634,None,1874.8999942988157,None,1875.408361999318,None,1875.408361999318,None,f,0.17490020021796227,1875.408361999318,None,,,nc_35,001,2022_Apr_12_1329,ProdSingRedo,3.2.3,60.01565164219165,
,,,,118,0,118,0,,,,,,,,,,,,,,,,,,,,,,,,1879.2288385983557,None,,,,,,,,,,,,,,,,,suggestion,new_silent,red,118,179,314,1876.1386644989252,None,1876.1386644989252,None,3,2.2844401001930237,1876.1386644989252,None,1878.4784866999835,None,1878.999898198992,None,1878.999898198992,None,f,0.19930730015039444,1878.999898198992,None,,,nc_35,001,2022_Apr_12_1329,ProdSingRedo,3.2.3,60.01565164219165,
,,,,119,0,119,0,,,,,,,,,,,,,,,,,,,,,,,,1882.3482347987592,None,,,,,,,,,,,,,,,,,detective,sing,yellow,119,19,92,1879.7542458996177,None,1879.7542458996177,None,5,1.8611126989126205,1879.7542458996177,None,1881.6660519987345,None,1882.1865726988763,None,1882.1865726988763,None,r,0.12464050017297268,1882.1865726988763,None,,,nc_35,001,2022_Apr_12_1329,ProdSingRedo,3.2.3,60.01565164219165,
,,,,120,0,120,0,,,,,,,,,,,,,,,,,,,,,,,,1886.7857325989753,None,,,,,,,,,,,,,,,,,worker,new_aloud,blue,120,125,356,1882.8784050997347,None,1882.8784050997347,None,3,2.3126628007739782,1882.8784050997347,None,1885.2355866990983,None,1885.7546742986888,None,1885.7546742986888,None,f,0.9962985999882221,1885.7546742986888,None,,,nc_35,001,2022_Apr_12_1329,ProdSingRedo,3.2.3,60.01565164219165,
,,,,121,0,121,0,,,,,,,,,,,,,,,,,,,,,,,,1891.4165685996413,None,,,,,,,,,,,,,,,,,generation,new_silent,red,121,167,136,1887.3139646984637,None,1887.3139646984637,None,5,2.4854821003973484,1887.3139646984637,None,1889.837664199993,None,1890.3490390982479,None,1890.3490390982479,None,f,1.041678300127387,1890.3490390982479,None,,,nc_35,001,2022_Apr_12_1329,ProdSingRedo,3.2.3,60.01565164219165,
,,,,122,0,122,0,,,,,,,,,,,,,,,,,,,,,,,,1895.4305371996015,None,,,,,,,,,,,,,,,,,comedy,new_aloud,blue,122,141,58,1891.9415264986455,None,1891.9415264986455,None,3,2.5536893997341394,1891.9415264986455,None,1894.5442599989474,None,1895.0639262981713,None,1895.0639262981713,None,f,0.3352994993329048,1895.0639262981713,None,,,nc_35,001,2022_Apr_12_1329,ProdSingRedo,3.2.3,60.01565164219165,
,,,,123,0,123,0,,,,,,,,,,,,,,,,,,,,,,,,1898.773983599618,None,,,,,,,,,,,,,,,,,under,aloud,blue,123,49,343,1895.9514781981707,None,1895.9514781981707,None,1,1.9277078993618488,1895.9514781981707,None,1897.9293832983822,None,1898.4403190985322,None,1898.4403190985322,None,n,0.31053270027041435,1898.4403190985322,None,,,nc_35,001,2022_Apr_12_1329,ProdSingRedo,3.2.3,60.01565164219165,
,,,,124,0,124,0,,,,,,,,,,,,,,,,,,,,,,,,1901.450243998319,None,,,,,,,,,,,,,,,,,degree,aloud,blue,124,32,89,1899.28946149908,None,1899.28946149908,None,6,1.1737142987549305,1899.28946149908,None,1900.517295498401,None,1901.0368590988219,None,1901.0368590988219,None,r,0.3784018009901047,1901.0368590988219,None,,,nc_35,001,2022_Apr_12_1329,ProdSingRedo,3.2.3,60.01565164219165,
,,,,125,0,125,0,,,,,,,,,,,,,,,,,,,,,,,,1904.4357922989875,None,,,,,,,,,,,,,,,,,route,aloud,blue,125,44,267,1901.9811037983745,None,1901.9811037983745,None,6,1.0497567001730204,1901.9811037983745,None,1903.0815044995397,None,1903.589864898473,None,1903.589864898473,None,r,0.8092914000153542,1903.589864898473,None,,,nc_35,001,2022_Apr_12_1329,ProdSingRedo,3.2.3,60.01565164219165,
,,,,126,0,126,0,,,,,,,,,,,,,,,,,,,,,,,,1907.0822256989777,None,,,,,,,,,,,,,,,,,member,silent,red,126,74,188,1904.9609370995313,None,1904.9609370995313,None,6,1.4861117992550135,1904.9609370995313,None,1906.4938689991832,None,1907.014833599329,None,1907.014833599329,None,r,0.04802799969911575,1907.014833599329,None,,,nc_35,001,2022_Apr_12_1329,ProdSingRedo,3.2.3,60.01565164219165,
,,,,127,0,127,0,,,,,,,,,,,,,,,,,,,,,,,,1909.992325399071,None,,,,,,,,,,,,,,,,,power,new_aloud,blue,127,138,230,1907.5981634985656,None,1907.5981634985656,None,6,1.7213179990649223,1907.5981634985656,None,1909.3573891986161,None,1909.8778317999095,None,1909.8778317999095,None,r,0.08141910098493099,1909.8778317999095,None,,,nc_35,001,2022_Apr_12_1329,ProdSingRedo,3.2.3,60.01565164219165,
,,,,128,0,128,0,,,,,,,,,,,,,,,,,,,,,,,,1913.9057089984417,None,,,,,,,,,,,,,,,,,meeting,new_aloud,blue,128,148,187,1910.5268216989934,None,1910.5268216989934,None,3,1.880332900211215,1910.5268216989934,None,1912.4607038982213,None,1912.9811114985496,None,1912.9811114985496,None,f,0.8899732995778322,1912.9811114985496,None,,,nc_35,001,2022_Apr_12_1329,ProdSingRedo,3.2.3,60.01565164219165,
,,,,129,0,129,0,,,,,,,,,,,,,,,,,,,,,,,,1917.4504943992943,None,,,,,,,,,,,,,,,,,search,new_aloud,blue,129,130,276,1914.4264652989805,None,1914.4264652989805,None,3,2.284647099673748,1914.4264652989805,None,1916.7647128999233,None,1917.2862688992172,None,1917.2862688992172,None,f,0.1367867011576891,1917.2862688992172,None,,,nc_35,001,2022_Apr_12_1329,ProdSingRedo,3.2.3,60.01565164219165,
,,,,130,0,130,0,,,,,,,,,,,,,,,,,,,,,,,,1921.0206632986665,None,,,,,,,,,,,,,,,,,split,new_sing,yellow,130,116,299,1917.9709792993963,None,1917.9709792993963,None,4,2.0440195985138416,1917.9709792993963,None,1920.0580492988229,None,1920.5669860988855,None,1920.5669860988855,None,f,0.42451889999210835,1920.5669860988855,None,,,nc_35,001,2022_Apr_12_1329,ProdSingRedo,3.2.3,60.01565164219165,
,,,,131,0,131,0,,,,,,,,,,,,,,,,,,,,,,,,1926.5772875994444,None,,,,,,,,,,,,,,,,,theme,new_sing,yellow,131,100,326,1921.5436079986393,None,1921.5436079986393,None,1,3.847664900124073,1921.5436079986393,None,1925.436384798959,None,1925.9568224996328,None,1925.9568224996328,None,n,0.5942657999694347,1925.9568224996328,None,,,nc_35,001,2022_Apr_12_1329,ProdSingRedo,3.2.3,60.01565164219165,
,,,,132,0,132,0,,,,,,,,,,,,,,,,,,,,,,,,1930.7836949992925,None,,,,,,,,,,,,,,,,,equipment,new_aloud,blue,132,131,116,1927.1097830999643,None,1927.1097830999643,None,1,2.6733756996691227,1927.1097830999643,None,1929.8283428996801,None,1930.3530447985977,None,1930.3530447985977,None,n,0.39801870100200176,1930.3530447985977,None,,,nc_35,001,2022_Apr_12_1329,ProdSingRedo,3.2.3,60.01565164219165,
,,,,133,0,133,0,,,,,,,,,,,,,,,,,,,,,,,,1933.70000169985,None,,,,,,,,,,,,,,,,,recall,silent,red,133,72,255,1931.3095078989863,None,1931.3095078989863,None,3,1.4171503987163305,1931.3095078989863,None,1932.7615677993745,None,1933.2855739984661,None,1933.2855739984661,None,f,0.385546101257205,1933.2855739984661,None,,,nc_35,001,2022_Apr_12_1329,ProdSingRedo,3.2.3,60.01565164219165,
,,,,134,0,134,0,,,,,,,,,,,,,,,,,,,,,,,,1937.78868749924,None,,,,,,,,,,,,,,,,,period,silent,red,134,88,217,1934.2221588995308,None,1934.2221588995308,None,6,2.560988901183009,1934.2221588995308,None,1936.83135679923,None,1937.3520214986056,None,1937.3520214986056,None,r,0.39910459890961647,1937.3520214986056,None,,,nc_35,001,2022_Apr_12_1329,ProdSingRedo,3.2.3,60.01565164219165,
,,,,135,0,135,0,,,,,,,,,,,,,,,,,,,,,,,,1940.691765299067,None,,,,,,,,,,,,,,,,,series,new_silent,red,135,173,279,1938.309060499072,None,1938.309060499072,None,4,1.4901976007968187,1938.309060499072,None,1939.8337655998766,None,1940.3555245995522,None,1940.3555245995522,None,f,0.29957049898803234,1940.3555245995522,None,,,nc_35,001,2022_Apr_12_1329,ProdSingRedo,3.2.3,60.01565164219165,
,,,,136,0,136,0,,,,,,,,,,,,,,,,,,,,,,,,1944.0101511999965,None,,,,,,,,,,,,,,,,,device,new_aloud,blue,136,124,93,1941.2063065990806,None,1941.2063065990806,None,1,2.0087432991713285,1941.2063065990806,None,1943.2593044992536,None,1943.7794594988227,None,1943.7794594988227,None,n,0.1958370003849268,1943.7794594988227,None,,,nc_35,001,2022_Apr_12_1329,ProdSingRedo,3.2.3,60.01565164219165,
,,,,137,0,137,0,,,,,,,,,,,,,,,,,,,,,,,,1948.414974598214,None,,,,,,,,,,,,,,,,,beauty,silent,red,137,73,18,1944.5417803991586,None,1944.5417803991586,None,3,3.145319599658251,1944.5417803991586,None,1947.7334905993193,None,1948.2511113993824,None,1948.2511113993824,None,f,0.13202360086143017,1948.2511113993824,None,,,nc_35,001,2022_Apr_12_1329,ProdSingRedo,3.2.3,60.01565164219165,
,,,,138,0,138,0,,,,,,,,,,,,,,,,,,,,,,,,1952.6108691990376,None,,,,,,,,,,,,,,,,,hunger,new_sing,yellow,138,106,155,1948.9455138985068,None,1948.9455138985068,None,1,2.9416827000677586,1948.9455138985068,None,1951.9342134986073,None,1952.4565796982497,None,1952.4565796982497,None,n,0.13398880138993263,1952.4565796982497,None,,,nc_35,001,2022_Apr_12_1329,ProdSingRedo,3.2.3,60.01565164219165,
,,,,139,0,139,0,,,,,,,,,,,,,,,,,,,,,,,,1955.454806599766,None,,,,,,,,,,,,,,,,,ground,silent,red,139,76,142,1953.1114950999618,None,1953.1114950999618,None,1,1.6714830994606018,1953.1114950999618,None,1954.835705799982,None,1955.3469517994672,None,1955.3469517994672,None,n,0.07621829956769943,1955.3469517994672,None,,,nc_35,001,2022_Apr_12_1329,ProdSingRedo,3.2.3,60.01565164219165,
,,,,140,0,140,0,,,,,,,,,,,,,,,,,,,,,,,,1958.7502356991172,None,,,,,,,,,,,,,,,,,republic,silent,red,140,61,260,1955.9876629989594,None,1955.9876629989594,None,5,1.8031756989657879,1955.9876629989594,None,1957.8426671996713,None,1958.3627761993557,None,1958.3627761993557,None,f,0.36376800015568733,1958.3627761993557,None,,,nc_35,001,2022_Apr_12_1329,ProdSingRedo,3.2.3,60.01565164219165,
,,,,141,0,141,0,,,,,,,,,,,,,,,,,,,,,,,,1964.3312531989068,None,,,,,,,,,,,,,,,,,tragedy,new_sing,yellow,141,110,335,1959.2716554999352,None,1959.2716554999352,None,1,4.0152976009994745,1959.2716554999352,None,1963.3297706991434,None,1963.8503227997571,None,1963.8503227997571,None,n,0.45267639867961407,1963.8503227997571,None,,,nc_35,001,2022_Apr_12_1329,ProdSingRedo,3.2.3,60.01565164219165,
,,,,142,0,142,0,,,,,,,,,,,,,,,,,,,,,,,,1966.916972398758,None,,,,,,,,,,,,,,,,,murder,sing,yellow,142,26,195,1964.856328798458,None,1964.856328798458,None,6,1.2707611005753279,1964.856328798458,None,1966.1817849986255,None,1966.6953603997827,None,1966.6953603997827,None,f,0.1916781011968851,1966.6953603997827,None,,,nc_35,001,2022_Apr_12_1329,ProdSingRedo,3.2.3,60.01565164219165,
,,,,143,0,143,0,,,,,,,,,,,,,,,,,,,,,,,,1969.6851599998772,None,,,,,,,,,,,,,,,,,angle,aloud,blue,143,50,7,1967.4439714998007,None,1967.4439714998007,None,5,1.3629545997828245,1967.4439714998007,None,1968.8508360981941,None,1969.3564480990171,None,1969.3564480990171,None,r,0.2907071001827717,1969.3564480990171,None,,,nc_35,001,2022_Apr_12_1329,ProdSingRedo,3.2.3,60.01565164219165,
,,,,144,0,144,0,,,,,,,,,,,,,,,,,,,,,,,,1973.2404651995748,None,,,,,,,,,,,,,,,,,principal,silent,red,144,85,236,1970.2104302998632,None,1970.2104302998632,None,5,2.284552598372102,1970.2104302998632,None,1972.5385080985725,None,1973.0594470985234,None,1973.0594470985234,None,r,0.1475581992417574,1973.0594470985234,None,,,nc_35,001,2022_Apr_12_1329,ProdSingRedo,3.2.3,60.01565164219165,
,,,,145,0,145,0,,,,,,,,,,,,,,,,,,,,,,,,1977.2097423989326,None,,,,,,,,,,,,,,,,,engineer,aloud,blue,145,52,114,1973.7676826994866,None,1973.7676826994866,None,4,2.5112894997000694,1973.7676826994866,None,1976.3246510997415,None,1976.846655599773,None,1976.846655599773,None,f,0.33613129891455173,1976.846655599773,None,,,nc_35,001,2022_Apr_12_1329,ProdSingRedo,3.2.3,60.01565164219165,
,,,,146,0,146,0,,,,,,,,,,,,,,,,,,,,,,,,1980.5311145987362,None,,,,,,,,,,,,,,,,,entrance,new_aloud,blue,146,122,115,1977.7352207992226,None,1977.7352207992226,None,5,1.9041053000837564,1977.7352207992226,None,1979.6787239983678,None,1980.2017704993486,None,1980.2017704993486,None,r,0.30139460042119026,1980.2017704993486,None,,,nc_35,001,2022_Apr_12_1329,ProdSingRedo,3.2.3,60.01565164219165,
,,,,147,0,147,0,,,,,,,,,,,,,,,,,,,,,,,,1983.417341599241,None,,,,,,,,,,,,,,,,,fight,aloud,blue,147,43,127,1981.0591751988977,None,1981.0591751988977,None,4,1.4437876008450985,1981.0591751988977,None,1982.547653099522,None,1983.069623498246,None,1983.069623498246,None,f,0.31328959949314594,1983.069623498246,None,,,nc_35,001,2022_Apr_12_1329,ProdSingRedo,3.2.3,60.01565164219165,
,,,,148,0,148,0,,,,,,,,,,,,,,,,,,,,,,,,1986.7861883994192,None,,,,,,,,,,,,,,,,,century,new_silent,red,148,150,45,1983.9423618987203,None,1983.9423618987203,None,1,1.8487289007753134,1983.9423618987203,None,1985.8362624999136,None,1986.3572021983564,None,1986.3572021983564,None,n,0.40175050124526024,1986.3572021983564,None,,,nc_35,001,2022_Apr_12_1329,ProdSingRedo,3.2.3,60.01565164219165,
,,,,149,0,149,0,,,,,,,,,,,,,,,,,,,,,,,,1989.4562947992235,None,,,,,,,,,,,,,,,,,position,new_aloud,blue,149,147,229,1987.307793898508,None,1987.307793898508,None,4,1.3392872996628284,1987.307793898508,None,1988.6818746998906,None,1989.1884404998273,None,1989.1884404998273,None,f,0.2424888014793396,1989.1884404998273,None,,,nc_35,001,2022_Apr_12_1329,ProdSingRedo,3.2.3,60.01565164219165,
,,,,150,0,150,0,,,,,,,,,,,,,,,,,,,,,,,,1992.483984099701,None,,,,,,,,,,,,,,,,,guest,new_silent,red,150,153,146,1989.9772442989051,None,1989.9772442989051,None,4,1.7095001004636288,1989.9772442989051,None,1991.7330574989319,None,1992.2460112981498,None,1992.2460112981498,None,f,0.21654180064797401,1992.2460112981498,None,,,nc_35,001,2022_Apr_12_1329,ProdSingRedo,3.2.3,60.01565164219165,
,,,,151,0,151,0,,,,,,,,,,,,,,,,,,,,,,,,1996.2446089982986,None,,,,,,,,,,,,,,,,,society,new_sing,yellow,151,93,293,1992.984768498689,None,1992.984768498689,None,1,2.5422597993165255,1992.984768498689,None,1995.5754324998707,None,1996.0973196998239,None,1996.0973196998239,None,n,0.12568929977715015,1996.0973196998239,None,,,nc_35,001,2022_Apr_12_1329,ProdSingRedo,3.2.3,60.01565164219165,
,,,,152,0,152,0,,,,,,,,,,,,,,,,,,,,,,,,1999.6364373993129,None,,,,,,,,,,,,,,,,,order,new_sing,yellow,152,113,207,1996.766894198954,None,1996.766894198954,None,1,1.9356828015297651,1996.766894198954,None,1998.7300986982882,None,1999.2464983984828,None,1999.2464983984828,None,n,0.3605838008224964,1999.2464983984828,None,,,nc_35,001,2022_Apr_12_1329,ProdSingRedo,3.2.3,60.01565164219165,
,,,,153,0,153,0,,,,,,,,,,,,,,,,,,,,,,,,2002.3685318995267,None,,,,,,,,,,,,,,,,,range,silent,red,153,66,251,2000.1631683986634,None,2000.1631683986634,None,4,1.4357115998864174,2000.1631683986634,None,2001.6511234994978,None,2002.1721147987992,None,2002.1721147987992,None,f,0.16281050071120262,2002.1721147987992,None,,,nc_35,001,2022_Apr_12_1329,ProdSingRedo,3.2.3,60.01565164219165,
,,,,154,0,154,0,,,,,,,,,,,,,,,,,,,,,,,,2007.3183493986726,None,,,,,,,,,,,,,,,,,benefit,sing,yellow,154,7,20,2002.8998644985259,None,2002.8998644985259,None,4,3.699218099936843,2002.8998644985259,None,2006.6420544981956,None,2007.1622895989567,None,2007.1622895989567,None,f,0.12446749955415726,2007.1622895989567,None,,,nc_35,001,2022_Apr_12_1329,ProdSingRedo,3.2.3,60.01565164219165,
,,,,155,0,155,0,,,,,,,,,,,,,,,,,,,,,,,,2009.8963971994817,None,,,,,,,,,,,,,,,,,sweet,new_sing,yellow,155,96,319,2007.838770698756,None,2007.838770698756,None,1,1.2562399003654718,2007.838770698756,None,2009.1410033982247,None,2009.6617437992245,None,2009.6617437992245,None,n,0.20130150020122528,2009.6617437992245,None,,,nc_35,001,2022_Apr_12_1329,ProdSingRedo,3.2.3,60.01565164219165,
,,,,156,0,156,0,,,,,,,,,,,,,,,,,,,,,,,,2012.8963522985578,None,,,,,,,,,,,,,,,,,primary,silent,red,156,87,234,2010.4248360991478,None,2010.4248360991478,None,2,1.5503183007240295,2010.4248360991478,None,2012.0253023989499,None,2012.5333629995584,None,2012.5333629995584,None,f,0.33751099929213524,2012.5333629995584,None,,,nc_35,001,2022_Apr_12_1329,ProdSingRedo,3.2.3,60.01565164219165,
,,,,157,0,157,0,,,,,,,,,,,,,,,,,,,,,,,,2017.3223528992385,None,,,,,,,,,,,,,,,,,account,sing,yellow,157,21,1,2013.4236048981547,None,2013.4236048981547,None,6,2.687252700328827,2013.4236048981547,None,2016.164903499186,None,2016.6807769984007,None,2016.6807769984007,None,r,0.5981958005577326,2016.6807769984007,None,,,nc_35,001,2022_Apr_12_1329,ProdSingRedo,3.2.3,60.01565164219165,
,,,,158,0,158,0,,,,,,,,,,,,,,,,,,,,,,,,2020.1682148985565,None,,,,,,,,,,,,,,,,,swift,new_silent,red,158,157,320,2017.8451777994633,None,2017.8451777994633,None,4,1.5461539011448622,2017.8451777994633,None,2019.4346106983721,None,2019.946876898408,None,2019.946876898408,None,f,0.1963241994380951,2019.946876898408,None,,,nc_35,001,2022_Apr_12_1329,ProdSingRedo,3.2.3,60.01565164219165,
,,,,159,0,159,0,,,,,,,,,,,,,,,,,,,,,,,,2023.9383155982941,None,,,,,,,,,,,,,,,,,break,silent,red,159,81,26,2020.6977853998542,None,2020.6977853998542,None,4,2.421016700565815,2020.6977853998542,None,2023.1734095998108,None,2023.6928677987307,None,2023.6928677987307,None,f,0.20991920121014118,2023.6928677987307,None,,,nc_35,001,2022_Apr_12_1329,ProdSingRedo,3.2.3,60.01565164219165,
,,,,160,0,160,0,,,,,,,,,,,,,,,,,,,,,,,,2027.192586299032,None,,,,,,,,,,,,,,,,,threat,new_aloud,blue,160,133,329,2024.4656767994165,None,2024.4656767994165,None,4,1.6771415993571281,2024.4656767994165,None,2026.1911745984107,None,2026.7128933984786,None,2026.7128933984786,None,r,0.44615450128912926,2026.7128933984786,None,,,nc_35,001,2022_Apr_12_1329,ProdSingRedo,3.2.3,60.01565164219165,
,,,,161,0,161,0,,,,,,,,,,,,,,,,,,,,,,,,2029.8290981985629,None,,,,,,,,,,,,,,,,,literature,aloud,blue,161,38,173,2027.71975039877,None,2027.71975039877,None,6,1.3510820008814335,2027.71975039877,None,2029.1145356986672,None,2029.6366556994617,None,2029.6366556994617,None,r,0.16224960051476955,2029.6366556994617,None,,,nc_35,001,2022_Apr_12_1329,ProdSingRedo,3.2.3,60.01565164219165,
,,,,162,0,162,0,,,,,,,,,,,,,,,,,,,,,,,,2033.7336442992091,None,,,,,,,,,,,,,,,,,committee,silent,red,162,80,62,2030.3550807982683,None,2030.3550807982683,None,5,2.460060400888324,2030.3550807982683,None,2032.8615857996047,None,2033.3826712984592,None,2033.3826712984592,None,f,0.32020930014550686,2033.3826712984592,None,,,nc_35,001,2022_Apr_12_1329,ProdSingRedo,3.2.3,60.01565164219165,
,,,,163,0,163,0,,,,,,,,,,,,,,,,,,,,,,,,2036.5026003997773,None,,,,,,,,,,,,,,,,,history,silent,red,163,75,153,2034.2563717998564,None,2034.2563717998564,None,5,1.3024776000529528,2034.2563717998564,None,2035.5987722985446,None,2036.1218165997416,None,2036.1218165997416,None,f,0.3491102997213602,2036.1218165997416,None,,,nc_35,001,2022_Apr_12_1329,ProdSingRedo,3.2.3,60.01565164219165,
,,,,164,0,164,0,,,,,,,,,,,,,,,,,,,,,,,,2039.4879202991724,None,,,,,,,,,,,,,,,,,stand,sing,yellow,164,14,302,2037.0287250988185,None,2037.0287250988185,None,6,1.626079399138689,2037.0287250988185,None,2038.6985006984323,None,2039.2094164993614,None,2039.2094164993614,None,r,0.253226600587368,2039.2094164993614,None,,,nc_35,001,2022_Apr_12_1329,ProdSingRedo,3.2.3,60.01565164219165,
,,,,165,0,165,0,,,,,,,,,,,,,,,,,,,,,,,,2042.2408358994871,None,,,,,,,,,,,,,,,,,private,silent,red,165,69,237,2040.016377799213,None,2040.016377799213,None,3,1.2545761000365019,2040.016377799213,None,2041.325668098405,None,2041.8447351995856,None,2041.8447351995856,None,f,0.36221720091998577,2041.8447351995856,None,,,nc_35,001,2022_Apr_12_1329,ProdSingRedo,3.2.3,60.01565164219165,
,,,,166,0,166,0,,,,,,,,,,,,,,,,,,,,,,,,2047.5799171999097,None,,,,,,,,,,,,,,,,,store,new_aloud,blue,166,146,305,2042.7649852987379,None,2042.7649852987379,None,4,3.5218618996441364,2042.7649852987379,None,2046.3222227990627,None,2046.8263392988592,None,2046.8263392988592,None,f,0.7244763001799583,2046.8263392988592,None,,,nc_35,001,2022_Apr_12_1329,ProdSingRedo,3.2.3,60.01565164219165,
,,,,167,0,167,0,,,,,,,,,,,,,,,,,,,,,,,,2052.1991170998663,None,,,,,,,,,,,,,,,,,touch,silent,red,167,68,332,2048.112713098526,None,2048.112713098526,None,4,3.038096100091934,2048.112713098526,None,2051.1994151994586,None,2051.7198590990156,None,2051.7198590990156,None,f,0.4549142997711897,2051.7198590990156,None,,,nc_35,001,2022_Apr_12_1329,ProdSingRedo,3.2.3,60.01565164219165,
,,,,168,0,168,0,,,,,,,,,,,,,,,,,,,,,,,,2055.888784199953,None,,,,,,,,,,,,,,,,,track,silent,red,168,64,334,2052.7109640985727,None,2052.7109640985727,None,3,1.8718539997935295,2052.7109640985727,None,2054.632044399157,None,2055.1600029990077,None,2055.1600029990077,None,f,0.7027685008943081,2055.1600029990077,None,,,nc_35,001,2022_Apr_12_1329,ProdSingRedo,3.2.3,60.01565164219165,
,,,,169,0,169,0,,,,,,,,,,,,,,,,,,,,,,,,2058.676790498197,None,,,,,,,,,,,,,,,,,minor,sing,yellow,169,13,191,2056.4104141984135,None,2056.4104141984135,None,6,1.3724662996828556,2056.4104141984135,None,2057.818780399859,None,2058.337817599997,None,2058.337817599997,None,r,0.3010837994515896,2058.337817599997,None,,,nc_35,001,2022_Apr_12_1329,ProdSingRedo,3.2.3,60.01565164219165,
,,,,170,0,170,0,,,,,,,,,,,,,,,,,,,,,,,,2062.316480398178,None,,,,,,,,,,,,,,,,,sound,new_silent,red,170,174,295,2059.2084505986422,None,2059.2084505986422,None,5,2.0303713008761406,2059.2084505986422,None,2061.2941436991096,None,2061.8180434983224,None,2061.8180434983224,None,f,0.46072289906442165,2061.8180434983224,None,,,nc_35,001,2022_Apr_12_1329,ProdSingRedo,3.2.3,60.01565164219165,
,,,,171,0,171,0,,,,,,,,,,,,,,,,,,,,,,,,2064.8143619988114,None,,,,,,,,,,,,,,,,,beginning,sing,yellow,171,10,19,2062.8435364998877,None,2062.8435364998877,None,6,1.0592599995434284,2062.8435364998877,None,2063.950157398358,None,2064.4709766991436,None,2064.4709766991436,None,r,0.3199755996465683,2064.4709766991436,None,,,nc_35,001,2022_Apr_12_1329,ProdSingRedo,3.2.3,60.01565164219165,
,,,,172,0,172,0,,,,,,,,,,,,,,,,,,,,,,,,2069.118307199329,None,,,,,,,,,,,,,,,,,career,new_aloud,blue,172,128,42,2065.349570499733,None,2065.349570499733,None,1,2.8812966011464596,2065.349570499733,None,2068.278190098703,None,2068.8041782993823,None,2068.8041782993823,None,n,0.290718000382185,2068.8041782993823,None,,,nc_35,001,2022_Apr_12_1329,ProdSingRedo,3.2.3,60.01565164219165,
,,,,173,0,173,0,,,,,,,,,,,,,,,,,,,,,,,,2073.3048435989767,None,,,,,,,,,,,,,,,,,addition,sing,yellow,173,12,2,2069.6441819984466,None,2069.6441819984466,None,5,2.8184731993824244,2069.6441819984466,None,2072.501051299274,None,2073.008943999186,None,2073.008943999186,None,f,0.2618346996605396,2073.008943999186,None,,,nc_35,001,2022_Apr_12_1329,ProdSingRedo,3.2.3,60.01565164219165,
,,,,174,0,174,0,,,,,,,,,,,,,,,,,,,,,,,,2076.793218098581,None,,,,,,,,,,,,,,,,,running,new_aloud,blue,174,149,268,2073.829459298402,None,2073.829459298402,None,5,1.8329707998782396,2073.829459298402,None,2075.694260198623,None,2076.2218537982553,None,2076.2218537982553,None,f,0.5367650985717773,2076.2218537982553,None,,,nc_35,001,2022_Apr_12_1329,ProdSingRedo,3.2.3,60.01565164219165,
,,,,175,0,175,0,,,,,,,,,,,,,,,,,,,,,,,,2079.8630675990134,None,,,,,,,,,,,,,,,,,business,new_sing,yellow,175,104,38,2077.3146738987416,None,2077.3146738987416,None,1,1.779637498781085,2077.3146738987416,None,2079.1263687983155,None,2079.648394299671,None,2079.648394299671,None,n,0.19043559953570366,2079.648394299671,None,,,nc_35,001,2022_Apr_12_1329,ProdSingRedo,3.2.3,60.01565164219165,
,,,,176,0,176,0,,,,,,,,,,,,,,,,,,,,,,,,2082.9578646998852,None,,,,,,,,,,,,,,,,,speech,aloud,blue,176,36,298,2080.3870706986636,None,2080.3870706986636,None,5,1.8033972010016441,2080.3870706986636,None,2082.233108498156,None,2082.7239906992763,None,2082.7239906992763,None,f,0.2023490983992815,2082.7239906992763,None,,,nc_35,001,2022_Apr_12_1329,ProdSingRedo,3.2.3,60.01565164219165,
,,,,177,0,177,0,,,,,,,,,,,,,,,,,,,,,,,,2085.6847274992615,None,,,,,,,,,,,,,,,,,group,new_aloud,blue,177,123,143,2083.478154098615,None,2083.478154098615,None,6,1.2804784011095762,2083.478154098615,None,2084.8004059996456,None,2085.322460498661,None,2085.322460498661,None,r,0.3323072995990515,2085.322460498661,None,,,nc_35,001,2022_Apr_12_1329,ProdSingRedo,3.2.3,60.01565164219165,
,,,,178,0,178,0,,,,,,,,,,,,,,,,,,,,,,,,2088.704696599394,None,,,,,,,,,,,,,,,,,marriage,new_sing,yellow,178,115,179,2086.2158699985594,None,2086.2158699985594,None,1,1.718986701220274,2086.2158699985594,None,2087.9893874991685,None,2088.512034099549,None,2088.512034099549,None,n,0.1586980987340212,2088.512034099549,None,,,nc_35,001,2022_Apr_12_1329,ProdSingRedo,3.2.3,60.01565164219165,
,,,,179,0,179,0,,,,,,,,,,,,,,,,,,,,,,,,2091.3407120984048,None,,,,,,,,,,,,,,,,,style,new_silent,red,179,159,311,2089.2304850984365,None,2089.2304850984365,None,3,1.3524565007537603,2089.2304850984365,None,2090.6208365987986,None,2091.141567699611,None,2091.141567699611,None,f,0.1611528992652893,2091.141567699611,None,,,nc_35,001,2022_Apr_12_1329,ProdSingRedo,3.2.3,60.01565164219165,
,,,,,,,,,,,,,,,,,,,,,,,,,,,,,,,,,,,,,,,,,,,,,,,,,,,,,,,,,,,,,,,,,,,,,,,,,2091.850564898923,None,,,,,,,
