StudyLoop.thisRepN,StudyLoop.thisTrialN,StudyLoop.thisN,StudyLoop.thisIndex,TestLoop.thisRepN,TestLoop.thisTrialN,TestLoop.thisN,TestLoop.thisIndex,textCondition.started,textCondition.stopped,keyCondition.keys,keyCondition.rt,keyCondition.started,keyCondition.stopped,Condition,stim_colors,color_sing,color_aloud,color_silent,textWelcome.started,textWelcome.stopped,keyWelcome.keys,keyWelcome.rt,keyWelcome.started,keyWelcome.stopped,textAloud.started,textAloud.stopped,textSilent.started,textSilent.stopped,textSing.started,textSing.stopped,textBlank500.started,textBlank500.stopped,study_word,study_type,study_color,study_num,study_word_num,textStudy.started,textStudy.stopped,keyStudy.keys,keyStudy.started,keyStudy.stopped,textTestInstructions.started,textTestInstructions.stopped,key_resp_3.keys,key_resp_3.rt,key_resp_3.started,key_resp_3.stopped,testWord,testType,testColor,testN,test_num,test_word_num,textConf.started,textConf.stopped,textConfScale.started,textConfScale.stopped,keyConf.keys,keyConf.rt,keyConf.started,keyConf.stopped,textTestBlank.started,textTestBlank.stopped,textRKN.started,textRKN.stopped,textRKNScale.started,textRKNScale.stopped,keyRKN.keys,keyRKN.rt,keyRKN.started,keyRKN.stopped,textEnd.started,textEnd.stopped,participant,session,date,expName,psychopyVersion,frameRate,
,,,,,,,,13.668733299999985,None,y,1.254445300000043,13.668733299999985,None,,,,,,,,,,,,,,,,,,,,,,,,,,,,,,,,,,,,,,,,,,,,,,,,,,,,,,,,,,,,,,color14,001,2020_Mar_09_0849,ProdSingRedo,3.2.3,59.93734150322943,
,,,,,,,,,,,,,,ColoredTest,"['yellow', 'red', 'blue']",yellow,red,blue,15.00663550000013,None,space,1389.7549943000001,15.00663550000013,None,,,,,,,,,,,,,,,,,,,,,,,,,,,,,,,,,,,,,,,,,,,,,,,,,,,color14,001,2020_Mar_09_0849,ProdSingRedo,3.2.3,59.93734150322943,
0,0,0,0,,,,,,,,,,,,,,,,,,,,,,15.00663550000013,None,15.00663550000013,None,15.00663550000013,None,1407.306861,None,union,aloud,red,43,344,1405.3096492999998,None,None,1405.3096492999998,None,,,,,,,,,,,,,,,,,,,,,,,,,,,,,,,,,color14,001,2020_Mar_09_0849,ProdSingRedo,3.2.3,59.93734150322943,
1,0,1,0,,,,,,,,,,,,,,,,,,,,,,,,,,,,1409.8243830000001,None,sound,sing,yellow,11,295,1407.8214057,None,None,1407.8214057,None,,,,,,,,,,,,,,,,,,,,,,,,,,,,,,,,,color14,001,2020_Mar_09_0849,ProdSingRedo,3.2.3,59.93734150322943,
2,0,2,0,,,,,,,,,,,,,,,,,,,,,,,,,,,,1412.3410835,None,gesture,aloud,red,54,137,1410.3406306000002,None,None,1410.3406306000002,None,,,,,,,,,,,,,,,,,,,,,,,,,,,,,,,,,color14,001,2020_Mar_09_0849,ProdSingRedo,3.2.3,59.93734150322943,
3,0,3,0,,,,,,,,,,,,,,,,,,,,,,,,,,,,1414.8582668,None,health,sing,yellow,10,149,1412.8559854999999,None,None,1412.8559854999999,None,,,,,,,,,,,,,,,,,,,,,,,,,,,,,,,,,color14,001,2020_Mar_09_0849,ProdSingRedo,3.2.3,59.93734150322943,
4,0,4,0,,,,,,,,,,,,,,,,,,,,,,,,,,,,1417.3742576999998,None,series,silent,blue,74,279,1415.3734886000002,None,None,1415.3734886000002,None,,,,,,,,,,,,,,,,,,,,,,,,,,,,,,,,,color14,001,2020_Mar_09_0849,ProdSingRedo,3.2.3,59.93734150322943,
5,0,5,0,,,,,,,,,,,,,,,,,,,,,,,,,,,,1419.8916193,None,nature,sing,yellow,3,200,1417.8909294999999,None,None,1417.8909294999999,None,,,,,,,,,,,,,,,,,,,,,,,,,,,,,,,,,color14,001,2020_Mar_09_0849,ProdSingRedo,3.2.3,59.93734150322943,
6,0,6,0,,,,,,,,,,,,,,,,,,,,,,,,,,,,1422.4087181999998,None,budget,silent,blue,71,34,1420.4153737000001,None,None,1420.4153737000001,None,,,,,,,,,,,,,,,,,,,,,,,,,,,,,,,,,color14,001,2020_Mar_09_0849,ProdSingRedo,3.2.3,59.93734150322943,
7,0,7,0,,,,,,,,,,,,,,,,,,,,,,,,,,,,1424.9255484999999,None,question,aloud,red,34,247,1422.9343272,None,None,1422.9343272,None,,,,,,,,,,,,,,,,,,,,,,,,,,,,,,,,,color14,001,2020_Mar_09_0849,ProdSingRedo,3.2.3,59.93734150322943,
8,0,8,0,,,,,,,,,,,,,,,,,,,,,,,,,,,,1427.4426051,None,blind,silent,blue,61,24,1425.4326148,None,None,1425.4326148,None,,,,,,,,,,,,,,,,,,,,,,,,,,,,,,,,,color14,001,2020_Mar_09_0849,ProdSingRedo,3.2.3,59.93734150322943,
9,0,9,0,,,,,,,,,,,,,,,,,,,,,,,,,,,,1429.9583716000002,None,portion,sing,yellow,12,228,1427.9487549,None,None,1427.9487549,None,,,,,,,,,,,,,,,,,,,,,,,,,,,,,,,,,color14,001,2020_Mar_09_0849,ProdSingRedo,3.2.3,59.93734150322943,
10,0,10,0,,,,,,,,,,,,,,,,,,,,,,,,,,,,1432.4761601,None,death,silent,blue,79,86,1430.4631865000001,None,None,1430.4631865000001,None,,,,,,,,,,,,,,,,,,,,,,,,,,,,,,,,,color14,001,2020_Mar_09_0849,ProdSingRedo,3.2.3,59.93734150322943,
11,0,11,0,,,,,,,,,,,,,,,,,,,,,,,,,,,,1434.992799,None,motion,sing,yellow,24,194,1432.9850135000002,None,None,1432.9850135000002,None,,,,,,,,,,,,,,,,,,,,,,,,,,,,,,,,,color14,001,2020_Mar_09_0849,ProdSingRedo,3.2.3,59.93734150322943,
12,0,12,0,,,,,,,,,,,,,,,,,,,,,,,,,,,,1437.5092303000001,None,guest,sing,yellow,22,146,1435.5044269999999,None,None,1435.5044269999999,None,,,,,,,,,,,,,,,,,,,,,,,,,,,,,,,,,color14,001,2020_Mar_09_0849,ProdSingRedo,3.2.3,59.93734150322943,
13,0,13,0,,,,,,,,,,,,,,,,,,,,,,,,,,,,1440.0266013,None,nation,silent,blue,86,198,1438.0273532,None,None,1438.0273532,None,,,,,,,,,,,,,,,,,,,,,,,,,,,,,,,,,color14,001,2020_Mar_09_0849,ProdSingRedo,3.2.3,59.93734150322943,
14,0,14,0,,,,,,,,,,,,,,,,,,,,,,,,,,,,1442.5425997000002,None,figure,silent,blue,64,128,1440.5409024,None,None,1440.5409024,None,,,,,,,,,,,,,,,,,,,,,,,,,,,,,,,,,color14,001,2020_Mar_09_0849,ProdSingRedo,3.2.3,59.93734150322943,
15,0,15,0,,,,,,,,,,,,,,,,,,,,,,,,,,,,1445.0605684000002,None,front,sing,yellow,15,134,1443.0552710000002,None,None,1443.0552710000002,None,,,,,,,,,,,,,,,,,,,,,,,,,,,,,,,,,color14,001,2020_Mar_09_0849,ProdSingRedo,3.2.3,59.93734150322943,
16,0,16,0,,,,,,,,,,,,,,,,,,,,,,,,,,,,1447.5771338,None,bitter,silent,blue,73,23,1445.5719130000002,None,None,1445.5719130000002,None,,,,,,,,,,,,,,,,,,,,,,,,,,,,,,,,,color14,001,2020_Mar_09_0849,ProdSingRedo,3.2.3,59.93734150322943,
17,0,17,0,,,,,,,,,,,,,,,,,,,,,,,,,,,,1450.092673,None,finance,sing,yellow,26,129,1448.1010624,None,None,1448.1010624,None,,,,,,,,,,,,,,,,,,,,,,,,,,,,,,,,,color14,001,2020_Mar_09_0849,ProdSingRedo,3.2.3,59.93734150322943,
18,0,18,0,,,,,,,,,,,,,,,,,,,,,,,,,,,,1452.5950636000002,None,interior,sing,yellow,6,164,1450.5927953999999,None,None,1450.5927953999999,None,,,,,,,,,,,,,,,,,,,,,,,,,,,,,,,,,color14,001,2020_Mar_09_0849,ProdSingRedo,3.2.3,59.93734150322943,
19,0,19,0,,,,,,,,,,,,,,,,,,,,,,,,,,,,1455.1269901,None,running,aloud,red,47,268,1453.1162548000002,None,None,1453.1162548000002,None,,,,,,,,,,,,,,,,,,,,,,,,,,,,,,,,,color14,001,2020_Mar_09_0849,ProdSingRedo,3.2.3,59.93734150322943,
20,0,20,0,,,,,,,,,,,,,,,,,,,,,,,,,,,,1457.6433857000002,None,point,silent,blue,62,226,1455.6309455,None,None,1455.6309455,None,,,,,,,,,,,,,,,,,,,,,,,,,,,,,,,,,color14,001,2020_Mar_09_0849,ProdSingRedo,3.2.3,59.93734150322943,
21,0,21,0,,,,,,,,,,,,,,,,,,,,,,,,,,,,1460.1609337,None,mayor,sing,yellow,20,183,1458.1642729,None,None,1458.1642729,None,,,,,,,,,,,,,,,,,,,,,,,,,,,,,,,,,color14,001,2020_Mar_09_0849,ProdSingRedo,3.2.3,59.93734150322943,
22,0,22,0,,,,,,,,,,,,,,,,,,,,,,,,,,,,1462.6781144000001,None,listen,silent,blue,78,172,1460.6703318,None,None,1460.6703318,None,,,,,,,,,,,,,,,,,,,,,,,,,,,,,,,,,color14,001,2020_Mar_09_0849,ProdSingRedo,3.2.3,59.93734150322943,
23,0,23,0,,,,,,,,,,,,,,,,,,,,,,,,,,,,1465.1949146000002,None,country,aloud,red,58,73,1463.1973343999998,None,None,1463.1973343999998,None,,,,,,,,,,,,,,,,,,,,,,,,,,,,,,,,,color14,001,2020_Mar_09_0849,ProdSingRedo,3.2.3,59.93734150322943,
24,0,24,0,,,,,,,,,,,,,,,,,,,,,,,,,,,,1467.7117899999998,None,weight,silent,blue,82,353,1465.7095353,None,None,1465.7095353,None,,,,,,,,,,,,,,,,,,,,,,,,,,,,,,,,,color14,001,2020_Mar_09_0849,ProdSingRedo,3.2.3,59.93734150322943,
25,0,25,0,,,,,,,,,,,,,,,,,,,,,,,,,,,,1470.2288121000001,None,court,sing,yellow,13,75,1468.2254966,None,None,1468.2254966,None,,,,,,,,,,,,,,,,,,,,,,,,,,,,,,,,,color14,001,2020_Mar_09_0849,ProdSingRedo,3.2.3,59.93734150322943,
26,0,26,0,,,,,,,,,,,,,,,,,,,,,,,,,,,,1472.7453842999998,None,drove,silent,blue,89,106,1470.7508133000001,None,None,1470.7508133000001,None,,,,,,,,,,,,,,,,,,,,,,,,,,,,,,,,,color14,001,2020_Mar_09_0849,ProdSingRedo,3.2.3,59.93734150322943,
27,0,27,0,,,,,,,,,,,,,,,,,,,,,,,,,,,,1475.2622365000002,None,master,silent,blue,70,180,1473.2601057000002,None,None,1473.2601057000002,None,,,,,,,,,,,,,,,,,,,,,,,,,,,,,,,,,color14,001,2020_Mar_09_0849,ProdSingRedo,3.2.3,59.93734150322943,
28,0,28,0,,,,,,,,,,,,,,,,,,,,,,,,,,,,1477.7783657,None,theme,aloud,red,52,326,1475.7684414999999,None,None,1475.7684414999999,None,,,,,,,,,,,,,,,,,,,,,,,,,,,,,,,,,color14,001,2020_Mar_09_0849,ProdSingRedo,3.2.3,59.93734150322943,
29,0,29,0,,,,,,,,,,,,,,,,,,,,,,,,,,,,1480.2961212999999,None,place,sing,yellow,19,222,1478.2921144000002,None,None,1478.2921144000002,None,,,,,,,,,,,,,,,,,,,,,,,,,,,,,,,,,color14,001,2020_Mar_09_0849,ProdSingRedo,3.2.3,59.93734150322943,
30,0,30,0,,,,,,,,,,,,,,,,,,,,,,,,,,,,1482.8127425000002,None,scale,silent,blue,69,272,1480.8108673000002,None,None,1480.8108673000002,None,,,,,,,,,,,,,,,,,,,,,,,,,,,,,,,,,color14,001,2020_Mar_09_0849,ProdSingRedo,3.2.3,59.93734150322943,
31,0,31,0,,,,,,,,,,,,,,,,,,,,,,,,,,,,1485.3295157000002,None,author,aloud,red,38,15,1483.3257339000002,None,None,1483.3257339000002,None,,,,,,,,,,,,,,,,,,,,,,,,,,,,,,,,,color14,001,2020_Mar_09_0849,ProdSingRedo,3.2.3,59.93734150322943,
32,0,32,0,,,,,,,,,,,,,,,,,,,,,,,,,,,,1487.8465618,None,dance,silent,blue,72,84,1485.8421251999998,None,None,1485.8421251999998,None,,,,,,,,,,,,,,,,,,,,,,,,,,,,,,,,,color14,001,2020_Mar_09_0849,ProdSingRedo,3.2.3,59.93734150322943,
33,0,33,0,,,,,,,,,,,,,,,,,,,,,,,,,,,,1490.3632854000002,None,enemy,silent,blue,65,113,1488.3610497,None,None,1488.3610497,None,,,,,,,,,,,,,,,,,,,,,,,,,,,,,,,,,color14,001,2020_Mar_09_0849,ProdSingRedo,3.2.3,59.93734150322943,
34,0,34,0,,,,,,,,,,,,,,,,,,,,,,,,,,,,1492.8801148000002,None,message,sing,yellow,1,189,1490.8789606,None,None,1490.8789606,None,,,,,,,,,,,,,,,,,,,,,,,,,,,,,,,,,color14,001,2020_Mar_09_0849,ProdSingRedo,3.2.3,59.93734150322943,
35,0,35,0,,,,,,,,,,,,,,,,,,,,,,,,,,,,1495.3971585,None,career,silent,blue,88,42,1493.3878574,None,None,1493.3878574,None,,,,,,,,,,,,,,,,,,,,,,,,,,,,,,,,,color14,001,2020_Mar_09_0849,ProdSingRedo,3.2.3,59.93734150322943,
36,0,36,0,,,,,,,,,,,,,,,,,,,,,,,,,,,,1497.9137796999998,None,shape,aloud,red,55,282,1495.9045924000002,None,None,1495.9045924000002,None,,,,,,,,,,,,,,,,,,,,,,,,,,,,,,,,,color14,001,2020_Mar_09_0849,ProdSingRedo,3.2.3,59.93734150322943,
37,0,37,0,,,,,,,,,,,,,,,,,,,,,,,,,,,,1500.4305856,None,accident,silent,blue,84,0,1498.4313653,None,None,1498.4313653,None,,,,,,,,,,,,,,,,,,,,,,,,,,,,,,,,,color14,001,2020_Mar_09_0849,ProdSingRedo,3.2.3,59.93734150322943,
38,0,38,0,,,,,,,,,,,,,,,,,,,,,,,,,,,,1502.9466428,None,plane,aloud,red,49,223,1500.935594,None,None,1500.935594,None,,,,,,,,,,,,,,,,,,,,,,,,,,,,,,,,,color14,001,2020_Mar_09_0849,ProdSingRedo,3.2.3,59.93734150322943,
39,0,39,0,,,,,,,,,,,,,,,,,,,,,,,,,,,,1505.4639065000001,None,cover,aloud,red,45,77,1503.4609031,None,None,1503.4609031,None,,,,,,,,,,,,,,,,,,,,,,,,,,,,,,,,,color14,001,2020_Mar_09_0849,ProdSingRedo,3.2.3,59.93734150322943,
40,0,40,0,,,,,,,,,,,,,,,,,,,,,,,,,,,,1507.9810088,None,estate,silent,blue,63,119,1505.9764926000003,None,None,1505.9764926000003,None,,,,,,,,,,,,,,,,,,,,,,,,,,,,,,,,,color14,001,2020_Mar_09_0849,ProdSingRedo,3.2.3,59.93734150322943,
41,0,41,0,,,,,,,,,,,,,,,,,,,,,,,,,,,,1510.4972621000002,None,threat,sing,yellow,7,329,1508.498943,None,None,1508.498943,None,,,,,,,,,,,,,,,,,,,,,,,,,,,,,,,,,color14,001,2020_Mar_09_0849,ProdSingRedo,3.2.3,59.93734150322943,
42,0,42,0,,,,,,,,,,,,,,,,,,,,,,,,,,,,1513.0147584000001,None,direction,silent,blue,80,94,1511.0105107,None,None,1511.0105107,None,,,,,,,,,,,,,,,,,,,,,,,,,,,,,,,,,color14,001,2020_Mar_09_0849,ProdSingRedo,3.2.3,59.93734150322943,
43,0,43,0,,,,,,,,,,,,,,,,,,,,,,,,,,,,1515.5311932,None,stranger,aloud,red,32,309,1513.5317827,None,None,1513.5317827,None,,,,,,,,,,,,,,,,,,,,,,,,,,,,,,,,,color14,001,2020_Mar_09_0849,ProdSingRedo,3.2.3,59.93734150322943,
44,0,44,0,,,,,,,,,,,,,,,,,,,,,,,,,,,,1518.0487306999999,None,clean,aloud,red,39,51,1516.0486924000002,None,None,1516.0486924000002,None,,,,,,,,,,,,,,,,,,,,,,,,,,,,,,,,,color14,001,2020_Mar_09_0849,ProdSingRedo,3.2.3,59.93734150322943,
45,0,45,0,,,,,,,,,,,,,,,,,,,,,,,,,,,,1520.5646904999999,None,produce,silent,blue,83,239,1518.5575521,None,None,1518.5575521,None,,,,,,,,,,,,,,,,,,,,,,,,,,,,,,,,,color14,001,2020_Mar_09_0849,ProdSingRedo,3.2.3,59.93734150322943,
46,0,46,0,,,,,,,,,,,,,,,,,,,,,,,,,,,,1523.0820847999998,None,second,aloud,red,36,278,1521.0691836,None,None,1521.0691836,None,,,,,,,,,,,,,,,,,,,,,,,,,,,,,,,,,color14,001,2020_Mar_09_0849,ProdSingRedo,3.2.3,59.93734150322943,
47,0,47,0,,,,,,,,,,,,,,,,,,,,,,,,,,,,1525.5992206,None,piece,silent,blue,60,221,1523.5887855,None,None,1523.5887855,None,,,,,,,,,,,,,,,,,,,,,,,,,,,,,,,,,color14,001,2020_Mar_09_0849,ProdSingRedo,3.2.3,59.93734150322943,
48,0,48,0,,,,,,,,,,,,,,,,,,,,,,,,,,,,1528.1167194999998,None,majority,silent,blue,81,176,1526.1286513999999,None,None,1526.1286513999999,None,,,,,,,,,,,,,,,,,,,,,,,,,,,,,,,,,color14,001,2020_Mar_09_0849,ProdSingRedo,3.2.3,59.93734150322943,
49,0,49,0,,,,,,,,,,,,,,,,,,,,,,,,,,,,1530.6324152000002,None,taste,sing,yellow,14,322,1528.6296469,None,None,1528.6296469,None,,,,,,,,,,,,,,,,,,,,,,,,,,,,,,,,,color14,001,2020_Mar_09_0849,ProdSingRedo,3.2.3,59.93734150322943,
50,0,50,0,,,,,,,,,,,,,,,,,,,,,,,,,,,,1533.1488613000001,None,problem,silent,blue,85,238,1531.1472506,None,None,1531.1472506,None,,,,,,,,,,,,,,,,,,,,,,,,,,,,,,,,,color14,001,2020_Mar_09_0849,ProdSingRedo,3.2.3,59.93734150322943,
51,0,51,0,,,,,,,,,,,,,,,,,,,,,,,,,,,,1535.6663033,None,quarter,aloud,red,35,246,1533.6670128,None,None,1533.6670128,None,,,,,,,,,,,,,,,,,,,,,,,,,,,,,,,,,color14,001,2020_Mar_09_0849,ProdSingRedo,3.2.3,59.93734150322943,
52,0,52,0,,,,,,,,,,,,,,,,,,,,,,,,,,,,1538.1830915,None,ground,aloud,red,56,142,1536.181936,None,None,1536.181936,None,,,,,,,,,,,,,,,,,,,,,,,,,,,,,,,,,color14,001,2020_Mar_09_0849,ProdSingRedo,3.2.3,59.93734150322943,
53,0,53,0,,,,,,,,,,,,,,,,,,,,,,,,,,,,1540.7000806,None,pretty,sing,yellow,0,233,1538.6967972000002,None,None,1538.6967972000002,None,,,,,,,,,,,,,,,,,,,,,,,,,,,,,,,,,color14,001,2020_Mar_09_0849,ProdSingRedo,3.2.3,59.93734150322943,
54,0,54,0,,,,,,,,,,,,,,,,,,,,,,,,,,,,1543.2170161,None,passage,aloud,red,51,212,1541.2155895,None,None,1541.2155895,None,,,,,,,,,,,,,,,,,,,,,,,,,,,,,,,,,color14,001,2020_Mar_09_0849,ProdSingRedo,3.2.3,59.93734150322943,
55,0,55,0,,,,,,,,,,,,,,,,,,,,,,,,,,,,1545.7330548,None,silence,aloud,red,31,288,1543.7219916,None,None,1543.7219916,None,,,,,,,,,,,,,,,,,,,,,,,,,,,,,,,,,color14,001,2020_Mar_09_0849,ProdSingRedo,3.2.3,59.93734150322943,
56,0,56,0,,,,,,,,,,,,,,,,,,,,,,,,,,,,1548.2504509,None,payment,aloud,red,40,215,1546.2460338,None,None,1546.2460338,None,,,,,,,,,,,,,,,,,,,,,,,,,,,,,,,,,color14,001,2020_Mar_09_0849,ProdSingRedo,3.2.3,59.93734150322943,
57,0,57,0,,,,,,,,,,,,,,,,,,,,,,,,,,,,1550.7666798999999,None,drink,sing,yellow,27,105,1548.7660599,None,None,1548.7660599,None,,,,,,,,,,,,,,,,,,,,,,,,,,,,,,,,,color14,001,2020_Mar_09_0849,ProdSingRedo,3.2.3,59.93734150322943,
58,0,58,0,,,,,,,,,,,,,,,,,,,,,,,,,,,,1553.2834195,None,minute,aloud,red,30,192,1551.2810497,None,None,1551.2810497,None,,,,,,,,,,,,,,,,,,,,,,,,,,,,,,,,,color14,001,2020_Mar_09_0849,ProdSingRedo,3.2.3,59.93734150322943,
59,0,59,0,,,,,,,,,,,,,,,,,,,,,,,,,,,,1555.8007966,None,appearance,aloud,red,46,10,1553.8070582999999,None,None,1553.8070582999999,None,,,,,,,,,,,,,,,,,,,,,,,,,,,,,,,,,color14,001,2020_Mar_09_0849,ProdSingRedo,3.2.3,59.93734150322943,
60,0,60,0,,,,,,,,,,,,,,,,,,,,,,,,,,,,1558.3178431000001,None,candidate,silent,blue,76,39,1556.3206961,None,None,1556.3206961,None,,,,,,,,,,,,,,,,,,,,,,,,,,,,,,,,,color14,001,2020_Mar_09_0849,ProdSingRedo,3.2.3,59.93734150322943,
61,0,61,0,,,,,,,,,,,,,,,,,,,,,,,,,,,,1560.8346548,None,color,silent,blue,66,56,1558.8254780000002,None,None,1558.8254780000002,None,,,,,,,,,,,,,,,,,,,,,,,,,,,,,,,,,color14,001,2020_Mar_09_0849,ProdSingRedo,3.2.3,59.93734150322943,
62,0,62,0,,,,,,,,,,,,,,,,,,,,,,,,,,,,1563.3515637,None,public,sing,yellow,9,244,1561.3484478,None,None,1561.3484478,None,,,,,,,,,,,,,,,,,,,,,,,,,,,,,,,,,color14,001,2020_Mar_09_0849,ProdSingRedo,3.2.3,59.93734150322943,
63,0,63,0,,,,,,,,,,,,,,,,,,,,,,,,,,,,1565.8682757000001,None,discovery,sing,yellow,17,95,1563.8674643,None,None,1563.8674643,None,,,,,,,,,,,,,,,,,,,,,,,,,,,,,,,,,color14,001,2020_Mar_09_0849,ProdSingRedo,3.2.3,59.93734150322943,
64,0,64,0,,,,,,,,,,,,,,,,,,,,,,,,,,,,1568.385437,None,express,sing,yellow,8,124,1566.3735763999998,None,None,1566.3735763999998,None,,,,,,,,,,,,,,,,,,,,,,,,,,,,,,,,,color14,001,2020_Mar_09_0849,ProdSingRedo,3.2.3,59.93734150322943,
65,0,65,0,,,,,,,,,,,,,,,,,,,,,,,,,,,,1570.9021668999999,None,agreement,sing,yellow,16,5,1568.8942373,None,None,1568.8942373,None,,,,,,,,,,,,,,,,,,,,,,,,,,,,,,,,,color14,001,2020_Mar_09_0849,ProdSingRedo,3.2.3,59.93734150322943,
66,0,66,0,,,,,,,,,,,,,,,,,,,,,,,,,,,,1573.4179897,None,raise,sing,yellow,5,250,1571.4180881000002,None,None,1571.4180881000002,None,,,,,,,,,,,,,,,,,,,,,,,,,,,,,,,,,color14,001,2020_Mar_09_0849,ProdSingRedo,3.2.3,59.93734150322943,
67,0,67,0,,,,,,,,,,,,,,,,,,,,,,,,,,,,1575.9348615,None,bicycle,silent,blue,75,21,1573.9382054000002,None,None,1573.9382054000002,None,,,,,,,,,,,,,,,,,,,,,,,,,,,,,,,,,color14,001,2020_Mar_09_0849,ProdSingRedo,3.2.3,59.93734150322943,
68,0,68,0,,,,,,,,,,,,,,,,,,,,,,,,,,,,1578.4522875000002,None,crime,aloud,red,44,78,1576.4452506000002,None,None,1576.4452506000002,None,,,,,,,,,,,,,,,,,,,,,,,,,,,,,,,,,color14,001,2020_Mar_09_0849,ProdSingRedo,3.2.3,59.93734150322943,
69,0,69,0,,,,,,,,,,,,,,,,,,,,,,,,,,,,1580.9692403,None,chief,sing,yellow,25,48,1578.9664897000002,None,None,1578.9664897000002,None,,,,,,,,,,,,,,,,,,,,,,,,,,,,,,,,,color14,001,2020_Mar_09_0849,ProdSingRedo,3.2.3,59.93734150322943,
70,0,70,0,,,,,,,,,,,,,,,,,,,,,,,,,,,,1583.4861224,None,whole,aloud,red,37,355,1581.4825614000001,None,None,1581.4825614000001,None,,,,,,,,,,,,,,,,,,,,,,,,,,,,,,,,,color14,001,2020_Mar_09_0849,ProdSingRedo,3.2.3,59.93734150322943,
71,0,71,0,,,,,,,,,,,,,,,,,,,,,,,,,,,,1586.0029877000002,None,collection,aloud,red,42,54,1583.9973974,None,None,1583.9973974,None,,,,,,,,,,,,,,,,,,,,,,,,,,,,,,,,,color14,001,2020_Mar_09_0849,ProdSingRedo,3.2.3,59.93734150322943,
72,0,72,0,,,,,,,,,,,,,,,,,,,,,,,,,,,,1588.5193421,None,device,aloud,red,59,93,1586.5212818999998,None,None,1586.5212818999998,None,,,,,,,,,,,,,,,,,,,,,,,,,,,,,,,,,color14,001,2020_Mar_09_0849,ProdSingRedo,3.2.3,59.93734150322943,
73,0,73,0,,,,,,,,,,,,,,,,,,,,,,,,,,,,1591.0365837,None,travel,silent,blue,67,338,1589.0286086,None,None,1589.0286086,None,,,,,,,,,,,,,,,,,,,,,,,,,,,,,,,,,color14,001,2020_Mar_09_0849,ProdSingRedo,3.2.3,59.93734150322943,
74,0,74,0,,,,,,,,,,,,,,,,,,,,,,,,,,,,1593.5535049999999,None,pressure,sing,yellow,18,232,1591.5454006,None,None,1591.5454006,None,,,,,,,,,,,,,,,,,,,,,,,,,,,,,,,,,color14,001,2020_Mar_09_0849,ProdSingRedo,3.2.3,59.93734150322943,
75,0,75,0,,,,,,,,,,,,,,,,,,,,,,,,,,,,1596.0695842,None,light,aloud,red,33,171,1594.0613812000001,None,None,1594.0613812000001,None,,,,,,,,,,,,,,,,,,,,,,,,,,,,,,,,,color14,001,2020_Mar_09_0849,ProdSingRedo,3.2.3,59.93734150322943,
76,0,76,0,,,,,,,,,,,,,,,,,,,,,,,,,,,,1598.5860453,None,rural,sing,yellow,28,269,1596.5852933,None,None,1596.5852933,None,,,,,,,,,,,,,,,,,,,,,,,,,,,,,,,,,color14,001,2020_Mar_09_0849,ProdSingRedo,3.2.3,59.93734150322943,
77,0,77,0,,,,,,,,,,,,,,,,,,,,,,,,,,,,1601.1036138,None,beginning,sing,yellow,23,19,1599.1052032000002,None,None,1599.1052032000002,None,,,,,,,,,,,,,,,,,,,,,,,,,,,,,,,,,color14,001,2020_Mar_09_0849,ProdSingRedo,3.2.3,59.93734150322943,
78,0,78,0,,,,,,,,,,,,,,,,,,,,,,,,,,,,1603.6206386,None,spoke,aloud,red,53,300,1601.6171605,None,None,1601.6171605,None,,,,,,,,,,,,,,,,,,,,,,,,,,,,,,,,,color14,001,2020_Mar_09_0849,ProdSingRedo,3.2.3,59.93734150322943,
79,0,79,0,,,,,,,,,,,,,,,,,,,,,,,,,,,,1606.1372542,None,hunger,silent,blue,77,155,1604.1375862,None,None,1604.1375862,None,,,,,,,,,,,,,,,,,,,,,,,,,,,,,,,,,color14,001,2020_Mar_09_0849,ProdSingRedo,3.2.3,59.93734150322943,
80,0,80,0,,,,,,,,,,,,,,,,,,,,,,,,,,,,1608.6544465000002,None,prime,aloud,red,48,235,1606.6476576999999,None,None,1606.6476576999999,None,,,,,,,,,,,,,,,,,,,,,,,,,,,,,,,,,color14,001,2020_Mar_09_0849,ProdSingRedo,3.2.3,59.93734150322943,
81,0,81,0,,,,,,,,,,,,,,,,,,,,,,,,,,,,1611.1724295,None,graduate,sing,yellow,21,141,1609.1714104000002,None,None,1609.1714104000002,None,,,,,,,,,,,,,,,,,,,,,,,,,,,,,,,,,color14,001,2020_Mar_09_0849,ProdSingRedo,3.2.3,59.93734150322943,
82,0,82,0,,,,,,,,,,,,,,,,,,,,,,,,,,,,1613.688145,None,fashion,sing,yellow,2,125,1611.6771107999998,None,None,1611.6771107999998,None,,,,,,,,,,,,,,,,,,,,,,,,,,,,,,,,,color14,001,2020_Mar_09_0849,ProdSingRedo,3.2.3,59.93734150322943,
83,0,83,0,,,,,,,,,,,,,,,,,,,,,,,,,,,,1616.2050119,None,clear,silent,blue,68,52,1614.1948326000002,None,None,1614.1948326000002,None,,,,,,,,,,,,,,,,,,,,,,,,,,,,,,,,,color14,001,2020_Mar_09_0849,ProdSingRedo,3.2.3,59.93734150322943,
84,0,84,0,,,,,,,,,,,,,,,,,,,,,,,,,,,,1618.7207598,None,range,silent,blue,87,251,1616.716014,None,None,1616.716014,None,,,,,,,,,,,,,,,,,,,,,,,,,,,,,,,,,color14,001,2020_Mar_09_0849,ProdSingRedo,3.2.3,59.93734150322943,
85,0,85,0,,,,,,,,,,,,,,,,,,,,,,,,,,,,1621.2378789,None,council,aloud,red,50,71,1619.2343217000002,None,None,1619.2343217000002,None,,,,,,,,,,,,,,,,,,,,,,,,,,,,,,,,,color14,001,2020_Mar_09_0849,ProdSingRedo,3.2.3,59.93734150322943,
86,0,86,0,,,,,,,,,,,,,,,,,,,,,,,,,,,,1623.7545223000002,None,sweet,sing,yellow,29,319,1621.7533749,None,None,1621.7533749,None,,,,,,,,,,,,,,,,,,,,,,,,,,,,,,,,,color14,001,2020_Mar_09_0849,ProdSingRedo,3.2.3,59.93734150322943,
87,0,87,0,,,,,,,,,,,,,,,,,,,,,,,,,,,,1626.2720187,None,poetry,sing,yellow,4,225,1624.2690092000003,None,None,1624.2690092000003,None,,,,,,,,,,,,,,,,,,,,,,,,,,,,,,,,,color14,001,2020_Mar_09_0849,ProdSingRedo,3.2.3,59.93734150322943,
88,0,88,0,,,,,,,,,,,,,,,,,,,,,,,,,,,,1628.7891353,None,production,aloud,red,57,240,1626.7900641,None,None,1626.7900641,None,,,,,,,,,,,,,,,,,,,,,,,,,,,,,,,,,color14,001,2020_Mar_09_0849,ProdSingRedo,3.2.3,59.93734150322943,
89,0,89,0,,,,,,,,,,,,,,,,,,,,,,,,,,,,1631.3065464000001,None,broad,aloud,red,41,31,1629.3029379,None,None,1629.3029379,None,,,,,,,,,,,,,,,,,,,,,,,,,,,,,,,,,color14,001,2020_Mar_09_0849,ProdSingRedo,3.2.3,59.93734150322943,
,,,,,,,,,,,,,,,,,,,,,,,,,,,,,,,,,,,,,,,,,,,1631.8061768000002,None,k,112.12347890000001,1631.8061768000002,None,,,,,,,,,,,,,,,,,,,,,,,,,,,color14,001,2020_Mar_09_0849,ProdSingRedo,3.2.3,59.93734150322943,
,,,,0,0,0,0,,,,,,,,,,,,,,,,,,,,,,,,1752.7419808,None,,,,,,,,,,,,,,,,,crime,aloud,red,0,44,78,1744.4587525000002,None,1744.4587525000002,None,6,4.750680900000134,1744.4587525000002,None,1749.2482288,None,1749.7740987000002,None,1749.7740987000002,None,r,2.939789400000336,1749.7740987000002,None,,,color14,001,2020_Mar_09_0849,ProdSingRedo,3.2.3,59.93734150322943,
,,,,1,0,1,0,,,,,,,,,,,,,,,,,,,,,,,,1757.7643739999999,None,,,,,,,,,,,,,,,,,blind,silent,blue,1,61,24,1753.2629557,None,1753.2629557,None,6,2.6828786000000946,1753.2629557,None,1755.9765849,None,1756.4837619,None,1756.4837619,None,r,1.2535542999999052,1756.4837619,None,,,color14,001,2020_Mar_09_0849,ProdSingRedo,3.2.3,59.93734150322943,
,,,,2,0,2,0,,,,,,,,,,,,,,,,,,,,,,,,1764.4566266000002,None,,,,,,,,,,,,,,,,,front,sing,yellow,2,15,134,1758.2811950999999,None,1758.2811950999999,None,5,4.696387399999821,1758.2811950999999,None,1763.0205071,None,1763.5409296000003,None,1763.5409296000003,None,f,0.8846293999999943,1763.5409296000003,None,,,color14,001,2020_Mar_09_0849,ProdSingRedo,3.2.3,59.93734150322943,
,,,,3,0,3,0,,,,,,,,,,,,,,,,,,,,,,,,1768.4404774,None,,,,,,,,,,,,,,,,,nature,sing,yellow,3,3,200,1764.9853080000003,None,1764.9853080000003,None,5,2.2640904999998384,1764.9853080000003,None,1767.2757427000001,None,1767.7917533999998,None,1767.7917533999998,None,f,0.6177701999999954,1767.7917533999998,None,,,color14,001,2020_Mar_09_0849,ProdSingRedo,3.2.3,59.93734150322943,
,,,,4,0,4,0,,,,,,,,,,,,,,,,,,,,,,,,1773.9674024,None,,,,,,,,,,,,,,,,,watch,new_silent,blue,4,150,351,1768.9650272,None,1768.9650272,None,1,2.1885611000002427,1768.9650272,None,1771.2023163,None,1771.7171778000002,None,1771.7171778000002,None,n,2.2201952999998866,1771.7171778000002,None,,,color14,001,2020_Mar_09_0849,ProdSingRedo,3.2.3,59.93734150322943,
,,,,5,0,5,0,,,,,,,,,,,,,,,,,,,,,,,,1777.6657771999999,None,,,,,,,,,,,,,,,,,agreement,sing,yellow,5,16,5,1774.4978087,None,1774.4978087,None,6,1.8636031000000912,1774.4978087,None,1776.3941927,None,1776.8984260000002,None,1776.8984260000002,None,r,0.7508336000000781,1776.8984260000002,None,,,color14,001,2020_Mar_09_0849,ProdSingRedo,3.2.3,59.93734150322943,
,,,,6,0,6,0,,,,,,,,,,,,,,,,,,,,,,,,1782.2074026,None,,,,,,,,,,,,,,,,,tennis,new_sing,yellow,6,110,323,1778.1736379,None,1778.1736379,None,1,2.515911999999844,1778.1736379,None,1780.7265235,None,1781.2402616,None,1781.2402616,None,n,0.9292313000000831,1781.2402616,None,,,color14,001,2020_Mar_09_0849,ProdSingRedo,3.2.3,59.93734150322943,
,,,,7,0,7,0,,,,,,,,,,,,,,,,,,,,,,,,1787.2437218,None,,,,,,,,,,,,,,,,,degree,new_aloud,red,7,136,89,1782.7292474,None,1782.7292474,None,1,2.4881811999998718,1782.7292474,None,1785.2463934000002,None,1785.7631717,None,1785.7631717,None,n,1.4463644000002205,1785.7631717,None,,,color14,001,2020_Mar_09_0849,ProdSingRedo,3.2.3,59.93734150322943,
,,,,8,0,8,0,,,,,,,,,,,,,,,,,,,,,,,,1791.4587431,None,,,,,,,,,,,,,,,,,motion,sing,yellow,8,24,194,1787.7625010000002,None,1787.7625010000002,None,5,2.447002800000064,1787.7625010000002,None,1790.2515253000001,None,1790.7695542000001,None,1790.7695542000001,None,f,0.6559699999997974,1790.7695542000001,None,,,color14,001,2020_Mar_09_0849,ProdSingRedo,3.2.3,59.93734150322943,
,,,,9,0,9,0,,,,,,,,,,,,,,,,,,,,,,,,1795.2387106,None,,,,,,,,,,,,,,,,,quarter,aloud,red,9,35,246,1791.9783351,None,1791.9783351,None,6,2.039098400000057,1791.9783351,None,1794.0480023999999,None,1794.5654119,None,1794.5654119,None,r,0.6521986999996443,1794.5654119,None,,,color14,001,2020_Mar_09_0849,ProdSingRedo,3.2.3,59.93734150322943,
,,,,10,0,10,0,,,,,,,,,,,,,,,,,,,,,,,,1807.4427829,None,,,,,,,,,,,,,,,,,straight,new_aloud,red,10,143,307,1795.7698160999998,None,1795.7698160999998,None,3,9.45565889999989,1795.7698160999998,None,1805.2781349000002,None,1805.8005478,None,1805.8005478,None,f,1.617160799999965,1805.8005478,None,,,color14,001,2020_Mar_09_0849,ProdSingRedo,3.2.3,59.93734150322943,
,,,,11,0,11,0,,,,,,,,,,,,,,,,,,,,,,,,1810.8390456000002,None,,,,,,,,,,,,,,,,,theme,aloud,red,11,52,326,1807.9647248,None,1807.9647248,None,6,1.8128707999999278,1807.9647248,None,1809.8168697,None,1810.3266396,None,1810.3266396,None,r,0.4909705000000031,1810.3266396,None,,,color14,001,2020_Mar_09_0849,ProdSingRedo,3.2.3,59.93734150322943,
,,,,12,0,12,0,,,,,,,,,,,,,,,,,,,,,,,,1814.0210594999999,None,,,,,,,,,,,,,,,,,health,sing,yellow,12,10,149,1811.3687519999999,None,1811.3687519999999,None,5,1.8246577999998408,1811.3687519999999,None,1813.2381140000002,None,1813.7647369000001,None,1813.7647369000001,None,f,0.22869670000000042,1813.7647369000001,None,,,color14,001,2020_Mar_09_0849,ProdSingRedo,3.2.3,59.93734150322943,
,,,,13,0,13,0,,,,,,,,,,,,,,,,,,,,,,,,1819.0567964000002,None,,,,,,,,,,,,,,,,,testimony,new_aloud,red,13,126,325,1814.5515141,None,1814.5515141,None,1,3.6982797000000573,1814.5515141,None,1818.291811,None,1818.8024449999998,None,1818.8024449999998,None,n,0.22309350000023187,1818.8024449999998,None,,,color14,001,2020_Mar_09_0849,ProdSingRedo,3.2.3,59.93734150322943,
,,,,14,0,14,0,,,,,,,,,,,,,,,,,,,,,,,,1822.7034727999999,None,,,,,,,,,,,,,,,,,drove,silent,blue,14,89,106,1819.5765332,None,1819.5765332,None,4,2.4091561999998703,1819.5765332,None,1822.0267170000002,None,1822.5413449000002,None,1822.5413449000002,None,f,0.1322853000001487,1822.5413449000002,None,,,color14,001,2020_Mar_09_0849,ProdSingRedo,3.2.3,59.93734150322943,
,,,,15,0,15,0,,,,,,,,,,,,,,,,,,,,,,,,1827.0718550000001,None,,,,,,,,,,,,,,,,,drink,sing,yellow,15,27,105,1823.2320319,None,1823.2320319,None,3,2.737379499999861,1823.2320319,None,1825.9987907,None,1826.5138478,None,1826.5138478,None,f,0.5358140999996976,1826.5138478,None,,,color14,001,2020_Mar_09_0849,ProdSingRedo,3.2.3,59.93734150322943,
,,,,16,0,16,0,,,,,,,,,,,,,,,,,,,,,,,,1829.9700344000003,None,,,,,,,,,,,,,,,,,production,aloud,red,16,57,240,1827.6053057,None,1827.6053057,None,6,1.500034400000004,1827.6053057,None,1829.1490962000003,None,1829.6620163000002,None,1829.6620163000002,None,r,0.29132039999967674,1829.6620163000002,None,,,color14,001,2020_Mar_09_0849,ProdSingRedo,3.2.3,59.93734150322943,
,,,,17,0,17,0,,,,,,,,,,,,,,,,,,,,,,,,1832.8449175,None,,,,,,,,,,,,,,,,,poetry,sing,yellow,17,4,225,1830.48391,None,1830.48391,None,6,1.2693315000001348,1830.48391,None,1831.7783727,None,1832.2873297,None,1832.2873297,None,r,0.5304442999999992,1832.2873297,None,,,color14,001,2020_Mar_09_0849,ProdSingRedo,3.2.3,59.93734150322943,
,,,,18,0,18,0,,,,,,,,,,,,,,,,,,,,,,,,1836.1903966999998,None,,,,,,,,,,,,,,,,,series,silent,blue,18,74,279,1833.3656537000002,None,1833.3656537000002,None,4,1.9078249999997752,1833.3656537000002,None,1835.3117883999998,None,1835.827222,None,1835.827222,None,n,0.3342290000000503,1835.827222,None,,,color14,001,2020_Mar_09_0849,ProdSingRedo,3.2.3,59.93734150322943,
,,,,19,0,19,0,,,,,,,,,,,,,,,,,,,,,,,,1839.908626,None,,,,,,,,,,,,,,,,,stranger,aloud,red,19,32,309,1836.7234312,None,1836.7234312,None,6,2.310385799999949,1836.7234312,None,1839.0734495000002,None,1839.6026827,None,1839.6026827,None,r,0.2788365999999769,1839.6026827,None,,,color14,001,2020_Mar_09_0849,ProdSingRedo,3.2.3,59.93734150322943,
,,,,20,0,20,0,,,,,,,,,,,,,,,,,,,,,,,,1843.1455022999999,None,,,,,,,,,,,,,,,,,turkey,new_sing,yellow,20,109,342,1840.4337765999999,None,1840.4337765999999,None,1,1.2395846999997957,1840.4337765999999,None,1841.718902,None,1842.2304042,None,1842.2304042,None,n,0.8830997000000025,1842.2304042,None,,,color14,001,2020_Mar_09_0849,ProdSingRedo,3.2.3,59.93734150322943,
,,,,21,0,21,0,,,,,,,,,,,,,,,,,,,,,,,,1849.379406,None,,,,,,,,,,,,,,,,,history,new_sing,yellow,21,95,153,1843.6708327000001,None,1843.6708327000001,None,4,4.866726499999913,1843.6708327000001,None,1848.5754954,None,1849.0919398,None,1849.0919398,None,f,0.2616568000003099,1849.0919398,None,,,color14,001,2020_Mar_09_0849,ProdSingRedo,3.2.3,59.93734150322943,
,,,,22,0,22,0,,,,,,,,,,,,,,,,,,,,,,,,1852.7960209000003,None,,,,,,,,,,,,,,,,,silence,aloud,red,22,31,288,1849.900999,None,1849.900999,None,5,2.052618000000166,1849.900999,None,1851.9911653,None,1852.5085837000001,None,1852.5085837000001,None,r,0.2528818999999203,1852.5085837000001,None,,,color14,001,2020_Mar_09_0849,ProdSingRedo,3.2.3,59.93734150322943,
,,,,23,0,23,0,,,,,,,,,,,,,,,,,,,,,,,,1856.2632558999999,None,,,,,,,,,,,,,,,,,gesture,aloud,red,23,54,137,1853.320306,None,1853.320306,None,6,1.8892472000002272,1853.320306,None,1855.2611369,None,1855.7855983,None,1855.7855983,None,r,0.44783890000007887,1855.7855983,None,,,color14,001,2020_Mar_09_0849,ProdSingRedo,3.2.3,59.93734150322943,
,,,,24,0,24,0,,,,,,,,,,,,,,,,,,,,,,,,1860.3800433000001,None,,,,,,,,,,,,,,,,,clear,silent,blue,24,68,52,1856.7875152000001,None,1856.7875152000001,None,5,2.8539119000001847,1856.7875152000001,None,1859.6788419,None,1860.1943532999999,None,1860.1943532999999,None,f,0.15106509999986883,1860.1943532999999,None,,,color14,001,2020_Mar_09_0849,ProdSingRedo,3.2.3,59.93734150322943,
,,,,25,0,25,0,,,,,,,,,,,,,,,,,,,,,,,,1863.0711127,None,,,,,,,,,,,,,,,,,sunset,new_sing,yellow,25,91,315,1860.9034772,None,1860.9034772,None,1,1.3299795999996604,1860.9034772,None,1862.2678741999998,None,1862.7777126,None,1862.7777126,None,n,0.26357469999993555,1862.7777126,None,,,color14,001,2020_Mar_09_0849,ProdSingRedo,3.2.3,59.93734150322943,
,,,,26,0,26,0,,,,,,,,,,,,,,,,,,,,,,,,1865.9076269000002,None,,,,,,,,,,,,,,,,,match,new_silent,blue,26,163,181,1863.5738467,None,1863.5738467,None,1,1.4193467999998575,1863.5738467,None,1865.027548,None,1865.5460314000002,None,1865.5460314000002,None,n,0.34330750000026455,1865.5460314000002,None,,,color14,001,2020_Mar_09_0849,ProdSingRedo,3.2.3,59.93734150322943,
,,,,27,0,27,0,,,,,,,,,,,,,,,,,,,,,,,,1869.9223419999998,None,,,,,,,,,,,,,,,,,territory,new_silent,blue,27,154,324,1866.4332018999999,None,1866.4332018999999,None,5,2.5760141999999178,1866.4332018999999,None,1869.0437489,None,1869.5546375,None,1869.5546375,None,f,0.3425845000001573,1869.5546375,None,,,color14,001,2020_Mar_09_0849,ProdSingRedo,3.2.3,59.93734150322943,
,,,,28,0,28,0,,,,,,,,,,,,,,,,,,,,,,,,1872.9308672000002,None,,,,,,,,,,,,,,,,,scale,silent,blue,28,69,272,1870.4418022999998,None,1870.4418022999998,None,6,1.7836609999999382,1870.4418022999998,None,1872.2749549,None,1872.7939190000002,None,1872.7939190000002,None,r,0.10358110000015586,1872.7939190000002,None,,,color14,001,2020_Mar_09_0849,ProdSingRedo,3.2.3,59.93734150322943,
,,,,29,0,29,0,,,,,,,,,,,,,,,,,,,,,,,,1875.3814201,None,,,,,,,,,,,,,,,,,fellow,new_silent,blue,29,157,126,1873.4554730999998,None,1873.4554730999998,None,1,1.1619524000002457,1873.4554730999998,None,1874.6633505,None,1875.1848163,None,1875.1848163,None,n,0.1608820999999807,1875.1848163,None,,,color14,001,2020_Mar_09_0849,ProdSingRedo,3.2.3,59.93734150322943,
,,,,30,0,30,0,,,,,,,,,,,,,,,,,,,,,,,,1879.5747764000002,None,,,,,,,,,,,,,,,,,platform,new_silent,blue,30,167,224,1875.9057723,None,1875.9057723,None,5,2.0075768000001517,1875.9057723,None,1877.9479958000002,None,1878.463847,None,1878.463847,None,r,1.0817778000000544,1878.463847,None,,,color14,001,2020_Mar_09_0849,ProdSingRedo,3.2.3,59.93734150322943,
,,,,31,0,31,0,,,,,,,,,,,,,,,,,,,,,,,,1887.8477023,None,,,,,,,,,,,,,,,,,skill,new_sing,yellow,31,93,289,1880.10768,None,1880.10768,None,5,5.749441800000113,1880.10768,None,1885.8750194,None,1886.4027772,None,1886.4027772,None,r,1.4065998000000945,1886.4027772,None,,,color14,001,2020_Mar_09_0849,ProdSingRedo,3.2.3,59.93734150322943,
,,,,32,0,32,0,,,,,,,,,,,,,,,,,,,,,,,,1890.9987729,None,,,,,,,,,,,,,,,,,childhood,new_silent,blue,32,161,49,1888.3666094999999,None,1888.3666094999999,None,1,1.234552700000222,1888.3666094999999,None,1889.6280354,None,1890.1498634999998,None,1890.1498634999998,None,n,0.8195824999997967,1890.1498634999998,None,,,color14,001,2020_Mar_09_0849,ProdSingRedo,3.2.3,59.93734150322943,
,,,,33,0,33,0,,,,,,,,,,,,,,,,,,,,,,,,1894.3156199,None,,,,,,,,,,,,,,,,,state,new_silent,blue,33,175,303,1891.5232406999999,None,1891.5232406999999,None,1,1.7500943000000007,1891.5232406999999,None,1893.3020531000002,None,1893.8169643,None,1893.8169643,None,n,0.4725765000002866,1893.8169643,None,,,color14,001,2020_Mar_09_0849,ProdSingRedo,3.2.3,59.93734150322943,
,,,,34,0,34,0,,,,,,,,,,,,,,,,,,,,,,,,1897.1259037,None,,,,,,,,,,,,,,,,,executive,new_aloud,red,34,142,122,1894.8431761000002,None,1894.8431761000002,None,1,1.4700859999998102,1894.8431761000002,None,1896.3564477,None,1896.8728261,None,1896.8728261,None,n,0.2327712999999676,1896.8728261,None,,,color14,001,2020_Mar_09_0849,ProdSingRedo,3.2.3,59.93734150322943,
,,,,35,0,35,0,,,,,,,,,,,,,,,,,,,,,,,,1899.5485036,None,,,,,,,,,,,,,,,,,bicycle,silent,blue,35,75,21,1897.6616948,None,1897.6616948,None,1,1.1717236999998022,1897.6616948,None,1898.8728434999998,None,1899.3734644,None,1899.3734644,None,n,0.1400258999997277,1899.3734644,None,,,color14,001,2020_Mar_09_0849,ProdSingRedo,3.2.3,59.93734150322943,
,,,,36,0,36,0,,,,,,,,,,,,,,,,,,,,,,,,1902.1171209,None,,,,,,,,,,,,,,,,,drama,new_sing,yellow,36,116,103,1900.0688979000001,None,1900.0688979000001,None,1,1.3166629000002104,1900.0688979000001,None,1901.4310071999998,None,1901.9542201,None,1901.9542201,None,n,0.12711029999991297,1901.9542201,None,,,color14,001,2020_Mar_09_0849,ProdSingRedo,3.2.3,59.93734150322943,
,,,,37,0,37,0,,,,,,,,,,,,,,,,,,,,,,,,1904.8596336,None,,,,,,,,,,,,,,,,,instrument,new_aloud,red,37,132,163,1902.6395997999998,None,1902.6395997999998,None,1,1.3617988000000878,1902.6395997999998,None,1904.0537966000002,None,1904.5634553999998,None,1904.5634553999998,None,n,0.27805609999995795,1904.5634553999998,None,,,color14,001,2020_Mar_09_0849,ProdSingRedo,3.2.3,59.93734150322943,
,,,,38,0,38,0,,,,,,,,,,,,,,,,,,,,,,,,1907.7990725999998,None,,,,,,,,,,,,,,,,,running,aloud,red,38,47,268,1905.3967828,None,1905.3967828,None,1,1.428593500000261,1905.3967828,None,1906.8658223000002,None,1907.3813427999999,None,1907.3813427999999,None,n,0.3801007000001846,1907.3813427999999,None,,,color14,001,2020_Mar_09_0849,ProdSingRedo,3.2.3,59.93734150322943,
,,,,39,0,39,0,,,,,,,,,,,,,,,,,,,,,,,,1912.6168208,None,,,,,,,,,,,,,,,,,direction,silent,blue,39,80,94,1908.3224665000002,None,1908.3224665000002,None,3,3.0309041999998954,1908.3224665000002,None,1911.3940253,None,1911.908735,None,1911.908735,None,f,0.6767002000001412,1911.908735,None,,,color14,001,2020_Mar_09_0849,ProdSingRedo,3.2.3,59.93734150322943,
,,,,40,0,40,0,,,,,,,,,,,,,,,,,,,,,,,,1914.8423637,None,,,,,,,,,,,,,,,,,owner,new_sing,yellow,40,90,208,1913.1380491999998,None,1913.1380491999998,None,1,1.0472743000000264,1913.1380491999998,None,1914.2347848,None,1914.7539585999998,None,1914.7539585999998,None,n,0.05535280000003695,1914.7539585999998,None,,,color14,001,2020_Mar_09_0849,ProdSingRedo,3.2.3,59.93734150322943,
,,,,41,0,41,0,,,,,,,,,,,,,,,,,,,,,,,,1918.9599147,None,,,,,,,,,,,,,,,,,management,new_sing,yellow,41,97,177,1915.3585408,None,1915.3585408,None,1,2.010737799999788,1915.3585408,None,1917.4027543000002,None,1917.9181835,None,1917.9181835,None,n,1.011169400000199,1917.9181835,None,,,color14,001,2020_Mar_09_0849,ProdSingRedo,3.2.3,59.93734150322943,
,,,,42,0,42,0,,,,,,,,,,,,,,,,,,,,,,,,1923.3342168,None,,,,,,,,,,,,,,,,,country,aloud,red,42,58,73,1919.4982547999998,None,1919.4982547999998,None,4,2.8471636999997827,1919.4982547999998,None,1922.3894430999999,None,1922.9084751999999,None,1922.9084751999999,None,f,0.39733109999997396,1922.9084751999999,None,,,color14,001,2020_Mar_09_0849,ProdSingRedo,3.2.3,59.93734150322943,
,,,,43,0,43,0,,,,,,,,,,,,,,,,,,,,,,,,1926.3090566,None,,,,,,,,,,,,,,,,,court,sing,yellow,43,13,75,1923.8597504,None,1923.8597504,None,4,1.4936367999998765,1923.8597504,None,1925.3887488999999,None,1925.8957157,None,1925.8957157,None,f,0.3854107000001932,1925.8957157,None,,,color14,001,2020_Mar_09_0849,ProdSingRedo,3.2.3,59.93734150322943,
,,,,44,0,44,0,,,,,,,,,,,,,,,,,,,,,,,,1929.1939473000002,None,,,,,,,,,,,,,,,,,husband,new_sing,yellow,44,118,156,1926.8296016,None,1926.8296016,None,1,1.2276716999999735,1926.8296016,None,1928.0904512000002,None,1928.6080908,None,1928.6080908,None,n,0.5613332000002629,1928.6080908,None,,,color14,001,2020_Mar_09_0849,ProdSingRedo,3.2.3,59.93734150322943,
,,,,45,0,45,0,,,,,,,,,,,,,,,,,,,,,,,,1932.6942506999999,None,,,,,,,,,,,,,,,,,accident,silent,blue,45,84,0,1929.7251068,None,1929.7251068,None,5,1.8761724000000868,1929.7251068,None,1931.6387140000002,None,1932.1540829,None,1932.1540829,None,f,0.5192846999998437,1932.1540829,None,,,color14,001,2020_Mar_09_0849,ProdSingRedo,3.2.3,59.93734150322943,
,,,,46,0,46,0,,,,,,,,,,,,,,,,,,,,,,,,1937.0851641,None,,,,,,,,,,,,,,,,,spoke,aloud,red,46,53,300,1933.2185197,None,1933.2185197,None,4,3.1107504000001427,1933.2185197,None,1936.3712997000002,None,1936.8887971,None,1936.8887971,None,f,0.1689067000002069,1936.8887971,None,,,color14,001,2020_Mar_09_0849,ProdSingRedo,3.2.3,59.93734150322943,
,,,,47,0,47,0,,,,,,,,,,,,,,,,,,,,,,,,1940.7596899,None,,,,,,,,,,,,,,,,,appearance,aloud,red,47,46,10,1937.6132812,None,1937.6132812,None,5,1.8838921000001392,1937.6132812,None,1939.5337929000002,None,1940.0542698,None,1940.0542698,None,f,0.6829600000000937,1940.0542698,None,,,color14,001,2020_Mar_09_0849,ProdSingRedo,3.2.3,59.93734150322943,
,,,,48,0,48,0,,,,,,,,,,,,,,,,,,,,,,,,1944.0777662,None,,,,,,,,,,,,,,,,,prime,aloud,red,48,48,235,1941.2729941000002,None,1941.2729941000002,None,5,1.6243702000001576,1941.2729941000002,None,1942.9358794,None,1943.4488972,None,1943.4488972,None,f,0.6084249999998974,1943.4488972,None,,,color14,001,2020_Mar_09_0849,ProdSingRedo,3.2.3,59.93734150322943,
,,,,49,0,49,0,,,,,,,,,,,,,,,,,,,,,,,,1946.8526078999998,None,,,,,,,,,,,,,,,,,impact,new_silent,blue,49,155,157,1944.5870201000002,None,1944.5870201000002,None,1,1.3262314999997216,1944.5870201000002,None,1945.9563981000001,None,1946.4737587,None,1946.4737587,None,n,0.3517650999997386,1946.4737587,None,,,color14,001,2020_Mar_09_0849,ProdSingRedo,3.2.3,59.93734150322943,
,,,,50,0,50,0,,,,,,,,,,,,,,,,,,,,,,,,1952.1977962,None,,,,,,,,,,,,,,,,,pattern,new_aloud,red,50,137,214,1947.3790823,None,1947.3790823,None,4,4.10240500000009,1947.3790823,None,1951.5328968,None,1952.0511586000002,None,1952.0511586000002,None,f,0.1262695000000349,1952.0511586000002,None,,,color14,001,2020_Mar_09_0849,ProdSingRedo,3.2.3,59.93734150322943,
,,,,51,0,51,0,,,,,,,,,,,,,,,,,,,,,,,,1955.0195736,None,,,,,,,,,,,,,,,,,company,new_aloud,red,51,121,64,1952.7319575000001,None,1952.7319575000001,None,1,1.3574106999999458,1952.7319575000001,None,1954.1379416,None,1954.6603530000002,None,1954.6603530000002,None,n,0.32491609999988214,1954.6603530000002,None,,,color14,001,2020_Mar_09_0849,ProdSingRedo,3.2.3,59.93734150322943,
,,,,52,0,52,0,,,,,,,,,,,,,,,,,,,,,,,,1957.8625739,None,,,,,,,,,,,,,,,,,figure,silent,blue,52,64,128,1955.5377884,None,1955.5377884,None,1,1.519541300000128,1955.5377884,None,1957.084359,None,1957.6021323999998,None,1957.6021323999998,None,n,0.23945210000010775,1957.6021323999998,None,,,color14,001,2020_Mar_09_0849,ProdSingRedo,3.2.3,59.93734150322943,
,,,,53,0,53,0,,,,,,,,,,,,,,,,,,,,,,,,1962.1366835,None,,,,,,,,,,,,,,,,,strength,new_silent,blue,53,179,310,1958.3792592,None,1958.3792592,None,1,3.1101183999999193,1958.3792592,None,1961.5255751999998,None,1962.0291164,None,1962.0291164,None,n,0.07627759999968475,1962.0291164,None,,,color14,001,2020_Mar_09_0849,ProdSingRedo,3.2.3,59.93734150322943,
,,,,54,0,54,0,,,,,,,,,,,,,,,,,,,,,,,,1967.2344253,None,,,,,,,,,,,,,,,,,judge,new_aloud,red,54,146,166,1962.6642109,None,1962.6642109,None,4,3.9529929000000266,1962.6642109,None,1966.6550653,None,1967.1719784000002,None,1967.1719784000002,None,f,0.03744790000018838,1967.1719784000002,None,,,color14,001,2020_Mar_09_0849,ProdSingRedo,3.2.3,59.93734150322943,
,,,,55,0,55,0,,,,,,,,,,,,,,,,,,,,,,,,1970.7365469000001,None,,,,,,,,,,,,,,,,,individual,new_silent,blue,55,168,160,1967.7689682999999,None,1967.7689682999999,None,4,1.8002116000002388,1967.7689682999999,None,1969.620786,None,1970.1289911,None,1970.1289911,None,f,0.5684788999997181,1970.1289911,None,,,color14,001,2020_Mar_09_0849,ProdSingRedo,3.2.3,59.93734150322943,
,,,,56,0,56,0,,,,,,,,,,,,,,,,,,,,,,,,1974.1823579000002,None,,,,,,,,,,,,,,,,,murder,new_silent,blue,56,165,195,1971.2564880999998,None,1971.2564880999998,None,1,1.9689635999998245,1971.2564880999998,None,1973.2485289,None,1973.7713884999998,None,1973.7713884999998,None,n,0.3818789000001743,1973.7713884999998,None,,,color14,001,2020_Mar_09_0849,ProdSingRedo,3.2.3,59.93734150322943,
,,,,57,0,57,0,,,,,,,,,,,,,,,,,,,,,,,,1976.7537307000002,None,,,,,,,,,,,,,,,,,threat,sing,yellow,57,7,329,1974.7162825,None,1974.7162825,None,1,1.4050236999996741,1974.7162825,None,1976.1654222000002,None,1976.6847395999998,None,1976.6847395999998,None,n,0.04460160000007818,1976.6847395999998,None,,,color14,001,2020_Mar_09_0849,ProdSingRedo,3.2.3,59.93734150322943,
,,,,58,0,58,0,,,,,,,,,,,,,,,,,,,,,,,,1979.7045004000001,None,,,,,,,,,,,,,,,,,weight,silent,blue,58,82,353,1977.2808997000002,None,1977.2808997000002,None,1,1.6882206999998743,1977.2808997000002,None,1979.0086535,None,1979.5269302000002,None,1979.5269302000002,None,n,0.14642359999970722,1979.5269302000002,None,,,color14,001,2020_Mar_09_0849,ProdSingRedo,3.2.3,59.93734150322943,
,,,,59,0,59,0,,,,,,,,,,,,,,,,,,,,,,,,1982.8549494,None,,,,,,,,,,,,,,,,,agency,new_aloud,red,59,149,4,1980.2319996,None,1980.2319996,None,1,0.945530499999677,1980.2319996,None,1981.2214297,None,1981.7456485000002,None,1981.7456485000002,None,n,1.0797239999997146,1981.7456485000002,None,,,color14,001,2020_Mar_09_0849,ProdSingRedo,3.2.3,59.93734150322943,
,,,,60,0,60,0,,,,,,,,,,,,,,,,,,,,,,,,1985.6976920000002,None,,,,,,,,,,,,,,,,,mankind,new_aloud,red,60,133,178,1983.3849589000001,None,1983.3849589000001,None,1,1.2004274999999325,1983.3849589000001,None,1984.6243542000002,None,1985.1465023,None,1985.1465023,None,n,0.5186838000004172,1985.1465023,None,,,color14,001,2020_Mar_09_0849,ProdSingRedo,3.2.3,59.93734150322943,
,,,,61,0,61,0,,,,,,,,,,,,,,,,,,,,,,,,1988.5708081000002,None,,,,,,,,,,,,,,,,,death,silent,blue,61,79,86,1986.2240938999998,None,1986.2240938999998,None,1,1.3854013000000123,1986.2240938999998,None,1987.6525056,None,1988.1703157000002,None,1988.1703157000002,None,n,0.3669838000000709,1988.1703157000002,None,,,color14,001,2020_Mar_09_0849,ProdSingRedo,3.2.3,59.93734150322943,
,,,,62,0,62,0,,,,,,,,,,,,,,,,,,,,,,,,1992.1220723000001,None,,,,,,,,,,,,,,,,,express,sing,yellow,62,8,124,1989.0935602,None,1989.0935602,None,6,2.155796999999893,1989.0935602,None,1991.2989373,None,1991.8229689,None,1991.8229689,None,r,0.2663217999997869,1991.8229689,None,,,color14,001,2020_Mar_09_0849,ProdSingRedo,3.2.3,59.93734150322943,
,,,,63,0,63,0,,,,,,,,,,,,,,,,,,,,,,,,1996.7046008000002,None,,,,,,,,,,,,,,,,,south,new_aloud,red,63,123,296,1992.6465996000002,None,1992.6465996000002,None,1,1.986701599999833,1992.6465996000002,None,1994.6824974,None,1995.1971953000002,None,1995.1971953000002,None,n,1.4841264000001502,1995.1971953000002,None,,,color14,001,2020_Mar_09_0849,ProdSingRedo,3.2.3,59.93734150322943,
,,,,64,0,64,0,,,,,,,,,,,,,,,,,,,,,,,,2000.0049477000002,None,,,,,,,,,,,,,,,,,close,new_aloud,red,64,138,53,1997.2255593,None,1997.2255593,None,1,1.6398036000000502,1997.2255593,None,1998.9011455,None,1999.4172068000003,None,1999.4172068000003,None,n,0.5521714000001339,1999.4172068000003,None,,,color14,001,2020_Mar_09_0849,ProdSingRedo,3.2.3,59.93734150322943,
,,,,65,0,65,0,,,,,,,,,,,,,,,,,,,,,,,,2008.7900401000002,None,,,,,,,,,,,,,,,,,dream,new_aloud,red,65,148,104,2000.5316914,None,2000.5316914,None,1,1.7575602000001709,2000.5316914,None,2002.3309745000001,None,2002.8457174999999,None,2002.8457174999999,None,f,5.916473600000245,2002.8457174999999,None,,,color14,001,2020_Mar_09_0849,ProdSingRedo,3.2.3,59.93734150322943,
,,,,66,0,66,0,,,,,,,,,,,,,,,,,,,,,,,,2014.6824532,None,,,,,,,,,,,,,,,,,budget,silent,blue,66,71,34,2009.3145197,None,2009.3145197,None,2,2.7907278000002407,2009.3145197,None,2012.1572563999998,None,2012.6791790000002,None,2012.6791790000002,None,f,1.978041200000007,2012.6791790000002,None,,,color14,001,2020_Mar_09_0849,ProdSingRedo,3.2.3,59.93734150322943,
,,,,67,0,67,0,,,,,,,,,,,,,,,,,,,,,,,,2018.0513953,None,,,,,,,,,,,,,,,,,problem,silent,blue,67,85,238,2015.1963826,None,2015.1963826,None,4,1.4767338000001473,2015.1963826,None,2016.7034302000002,None,2017.2160453000001,None,2017.2160453000001,None,f,0.8093109999999797,2017.2160453000001,None,,,color14,001,2020_Mar_09_0849,ProdSingRedo,3.2.3,59.93734150322943,
,,,,68,0,68,0,,,,,,,,,,,,,,,,,,,,,,,,2022.2680266000002,None,,,,,,,,,,,,,,,,,listen,silent,blue,68,78,172,2018.5661837000002,None,2018.5661837000002,None,6,2.786823899999945,2018.5661837000002,None,2021.3849684000002,None,2021.9106981,None,2021.9106981,None,r,0.3305190999999468,2021.9106981,None,,,color14,001,2020_Mar_09_0849,ProdSingRedo,3.2.3,59.93734150322943,
,,,,69,0,69,0,,,,,,,,,,,,,,,,,,,,,,,,2026.3850710000002,None,,,,,,,,,,,,,,,,,payment,aloud,red,69,40,215,2022.7955118,None,2022.7955118,None,5,2.317771300000004,2022.7955118,None,2025.1370754,None,2025.6660564,None,2025.6660564,None,f,0.6950802000001204,2025.6660564,None,,,color14,001,2020_Mar_09_0849,ProdSingRedo,3.2.3,59.93734150322943,
,,,,70,0,70,0,,,,,,,,,,,,,,,,,,,,,,,,2029.6240765000002,None,,,,,,,,,,,,,,,,,private,new_silent,blue,70,176,237,2026.9211648,None,2026.9211648,None,4,1.79216869999982,2026.9211648,None,2028.7491633,None,2029.2621453000002,None,2029.2621453000002,None,f,0.3232125999998061,2029.2621453000002,None,,,color14,001,2020_Mar_09_0849,ProdSingRedo,3.2.3,59.93734150322943,
,,,,71,0,71,0,,,,,,,,,,,,,,,,,,,,,,,,2032.6413994,None,,,,,,,,,,,,,,,,,collection,aloud,red,71,42,54,2030.155263,None,2030.155263,None,6,1.5498539000000164,2030.155263,None,2031.7547656000002,None,2032.2748307000002,None,2032.2748307000002,None,r,0.33450829999992493,2032.2748307000002,None,,,color14,001,2020_Mar_09_0849,ProdSingRedo,3.2.3,59.93734150322943,
,,,,72,0,72,0,,,,,,,,,,,,,,,,,,,,,,,,2036.1084455,None,,,,,,,,,,,,,,,,,dance,silent,blue,72,72,84,2033.1646712000002,None,2033.1646712000002,None,5,2.092572499999733,2033.1646712000002,None,2035.2939423000003,None,2035.8111792999998,None,2035.8111792999998,None,f,0.27022660000011456,2035.8111792999998,None,,,color14,001,2020_Mar_09_0849,ProdSingRedo,3.2.3,59.93734150322943,
,,,,73,0,73,0,,,,,,,,,,,,,,,,,,,,,,,,2039.5754170999999,None,,,,,,,,,,,,,,,,,career,silent,blue,73,88,42,2036.6275274999998,None,2036.6275274999998,None,1,1.741692300000068,2036.6275274999998,None,2038.4040642,None,2038.9160926999998,None,2038.9160926999998,None,n,0.6291905999996743,2038.9160926999998,None,,,color14,001,2020_Mar_09_0849,ProdSingRedo,3.2.3,59.93734150322943,
,,,,74,0,74,0,,,,,,,,,,,,,,,,,,,,,,,,2042.2263038,None,,,,,,,,,,,,,,,,,nation,silent,blue,74,86,198,2040.1008590000001,None,2040.1008590000001,None,1,1.276455100000021,2040.1008590000001,None,2041.4209996,None,2041.9468860000002,None,2041.9468860000002,None,n,0.2463689000001068,2041.9468860000002,None,,,color14,001,2020_Mar_09_0849,ProdSingRedo,3.2.3,59.93734150322943,
,,,,75,0,75,0,,,,,,,,,,,,,,,,,,,,,,,,2046.7953628,None,,,,,,,,,,,,,,,,,candidate,silent,blue,75,76,39,2042.7467971,None,2042.7467971,None,3,2.8942587000001367,2042.7467971,None,2045.6711799999998,None,2046.1969098999998,None,2046.1969098999998,None,f,0.5565558999996938,2046.1969098999998,None,,,color14,001,2020_Mar_09_0849,ProdSingRedo,3.2.3,59.93734150322943,
,,,,76,0,76,0,,,,,,,,,,,,,,,,,,,,,,,,2051.0593375,None,,,,,,,,,,,,,,,,,novel,new_silent,blue,76,173,202,2047.3179094000002,None,2047.3179094000002,None,1,2.6592419000003247,2047.3179094000002,None,2050.0226595,None,2050.5400143,None,2050.5400143,None,n,0.4853541000002224,2050.5400143,None,,,color14,001,2020_Mar_09_0849,ProdSingRedo,3.2.3,59.93734150322943,
,,,,77,0,77,0,,,,,,,,,,,,,,,,,,,,,,,,2053.8477696,None,,,,,,,,,,,,,,,,,atmosphere,new_silent,blue,77,153,12,2051.5841104,None,2051.5841104,None,1,1.2977099999998245,2051.5841104,None,2052.925216,None,2053.4339145,None,2053.4339145,None,n,0.37533369999982824,2053.4339145,None,,,color14,001,2020_Mar_09_0849,ProdSingRedo,3.2.3,59.93734150322943,
,,,,78,0,78,0,,,,,,,,,,,,,,,,,,,,,,,,2056.7256287,None,,,,,,,,,,,,,,,,,rough,new_aloud,red,78,130,266,2054.3684157000002,None,2054.3684157000002,None,1,1.2649130999998306,2054.3684157000002,None,2055.6628397,None,2056.1802852,None,2056.1802852,None,n,0.5091003000002274,2056.1802852,None,,,color14,001,2020_Mar_09_0849,ProdSingRedo,3.2.3,59.93734150322943,
,,,,79,0,79,0,,,,,,,,,,,,,,,,,,,,,,,,2060.8572064,None,,,,,,,,,,,,,,,,,error,new_aloud,red,79,145,117,2057.2471669,None,2057.2471669,None,1,2.650220200000149,2057.2471669,None,2059.9241397,None,2060.4371022,None,2060.4371022,None,n,0.388123799999903,2060.4371022,None,,,color14,001,2020_Mar_09_0849,ProdSingRedo,3.2.3,59.93734150322943,
,,,,80,0,80,0,,,,,,,,,,,,,,,,,,,,,,,,2068.3795909,None,,,,,,,,,,,,,,,,,range,silent,blue,80,87,251,2061.3802089,None,2061.3802089,None,5,6.276776100000006,2061.3802089,None,2067.687276,None,2068.2133971,None,2068.2133971,None,f,0.13197470000022804,2068.2133971,None,,,color14,001,2020_Mar_09_0849,ProdSingRedo,3.2.3,59.93734150322943,
,,,,81,0,81,0,,,,,,,,,,,,,,,,,,,,,,,,2071.7940306,None,,,,,,,,,,,,,,,,,rural,sing,yellow,81,28,269,2068.9081679,None,2068.9081679,None,6,1.5253136000001177,2068.9081679,None,2070.4797582,None,2070.9980331,None,2070.9980331,None,r,0.7713361000000987,2070.9980331,None,,,color14,001,2020_Mar_09_0849,ProdSingRedo,3.2.3,59.93734150322943,
,,,,82,0,82,0,,,,,,,,,,,,,,,,,,,,,,,,2076.0354371,None,,,,,,,,,,,,,,,,,graduate,sing,yellow,82,21,141,2072.3189834,None,2072.3189834,None,3,2.8665280000000166,2072.3189834,None,2075.2264319,None,2075.7447937,None,2075.7447937,None,n,0.2642417000001842,2075.7447937,None,,,color14,001,2020_Mar_09_0849,ProdSingRedo,3.2.3,59.93734150322943,
,,,,83,0,83,0,,,,,,,,,,,,,,,,,,,,,,,,2089.7784847,None,,,,,,,,,,,,,,,,,season,new_sing,yellow,83,100,277,2076.5531384,None,2076.5531384,None,3,10.976113299999724,2076.5531384,None,2087.5693647,None,2088.0749398,None,2088.0749398,None,f,1.6784735000001092,2088.0749398,None,,,color14,001,2020_Mar_09_0849,ProdSingRedo,3.2.3,59.93734150322943,
,,,,84,0,84,0,,,,,,,,,,,,,,,,,,,,,,,,2094.939966,None,,,,,,,,,,,,,,,,,quiet,new_silent,blue,84,158,249,2090.2983636,None,2090.2983636,None,2,3.4549799999999777,2090.2983636,None,2093.7837272,None,2094.2879814,None,2094.2879814,None,f,0.6332643999999163,2094.2879814,None,,,color14,001,2020_Mar_09_0849,ProdSingRedo,3.2.3,59.93734150322943,
,,,,85,0,85,0,,,,,,,,,,,,,,,,,,,,,,,,2098.4390495000002,None,,,,,,,,,,,,,,,,,minute,aloud,red,85,30,192,2095.4728069000003,None,2095.4728069000003,None,6,1.9843943999999283,2095.4728069000003,None,2097.499316,None,2098.0160858,None,2098.0160858,None,r,0.4011987999997473,2098.0160858,None,,,color14,001,2020_Mar_09_0849,ProdSingRedo,3.2.3,59.93734150322943,
,,,,86,0,86,0,,,,,,,,,,,,,,,,,,,,,,,,2107.1298216,None,,,,,,,,,,,,,,,,,guest,sing,yellow,86,22,146,2098.9650497000002,None,2098.9650497000002,None,4,7.100225300000147,2098.9650497000002,None,2106.1099712,None,2106.6327138,None,2106.6327138,None,f,0.4645090999997592,2106.6327138,None,,,color14,001,2020_Mar_09_0849,ProdSingRedo,3.2.3,59.93734150322943,
,,,,87,0,87,0,,,,,,,,,,,,,,,,,,,,,,,,2110.6301267,None,,,,,,,,,,,,,,,,,addition,new_silent,blue,87,171,2,2107.6551781,None,2107.6551781,None,1,1.482200599999942,2107.6551781,None,2109.1687008,None,2109.6762072,None,2109.6762072,None,n,0.9255404999998973,2109.6762072,None,,,color14,001,2020_Mar_09_0849,ProdSingRedo,3.2.3,59.93734150322943,
,,,,88,0,88,0,,,,,,,,,,,,,,,,,,,,,,,,2113.6917314,None,,,,,,,,,,,,,,,,,welcome,new_aloud,red,88,129,354,2111.1553589,None,2111.1553589,None,1,1.3099056000000928,2111.1553589,None,2112.5109096,None,2113.0284110000002,None,2113.0284110000002,None,n,0.6288856999999552,2113.0284110000002,None,,,color14,001,2020_Mar_09_0849,ProdSingRedo,3.2.3,59.93734150322943,
,,,,89,0,89,0,,,,,,,,,,,,,,,,,,,,,,,,2119.1973831,None,,,,,,,,,,,,,,,,,point,silent,blue,89,62,226,2114.2184309,None,2114.2184309,None,1,4.08686200000011,2114.2184309,None,2118.3371331,None,2118.847114,None,2118.847114,None,n,0.32242509999969116,2118.847114,None,,,color14,001,2020_Mar_09_0849,ProdSingRedo,3.2.3,59.93734150322943,
,,,,90,0,90,0,,,,,,,,,,,,,,,,,,,,,,,,2124.5642206,None,,,,,,,,,,,,,,,,,subject,new_sing,yellow,90,112,312,2119.7275268,None,2119.7275268,None,1,2.5937119999998686,2119.7275268,None,2122.3591827,None,2122.8863383,None,2122.8863383,None,n,1.6429144999997334,2122.8863383,None,,,color14,001,2020_Mar_09_0849,ProdSingRedo,3.2.3,59.93734150322943,
,,,,91,0,91,0,,,,,,,,,,,,,,,,,,,,,,,,2127.3970958,None,,,,,,,,,,,,,,,,,generation,new_silent,blue,91,164,136,2125.0898745,None,2125.0898745,None,1,1.327170600000045,2125.0898745,None,2126.4514871,None,2126.9698599,None,2126.9698599,None,n,0.39136950000010984,2126.9698599,None,,,color14,001,2020_Mar_09_0849,ProdSingRedo,3.2.3,59.93734150322943,
,,,,92,0,92,0,,,,,,,,,,,,,,,,,,,,,,,,2129.9400058,None,,,,,,,,,,,,,,,,,industry,new_aloud,red,92,141,161,2127.9181576,None,2127.9181576,None,1,1.1787994999999682,2127.9181576,None,2129.1273315,None,2129.6554318,None,2129.6554318,None,n,0.2656859000003351,2129.6554318,None,,,color14,001,2020_Mar_09_0849,ProdSingRedo,3.2.3,59.93734150322943,
,,,,93,0,93,0,,,,,,,,,,,,,,,,,,,,,,,,2134.3257037,None,,,,,,,,,,,,,,,,,piece,silent,blue,93,60,221,2130.4568067,None,2130.4568067,None,5,2.94426250000015,2130.4568067,None,2133.4333669000002,None,2133.9417266,None,2133.9417266,None,f,0.355402199999844,2133.9417266,None,,,color14,001,2020_Mar_09_0849,ProdSingRedo,3.2.3,59.93734150322943,
,,,,94,0,94,0,,,,,,,,,,,,,,,,,,,,,,,,2136.8780246,None,,,,,,,,,,,,,,,,,capital,new_silent,blue,94,160,40,2134.8517564,None,2134.8517564,None,1,1.2776637000001756,2134.8517564,None,2136.1701997,None,2136.6883551,None,2136.6883551,None,n,0.16884840000011536,2136.6883551,None,,,color14,001,2020_Mar_09_0849,ProdSingRedo,3.2.3,59.93734150322943,
,,,,95,0,95,0,,,,,,,,,,,,,,,,,,,,,,,,2139.6427832,None,,,,,,,,,,,,,,,,,mayor,sing,yellow,95,20,183,2137.3957074,None,2137.3957074,None,6,1.4137054999996508,2137.3957074,None,2138.8598469,None,2139.3878290000002,None,2139.3878290000002,None,r,0.22937659999979587,2139.3878290000002,None,,,color14,001,2020_Mar_09_0849,ProdSingRedo,3.2.3,59.93734150322943,
,,,,96,0,96,0,,,,,,,,,,,,,,,,,,,,,,,,2144.0321982,None,,,,,,,,,,,,,,,,,notice,new_aloud,red,96,128,201,2140.157994,None,2140.157994,None,4,3.003292800000054,2140.157994,None,2143.2059636,None,2143.7151251,None,2143.7151251,None,r,0.28616539999984525,2143.7151251,None,,,color14,001,2020_Mar_09_0849,ProdSingRedo,3.2.3,59.93734150322943,
,,,,97,0,97,0,,,,,,,,,,,,,,,,,,,,,,,,2146.9657609,None,,,,,,,,,,,,,,,,,style,new_silent,blue,97,162,311,2144.5553288,None,2144.5553288,None,1,1.7979261000000406,2144.5553288,None,2146.3918317000002,None,2146.918842,None,2146.918842,None,n,0.010348900000280992,2146.918842,None,,,color14,001,2020_Mar_09_0849,ProdSingRedo,3.2.3,59.93734150322943,
,,,,98,0,98,0,,,,,,,,,,,,,,,,,,,,,,,,2149.4579663,None,,,,,,,,,,,,,,,,,ground,aloud,red,98,56,142,2147.4916590000003,None,2147.4916590000003,None,1,1.2536242999999558,2147.4916590000003,None,2148.7986158,None,2149.3207112,None,2149.3207112,None,n,0.10444740000002639,2149.3207112,None,,,color14,001,2020_Mar_09_0849,ProdSingRedo,3.2.3,59.93734150322943,
,,,,99,0,99,0,,,,,,,,,,,,,,,,,,,,,,,,2155.2099325,None,,,,,,,,,,,,,,,,,fashion,sing,yellow,99,2,125,2149.968569,None,2149.968569,None,6,4.024509100000159,2149.968569,None,2154.0407639,None,2154.5534825,None,2154.5534825,None,r,0.6237321000003249,2154.5534825,None,,,color14,001,2020_Mar_09_0849,ProdSingRedo,3.2.3,59.93734150322943,
,,,,100,0,100,0,,,,,,,,,,,,,,,,,,,,,,,,2164.5661912,None,,,,,,,,,,,,,,,,,report,new_silent,blue,100,169,259,2155.7386669,None,2155.7386669,None,4,6.390591499999573,2155.7386669,None,2162.1780881,None,2162.6990765,None,2162.6990765,None,n,1.830214700000397,2162.6990765,None,,,color14,001,2020_Mar_09_0849,ProdSingRedo,3.2.3,59.93734150322943,
,,,,101,0,101,0,,,,,,,,,,,,,,,,,,,,,,,,2171.4674484,None,,,,,,,,,,,,,,,,,union,aloud,red,101,43,344,2165.0840768,None,2165.0840768,None,5,5.069253099999969,2165.0840768,None,2170.1982975,None,2170.7190966,None,2170.7190966,None,r,0.7221518000001197,2170.7190966,None,,,color14,001,2020_Mar_09_0849,ProdSingRedo,3.2.3,59.93734150322943,
,,,,102,0,102,0,,,,,,,,,,,,,,,,,,,,,,,,2173.7668779,None,,,,,,,,,,,,,,,,,shear,new_silent,blue,102,152,283,2171.9842421,None,2171.9842421,None,1,1.0807042999999794,2171.9842421,None,2173.0977145,None,2173.6206463,None,2173.6206463,None,n,0.10860539999976027,2173.6206463,None,,,color14,001,2020_Mar_09_0849,ProdSingRedo,3.2.3,59.93734150322943,
,,,,103,0,103,0,,,,,,,,,,,,,,,,,,,,,,,,2180.3672621,None,,,,,,,,,,,,,,,,,portion,sing,yellow,103,12,228,2174.2903991,None,2174.2903991,None,6,5.199274200000218,2174.2903991,None,2179.5288808,None,2180.0471476000002,None,2180.0471476000002,None,r,0.28208230000018375,2180.0471476000002,None,,,color14,001,2020_Mar_09_0849,ProdSingRedo,3.2.3,59.93734150322943,
,,,,104,0,104,0,,,,,,,,,,,,,,,,,,,,,,,,2183.3105095,None,,,,,,,,,,,,,,,,,material,new_aloud,red,104,147,182,2180.8992423,None,2180.8992423,None,1,1.8140770999998495,2180.8992423,None,2182.7604703,None,2183.2675096,None,2183.2675096,None,n,0.021571700000095007,2183.2675096,None,,,color14,001,2020_Mar_09_0849,ProdSingRedo,3.2.3,59.93734150322943,
,,,,105,0,105,0,,,,,,,,,,,,,,,,,,,,,,,,2185.4775041,None,,,,,,,,,,,,,,,,,council,aloud,red,105,50,71,2183.8454948,None,2183.8454948,None,1,1.0276035000001684,2183.8454948,None,2184.9025463,None,2185.4221248,None,2185.4221248,None,n,0.03510749999986729,2185.4221248,None,,,color14,001,2020_Mar_09_0849,ProdSingRedo,3.2.3,59.93734150322943,
,,,,106,0,106,0,,,,,,,,,,,,,,,,,,,,,,,,2188.7447914,None,,,,,,,,,,,,,,,,,afternoon,new_silent,blue,106,172,3,2186.0132253,None,2186.0132253,None,1,1.0442628000000695,2186.0132253,None,2187.0966613,None,2187.6153692000003,None,2187.6153692000003,None,n,1.0976683999997476,2187.6153692000003,None,,,color14,001,2020_Mar_09_0849,ProdSingRedo,3.2.3,59.93734150322943,
,,,,107,0,107,0,,,,,,,,,,,,,,,,,,,,,,,,2192.0354274,None,,,,,,,,,,,,,,,,,question,aloud,red,107,34,247,2189.2715198,None,2189.2715198,None,4,1.9136147000003803,2189.2715198,None,2191.2338022,None,2191.7458592,None,2191.7458592,None,f,0.26326739999967685,2191.7458592,None,,,color14,001,2020_Mar_09_0849,ProdSingRedo,3.2.3,59.93734150322943,
,,,,108,0,108,0,,,,,,,,,,,,,,,,,,,,,,,,2195.0189419,None,,,,,,,,,,,,,,,,,light,aloud,red,108,33,171,2192.5577018,None,2192.5577018,None,6,1.6837150000001202,2192.5577018,None,2194.2836842,None,2194.7939418,None,2194.7939418,None,r,0.19118350000007922,2194.7939418,None,,,color14,001,2020_Mar_09_0849,ProdSingRedo,3.2.3,59.93734150322943,
,,,,109,0,109,0,,,,,,,,,,,,,,,,,,,,,,,,2202.4687585,None,,,,,,,,,,,,,,,,,shape,aloud,red,109,55,282,2195.5373426,None,2195.5373426,None,3,5.487847899999906,2195.5373426,None,2201.0567438,None,2201.5601212,None,2201.5601212,None,f,0.8730821000003743,2201.5601212,None,,,color14,001,2020_Mar_09_0849,ProdSingRedo,3.2.3,59.93734150322943,
,,,,110,0,110,0,,,,,,,,,,,,,,,,,,,,,,,,2206.3864957,None,,,,,,,,,,,,,,,,,message,sing,yellow,110,1,189,2202.9959854,None,2202.9959854,None,4,2.3971396000001732,2202.9959854,None,2205.4341415,None,2205.9566293000003,None,2205.9566293000003,None,f,0.4046456000000944,2205.9566293000003,None,,,color14,001,2020_Mar_09_0849,ProdSingRedo,3.2.3,59.93734150322943,
,,,,111,0,111,0,,,,,,,,,,,,,,,,,,,,,,,,2209.2375663000003,None,,,,,,,,,,,,,,,,,discovery,sing,yellow,111,17,95,2206.9066962,None,2206.9066962,None,5,1.3984706999999617,2206.9066962,None,2208.3544388,None,2208.8766224,None,2208.8766224,None,f,0.3328193000002102,2208.8766224,None,,,color14,001,2020_Mar_09_0849,ProdSingRedo,3.2.3,59.93734150322943,
,,,,112,0,112,0,,,,,,,,,,,,,,,,,,,,,,,,2211.6037093,None,,,,,,,,,,,,,,,,,substance,new_sing,yellow,112,111,313,2209.7577759,None,2209.7577759,None,1,0.9953408000001218,2209.7577759,None,2210.7995075,None,2211.3185856,None,2211.3185856,None,n,0.25878960000000006,2211.3185856,None,,,color14,001,2020_Mar_09_0849,ProdSingRedo,3.2.3,59.93734150322943,
,,,,113,0,113,0,,,,,,,,,,,,,,,,,,,,,,,,2213.9369026,None,,,,,,,,,,,,,,,,,personnel,new_sing,yellow,113,113,219,2212.1260312,None,2212.1260312,None,1,0.9630936000003203,2212.1260312,None,2213.1318554,None,2213.6521745,None,2213.6521745,None,n,0.25295409999989715,2213.6521745,None,,,color14,001,2020_Mar_09_0849,ProdSingRedo,3.2.3,59.93734150322943,
,,,,114,0,114,0,,,,,,,,,,,,,,,,,,,,,,,,2216.1989186,None,,,,,,,,,,,,,,,,,guard,new_aloud,red,114,131,145,2214.4584671000002,None,2214.4584671000002,None,1,1.0306966999996803,2214.4584671000002,None,2215.5316495,None,2216.051124,None,2216.051124,None,n,0.1260019999999713,2216.051124,None,,,color14,001,2020_Mar_09_0849,ProdSingRedo,3.2.3,59.93734150322943,
,,,,115,0,115,0,,,,,,,,,,,,,,,,,,,,,,,,2220.3476304,None,,,,,,,,,,,,,,,,,music,new_sing,yellow,115,119,196,2216.7292047,None,2216.7292047,None,1,0.9919089999998505,2216.7292047,None,2217.7686015,None,2218.2899076,None,2218.2899076,None,n,2.039121300000261,2218.2899076,None,,,color14,001,2020_Mar_09_0849,ProdSingRedo,3.2.3,59.93734150322943,
,,,,116,0,116,0,,,,,,,,,,,,,,,,,,,,,,,,2223.5187502,None,,,,,,,,,,,,,,,,,appeal,new_silent,blue,116,159,9,2220.8826581,None,2220.8826581,None,2,1.6948738000000958,2220.8826581,None,2222.6162374,None,2223.1366753,None,2223.1366753,None,n,0.3604552000001604,2223.1366753,None,,,color14,001,2020_Mar_09_0849,ProdSingRedo,3.2.3,59.93734150322943,
,,,,117,0,117,0,,,,,,,,,,,,,,,,,,,,,,,,2227.2736402,None,,,,,,,,,,,,,,,,,sound,sing,yellow,117,11,295,2224.0380952,None,2224.0380952,None,5,2.458731600000192,2224.0380952,None,2226.5324274,None,2227.0455211,None,2227.0455211,None,f,0.19566200000008394,2227.0455211,None,,,color14,001,2020_Mar_09_0849,ProdSingRedo,3.2.3,59.93734150322943,
,,,,118,0,118,0,,,,,,,,,,,,,,,,,,,,,,,,2229.4537037,None,,,,,,,,,,,,,,,,,pancakes,new_aloud,red,118,134,210,2227.796492,None,2227.796492,None,1,1.0287235000000692,2227.796492,None,2228.8519879,None,2229.3704078,None,2229.3704078,None,n,0.04681080000000293,2229.3704078,None,,,color14,001,2020_Mar_09_0849,ProdSingRedo,3.2.3,59.93734150322943,
,,,,119,0,119,0,,,,,,,,,,,,,,,,,,,,,,,,2231.6549149,None,,,,,,,,,,,,,,,,,salary,new_sing,yellow,119,106,271,2229.9899364,None,2229.9899364,None,1,0.9872212999998737,2229.9899364,None,2231.0120153000003,None,2231.5305304,None,2231.5305304,None,n,0.09456930000033026,2231.5305304,None,,,color14,001,2020_Mar_09_0849,ProdSingRedo,3.2.3,59.93734150322943,
,,,,120,0,120,0,,,,,,,,,,,,,,,,,,,,,,,,2234.3048575000003,None,,,,,,,,,,,,,,,,,block,new_sing,yellow,120,114,25,2232.1813700000002,None,2232.1813700000002,None,1,0.9315928999999414,2232.1813700000002,None,2233.1367601,None,2233.6590271,None,2233.6590271,None,n,0.6140329999998357,2233.6590271,None,,,color14,001,2020_Mar_09_0849,ProdSingRedo,3.2.3,59.93734150322943,
,,,,121,0,121,0,,,,,,,,,,,,,,,,,,,,,,,,2236.697705,None,,,,,,,,,,,,,,,,,vision,new_sing,yellow,121,92,347,2234.8268866,None,2234.8268866,None,1,0.9502317999999832,2234.8268866,None,2235.8050226,None,2236.322997,None,2236.322997,None,n,0.34199619999981223,2236.322997,None,,,color14,001,2020_Mar_09_0849,ProdSingRedo,3.2.3,59.93734150322943,
,,,,122,0,122,0,,,,,,,,,,,,,,,,,,,,,,,,2239.3646599,None,,,,,,,,,,,,,,,,,rapid,new_aloud,red,122,120,252,2237.2312093,None,2237.2312093,None,1,1.24982910000017,2237.2312093,None,2238.5162256,None,2239.0421574,None,2239.0421574,None,n,0.30298899999979767,2239.0421574,None,,,color14,001,2020_Mar_09_0849,ProdSingRedo,3.2.3,59.93734150322943,
,,,,123,0,123,0,,,,,,,,,,,,,,,,,,,,,,,,2242.5326078,None,,,,,,,,,,,,,,,,,comfort,new_aloud,red,123,135,59,2239.8974002,None,2239.8974002,None,1,1.783684600000015,2239.8974002,None,2241.7097172,None,2242.2288579,None,2242.2288579,None,n,0.2841678999998294,2242.2288579,None,,,color14,001,2020_Mar_09_0849,ProdSingRedo,3.2.3,59.93734150322943,
,,,,124,0,124,0,,,,,,,,,,,,,,,,,,,,,,,,2245.1886926,None,,,,,,,,,,,,,,,,,reading,new_aloud,red,124,125,254,2243.0575341,None,2243.0575341,None,1,1.2233870999998544,2243.0575341,None,2244.3177907,None,2244.8397891,None,2244.8397891,None,n,0.31316289999995206,2244.8397891,None,,,color14,001,2020_Mar_09_0849,ProdSingRedo,3.2.3,59.93734150322943,
,,,,125,0,125,0,,,,,,,,,,,,,,,,,,,,,,,,2250.9315578,None,,,,,,,,,,,,,,,,,pressure,sing,yellow,125,18,232,2245.7158567,None,2245.7158567,None,3,4.605186700000104,2245.7158567,None,2250.3675995,None,2250.8947946,None,2250.8947946,None,f,0.018216700000266428,2250.8947946,None,,,color14,001,2020_Mar_09_0849,ProdSingRedo,3.2.3,59.93734150322943,
,,,,126,0,126,0,,,,,,,,,,,,,,,,,,,,,,,,2254.2058776,None,,,,,,,,,,,,,,,,,finish,new_silent,blue,126,170,130,2251.4446221,None,2251.4446221,None,1,1.964512200000172,2251.4446221,None,2253.4519647,None,2253.9701847,None,2253.9701847,None,n,0.1989957000000686,2253.9701847,None,,,color14,001,2020_Mar_09_0849,ProdSingRedo,3.2.3,59.93734150322943,
,,,,127,0,127,0,,,,,,,,,,,,,,,,,,,,,,,,2257.9898263,None,,,,,,,,,,,,,,,,,session,new_sing,yellow,127,103,281,2254.7278475,None,2254.7278475,None,1,2.649185099999613,2254.7278475,None,2257.414387,None,2257.9231086,None,2257.9231086,None,n,0.02993239999977959,2257.9231086,None,,,color14,001,2020_Mar_09_0849,ProdSingRedo,3.2.3,59.93734150322943,
,,,,128,0,128,0,,,,,,,,,,,,,,,,,,,,,,,,2260.8901823,None,,,,,,,,,,,,,,,,,majority,silent,blue,128,81,176,2258.5100741,None,2258.5100741,None,6,1.6188397000000805,2258.5100741,None,2260.1547676,None,2260.6812594,None,2260.6812594,None,r,0.17591330000004746,2260.6812594,None,,,color14,001,2020_Mar_09_0849,ProdSingRedo,3.2.3,59.93734150322943,
,,,,129,0,129,0,,,,,,,,,,,,,,,,,,,,,,,,2266.7738193,None,,,,,,,,,,,,,,,,,display,new_aloud,red,129,139,98,2261.4247681,None,2261.4247681,None,1,3.0722020000002885,2261.4247681,None,2264.5219534000003,None,2265.0382568,None,2265.0382568,None,f,1.70735969999987,2265.0382568,None,,,color14,001,2020_Mar_09_0849,ProdSingRedo,3.2.3,59.93734150322943,
,,,,130,0,130,0,,,,,,,,,,,,,,,,,,,,,,,,2270.0186582,None,,,,,,,,,,,,,,,,,author,aloud,red,130,38,15,2267.2928956,None,2267.2928956,None,6,1.748181299999942,2267.2928956,None,2269.0858242,None,2269.6012222,None,2269.6012222,None,r,0.3838826999999583,2269.6012222,None,,,color14,001,2020_Mar_09_0849,ProdSingRedo,3.2.3,59.93734150322943,
,,,,131,0,131,0,,,,,,,,,,,,,,,,,,,,,,,,2273.2162266,None,,,,,,,,,,,,,,,,,second,aloud,red,131,36,278,2270.5457911,None,2270.5457911,None,4,1.8633239999999205,2270.5457911,None,2272.447561,None,2272.9573631,None,2272.9573631,None,f,0.23570480000034877,2272.9573631,None,,,color14,001,2020_Mar_09_0849,ProdSingRedo,3.2.3,59.93734150322943,
,,,,132,0,132,0,,,,,,,,,,,,,,,,,,,,,,,,2275.4410053,None,,,,,,,,,,,,,,,,,hunger,silent,blue,132,77,155,2273.733395,None,2273.733395,None,1,0.9719253999996909,2273.733395,None,2274.7559231,None,2275.2686455,None,2275.2686455,None,n,0.14844059999995807,2275.2686455,None,,,color14,001,2020_Mar_09_0849,ProdSingRedo,3.2.3,59.93734150322943,
,,,,133,0,133,0,,,,,,,,,,,,,,,,,,,,,,,,2277.6544997,None,,,,,,,,,,,,,,,,,travel,silent,blue,133,67,338,2275.9691328,None,2275.9691328,None,1,1.0878195000000233,2275.9691328,None,2277.0957672,None,2277.604399,None,2277.604399,None,n,0.01254689999996117,2277.604399,None,,,color14,001,2020_Mar_09_0849,ProdSingRedo,3.2.3,59.93734150322943,
,,,,134,0,134,0,,,,,,,,,,,,,,,,,,,,,,,,2279.9410465,None,,,,,,,,,,,,,,,,,master,silent,blue,134,70,180,2278.1853908,None,2278.1853908,None,1,0.8396423999997751,2278.1853908,None,2279.063354,None,2279.5781754,None,2279.5781754,None,n,0.3354765999997653,2279.5781754,None,,,color14,001,2020_Mar_09_0849,ProdSingRedo,3.2.3,59.93734150322943,
,,,,135,0,135,0,,,,,,,,,,,,,,,,,,,,,,,,2282.9580861,None,,,,,,,,,,,,,,,,,course,new_aloud,red,135,122,74,2280.4696435,None,2280.4696435,None,4,1.6276395999998385,2280.4696435,None,2282.1427036,None,2282.6628127,None,2282.6628127,None,f,0.26624519999995755,2282.6628127,None,,,color14,001,2020_Mar_09_0849,ProdSingRedo,3.2.3,59.93734150322943,
,,,,136,0,136,0,,,,,,,,,,,,,,,,,,,,,,,,2285.6191472,None,,,,,,,,,,,,,,,,,device,aloud,red,136,59,93,2283.4825551,None,2283.4825551,None,6,1.2865529000000606,2283.4825551,None,2284.8231962,None,2285.3349001,None,2285.3349001,None,r,0.25821659999974145,2285.3349001,None,,,color14,001,2020_Mar_09_0849,ProdSingRedo,3.2.3,59.93734150322943,
,,,,137,0,137,0,,,,,,,,,,,,,,,,,,,,,,,,2287.9338835,None,,,,,,,,,,,,,,,,,bright,new_sing,yellow,137,108,29,2286.1528995,None,2286.1528995,None,1,0.8803697000003012,2286.1528995,None,2287.0759776,None,2287.5966538000002,None,2287.5966538000002,None,n,0.3084689000002072,2287.5966538000002,None,,,color14,001,2020_Mar_09_0849,ProdSingRedo,3.2.3,59.93734150322943,
,,,,138,0,138,0,,,,,,,,,,,,,,,,,,,,,,,,2291.0752805,None,,,,,,,,,,,,,,,,,surface,new_aloud,red,138,124,316,2288.4545941,None,2288.4545941,None,1,1.6261844000000565,2288.4545941,None,2290.1014221,None,2290.6160484,None,2290.6160484,None,n,0.4249993000003087,2290.6160484,None,,,color14,001,2020_Mar_09_0849,ProdSingRedo,3.2.3,59.93734150322943,
,,,,139,0,139,0,,,,,,,,,,,,,,,,,,,,,,,,2293.8589531000002,None,,,,,,,,,,,,,,,,,discussion,new_sing,yellow,139,101,96,2291.6026897,None,2291.6026897,None,5,1.4381830999996055,2291.6026897,None,2293.0810374000002,None,2293.5826859,None,2293.5826859,None,f,0.24237140000013824,2293.5826859,None,,,color14,001,2020_Mar_09_0849,ProdSingRedo,3.2.3,59.93734150322943,
,,,,140,0,140,0,,,,,,,,,,,,,,,,,,,,,,,,2296.0887811000002,None,,,,,,,,,,,,,,,,,search,new_sing,yellow,140,96,276,2294.3854703,None,2294.3854703,None,1,0.8960446000000957,2294.3854703,None,2295.3257528,None,2295.8450789,None,2295.8450789,None,n,0.21194820000027903,2295.8450789,None,,,color14,001,2020_Mar_09_0849,ProdSingRedo,3.2.3,59.93734150322943,
,,,,141,0,141,0,,,,,,,,,,,,,,,,,,,,,,,,2298.6759614000002,None,,,,,,,,,,,,,,,,,beginning,sing,yellow,141,23,19,2296.6093579,None,2296.6093579,None,6,1.2957744000000275,2296.6093579,None,2297.9468158,None,2298.4659964,None,2298.4659964,None,r,0.18323570000029576,2298.4659964,None,,,color14,001,2020_Mar_09_0849,ProdSingRedo,3.2.3,59.93734150322943,
,,,,142,0,142,0,,,,,,,,,,,,,,,,,,,,,,,,2300.919664,None,,,,,,,,,,,,,,,,,bucket,new_aloud,red,142,144,33,2299.2052954,None,2299.2052954,None,1,0.9958769999998367,2299.2052954,None,2300.2447505,None,2300.763806,None,2300.763806,None,n,0.125295300000289,2300.763806,None,,,color14,001,2020_Mar_09_0849,ProdSingRedo,3.2.3,59.93734150322943,
,,,,143,0,143,0,,,,,,,,,,,,,,,,,,,,,,,,2303.4034596,None,,,,,,,,,,,,,,,,,position,new_silent,blue,143,178,229,2301.4499455,None,2301.4499455,None,5,1.2789624000001822,2301.4499455,None,2302.7610238,None,2303.2770997000002,None,2303.2770997000002,None,f,0.10786779999989449,2303.2770997000002,None,,,color14,001,2020_Mar_09_0849,ProdSingRedo,3.2.3,59.93734150322943,
,,,,144,0,144,0,,,,,,,,,,,,,,,,,,,,,,,,2306.0096521,None,,,,,,,,,,,,,,,,,color,silent,blue,144,66,56,2303.9252753,None,2303.9252753,None,4,1.219835200000034,2303.9252753,None,2305.1859603,None,2305.6997681000003,None,2305.6997681000003,None,f,0.27736640000011903,2305.6997681000003,None,,,color14,001,2020_Mar_09_0849,ProdSingRedo,3.2.3,59.93734150322943,
,,,,145,0,145,0,,,,,,,,,,,,,,,,,,,,,,,,2308.5858688,None,,,,,,,,,,,,,,,,,plane,aloud,red,145,49,223,2306.5369268,None,2306.5369268,None,6,1.3040356999999858,2306.5369268,None,2307.8924738,None,2308.4124264,None,2308.4124264,None,r,0.14076569999997446,2308.4124264,None,,,color14,001,2020_Mar_09_0849,ProdSingRedo,3.2.3,59.93734150322943,
,,,,146,0,146,0,,,,,,,,,,,,,,,,,,,,,,,,2310.8432906,None,,,,,,,,,,,,,,,,,heavy,new_silent,blue,146,166,151,2309.1032807,None,2309.1032807,None,1,1.0256272999999965,2309.1032807,None,2310.1609152,None,2310.6708298,None,2310.6708298,None,n,0.1464677999997548,2310.6708298,None,,,color14,001,2020_Mar_09_0849,ProdSingRedo,3.2.3,59.93734150322943,
,,,,147,0,147,0,,,,,,,,,,,,,,,,,,,,,,,,2316.2269619,None,,,,,,,,,,,,,,,,,title,new_aloud,red,147,140,331,2311.3612793,None,2311.3612793,None,1,4.111861800000042,2311.3612793,None,2315.5215992,None,2316.0376818,None,2316.0376818,None,n,0.15534630000001926,2316.0376818,None,,,color14,001,2020_Mar_09_0849,ProdSingRedo,3.2.3,59.93734150322943,
,,,,148,0,148,0,,,,,,,,,,,,,,,,,,,,,,,,2322.7581942,None,,,,,,,,,,,,,,,,,clean,aloud,red,148,39,51,2316.7558231,None,2316.7558231,None,4,5.101296199999979,2316.7558231,None,2321.9081264,None,2322.4303606,None,2322.4303606,None,f,0.2986703999999918,2322.4303606,None,,,color14,001,2020_Mar_09_0849,ProdSingRedo,3.2.3,59.93734150322943,
,,,,149,0,149,0,,,,,,,,,,,,,,,,,,,,,,,,2325.3066902,None,,,,,,,,,,,,,,,,,smooth,new_sing,yellow,149,117,292,2323.2816951,None,2323.2816951,None,1,1.1914788999997654,2323.2816951,None,2324.5123687,None,2325.0276249,None,2325.0276249,None,n,0.2455009999998765,2325.0276249,None,,,color14,001,2020_Mar_09_0849,ProdSingRedo,3.2.3,59.93734150322943,
,,,,150,0,150,0,,,,,,,,,,,,,,,,,,,,,,,,2328.6198941000002,None,,,,,,,,,,,,,,,,,finance,sing,yellow,150,26,129,2325.8296644,None,2325.8296644,None,6,1.8833700999998655,2325.8296644,None,2327.7489426,None,2328.2683925,None,2328.2683925,None,r,0.3245947000000342,2328.2683925,None,,,color14,001,2020_Mar_09_0849,ProdSingRedo,3.2.3,59.93734150322943,
,,,,151,0,151,0,,,,,,,,,,,,,,,,,,,,,,,,2331.2606779000002,None,,,,,,,,,,,,,,,,,chief,sing,yellow,151,25,48,2329.1284503,None,2329.1284503,None,6,1.3286145000001852,2329.1284503,None,2330.506726,None,2331.0299469,None,2331.0299469,None,r,0.1951560000002246,2331.0299469,None,,,color14,001,2020_Mar_09_0849,ProdSingRedo,3.2.3,59.93734150322943,
,,,,152,0,152,0,,,,,,,,,,,,,,,,,,,,,,,,2333.7091,None,,,,,,,,,,,,,,,,,cousin,new_silent,blue,152,151,76,2331.7844817,None,2331.7844817,None,1,1.2403106000001571,2331.7844817,None,2333.0655866,None,2333.5791999,None,2333.5791999,None,n,0.10191359999998895,2333.5791999,None,,,color14,001,2020_Mar_09_0849,ProdSingRedo,3.2.3,59.93734150322943,
,,,,153,0,153,0,,,,,,,,,,,,,,,,,,,,,,,,2336.4284416,None,,,,,,,,,,,,,,,,,charter,new_silent,blue,153,177,47,2334.2308517,None,2334.2308517,None,1,1.3223776999998336,2334.2308517,None,2335.5949722,None,2336.1097483,None,2336.1097483,None,n,0.291525300000103,2336.1097483,None,,,color14,001,2020_Mar_09_0849,ProdSingRedo,3.2.3,59.93734150322943,
,,,,154,0,154,0,,,,,,,,,,,,,,,,,,,,,,,,2340.7792668,None,,,,,,,,,,,,,,,,,member,new_sing,yellow,154,98,188,2336.9539764,None,2336.9539764,None,4,3.143014899999798,2336.9539764,None,2340.1444805,None,2340.6537404,None,2340.6537404,None,f,0.09942420000015773,2340.6537404,None,,,color14,001,2020_Mar_09_0849,ProdSingRedo,3.2.3,59.93734150322943,
,,,,155,0,155,0,,,,,,,,,,,,,,,,,,,,,,,,2343.1026668,None,,,,,,,,,,,,,,,,,taste,sing,yellow,155,14,322,2341.3053625000002,None,2341.3053625000002,None,1,1.1836414999997942,2341.3053625000002,None,2342.5437999,None,2343.0536697000002,None,2343.0536697000002,None,n,0.019199200000002747,2343.0536697000002,None,,,color14,001,2020_Mar_09_0849,ProdSingRedo,3.2.3,59.93734150322943,
,,,,156,0,156,0,,,,,,,,,,,,,,,,,,,,,,,,2345.8284267,None,,,,,,,,,,,,,,,,,pretty,sing,yellow,156,0,233,2343.6145982,None,2343.6145982,None,1,0.9705738999996356,2343.6145982,None,2344.6160541,None,2345.1315283,None,2345.1315283,None,n,0.6615495999999439,2345.1315283,None,,,color14,001,2020_Mar_09_0849,ProdSingRedo,3.2.3,59.93734150322943,
,,,,157,0,157,0,,,,,,,,,,,,,,,,,,,,,,,,2350.8131666,None,,,,,,,,,,,,,,,,,broad,aloud,red,157,41,31,2346.3495929,None,2346.3495929,None,4,3.7314617000001817,2346.3495929,None,2350.1284082,None,2350.6513857,None,2350.6513857,None,f,0.12576579999995374,2350.6513857,None,,,color14,001,2020_Mar_09_0849,ProdSingRedo,3.2.3,59.93734150322943,
,,,,158,0,158,0,,,,,,,,,,,,,,,,,,,,,,,,2353.0454199,None,,,,,,,,,,,,,,,,,split,new_sing,yellow,158,94,299,2351.3343455,None,2351.3343455,None,1,0.9226370999999745,2351.3343455,None,2352.3039551,None,2352.8129227,None,2352.8129227,None,n,0.1962029999999686,2352.8129227,None,,,color14,001,2020_Mar_09_0849,ProdSingRedo,3.2.3,59.93734150322943,
,,,,159,0,159,0,,,,,,,,,,,,,,,,,,,,,,,,2355.3796494,None,,,,,,,,,,,,,,,,,estate,silent,blue,159,63,119,2353.5742105,None,2353.5742105,None,1,1.0273951999997735,2353.5742105,None,2354.644713,None,2355.1620819,None,2355.1620819,None,n,0.1829023000000234,2355.1620819,None,,,color14,001,2020_Mar_09_0849,ProdSingRedo,3.2.3,59.93734150322943,
,,,,160,0,160,0,,,,,,,,,,,,,,,,,,,,,,,,2358.0964526000002,None,,,,,,,,,,,,,,,,,produce,silent,blue,160,83,239,2355.9042066,None,2355.9042066,None,5,1.1208411000002343,2355.9042066,None,2357.0679878,None,2357.583054,None,2357.583054,None,f,0.48198249999995824,2357.583054,None,,,color14,001,2020_Mar_09_0849,ProdSingRedo,3.2.3,59.93734150322943,
,,,,161,0,161,0,,,,,,,,,,,,,,,,,,,,,,,,2360.3708189,None,,,,,,,,,,,,,,,,,bitter,silent,blue,161,73,23,2358.6152025,None,2358.6152025,None,1,0.8656728999999359,2358.6152025,None,2359.5070633,None,2360.0208754,None,2360.0208754,None,n,0.3321334000002025,2360.0208754,None,,,color14,001,2020_Mar_09_0849,ProdSingRedo,3.2.3,59.93734150322943,
,,,,162,0,162,0,,,,,,,,,,,,,,,,,,,,,,,,2362.9803234,None,,,,,,,,,,,,,,,,,interior,sing,yellow,162,6,164,2360.8852838000003,None,2360.8852838000003,None,6,1.235819999999876,2360.8852838000003,None,2362.1591792,None,2362.6809786,None,2362.6809786,None,r,0.26399609999998574,2362.6809786,None,,,color14,001,2020_Mar_09_0849,ProdSingRedo,3.2.3,59.93734150322943,
,,,,163,0,163,0,,,,,,,,,,,,,,,,,,,,,,,,2365.7632631,None,,,,,,,,,,,,,,,,,treatment,new_sing,yellow,163,107,339,2363.5065239,None,2363.5065239,None,5,1.366482299999916,2363.5065239,None,2364.9080822,None,2365.4372029,None,2365.4372029,None,f,0.3000371000002815,2365.4372029,None,,,color14,001,2020_Mar_09_0849,ProdSingRedo,3.2.3,59.93734150322943,
,,,,164,0,164,0,,,,,,,,,,,,,,,,,,,,,,,,2368.7467845,None,,,,,,,,,,,,,,,,,profession,new_aloud,red,164,127,241,2366.2911661,None,2366.2911661,None,4,1.6058447000000342,2366.2911661,None,2367.9407161,None,2368.4694323,None,2368.4694323,None,f,0.251745199999732,2368.4694323,None,,,color14,001,2020_Mar_09_0849,ProdSingRedo,3.2.3,59.93734150322943,
,,,,165,0,165,0,,,,,,,,,,,,,,,,,,,,,,,,2371.0908407,None,,,,,,,,,,,,,,,,,suspect,new_silent,blue,165,156,318,2369.2675272,None,2369.2675272,None,1,1.0054623000000902,2369.2675272,None,2370.3078279,None,2370.8344811,None,2370.8344811,None,n,0.2225698000002012,2370.8344811,None,,,color14,001,2020_Mar_09_0849,ProdSingRedo,3.2.3,59.93734150322943,
,,,,166,0,166,0,,,,,,,,,,,,,,,,,,,,,,,,2373.3643415,None,,,,,,,,,,,,,,,,,present,new_sing,yellow,166,102,231,2371.6199661,None,2371.6199661,None,1,0.9970138000003317,2371.6199661,None,2372.6595433,None,2373.17982,None,2373.17982,None,n,0.15748160000021016,2373.17982,None,,,color14,001,2020_Mar_09_0849,ProdSingRedo,3.2.3,59.93734150322943,
,,,,167,0,167,0,,,,,,,,,,,,,,,,,,,,,,,,2375.6396026,None,,,,,,,,,,,,,,,,,cover,aloud,red,167,45,77,2373.8845878,None,2373.8845878,None,1,1.052172199999859,2373.8845878,None,2374.961713,None,2375.4722583000002,None,2375.4722583000002,None,n,0.1445982999998705,2375.4722583000002,None,,,color14,001,2020_Mar_09_0849,ProdSingRedo,3.2.3,59.93734150322943,
,,,,168,0,168,0,,,,,,,,,,,,,,,,,,,,,,,,2378.4217111,None,,,,,,,,,,,,,,,,,public,sing,yellow,168,9,244,2376.1565106,None,2376.1565106,None,1,1.0924141000000418,2376.1565106,None,2377.278192,None,2377.8071054,None,2377.8071054,None,n,0.5935769000002438,2377.8071054,None,,,color14,001,2020_Mar_09_0849,ProdSingRedo,3.2.3,59.93734150322943,
,,,,169,0,169,0,,,,,,,,,,,,,,,,,,,,,,,,2380.9806039,None,,,,,,,,,,,,,,,,,space,new_sing,yellow,169,99,297,2378.9407523,None,2378.9407523,None,1,1.348225900000216,2378.9407523,None,2380.3252063,None,2380.8428083,None,2380.8428083,None,n,0.10224070000003849,2380.8428083,None,,,color14,001,2020_Mar_09_0849,ProdSingRedo,3.2.3,59.93734150322943,
,,,,170,0,170,0,,,,,,,,,,,,,,,,,,,,,,,,2383.2815554,None,,,,,,,,,,,,,,,,,whole,aloud,red,170,37,355,2381.5051198,None,2381.5051198,None,1,1.0639665999997305,2381.5051198,None,2382.6128267,None,2383.1331506,None,2383.1331506,None,n,0.11580699999967692,2383.1331506,None,,,color14,001,2020_Mar_09_0849,ProdSingRedo,3.2.3,59.93734150322943,
,,,,171,0,171,0,,,,,,,,,,,,,,,,,,,,,,,,2386.4250239,None,,,,,,,,,,,,,,,,,distance,new_sing,yellow,171,105,100,2383.8061773,None,2383.8061773,None,4,1.5949696000002405,2383.8061773,None,2385.4411742,None,2385.969664,None,2385.969664,None,f,0.43128100000012637,2385.969664,None,,,color14,001,2020_Mar_09_0849,ProdSingRedo,3.2.3,59.93734150322943,
,,,,172,0,172,0,,,,,,,,,,,,,,,,,,,,,,,,2389.0573714,None,,,,,,,,,,,,,,,,,youth,new_sing,yellow,172,115,359,2386.96302,None,2386.96302,None,1,1.0138577999996414,2386.96302,None,2388.0202174,None,2388.5345219,None,2388.5345219,None,n,0.49024809999991703,2388.5345219,None,,,color14,001,2020_Mar_09_0849,ProdSingRedo,3.2.3,59.93734150322943,
,,,,173,0,173,0,,,,,,,,,,,,,,,,,,,,,,,,2392.4992723,None,,,,,,,,,,,,,,,,,raise,sing,yellow,173,5,250,2389.5739938,None,2389.5739938,None,1,1.0830726000003779,2389.5739938,None,2390.6886439,None,2391.2012323,None,2391.2012323,None,n,1.2718416999996407,2391.2012323,None,,,color14,001,2020_Mar_09_0849,ProdSingRedo,3.2.3,59.93734150322943,
,,,,174,0,174,0,,,,,,,,,,,,,,,,,,,,,,,,2395.4908107,None,,,,,,,,,,,,,,,,,enemy,silent,blue,174,65,113,2393.0226257,None,2393.0226257,None,5,1.6181904000000031,2393.0226257,None,2394.6793306,None,2395.189915,None,2395.189915,None,f,0.2750298000000839,2395.189915,None,,,color14,001,2020_Mar_09_0849,ProdSingRedo,3.2.3,59.93734150322943,
,,,,175,0,175,0,,,,,,,,,,,,,,,,,,,,,,,,2398.0157409,None,,,,,,,,,,,,,,,,,trend,new_sing,yellow,175,104,340,2396.0039871,None,2396.0039871,None,1,0.8931055999996715,2396.0039871,None,2396.942892,None,2397.4590732,None,2397.4590732,None,n,0.5258644000000459,2397.4590732,None,,,color14,001,2020_Mar_09_0849,ProdSingRedo,3.2.3,59.93734150322943,
,,,,176,0,176,0,,,,,,,,,,,,,,,,,,,,,,,,2402.3161747,None,,,,,,,,,,,,,,,,,sweet,sing,yellow,176,29,319,2398.5381035,None,2398.5381035,None,6,2.9029668000002857,2398.5381035,None,2401.4770423,None,2401.9948097,None,2401.9948097,None,r,0.29433849999986705,2401.9948097,None,,,color14,001,2020_Mar_09_0849,ProdSingRedo,3.2.3,59.93734150322943,
,,,,177,0,177,0,,,,,,,,,,,,,,,,,,,,,,,,2406.0100251,None,,,,,,,,,,,,,,,,,passage,aloud,red,177,51,212,2402.8385655,None,2402.8385655,None,4,2.3303562999999485,2402.8385655,None,2405.1999473,None,2405.7111465,None,2405.7111465,None,f,0.26574429999982385,2405.7111465,None,,,color14,001,2020_Mar_09_0849,ProdSingRedo,3.2.3,59.93734150322943,
,,,,178,0,178,0,,,,,,,,,,,,,,,,,,,,,,,,2409.4999809,None,,,,,,,,,,,,,,,,,place,sing,yellow,178,19,222,2406.5420914,None,2406.5420914,None,3,1.8589423999997052,2406.5420914,None,2408.4477882,None,2408.9712132,None,2408.9712132,None,f,0.49368349999986094,2408.9712132,None,,,color14,001,2020_Mar_09_0849,ProdSingRedo,3.2.3,59.93734150322943,
,,,,179,0,179,0,,,,,,,,,,,,,,,,,,,,,,,,2413.2101914,None,,,,,,,,,,,,,,,,,property,new_silent,blue,179,174,242,2410.0263904,None,2410.0263904,None,1,0.934592099999918,2410.0263904,None,2411.0125143,None,2411.5270399,None,2411.5270399,None,n,1.6579412999999477,2411.5270399,None,,,color14,001,2020_Mar_09_0849,ProdSingRedo,3.2.3,59.93734150322943,
,,,,,,,,,,,,,,,,,,,,,,,,,,,,,,,,,,,,,,,,,,,,,,,,,,,,,,,,,,,,,,,,,,,,,,,,,2413.7261878,None,,,,,,,
