StudyLoop.thisRepN,StudyLoop.thisTrialN,StudyLoop.thisN,StudyLoop.thisIndex,TestLoop.thisRepN,TestLoop.thisTrialN,TestLoop.thisN,TestLoop.thisIndex,keyCondition.keys,keyCondition.rt,Condition,stim_colors,color_sing,color_aloud,color_silent,keyWelcome.keys,keyWelcome.rt,study_word,study_type,study_color,study_num,study_word_num,keyStudy.keys,key_resp_3.keys,key_resp_3.rt,testWord,testType,testColor,testN,test_num,test_word_num,keyConf.keys,keyConf.rt,keyRKN.keys,keyRKN.rt,date,frameRate,expName,session,participant,
,,,,,,,,y,2.5078261,,,,,,,,,,,,,,,,,,,,,,,,,,2022_Jan_27_0833,60.1381131908,ProdSingRedo,001,Color 25,
,,,,,,,,,,ColoredTest,"['blue', 'red', 'yellow']",blue,red,yellow,space,225.080298,,,,,,,,,,,,,,,,,,,2022_Jan_27_0833,60.1381131908,ProdSingRedo,001,Color 25,
0,0,0,0,,,,,,,,,,,,,,private,sing,blue,10,237,None,,,,,,,,,,,,,2022_Jan_27_0833,60.1381131908,ProdSingRedo,001,Color 25,
1,0,1,0,,,,,,,,,,,,,,cousin,silent,yellow,67,76,None,,,,,,,,,,,,,2022_Jan_27_0833,60.1381131908,ProdSingRedo,001,Color 25,
2,0,2,0,,,,,,,,,,,,,,drove,aloud,red,38,106,None,,,,,,,,,,,,,2022_Jan_27_0833,60.1381131908,ProdSingRedo,001,Color 25,
3,0,3,0,,,,,,,,,,,,,,block,sing,blue,12,25,None,,,,,,,,,,,,,2022_Jan_27_0833,60.1381131908,ProdSingRedo,001,Color 25,
4,0,4,0,,,,,,,,,,,,,,session,aloud,red,32,281,None,,,,,,,,,,,,,2022_Jan_27_0833,60.1381131908,ProdSingRedo,001,Color 25,
5,0,5,0,,,,,,,,,,,,,,balance,sing,blue,1,17,None,,,,,,,,,,,,,2022_Jan_27_0833,60.1381131908,ProdSingRedo,001,Color 25,
6,0,6,0,,,,,,,,,,,,,,match,sing,blue,2,181,None,,,,,,,,,,,,,2022_Jan_27_0833,60.1381131908,ProdSingRedo,001,Color 25,
7,0,7,0,,,,,,,,,,,,,,minute,silent,yellow,79,192,None,,,,,,,,,,,,,2022_Jan_27_0833,60.1381131908,ProdSingRedo,001,Color 25,
8,0,8,0,,,,,,,,,,,,,,addition,silent,yellow,87,2,None,,,,,,,,,,,,,2022_Jan_27_0833,60.1381131908,ProdSingRedo,001,Color 25,
9,0,9,0,,,,,,,,,,,,,,express,sing,blue,29,124,None,,,,,,,,,,,,,2022_Jan_27_0833,60.1381131908,ProdSingRedo,001,Color 25,
10,0,10,0,,,,,,,,,,,,,,suspect,aloud,red,41,318,None,,,,,,,,,,,,,2022_Jan_27_0833,60.1381131908,ProdSingRedo,001,Color 25,
11,0,11,0,,,,,,,,,,,,,,plane,aloud,red,52,223,None,,,,,,,,,,,,,2022_Jan_27_0833,60.1381131908,ProdSingRedo,001,Color 25,
12,0,12,0,,,,,,,,,,,,,,grade,sing,blue,3,140,None,,,,,,,,,,,,,2022_Jan_27_0833,60.1381131908,ProdSingRedo,001,Color 25,
13,0,13,0,,,,,,,,,,,,,,damage,sing,blue,17,83,None,,,,,,,,,,,,,2022_Jan_27_0833,60.1381131908,ProdSingRedo,001,Color 25,
14,0,14,0,,,,,,,,,,,,,,point,sing,blue,26,226,None,,,,,,,,,,,,,2022_Jan_27_0833,60.1381131908,ProdSingRedo,001,Color 25,
15,0,15,0,,,,,,,,,,,,,,science,aloud,red,35,275,None,,,,,,,,,,,,,2022_Jan_27_0833,60.1381131908,ProdSingRedo,001,Color 25,
16,0,16,0,,,,,,,,,,,,,,enemy,silent,yellow,76,113,None,,,,,,,,,,,,,2022_Jan_27_0833,60.1381131908,ProdSingRedo,001,Color 25,
17,0,17,0,,,,,,,,,,,,,,production,sing,blue,6,240,None,,,,,,,,,,,,,2022_Jan_27_0833,60.1381131908,ProdSingRedo,001,Color 25,
18,0,18,0,,,,,,,,,,,,,,charter,aloud,red,55,47,None,,,,,,,,,,,,,2022_Jan_27_0833,60.1381131908,ProdSingRedo,001,Color 25,
19,0,19,0,,,,,,,,,,,,,,present,aloud,red,33,231,None,,,,,,,,,,,,,2022_Jan_27_0833,60.1381131908,ProdSingRedo,001,Color 25,
20,0,20,0,,,,,,,,,,,,,,track,silent,yellow,78,334,None,,,,,,,,,,,,,2022_Jan_27_0833,60.1381131908,ProdSingRedo,001,Color 25,
21,0,21,0,,,,,,,,,,,,,,entrance,sing,blue,21,115,None,,,,,,,,,,,,,2022_Jan_27_0833,60.1381131908,ProdSingRedo,001,Color 25,
22,0,22,0,,,,,,,,,,,,,,fashion,silent,yellow,64,125,None,,,,,,,,,,,,,2022_Jan_27_0833,60.1381131908,ProdSingRedo,001,Color 25,
23,0,23,0,,,,,,,,,,,,,,personnel,aloud,red,43,219,None,,,,,,,,,,,,,2022_Jan_27_0833,60.1381131908,ProdSingRedo,001,Color 25,
24,0,24,0,,,,,,,,,,,,,,smooth,silent,yellow,62,292,None,,,,,,,,,,,,,2022_Jan_27_0833,60.1381131908,ProdSingRedo,001,Color 25,
25,0,25,0,,,,,,,,,,,,,,message,silent,yellow,73,189,None,,,,,,,,,,,,,2022_Jan_27_0833,60.1381131908,ProdSingRedo,001,Color 25,
26,0,26,0,,,,,,,,,,,,,,marriage,sing,blue,5,179,None,,,,,,,,,,,,,2022_Jan_27_0833,60.1381131908,ProdSingRedo,001,Color 25,
27,0,27,0,,,,,,,,,,,,,,division,sing,blue,8,101,None,,,,,,,,,,,,,2022_Jan_27_0833,60.1381131908,ProdSingRedo,001,Color 25,
28,0,28,0,,,,,,,,,,,,,,interior,aloud,red,30,164,None,,,,,,,,,,,,,2022_Jan_27_0833,60.1381131908,ProdSingRedo,001,Color 25,
29,0,29,0,,,,,,,,,,,,,,range,silent,yellow,77,251,None,,,,,,,,,,,,,2022_Jan_27_0833,60.1381131908,ProdSingRedo,001,Color 25,
30,0,30,0,,,,,,,,,,,,,,dance,aloud,red,31,84,None,,,,,,,,,,,,,2022_Jan_27_0833,60.1381131908,ProdSingRedo,001,Color 25,
31,0,31,0,,,,,,,,,,,,,,report,aloud,red,54,259,None,,,,,,,,,,,,,2022_Jan_27_0833,60.1381131908,ProdSingRedo,001,Color 25,
32,0,32,0,,,,,,,,,,,,,,course,sing,blue,18,74,None,,,,,,,,,,,,,2022_Jan_27_0833,60.1381131908,ProdSingRedo,001,Color 25,
33,0,33,0,,,,,,,,,,,,,,hearing,sing,blue,14,150,None,,,,,,,,,,,,,2022_Jan_27_0833,60.1381131908,ProdSingRedo,001,Color 25,
34,0,34,0,,,,,,,,,,,,,,territory,silent,yellow,60,324,None,,,,,,,,,,,,,2022_Jan_27_0833,60.1381131908,ProdSingRedo,001,Color 25,
35,0,35,0,,,,,,,,,,,,,,institute,silent,yellow,63,162,None,,,,,,,,,,,,,2022_Jan_27_0833,60.1381131908,ProdSingRedo,001,Color 25,
36,0,36,0,,,,,,,,,,,,,,judge,sing,blue,27,166,None,,,,,,,,,,,,,2022_Jan_27_0833,60.1381131908,ProdSingRedo,001,Color 25,
37,0,37,0,,,,,,,,,,,,,,instrument,silent,yellow,83,163,None,,,,,,,,,,,,,2022_Jan_27_0833,60.1381131908,ProdSingRedo,001,Color 25,
38,0,38,0,,,,,,,,,,,,,,curve,sing,blue,22,82,None,,,,,,,,,,,,,2022_Jan_27_0833,60.1381131908,ProdSingRedo,001,Color 25,
39,0,39,0,,,,,,,,,,,,,,household,sing,blue,7,154,None,,,,,,,,,,,,,2022_Jan_27_0833,60.1381131908,ProdSingRedo,001,Color 25,
40,0,40,0,,,,,,,,,,,,,,government,aloud,red,49,139,None,,,,,,,,,,,,,2022_Jan_27_0833,60.1381131908,ProdSingRedo,001,Color 25,
41,0,41,0,,,,,,,,,,,,,,weight,sing,blue,9,353,None,,,,,,,,,,,,,2022_Jan_27_0833,60.1381131908,ProdSingRedo,001,Color 25,
42,0,42,0,,,,,,,,,,,,,,position,aloud,red,45,229,None,,,,,,,,,,,,,2022_Jan_27_0833,60.1381131908,ProdSingRedo,001,Color 25,
43,0,43,0,,,,,,,,,,,,,,under,aloud,red,40,343,None,,,,,,,,,,,,,2022_Jan_27_0833,60.1381131908,ProdSingRedo,001,Color 25,
44,0,44,0,,,,,,,,,,,,,,country,aloud,red,56,73,None,,,,,,,,,,,,,2022_Jan_27_0833,60.1381131908,ProdSingRedo,001,Color 25,
45,0,45,0,,,,,,,,,,,,,,ground,aloud,red,46,142,None,,,,,,,,,,,,,2022_Jan_27_0833,60.1381131908,ProdSingRedo,001,Color 25,
46,0,46,0,,,,,,,,,,,,,,research,silent,yellow,69,261,None,,,,,,,,,,,,,2022_Jan_27_0833,60.1381131908,ProdSingRedo,001,Color 25,
47,0,47,0,,,,,,,,,,,,,,candidate,silent,yellow,80,39,None,,,,,,,,,,,,,2022_Jan_27_0833,60.1381131908,ProdSingRedo,001,Color 25,
48,0,48,0,,,,,,,,,,,,,,hunger,aloud,red,59,155,None,,,,,,,,,,,,,2022_Jan_27_0833,60.1381131908,ProdSingRedo,001,Color 25,
49,0,49,0,,,,,,,,,,,,,,finance,sing,blue,25,129,None,,,,,,,,,,,,,2022_Jan_27_0833,60.1381131908,ProdSingRedo,001,Color 25,
50,0,50,0,,,,,,,,,,,,,,beauty,aloud,red,42,18,None,,,,,,,,,,,,,2022_Jan_27_0833,60.1381131908,ProdSingRedo,001,Color 25,
51,0,51,0,,,,,,,,,,,,,,foundation,silent,yellow,71,132,None,,,,,,,,,,,,,2022_Jan_27_0833,60.1381131908,ProdSingRedo,001,Color 25,
52,0,52,0,,,,,,,,,,,,,,drink,sing,blue,15,105,None,,,,,,,,,,,,,2022_Jan_27_0833,60.1381131908,ProdSingRedo,001,Color 25,
53,0,53,0,,,,,,,,,,,,,,accident,silent,yellow,61,0,None,,,,,,,,,,,,,2022_Jan_27_0833,60.1381131908,ProdSingRedo,001,Color 25,
54,0,54,0,,,,,,,,,,,,,,article,silent,yellow,85,11,None,,,,,,,,,,,,,2022_Jan_27_0833,60.1381131908,ProdSingRedo,001,Color 25,
55,0,55,0,,,,,,,,,,,,,,solution,silent,yellow,82,294,None,,,,,,,,,,,,,2022_Jan_27_0833,60.1381131908,ProdSingRedo,001,Color 25,
56,0,56,0,,,,,,,,,,,,,,piece,sing,blue,4,221,None,,,,,,,,,,,,,2022_Jan_27_0833,60.1381131908,ProdSingRedo,001,Color 25,
57,0,57,0,,,,,,,,,,,,,,crime,aloud,red,39,78,None,,,,,,,,,,,,,2022_Jan_27_0833,60.1381131908,ProdSingRedo,001,Color 25,
58,0,58,0,,,,,,,,,,,,,,budget,aloud,red,36,34,None,,,,,,,,,,,,,2022_Jan_27_0833,60.1381131908,ProdSingRedo,001,Color 25,
59,0,59,0,,,,,,,,,,,,,,direction,sing,blue,28,94,None,,,,,,,,,,,,,2022_Jan_27_0833,60.1381131908,ProdSingRedo,001,Color 25,
60,0,60,0,,,,,,,,,,,,,,conference,silent,yellow,86,66,None,,,,,,,,,,,,,2022_Jan_27_0833,60.1381131908,ProdSingRedo,001,Color 25,
61,0,61,0,,,,,,,,,,,,,,count,silent,yellow,88,72,None,,,,,,,,,,,,,2022_Jan_27_0833,60.1381131908,ProdSingRedo,001,Color 25,
62,0,62,0,,,,,,,,,,,,,,symbol,aloud,red,50,321,None,,,,,,,,,,,,,2022_Jan_27_0833,60.1381131908,ProdSingRedo,001,Color 25,
63,0,63,0,,,,,,,,,,,,,,account,silent,yellow,74,1,None,,,,,,,,,,,,,2022_Jan_27_0833,60.1381131908,ProdSingRedo,001,Color 25,
64,0,64,0,,,,,,,,,,,,,,estate,sing,blue,19,119,None,,,,,,,,,,,,,2022_Jan_27_0833,60.1381131908,ProdSingRedo,001,Color 25,
65,0,65,0,,,,,,,,,,,,,,swift,sing,blue,0,320,None,,,,,,,,,,,,,2022_Jan_27_0833,60.1381131908,ProdSingRedo,001,Color 25,
66,0,66,0,,,,,,,,,,,,,,appeal,sing,blue,13,9,None,,,,,,,,,,,,,2022_Jan_27_0833,60.1381131908,ProdSingRedo,001,Color 25,
67,0,67,0,,,,,,,,,,,,,,member,silent,yellow,75,188,None,,,,,,,,,,,,,2022_Jan_27_0833,60.1381131908,ProdSingRedo,001,Color 25,
68,0,68,0,,,,,,,,,,,,,,store,aloud,red,53,305,None,,,,,,,,,,,,,2022_Jan_27_0833,60.1381131908,ProdSingRedo,001,Color 25,
69,0,69,0,,,,,,,,,,,,,,build,silent,yellow,65,35,None,,,,,,,,,,,,,2022_Jan_27_0833,60.1381131908,ProdSingRedo,001,Color 25,
70,0,70,0,,,,,,,,,,,,,,captain,silent,yellow,81,41,None,,,,,,,,,,,,,2022_Jan_27_0833,60.1381131908,ProdSingRedo,001,Color 25,
71,0,71,0,,,,,,,,,,,,,,agency,aloud,red,44,4,None,,,,,,,,,,,,,2022_Jan_27_0833,60.1381131908,ProdSingRedo,001,Color 25,
72,0,72,0,,,,,,,,,,,,,,guest,aloud,red,48,146,None,,,,,,,,,,,,,2022_Jan_27_0833,60.1381131908,ProdSingRedo,001,Color 25,
73,0,73,0,,,,,,,,,,,,,,meeting,sing,blue,16,187,None,,,,,,,,,,,,,2022_Jan_27_0833,60.1381131908,ProdSingRedo,001,Color 25,
74,0,74,0,,,,,,,,,,,,,,resistance,silent,yellow,70,262,None,,,,,,,,,,,,,2022_Jan_27_0833,60.1381131908,ProdSingRedo,001,Color 25,
75,0,75,0,,,,,,,,,,,,,,salary,silent,yellow,84,271,None,,,,,,,,,,,,,2022_Jan_27_0833,60.1381131908,ProdSingRedo,001,Color 25,
76,0,76,0,,,,,,,,,,,,,,birth,sing,blue,24,22,None,,,,,,,,,,,,,2022_Jan_27_0833,60.1381131908,ProdSingRedo,001,Color 25,
77,0,77,0,,,,,,,,,,,,,,quantity,aloud,red,37,245,None,,,,,,,,,,,,,2022_Jan_27_0833,60.1381131908,ProdSingRedo,001,Color 25,
78,0,78,0,,,,,,,,,,,,,,portion,aloud,red,58,228,None,,,,,,,,,,,,,2022_Jan_27_0833,60.1381131908,ProdSingRedo,001,Color 25,
79,0,79,0,,,,,,,,,,,,,,level,aloud,red,47,170,None,,,,,,,,,,,,,2022_Jan_27_0833,60.1381131908,ProdSingRedo,001,Color 25,
80,0,80,0,,,,,,,,,,,,,,junior,aloud,red,34,167,None,,,,,,,,,,,,,2022_Jan_27_0833,60.1381131908,ProdSingRedo,001,Color 25,
81,0,81,0,,,,,,,,,,,,,,thing,aloud,red,51,328,None,,,,,,,,,,,,,2022_Jan_27_0833,60.1381131908,ProdSingRedo,001,Color 25,
82,0,82,0,,,,,,,,,,,,,,produce,silent,yellow,89,239,None,,,,,,,,,,,,,2022_Jan_27_0833,60.1381131908,ProdSingRedo,001,Color 25,
83,0,83,0,,,,,,,,,,,,,,shock,aloud,red,57,284,None,,,,,,,,,,,,,2022_Jan_27_0833,60.1381131908,ProdSingRedo,001,Color 25,
84,0,84,0,,,,,,,,,,,,,,surface,sing,blue,23,316,None,,,,,,,,,,,,,2022_Jan_27_0833,60.1381131908,ProdSingRedo,001,Color 25,
85,0,85,0,,,,,,,,,,,,,,literature,silent,yellow,68,173,None,,,,,,,,,,,,,2022_Jan_27_0833,60.1381131908,ProdSingRedo,001,Color 25,
86,0,86,0,,,,,,,,,,,,,,impact,silent,yellow,66,157,None,,,,,,,,,,,,,2022_Jan_27_0833,60.1381131908,ProdSingRedo,001,Color 25,
87,0,87,0,,,,,,,,,,,,,,universal,sing,blue,20,345,None,,,,,,,,,,,,,2022_Jan_27_0833,60.1381131908,ProdSingRedo,001,Color 25,
88,0,88,0,,,,,,,,,,,,,,pretty,sing,blue,11,233,None,,,,,,,,,,,,,2022_Jan_27_0833,60.1381131908,ProdSingRedo,001,Color 25,
89,0,89,0,,,,,,,,,,,,,,tennis,silent,yellow,72,323,None,,,,,,,,,,,,,2022_Jan_27_0833,60.1381131908,ProdSingRedo,001,Color 25,
,,,,,,,,,,,,,,,,,,,,,,,k,154.3865099,,,,,,,,,,,2022_Jan_27_0833,60.1381131908,ProdSingRedo,001,Color 25,
,,,,0,0,0,0,,,,,,,,,,,,,,,,,,oxygen,new_silent,yellow,0,169,209,3,8.0970882,n,5.8280328,2022_Jan_27_0833,60.1381131908,ProdSingRedo,001,Color 25,
,,,,1,0,1,0,,,,,,,,,,,,,,,,,,point,sing,blue,1,26,226,4,4.589098,f,1.3795812,2022_Jan_27_0833,60.1381131908,ProdSingRedo,001,Color 25,
,,,,2,0,2,0,,,,,,,,,,,,,,,,,,marriage,sing,blue,2,5,179,4,7.7061661,f,3.4380548,2022_Jan_27_0833,60.1381131908,ProdSingRedo,001,Color 25,
,,,,3,0,3,0,,,,,,,,,,,,,,,,,,mankind,new_silent,yellow,3,175,178,3,8.9153026,n,2.4287743,2022_Jan_27_0833,60.1381131908,ProdSingRedo,001,Color 25,
,,,,4,0,4,0,,,,,,,,,,,,,,,,,,comfort,new_aloud,red,4,128,59,4,7.4615213,f,5.7317472,2022_Jan_27_0833,60.1381131908,ProdSingRedo,001,Color 25,
,,,,5,0,5,0,,,,,,,,,,,,,,,,,,session,aloud,red,5,32,281,4,8.6586892,f,1.2474834,2022_Jan_27_0833,60.1381131908,ProdSingRedo,001,Color 25,
,,,,6,0,6,0,,,,,,,,,,,,,,,,,,position,aloud,red,6,45,229,5,3.4623815,f,1.61298,2022_Jan_27_0833,60.1381131908,ProdSingRedo,001,Color 25,
,,,,7,0,7,0,,,,,,,,,,,,,,,,,,property,new_silent,yellow,7,160,242,3,4.6741898,n,1.7781217,2022_Jan_27_0833,60.1381131908,ProdSingRedo,001,Color 25,
,,,,8,0,8,0,,,,,,,,,,,,,,,,,,suspect,aloud,red,8,41,318,5,5.8877034,f,1.2561635,2022_Jan_27_0833,60.1381131908,ProdSingRedo,001,Color 25,
,,,,9,0,9,0,,,,,,,,,,,,,,,,,,business,new_sing,blue,9,92,38,5,6.07392,f,1.1279273,2022_Jan_27_0833,60.1381131908,ProdSingRedo,001,Color 25,
,,,,10,0,10,0,,,,,,,,,,,,,,,,,,empty,new_aloud,red,10,133,112,4,6.8996575,f,1.2911106,2022_Jan_27_0833,60.1381131908,ProdSingRedo,001,Color 25,
,,,,11,0,11,0,,,,,,,,,,,,,,,,,,break,new_sing,blue,11,116,26,3,7.0439794,n,1.2997148,2022_Jan_27_0833,60.1381131908,ProdSingRedo,001,Color 25,
,,,,12,0,12,0,,,,,,,,,,,,,,,,,,damage,sing,blue,12,17,83,6,4.3543411,f,3.7816901,2022_Jan_27_0833,60.1381131908,ProdSingRedo,001,Color 25,
,,,,13,0,13,0,,,,,,,,,,,,,,,,,,victory,new_silent,yellow,13,179,346,3,3.733669,n,0.9832596,2022_Jan_27_0833,60.1381131908,ProdSingRedo,001,Color 25,
,,,,14,0,14,0,,,,,,,,,,,,,,,,,,salary,silent,yellow,14,84,271,5,6.1720304,f,1.224126,2022_Jan_27_0833,60.1381131908,ProdSingRedo,001,Color 25,
,,,,15,0,15,0,,,,,,,,,,,,,,,,,,guest,aloud,red,15,48,146,4,4.5820933,f,1.0964829,2022_Jan_27_0833,60.1381131908,ProdSingRedo,001,Color 25,
,,,,16,0,16,0,,,,,,,,,,,,,,,,,,style,new_sing,blue,16,109,311,2,5.3552403,n,0.9389323,2022_Jan_27_0833,60.1381131908,ProdSingRedo,001,Color 25,
,,,,17,0,17,0,,,,,,,,,,,,,,,,,,scene,new_aloud,red,17,130,273,4,5.5387315,n,1.0776293,2022_Jan_27_0833,60.1381131908,ProdSingRedo,001,Color 25,
,,,,18,0,18,0,,,,,,,,,,,,,,,,,,tennis,silent,yellow,18,72,323,2,2.9175056,n,1.0705534,2022_Jan_27_0833,60.1381131908,ProdSingRedo,001,Color 25,
,,,,19,0,19,0,,,,,,,,,,,,,,,,,,account,silent,yellow,19,74,1,3,3.5167455,n,1.444265,2022_Jan_27_0833,60.1381131908,ProdSingRedo,001,Color 25,
,,,,20,0,20,0,,,,,,,,,,,,,,,,,,level,aloud,red,20,47,170,4,3.7207915,f,1.127251,2022_Jan_27_0833,60.1381131908,ProdSingRedo,001,Color 25,
,,,,21,0,21,0,,,,,,,,,,,,,,,,,,universal,sing,blue,21,20,345,2,4.7376957,n,0.9537854,2022_Jan_27_0833,60.1381131908,ProdSingRedo,001,Color 25,
,,,,22,0,22,0,,,,,,,,,,,,,,,,,,report,aloud,red,22,54,259,5,3.721239,f,0.6559988,2022_Jan_27_0833,60.1381131908,ProdSingRedo,001,Color 25,
,,,,23,0,23,0,,,,,,,,,,,,,,,,,,pretty,sing,blue,23,11,233,3,4.8762674,f,1.5506589,2022_Jan_27_0833,60.1381131908,ProdSingRedo,001,Color 25,
,,,,24,0,24,0,,,,,,,,,,,,,,,,,,short,new_aloud,red,24,127,285,2,8.3853017,n,1.5403802,2022_Jan_27_0833,60.1381131908,ProdSingRedo,001,Color 25,
,,,,25,0,25,0,,,,,,,,,,,,,,,,,,mechanical,new_aloud,red,25,142,185,1,3.3224208,n,1.000283,2022_Jan_27_0833,60.1381131908,ProdSingRedo,001,Color 25,
,,,,26,0,26,0,,,,,,,,,,,,,,,,,,cousin,silent,yellow,26,67,76,3,3.2938394,n,1.083369,2022_Jan_27_0833,60.1381131908,ProdSingRedo,001,Color 25,
,,,,27,0,27,0,,,,,,,,,,,,,,,,,,store,aloud,red,27,53,305,3,4.671414,n,0.9544504,2022_Jan_27_0833,60.1381131908,ProdSingRedo,001,Color 25,
,,,,28,0,28,0,,,,,,,,,,,,,,,,,,meeting,sing,blue,28,16,187,5,3.5199098,f,0.5755152,2022_Jan_27_0833,60.1381131908,ProdSingRedo,001,Color 25,
,,,,29,0,29,0,,,,,,,,,,,,,,,,,,master,new_silent,yellow,29,151,180,2,3.624895,n,0.7965495,2022_Jan_27_0833,60.1381131908,ProdSingRedo,001,Color 25,
,,,,30,0,30,0,,,,,,,,,,,,,,,,,,sunset,new_sing,blue,30,118,315,1,3.2268838,n,0.4972026,2022_Jan_27_0833,60.1381131908,ProdSingRedo,001,Color 25,
,,,,31,0,31,0,,,,,,,,,,,,,,,,,,interior,aloud,red,31,30,164,3,4.7498831,n,1.6879157,2022_Jan_27_0833,60.1381131908,ProdSingRedo,001,Color 25,
,,,,32,0,32,0,,,,,,,,,,,,,,,,,,gesture,new_silent,yellow,32,154,137,1,3.4335173,n,2.0165903,2022_Jan_27_0833,60.1381131908,ProdSingRedo,001,Color 25,
,,,,33,0,33,0,,,,,,,,,,,,,,,,,,drama,new_aloud,red,33,145,103,5,4.0953935,f,0.4432787,2022_Jan_27_0833,60.1381131908,ProdSingRedo,001,Color 25,
,,,,34,0,34,0,,,,,,,,,,,,,,,,,,foundation,silent,yellow,34,71,132,3,7.2810856,n,0.5933268,2022_Jan_27_0833,60.1381131908,ProdSingRedo,001,Color 25,
,,,,35,0,35,0,,,,,,,,,,,,,,,,,,travel,new_silent,yellow,35,156,338,5,5.6117472,f,1.5071789,2022_Jan_27_0833,60.1381131908,ProdSingRedo,001,Color 25,
,,,,36,0,36,0,,,,,,,,,,,,,,,,,,shock,aloud,red,36,57,284,5,4.3998213,f,0.6080892,2022_Jan_27_0833,60.1381131908,ProdSingRedo,001,Color 25,
,,,,37,0,37,0,,,,,,,,,,,,,,,,,,reach,new_sing,blue,37,110,253,3,6.8262278,n,0.7949726,2022_Jan_27_0833,60.1381131908,ProdSingRedo,001,Color 25,
,,,,38,0,38,0,,,,,,,,,,,,,,,,,,guide,new_silent,yellow,38,174,147,5,6.5639888,f,1.0380994,2022_Jan_27_0833,60.1381131908,ProdSingRedo,001,Color 25,
,,,,39,0,39,0,,,,,,,,,,,,,,,,,,balance,sing,blue,39,1,17,5,4.4824915,f,1.1408974,2022_Jan_27_0833,60.1381131908,ProdSingRedo,001,Color 25,
,,,,40,0,40,0,,,,,,,,,,,,,,,,,,block,sing,blue,40,12,25,2,3.0014178,n,0.3082776,2022_Jan_27_0833,60.1381131908,ProdSingRedo,001,Color 25,
,,,,41,0,41,0,,,,,,,,,,,,,,,,,,staff,new_sing,blue,41,90,301,1,2.3932395,n,1.6091964,2022_Jan_27_0833,60.1381131908,ProdSingRedo,001,Color 25,
,,,,42,0,42,0,,,,,,,,,,,,,,,,,,husband,new_aloud,red,42,144,156,1,4.571829,n,0.791361,2022_Jan_27_0833,60.1381131908,ProdSingRedo,001,Color 25,
,,,,43,0,43,0,,,,,,,,,,,,,,,,,,union,new_aloud,red,43,125,344,4,4.2679041,f,2.0747032,2022_Jan_27_0833,60.1381131908,ProdSingRedo,001,Color 25,
,,,,44,0,44,0,,,,,,,,,,,,,,,,,,addition,silent,yellow,44,87,2,6,4.2729813,f,0.8734584,2022_Jan_27_0833,60.1381131908,ProdSingRedo,001,Color 25,
,,,,45,0,45,0,,,,,,,,,,,,,,,,,,interview,new_sing,blue,45,119,165,1,2.9509733,n,0.83085,2022_Jan_27_0833,60.1381131908,ProdSingRedo,001,Color 25,
,,,,46,0,46,0,,,,,,,,,,,,,,,,,,command,new_silent,yellow,46,177,60,5,5.4143589,f,1.0021814,2022_Jan_27_0833,60.1381131908,ProdSingRedo,001,Color 25,
,,,,47,0,47,0,,,,,,,,,,,,,,,,,,produce,silent,yellow,47,89,239,5,5.1146658,f,0.523558,2022_Jan_27_0833,60.1381131908,ProdSingRedo,001,Color 25,
,,,,48,0,48,0,,,,,,,,,,,,,,,,,,fashion,silent,yellow,48,64,125,4,5.5090132,f,0.5057622,2022_Jan_27_0833,60.1381131908,ProdSingRedo,001,Color 25,
,,,,49,0,49,0,,,,,,,,,,,,,,,,,,reading,new_silent,yellow,49,152,254,2,4.447039,n,0.7881858,2022_Jan_27_0833,60.1381131908,ProdSingRedo,001,Color 25,
,,,,50,0,50,0,,,,,,,,,,,,,,,,,,charter,aloud,red,50,55,47,4,6.3241385,f,1.314563,2022_Jan_27_0833,60.1381131908,ProdSingRedo,001,Color 25,
,,,,51,0,51,0,,,,,,,,,,,,,,,,,,institute,silent,yellow,51,63,162,5,5.068924,f,0.5323776,2022_Jan_27_0833,60.1381131908,ProdSingRedo,001,Color 25,
,,,,52,0,52,0,,,,,,,,,,,,,,,,,,minor,new_sing,blue,52,95,191,4,4.671678,f,0.8011485,2022_Jan_27_0833,60.1381131908,ProdSingRedo,001,Color 25,
,,,,53,0,53,0,,,,,,,,,,,,,,,,,,stand,new_silent,yellow,53,178,302,4,5.7396114,f,0.5381383,2022_Jan_27_0833,60.1381131908,ProdSingRedo,001,Color 25,
,,,,54,0,54,0,,,,,,,,,,,,,,,,,,benefit,new_silent,yellow,54,164,20,2,5.1744697,n,0.7351641,2022_Jan_27_0833,60.1381131908,ProdSingRedo,001,Color 25,
,,,,55,0,55,0,,,,,,,,,,,,,,,,,,nature,new_silent,yellow,55,166,200,4,4.5471204,f,1.1773906,2022_Jan_27_0833,60.1381131908,ProdSingRedo,001,Color 25,
,,,,56,0,56,0,,,,,,,,,,,,,,,,,,trend,new_aloud,red,56,132,340,2,3.1296142,n,0.836906,2022_Jan_27_0833,60.1381131908,ProdSingRedo,001,Color 25,
,,,,57,0,57,0,,,,,,,,,,,,,,,,,,citizen,new_silent,yellow,57,168,50,3,4.5434969,n,0.8479463,2022_Jan_27_0833,60.1381131908,ProdSingRedo,001,Color 25,
,,,,58,0,58,0,,,,,,,,,,,,,,,,,,quick,new_aloud,red,58,146,248,3,7.766966,n,0.2758591,2022_Jan_27_0833,60.1381131908,ProdSingRedo,001,Color 25,
,,,,59,0,59,0,,,,,,,,,,,,,,,,,,portion,aloud,red,59,58,228,5,4.2634118,f,0.5448036,2022_Jan_27_0833,60.1381131908,ProdSingRedo,001,Color 25,
,,,,60,0,60,0,,,,,,,,,,,,,,,,,,instrument,silent,yellow,60,83,163,2,4.5342733,n,0.9791489,2022_Jan_27_0833,60.1381131908,ProdSingRedo,001,Color 25,
,,,,61,0,61,0,,,,,,,,,,,,,,,,,,match,sing,blue,61,2,181,4,6.9680236,f,0.9424798,2022_Jan_27_0833,60.1381131908,ProdSingRedo,001,Color 25,
,,,,62,0,62,0,,,,,,,,,,,,,,,,,,pattern,new_sing,blue,62,98,214,5,7.711478,f,1.0674265,2022_Jan_27_0833,60.1381131908,ProdSingRedo,001,Color 25,
,,,,63,0,63,0,,,,,,,,,,,,,,,,,,express,sing,blue,63,29,124,2,4.4444656,n,1.3133442,2022_Jan_27_0833,60.1381131908,ProdSingRedo,001,Color 25,
,,,,64,0,64,0,,,,,,,,,,,,,,,,,,majority,new_sing,blue,64,108,176,1,4.0814915,n,1.3052368,2022_Jan_27_0833,60.1381131908,ProdSingRedo,001,Color 25,
,,,,65,0,65,0,,,,,,,,,,,,,,,,,,carry,new_sing,blue,65,99,43,5,3.6218363,f,0.3751921,2022_Jan_27_0833,60.1381131908,ProdSingRedo,001,Color 25,
,,,,66,0,66,0,,,,,,,,,,,,,,,,,,finance,sing,blue,66,25,129,4,4.6715819,f,1.5743339,2022_Jan_27_0833,60.1381131908,ProdSingRedo,001,Color 25,
,,,,67,0,67,0,,,,,,,,,,,,,,,,,,accident,silent,yellow,67,61,0,5,4.7842624,f,0.8226031,2022_Jan_27_0833,60.1381131908,ProdSingRedo,001,Color 25,
,,,,68,0,68,0,,,,,,,,,,,,,,,,,,course,sing,blue,68,18,74,5,4.380357,f,0.6433624,2022_Jan_27_0833,60.1381131908,ProdSingRedo,001,Color 25,
,,,,69,0,69,0,,,,,,,,,,,,,,,,,,conference,silent,yellow,69,86,66,2,2.3224977,n,0.4659827,2022_Jan_27_0833,60.1381131908,ProdSingRedo,001,Color 25,
,,,,70,0,70,0,,,,,,,,,,,,,,,,,,smooth,silent,yellow,70,62,292,4,7.958291,f,1.7264301,2022_Jan_27_0833,60.1381131908,ProdSingRedo,001,Color 25,
,,,,71,0,71,0,,,,,,,,,,,,,,,,,,government,aloud,red,71,49,139,2,5.597088,n,0.5652605,2022_Jan_27_0833,60.1381131908,ProdSingRedo,001,Color 25,
,,,,72,0,72,0,,,,,,,,,,,,,,,,,,minute,silent,yellow,72,79,192,4,3.756079,f,0.6574238,2022_Jan_27_0833,60.1381131908,ProdSingRedo,001,Color 25,
,,,,73,0,73,0,,,,,,,,,,,,,,,,,,vision,new_aloud,red,73,123,347,5,4.3534913,f,0.1708476,2022_Jan_27_0833,60.1381131908,ProdSingRedo,001,Color 25,
,,,,74,0,74,0,,,,,,,,,,,,,,,,,,symbol,aloud,red,74,50,321,5,4.8566853,f,0.5930321,2022_Jan_27_0833,60.1381131908,ProdSingRedo,001,Color 25,
,,,,75,0,75,0,,,,,,,,,,,,,,,,,,plane,aloud,red,75,52,223,4,6.4424851,f,1.2906464,2022_Jan_27_0833,60.1381131908,ProdSingRedo,001,Color 25,
,,,,76,0,76,0,,,,,,,,,,,,,,,,,,science,aloud,red,76,35,275,1,2.9560289,n,0.6642888,2022_Jan_27_0833,60.1381131908,ProdSingRedo,001,Color 25,
,,,,77,0,77,0,,,,,,,,,,,,,,,,,,permit,new_aloud,red,77,143,218,3,6.5853711,f,0.6967268,2022_Jan_27_0833,60.1381131908,ProdSingRedo,001,Color 25,
,,,,78,0,78,0,,,,,,,,,,,,,,,,,,production,sing,blue,78,6,240,5,5.0797411,f,0.8244754,2022_Jan_27_0833,60.1381131908,ProdSingRedo,001,Color 25,
,,,,79,0,79,0,,,,,,,,,,,,,,,,,,clear,new_silent,yellow,79,163,52,2,3.0914764,n,0.2531699,2022_Jan_27_0833,60.1381131908,ProdSingRedo,001,Color 25,
,,,,80,0,80,0,,,,,,,,,,,,,,,,,,track,silent,yellow,80,78,334,3,4.5811621,n,0.8287873,2022_Jan_27_0833,60.1381131908,ProdSingRedo,001,Color 25,
,,,,81,0,81,0,,,,,,,,,,,,,,,,,,light,new_silent,yellow,81,173,171,4,4.5782593,f,1.0960339,2022_Jan_27_0833,60.1381131908,ProdSingRedo,001,Color 25,
,,,,82,0,82,0,,,,,,,,,,,,,,,,,,thing,aloud,red,82,51,328,2,3.0725957,n,0.5921293,2022_Jan_27_0833,60.1381131908,ProdSingRedo,001,Color 25,
,,,,83,0,83,0,,,,,,,,,,,,,,,,,,object,new_silent,yellow,83,170,204,5,3.645358,f,0.5393444,2022_Jan_27_0833,60.1381131908,ProdSingRedo,001,Color 25,
,,,,84,0,84,0,,,,,,,,,,,,,,,,,,division,sing,blue,84,8,101,5,5.539001,f,0.703345,2022_Jan_27_0833,60.1381131908,ProdSingRedo,001,Color 25,
,,,,85,0,85,0,,,,,,,,,,,,,,,,,,pressure,new_silent,yellow,85,158,232,4,4.7884771,f,0.6905957,2022_Jan_27_0833,60.1381131908,ProdSingRedo,001,Color 25,
,,,,86,0,86,0,,,,,,,,,,,,,,,,,,throw,new_silent,yellow,86,172,330,2,2.2217669,n,0.4728432,2022_Jan_27_0833,60.1381131908,ProdSingRedo,001,Color 25,
,,,,87,0,87,0,,,,,,,,,,,,,,,,,,household,sing,blue,87,7,154,4,6.2068289,f,1.3841782,2022_Jan_27_0833,60.1381131908,ProdSingRedo,001,Color 25,
,,,,88,0,88,0,,,,,,,,,,,,,,,,,,debate,new_aloud,red,88,129,87,2,3.5795426,n,0.774662,2022_Jan_27_0833,60.1381131908,ProdSingRedo,001,Color 25,
,,,,89,0,89,0,,,,,,,,,,,,,,,,,,bright,new_sing,blue,89,104,29,3,4.7913845,n,2.6448366,2022_Jan_27_0833,60.1381131908,ProdSingRedo,001,Color 25,
,,,,90,0,90,0,,,,,,,,,,,,,,,,,,agency,aloud,red,90,44,4,5,4.3506199,f,0.5380328,2022_Jan_27_0833,60.1381131908,ProdSingRedo,001,Color 25,
,,,,91,0,91,0,,,,,,,,,,,,,,,,,,threat,new_silent,yellow,91,171,329,4,2.701436,f,0.6778197,2022_Jan_27_0833,60.1381131908,ProdSingRedo,001,Color 25,
,,,,92,0,92,0,,,,,,,,,,,,,,,,,,beginning,new_aloud,red,92,147,19,5,4.9233657,f,0.5327773,2022_Jan_27_0833,60.1381131908,ProdSingRedo,001,Color 25,
,,,,93,0,93,0,,,,,,,,,,,,,,,,,,volume,new_sing,blue,93,97,349,1,2.6762617,n,0.7551979,2022_Jan_27_0833,60.1381131908,ProdSingRedo,001,Color 25,
,,,,94,0,94,0,,,,,,,,,,,,,,,,,,series,new_silent,yellow,94,153,279,4,4.8486736,f,0.5028119,2022_Jan_27_0833,60.1381131908,ProdSingRedo,001,Color 25,
,,,,95,0,95,0,,,,,,,,,,,,,,,,,,junior,aloud,red,95,34,167,6,5.2817884,f,1.1419629,2022_Jan_27_0833,60.1381131908,ProdSingRedo,001,Color 25,
,,,,96,0,96,0,,,,,,,,,,,,,,,,,,private,sing,blue,96,10,237,5,3.9510893,f,0.606027,2022_Jan_27_0833,60.1381131908,ProdSingRedo,001,Color 25,
,,,,97,0,97,0,,,,,,,,,,,,,,,,,,background,new_sing,blue,97,105,16,2,4.3119448,n,0.4961764,2022_Jan_27_0833,60.1381131908,ProdSingRedo,001,Color 25,
,,,,98,0,98,0,,,,,,,,,,,,,,,,,,health,new_silent,yellow,98,176,149,4,3.3738897,f,0.3940314,2022_Jan_27_0833,60.1381131908,ProdSingRedo,001,Color 25,
,,,,99,0,99,0,,,,,,,,,,,,,,,,,,member,silent,yellow,99,75,188,3,3.8744547,f,1.5967174,2022_Jan_27_0833,60.1381131908,ProdSingRedo,001,Color 25,
,,,,100,0,100,0,,,,,,,,,,,,,,,,,,ground,aloud,red,100,46,142,2,4.6878302,n,0.5705951,2022_Jan_27_0833,60.1381131908,ProdSingRedo,001,Color 25,
,,,,101,0,101,0,,,,,,,,,,,,,,,,,,number,new_sing,blue,101,111,203,2,5.7743495,n,1.3611972,2022_Jan_27_0833,60.1381131908,ProdSingRedo,001,Color 25,
,,,,102,0,102,0,,,,,,,,,,,,,,,,,,running,new_silent,yellow,102,162,268,4,3.0663101,f,0.3979846,2022_Jan_27_0833,60.1381131908,ProdSingRedo,001,Color 25,
,,,,103,0,103,0,,,,,,,,,,,,,,,,,,appeal,sing,blue,103,13,9,1,4.520111,n,0.6619925,2022_Jan_27_0833,60.1381131908,ProdSingRedo,001,Color 25,
,,,,104,0,104,0,,,,,,,,,,,,,,,,,,council,new_aloud,red,104,141,71,2,4.1768353,n,0.5974808,2022_Jan_27_0833,60.1381131908,ProdSingRedo,001,Color 25,
,,,,105,0,105,0,,,,,,,,,,,,,,,,,,piece,sing,blue,105,4,221,1,3.4569731,n,1.8444356,2022_Jan_27_0833,60.1381131908,ProdSingRedo,001,Color 25,
,,,,106,0,106,0,,,,,,,,,,,,,,,,,,resistance,silent,yellow,106,70,262,5,5.3057783,f,0.4432657,2022_Jan_27_0833,60.1381131908,ProdSingRedo,001,Color 25,
,,,,107,0,107,0,,,,,,,,,,,,,,,,,,dance,aloud,red,107,31,84,2,4.9395952,n,0.3904122,2022_Jan_27_0833,60.1381131908,ProdSingRedo,001,Color 25,
,,,,108,0,108,0,,,,,,,,,,,,,,,,,,leader,new_sing,blue,108,101,168,3,4.9571914,n,0.7433999,2022_Jan_27_0833,60.1381131908,ProdSingRedo,001,Color 25,
,,,,109,0,109,0,,,,,,,,,,,,,,,,,,drink,sing,blue,109,15,105,5,6.8154259,f,0.4043087,2022_Jan_27_0833,60.1381131908,ProdSingRedo,001,Color 25,
,,,,110,0,110,0,,,,,,,,,,,,,,,,,,estate,sing,blue,110,19,119,1,1.8192521,n,0.6235562,2022_Jan_27_0833,60.1381131908,ProdSingRedo,001,Color 25,
,,,,111,0,111,0,,,,,,,,,,,,,,,,,,personnel,aloud,red,111,43,219,2,3.8550118,n,0.3790552,2022_Jan_27_0833,60.1381131908,ProdSingRedo,001,Color 25,
,,,,112,0,112,0,,,,,,,,,,,,,,,,,,literature,silent,yellow,112,68,173,6,2.8250315,r,1.5811138,2022_Jan_27_0833,60.1381131908,ProdSingRedo,001,Color 25,
,,,,113,0,113,0,,,,,,,,,,,,,,,,,,design,new_aloud,red,113,140,91,2,3.5408131,n,0.9441289,2022_Jan_27_0833,60.1381131908,ProdSingRedo,001,Color 25,
,,,,114,0,114,0,,,,,,,,,,,,,,,,,,scale,new_sing,blue,114,107,272,5,5.8385663,f,0.3815489,2022_Jan_27_0833,60.1381131908,ProdSingRedo,001,Color 25,
,,,,115,0,115,0,,,,,,,,,,,,,,,,,,partner,new_aloud,red,115,131,211,4,3.5842515,f,0.7697349,2022_Jan_27_0833,60.1381131908,ProdSingRedo,001,Color 25,
,,,,116,0,116,0,,,,,,,,,,,,,,,,,,distance,new_sing,blue,116,113,100,5,5.2539722,f,1.0558902,2022_Jan_27_0833,60.1381131908,ProdSingRedo,001,Color 25,
,,,,117,0,117,0,,,,,,,,,,,,,,,,,,sound,new_silent,yellow,117,165,295,2,2.9050399,n,0.1584593,2022_Jan_27_0833,60.1381131908,ProdSingRedo,001,Color 25,
,,,,118,0,118,0,,,,,,,,,,,,,,,,,,profession,new_sing,blue,118,91,241,2,5.7871667,n,0.267361,2022_Jan_27_0833,60.1381131908,ProdSingRedo,001,Color 25,
,,,,119,0,119,0,,,,,,,,,,,,,,,,,,budget,aloud,red,119,36,34,4,5.4506303,f,0.4445834,2022_Jan_27_0833,60.1381131908,ProdSingRedo,001,Color 25,
,,,,120,0,120,0,,,,,,,,,,,,,,,,,,solution,silent,yellow,120,82,294,5,3.7152339,f,1.0680457,2022_Jan_27_0833,60.1381131908,ProdSingRedo,001,Color 25,
,,,,121,0,121,0,,,,,,,,,,,,,,,,,,enemy,silent,yellow,121,76,113,2,5.4602463,n,0.9034286,2022_Jan_27_0833,60.1381131908,ProdSingRedo,001,Color 25,
,,,,122,0,122,0,,,,,,,,,,,,,,,,,,bitter,new_silent,yellow,122,159,23,2,2.1265057,n,0.7965815,2022_Jan_27_0833,60.1381131908,ProdSingRedo,001,Color 25,
,,,,123,0,123,0,,,,,,,,,,,,,,,,,,impact,silent,yellow,123,66,157,5,4.3758565,f,0.536996,2022_Jan_27_0833,60.1381131908,ProdSingRedo,001,Color 25,
,,,,124,0,124,0,,,,,,,,,,,,,,,,,,degree,new_aloud,red,124,122,89,5,5.2120024,f,0.5154294,2022_Jan_27_0833,60.1381131908,ProdSingRedo,001,Color 25,
,,,,125,0,125,0,,,,,,,,,,,,,,,,,,afternoon,new_sing,blue,125,106,3,2,2.6787317,n,0.3758688,2022_Jan_27_0833,60.1381131908,ProdSingRedo,001,Color 25,
,,,,126,0,126,0,,,,,,,,,,,,,,,,,,group,new_sing,blue,126,94,143,1,9.5742934,n,0.7698663,2022_Jan_27_0833,60.1381131908,ProdSingRedo,001,Color 25,
,,,,127,0,127,0,,,,,,,,,,,,,,,,,,route,new_silent,yellow,127,150,267,4,2.8790254,f,1.2040279,2022_Jan_27_0833,60.1381131908,ProdSingRedo,001,Color 25,
,,,,128,0,128,0,,,,,,,,,,,,,,,,,,medicine,new_aloud,red,128,126,186,2,4.2117965,n,0.3340386,2022_Jan_27_0833,60.1381131908,ProdSingRedo,001,Color 25,
,,,,129,0,129,0,,,,,,,,,,,,,,,,,,country,aloud,red,129,56,73,5,4.4898886,f,0.39252,2022_Jan_27_0833,60.1381131908,ProdSingRedo,001,Color 25,
,,,,130,0,130,0,,,,,,,,,,,,,,,,,,range,silent,yellow,130,77,251,5,3.9005272,f,0.1835167,2022_Jan_27_0833,60.1381131908,ProdSingRedo,001,Color 25,
,,,,131,0,131,0,,,,,,,,,,,,,,,,,,color,new_aloud,red,131,149,56,2,2.5852357,n,0.2467363,2022_Jan_27_0833,60.1381131908,ProdSingRedo,001,Color 25,
,,,,132,0,132,0,,,,,,,,,,,,,,,,,,question,new_aloud,red,132,135,247,2,4.1995799,n,0.3425851,2022_Jan_27_0833,60.1381131908,ProdSingRedo,001,Color 25,
,,,,133,0,133,0,,,,,,,,,,,,,,,,,,entrance,sing,blue,133,21,115,1,3.257933,n,0.9863658,2022_Jan_27_0833,60.1381131908,ProdSingRedo,001,Color 25,
,,,,134,0,134,0,,,,,,,,,,,,,,,,,,danger,new_sing,blue,134,114,85,4,4.1940242,f,0.3558976,2022_Jan_27_0833,60.1381131908,ProdSingRedo,001,Color 25,
,,,,135,0,135,0,,,,,,,,,,,,,,,,,,pancakes,new_aloud,red,135,139,210,1,3.1772319,n,0.7370175,2022_Jan_27_0833,60.1381131908,ProdSingRedo,001,Color 25,
,,,,136,0,136,0,,,,,,,,,,,,,,,,,,captain,silent,yellow,136,81,41,5,3.2420452,f,0.7283569,2022_Jan_27_0833,60.1381131908,ProdSingRedo,001,Color 25,
,,,,137,0,137,0,,,,,,,,,,,,,,,,,,search,new_aloud,red,137,138,276,4,3.518288,f,0.391543,2022_Jan_27_0833,60.1381131908,ProdSingRedo,001,Color 25,
,,,,138,0,138,0,,,,,,,,,,,,,,,,,,appearance,new_silent,yellow,138,155,10,2,2.5875776,n,0.4001848,2022_Jan_27_0833,60.1381131908,ProdSingRedo,001,Color 25,
,,,,139,0,139,0,,,,,,,,,,,,,,,,,,youth,new_sing,blue,139,115,359,3,4.7753736,n,0.5890284,2022_Jan_27_0833,60.1381131908,ProdSingRedo,001,Color 25,
,,,,140,0,140,0,,,,,,,,,,,,,,,,,,direction,sing,blue,140,28,94,5,3.6904749,f,0.7238407,2022_Jan_27_0833,60.1381131908,ProdSingRedo,001,Color 25,
,,,,141,0,141,0,,,,,,,,,,,,,,,,,,article,silent,yellow,141,85,11,2,4.9746704,n,0.7422374,2022_Jan_27_0833,60.1381131908,ProdSingRedo,001,Color 25,
,,,,142,0,142,0,,,,,,,,,,,,,,,,,,quantity,aloud,red,142,37,245,1,1.7242402,n,1.9749576,2022_Jan_27_0833,60.1381131908,ProdSingRedo,001,Color 25,
,,,,143,0,143,0,,,,,,,,,,,,,,,,,,motion,new_sing,blue,143,100,194,3,3.8565671,n,0.9107661,2022_Jan_27_0833,60.1381131908,ProdSingRedo,001,Color 25,
,,,,144,0,144,0,,,,,,,,,,,,,,,,,,dispute,new_sing,blue,144,102,99,1,1.8893224,n,0.7114358,2022_Jan_27_0833,60.1381131908,ProdSingRedo,001,Color 25,
,,,,145,0,145,0,,,,,,,,,,,,,,,,,,candidate,silent,yellow,145,80,39,4,5.0147006,f,0.4390589,2022_Jan_27_0833,60.1381131908,ProdSingRedo,001,Color 25,
,,,,146,0,146,0,,,,,,,,,,,,,,,,,,swift,sing,blue,146,0,320,1,4.7325499,n,0.4462673,2022_Jan_27_0833,60.1381131908,ProdSingRedo,001,Color 25,
,,,,147,0,147,0,,,,,,,,,,,,,,,,,,beauty,aloud,red,147,42,18,5,5.2854081,f,0.4511974,2022_Jan_27_0833,60.1381131908,ProdSingRedo,001,Color 25,
,,,,148,0,148,0,,,,,,,,,,,,,,,,,,silence,new_aloud,red,148,120,288,5,7.3325758,f,0.4245193,2022_Jan_27_0833,60.1381131908,ProdSingRedo,001,Color 25,
,,,,149,0,149,0,,,,,,,,,,,,,,,,,,crime,aloud,red,149,39,78,2,6.6965331,n,1.534265,2022_Jan_27_0833,60.1381131908,ProdSingRedo,001,Color 25,
,,,,150,0,150,0,,,,,,,,,,,,,,,,,,count,silent,yellow,150,88,72,5,5.5341233,f,0.5861662,2022_Jan_27_0833,60.1381131908,ProdSingRedo,001,Color 25,
,,,,151,0,151,0,,,,,,,,,,,,,,,,,,judge,sing,blue,151,27,166,5,4.9221476,f,0.4675168,2022_Jan_27_0833,60.1381131908,ProdSingRedo,001,Color 25,
,,,,152,0,152,0,,,,,,,,,,,,,,,,,,signal,new_sing,blue,152,103,287,4,4.2894759,f,0.3472509,2022_Jan_27_0833,60.1381131908,ProdSingRedo,001,Color 25,
,,,,153,0,153,0,,,,,,,,,,,,,,,,,,under,aloud,red,153,40,343,2,4.4451664,n,0.4513323,2022_Jan_27_0833,60.1381131908,ProdSingRedo,001,Color 25,
,,,,154,0,154,0,,,,,,,,,,,,,,,,,,surface,sing,blue,154,23,316,6,4.1472655,f,0.5995201,2022_Jan_27_0833,60.1381131908,ProdSingRedo,001,Color 25,
,,,,155,0,155,0,,,,,,,,,,,,,,,,,,drove,aloud,red,155,38,106,3,4.0139944,n,1.71299,2022_Jan_27_0833,60.1381131908,ProdSingRedo,001,Color 25,
,,,,156,0,156,0,,,,,,,,,,,,,,,,,,hunger,aloud,red,156,59,155,5,4.2317512,f,0.4946471,2022_Jan_27_0833,60.1381131908,ProdSingRedo,001,Color 25,
,,,,157,0,157,0,,,,,,,,,,,,,,,,,,childhood,new_aloud,red,157,124,49,1,5.2547506,n,1.0562312,2022_Jan_27_0833,60.1381131908,ProdSingRedo,001,Color 25,
,,,,158,0,158,0,,,,,,,,,,,,,,,,,,region,new_sing,blue,158,96,256,3,4.5064003,n,1.0107366,2022_Jan_27_0833,60.1381131908,ProdSingRedo,001,Color 25,
,,,,159,0,159,0,,,,,,,,,,,,,,,,,,birth,sing,blue,159,24,22,5,4.1682782,f,0.4299342,2022_Jan_27_0833,60.1381131908,ProdSingRedo,001,Color 25,
,,,,160,0,160,0,,,,,,,,,,,,,,,,,,collection,new_aloud,red,160,121,54,2,4.3927372,n,0.8046914,2022_Jan_27_0833,60.1381131908,ProdSingRedo,001,Color 25,
,,,,161,0,161,0,,,,,,,,,,,,,,,,,,hearing,sing,blue,161,14,150,5,4.9087431,f,1.0182116,2022_Jan_27_0833,60.1381131908,ProdSingRedo,001,Color 25,
,,,,162,0,162,0,,,,,,,,,,,,,,,,,,present,aloud,red,162,33,231,4,3.7066498,f,0.4016471,2022_Jan_27_0833,60.1381131908,ProdSingRedo,001,Color 25,
,,,,163,0,163,0,,,,,,,,,,,,,,,,,,trash,new_aloud,red,163,137,337,2,1.7971896,n,0.3222229,2022_Jan_27_0833,60.1381131908,ProdSingRedo,001,Color 25,
,,,,164,0,164,0,,,,,,,,,,,,,,,,,,election,new_silent,yellow,164,157,109,5,4.644573,f,0.4461662,2022_Jan_27_0833,60.1381131908,ProdSingRedo,001,Color 25,
,,,,165,0,165,0,,,,,,,,,,,,,,,,,,message,silent,yellow,165,73,189,2,2.8798546,n,0.4085654,2022_Jan_27_0833,60.1381131908,ProdSingRedo,001,Color 25,
,,,,166,0,166,0,,,,,,,,,,,,,,,,,,build,silent,yellow,166,65,35,2,1.9266715,n,0.2738416,2022_Jan_27_0833,60.1381131908,ProdSingRedo,001,Color 25,
,,,,167,0,167,0,,,,,,,,,,,,,,,,,,employment,new_sing,blue,167,93,111,2,2.86481,n,0.2617051,2022_Jan_27_0833,60.1381131908,ProdSingRedo,001,Color 25,
,,,,168,0,168,0,,,,,,,,,,,,,,,,,,measure,new_sing,blue,168,112,184,5,4.0035546,f,0.3890393,2022_Jan_27_0833,60.1381131908,ProdSingRedo,001,Color 25,
,,,,169,0,169,0,,,,,,,,,,,,,,,,,,education,new_silent,yellow,169,161,108,5,4.4905869,f,0.3373594,2022_Jan_27_0833,60.1381131908,ProdSingRedo,001,Color 25,
,,,,170,0,170,0,,,,,,,,,,,,,,,,,,comedy,new_silent,yellow,170,167,58,4,3.5607285,f,0.1514923,2022_Jan_27_0833,60.1381131908,ProdSingRedo,001,Color 25,
,,,,171,0,171,0,,,,,,,,,,,,,,,,,,narrow,new_aloud,red,171,148,197,2,3.6669897,n,0.3653778,2022_Jan_27_0833,60.1381131908,ProdSingRedo,001,Color 25,
,,,,172,0,172,0,,,,,,,,,,,,,,,,,,chief,new_sing,blue,172,117,48,2,4.9135036,n,0.6494827,2022_Jan_27_0833,60.1381131908,ProdSingRedo,001,Color 25,
,,,,173,0,173,0,,,,,,,,,,,,,,,,,,research,silent,yellow,173,69,261,5,3.5853395,f,0.3687783,2022_Jan_27_0833,60.1381131908,ProdSingRedo,001,Color 25,
,,,,174,0,174,0,,,,,,,,,,,,,,,,,,weight,sing,blue,174,9,353,4,4.1449898,f,0.5019973,2022_Jan_27_0833,60.1381131908,ProdSingRedo,001,Color 25,
,,,,175,0,175,0,,,,,,,,,,,,,,,,,,curve,sing,blue,175,22,82,2,2.4340225,n,0.2807921,2022_Jan_27_0833,60.1381131908,ProdSingRedo,001,Color 25,
,,,,176,0,176,0,,,,,,,,,,,,,,,,,,order,new_aloud,red,176,134,207,5,3.9284317,f,0.4140762,2022_Jan_27_0833,60.1381131908,ProdSingRedo,001,Color 25,
,,,,177,0,177,0,,,,,,,,,,,,,,,,,,grade,sing,blue,177,3,140,2,4.0886053,n,0.3209415,2022_Jan_27_0833,60.1381131908,ProdSingRedo,001,Color 25,
,,,,178,0,178,0,,,,,,,,,,,,,,,,,,cross,new_aloud,red,178,136,80,1,2.8810952,n,0.3063307,2022_Jan_27_0833,60.1381131908,ProdSingRedo,001,Color 25,
,,,,179,0,179,0,,,,,,,,,,,,,,,,,,territory,silent,yellow,179,60,324,4,3.5866208,f,0.1731634,2022_Jan_27_0833,60.1381131908,ProdSingRedo,001,Color 25,
