StudyLoop.thisRepN,StudyLoop.thisTrialN,StudyLoop.thisN,StudyLoop.thisIndex,TestLoop.thisRepN,TestLoop.thisTrialN,TestLoop.thisN,TestLoop.thisIndex,textCondition.started,textCondition.stopped,keyCondition.keys,keyCondition.rt,keyCondition.started,keyCondition.stopped,Condition,stim_colors,color_sing,color_aloud,color_silent,textWelcome.started,textWelcome.stopped,keyWelcome.keys,keyWelcome.rt,keyWelcome.started,keyWelcome.stopped,textAloud.started,textAloud.stopped,textSilent.started,textSilent.stopped,textSing.started,textSing.stopped,textBlank500.started,textBlank500.stopped,study_word,study_type,study_color,study_num,study_word_num,textStudy.started,textStudy.stopped,keyStudy.keys,keyStudy.started,keyStudy.stopped,textTestInstructions.started,textTestInstructions.stopped,key_resp_3.keys,key_resp_3.rt,key_resp_3.started,key_resp_3.stopped,testWord,testType,testColor,testN,test_num,test_word_num,textConf.started,textConf.stopped,textConfScale.started,textConfScale.stopped,keyConf.keys,keyConf.rt,keyConf.started,keyConf.stopped,textTestBlank.started,textTestBlank.stopped,textRKN.started,textRKN.stopped,textRKNScale.started,textRKNScale.stopped,keyRKN.keys,keyRKN.rt,keyRKN.started,keyRKN.stopped,textEnd.started,textEnd.stopped,participant,session,date,expName,psychopyVersion,frameRate,
,,,,,,,,29.008462699999882,None,y,1.6477748999998312,29.008462699999882,None,,,,,,,,,,,,,,,,,,,,,,,,,,,,,,,,,,,,,,,,,,,,,,,,,,,,,,,,,,,,,,color12,001,2020_Feb_04_1307,ProdSingRedo,3.2.4,60.01147419390786,
,,,,,,,,,,,,,,ColoredTest,"['red', 'blue', 'yellow']",red,blue,yellow,30.703613599999926,None,space,117.97713550000003,30.703613599999926,None,,,,,,,,,,,,,,,,,,,,,,,,,,,,,,,,,,,,,,,,,,,,,,,,,,,color12,001,2020_Feb_04_1307,ProdSingRedo,3.2.4,60.01147419390786,
0,0,0,0,,,,,,,,,,,,,,,,,,,,,,30.703613599999926,None,30.703613599999926,None,30.703613599999926,None,151.24245799999994,None,instrument,sing,red,4,163,149.23981849999996,None,None,149.23981849999996,None,,,,,,,,,,,,,,,,,,,,,,,,,,,,,,,,,color12,001,2020_Feb_04_1307,ProdSingRedo,3.2.4,60.01147419390786,
1,0,1,0,,,,,,,,,,,,,,,,,,,,,,,,,,,,153.76252739999995,None,shape,silent,yellow,81,282,151.75118509999993,None,None,151.75118509999993,None,,,,,,,,,,,,,,,,,,,,,,,,,,,,,,,,,color12,001,2020_Feb_04_1307,ProdSingRedo,3.2.4,60.01147419390786,
2,0,2,0,,,,,,,,,,,,,,,,,,,,,,,,,,,,156.27419510000004,None,comfort,sing,red,16,59,154.277916,None,None,154.277916,None,,,,,,,,,,,,,,,,,,,,,,,,,,,,,,,,,color12,001,2020_Feb_04_1307,ProdSingRedo,3.2.4,60.01147419390786,
3,0,3,0,,,,,,,,,,,,,,,,,,,,,,,,,,,,158.7924613,None,pressure,silent,yellow,80,232,156.79737669999986,None,None,156.79737669999986,None,,,,,,,,,,,,,,,,,,,,,,,,,,,,,,,,,color12,001,2020_Feb_04_1307,ProdSingRedo,3.2.4,60.01147419390786,
4,0,4,0,,,,,,,,,,,,,,,,,,,,,,,,,,,,161.30817320000006,None,smell,aloud,blue,52,291,159.30922499999997,None,None,159.30922499999997,None,,,,,,,,,,,,,,,,,,,,,,,,,,,,,,,,,color12,001,2020_Feb_04_1307,ProdSingRedo,3.2.4,60.01147419390786,
5,0,5,0,,,,,,,,,,,,,,,,,,,,,,,,,,,,163.82126459999995,None,produce,aloud,blue,50,239,161.8262118,None,None,161.8262118,None,,,,,,,,,,,,,,,,,,,,,,,,,,,,,,,,,color12,001,2020_Feb_04_1307,ProdSingRedo,3.2.4,60.01147419390786,
6,0,6,0,,,,,,,,,,,,,,,,,,,,,,,,,,,,166.34069239999985,None,worker,silent,yellow,83,356,164.33999019999987,None,None,164.33999019999987,None,,,,,,,,,,,,,,,,,,,,,,,,,,,,,,,,,color12,001,2020_Feb_04_1307,ProdSingRedo,3.2.4,60.01147419390786,
7,0,7,0,,,,,,,,,,,,,,,,,,,,,,,,,,,,168.85254559999998,None,session,sing,red,20,281,166.85911119999992,None,None,166.85911119999992,None,,,,,,,,,,,,,,,,,,,,,,,,,,,,,,,,,color12,001,2020_Feb_04_1307,ProdSingRedo,3.2.4,60.01147419390786,
8,0,8,0,,,,,,,,,,,,,,,,,,,,,,,,,,,,171.37108280000007,None,trial,aloud,blue,58,341,169.37341549999996,None,None,169.37341549999996,None,,,,,,,,,,,,,,,,,,,,,,,,,,,,,,,,,color12,001,2020_Feb_04_1307,ProdSingRedo,3.2.4,60.01147419390786,
9,0,9,0,,,,,,,,,,,,,,,,,,,,,,,,,,,,173.88777579999987,None,couch,silent,yellow,78,70,171.88684130000001,None,None,171.88684130000001,None,,,,,,,,,,,,,,,,,,,,,,,,,,,,,,,,,color12,001,2020_Feb_04_1307,ProdSingRedo,3.2.4,60.01147419390786,
10,0,10,0,,,,,,,,,,,,,,,,,,,,,,,,,,,,176.4023990999999,None,primary,aloud,blue,59,234,174.41454049999993,None,None,174.41454049999993,None,,,,,,,,,,,,,,,,,,,,,,,,,,,,,,,,,color12,001,2020_Feb_04_1307,ProdSingRedo,3.2.4,60.01147419390786,
11,0,11,0,,,,,,,,,,,,,,,,,,,,,,,,,,,,178.91840230000003,None,relation,sing,red,21,257,176.92052919999992,None,None,176.92052919999992,None,,,,,,,,,,,,,,,,,,,,,,,,,,,,,,,,,color12,001,2020_Feb_04_1307,ProdSingRedo,3.2.4,60.01147419390786,
12,0,12,0,,,,,,,,,,,,,,,,,,,,,,,,,,,,181.4339425999999,None,executive,sing,red,24,122,179.44782439999994,None,None,179.44782439999994,None,,,,,,,,,,,,,,,,,,,,,,,,,,,,,,,,,color12,001,2020_Feb_04_1307,ProdSingRedo,3.2.4,60.01147419390786,
13,0,13,0,,,,,,,,,,,,,,,,,,,,,,,,,,,,183.94965439999987,None,health,silent,yellow,82,149,181.95012610000003,None,None,181.95012610000003,None,,,,,,,,,,,,,,,,,,,,,,,,,,,,,,,,,color12,001,2020_Feb_04_1307,ProdSingRedo,3.2.4,60.01147419390786,
14,0,14,0,,,,,,,,,,,,,,,,,,,,,,,,,,,,186.46520439999995,None,population,sing,red,5,227,184.46722649999992,None,None,184.46722649999992,None,,,,,,,,,,,,,,,,,,,,,,,,,,,,,,,,,color12,001,2020_Feb_04_1307,ProdSingRedo,3.2.4,60.01147419390786,
15,0,15,0,,,,,,,,,,,,,,,,,,,,,,,,,,,,188.98135109999998,None,majority,sing,red,1,176,186.9765892999999,None,None,186.9765892999999,None,,,,,,,,,,,,,,,,,,,,,,,,,,,,,,,,,color12,001,2020_Feb_04_1307,ProdSingRedo,3.2.4,60.01147419390786,
16,0,16,0,,,,,,,,,,,,,,,,,,,,,,,,,,,,191.49672329999999,None,recall,aloud,blue,31,255,189.4973786999999,None,None,189.4973786999999,None,,,,,,,,,,,,,,,,,,,,,,,,,,,,,,,,,color12,001,2020_Feb_04_1307,ProdSingRedo,3.2.4,60.01147419390786,
17,0,17,0,,,,,,,,,,,,,,,,,,,,,,,,,,,,194.01243849999992,None,position,sing,red,6,229,192.01566989999992,None,None,192.01566989999992,None,,,,,,,,,,,,,,,,,,,,,,,,,,,,,,,,,color12,001,2020_Feb_04_1307,ProdSingRedo,3.2.4,60.01147419390786,
18,0,18,0,,,,,,,,,,,,,,,,,,,,,,,,,,,,196.52814309999985,None,passage,sing,red,17,212,194.52882099999988,None,None,194.52882099999988,None,,,,,,,,,,,,,,,,,,,,,,,,,,,,,,,,,color12,001,2020_Feb_04_1307,ProdSingRedo,3.2.4,60.01147419390786,
19,0,19,0,,,,,,,,,,,,,,,,,,,,,,,,,,,,199.04376720000005,None,height,silent,yellow,73,152,197.03922850000004,None,None,197.03922850000004,None,,,,,,,,,,,,,,,,,,,,,,,,,,,,,,,,,color12,001,2020_Feb_04_1307,ProdSingRedo,3.2.4,60.01147419390786,
20,0,20,0,,,,,,,,,,,,,,,,,,,,,,,,,,,,201.5594122,None,tragedy,aloud,blue,57,335,199.5457211999999,None,None,199.5457211999999,None,,,,,,,,,,,,,,,,,,,,,,,,,,,,,,,,,color12,001,2020_Feb_04_1307,ProdSingRedo,3.2.4,60.01147419390786,
21,0,21,0,,,,,,,,,,,,,,,,,,,,,,,,,,,,204.0753221,None,store,aloud,blue,40,305,202.07483320000006,None,None,202.07483320000006,None,,,,,,,,,,,,,,,,,,,,,,,,,,,,,,,,,color12,001,2020_Feb_04_1307,ProdSingRedo,3.2.4,60.01147419390786,
22,0,22,0,,,,,,,,,,,,,,,,,,,,,,,,,,,,206.58804370000007,None,motion,aloud,blue,49,194,204.59210289999987,None,None,204.59210289999987,None,,,,,,,,,,,,,,,,,,,,,,,,,,,,,,,,,color12,001,2020_Feb_04_1307,ProdSingRedo,3.2.4,60.01147419390786,
23,0,23,0,,,,,,,,,,,,,,,,,,,,,,,,,,,,209.10671609999986,None,error,silent,yellow,64,117,207.1126766,None,None,207.1126766,None,,,,,,,,,,,,,,,,,,,,,,,,,,,,,,,,,color12,001,2020_Feb_04_1307,ProdSingRedo,3.2.4,60.01147419390786,
24,0,24,0,,,,,,,,,,,,,,,,,,,,,,,,,,,,211.62220419999994,None,season,aloud,blue,33,277,209.62341330000004,None,None,209.62341330000004,None,,,,,,,,,,,,,,,,,,,,,,,,,,,,,,,,,color12,001,2020_Feb_04_1307,ProdSingRedo,3.2.4,60.01147419390786,
25,0,25,0,,,,,,,,,,,,,,,,,,,,,,,,,,,,214.1351975,None,article,aloud,blue,36,11,212.13917779999997,None,None,212.13917779999997,None,,,,,,,,,,,,,,,,,,,,,,,,,,,,,,,,,color12,001,2020_Feb_04_1307,ProdSingRedo,3.2.4,60.01147419390786,
26,0,26,0,,,,,,,,,,,,,,,,,,,,,,,,,,,,216.65378429999987,None,silence,silent,yellow,88,288,214.65216029999988,None,None,214.65216029999988,None,,,,,,,,,,,,,,,,,,,,,,,,,,,,,,,,,color12,001,2020_Feb_04_1307,ProdSingRedo,3.2.4,60.01147419390786,
27,0,27,0,,,,,,,,,,,,,,,,,,,,,,,,,,,,219.16936480000004,None,appearance,aloud,blue,42,10,217.17380980000007,None,None,217.17380980000007,None,,,,,,,,,,,,,,,,,,,,,,,,,,,,,,,,,color12,001,2020_Feb_04_1307,ProdSingRedo,3.2.4,60.01147419390786,
28,0,28,0,,,,,,,,,,,,,,,,,,,,,,,,,,,,221.68521050000004,None,blind,sing,red,2,24,219.68941799999993,None,None,219.68941799999993,None,,,,,,,,,,,,,,,,,,,,,,,,,,,,,,,,,color12,001,2020_Feb_04_1307,ProdSingRedo,3.2.4,60.01147419390786,
29,0,29,0,,,,,,,,,,,,,,,,,,,,,,,,,,,,224.2009301999999,None,brilliant,silent,yellow,74,30,222.20352559999992,None,None,222.20352559999992,None,,,,,,,,,,,,,,,,,,,,,,,,,,,,,,,,,color12,001,2020_Feb_04_1307,ProdSingRedo,3.2.4,60.01147419390786,
30,0,30,0,,,,,,,,,,,,,,,,,,,,,,,,,,,,226.71660339999994,None,signal,aloud,blue,48,287,224.71788259999994,None,None,224.71788259999994,None,,,,,,,,,,,,,,,,,,,,,,,,,,,,,,,,,color12,001,2020_Feb_04_1307,ProdSingRedo,3.2.4,60.01147419390786,
31,0,31,0,,,,,,,,,,,,,,,,,,,,,,,,,,,,229.22953759999996,None,sleep,silent,yellow,66,290,227.23283919999994,None,None,227.23283919999994,None,,,,,,,,,,,,,,,,,,,,,,,,,,,,,,,,,color12,001,2020_Feb_04_1307,ProdSingRedo,3.2.4,60.01147419390786,
32,0,32,0,,,,,,,,,,,,,,,,,,,,,,,,,,,,231.7515335999999,None,testimony,silent,yellow,87,325,229.7510949,None,None,229.7510949,None,,,,,,,,,,,,,,,,,,,,,,,,,,,,,,,,,color12,001,2020_Feb_04_1307,ProdSingRedo,3.2.4,60.01147419390786,
33,0,33,0,,,,,,,,,,,,,,,,,,,,,,,,,,,,234.26355639999997,None,quantity,aloud,blue,56,245,232.2680292,None,None,232.2680292,None,,,,,,,,,,,,,,,,,,,,,,,,,,,,,,,,,color12,001,2020_Feb_04_1307,ProdSingRedo,3.2.4,60.01147419390786,
34,0,34,0,,,,,,,,,,,,,,,,,,,,,,,,,,,,236.77655179999988,None,crime,aloud,blue,38,78,234.77844419999997,None,None,234.77844419999997,None,,,,,,,,,,,,,,,,,,,,,,,,,,,,,,,,,color12,001,2020_Feb_04_1307,ProdSingRedo,3.2.4,60.01147419390786,
35,0,35,0,,,,,,,,,,,,,,,,,,,,,,,,,,,,239.29501959999993,None,short,sing,red,9,285,237.29544639999995,None,None,237.29544639999995,None,,,,,,,,,,,,,,,,,,,,,,,,,,,,,,,,,color12,001,2020_Feb_04_1307,ProdSingRedo,3.2.4,60.01147419390786,
36,0,36,0,,,,,,,,,,,,,,,,,,,,,,,,,,,,241.81181219999985,None,science,silent,yellow,72,275,239.81427269999995,None,None,239.81427269999995,None,,,,,,,,,,,,,,,,,,,,,,,,,,,,,,,,,color12,001,2020_Feb_04_1307,ProdSingRedo,3.2.4,60.01147419390786,
37,0,37,0,,,,,,,,,,,,,,,,,,,,,,,,,,,,244.32745490000002,None,owner,silent,yellow,89,208,242.330334,None,None,242.330334,None,,,,,,,,,,,,,,,,,,,,,,,,,,,,,,,,,color12,001,2020_Feb_04_1307,ProdSingRedo,3.2.4,60.01147419390786,
38,0,38,0,,,,,,,,,,,,,,,,,,,,,,,,,,,,246.84257679999996,None,literature,sing,red,26,173,244.84898840000005,None,None,244.84898840000005,None,,,,,,,,,,,,,,,,,,,,,,,,,,,,,,,,,color12,001,2020_Feb_04_1307,ProdSingRedo,3.2.4,60.01147419390786,
39,0,39,0,,,,,,,,,,,,,,,,,,,,,,,,,,,,249.3608122999999,None,figure,aloud,blue,53,128,247.36269119999997,None,None,247.36269119999997,None,,,,,,,,,,,,,,,,,,,,,,,,,,,,,,,,,color12,001,2020_Feb_04_1307,ProdSingRedo,3.2.4,60.01147419390786,
40,0,40,0,,,,,,,,,,,,,,,,,,,,,,,,,,,,251.87354529999993,None,scale,aloud,blue,30,272,249.87141780000002,None,None,249.87141780000002,None,,,,,,,,,,,,,,,,,,,,,,,,,,,,,,,,,color12,001,2020_Feb_04_1307,ProdSingRedo,3.2.4,60.01147419390786,
41,0,41,0,,,,,,,,,,,,,,,,,,,,,,,,,,,,254.39221659999998,None,victory,sing,red,10,346,252.38923479999994,None,None,252.38923479999994,None,,,,,,,,,,,,,,,,,,,,,,,,,,,,,,,,,color12,001,2020_Feb_04_1307,ProdSingRedo,3.2.4,60.01147419390786,
42,0,42,0,,,,,,,,,,,,,,,,,,,,,,,,,,,,256.90576740000006,None,collection,aloud,blue,45,54,254.90831890000004,None,None,254.90831890000004,None,,,,,,,,,,,,,,,,,,,,,,,,,,,,,,,,,color12,001,2020_Feb_04_1307,ProdSingRedo,3.2.4,60.01147419390786,
43,0,43,0,,,,,,,,,,,,,,,,,,,,,,,,,,,,259.42079539999986,None,question,sing,red,12,247,257.4256395,None,None,257.4256395,None,,,,,,,,,,,,,,,,,,,,,,,,,,,,,,,,,color12,001,2020_Feb_04_1307,ProdSingRedo,3.2.4,60.01147419390786,
44,0,44,0,,,,,,,,,,,,,,,,,,,,,,,,,,,,261.93631119999986,None,smooth,sing,red,29,292,259.93767750000006,None,None,259.93767750000006,None,,,,,,,,,,,,,,,,,,,,,,,,,,,,,,,,,color12,001,2020_Feb_04_1307,ProdSingRedo,3.2.4,60.01147419390786,
45,0,45,0,,,,,,,,,,,,,,,,,,,,,,,,,,,,264.45215499999995,None,crisis,aloud,blue,39,79,262.45285250000006,None,None,262.45285250000006,None,,,,,,,,,,,,,,,,,,,,,,,,,,,,,,,,,color12,001,2020_Feb_04_1307,ProdSingRedo,3.2.4,60.01147419390786,
46,0,46,0,,,,,,,,,,,,,,,,,,,,,,,,,,,,266.96782239999993,None,cousin,sing,red,27,76,264.96798450000006,None,None,264.96798450000006,None,,,,,,,,,,,,,,,,,,,,,,,,,,,,,,,,,color12,001,2020_Feb_04_1307,ProdSingRedo,3.2.4,60.01147419390786,
47,0,47,0,,,,,,,,,,,,,,,,,,,,,,,,,,,,269.48358400000006,None,audience,silent,yellow,69,14,267.4809395,None,None,267.4809395,None,,,,,,,,,,,,,,,,,,,,,,,,,,,,,,,,,color12,001,2020_Feb_04_1307,ProdSingRedo,3.2.4,60.01147419390786,
48,0,48,0,,,,,,,,,,,,,,,,,,,,,,,,,,,,271.99917230000005,None,object,silent,yellow,61,204,269.9973101999999,None,None,269.9973101999999,None,,,,,,,,,,,,,,,,,,,,,,,,,,,,,,,,,color12,001,2020_Feb_04_1307,ProdSingRedo,3.2.4,60.01147419390786,
49,0,49,0,,,,,,,,,,,,,,,,,,,,,,,,,,,,274.51482910000004,None,impact,aloud,blue,51,157,272.51627009999993,None,None,272.51627009999993,None,,,,,,,,,,,,,,,,,,,,,,,,,,,,,,,,,color12,001,2020_Feb_04_1307,ProdSingRedo,3.2.4,60.01147419390786,
50,0,50,0,,,,,,,,,,,,,,,,,,,,,,,,,,,,277.0307077,None,engineer,aloud,blue,47,114,275.0326577000001,None,None,275.0326577000001,None,,,,,,,,,,,,,,,,,,,,,,,,,,,,,,,,,color12,001,2020_Feb_04_1307,ProdSingRedo,3.2.4,60.01147419390786,
51,0,51,0,,,,,,,,,,,,,,,,,,,,,,,,,,,,279.54637409999987,None,trash,sing,red,8,337,277.54689989999997,None,None,277.54689989999997,None,,,,,,,,,,,,,,,,,,,,,,,,,,,,,,,,,color12,001,2020_Feb_04_1307,ProdSingRedo,3.2.4,60.01147419390786,
52,0,52,0,,,,,,,,,,,,,,,,,,,,,,,,,,,,282.06193200000007,None,build,silent,yellow,79,35,280.0625273999999,None,None,280.0625273999999,None,,,,,,,,,,,,,,,,,,,,,,,,,,,,,,,,,color12,001,2020_Feb_04_1307,ProdSingRedo,3.2.4,60.01147419390786,
53,0,53,0,,,,,,,,,,,,,,,,,,,,,,,,,,,,284.57787340000004,None,angle,aloud,blue,44,7,282.57859570000005,None,None,282.57859570000005,None,,,,,,,,,,,,,,,,,,,,,,,,,,,,,,,,,color12,001,2020_Feb_04_1307,ProdSingRedo,3.2.4,60.01147419390786,
54,0,54,0,,,,,,,,,,,,,,,,,,,,,,,,,,,,287.09393739999996,None,measure,aloud,blue,34,184,285.0952826,None,None,285.0952826,None,,,,,,,,,,,,,,,,,,,,,,,,,,,,,,,,,color12,001,2020_Feb_04_1307,ProdSingRedo,3.2.4,60.01147419390786,
55,0,55,0,,,,,,,,,,,,,,,,,,,,,,,,,,,,289.60924079999995,None,strength,silent,yellow,84,310,287.60866039999996,None,None,287.60866039999996,None,,,,,,,,,,,,,,,,,,,,,,,,,,,,,,,,,color12,001,2020_Feb_04_1307,ProdSingRedo,3.2.4,60.01147419390786,
56,0,56,0,,,,,,,,,,,,,,,,,,,,,,,,,,,,292.12483240000006,None,track,sing,red,25,334,290.1246231,None,None,290.1246231,None,,,,,,,,,,,,,,,,,,,,,,,,,,,,,,,,,color12,001,2020_Feb_04_1307,ProdSingRedo,3.2.4,60.01147419390786,
57,0,57,0,,,,,,,,,,,,,,,,,,,,,,,,,,,,294.64063009999995,None,finance,silent,yellow,70,129,292.64306650000003,None,None,292.64306650000003,None,,,,,,,,,,,,,,,,,,,,,,,,,,,,,,,,,color12,001,2020_Feb_04_1307,ProdSingRedo,3.2.4,60.01147419390786,
58,0,58,0,,,,,,,,,,,,,,,,,,,,,,,,,,,,297.15634150000005,None,exchange,silent,yellow,67,121,295.1587972,None,None,295.1587972,None,,,,,,,,,,,,,,,,,,,,,,,,,,,,,,,,,color12,001,2020_Feb_04_1307,ProdSingRedo,3.2.4,60.01147419390786,
59,0,59,0,,,,,,,,,,,,,,,,,,,,,,,,,,,,299.67197869999995,None,nature,sing,red,3,200,297.67328210000005,None,None,297.67328210000005,None,,,,,,,,,,,,,,,,,,,,,,,,,,,,,,,,,color12,001,2020_Feb_04_1307,ProdSingRedo,3.2.4,60.01147419390786,
60,0,60,0,,,,,,,,,,,,,,,,,,,,,,,,,,,,302.1876818999999,None,sweet,silent,yellow,77,319,300.18748989999995,None,None,300.18748989999995,None,,,,,,,,,,,,,,,,,,,,,,,,,,,,,,,,,color12,001,2020_Feb_04_1307,ProdSingRedo,3.2.4,60.01147419390786,
61,0,61,0,,,,,,,,,,,,,,,,,,,,,,,,,,,,304.7034664999999,None,attack,sing,red,23,13,302.70411250000006,None,None,302.70411250000006,None,,,,,,,,,,,,,,,,,,,,,,,,,,,,,,,,,color12,001,2020_Feb_04_1307,ProdSingRedo,3.2.4,60.01147419390786,
62,0,62,0,,,,,,,,,,,,,,,,,,,,,,,,,,,,307.21904819999986,None,drama,sing,red,22,103,305.2189315999999,None,None,305.2189315999999,None,,,,,,,,,,,,,,,,,,,,,,,,,,,,,,,,,color12,001,2020_Feb_04_1307,ProdSingRedo,3.2.4,60.01147419390786,
63,0,63,0,,,,,,,,,,,,,,,,,,,,,,,,,,,,309.7348761999999,None,platform,aloud,blue,43,224,307.73600239999996,None,None,307.73600239999996,None,,,,,,,,,,,,,,,,,,,,,,,,,,,,,,,,,color12,001,2020_Feb_04_1307,ProdSingRedo,3.2.4,60.01147419390786,
64,0,64,0,,,,,,,,,,,,,,,,,,,,,,,,,,,,312.2504712,None,block,aloud,blue,55,25,310.25065389999986,None,None,310.25065389999986,None,,,,,,,,,,,,,,,,,,,,,,,,,,,,,,,,,color12,001,2020_Feb_04_1307,ProdSingRedo,3.2.4,60.01147419390786,
65,0,65,0,,,,,,,,,,,,,,,,,,,,,,,,,,,,314.76656409999987,None,spoke,sing,red,11,300,312.76614599999994,None,None,312.76614599999994,None,,,,,,,,,,,,,,,,,,,,,,,,,,,,,,,,,color12,001,2020_Feb_04_1307,ProdSingRedo,3.2.4,60.01147419390786,
66,0,66,0,,,,,,,,,,,,,,,,,,,,,,,,,,,,317.2826361,None,running,sing,red,19,268,315.2867825999999,None,None,315.2867825999999,None,,,,,,,,,,,,,,,,,,,,,,,,,,,,,,,,,color12,001,2020_Feb_04_1307,ProdSingRedo,3.2.4,60.01147419390786,
67,0,67,0,,,,,,,,,,,,,,,,,,,,,,,,,,,,319.7949879,None,corner,silent,yellow,85,69,317.7922653999999,None,None,317.7922653999999,None,,,,,,,,,,,,,,,,,,,,,,,,,,,,,,,,,color12,001,2020_Feb_04_1307,ProdSingRedo,3.2.4,60.01147419390786,
68,0,68,0,,,,,,,,,,,,,,,,,,,,,,,,,,,,322.3133198999999,None,shock,silent,yellow,62,284,320.30945759999986,None,None,320.30945759999986,None,,,,,,,,,,,,,,,,,,,,,,,,,,,,,,,,,color12,001,2020_Feb_04_1307,ProdSingRedo,3.2.4,60.01147419390786,
69,0,69,0,,,,,,,,,,,,,,,,,,,,,,,,,,,,324.82906619999994,None,guide,sing,red,15,147,322.82799950000003,None,None,322.82799950000003,None,,,,,,,,,,,,,,,,,,,,,,,,,,,,,,,,,color12,001,2020_Feb_04_1307,ProdSingRedo,3.2.4,60.01147419390786,
70,0,70,0,,,,,,,,,,,,,,,,,,,,,,,,,,,,327.3447524999999,None,birth,sing,red,18,22,325.34479970000007,None,None,325.34479970000007,None,,,,,,,,,,,,,,,,,,,,,,,,,,,,,,,,,color12,001,2020_Feb_04_1307,ProdSingRedo,3.2.4,60.01147419390786,
71,0,71,0,,,,,,,,,,,,,,,,,,,,,,,,,,,,329.8575601,None,country,aloud,blue,54,73,327.8624313,None,None,327.8624313,None,,,,,,,,,,,,,,,,,,,,,,,,,,,,,,,,,color12,001,2020_Feb_04_1307,ProdSingRedo,3.2.4,60.01147419390786,
72,0,72,0,,,,,,,,,,,,,,,,,,,,,,,,,,,,332.37618810000004,None,benefit,aloud,blue,37,20,330.3808471,None,None,330.3808471,None,,,,,,,,,,,,,,,,,,,,,,,,,,,,,,,,,color12,001,2020_Feb_04_1307,ProdSingRedo,3.2.4,60.01147419390786,
73,0,73,0,,,,,,,,,,,,,,,,,,,,,,,,,,,,334.8918065999999,None,sound,silent,yellow,68,295,332.89271340000005,None,None,332.89271340000005,None,,,,,,,,,,,,,,,,,,,,,,,,,,,,,,,,,color12,001,2020_Feb_04_1307,ProdSingRedo,3.2.4,60.01147419390786,
74,0,74,0,,,,,,,,,,,,,,,,,,,,,,,,,,,,337.40455999999995,None,account,sing,red,7,1,335.4087431999999,None,None,335.4087431999999,None,,,,,,,,,,,,,,,,,,,,,,,,,,,,,,,,,color12,001,2020_Feb_04_1307,ProdSingRedo,3.2.4,60.01147419390786,
75,0,75,0,,,,,,,,,,,,,,,,,,,,,,,,,,,,339.9204170999999,None,interior,aloud,blue,32,164,337.92162929999995,None,None,337.92162929999995,None,,,,,,,,,,,,,,,,,,,,,,,,,,,,,,,,,color12,001,2020_Feb_04_1307,ProdSingRedo,3.2.4,60.01147419390786,
76,0,76,0,,,,,,,,,,,,,,,,,,,,,,,,,,,,342.43972080000003,None,accident,silent,yellow,86,0,340.43926579999993,None,None,340.43926579999993,None,,,,,,,,,,,,,,,,,,,,,,,,,,,,,,,,,color12,001,2020_Feb_04_1307,ProdSingRedo,3.2.4,60.01147419390786,
77,0,77,0,,,,,,,,,,,,,,,,,,,,,,,,,,,,344.95466020000003,None,carry,aloud,blue,35,43,342.95578449999994,None,None,342.95578449999994,None,,,,,,,,,,,,,,,,,,,,,,,,,,,,,,,,,color12,001,2020_Feb_04_1307,ProdSingRedo,3.2.4,60.01147419390786,
78,0,78,0,,,,,,,,,,,,,,,,,,,,,,,,,,,,347.47031519999996,None,estate,aloud,blue,46,119,345.4742564999999,None,None,345.4742564999999,None,,,,,,,,,,,,,,,,,,,,,,,,,,,,,,,,,color12,001,2020_Feb_04_1307,ProdSingRedo,3.2.4,60.01147419390786,
79,0,79,0,,,,,,,,,,,,,,,,,,,,,,,,,,,,350.01299560000007,None,leader,sing,red,14,168,347.98976429999993,None,None,347.98976429999993,None,,,,,,,,,,,,,,,,,,,,,,,,,,,,,,,,,color12,001,2020_Feb_04_1307,ProdSingRedo,3.2.4,60.01147419390786,
80,0,80,0,,,,,,,,,,,,,,,,,,,,,,,,,,,,352.53515790000006,None,search,sing,red,28,276,350.5228844999999,None,None,350.5228844999999,None,,,,,,,,,,,,,,,,,,,,,,,,,,,,,,,,,color12,001,2020_Feb_04_1307,ProdSingRedo,3.2.4,60.01147419390786,
81,0,81,0,,,,,,,,,,,,,,,,,,,,,,,,,,,,355.05071139999995,None,bureau,silent,yellow,76,37,353.05138469999997,None,None,353.05138469999997,None,,,,,,,,,,,,,,,,,,,,,,,,,,,,,,,,,color12,001,2020_Feb_04_1307,ProdSingRedo,3.2.4,60.01147419390786,
82,0,82,0,,,,,,,,,,,,,,,,,,,,,,,,,,,,357.5677954,None,conference,silent,yellow,60,66,355.56377840000005,None,None,355.56377840000005,None,,,,,,,,,,,,,,,,,,,,,,,,,,,,,,,,,color12,001,2020_Feb_04_1307,ProdSingRedo,3.2.4,60.01147419390786,
83,0,83,0,,,,,,,,,,,,,,,,,,,,,,,,,,,,360.08305700000005,None,member,sing,red,13,188,358.0867860999999,None,None,358.0867860999999,None,,,,,,,,,,,,,,,,,,,,,,,,,,,,,,,,,color12,001,2020_Feb_04_1307,ProdSingRedo,3.2.4,60.01147419390786,
84,0,84,0,,,,,,,,,,,,,,,,,,,,,,,,,,,,362.5978977,None,volume,silent,yellow,71,349,360.6004522999999,None,None,360.6004522999999,None,,,,,,,,,,,,,,,,,,,,,,,,,,,,,,,,,color12,001,2020_Feb_04_1307,ProdSingRedo,3.2.4,60.01147419390786,
85,0,85,0,,,,,,,,,,,,,,,,,,,,,,,,,,,,365.1136710999999,None,second,silent,yellow,75,278,363.11788150000007,None,None,363.11788150000007,None,,,,,,,,,,,,,,,,,,,,,,,,,,,,,,,,,color12,001,2020_Feb_04_1307,ProdSingRedo,3.2.4,60.01147419390786,
86,0,86,0,,,,,,,,,,,,,,,,,,,,,,,,,,,,367.6292690999999,None,bicycle,silent,yellow,65,21,365.63147879999997,None,None,365.63147879999997,None,,,,,,,,,,,,,,,,,,,,,,,,,,,,,,,,,color12,001,2020_Feb_04_1307,ProdSingRedo,3.2.4,60.01147419390786,
87,0,87,0,,,,,,,,,,,,,,,,,,,,,,,,,,,,370.1449319999999,None,color,aloud,blue,41,56,368.1442248999999,None,None,368.1442248999999,None,,,,,,,,,,,,,,,,,,,,,,,,,,,,,,,,,color12,001,2020_Feb_04_1307,ProdSingRedo,3.2.4,60.01147419390786,
88,0,88,0,,,,,,,,,,,,,,,,,,,,,,,,,,,,372.66067769999995,None,force,silent,yellow,63,131,370.65997249999987,None,None,370.65997249999987,None,,,,,,,,,,,,,,,,,,,,,,,,,,,,,,,,,color12,001,2020_Feb_04_1307,ProdSingRedo,3.2.4,60.01147419390786,
89,0,89,0,,,,,,,,,,,,,,,,,,,,,,,,,,,,375.1796915,None,disease,sing,red,0,97,373.1810499999999,None,None,373.1810499999999,None,,,,,,,,,,,,,,,,,,,,,,,,,,,,,,,,,color12,001,2020_Feb_04_1307,ProdSingRedo,3.2.4,60.01147419390786,
,,,,,,,,,,,,,,,,,,,,,,,,,,,,,,,,,,,,,,,,,,,375.6770546,None,k,88.93524249999996,375.6770546,None,,,,,,,,,,,,,,,,,,,,,,,,,,,color12,001,2020_Feb_04_1307,ProdSingRedo,3.2.4,60.01147419390786,
,,,,0,0,0,0,,,,,,,,,,,,,,,,,,,,,,,,476.0082596,None,,,,,,,,,,,,,,,,,history,new_sing,red,0,96,153,465.176154,None,465.176154,None,1,7.292509000000109,465.176154,None,472.5056070999999,None,473.0395527999999,None,473.0395527999999,None,f,2.916789199999812,473.0395527999999,None,,,color12,001,2020_Feb_04_1307,ProdSingRedo,3.2.4,60.01147419390786,
,,,,1,0,1,0,,,,,,,,,,,,,,,,,,,,,,,,483.42012679999993,None,,,,,,,,,,,,,,,,,division,new_silent,yellow,1,178,101,476.5459266999999,None,476.5459266999999,None,3,4.696351199999981,476.5459266999999,None,481.28313219999995,None,481.7885011000001,None,481.7885011000001,None,f,1.5885380999998233,481.7885011000001,None,,,color12,001,2020_Feb_04_1307,ProdSingRedo,3.2.4,60.01147419390786,
,,,,2,0,2,0,,,,,,,,,,,,,,,,,,,,,,,,489.6719424999999,None,,,,,,,,,,,,,,,,,watch,new_sing,red,2,98,351,483.9594004999999,None,483.9594004999999,None,6,3.324928600000021,483.9594004999999,None,487.33052150000003,None,487.84970780000003,None,487.84970780000003,None,r,1.7896224999999504,487.84970780000003,None,,,color12,001,2020_Feb_04_1307,ProdSingRedo,3.2.4,60.01147419390786,
,,,,3,0,3,0,,,,,,,,,,,,,,,,,,,,,,,,497.9114671,None,,,,,,,,,,,,,,,,,education,new_silent,yellow,3,177,108,490.20448369999986,None,490.20448369999986,None,4,4.6243268999999145,490.20448369999986,None,494.89554729999986,None,495.41468050000003,None,495.41468050000003,None,r,2.453623000000107,495.41468050000003,None,,,color12,001,2020_Feb_04_1307,ProdSingRedo,3.2.4,60.01147419390786,
,,,,4,0,4,0,,,,,,,,,,,,,,,,,,,,,,,,502.1998506,None,,,,,,,,,,,,,,,,,equipment,new_sing,red,4,116,116,498.4559856999999,None,498.4559856999999,None,6,2.37927650000006,498.4559856999999,None,500.8879589999999,None,501.4127489,None,501.4127489,None,r,0.7641476000001148,501.4127489,None,,,color12,001,2020_Feb_04_1307,ProdSingRedo,3.2.4,60.01147419390786,
,,,,5,0,5,0,,,,,,,,,,,,,,,,,,,,,,,,507.78091070000005,None,,,,,,,,,,,,,,,,,people,new_aloud,blue,5,147,216,502.734997,None,502.734997,None,1,2.9747717000000193,502.734997,None,505.7562169,None,506.2746147999999,None,506.2746147999999,None,n,1.4780818000001545,506.2746147999999,None,,,color12,001,2020_Feb_04_1307,ProdSingRedo,3.2.4,60.01147419390786,
,,,,6,0,6,0,,,,,,,,,,,,,,,,,,,,,,,,513.112212,None,,,,,,,,,,,,,,,,,platform,aloud,blue,6,43,224,508.3157653999999,None,508.3157653999999,None,6,3.09584719999998,508.3157653999999,None,511.47321110000007,None,511.99141910000003,None,511.99141910000003,None,r,1.0958436999999321,511.99141910000003,None,,,color12,001,2020_Feb_04_1307,ProdSingRedo,3.2.4,60.01147419390786,
,,,,7,0,7,0,,,,,,,,,,,,,,,,,,,,,,,,516.5391256,None,,,,,,,,,,,,,,,,,recall,aloud,blue,7,31,255,513.6300329999999,None,513.6300329999999,None,6,1.389273299999786,513.6300329999999,None,515.0530013,None,515.5713068999999,None,515.5713068999999,None,r,0.9316287000001466,515.5713068999999,None,,,color12,001,2020_Feb_04_1307,ProdSingRedo,3.2.4,60.01147419390786,
,,,,8,0,8,0,,,,,,,,,,,,,,,,,,,,,,,,522.0415117999999,None,,,,,,,,,,,,,,,,,health,silent,yellow,8,82,149,517.0796892999999,None,517.0796892999999,None,5,3.2086300000000847,517.0796892999999,None,520.3521765999999,None,520.8624881999999,None,520.8624881999999,None,f,1.1255995999999868,520.8624881999999,None,,,color12,001,2020_Feb_04_1307,ProdSingRedo,3.2.4,60.01147419390786,
,,,,9,0,9,0,,,,,,,,,,,,,,,,,,,,,,,,527.8418876000001,None,,,,,,,,,,,,,,,,,general,new_aloud,blue,9,137,135,522.5715608999999,None,522.5715608999999,None,1,2.756452300000092,522.5715608999999,None,525.392638,None,525.9019413999999,None,525.9019413999999,None,n,1.8974465000001146,525.9019413999999,None,,,color12,001,2020_Feb_04_1307,ProdSingRedo,3.2.4,60.01147419390786,
,,,,10,0,10,0,,,,,,,,,,,,,,,,,,,,,,,,531.8055672999999,None,,,,,,,,,,,,,,,,,store,aloud,blue,10,40,305,528.3790309999999,None,528.3790309999999,None,6,1.7044055999999728,528.3790309999999,None,530.1403760000001,None,530.6657897999999,None,530.6657897999999,None,r,1.110159099999919,530.6657897999999,None,,,color12,001,2020_Feb_04_1307,ProdSingRedo,3.2.4,60.01147419390786,
,,,,11,0,11,0,,,,,,,,,,,,,,,,,,,,,,,,535.9805492999999,None,,,,,,,,,,,,,,,,,bright,new_sing,red,11,92,29,532.3442032,None,532.3442032,None,2,1.8693424999999024,532.3442032,None,534.2474462,None,534.7813177,None,534.7813177,None,f,1.151725899999974,534.7813177,None,,,color12,001,2020_Feb_04_1307,ProdSingRedo,3.2.4,60.01147419390786,
,,,,12,0,12,0,,,,,,,,,,,,,,,,,,,,,,,,540.4234260999999,None,,,,,,,,,,,,,,,,,drove,new_aloud,blue,12,129,106,536.5182353,None,536.5182353,None,1,2.2299966000000495,536.5182353,None,538.8062484,None,539.3282924,None,539.3282924,None,n,1.0582836999999472,539.3282924,None,,,color12,001,2020_Feb_04_1307,ProdSingRedo,3.2.4,60.01147419390786,
,,,,13,0,13,0,,,,,,,,,,,,,,,,,,,,,,,,543.8113756999999,None,,,,,,,,,,,,,,,,,question,sing,red,13,12,247,540.9555760999999,None,540.9555760999999,None,6,1.5445369999999912,540.9555760999999,None,542.5441229999999,None,543.0654,None,543.0654,None,r,0.7045563000001493,543.0654,None,,,color12,001,2020_Feb_04_1307,ProdSingRedo,3.2.4,60.01147419390786,
,,,,14,0,14,0,,,,,,,,,,,,,,,,,,,,,,,,548.1989325,None,,,,,,,,,,,,,,,,,frank,new_aloud,blue,14,122,133,544.3537323,None,544.3537323,None,1,2.006154899999956,544.3537323,None,546.4000741,None,546.9104167999999,None,546.9104167999999,None,n,1.2544693000002098,546.9104167999999,None,,,color12,001,2020_Feb_04_1307,ProdSingRedo,3.2.4,60.01147419390786,
,,,,15,0,15,0,,,,,,,,,,,,,,,,,,,,,,,,551.5978551000001,None,,,,,,,,,,,,,,,,,account,sing,red,15,7,1,548.7313979,None,548.7313979,None,6,1.8595491999999467,548.7313979,None,550.6403992,None,551.1565744,None,551.1565744,None,r,0.4059364999998252,551.1565744,None,,,color12,001,2020_Feb_04_1307,ProdSingRedo,3.2.4,60.01147419390786,
,,,,16,0,16,0,,,,,,,,,,,,,,,,,,,,,,,,557.0090634000001,None,,,,,,,,,,,,,,,,,route,new_aloud,blue,16,126,267,552.1280718,None,552.1280718,None,3,2.938401200000044,552.1280718,None,555.1257269,None,555.6546845,None,555.6546845,None,f,1.3129818999998406,555.6546845,None,,,color12,001,2020_Feb_04_1307,ProdSingRedo,3.2.4,60.01147419390786,
,,,,17,0,17,0,,,,,,,,,,,,,,,,,,,,,,,,561.3272935,None,,,,,,,,,,,,,,,,,country,aloud,blue,17,54,73,557.5468787,None,557.5468787,None,6,2.5348371000000043,557.5468787,None,560.1383111,None,560.6695758999999,None,560.6695758999999,None,r,0.6195867000001272,560.6695758999999,None,,,color12,001,2020_Feb_04_1307,ProdSingRedo,3.2.4,60.01147419390786,
,,,,18,0,18,0,,,,,,,,,,,,,,,,,,,,,,,,566.1010421999999,None,,,,,,,,,,,,,,,,,under,new_silent,yellow,18,163,343,561.8617694,None,561.8617694,None,1,2.152711100000033,561.8617694,None,564.0505284999999,None,564.5672156999999,None,564.5672156999999,None,n,1.4962379000000965,564.5672156999999,None,,,color12,001,2020_Feb_04_1307,ProdSingRedo,3.2.4,60.01147419390786,
,,,,19,0,19,0,,,,,,,,,,,,,,,,,,,,,,,,568.8743465,None,,,,,,,,,,,,,,,,,state,new_aloud,blue,19,143,303,566.6326311999999,None,566.6326311999999,None,6,1.2312897000001612,566.6326311999999,None,567.9006698999999,None,568.4050155,None,568.4050155,None,r,0.44057219999990593,568.4050155,None,,,color12,001,2020_Feb_04_1307,ProdSingRedo,3.2.4,60.01147419390786,
,,,,20,0,20,0,,,,,,,,,,,,,,,,,,,,,,,,573.7384746,None,,,,,,,,,,,,,,,,,pattern,new_silent,yellow,20,167,214,569.4034618000001,None,569.4034618000001,None,5,2.4496182999998837,569.4034618000001,None,571.9242291999999,None,572.4338095,None,572.4338095,None,r,1.271327700000029,572.4338095,None,,,color12,001,2020_Feb_04_1307,ProdSingRedo,3.2.4,60.01147419390786,
,,,,21,0,21,0,,,,,,,,,,,,,,,,,,,,,,,,577.5519227999998,None,,,,,,,,,,,,,,,,,surprise,new_silent,yellow,21,153,317,574.2762072,None,574.2762072,None,4,2.0543153000000984,574.2762072,None,576.375157,None,576.8826842999999,None,576.8826842999999,None,f,0.6339412999998331,576.8826842999999,None,,,color12,001,2020_Feb_04_1307,ProdSingRedo,3.2.4,60.01147419390786,
,,,,22,0,22,0,,,,,,,,,,,,,,,,,,,,,,,,581.4197533000001,None,,,,,,,,,,,,,,,,,patient,new_aloud,blue,22,139,213,578.0702452,None,578.0702452,None,6,1.880163000000266,578.0702452,None,579.9957448,None,580.5145892999999,None,580.5145892999999,None,r,0.8814800999998624,580.5145892999999,None,,,color12,001,2020_Feb_04_1307,ProdSingRedo,3.2.4,60.01147419390786,
,,,,23,0,23,0,,,,,,,,,,,,,,,,,,,,,,,,584.4812213999999,None,,,,,,,,,,,,,,,,,search,sing,red,23,28,276,581.9554564,None,581.9554564,None,6,1.5640650999998797,581.9554564,None,583.5613472,None,584.0760737999999,None,584.0760737999999,None,r,0.35669469999993453,584.0760737999999,None,,,color12,001,2020_Feb_04_1307,ProdSingRedo,3.2.4,60.01147419390786,
,,,,24,0,24,0,,,,,,,,,,,,,,,,,,,,,,,,587.2509814999999,None,,,,,,,,,,,,,,,,,nature,sing,red,24,3,200,585.0173383000001,None,585.0173383000001,None,6,1.1428259999997863,585.0173383000001,None,586.1940552000001,None,586.7080032999997,None,586.7080032999997,None,r,0.5194326000000729,586.7080032999997,None,,,color12,001,2020_Feb_04_1307,ProdSingRedo,3.2.4,60.01147419390786,
,,,,25,0,25,0,,,,,,,,,,,,,,,,,,,,,,,,591.9325506,None,,,,,,,,,,,,,,,,,leader,sing,red,25,14,168,587.7874980000001,None,587.7874980000001,None,5,2.158907099999851,587.7874980000001,None,589.9909174,None,590.5126789999999,None,590.5126789999999,None,r,1.3851205000000846,590.5126789999999,None,,,color12,001,2020_Feb_04_1307,ProdSingRedo,3.2.4,60.01147419390786,
,,,,26,0,26,0,,,,,,,,,,,,,,,,,,,,,,,,598.3642292999998,None,,,,,,,,,,,,,,,,,minor,new_aloud,blue,26,136,191,592.465913,None,592.465913,None,2,2.1338482000001022,592.465913,None,594.6387208000001,None,595.1576221,None,595.1576221,None,f,3.1806139000000258,595.1576221,None,,,color12,001,2020_Feb_04_1307,ProdSingRedo,3.2.4,60.01147419390786,
,,,,27,0,27,0,,,,,,,,,,,,,,,,,,,,,,,,601.6118980000001,None,,,,,,,,,,,,,,,,,income,new_aloud,blue,27,132,159,598.9105654,None,598.9105654,None,1,1.419909700000062,598.9105654,None,600.3945441000001,None,600.9223938999999,None,600.9223938999999,None,n,0.6462413999997807,600.9223938999999,None,,,color12,001,2020_Feb_04_1307,ProdSingRedo,3.2.4,60.01147419390786,
,,,,28,0,28,0,,,,,,,,,,,,,,,,,,,,,,,,606.4199048999999,None,,,,,,,,,,,,,,,,,sleep,silent,yellow,28,66,290,602.1387914000002,None,602.1387914000002,None,3,2.917349099999683,602.1387914000002,None,605.1097826,None,605.6360125000001,None,605.6360125000001,None,f,0.7455039999999826,605.6360125000001,None,,,color12,001,2020_Feb_04_1307,ProdSingRedo,3.2.4,60.01147419390786,
,,,,29,0,29,0,,,,,,,,,,,,,,,,,,,,,,,,611.3896602999998,None,,,,,,,,,,,,,,,,,short,sing,red,29,9,285,606.9421634999999,None,606.9421634999999,None,5,3.1995929999998225,606.9421634999999,None,610.1818441,None,610.6859804999999,None,610.6859804999999,None,r,0.6707534000001942,610.6859804999999,None,,,color12,001,2020_Feb_04_1307,ProdSingRedo,3.2.4,60.01147419390786,
,,,,30,0,30,0,,,,,,,,,,,,,,,,,,,,,,,,613.9549920999998,None,,,,,,,,,,,,,,,,,object,silent,yellow,30,61,204,611.9123654,None,611.9123654,None,6,1.2150938999998289,611.9123654,None,613.1632215,None,613.6678247,None,613.6678247,None,r,0.26264519999995173,613.6678247,None,,,color12,001,2020_Feb_04_1307,ProdSingRedo,3.2.4,60.01147419390786,
,,,,31,0,31,0,,,,,,,,,,,,,,,,,,,,,,,,617.4377114999998,None,,,,,,,,,,,,,,,,,collection,aloud,blue,31,45,54,614.4729229999998,None,614.4729229999998,None,6,2.021038000000317,614.4729229999998,None,616.5298567999998,None,617.0370853999998,None,617.0370853999998,None,r,0.37552999999979875,617.0370853999998,None,,,color12,001,2020_Feb_04_1307,ProdSingRedo,3.2.4,60.01147419390786,
,,,,32,0,32,0,,,,,,,,,,,,,,,,,,,,,,,,622.2843196999997,None,,,,,,,,,,,,,,,,,guide,sing,red,32,15,147,617.9554269999999,None,617.9554269999999,None,5,2.3350092999999106,617.9554269999999,None,620.3276820000001,None,620.8329601999999,None,620.8329601999999,None,f,1.4145684000000074,620.8329601999999,None,,,color12,001,2020_Feb_04_1307,ProdSingRedo,3.2.4,60.01147419390786,
,,,,33,0,33,0,,,,,,,,,,,,,,,,,,,,,,,,625.0177941000002,None,,,,,,,,,,,,,,,,,trash,sing,red,33,8,337,622.8028481000001,None,622.8028481000001,None,6,1.2667136000000028,622.8028481000001,None,624.1095922999998,None,624.6137334999999,None,624.6137334999999,None,r,0.372020099999645,624.6137334999999,None,,,color12,001,2020_Feb_04_1307,ProdSingRedo,3.2.4,60.01147419390786,
,,,,34,0,34,0,,,,,,,,,,,,,,,,,,,,,,,,629.0346042000001,None,,,,,,,,,,,,,,,,,broke,new_aloud,blue,34,128,32,625.5350377,None,625.5350377,None,3,2.412300399999822,625.5350377,None,627.9904766,None,628.4969247999998,None,628.4969247999998,None,f,0.5044603999999708,628.4969247999998,None,,,color12,001,2020_Feb_04_1307,ProdSingRedo,3.2.4,60.01147419390786,
,,,,35,0,35,0,,,,,,,,,,,,,,,,,,,,,,,,632.5662674999999,None,,,,,,,,,,,,,,,,,testimony,silent,yellow,35,87,325,629.5524904999997,None,629.5524904999997,None,1,1.8978126000001794,629.5524904999997,None,631.4960676000001,None,632.0119338999998,None,632.0119338999998,None,n,0.5296333000001141,632.0119338999998,None,,,color12,001,2020_Feb_04_1307,ProdSingRedo,3.2.4,60.01147419390786,
,,,,36,0,36,0,,,,,,,,,,,,,,,,,,,,,,,,636.3974973999998,None,,,,,,,,,,,,,,,,,second,silent,yellow,36,75,278,633.0842278,None,633.0842278,None,4,2.253916300000128,633.0842278,None,635.3734567000001,None,635.8768058,None,635.8768058,None,f,0.4962967999999819,635.8768058,None,,,color12,001,2020_Feb_04_1307,ProdSingRedo,3.2.4,60.01147419390786,
,,,,37,0,37,0,,,,,,,,,,,,,,,,,,,,,,,,640.1956415,None,,,,,,,,,,,,,,,,,expansion,new_silent,yellow,37,179,123,636.9193789000001,None,636.9193789000001,None,3,2.2853472000001602,636.9193789000001,None,639.2464985000001,None,639.7420096000001,None,639.7420096000001,None,f,0.429914099999678,639.7420096000001,None,,,color12,001,2020_Feb_04_1307,ProdSingRedo,3.2.4,60.01147419390786,
,,,,38,0,38,0,,,,,,,,,,,,,,,,,,,,,,,,643.7788277999998,None,,,,,,,,,,,,,,,,,provision,new_aloud,blue,38,140,243,640.7168347000002,None,640.7168347000002,None,1,1.9691176000001178,640.7168347000002,None,642.7228676999998,None,643.2266144,None,643.2266144,None,n,0.5205418999998983,643.2266144,None,,,color12,001,2020_Feb_04_1307,ProdSingRedo,3.2.4,60.01147419390786,
,,,,39,0,39,0,,,,,,,,,,,,,,,,,,,,,,,,647.4438012,None,,,,,,,,,,,,,,,,,smell,aloud,blue,39,52,291,644.3180465,None,644.3180465,None,6,2.0620615000002545,644.3180465,None,646.4195424,None,646.9391903000001,None,646.9391903000001,None,r,0.4739325000000463,646.9391903000001,None,,,color12,001,2020_Feb_04_1307,ProdSingRedo,3.2.4,60.01147419390786,
,,,,40,0,40,0,,,,,,,,,,,,,,,,,,,,,,,,652.0425273000001,None,,,,,,,,,,,,,,,,,front,new_silent,yellow,40,160,134,647.9779920000001,None,647.9779920000001,None,1,2.7567790000002788,647.9779920000001,None,650.7673144,None,651.2857427999998,None,651.2857427999998,None,n,0.7238010000000941,651.2857427999998,None,,,color12,001,2020_Feb_04_1307,ProdSingRedo,3.2.4,60.01147419390786,
,,,,41,0,41,0,,,,,,,,,,,,,,,,,,,,,,,,657.1241169999998,None,,,,,,,,,,,,,,,,,junior,new_sing,red,41,110,167,652.5849035000001,None,652.5849035000001,None,3,3.240299900000082,652.5849035000001,None,655.8665563,None,656.3843428999999,None,656.3843428999999,None,f,0.7130527000003894,656.3843428999999,None,,,color12,001,2020_Feb_04_1307,ProdSingRedo,3.2.4,60.01147419390786,
,,,,42,0,42,0,,,,,,,,,,,,,,,,,,,,,,,,660.105724,None,,,,,,,,,,,,,,,,,shock,silent,yellow,42,62,284,657.6591146999999,None,657.6591146999999,None,6,1.4296956999996837,657.6591146999999,None,659.1542832999999,None,659.6657187000001,None,659.6657187000001,None,r,0.39584259999992355,659.6657187000001,None,,,color12,001,2020_Feb_04_1307,ProdSingRedo,3.2.4,60.01147419390786,
,,,,43,0,43,0,,,,,,,,,,,,,,,,,,,,,,,,663.0943048999998,None,,,,,,,,,,,,,,,,,smooth,sing,red,43,29,292,660.6470497,None,660.6470497,None,6,1.3434753000001365,660.6470497,None,662.0307398999998,None,662.5515449,None,662.5515449,None,r,0.5087409000002481,662.5515449,None,,,color12,001,2020_Feb_04_1307,ProdSingRedo,3.2.4,60.01147419390786,
,,,,44,0,44,0,,,,,,,,,,,,,,,,,,,,,,,,667.4851577999998,None,,,,,,,,,,,,,,,,,staff,new_silent,yellow,44,157,301,663.6255486,None,663.6255486,None,2,2.735345000000052,663.6255486,None,666.3944643,None,666.908293,None,666.908293,None,f,0.5430025000000569,666.908293,None,,,color12,001,2020_Feb_04_1307,ProdSingRedo,3.2.4,60.01147419390786,
,,,,45,0,45,0,,,,,,,,,,,,,,,,,,,,,,,,670.6857992,None,,,,,,,,,,,,,,,,,ground,new_sing,red,45,93,142,668.0160812999998,None,668.0160812999998,None,6,1.5699309999999969,668.0160812999998,None,669.6533746999999,None,670.1644809,None,670.1644809,None,r,0.49176930000021457,670.1644809,None,,,color12,001,2020_Feb_04_1307,ProdSingRedo,3.2.4,60.01147419390786,
,,,,46,0,46,0,,,,,,,,,,,,,,,,,,,,,,,,674.0345462,None,,,,,,,,,,,,,,,,,danger,new_sing,red,46,118,85,671.2182244,None,671.2182244,None,6,1.8155384000001504,671.2182244,None,673.0761155999999,None,673.5907256,None,673.5907256,None,r,0.4078778000002785,673.5907256,None,,,color12,001,2020_Feb_04_1307,ProdSingRedo,3.2.4,60.01147419390786,
,,,,47,0,47,0,,,,,,,,,,,,,,,,,,,,,,,,677.3829163,None,,,,,,,,,,,,,,,,,native,new_aloud,blue,47,144,199,674.5694078000001,None,674.5694078000001,None,1,1.7178045000000566,674.5694078000001,None,676.3259666999998,None,676.8476547,None,676.8476547,None,n,0.5029501999997592,676.8476547,None,,,color12,001,2020_Feb_04_1307,ProdSingRedo,3.2.4,60.01147419390786,
,,,,48,0,48,0,,,,,,,,,,,,,,,,,,,,,,,,682.7139575000001,None,,,,,,,,,,,,,,,,,tragedy,aloud,blue,48,57,335,677.9119406,None,677.9119406,None,3,3.734805300000062,677.9119406,None,681.6902501999998,None,682.2022213999999,None,682.2022213999999,None,f,0.47282250000034765,682.2022213999999,None,,,color12,001,2020_Feb_04_1307,ProdSingRedo,3.2.4,60.01147419390786,
,,,,49,0,49,0,,,,,,,,,,,,,,,,,,,,,,,,687.5272771999998,None,,,,,,,,,,,,,,,,,worker,silent,yellow,49,83,356,683.2491015,None,683.2491015,None,2,2.6866374000001088,683.2491015,None,685.9719455,None,686.4888455,None,686.4888455,None,f,1.012146400000347,686.4888455,None,,,color12,001,2020_Feb_04_1307,ProdSingRedo,3.2.4,60.01147419390786,
,,,,50,0,50,0,,,,,,,,,,,,,,,,,,,,,,,,692.3096285000001,None,,,,,,,,,,,,,,,,,bucket,new_sing,red,50,106,33,688.0459986999999,None,688.0459986999999,None,4,3.1294073000003664,688.0459986999999,None,691.2178945,None,691.7221992,None,691.7221992,None,f,0.5569884999999886,691.7221992,None,,,color12,001,2020_Feb_04_1307,ProdSingRedo,3.2.4,60.01147419390786,
,,,,51,0,51,0,,,,,,,,,,,,,,,,,,,,,,,,696.3583828000001,None,,,,,,,,,,,,,,,,,strain,new_aloud,blue,51,125,308,692.8495970999998,None,692.8495970999998,None,1,1.3554027000000133,692.8495970999998,None,694.2518114,None,694.7684743999998,None,694.7684743999998,None,n,1.5603527999996913,694.7684743999998,None,,,color12,001,2020_Feb_04_1307,ProdSingRedo,3.2.4,60.01147419390786,
,,,,52,0,52,0,,,,,,,,,,,,,,,,,,,,,,,,700.7904534999998,None,,,,,,,,,,,,,,,,,throw,new_aloud,blue,52,145,330,696.8928766999998,None,696.8928766999998,None,2,2.6508214000000407,696.8928766999998,None,699.5830013999998,None,700.0864095000002,None,700.0864095000002,None,f,0.6773345999999947,700.0864095000002,None,,,color12,001,2020_Feb_04_1307,ProdSingRedo,3.2.4,60.01147419390786,
,,,,53,0,53,0,,,,,,,,,,,,,,,,,,,,,,,,703.7691151999998,None,,,,,,,,,,,,,,,,,crisis,aloud,blue,53,39,79,701.3086202,None,701.3086202,None,6,1.2157717999998567,701.3086202,None,702.5657281999997,None,703.0892018999998,None,703.0892018999998,None,r,0.6422546999997394,703.0892018999998,None,,,color12,001,2020_Feb_04_1307,ProdSingRedo,3.2.4,60.01147419390786,
,,,,54,0,54,0,,,,,,,,,,,,,,,,,,,,,,,,708.2124675,None,,,,,,,,,,,,,,,,,heavy,new_sing,red,54,101,151,704.3083529,None,704.3083529,None,3,2.997012299999824,704.3083529,None,707.3534482999999,None,707.8812916000002,None,707.8812916000002,None,f,0.2985225000002174,707.8812916000002,None,,,color12,001,2020_Feb_04_1307,ProdSingRedo,3.2.4,60.01147419390786,
,,,,55,0,55,0,,,,,,,,,,,,,,,,,,,,,,,,711.0360762999999,None,,,,,,,,,,,,,,,,,relation,sing,red,55,21,257,708.7440264000002,None,708.7440264000002,None,6,1.3716738999996778,708.7440264000002,None,710.1631619,None,710.6661227999998,None,710.6661227999998,None,r,0.34577870000020994,710.6661227999998,None,,,color12,001,2020_Feb_04_1307,ProdSingRedo,3.2.4,60.01147419390786,
,,,,56,0,56,0,,,,,,,,,,,,,,,,,,,,,,,,715.4686464000001,None,,,,,,,,,,,,,,,,,design,new_silent,yellow,56,161,91,711.5693081,None,711.5693081,None,5,1.7867514999998093,711.5693081,None,713.3950476999999,None,713.9091607999999,None,713.9091607999999,None,f,1.5356246999999712,713.9091607999999,None,,,color12,001,2020_Feb_04_1307,ProdSingRedo,3.2.4,60.01147419390786,
,,,,57,0,57,0,,,,,,,,,,,,,,,,,,,,,,,,720.0840072999999,None,,,,,,,,,,,,,,,,,present,new_aloud,blue,57,134,231,716.0080011,None,716.0080011,None,6,3.1625898000002053,716.0080011,None,719.2260289999999,None,719.7318105999998,None,719.7318105999998,None,r,0.3265611000001627,719.7318105999998,None,,,color12,001,2020_Feb_04_1307,ProdSingRedo,3.2.4,60.01147419390786,
,,,,58,0,58,0,,,,,,,,,,,,,,,,,,,,,,,,722.8660986999998,None,,,,,,,,,,,,,,,,,sound,silent,yellow,58,68,295,720.6169679,None,720.6169679,None,6,1.3068856999998388,720.6169679,None,721.9794191999999,None,722.4877821999999,None,722.4877821999999,None,r,0.3365524999999252,722.4877821999999,None,,,color12,001,2020_Feb_04_1307,ProdSingRedo,3.2.4,60.01147419390786,
,,,,59,0,59,0,,,,,,,,,,,,,,,,,,,,,,,,726.1771476999998,None,,,,,,,,,,,,,,,,,interior,aloud,blue,59,32,164,723.3933151000001,None,723.3933151000001,None,1,1.76985889999969,723.3933151000001,None,725.2055434999997,None,725.725578,None,725.725578,None,n,0.40831340000022465,725.725578,None,,,color12,001,2020_Feb_04_1307,ProdSingRedo,3.2.4,60.01147419390786,
,,,,60,0,60,0,,,,,,,,,,,,,,,,,,,,,,,,728.9299799999999,None,,,,,,,,,,,,,,,,,personnel,new_sing,red,60,111,219,726.7171474000002,None,726.7171474000002,None,1,1.2874379999998382,726.7171474000002,None,728.0406426,None,728.5441196000002,None,728.5441196000002,None,n,0.3592362999997931,728.5441196000002,None,,,color12,001,2020_Feb_04_1307,ProdSingRedo,3.2.4,60.01147419390786,
,,,,61,0,61,0,,,,,,,,,,,,,,,,,,,,,,,,734.5514038000001,None,,,,,,,,,,,,,,,,,citizen,new_sing,red,61,119,50,729.4740424000001,None,729.4740424000001,None,4,3.993371500000194,729.4740424000001,None,733.5041400999999,None,734.0221734000002,None,734.0221734000002,None,f,0.4842260999998871,734.0221734000002,None,,,color12,001,2020_Feb_04_1307,ProdSingRedo,3.2.4,60.01147419390786,
,,,,62,0,62,0,,,,,,,,,,,,,,,,,,,,,,,,738.4442193999998,None,,,,,,,,,,,,,,,,,clean,new_silent,yellow,62,158,51,735.0807252,None,735.0807252,None,6,2.1777203999999983,735.0807252,None,737.3010040999998,None,737.8188859000002,None,737.8188859000002,None,r,0.5826864000000569,737.8188859000002,None,,,color12,001,2020_Feb_04_1307,ProdSingRedo,3.2.4,60.01147419390786,
,,,,63,0,63,0,,,,,,,,,,,,,,,,,,,,,,,,740.9924885999999,None,,,,,,,,,,,,,,,,,judge,new_sing,red,63,99,166,738.9697978999998,None,738.9697978999998,None,1,1.1840291000003162,738.9697978999998,None,740.2001814,None,740.7088696000001,None,740.7088696000001,None,n,0.2531023000001369,740.7088696000001,None,,,color12,001,2020_Feb_04_1307,ProdSingRedo,3.2.4,60.01147419390786,
,,,,64,0,64,0,,,,,,,,,,,,,,,,,,,,,,,,745.0070593999999,None,,,,,,,,,,,,,,,,,crime,aloud,blue,64,38,78,741.5303863999998,None,741.5303863999998,None,2,2.7178343000000496,741.5303863999998,None,744.2828995,None,744.8006114999998,None,744.8006114999998,None,f,0.17921130000013363,744.8006114999998,None,,,color12,001,2020_Feb_04_1307,ProdSingRedo,3.2.4,60.01147419390786,
,,,,65,0,65,0,,,,,,,,,,,,,,,,,,,,,,,,750.6386815999999,None,,,,,,,,,,,,,,,,,population,sing,red,65,5,227,745.5369193000001,None,745.5369193000001,None,4,3.576000099999874,745.5369193000001,None,749.1669308999999,None,749.6864374000002,None,749.6864374000002,None,f,0.918448399999761,749.6864374000002,None,,,color12,001,2020_Feb_04_1307,ProdSingRedo,3.2.4,60.01147419390786,
,,,,66,0,66,0,,,,,,,,,,,,,,,,,,,,,,,,755.3029618999999,None,,,,,,,,,,,,,,,,,shape,silent,yellow,66,81,282,751.1697026000002,None,751.1697026000002,None,6,3.223902299999736,751.1697026000002,None,754.4279247999998,None,754.946136,None,754.946136,None,r,0.32626920000029713,754.946136,None,,,color12,001,2020_Feb_04_1307,ProdSingRedo,3.2.4,60.01147419390786,
,,,,67,0,67,0,,,,,,,,,,,,,,,,,,,,,,,,760.0178391,None,,,,,,,,,,,,,,,,,payment,new_silent,yellow,67,152,215,755.8399863999998,None,755.8399863999998,None,1,2.597962499999994,755.8399863999998,None,758.4784436,None,758.9948251000001,None,758.9948251000001,None,n,0.997755099999722,758.9948251000001,None,,,color12,001,2020_Feb_04_1307,ProdSingRedo,3.2.4,60.01147419390786,
,,,,68,0,68,0,,,,,,,,,,,,,,,,,,,,,,,,764.1988597999998,None,,,,,,,,,,,,,,,,,match,new_aloud,blue,68,148,181,760.5533246,None,760.5533246,None,3,2.563950599999771,760.5533246,None,763.1590378999999,None,763.6617138000001,None,763.6617138000001,None,f,0.5122181000001547,763.6617138000001,None,,,color12,001,2020_Feb_04_1307,ProdSingRedo,3.2.4,60.01147419390786,
,,,,69,0,69,0,,,,,,,,,,,,,,,,,,,,,,,,767.1147258999999,None,,,,,,,,,,,,,,,,,phrase,new_silent,yellow,69,176,220,764.7183045000002,None,764.7183045000002,None,1,1.3030997000000752,764.7183045000002,None,766.0578301999999,None,766.5616466000001,None,766.5616466000001,None,n,0.527303800000027,766.5616466000001,None,,,color12,001,2020_Feb_04_1307,ProdSingRedo,3.2.4,60.01147419390786,
,,,,70,0,70,0,,,,,,,,,,,,,,,,,,,,,,,,771.0296589999998,None,,,,,,,,,,,,,,,,,owner,silent,yellow,70,89,208,767.6427935000002,None,767.6427935000002,None,6,2.450742900000023,767.6427935000002,None,770.1397063,None,770.6432906,None,770.6432906,None,r,0.3555197999999109,770.6432906,None,,,color12,001,2020_Feb_04_1307,ProdSingRedo,3.2.4,60.01147419390786,
,,,,71,0,71,0,,,,,,,,,,,,,,,,,,,,,,,,775.0456972000002,None,,,,,,,,,,,,,,,,,track,sing,red,71,25,334,771.5689081999999,None,771.5689081999999,None,6,2.3417466000000786,771.5689081999999,None,773.9539571999999,None,774.4585624000001,None,774.4585624000001,None,r,0.5571126999998341,774.4585624000001,None,,,color12,001,2020_Feb_04_1307,ProdSingRedo,3.2.4,60.01147419390786,
,,,,72,0,72,0,,,,,,,,,,,,,,,,,,,,,,,,778.9603265999999,None,,,,,,,,,,,,,,,,,position,sing,red,72,6,229,775.5643670999998,None,775.5643670999998,None,4,2.46252289999984,775.5643670999998,None,778.0707886999999,None,778.5886746000001,None,778.5886746000001,None,f,0.3360714000000371,778.5886746000001,None,,,color12,001,2020_Feb_04_1307,ProdSingRedo,3.2.4,60.01147419390786,
,,,,73,0,73,0,,,,,,,,,,,,,,,,,,,,,,,,783.1252826999998,None,,,,,,,,,,,,,,,,,cross,new_silent,yellow,73,166,80,779.4922569,None,779.4922569,None,2,2.426310899999862,779.4922569,None,781.9525635999998,None,782.4720806999999,None,782.4720806999999,None,f,0.6280406999999286,782.4720806999999,None,,,color12,001,2020_Feb_04_1307,ProdSingRedo,3.2.4,60.01147419390786,
,,,,74,0,74,0,,,,,,,,,,,,,,,,,,,,,,,,786.6246313000001,None,,,,,,,,,,,,,,,,,bicycle,silent,yellow,74,65,21,783.6584576999999,None,783.6584576999999,None,1,1.4532500000000255,783.6584576999999,None,785.1505339,None,785.6686030000001,None,785.6686030000001,None,n,0.9205155999998169,785.6686030000001,None,,,color12,001,2020_Feb_04_1307,ProdSingRedo,3.2.4,60.01147419390786,
,,,,75,0,75,0,,,,,,,,,,,,,,,,,,,,,,,,789.8566142999998,None,,,,,,,,,,,,,,,,,color,aloud,blue,75,41,56,787.1596602,None,787.1596602,None,6,1.8329843999999866,787.1596602,None,789.0321055999998,None,789.5353034999998,None,789.5353034999998,None,r,0.2970901999997295,789.5353034999998,None,,,color12,001,2020_Feb_04_1307,ProdSingRedo,3.2.4,60.01147419390786,
,,,,76,0,76,0,,,,,,,,,,,,,,,,,,,,,,,,792.7385023000002,None,,,,,,,,,,,,,,,,,power,new_aloud,blue,76,121,230,790.391658,None,790.391658,None,6,1.161270500000228,790.391658,None,791.5962546000001,None,792.1014605999999,None,792.1014605999999,None,r,0.604262700000163,792.1014605999999,None,,,color12,001,2020_Feb_04_1307,ProdSingRedo,3.2.4,60.01147419390786,
,,,,77,0,77,0,,,,,,,,,,,,,,,,,,,,,,,,796.5541580999998,None,,,,,,,,,,,,,,,,,express,new_sing,red,77,112,124,793.2760241999999,None,793.2760241999999,None,3,2.189904800000022,793.2760241999999,None,795.5141420999998,None,796.0318941,None,796.0318941,None,f,0.4979483000001892,796.0318941,None,,,color12,001,2020_Feb_04_1307,ProdSingRedo,3.2.4,60.01147419390786,
,,,,78,0,78,0,,,,,,,,,,,,,,,,,,,,,,,,800.9858390999998,None,,,,,,,,,,,,,,,,,motion,aloud,blue,78,49,194,797.0931236000001,None,797.0931236000001,None,6,2.9194781000001058,797.0931236000001,None,800.0442887999998,None,800.5553531,None,800.5553531,None,r,0.3990953999996236,800.5553531,None,,,color12,001,2020_Feb_04_1307,ProdSingRedo,3.2.4,60.01147419390786,
,,,,79,0,79,0,,,,,,,,,,,,,,,,,,,,,,,,805.1837812999997,None,,,,,,,,,,,,,,,,,instrument,sing,red,79,4,163,801.5052237999998,None,801.5052237999998,None,1,2.6496750999999676,801.5052237999998,None,804.1946312,None,804.6986259999999,None,804.6986259999999,None,n,0.4516043999997237,804.6986259999999,None,,,color12,001,2020_Feb_04_1307,ProdSingRedo,3.2.4,60.01147419390786,
,,,,80,0,80,0,,,,,,,,,,,,,,,,,,,,,,,,808.5495258999999,None,,,,,,,,,,,,,,,,,block,aloud,blue,80,55,25,805.7124957000001,None,805.7124957000001,None,5,1.8346449999999095,805.7124957000001,None,807.5939367999999,None,808.0954443,None,808.0954443,None,f,0.430017399999997,808.0954443,None,,,color12,001,2020_Feb_04_1307,ProdSingRedo,3.2.4,60.01147419390786,
,,,,81,0,81,0,,,,,,,,,,,,,,,,,,,,,,,,812.2651280999999,None,,,,,,,,,,,,,,,,,burden,new_aloud,blue,81,133,36,809.0885647999999,None,809.0885647999999,None,1,1.3161412999997992,809.0885647999999,None,810.4410604999998,None,810.9594821000001,None,810.9594821000001,None,n,1.2700553999998192,810.9594821000001,None,,,color12,001,2020_Feb_04_1307,ProdSingRedo,3.2.4,60.01147419390786,
,,,,82,0,82,0,,,,,,,,,,,,,,,,,,,,,,,,815.7137148000002,None,,,,,,,,,,,,,,,,,strength,silent,yellow,82,84,310,812.7930283000001,None,812.7930283000001,None,3,1.7268229000001156,812.7930283000001,None,814.5565323000001,None,815.0698406000001,None,815.0698406000001,None,f,0.6151883000002272,815.0698406000001,None,,,color12,001,2020_Feb_04_1307,ProdSingRedo,3.2.4,60.01147419390786,
,,,,83,0,83,0,,,,,,,,,,,,,,,,,,,,,,,,818.7799387,None,,,,,,,,,,,,,,,,,childhood,new_silent,yellow,83,156,49,816.2311899000001,None,816.2311899000001,None,1,1.455664600000091,816.2311899000001,None,817.7224759000001,None,818.2264055,None,818.2264055,None,n,0.5239341000001332,818.2264055,None,,,color12,001,2020_Feb_04_1307,ProdSingRedo,3.2.4,60.01147419390786,
,,,,84,0,84,0,,,,,,,,,,,,,,,,,,,,,,,,822.1264829000002,None,,,,,,,,,,,,,,,,,accident,silent,yellow,84,86,0,819.3165312000001,None,819.3165312000001,None,3,1.5740117000000282,819.3165312000001,None,820.9368912,None,821.4412186,None,821.4412186,None,f,0.6488469999999325,821.4412186,None,,,color12,001,2020_Feb_04_1307,ProdSingRedo,3.2.4,60.01147419390786,
,,,,85,0,85,0,,,,,,,,,,,,,,,,,,,,,,,,825.2756905000001,None,,,,,,,,,,,,,,,,,rough,new_silent,yellow,85,170,266,822.6632364000002,None,822.6632364000002,None,4,1.6747325999999703,822.6632364000002,None,824.3853410000002,None,824.8870277000001,None,824.8870277000001,None,f,0.3535706000002392,824.8870277000001,None,,,color12,001,2020_Feb_04_1307,ProdSingRedo,3.2.4,60.01147419390786,
,,,,86,0,86,0,,,,,,,,,,,,,,,,,,,,,,,,828.6414903,None,,,,,,,,,,,,,,,,,corner,silent,yellow,86,85,69,825.7935207,None,825.7935207,None,3,1.9334336000001713,825.7935207,None,827.7672893999998,None,828.2711156,None,828.2711156,None,f,0.34047670000018115,828.2711156,None,,,color12,001,2020_Feb_04_1307,ProdSingRedo,3.2.4,60.01147419390786,
,,,,87,0,87,0,,,,,,,,,,,,,,,,,,,,,,,,832.0071914999999,None,,,,,,,,,,,,,,,,,fashion,new_sing,red,87,115,125,829.1810811,None,829.1810811,None,5,1.2847891999999774,829.1810811,None,830.4989056,None,831.0037281,None,831.0037281,None,r,0.9712109000001874,831.0037281,None,,,color12,001,2020_Feb_04_1307,ProdSingRedo,3.2.4,60.01147419390786,
,,,,88,0,88,0,,,,,,,,,,,,,,,,,,,,,,,,835.2724165999998,None,,,,,,,,,,,,,,,,,treatment,new_aloud,blue,88,120,339,832.5477424000001,None,832.5477424000001,None,5,1.585994600000049,832.5477424000001,None,834.1827784000002,None,834.701779,None,834.701779,None,r,0.54097210000009,834.701779,None,,,color12,001,2020_Feb_04_1307,ProdSingRedo,3.2.4,60.01147419390786,
,,,,89,0,89,0,,,,,,,,,,,,,,,,,,,,,,,,838.6049735000001,None,,,,,,,,,,,,,,,,,defeat,new_aloud,blue,89,127,88,835.7890246000002,None,835.7890246000002,None,1,1.705266500000107,835.7890246000002,None,837.5303171,None,838.0478653,None,838.0478653,None,n,0.519479400000364,838.0478653,None,,,color12,001,2020_Feb_04_1307,ProdSingRedo,3.2.4,60.01147419390786,
,,,,90,0,90,0,,,,,,,,,,,,,,,,,,,,,,,,841.8193287999998,None,,,,,,,,,,,,,,,,,production,new_silent,yellow,90,175,240,839.1347415,None,839.1347415,None,6,1.644183900000371,839.1347415,None,840.8119723999998,None,841.3150425999997,None,841.3150425999997,None,r,0.4656749000000673,841.3150425999997,None,,,color12,001,2020_Feb_04_1307,ProdSingRedo,3.2.4,60.01147419390786,
,,,,91,0,91,0,,,,,,,,,,,,,,,,,,,,,,,,844.8356640000002,None,,,,,,,,,,,,,,,,,finance,silent,yellow,91,70,129,842.3561533000002,None,842.3561533000002,None,6,1.524016500000016,842.3561533000002,None,843.9263267000001,None,844.4319790999998,None,844.4319790999998,None,r,0.36727609999979904,844.4319790999998,None,,,color12,001,2020_Feb_04_1307,ProdSingRedo,3.2.4,60.01147419390786,
,,,,92,0,92,0,,,,,,,,,,,,,,,,,,,,,,,,848.1839375,None,,,,,,,,,,,,,,,,,conference,silent,yellow,92,60,66,845.3691328999998,None,845.3691328999998,None,4,1.750796199999968,845.3691328999998,None,847.1620560000001,None,847.6803102999997,None,847.6803102999997,None,f,0.4726286000000073,847.6803102999997,None,,,color12,001,2020_Feb_04_1307,ProdSingRedo,3.2.4,60.01147419390786,
,,,,93,0,93,0,,,,,,,,,,,,,,,,,,,,,,,,851.7996577999997,None,,,,,,,,,,,,,,,,,silence,silent,yellow,93,88,288,848.7164177999998,None,848.7164177999998,None,6,0.9415550999997322,848.7164177999998,None,849.6923990999999,None,850.2112160000001,None,850.2112160000001,None,r,1.5573953000002803,850.2112160000001,None,,,color12,001,2020_Feb_04_1307,ProdSingRedo,3.2.4,60.01147419390786,
,,,,94,0,94,0,,,,,,,,,,,,,,,,,,,,,,,,854.5981410999998,None,,,,,,,,,,,,,,,,,society,new_sing,red,94,117,293,852.3312482000001,None,852.3312482000001,None,5,1.343397200000254,852.3312482000001,None,853.7089391999998,None,854.2115531,None,854.2115531,None,f,0.35029050000002826,854.2115531,None,,,color12,001,2020_Feb_04_1307,ProdSingRedo,3.2.4,60.01147419390786,
,,,,95,0,95,0,,,,,,,,,,,,,,,,,,,,,,,,858.7306211,None,,,,,,,,,,,,,,,,,carry,aloud,blue,95,35,43,855.1335632999999,None,855.1335632999999,None,4,2.258748000000196,855.1335632999999,None,857.4393116000001,None,857.9566340000001,None,857.9566340000001,None,f,0.7382079999997586,857.9566340000001,None,,,color12,001,2020_Feb_04_1307,ProdSingRedo,3.2.4,60.01147419390786,
,,,,96,0,96,0,,,,,,,,,,,,,,,,,,,,,,,,861.9957350999998,None,,,,,,,,,,,,,,,,,science,silent,yellow,96,72,275,859.2615381,None,859.2615381,None,4,1.7762865999998212,859.2615381,None,861.0724735999997,None,861.5752782999998,None,861.5752782999998,None,f,0.3917287000003853,861.5752782999998,None,,,color12,001,2020_Feb_04_1307,ProdSingRedo,3.2.4,60.01147419390786,
,,,,97,0,97,0,,,,,,,,,,,,,,,,,,,,,,,,865.8439253000001,None,,,,,,,,,,,,,,,,,spoke,sing,red,97,11,300,862.5328141,None,862.5328141,None,6,2.33123599999999,862.5328141,None,864.9033024,None,865.4175598000002,None,865.4175598000002,None,r,0.3898110000000088,865.4175598000002,None,,,color12,001,2020_Feb_04_1307,ProdSingRedo,3.2.4,60.01147419390786,
,,,,98,0,98,0,,,,,,,,,,,,,,,,,,,,,,,,869.2760417999998,None,,,,,,,,,,,,,,,,,volume,silent,yellow,98,71,349,866.3794376000001,None,866.3794376000001,None,6,1.7086803000001964,866.3794376000001,None,868.1336814000001,None,868.6542393,None,868.6542393,None,r,0.5882252999999764,868.6542393,None,,,color12,001,2020_Feb_04_1307,ProdSingRedo,3.2.4,60.01147419390786,
,,,,99,0,99,0,,,,,,,,,,,,,,,,,,,,,,,,872.9567240000001,None,,,,,,,,,,,,,,,,,union,new_silent,yellow,99,171,344,869.8141228999998,None,869.8141228999998,None,2,1.3608292999997502,869.8141228999998,None,871.2190808,None,871.7349967,None,871.7349967,None,f,1.1862633000000642,871.7349967,None,,,color12,001,2020_Feb_04_1307,ProdSingRedo,3.2.4,60.01147419390786,
,,,,100,0,100,0,,,,,,,,,,,,,,,,,,,,,,,,875.9564599999999,None,,,,,,,,,,,,,,,,,exchange,silent,yellow,100,67,121,873.4870166000001,None,873.4870166000001,None,1,1.32090960000005,873.4870166000001,None,874.8495105000002,None,875.3547411,None,875.3547411,None,n,0.5775896999998622,875.3547411,None,,,color12,001,2020_Feb_04_1307,ProdSingRedo,3.2.4,60.01147419390786,
,,,,101,0,101,0,,,,,,,,,,,,,,,,,,,,,,,,880.1716740000002,None,,,,,,,,,,,,,,,,,comfort,sing,red,101,16,59,876.4834096999998,None,876.4834096999998,None,3,2.3193562999999813,876.4834096999998,None,878.8487372999998,None,879.3612708,None,879.3612708,None,f,0.7720644000000902,879.3612708,None,,,color12,001,2020_Feb_04_1307,ProdSingRedo,3.2.4,60.01147419390786,
,,,,102,0,102,0,,,,,,,,,,,,,,,,,,,,,,,,884.0873425,None,,,,,,,,,,,,,,,,,resistance,new_sing,red,102,90,262,880.6939858000001,None,880.6939858000001,None,5,2.271977700000207,880.6939858000001,None,883.0141994999999,None,883.5185290999998,None,883.5185290999998,None,f,0.5414902000002257,883.5185290999998,None,,,color12,001,2020_Feb_04_1307,ProdSingRedo,3.2.4,60.01147419390786,
,,,,103,0,103,0,,,,,,,,,,,,,,,,,,,,,,,,887.5363336999999,None,,,,,,,,,,,,,,,,,straight,new_silent,yellow,103,150,307,884.6243159,None,884.6243159,None,1,1.7107662000003074,884.6243159,None,886.3796508999999,None,886.8911884999998,None,886.8911884999998,None,n,0.6113737000000583,886.8911884999998,None,,,color12,001,2020_Feb_04_1307,ProdSingRedo,3.2.4,60.01147419390786,
,,,,104,0,104,0,,,,,,,,,,,,,,,,,,,,,,,,890.6338510999999,None,,,,,,,,,,,,,,,,,appearance,aloud,blue,104,42,10,888.0653717999999,None,888.0653717999999,None,3,1.5370672999997623,888.0653717999999,None,889.6452175,None,890.1649002999998,None,890.1649002999998,None,f,0.4404039000000921,890.1649002999998,None,,,color12,001,2020_Feb_04_1307,ProdSingRedo,3.2.4,60.01147419390786,
,,,,105,0,105,0,,,,,,,,,,,,,,,,,,,,,,,,893.3998898999998,None,,,,,,,,,,,,,,,,,attack,sing,red,105,23,13,891.1587616000002,None,891.1587616000002,None,6,1.258810099999664,891.1587616000002,None,892.4599985,None,892.9743306,None,892.9743306,None,r,0.39030700000012075,892.9743306,None,,,color12,001,2020_Feb_04_1307,ProdSingRedo,3.2.4,60.01147419390786,
,,,,106,0,106,0,,,,,,,,,,,,,,,,,,,,,,,,896.5973786,None,,,,,,,,,,,,,,,,,character,new_silent,yellow,106,151,46,893.9222561000001,None,893.9222561000001,None,5,1.6126435999999558,893.9222561000001,None,895.5762672999999,None,896.0940494000001,None,896.0940494000001,None,f,0.47592100000019855,896.0940494000001,None,,,color12,001,2020_Feb_04_1307,ProdSingRedo,3.2.4,60.01147419390786,
,,,,107,0,107,0,,,,,,,,,,,,,,,,,,,,,,,,899.1817796,None,,,,,,,,,,,,,,,,,quick,new_silent,yellow,107,168,248,897.1180951000001,None,897.1180951000001,None,1,1.227164299999913,897.1180951000001,None,898.3906395999998,None,898.8968289,None,898.8968289,None,n,0.25499949999993987,898.8968289,None,,,color12,001,2020_Feb_04_1307,ProdSingRedo,3.2.4,60.01147419390786,
,,,,108,0,108,0,,,,,,,,,,,,,,,,,,,,,,,,901.9133246000001,None,,,,,,,,,,,,,,,,,addition,new_sing,red,108,108,2,899.7203952,None,899.7203952,None,6,1.2825516000002608,899.7203952,None,901.0398565999999,None,901.5430741999999,None,901.5430741999999,None,r,0.33807800000022326,901.5430741999999,None,,,color12,001,2020_Feb_04_1307,ProdSingRedo,3.2.4,60.01147419390786,
,,,,109,0,109,0,,,,,,,,,,,,,,,,,,,,,,,,906.1627091999999,None,,,,,,,,,,,,,,,,,brilliant,silent,yellow,109,74,30,902.4522247,None,902.4522247,None,6,1.9441119999996772,902.4522247,None,904.4383723000001,None,904.9421765000002,None,904.9421765000002,None,r,1.1975613999998131,904.9421765000002,None,,,color12,001,2020_Feb_04_1307,ProdSingRedo,3.2.4,60.01147419390786,
,,,,110,0,110,0,,,,,,,,,,,,,,,,,,,,,,,,909.3109651999998,None,,,,,,,,,,,,,,,,,error,silent,yellow,110,64,117,906.6922500999999,None,906.6922500999999,None,6,1.6916215000001102,906.6922500999999,None,908.4203824000001,None,908.9371067000002,None,908.9371067000002,None,r,0.3437344000003577,908.9371067000002,None,,,color12,001,2020_Feb_04_1307,ProdSingRedo,3.2.4,60.01147419390786,
,,,,111,0,111,0,,,,,,,,,,,,,,,,,,,,,,,,912.8753569,None,,,,,,,,,,,,,,,,,majority,sing,red,111,1,176,909.8470828,None,909.8470828,None,4,1.495896200000061,909.8470828,None,911.3858408000001,None,911.8909583,None,911.8909583,None,f,0.9574726000000737,911.8909583,None,,,color12,001,2020_Feb_04_1307,ProdSingRedo,3.2.4,60.01147419390786,
,,,,112,0,112,0,,,,,,,,,,,,,,,,,,,,,,,,917.2568167,None,,,,,,,,,,,,,,,,,portion,new_aloud,blue,112,131,228,913.4104140999998,None,913.4104140999998,None,4,2.328421100000014,913.4104140999998,None,915.7829609,None,916.2874812,None,916.2874812,None,f,0.9345299999999952,916.2874812,None,,,color12,001,2020_Feb_04_1307,ProdSingRedo,3.2.4,60.01147419390786,
,,,,113,0,113,0,,,,,,,,,,,,,,,,,,,,,,,,921.0643958,None,,,,,,,,,,,,,,,,,cousin,sing,red,113,27,76,917.7911156,None,917.7911156,None,1,1.651237300000048,917.7911156,None,919.4830572999999,None,920.0030588,None,920.0030588,None,n,1.0220122000000629,920.0030588,None,,,color12,001,2020_Feb_04_1307,ProdSingRedo,3.2.4,60.01147419390786,
,,,,114,0,114,0,,,,,,,,,,,,,,,,,,,,,,,,925.0209316999999,None,,,,,,,,,,,,,,,,,running,sing,red,114,19,268,921.5827875,None,921.5827875,None,6,2.392370199999732,921.5827875,None,924.0130506,None,924.5325581000002,None,924.5325581000002,None,r,0.4507317999996303,924.5325581000002,None,,,color12,001,2020_Feb_04_1307,ProdSingRedo,3.2.4,60.01147419390786,
,,,,115,0,115,0,,,,,,,,,,,,,,,,,,,,,,,,928.9535038999998,None,,,,,,,,,,,,,,,,,surface,new_sing,red,115,113,316,925.5567262999998,None,925.5567262999998,None,4,2.4627267999999276,925.5567262999998,None,928.0630090999998,None,928.5669570999999,None,928.5669570999999,None,f,0.35187709999991057,928.5669570999999,None,,,color12,001,2020_Feb_04_1307,ProdSingRedo,3.2.4,60.01147419390786,
,,,,116,0,116,0,,,,,,,,,,,,,,,,,,,,,,,,931.7843828999999,None,,,,,,,,,,,,,,,,,season,aloud,blue,116,33,277,929.4890031999998,None,929.4890031999998,None,6,1.3765849999999773,929.4890031999998,None,930.9121294000001,None,931.4150528,None,931.4150528,None,r,0.3345339000002241,931.4150528,None,,,color12,001,2020_Feb_04_1307,ProdSingRedo,3.2.4,60.01147419390786,
,,,,117,0,117,0,,,,,,,,,,,,,,,,,,,,,,,,934.8514042000002,None,,,,,,,,,,,,,,,,,candidate,new_sing,red,117,105,39,932.3078833999998,None,932.3078833999998,None,1,1.3214195999998992,932.3078833999998,None,933.6776676999998,None,934.1828494000001,None,934.1828494000001,None,n,0.6383181999999579,934.1828494000001,None,,,color12,001,2020_Feb_04_1307,ProdSingRedo,3.2.4,60.01147419390786,
,,,,118,0,118,0,,,,,,,,,,,,,,,,,,,,,,,,937.9498662000001,None,,,,,,,,,,,,,,,,,alert,new_silent,yellow,118,159,6,935.3699674,None,935.3699674,None,4,1.614325000000008,935.3699674,None,937.0245018999999,None,937.5301445,None,937.5301445,None,f,0.39650910000000295,937.5301445,None,,,color12,001,2020_Feb_04_1307,ProdSingRedo,3.2.4,60.01147419390786,
,,,,119,0,119,0,,,,,,,,,,,,,,,,,,,,,,,,941.3483077999999,None,,,,,,,,,,,,,,,,,session,sing,red,119,20,281,938.4719298,None,938.4719298,None,3,1.7487767999996322,938.4719298,None,940.2579818999998,None,940.7618041000001,None,940.7618041000001,None,f,0.5494250000001557,940.7618041000001,None,,,color12,001,2020_Feb_04_1307,ProdSingRedo,3.2.4,60.01147419390786,
,,,,120,0,120,0,,,,,,,,,,,,,,,,,,,,,,,,944.9139326999998,None,,,,,,,,,,,,,,,,,service,new_aloud,blue,120,149,280,941.8669298999998,None,941.8669298999998,None,3,2.005231499999809,941.8669298999998,None,943.9042611,None,944.4245191,None,944.4245191,None,f,0.4595230999998421,944.4245191,None,,,color12,001,2020_Feb_04_1307,ProdSingRedo,3.2.4,60.01147419390786,
,,,,121,0,121,0,,,,,,,,,,,,,,,,,,,,,,,,949.5116122,None,,,,,,,,,,,,,,,,,symbol,new_silent,yellow,121,164,321,945.4482423999998,None,945.4482423999998,None,2,2.760497100000066,945.4482423999998,None,948.2544612000002,None,948.7588700000001,None,948.7588700000001,None,f,0.7243570000000545,948.7588700000001,None,,,color12,001,2020_Feb_04_1307,ProdSingRedo,3.2.4,60.01147419390786,
,,,,122,0,122,0,,,,,,,,,,,,,,,,,,,,,,,,952.6442170999999,None,,,,,,,,,,,,,,,,,charter,new_sing,red,122,94,47,950.0529124999998,None,950.0529124999998,None,1,1.325412800000322,950.0529124999998,None,951.4211946999999,None,951.9413955999999,None,951.9413955999999,None,n,0.6721710000001622,951.9413955999999,None,,,color12,001,2020_Feb_04_1307,ProdSingRedo,3.2.4,60.01147419390786,
,,,,123,0,123,0,,,,,,,,,,,,,,,,,,,,,,,,956.2272901000001,None,,,,,,,,,,,,,,,,,figure,aloud,blue,123,53,128,953.1806821999999,None,953.1806821999999,None,5,1.4170619999999872,953.1806821999999,None,954.6373407000001,None,955.1458140999998,None,955.1458140999998,None,f,1.0518748999998024,955.1458140999998,None,,,color12,001,2020_Feb_04_1307,ProdSingRedo,3.2.4,60.01147419390786,
,,,,124,0,124,0,,,,,,,,,,,,,,,,,,,,,,,,959.1918931999999,None,,,,,,,,,,,,,,,,,angle,aloud,blue,124,44,7,956.7600367,None,956.7600367,None,6,1.4072703000001638,956.7600367,None,958.1999345999998,None,958.7047247999999,None,958.7047247999999,None,r,0.4618786999999429,958.7047247999999,None,,,color12,001,2020_Feb_04_1307,ProdSingRedo,3.2.4,60.01147419390786,
,,,,125,0,125,0,,,,,,,,,,,,,,,,,,,,,,,,962.2067720999999,None,,,,,,,,,,,,,,,,,generation,new_aloud,blue,125,135,136,959.7287692999998,None,959.7287692999998,None,1,1.2406912999999804,959.7287692999998,None,961.0180660000001,None,961.5346276,None,961.5346276,None,n,0.6364037999996981,961.5346276,None,,,color12,001,2020_Feb_04_1307,ProdSingRedo,3.2.4,60.01147419390786,
,,,,126,0,126,0,,,,,,,,,,,,,,,,,,,,,,,,965.3726585,None,,,,,,,,,,,,,,,,,passage,sing,red,126,17,212,962.7344349,None,962.7344349,None,5,1.1832468000002336,962.7344349,None,963.9663010999998,None,964.4700787000002,None,964.4700787000002,None,f,0.8727514000001975,964.4700787000002,None,,,color12,001,2020_Feb_04_1307,ProdSingRedo,3.2.4,60.01147419390786,
,,,,127,0,127,0,,,,,,,,,,,,,,,,,,,,,,,,968.2221716999998,None,,,,,,,,,,,,,,,,,thing,new_silent,yellow,127,172,328,965.9074197999998,None,965.9074197999998,None,6,1.1635542000003625,965.9074197999998,None,967.1144036999999,None,967.6191177000001,None,967.6191177000001,None,r,0.5674783999997999,967.6191177000001,None,,,color12,001,2020_Feb_04_1307,ProdSingRedo,3.2.4,60.01147419390786,
,,,,128,0,128,0,,,,,,,,,,,,,,,,,,,,,,,,971.6367697000001,None,,,,,,,,,,,,,,,,,primary,aloud,blue,128,59,234,968.7555861000001,None,968.7555861000001,None,6,1.837550900000224,968.7555861000001,None,970.6302255,None,971.1386502,None,971.1386502,None,r,0.46380779999981314,971.1386502,None,,,color12,001,2020_Feb_04_1307,ProdSingRedo,3.2.4,60.01147419390786,
,,,,129,0,129,0,,,,,,,,,,,,,,,,,,,,,,,,975.452303,None,,,,,,,,,,,,,,,,,point,new_aloud,blue,129,142,226,972.1751860999998,None,972.1751860999998,None,4,2.1019322999995893,972.1751860999998,None,974.3123728999999,None,974.8317567999998,None,974.8317567999998,None,f,0.5931632000001628,974.8317567999998,None,,,color12,001,2020_Feb_04_1307,ProdSingRedo,3.2.4,60.01147419390786,
,,,,130,0,130,0,,,,,,,,,,,,,,,,,,,,,,,,979.1669527999998,None,,,,,,,,,,,,,,,,,military,new_sing,red,130,95,190,975.9887783999998,None,975.9887783999998,None,2,1.9448225999999522,975.9887783999998,None,977.9767215000002,None,978.4955829999999,None,978.4955829999999,None,f,0.6474089999996977,978.4955829999999,None,,,color12,001,2020_Feb_04_1307,ProdSingRedo,3.2.4,60.01147419390786,
,,,,131,0,131,0,,,,,,,,,,,,,,,,,,,,,,,,983.9644141999997,None,,,,,,,,,,,,,,,,,brief,new_sing,red,131,102,28,979.7028603999997,None,979.7028603999997,None,4,3.1686231000003318,979.7028603999997,None,982.9066982999998,None,983.4227074,None,983.4227074,None,f,0.5195063000001028,983.4227074,None,,,color12,001,2020_Feb_04_1307,ProdSingRedo,3.2.4,60.01147419390786,
,,,,132,0,132,0,,,,,,,,,,,,,,,,,,,,,,,,987.1645788999999,None,,,,,,,,,,,,,,,,,force,silent,yellow,132,63,131,984.4828146999998,None,984.4828146999998,None,5,1.7695173000001887,984.4828146999998,None,986.2909401000002,None,986.7930477999998,None,986.7930477999998,None,f,0.34164270000019314,986.7930477999998,None,,,color12,001,2020_Feb_04_1307,ProdSingRedo,3.2.4,60.01147419390786,
,,,,133,0,133,0,,,,,,,,,,,,,,,,,,,,,,,,989.8961125000001,None,,,,,,,,,,,,,,,,,produce,aloud,blue,133,50,239,987.6944174,None,987.6944174,None,6,1.232956099999683,987.6944174,None,988.9720560999999,None,989.4965225000001,None,989.4965225000001,None,r,0.3660341999998309,989.4965225000001,None,,,color12,001,2020_Feb_04_1307,ProdSingRedo,3.2.4,60.01147419390786,
,,,,134,0,134,0,,,,,,,,,,,,,,,,,,,,,,,,992.8792294,None,,,,,,,,,,,,,,,,,employment,new_sing,red,134,114,111,990.4253708000001,None,990.4253708000001,None,1,1.4195534999998927,990.4253708000001,None,991.8895029999999,None,992.3925942000001,None,992.3925942000001,None,n,0.45843809999996665,992.3925942000001,None,,,color12,001,2020_Feb_04_1307,ProdSingRedo,3.2.4,60.01147419390786,
,,,,135,0,135,0,,,,,,,,,,,,,,,,,,,,,,,,995.8280854999998,None,,,,,,,,,,,,,,,,,benefit,aloud,blue,135,37,20,993.4137393999999,None,993.4137393999999,None,6,1.1012374000001728,993.4137393999999,None,994.5540689999998,None,995.0686764000002,None,995.0686764000002,None,r,0.7308964999997443,995.0686764000002,None,,,color12,001,2020_Feb_04_1307,ProdSingRedo,3.2.4,60.01147419390786,
,,,,136,0,136,0,,,,,,,,,,,,,,,,,,,,,,,,999.0433382000001,None,,,,,,,,,,,,,,,,,listen,new_silent,yellow,136,174,172,996.3648825999999,None,996.3648825999999,None,6,1.459118799999942,996.3648825999999,None,997.8679148000001,None,998.3764606,None,998.3764606,None,r,0.6368909000002532,998.3764606,None,,,color12,001,2020_Feb_04_1307,ProdSingRedo,3.2.4,60.01147419390786,
,,,,137,0,137,0,,,,,,,,,,,,,,,,,,,,,,,,1001.8422055999999,None,,,,,,,,,,,,,,,,,dispute,new_aloud,blue,137,124,99,999.5784555999999,None,999.5784555999999,None,1,1.1817845000000489,999.5784555999999,None,1000.8018431,None,1001.3053359,None,1001.3053359,None,n,0.5059408000001895,1001.3053359,None,,,color12,001,2020_Feb_04_1307,ProdSingRedo,3.2.4,60.01147419390786,
,,,,138,0,138,0,,,,,,,,,,,,,,,,,,,,,,,,1005.5566994000001,None,,,,,,,,,,,,,,,,,individual,new_silent,yellow,138,165,160,1002.3761344999998,None,1002.3761344999998,None,5,2.1087078000000474,1002.3761344999998,None,1004.5180058999999,None,1005.0308934,None,1005.0308934,None,f,0.48929009999983464,1005.0308934,None,,,color12,001,2020_Feb_04_1307,ProdSingRedo,3.2.4,60.01147419390786,
,,,,139,0,139,0,,,,,,,,,,,,,,,,,,,,,,,,1009.6725535,None,,,,,,,,,,,,,,,,,engineer,aloud,blue,139,47,114,1006.0848332,None,1006.0848332,None,4,2.359258399999817,1006.0848332,None,1008.4815247000001,None,1008.9855895000001,None,1008.9855895000001,None,f,0.6594607000001815,1008.9855895000001,None,,,color12,001,2020_Feb_04_1307,ProdSingRedo,3.2.4,60.01147419390786,
,,,,140,0,140,0,,,,,,,,,,,,,,,,,,,,,,,,1014.6707716999999,None,,,,,,,,,,,,,,,,,blind,sing,red,140,2,24,1010.2062732999998,None,1010.2062732999998,None,2,2.8377442000000883,1010.2062732999998,None,1013.0799080000002,None,1013.5837403,None,1013.5837403,None,f,1.0604919000002155,1013.5837403,None,,,color12,001,2020_Feb_04_1307,ProdSingRedo,3.2.4,60.01147419390786,
,,,,141,0,141,0,,,,,,,,,,,,,,,,,,,,,,,,1018.0027750999998,None,,,,,,,,,,,,,,,,,notice,new_sing,red,141,107,201,1015.1882110000001,None,1015.1882110000001,None,1,1.6452671000001828,1015.1882110000001,None,1016.8782486999999,None,1017.3850610999998,None,1017.3850610999998,None,n,0.5900790000000598,1017.3850610999998,None,,,color12,001,2020_Feb_04_1307,ProdSingRedo,3.2.4,60.01147419390786,
,,,,142,0,142,0,,,,,,,,,,,,,,,,,,,,,,,,1021.1508448,None,,,,,,,,,,,,,,,,,speech,new_aloud,blue,142,141,298,1018.5211183000001,None,1018.5211183000001,None,5,1.5152435999998488,1018.5211183000001,None,1020.0770173999999,None,1020.5842527999998,None,1020.5842527999998,None,f,0.5292666000000281,1020.5842527999998,None,,,color12,001,2020_Feb_04_1307,ProdSingRedo,3.2.4,60.01147419390786,
,,,,143,0,143,0,,,,,,,,,,,,,,,,,,,,,,,,1024.0169234,None,,,,,,,,,,,,,,,,,dream,new_silent,yellow,143,154,104,1021.6870221999998,None,1021.6870221999998,None,6,1.4153959999998733,1021.6870221999998,None,1023.1416015,None,1023.6463758999998,None,1023.6463758999998,None,r,0.3395448999999644,1023.6463758999998,None,,,color12,001,2020_Feb_04_1307,ProdSingRedo,3.2.4,60.01147419390786,
,,,,144,0,144,0,,,,,,,,,,,,,,,,,,,,,,,,1028.4480954,None,,,,,,,,,,,,,,,,,reading,new_aloud,blue,144,138,254,1024.5408977000002,None,1024.5408977000002,None,4,2.8167045999998663,1024.5408977000002,None,1027.3904932,None,1027.9073257,None,1027.9073257,None,f,0.5123849999999948,1027.9073257,None,,,color12,001,2020_Feb_04_1307,ProdSingRedo,3.2.4,60.01147419390786,
,,,,145,0,145,0,,,,,,,,,,,,,,,,,,,,,,,,1032.180382,None,,,,,,,,,,,,,,,,,executive,sing,red,145,24,122,1028.9677808000001,None,1028.9677808000001,None,6,1.2894980999999461,1028.9677808000001,None,1030.2910140999998,None,1030.7952497,None,1030.7952497,None,r,1.3543752000000495,1030.7952497,None,,,color12,001,2020_Feb_04_1307,ProdSingRedo,3.2.4,60.01147419390786,
,,,,146,0,146,0,,,,,,,,,,,,,,,,,,,,,,,,1035.0790410999998,None,,,,,,,,,,,,,,,,,literature,sing,red,146,26,173,1032.7174863,None,1032.7174863,None,6,1.4440481999999975,1032.7174863,None,1034.2063069,None,1034.7244725,None,1034.7244725,None,r,0.3223780000002989,1034.7244725,None,,,color12,001,2020_Feb_04_1307,ProdSingRedo,3.2.4,60.01147419390786,
,,,,147,0,147,0,,,,,,,,,,,,,,,,,,,,,,,,1038.5117704,None,,,,,,,,,,,,,,,,,build,silent,yellow,147,79,35,1035.5970809,None,1035.5970809,None,2,2.050255300000117,1035.5970809,None,1037.6860155,None,1038.1917383,None,1038.1917383,None,f,0.2912934999999379,1038.1917383,None,,,color12,001,2020_Feb_04_1307,ProdSingRedo,3.2.4,60.01147419390786,
,,,,148,0,148,0,,,,,,,,,,,,,,,,,,,,,,,,1042.0267371999998,None,,,,,,,,,,,,,,,,,member,sing,red,148,13,188,1039.0318911999998,None,1039.0318911999998,None,4,2.1252205999999205,1039.0318911999998,None,1041.2015038,None,1041.7173589999998,None,1041.7173589999998,None,f,0.2780270000002929,1041.7173589999998,None,,,color12,001,2020_Feb_04_1307,ProdSingRedo,3.2.4,60.01147419390786,
,,,,149,0,149,0,,,,,,,,,,,,,,,,,,,,,,,,1045.9079484999997,None,,,,,,,,,,,,,,,,,victory,sing,red,149,10,346,1042.5591352000001,None,1042.5591352000001,None,2,2.0722728999999163,1042.5591352000001,None,1044.6684492,None,1045.1871747,None,1045.1871747,None,f,0.6877632000000631,1045.1871747,None,,,color12,001,2020_Feb_04_1307,ProdSingRedo,3.2.4,60.01147419390786,
,,,,150,0,150,0,,,,,,,,,,,,,,,,,,,,,,,,1048.9410223999998,None,,,,,,,,,,,,,,,,,column,new_silent,yellow,150,155,57,1046.4271933,None,1046.4271933,None,1,1.191869300000235,1046.4271933,None,1047.6658320000001,None,1048.1845964999998,None,1048.1845964999998,None,n,0.722721200000251,1048.1845964999998,None,,,color12,001,2020_Feb_04_1307,ProdSingRedo,3.2.4,60.01147419390786,
,,,,151,0,151,0,,,,,,,,,,,,,,,,,,,,,,,,1052.7726776999998,None,,,,,,,,,,,,,,,,,trial,aloud,blue,151,58,341,1049.4778711,None,1049.4778711,None,5,2.3481446999999207,1049.4778711,None,1051.8643508,None,1052.3737130999998,None,1052.3737130999998,None,f,0.36519540000017514,1052.3737130999998,None,,,color12,001,2020_Feb_04_1307,ProdSingRedo,3.2.4,60.01147419390786,
,,,,152,0,152,0,,,,,,,,,,,,,,,,,,,,,,,,1056.203308,None,,,,,,,,,,,,,,,,,management,new_aloud,blue,152,130,177,1053.3124833000002,None,1053.3124833000002,None,4,1.9071513999997478,1053.3124833000002,None,1055.2658274,None,1055.7859408,None,1055.7859408,None,f,0.38311350000003586,1055.7859408,None,,,color12,001,2020_Feb_04_1307,ProdSingRedo,3.2.4,60.01147419390786,
,,,,153,0,153,0,,,,,,,,,,,,,,,,,,,,,,,,1059.7856484999998,None,,,,,,,,,,,,,,,,,pressure,silent,yellow,153,80,232,1056.7302851999998,None,1056.7302851999998,None,6,2.103614600000128,1056.7302851999998,None,1058.8787813999998,None,1059.3832839000002,None,1059.3832839000002,None,r,0.36460600000009435,1059.3832839000002,None,,,color12,001,2020_Feb_04_1307,ProdSingRedo,3.2.4,60.01147419390786,
,,,,154,0,154,0,,,,,,,,,,,,,,,,,,,,,,,,1062.7679192,None,,,,,,,,,,,,,,,,,couch,silent,yellow,154,78,70,1060.3198191000001,None,1060.3198191000001,None,1,1.4705983999997443,1060.3198191000001,None,1061.8292149999997,None,1062.3589655,None,1062.3589655,None,n,0.38288079999983893,1062.3589655,None,,,color12,001,2020_Feb_04_1307,ProdSingRedo,3.2.4,60.01147419390786,
,,,,155,0,155,0,,,,,,,,,,,,,,,,,,,,,,,,1065.8012466999999,None,,,,,,,,,,,,,,,,,birth,sing,red,155,18,22,1063.2871919999998,None,1063.2871919999998,None,6,1.3641712999997253,1063.2871919999998,None,1064.6936282000001,None,1065.2110833000002,None,1065.2110833000002,None,r,0.5644005999997717,1065.2110833000002,None,,,color12,001,2020_Feb_04_1307,ProdSingRedo,3.2.4,60.01147419390786,
,,,,156,0,156,0,,,,,,,,,,,,,,,,,,,,,,,,1068.7991570999998,None,,,,,,,,,,,,,,,,,council,new_aloud,blue,156,123,71,1066.3282485,None,1066.3282485,None,1,1.3531077999996342,1066.3282485,None,1067.7252712,None,1068.2300899000002,None,1068.2300899000002,None,n,0.5344669999999496,1068.2300899000002,None,,,color12,001,2020_Feb_04_1307,ProdSingRedo,3.2.4,60.01147419390786,
,,,,157,0,157,0,,,,,,,,,,,,,,,,,,,,,,,,1072.0484142999999,None,,,,,,,,,,,,,,,,,minute,new_aloud,blue,157,146,192,1069.3378183999998,None,1069.3378183999998,None,4,1.5247835000000123,1069.3378183999998,None,1070.9084690999998,None,1071.4273527999999,None,1071.4273527999999,None,f,0.5917555000000903,1071.4273527999999,None,,,color12,001,2020_Feb_04_1307,ProdSingRedo,3.2.4,60.01147419390786,
,,,,158,0,158,0,,,,,,,,,,,,,,,,,,,,,,,,1075.4973269000002,None,,,,,,,,,,,,,,,,,audience,silent,yellow,158,69,14,1072.5848221,None,1072.5848221,None,6,1.5335289999998167,1072.5848221,None,1074.1579367999998,None,1074.6925268999998,None,1074.6925268999998,None,r,0.7772213000002921,1074.6925268999998,None,,,color12,001,2020_Feb_04_1307,ProdSingRedo,3.2.4,60.01147419390786,
,,,,159,0,159,0,,,,,,,,,,,,,,,,,,,,,,,,1078.4962249999999,None,,,,,,,,,,,,,,,,,quantity,aloud,blue,159,56,245,1076.0206764,None,1076.0206764,None,6,1.4446600999999646,1076.0206764,None,1077.506743,None,1078.0195743999998,None,1078.0195743999998,None,r,0.4500773999998273,1078.0195743999998,None,,,color12,001,2020_Feb_04_1307,ProdSingRedo,3.2.4,60.01147419390786,
,,,,160,0,160,0,,,,,,,,,,,,,,,,,,,,,,,,1082.2289213,None,,,,,,,,,,,,,,,,,background,new_silent,yellow,160,169,16,1079.019535,None,1079.019535,None,5,2.252219199999672,1079.019535,None,1081.3079781000001,None,1081.8092376999998,None,1081.8092376999998,None,f,0.3956665000000612,1081.8092376999998,None,,,color12,001,2020_Feb_04_1307,ProdSingRedo,3.2.4,60.01147419390786,
,,,,161,0,161,0,,,,,,,,,,,,,,,,,,,,,,,,1084.9606807,None,,,,,,,,,,,,,,,,,height,silent,yellow,161,73,152,1082.761203,None,1082.761203,None,6,1.308136999999988,1082.761203,None,1084.1031164,None,1084.6207058,None,1084.6207058,None,r,0.30649029999995037,1084.6207058,None,,,color12,001,2020_Feb_04_1307,ProdSingRedo,3.2.4,60.01147419390786,
,,,,162,0,162,0,,,,,,,,,,,,,,,,,,,,,,,,1088.17609,None,,,,,,,,,,,,,,,,,rapid,new_sing,red,162,109,252,1085.4892602999998,None,1085.4892602999998,None,6,1.5219778999999107,1085.4892602999998,None,1087.0505632,None,1087.5692978000002,None,1087.5692978000002,None,r,0.5736876000000848,1087.5692978000002,None,,,color12,001,2020_Feb_04_1307,ProdSingRedo,3.2.4,60.01147419390786,
,,,,163,0,163,0,,,,,,,,,,,,,,,,,,,,,,,,1091.5754673000001,None,,,,,,,,,,,,,,,,,century,new_silent,yellow,163,173,45,1088.6936308999998,None,1088.6936308999998,None,6,2.0132442999997693,1088.6936308999998,None,1090.7505995000001,None,1091.2547138,None,1091.2547138,None,r,0.291422099999636,1091.2547138,None,,,color12,001,2020_Feb_04_1307,ProdSingRedo,3.2.4,60.01147419390786,
,,,,164,0,164,0,,,,,,,,,,,,,,,,,,,,,,,,1094.4737292,None,,,,,,,,,,,,,,,,,disease,sing,red,164,0,97,1092.0998452999997,None,1092.0998452999997,None,6,1.4396257999997033,1092.0998452999997,None,1093.5827534,None,1094.0979489000001,None,1094.0979489000001,None,r,0.33980650000012247,1094.0979489000001,None,,,color12,001,2020_Feb_04_1307,ProdSingRedo,3.2.4,60.01147419390786,
,,,,165,0,165,0,,,,,,,,,,,,,,,,,,,,,,,,1097.1389029000002,None,,,,,,,,,,,,,,,,,drama,sing,red,165,22,103,1094.9909189999998,None,1094.9909189999998,None,6,1.1142601000001378,1094.9909189999998,None,1096.1486725999998,None,1096.6536009000001,None,1096.6536009000001,None,r,0.4622284000001855,1096.6536009000001,None,,,color12,001,2020_Feb_04_1307,ProdSingRedo,3.2.4,60.01147419390786,
,,,,166,0,166,0,,,,,,,,,,,,,,,,,,,,,,,,1100.8381445,None,,,,,,,,,,,,,,,,,master,new_silent,yellow,166,162,180,1097.6565411000001,None,1097.6565411000001,None,3,2.276015599999937,1097.6565411000001,None,1099.9800432000002,None,1100.4980922,None,1100.4980922,None,f,0.3154632999999194,1100.4980922,None,,,color12,001,2020_Feb_04_1307,ProdSingRedo,3.2.4,60.01147419390786,
,,,,167,0,167,0,,,,,,,,,,,,,,,,,,,,,,,,1104.7860018000001,None,,,,,,,,,,,,,,,,,article,aloud,blue,167,36,11,1101.3646119,None,1101.3646119,None,6,2.4601419000000533,1101.3646119,None,1103.8633154,None,1104.3656554999998,None,1104.3656554999998,None,r,0.38842509999994945,1104.3656554999998,None,,,color12,001,2020_Feb_04_1307,ProdSingRedo,3.2.4,60.01147419390786,
,,,,168,0,168,0,,,,,,,,,,,,,,,,,,,,,,,,1108.9511901,None,,,,,,,,,,,,,,,,,career,new_sing,red,168,91,42,1105.3023825999999,None,1105.3023825999999,None,2,2.583180699999957,1105.3023825999999,None,1107.9273914,None,1108.4310968,None,1108.4310968,None,f,0.49704909999991287,1108.4310968,None,,,color12,001,2020_Feb_04_1307,ProdSingRedo,3.2.4,60.01147419390786,
,,,,169,0,169,0,,,,,,,,,,,,,,,,,,,,,,,,1112.3173424000001,None,,,,,,,,,,,,,,,,,impact,aloud,blue,169,51,157,1109.4721885999998,None,1109.4721885999998,None,2,1.7838388000000123,1109.4721885999998,None,1111.2919051,None,1111.7963509,None,1111.7963509,None,f,0.486315900000136,1111.7963509,None,,,color12,001,2020_Feb_04_1307,ProdSingRedo,3.2.4,60.01147419390786,
,,,,170,0,170,0,,,,,,,,,,,,,,,,,,,,,,,,1116.5481277999997,None,,,,,,,,,,,,,,,,,committee,new_sing,red,170,100,62,1112.8537502,None,1112.8537502,None,6,2.6537591999999677,1112.8537502,None,1115.5420273,None,1116.0454756999998,None,1116.0454756999998,None,r,0.47917729999971925,1116.0454756999998,None,,,color12,001,2020_Feb_04_1307,ProdSingRedo,3.2.4,60.01147419390786,
,,,,171,0,171,0,,,,,,,,,,,,,,,,,,,,,,,,1120.1963258,None,,,,,,,,,,,,,,,,,scale,aloud,blue,171,30,272,1117.0788014999998,None,1117.0788014999998,None,5,1.939924300000257,1117.0788014999998,None,1119.0553888,None,1119.5696779,None,1119.5696779,None,r,0.591736999999739,1119.5696779,None,,,color12,001,2020_Feb_04_1307,ProdSingRedo,3.2.4,60.01147419390786,
,,,,172,0,172,0,,,,,,,,,,,,,,,,,,,,,,,,1123.0120548,None,,,,,,,,,,,,,,,,,guest,new_sing,red,172,104,146,1120.7144118,None,1120.7144118,None,6,1.4714561999999205,1120.7144118,None,1122.2227560000001,None,1122.7503941,None,1122.7503941,None,r,0.22796650000009322,1122.7503941,None,,,color12,001,2020_Feb_04_1307,ProdSingRedo,3.2.4,60.01147419390786,
,,,,173,0,173,0,,,,,,,,,,,,,,,,,,,,,,,,1126.6271259999999,None,,,,,,,,,,,,,,,,,right,new_sing,red,173,97,265,1123.5365272999998,None,1123.5365272999998,None,2,2.0068725000000995,1123.5365272999998,None,1125.5870621,None,1126.1065691,None,1126.1065691,None,f,0.4881759999998394,1126.1065691,None,,,color12,001,2020_Feb_04_1307,ProdSingRedo,3.2.4,60.01147419390786,
,,,,174,0,174,0,,,,,,,,,,,,,,,,,,,,,,,,1130.5429745000001,None,,,,,,,,,,,,,,,,,bureau,silent,yellow,174,76,37,1127.1597968,None,1127.1597968,None,6,2.4122981999998956,1127.1597968,None,1129.6192381,None,1130.1313234,None,1130.1313234,None,r,0.37902040000017223,1130.1313234,None,,,color12,001,2020_Feb_04_1307,ProdSingRedo,3.2.4,60.01147419390786,
,,,,175,0,175,0,,,,,,,,,,,,,,,,,,,,,,,,1134.3409843,None,,,,,,,,,,,,,,,,,death,new_sing,red,175,103,86,1131.0693394,None,1131.0693394,None,1,2.00895969999965,1131.0693394,None,1133.1172788999997,None,1133.6348798999998,None,1133.6348798999998,None,n,0.6673673000000235,1133.6348798999998,None,,,color12,001,2020_Feb_04_1307,ProdSingRedo,3.2.4,60.01147419390786,
,,,,176,0,176,0,,,,,,,,,,,,,,,,,,,,,,,,1137.2406489,None,,,,,,,,,,,,,,,,,measure,aloud,blue,176,34,184,1134.8595265999998,None,1134.8595265999998,None,6,1.4613710999997238,1134.8595265999998,None,1136.3670766,None,1136.8800194,None,1136.8800194,None,r,0.33118419999982507,1136.8800194,None,,,color12,001,2020_Feb_04_1307,ProdSingRedo,3.2.4,60.01147419390786,
,,,,177,0,177,0,,,,,,,,,,,,,,,,,,,,,,,,1139.8550108999998,None,,,,,,,,,,,,,,,,,estate,aloud,blue,177,46,119,1137.7615406,None,1137.7615406,None,6,0.980243800000153,1137.7615406,None,1138.7824157,None,1139.287503,None,1139.287503,None,r,0.5330955999997968,1139.287503,None,,,color12,001,2020_Feb_04_1307,ProdSingRedo,3.2.4,60.01147419390786,
,,,,178,0,178,0,,,,,,,,,,,,,,,,,,,,,,,,1142.9047288000002,None,,,,,,,,,,,,,,,,,signal,aloud,blue,178,48,287,1140.3740148000002,None,1140.3740148000002,None,6,1.4980568000000858,1140.3740148000002,None,1141.9145574999998,None,1142.4176429,None,1142.4176429,None,r,0.46184649999986505,1142.4176429,None,,,color12,001,2020_Feb_04_1307,ProdSingRedo,3.2.4,60.01147419390786,
,,,,179,0,179,0,,,,,,,,,,,,,,,,,,,,,,,,1147.0533200999998,None,,,,,,,,,,,,,,,,,sweet,silent,yellow,179,77,319,1143.4388051,None,1143.4388051,None,6,2.678106000000298,1143.4388051,None,1146.1613962000001,None,1146.680628,None,1146.680628,None,r,0.34154639999997016,1146.680628,None,,,color12,001,2020_Feb_04_1307,ProdSingRedo,3.2.4,60.01147419390786,
,,,,,,,,,,,,,,,,,,,,,,,,,,,,,,,,,,,,,,,,,,,,,,,,,,,,,,,,,,,,,,,,,,,,,,,,,1147.5652411,None,,,,,,,
