StudyLoop.thisRepN,StudyLoop.thisTrialN,StudyLoop.thisN,StudyLoop.thisIndex,TestLoop.thisRepN,TestLoop.thisTrialN,TestLoop.thisN,TestLoop.thisIndex,textCondition.started,textCondition.stopped,keyCondition.keys,keyCondition.rt,keyCondition.started,keyCondition.stopped,Condition,stim_colors,color_sing,color_aloud,color_silent,textWelcome.started,textWelcome.stopped,keyWelcome.keys,keyWelcome.rt,keyWelcome.started,keyWelcome.stopped,textAloud.started,textAloud.stopped,textSilent.started,textSilent.stopped,textSing.started,textSing.stopped,textBlank500.started,textBlank500.stopped,study_word,study_type,study_color,study_num,study_word_num,textStudy.started,textStudy.stopped,keyStudy.keys,keyStudy.started,keyStudy.stopped,keyStudy.rt,textTestInstructions.started,textTestInstructions.stopped,key_resp_3.keys,key_resp_3.rt,key_resp_3.started,key_resp_3.stopped,testWord,testType,testColor,testN,test_num,test_word_num,textConf.started,textConf.stopped,textConfScale.started,textConfScale.stopped,keyConf.keys,keyConf.rt,keyConf.started,keyConf.stopped,textTestBlank.started,textTestBlank.stopped,textRKN.started,textRKN.stopped,textRKNScale.started,textRKNScale.stopped,keyRKN.keys,keyRKN.rt,keyRKN.started,keyRKN.stopped,textEnd.started,textEnd.stopped,participant,session,date,expName,psychopyVersion,frameRate,
,,,,,,,,55.85992110008374,None,y,0.8523446000181139,55.85992110008374,None,,,,,,,,,,,,,,,,,,,,,,,,,,,,,,,,,,,,,,,,,,,,,,,,,,,,,,,,,,,,,,,Color_53,001,2022_May_03_1737,ProdSingRedo,3.2.3,60.060024011551164,
,,,,,,,,,,,,,,ColoredTest,"['red', 'yellow', 'blue']",red,yellow,blue,56.75751670007594,None,space,198.41134429979138,56.75751670007594,None,,,,,,,,,,,,,,,,,,,,,,,,,,,,,,,,,,,,,,,,,,,,,,,,,,,,Color_53,001,2022_May_03_1737,ProdSingRedo,3.2.3,60.060024011551164,
0,0,0,0,,,,,,,,,,,,,,,,,,,,,,56.75751670007594,None,56.75751670007594,None,56.75751670007594,None,257.7033760000486,None,beginning,silent,blue,69,19,255.7117057000287,None,None,255.7117057000287,None,,,,,,,,,,,,,,,,,,,,,,,,,,,,,,,,,,Color_53,001,2022_May_03_1737,ProdSingRedo,3.2.3,60.060024011551164,
1,0,1,0,,,,,,,,,,,,,,,,,,,,,,,,,,,,260.2200205998961,None,afternoon,silent,blue,76,3,258.21753360005096,None,None,258.21753360005096,None,,,,,,,,,,,,,,,,,,,,,,,,,,,,,,,,,,Color_53,001,2022_May_03_1737,ProdSingRedo,3.2.3,60.060024011551164,
2,0,2,0,,,,,,,,,,,,,,,,,,,,,,,,,,,,262.73683249996975,None,tragedy,aloud,yellow,44,335,260.74551929999143,None,None,260.74551929999143,None,,,,,,,,,,,,,,,,,,,,,,,,,,,,,,,,,,Color_53,001,2022_May_03_1737,ProdSingRedo,3.2.3,60.060024011551164,
3,0,3,0,,,,,,,,,,,,,,,,,,,,,,,,,,,,265.25366989988834,None,clean,aloud,yellow,33,51,263.25092189991847,None,None,263.25092189991847,None,,,,,,,,,,,,,,,,,,,,,,,,,,,,,,,,,,Color_53,001,2022_May_03_1737,ProdSingRedo,3.2.3,60.060024011551164,
4,0,4,0,,,,,,,,,,,,,,,,,,,,,,,,,,,,267.7705482998863,None,mechanical,aloud,yellow,41,185,265.76324149989523,None,None,265.76324149989523,None,,,,,,,,,,,,,,,,,,,,,,,,,,,,,,,,,,Color_53,001,2022_May_03_1737,ProdSingRedo,3.2.3,60.060024011551164,
5,0,5,0,,,,,,,,,,,,,,,,,,,,,,,,,,,,270.287462499924,None,shear,silent,blue,85,283,268.2842212000396,None,None,268.2842212000396,None,,,,,,,,,,,,,,,,,,,,,,,,,,,,,,,,,,Color_53,001,2022_May_03_1737,ProdSingRedo,3.2.3,60.060024011551164,
6,0,6,0,,,,,,,,,,,,,,,,,,,,,,,,,,,,272.80317849991843,None,community,aloud,yellow,47,63,270.803314599907,None,None,270.803314599907,None,,,,,,,,,,,,,,,,,,,,,,,,,,,,,,,,,,Color_53,001,2022_May_03_1737,ProdSingRedo,3.2.3,60.060024011551164,
7,0,7,0,,,,,,,,,,,,,,,,,,,,,,,,,,,,275.32102910010144,None,captain,sing,red,10,41,273.32010619994253,None,None,273.32010619994253,None,,,,,,,,,,,,,,,,,,,,,,,,,,,,,,,,,,Color_53,001,2022_May_03_1737,ProdSingRedo,3.2.3,60.060024011551164,
8,0,8,0,,,,,,,,,,,,,,,,,,,,,,,,,,,,277.83788740006275,None,expansion,silent,blue,87,123,275.8366986999754,None,None,275.8366986999754,None,,,,,,,,,,,,,,,,,,,,,,,,,,,,,,,,,,Color_53,001,2022_May_03_1737,ProdSingRedo,3.2.3,60.060024011551164,
9,0,9,0,,,,,,,,,,,,,,,,,,,,,,,,,,,,280.35479620005935,None,junior,silent,blue,77,167,278.35884370002896,None,None,278.35884370002896,None,,,,,,,,,,,,,,,,,,,,,,,,,,,,,,,,,,Color_53,001,2022_May_03_1737,ProdSingRedo,3.2.3,60.060024011551164,
10,0,10,0,,,,,,,,,,,,,,,,,,,,,,,,,,,,282.87156419991516,None,rough,aloud,yellow,59,266,280.86742929997854,None,None,280.86742929997854,None,,,,,,,,,,,,,,,,,,,,,,,,,,,,,,,,,,Color_53,001,2022_May_03_1737,ProdSingRedo,3.2.3,60.060024011551164,
11,0,11,0,,,,,,,,,,,,,,,,,,,,,,,,,,,,285.38844510004856,None,primary,aloud,yellow,55,234,283.3894114999566,None,None,283.3894114999566,None,,,,,,,,,,,,,,,,,,,,,,,,,,,,,,,,,,Color_53,001,2022_May_03_1737,ProdSingRedo,3.2.3,60.060024011551164,
12,0,12,0,,,,,,,,,,,,,,,,,,,,,,,,,,,,287.9052252001129,None,shape,aloud,yellow,52,282,285.90207220008597,None,None,285.90207220008597,None,,,,,,,,,,,,,,,,,,,,,,,,,,,,,,,,,,Color_53,001,2022_May_03_1737,ProdSingRedo,3.2.3,60.060024011551164,
13,0,13,0,,,,,,,,,,,,,,,,,,,,,,,,,,,,290.4224527999759,None,minor,silent,blue,86,191,288.41357779991813,None,None,288.41357779991813,None,,,,,,,,,,,,,,,,,,,,,,,,,,,,,,,,,,Color_53,001,2022_May_03_1737,ProdSingRedo,3.2.3,60.060024011551164,
14,0,14,0,,,,,,,,,,,,,,,,,,,,,,,,,,,,292.9391660001129,None,fashion,sing,red,17,125,290.93231629999354,None,None,290.93231629999354,None,,,,,,,,,,,,,,,,,,,,,,,,,,,,,,,,,,Color_53,001,2022_May_03_1737,ProdSingRedo,3.2.3,60.060024011551164,
15,0,15,0,,,,,,,,,,,,,,,,,,,,,,,,,,,,295.4557113999035,None,pretty,silent,blue,80,233,293.4492641999386,None,space,293.4492641999386,None,1.463000199990347,,,,,,,,,,,,,,,,,,,,,,,,,,,,,,,,,Color_53,001,2022_May_03_1737,ProdSingRedo,3.2.3,60.060024011551164,
16,0,16,0,,,,,,,,,,,,,,,,,,,,,,,,,,,,297.972840399947,None,trail,silent,blue,73,336,295.9701944999397,None,None,295.9701944999397,None,,,,,,,,,,,,,,,,,,,,,,,,,,,,,,,,,,Color_53,001,2022_May_03_1737,ProdSingRedo,3.2.3,60.060024011551164,
17,0,17,0,,,,,,,,,,,,,,,,,,,,,,,,,,,,300.48936309991404,None,territory,aloud,yellow,56,324,298.4866239998955,None,None,298.4866239998955,None,,,,,,,,,,,,,,,,,,,,,,,,,,,,,,,,,,Color_53,001,2022_May_03_1737,ProdSingRedo,3.2.3,60.060024011551164,
18,0,18,0,,,,,,,,,,,,,,,,,,,,,,,,,,,,303.0051591999363,None,order,sing,red,14,207,301.0001507999841,None,None,301.0001507999841,None,,,,,,,,,,,,,,,,,,,,,,,,,,,,,,,,,,Color_53,001,2022_May_03_1737,ProdSingRedo,3.2.3,60.060024011551164,
19,0,19,0,,,,,,,,,,,,,,,,,,,,,,,,,,,,305.5230668000877,None,point,silent,blue,88,226,303.51571019995026,None,None,303.51571019995026,None,,,,,,,,,,,,,,,,,,,,,,,,,,,,,,,,,,Color_53,001,2022_May_03_1737,ProdSingRedo,3.2.3,60.060024011551164,
20,0,20,0,,,,,,,,,,,,,,,,,,,,,,,,,,,,308.0233056000434,None,graduate,sing,red,22,141,306.02428569993936,None,None,306.02428569993936,None,,,,,,,,,,,,,,,,,,,,,,,,,,,,,,,,,,Color_53,001,2022_May_03_1737,ProdSingRedo,3.2.3,60.060024011551164,
21,0,21,0,,,,,,,,,,,,,,,,,,,,,,,,,,,,310.5400916999206,None,conference,sing,red,3,66,308.53983830008656,None,None,308.53983830008656,None,,,,,,,,,,,,,,,,,,,,,,,,,,,,,,,,,,Color_53,001,2022_May_03_1737,ProdSingRedo,3.2.3,60.060024011551164,
22,0,22,0,,,,,,,,,,,,,,,,,,,,,,,,,,,,313.0568429999985,None,attack,sing,red,12,13,311.06146109988913,None,None,311.06146109988913,None,,,,,,,,,,,,,,,,,,,,,,,,,,,,,,,,,,Color_53,001,2022_May_03_1737,ProdSingRedo,3.2.3,60.060024011551164,
23,0,23,0,,,,,,,,,,,,,,,,,,,,,,,,,,,,315.5738689999562,None,thing,sing,red,24,328,313.5669146999717,None,None,313.5669146999717,None,,,,,,,,,,,,,,,,,,,,,,,,,,,,,,,,,,Color_53,001,2022_May_03_1737,ProdSingRedo,3.2.3,60.060024011551164,
24,0,24,0,,,,,,,,,,,,,,,,,,,,,,,,,,,,318.09059079992585,None,medicine,silent,blue,89,186,316.08307139994577,None,None,316.08307139994577,None,,,,,,,,,,,,,,,,,,,,,,,,,,,,,,,,,,Color_53,001,2022_May_03_1737,ProdSingRedo,3.2.3,60.060024011551164,
25,0,25,0,,,,,,,,,,,,,,,,,,,,,,,,,,,,320.6075212000869,None,surprise,sing,red,29,317,318.60548990010284,None,None,318.60548990010284,None,,,,,,,,,,,,,,,,,,,,,,,,,,,,,,,,,,Color_53,001,2022_May_03_1737,ProdSingRedo,3.2.3,60.060024011551164,
26,0,26,0,,,,,,,,,,,,,,,,,,,,,,,,,,,,323.12425939994864,None,block,sing,red,0,25,321.1241220999509,None,None,321.1241220999509,None,,,,,,,,,,,,,,,,,,,,,,,,,,,,,,,,,,Color_53,001,2022_May_03_1737,ProdSingRedo,3.2.3,60.060024011551164,
27,0,27,0,,,,,,,,,,,,,,,,,,,,,,,,,,,,325.64108380000107,None,management,sing,red,8,177,323.6440564999357,None,None,323.6440564999357,None,,,,,,,,,,,,,,,,,,,,,,,,,,,,,,,,,,Color_53,001,2022_May_03_1737,ProdSingRedo,3.2.3,60.060024011551164,
28,0,28,0,,,,,,,,,,,,,,,,,,,,,,,,,,,,328.15802760003135,None,motion,silent,blue,82,194,326.1498287001159,None,None,326.1498287001159,None,,,,,,,,,,,,,,,,,,,,,,,,,,,,,,,,,,Color_53,001,2022_May_03_1737,ProdSingRedo,3.2.3,60.060024011551164,
29,0,29,0,,,,,,,,,,,,,,,,,,,,,,,,,,,,330.67483130004257,None,problem,aloud,yellow,38,238,328.67368569993414,None,None,328.67368569993414,None,,,,,,,,,,,,,,,,,,,,,,,,,,,,,,,,,,Color_53,001,2022_May_03_1737,ProdSingRedo,3.2.3,60.060024011551164,
30,0,30,0,,,,,,,,,,,,,,,,,,,,,,,,,,,,333.19184620003216,None,nature,silent,blue,64,200,331.1917189001106,None,None,331.1917189001106,None,,,,,,,,,,,,,,,,,,,,,,,,,,,,,,,,,,Color_53,001,2022_May_03_1737,ProdSingRedo,3.2.3,60.060024011551164,
31,0,31,0,,,,,,,,,,,,,,,,,,,,,,,,,,,,335.7083930000663,None,measure,sing,red,18,184,333.71143850008957,None,None,333.71143850008957,None,,,,,,,,,,,,,,,,,,,,,,,,,,,,,,,,,,Color_53,001,2022_May_03_1737,ProdSingRedo,3.2.3,60.060024011551164,
32,0,32,0,,,,,,,,,,,,,,,,,,,,,,,,,,,,338.2253572999034,None,dispute,aloud,yellow,46,99,336.2228496999014,None,None,336.2228496999014,None,,,,,,,,,,,,,,,,,,,,,,,,,,,,,,,,,,Color_53,001,2022_May_03_1737,ProdSingRedo,3.2.3,60.060024011551164,
33,0,33,0,,,,,,,,,,,,,,,,,,,,,,,,,,,,340.74215859989636,None,enemy,silent,blue,61,113,338.7356682000682,None,None,338.7356682000682,None,,,,,,,,,,,,,,,,,,,,,,,,,,,,,,,,,,Color_53,001,2022_May_03_1737,ProdSingRedo,3.2.3,60.060024011551164,
34,0,34,0,,,,,,,,,,,,,,,,,,,,,,,,,,,,343.2589207999408,None,broke,silent,blue,67,32,341.258689600043,None,None,341.258689600043,None,,,,,,,,,,,,,,,,,,,,,,,,,,,,,,,,,,Color_53,001,2022_May_03_1737,ProdSingRedo,3.2.3,60.060024011551164,
35,0,35,0,,,,,,,,,,,,,,,,,,,,,,,,,,,,345.77760390006006,None,rural,aloud,yellow,39,269,343.76939380005933,None,None,343.76939380005933,None,,,,,,,,,,,,,,,,,,,,,,,,,,,,,,,,,,Color_53,001,2022_May_03_1737,ProdSingRedo,3.2.3,60.060024011551164,
36,0,36,0,,,,,,,,,,,,,,,,,,,,,,,,,,,,348.29267699993216,None,tough,aloud,yellow,45,333,346.2778702999931,None,None,346.2778702999931,None,,,,,,,,,,,,,,,,,,,,,,,,,,,,,,,,,,Color_53,001,2022_May_03_1737,ProdSingRedo,3.2.3,60.060024011551164,
37,0,37,0,,,,,,,,,,,,,,,,,,,,,,,,,,,,350.8088223999366,None,industry,silent,blue,60,161,348.8123488998972,None,None,348.8123488998972,None,,,,,,,,,,,,,,,,,,,,,,,,,,,,,,,,,,Color_53,001,2022_May_03_1737,ProdSingRedo,3.2.3,60.060024011551164,
38,0,38,0,,,,,,,,,,,,,,,,,,,,,,,,,,,,353.3263864000328,None,design,aloud,yellow,50,91,351.3239305000752,None,None,351.3239305000752,None,,,,,,,,,,,,,,,,,,,,,,,,,,,,,,,,,,Color_53,001,2022_May_03_1737,ProdSingRedo,3.2.3,60.060024011551164,
39,0,39,0,,,,,,,,,,,,,,,,,,,,,,,,,,,,355.84318559989333,None,weather,silent,blue,72,352,353.8311234000139,None,None,353.8311234000139,None,,,,,,,,,,,,,,,,,,,,,,,,,,,,,,,,,,Color_53,001,2022_May_03_1737,ProdSingRedo,3.2.3,60.060024011551164,
40,0,40,0,,,,,,,,,,,,,,,,,,,,,,,,,,,,358.3599048999604,None,tennis,sing,red,15,323,356.35135379992425,None,None,356.35135379992425,None,,,,,,,,,,,,,,,,,,,,,,,,,,,,,,,,,,Color_53,001,2022_May_03_1737,ProdSingRedo,3.2.3,60.060024011551164,
41,0,41,0,,,,,,,,,,,,,,,,,,,,,,,,,,,,360.8773296000436,None,society,silent,blue,68,293,358.87936999998055,None,None,358.87936999998055,None,,,,,,,,,,,,,,,,,,,,,,,,,,,,,,,,,,Color_53,001,2022_May_03_1737,ProdSingRedo,3.2.3,60.060024011551164,
42,0,42,0,,,,,,,,,,,,,,,,,,,,,,,,,,,,363.3935724000912,None,engineer,silent,blue,79,114,361.3924857999664,None,None,361.3924857999664,None,,,,,,,,,,,,,,,,,,,,,,,,,,,,,,,,,,Color_53,001,2022_May_03_1737,ProdSingRedo,3.2.3,60.060024011551164,
43,0,43,0,,,,,,,,,,,,,,,,,,,,,,,,,,,,365.90952119999565,None,scene,sing,red,1,273,363.90480379993096,None,None,363.90480379993096,None,,,,,,,,,,,,,,,,,,,,,,,,,,,,,,,,,,Color_53,001,2022_May_03_1737,ProdSingRedo,3.2.3,60.060024011551164,
44,0,44,0,,,,,,,,,,,,,,,,,,,,,,,,,,,,368.4274025999475,None,range,sing,red,16,251,366.42636379995383,None,None,366.42636379995383,None,,,,,,,,,,,,,,,,,,,,,,,,,,,,,,,,,,Color_53,001,2022_May_03_1737,ProdSingRedo,3.2.3,60.060024011551164,
45,0,45,0,,,,,,,,,,,,,,,,,,,,,,,,,,,,370.9278617000673,None,close,aloud,yellow,34,53,368.9273465999868,None,None,368.9273465999868,None,,,,,,,,,,,,,,,,,,,,,,,,,,,,,,,,,,Color_53,001,2022_May_03_1737,ProdSingRedo,3.2.3,60.060024011551164,
46,0,46,0,,,,,,,,,,,,,,,,,,,,,,,,,,,,373.4443020001054,None,short,aloud,yellow,49,285,371.4397640998941,None,None,371.4397640998941,None,,,,,,,,,,,,,,,,,,,,,,,,,,,,,,,,,,Color_53,001,2022_May_03_1737,ProdSingRedo,3.2.3,60.060024011551164,
47,0,47,0,,,,,,,,,,,,,,,,,,,,,,,,,,,,375.9610121001024,None,guard,sing,red,2,145,373.957346299896,None,None,373.957346299896,None,,,,,,,,,,,,,,,,,,,,,,,,,,,,,,,,,,Color_53,001,2022_May_03_1737,ProdSingRedo,3.2.3,60.060024011551164,
48,0,48,0,,,,,,,,,,,,,,,,,,,,,,,,,,,,378.47806330001913,None,state,silent,blue,66,303,376.47367860004306,None,None,376.47367860004306,None,,,,,,,,,,,,,,,,,,,,,,,,,,,,,,,,,,Color_53,001,2022_May_03_1737,ProdSingRedo,3.2.3,60.060024011551164,
49,0,49,0,,,,,,,,,,,,,,,,,,,,,,,,,,,,380.99480849993415,None,company,aloud,yellow,48,64,378.9980099000968,None,None,378.9980099000968,None,,,,,,,,,,,,,,,,,,,,,,,,,,,,,,,,,,Color_53,001,2022_May_03_1737,ProdSingRedo,3.2.3,60.060024011551164,
50,0,50,0,,,,,,,,,,,,,,,,,,,,,,,,,,,,383.51167439995334,None,cross,silent,blue,75,80,381.5032349000685,None,None,381.5032349000685,None,,,,,,,,,,,,,,,,,,,,,,,,,,,,,,,,,,Color_53,001,2022_May_03_1737,ProdSingRedo,3.2.3,60.060024011551164,
51,0,51,0,,,,,,,,,,,,,,,,,,,,,,,,,,,,386.0290991999209,None,collection,aloud,yellow,35,54,384.02151170000434,None,None,384.02151170000434,None,,,,,,,,,,,,,,,,,,,,,,,,,,,,,,,,,,Color_53,001,2022_May_03_1737,ProdSingRedo,3.2.3,60.060024011551164,
52,0,52,0,,,,,,,,,,,,,,,,,,,,,,,,,,,,388.5454082998913,None,patient,sing,red,26,213,386.54274459998123,None,None,386.54274459998123,None,,,,,,,,,,,,,,,,,,,,,,,,,,,,,,,,,,Color_53,001,2022_May_03_1737,ProdSingRedo,3.2.3,60.060024011551164,
53,0,53,0,,,,,,,,,,,,,,,,,,,,,,,,,,,,391.0621499000117,None,reading,sing,red,25,254,389.0595641999971,None,None,389.0595641999971,None,,,,,,,,,,,,,,,,,,,,,,,,,,,,,,,,,,Color_53,001,2022_May_03_1737,ProdSingRedo,3.2.3,60.060024011551164,
54,0,54,0,,,,,,,,,,,,,,,,,,,,,,,,,,,,393.57915670005605,None,display,aloud,yellow,30,98,391.57752800011076,None,None,391.57752800011076,None,,,,,,,,,,,,,,,,,,,,,,,,,,,,,,,,,,Color_53,001,2022_May_03_1737,ProdSingRedo,3.2.3,60.060024011551164,
55,0,55,0,,,,,,,,,,,,,,,,,,,,,,,,,,,,396.0961474000942,None,marriage,sing,red,21,179,394.09549729991704,None,None,394.09549729991704,None,,,,,,,,,,,,,,,,,,,,,,,,,,,,,,,,,,Color_53,001,2022_May_03_1737,ProdSingRedo,3.2.3,60.060024011551164,
56,0,56,0,,,,,,,,,,,,,,,,,,,,,,,,,,,,398.6127913999371,None,throw,sing,red,4,330,396.60873549990356,None,None,396.60873549990356,None,,,,,,,,,,,,,,,,,,,,,,,,,,,,,,,,,,Color_53,001,2022_May_03_1737,ProdSingRedo,3.2.3,60.060024011551164,
57,0,57,0,,,,,,,,,,,,,,,,,,,,,,,,,,,,401.1294509000145,None,republic,aloud,yellow,40,260,399.11999629996717,None,None,399.11999629996717,None,,,,,,,,,,,,,,,,,,,,,,,,,,,,,,,,,,Color_53,001,2022_May_03_1737,ProdSingRedo,3.2.3,60.060024011551164,
58,0,58,0,,,,,,,,,,,,,,,,,,,,,,,,,,,,403.6463542000856,None,crisis,sing,red,11,79,401.63902879995294,None,None,401.63902879995294,None,,,,,,,,,,,,,,,,,,,,,,,,,,,,,,,,,,Color_53,001,2022_May_03_1737,ProdSingRedo,3.2.3,60.060024011551164,
59,0,59,0,,,,,,,,,,,,,,,,,,,,,,,,,,,,406.16320369997993,None,smell,aloud,yellow,36,291,404.1540614999831,None,None,404.1540614999831,None,,,,,,,,,,,,,,,,,,,,,,,,,,,,,,,,,,Color_53,001,2022_May_03_1737,ProdSingRedo,3.2.3,60.060024011551164,
60,0,60,0,,,,,,,,,,,,,,,,,,,,,,,,,,,,408.68001000001095,None,growth,silent,blue,65,144,406.67756920005195,None,None,406.67756920005195,None,,,,,,,,,,,,,,,,,,,,,,,,,,,,,,,,,,Color_53,001,2022_May_03_1737,ProdSingRedo,3.2.3,60.060024011551164,
61,0,61,0,,,,,,,,,,,,,,,,,,,,,,,,,,,,411.1973961000331,None,recall,sing,red,5,255,409.1960585000925,None,None,409.1960585000925,None,,,,,,,,,,,,,,,,,,,,,,,,,,,,,,,,,,Color_53,001,2022_May_03_1737,ProdSingRedo,3.2.3,60.060024011551164,
62,0,62,0,,,,,,,,,,,,,,,,,,,,,,,,,,,,413.71431119996123,None,corner,sing,red,7,69,411.7089692999143,None,None,411.7089692999143,None,,,,,,,,,,,,,,,,,,,,,,,,,,,,,,,,,,Color_53,001,2022_May_03_1737,ProdSingRedo,3.2.3,60.060024011551164,
63,0,63,0,,,,,,,,,,,,,,,,,,,,,,,,,,,,416.23065929999575,None,orchestra,silent,blue,84,206,414.23003010009415,None,None,414.23003010009415,None,,,,,,,,,,,,,,,,,,,,,,,,,,,,,,,,,,Color_53,001,2022_May_03_1737,ProdSingRedo,3.2.3,60.060024011551164,
64,0,64,0,,,,,,,,,,,,,,,,,,,,,,,,,,,,418.74734020000324,None,general,silent,blue,74,135,416.74711690004915,None,None,416.74711690004915,None,,,,,,,,,,,,,,,,,,,,,,,,,,,,,,,,,,Color_53,001,2022_May_03_1737,ProdSingRedo,3.2.3,60.060024011551164,
65,0,65,0,,,,,,,,,,,,,,,,,,,,,,,,,,,,421.26451079989783,None,position,silent,blue,81,229,419.25889359996654,None,None,419.25889359996654,None,,,,,,,,,,,,,,,,,,,,,,,,,,,,,,,,,,Color_53,001,2022_May_03_1737,ProdSingRedo,3.2.3,60.060024011551164,
66,0,66,0,,,,,,,,,,,,,,,,,,,,,,,,,,,,423.78108399990015,None,produce,aloud,yellow,57,239,421.7810541000217,None,None,421.7810541000217,None,,,,,,,,,,,,,,,,,,,,,,,,,,,,,,,,,,Color_53,001,2022_May_03_1737,ProdSingRedo,3.2.3,60.060024011551164,
67,0,67,0,,,,,,,,,,,,,,,,,,,,,,,,,,,,426.29807769996114,None,entrance,aloud,yellow,58,115,424.28866340010427,None,None,424.28866340010427,None,,,,,,,,,,,,,,,,,,,,,,,,,,,,,,,,,,Color_53,001,2022_May_03_1737,ProdSingRedo,3.2.3,60.060024011551164,
68,0,68,0,,,,,,,,,,,,,,,,,,,,,,,,,,,,428.8147247999441,None,split,aloud,yellow,51,299,426.8074060000945,None,None,426.8074060000945,None,,,,,,,,,,,,,,,,,,,,,,,,,,,,,,,,,,Color_53,001,2022_May_03_1737,ProdSingRedo,3.2.3,60.060024011551164,
69,0,69,0,,,,,,,,,,,,,,,,,,,,,,,,,,,,431.31529160006903,None,division,sing,red,9,101,429.31603399990126,None,None,429.31603399990126,None,,,,,,,,,,,,,,,,,,,,,,,,,,,,,,,,,,Color_53,001,2022_May_03_1737,ProdSingRedo,3.2.3,60.060024011551164,
70,0,70,0,,,,,,,,,,,,,,,,,,,,,,,,,,,,433.8318264998961,None,principal,aloud,yellow,37,236,431.83127620001324,None,None,431.83127620001324,None,,,,,,,,,,,,,,,,,,,,,,,,,,,,,,,,,,Color_53,001,2022_May_03_1737,ProdSingRedo,3.2.3,60.060024011551164,
71,0,71,0,,,,,,,,,,,,,,,,,,,,,,,,,,,,436.34850060008466,None,native,aloud,yellow,54,199,434.3558743998874,None,None,434.3558743998874,None,,,,,,,,,,,,,,,,,,,,,,,,,,,,,,,,,,Color_53,001,2022_May_03_1737,ProdSingRedo,3.2.3,60.060024011551164,
72,0,72,0,,,,,,,,,,,,,,,,,,,,,,,,,,,,438.86544200009666,None,mankind,silent,blue,78,178,436.86683419998735,None,None,436.86683419998735,None,,,,,,,,,,,,,,,,,,,,,,,,,,,,,,,,,,Color_53,001,2022_May_03_1737,ProdSingRedo,3.2.3,60.060024011551164,
73,0,73,0,,,,,,,,,,,,,,,,,,,,,,,,,,,,441.3829075000249,None,sight,aloud,yellow,43,286,439.3778961999342,None,None,439.3778961999342,None,,,,,,,,,,,,,,,,,,,,,,,,,,,,,,,,,,Color_53,001,2022_May_03_1737,ProdSingRedo,3.2.3,60.060024011551164,
74,0,74,0,,,,,,,,,,,,,,,,,,,,,,,,,,,,443.8990563999396,None,rapid,silent,blue,71,252,441.89539549988694,None,None,441.89539549988694,None,,,,,,,,,,,,,,,,,,,,,,,,,,,,,,,,,,Color_53,001,2022_May_03_1737,ProdSingRedo,3.2.3,60.060024011551164,
75,0,75,0,,,,,,,,,,,,,,,,,,,,,,,,,,,,446.4159407999832,None,center,aloud,yellow,53,44,444.40804019989446,None,None,444.40804019989446,None,,,,,,,,,,,,,,,,,,,,,,,,,,,,,,,,,,Color_53,001,2022_May_03_1737,ProdSingRedo,3.2.3,60.060024011551164,
76,0,76,0,,,,,,,,,,,,,,,,,,,,,,,,,,,,448.93273000000045,None,ground,sing,red,13,142,446.92921600001864,None,None,446.92921600001864,None,,,,,,,,,,,,,,,,,,,,,,,,,,,,,,,,,,Color_53,001,2022_May_03_1737,ProdSingRedo,3.2.3,60.060024011551164,
77,0,77,0,,,,,,,,,,,,,,,,,,,,,,,,,,,,451.45017329999246,None,platform,silent,blue,62,224,449.44869240000844,None,None,449.44869240000844,None,,,,,,,,,,,,,,,,,,,,,,,,,,,,,,,,,,Color_53,001,2022_May_03_1737,ProdSingRedo,3.2.3,60.060024011551164,
78,0,78,0,,,,,,,,,,,,,,,,,,,,,,,,,,,,453.96638070000336,None,review,aloud,yellow,31,263,451.96911570010707,None,None,451.96911570010707,None,,,,,,,,,,,,,,,,,,,,,,,,,,,,,,,,,,Color_53,001,2022_May_03_1737,ProdSingRedo,3.2.3,60.060024011551164,
79,0,79,0,,,,,,,,,,,,,,,,,,,,,,,,,,,,456.4833382999059,None,suggestion,sing,red,27,314,454.4808231999632,None,None,454.4808231999632,None,,,,,,,,,,,,,,,,,,,,,,,,,,,,,,,,,,Color_53,001,2022_May_03_1737,ProdSingRedo,3.2.3,60.060024011551164,
80,0,80,0,,,,,,,,,,,,,,,,,,,,,,,,,,,,459.00008290004916,None,estate,aloud,yellow,32,119,456.9976572000887,None,None,456.9976572000887,None,,,,,,,,,,,,,,,,,,,,,,,,,,,,,,,,,,Color_53,001,2022_May_03_1737,ProdSingRedo,3.2.3,60.060024011551164,
81,0,81,0,,,,,,,,,,,,,,,,,,,,,,,,,,,,461.51687659998424,None,season,silent,blue,70,277,459.51312889996916,None,None,459.51312889996916,None,,,,,,,,,,,,,,,,,,,,,,,,,,,,,,,,,,Color_53,001,2022_May_03_1737,ProdSingRedo,3.2.3,60.060024011551164,
82,0,82,0,,,,,,,,,,,,,,,,,,,,,,,,,,,,464.03394449991174,None,sleep,silent,blue,83,290,462.02561299991794,None,None,462.02561299991794,None,,,,,,,,,,,,,,,,,,,,,,,,,,,,,,,,,,Color_53,001,2022_May_03_1737,ProdSingRedo,3.2.3,60.060024011551164,
83,0,83,0,,,,,,,,,,,,,,,,,,,,,,,,,,,,466.55062770005316,None,public,sing,red,28,244,464.5464101000689,None,None,464.5464101000689,None,,,,,,,,,,,,,,,,,,,,,,,,,,,,,,,,,,Color_53,001,2022_May_03_1737,ProdSingRedo,3.2.3,60.060024011551164,
84,0,84,0,,,,,,,,,,,,,,,,,,,,,,,,,,,,469.0674775999505,None,whole,sing,red,19,355,467.06224110000767,None,None,467.06224110000767,None,,,,,,,,,,,,,,,,,,,,,,,,,,,,,,,,,,Color_53,001,2022_May_03_1737,ProdSingRedo,3.2.3,60.060024011551164,
85,0,85,0,,,,,,,,,,,,,,,,,,,,,,,,,,,,471.58427629992366,None,disease,sing,red,6,97,469.5798998998944,None,None,469.5798998998944,None,,,,,,,,,,,,,,,,,,,,,,,,,,,,,,,,,,Color_53,001,2022_May_03_1737,ProdSingRedo,3.2.3,60.060024011551164,
86,0,86,0,,,,,,,,,,,,,,,,,,,,,,,,,,,,474.1010672999546,None,relation,sing,red,23,257,472.097704899963,None,None,472.097704899963,None,,,,,,,,,,,,,,,,,,,,,,,,,,,,,,,,,,Color_53,001,2022_May_03_1737,ProdSingRedo,3.2.3,60.060024011551164,
87,0,87,0,,,,,,,,,,,,,,,,,,,,,,,,,,,,476.6178882000968,None,executive,aloud,yellow,42,122,474.6182744000107,None,None,474.6182744000107,None,,,,,,,,,,,,,,,,,,,,,,,,,,,,,,,,,,Color_53,001,2022_May_03_1737,ProdSingRedo,3.2.3,60.060024011551164,
88,0,88,0,,,,,,,,,,,,,,,,,,,,,,,,,,,,479.13470060005784,None,harmony,sing,red,20,148,477.13516220008023,None,None,477.13516220008023,None,,,,,,,,,,,,,,,,,,,,,,,,,,,,,,,,,,Color_53,001,2022_May_03_1737,ProdSingRedo,3.2.3,60.060024011551164,
89,0,89,0,,,,,,,,,,,,,,,,,,,,,,,,,,,,481.6514280999545,None,impact,silent,blue,63,157,479.65020060003735,None,None,479.65020060003735,None,,,,,,,,,,,,,,,,,,,,,,,,,,,,,,,,,,Color_53,001,2022_May_03_1737,ProdSingRedo,3.2.3,60.060024011551164,
,,,,,,,,,,,,,,,,,,,,,,,,,,,,,,,,,,,,,,,,,,,,482.1507061000448,None,k,138.28160950005986,482.1507061000448,None,,,,,,,,,,,,,,,,,,,,,,,,,,,Color_53,001,2022_May_03_1737,ProdSingRedo,3.2.3,60.060024011551164,
,,,,0,0,0,0,,,,,,,,,,,,,,,,,,,,,,,,680.9621393000707,None,,,,,,,,,,,,,,,,,,dispute,aloud,yellow,0,46,99,620.9843369999435,None,620.9843369999435,None,3,57.031857799971476,620.9843369999435,None,678.063980499981,None,678.5812385999598,None,678.5812385999598,None,f,2.3472283000592142,678.5812385999598,None,,,Color_53,001,2022_May_03_1737,ProdSingRedo,3.2.3,60.060024011551164,
,,,,1,0,1,0,,,,,,,,,,,,,,,,,,,,,,,,690.2832380000036,None,,,,,,,,,,,,,,,,,,public,sing,red,1,28,244,681.4853000000585,None,681.4853000000585,None,6,6.202886499930173,681.4853000000585,None,687.7386928000487,None,688.2592281999532,None,688.2592281999532,None,r,1.996662399964407,688.2592281999532,None,,,Color_53,001,2022_May_03_1737,ProdSingRedo,3.2.3,60.060024011551164,
,,,,2,0,2,0,,,,,,,,,,,,,,,,,,,,,,,,700.2276133000851,None,,,,,,,,,,,,,,,,,,block,sing,red,2,0,25,690.801924899919,None,690.801924899919,None,6,6.686141799902543,690.801924899919,None,697.5433028000407,None,698.0598528999835,None,698.0598528999835,None,r,2.1403030999936163,698.0598528999835,None,,,Color_53,001,2022_May_03_1737,ProdSingRedo,3.2.3,60.060024011551164,
,,,,3,0,3,0,,,,,,,,,,,,,,,,,,,,,,,,708.6441927999258,None,,,,,,,,,,,,,,,,,,service,new_aloud,yellow,3,148,280,700.7530439998955,None,700.7530439998955,None,1,5.5431182000320405,700.7530439998955,None,706.3445109999739,None,706.858188000042,None,706.858188000042,None,n,1.7580540999770164,706.858188000042,None,,,Color_53,001,2022_May_03_1737,ProdSingRedo,3.2.3,60.060024011551164,
,,,,4,0,4,0,,,,,,,,,,,,,,,,,,,,,,,,714.6444127000868,None,,,,,,,,,,,,,,,,,,production,new_aloud,yellow,4,140,240,709.1703753001057,None,709.1703753001057,None,6,4.317846699850634,709.1703753001057,None,713.5433978999499,None,714.0658533000387,None,714.0658533000387,None,r,0.5503687998279929,714.0658533000387,None,,,Color_53,001,2022_May_03_1737,ProdSingRedo,3.2.3,60.060024011551164,
,,,,5,0,5,0,,,,,,,,,,,,,,,,,,,,,,,,725.960600099992,None,,,,,,,,,,,,,,,,,,prime,new_sing,red,5,109,235,715.163233499974,None,715.163233499974,None,1,8.676828399999067,715.163233499974,None,723.8890156000853,None,724.4095550000202,None,724.4095550000202,None,n,1.518570499960333,724.4095550000202,None,,,Color_53,001,2022_May_03_1737,ProdSingRedo,3.2.3,60.060024011551164,
,,,,6,0,6,0,,,,,,,,,,,,,,,,,,,,,,,,735.3790233000182,None,,,,,,,,,,,,,,,,,,dance,new_silent,blue,6,168,84,726.486670000013,None,726.486670000013,None,4,7.081534200115129,726.486670000013,None,733.6088292999193,None,734.1315826999489,None,734.1315826999489,None,f,1.2125647000502795,734.1315826999489,None,,,Color_53,001,2022_May_03_1737,ProdSingRedo,3.2.3,60.060024011551164,
,,,,7,0,7,0,,,,,,,,,,,,,,,,,,,,,,,,741.1128481000196,None,,,,,,,,,,,,,,,,,,orchestra,silent,blue,7,84,206,735.9044929000083,None,735.9044929000083,None,4,3.9036572000477463,735.9044929000083,None,739.8613495000172,None,740.3818932001013,None,740.3818932001013,None,f,0.6902562000323087,740.3818932001013,None,,,Color_53,001,2022_May_03_1737,ProdSingRedo,3.2.3,60.060024011551164,
,,,,8,0,8,0,,,,,,,,,,,,,,,,,,,,,,,,751.0796465000603,None,,,,,,,,,,,,,,,,,,native,aloud,yellow,8,54,199,741.6425771000795,None,741.6425771000795,None,6,7.277688300004229,741.6425771000795,None,748.9637480999809,None,749.4827403998934,None,749.4827403998934,None,r,1.5573773998767138,749.4827403998934,None,,,Color_53,001,2022_May_03_1737,ProdSingRedo,3.2.3,60.060024011551164,
,,,,9,0,9,0,,,,,,,,,,,,,,,,,,,,,,,,758.7968896001112,None,,,,,,,,,,,,,,,,,,division,sing,red,9,9,101,751.6060691000894,None,751.6060691000894,None,3,5.930234299972653,751.6060691000894,None,757.5794234001078,None,758.0992558998987,None,758.0992558998987,None,f,0.6691905001644045,758.0992558998987,None,,,Color_53,001,2022_May_03_1737,ProdSingRedo,3.2.3,60.060024011551164,
,,,,10,0,10,0,,,,,,,,,,,,,,,,,,,,,,,,766.1654081998859,None,,,,,,,,,,,,,,,,,,season,silent,blue,10,70,277,759.3213194999844,None,759.3213194999844,None,6,5.214931499911472,759.3213194999844,None,764.579432999948,None,765.1002966999076,None,765.1002966999076,None,r,1.0279594000894576,765.1002966999076,None,,,Color_53,001,2022_May_03_1737,ProdSingRedo,3.2.3,60.060024011551164,
,,,,11,0,11,0,,,,,,,,,,,,,,,,,,,,,,,,773.5976336998865,None,,,,,,,,,,,,,,,,,,material,new_silent,blue,11,167,182,766.6929319999181,None,766.6929319999181,None,1,2.7231956000905484,766.6929319999181,None,769.4624528998975,None,769.9893618999049,None,769.9893618999049,None,f,3.5706994000356644,769.9893618999049,None,,,Color_53,001,2022_May_03_1737,ProdSingRedo,3.2.3,60.060024011551164,
,,,,12,0,12,0,,,,,,,,,,,,,,,,,,,,,,,,782.2045380000491,None,,,,,,,,,,,,,,,,,,second,new_sing,red,12,92,278,774.1190518001094,None,774.1190518001094,None,5,6.081128699937835,774.1190518001094,None,780.2418992000166,None,780.765659699915,None,780.765659699915,None,f,1.4101336000021547,780.765659699915,None,,,Color_53,001,2022_May_03_1737,ProdSingRedo,3.2.3,60.060024011551164,
,,,,13,0,13,0,,,,,,,,,,,,,,,,,,,,,,,,788.7007323999424,None,,,,,,,,,,,,,,,,,,grade,new_silent,blue,13,175,140,782.7088870001025,None,782.7088870001025,None,1,2.6351729000452906,782.7088870001025,None,785.3947683998849,None,785.9176620000508,None,785.9176620000508,None,n,2.746482999995351,785.9176620000508,None,,,Color_53,001,2022_May_03_1737,ProdSingRedo,3.2.3,60.060024011551164,
,,,,14,0,14,0,,,,,,,,,,,,,,,,,,,,,,,,793.8164035000373,None,,,,,,,,,,,,,,,,,,turkey,new_aloud,yellow,14,145,342,789.2314720998984,None,789.2314720998984,None,1,3.0567165000829846,789.2314720998984,None,792.3353550999891,None,792.8548797001131,None,792.8548797001131,None,n,0.9293218001257628,792.8548797001131,None,,,Color_53,001,2022_May_03_1737,ProdSingRedo,3.2.3,60.060024011551164,
,,,,15,0,15,0,,,,,,,,,,,,,,,,,,,,,,,,801.0005773999728,None,,,,,,,,,,,,,,,,,,danger,new_silent,blue,15,165,85,794.3438897999004,None,794.3438897999004,None,3,4.67198590002954,794.3438897999004,None,799.0412419999484,None,799.5716105999891,None,799.5716105999891,None,f,1.3885317000094801,799.5716105999891,None,,,Color_53,001,2022_May_03_1737,ProdSingRedo,3.2.3,60.060024011551164,
,,,,16,0,16,0,,,,,,,,,,,,,,,,,,,,,,,,807.9991578001063,None,,,,,,,,,,,,,,,,,,force,new_aloud,yellow,16,141,131,801.5256244000047,None,801.5256244000047,None,1,3.082623199792579,801.5256244000047,None,804.6497736999299,None,805.1690138000995,None,805.1690138000995,None,n,2.7991473998408765,805.1690138000995,None,,,Color_53,001,2022_May_03_1737,ProdSingRedo,3.2.3,60.060024011551164,
,,,,17,0,17,0,,,,,,,,,,,,,,,,,,,,,,,,814.4345476999879,None,,,,,,,,,,,,,,,,,,safety,new_sing,red,17,113,270,808.5292062999215,None,808.5292062999215,None,1,4.10258309985511,808.5292062999215,None,812.6615526999813,None,813.1887193000875,None,813.1887193000875,None,n,1.2114598997868598,813.1887193000875,None,,,Color_53,001,2022_May_03_1737,ProdSingRedo,3.2.3,60.060024011551164,
,,,,18,0,18,0,,,,,,,,,,,,,,,,,,,,,,,,823.7850484000519,None,,,,,,,,,,,,,,,,,,revolution,new_silent,blue,18,159,264,814.9629965000786,None,814.9629965000786,None,4,6.989132300019264,814.9629965000786,None,821.998370599933,None,822.5264920999762,None,822.5264920999762,None,f,1.2176377000287175,822.5264920999762,None,,,Color_53,001,2022_May_03_1737,ProdSingRedo,3.2.3,60.060024011551164,
,,,,19,0,19,0,,,,,,,,,,,,,,,,,,,,,,,,828.6524225999601,None,,,,,,,,,,,,,,,,,,shape,aloud,yellow,19,52,282,824.3053731999826,None,824.3053731999826,None,3,3.2068311001639813,824.3053731999826,None,827.5664293000009,None,828.0851181000471,None,828.0851181000471,None,f,0.531025700038299,828.0851181000471,None,,,Color_53,001,2022_May_03_1737,ProdSingRedo,3.2.3,60.060024011551164,
,,,,20,0,20,0,,,,,,,,,,,,,,,,,,,,,,,,835.4373276000842,None,,,,,,,,,,,,,,,,,,entrance,aloud,yellow,20,58,115,829.1785675000865,None,829.1785675000865,None,4,4.909478999907151,829.1785675000865,None,834.1337971000466,None,834.6561577001121,None,834.6561577001121,None,f,0.7521162000484765,834.6561577001121,None,,,Color_53,001,2022_May_03_1737,ProdSingRedo,3.2.3,60.060024011551164,
,,,,21,0,21,0,,,,,,,,,,,,,,,,,,,,,,,,844.801877199905,None,,,,,,,,,,,,,,,,,,solution,new_aloud,yellow,21,133,294,835.9609681998845,None,835.9609681998845,None,3,4.84734550002031,835.9609681998845,None,840.85094569996,None,841.3718453999609,None,841.3718453999609,None,n,3.4042545999400318,841.3718453999609,None,,,Color_53,001,2022_May_03_1737,ProdSingRedo,3.2.3,60.060024011551164,
,,,,22,0,22,0,,,,,,,,,,,,,,,,,,,,,,,,853.4841835000552,None,,,,,,,,,,,,,,,,,,patient,sing,red,22,26,213,845.3297894001007,None,845.3297894001007,None,5,7.286635700147599,845.3297894001007,None,852.6696409001015,None,853.188974800054,None,853.188974800054,None,f,0.25926560000516474,853.188974800054,None,,,Color_53,001,2022_May_03_1737,ProdSingRedo,3.2.3,60.060024011551164,
,,,,23,0,23,0,,,,,,,,,,,,,,,,,,,,,,,,858.585844800109,None,,,,,,,,,,,,,,,,,,range,sing,red,23,16,251,854.003607599996,None,854.003607599996,None,6,2.812615199945867,854.003607599996,None,856.8632310999092,None,857.3892530000303,None,857.3892530000303,None,r,1.1709704000968486,857.3892530000303,None,,,Color_53,001,2022_May_03_1737,ProdSingRedo,3.2.3,60.060024011551164,
,,,,24,0,24,0,,,,,,,,,,,,,,,,,,,,,,,,864.1038192000706,None,,,,,,,,,,,,,,,,,,number,new_sing,red,24,94,203,859.1099640999455,None,859.1099640999455,None,1,3.354116400005296,859.1099640999455,None,862.5201654001139,None,863.046252900036,None,863.046252900036,None,n,1.0261021999176592,863.046252900036,None,,,Color_53,001,2022_May_03_1737,ProdSingRedo,3.2.3,60.060024011551164,
,,,,25,0,25,0,,,,,,,,,,,,,,,,,,,,,,,,871.1047477000393,None,,,,,,,,,,,,,,,,,,nature,silent,blue,25,64,200,864.626695800107,None,864.626695800107,None,6,5.38939159992151,864.626695800107,None,870.0723013998941,None,870.5898265999276,None,870.5898265999276,None,r,0.4744299000594765,870.5898265999276,None,,,Color_53,001,2022_May_03_1737,ProdSingRedo,3.2.3,60.060024011551164,
,,,,26,0,26,0,,,,,,,,,,,,,,,,,,,,,,,,875.9363263999112,None,,,,,,,,,,,,,,,,,,youth,new_sing,red,26,103,359,871.6378736998886,None,871.6378736998886,None,1,2.466812400147319,871.6378736998886,None,874.1567432000302,None,874.6735165999271,None,874.6735165999271,None,n,1.2385378999169916,874.6735165999271,None,,,Color_53,001,2022_May_03_1737,ProdSingRedo,3.2.3,60.060024011551164,
,,,,27,0,27,0,,,,,,,,,,,,,,,,,,,,,,,,882.8891280998942,None,,,,,,,,,,,,,,,,,,surprise,sing,red,27,29,317,876.4650687999092,None,876.4650687999092,None,6,4.758894599974155,876.4650687999092,None,881.2781863999553,None,881.7957041000482,None,881.7957041000482,None,r,1.0604077999014407,881.7957041000482,None,,,Color_53,001,2022_May_03_1737,ProdSingRedo,3.2.3,60.060024011551164,
,,,,28,0,28,0,,,,,,,,,,,,,,,,,,,,,,,,887.3797148999292,None,,,,,,,,,,,,,,,,,,management,sing,red,28,8,177,883.4233484000433,None,883.4233484000433,None,6,3.1047792001627386,883.4233484000433,None,886.5775601998903,None,887.0956602001097,None,887.0956602001097,None,r,0.2563404000829905,887.0956602001097,None,,,Color_53,001,2022_May_03_1737,ProdSingRedo,3.2.3,60.060024011551164,
,,,,29,0,29,0,,,,,,,,,,,,,,,,,,,,,,,,891.1221968000755,None,,,,,,,,,,,,,,,,,,crisis,sing,red,29,11,79,887.8843986000866,None,887.8843986000866,None,6,2.5317160999402404,887.8843986000866,None,890.4683825999964,None,890.9881720999256,None,890.9881720999256,None,r,0.09997129999101162,890.9881720999256,None,,,Color_53,001,2022_May_03_1737,ProdSingRedo,3.2.3,60.060024011551164,
,,,,30,0,30,0,,,,,,,,,,,,,,,,,,,,,,,,895.4224213999696,None,,,,,,,,,,,,,,,,,,birth,new_silent,blue,30,151,22,891.6501915999688,None,891.6501915999688,None,1,2.4858633999247104,891.6501915999688,None,894.1818111001048,None,894.69858080009,None,894.69858080009,None,n,0.6934775998815894,894.69858080009,None,,,Color_53,001,2022_May_03_1737,ProdSingRedo,3.2.3,60.060024011551164,
,,,,31,0,31,0,,,,,,,,,,,,,,,,,,,,,,,,900.6738799000159,None,,,,,,,,,,,,,,,,,,society,silent,blue,31,68,293,895.9451307000127,None,895.9451307000127,None,4,3.8868801000062376,895.9451307000127,None,899.8793037999421,None,900.3924753998872,None,900.3924753998872,None,f,0.23972270009107888,900.3924753998872,None,,,Color_53,001,2022_May_03_1737,ProdSingRedo,3.2.3,60.060024011551164,
,,,,32,0,32,0,,,,,,,,,,,,,,,,,,,,,,,,906.5393254000228,None,,,,,,,,,,,,,,,,,,whole,sing,red,32,19,355,901.1982768999878,None,901.1982768999878,None,5,4.282210799865425,901.1982768999878,None,905.5183308999985,None,906.0395982998889,None,906.0395982998889,None,f,0.46442119986750185,906.0395982998889,None,,,Color_53,001,2022_May_03_1737,ProdSingRedo,3.2.3,60.060024011551164,
,,,,33,0,33,0,,,,,,,,,,,,,,,,,,,,,,,,913.7727582999505,None,,,,,,,,,,,,,,,,,,treatment,new_sing,red,33,91,339,907.0654504999984,None,907.0654504999984,None,1,4.958631500136107,907.0654504999984,None,912.0727220999543,None,912.5949675999582,None,912.5949675999582,None,n,1.1410922999493778,912.5949675999582,None,,,Color_53,001,2022_May_03_1737,ProdSingRedo,3.2.3,60.060024011551164,
,,,,34,0,34,0,,,,,,,,,,,,,,,,,,,,,,,,918.6907224000897,None,,,,,,,,,,,,,,,,,,engineer,silent,blue,34,79,114,914.3017245999072,None,914.3017245999072,None,2,3.3063044999726117,914.3017245999072,None,917.6542607999872,None,918.1788226000499,None,918.1788226000499,None,f,0.4773875998798758,918.1788226000499,None,,,Color_53,001,2022_May_03_1737,ProdSingRedo,3.2.3,60.060024011551164,
,,,,35,0,35,0,,,,,,,,,,,,,,,,,,,,,,,,927.6598078000825,None,,,,,,,,,,,,,,,,,,collection,aloud,yellow,35,35,54,919.2122041000985,None,919.2122041000985,None,4,7.236076699802652,919.2122041000985,None,926.487716200063,None,927.0098204000387,None,927.0098204000387,None,f,0.6142178000882268,927.0098204000387,None,,,Color_53,001,2022_May_03_1737,ProdSingRedo,3.2.3,60.060024011551164,
,,,,36,0,36,0,,,,,,,,,,,,,,,,,,,,,,,,934.8254029999953,None,,,,,,,,,,,,,,,,,,broke,silent,blue,36,67,32,928.1855160999112,None,928.1855160999112,None,2,5.4304593000561,928.1855160999112,None,933.6572740001138,None,934.1804402999114,None,934.1804402999114,None,f,0.6036789999343455,934.1804402999114,None,,,Color_53,001,2022_May_03_1737,ProdSingRedo,3.2.3,60.060024011551164,
,,,,37,0,37,0,,,,,,,,,,,,,,,,,,,,,,,,939.9279098999687,None,,,,,,,,,,,,,,,,,,travel,new_aloud,yellow,37,126,338,935.3552103000693,None,935.3552103000693,None,4,3.556964799994603,935.3552103000693,None,938.9584959000349,None,939.4796172999777,None,939.4796172999777,None,f,0.4172622000332922,939.4796172999777,None,,,Color_53,001,2022_May_03_1737,ProdSingRedo,3.2.3,60.060024011551164,
,,,,38,0,38,0,,,,,,,,,,,,,,,,,,,,,,,,944.2082686999347,None,,,,,,,,,,,,,,,,,,poetry,new_aloud,yellow,38,121,225,940.4496683001053,None,940.4496683001053,None,1,2.886406800011173,940.4496683001053,None,943.3896858999506,None,943.9107937000226,None,943.9107937000226,None,n,0.25719200004823506,943.9107937000226,None,,,Color_53,001,2022_May_03_1737,ProdSingRedo,3.2.3,60.060024011551164,
,,,,39,0,39,0,,,,,,,,,,,,,,,,,,,,,,,,950.4075662998948,None,,,,,,,,,,,,,,,,,,group,new_sing,red,39,99,143,944.7353149999399,None,944.7353149999399,None,2,4.8486746000126,944.7353149999399,None,949.6182341999374,None,950.1373570000287,None,950.1373570000287,None,f,0.23073869990184903,950.1373570000287,None,,,Color_53,001,2022_May_03_1737,ProdSingRedo,3.2.3,60.060024011551164,
,,,,40,0,40,0,,,,,,,,,,,,,,,,,,,,,,,,954.943141200114,None,,,,,,,,,,,,,,,,,,answer,new_silent,blue,40,154,8,950.9333538000938,None,950.9333538000938,None,3,3.194791200105101,950.9333538000938,None,954.1778098999057,None,954.6953416001052,None,954.6953416001052,None,f,0.2167318998835981,954.6953416001052,None,,,Color_53,001,2022_May_03_1737,ProdSingRedo,3.2.3,60.060024011551164,
,,,,41,0,41,0,,,,,,,,,,,,,,,,,,,,,,,,962.2683691000566,None,,,,,,,,,,,,,,,,,,congress,new_sing,red,41,97,67,955.465224500047,None,955.465224500047,None,4,6.174814399797469,955.465224500047,None,961.6929353000596,None,962.2020246000029,None,962.2020246000029,None,f,0.03770450013689697,962.2020246000029,None,,,Color_53,001,2022_May_03_1737,ProdSingRedo,3.2.3,60.060024011551164,
,,,,42,0,42,0,,,,,,,,,,,,,,,,,,,,,,,,970.3129175000358,None,,,,,,,,,,,,,,,,,,rough,aloud,yellow,42,59,266,962.783120200038,None,962.783120200038,None,5,6.657079000025988,962.783120200038,None,969.4844277999364,None,970.0009439999703,None,970.0009439999703,None,f,0.27906340011395514,970.0009439999703,None,,,Color_53,001,2022_May_03_1737,ProdSingRedo,3.2.3,60.060024011551164,
,,,,43,0,43,0,,,,,,,,,,,,,,,,,,,,,,,,974.7859755998943,None,,,,,,,,,,,,,,,,,,rural,aloud,yellow,43,39,269,970.83778479998,None,970.83778479998,None,6,3.2019160999916494,970.83778479998,None,974.0809379001148,None,974.5866264000069,None,974.5866264000069,None,r,0.17310879984870553,974.5866264000069,None,,,Color_53,001,2022_May_03_1737,ProdSingRedo,3.2.3,60.060024011551164,
,,,,44,0,44,0,,,,,,,,,,,,,,,,,,,,,,,,982.5106031999458,None,,,,,,,,,,,,,,,,,,problem,aloud,yellow,44,38,238,975.307353900047,None,975.307353900047,None,3,4.877094299998134,975.307353900047,None,980.2236405001022,None,980.7284792999271,None,980.7284792999271,None,f,1.7436373999807984,980.7284792999271,None,,,Color_53,001,2022_May_03_1737,ProdSingRedo,3.2.3,60.060024011551164,
,,,,45,0,45,0,,,,,,,,,,,,,,,,,,,,,,,,989.6809588999022,None,,,,,,,,,,,,,,,,,,debate,new_silent,blue,45,179,87,983.0197228998877,None,983.0197228998877,None,1,4.972432599868625,983.0197228998877,None,988.0410420000553,None,988.5638419000898,None,988.5638419000898,None,n,1.084222599864006,988.5638419000898,None,,,Color_53,001,2022_May_03_1737,ProdSingRedo,3.2.3,60.060024011551164,
,,,,46,0,46,0,,,,,,,,,,,,,,,,,,,,,,,,994.4645392000675,None,,,,,,,,,,,,,,,,,,interview,new_silent,blue,46,169,165,990.2040655000601,None,990.2040655000601,None,3,3.5080093999858946,990.2040655000601,None,993.7659060999285,None,994.2840821000282,None,994.2840821000282,None,f,0.14792530005797744,994.2840821000282,None,,,Color_53,001,2022_May_03_1737,ProdSingRedo,3.2.3,60.060024011551164,
,,,,47,0,47,0,,,,,,,,,,,,,,,,,,,,,,,,1004.1650094001088,None,,,,,,,,,,,,,,,,,,attack,sing,red,47,12,13,994.9913045000285,None,994.9913045000285,None,5,4.593015299877152,994.9913045000285,None,999.6330550001003,None,1000.1542801999021,None,1000.1542801999021,None,f,3.9820568999275565,1000.1542801999021,None,,,Color_53,001,2022_May_03_1737,ProdSingRedo,3.2.3,60.060024011551164,
,,,,48,0,48,0,,,,,,,,,,,,,,,,,,,,,,,,1010.3987084000837,None,,,,,,,,,,,,,,,,,,design,aloud,yellow,48,50,91,1004.6893257999327,None,1004.6893257999327,None,6,4.3267079999204725,1004.6893257999327,None,1009.063620199915,None,1009.5848594999406,None,1009.5848594999406,None,r,0.7835197001695633,1009.5848594999406,None,,,Color_53,001,2022_May_03_1737,ProdSingRedo,3.2.3,60.060024011551164,
,,,,49,0,49,0,,,,,,,,,,,,,,,,,,,,,,,,1018.1462131999433,None,,,,,,,,,,,,,,,,,,suggestion,sing,red,49,27,314,1010.9269173000939,None,1010.9269173000939,None,5,5.544945999979973,1010.9269173000939,None,1016.5121468999423,None,1017.034684299957,None,1017.034684299957,None,f,1.0773357001598924,1017.034684299957,None,,,Color_53,001,2022_May_03_1737,ProdSingRedo,3.2.3,60.060024011551164,
,,,,50,0,50,0,,,,,,,,,,,,,,,,,,,,,,,,1025.7487528000493,None,,,,,,,,,,,,,,,,,,disease,sing,red,50,6,97,1018.6719194999896,None,1018.6719194999896,None,6,4.984172000084072,1018.6719194999896,None,1023.6963641000912,None,1024.2174986000173,None,1024.2174986000173,None,r,1.4945411998778582,1024.2174986000173,None,,,Color_53,001,2022_May_03_1737,ProdSingRedo,3.2.3,60.060024011551164,
,,,,51,0,51,0,,,,,,,,,,,,,,,,,,,,,,,,1030.4645110000856,None,,,,,,,,,,,,,,,,,,produce,aloud,yellow,51,57,239,1026.2768467999995,None,1026.2768467999995,None,6,2.9471899999771267,1026.2768467999995,None,1029.279064500006,None,1029.791343000019,None,1029.791343000019,None,r,0.6327285000588745,1029.791343000019,None,,,Color_53,001,2022_May_03_1737,ProdSingRedo,3.2.3,60.060024011551164,
,,,,52,0,52,0,,,,,,,,,,,,,,,,,,,,,,,,1036.3472329000942,None,,,,,,,,,,,,,,,,,,smell,aloud,yellow,52,36,291,1030.9865484999027,None,1030.9865484999027,None,3,3.6695593998301774,1030.9865484999027,None,1034.69254920003,None,1035.2176387000363,None,1035.2176387000363,None,f,1.10268809995614,1035.2176387000363,None,,,Color_53,001,2022_May_03_1737,ProdSingRedo,3.2.3,60.060024011551164,
,,,,53,0,53,0,,,,,,,,,,,,,,,,,,,,,,,,1043.7160193999298,None,,,,,,,,,,,,,,,,,,comfort,new_sing,red,53,98,59,1036.8765155000146,None,1036.8765155000146,None,3,3.6835587001405656,1036.8765155000146,None,1040.6075444000307,None,1041.1347978000995,None,1041.1347978000995,None,f,2.5452416001353413,1041.1347978000995,None,,,Color_53,001,2022_May_03_1737,ProdSingRedo,3.2.3,60.060024011551164,
,,,,54,0,54,0,,,,,,,,,,,,,,,,,,,,,,,,1049.8529791999608,None,,,,,,,,,,,,,,,,,,clean,aloud,yellow,54,33,51,1044.2295679999515,None,1044.2295679999515,None,5,4.5625030000228435,1044.2295679999515,None,1048.8450480001047,None,1049.357475399971,None,1049.357475399971,None,f,0.4586455998942256,1049.357475399971,None,,,Color_53,001,2022_May_03_1737,ProdSingRedo,3.2.3,60.060024011551164,
,,,,55,0,55,0,,,,,,,,,,,,,,,,,,,,,,,,1058.7055653000716,None,,,,,,,,,,,,,,,,,,minor,silent,blue,55,86,191,1050.3718131999485,None,1050.3718131999485,None,6,6.420244700042531,1050.3718131999485,None,1056.8267447999679,None,1057.3473885999992,None,1057.3473885999992,None,f,1.3165684000123292,1057.3473885999992,None,,,Color_53,001,2022_May_03_1737,ProdSingRedo,3.2.3,60.060024011551164,
,,,,56,0,56,0,,,,,,,,,,,,,,,,,,,,,,,,1066.8690359001048,None,,,,,,,,,,,,,,,,,,straight,new_sing,red,56,115,307,1059.2310212000739,None,1059.2310212000739,None,1,5.849130799993873,1059.2310212000739,None,1065.134445700096,None,1065.6534223998897,None,1065.6534223998897,None,n,1.1866600001230836,1065.6534223998897,None,,,Color_53,001,2022_May_03_1737,ProdSingRedo,3.2.3,60.060024011551164,
,,,,57,0,57,0,,,,,,,,,,,,,,,,,,,,,,,,1075.1368698999286,None,,,,,,,,,,,,,,,,,,message,new_aloud,yellow,57,138,189,1067.3941107001156,None,1067.3941107001156,None,6,5.149869699962437,1067.3941107001156,None,1072.6073183999397,None,1073.12020809995,None,1073.12020809995,None,r,1.9838017001748085,1073.12020809995,None,,,Color_53,001,2022_May_03_1737,ProdSingRedo,3.2.3,60.060024011551164,
,,,,58,0,58,0,,,,,,,,,,,,,,,,,,,,,,,,1087.604157899972,None,,,,,,,,,,,,,,,,,,growth,silent,blue,58,65,144,1075.6611005999148,None,1075.6611005999148,None,3,10.602886500069872,1075.6611005999148,None,1086.319286199985,None,1086.8407380001154,None,1086.8407380001154,None,f,0.7272991000209004,1086.8407380001154,None,,,Color_53,001,2022_May_03_1737,ProdSingRedo,3.2.3,60.060024011551164,
,,,,59,0,59,0,,,,,,,,,,,,,,,,,,,,,,,,1093.6197927000467,None,,,,,,,,,,,,,,,,,,relation,sing,red,59,23,257,1088.12349119992,None,1088.12349119992,None,6,3.8847813000902534,1088.12349119992,None,1092.0520806999411,None,1092.571071299957,None,1092.571071299957,None,r,1.0209371999371797,1092.571071299957,None,,,Color_53,001,2022_May_03_1737,ProdSingRedo,3.2.3,60.060024011551164,
,,,,60,0,60,0,,,,,,,,,,,,,,,,,,,,,,,,1098.091816799948,None,,,,,,,,,,,,,,,,,,month,new_aloud,yellow,60,144,193,1094.140182199888,None,1094.140182199888,None,1,2.9878616998903453,1094.140182199888,None,1097.1813471000642,None,1097.7002222000156,None,1097.7002222000156,None,n,0.35580479982309043,1097.7002222000156,None,,,Color_53,001,2022_May_03_1737,ProdSingRedo,3.2.3,60.060024011551164,
,,,,61,0,61,0,,,,,,,,,,,,,,,,,,,,,,,,1107.5187089000829,None,,,,,,,,,,,,,,,,,,session,new_sing,red,61,107,281,1098.6086178999394,None,1098.6086178999394,None,6,7.3032076000235975,1098.6086178999394,None,1105.9525452998932,None,1106.4612404999789,None,1106.4612404999789,None,r,1.0268929000012577,1106.4612404999789,None,,,Color_53,001,2022_May_03_1737,ProdSingRedo,3.2.3,60.060024011551164,
,,,,62,0,62,0,,,,,,,,,,,,,,,,,,,,,,,,1112.9098606000189,None,,,,,,,,,,,,,,,,,,gesture,new_silent,blue,62,177,137,1108.0450865998864,None,1108.0450865998864,None,3,3.4348805998452008,1108.0450865998864,None,1111.5366114999633,None,1112.0596181999426,None,1112.0596181999426,None,f,0.8281357998494059,1112.0596181999426,None,,,Color_53,001,2022_May_03_1737,ProdSingRedo,3.2.3,60.060024011551164,
,,,,63,0,63,0,,,,,,,,,,,,,,,,,,,,,,,,1117.6946572999004,None,,,,,,,,,,,,,,,,,,review,aloud,yellow,63,31,263,1113.4327185999136,None,1113.4327185999136,None,6,3.095540199894458,1113.4327185999136,None,1116.5662491000257,None,1117.0921402000822,None,1117.0921402000822,None,r,0.5796899001579732,1117.0921402000822,None,,,Color_53,001,2022_May_03_1737,ProdSingRedo,3.2.3,60.060024011551164,
,,,,64,0,64,0,,,,,,,,,,,,,,,,,,,,,,,,1130.3556961999275,None,,,,,,,,,,,,,,,,,,expansion,silent,blue,64,87,123,1118.214507299941,None,1118.214507299941,None,4,11.209458499914035,1118.214507299941,None,1129.4659700999036,None,1129.9917719999794,None,1129.9917719999794,None,f,0.3285141000524163,1129.9917719999794,None,,,Color_53,001,2022_May_03_1737,ProdSingRedo,3.2.3,60.060024011551164,
,,,,65,0,65,0,,,,,,,,,,,,,,,,,,,,,,,,1135.7218526001088,None,,,,,,,,,,,,,,,,,,account,new_silent,blue,65,164,1,1130.8765847999603,None,1130.8765847999603,None,6,3.0115060000680387,1130.8765847999603,None,1133.9340123999864,None,1134.4587483999785,None,1134.4587483999785,None,r,1.2294413999188691,1134.4587483999785,None,,,Color_53,001,2022_May_03_1737,ProdSingRedo,3.2.3,60.060024011551164,
,,,,66,0,66,0,,,,,,,,,,,,,,,,,,,,,,,,1140.7875940001104,None,,,,,,,,,,,,,,,,,,measure,sing,red,66,18,184,1136.2525096000172,None,1136.2525096000172,None,6,3.0276707001030445,1136.2525096000172,None,1139.325448299991,None,1139.8414374000859,None,1139.8414374000859,None,r,0.9189086998812854,1139.8414374000859,None,,,Color_53,001,2022_May_03_1737,ProdSingRedo,3.2.3,60.060024011551164,
,,,,67,0,67,0,,,,,,,,,,,,,,,,,,,,,,,,1147.624612200074,None,,,,,,,,,,,,,,,,,,education,new_silent,blue,67,170,108,1141.3136887999717,None,1141.3136887999717,None,1,4.37438920000568,1141.3136887999717,None,1145.7421003999189,None,1146.2623642000835,None,1146.2623642000835,None,n,1.3296064999885857,1146.2623642000835,None,,,Color_53,001,2022_May_03_1737,ProdSingRedo,3.2.3,60.060024011551164,
,,,,68,0,68,0,,,,,,,,,,,,,,,,,,,,,,,,1154.156089300057,None,,,,,,,,,,,,,,,,,,afternoon,silent,blue,68,76,3,1148.1473453000654,None,1148.1473453000654,None,2,4.564954499946907,1148.1473453000654,None,1152.7490628999658,None,1153.276895500021,None,1153.276895500021,None,f,0.8432181000243872,1153.276895500021,None,,,Color_53,001,2022_May_03_1737,ProdSingRedo,3.2.3,60.060024011551164,
,,,,69,0,69,0,,,,,,,,,,,,,,,,,,,,,,,,1161.3605148000643,None,,,,,,,,,,,,,,,,,,space,new_aloud,yellow,69,130,297,1154.6888908001129,None,1154.6888908001129,None,1,5.199119199998677,1154.6888908001129,None,1159.9375231999438,None,1160.467522900086,None,1160.467522900086,None,n,0.8524184001144022,1160.467522900086,None,,,Color_53,001,2022_May_03_1737,ProdSingRedo,3.2.3,60.060024011551164,
,,,,70,0,70,0,,,,,,,,,,,,,,,,,,,,,,,,1165.0551090000663,None,,,,,,,,,,,,,,,,,,couch,new_aloud,yellow,70,122,70,1161.8845247998834,None,1161.8845247998834,None,1,2.083606199827045,1161.8845247998834,None,1164.0196181999054,None,1164.5419050999917,None,1164.5419050999917,None,n,0.4740624998230487,1164.5419050999917,None,,,Color_53,001,2022_May_03_1737,ProdSingRedo,3.2.3,60.060024011551164,
,,,,71,0,71,0,,,,,,,,,,,,,,,,,,,,,,,,1172.1219470999204,None,,,,,,,,,,,,,,,,,,trail,silent,blue,71,73,336,1165.581208199961,None,1165.581208199961,None,5,5.178879299899563,1165.581208199961,None,1170.8029074999504,None,1171.3260999000631,None,1171.3260999000631,None,f,0.7461270000785589,1171.3260999000631,None,,,Color_53,001,2022_May_03_1737,ProdSingRedo,3.2.3,60.060024011551164,
,,,,72,0,72,0,,,,,,,,,,,,,,,,,,,,,,,,1178.7578926999122,None,,,,,,,,,,,,,,,,,,captain,sing,red,72,10,41,1172.6352450000122,None,1172.6352450000122,None,1,4.828846499789506,1172.6352450000122,None,1177.51478759991,None,1178.0321104999166,None,1178.0321104999166,None,n,0.6958381000440568,1178.0321104999166,None,,,Color_53,001,2022_May_03_1737,ProdSingRedo,3.2.3,60.060024011551164,
,,,,73,0,73,0,,,,,,,,,,,,,,,,,,,,,,,,1185.0085791999009,None,,,,,,,,,,,,,,,,,,executive,aloud,yellow,73,42,122,1179.287480399944,None,1179.287480399944,None,6,3.4247667000163347,1179.287480399944,None,1182.7629784001037,None,1183.2807891000994,None,1183.2807891000994,None,r,1.7032389000523835,1183.2807891000994,None,,,Color_53,001,2022_May_03_1737,ProdSingRedo,3.2.3,60.060024011551164,
,,,,74,0,74,0,,,,,,,,,,,,,,,,,,,,,,,,1193.6580499000847,None,,,,,,,,,,,,,,,,,,marriage,sing,red,74,21,179,1185.533400000073,None,1185.533400000073,None,3,7.250670399982482,1185.533400000073,None,1192.8261877999175,None,1193.3495058999397,None,1193.3495058999397,None,f,0.2826735998969525,1193.3495058999397,None,,,Color_53,001,2022_May_03_1737,ProdSingRedo,3.2.3,60.060024011551164,
,,,,75,0,75,0,,,,,,,,,,,,,,,,,,,,,,,,1201.5999805999454,None,,,,,,,,,,,,,,,,,,principal,aloud,yellow,75,37,236,1194.1854032999836,None,1194.1854032999836,None,6,4.302627299912274,1194.1854032999836,None,1198.5452546998858,None,1199.062567600049,None,1199.062567600049,None,r,2.489391200011596,1199.062567600049,None,,,Color_53,001,2022_May_03_1737,ProdSingRedo,3.2.3,60.060024011551164,
,,,,76,0,76,0,,,,,,,,,,,,,,,,,,,,,,,,1205.6773256000597,None,,,,,,,,,,,,,,,,,,build,new_silent,blue,76,166,35,1202.1268015999813,None,1202.1268015999813,None,3,2.6972771999426186,1202.1268015999813,None,1204.8744385000318,None,1205.396087500034,None,1205.396087500034,None,f,0.24409419996663928,1205.396087500034,None,,,Color_53,001,2022_May_03_1737,ProdSingRedo,3.2.3,60.060024011551164,
,,,,77,0,77,0,,,,,,,,,,,,,,,,,,,,,,,,1209.6788480998948,None,,,,,,,,,,,,,,,,,,atmosphere,new_sing,red,77,116,12,1206.200356400106,None,1206.200356400106,None,1,2.264190300134942,1206.200356400106,None,1208.5092859999277,None,1209.0316906000953,None,1209.0316906000953,None,n,0.6166407999116927,1209.0316906000953,None,,,Color_53,001,2022_May_03_1737,ProdSingRedo,3.2.3,60.060024011551164,
,,,,78,0,78,0,,,,,,,,,,,,,,,,,,,,,,,,1213.2123048999347,None,,,,,,,,,,,,,,,,,,opening,new_sing,red,78,102,205,1210.2026023999788,None,1210.2026023999788,None,1,2.1094512999989092,1210.2026023999788,None,1212.353951399913,None,1212.8790512001142,None,1212.8790512001142,None,n,0.2969353999942541,1212.8790512001142,None,,,Color_53,001,2022_May_03_1737,ProdSingRedo,3.2.3,60.060024011551164,
,,,,79,0,79,0,,,,,,,,,,,,,,,,,,,,,,,,1219.8964037001133,None,,,,,,,,,,,,,,,,,,substance,new_silent,blue,79,171,313,1213.7354890001006,None,1213.7354890001006,None,5,4.6244775000959635,1213.7354890001006,None,1218.4138241999317,None,1218.9329506999347,None,1218.9329506999347,None,f,0.9230120999272913,1218.9329506999347,None,,,Color_53,001,2022_May_03_1737,ProdSingRedo,3.2.3,60.060024011551164,
,,,,80,0,80,0,,,,,,,,,,,,,,,,,,,,,,,,1225.3424643001053,None,,,,,,,,,,,,,,,,,,weather,silent,blue,80,72,352,1220.4220106001012,None,1220.4220106001012,None,3,3.9220556998625398,1220.4220106001012,None,1224.3970315000042,None,1224.9150894999038,None,1224.9150894999038,None,f,0.38887450005859137,1224.9150894999038,None,,,Color_53,001,2022_May_03_1737,ProdSingRedo,3.2.3,60.060024011551164,
,,,,81,0,81,0,,,,,,,,,,,,,,,,,,,,,,,,1230.7466772999614,None,,,,,,,,,,,,,,,,,,republic,aloud,yellow,81,40,260,1225.8731100999285,None,1225.8731100999285,None,6,3.2068495000712574,1225.8731100999285,None,1229.109155900078,None,1229.6173797999509,None,1229.6173797999509,None,r,1.0948213001247495,1229.6173797999509,None,,,Color_53,001,2022_May_03_1737,ProdSingRedo,3.2.3,60.060024011551164,
,,,,82,0,82,0,,,,,,,,,,,,,,,,,,,,,,,,1238.3211652999744,None,,,,,,,,,,,,,,,,,,death,new_silent,blue,82,162,86,1231.2692726999521,None,1231.2692726999521,None,2,4.794711699942127,1231.2692726999521,None,1236.1139159998856,None,1236.635078100022,None,1236.635078100022,None,f,1.6368414999451488,1236.635078100022,None,,,Color_53,001,2022_May_03_1737,ProdSingRedo,3.2.3,60.060024011551164,
,,,,83,0,83,0,,,,,,,,,,,,,,,,,,,,,,,,1245.468289700104,None,,,,,,,,,,,,,,,,,,theme,new_silent,blue,83,172,326,1238.8533403000329,None,1238.8533403000329,None,3,3.7866875000763685,1238.8533403000329,None,1242.6929848000873,None,1243.2107541000005,None,1243.2107541000005,None,n,2.221221299842,1243.2107541000005,None,,,Color_53,001,2022_May_03_1737,ProdSingRedo,3.2.3,60.060024011551164,
,,,,84,0,84,0,,,,,,,,,,,,,,,,,,,,,,,,1264.1972038999666,None,,,,,,,,,,,,,,,,,,defeat,new_aloud,yellow,84,128,88,1245.9915561000817,None,1245.9915561000817,None,5,16.240294400136918,1245.9915561000817,None,1262.295630000066,None,1262.7870020999108,None,1262.7870020999108,None,f,1.3819726000074297,1262.7870020999108,None,,,Color_53,001,2022_May_03_1737,ProdSingRedo,3.2.3,60.060024011551164,
,,,,85,0,85,0,,,,,,,,,,,,,,,,,,,,,,,,1268.4798165999819,None,,,,,,,,,,,,,,,,,,graduate,sing,red,85,22,141,1264.7257558999117,None,1264.7257558999117,None,6,2.8903680997900665,1264.7257558999117,None,1267.6683892998844,None,1268.1850844998844,None,1268.1850844998844,None,r,0.26316830003634095,1268.1850844998844,None,,,Color_53,001,2022_May_03_1737,ProdSingRedo,3.2.3,60.060024011551164,
,,,,86,0,86,0,,,,,,,,,,,,,,,,,,,,,,,,1273.3656568001024,None,,,,,,,,,,,,,,,,,,watch,new_silent,blue,86,155,351,1269.0051688000094,None,1269.0051688000094,None,3,2.46713799983263,1269.0051688000094,None,1271.510084599955,None,1272.0320423000958,None,1272.0320423000958,None,f,1.304661100031808,1272.0320423000958,None,,,Color_53,001,2022_May_03_1737,ProdSingRedo,3.2.3,60.060024011551164,
,,,,87,0,87,0,,,,,,,,,,,,,,,,,,,,,,,,1277.6656927999575,None,,,,,,,,,,,,,,,,,,level,new_aloud,yellow,87,147,170,1273.8816579000559,None,1273.8816579000559,None,1,2.5583609000314027,1273.8816579000559,None,1276.4772789999843,None,1276.9985817999113,None,1276.9985817999113,None,n,0.6334299000445753,1276.9985817999113,None,,,Color_53,001,2022_May_03_1737,ProdSingRedo,3.2.3,60.060024011551164,
,,,,88,0,88,0,,,,,,,,,,,,,,,,,,,,,,,,1281.7233337999787,None,,,,,,,,,,,,,,,,,,center,aloud,yellow,88,53,44,1278.1853690000717,None,1278.1853690000717,None,3,2.751179900020361,1278.1853690000717,None,1280.9772284000646,None,1281.5022114000749,None,1281.5022114000749,None,f,0.19370690011419356,1281.5022114000749,None,,,Color_53,001,2022_May_03_1737,ProdSingRedo,3.2.3,60.060024011551164,
,,,,89,0,89,0,,,,,,,,,,,,,,,,,,,,,,,,1288.451210899977,None,,,,,,,,,,,,,,,,,,career,new_sing,red,89,118,42,1282.250830499921,None,1282.250830499921,None,3,5.40526879997924,1282.250830499921,None,1287.6968650000636,None,1288.2197467000224,None,1288.2197467000224,None,f,0.19627970014698803,1288.2197467000224,None,,,Color_53,001,2022_May_03_1737,ProdSingRedo,3.2.3,60.060024011551164,
,,,,90,0,90,0,,,,,,,,,,,,,,,,,,,,,,,,1291.3220555000007,None,,,,,,,,,,,,,,,,,,smooth,new_sing,red,90,110,292,1288.9715674000327,None,1288.9715674000327,None,1,1.5485902999062091,1288.9715674000327,None,1290.5423177001067,None,1291.0712864000816,None,1291.0712864000816,None,n,0.22442100010812283,1291.0712864000816,None,,,Color_53,001,2022_May_03_1737,ProdSingRedo,3.2.3,60.060024011551164,
,,,,91,0,91,0,,,,,,,,,,,,,,,,,,,,,,,,1296.0978723999579,None,,,,,,,,,,,,,,,,,,industry,silent,blue,91,60,161,1291.8271584000904,None,1291.8271584000904,None,6,3.1408524999860674,1291.8271584000904,None,1295.0178757999092,None,1295.5388096000534,None,1295.5388096000534,None,r,0.5332690000068396,1295.5388096000534,None,,,Color_53,001,2022_May_03_1737,ProdSingRedo,3.2.3,60.060024011551164,
,,,,92,0,92,0,,,,,,,,,,,,,,,,,,,,,,,,1304.5663224998862,None,,,,,,,,,,,,,,,,,,strength,new_sing,red,92,114,310,1296.6226174000185,None,1296.6226174000185,None,1,5.697553899837658,1296.6226174000185,None,1302.3676370000467,None,1302.885694500059,None,1302.885694500059,None,n,1.642292199889198,1302.885694500059,None,,,Color_53,001,2022_May_03_1737,ProdSingRedo,3.2.3,60.060024011551164,
,,,,93,0,93,0,,,,,,,,,,,,,,,,,,,,,,,,1315.6365302999038,None,,,,,,,,,,,,,,,,,,medicine,silent,blue,93,89,186,1305.087901999941,None,1305.087901999941,None,3,9.664260599995032,1305.087901999941,None,1314.7963847001083,None,1315.3152439999394,None,1315.3152439999394,None,f,0.28478930005803704,1315.3152439999394,None,,,Color_53,001,2022_May_03_1737,ProdSingRedo,3.2.3,60.060024011551164,
,,,,94,0,94,0,,,,,,,,,,,,,,,,,,,,,,,,1321.6349714999087,None,,,,,,,,,,,,,,,,,,harmony,sing,red,94,20,148,1316.1584461999591,None,1316.1584461999591,None,6,3.7774227000772953,1316.1584461999591,None,1319.9781386998948,None,1320.4892986998893,None,1320.4892986998893,None,r,1.1187174001242965,1320.4892986998893,None,,,Color_53,001,2022_May_03_1737,ProdSingRedo,3.2.3,60.060024011551164,
,,,,95,0,95,0,,,,,,,,,,,,,,,,,,,,,,,,1329.4516725998838,None,,,,,,,,,,,,,,,,,,pretty,silent,blue,95,80,233,1322.1484727000352,None,1322.1484727000352,None,3,6.324066000059247,1322.1484727000352,None,1328.5127330999821,None,1329.0384903999511,None,1329.0384903999511,None,f,0.377523000119254,1329.0384903999511,None,,,Color_53,001,2022_May_03_1737,ProdSingRedo,3.2.3,60.060024011551164,
,,,,96,0,96,0,,,,,,,,,,,,,,,,,,,,,,,,1334.1185753999744,None,,,,,,,,,,,,,,,,,,conference,sing,red,96,3,66,1329.9809091999196,None,1329.9809091999196,None,6,3.3789347000420094,1329.9809091999196,None,1333.4035561999772,None,1333.9224920000415,None,1333.9224920000415,None,r,0.15749799995683134,1333.9224920000415,None,,,Color_53,001,2022_May_03_1737,ProdSingRedo,3.2.3,60.060024011551164,
,,,,97,0,97,0,,,,,,,,,,,,,,,,,,,,,,,,1338.8028430000413,None,,,,,,,,,,,,,,,,,,volume,new_silent,blue,97,161,349,1334.64961339999,None,1334.64961339999,None,2,2.750279099913314,1334.64961339999,None,1337.4516630999278,None,1337.975651799934,None,1337.975651799934,None,f,0.8005704001989216,1337.975651799934,None,,,Color_53,001,2022_May_03_1737,ProdSingRedo,3.2.3,60.060024011551164,
,,,,98,0,98,0,,,,,,,,,,,,,,,,,,,,,,,,1343.4043181000743,None,,,,,,,,,,,,,,,,,,shock,new_sing,red,98,117,284,1339.324602900073,None,1339.324602900073,None,1,2.1714180998969823,1339.324602900073,None,1341.5486035000067,None,1342.0686818999238,None,1342.0686818999238,None,n,1.3075839998200536,1342.0686818999238,None,,,Color_53,001,2022_May_03_1737,ProdSingRedo,3.2.3,60.060024011551164,
,,,,99,0,99,0,,,,,,,,,,,,,,,,,,,,,,,,1348.2374454999808,None,,,,,,,,,,,,,,,,,,impact,silent,blue,99,63,157,1343.9283682999667,None,1343.9283682999667,None,4,3.3275703000836074,1343.9283682999667,None,1347.2968435001094,None,1347.8236849000677,None,1347.8236849000677,None,f,0.3762127000372857,1347.8236849000677,None,,,Color_53,001,2022_May_03_1737,ProdSingRedo,3.2.3,60.060024011551164,
,,,,100,0,100,0,,,,,,,,,,,,,,,,,,,,,,,,1360.9525389999617,None,,,,,,,,,,,,,,,,,,beginning,silent,blue,100,69,19,1348.7663602998946,None,1348.7663602998946,None,5,10.649576099822298,1348.7663602998946,None,1359.4735171000939,None,1359.9927914000582,None,1359.9927914000582,None,f,0.9271068999078125,1359.9927914000582,None,,,Color_53,001,2022_May_03_1737,ProdSingRedo,3.2.3,60.060024011551164,
,,,,101,0,101,0,,,,,,,,,,,,,,,,,,,,,,,,1364.853938400047,None,,,,,,,,,,,,,,,,,,individual,new_silent,blue,101,156,160,1361.4826760001015,None,1361.4826760001015,None,5,2.333297000033781,1361.4826760001015,None,1363.8793432998937,None,1364.3953426000662,None,1364.3953426000662,None,f,0.42865479993633926,1364.3953426000662,None,,,Color_53,001,2022_May_03_1737,ProdSingRedo,3.2.3,60.060024011551164,
,,,,102,0,102,0,,,,,,,,,,,,,,,,,,,,,,,,1369.7046976999845,None,,,,,,,,,,,,,,,,,,general,silent,blue,102,74,135,1365.3829749999568,None,1365.3829749999568,None,6,2.58502610004507,1365.3829749999568,None,1368.0219650999643,None,1368.546244099969,None,1368.546244099969,None,r,1.1257835000287741,1368.546244099969,None,,,Color_53,001,2022_May_03_1737,ProdSingRedo,3.2.3,60.060024011551164,
,,,,103,0,103,0,,,,,,,,,,,,,,,,,,,,,,,,1373.705681500025,None,,,,,,,,,,,,,,,,,,quarter,new_silent,blue,103,173,246,1370.2385376000311,None,1370.2385376000311,None,1,1.8891549999825656,1370.2385376000311,None,1372.1575873000547,None,1372.6756780999713,None,1372.6756780999713,None,n,0.988330899970606,1372.6756780999713,None,,,Color_53,001,2022_May_03_1737,ProdSingRedo,3.2.3,60.060024011551164,
,,,,104,0,104,0,,,,,,,,,,,,,,,,,,,,,,,,1378.1892047999427,None,,,,,,,,,,,,,,,,,,match,new_aloud,yellow,104,132,181,1374.2317397999577,None,1374.2317397999577,None,5,3.240282600047067,1374.2317397999577,None,1377.525847800076,None,1378.038436200004,None,1378.038436200004,None,f,0.1135356999002397,1378.038436200004,None,,,Color_53,001,2022_May_03_1737,ProdSingRedo,3.2.3,60.060024011551164,
,,,,105,0,105,0,,,,,,,,,,,,,,,,,,,,,,,,1383.1794728001114,None,,,,,,,,,,,,,,,,,,spoke,new_silent,blue,105,157,300,1378.7135670999996,None,1378.7135670999996,None,2,2.1505094000604004,1378.7135670999996,None,1380.9196377000771,None,1381.4389653999824,None,1381.4389653999824,None,n,1.7127807999495417,1381.4389653999824,None,,,Color_53,001,2022_May_03_1737,ProdSingRedo,3.2.3,60.060024011551164,
,,,,106,0,106,0,,,,,,,,,,,,,,,,,,,,,,,,1388.6065722999629,None,,,,,,,,,,,,,,,,,,hunger,new_aloud,yellow,106,134,155,1383.7004672000185,None,1383.7004672000185,None,3,2.25977970007807,1383.7004672000185,None,1386.0125001000706,None,1386.5267302999273,None,1386.5267302999273,None,f,2.049848600057885,1386.5267302999273,None,,,Color_53,001,2022_May_03_1737,ProdSingRedo,3.2.3,60.060024011551164,
,,,,107,0,107,0,,,,,,,,,,,,,,,,,,,,,,,,1393.158025499899,None,,,,,,,,,,,,,,,,,,character,new_aloud,yellow,107,124,46,1389.1366775999777,None,1389.1366775999777,None,5,3.2472793001215905,1389.1366775999777,None,1392.440984300105,None,1392.9632719999645,None,1392.9632719999645,None,f,0.15672739990986884,1392.9632719999645,None,,,Color_53,001,2022_May_03_1737,ProdSingRedo,3.2.3,60.060024011551164,
,,,,108,0,108,0,,,,,,,,,,,,,,,,,,,,,,,,1396.7393984000664,None,,,,,,,,,,,,,,,,,,narrow,new_aloud,yellow,108,142,197,1393.683820999926,None,1393.683820999926,None,4,2.3162853000685573,1393.683820999926,None,1396.0485557001084,None,1396.5759304999374,None,1396.5759304999374,None,f,0.1363814000505954,1396.5759304999374,None,,,Color_53,001,2022_May_03_1737,ProdSingRedo,3.2.3,60.060024011551164,
,,,,109,0,109,0,,,,,,,,,,,,,,,,,,,,,,,,1401.841282099951,None,,,,,,,,,,,,,,,,,,religion,new_silent,blue,109,150,258,1397.2676138000097,None,1397.2676138000097,None,2,2.98033279995434,1397.2676138000097,None,1400.2878097000066,None,1400.8109530000947,None,1400.8109530000947,None,f,0.9970743998419493,1400.8109530000947,None,,,Color_53,001,2022_May_03_1737,ProdSingRedo,3.2.3,60.060024011551164,
,,,,110,0,110,0,,,,,,,,,,,,,,,,,,,,,,,,1408.4561487999745,None,,,,,,,,,,,,,,,,,,enemy,silent,blue,110,61,113,1402.3660607000347,None,1402.3660607000347,None,6,3.8098623000551015,1402.3660607000347,None,1406.2227715000045,None,1406.7418845000211,None,1406.7418845000211,None,r,1.690097999991849,1406.7418845000211,None,,,Color_53,001,2022_May_03_1737,ProdSingRedo,3.2.3,60.060024011551164,
,,,,111,0,111,0,,,,,,,,,,,,,,,,,,,,,,,,1419.8243764999788,None,,,,,,,,,,,,,,,,,,reach,new_sing,red,111,111,253,1408.9821260999888,None,1408.9821260999888,None,2,8.201685099862516,1408.9821260999888,None,1417.2262623000424,None,1417.7328647999093,None,1417.7328647999093,None,f,2.0511900999117643,1417.7328647999093,None,,,Color_53,001,2022_May_03_1737,ProdSingRedo,3.2.3,60.060024011551164,
,,,,112,0,112,0,,,,,,,,,,,,,,,,,,,,,,,,1424.3151754001155,None,,,,,,,,,,,,,,,,,,speech,new_sing,red,112,112,298,1420.3438053999562,None,1420.3438053999562,None,2,2.040040499996394,1420.3438053999562,None,1422.414964800002,None,1422.9246100001037,None,1422.9246100001037,None,f,1.3557519000023603,1422.9246100001037,None,,,Color_53,001,2022_May_03_1737,ProdSingRedo,3.2.3,60.060024011551164,
,,,,113,0,113,0,,,,,,,,,,,,,,,,,,,,,,,,1432.2436693001073,None,,,,,,,,,,,,,,,,,,short,aloud,yellow,113,49,285,1424.829431900056,None,1424.829431900056,None,1,6.506284300005063,1424.829431900056,None,1431.3861795000266,None,1431.9061666999478,None,1431.9061666999478,None,n,0.3018084999639541,1431.9061666999478,None,,,Color_53,001,2022_May_03_1737,ProdSingRedo,3.2.3,60.060024011551164,
,,,,114,0,114,0,,,,,,,,,,,,,,,,,,,,,,,,1437.26529869996,None,,,,,,,,,,,,,,,,,,corner,sing,red,114,7,69,1432.7613870999776,None,1432.7613870999776,None,5,3.9027820001356304,1432.7613870999776,None,1436.7049273999874,None,1437.2246246000286,None,1437.2246246000286,None,f,0.007221899926662445,1437.2246246000286,None,,,Color_53,001,2022_May_03_1737,ProdSingRedo,3.2.3,60.060024011551164,
,,,,115,0,115,0,,,,,,,,,,,,,,,,,,,,,,,,1443.682604599977,None,,,,,,,,,,,,,,,,,,express,new_silent,blue,115,152,124,1437.771894000005,None,1437.771894000005,None,1,4.731733700027689,1437.771894000005,None,1442.5342433000915,None,1443.0502708998974,None,1443.0502708998974,None,n,0.6135333001147956,1443.0502708998974,None,,,Color_53,001,2022_May_03_1737,ProdSingRedo,3.2.3,60.060024011551164,
,,,,116,0,116,0,,,,,,,,,,,,,,,,,,,,,,,,1446.5922147000674,None,,,,,,,,,,,,,,,,,,bureau,new_sing,red,116,119,37,1444.1846111998893,None,1444.1846111998893,None,1,1.7271321001462638,1444.1846111998893,None,1445.9534499000292,None,1446.46205010009,None,1446.46205010009,None,n,0.08987620007246733,1446.46205010009,None,,,Color_53,001,2022_May_03_1737,ProdSingRedo,3.2.3,60.060024011551164,
,,,,117,0,117,0,,,,,,,,,,,,,,,,,,,,,,,,1451.2783490000293,None,,,,,,,,,,,,,,,,,,tragedy,aloud,yellow,117,44,335,1447.1220672999043,None,1447.1220672999043,None,6,2.3580751998815686,1447.1220672999043,None,1449.5295621000696,None,1450.0473589000758,None,1450.0473589000758,None,r,1.20081439986825,1450.0473589000758,None,,,Color_53,001,2022_May_03_1737,ProdSingRedo,3.2.3,60.060024011551164,
,,,,118,0,118,0,,,,,,,,,,,,,,,,,,,,,,,,1456.643272700021,None,,,,,,,,,,,,,,,,,,shear,silent,blue,118,85,283,1451.8012506000232,None,1451.8012506000232,None,2,3.422630100045353,1451.8012506000232,None,1455.2752914999146,None,1455.796552499989,None,1455.796552499989,None,f,0.8195555999409407,1455.796552499989,None,,,Color_53,001,2022_May_03_1737,ProdSingRedo,3.2.3,60.060024011551164,
,,,,119,0,119,0,,,,,,,,,,,,,,,,,,,,,,,,1461.2444253999274,None,,,,,,,,,,,,,,,,,,instrument,new_sing,red,119,90,163,1457.159228200093,None,1457.159228200093,None,1,2.2897365000098944,1457.159228200093,None,1459.4962603000458,None,1460.0140319999773,None,1460.0140319999773,None,n,1.201987799955532,1460.0140319999773,None,,,Color_53,001,2022_May_03_1737,ProdSingRedo,3.2.3,60.060024011551164,
,,,,120,0,120,0,,,,,,,,,,,,,,,,,,,,,,,,1473.3246365999803,None,,,,,,,,,,,,,,,,,,recall,sing,red,120,5,255,1461.7687651999295,None,1461.7687651999295,None,5,10.68695140001364,1461.7687651999295,None,1472.4961709000636,None,1473.0005361000076,None,1473.0005361000076,None,f,0.2953929000068456,1473.0005361000076,None,,,Color_53,001,2022_May_03_1737,ProdSingRedo,3.2.3,60.060024011551164,
,,,,121,0,121,0,,,,,,,,,,,,,,,,,,,,,,,,1476.8626091999467,None,,,,,,,,,,,,,,,,,,pressure,new_sing,red,121,104,232,1473.8523162000347,None,1473.8523162000347,None,6,2.2917145998217165,1473.8523162000347,None,1476.1962254000828,None,1476.7162669000681,None,1476.7162669000681,None,r,0.10764939989894629,1476.7162669000681,None,,,Color_53,001,2022_May_03_1737,ProdSingRedo,3.2.3,60.060024011551164,
,,,,122,0,122,0,,,,,,,,,,,,,,,,,,,,,,,,1479.9698840999044,None,,,,,,,,,,,,,,,,,,thing,sing,red,122,24,328,1477.386081899982,None,1477.386081899982,None,1,2.0055046000052243,1477.386081899982,None,1479.4246420001145,None,1479.947901000036,None,1479.947901000036,None,n,0.0038441000506281853,1479.947901000036,None,,,Color_53,001,2022_May_03_1737,ProdSingRedo,3.2.3,60.060024011551164,
,,,,123,0,123,0,,,,,,,,,,,,,,,,,,,,,,,,1484.5101894999389,None,,,,,,,,,,,,,,,,,,company,aloud,yellow,123,48,64,1480.50476479996,None,1480.50476479996,None,6,3.1351791000925004,1480.50476479996,None,1483.698909400031,None,1484.2151570001151,None,1484.2151570001151,None,r,0.25689800013788044,1484.2151570001151,None,,,Color_53,001,2022_May_03_1737,ProdSingRedo,3.2.3,60.060024011551164,
,,,,124,0,124,0,,,,,,,,,,,,,,,,,,,,,,,,1492.6203280999325,None,,,,,,,,,,,,,,,,,,master,new_aloud,yellow,124,120,180,1485.0376548001077,None,1485.0376548001077,None,5,5.954255199991167,1485.0376548001077,None,1491.0458001000807,None,1491.5623200999107,None,1491.5623200999107,None,f,1.029447800014168,1491.5623200999107,None,,,Color_53,001,2022_May_03_1737,ProdSingRedo,3.2.3,60.060024011551164,
,,,,125,0,125,0,,,,,,,,,,,,,,,,,,,,,,,,1498.7953343000263,None,,,,,,,,,,,,,,,,,,cross,silent,blue,125,75,80,1493.1376511999406,None,1493.1376511999406,None,1,4.710323200095445,1493.1376511999406,None,1497.888188400073,None,1498.4099852999207,None,1498.4099852999207,None,n,0.350146799813956,1498.4099852999207,None,,,Color_53,001,2022_May_03_1737,ProdSingRedo,3.2.3,60.060024011551164,
,,,,126,0,126,0,,,,,,,,,,,,,,,,,,,,,,,,1503.7491746998858,None,,,,,,,,,,,,,,,,,,object,new_silent,blue,126,153,204,1499.3248213999905,None,1499.3248213999905,None,3,3.5707664999645203,1499.3248213999905,None,1502.9286684999242,None,1503.45117200003,None,1503.45117200003,None,f,0.269045100081712,1503.45117200003,None,,,Color_53,001,2022_May_03_1737,ProdSingRedo,3.2.3,60.060024011551164,
,,,,127,0,127,0,,,,,,,,,,,,,,,,,,,,,,,,1511.4796651999932,None,,,,,,,,,,,,,,,,,,motion,silent,blue,127,82,194,1504.2684245998971,None,1504.2684245998971,None,6,6.21145539986901,1504.2684245998971,None,1510.5222575000953,None,1511.045473499922,None,1511.045473499922,None,r,0.3944220000412315,1511.045473499922,None,,,Color_53,001,2022_May_03_1737,ProdSingRedo,3.2.3,60.060024011551164,
,,,,128,0,128,0,,,,,,,,,,,,,,,,,,,,,,,,1515.9317079999018,None,,,,,,,,,,,,,,,,,,platform,silent,blue,128,62,224,1512.0099478000775,None,1512.0099478000775,None,4,2.622010299935937,1512.0099478000775,None,1514.6884278999642,None,1515.2043492000084,None,1515.2043492000084,None,r,0.6915321999695152,1515.2043492000084,None,,,Color_53,001,2022_May_03_1737,ProdSingRedo,3.2.3,60.060024011551164,
,,,,129,0,129,0,,,,,,,,,,,,,,,,,,,,,,,,1528.9981122999452,None,,,,,,,,,,,,,,,,,,primary,aloud,yellow,129,55,234,1516.458638699958,None,1516.458638699958,None,6,11.085219499887899,1516.458638699958,None,1527.6008029000368,None,1528.123598499922,None,1528.123598499922,None,r,0.844255100004375,1528.123598499922,None,,,Color_53,001,2022_May_03_1737,ProdSingRedo,3.2.3,60.060024011551164,
,,,,130,0,130,0,,,,,,,,,,,,,,,,,,,,,,,,1534.215677500004,None,,,,,,,,,,,,,,,,,,reading,sing,red,130,25,254,1529.5273418000434,None,1529.5273418000434,None,1,3.7606308001559228,1529.5273418000434,None,1533.333391299937,None,1533.8521747998893,None,1533.8521747998893,None,n,0.3317788999993354,1533.8521747998893,None,,,Color_53,001,2022_May_03_1737,ProdSingRedo,3.2.3,60.060024011551164,
,,,,131,0,131,0,,,,,,,,,,,,,,,,,,,,,,,,1538.4509099000134,None,,,,,,,,,,,,,,,,,,mechanical,aloud,yellow,131,41,185,1534.7444937000982,None,1534.7444937000982,None,6,2.8155962999444455,1534.7444937000982,None,1537.6151678001042,None,1538.140591399977,None,1538.140591399977,None,r,0.2833268002141267,1538.140591399977,None,,,Color_53,001,2022_May_03_1737,ProdSingRedo,3.2.3,60.060024011551164,
,,,,132,0,132,0,,,,,,,,,,,,,,,,,,,,,,,,1542.7492130999453,None,,,,,,,,,,,,,,,,,,employment,new_aloud,yellow,132,129,111,1538.9718192000873,None,1538.9718192000873,None,1,3.1084123000036925,1538.9718192000873,None,1542.132086199941,None,1542.6512682999019,None,1542.6512682999019,None,n,0.06948859989643097,1542.6512682999019,None,,,Color_53,001,2022_May_03_1737,ProdSingRedo,3.2.3,60.060024011551164,
,,,,133,0,133,0,,,,,,,,,,,,,,,,,,,,,,,,1552.534519399982,None,,,,,,,,,,,,,,,,,,position,silent,blue,133,81,229,1543.2718140999787,None,1543.2718140999787,None,3,6.6481333000119776,1543.2718140999787,None,1549.96378250001,None,1550.482269299915,None,1550.482269299915,None,f,2.0137507000472397,1550.482269299915,None,,,Color_53,001,2022_May_03_1737,ProdSingRedo,3.2.3,60.060024011551164,
,,,,134,0,134,0,,,,,,,,,,,,,,,,,,,,,,,,1560.5319264000282,None,,,,,,,,,,,,,,,,,,junior,silent,blue,134,77,167,1553.062234800076,None,1553.062234800076,None,4,6.673683499917388,1553.062234800076,None,1559.7848616999108,None,1560.304099299945,None,1560.304099299945,None,f,0.191756600048393,1560.304099299945,None,,,Color_53,001,2022_May_03_1737,ProdSingRedo,3.2.3,60.060024011551164,
,,,,135,0,135,0,,,,,,,,,,,,,,,,,,,,,,,,1564.3499290000182,None,,,,,,,,,,,,,,,,,,household,new_sing,red,135,93,154,1561.0601093999576,None,1561.0601093999576,None,1,2.131519600050524,1561.0601093999576,None,1563.2102657000069,None,1563.7393338999245,None,1563.7393338999245,None,n,0.5726729000452906,1563.7393338999245,None,,,Color_53,001,2022_May_03_1737,ProdSingRedo,3.2.3,60.060024011551164,
,,,,136,0,136,0,,,,,,,,,,,,,,,,,,,,,,,,1568.8015733000357,None,,,,,,,,,,,,,,,,,,community,aloud,yellow,136,47,63,1564.8791563000996,None,1564.8791563000996,None,6,2.2403901000507176,1564.8791563000996,None,1567.1832602000795,None,1567.6901541999541,None,1567.6901541999541,None,r,1.0778087999206036,1567.6901541999541,None,,,Color_53,001,2022_May_03_1737,ProdSingRedo,3.2.3,60.060024011551164,
,,,,137,0,137,0,,,,,,,,,,,,,,,,,,,,,,,,1574.6359063999262,None,,,,,,,,,,,,,,,,,,husband,new_silent,blue,137,158,156,1569.3250553999096,None,1569.3250553999096,None,1,3.515022899955511,1569.3250553999096,None,1572.8938345999923,None,1573.4129874000791,None,1573.4129874000791,None,n,1.1869150998536497,1573.4129874000791,None,,,Color_53,001,2022_May_03_1737,ProdSingRedo,3.2.3,60.060024011551164,
,,,,138,0,138,0,,,,,,,,,,,,,,,,,,,,,,,,1579.7080651998986,None,,,,,,,,,,,,,,,,,,order,sing,red,138,14,207,1575.1562642999925,None,1575.1562642999925,None,6,2.379610399948433,1575.1562642999925,None,1577.5796385998838,None,1578.0972486999817,None,1578.0972486999817,None,r,1.5751052999403328,1578.0972486999817,None,,,Color_53,001,2022_May_03_1737,ProdSingRedo,3.2.3,60.060024011551164,
,,,,139,0,139,0,,,,,,,,,,,,,,,,,,,,,,,,1584.4102551001124,None,,,,,,,,,,,,,,,,,,mankind,silent,blue,139,78,178,1580.2333957999945,None,1580.2333957999945,None,6,3.0304590999148786,1580.2333957999945,None,1583.3131971000694,None,1583.8434935999103,None,1583.8434935999103,None,r,0.5482464998494834,1583.8434935999103,None,,,Color_53,001,2022_May_03_1737,ProdSingRedo,3.2.3,60.060024011551164,
,,,,140,0,140,0,,,,,,,,,,,,,,,,,,,,,,,,1588.0194272000808,None,,,,,,,,,,,,,,,,,,territory,aloud,yellow,140,56,324,1584.9443286999594,None,1584.9443286999594,None,6,2.10359329986386,1584.9443286999594,None,1587.0979245998897,None,1587.6115506000351,None,1587.6115506000351,None,r,0.3805697998031974,1587.6115506000351,None,,,Color_53,001,2022_May_03_1737,ProdSingRedo,3.2.3,60.060024011551164,
,,,,141,0,141,0,,,,,,,,,,,,,,,,,,,,,,,,1591.2769178999588,None,,,,,,,,,,,,,,,,,,beauty,new_aloud,yellow,141,137,18,1588.5482753999531,None,1588.5482753999531,None,1,2.115658099995926,1588.5482753999531,None,1590.7239719000645,None,1591.2434064000845,None,1591.2434064000845,None,n,0.012592400191351771,1591.2434064000845,None,,,Color_53,001,2022_May_03_1737,ProdSingRedo,3.2.3,60.060024011551164,
,,,,142,0,142,0,,,,,,,,,,,,,,,,,,,,,,,,1598.156554599991,None,,,,,,,,,,,,,,,,,,scene,sing,red,142,1,273,1591.7951726000756,None,1591.7951726000756,None,5,5.492721699876711,1591.7951726000756,None,1597.3218590999022,None,1597.8255489000585,None,1597.8255489000585,None,f,0.2861481001600623,1597.8255489000585,None,,,Color_53,001,2022_May_03_1737,ProdSingRedo,3.2.3,60.060024011551164,
,,,,143,0,143,0,,,,,,,,,,,,,,,,,,,,,,,,1601.7161524998955,None,,,,,,,,,,,,,,,,,,rapid,silent,blue,143,71,252,1598.6746225000825,None,1598.6746225000825,None,2,2.2292321000713855,1598.6746225000825,None,1600.9583739000373,None,1601.4635578000452,None,1601.4635578000452,None,f,0.22430890006944537,1601.4635578000452,None,,,Color_53,001,2022_May_03_1737,ProdSingRedo,3.2.3,60.060024011551164,
,,,,144,0,144,0,,,,,,,,,,,,,,,,,,,,,,,,1606.0285710999742,None,,,,,,,,,,,,,,,,,,estate,aloud,yellow,144,32,119,1602.238472300116,None,1602.238472300116,None,1,3.1856146999634802,1602.238472300116,None,1605.4588836000767,None,1605.9635729999281,None,1605.9635729999281,None,n,0.03612790000624955,1605.9635729999281,None,,,Color_53,001,2022_May_03_1737,ProdSingRedo,3.2.3,60.060024011551164,
,,,,145,0,145,0,,,,,,,,,,,,,,,,,,,,,,,,1614.084333699895,None,,,,,,,,,,,,,,,,,,sleep,silent,blue,145,83,290,1606.551903600106,None,1606.551903600106,None,2,6.392096099909395,1606.551903600106,None,1612.9814816000871,None,1613.5043798000552,None,1613.5043798000552,None,n,0.5433122001122683,1613.5043798000552,None,,,Color_53,001,2022_May_03_1737,ProdSingRedo,3.2.3,60.060024011551164,
,,,,146,0,146,0,,,,,,,,,,,,,,,,,,,,,,,,1620.9943285998888,None,,,,,,,,,,,,,,,,,,pattern,new_silent,blue,146,174,214,1614.6108415001072,None,1614.6108415001072,None,4,5.156756500015035,1614.6108415001072,None,1619.796333400067,None,1620.3104665998835,None,1620.3104665998835,None,n,0.6571738000493497,1620.3104665998835,None,,,Color_53,001,2022_May_03_1737,ProdSingRedo,3.2.3,60.060024011551164,
,,,,147,0,147,0,,,,,,,,,,,,,,,,,,,,,,,,1625.996982099954,None,,,,,,,,,,,,,,,,,,store,new_aloud,yellow,147,125,305,1621.493926400086,None,1621.493926400086,None,3,2.681863599922508,1621.493926400086,None,1624.1962415999733,None,1624.710851599928,None,1624.710851599928,None,f,1.2569182000588626,1624.710851599928,None,,,Color_53,001,2022_May_03_1737,ProdSingRedo,3.2.3,60.060024011551164,
,,,,148,0,148,0,,,,,,,,,,,,,,,,,,,,,,,,1631.3311644999776,None,,,,,,,,,,,,,,,,,,victory,new_sing,red,148,105,346,1626.519446700113,None,1626.519446700113,None,1,3.952169100055471,1626.519446700113,None,1630.4969200000633,None,1631.013137599919,None,1631.013137599919,None,n,0.290446599945426,1631.013137599919,None,,,Color_53,001,2022_May_03_1737,ProdSingRedo,3.2.3,60.060024011551164,
,,,,149,0,149,0,,,,,,,,,,,,,,,,,,,,,,,,1641.0617090999149,None,,,,,,,,,,,,,,,,,,quantity,new_sing,red,149,106,245,1631.8454505000263,None,1631.8454505000263,None,3,8.546492999885231,1631.8454505000263,None,1640.417945999885,None,1640.928428800078,None,1640.928428800078,None,f,0.10311999986879528,1640.928428800078,None,,,Color_53,001,2022_May_03_1737,ProdSingRedo,3.2.3,60.060024011551164,
,,,,150,0,150,0,,,,,,,,,,,,,,,,,,,,,,,,1644.8806163000409,None,,,,,,,,,,,,,,,,,,sight,aloud,yellow,150,43,286,1641.5631188999396,None,1641.5631188999396,None,1,1.8685090001672506,1641.5631188999396,None,1643.4665562999435,None,1643.9822174999863,None,1643.9822174999863,None,n,0.8733538999222219,1643.9822174999863,None,,,Color_53,001,2022_May_03_1737,ProdSingRedo,3.2.3,60.060024011551164,
,,,,151,0,151,0,,,,,,,,,,,,,,,,,,,,,,,,1648.5457196999341,None,,,,,,,,,,,,,,,,,,cousin,new_silent,blue,151,163,76,1645.3950060999487,None,1645.3950060999487,None,1,1.9327326000202447,1645.3950060999487,None,1647.348798800027,None,1647.8622489001136,None,1647.8622489001136,None,n,0.6654793999623507,1647.8622489001136,None,,,Color_53,001,2022_May_03_1737,ProdSingRedo,3.2.3,60.060024011551164,
,,,,152,0,152,0,,,,,,,,,,,,,,,,,,,,,,,,1652.6648081999738,None,,,,,,,,,,,,,,,,,,music,new_aloud,yellow,152,143,196,1649.0534606000874,None,1649.0534606000874,None,1,2.5305035000201315,1649.0534606000874,None,1651.6405420000665,None,1652.1536824000068,None,1652.1536824000068,None,n,0.485841799993068,1652.1536824000068,None,,,Color_53,001,2022_May_03_1737,ProdSingRedo,3.2.3,60.060024011551164,
,,,,153,0,153,0,,,,,,,,,,,,,,,,,,,,,,,,1657.4488844999578,None,,,,,,,,,,,,,,,,,,signal,new_aloud,yellow,153,136,287,1653.1821947998833,None,1653.1821947998833,None,1,2.7534320999402553,1653.1821947998833,None,1655.9661431999411,None,1656.4802383000497,None,1656.4802383000497,None,n,0.951377100078389,1656.4802383000497,None,,,Color_53,001,2022_May_03_1737,ProdSingRedo,3.2.3,60.060024011551164,
,,,,154,0,154,0,,,,,,,,,,,,,,,,,,,,,,,,1661.0631478000432,None,,,,,,,,,,,,,,,,,,school,new_aloud,yellow,154,146,274,1657.962963799946,None,1657.962963799946,None,4,1.996963300043717,1657.962963799946,None,1659.9817967000417,None,1660.4969236000907,None,1660.4969236000907,None,f,0.5426863001193851,1660.4969236000907,None,,,Color_53,001,2022_May_03_1737,ProdSingRedo,3.2.3,60.060024011551164,
,,,,155,0,155,0,,,,,,,,,,,,,,,,,,,,,,,,1667.1802070999984,None,,,,,,,,,,,,,,,,,,payment,new_silent,blue,155,178,215,1661.5701288001146,None,1661.5701288001146,None,4,4.653471200028434,1661.5701288001146,None,1666.2539506000467,None,1666.7639003999066,None,1666.7639003999066,None,f,0.3876507000532001,1666.7639003999066,None,,,Color_53,001,2022_May_03_1737,ProdSingRedo,3.2.3,60.060024011551164,
,,,,156,0,156,0,,,,,,,,,,,,,,,,,,,,,,,,1670.3644904000685,None,,,,,,,,,,,,,,,,,,addition,new_silent,blue,156,160,2,1667.6831672000699,None,1667.6831672000699,None,1,1.7725736000575125,1667.6831672000699,None,1669.4839620999992,None,1669.997248099884,None,1669.997248099884,None,n,0.33845719997771084,1669.997248099884,None,,,Color_53,001,2022_May_03_1737,ProdSingRedo,3.2.3,60.060024011551164,
,,,,157,0,157,0,,,,,,,,,,,,,,,,,,,,,,,,1673.9141536001116,None,,,,,,,,,,,,,,,,,,edition,new_sing,red,157,96,107,1670.865917300107,None,1670.865917300107,None,1,2.1815969001036137,1670.865917300107,None,1673.0669450999703,None,1673.581148599973,None,1673.581148599973,None,n,0.3065037000924349,1673.581148599973,None,,,Color_53,001,2022_May_03_1737,ProdSingRedo,3.2.3,60.060024011551164,
,,,,158,0,158,0,,,,,,,,,,,,,,,,,,,,,,,,1678.4493358000182,None,,,,,,,,,,,,,,,,,,state,silent,blue,158,66,303,1674.4161390000954,None,1674.4161390000954,None,3,3.3273646000307053,1674.4161390000954,None,1677.7673432000447,None,1678.2813126998954,None,1678.2813126998954,None,f,0.15034969989210367,1678.2813126998954,None,,,Color_53,001,2022_May_03_1737,ProdSingRedo,3.2.3,60.060024011551164,
,,,,159,0,159,0,,,,,,,,,,,,,,,,,,,,,,,,1685.2313671999145,None,,,,,,,,,,,,,,,,,,salary,new_sing,red,159,100,271,1678.966556499945,None,1678.966556499945,None,2,4.481209099991247,1678.966556499945,None,1683.4700362000149,None,1683.9823084000964,None,1683.9823084000964,None,f,1.225275699980557,1683.9823084000964,None,,,Color_53,001,2022_May_03_1737,ProdSingRedo,3.2.3,60.060024011551164,
,,,,160,0,160,0,,,,,,,,,,,,,,,,,,,,,,,,1688.8122405998874,None,,,,,,,,,,,,,,,,,,burden,new_sing,red,160,108,36,1685.7337100000586,None,1685.7337100000586,None,1,2.2503044998738915,1685.7337100000586,None,1688.025226400001,None,1688.5431826000568,None,1688.5431826000568,None,n,0.2407058000098914,1688.5431826000568,None,,,Color_53,001,2022_May_03_1737,ProdSingRedo,3.2.3,60.060024011551164,
,,,,161,0,161,0,,,,,,,,,,,,,,,,,,,,,,,,1691.8944226000458,None,,,,,,,,,,,,,,,,,,taste,new_sing,red,161,95,322,1689.3187790999655,None,1689.3187790999655,None,1,1.68914380017668,1689.3187790999655,None,1691.0562714000698,None,1691.5786065999418,None,1691.5786065999418,None,n,0.2774162001442164,1691.5786065999418,None,,,Color_53,001,2022_May_03_1737,ProdSingRedo,3.2.3,60.060024011551164,
,,,,162,0,162,0,,,,,,,,,,,,,,,,,,,,,,,,1695.4674990999047,None,,,,,,,,,,,,,,,,,,stand,new_sing,red,162,101,302,1692.41507239989,None,1692.41507239989,None,1,1.7848761999048293,1692.41507239989,None,1694.240986800054,None,1694.7613395999651,None,1694.7613395999651,None,n,0.6784001998603344,1694.7613395999651,None,,,Color_53,001,2022_May_03_1737,ProdSingRedo,3.2.3,60.060024011551164,
,,,,163,0,163,0,,,,,,,,,,,,,,,,,,,,,,,,1710.04463150003,None,,,,,,,,,,,,,,,,,,budget,new_aloud,yellow,163,139,34,1696.0051883999258,None,1696.0051883999258,None,4,12.37893919995986,1696.0051883999258,None,1708.427121500019,None,1708.9490292000119,None,1708.9490292000119,None,f,1.058766399975866,1708.9490292000119,None,,,Color_53,001,2022_May_03_1737,ProdSingRedo,3.2.3,60.060024011551164,
,,,,164,0,164,0,,,,,,,,,,,,,,,,,,,,,,,,1718.5118750999682,None,,,,,,,,,,,,,,,,,,point,silent,blue,164,88,226,1710.5621275999583,None,1710.5621275999583,None,2,6.677681900095195,1710.5621275999583,None,1717.2777964000124,None,1717.7929779998958,None,1717.7929779998958,None,f,0.6788180000148714,1717.7929779998958,None,,,Color_53,001,2022_May_03_1737,ProdSingRedo,3.2.3,60.060024011551164,
,,,,165,0,165,0,,,,,,,,,,,,,,,,,,,,,,,,1723.7281861000229,None,,,,,,,,,,,,,,,,,,vision,new_silent,blue,165,176,347,1719.0400680999737,None,1719.0400680999737,None,6,3.0320304001215845,1719.0400680999737,None,1722.1224080000538,None,1722.6452369999606,None,1722.6452369999606,None,r,1.050650899996981,1722.6452369999606,None,,,Color_53,001,2022_May_03_1737,ProdSingRedo,3.2.3,60.060024011551164,
,,,,166,0,166,0,,,,,,,,,,,,,,,,,,,,,,,,1734.076640299987,None,,,,,,,,,,,,,,,,,,split,aloud,yellow,166,51,299,1724.2496803000104,None,1724.2496803000104,None,1,7.486452300101519,1724.2496803000104,None,1731.7694846000522,None,1732.277787500061,None,1732.277787500061,None,n,1.7621506000868976,1732.277787500061,None,,,Color_53,001,2022_May_03_1737,ProdSingRedo,3.2.3,60.060024011551164,
,,,,167,0,167,0,,,,,,,,,,,,,,,,,,,,,,,,1741.18002300011,None,,,,,,,,,,,,,,,,,,tough,aloud,yellow,167,45,333,1734.6056977000553,None,1734.6056977000553,None,2,5.674227399984375,1734.6056977000553,None,1740.3247094999533,None,1740.8499310999177,None,1740.8499310999177,None,f,0.2939877000171691,1740.8499310999177,None,,,Color_53,001,2022_May_03_1737,ProdSingRedo,3.2.3,60.060024011551164,
,,,,168,0,168,0,,,,,,,,,,,,,,,,,,,,,,,,1752.1302133998834,None,,,,,,,,,,,,,,,,,,ground,sing,red,168,13,142,1741.7033369999845,None,1741.7033369999845,None,4,9.032559200190008,1741.7033369999845,None,1750.766083699884,None,1751.2700267999899,None,1751.2700267999899,None,f,0.8340861999895424,1751.2700267999899,None,,,Color_53,001,2022_May_03_1737,ProdSingRedo,3.2.3,60.060024011551164,
,,,,169,0,169,0,,,,,,,,,,,,,,,,,,,,,,,,1755.7298522999045,None,,,,,,,,,,,,,,,,,,fashion,sing,red,169,17,125,1752.6389260999858,None,1752.6389260999858,None,5,1.9611282001715153,1752.6389260999858,None,1754.6308224999812,None,1755.1483628000133,None,1755.1483628000133,None,f,0.555586899863556,1755.1483628000133,None,,,Color_53,001,2022_May_03_1737,ProdSingRedo,3.2.3,60.060024011551164,
,,,,170,0,170,0,,,,,,,,,,,,,,,,,,,,,,,,1760.8802898998838,None,,,,,,,,,,,,,,,,,,permit,new_aloud,yellow,170,149,218,1756.251162899891,None,1756.251162899891,None,2,3.8606715998612344,1756.251162899891,None,1760.1539421000052,None,1760.664449899923,None,1760.664449899923,None,f,0.1834054000210017,1760.664449899923,None,,,Color_53,001,2022_May_03_1737,ProdSingRedo,3.2.3,60.060024011551164,
,,,,171,0,171,0,,,,,,,,,,,,,,,,,,,,,,,,1764.2816961000208,None,,,,,,,,,,,,,,,,,,track,new_aloud,yellow,171,135,334,1761.4089565000031,None,1761.4089565000031,None,1,1.7595065999776125,1761.4089565000031,None,1763.2155138999224,None,1763.734222699888,None,1763.734222699888,None,n,0.5058266001287848,1763.734222699888,None,,,Color_53,001,2022_May_03_1737,ProdSingRedo,3.2.3,60.060024011551164,
,,,,172,0,172,0,,,,,,,,,,,,,,,,,,,,,,,,1770.2307271999307,None,,,,,,,,,,,,,,,,,,throw,sing,red,172,4,330,1764.806379100075,None,1764.806379100075,None,1,4.169512200169265,1764.806379100075,None,1769.026907700114,None,1769.5496996999718,None,1769.5496996999718,None,n,0.6421709000132978,1769.5496996999718,None,,,Color_53,001,2022_May_03_1737,ProdSingRedo,3.2.3,60.060024011551164,
,,,,173,0,173,0,,,,,,,,,,,,,,,,,,,,,,,,1775.2646941998973,None,,,,,,,,,,,,,,,,,,guard,sing,red,173,2,145,1770.7569587999023,None,1770.7569587999023,None,5,3.3548322001006454,1770.7569587999023,None,1774.16912649991,None,1774.6811969000846,None,1774.6811969000846,None,f,0.5586280000861734,1774.6811969000846,None,,,Color_53,001,2022_May_03_1737,ProdSingRedo,3.2.3,60.060024011551164,
,,,,174,0,174,0,,,,,,,,,,,,,,,,,,,,,,,,1778.7649916999508,None,,,,,,,,,,,,,,,,,,cover,new_aloud,yellow,174,131,77,1775.790678099962,None,1775.790678099962,None,3,1.841153500135988,1775.790678099962,None,1777.6812863000669,None,1778.1997624998912,None,1778.1997624998912,None,f,0.5280082998797297,1778.1997624998912,None,,,Color_53,001,2022_May_03_1737,ProdSingRedo,3.2.3,60.060024011551164,
,,,,175,0,175,0,,,,,,,,,,,,,,,,,,,,,,,,1782.8514996001031,None,,,,,,,,,,,,,,,,,,close,aloud,yellow,175,34,53,1779.2885427998845,None,1779.2885427998845,None,3,2.495468500070274,1779.2885427998845,None,1781.826647900045,None,1782.3454962999094,None,1782.3454962999094,None,f,0.4623963001649827,1782.3454962999094,None,,,Color_53,001,2022_May_03_1737,ProdSingRedo,3.2.3,60.060024011551164,
,,,,176,0,176,0,,,,,,,,,,,,,,,,,,,,,,,,1787.899895899929,None,,,,,,,,,,,,,,,,,,passage,new_aloud,yellow,176,127,212,1783.3728893999942,None,1783.3728893999942,None,1,3.6990203999448568,1783.3728893999942,None,1787.1170194000006,None,1787.6344113999512,None,1787.6344113999512,None,n,0.23752399999648333,1787.6344113999512,None,,,Color_53,001,2022_May_03_1737,ProdSingRedo,3.2.3,60.060024011551164,
,,,,177,0,177,0,,,,,,,,,,,,,,,,,,,,,,,,1792.8008882000577,None,,,,,,,,,,,,,,,,,,election,new_aloud,yellow,177,123,109,1788.420586500084,None,1788.420586500084,None,2,3.483722700038925,1788.420586500084,None,1791.945350700058,None,1792.4675541000906,None,1792.4675541000906,None,f,0.3004740998148918,1792.4675541000906,None,,,Color_53,001,2022_May_03_1737,ProdSingRedo,3.2.3,60.060024011551164,
,,,,178,0,178,0,,,,,,,,,,,,,,,,,,,,,,,,1796.632465600036,None,,,,,,,,,,,,,,,,,,display,aloud,yellow,178,30,98,1793.3288219000679,None,1793.3288219000679,None,6,2.2310186000540853,1793.3288219000679,None,1795.6123371000867,None,1796.136480800109,None,1796.136480800109,None,r,0.45538690011017025,1796.136480800109,None,,,Color_53,001,2022_May_03_1737,ProdSingRedo,3.2.3,60.060024011551164,
,,,,179,0,179,0,,,,,,,,,,,,,,,,,,,,,,,,1805.1206292998977,None,,,,,,,,,,,,,,,,,,tennis,sing,red,179,15,323,1797.1543431999162,None,1797.1543431999162,None,6,7.0854897000826895,1797.1543431999162,None,1804.2806551998947,None,1804.7985229000915,None,1804.7985229000915,None,r,0.2894200999289751,1804.7985229000915,None,,,Color_53,001,2022_May_03_1737,ProdSingRedo,3.2.3,60.060024011551164,
,,,,,,,,,,,,,,,,,,,,,,,,,,,,,,,,,,,,,,,,,,,,,,,,,,,,,,,,,,,,,,,,,,,,,,,,,,1805.6241333000362,None,,,,,,,
