StudyLoop.thisRepN,StudyLoop.thisTrialN,StudyLoop.thisN,StudyLoop.thisIndex,TestLoop.thisRepN,TestLoop.thisTrialN,TestLoop.thisN,TestLoop.thisIndex,textCondition.started,textCondition.stopped,keyCondition.keys,keyCondition.rt,keyCondition.started,keyCondition.stopped,Condition,stim_colors,color_sing,color_aloud,color_silent,textWelcome.started,textWelcome.stopped,keyWelcome.keys,keyWelcome.rt,keyWelcome.started,keyWelcome.stopped,textAloud.started,textAloud.stopped,textSilent.started,textSilent.stopped,textSing.started,textSing.stopped,textBlank500.started,textBlank500.stopped,study_word,study_type,study_color,study_num,study_word_num,textStudy.started,textStudy.stopped,keyStudy.keys,keyStudy.started,keyStudy.stopped,textTestInstructions.started,textTestInstructions.stopped,key_resp_3.keys,key_resp_3.rt,key_resp_3.started,key_resp_3.stopped,testWord,testType,testColor,testN,test_num,test_word_num,textConf.started,textConf.stopped,textConfScale.started,textConfScale.stopped,keyConf.keys,keyConf.rt,keyConf.started,keyConf.stopped,textTestBlank.started,textTestBlank.stopped,textRKN.started,textRKN.stopped,textRKNScale.started,textRKNScale.stopped,keyRKN.keys,keyRKN.rt,keyRKN.started,keyRKN.stopped,textEnd.started,textEnd.stopped,participant,session,date,expName,psychopyVersion,frameRate
,,,,,,,,20.6368848,None,y,2.4616006,20.6368848,None,,,,,,,,,,,,,,,,,,,,,,,,,,,,,,,,,,,,,,,,,,,,,,,,,,,,,,,,,,,,,,color13a,1,2020_Feb_06_1601,ProdSingRedo,3.2.4,60.03723509
,,,,,,,,,,,,,,ColoredTest,"['yellow', 'blue', 'red']",yellow,blue,red,23.2001884,None,space,150.6521566,23.2001884,None,,,,,,,,,,,,,,,,,,,,,,,,,,,,,,,,,,,,,,,,,,,,,,,,,,,color13a,1,2020_Feb_06_1601,ProdSingRedo,3.2.4,60.03723509
0,0,0,0,,,,,,,,,,,,,,,,,,,,,,23.2001884,None,23.2001884,None,23.2001884,None,176.4118046,None,bright,silent,red,62,29,174.4157111,None,None,174.4157111,None,,,,,,,,,,,,,,,,,,,,,,,,,,,,,,,,,color13a,1,2020_Feb_06_1601,ProdSingRedo,3.2.4,60.03723509
1,0,1,0,,,,,,,,,,,,,,,,,,,,,,,,,,,,178.924883,None,crowd,aloud,blue,49,81,176.9310931,None,None,176.9310931,None,,,,,,,,,,,,,,,,,,,,,,,,,,,,,,,,,color13a,1,2020_Feb_06_1601,ProdSingRedo,3.2.4,60.03723509
2,0,2,0,,,,,,,,,,,,,,,,,,,,,,,,,,,,181.4404876,None,sleep,sing,yellow,23,290,179.4450066,None,None,179.4450066,None,,,,,,,,,,,,,,,,,,,,,,,,,,,,,,,,,color13a,1,2020_Feb_06_1601,ProdSingRedo,3.2.4,60.03723509
3,0,3,0,,,,,,,,,,,,,,,,,,,,,,,,,,,,183.9572062,None,committee,silent,red,87,62,181.9636785,None,None,181.9636785,None,,,,,,,,,,,,,,,,,,,,,,,,,,,,,,,,,color13a,1,2020_Feb_06_1601,ProdSingRedo,3.2.4,60.03723509
4,0,4,0,,,,,,,,,,,,,,,,,,,,,,,,,,,,186.4718852,None,report,sing,yellow,12,259,184.478362,None,None,184.478362,None,,,,,,,,,,,,,,,,,,,,,,,,,,,,,,,,,color13a,1,2020_Feb_06_1601,ProdSingRedo,3.2.4,60.03723509
5,0,5,0,,,,,,,,,,,,,,,,,,,,,,,,,,,,188.9873751,None,court,silent,red,69,75,186.9928927,None,None,186.9928927,None,,,,,,,,,,,,,,,,,,,,,,,,,,,,,,,,,color13a,1,2020_Feb_06_1601,ProdSingRedo,3.2.4,60.03723509
6,0,6,0,,,,,,,,,,,,,,,,,,,,,,,,,,,,191.5033759,None,judge,sing,yellow,10,166,189.5177289,None,None,189.5177289,None,,,,,,,,,,,,,,,,,,,,,,,,,,,,,,,,,color13a,1,2020_Feb_06_1601,ProdSingRedo,3.2.4,60.03723509
7,0,7,0,,,,,,,,,,,,,,,,,,,,,,,,,,,,194.0172187,None,recall,silent,red,67,255,192.0265296,None,None,192.0265296,None,,,,,,,,,,,,,,,,,,,,,,,,,,,,,,,,,color13a,1,2020_Feb_06_1601,ProdSingRedo,3.2.4,60.03723509
8,0,8,0,,,,,,,,,,,,,,,,,,,,,,,,,,,,196.5348766,None,carry,silent,red,89,43,194.547349,None,None,194.547349,None,,,,,,,,,,,,,,,,,,,,,,,,,,,,,,,,,color13a,1,2020_Feb_06_1601,ProdSingRedo,3.2.4,60.03723509
9,0,9,0,,,,,,,,,,,,,,,,,,,,,,,,,,,,199.0504241,None,broad,aloud,blue,58,31,197.0547054,None,None,197.0547054,None,,,,,,,,,,,,,,,,,,,,,,,,,,,,,,,,,color13a,1,2020_Feb_06_1601,ProdSingRedo,3.2.4,60.03723509
10,0,10,0,,,,,,,,,,,,,,,,,,,,,,,,,,,,201.5661346,None,problem,aloud,blue,56,238,199.5741003,None,None,199.5741003,None,,,,,,,,,,,,,,,,,,,,,,,,,,,,,,,,,color13a,1,2020_Feb_06_1601,ProdSingRedo,3.2.4,60.03723509
11,0,11,0,,,,,,,,,,,,,,,,,,,,,,,,,,,,204.0829109,None,payment,silent,red,66,215,202.0882585,None,None,202.0882585,None,,,,,,,,,,,,,,,,,,,,,,,,,,,,,,,,,color13a,1,2020_Feb_06_1601,ProdSingRedo,3.2.4,60.03723509
12,0,12,0,,,,,,,,,,,,,,,,,,,,,,,,,,,,206.5987227,None,curve,silent,red,70,82,204.610458,None,None,204.610458,None,,,,,,,,,,,,,,,,,,,,,,,,,,,,,,,,,color13a,1,2020_Feb_06_1601,ProdSingRedo,3.2.4,60.03723509
13,0,13,0,,,,,,,,,,,,,,,,,,,,,,,,,,,,209.1132768,None,phrase,aloud,blue,47,220,207.1197896,None,None,207.1197896,None,,,,,,,,,,,,,,,,,,,,,,,,,,,,,,,,,color13a,1,2020_Feb_06_1601,ProdSingRedo,3.2.4,60.03723509
14,0,14,0,,,,,,,,,,,,,,,,,,,,,,,,,,,,211.6290091,None,salary,silent,red,68,271,209.6344511,None,None,209.6344511,None,,,,,,,,,,,,,,,,,,,,,,,,,,,,,,,,,color13a,1,2020_Feb_06_1601,ProdSingRedo,3.2.4,60.03723509
15,0,15,0,,,,,,,,,,,,,,,,,,,,,,,,,,,,214.1428149,None,weather,sing,yellow,21,352,212.1511476,None,None,212.1511476,None,,,,,,,,,,,,,,,,,,,,,,,,,,,,,,,,,color13a,1,2020_Feb_06_1601,ProdSingRedo,3.2.4,60.03723509
16,0,16,0,,,,,,,,,,,,,,,,,,,,,,,,,,,,216.6584913,None,attack,silent,red,77,13,214.6662943,None,None,214.6662943,None,,,,,,,,,,,,,,,,,,,,,,,,,,,,,,,,,color13a,1,2020_Feb_06_1601,ProdSingRedo,3.2.4,60.03723509
17,0,17,0,,,,,,,,,,,,,,,,,,,,,,,,,,,,219.1769105,None,agreement,silent,red,65,5,217.1766665,None,None,217.1766665,None,,,,,,,,,,,,,,,,,,,,,,,,,,,,,,,,,color13a,1,2020_Feb_06_1601,ProdSingRedo,3.2.4,60.03723509
18,0,18,0,,,,,,,,,,,,,,,,,,,,,,,,,,,,221.6917789,None,agency,aloud,blue,40,4,219.6990707,None,None,219.6990707,None,,,,,,,,,,,,,,,,,,,,,,,,,,,,,,,,,color13a,1,2020_Feb_06_1601,ProdSingRedo,3.2.4,60.03723509
19,0,19,0,,,,,,,,,,,,,,,,,,,,,,,,,,,,224.206764,None,course,aloud,blue,33,74,222.2024432,None,None,222.2024432,None,,,,,,,,,,,,,,,,,,,,,,,,,,,,,,,,,color13a,1,2020_Feb_06_1601,ProdSingRedo,3.2.4,60.03723509
20,0,20,0,,,,,,,,,,,,,,,,,,,,,,,,,,,,226.7223106,None,drink,aloud,blue,48,105,224.7236464,None,None,224.7236464,None,,,,,,,,,,,,,,,,,,,,,,,,,,,,,,,,,color13a,1,2020_Feb_06_1601,ProdSingRedo,3.2.4,60.03723509
21,0,21,0,,,,,,,,,,,,,,,,,,,,,,,,,,,,229.2395812,None,clear,sing,yellow,15,52,227.2398101,None,None,227.2398101,None,,,,,,,,,,,,,,,,,,,,,,,,,,,,,,,,,color13a,1,2020_Feb_06_1601,ProdSingRedo,3.2.4,60.03723509
22,0,22,0,,,,,,,,,,,,,,,,,,,,,,,,,,,,231.7546383,None,marriage,sing,yellow,2,179,229.7619846,None,None,229.7619846,None,,,,,,,,,,,,,,,,,,,,,,,,,,,,,,,,,color13a,1,2020_Feb_06_1601,ProdSingRedo,3.2.4,60.03723509
23,0,23,0,,,,,,,,,,,,,,,,,,,,,,,,,,,,234.2703064,None,impact,sing,yellow,6,157,232.2766398,None,None,232.2766398,None,,,,,,,,,,,,,,,,,,,,,,,,,,,,,,,,,color13a,1,2020_Feb_06_1601,ProdSingRedo,3.2.4,60.03723509
24,0,24,0,,,,,,,,,,,,,,,,,,,,,,,,,,,,236.7840018,None,color,silent,red,71,56,234.7916066,None,None,234.7916066,None,,,,,,,,,,,,,,,,,,,,,,,,,,,,,,,,,color13a,1,2020_Feb_06_1601,ProdSingRedo,3.2.4,60.03723509
25,0,25,0,,,,,,,,,,,,,,,,,,,,,,,,,,,,239.3017482,None,whole,aloud,blue,39,355,237.30624,None,None,237.30624,None,,,,,,,,,,,,,,,,,,,,,,,,,,,,,,,,,color13a,1,2020_Feb_06_1601,ProdSingRedo,3.2.4,60.03723509
26,0,26,0,,,,,,,,,,,,,,,,,,,,,,,,,,,,241.8183767,None,voice,silent,red,76,348,239.8257761,None,None,239.8257761,None,,,,,,,,,,,,,,,,,,,,,,,,,,,,,,,,,color13a,1,2020_Feb_06_1601,ProdSingRedo,3.2.4,60.03723509
27,0,27,0,,,,,,,,,,,,,,,,,,,,,,,,,,,,244.3331412,None,comedy,silent,red,61,58,242.3384269,None,None,242.3384269,None,,,,,,,,,,,,,,,,,,,,,,,,,,,,,,,,,color13a,1,2020_Feb_06_1601,ProdSingRedo,3.2.4,60.03723509
28,0,28,0,,,,,,,,,,,,,,,,,,,,,,,,,,,,246.8440779,None,figure,aloud,blue,32,128,244.854128,None,None,244.854128,None,,,,,,,,,,,,,,,,,,,,,,,,,,,,,,,,,color13a,1,2020_Feb_06_1601,ProdSingRedo,3.2.4,60.03723509
29,0,29,0,,,,,,,,,,,,,,,,,,,,,,,,,,,,249.3655956,None,exchange,aloud,blue,51,121,247.3716918,None,None,247.3716918,None,,,,,,,,,,,,,,,,,,,,,,,,,,,,,,,,,color13a,1,2020_Feb_06_1601,ProdSingRedo,3.2.4,60.03723509
30,0,30,0,,,,,,,,,,,,,,,,,,,,,,,,,,,,251.8802278,None,evidence,sing,yellow,24,120,249.8927645,None,None,249.8927645,None,,,,,,,,,,,,,,,,,,,,,,,,,,,,,,,,,color13a,1,2020_Feb_06_1601,ProdSingRedo,3.2.4,60.03723509
31,0,31,0,,,,,,,,,,,,,,,,,,,,,,,,,,,,254.3956395,None,short,sing,yellow,18,285,252.4014766,None,None,252.4014766,None,,,,,,,,,,,,,,,,,,,,,,,,,,,,,,,,,color13a,1,2020_Feb_06_1601,ProdSingRedo,3.2.4,60.03723509
32,0,32,0,,,,,,,,,,,,,,,,,,,,,,,,,,,,256.9101675,None,second,aloud,blue,43,278,254.9171828,None,None,254.9171828,None,,,,,,,,,,,,,,,,,,,,,,,,,,,,,,,,,color13a,1,2020_Feb_06_1601,ProdSingRedo,3.2.4,60.03723509
33,0,33,0,,,,,,,,,,,,,,,,,,,,,,,,,,,,259.4269531,None,scale,sing,yellow,19,272,257.4319214,None,None,257.4319214,None,,,,,,,,,,,,,,,,,,,,,,,,,,,,,,,,,color13a,1,2020_Feb_06_1601,ProdSingRedo,3.2.4,60.03723509
34,0,34,0,,,,,,,,,,,,,,,,,,,,,,,,,,,,261.9431184,None,safety,sing,yellow,17,270,259.9496803,None,None,259.9496803,None,,,,,,,,,,,,,,,,,,,,,,,,,,,,,,,,,color13a,1,2020_Feb_06_1601,ProdSingRedo,3.2.4,60.03723509
35,0,35,0,,,,,,,,,,,,,,,,,,,,,,,,,,,,264.4571699,None,comfort,silent,red,79,59,262.4653436,None,None,262.4653436,None,,,,,,,,,,,,,,,,,,,,,,,,,,,,,,,,,color13a,1,2020_Feb_06_1601,ProdSingRedo,3.2.4,60.03723509
36,0,36,0,,,,,,,,,,,,,,,,,,,,,,,,,,,,266.9733732,None,present,sing,yellow,16,231,264.9769813,None,None,264.9769813,None,,,,,,,,,,,,,,,,,,,,,,,,,,,,,,,,,color13a,1,2020_Feb_06_1601,ProdSingRedo,3.2.4,60.03723509
37,0,37,0,,,,,,,,,,,,,,,,,,,,,,,,,,,,269.4891359,None,dispute,aloud,blue,50,99,267.4941284,None,None,267.4941284,None,,,,,,,,,,,,,,,,,,,,,,,,,,,,,,,,,color13a,1,2020_Feb_06_1601,ProdSingRedo,3.2.4,60.03723509
38,0,38,0,,,,,,,,,,,,,,,,,,,,,,,,,,,,272.0049725,None,mayor,silent,red,64,183,270.0063416,None,None,270.0063416,None,,,,,,,,,,,,,,,,,,,,,,,,,,,,,,,,,color13a,1,2020_Feb_06_1601,ProdSingRedo,3.2.4,60.03723509
39,0,39,0,,,,,,,,,,,,,,,,,,,,,,,,,,,,274.5163327,None,minor,silent,red,80,191,272.5218204,None,None,272.5218204,None,,,,,,,,,,,,,,,,,,,,,,,,,,,,,,,,,color13a,1,2020_Feb_06_1601,ProdSingRedo,3.2.4,60.03723509
40,0,40,0,,,,,,,,,,,,,,,,,,,,,,,,,,,,277.0368439,None,military,silent,red,78,190,275.0227366,None,None,275.0227366,None,,,,,,,,,,,,,,,,,,,,,,,,,,,,,,,,,color13a,1,2020_Feb_06_1601,ProdSingRedo,3.2.4,60.03723509
41,0,41,0,,,,,,,,,,,,,,,,,,,,,,,,,,,,279.5510828,None,society,aloud,blue,34,293,277.5536124,None,None,277.5536124,None,,,,,,,,,,,,,,,,,,,,,,,,,,,,,,,,,color13a,1,2020_Feb_06_1601,ProdSingRedo,3.2.4,60.03723509
42,0,42,0,,,,,,,,,,,,,,,,,,,,,,,,,,,,282.0668863,None,thick,silent,red,63,327,280.067351,None,None,280.067351,None,,,,,,,,,,,,,,,,,,,,,,,,,,,,,,,,,color13a,1,2020_Feb_06_1601,ProdSingRedo,3.2.4,60.03723509
43,0,43,0,,,,,,,,,,,,,,,,,,,,,,,,,,,,284.5825345,None,column,sing,yellow,0,57,282.5837253,None,None,282.5837253,None,,,,,,,,,,,,,,,,,,,,,,,,,,,,,,,,,color13a,1,2020_Feb_06_1601,ProdSingRedo,3.2.4,60.03723509
44,0,44,0,,,,,,,,,,,,,,,,,,,,,,,,,,,,287.0985194,None,message,sing,yellow,25,189,285.1036247,None,None,285.1036247,None,,,,,,,,,,,,,,,,,,,,,,,,,,,,,,,,,color13a,1,2020_Feb_06_1601,ProdSingRedo,3.2.4,60.03723509
45,0,45,0,,,,,,,,,,,,,,,,,,,,,,,,,,,,289.6149655,None,finish,aloud,blue,37,130,287.6187867,None,None,287.6187867,None,,,,,,,,,,,,,,,,,,,,,,,,,,,,,,,,,color13a,1,2020_Feb_06_1601,ProdSingRedo,3.2.4,60.03723509
46,0,46,0,,,,,,,,,,,,,,,,,,,,,,,,,,,,292.1305113,None,brilliant,aloud,blue,57,30,290.1358848,None,None,290.1358848,None,,,,,,,,,,,,,,,,,,,,,,,,,,,,,,,,,color13a,1,2020_Feb_06_1601,ProdSingRedo,3.2.4,60.03723509
47,0,47,0,,,,,,,,,,,,,,,,,,,,,,,,,,,,294.6484108,None,split,aloud,blue,36,299,292.649406,None,None,292.649406,None,,,,,,,,,,,,,,,,,,,,,,,,,,,,,,,,,color13a,1,2020_Feb_06_1601,ProdSingRedo,3.2.4,60.03723509
48,0,48,0,,,,,,,,,,,,,,,,,,,,,,,,,,,,297.1643349,None,story,sing,yellow,7,306,295.1685889,None,None,295.1685889,None,,,,,,,,,,,,,,,,,,,,,,,,,,,,,,,,,color13a,1,2020_Feb_06_1601,ProdSingRedo,3.2.4,60.03723509
49,0,49,0,,,,,,,,,,,,,,,,,,,,,,,,,,,,299.6796641,None,front,silent,red,73,134,297.6829588,None,None,297.6829588,None,,,,,,,,,,,,,,,,,,,,,,,,,,,,,,,,,color13a,1,2020_Feb_06_1601,ProdSingRedo,3.2.4,60.03723509
50,0,50,0,,,,,,,,,,,,,,,,,,,,,,,,,,,,302.1944821,None,member,aloud,blue,30,188,300.2019351,None,None,300.2019351,None,,,,,,,,,,,,,,,,,,,,,,,,,,,,,,,,,color13a,1,2020_Feb_06_1601,ProdSingRedo,3.2.4,60.03723509
51,0,51,0,,,,,,,,,,,,,,,,,,,,,,,,,,,,304.7108587,None,device,silent,red,75,93,302.7166343,None,None,302.7166343,None,,,,,,,,,,,,,,,,,,,,,,,,,,,,,,,,,color13a,1,2020_Feb_06_1601,ProdSingRedo,3.2.4,60.03723509
52,0,52,0,,,,,,,,,,,,,,,,,,,,,,,,,,,,307.2274396,None,enemy,aloud,blue,54,113,305.231313,None,None,305.231313,None,,,,,,,,,,,,,,,,,,,,,,,,,,,,,,,,,color13a,1,2020_Feb_06_1601,ProdSingRedo,3.2.4,60.03723509
53,0,53,0,,,,,,,,,,,,,,,,,,,,,,,,,,,,309.7422741,None,block,silent,red,72,25,307.7470547,None,None,307.7470547,None,,,,,,,,,,,,,,,,,,,,,,,,,,,,,,,,,color13a,1,2020_Feb_06_1601,ProdSingRedo,3.2.4,60.03723509
54,0,54,0,,,,,,,,,,,,,,,,,,,,,,,,,,,,312.2581718,None,dozen,aloud,blue,46,102,310.2718511,None,None,310.2718511,None,,,,,,,,,,,,,,,,,,,,,,,,,,,,,,,,,color13a,1,2020_Feb_06_1601,ProdSingRedo,3.2.4,60.03723509
55,0,55,0,,,,,,,,,,,,,,,,,,,,,,,,,,,,314.7735254,None,ground,silent,red,82,142,312.7794408,None,None,312.7794408,None,,,,,,,,,,,,,,,,,,,,,,,,,,,,,,,,,color13a,1,2020_Feb_06_1601,ProdSingRedo,3.2.4,60.03723509
56,0,56,0,,,,,,,,,,,,,,,,,,,,,,,,,,,,317.2886198,None,turkey,sing,yellow,13,342,315.295158,None,None,315.295158,None,,,,,,,,,,,,,,,,,,,,,,,,,,,,,,,,,color13a,1,2020_Feb_06_1601,ProdSingRedo,3.2.4,60.03723509
57,0,57,0,,,,,,,,,,,,,,,,,,,,,,,,,,,,319.8039483,None,individual,aloud,blue,38,160,317.8111422,None,None,317.8111422,None,,,,,,,,,,,,,,,,,,,,,,,,,,,,,,,,,color13a,1,2020_Feb_06_1601,ProdSingRedo,3.2.4,60.03723509
58,0,58,0,,,,,,,,,,,,,,,,,,,,,,,,,,,,322.3210291,None,murder,aloud,blue,35,195,320.3224175,None,None,320.3224175,None,,,,,,,,,,,,,,,,,,,,,,,,,,,,,,,,,color13a,1,2020_Feb_06_1601,ProdSingRedo,3.2.4,60.03723509
59,0,59,0,,,,,,,,,,,,,,,,,,,,,,,,,,,,324.8365344,None,command,sing,yellow,4,60,322.8423044,None,None,322.8423044,None,,,,,,,,,,,,,,,,,,,,,,,,,,,,,,,,,color13a,1,2020_Feb_06_1601,ProdSingRedo,3.2.4,60.03723509
60,0,60,0,,,,,,,,,,,,,,,,,,,,,,,,,,,,327.3524471,None,executive,sing,yellow,8,122,325.3598136,None,None,325.3598136,None,,,,,,,,,,,,,,,,,,,,,,,,,,,,,,,,,color13a,1,2020_Feb_06_1601,ProdSingRedo,3.2.4,60.03723509
61,0,61,0,,,,,,,,,,,,,,,,,,,,,,,,,,,,329.8681275,None,drove,aloud,blue,52,106,327.8716559,None,None,327.8716559,None,,,,,,,,,,,,,,,,,,,,,,,,,,,,,,,,,color13a,1,2020_Feb_06_1601,ProdSingRedo,3.2.4,60.03723509
62,0,62,0,,,,,,,,,,,,,,,,,,,,,,,,,,,,332.3817954,None,drama,aloud,blue,44,103,330.387113,None,None,330.387113,None,,,,,,,,,,,,,,,,,,,,,,,,,,,,,,,,,color13a,1,2020_Feb_06_1601,ProdSingRedo,3.2.4,60.03723509
63,0,63,0,,,,,,,,,,,,,,,,,,,,,,,,,,,,334.8967017,None,distance,sing,yellow,29,100,332.9033477,None,None,332.9033477,None,,,,,,,,,,,,,,,,,,,,,,,,,,,,,,,,,color13a,1,2020_Feb_06_1601,ProdSingRedo,3.2.4,60.03723509
64,0,64,0,,,,,,,,,,,,,,,,,,,,,,,,,,,,337.4152526,None,express,aloud,blue,59,124,335.4218591,None,None,335.4218591,None,,,,,,,,,,,,,,,,,,,,,,,,,,,,,,,,,color13a,1,2020_Feb_06_1601,ProdSingRedo,3.2.4,60.03723509
65,0,65,0,,,,,,,,,,,,,,,,,,,,,,,,,,,,339.9299277,None,position,sing,yellow,22,229,337.9369507,None,None,337.9369507,None,,,,,,,,,,,,,,,,,,,,,,,,,,,,,,,,,color13a,1,2020_Feb_06_1601,ProdSingRedo,3.2.4,60.03723509
66,0,66,0,,,,,,,,,,,,,,,,,,,,,,,,,,,,342.4466283,None,citizen,aloud,blue,55,50,340.4508993,None,None,340.4508993,None,,,,,,,,,,,,,,,,,,,,,,,,,,,,,,,,,color13a,1,2020_Feb_06_1601,ProdSingRedo,3.2.4,60.03723509
67,0,67,0,,,,,,,,,,,,,,,,,,,,,,,,,,,,344.9623661,None,native,sing,yellow,9,199,342.966773,None,None,342.966773,None,,,,,,,,,,,,,,,,,,,,,,,,,,,,,,,,,color13a,1,2020_Feb_06_1601,ProdSingRedo,3.2.4,60.03723509
68,0,68,0,,,,,,,,,,,,,,,,,,,,,,,,,,,,347.4766441,None,corner,silent,red,81,69,345.4836221,None,None,345.4836221,None,,,,,,,,,,,,,,,,,,,,,,,,,,,,,,,,,color13a,1,2020_Feb_06_1601,ProdSingRedo,3.2.4,60.03723509
69,0,69,0,,,,,,,,,,,,,,,,,,,,,,,,,,,,349.9931173,None,motion,sing,yellow,26,194,347.9993822,None,None,347.9993822,None,,,,,,,,,,,,,,,,,,,,,,,,,,,,,,,,,color13a,1,2020_Feb_06_1601,ProdSingRedo,3.2.4,60.03723509
70,0,70,0,,,,,,,,,,,,,,,,,,,,,,,,,,,,352.509452,None,community,sing,yellow,20,63,350.5100186,None,None,350.5100186,None,,,,,,,,,,,,,,,,,,,,,,,,,,,,,,,,,color13a,1,2020_Feb_06_1601,ProdSingRedo,3.2.4,60.03723509
71,0,71,0,,,,,,,,,,,,,,,,,,,,,,,,,,,,355.025109,None,sight,silent,red,84,286,353.0287033,None,None,353.0287033,None,,,,,,,,,,,,,,,,,,,,,,,,,,,,,,,,,color13a,1,2020_Feb_06_1601,ProdSingRedo,3.2.4,60.03723509
72,0,72,0,,,,,,,,,,,,,,,,,,,,,,,,,,,,357.5408641,None,guide,silent,red,88,147,355.5454955,None,None,355.5454955,None,,,,,,,,,,,,,,,,,,,,,,,,,,,,,,,,,color13a,1,2020_Feb_06_1601,ProdSingRedo,3.2.4,60.03723509
73,0,73,0,,,,,,,,,,,,,,,,,,,,,,,,,,,,360.0559322,None,under,silent,red,83,343,358.0609387,None,None,358.0609387,None,,,,,,,,,,,,,,,,,,,,,,,,,,,,,,,,,color13a,1,2020_Feb_06_1601,ProdSingRedo,3.2.4,60.03723509
74,0,74,0,,,,,,,,,,,,,,,,,,,,,,,,,,,,362.5722453,None,fight,sing,yellow,1,127,360.5756137,None,None,360.5756137,None,,,,,,,,,,,,,,,,,,,,,,,,,,,,,,,,,color13a,1,2020_Feb_06_1601,ProdSingRedo,3.2.4,60.03723509
75,0,75,0,,,,,,,,,,,,,,,,,,,,,,,,,,,,365.0880039,None,benefit,aloud,blue,45,20,363.0936131,None,None,363.0936131,None,,,,,,,,,,,,,,,,,,,,,,,,,,,,,,,,,color13a,1,2020_Feb_06_1601,ProdSingRedo,3.2.4,60.03723509
76,0,76,0,,,,,,,,,,,,,,,,,,,,,,,,,,,,367.6026722,None,junior,silent,red,60,167,365.6102899,None,None,365.6102899,None,,,,,,,,,,,,,,,,,,,,,,,,,,,,,,,,,color13a,1,2020_Feb_06_1601,ProdSingRedo,3.2.4,60.03723509
77,0,77,0,,,,,,,,,,,,,,,,,,,,,,,,,,,,370.1181287,None,science,sing,yellow,27,275,368.1289458,None,None,368.1289458,None,,,,,,,,,,,,,,,,,,,,,,,,,,,,,,,,,color13a,1,2020_Feb_06_1601,ProdSingRedo,3.2.4,60.03723509
78,0,78,0,,,,,,,,,,,,,,,,,,,,,,,,,,,,372.6359321,None,signal,silent,red,86,287,370.6407009,None,None,370.6407009,None,,,,,,,,,,,,,,,,,,,,,,,,,,,,,,,,,color13a,1,2020_Feb_06_1601,ProdSingRedo,3.2.4,60.03723509
79,0,79,0,,,,,,,,,,,,,,,,,,,,,,,,,,,,375.150786,None,goose,aloud,blue,41,138,373.1543989,None,None,373.1543989,None,,,,,,,,,,,,,,,,,,,,,,,,,,,,,,,,,color13a,1,2020_Feb_06_1601,ProdSingRedo,3.2.4,60.03723509
80,0,80,0,,,,,,,,,,,,,,,,,,,,,,,,,,,,377.6659299,None,travel,sing,yellow,11,338,375.6721416,None,None,375.6721416,None,,,,,,,,,,,,,,,,,,,,,,,,,,,,,,,,,color13a,1,2020_Feb_06_1601,ProdSingRedo,3.2.4,60.03723509
81,0,81,0,,,,,,,,,,,,,,,,,,,,,,,,,,,,380.1759053,None,direction,aloud,blue,31,94,378.189671,None,None,378.189671,None,,,,,,,,,,,,,,,,,,,,,,,,,,,,,,,,,color13a,1,2020_Feb_06_1601,ProdSingRedo,3.2.4,60.03723509
82,0,82,0,,,,,,,,,,,,,,,,,,,,,,,,,,,,382.6916941,None,light,silent,red,74,171,380.6824977,None,None,380.6824977,None,,,,,,,,,,,,,,,,,,,,,,,,,,,,,,,,,color13a,1,2020_Feb_06_1601,ProdSingRedo,3.2.4,60.03723509
83,0,83,0,,,,,,,,,,,,,,,,,,,,,,,,,,,,385.2131488,None,nation,silent,red,85,198,383.2003372,None,None,383.2003372,None,,,,,,,,,,,,,,,,,,,,,,,,,,,,,,,,,color13a,1,2020_Feb_06_1601,ProdSingRedo,3.2.4,60.03723509
84,0,84,0,,,,,,,,,,,,,,,,,,,,,,,,,,,,387.7293557,None,income,sing,yellow,5,159,385.7338874,None,None,385.7338874,None,,,,,,,,,,,,,,,,,,,,,,,,,,,,,,,,,color13a,1,2020_Feb_06_1601,ProdSingRedo,3.2.4,60.03723509
85,0,85,0,,,,,,,,,,,,,,,,,,,,,,,,,,,,390.2422386,None,little,sing,yellow,14,174,388.2506474,None,None,388.2506474,None,,,,,,,,,,,,,,,,,,,,,,,,,,,,,,,,,color13a,1,2020_Feb_06_1601,ProdSingRedo,3.2.4,60.03723509
86,0,86,0,,,,,,,,,,,,,,,,,,,,,,,,,,,,392.7579188,None,balance,sing,yellow,3,17,390.7594778,None,None,390.7594778,None,,,,,,,,,,,,,,,,,,,,,,,,,,,,,,,,,color13a,1,2020_Feb_06_1601,ProdSingRedo,3.2.4,60.03723509
87,0,87,0,,,,,,,,,,,,,,,,,,,,,,,,,,,,395.2745404,None,minute,sing,yellow,28,192,393.2665689,None,None,393.2665689,None,,,,,,,,,,,,,,,,,,,,,,,,,,,,,,,,,color13a,1,2020_Feb_06_1601,ProdSingRedo,3.2.4,60.03723509
88,0,88,0,,,,,,,,,,,,,,,,,,,,,,,,,,,,397.790315,None,profession,aloud,blue,42,241,395.7961351,None,None,395.7961351,None,,,,,,,,,,,,,,,,,,,,,,,,,,,,,,,,,color13a,1,2020_Feb_06_1601,ProdSingRedo,3.2.4,60.03723509
89,0,89,0,,,,,,,,,,,,,,,,,,,,,,,,,,,,400.3065632,None,measure,aloud,blue,53,184,398.3107635,None,None,398.3107635,None,,,,,,,,,,,,,,,,,,,,,,,,,,,,,,,,,color13a,1,2020_Feb_06_1601,ProdSingRedo,3.2.4,60.03723509
,,,,,,,,,,,,,,,,,,,,,,,,,,,,,,,,,,,,,,,,,,,400.803857,None,k,86.384877,400.803857,None,,,,,,,,,,,,,,,,,,,,,,,,,,,color13a,1,2020_Feb_06_1601,ProdSingRedo,3.2.4,60.03723509
,,,,0,0,0,0,,,,,,,,,,,,,,,,,,,,,,,,541.3013908,None,,,,,,,,,,,,,,,,,range,new_silent,red,0,168,251,487.7573431,None,487.7573431,None,1,45.4292048,487.7573431,None,533.2429343,None,533.7770962,None,533.7770962,None,n,7.4695037,533.7770962,None,,,color13a,1,2020_Feb_06_1601,ProdSingRedo,3.2.4,60.03723509
,,,,1,0,1,0,,,,,,,,,,,,,,,,,,,,,,,,547.2371225,None,,,,,,,,,,,,,,,,,childhood,new_aloud,blue,1,132,49,541.849287,None,541.849287,None,1,3.7154123,541.849287,None,545.6305816,None,546.157713,None,546.157713,None,n,1.0348414,546.157713,None,,,color13a,1,2020_Feb_06_1601,ProdSingRedo,3.2.4,60.03723509
,,,,2,0,2,0,,,,,,,,,,,,,,,,,,,,,,,,549.8455129,None,,,,,,,,,,,,,,,,,discussion,new_sing,yellow,2,104,96,547.7646303,None,547.7646303,None,1,0.9911201,547.7646303,None,548.8369636,None,549.3567904,None,549.3567904,None,n,0.4365305,549.3567904,None,,,color13a,1,2020_Feb_06_1601,ProdSingRedo,3.2.4,60.03723509
,,,,3,0,3,0,,,,,,,,,,,,,,,,,,,,,,,,553.6595186,None,,,,,,,,,,,,,,,,,working,new_aloud,blue,3,142,357,550.3716173,None,550.3716173,None,1,2.349055,550.3716173,None,552.8020673,None,553.3171496,None,553.3171496,None,n,0.2913732,553.3171496,None,,,color13a,1,2020_Feb_06_1601,ProdSingRedo,3.2.4,60.03723509
,,,,4,0,4,0,,,,,,,,,,,,,,,,,,,,,,,,556.0923393,None,,,,,,,,,,,,,,,,,bucket,new_aloud,blue,4,120,33,554.1977976,None,554.1977976,None,1,0.9469926,554.1977976,None,555.2142373,None,555.7340143,None,555.7340143,None,n,0.3048982,555.7340143,None,,,color13a,1,2020_Feb_06_1601,ProdSingRedo,3.2.4,60.03723509
,,,,5,0,5,0,,,,,,,,,,,,,,,,,,,,,,,,558.9408229,None,,,,,,,,,,,,,,,,,position,sing,yellow,5,22,229,556.6304038,None,556.6304038,None,1,1.436291,556.6304038,None,558.1468952,None,558.666865,None,558.666865,None,n,0.2162109,558.666865,None,,,color13a,1,2020_Feb_06_1601,ProdSingRedo,3.2.4,60.03723509
,,,,6,0,6,0,,,,,,,,,,,,,,,,,,,,,,,,561.2552269,None,,,,,,,,,,,,,,,,,minute,sing,yellow,6,28,192,559.4784654,None,559.4784654,None,1,0.9082802,559.4784654,None,560.4513384,None,560.97866,None,560.97866,None,n,0.2211599,560.97866,None,,,color13a,1,2020_Feb_06_1601,ProdSingRedo,3.2.4,60.03723509
,,,,7,0,7,0,,,,,,,,,,,,,,,,,,,,,,,,563.9210808,None,,,,,,,,,,,,,,,,,recall,silent,red,7,67,255,561.7970154,None,561.7970154,None,1,0.9466673,561.7970154,None,562.8299504,None,563.347767,None,563.347767,None,n,0.5142714,563.347767,None,,,color13a,1,2020_Feb_06_1601,ProdSingRedo,3.2.4,60.03723509
,,,,8,0,8,0,,,,,,,,,,,,,,,,,,,,,,,,566.4053085,None,,,,,,,,,,,,,,,,,scene,new_aloud,blue,8,138,273,564.4592233,None,564.4592233,None,1,1.0030848,564.4592233,None,565.5413289,None,566.0643465,None,566.0643465,None,n,0.2928111,566.0643465,None,,,color13a,1,2020_Feb_06_1601,ProdSingRedo,3.2.4,60.03723509
,,,,9,0,9,0,,,,,,,,,,,,,,,,,,,,,,,,569.1127336,None,,,,,,,,,,,,,,,,,goose,aloud,blue,9,41,138,566.931965,None,566.931965,None,1,1.1956,566.931965,None,568.1937801,None,568.7223225,None,568.7223225,None,n,0.346914,568.7223225,None,,,color13a,1,2020_Feb_06_1601,ProdSingRedo,3.2.4,60.03723509
,,,,10,0,10,0,,,,,,,,,,,,,,,,,,,,,,,,572.0421999,None,,,,,,,,,,,,,,,,,thick,silent,red,10,63,327,569.6556793,None,569.6556793,None,1,1.1341428,569.6556793,None,570.8605293,None,571.3569609,None,571.3569609,None,n,0.6531223,571.3569609,None,,,color13a,1,2020_Feb_06_1601,ProdSingRedo,3.2.4,60.03723509
,,,,11,0,11,0,,,,,,,,,,,,,,,,,,,,,,,,574.7292883,None,,,,,,,,,,,,,,,,,profession,aloud,blue,11,42,241,572.5614991,None,572.5614991,None,1,1.0587788,572.5614991,None,573.6560993,None,574.1802675,None,574.1802675,None,n,0.5045018,574.1802675,None,,,color13a,1,2020_Feb_06_1601,ProdSingRedo,3.2.4,60.03723509
,,,,12,0,12,0,,,,,,,,,,,,,,,,,,,,,,,,577.4247774,None,,,,,,,,,,,,,,,,,corner,silent,red,12,81,69,575.2724252,None,575.2724252,None,1,1.1833247,575.2724252,None,576.5371576,None,577.0521991,None,577.0521991,None,n,0.3217712,577.0521991,None,,,color13a,1,2020_Feb_06_1601,ProdSingRedo,3.2.4,60.03723509
,,,,13,0,13,0,,,,,,,,,,,,,,,,,,,,,,,,579.8818424,None,,,,,,,,,,,,,,,,,mechanical,new_aloud,blue,13,135,185,577.9685616,None,577.9685616,None,1,0.9707926,577.9685616,None,579.0180747,None,579.5408581,None,579.5408581,None,n,0.2801972,579.5408581,None,,,color13a,1,2020_Feb_06_1601,ProdSingRedo,3.2.4,60.03723509
,,,,14,0,14,0,,,,,,,,,,,,,,,,,,,,,,,,582.2430706,None,,,,,,,,,,,,,,,,,listen,new_silent,red,14,171,172,580.4217328,None,580.4217328,None,1,0.9158103,580.4217328,None,581.3962497,None,581.9200567,None,581.9200567,None,n,0.266053,581.9200567,None,,,color13a,1,2020_Feb_06_1601,ProdSingRedo,3.2.4,60.03723509
,,,,15,0,15,0,,,,,,,,,,,,,,,,,,,,,,,,584.3797407,None,,,,,,,,,,,,,,,,,period,new_aloud,blue,15,148,217,582.7859303,None,582.7859303,None,1,0.7266432,582.7859303,None,583.5861764,None,584.1065508,None,584.1065508,None,n,0.2129555,584.1065508,None,,,color13a,1,2020_Feb_06_1601,ProdSingRedo,3.2.4,60.03723509
,,,,16,0,16,0,,,,,,,,,,,,,,,,,,,,,,,,587.1776171,None,,,,,,,,,,,,,,,,,household,new_sing,yellow,16,119,154,584.9211375,None,584.9211375,None,1,1.5031457,584.9211375,None,586.5032056,None,587.0271795,None,587.0271795,None,n,0.0951975,587.0271795,None,,,color13a,1,2020_Feb_06_1601,ProdSingRedo,3.2.4,60.03723509
,,,,17,0,17,0,,,,,,,,,,,,,,,,,,,,,,,,589.571176,None,,,,,,,,,,,,,,,,,property,new_silent,red,17,158,242,587.7113791,None,587.7113791,None,1,1.0800312,587.7113791,None,588.8313633,None,589.3496079,None,589.3496079,None,n,0.1815286,589.3496079,None,,,color13a,1,2020_Feb_06_1601,ProdSingRedo,3.2.4,60.03723509
,,,,18,0,18,0,,,,,,,,,,,,,,,,,,,,,,,,591.76086,None,,,,,,,,,,,,,,,,,emergency,new_aloud,blue,18,144,110,590.1181307,None,590.1181307,None,1,0.8902654,590.1181307,None,591.0866805,None,591.606073,None,591.606073,None,n,0.0952251,591.606073,None,,,color13a,1,2020_Feb_06_1601,ProdSingRedo,3.2.4,60.03723509
,,,,19,0,19,0,,,,,,,,,,,,,,,,,,,,,,,,593.7102881,None,,,,,,,,,,,,,,,,,incident,new_silent,red,19,166,158,592.3005497,None,592.3005497,None,1,0.7305467,592.3005497,None,593.1163532,None,593.6161324,None,593.6161324,None,n,0.0353875,593.6161324,None,,,color13a,1,2020_Feb_06_1601,ProdSingRedo,3.2.4,60.03723509
,,,,20,0,20,0,,,,,,,,,,,,,,,,,,,,,,,,595.9623536,None,,,,,,,,,,,,,,,,,watch,new_silent,red,20,154,351,594.2496093,None,594.2496093,None,1,0.9097919,594.2496093,None,595.2215896,None,595.7477129,None,595.7477129,None,n,0.1629129,595.7477129,None,,,color13a,1,2020_Feb_06_1601,ProdSingRedo,3.2.4,60.03723509
,,,,21,0,21,0,,,,,,,,,,,,,,,,,,,,,,,,598.955289,None,,,,,,,,,,,,,,,,,executive,sing,yellow,21,8,122,596.514284,None,596.514284,None,1,1.6745285,596.514284,None,598.2532226,None,598.7824114,None,598.7824114,None,n,0.1196663,598.7824114,None,,,color13a,1,2020_Feb_06_1601,ProdSingRedo,3.2.4,60.03723509
,,,,22,0,22,0,,,,,,,,,,,,,,,,,,,,,,,,600.8528452,None,,,,,,,,,,,,,,,,,enemy,aloud,blue,22,54,113,599.4959323,None,599.4959323,None,1,0.7197514,599.4959323,None,600.2885308,None,600.8087551,None,600.8087551,None,n,0.0026552,600.8087551,None,,,color13a,1,2020_Feb_06_1601,ProdSingRedo,3.2.4,60.03723509
,,,,23,0,23,0,,,,,,,,,,,,,,,,,,,,,,,,603.6069864,None,,,,,,,,,,,,,,,,,stranger,new_sing,yellow,23,90,309,601.3946294,None,601.3946294,None,1,1.3115881,601.3946294,None,602.7742143,None,603.2901257,None,603.2901257,None,n,0.2620372,603.2901257,None,,,color13a,1,2020_Feb_06_1601,ProdSingRedo,3.2.4,60.03723509
,,,,24,0,24,0,,,,,,,,,,,,,,,,,,,,,,,,605.7316624,None,,,,,,,,,,,,,,,,,answer,new_sing,yellow,24,118,8,604.1442112,None,604.1442112,None,1,0.9077316,604.1442112,None,605.1196999,None,605.6418246,None,605.6418246,None,n,0.0403686,605.6418246,None,,,color13a,1,2020_Feb_06_1601,ProdSingRedo,3.2.4,60.03723509
,,,,25,0,25,0,,,,,,,,,,,,,,,,,,,,,,,,619.3679066,None,,,,,,,,,,,,,,,,,session,new_aloud,blue,25,131,281,606.2749403,None,606.2749403,None,6,9.2756522,606.2749403,None,615.6257323,None,616.1452199,None,616.1452199,None,f,3.1693854,616.1452199,None,,,color13a,1,2020_Feb_06_1601,ProdSingRedo,3.2.4,60.03723509
,,,,26,0,26,0,,,,,,,,,,,,,,,,,,,,,,,,623.141076,None,,,,,,,,,,,,,,,,,court,silent,red,26,69,75,619.9043312,None,619.9043312,None,6,2.0832209,619.9043312,None,622.0575088,None,622.5682873,None,622.5682873,None,f,0.519111,622.5682873,None,,,color13a,1,2020_Feb_06_1601,ProdSingRedo,3.2.4,60.03723509
,,,,27,0,27,0,,,,,,,,,,,,,,,,,,,,,,,,627.7313221,None,,,,,,,,,,,,,,,,,comfort,silent,red,27,79,59,623.6774514,None,623.6774514,None,1,2.4630832,623.6774514,None,626.2253227,None,626.7419025,None,626.7419025,None,n,0.9314257,626.7419025,None,,,color13a,1,2020_Feb_06_1601,ProdSingRedo,3.2.4,60.03723509
,,,,28,0,28,0,,,,,,,,,,,,,,,,,,,,,,,,629.6435032,None,,,,,,,,,,,,,,,,,audience,new_sing,yellow,28,106,14,628.2759401,None,628.2759401,None,1,0.6022578,628.2759401,None,628.9429093,None,629.469988,None,629.469988,None,n,0.1287722,629.469988,None,,,color13a,1,2020_Feb_06_1601,ProdSingRedo,3.2.4,60.03723509
,,,,29,0,29,0,,,,,,,,,,,,,,,,,,,,,,,,631.8890092,None,,,,,,,,,,,,,,,,,benefit,aloud,blue,29,45,20,630.1804664,None,630.1804664,None,1,0.6033065,630.1804664,None,630.8608778,None,631.3856298,None,631.3856298,None,n,0.4613411,631.3856298,None,,,color13a,1,2020_Feb_06_1601,ProdSingRedo,3.2.4,60.03723509
,,,,30,0,30,0,,,,,,,,,,,,,,,,,,,,,,,,633.73527,None,,,,,,,,,,,,,,,,,population,new_aloud,blue,30,147,227,632.4254356,None,632.4254356,None,1,0.6607151,632.4254356,None,633.1564237,None,633.6667883,None,633.6667883,None,n,0.0123452,633.6667883,None,,,color13a,1,2020_Feb_06_1601,ProdSingRedo,3.2.4,60.03723509
,,,,31,0,31,0,,,,,,,,,,,,,,,,,,,,,,,,635.6017711,None,,,,,,,,,,,,,,,,,scale,sing,yellow,31,19,272,634.2714737,None,634.2714737,None,1,0.5175384,634.2714737,None,634.8487283,None,635.3634177,None,635.3634177,None,n,0.185808,635.3634177,None,,,color13a,1,2020_Feb_06_1601,ProdSingRedo,3.2.4,60.03723509
,,,,32,0,32,0,,,,,,,,,,,,,,,,,,,,,,,,639.5552032,None,,,,,,,,,,,,,,,,,safety,sing,yellow,32,17,270,636.1385525,None,636.1385525,None,6,1.617206,636.1385525,None,637.8199425,None,638.3325366,None,638.3325366,None,f,1.1757675,638.3325366,None,,,color13a,1,2020_Feb_06_1601,ProdSingRedo,3.2.4,60.03723509
,,,,33,0,33,0,,,,,,,,,,,,,,,,,,,,,,,,641.6734419,None,,,,,,,,,,,,,,,,,course,aloud,blue,33,33,74,640.0970058,None,640.0970058,None,1,0.9115689,640.0970058,None,641.081267,None,641.5970315,None,641.5970315,None,n,0.0158197,641.5970315,None,,,color13a,1,2020_Feb_06_1601,ProdSingRedo,3.2.4,60.03723509
,,,,34,0,34,0,,,,,,,,,,,,,,,,,,,,,,,,643.5366538,None,,,,,,,,,,,,,,,,,impact,sing,yellow,34,6,157,642.2031973,None,642.2031973,None,1,0.5105973,642.2031973,None,642.7768224,None,643.2970065,None,643.2970065,None,n,0.1855148,643.2970065,None,,,color13a,1,2020_Feb_06_1601,ProdSingRedo,3.2.4,60.03723509
,,,,35,0,35,0,,,,,,,,,,,,,,,,,,,,,,,,645.3823398,None,,,,,,,,,,,,,,,,,narrow,new_aloud,blue,35,127,197,644.0794644,None,644.0794644,None,1,0.6157834,644.0794644,None,644.7576113,None,645.2775636,None,645.2775636,None,n,0.0512561,645.2775636,None,,,color13a,1,2020_Feb_06_1601,ProdSingRedo,3.2.4,60.03723509
,,,,36,0,36,0,,,,,,,,,,,,,,,,,,,,,,,,647.1150432,None,,,,,,,,,,,,,,,,,afternoon,new_aloud,blue,36,121,3,645.9190271,None,645.9190271,None,1,0.5065679,645.9190271,None,646.4842801,None,646.9781578,None,646.9781578,None,n,0.1035237,646.9781578,None,,,color13a,1,2020_Feb_06_1601,ProdSingRedo,3.2.4,60.03723509
,,,,37,0,37,0,,,,,,,,,,,,,,,,,,,,,,,,653.7494149,None,,,,,,,,,,,,,,,,,sight,silent,red,37,84,286,647.6593231,None,647.6593231,None,6,4.411973,647.6593231,None,652.1319704,None,652.6616594,None,652.6616594,None,f,1.0441052,652.6616594,None,,,color13a,1,2020_Feb_06_1601,ProdSingRedo,3.2.4,60.03723509
,,,,38,0,38,0,,,,,,,,,,,,,,,,,,,,,,,,656.0693668,None,,,,,,,,,,,,,,,,,carry,silent,red,38,89,43,654.2921967,None,654.2921967,None,1,0.5628264,654.2921967,None,654.924316,None,655.4460699,None,655.4460699,None,n,0.5633007,655.4460699,None,,,color13a,1,2020_Feb_06_1601,ProdSingRedo,3.2.4,60.03723509
,,,,39,0,39,0,,,,,,,,,,,,,,,,,,,,,,,,657.9005986,None,,,,,,,,,,,,,,,,,grade,new_sing,yellow,39,100,140,656.6000245,None,656.6000245,None,1,0.5533341,656.6000245,None,657.2051514,None,657.7242671,None,657.7242671,None,n,0.1158208,657.7242671,None,,,color13a,1,2020_Feb_06_1601,ProdSingRedo,3.2.4,60.03723509
,,,,40,0,40,0,,,,,,,,,,,,,,,,,,,,,,,,660.6799949,None,,,,,,,,,,,,,,,,,story,sing,yellow,40,7,306,658.4301458,None,658.4301458,None,1,0.4568163,658.4301458,None,658.9406431,None,659.4737311,None,659.4737311,None,f,1.1566117,659.4737311,None,,,color13a,1,2020_Feb_06_1601,ProdSingRedo,3.2.4,60.03723509
,,,,41,0,41,0,,,,,,,,,,,,,,,,,,,,,,,,662.9134176,None,,,,,,,,,,,,,,,,,thing,new_silent,red,41,179,328,661.2150914,None,661.2150914,None,1,0.8680192,661.2150914,None,662.1499428,None,662.6725067,None,662.6725067,None,n,0.1952309,662.6725067,None,,,color13a,1,2020_Feb_06_1601,ProdSingRedo,3.2.4,60.03723509
,,,,42,0,42,0,,,,,,,,,,,,,,,,,,,,,,,,668.6809688,None,,,,,,,,,,,,,,,,,business,new_sing,yellow,42,114,38,663.4567251,None,663.4567251,None,5,4.083176,663.4567251,None,667.6219994,None,668.1453406,None,668.1453406,None,f,0.4756994,668.1453406,None,,,color13a,1,2020_Feb_06_1601,ProdSingRedo,3.2.4,60.03723509
,,,,43,0,43,0,,,,,,,,,,,,,,,,,,,,,,,,671.280104,None,,,,,,,,,,,,,,,,,government,new_aloud,blue,43,134,139,669.2243802,None,669.2243802,None,1,0.7387247,669.2243802,None,670.0397136,None,670.5588901,None,670.5588901,None,n,0.6613562,670.5588901,None,,,color13a,1,2020_Feb_06_1601,ProdSingRedo,3.2.4,60.03723509
,,,,44,0,44,0,,,,,,,,,,,,,,,,,,,,,,,,673.0407348,None,,,,,,,,,,,,,,,,,platform,new_sing,yellow,44,111,224,671.810449,None,671.810449,None,1,0.5520428,671.810449,None,672.4290097,None,672.9534797,None,672.9534797,None,n,0.0381255,672.9534797,None,,,color13a,1,2020_Feb_06_1601,ProdSingRedo,3.2.4,60.03723509
,,,,45,0,45,0,,,,,,,,,,,,,,,,,,,,,,,,675.8581584,None,,,,,,,,,,,,,,,,,little,sing,yellow,45,14,174,673.5826949,None,673.5826949,None,1,1.1637123,673.5826949,None,674.8201928,None,675.3386893,None,675.3386893,None,n,0.4673796,675.3386893,None,,,color13a,1,2020_Feb_06_1601,ProdSingRedo,3.2.4,60.03723509
,,,,46,0,46,0,,,,,,,,,,,,,,,,,,,,,,,,679.440538,None,,,,,,,,,,,,,,,,,turkey,sing,yellow,46,13,342,676.3922184,None,676.3922184,None,4,2.1957761,676.3922184,None,678.6499227,None,679.1659889,None,679.1659889,None,f,0.2297025,679.1659889,None,,,color13a,1,2020_Feb_06_1601,ProdSingRedo,3.2.4,60.03723509
,,,,47,0,47,0,,,,,,,,,,,,,,,,,,,,,,,,681.4700778,None,,,,,,,,,,,,,,,,,cover,new_silent,red,47,159,77,679.9708864,None,679.9708864,None,1,0.5877771,679.9708864,None,680.620336,None,681.1349974,None,681.1349974,None,n,0.2883578,681.1349974,None,,,color13a,1,2020_Feb_06_1601,ProdSingRedo,3.2.4,60.03723509
,,,,48,0,48,0,,,,,,,,,,,,,,,,,,,,,,,,686.9408504,None,,,,,,,,,,,,,,,,,member,aloud,blue,48,30,188,682.0143029,None,682.0143029,None,6,2.9217829,682.0143029,None,685.0017422,None,685.5168272,None,685.5168272,None,f,1.363084,685.5168272,None,,,color13a,1,2020_Feb_06_1601,ProdSingRedo,3.2.4,60.03723509
,,,,49,0,49,0,,,,,,,,,,,,,,,,,,,,,,,,689.749584,None,,,,,,,,,,,,,,,,,express,aloud,blue,49,59,124,687.4714905,None,687.4714905,None,6,1.3627022,687.4714905,None,688.9068646,None,689.4295908,None,689.4295908,None,f,0.2652325,689.4295908,None,,,color13a,1,2020_Feb_06_1601,ProdSingRedo,3.2.4,60.03723509
,,,,50,0,50,0,,,,,,,,,,,,,,,,,,,,,,,,692.4028204,None,,,,,,,,,,,,,,,,,public,new_silent,red,50,162,244,690.2888972,None,690.2888972,None,6,1.415045,690.2888972,None,691.7640716,None,692.2940865,None,692.2940865,None,f,0.0634018,692.2940865,None,,,color13a,1,2020_Feb_06_1601,ProdSingRedo,3.2.4,60.03723509
,,,,51,0,51,0,,,,,,,,,,,,,,,,,,,,,,,,694.2669537,None,,,,,,,,,,,,,,,,,solution,new_silent,red,51,151,294,692.9404659,None,692.9404659,None,1,0.5327281,692.9404659,None,693.5409194,None,694.0650231,None,694.0650231,None,n,0.1448692,694.0650231,None,,,color13a,1,2020_Feb_06_1601,ProdSingRedo,3.2.4,60.03723509
,,,,52,0,52,0,,,,,,,,,,,,,,,,,,,,,,,,696.5869563,None,,,,,,,,,,,,,,,,,institute,new_sing,yellow,52,105,162,694.8122466,None,694.8122466,None,1,1.0641185,694.8122466,None,695.9601274,None,696.4840873,None,696.4840873,None,n,0.0404485,696.4840873,None,,,color13a,1,2020_Feb_06_1601,ProdSingRedo,3.2.4,60.03723509
,,,,53,0,53,0,,,,,,,,,,,,,,,,,,,,,,,,699.1137645,None,,,,,,,,,,,,,,,,,direction,aloud,blue,53,31,94,697.1191557,None,697.1191557,None,6,1.2638711,697.1191557,None,698.4480306,None,698.9590227,None,698.9590227,None,f,0.1126096,698.9590227,None,,,color13a,1,2020_Feb_06_1601,ProdSingRedo,3.2.4,60.03723509
,,,,54,0,54,0,,,,,,,,,,,,,,,,,,,,,,,,701.1454299,None,,,,,,,,,,,,,,,,,disease,new_silent,red,54,152,97,699.6539451,None,699.6539451,None,1,0.7128669,699.6539451,None,700.4280715,None,700.9396374,None,700.9396374,None,n,0.1550844,700.9396374,None,,,color13a,1,2020_Feb_06_1601,ProdSingRedo,3.2.4,60.03723509
,,,,55,0,55,0,,,,,,,,,,,,,,,,,,,,,,,,706.6078585,None,,,,,,,,,,,,,,,,,command,sing,yellow,55,4,60,701.6877024,None,701.6877024,None,1,3.8104279,701.6877024,None,705.5611256,None,706.0720414,None,706.0720414,None,n,0.4954357,706.0720414,None,,,color13a,1,2020_Feb_06_1601,ProdSingRedo,3.2.4,60.03723509
,,,,56,0,56,0,,,,,,,,,,,,,,,,,,,,,,,,708.883968,None,,,,,,,,,,,,,,,,,marriage,sing,yellow,56,2,179,707.1498253,None,707.1498253,None,1,0.8849996,707.1498253,None,708.095356,None,708.6107196,None,708.6107196,None,n,0.2238672,708.6107196,None,,,color13a,1,2020_Feb_06_1601,ProdSingRedo,3.2.4,60.03723509
,,,,57,0,57,0,,,,,,,,,,,,,,,,,,,,,,,,710.9522406,None,,,,,,,,,,,,,,,,,provision,new_aloud,blue,57,123,243,709.4233415,None,709.4233415,None,1,0.6125273,709.4233415,None,710.1067916,None,710.6269675,None,710.6269675,None,n,0.2743724,710.6269675,None,,,color13a,1,2020_Feb_06_1601,ProdSingRedo,3.2.4,60.03723509
,,,,58,0,58,0,,,,,,,,,,,,,,,,,,,,,,,,713.2823882,None,,,,,,,,,,,,,,,,,dispute,aloud,blue,58,50,99,711.5019152,None,711.5019152,None,1,0.9201488,711.5019152,None,712.4920674,None,713.0290949,None,713.0290949,None,n,0.2001207,713.0290949,None,,,color13a,1,2020_Feb_06_1601,ProdSingRedo,3.2.4,60.03723509
,,,,59,0,59,0,,,,,,,,,,,,,,,,,,,,,,,,715.1066721,None,,,,,,,,,,,,,,,,,strain,new_aloud,blue,59,140,308,713.8133204,None,713.8133204,None,1,0.5764364,713.8133204,None,714.4466701,None,714.9664165,None,714.9664165,None,n,0.0938888,714.9664165,None,,,color13a,1,2020_Feb_06_1601,ProdSingRedo,3.2.4,60.03723509
,,,,60,0,60,0,,,,,,,,,,,,,,,,,,,,,,,,717.1290811,None,,,,,,,,,,,,,,,,,medicine,new_silent,red,60,174,186,715.6514372,None,715.6514372,None,1,0.7395383,715.6514372,None,716.4705652,None,716.9882902,None,716.9882902,None,n,0.0802145,716.9882902,None,,,color13a,1,2020_Feb_06_1601,ProdSingRedo,3.2.4,60.03723509
,,,,61,0,61,0,,,,,,,,,,,,,,,,,,,,,,,,719.389782,None,,,,,,,,,,,,,,,,,music,new_aloud,blue,61,145,196,717.6688132,None,717.6688132,None,1,0.5392485,717.6688132,None,718.2840066,None,718.8058119,None,718.8058119,None,n,0.5368564,718.8058119,None,,,color13a,1,2020_Feb_06_1601,ProdSingRedo,3.2.4,60.03723509
,,,,62,0,62,0,,,,,,,,,,,,,,,,,,,,,,,,721.3898579,None,,,,,,,,,,,,,,,,,author,new_aloud,blue,62,136,15,719.9285364,None,719.9285364,None,1,0.6094041,719.9285364,None,720.5979539,None,721.1336497,None,721.1336497,None,n,0.1998981,721.1336497,None,,,color13a,1,2020_Feb_06_1601,ProdSingRedo,3.2.4,60.03723509
,,,,63,0,63,0,,,,,,,,,,,,,,,,,,,,,,,,723.3192608,None,,,,,,,,,,,,,,,,,partner,new_silent,red,63,156,211,721.934105,None,721.934105,None,1,0.5810831,721.934105,None,722.5743691,None,723.1047272,None,723.1047272,None,n,0.1668333,723.1047272,None,,,color13a,1,2020_Feb_06_1601,ProdSingRedo,3.2.4,60.03723509
,,,,64,0,64,0,,,,,,,,,,,,,,,,,,,,,,,,725.353749,None,,,,,,,,,,,,,,,,,finish,aloud,blue,64,37,130,723.8594871,None,723.8594871,None,1,0.8256577,723.8594871,None,724.7582408,None,725.2820276,None,725.2820276,None,n,0.0114932,725.2820276,None,,,color13a,1,2020_Feb_06_1601,ProdSingRedo,3.2.4,60.03723509
,,,,65,0,65,0,,,,,,,,,,,,,,,,,,,,,,,,728.2381662,None,,,,,,,,,,,,,,,,,minor,silent,red,65,80,191,725.8953558,None,725.8953558,None,1,1.2181067,725.8953558,None,727.1955448,None,727.7206444,None,727.7206444,None,n,0.4752391,727.7206444,None,,,color13a,1,2020_Feb_06_1601,ProdSingRedo,3.2.4,60.03723509
,,,,66,0,66,0,,,,,,,,,,,,,,,,,,,,,,,,731.5504323,None,,,,,,,,,,,,,,,,,message,sing,yellow,66,25,189,728.7728999,None,728.7728999,None,4,1.9338502,728.7728999,None,730.768168,None,731.2775178,None,731.2775178,None,f,0.2222542,731.2775178,None,,,color13a,1,2020_Feb_06_1601,ProdSingRedo,3.2.4,60.03723509
,,,,67,0,67,0,,,,,,,,,,,,,,,,,,,,,,,,733.6319812,None,,,,,,,,,,,,,,,,,committee,silent,red,67,87,62,732.0869024,None,732.0869024,None,1,0.7107566,732.0869024,None,732.8684369,None,733.3779429,None,733.3779429,None,n,0.2004865,733.3779429,None,,,color13a,1,2020_Feb_06_1601,ProdSingRedo,3.2.4,60.03723509
,,,,68,0,68,0,,,,,,,,,,,,,,,,,,,,,,,,735.9975939,None,,,,,,,,,,,,,,,,,short,sing,yellow,68,18,285,734.1677252,None,734.1677252,None,1,1.132381,734.1677252,None,735.3653522,None,735.8751163,None,735.8751163,None,n,0.0708447,735.8751163,None,,,color13a,1,2020_Feb_06_1601,ProdSingRedo,3.2.4,60.03723509
,,,,69,0,69,0,,,,,,,,,,,,,,,,,,,,,,,,737.7836093,None,,,,,,,,,,,,,,,,,height,new_sing,yellow,69,109,152,736.5435435,None,736.5435435,None,1,0.5216939,736.5435435,None,737.1268621,None,737.6611191,None,737.6611191,None,n,0.0662788,737.6611191,None,,,color13a,1,2020_Feb_06_1601,ProdSingRedo,3.2.4,60.03723509
,,,,70,0,70,0,,,,,,,,,,,,,,,,,,,,,,,,739.694422,None,,,,,,,,,,,,,,,,,gesture,new_sing,yellow,70,97,137,738.319396,None,738.319396,None,1,0.4750168,738.319396,None,738.859293,None,739.3717999,None,739.3717999,None,n,0.2755487,739.3717999,None,,,color13a,1,2020_Feb_06_1601,ProdSingRedo,3.2.4,60.03723509
,,,,71,0,71,0,,,,,,,,,,,,,,,,,,,,,,,,741.9787867,None,,,,,,,,,,,,,,,,,whole,aloud,blue,71,39,355,740.2396072,None,740.2396072,None,1,0.7198017,740.2396072,None,741.0257798,None,741.5588167,None,741.5588167,None,n,0.374022,741.5588167,None,,,color13a,1,2020_Feb_06_1601,ProdSingRedo,3.2.4,60.03723509
,,,,72,0,72,0,,,,,,,,,,,,,,,,,,,,,,,,744.7548025,None,,,,,,,,,,,,,,,,,citizen,aloud,blue,72,55,50,742.5244185,None,742.5244185,None,4,1.4938393,742.5244185,None,744.0942769,None,744.6119837,None,744.6119837,None,f,0.0941287,744.6119837,None,,,color13a,1,2020_Feb_06_1601,ProdSingRedo,3.2.4,60.03723509
,,,,73,0,73,0,,,,,,,,,,,,,,,,,,,,,,,,746.5778976,None,,,,,,,,,,,,,,,,,husband,new_aloud,blue,73,146,156,745.2818415,None,745.2818415,None,1,0.4651353,745.2818415,None,745.8106342,None,746.3224344,None,746.3224344,None,n,0.2074498,746.3224344,None,,,color13a,1,2020_Feb_06_1601,ProdSingRedo,3.2.4,60.03723509
,,,,74,0,74,0,,,,,,,,,,,,,,,,,,,,,,,,748.277884,None,,,,,,,,,,,,,,,,,trial,new_aloud,blue,74,137,341,747.1220035,None,747.1220035,None,1,0.4945164,747.1220035,None,747.690085,None,748.2102327,None,748.2102327,None,n,0.0206688,748.2102327,None,,,color13a,1,2020_Feb_06_1601,ProdSingRedo,3.2.4,60.03723509
,,,,75,0,75,0,,,,,,,,,,,,,,,,,,,,,,,,751.4460909,None,,,,,,,,,,,,,,,,,sleep,sing,yellow,75,23,290,748.8176972,None,748.8176972,None,1,1.4967613,748.8176972,None,750.381575,None,750.9052342,None,750.9052342,None,n,0.4875424,750.9052342,None,,,color13a,1,2020_Feb_06_1601,ProdSingRedo,3.2.4,60.03723509
,,,,76,0,76,0,,,,,,,,,,,,,,,,,,,,,,,,754.7022707,None,,,,,,,,,,,,,,,,,society,aloud,blue,76,34,293,751.9890848,None,751.9890848,None,6,1.954526,751.9890848,None,754.0097645,None,754.541529,None,754.541529,None,f,0.1146044,754.541529,None,,,color13a,1,2020_Feb_06_1601,ProdSingRedo,3.2.4,60.03723509
,,,,77,0,77,0,,,,,,,,,,,,,,,,,,,,,,,,756.5807567,None,,,,,,,,,,,,,,,,,signal,silent,red,77,86,287,755.2465818,None,755.2465818,None,1,0.4998917,755.2465818,None,755.8099985,None,756.3398239,None,756.3398239,None,n,0.1836245,756.3398239,None,,,color13a,1,2020_Feb_06_1601,ProdSingRedo,3.2.4,60.03723509
,,,,78,0,78,0,,,,,,,,,,,,,,,,,,,,,,,,758.446235,None,,,,,,,,,,,,,,,,,speech,new_sing,yellow,78,112,298,757.1192961,None,757.1192961,None,1,0.5786081,757.1192961,None,757.7692565,None,758.2908373,None,758.2908373,None,n,0.0980671,758.2908373,None,,,color13a,1,2020_Feb_06_1601,ProdSingRedo,3.2.4,60.03723509
,,,,79,0,79,0,,,,,,,,,,,,,,,,,,,,,,,,760.2978006,None,,,,,,,,,,,,,,,,,brilliant,aloud,blue,79,57,30,758.9858317,None,758.9858317,None,1,0.5640872,758.9858317,None,759.6199366,None,760.1411639,None,760.1411639,None,n,0.107974,760.1411639,None,,,color13a,1,2020_Feb_06_1601,ProdSingRedo,3.2.4,60.03723509
,,,,80,0,80,0,,,,,,,,,,,,,,,,,,,,,,,,762.1643791,None,,,,,,,,,,,,,,,,,broke,new_sing,yellow,80,101,32,760.8342556,None,760.8342556,None,1,0.5887237,760.8342556,None,761.5001304,None,762.0276553,None,762.0276553,None,n,0.0867539,762.0276553,None,,,color13a,1,2020_Feb_06_1601,ProdSingRedo,3.2.4,60.03723509
,,,,81,0,81,0,,,,,,,,,,,,,,,,,,,,,,,,765.4701575,None,,,,,,,,,,,,,,,,,individual,aloud,blue,81,38,160,762.6939981,None,762.6939981,None,4,1.7955886,762.6939981,None,764.5454031,None,765.0676781,None,765.0676781,None,f,0.357917,765.0676781,None,,,color13a,1,2020_Feb_06_1601,ProdSingRedo,3.2.4,60.03723509
,,,,82,0,82,0,,,,,,,,,,,,,,,,,,,,,,,,767.4612739,None,,,,,,,,,,,,,,,,,device,silent,red,82,75,93,766.0094017,None,766.0094017,None,1,0.5420017,766.0094017,None,766.6244426,None,767.149215,None,767.149215,None,n,0.2552572,767.149215,None,,,color13a,1,2020_Feb_06_1601,ProdSingRedo,3.2.4,60.03723509
,,,,83,0,83,0,,,,,,,,,,,,,,,,,,,,,,,,769.2723446,None,,,,,,,,,,,,,,,,,under,silent,red,83,83,343,767.9903925,None,767.9903925,None,1,0.4523328,767.9903925,None,768.4992797,None,769.0148601,None,769.0148601,None,n,0.2107128,769.0148601,None,,,color13a,1,2020_Feb_06_1601,ProdSingRedo,3.2.4,60.03723509
,,,,84,0,84,0,,,,,,,,,,,,,,,,,,,,,,,,771.1081135,None,,,,,,,,,,,,,,,,,store,new_silent,red,84,173,305,769.8135053,None,769.8135053,None,1,0.6139968,769.8135053,None,770.4902229,None,771.013294,None,771.013294,None,n,0.0482072,771.013294,None,,,color13a,1,2020_Feb_06_1601,ProdSingRedo,3.2.4,60.03723509
,,,,85,0,85,0,,,,,,,,,,,,,,,,,,,,,,,,772.868769,None,,,,,,,,,,,,,,,,,comedy,silent,red,85,61,58,771.6419403,None,771.6419403,None,1,0.5580072,771.6419403,None,772.2733045,None,772.7982004,None,772.7982004,None,n,0.0255156,772.7982004,None,,,color13a,1,2020_Feb_06_1601,ProdSingRedo,3.2.4,60.03723509
,,,,86,0,86,0,,,,,,,,,,,,,,,,,,,,,,,,774.726725,None,,,,,,,,,,,,,,,,,bicycle,new_sing,yellow,86,110,21,773.4071588,None,773.4071588,None,1,0.5612824,773.4071588,None,774.0399777,None,774.5679823,None,774.5679823,None,n,0.1058544,774.5679823,None,,,color13a,1,2020_Feb_06_1601,ProdSingRedo,3.2.4,60.03723509
,,,,87,0,87,0,,,,,,,,,,,,,,,,,,,,,,,,777.8082217,None,,,,,,,,,,,,,,,,,passage,new_aloud,blue,87,130,212,775.2635253,None,775.2635253,None,1,1.1577632,775.2635253,None,776.4839427,None,777.0185386,None,777.0185386,None,n,0.7410872,777.0185386,None,,,color13a,1,2020_Feb_06_1601,ProdSingRedo,3.2.4,60.03723509
,,,,88,0,88,0,,,,,,,,,,,,,,,,,,,,,,,,779.6742579,None,,,,,,,,,,,,,,,,,harmony,new_sing,yellow,88,103,148,778.3462063,None,778.3462063,None,1,0.5523124,778.3462063,None,778.9779713,None,779.5005487,None,779.5005487,None,n,0.1131492,779.5005487,None,,,color13a,1,2020_Feb_06_1601,ProdSingRedo,3.2.4,60.03723509
,,,,89,0,89,0,,,,,,,,,,,,,,,,,,,,,,,,783.6305593,None,,,,,,,,,,,,,,,,,murder,aloud,blue,89,35,195,780.201066,None,780.201066,None,6,2.5969272,780.201066,None,782.8663651,None,783.390362,None,783.390362,None,f,0.1966463,783.390362,None,,,color13a,1,2020_Feb_06_1601,ProdSingRedo,3.2.4,60.03723509
,,,,90,0,90,0,,,,,,,,,,,,,,,,,,,,,,,,785.9670102,None,,,,,,,,,,,,,,,,,suspect,new_sing,yellow,90,94,318,784.1769399,None,784.1769399,None,1,0.4607604,784.1769399,None,784.7004679,None,785.2262185,None,785.2262185,None,n,0.6841412,785.2262185,None,,,color13a,1,2020_Feb_06_1601,ProdSingRedo,3.2.4,60.03723509
,,,,91,0,91,0,,,,,,,,,,,,,,,,,,,,,,,,788.078652,None,,,,,,,,,,,,,,,,,escape,new_sing,yellow,91,93,118,786.4988967,None,786.4988967,None,1,0.5473396,786.4988967,None,787.1121484,None,787.6219648,None,787.6219648,None,n,0.4165179,787.6219648,None,,,color13a,1,2020_Feb_06_1601,ProdSingRedo,3.2.4,60.03723509
,,,,92,0,92,0,,,,,,,,,,,,,,,,,,,,,,,,789.965551,None,,,,,,,,,,,,,,,,,route,new_aloud,blue,92,129,267,788.6209451,None,788.6209451,None,1,0.5277701,788.6209451,None,789.2251955,None,789.7390818,None,789.7390818,None,n,0.1811229,789.7390818,None,,,color13a,1,2020_Feb_06_1601,ProdSingRedo,3.2.4,60.03723509
,,,,93,0,93,0,,,,,,,,,,,,,,,,,,,,,,,,792.0962748,None,,,,,,,,,,,,,,,,,series,new_silent,red,93,167,279,790.5027972,None,790.5027972,None,1,0.7800181,790.5027972,None,791.3504899,None,791.8727721,None,791.8727721,None,n,0.1683716,791.8727721,None,,,color13a,1,2020_Feb_06_1601,ProdSingRedo,3.2.4,60.03723509
,,,,94,0,94,0,,,,,,,,,,,,,,,,,,,,,,,,794.3281105,None,,,,,,,,,,,,,,,,,tragedy,new_silent,red,94,172,335,792.6406325,None,792.6406325,None,1,0.8754855,792.6406325,None,793.5889589,None,794.1113098,None,794.1113098,None,n,0.162016,794.1113098,None,,,color13a,1,2020_Feb_06_1601,ProdSingRedo,3.2.4,60.03723509
,,,,95,0,95,0,,,,,,,,,,,,,,,,,,,,,,,,796.4829281,None,,,,,,,,,,,,,,,,,owner,new_aloud,blue,95,124,208,794.8733325,None,794.8733325,None,1,0.712196,794.8733325,None,795.6558138,None,796.1755123,None,796.1755123,None,n,0.2473401,796.1755123,None,,,color13a,1,2020_Feb_06_1601,ProdSingRedo,3.2.4,60.03723509
,,,,96,0,96,0,,,,,,,,,,,,,,,,,,,,,,,,798.5591307,None,,,,,,,,,,,,,,,,,block,silent,red,96,72,25,797.020466,None,797.020466,None,1,0.7173518,797.020466,None,797.81069,None,798.3404751,None,798.3404751,None,n,0.1642455,798.3404751,None,,,color13a,1,2020_Feb_06_1601,ProdSingRedo,3.2.4,60.03723509
,,,,97,0,97,0,,,,,,,,,,,,,,,,,,,,,,,,800.9150501,None,,,,,,,,,,,,,,,,,subject,new_sing,yellow,97,116,312,799.0993936,None,799.0993936,None,1,0.9898708,799.0993936,None,800.1508616,None,800.6701372,None,800.6701372,None,n,0.1973713,800.6701372,None,,,color13a,1,2020_Feb_06_1601,ProdSingRedo,3.2.4,60.03723509
,,,,98,0,98,0,,,,,,,,,,,,,,,,,,,,,,,,803.5585694,None,,,,,,,,,,,,,,,,,native,sing,yellow,98,9,199,801.4423524,None,801.4423524,None,1,1.0060859,801.4423524,None,802.5123883,None,803.0368947,None,803.0368947,None,n,0.4665162,803.0368947,None,,,color13a,1,2020_Feb_06_1601,ProdSingRedo,3.2.4,60.03723509
,,,,99,0,99,0,,,,,,,,,,,,,,,,,,,,,,,,806.4183345,None,,,,,,,,,,,,,,,,,light,silent,red,99,74,171,804.0966235,None,804.0966235,None,6,1.5448657,804.0966235,None,805.7050678,None,806.2148878,None,806.2148878,None,f,0.1556514,806.2148878,None,,,color13a,1,2020_Feb_06_1601,ProdSingRedo,3.2.4,60.03723509
,,,,100,0,100,0,,,,,,,,,,,,,,,,,,,,,,,,808.312914,None,,,,,,,,,,,,,,,,,split,aloud,blue,100,36,299,806.959856,None,806.959856,None,1,0.5576874,806.959856,None,807.5885593,None,808.1199414,None,808.1199414,None,n,0.1343747,808.1199414,None,,,color13a,1,2020_Feb_06_1601,ProdSingRedo,3.2.4,60.03723509
,,,,101,0,101,0,,,,,,,,,,,,,,,,,,,,,,,,810.6108803,None,,,,,,,,,,,,,,,,,travel,sing,yellow,101,11,338,808.8484458,None,808.8484458,None,1,0.9731403,808.8484458,None,809.8761804,None,810.399451,None,810.399451,None,n,0.153119,810.399451,None,,,color13a,1,2020_Feb_06_1601,ProdSingRedo,3.2.4,60.03723509
,,,,102,0,102,0,,,,,,,,,,,,,,,,,,,,,,,,812.6849963,None,,,,,,,,,,,,,,,,,shock,new_sing,yellow,102,108,284,811.1490527,None,811.1490527,None,1,0.6397455,811.1490527,None,811.8532563,None,812.3640905,None,812.3640905,None,n,0.2883871,812.3640905,None,,,color13a,1,2020_Feb_06_1601,ProdSingRedo,3.2.4,60.03723509
,,,,103,0,103,0,,,,,,,,,,,,,,,,,,,,,,,,815.0897717,None,,,,,,,,,,,,,,,,,still,new_sing,yellow,103,102,304,813.2070185,None,813.2070185,None,1,1.0155121,813.2070185,None,814.2590301,None,814.7624744,None,814.7624744,None,n,0.2927799,814.7624744,None,,,color13a,1,2020_Feb_06_1601,ProdSingRedo,3.2.4,60.03723509
,,,,104,0,104,0,,,,,,,,,,,,,,,,,,,,,,,,817.0333364,None,,,,,,,,,,,,,,,,,quarter,new_silent,red,104,155,246,815.6065017,None,815.6065017,None,1,0.7364684,815.6065017,None,816.3763934,None,816.881286,None,816.881286,None,n,0.1160694,816.881286,None,,,color13a,1,2020_Feb_06_1601,ProdSingRedo,3.2.4,60.03723509
,,,,105,0,105,0,,,,,,,,,,,,,,,,,,,,,,,,820.2855355,None,,,,,,,,,,,,,,,,,crowd,aloud,blue,105,49,81,817.5532021,None,817.5532021,None,3,1.9340562,817.5532021,None,819.5545946,None,820.0787046,None,820.0787046,None,n,0.1521732,820.0787046,None,,,color13a,1,2020_Feb_06_1601,ProdSingRedo,3.2.4,60.03723509
,,,,106,0,106,0,,,,,,,,,,,,,,,,,,,,,,,,822.3314277,None,,,,,,,,,,,,,,,,,report,sing,yellow,106,12,259,820.8218749,None,820.8218749,None,1,0.7482936,820.8218749,None,821.6345931,None,822.1421019,None,822.1421019,None,n,0.1349467,822.1421019,None,,,color13a,1,2020_Feb_06_1601,ProdSingRedo,3.2.4,60.03723509
,,,,107,0,107,0,,,,,,,,,,,,,,,,,,,,,,,,824.4227025,None,,,,,,,,,,,,,,,,,guide,silent,red,107,88,147,822.8829791,None,822.8829791,None,1,0.7133084,822.8829791,None,823.6749022,None,824.1971223,None,824.1971223,None,n,0.1698646,824.1971223,None,,,color13a,1,2020_Feb_06_1601,ProdSingRedo,3.2.4,60.03723509
,,,,108,0,108,0,,,,,,,,,,,,,,,,,,,,,,,,826.5016053,None,,,,,,,,,,,,,,,,,payment,silent,red,108,66,215,824.9608814,None,824.9608814,None,1,0.6589282,824.9608814,None,825.6828926,None,826.2105284,None,826.2105284,None,n,0.2464943,826.2105284,None,,,color13a,1,2020_Feb_06_1601,ProdSingRedo,3.2.4,60.03723509
,,,,109,0,109,0,,,,,,,,,,,,,,,,,,,,,,,,829.8362651,None,,,,,,,,,,,,,,,,,voice,silent,red,109,76,348,827.0304058,None,827.0304058,None,6,1.7607297,827.0304058,None,828.861573,None,829.3934324,None,829.3934324,None,f,0.3860655,829.3934324,None,,,color13a,1,2020_Feb_06_1601,ProdSingRedo,3.2.4,60.03723509
,,,,110,0,110,0,,,,,,,,,,,,,,,,,,,,,,,,831.6961967,None,,,,,,,,,,,,,,,,,ground,silent,red,110,82,142,830.3744278,None,830.3744278,None,1,0.6548818,830.3744278,None,831.1059006,None,831.6251953,None,831.6251953,None,n,0.0213075,831.6251953,None,,,color13a,1,2020_Feb_06_1601,ProdSingRedo,3.2.4,60.03723509
,,,,111,0,111,0,,,,,,,,,,,,,,,,,,,,,,,,834.268293,None,,,,,,,,,,,,,,,,,science,sing,yellow,111,27,275,832.2409813,None,832.2409813,None,1,1.3440236,832.2409813,None,833.637393,None,834.1629937,None,834.1629937,None,n,0.0440041,834.1629937,None,,,color13a,1,2020_Feb_06_1601,ProdSingRedo,3.2.4,60.03723509
,,,,112,0,112,0,,,,,,,,,,,,,,,,,,,,,,,,840.5761917,None,,,,,,,,,,,,,,,,,present,sing,yellow,112,16,231,834.8008871,None,834.8008871,None,6,1.8291491,834.8008871,None,836.6943761,None,837.2045197,None,837.2045197,None,f,3.3294624,837.2045197,None,,,color13a,1,2020_Feb_06_1601,ProdSingRedo,3.2.4,60.03723509
,,,,113,0,113,0,,,,,,,,,,,,,,,,,,,,,,,,842.8834726,None,,,,,,,,,,,,,,,,,nation,silent,red,113,85,198,841.1102532,None,841.1102532,None,1,0.7833811,841.1102532,None,841.932176,None,842.4622143,None,842.4622143,None,n,0.3714127,842.4622143,None,,,color13a,1,2020_Feb_06_1601,ProdSingRedo,3.2.4,60.03723509
,,,,114,0,114,0,,,,,,,,,,,,,,,,,,,,,,,,845.113902,None,,,,,,,,,,,,,,,,,fight,sing,yellow,114,1,127,843.4207585,None,843.4207585,None,1,0.9358023,843.4207585,None,844.4328047,None,844.9558811,None,844.9558811,None,n,0.1096514,844.9558811,None,,,color13a,1,2020_Feb_06_1601,ProdSingRedo,3.2.4,60.03723509
,,,,115,0,115,0,,,,,,,,,,,,,,,,,,,,,,,,847.8752812,None,,,,,,,,,,,,,,,,,appeal,new_aloud,blue,115,149,9,845.6472561,None,845.6472561,None,1,1.1442506,845.6472561,None,846.8627022,None,847.3852317,None,847.3852317,None,n,0.44254,847.3852317,None,,,color13a,1,2020_Feb_06_1601,ProdSingRedo,3.2.4,60.03723509
,,,,116,0,116,0,,,,,,,,,,,,,,,,,,,,,,,,849.8424787,None,,,,,,,,,,,,,,,,,candidate,new_sing,yellow,116,92,39,848.4158247,None,848.4158247,None,1,0.6026431,848.4158247,None,849.0961042,None,849.6211534,None,849.6211534,None,n,0.1681552,849.6211534,None,,,color13a,1,2020_Feb_06_1601,ProdSingRedo,3.2.4,60.03723509
,,,,117,0,117,0,,,,,,,,,,,,,,,,,,,,,,,,852.054409,None,,,,,,,,,,,,,,,,,clear,sing,yellow,117,15,52,850.3778335,None,850.3778335,None,1,0.9827646,850.3778335,None,851.3953301,None,851.9000895,None,851.9000895,None,n,0.1201435,851.9000895,None,,,color13a,1,2020_Feb_06_1601,ProdSingRedo,3.2.4,60.03723509
,,,,118,0,118,0,,,,,,,,,,,,,,,,,,,,,,,,853.9358153,None,,,,,,,,,,,,,,,,,pancakes,new_silent,red,118,177,210,852.6008269,None,852.6008269,None,1,0.6271839,852.6008269,None,853.3004416,None,853.8185544,None,853.8185544,None,n,0.0708977,853.8185544,None,,,color13a,1,2020_Feb_06_1601,ProdSingRedo,3.2.4,60.03723509
,,,,119,0,119,0,,,,,,,,,,,,,,,,,,,,,,,,856.7835631,None,,,,,,,,,,,,,,,,,distance,sing,yellow,119,29,100,854.4780791,None,854.4780791,None,3,1.6653001,854.4780791,None,856.2048965,None,856.7149208,None,856.7149208,None,f,0.013186,856.7149208,None,,,color13a,1,2020_Feb_06_1601,ProdSingRedo,3.2.4,60.03723509
,,,,120,0,120,0,,,,,,,,,,,,,,,,,,,,,,,,858.8524179,None,,,,,,,,,,,,,,,,,judge,sing,yellow,120,10,166,857.3290829,None,857.3290829,None,1,0.4731675,857.3290829,None,857.8683527,None,858.3955369,None,858.3955369,None,n,0.4126465,858.3955369,None,,,color13a,1,2020_Feb_06_1601,ProdSingRedo,3.2.4,60.03723509
,,,,121,0,121,0,,,,,,,,,,,,,,,,,,,,,,,,860.524554,None,,,,,,,,,,,,,,,,,degree,new_silent,red,121,175,89,859.3917314,None,859.3917314,None,1,0.4309586,859.3917314,None,859.8823062,None,860.41451,None,860.41451,None,n,0.0494861,860.41451,None,,,color13a,1,2020_Feb_06_1601,ProdSingRedo,3.2.4,60.03723509
,,,,122,0,122,0,,,,,,,,,,,,,,,,,,,,,,,,862.3748564,None,,,,,,,,,,,,,,,,,problem,aloud,blue,122,56,238,861.0529256,None,861.0529256,None,1,0.5404388,861.0529256,None,861.6482177,None,862.1680885,None,862.1680885,None,n,0.1587177,862.1680885,None,,,color13a,1,2020_Feb_06_1601,ProdSingRedo,3.2.4,60.03723509
,,,,123,0,123,0,,,,,,,,,,,,,,,,,,,,,,,,864.6905957,None,,,,,,,,,,,,,,,,,weather,sing,yellow,123,21,352,862.9179439,None,862.9179439,None,1,0.5761529,862.9179439,None,863.5779652,None,864.1027163,None,864.1027163,None,n,0.5336034,864.1027163,None,,,color13a,1,2020_Feb_06_1601,ProdSingRedo,3.2.4,60.03723509
,,,,124,0,124,0,,,,,,,,,,,,,,,,,,,,,,,,866.8274632,None,,,,,,,,,,,,,,,,,exchange,aloud,blue,124,51,121,865.2210299,None,865.2210299,None,1,0.7940804,865.2210299,None,866.0829674,None,866.6005074,None,866.6005074,None,n,0.1712913,866.6005074,None,,,color13a,1,2020_Feb_06_1601,ProdSingRedo,3.2.4,60.03723509
,,,,125,0,125,0,,,,,,,,,,,,,,,,,,,,,,,,869.9386726,None,,,,,,,,,,,,,,,,,evidence,sing,yellow,125,24,120,867.3782465,None,867.3782465,None,6,1.5917822,867.3782465,None,869.0334948,None,869.5661978,None,869.5661978,None,f,0.321521,869.5661978,None,,,color13a,1,2020_Feb_06_1601,ProdSingRedo,3.2.4,60.03723509
,,,,126,0,126,0,,,,,,,,,,,,,,,,,,,,,,,,874.145629,None,,,,,,,,,,,,,,,,,drove,aloud,blue,126,52,106,870.475777,None,870.475777,None,1,0.7535761,870.475777,None,871.307412,None,871.8214914,None,871.8214914,None,n,2.2768725,871.8214914,None,,,color13a,1,2020_Feb_06_1601,ProdSingRedo,3.2.4,60.03723509
,,,,127,0,127,0,,,,,,,,,,,,,,,,,,,,,,,,876.1039595,None,,,,,,,,,,,,,,,,,motion,sing,yellow,127,26,194,874.689994,None,874.689994,None,1,0.6012869,874.689994,None,875.3743438,None,875.8951767,None,875.8951767,None,n,0.1589701,875.8951767,None,,,color13a,1,2020_Feb_06_1601,ProdSingRedo,3.2.4,60.03723509
,,,,128,0,128,0,,,,,,,,,,,,,,,,,,,,,,,,878.028543,None,,,,,,,,,,,,,,,,,employment,new_silent,red,128,176,111,876.6436792,None,876.6436792,None,1,0.7132368,876.6436792,None,877.4323443,None,877.9606584,None,877.9606584,None,n,0.0246776,877.9606584,None,,,color13a,1,2020_Feb_06_1601,ProdSingRedo,3.2.4,60.03723509
,,,,129,0,129,0,,,,,,,,,,,,,,,,,,,,,,,,880.8479414,None,,,,,,,,,,,,,,,,,dozen,aloud,blue,129,46,102,878.5662849,None,878.5662849,None,6,1.447836,878.5662849,None,880.0732529,None,880.6090032,None,880.6090032,None,f,0.1865572,880.6090032,None,,,color13a,1,2020_Feb_06_1601,ProdSingRedo,3.2.4,60.03723509
,,,,130,0,130,0,,,,,,,,,,,,,,,,,,,,,,,,884.545306,None,,,,,,,,,,,,,,,,,silence,new_aloud,blue,130,126,288,881.3850616,None,881.3850616,None,1,0.9198023,881.3850616,None,882.3813563,None,882.9057825,None,882.9057825,None,f,1.5941991,882.9057825,None,,,color13a,1,2020_Feb_06_1601,ProdSingRedo,3.2.4,60.03723509
,,,,131,0,131,0,,,,,,,,,,,,,,,,,,,,,,,,886.8775546,None,,,,,,,,,,,,,,,,,majority,new_silent,red,131,164,176,885.0811784,None,885.0811784,None,1,1.0811286,885.0811784,None,886.2206765,None,886.7361311,None,886.7361311,None,n,0.0973093,886.7361311,None,,,color13a,1,2020_Feb_06_1601,ProdSingRedo,3.2.4,60.03723509
,,,,132,0,132,0,,,,,,,,,,,,,,,,,,,,,,,,888.9243755,None,,,,,,,,,,,,,,,,,curve,silent,red,132,70,82,887.4157277,None,887.4157277,None,1,0.837184,887.4157277,None,888.3279308,None,888.8525208,None,888.8525208,None,n,0.0243593,888.8525208,None,,,color13a,1,2020_Feb_06_1601,ProdSingRedo,3.2.4,60.03723509
,,,,133,0,133,0,,,,,,,,,,,,,,,,,,,,,,,,891.7756937,None,,,,,,,,,,,,,,,,,worker,new_silent,red,133,178,356,889.4629291,None,889.4629291,None,1,1.0974184,889.4629291,None,890.6283563,None,891.158234,None,891.158234,None,n,0.5708392,891.158234,None,,,color13a,1,2020_Feb_06_1601,ProdSingRedo,3.2.4,60.03723509
,,,,134,0,134,0,,,,,,,,,,,,,,,,,,,,,,,,895.8197375,None,,,,,,,,,,,,,,,,,color,silent,red,134,71,56,892.3152282,None,892.3152282,None,2,2.6761155,892.3152282,None,895.0473657,None,895.5699012,None,895.5699012,None,n,0.1959763,895.5699012,None,,,color13a,1,2020_Feb_06_1601,ProdSingRedo,3.2.4,60.03723509
,,,,135,0,135,0,,,,,,,,,,,,,,,,,,,,,,,,898.7409161,None,,,,,,,,,,,,,,,,,permit,new_silent,red,135,153,218,896.3628985,None,896.3628985,None,1,1.3011714,896.3628985,None,897.7262449,None,898.2498649,None,898.2498649,None,n,0.440786,898.2498649,None,,,color13a,1,2020_Feb_06_1601,ProdSingRedo,3.2.4,60.03723509
,,,,136,0,136,0,,,,,,,,,,,,,,,,,,,,,,,,901.1360168,None,,,,,,,,,,,,,,,,,column,sing,yellow,136,0,57,899.2706478,None,899.2706478,None,1,1.0950476,899.2706478,None,900.4343844,None,900.9455961,None,900.9455961,None,n,0.1437758,900.9455961,None,,,color13a,1,2020_Feb_06_1601,ProdSingRedo,3.2.4,60.03723509
,,,,137,0,137,0,,,,,,,,,,,,,,,,,,,,,,,,903.0424398,None,,,,,,,,,,,,,,,,,running,new_aloud,blue,137,125,268,901.6701755,None,901.6701755,None,1,0.62628,901.6701755,None,902.3681717,None,902.8839152,None,902.8839152,None,n,0.1062211,902.8839152,None,,,color13a,1,2020_Feb_06_1601,ProdSingRedo,3.2.4,60.03723509
,,,,138,0,138,0,,,,,,,,,,,,,,,,,,,,,,,,904.875364,None,,,,,,,,,,,,,,,,,tennis,new_aloud,blue,138,128,323,903.5798265,None,903.5798265,None,1,0.5714731,903.5798265,None,904.2309535,None,904.7506148,None,904.7506148,None,n,0.0728222,904.7506148,None,,,color13a,1,2020_Feb_06_1601,ProdSingRedo,3.2.4,60.03723509
,,,,139,0,139,0,,,,,,,,,,,,,,,,,,,,,,,,906.8566189,None,,,,,,,,,,,,,,,,,cousin,new_silent,red,139,170,76,905.4128659,None,905.4128659,None,1,0.6613449,905.4128659,None,906.1456425,None,906.6663601,None,906.6663601,None,n,0.134875,906.6663601,None,,,color13a,1,2020_Feb_06_1601,ProdSingRedo,3.2.4,60.03723509
,,,,140,0,140,0,,,,,,,,,,,,,,,,,,,,,,,,910.4391356,None,,,,,,,,,,,,,,,,,bright,silent,red,140,62,29,907.3901908,None,907.3901908,None,3,1.897477,907.3901908,None,909.3502842,None,909.8792698,None,909.8792698,None,n,0.5009019,909.8792698,None,,,color13a,1,2020_Feb_06_1601,ProdSingRedo,3.2.4,60.03723509
,,,,141,0,141,0,,,,,,,,,,,,,,,,,,,,,,,,912.3469088,None,,,,,,,,,,,,,,,,,balance,sing,yellow,141,3,17,910.9788815,None,910.9788815,None,1,0.6568728,910.9788815,None,911.6967641,None,912.2280722,None,912.2280722,None,n,0.0798665,912.2280722,None,,,color13a,1,2020_Feb_06_1601,ProdSingRedo,3.2.4,60.03723509
,,,,142,0,142,0,,,,,,,,,,,,,,,,,,,,,,,,914.7548922,None,,,,,,,,,,,,,,,,,growth,new_silent,red,142,169,144,912.8913709,None,912.8913709,None,1,0.5353956,912.8913709,None,913.5096641,None,914.0322882,None,914.0322882,None,n,0.6658395,914.0322882,None,,,color13a,1,2020_Feb_06_1601,ProdSingRedo,3.2.4,60.03723509
,,,,143,0,143,0,,,,,,,,,,,,,,,,,,,,,,,,916.579931,None,,,,,,,,,,,,,,,,,second,aloud,blue,143,43,278,915.2939177,None,915.2939177,None,1,0.5354596,915.2939177,None,915.9085618,None,916.4305359,None,916.4305359,None,n,0.1052556,916.4305359,None,,,color13a,1,2020_Feb_06_1601,ProdSingRedo,3.2.4,60.03723509
,,,,144,0,144,0,,,,,,,,,,,,,,,,,,,,,,,,921.0535237,None,,,,,,,,,,,,,,,,,measure,aloud,blue,144,53,184,917.1238387,None,917.1238387,None,3,1.8398065,917.1238387,None,919.0419198,None,919.5626885,None,919.5626885,None,f,1.4430545,919.5626885,None,,,color13a,1,2020_Feb_06_1601,ProdSingRedo,3.2.4,60.03723509
,,,,145,0,145,0,,,,,,,,,,,,,,,,,,,,,,,,923.276158,None,,,,,,,,,,,,,,,,,attack,silent,red,145,77,13,921.5877677,None,921.5877677,None,1,0.5607425,921.5877677,None,922.2110263,None,922.7206612,None,922.7206612,None,n,0.505259,922.7206612,None,,,color13a,1,2020_Feb_06_1601,ProdSingRedo,3.2.4,60.03723509
,,,,146,0,146,0,,,,,,,,,,,,,,,,,,,,,,,,927.124749,None,,,,,,,,,,,,,,,,,region,new_sing,yellow,146,95,256,923.8093874,None,923.8093874,None,4,2.3464907,923.8093874,None,926.2246212,None,926.7367086,None,926.7367086,None,f,0.337311,926.7367086,None,,,color13a,1,2020_Feb_06_1601,ProdSingRedo,3.2.4,60.03723509
,,,,147,0,147,0,,,,,,,,,,,,,,,,,,,,,,,,928.9582323,None,,,,,,,,,,,,,,,,,bureau,new_sing,yellow,147,91,37,927.6607985,None,927.6607985,None,1,0.5032188,927.6607985,None,928.2249736,None,928.7362028,None,928.7362028,None,n,0.1772099,928.7362028,None,,,color13a,1,2020_Feb_06_1601,ProdSingRedo,3.2.4,60.03723509
,,,,148,0,148,0,,,,,,,,,,,,,,,,,,,,,,,,931.4231147,None,,,,,,,,,,,,,,,,,title,new_sing,yellow,148,107,331,929.4944651,None,929.4944651,None,1,1.1681528,929.4944651,None,930.7230863,None,931.2337347,None,931.2337347,None,n,0.138047,931.2337347,None,,,color13a,1,2020_Feb_06_1601,ProdSingRedo,3.2.4,60.03723509
,,,,149,0,149,0,,,,,,,,,,,,,,,,,,,,,,,,934.2459478,None,,,,,,,,,,,,,,,,,community,sing,yellow,149,20,63,931.9606124,None,931.9606124,None,6,1.4133655,931.9606124,None,933.4388884,None,933.9598527,None,933.9598527,None,f,0.2331765,933.9598527,None,,,color13a,1,2020_Feb_06_1601,ProdSingRedo,3.2.4,60.03723509
,,,,150,0,150,0,,,,,,,,,,,,,,,,,,,,,,,,936.9247716,None,,,,,,,,,,,,,,,,,century,new_sing,yellow,150,115,45,934.7775346,None,934.7775346,None,6,1.2868559,934.7775346,None,936.115099,None,936.6346174,None,936.6346174,None,f,0.2374453,936.6346174,None,,,color13a,1,2020_Feb_06_1601,ProdSingRedo,3.2.4,60.03723509
,,,,151,0,151,0,,,,,,,,,,,,,,,,,,,,,,,,938.8618857,None,,,,,,,,,,,,,,,,,vision,new_sing,yellow,151,113,347,937.4589351,None,937.4589351,None,1,0.4455726,937.4589351,None,937.9457315,None,938.4677894,None,938.4677894,None,n,0.3349368,938.4677894,None,,,color13a,1,2020_Feb_06_1601,ProdSingRedo,3.2.4,60.03723509
,,,,152,0,152,0,,,,,,,,,,,,,,,,,,,,,,,,940.7258717,None,,,,,,,,,,,,,,,,,phrase,aloud,blue,152,47,220,939.4004899,None,939.4004899,None,1,0.6166655,939.4004899,None,940.0985219,None,940.621315,None,940.621315,None,n,0.0527956,940.621315,None,,,color13a,1,2020_Feb_06_1601,ProdSingRedo,3.2.4,60.03723509
,,,,153,0,153,0,,,,,,,,,,,,,,,,,,,,,,,,942.9190058,None,,,,,,,,,,,,,,,,,treatment,new_silent,red,153,150,339,941.2634456,None,941.2634456,None,1,0.7390678,941.2634456,None,942.0768081,None,942.6031082,None,942.6031082,None,n,0.2744368,942.6031082,None,,,color13a,1,2020_Feb_06_1601,ProdSingRedo,3.2.4,60.03723509
,,,,154,0,154,0,,,,,,,,,,,,,,,,,,,,,,,,946.1761812,None,,,,,,,,,,,,,,,,,election,new_aloud,blue,154,122,109,943.4664941,None,943.4664941,None,6,2.0218849,943.4664941,None,945.5654953,None,946.085849,None,946.085849,None,f,0.0296083,946.085849,None,,,color13a,1,2020_Feb_06_1601,ProdSingRedo,3.2.4,60.03723509
,,,,155,0,155,0,,,,,,,,,,,,,,,,,,,,,,,,953.4483312,None,,,,,,,,,,,,,,,,,quiet,new_aloud,blue,155,141,249,946.713202,None,946.713202,None,4,5.8950011,946.713202,None,952.6777733,None,953.1988147,None,953.1988147,None,f,0.217076,953.1988147,None,,,color13a,1,2020_Feb_06_1601,ProdSingRedo,3.2.4,60.03723509
,,,,156,0,156,0,,,,,,,,,,,,,,,,,,,,,,,,957.1353283,None,,,,,,,,,,,,,,,,,symbol,new_sing,yellow,156,98,321,953.9944193,None,953.9944193,None,1,0.5748187,953.9944193,None,954.6273552,None,955.1611323,None,955.1611323,None,n,1.9323318,955.1611323,None,,,color13a,1,2020_Feb_06_1601,ProdSingRedo,3.2.4,60.03723509
,,,,157,0,157,0,,,,,,,,,,,,,,,,,,,,,,,,959.0617948,None,,,,,,,,,,,,,,,,,tough,new_aloud,blue,157,143,333,957.6465604,None,957.6465604,None,1,0.5745295,957.6465604,None,958.2533216,None,958.757988,None,958.757988,None,n,0.2763835,958.757988,None,,,color13a,1,2020_Feb_06_1601,ProdSingRedo,3.2.4,60.03723509
,,,,158,0,158,0,,,,,,,,,,,,,,,,,,,,,,,,964.7612199,None,,,,,,,,,,,,,,,,,crime,new_sing,yellow,158,99,78,959.5822251,None,959.5822251,None,6,1.927913,959.5822251,None,961.5769784,None,962.0890472,None,962.0890472,None,r,2.629112,962.0890472,None,,,color13a,1,2020_Feb_06_1601,ProdSingRedo,3.2.4,60.03723509
,,,,159,0,159,0,,,,,,,,,,,,,,,,,,,,,,,,967.084822,None,,,,,,,,,,,,,,,,,addition,new_aloud,blue,159,133,2,965.3067515,None,965.3067515,None,1,1.0832671,965.3067515,None,966.4731995,None,966.9954427,None,966.9954427,None,n,0.0373474,966.9954427,None,,,color13a,1,2020_Feb_06_1601,ProdSingRedo,3.2.4,60.03723509
,,,,160,0,160,0,,,,,,,,,,,,,,,,,,,,,,,,969.3788021,None,,,,,,,,,,,,,,,,,mayor,silent,red,160,64,183,967.621866,None,967.621866,None,1,0.6901684,967.621866,None,968.3943553,None,968.9106918,None,968.9106918,None,n,0.4136895,968.9106918,None,,,color13a,1,2020_Feb_06_1601,ProdSingRedo,3.2.4,60.03723509
,,,,161,0,161,0,,,,,,,,,,,,,,,,,,,,,,,,972.1096406,None,,,,,,,,,,,,,,,,,patient,new_silent,red,161,165,213,969.9230525,None,969.9230525,None,1,1.4152656,969.9230525,None,971.4200692,None,971.9417608,None,971.9417608,None,n,0.1202199,971.9417608,None,,,color13a,1,2020_Feb_06_1601,ProdSingRedo,3.2.4,60.03723509
,,,,162,0,162,0,,,,,,,,,,,,,,,,,,,,,,,,974.032864,None,,,,,,,,,,,,,,,,,junior,silent,red,162,60,167,972.6540341,None,972.6540341,None,1,0.6515568,972.6540341,None,973.3865838,None,973.9085932,None,973.9085932,None,n,0.0659399,973.9085932,None,,,color13a,1,2020_Feb_06_1601,ProdSingRedo,3.2.4,60.03723509
,,,,163,0,163,0,,,,,,,,,,,,,,,,,,,,,,,,977.4782214,None,,,,,,,,,,,,,,,,,notice,new_sing,yellow,163,96,201,974.5673495,None,974.5673495,None,6,2.0991422,974.5673495,None,976.7241528,None,977.2396843,None,977.2396843,None,f,0.1866449,977.2396843,None,,,color13a,1,2020_Feb_06_1601,ProdSingRedo,3.2.4,60.03723509
,,,,164,0,164,0,,,,,,,,,,,,,,,,,,,,,,,,984.3185357,None,,,,,,,,,,,,,,,,,agency,aloud,blue,164,40,4,978.0098034,None,978.0098034,None,4,5.3155713,978.0098034,None,983.387321,None,983.8971434,None,983.8971434,None,f,0.3798951,983.8971434,None,,,color13a,1,2020_Feb_06_1601,ProdSingRedo,3.2.4,60.03723509
,,,,165,0,165,0,,,,,,,,,,,,,,,,,,,,,,,,987.6390718,None,,,,,,,,,,,,,,,,,agreement,silent,red,165,65,5,984.8628296,None,984.8628296,None,4,1.7839818,984.8628296,None,986.7122576,None,987.2363258,None,987.2363258,None,f,0.3511109,987.2363258,None,,,color13a,1,2020_Feb_06_1601,ProdSingRedo,3.2.4,60.03723509
,,,,166,0,166,0,,,,,,,,,,,,,,,,,,,,,,,,991.899998,None,,,,,,,,,,,,,,,,,front,silent,red,166,73,134,988.1751885,None,988.1751885,None,1,3.0024204,988.1751885,None,991.2343142,None,991.7440496,None,991.7440496,None,n,0.1027453,991.7440496,None,,,color13a,1,2020_Feb_06_1601,ProdSingRedo,3.2.4,60.03723509
,,,,167,0,167,0,,,,,,,,,,,,,,,,,,,,,,,,993.8986111,None,,,,,,,,,,,,,,,,,military,silent,red,167,78,190,992.436896,None,992.436896,None,1,0.6342172,992.436896,None,993.1357535,None,993.6520127,None,993.6520127,None,n,0.2206653,993.6520127,None,,,color13a,1,2020_Feb_06_1601,ProdSingRedo,3.2.4,60.03723509
,,,,168,0,168,0,,,,,,,,,,,,,,,,,,,,,,,,996.8489535,None,,,,,,,,,,,,,,,,,drink,aloud,blue,168,48,105,994.4339429,None,994.4339429,None,6,1.740626,994.4339429,None,996.2284826,None,996.7420161,None,996.7420161,None,f,0.0668246,996.7420161,None,,,color13a,1,2020_Feb_06_1601,ProdSingRedo,3.2.4,60.03723509
,,,,169,0,169,0,,,,,,,,,,,,,,,,,,,,,,,,998.8231707,None,,,,,,,,,,,,,,,,,income,sing,yellow,169,5,159,997.3937899,None,997.3937899,None,1,0.6581569,997.3937899,None,998.1276825,None,998.649156,None,998.649156,None,n,0.1230726,998.649156,None,,,color13a,1,2020_Feb_06_1601,ProdSingRedo,3.2.4,60.03723509
,,,,170,0,170,0,,,,,,,,,,,,,,,,,,,,,,,,1001.100182,None,,,,,,,,,,,,,,,,,surprise,new_silent,red,170,161,317,999.3628858,None,999.3628858,None,1,0.7320775,999.3628858,None,1000.164022,None,1000.694719,None,1000.694719,None,n,0.3489579,1000.694719,None,,,color13a,1,2020_Feb_06_1601,ProdSingRedo,3.2.4,60.03723509
,,,,171,0,171,0,,,,,,,,,,,,,,,,,,,,,,,,1004.316937,None,,,,,,,,,,,,,,,,,figure,aloud,blue,171,32,128,1001.638263,None,1001.638263,None,5,1.7147324,1001.638263,None,1003.418309,None,1003.942236,None,1003.942236,None,f,0.3291765,1003.942236,None,,,color13a,1,2020_Feb_06_1601,ProdSingRedo,3.2.4,60.03723509
,,,,172,0,172,0,,,,,,,,,,,,,,,,,,,,,,,,1007.132583,None,,,,,,,,,,,,,,,,,broad,aloud,blue,172,58,31,1004.85416,None,1004.85416,None,5,1.4885993,1004.85416,None,1006.416203,None,1006.940753,None,1006.940753,None,f,0.1476568,1006.940753,None,,,color13a,1,2020_Feb_06_1601,ProdSingRedo,3.2.4,60.03723509
,,,,173,0,173,0,,,,,,,,,,,,,,,,,,,,,,,,1009.385434,None,,,,,,,,,,,,,,,,,south,new_silent,red,173,160,296,1007.667722,None,1007.667722,None,1,0.5880459,1007.667722,None,1008.327711,None,1008.842288,None,1008.842288,None,n,0.491927,1008.842288,None,,,color13a,1,2020_Feb_06_1601,ProdSingRedo,3.2.4,60.03723509
,,,,174,0,174,0,,,,,,,,,,,,,,,,,,,,,,,,1011.219739,None,,,,,,,,,,,,,,,,,salary,silent,red,174,68,271,1009.924027,None,1009.924027,None,1,0.5100091,1009.924027,None,1010.507192,None,1011.027815,None,1011.027815,None,n,0.1413742,1011.027815,None,,,color13a,1,2020_Feb_06_1601,ProdSingRedo,3.2.4,60.03723509
,,,,175,0,175,0,,,,,,,,,,,,,,,,,,,,,,,,1016.825075,None,,,,,,,,,,,,,,,,,pattern,new_silent,red,175,163,214,1011.757192,None,1011.757192,None,3,3.8842695,1011.757192,None,1015.701873,None,1016.21954,None,1016.21954,None,f,0.5566004,1016.21954,None,,,color13a,1,2020_Feb_06_1601,ProdSingRedo,3.2.4,60.03723509
,,,,176,0,176,0,,,,,,,,,,,,,,,,,,,,,,,,1019.268217,None,,,,,,,,,,,,,,,,,foundation,new_sing,yellow,176,117,132,1017.372183,None,1017.372183,None,1,1.1922542,1017.372183,None,1018.640905,None,1019.151552,None,1019.151552,None,n,0.0704978,1019.151552,None,,,color13a,1,2020_Feb_06_1601,ProdSingRedo,3.2.4,60.03723509
,,,,177,0,177,0,,,,,,,,,,,,,,,,,,,,,,,,1021.008212,None,,,,,,,,,,,,,,,,,drama,aloud,blue,177,44,103,1019.807791,None,1019.807791,None,1,0.5252066,1019.807791,None,1020.381735,None,1020.906393,None,1020.906393,None,n,0.045065,1020.906393,None,,,color13a,1,2020_Feb_06_1601,ProdSingRedo,3.2.4,60.03723509
,,,,178,0,178,0,,,,,,,,,,,,,,,,,,,,,,,,1024.905632,None,,,,,,,,,,,,,,,,,level,new_aloud,blue,178,139,170,1021.547738,None,1021.547738,None,4,2.7306357,1021.547738,None,1024.336966,None,1024.848262,None,1024.848262,None,f,0.0063118,1024.848262,None,,,color13a,1,2020_Feb_06_1601,ProdSingRedo,3.2.4,60.03723509
,,,,179,0,179,0,,,,,,,,,,,,,,,,,,,,,,,,1027.486331,None,,,,,,,,,,,,,,,,,guest,new_silent,red,179,157,146,1025.447378,None,1025.447378,None,1,0.8569275,1025.447378,None,1026.370872,None,1026.87932,None,1026.87932,None,n,0.5684814,1026.87932,None,,,color13a,1,2020_Feb_06_1601,ProdSingRedo,3.2.4,60.03723509
,,,,,,,,,,,,,,,,,,,,,,,,,,,,,,,,,,,,,,,,,,,,,,,,,,,,,,,,,,,,,,,,,,,,,,,,,1027.998886,None,,,,,,
