StudyLoop.thisRepN,StudyLoop.thisTrialN,StudyLoop.thisN,StudyLoop.thisIndex,TestLoop.thisRepN,TestLoop.thisTrialN,TestLoop.thisN,TestLoop.thisIndex,textCondition.started,textCondition.stopped,keyCondition.keys,keyCondition.rt,keyCondition.started,keyCondition.stopped,Condition,stim_colors,color_sing,color_aloud,color_silent,textWelcome.started,textWelcome.stopped,keyWelcome.keys,keyWelcome.rt,keyWelcome.started,keyWelcome.stopped,textAloud.started,textAloud.stopped,textSilent.started,textSilent.stopped,textSing.started,textSing.stopped,textBlank500.started,textBlank500.stopped,study_word,study_type,study_color,study_num,study_word_num,textStudy.started,textStudy.stopped,keyStudy.keys,keyStudy.started,keyStudy.stopped,textTestInstructions.started,textTestInstructions.stopped,key_resp_3.keys,key_resp_3.rt,key_resp_3.started,key_resp_3.stopped,testWord,testType,testColor,testN,test_num,test_word_num,textConf.started,textConf.stopped,textConfScale.started,textConfScale.stopped,keyConf.keys,keyConf.rt,keyConf.started,keyConf.stopped,textTestBlank.started,textTestBlank.stopped,textRKN.started,textRKN.stopped,textRKNScale.started,textRKNScale.stopped,keyRKN.keys,keyRKN.rt,keyRKN.started,keyRKN.stopped,textEnd.started,textEnd.stopped,participant,session,date,expName,psychopyVersion,frameRate,
,,,,,,,,19.659540199674666,None,y,0.8006829000078142,19.659540199674666,None,,,,,,,,,,,,,,,,,,,,,,,,,,,,,,,,,,,,,,,,,,,,,,,,,,,,,,,,,,,,,,color21,001,2021_Nov_08_1729,ProdSingRedo,3.2.3,59.90351947977005,
,,,,,,,,,,,,,,ColoredTest,"['red', 'blue', 'yellow']",red,blue,yellow,20.502582399640232,None,space,260.0141984000802,20.502582399640232,None,,,,,,,,,,,,,,,,,,,,,,,,,,,,,,,,,,,,,,,,,,,,,,,,,,,color21,001,2021_Nov_08_1729,ProdSingRedo,3.2.3,59.90351947977005,
0,0,0,0,,,,,,,,,,,,,,,,,,,,,,20.502582399640232,None,20.502582399640232,None,20.502582399640232,None,283.06467379955575,None,discovery,aloud,blue,35,95,281.0782643998973,None,None,281.0782643998973,None,,,,,,,,,,,,,,,,,,,,,,,,,,,,,,,,,color21,001,2021_Nov_08_1729,ProdSingRedo,3.2.3,59.90351947977005,
1,0,1,0,,,,,,,,,,,,,,,,,,,,,,,,,,,,285.5839350000024,None,theme,silent,yellow,74,326,283.5720438999124,None,None,283.5720438999124,None,,,,,,,,,,,,,,,,,,,,,,,,,,,,,,,,,color21,001,2021_Nov_08_1729,ProdSingRedo,3.2.3,59.90351947977005,
2,0,2,0,,,,,,,,,,,,,,,,,,,,,,,,,,,,288.10313719976693,None,working,silent,yellow,65,357,286.1052421997301,None,None,286.1052421997301,None,,,,,,,,,,,,,,,,,,,,,,,,,,,,,,,,,color21,001,2021_Nov_08_1729,ProdSingRedo,3.2.3,59.90351947977005,
3,0,3,0,,,,,,,,,,,,,,,,,,,,,,,,,,,,290.6223274995573,None,appearance,silent,yellow,87,10,288.62137609999627,None,None,288.62137609999627,None,,,,,,,,,,,,,,,,,,,,,,,,,,,,,,,,,color21,001,2021_Nov_08_1729,ProdSingRedo,3.2.3,59.90351947977005,
4,0,4,0,,,,,,,,,,,,,,,,,,,,,,,,,,,,293.1415961999446,None,household,aloud,blue,59,154,291.14912889990956,None,None,291.14912889990956,None,,,,,,,,,,,,,,,,,,,,,,,,,,,,,,,,,color21,001,2021_Nov_08_1729,ProdSingRedo,3.2.3,59.90351947977005,
5,0,5,0,,,,,,,,,,,,,,,,,,,,,,,,,,,,295.6607053996995,None,tragedy,silent,yellow,71,335,293.65791939990595,None,None,293.65791939990595,None,,,,,,,,,,,,,,,,,,,,,,,,,,,,,,,,,color21,001,2021_Nov_08_1729,ProdSingRedo,3.2.3,59.90351947977005,
6,0,6,0,,,,,,,,,,,,,,,,,,,,,,,,,,,,298.1798624997027,None,growth,silent,yellow,64,144,296.17418339988217,None,None,296.17418339988217,None,,,,,,,,,,,,,,,,,,,,,,,,,,,,,,,,,color21,001,2021_Nov_08_1729,ProdSingRedo,3.2.3,59.90351947977005,
7,0,7,0,,,,,,,,,,,,,,,,,,,,,,,,,,,,300.6990421996452,None,portion,sing,red,10,228,298.6903470996767,None,None,298.6903470996767,None,,,,,,,,,,,,,,,,,,,,,,,,,,,,,,,,,color21,001,2021_Nov_08_1729,ProdSingRedo,3.2.3,59.90351947977005,
8,0,8,0,,,,,,,,,,,,,,,,,,,,,,,,,,,,303.2182702999562,None,skill,sing,red,2,289,301.21377549972385,None,None,301.21377549972385,None,,,,,,,,,,,,,,,,,,,,,,,,,,,,,,,,,color21,001,2021_Nov_08_1729,ProdSingRedo,3.2.3,59.90351947977005,
9,0,9,0,,,,,,,,,,,,,,,,,,,,,,,,,,,,305.7374403998256,None,education,sing,red,17,108,303.73259009979665,None,None,303.73259009979665,None,,,,,,,,,,,,,,,,,,,,,,,,,,,,,,,,,color21,001,2021_Nov_08_1729,ProdSingRedo,3.2.3,59.90351947977005,
10,0,10,0,,,,,,,,,,,,,,,,,,,,,,,,,,,,308.25660169962794,None,second,silent,yellow,81,278,306.2475290996954,None,None,306.2475290996954,None,,,,,,,,,,,,,,,,,,,,,,,,,,,,,,,,,color21,001,2021_Nov_08_1729,ProdSingRedo,3.2.3,59.90351947977005,
11,0,11,0,,,,,,,,,,,,,,,,,,,,,,,,,,,,310.7757325996645,None,damage,aloud,blue,43,83,308.7717951997183,None,None,308.7717951997183,None,,,,,,,,,,,,,,,,,,,,,,,,,,,,,,,,,color21,001,2021_Nov_08_1729,ProdSingRedo,3.2.3,59.90351947977005,
12,0,12,0,,,,,,,,,,,,,,,,,,,,,,,,,,,,313.29499969957396,None,course,sing,red,4,74,311.2889187997207,None,None,311.2889187997207,None,,,,,,,,,,,,,,,,,,,,,,,,,,,,,,,,,color21,001,2021_Nov_08_1729,ProdSingRedo,3.2.3,59.90351947977005,
13,0,13,0,,,,,,,,,,,,,,,,,,,,,,,,,,,,315.81417989963666,None,bitter,sing,red,16,23,313.81421159999445,None,None,313.81421159999445,None,,,,,,,,,,,,,,,,,,,,,,,,,,,,,,,,,color21,001,2021_Nov_08_1729,ProdSingRedo,3.2.3,59.90351947977005,
14,0,14,0,,,,,,,,,,,,,,,,,,,,,,,,,,,,318.33340739971027,None,disease,aloud,blue,36,97,316.32552689965814,None,None,316.32552689965814,None,,,,,,,,,,,,,,,,,,,,,,,,,,,,,,,,,color21,001,2021_Nov_08_1729,ProdSingRedo,3.2.3,59.90351947977005,
15,0,15,0,,,,,,,,,,,,,,,,,,,,,,,,,,,,320.8524100999348,None,quantity,aloud,blue,52,245,318.85810169996694,None,None,318.85810169996694,None,,,,,,,,,,,,,,,,,,,,,,,,,,,,,,,,,color21,001,2021_Nov_08_1729,ProdSingRedo,3.2.3,59.90351947977005,
16,0,16,0,,,,,,,,,,,,,,,,,,,,,,,,,,,,323.3550422997214,None,silence,aloud,blue,53,288,321.35265949973837,None,None,321.35265949973837,None,,,,,,,,,,,,,,,,,,,,,,,,,,,,,,,,,color21,001,2021_Nov_08_1729,ProdSingRedo,3.2.3,59.90351947977005,
17,0,17,0,,,,,,,,,,,,,,,,,,,,,,,,,,,,325.87421309994534,None,commercial,silent,yellow,63,61,323.85923609975725,None,None,323.85923609975725,None,,,,,,,,,,,,,,,,,,,,,,,,,,,,,,,,,color21,001,2021_Nov_08_1729,ProdSingRedo,3.2.3,59.90351947977005,
18,0,18,0,,,,,,,,,,,,,,,,,,,,,,,,,,,,328.39342679968104,None,empty,aloud,blue,31,112,326.386921599973,None,None,326.386921599973,None,,,,,,,,,,,,,,,,,,,,,,,,,,,,,,,,,color21,001,2021_Nov_08_1729,ProdSingRedo,3.2.3,59.90351947977005,
19,0,19,0,,,,,,,,,,,,,,,,,,,,,,,,,,,,330.9126670998521,None,dispute,sing,red,6,99,328.90837389975786,None,None,328.90837389975786,None,,,,,,,,,,,,,,,,,,,,,,,,,,,,,,,,,color21,001,2021_Nov_08_1729,ProdSingRedo,3.2.3,59.90351947977005,
20,0,20,0,,,,,,,,,,,,,,,,,,,,,,,,,,,,333.43183229956776,None,private,silent,yellow,88,237,331.42650269996375,None,None,331.42650269996375,None,,,,,,,,,,,,,,,,,,,,,,,,,,,,,,,,,color21,001,2021_Nov_08_1729,ProdSingRedo,3.2.3,59.90351947977005,
21,0,21,0,,,,,,,,,,,,,,,,,,,,,,,,,,,,335.95148689998314,None,finance,silent,yellow,66,129,333.94551329966635,None,None,333.94551329966635,None,,,,,,,,,,,,,,,,,,,,,,,,,,,,,,,,,color21,001,2021_Nov_08_1729,ProdSingRedo,3.2.3,59.90351947977005,
22,0,22,0,,,,,,,,,,,,,,,,,,,,,,,,,,,,338.4701337995939,None,design,aloud,blue,54,91,336.4649230996147,None,None,336.4649230996147,None,,,,,,,,,,,,,,,,,,,,,,,,,,,,,,,,,color21,001,2021_Nov_08_1729,ProdSingRedo,3.2.3,59.90351947977005,
23,0,23,0,,,,,,,,,,,,,,,,,,,,,,,,,,,,340.9893644996919,None,group,sing,red,13,143,339.0014526997693,None,None,339.0014526997693,None,,,,,,,,,,,,,,,,,,,,,,,,,,,,,,,,,color21,001,2021_Nov_08_1729,ProdSingRedo,3.2.3,59.90351947977005,
24,0,24,0,,,,,,,,,,,,,,,,,,,,,,,,,,,,343.5085308998823,None,heavy,aloud,blue,48,151,341.50586669985205,None,None,341.50586669985205,None,,,,,,,,,,,,,,,,,,,,,,,,,,,,,,,,,color21,001,2021_Nov_08_1729,ProdSingRedo,3.2.3,59.90351947977005,
25,0,25,0,,,,,,,,,,,,,,,,,,,,,,,,,,,,346.0277017997578,None,minute,aloud,blue,37,192,344.0216296999715,None,None,344.0216296999715,None,,,,,,,,,,,,,,,,,,,,,,,,,,,,,,,,,color21,001,2021_Nov_08_1729,ProdSingRedo,3.2.3,59.90351947977005,
26,0,26,0,,,,,,,,,,,,,,,,,,,,,,,,,,,,348.54688209993765,None,treatment,aloud,blue,46,339,346.54053329955786,None,None,346.54053329955786,None,,,,,,,,,,,,,,,,,,,,,,,,,,,,,,,,,color21,001,2021_Nov_08_1729,ProdSingRedo,3.2.3,59.90351947977005,
27,0,27,0,,,,,,,,,,,,,,,,,,,,,,,,,,,,351.0660431999713,None,guard,sing,red,8,145,349.0586802996695,None,None,349.0586802996695,None,,,,,,,,,,,,,,,,,,,,,,,,,,,,,,,,,color21,001,2021_Nov_08_1729,ProdSingRedo,3.2.3,59.90351947977005,
28,0,28,0,,,,,,,,,,,,,,,,,,,,,,,,,,,,353.5686319996603,None,judge,silent,yellow,61,166,351.56687789969146,None,None,351.56687789969146,None,,,,,,,,,,,,,,,,,,,,,,,,,,,,,,,,,color21,001,2021_Nov_08_1729,ProdSingRedo,3.2.3,59.90351947977005,
29,0,29,0,,,,,,,,,,,,,,,,,,,,,,,,,,,,356.08777829958126,None,entrance,aloud,blue,34,115,354.0865314998664,None,None,354.0865314998664,None,,,,,,,,,,,,,,,,,,,,,,,,,,,,,,,,,color21,001,2021_Nov_08_1729,ProdSingRedo,3.2.3,59.90351947977005,
30,0,30,0,,,,,,,,,,,,,,,,,,,,,,,,,,,,358.6069756997749,None,community,sing,red,7,63,356.60780869983137,None,None,356.60780869983137,None,,,,,,,,,,,,,,,,,,,,,,,,,,,,,,,,,color21,001,2021_Nov_08_1729,ProdSingRedo,3.2.3,59.90351947977005,
31,0,31,0,,,,,,,,,,,,,,,,,,,,,,,,,,,,361.12613999983296,None,space,sing,red,21,297,359.1227171998471,None,None,359.1227171998471,None,,,,,,,,,,,,,,,,,,,,,,,,,,,,,,,,,color21,001,2021_Nov_08_1729,ProdSingRedo,3.2.3,59.90351947977005,
32,0,32,0,,,,,,,,,,,,,,,,,,,,,,,,,,,,363.6452674996108,None,search,aloud,blue,50,276,361.6401030998677,None,None,361.6401030998677,None,,,,,,,,,,,,,,,,,,,,,,,,,,,,,,,,,color21,001,2021_Nov_08_1729,ProdSingRedo,3.2.3,59.90351947977005,
33,0,33,0,,,,,,,,,,,,,,,,,,,,,,,,,,,,366.16450119996443,None,people,sing,red,25,216,364.1594129996374,None,None,364.1594129996374,None,,,,,,,,,,,,,,,,,,,,,,,,,,,,,,,,,color21,001,2021_Nov_08_1729,ProdSingRedo,3.2.3,59.90351947977005,
34,0,34,0,,,,,,,,,,,,,,,,,,,,,,,,,,,,368.6837233998813,None,broke,aloud,blue,38,32,366.6803846997209,None,None,366.6803846997209,None,,,,,,,,,,,,,,,,,,,,,,,,,,,,,,,,,color21,001,2021_Nov_08_1729,ProdSingRedo,3.2.3,59.90351947977005,
35,0,35,0,,,,,,,,,,,,,,,,,,,,,,,,,,,,371.2028534999117,None,medicine,sing,red,15,186,369.1949142999947,None,None,369.1949142999947,None,,,,,,,,,,,,,,,,,,,,,,,,,,,,,,,,,color21,001,2021_Nov_08_1729,ProdSingRedo,3.2.3,59.90351947977005,
36,0,36,0,,,,,,,,,,,,,,,,,,,,,,,,,,,,373.7220685998909,None,addition,silent,yellow,89,2,371.7160891997628,None,None,371.7160891997628,None,,,,,,,,,,,,,,,,,,,,,,,,,,,,,,,,,color21,001,2021_Nov_08_1729,ProdSingRedo,3.2.3,59.90351947977005,
37,0,37,0,,,,,,,,,,,,,,,,,,,,,,,,,,,,376.2411837996915,None,length,aloud,blue,42,169,374.2386252996512,None,None,374.2386252996512,None,,,,,,,,,,,,,,,,,,,,,,,,,,,,,,,,,color21,001,2021_Nov_08_1729,ProdSingRedo,3.2.3,59.90351947977005,
38,0,38,0,,,,,,,,,,,,,,,,,,,,,,,,,,,,378.76043779961765,None,quiet,aloud,blue,39,249,376.75511409994215,None,None,376.75511409994215,None,,,,,,,,,,,,,,,,,,,,,,,,,,,,,,,,,color21,001,2021_Nov_08_1729,ProdSingRedo,3.2.3,59.90351947977005,
39,0,39,0,,,,,,,,,,,,,,,,,,,,,,,,,,,,381.27922479994595,None,notice,sing,red,12,201,379.2680986998603,None,None,379.2680986998603,None,,,,,,,,,,,,,,,,,,,,,,,,,,,,,,,,,color21,001,2021_Nov_08_1729,ProdSingRedo,3.2.3,59.90351947977005,
40,0,40,0,,,,,,,,,,,,,,,,,,,,,,,,,,,,383.7819122998044,None,attack,sing,red,18,13,381.7797732995823,None,None,381.7797732995823,None,,,,,,,,,,,,,,,,,,,,,,,,,,,,,,,,,color21,001,2021_Nov_08_1729,ProdSingRedo,3.2.3,59.90351947977005,
41,0,41,0,,,,,,,,,,,,,,,,,,,,,,,,,,,,386.30144859990105,None,colonel,sing,red,27,55,384.2961030998267,None,None,384.2961030998267,None,,,,,,,,,,,,,,,,,,,,,,,,,,,,,,,,,color21,001,2021_Nov_08_1729,ProdSingRedo,3.2.3,59.90351947977005,
42,0,42,0,,,,,,,,,,,,,,,,,,,,,,,,,,,,388.820497199893,None,atmosphere,aloud,blue,55,12,386.8149492996745,None,None,386.8149492996745,None,,,,,,,,,,,,,,,,,,,,,,,,,,,,,,,,,color21,001,2021_Nov_08_1729,ProdSingRedo,3.2.3,59.90351947977005,
43,0,43,0,,,,,,,,,,,,,,,,,,,,,,,,,,,,391.3396351998672,None,pretty,aloud,blue,44,233,389.3308588997461,None,None,389.3308588997461,None,,,,,,,,,,,,,,,,,,,,,,,,,,,,,,,,,color21,001,2021_Nov_08_1729,ProdSingRedo,3.2.3,59.90351947977005,
44,0,44,0,,,,,,,,,,,,,,,,,,,,,,,,,,,,393.85882989969105,None,discussion,aloud,blue,33,96,391.85880219982937,None,None,391.85880219982937,None,,,,,,,,,,,,,,,,,,,,,,,,,,,,,,,,,color21,001,2021_Nov_08_1729,ProdSingRedo,3.2.3,59.90351947977005,
45,0,45,0,,,,,,,,,,,,,,,,,,,,,,,,,,,,396.37805249961093,None,thing,silent,yellow,68,328,394.3704615999013,None,None,394.3704615999013,None,,,,,,,,,,,,,,,,,,,,,,,,,,,,,,,,,color21,001,2021_Nov_08_1729,ProdSingRedo,3.2.3,59.90351947977005,
46,0,46,0,,,,,,,,,,,,,,,,,,,,,,,,,,,,398.89724429976195,None,figure,silent,yellow,60,128,396.89766539959237,None,None,396.89766539959237,None,,,,,,,,,,,,,,,,,,,,,,,,,,,,,,,,,color21,001,2021_Nov_08_1729,ProdSingRedo,3.2.3,59.90351947977005,
47,0,47,0,,,,,,,,,,,,,,,,,,,,,,,,,,,,401.4164099995978,None,history,silent,yellow,70,153,399.4134679995477,None,None,399.4134679995477,None,,,,,,,,,,,,,,,,,,,,,,,,,,,,,,,,,color21,001,2021_Nov_08_1729,ProdSingRedo,3.2.3,59.90351947977005,
48,0,48,0,,,,,,,,,,,,,,,,,,,,,,,,,,,,403.9355241996236,None,death,sing,red,1,86,401.9314278997481,None,None,401.9314278997481,None,,,,,,,,,,,,,,,,,,,,,,,,,,,,,,,,,color21,001,2021_Nov_08_1729,ProdSingRedo,3.2.3,59.90351947977005,
49,0,49,0,,,,,,,,,,,,,,,,,,,,,,,,,,,,406.4547905996442,None,provision,aloud,blue,57,243,404.4594675996341,None,None,404.4594675996341,None,,,,,,,,,,,,,,,,,,,,,,,,,,,,,,,,,color21,001,2021_Nov_08_1729,ProdSingRedo,3.2.3,59.90351947977005,
50,0,50,0,,,,,,,,,,,,,,,,,,,,,,,,,,,,408.9739743997343,None,military,aloud,blue,45,190,406.9720840998925,None,None,406.9720840998925,None,,,,,,,,,,,,,,,,,,,,,,,,,,,,,,,,,color21,001,2021_Nov_08_1729,ProdSingRedo,3.2.3,59.90351947977005,
51,0,51,0,,,,,,,,,,,,,,,,,,,,,,,,,,,,411.4929773998447,None,science,silent,yellow,72,275,409.4851698996499,None,None,409.4851698996499,None,,,,,,,,,,,,,,,,,,,,,,,,,,,,,,,,,color21,001,2021_Nov_08_1729,ProdSingRedo,3.2.3,59.90351947977005,
52,0,52,0,,,,,,,,,,,,,,,,,,,,,,,,,,,,414.0124645996839,None,dozen,sing,red,23,102,411.99742309981957,None,None,411.99742309981957,None,,,,,,,,,,,,,,,,,,,,,,,,,,,,,,,,,color21,001,2021_Nov_08_1729,ProdSingRedo,3.2.3,59.90351947977005,
53,0,53,0,,,,,,,,,,,,,,,,,,,,,,,,,,,,416.5315135996789,None,degree,silent,yellow,67,89,414.5266806995496,None,None,414.5266806995496,None,,,,,,,,,,,,,,,,,,,,,,,,,,,,,,,,,color21,001,2021_Nov_08_1729,ProdSingRedo,3.2.3,59.90351947977005,
54,0,54,0,,,,,,,,,,,,,,,,,,,,,,,,,,,,419.0507055995986,None,solution,sing,red,11,294,417.0413115997799,None,None,417.0413115997799,None,,,,,,,,,,,,,,,,,,,,,,,,,,,,,,,,,color21,001,2021_Nov_08_1729,ProdSingRedo,3.2.3,59.90351947977005,
55,0,55,0,,,,,,,,,,,,,,,,,,,,,,,,,,,,421.56981909973547,None,company,silent,yellow,82,64,419.5683646998368,None,None,419.5683646998368,None,,,,,,,,,,,,,,,,,,,,,,,,,,,,,,,,,color21,001,2021_Nov_08_1729,ProdSingRedo,3.2.3,59.90351947977005,
56,0,56,0,,,,,,,,,,,,,,,,,,,,,,,,,,,,424.0890826997347,None,evidence,sing,red,22,120,422.0818769996986,None,None,422.0818769996986,None,,,,,,,,,,,,,,,,,,,,,,,,,,,,,,,,,color21,001,2021_Nov_08_1729,ProdSingRedo,3.2.3,59.90351947977005,
57,0,57,0,,,,,,,,,,,,,,,,,,,,,,,,,,,,426.60827219998464,None,income,silent,yellow,69,159,424.60072809970006,None,None,424.60072809970006,None,,,,,,,,,,,,,,,,,,,,,,,,,,,,,,,,,color21,001,2021_Nov_08_1729,ProdSingRedo,3.2.3,59.90351947977005,
58,0,58,0,,,,,,,,,,,,,,,,,,,,,,,,,,,,429.1273957998492,None,fashion,aloud,blue,51,125,427.12025679973885,None,None,427.12025679973885,None,,,,,,,,,,,,,,,,,,,,,,,,,,,,,,,,,color21,001,2021_Nov_08_1729,ProdSingRedo,3.2.3,59.90351947977005,
59,0,59,0,,,,,,,,,,,,,,,,,,,,,,,,,,,,431.64662899961695,None,travel,aloud,blue,32,338,429.63774339994416,None,None,429.63774339994416,None,,,,,,,,,,,,,,,,,,,,,,,,,,,,,,,,,color21,001,2021_Nov_08_1729,ProdSingRedo,3.2.3,59.90351947977005,
60,0,60,0,,,,,,,,,,,,,,,,,,,,,,,,,,,,434.16583939967677,None,balance,silent,yellow,85,17,432.1667355997488,None,None,432.1667355997488,None,,,,,,,,,,,,,,,,,,,,,,,,,,,,,,,,,color21,001,2021_Nov_08_1729,ProdSingRedo,3.2.3,59.90351947977005,
61,0,61,0,,,,,,,,,,,,,,,,,,,,,,,,,,,,436.68494549999014,None,build,sing,red,24,35,434.68191159982234,None,None,434.68191159982234,None,,,,,,,,,,,,,,,,,,,,,,,,,,,,,,,,,color21,001,2021_Nov_08_1729,ProdSingRedo,3.2.3,59.90351947977005,
62,0,62,0,,,,,,,,,,,,,,,,,,,,,,,,,,,,439.20419149985537,None,religion,sing,red,5,258,437.20114009967074,None,None,437.20114009967074,None,,,,,,,,,,,,,,,,,,,,,,,,,,,,,,,,,color21,001,2021_Nov_08_1729,ProdSingRedo,3.2.3,59.90351947977005,
63,0,63,0,,,,,,,,,,,,,,,,,,,,,,,,,,,,441.72309589991346,None,republic,silent,yellow,84,260,439.7192352996208,None,None,439.7192352996208,None,,,,,,,,,,,,,,,,,,,,,,,,,,,,,,,,,color21,001,2021_Nov_08_1729,ProdSingRedo,3.2.3,59.90351947977005,
64,0,64,0,,,,,,,,,,,,,,,,,,,,,,,,,,,,444.2425457998179,None,birth,silent,yellow,62,22,442.2335002999753,None,None,442.2335002999753,None,,,,,,,,,,,,,,,,,,,,,,,,,,,,,,,,,color21,001,2021_Nov_08_1729,ProdSingRedo,3.2.3,59.90351947977005,
65,0,65,0,,,,,,,,,,,,,,,,,,,,,,,,,,,,446.7615117998794,None,nation,silent,yellow,83,198,444.75487699965015,None,None,444.75487699965015,None,,,,,,,,,,,,,,,,,,,,,,,,,,,,,,,,,color21,001,2021_Nov_08_1729,ProdSingRedo,3.2.3,59.90351947977005,
66,0,66,0,,,,,,,,,,,,,,,,,,,,,,,,,,,,449.26425919961184,None,sight,aloud,blue,56,286,447.262075799983,None,None,447.262075799983,None,,,,,,,,,,,,,,,,,,,,,,,,,,,,,,,,,color21,001,2021_Nov_08_1729,ProdSingRedo,3.2.3,59.90351947977005,
67,0,67,0,,,,,,,,,,,,,,,,,,,,,,,,,,,,451.78342879982665,None,poetry,aloud,blue,49,225,449.77496539987624,None,None,449.77496539987624,None,,,,,,,,,,,,,,,,,,,,,,,,,,,,,,,,,color21,001,2021_Nov_08_1729,ProdSingRedo,3.2.3,59.90351947977005,
68,0,68,0,,,,,,,,,,,,,,,,,,,,,,,,,,,,454.30267719971016,None,safety,silent,yellow,78,270,452.3071237998083,None,None,452.3071237998083,None,,,,,,,,,,,,,,,,,,,,,,,,,,,,,,,,,color21,001,2021_Nov_08_1729,ProdSingRedo,3.2.3,59.90351947977005,
69,0,69,0,,,,,,,,,,,,,,,,,,,,,,,,,,,,456.8217415995896,None,running,silent,yellow,75,268,454.81569379987195,None,None,454.81569379987195,None,,,,,,,,,,,,,,,,,,,,,,,,,,,,,,,,,color21,001,2021_Nov_08_1729,ProdSingRedo,3.2.3,59.90351947977005,
70,0,70,0,,,,,,,,,,,,,,,,,,,,,,,,,,,,459.3409822997637,None,short,sing,red,0,285,457.3337953998707,None,None,457.3337953998707,None,,,,,,,,,,,,,,,,,,,,,,,,,,,,,,,,,color21,001,2021_Nov_08_1729,ProdSingRedo,3.2.3,59.90351947977005,
71,0,71,0,,,,,,,,,,,,,,,,,,,,,,,,,,,,461.8601305996999,None,finish,silent,yellow,73,130,459.85107219964266,None,None,459.85107219964266,None,,,,,,,,,,,,,,,,,,,,,,,,,,,,,,,,,color21,001,2021_Nov_08_1729,ProdSingRedo,3.2.3,59.90351947977005,
72,0,72,0,,,,,,,,,,,,,,,,,,,,,,,,,,,,464.379410199821,None,public,sing,red,19,244,462.37588899955153,None,None,462.37588899955153,None,,,,,,,,,,,,,,,,,,,,,,,,,,,,,,,,,color21,001,2021_Nov_08_1729,ProdSingRedo,3.2.3,59.90351947977005,
73,0,73,0,,,,,,,,,,,,,,,,,,,,,,,,,,,,466.8984857997857,None,bicycle,silent,yellow,86,21,464.895345099736,None,None,464.895345099736,None,,,,,,,,,,,,,,,,,,,,,,,,,,,,,,,,,color21,001,2021_Nov_08_1729,ProdSingRedo,3.2.3,59.90351947977005,
74,0,74,0,,,,,,,,,,,,,,,,,,,,,,,,,,,,469.41766059957445,None,institute,sing,red,14,162,467.41414979984984,None,None,467.41414979984984,None,,,,,,,,,,,,,,,,,,,,,,,,,,,,,,,,,color21,001,2021_Nov_08_1729,ProdSingRedo,3.2.3,59.90351947977005,
75,0,75,0,,,,,,,,,,,,,,,,,,,,,,,,,,,,471.93686209991574,None,executive,sing,red,28,122,469.93382169958204,None,None,469.93382169958204,None,,,,,,,,,,,,,,,,,,,,,,,,,,,,,,,,,color21,001,2021_Nov_08_1729,ProdSingRedo,3.2.3,59.90351947977005,
76,0,76,0,,,,,,,,,,,,,,,,,,,,,,,,,,,,474.4561837995425,None,welcome,sing,red,29,354,472.44984249956906,None,None,472.44984249956906,None,,,,,,,,,,,,,,,,,,,,,,,,,,,,,,,,,color21,001,2021_Nov_08_1729,ProdSingRedo,3.2.3,59.90351947977005,
77,0,77,0,,,,,,,,,,,,,,,,,,,,,,,,,,,,476.975320099853,None,resistance,aloud,blue,41,262,474.9710362995975,None,None,474.9710362995975,None,,,,,,,,,,,,,,,,,,,,,,,,,,,,,,,,,color21,001,2021_Nov_08_1729,ProdSingRedo,3.2.3,59.90351947977005,
78,0,78,0,,,,,,,,,,,,,,,,,,,,,,,,,,,,479.4944710996933,None,worker,aloud,blue,30,356,477.49118469981477,None,None,477.49118469981477,None,,,,,,,,,,,,,,,,,,,,,,,,,,,,,,,,,color21,001,2021_Nov_08_1729,ProdSingRedo,3.2.3,59.90351947977005,
79,0,79,0,,,,,,,,,,,,,,,,,,,,,,,,,,,,482.01365709956735,None,symbol,sing,red,26,321,480.0088238995522,None,None,480.0088238995522,None,,,,,,,,,,,,,,,,,,,,,,,,,,,,,,,,,color21,001,2021_Nov_08_1729,ProdSingRedo,3.2.3,59.90351947977005,
80,0,80,0,,,,,,,,,,,,,,,,,,,,,,,,,,,,484.53282099962234,None,impact,silent,yellow,80,157,482.5243478999473,None,None,482.5243478999473,None,,,,,,,,,,,,,,,,,,,,,,,,,,,,,,,,,color21,001,2021_Nov_08_1729,ProdSingRedo,3.2.3,59.90351947977005,
81,0,81,0,,,,,,,,,,,,,,,,,,,,,,,,,,,,487.0520574999973,None,taste,sing,red,20,322,485.04678959958255,None,None,485.04678959958255,None,,,,,,,,,,,,,,,,,,,,,,,,,,,,,,,,,color21,001,2021_Nov_08_1729,ProdSingRedo,3.2.3,59.90351947977005,
82,0,82,0,,,,,,,,,,,,,,,,,,,,,,,,,,,,489.5711840996519,None,vision,silent,yellow,79,347,487.56359109980986,None,None,487.56359109980986,None,,,,,,,,,,,,,,,,,,,,,,,,,,,,,,,,,color21,001,2021_Nov_08_1729,ProdSingRedo,3.2.3,59.90351947977005,
83,0,83,0,,,,,,,,,,,,,,,,,,,,,,,,,,,,492.0904402998276,None,quick,silent,yellow,77,248,490.08573679998517,None,None,490.08573679998517,None,,,,,,,,,,,,,,,,,,,,,,,,,,,,,,,,,color21,001,2021_Nov_08_1729,ProdSingRedo,3.2.3,59.90351947977005,
84,0,84,0,,,,,,,,,,,,,,,,,,,,,,,,,,,,494.6095613995567,None,interview,aloud,blue,47,165,492.60800019977614,None,None,492.60800019977614,None,,,,,,,,,,,,,,,,,,,,,,,,,,,,,,,,,color21,001,2021_Nov_08_1729,ProdSingRedo,3.2.3,59.90351947977005,
85,0,85,0,,,,,,,,,,,,,,,,,,,,,,,,,,,,497.1288111996837,None,gesture,sing,red,9,137,495.1234148996882,None,None,495.1234148996882,None,,,,,,,,,,,,,,,,,,,,,,,,,,,,,,,,,color21,001,2021_Nov_08_1729,ProdSingRedo,3.2.3,59.90351947977005,
86,0,86,0,,,,,,,,,,,,,,,,,,,,,,,,,,,,499.64784769993275,None,majority,sing,red,3,176,497.64953919965774,None,None,497.64953919965774,None,,,,,,,,,,,,,,,,,,,,,,,,,,,,,,,,,color21,001,2021_Nov_08_1729,ProdSingRedo,3.2.3,59.90351947977005,
87,0,87,0,,,,,,,,,,,,,,,,,,,,,,,,,,,,502.1670735999942,None,error,aloud,blue,40,117,500.15954399993643,None,None,500.15954399993643,None,,,,,,,,,,,,,,,,,,,,,,,,,,,,,,,,,color21,001,2021_Nov_08_1729,ProdSingRedo,3.2.3,59.90351947977005,
88,0,88,0,,,,,,,,,,,,,,,,,,,,,,,,,,,,504.66964009962976,None,union,aloud,blue,58,344,502.66951239993796,None,None,502.66951239993796,None,,,,,,,,,,,,,,,,,,,,,,,,,,,,,,,,,color21,001,2021_Nov_08_1729,ProdSingRedo,3.2.3,59.90351947977005,
89,0,89,0,,,,,,,,,,,,,,,,,,,,,,,,,,,,507.1888188999146,None,cover,silent,yellow,76,77,505.1832836996764,None,None,505.1832836996764,None,,,,,,,,,,,,,,,,,,,,,,,,,,,,,,,,,color21,001,2021_Nov_08_1729,ProdSingRedo,3.2.3,59.90351947977005,
,,,,,,,,,,,,,,,,,,,,,,,,,,,,,,,,,,,,,,,,,,,507.6896036998369,None,k,144.52347250003368,507.6896036998369,None,,,,,,,,,,,,,,,,,,,,,,,,,,,color21,001,2021_Nov_08_1729,ProdSingRedo,3.2.3,59.90351947977005,
,,,,0,0,0,0,,,,,,,,,,,,,,,,,,,,,,,,673.8013288998045,None,,,,,,,,,,,,,,,,,sweet,new_aloud,blue,0,133,319,652.7504592998885,None,652.7504592998885,None,1,3.8145485003478825,652.7504592998885,None,656.6171749997884,None,657.132355499547,None,657.132355499547,None,f,16.63259569974616,657.132355499547,None,,,color21,001,2021_Nov_08_1729,ProdSingRedo,3.2.3,59.90351947977005,
,,,,1,0,1,0,,,,,,,,,,,,,,,,,,,,,,,,684.6326343999244,None,,,,,,,,,,,,,,,,,member,new_sing,red,1,100,188,674.3233967996202,None,674.3233967996202,None,3,7.409200099762529,674.3233967996202,None,681.7660505999811,None,682.2882690997794,None,682.2882690997794,None,r,2.324820099864155,682.2882690997794,None,,,color21,001,2021_Nov_08_1729,ProdSingRedo,3.2.3,59.90351947977005,
,,,,2,0,2,0,,,,,,,,,,,,,,,,,,,,,,,,693.6748541998677,None,,,,,,,,,,,,,,,,,smooth,new_silent,yellow,2,159,292,685.1450573997572,None,685.1450573997572,None,6,5.2199384002014995,685.1450573997572,None,690.4081203998066,None,690.9281363999471,None,690.9281363999471,None,n,2.7244053999893367,690.9281363999471,None,,,color21,001,2021_Nov_08_1729,ProdSingRedo,3.2.3,59.90351947977005,
,,,,3,0,3,0,,,,,,,,,,,,,,,,,,,,,,,,705.3163783997297,None,,,,,,,,,,,,,,,,,cover,silent,yellow,3,76,77,694.1933856997639,None,694.1933856997639,None,3,6.091283699963242,694.1933856997639,None,700.3160079997033,None,700.8375596995465,None,700.8375596995465,None,r,4.439641699660569,700.8375596995465,None,,,color21,001,2021_Nov_08_1729,ProdSingRedo,3.2.3,59.90351947977005,
,,,,4,0,4,0,,,,,,,,,,,,,,,,,,,,,,,,718.3251380999573,None,,,,,,,,,,,,,,,,,income,silent,yellow,4,69,159,705.8344264999032,None,705.8344264999032,None,1,8.826812299899757,705.8344264999032,None,714.7013087999076,None,715.2189547996968,None,715.2189547996968,None,n,3.074106200132519,715.2189547996968,None,,,color21,001,2021_Nov_08_1729,ProdSingRedo,3.2.3,59.90351947977005,
,,,,5,0,5,0,,,,,,,,,,,,,,,,,,,,,,,,734.1416160999797,None,,,,,,,,,,,,,,,,,short,sing,red,5,0,285,718.8472513998859,None,718.8472513998859,None,5,11.76582679990679,718.8472513998859,None,730.6482118996792,None,731.1706633996218,None,731.1706633996218,None,r,2.9385096998885274,731.1706633996218,None,,,color21,001,2021_Nov_08_1729,ProdSingRedo,3.2.3,59.90351947977005,
,,,,6,0,6,0,,,,,,,,,,,,,,,,,,,,,,,,740.1289518997073,None,,,,,,,,,,,,,,,,,property,new_silent,yellow,6,178,242,734.668182299938,None,734.668182299938,None,1,3.3444395000115037,734.668182299938,None,738.0360582997091,None,738.5480875996873,None,738.5480875996873,None,n,1.5449109002947807,738.5480875996873,None,,,color21,001,2021_Nov_08_1729,ProdSingRedo,3.2.3,59.90351947977005,
,,,,7,0,7,0,,,,,,,,,,,,,,,,,,,,,,,,746.9861620999873,None,,,,,,,,,,,,,,,,,atmosphere,aloud,blue,7,55,12,740.6561626996845,None,740.6561626996845,None,6,3.3728801999241114,740.6561626996845,None,744.076427299995,None,744.5910234996118,None,744.5910234996118,None,r,2.366224399767816,744.5910234996118,None,,,color21,001,2021_Nov_08_1729,ProdSingRedo,3.2.3,59.90351947977005,
,,,,8,0,8,0,,,,,,,,,,,,,,,,,,,,,,,,754.4603420998901,None,,,,,,,,,,,,,,,,,tragedy,silent,yellow,8,71,335,747.516919599846,None,747.516919599846,None,3,4.42399869998917,747.516919599846,None,751.9895294997841,None,752.5139286997728,None,752.5139286997728,None,f,1.915157999843359,752.5139286997728,None,,,color21,001,2021_Nov_08_1729,ProdSingRedo,3.2.3,59.90351947977005,
,,,,9,0,9,0,,,,,,,,,,,,,,,,,,,,,,,,766.4065948999487,None,,,,,,,,,,,,,,,,,finish,silent,yellow,9,73,130,754.9852306996472,None,754.9852306996472,None,1,6.499744499567896,754.9852306996472,None,761.5355138997547,None,762.054147799965,None,762.054147799965,None,n,4.318905900232494,762.054147799965,None,,,color21,001,2021_Nov_08_1729,ProdSingRedo,3.2.3,59.90351947977005,
,,,,10,0,10,0,,,,,,,,,,,,,,,,,,,,,,,,773.3117696996778,None,,,,,,,,,,,,,,,,,principal,new_silent,yellow,10,179,236,766.9315560995601,None,766.9315560995601,None,6,3.697791200131178,766.9315560995601,None,770.6741818999872,None,771.1935646999627,None,771.1935646999627,None,r,2.083416299894452,771.1935646999627,None,,,color21,001,2021_Nov_08_1729,ProdSingRedo,3.2.3,59.90351947977005,
,,,,11,0,11,0,,,,,,,,,,,,,,,,,,,,,,,,779.7189173996449,None,,,,,,,,,,,,,,,,,degree,silent,yellow,11,67,89,773.8400857998058,None,773.8400857998058,None,1,3.357026900164783,773.8400857998058,None,777.2469047997147,None,777.7733966996893,None,777.7733966996893,None,n,1.9116247999481857,777.7733966996893,None,,,color21,001,2021_Nov_08_1729,ProdSingRedo,3.2.3,59.90351947977005,
,,,,12,0,12,0,,,,,,,,,,,,,,,,,,,,,,,,789.9624039996415,None,,,,,,,,,,,,,,,,,balance,silent,yellow,12,85,17,780.2467375998385,None,780.2467375998385,None,6,7.278284700121731,780.2467375998385,None,787.5607206998393,None,788.0874852999114,None,788.0874852999114,None,r,1.8375205001793802,788.0874852999114,None,,,color21,001,2021_Nov_08_1729,ProdSingRedo,3.2.3,59.90351947977005,
,,,,13,0,13,0,,,,,,,,,,,,,,,,,,,,,,,,796.8846483998932,None,,,,,,,,,,,,,,,,,defeat,new_silent,yellow,13,150,88,790.4952097996138,None,790.4952097996138,None,6,3.9419333999976516,790.4952097996138,None,794.4780953996815,None,795.0041460995562,None,795.0041460995562,None,f,1.8489753999747336,795.0041460995562,None,,,color21,001,2021_Nov_08_1729,ProdSingRedo,3.2.3,59.90351947977005,
,,,,14,0,14,0,,,,,,,,,,,,,,,,,,,,,,,,806.890096699819,None,,,,,,,,,,,,,,,,,institute,sing,red,14,14,162,797.4113836996257,None,797.4113836996257,None,5,7.84169779997319,797.4113836996257,None,805.2944619995542,None,805.8159830998629,None,805.8159830998629,None,f,1.0529809002764523,805.8159830998629,None,,,color21,001,2021_Nov_08_1729,ProdSingRedo,3.2.3,59.90351947977005,
,,,,15,0,15,0,,,,,,,,,,,,,,,,,,,,,,,,815.1405166997574,None,,,,,,,,,,,,,,,,,colonel,sing,red,15,27,55,807.415611599572,None,807.415611599572,None,6,5.413449100218713,807.415611599572,None,812.8650001999922,None,813.3881267998368,None,813.3881267998368,None,r,1.7210253002122045,813.3881267998368,None,,,color21,001,2021_Nov_08_1729,ProdSingRedo,3.2.3,59.90351947977005,
,,,,16,0,16,0,,,,,,,,,,,,,,,,,,,,,,,,823.1299050999805,None,,,,,,,,,,,,,,,,,birth,silent,yellow,16,62,22,815.6661641998217,None,815.6661641998217,None,2,4.939031700138003,815.6661641998217,None,820.6556105995551,None,821.1800958998501,None,821.1800958998501,None,f,1.921052800025791,821.1800958998501,None,,,color21,001,2021_Nov_08_1729,ProdSingRedo,3.2.3,59.90351947977005,
,,,,17,0,17,0,,,,,,,,,,,,,,,,,,,,,,,,833.5039870999753,None,,,,,,,,,,,,,,,,,death,sing,red,17,1,86,823.6551498998888,None,823.6551498998888,None,3,8.285539300180972,823.6551498998888,None,831.9640843998641,None,832.4761448996142,None,832.4761448996142,None,f,0.9929363997653127,832.4761448996142,None,,,color21,001,2021_Nov_08_1729,ProdSingRedo,3.2.3,59.90351947977005,
,,,,18,0,18,0,,,,,,,,,,,,,,,,,,,,,,,,840.647911099717,None,,,,,,,,,,,,,,,,,substance,new_sing,red,18,106,313,834.034259499982,None,834.034259499982,None,1,4.642997000366449,834.034259499982,None,838.7338597998023,None,839.251731899567,None,839.251731899567,None,n,1.3694039001129568,839.251731899567,None,,,color21,001,2021_Nov_08_1729,ProdSingRedo,3.2.3,59.90351947977005,
,,,,19,0,19,0,,,,,,,,,,,,,,,,,,,,,,,,852.2742585996166,None,,,,,,,,,,,,,,,,,command,new_aloud,blue,19,136,60,841.1763426996768,None,841.1763426996768,None,5,8.548787800129503,841.1763426996768,None,849.7740532997996,None,850.2922435998917,None,850.2922435998917,None,r,1.9528946001082659,850.2922435998917,None,,,color21,001,2021_Nov_08_1729,ProdSingRedo,3.2.3,59.90351947977005,
,,,,20,0,20,0,,,,,,,,,,,,,,,,,,,,,,,,866.5229401998222,None,,,,,,,,,,,,,,,,,present,new_silent,yellow,20,157,231,852.7980997995473,None,852.7980997995473,None,2,10.782974800094962,852.7980997995473,None,863.6273348997347,None,864.1398783996701,None,864.1398783996701,None,f,2.353340800385922,864.1398783996701,None,,,color21,001,2021_Nov_08_1729,ProdSingRedo,3.2.3,59.90351947977005,
,,,,21,0,21,0,,,,,,,,,,,,,,,,,,,,,,,,874.9894590997137,None,,,,,,,,,,,,,,,,,narrow,new_aloud,blue,21,147,197,867.0516884997487,None,867.0516884997487,None,1,5.841478200163692,867.0516884997487,None,872.9472956997342,None,873.4666077997535,None,873.4666077997535,None,n,1.4981305999681354,873.4666077997535,None,,,color21,001,2021_Nov_08_1729,ProdSingRedo,3.2.3,59.90351947977005,
,,,,22,0,22,0,,,,,,,,,,,,,,,,,,,,,,,,881.7858509998769,None,,,,,,,,,,,,,,,,,interview,aloud,blue,22,47,165,875.5101343998685,None,875.5101343998685,None,6,3.919005800038576,875.5101343998685,None,879.4673143997788,None,879.9968214998953,None,879.9968214998953,None,f,1.7524331999011338,879.9968214998953,None,,,color21,001,2021_Nov_08_1729,ProdSingRedo,3.2.3,59.90351947977005,
,,,,23,0,23,0,,,,,,,,,,,,,,,,,,,,,,,,890.7395927999169,None,,,,,,,,,,,,,,,,,meeting,new_silent,yellow,23,154,187,882.3119998998009,None,882.3119998998009,None,2,5.6052991999313235,882.3119998998009,None,887.9622870995663,None,888.4897853997536,None,888.4897853997536,None,n,2.211226799990982,888.4897853997536,None,,,color21,001,2021_Nov_08_1729,ProdSingRedo,3.2.3,59.90351947977005,
,,,,24,0,24,0,,,,,,,,,,,,,,,,,,,,,,,,896.5805998998694,None,,,,,,,,,,,,,,,,,pretty,aloud,blue,24,44,233,891.2433599997312,None,891.2433599997312,None,6,2.689797000028193,891.2433599997312,None,893.9815715998411,None,894.5039451997727,None,894.5039451997727,None,r,2.0291659999638796,894.5039451997727,None,,,color21,001,2021_Nov_08_1729,ProdSingRedo,3.2.3,59.90351947977005,
,,,,25,0,25,0,,,,,,,,,,,,,,,,,,,,,,,,910.1846749996766,None,,,,,,,,,,,,,,,,,period,new_silent,yellow,25,151,217,897.1091104997322,None,897.1091104997322,None,4,10.67207260010764,897.1091104997322,None,907.826331499964,None,908.3460437995382,None,908.3460437995382,None,f,1.8110018000006676,908.3460437995382,None,,,color21,001,2021_Nov_08_1729,ProdSingRedo,3.2.3,59.90351947977005,
,,,,26,0,26,0,,,,,,,,,,,,,,,,,,,,,,,,915.4881573999301,None,,,,,,,,,,,,,,,,,gesture,sing,red,26,9,137,910.7122738999315,None,910.7122738999315,None,1,2.1167941000312567,910.7122738999315,None,912.8718380997889,None,913.3900379999541,None,913.3900379999541,None,f,2.0631252001039684,913.3900379999541,None,,,color21,001,2021_Nov_08_1729,ProdSingRedo,3.2.3,59.90351947977005,
,,,,27,0,27,0,,,,,,,,,,,,,,,,,,,,,,,,928.9344654995948,None,,,,,,,,,,,,,,,,,taste,sing,red,27,20,322,916.0179298999719,None,916.0179298999719,None,5,10.866969499737024,916.0179298999719,None,926.9186517996714,None,927.4350163997151,None,927.4350163997151,None,f,1.4661802998743951,927.4350163997151,None,,,color21,001,2021_Nov_08_1729,ProdSingRedo,3.2.3,59.90351947977005,
,,,,28,0,28,0,,,,,,,,,,,,,,,,,,,,,,,,936.6099682999775,None,,,,,,,,,,,,,,,,,produce,new_aloud,blue,28,149,239,929.4637081995606,None,929.4637081995606,None,4,5.429574699606746,929.4637081995606,None,934.9351830999367,None,935.4611475998536,None,935.4611475998536,None,r,1.1201171004213393,935.4611475998536,None,,,color21,001,2021_Nov_08_1729,ProdSingRedo,3.2.3,59.90351947977005,
,,,,29,0,29,0,,,,,,,,,,,,,,,,,,,,,,,,943.7828796999529,None,,,,,,,,,,,,,,,,,afternoon,new_aloud,blue,29,123,3,937.1351968999952,None,937.1351968999952,None,1,4.3581289001740515,937.1351968999952,None,941.5516840997152,None,942.0669038998894,None,942.0669038998894,None,n,1.690211699809879,942.0669038998894,None,,,color21,001,2021_Nov_08_1729,ProdSingRedo,3.2.3,59.90351947977005,
,,,,30,0,30,0,,,,,,,,,,,,,,,,,,,,,,,,951.8498429995961,None,,,,,,,,,,,,,,,,,charter,new_aloud,blue,30,137,47,944.3098715995438,None,944.3098715995438,None,1,5.575415200088173,944.3098715995438,None,949.9394309995696,None,950.4586354997009,None,950.4586354997009,None,n,1.3701154999434948,950.4586354997009,None,,,color21,001,2021_Nov_08_1729,ProdSingRedo,3.2.3,59.90351947977005,
,,,,31,0,31,0,,,,,,,,,,,,,,,,,,,,,,,,958.4461601995863,None,,,,,,,,,,,,,,,,,reach,new_silent,yellow,31,177,253,952.3750000996515,None,952.3750000996515,None,6,2.7262493995949626,952.3750000996515,None,955.1469123996794,None,955.6666281996295,None,955.6666281996295,None,r,2.7464757999405265,955.6666281996295,None,,,color21,001,2021_Nov_08_1729,ProdSingRedo,3.2.3,59.90351947977005,
,,,,32,0,32,0,,,,,,,,,,,,,,,,,,,,,,,,965.8571262997575,None,,,,,,,,,,,,,,,,,surprise,new_silent,yellow,32,156,317,958.9742100997828,None,958.9742100997828,None,2,3.3432171000167727,958.9742100997828,None,962.37065529963,None,962.8904513996094,None,962.8904513996094,None,n,2.9386493996717036,962.8904513996094,None,,,color21,001,2021_Nov_08_1729,ProdSingRedo,3.2.3,59.90351947977005,
,,,,33,0,33,0,,,,,,,,,,,,,,,,,,,,,,,,972.2943976996467,None,,,,,,,,,,,,,,,,,figure,silent,yellow,33,60,128,966.3730145995505,None,966.3730145995505,None,2,4.360417400021106,966.3730145995505,None,970.7794195995666,None,971.2985641998239,None,971.2985641998239,None,n,0.970679699908942,971.2985641998239,None,,,color21,001,2021_Nov_08_1729,ProdSingRedo,3.2.3,59.90351947977005,
,,,,34,0,34,0,,,,,,,,,,,,,,,,,,,,,,,,979.5590742998756,None,,,,,,,,,,,,,,,,,marriage,new_aloud,blue,34,139,179,972.822063499596,None,972.822063499596,None,1,3.350977399852127,972.822063499596,None,976.2092722998932,None,976.7202826999128,None,976.7202826999128,None,n,2.8053570999763906,976.7202826999128,None,,,color21,001,2021_Nov_08_1729,ProdSingRedo,3.2.3,59.90351947977005,
,,,,35,0,35,0,,,,,,,,,,,,,,,,,,,,,,,,988.4480976997875,None,,,,,,,,,,,,,,,,,shock,new_aloud,blue,35,132,284,980.0770450998098,None,980.0770450998098,None,5,5.776176800020039,980.0770450998098,None,985.900454999879,None,986.4139394997619,None,986.4139394997619,None,f,1.9913928001187742,986.4139394997619,None,,,color21,001,2021_Nov_08_1729,ProdSingRedo,3.2.3,59.90351947977005,
,,,,36,0,36,0,,,,,,,,,,,,,,,,,,,,,,,,993.9818534995429,None,,,,,,,,,,,,,,,,,beauty,new_silent,yellow,36,171,18,988.9785049995407,None,988.9785049995407,None,6,3.43470360012725,988.9785049995407,None,992.4688828997314,None,992.9886873997748,None,992.9886873997748,None,f,0.9682944999076426,992.9886873997748,None,,,color21,001,2021_Nov_08_1729,ProdSingRedo,3.2.3,59.90351947977005,
,,,,37,0,37,0,,,,,,,,,,,,,,,,,,,,,,,,998.6389587996528,None,,,,,,,,,,,,,,,,,commercial,silent,yellow,37,63,61,994.5090412995778,None,994.5090412995778,None,5,2.704292200040072,994.5090412995778,None,997.2537337997928,None,997.7764168996364,None,997.7764168996364,None,r,0.8288750997744501,997.7764168996364,None,,,color21,001,2021_Nov_08_1729,ProdSingRedo,3.2.3,59.90351947977005,
,,,,38,0,38,0,,,,,,,,,,,,,,,,,,,,,,,,1003.275676399935,None,,,,,,,,,,,,,,,,,worker,aloud,blue,38,30,356,999.1721439999528,None,999.1721439999528,None,6,2.681150699965656,999.1721439999528,None,1001.9092024997808,None,1002.4324968997389,None,1002.4324968997389,None,r,0.8048280999064445,1002.4324968997389,None,,,color21,001,2021_Nov_08_1729,ProdSingRedo,3.2.3,59.90351947977005,
,,,,39,0,39,0,,,,,,,,,,,,,,,,,,,,,,,,1009.6821822999045,None,,,,,,,,,,,,,,,,,career,new_aloud,blue,39,146,42,1003.8045658995397,None,1003.8045658995397,None,1,4.848694700282067,1003.8045658995397,None,1008.7000463996083,None,1009.2182509996928,None,1009.2182509996928,None,n,0.4350317004136741,1009.2182509996928,None,,,color21,001,2021_Nov_08_1729,ProdSingRedo,3.2.3,59.90351947977005,
,,,,40,0,40,0,,,,,,,,,,,,,,,,,,,,,,,,1013.7521041999571,None,,,,,,,,,,,,,,,,,design,aloud,blue,40,54,91,1010.2083707996644,None,1010.2083707996644,None,3,2.332886300049722,1010.2083707996644,None,1012.583337099757,None,1013.1059096995741,None,1013.1059096995741,None,f,0.6193110002204776,1013.1059096995741,None,,,color21,001,2021_Nov_08_1729,ProdSingRedo,3.2.3,59.90351947977005,
,,,,41,0,41,0,,,,,,,,,,,,,,,,,,,,,,,,1019.8252426995896,None,,,,,,,,,,,,,,,,,century,new_aloud,blue,41,141,45,1014.2854647999629,None,1014.2854647999629,None,1,3.7918051998130977,1014.2854647999629,None,1018.1193856997415,None,1018.6454606996849,None,1018.6454606996849,None,n,1.151751599740237,1018.6454606996849,None,,,color21,001,2021_Nov_08_1729,ProdSingRedo,3.2.3,59.90351947977005,
,,,,42,0,42,0,,,,,,,,,,,,,,,,,,,,,,,,1032.507322399877,None,,,,,,,,,,,,,,,,,working,silent,yellow,42,65,357,1020.3612586995587,None,1020.3612586995587,None,4,8.196123200003058,1020.3612586995587,None,1028.6041755997576,None,1029.1272206995636,None,1029.1272206995636,None,f,3.342114499770105,1029.1272206995636,None,,,color21,001,2021_Nov_08_1729,ProdSingRedo,3.2.3,59.90351947977005,
,,,,43,0,43,0,,,,,,,,,,,,,,,,,,,,,,,,1037.0410144999623,None,,,,,,,,,,,,,,,,,dream,new_sing,red,43,119,104,1033.0294760996476,None,1033.0294760996476,None,1,2.319690099917352,1033.0294760996476,None,1035.3904236997478,None,1035.9122298997827,None,1035.9122298997827,None,n,1.0929594999179244,1035.9122298997827,None,,,color21,001,2021_Nov_08_1729,ProdSingRedo,3.2.3,59.90351947977005,
,,,,44,0,44,0,,,,,,,,,,,,,,,,,,,,,,,,1042.9313237997703,None,,,,,,,,,,,,,,,,,character,new_silent,yellow,44,173,46,1037.575796699617,None,1037.575796699617,None,2,3.7569916998036206,1037.575796699617,None,1041.368135199882,None,1041.8731786999851,None,1041.8731786999851,None,n,1.020105100236833,1041.8731786999851,None,,,color21,001,2021_Nov_08_1729,ProdSingRedo,3.2.3,59.90351947977005,
,,,,45,0,45,0,,,,,,,,,,,,,,,,,,,,,,,,1051.3729355996475,None,,,,,,,,,,,,,,,,,shape,new_sing,red,45,97,282,1043.4582441998646,None,1043.4582441998646,None,4,5.195011300034821,1043.4582441998646,None,1048.7052017999813,None,1049.2275182995945,None,1049.2275182995945,None,f,2.1137501001358032,1049.2275182995945,None,,,color21,001,2021_Nov_08_1729,ProdSingRedo,3.2.3,59.90351947977005,
,,,,46,0,46,0,,,,,,,,,,,,,,,,,,,,,,,,1056.6954614999704,None,,,,,,,,,,,,,,,,,music,new_aloud,blue,46,144,196,1051.8979222998023,None,1051.8979222998023,None,6,3.29958220012486,1051.8979222998023,None,1055.2430373998359,None,1055.7650736998767,None,1055.7650736998767,None,r,0.8962582000531256,1055.7650736998767,None,,,color21,001,2021_Nov_08_1729,ProdSingRedo,3.2.3,59.90351947977005,
,,,,47,0,47,0,,,,,,,,,,,,,,,,,,,,,,,,1060.8154000998475,None,,,,,,,,,,,,,,,,,agency,new_aloud,blue,47,124,4,1057.2147592999972,None,1057.2147592999972,None,1,2.222564899828285,1057.2147592999972,None,1059.4861460998654,None,1060.0028192996979,None,1060.0028192996979,None,n,0.7864159997552633,1060.0028192996979,None,,,color21,001,2021_Nov_08_1729,ProdSingRedo,3.2.3,59.90351947977005,
,,,,48,0,48,0,,,,,,,,,,,,,,,,,,,,,,,,1066.2543821996078,None,,,,,,,,,,,,,,,,,crime,new_sing,red,48,103,78,1061.34084159974,None,1061.34084159974,None,1,3.1924072997644544,1061.34084159974,None,1064.5791883999482,None,1065.0869624996558,None,1065.0869624996558,None,n,1.1422998001798987,1065.0869624996558,None,,,color21,001,2021_Nov_08_1729,ProdSingRedo,3.2.3,59.90351947977005,
,,,,49,0,49,0,,,,,,,,,,,,,,,,,,,,,,,,1074.5468255998567,None,,,,,,,,,,,,,,,,,thick,new_sing,red,49,117,327,1066.7835798999295,None,1066.7835798999295,None,3,4.901299699675292,1066.7835798999295,None,1071.7056144997478,None,1072.2297902996652,None,1072.2297902996652,None,f,2.287612000014633,1072.2297902996652,None,,,color21,001,2021_Nov_08_1729,ProdSingRedo,3.2.3,59.90351947977005,
,,,,50,0,50,0,,,,,,,,,,,,,,,,,,,,,,,,1081.10259939963,None,,,,,,,,,,,,,,,,,broke,aloud,blue,50,38,32,1075.0752235995606,None,1075.0752235995606,None,6,4.337632700335234,1075.0752235995606,None,1079.4454001998529,None,1079.9551915996708,None,1079.9551915996708,None,r,1.1222417997196317,1079.9551915996708,None,,,color21,001,2021_Nov_08_1729,ProdSingRedo,3.2.3,59.90351947977005,
,,,,51,0,51,0,,,,,,,,,,,,,,,,,,,,,,,,1087.126024399884,None,,,,,,,,,,,,,,,,,heavy,aloud,blue,51,48,151,1081.62736749975,None,1081.62736749975,None,4,3.6254804003983736,1081.62736749975,None,1085.292469999753,None,1085.815966999624,None,1085.815966999624,None,f,1.277301300317049,1085.815966999624,None,,,color21,001,2021_Nov_08_1729,ProdSingRedo,3.2.3,59.90351947977005,
,,,,52,0,52,0,,,,,,,,,,,,,,,,,,,,,,,,1091.3833995996974,None,,,,,,,,,,,,,,,,,vision,silent,yellow,52,79,347,1087.6551173999906,None,1087.6551173999906,None,1,1.6381899998523295,1087.6551173999906,None,1089.3385006999597,None,1089.8487375997938,None,1089.8487375997938,None,n,1.4926183000206947,1089.8487375997938,None,,,color21,001,2021_Nov_08_1729,ProdSingRedo,3.2.3,59.90351947977005,
,,,,53,0,53,0,,,,,,,,,,,,,,,,,,,,,,,,1099.7546483995393,None,,,,,,,,,,,,,,,,,judge,silent,yellow,53,61,166,1091.9109697998501,None,1091.9109697998501,None,1,6.590364399831742,1091.9109697998501,None,1098.550978699699,None,1099.0856566997245,None,1099.0856566997245,None,n,0.6396061996929348,1099.0856566997245,None,,,color21,001,2021_Nov_08_1729,ProdSingRedo,3.2.3,59.90351947977005,
,,,,54,0,54,0,,,,,,,,,,,,,,,,,,,,,,,,1106.4620446995832,None,,,,,,,,,,,,,,,,,foundation,new_silent,yellow,54,163,132,1100.284914799966,None,1100.284914799966,None,3,2.5686734998598695,1100.284914799966,None,1102.9119493998587,None,1103.4328628997318,None,1103.4328628997318,None,f,2.996356700081378,1103.4328628997318,None,,,color21,001,2021_Nov_08_1729,ProdSingRedo,3.2.3,59.90351947977005,
,,,,55,0,55,0,,,,,,,,,,,,,,,,,,,,,,,,1112.3346002995968,None,,,,,,,,,,,,,,,,,entrance,aloud,blue,55,34,115,1106.993230899796,None,1106.993230899796,None,6,3.7641196004115045,1106.993230899796,None,1110.8014243999496,None,1111.322125799954,None,1111.322125799954,None,r,0.9791414001956582,1111.322125799954,None,,,color21,001,2021_Nov_08_1729,ProdSingRedo,3.2.3,59.90351947977005,
,,,,56,0,56,0,,,,,,,,,,,,,,,,,,,,,,,,1117.0732885999605,None,,,,,,,,,,,,,,,,,empty,aloud,blue,56,31,112,1112.861980299931,None,1112.861980299931,None,6,2.431380500085652,1112.861980299931,None,1115.3390922998078,None,1115.855792499613,None,1115.855792499613,None,f,1.189536000136286,1115.855792499613,None,,,color21,001,2021_Nov_08_1729,ProdSingRedo,3.2.3,59.90351947977005,
,,,,57,0,57,0,,,,,,,,,,,,,,,,,,,,,,,,1121.543112799991,None,,,,,,,,,,,,,,,,,portion,sing,red,57,10,228,1117.5946835996583,None,1117.5946835996583,None,1,2.1467388002201915,1117.5946835996583,None,1119.7840205999091,None,1120.2934686997905,None,1120.2934686997905,None,n,1.2157518002204597,1120.2934686997905,None,,,color21,001,2021_Nov_08_1729,ProdSingRedo,3.2.3,59.90351947977005,
,,,,58,0,58,0,,,,,,,,,,,,,,,,,,,,,,,,1125.0164796998724,None,,,,,,,,,,,,,,,,,guard,sing,red,58,8,145,1122.0683573996648,None,1122.0683573996648,None,3,1.8649376998655498,1122.0683573996648,None,1123.9843213995919,None,1124.5009135999717,None,1124.5009135999717,None,f,0.48039359971880913,1124.5009135999717,None,,,color21,001,2021_Nov_08_1729,ProdSingRedo,3.2.3,59.90351947977005,
,,,,59,0,59,0,,,,,,,,,,,,,,,,,,,,,,,,1129.1671083997935,None,,,,,,,,,,,,,,,,,novel,new_aloud,blue,59,125,202,1125.5432198997587,None,1125.5432198997587,None,1,1.7742709000594914,1125.5432198997587,None,1127.3699710997753,None,1127.887284499593,None,1127.887284499593,None,n,1.2540250001475215,1127.887284499593,None,,,color21,001,2021_Nov_08_1729,ProdSingRedo,3.2.3,59.90351947977005,
,,,,60,0,60,0,,,,,,,,,,,,,,,,,,,,,,,,1135.240235099569,None,,,,,,,,,,,,,,,,,sight,aloud,blue,60,56,286,1129.6960895997472,None,1129.6960895997472,None,2,4.1174185001291335,1129.6960895997472,None,1133.853419999592,None,1134.3778973999433,None,1134.3778973999433,None,n,0.8273255000822246,1134.3778973999433,None,,,color21,001,2021_Nov_08_1729,ProdSingRedo,3.2.3,59.90351947977005,
,,,,61,0,61,0,,,,,,,,,,,,,,,,,,,,,,,,1141.3390956996009,None,,,,,,,,,,,,,,,,,capital,new_silent,yellow,61,166,40,1135.7704366999678,None,1135.7704366999678,None,6,3.642910699825734,1135.7704366999678,None,1139.4631633996032,None,1139.97134729987,None,1139.97134729987,None,f,1.337797500193119,1139.97134729987,None,,,color21,001,2021_Nov_08_1729,ProdSingRedo,3.2.3,59.90351947977005,
,,,,62,0,62,0,,,,,,,,,,,,,,,,,,,,,,,,1145.2075698999688,None,,,,,,,,,,,,,,,,,running,silent,yellow,62,75,268,1141.8444333998486,None,1141.8444333998486,None,2,1.9368642000481486,1141.8444333998486,None,1143.832534399815,None,1144.3542538997717,None,1144.3542538997717,None,n,0.8109703003428876,1144.3542538997717,None,,,color21,001,2021_Nov_08_1729,ProdSingRedo,3.2.3,59.90351947977005,
,,,,63,0,63,0,,,,,,,,,,,,,,,,,,,,,,,,1150.3562204996124,None,,,,,,,,,,,,,,,,,grade,new_sing,red,63,91,140,1145.7171481996775,None,1145.7171481996775,None,1,3.2081849998794496,1145.7171481996775,None,1148.9703494999558,None,1149.4900641995482,None,1149.4900641995482,None,n,0.8352465000934899,1149.4900641995482,None,,,color21,001,2021_Nov_08_1729,ProdSingRedo,3.2.3,59.90351947977005,
,,,,64,0,64,0,,,,,,,,,,,,,,,,,,,,,,,,1155.4617565996014,None,,,,,,,,,,,,,,,,,partner,new_silent,yellow,64,162,211,1150.8834923999384,None,1150.8834923999384,None,6,2.9059826997108757,1150.8834923999384,None,1153.8392450995743,None,1154.3634236999787,None,1154.3634236999787,None,r,1.0660036001354456,1154.3634236999787,None,,,color21,001,2021_Nov_08_1729,ProdSingRedo,3.2.3,59.90351947977005,
,,,,65,0,65,0,,,,,,,,,,,,,,,,,,,,,,,,1162.28359609982,None,,,,,,,,,,,,,,,,,material,new_silent,yellow,65,152,182,1155.993764799554,None,1155.993764799554,None,1,4.571518300101161,1155.993764799554,None,1160.6163259996101,None,1161.1423969999887,None,1161.1423969999887,None,n,1.1111033000051975,1161.1423969999887,None,,,color21,001,2021_Nov_08_1729,ProdSingRedo,3.2.3,59.90351947977005,
,,,,66,0,66,0,,,,,,,,,,,,,,,,,,,,,,,,1166.0559374997392,None,,,,,,,,,,,,,,,,,payment,new_sing,red,66,94,215,1162.811641999986,None,1162.811641999986,None,1,1.8257154999300838,1162.811641999986,None,1164.6945595997386,None,1165.2106383997016,None,1165.2106383997016,None,n,0.8186149997636676,1165.2106383997016,None,,,color21,001,2021_Nov_08_1729,ProdSingRedo,3.2.3,59.90351947977005,
,,,,67,0,67,0,,,,,,,,,,,,,,,,,,,,,,,,1174.4527162997983,None,,,,,,,,,,,,,,,,,provision,aloud,blue,67,57,243,1166.582958499901,None,1166.582958499901,None,3,6.934433899819851,1166.582958499901,None,1173.5659833997488,None,1174.0830944995396,None,1174.0830944995396,None,f,0.33820539992302656,1174.0830944995396,None,,,color21,001,2021_Nov_08_1729,ProdSingRedo,3.2.3,59.90351947977005,
,,,,68,0,68,0,,,,,,,,,,,,,,,,,,,,,,,,1181.7865226999857,None,,,,,,,,,,,,,,,,,stand,new_aloud,blue,68,138,302,1174.9790002997033,None,1174.9790002997033,None,1,4.450292400084436,1174.9790002997033,None,1179.4827499999665,None,1180.005258999765,None,1180.005258999765,None,n,1.7521375003270805,1180.005258999765,None,,,color21,001,2021_Nov_08_1729,ProdSingRedo,3.2.3,59.90351947977005,
,,,,69,0,69,0,,,,,,,,,,,,,,,,,,,,,,,,1186.774455299601,None,,,,,,,,,,,,,,,,,dispute,sing,red,69,6,99,1182.3116290997714,None,1182.3116290997714,None,2,2.877791500184685,1182.3116290997714,None,1185.239287099801,None,1185.7627838999033,None,1185.7627838999033,None,n,0.978689800016582,1185.7627838999033,None,,,color21,001,2021_Nov_08_1729,ProdSingRedo,3.2.3,59.90351947977005,
,,,,70,0,70,0,,,,,,,,,,,,,,,,,,,,,,,,1191.179730499629,None,,,,,,,,,,,,,,,,,science,silent,yellow,70,72,275,1187.3034757999703,None,1187.3034757999703,None,5,2.301745700184256,1187.3034757999703,None,1189.6403747997247,None,1190.1627583997324,None,1190.1627583997324,None,f,0.9868956999853253,1190.1627583997324,None,,,color21,001,2021_Nov_08_1729,ProdSingRedo,3.2.3,59.90351947977005,
,,,,71,0,71,0,,,,,,,,,,,,,,,,,,,,,,,,1202.5848867995664,None,,,,,,,,,,,,,,,,,estate,new_sing,red,71,118,119,1191.6915302998386,None,1191.6915302998386,None,1,9.27372880000621,1191.6915302998386,None,1201.0043820999563,None,1201.5274016996846,None,1201.5274016996846,None,n,1.0295314998365939,1201.5274016996846,None,,,color21,001,2021_Nov_08_1729,ProdSingRedo,3.2.3,59.90351947977005,
,,,,72,0,72,0,,,,,,,,,,,,,,,,,,,,,,,,1207.4787892997265,None,,,,,,,,,,,,,,,,,group,sing,red,72,13,143,1203.1035773996264,None,1203.1035773996264,None,2,3.181997399777174,1203.1035773996264,None,1206.3283633999527,None,1206.8481182996184,None,1206.8481182996184,None,n,0.5971605000086129,1206.8481182996184,None,,,color21,001,2021_Nov_08_1729,ProdSingRedo,3.2.3,59.90351947977005,
,,,,73,0,73,0,,,,,,,,,,,,,,,,,,,,,,,,1217.8156687999144,None,,,,,,,,,,,,,,,,,bitter,sing,red,73,16,23,1208.003801399842,None,1208.003801399842,None,4,7.353556400164962,1208.003801399842,None,1215.4068728997372,None,1215.9259051997215,None,1215.9259051997215,None,f,1.863351000007242,1215.9259051997215,None,,,color21,001,2021_Nov_08_1729,ProdSingRedo,3.2.3,59.90351947977005,
,,,,74,0,74,0,,,,,,,,,,,,,,,,,,,,,,,,1222.6602477999404,None,,,,,,,,,,,,,,,,,interior,new_aloud,blue,74,131,164,1218.3295040996745,None,1218.3295040996745,None,6,2.7398336003534496,1218.3295040996745,None,1221.102041799575,None,1221.6030995999463,None,1221.6030995999463,None,r,1.0262404000386596,1221.6030995999463,None,,,color21,001,2021_Nov_08_1729,ProdSingRedo,3.2.3,59.90351947977005,
,,,,75,0,75,0,,,,,,,,,,,,,,,,,,,,,,,,1226.8162042996846,None,,,,,,,,,,,,,,,,,brilliant,new_silent,yellow,75,167,30,1223.1913640997373,None,1223.1913640997373,None,2,2.2379343998618424,1223.1913640997373,None,1225.4794251997955,None,1226.0058224997483,None,1226.0058224997483,None,n,0.783674499951303,1226.0058224997483,None,,,color21,001,2021_Nov_08_1729,ProdSingRedo,3.2.3,59.90351947977005,
,,,,76,0,76,0,,,,,,,,,,,,,,,,,,,,,,,,1231.573303599842,None,,,,,,,,,,,,,,,,,discussion,aloud,blue,76,33,96,1227.3404489997774,None,1227.3404489997774,None,3,2.1528222002089024,1227.3404489997774,None,1229.5322233997285,None,1230.0511388997547,None,1230.0511388997547,None,f,1.4903317000716925,1230.0511388997547,None,,,color21,001,2021_Nov_08_1729,ProdSingRedo,3.2.3,59.90351947977005,
,,,,77,0,77,0,,,,,,,,,,,,,,,,,,,,,,,,1235.1741792997345,None,,,,,,,,,,,,,,,,,month,new_aloud,blue,77,143,193,1232.091707999818,None,1232.091707999818,None,1,1.7218293999321759,1232.091707999818,None,1233.8530537998304,None,1234.372446499765,None,1234.372446499765,None,n,0.7688933000899851,1234.372446499765,None,,,color21,001,2021_Nov_08_1729,ProdSingRedo,3.2.3,59.90351947977005,
,,,,78,0,78,0,,,,,,,,,,,,,,,,,,,,,,,,1239.8443394997157,None,,,,,,,,,,,,,,,,,pattern,new_sing,red,78,93,214,1235.702869899571,None,1235.702869899571,None,6,1.7585771000012755,1235.702869899571,None,1237.5114154997282,None,1238.0318868998438,None,1238.0318868998438,None,f,1.789830000139773,1238.0318868998438,None,,,color21,001,2021_Nov_08_1729,ProdSingRedo,3.2.3,59.90351947977005,
,,,,79,0,79,0,,,,,,,,,,,,,,,,,,,,,,,,1245.8002765998244,None,,,,,,,,,,,,,,,,,silence,aloud,blue,79,53,288,1240.367682099808,None,1240.367682099808,None,1,3.6938265999779105,1240.367682099808,None,1244.1074213995598,None,1244.6165371998213,None,1244.6165371998213,None,n,1.1569158001802862,1244.6165371998213,None,,,color21,001,2021_Nov_08_1729,ProdSingRedo,3.2.3,59.90351947977005,
,,,,80,0,80,0,,,,,,,,,,,,,,,,,,,,,,,,1250.0709351999685,None,,,,,,,,,,,,,,,,,strength,new_silent,yellow,80,160,310,1246.3251735996455,None,1246.3251735996455,None,3,1.920261399820447,1246.3251735996455,None,1248.2818050999194,None,1248.810683099553,None,1248.810683099553,None,f,1.226744900457561,1248.810683099553,None,,,color21,001,2021_Nov_08_1729,ProdSingRedo,3.2.3,59.90351947977005,
,,,,81,0,81,0,,,,,,,,,,,,,,,,,,,,,,,,1254.609755499754,None,,,,,,,,,,,,,,,,,angle,new_aloud,blue,81,128,7,1250.5994262997992,None,1250.5994262997992,None,1,2.5738571998663247,1250.5994262997992,None,1253.2229452999309,None,1253.7304113996215,None,1253.7304113996215,None,n,0.8509771996177733,1253.7304113996215,None,,,color21,001,2021_Nov_08_1729,ProdSingRedo,3.2.3,59.90351947977005,
,,,,82,0,82,0,,,,,,,,,,,,,,,,,,,,,,,,1259.6478502997197,None,,,,,,,,,,,,,,,,,welcome,sing,red,82,29,354,1255.1361670996994,None,1255.1361670996994,None,6,2.8056992003694177,1255.1361670996994,None,1257.9965876997449,None,1258.5201329998672,None,1258.5201329998672,None,r,1.10146649973467,1258.5201329998672,None,,,color21,001,2021_Nov_08_1729,ProdSingRedo,3.2.3,59.90351947977005,
,,,,83,0,83,0,,,,,,,,,,,,,,,,,,,,,,,,1264.9959601997398,None,,,,,,,,,,,,,,,,,budget,new_aloud,blue,83,127,34,1260.1794288996607,None,1260.1794288996607,None,1,2.1622021002694964,1260.1794288996607,None,1262.381485299673,None,1262.9152180999517,None,1262.9152180999517,None,f,2.0421035001054406,1262.9152180999517,None,,,color21,001,2021_Nov_08_1729,ProdSingRedo,3.2.3,59.90351947977005,
,,,,84,0,84,0,,,,,,,,,,,,,,,,,,,,,,,,1271.8832771996967,None,,,,,,,,,,,,,,,,,device,new_aloud,blue,84,129,93,1265.526141199749,None,1265.526141199749,None,1,5.023308100178838,1265.526141199749,None,1270.5923472996801,None,1271.1159424996004,None,1271.1159424996004,None,n,0.7294856002554297,1271.1159424996004,None,,,color21,001,2021_Nov_08_1729,ProdSingRedo,3.2.3,59.90351947977005,
,,,,85,0,85,0,,,,,,,,,,,,,,,,,,,,,,,,1276.7160790995695,None,,,,,,,,,,,,,,,,,society,new_sing,red,85,107,293,1272.4073352999985,None,1272.4073352999985,None,4,2.4862361000850797,1272.4073352999985,None,1274.9496089997701,None,1275.4674938996322,None,1275.4674938996322,None,f,1.2100415001623333,1275.4674938996322,None,,,color21,001,2021_Nov_08_1729,ProdSingRedo,3.2.3,59.90351947977005,
,,,,86,0,86,0,,,,,,,,,,,,,,,,,,,,,,,,1281.7461685999297,None,,,,,,,,,,,,,,,,,community,sing,red,86,7,63,1277.2471051998436,None,1277.2471051998436,None,1,1.790308099705726,1277.2471051998436,None,1279.086412199773,None,1279.5962465996854,None,1279.5962465996854,None,n,2.120784900151193,1279.5962465996854,None,,,color21,001,2021_Nov_08_1729,ProdSingRedo,3.2.3,59.90351947977005,
,,,,87,0,87,0,,,,,,,,,,,,,,,,,,,,,,,,1285.906829699874,None,,,,,,,,,,,,,,,,,bucket,new_aloud,blue,87,130,33,1282.2642172998749,None,1282.2642172998749,None,3,2.3732006000354886,1282.2642172998749,None,1284.6936260997318,None,1285.2158035999164,None,1285.2158035999164,None,f,0.6695912997238338,1285.2158035999164,None,,,color21,001,2021_Nov_08_1729,ProdSingRedo,3.2.3,59.90351947977005,
,,,,88,0,88,0,,,,,,,,,,,,,,,,,,,,,,,,1290.2802581996657,None,,,,,,,,,,,,,,,,,attack,sing,red,88,18,13,1286.4350127996877,None,1286.4350127996877,None,5,2.330338899977505,1286.4350127996877,None,1288.815881099552,None,1289.3357803998515,None,1289.3357803998515,None,r,0.9176447000354528,1289.3357803998515,None,,,color21,001,2021_Nov_08_1729,ProdSingRedo,3.2.3,59.90351947977005,
,,,,89,0,89,0,,,,,,,,,,,,,,,,,,,,,,,,1297.6534036998637,None,,,,,,,,,,,,,,,,,symbol,sing,red,89,26,321,1290.8105432996526,None,1290.8105432996526,None,3,4.402882499620318,1290.8105432996526,None,1295.2620366998017,None,1295.7892763996497,None,1295.7892763996497,None,f,1.8321911999955773,1295.7892763996497,None,,,color21,001,2021_Nov_08_1729,ProdSingRedo,3.2.3,59.90351947977005,
,,,,90,0,90,0,,,,,,,,,,,,,,,,,,,,,,,,1301.4887960995547,None,,,,,,,,,,,,,,,,,course,sing,red,90,4,74,1298.1810603998601,None,1298.1810603998601,None,1,1.6804217998869717,1298.1810603998601,None,1299.9061117996462,None,1300.4300437998027,None,1300.4300437998027,None,n,1.023492899723351,1300.4300437998027,None,,,color21,001,2021_Nov_08_1729,ProdSingRedo,3.2.3,59.90351947977005,
,,,,91,0,91,0,,,,,,,,,,,,,,,,,,,,,,,,1305.2940975995734,None,,,,,,,,,,,,,,,,,sunset,new_sing,red,91,102,315,1302.0190965998918,None,1302.0190965998918,None,2,1.8423156002536416,1302.0190965998918,None,1303.9049379997887,None,1304.431541599799,None,1304.431541599799,None,n,0.8377902996726334,1304.431541599799,None,,,color21,001,2021_Nov_08_1729,ProdSingRedo,3.2.3,59.90351947977005,
,,,,92,0,92,0,,,,,,,,,,,,,,,,,,,,,,,,1309.6641660998575,None,,,,,,,,,,,,,,,,,treatment,aloud,blue,92,46,339,1305.8225789996795,None,1305.8225789996795,None,6,2.110807499848306,1305.8225789996795,None,1307.9835254997015,None,1308.5001474996097,None,1308.5001474996097,None,f,1.1292946999892592,1308.5001474996097,None,,,color21,001,2021_Nov_08_1729,ProdSingRedo,3.2.3,59.90351947977005,
,,,,93,0,93,0,,,,,,,,,,,,,,,,,,,,,,,,1314.2532641999424,None,,,,,,,,,,,,,,,,,rapid,new_sing,red,93,96,252,1310.1941521996632,None,1310.1941521996632,None,2,2.611325199715793,1310.1941521996632,None,1312.850657199975,None,1313.3704388998449,None,1313.3704388998449,None,n,0.859199000056833,1313.3704388998449,None,,,color21,001,2021_Nov_08_1729,ProdSingRedo,3.2.3,59.90351947977005,
,,,,94,0,94,0,,,,,,,,,,,,,,,,,,,,,,,,1323.6302010999061,None,,,,,,,,,,,,,,,,,trial,new_silent,yellow,94,169,341,1314.779602999799,None,1314.779602999799,None,1,6.161930200178176,1314.779602999799,None,1320.9929712996818,None,1321.5143387997523,None,1321.5143387997523,None,n,2.0831455001607537,1321.5143387997523,None,,,color21,001,2021_Nov_08_1729,ProdSingRedo,3.2.3,59.90351947977005,
,,,,95,0,95,0,,,,,,,,,,,,,,,,,,,,,,,,1330.903639699798,None,,,,,,,,,,,,,,,,,quantity,aloud,blue,95,52,245,1324.1607756000012,None,1324.1607756000012,None,4,4.533008099999279,1324.1607756000012,None,1328.7371902996674,None,1329.2443227996118,None,1329.2443227996118,None,r,1.633053199853748,1329.2443227996118,None,,,color21,001,2021_Nov_08_1729,ProdSingRedo,3.2.3,59.90351947977005,
,,,,96,0,96,0,,,,,,,,,,,,,,,,,,,,,,,,1335.3247988997027,None,,,,,,,,,,,,,,,,,damage,aloud,blue,96,43,83,1331.4317871998064,None,1331.4317871998064,None,6,2.1499356999993324,1331.4317871998064,None,1333.6225399998948,None,1334.131882999558,None,1334.131882999558,None,r,1.1694948999211192,1334.131882999558,None,,,color21,001,2021_Nov_08_1729,ProdSingRedo,3.2.3,59.90351947977005,
,,,,97,0,97,0,,,,,,,,,,,,,,,,,,,,,,,,1340.0947513999417,None,,,,,,,,,,,,,,,,,order,new_sing,red,97,111,207,1335.8459090995602,None,1335.8459090995602,None,1,2.3996198000386357,1335.8459090995602,None,1338.2832385995425,None,1338.7911642999388,None,1338.7911642999388,None,n,1.270233899820596,1338.7911642999388,None,,,color21,001,2021_Nov_08_1729,ProdSingRedo,3.2.3,59.90351947977005,
,,,,98,0,98,0,,,,,,,,,,,,,,,,,,,,,,,,1345.4177910997532,None,,,,,,,,,,,,,,,,,hearing,new_aloud,blue,98,140,150,1340.623125899583,None,1340.623125899583,None,3,3.134405099786818,1340.623125899583,None,1343.797456199769,None,1344.32160929963,None,1344.32160929963,None,f,1.0678066001273692,1344.32160929963,None,,,color21,001,2021_Nov_08_1729,ProdSingRedo,3.2.3,59.90351947977005,
,,,,99,0,99,0,,,,,,,,,,,,,,,,,,,,,,,,1349.7301967996173,None,,,,,,,,,,,,,,,,,whole,new_silent,yellow,99,155,355,1345.9436488999054,None,1345.9436488999054,None,1,1.9981825998984277,1345.9436488999054,None,1347.9854087997228,None,1348.5068745999597,None,1348.5068745999597,None,n,1.186589399818331,1348.5068745999597,None,,,color21,001,2021_Nov_08_1729,ProdSingRedo,3.2.3,59.90351947977005,
,,,,100,0,100,0,,,,,,,,,,,,,,,,,,,,,,,,1353.6930474997498,None,,,,,,,,,,,,,,,,,medicine,sing,red,100,15,186,1350.245460699778,None,1350.245460699778,None,6,1.728050199802965,1350.245460699778,None,1352.0218241997063,None,1352.5416300999932,None,1352.5416300999932,None,f,1.1278623999096453,1352.5416300999932,None,,,color21,001,2021_Nov_08_1729,ProdSingRedo,3.2.3,59.90351947977005,
,,,,101,0,101,0,,,,,,,,,,,,,,,,,,,,,,,,1362.677172999829,None,,,,,,,,,,,,,,,,,addition,silent,yellow,101,89,2,1354.218412999995,None,1354.218412999995,None,1,5.21914830012247,1354.218412999995,None,1359.4821701999754,None,1360.0042579998262,None,1360.0042579998262,None,n,2.6568379001691937,1360.0042579998262,None,,,color21,001,2021_Nov_08_1729,ProdSingRedo,3.2.3,59.90351947977005,
,,,,102,0,102,0,,,,,,,,,,,,,,,,,,,,,,,,1368.4563388996758,None,,,,,,,,,,,,,,,,,quick,silent,yellow,102,77,248,1363.1893107998185,None,1363.1893107998185,None,2,3.255836599972099,1363.1893107998185,None,1366.4666246999986,None,1366.9916153997183,None,1366.9916153997183,None,f,1.4299456998705864,1366.9916153997183,None,,,color21,001,2021_Nov_08_1729,ProdSingRedo,3.2.3,59.90351947977005,
,,,,103,0,103,0,,,,,,,,,,,,,,,,,,,,,,,,1372.41135629965,None,,,,,,,,,,,,,,,,,skill,sing,red,103,2,289,1368.9884882997721,None,1368.9884882997721,None,6,1.9368671998381615,1368.9884882997721,None,1370.9727747999132,None,1371.4692391999997,None,1371.4692391999997,None,r,0.9123098999261856,1371.4692391999997,None,,,color21,001,2021_Nov_08_1729,ProdSingRedo,3.2.3,59.90351947977005,
,,,,104,0,104,0,,,,,,,,,,,,,,,,,,,,,,,,1376.3835099996068,None,,,,,,,,,,,,,,,,,shear,new_sing,red,104,109,283,1372.939588799607,None,1372.939588799607,None,1,1.9218945000320673,1372.939588799607,None,1374.9099081996828,None,1375.4149224995635,None,1375.4149224995635,None,n,0.9424772001802921,1375.4149224995635,None,,,color21,001,2021_Nov_08_1729,ProdSingRedo,3.2.3,59.90351947977005,
,,,,105,0,105,0,,,,,,,,,,,,,,,,,,,,,,,,1380.7359315999784,None,,,,,,,,,,,,,,,,,color,new_aloud,blue,105,135,56,1376.905830499716,None,1376.905830499716,None,1,2.3075866997241974,1376.905830499716,None,1379.2700779996812,None,1379.7847098996863,None,1379.7847098996863,None,n,0.9247351000085473,1379.7847098996863,None,,,color21,001,2021_Nov_08_1729,ProdSingRedo,3.2.3,59.90351947977005,
,,,,106,0,106,0,,,,,,,,,,,,,,,,,,,,,,,,1384.941567799542,None,,,,,,,,,,,,,,,,,rough,new_sing,red,106,116,266,1381.2636189996265,None,1381.2636189996265,None,1,2.197873600292951,1381.2636189996265,None,1383.5022595999762,None,1384.0131975999102,None,1384.0131975999102,None,n,0.9042460001073778,1384.0131975999102,None,,,color21,001,2021_Nov_08_1729,ProdSingRedo,3.2.3,59.90351947977005,
,,,,107,0,107,0,,,,,,,,,,,,,,,,,,,,,,,,1389.4110428998247,None,,,,,,,,,,,,,,,,,number,new_sing,red,107,112,203,1385.4688826999627,None,1385.4688826999627,None,5,2.072554299607873,1385.4688826999627,None,1387.5945787997916,None,1388.1244370997883,None,1388.1244370997883,None,f,1.2490723002701998,1388.1244370997883,None,,,color21,001,2021_Nov_08_1729,ProdSingRedo,3.2.3,59.90351947977005,
,,,,108,0,108,0,,,,,,,,,,,,,,,,,,,,,,,,1393.7005052999593,None,,,,,,,,,,,,,,,,,poetry,aloud,blue,108,49,225,1389.9375394997187,None,1389.9375394997187,None,6,2.2758364002220333,1389.9375394997187,None,1392.272570299916,None,1392.7741420995444,None,1392.7741420995444,None,r,0.8871248001232743,1392.7741420995444,None,,,color21,001,2021_Nov_08_1729,ProdSingRedo,3.2.3,59.90351947977005,
,,,,109,0,109,0,,,,,,,,,,,,,,,,,,,,,,,,1397.4364152997732,None,,,,,,,,,,,,,,,,,goose,new_silent,yellow,109,168,138,1394.224378099665,None,1394.224378099665,None,2,1.8132414002902806,1394.224378099665,None,1396.0813830997795,None,1396.5849516997114,None,1396.5849516997114,None,n,0.8205887000076473,1396.5849516997114,None,,,color21,001,2021_Nov_08_1729,ProdSingRedo,3.2.3,59.90351947977005,
,,,,110,0,110,0,,,,,,,,,,,,,,,,,,,,,,,,1403.7475833999924,None,,,,,,,,,,,,,,,,,session,new_silent,yellow,110,172,281,1397.9597368999384,None,1397.9597368999384,None,1,4.261799399740994,1397.9597368999384,None,1402.279352299869,None,1402.7946533998474,None,1402.7946533998474,None,n,0.9150123000144958,1402.7946533998474,None,,,color21,001,2021_Nov_08_1729,ProdSingRedo,3.2.3,59.90351947977005,
,,,,111,0,111,0,,,,,,,,,,,,,,,,,,,,,,,,1407.8952430998906,None,,,,,,,,,,,,,,,,,travel,aloud,blue,111,32,338,1404.267652099952,None,1404.267652099952,None,6,2.169793900102377,1404.267652099952,None,1406.476052599959,None,1406.9841123996302,None,1406.9841123996302,None,r,0.8773910999298096,1406.9841123996302,None,,,color21,001,2021_Nov_08_1729,ProdSingRedo,3.2.3,59.90351947977005,
,,,,112,0,112,0,,,,,,,,,,,,,,,,,,,,,,,,1411.9832876999862,None,,,,,,,,,,,,,,,,,opening,new_sing,red,112,101,205,1408.4219549996778,None,1408.4219549996778,None,4,2.423590799793601,1408.4219549996778,None,1410.899350399617,None,1411.4169500996359,None,1411.4169500996359,None,f,0.541049599647522,1411.4169500996359,None,,,color21,001,2021_Nov_08_1729,ProdSingRedo,3.2.3,59.90351947977005,
,,,,113,0,113,0,,,,,,,,,,,,,,,,,,,,,,,,1416.970842299983,None,,,,,,,,,,,,,,,,,voice,new_sing,red,113,90,348,1412.5080554997548,None,1412.5080554997548,None,4,2.657456799875945,1412.5080554997548,None,1415.2196370996535,None,1415.7422131998464,None,1415.7422131998464,None,f,1.1912716999650002,1415.7422131998464,None,,,color21,001,2021_Nov_08_1729,ProdSingRedo,3.2.3,59.90351947977005,
,,,,114,0,114,0,,,,,,,,,,,,,,,,,,,,,,,,1420.6085480996408,None,,,,,,,,,,,,,,,,,quiet,aloud,blue,114,39,249,1417.4970862995833,None,1417.4970862995833,None,1,1.8284277999773622,1417.4970862995833,None,1419.3768605999649,None,1419.8956765998155,None,1419.8956765998155,None,n,0.6857386999763548,1419.8956765998155,None,,,color21,001,2021_Nov_08_1729,ProdSingRedo,3.2.3,59.90351947977005,
,,,,115,0,115,0,,,,,,,,,,,,,,,,,,,,,,,,1425.2030202997848,None,,,,,,,,,,,,,,,,,right,new_silent,yellow,115,175,265,1421.1232803999446,None,1421.1232803999446,None,3,2.3061989000998437,1421.1232803999446,None,1423.4797751996666,None,1424.0010411995463,None,1424.0010411995463,None,f,1.1727156001143157,1424.0010411995463,None,,,color21,001,2021_Nov_08_1729,ProdSingRedo,3.2.3,59.90351947977005,
,,,,116,0,116,0,,,,,,,,,,,,,,,,,,,,,,,,1430.6195884998888,None,,,,,,,,,,,,,,,,,build,sing,red,116,24,35,1425.7240470997058,None,1425.7240470997058,None,5,3.193597999867052,1425.7240470997058,None,1428.9642174998298,None,1429.47194869956,None,1429.47194869956,None,n,1.1175456997007132,1429.47194869956,None,,,color21,001,2021_Nov_08_1729,ProdSingRedo,3.2.3,59.90351947977005,
,,,,117,0,117,0,,,,,,,,,,,,,,,,,,,,,,,,1436.6410122998059,None,,,,,,,,,,,,,,,,,raise,new_sing,red,117,114,250,1431.1483360999264,None,1431.1483360999264,None,4,3.761254500132054,1431.1483360999264,None,1434.9589289999567,None,1435.4777360996231,None,1435.4777360996231,None,f,1.12794389994815,1435.4777360996231,None,,,color21,001,2021_Nov_08_1729,ProdSingRedo,3.2.3,59.90351947977005,
,,,,118,0,118,0,,,,,,,,,,,,,,,,,,,,,,,,1442.363272699993,None,,,,,,,,,,,,,,,,,committee,new_sing,red,118,92,62,1437.1651638997719,None,1437.1651638997719,None,6,3.680340399965644,1437.1651638997719,None,1440.8927541999146,None,1441.4147823997773,None,1441.4147823997773,None,f,0.9189693001098931,1441.4147823997773,None,,,color21,001,2021_Nov_08_1729,ProdSingRedo,3.2.3,59.90351947977005,
,,,,119,0,119,0,,,,,,,,,,,,,,,,,,,,,,,,1445.8896965999156,None,,,,,,,,,,,,,,,,,republic,silent,yellow,119,84,260,1442.8952991999686,None,1442.8952991999686,None,1,1.750146099831909,1442.8952991999686,None,1444.7033991999924,None,1445.2250783997588,None,1445.2250783997588,None,n,0.6205735001713037,1445.2250783997588,None,,,color21,001,2021_Nov_08_1729,ProdSingRedo,3.2.3,59.90351947977005,
,,,,120,0,120,0,,,,,,,,,,,,,,,,,,,,,,,,1450.1220940998755,None,,,,,,,,,,,,,,,,,expansion,new_aloud,blue,120,121,123,1446.4144434998743,None,1446.4144434998743,None,1,2.759126199875027,1446.4144434998743,None,1449.2179469997063,None,1449.742990099825,None,1449.742990099825,None,n,0.34276580018922687,1449.742990099825,None,,,color21,001,2021_Nov_08_1729,ProdSingRedo,3.2.3,59.90351947977005,
,,,,121,0,121,0,,,,,,,,,,,,,,,,,,,,,,,,1455.2440950996242,None,,,,,,,,,,,,,,,,,waste,new_silent,yellow,121,161,350,1450.6463705999777,None,1450.6463705999777,None,2,2.7991567999124527,1450.6463705999777,None,1453.4863431998529,None,1454.0137484995648,None,1454.0137484995648,None,f,1.1998435999266803,1454.0137484995648,None,,,color21,001,2021_Nov_08_1729,ProdSingRedo,3.2.3,59.90351947977005,
,,,,122,0,122,0,,,,,,,,,,,,,,,,,,,,,,,,1459.7642411999404,None,,,,,,,,,,,,,,,,,growth,silent,yellow,122,64,144,1455.7937762998044,None,1455.7937762998044,None,4,2.4837825000286102,1455.7937762998044,None,1458.3302759998478,None,1458.8464764999226,None,1458.8464764999226,None,r,0.8952541998587549,1458.8464764999226,None,,,color21,001,2021_Nov_08_1729,ProdSingRedo,3.2.3,59.90351947977005,
,,,,123,0,123,0,,,,,,,,,,,,,,,,,,,,,,,,1464.5709723997861,None,,,,,,,,,,,,,,,,,literature,new_aloud,blue,123,134,173,1460.290446699597,None,1460.290446699597,None,1,3.019251100253314,1460.290446699597,None,1463.3511257995851,None,1463.8747565997764,None,1463.8747565997764,None,n,0.6667979001067579,1463.8747565997764,None,,,color21,001,2021_Nov_08_1729,ProdSingRedo,3.2.3,59.90351947977005,
,,,,124,0,124,0,,,,,,,,,,,,,,,,,,,,,,,,1468.3905323999934,None,,,,,,,,,,,,,,,,,weather,new_sing,red,124,110,352,1465.1079845996574,None,1465.1079845996574,None,4,1.9855239996686578,1465.1079845996574,None,1467.1430460996926,None,1467.6607347996905,None,1467.6607347996905,None,n,0.6970013999380171,1467.6607347996905,None,,,color21,001,2021_Nov_08_1729,ProdSingRedo,3.2.3,59.90351947977005,
,,,,125,0,125,0,,,,,,,,,,,,,,,,,,,,,,,,1472.1441884995438,None,,,,,,,,,,,,,,,,,error,aloud,blue,125,40,117,1468.9122508997098,None,1468.9122508997098,None,6,2.005201800260693,1468.9122508997098,None,1470.9538120999932,None,1471.4597463998944,None,1471.4597463998944,None,r,0.6578413997776806,1471.4597463998944,None,,,color21,001,2021_Nov_08_1729,ProdSingRedo,3.2.3,59.90351947977005,
,,,,126,0,126,0,,,,,,,,,,,,,,,,,,,,,,,,1475.5637018997222,None,,,,,,,,,,,,,,,,,length,aloud,blue,126,42,169,1472.6753209996969,None,1472.6753209996969,None,6,1.7301056999713182,1472.6753209996969,None,1474.4460010998882,None,1474.9659946998581,None,1474.9659946998581,None,r,0.559750400017947,1474.9659946998581,None,,,color21,001,2021_Nov_08_1729,ProdSingRedo,3.2.3,59.90351947977005,
,,,,127,0,127,0,,,,,,,,,,,,,,,,,,,,,,,,1479.9387694997713,None,,,,,,,,,,,,,,,,,thing,silent,yellow,127,68,328,1476.0907605998218,None,1476.0907605998218,None,3,1.794805200304836,1476.0907605998218,None,1477.9281334998086,None,1478.4515282995999,None,1478.4515282995999,None,f,1.4580791997723281,1478.4515282995999,None,,,color21,001,2021_Nov_08_1729,ProdSingRedo,3.2.3,59.90351947977005,
,,,,128,0,128,0,,,,,,,,,,,,,,,,,,,,,,,,1483.2211992996745,None,,,,,,,,,,,,,,,,,profession,new_aloud,blue,128,126,241,1480.46494349977,None,1480.46494349977,None,1,1.4364952999167144,1480.46494349977,None,1481.952017699834,None,1482.4751925999299,None,1482.4751925999299,None,n,0.7222971003502607,1482.4751925999299,None,,,color21,001,2021_Nov_08_1729,ProdSingRedo,3.2.3,59.90351947977005,
,,,,129,0,129,0,,,,,,,,,,,,,,,,,,,,,,,,1486.9297540998086,None,,,,,,,,,,,,,,,,,discovery,aloud,blue,129,35,95,1483.7492924998514,None,1483.7492924998514,None,6,1.8401959999464452,1483.7492924998514,None,1485.6452307999134,None,1486.168105599936,None,1486.168105599936,None,r,0.73338139988482,1486.168105599936,None,,,color21,001,2021_Nov_08_1729,ProdSingRedo,3.2.3,59.90351947977005,
,,,,130,0,130,0,,,,,,,,,,,,,,,,,,,,,,,,1491.472456399817,None,,,,,,,,,,,,,,,,,trail,new_sing,red,130,108,336,1487.4525561998598,None,1487.4525561998598,None,6,2.8009981997311115,1487.4525561998598,None,1490.2961897999048,None,1490.8186026997864,None,1490.8186026997864,None,r,0.6345057003200054,1490.8186026997864,None,,,color21,001,2021_Nov_08_1729,ProdSingRedo,3.2.3,59.90351947977005,
,,,,131,0,131,0,,,,,,,,,,,,,,,,,,,,,,,,1494.9829498999752,None,,,,,,,,,,,,,,,,,majority,sing,red,131,3,176,1491.9764584996738,None,1491.9764584996738,None,1,1.949324400164187,1491.9764584996738,None,1493.969801499974,None,1494.4880606997758,None,1494.4880606997758,None,n,0.46165290009230375,1494.4880606997758,None,,,color21,001,2021_Nov_08_1729,ProdSingRedo,3.2.3,59.90351947977005,
,,,,132,0,132,0,,,,,,,,,,,,,,,,,,,,,,,,1499.2573180999607,None,,,,,,,,,,,,,,,,,company,silent,yellow,132,82,64,1495.511517799925,None,1495.511517799925,None,6,2.294080500025302,1495.511517799925,None,1497.8543523997068,None,1498.3794959997758,None,1498.3794959997758,None,f,0.8500433997251093,1498.3794959997758,None,,,color21,001,2021_Nov_08_1729,ProdSingRedo,3.2.3,59.90351947977005,
,,,,133,0,133,0,,,,,,,,,,,,,,,,,,,,,,,,1504.6803790996782,None,,,,,,,,,,,,,,,,,primary,new_silent,yellow,133,170,234,1499.7860281998292,None,1499.7860281998292,None,3,3.219600699841976,1499.7860281998292,None,1503.0609462996945,None,1503.5801570997573,None,1503.5801570997573,None,n,1.0654306998476386,1503.5801570997573,None,,,color21,001,2021_Nov_08_1729,ProdSingRedo,3.2.3,59.90351947977005,
,,,,134,0,134,0,,,,,,,,,,,,,,,,,,,,,,,,1508.2300893999636,None,,,,,,,,,,,,,,,,,article,new_silent,yellow,134,174,11,1505.1982395998202,None,1505.1982395998202,None,1,1.471408300101757,1505.1982395998202,None,1506.7131623998284,None,1507.2321055997163,None,1507.2321055997163,None,n,0.9654934001155198,1507.2321055997163,None,,,color21,001,2021_Nov_08_1729,ProdSingRedo,3.2.3,59.90351947977005,
,,,,135,0,135,0,,,,,,,,,,,,,,,,,,,,,,,,1511.883412099909,None,,,,,,,,,,,,,,,,,private,silent,yellow,135,88,237,1508.7586597995833,None,1508.7586597995833,None,2,1.774908300023526,1508.7586597995833,None,1510.5770746995695,None,1511.0858671995811,None,1511.0858671995811,None,n,0.7597007998265326,1511.0858671995811,None,,,color21,001,2021_Nov_08_1729,ProdSingRedo,3.2.3,59.90351947977005,
,,,,136,0,136,0,,,,,,,,,,,,,,,,,,,,,,,,1515.304254599847,None,,,,,,,,,,,,,,,,,public,sing,red,136,19,244,1512.4142007995397,None,1512.4142007995397,None,1,1.9194779000245035,1512.4142007995397,None,1514.3871747995727,None,1514.9109793999232,None,1514.9109793999232,None,n,0.36679610004648566,1514.9109793999232,None,,,color21,001,2021_Nov_08_1729,ProdSingRedo,3.2.3,59.90351947977005,
,,,,137,0,137,0,,,,,,,,,,,,,,,,,,,,,,,,1518.824451699853,None,,,,,,,,,,,,,,,,,history,silent,yellow,137,70,153,1515.8303127996624,None,1515.8303127996624,None,5,1.5913396999239922,1515.8303127996624,None,1517.4668664997444,None,1517.9772519995458,None,1517.9772519995458,None,f,0.8203436997719109,1517.9772519995458,None,,,color21,001,2021_Nov_08_1729,ProdSingRedo,3.2.3,59.90351947977005,
,,,,138,0,138,0,,,,,,,,,,,,,,,,,,,,,,,,1522.3273802995682,None,,,,,,,,,,,,,,,,,evidence,sing,red,138,22,120,1519.3410963998176,None,1519.3410963998176,None,2,1.792218199931085,1519.3410963998176,None,1521.1539436997846,None,1521.6697032996453,None,1521.6697032996453,None,n,0.6319955000653863,1521.6697032996453,None,,,color21,001,2021_Nov_08_1729,ProdSingRedo,3.2.3,59.90351947977005,
,,,,139,0,139,0,,,,,,,,,,,,,,,,,,,,,,,,1526.716117899865,None,,,,,,,,,,,,,,,,,bicycle,silent,yellow,139,86,21,1522.8542941999622,None,1522.8542941999622,None,4,1.9191287998110056,1522.8542941999622,None,1524.8152068997733,None,1525.3357735997997,None,1525.3357735997997,None,n,1.3578837998211384,1525.3357735997997,None,,,color21,001,2021_Nov_08_1729,ProdSingRedo,3.2.3,59.90351947977005,
,,,,140,0,140,0,,,,,,,,,,,,,,,,,,,,,,,,1531.6542521999218,None,,,,,,,,,,,,,,,,,break,new_sing,red,140,104,26,1527.243193099741,None,1527.243193099741,None,6,2.1144075002521276,1527.243193099741,None,1529.4036027998663,None,1529.9151313998736,None,1529.9151313998736,None,r,1.7064167000353336,1529.9151313998736,None,,,color21,001,2021_Nov_08_1729,ProdSingRedo,3.2.3,59.90351947977005,
,,,,141,0,141,0,,,,,,,,,,,,,,,,,,,,,,,,1535.7582339998335,None,,,,,,,,,,,,,,,,,notice,sing,red,141,12,201,1532.1770107997581,None,1532.1770107997581,None,3,2.4205375001765788,1532.1770107997581,None,1534.6370614999905,None,1535.1560273999348,None,1535.1560273999348,None,n,0.5774369002319872,1535.1560273999348,None,,,color21,001,2021_Nov_08_1729,ProdSingRedo,3.2.3,59.90351947977005,
,,,,142,0,142,0,,,,,,,,,,,,,,,,,,,,,,,,1539.695631999988,None,,,,,,,,,,,,,,,,,union,aloud,blue,142,58,344,1536.283786199987,None,1536.283786199987,None,3,1.7377605997025967,1536.283786199987,None,1538.0716949999332,None,1538.5830106996,None,1538.5830106996,None,f,1.07867919979617,1538.5830106996,None,,,color21,001,2021_Nov_08_1729,ProdSingRedo,3.2.3,59.90351947977005,
,,,,143,0,143,0,,,,,,,,,,,,,,,,,,,,,,,,1545.0284943999723,None,,,,,,,,,,,,,,,,,impact,silent,yellow,143,80,157,1540.2214718000032,None,1540.2214718000032,None,4,1.9924488998949528,1540.2214718000032,None,1542.2567308996804,None,1542.778201899957,None,1542.778201899957,None,n,2.2033301000483334,1542.778201899957,None,,,color21,001,2021_Nov_08_1729,ProdSingRedo,3.2.3,59.90351947977005,
,,,,144,0,144,0,,,,,,,,,,,,,,,,,,,,,,,,1549.0761847998947,None,,,,,,,,,,,,,,,,,executive,sing,red,144,28,122,1545.5645327996463,None,1545.5645327996463,None,6,1.7768761003389955,1545.5645327996463,None,1547.3813757998869,None,1547.8951711999252,None,1547.8951711999252,None,f,1.1423292998224497,1547.8951711999252,None,,,color21,001,2021_Nov_08_1729,ProdSingRedo,3.2.3,59.90351947977005,
,,,,145,0,145,0,,,,,,,,,,,,,,,,,,,,,,,,1552.7737391996197,None,,,,,,,,,,,,,,,,,detective,new_aloud,blue,145,120,92,1549.6037694998085,None,1549.6037694998085,None,5,1.7774362000636756,1549.6037694998085,None,1551.4030967997387,None,1551.916412399616,None,1551.916412399616,None,r,0.8251932999119163,1551.916412399616,None,,,color21,001,2021_Nov_08_1729,ProdSingRedo,3.2.3,59.90351947977005,
,,,,146,0,146,0,,,,,,,,,,,,,,,,,,,,,,,,1556.6455955998972,None,,,,,,,,,,,,,,,,,resistance,aloud,blue,146,41,262,1553.307398099918,None,1553.307398099918,None,4,1.6502133002504706,1553.307398099918,None,1555.0051041999832,None,1555.5321170999669,None,1555.5321170999669,None,f,1.089436899870634,1555.5321170999669,None,,,color21,001,2021_Nov_08_1729,ProdSingRedo,3.2.3,59.90351947977005,
,,,,147,0,147,0,,,,,,,,,,,,,,,,,,,,,,,,1560.4476972999983,None,,,,,,,,,,,,,,,,,store,new_aloud,blue,147,145,305,1557.1701195999049,None,1557.1701195999049,None,4,1.5795377003960311,1557.1701195999049,None,1558.7922393996269,None,1559.315471699927,None,1559.315471699927,None,f,1.0981354997493327,1559.315471699927,None,,,color21,001,2021_Nov_08_1729,ProdSingRedo,3.2.3,59.90351947977005,
,,,,148,0,148,0,,,,,,,,,,,,,,,,,,,,,,,,1563.8520836997777,None,,,,,,,,,,,,,,,,,congress,new_silent,yellow,148,165,67,1560.9801100995392,None,1560.9801100995392,None,1,1.5214936998672783,1560.9801100995392,None,1562.5517945997417,None,1563.0716608995572,None,1563.0716608995572,None,n,0.7420932999812067,1563.0716608995572,None,,,color21,001,2021_Nov_08_1729,ProdSingRedo,3.2.3,59.90351947977005,
,,,,149,0,149,0,,,,,,,,,,,,,,,,,,,,,,,,1567.6896036998369,None,,,,,,,,,,,,,,,,,comedy,new_sing,red,149,105,58,1564.3826456996612,None,1564.3826456996612,None,1,1.9749861001037061,1564.3826456996612,None,1566.4043844998814,None,1566.9239930999465,None,1566.9239930999465,None,n,0.7378565003164113,1566.9239930999465,None,,,color21,001,2021_Nov_08_1729,ProdSingRedo,3.2.3,59.90351947977005,
,,,,150,0,150,0,,,,,,,,,,,,,,,,,,,,,,,,1572.4319718996994,None,,,,,,,,,,,,,,,,,dozen,sing,red,150,23,102,1568.217827099841,None,1568.217827099841,None,6,2.3477932000532746,1568.217827099841,None,1570.6107295998372,None,1571.1319313999265,None,1571.1319313999265,None,f,1.2576353000476956,1571.1319313999265,None,,,color21,001,2021_Nov_08_1729,ProdSingRedo,3.2.3,59.90351947977005,
,,,,151,0,151,0,,,,,,,,,,,,,,,,,,,,,,,,1575.6636128998362,None,,,,,,,,,,,,,,,,,victory,new_silent,yellow,151,158,346,1572.9635602999479,None,1572.9635602999479,None,1,1.346022800076753,1572.9635602999479,None,1574.3634673999622,None,1574.885979899671,None,1574.885979899671,None,n,0.7516779997386038,1574.885979899671,None,,,color21,001,2021_Nov_08_1729,ProdSingRedo,3.2.3,59.90351947977005,
,,,,152,0,152,0,,,,,,,,,,,,,,,,,,,,,,,,1579.4009767998941,None,,,,,,,,,,,,,,,,,childhood,new_sing,red,152,113,49,1576.1856360998936,None,1576.1856360998936,None,1,1.660010099876672,1576.1856360998936,None,1577.8908651997335,None,1578.3950035995804,None,1578.3950035995804,None,n,0.978621399961412,1578.3950035995804,None,,,color21,001,2021_Nov_08_1729,ProdSingRedo,3.2.3,59.90351947977005,
,,,,153,0,153,0,,,,,,,,,,,,,,,,,,,,,,,,1583.181108099874,None,,,,,,,,,,,,,,,,,search,aloud,blue,153,50,276,1579.9270731997676,None,1579.9270731997676,None,4,1.750444300007075,1579.9270731997676,None,1581.6993316998705,None,1582.213239299599,None,1582.213239299599,None,f,0.9520056000910699,1582.213239299599,None,,,color21,001,2021_Nov_08_1729,ProdSingRedo,3.2.3,59.90351947977005,
,,,,154,0,154,0,,,,,,,,,,,,,,,,,,,,,,,,1586.6923022996634,None,,,,,,,,,,,,,,,,,education,sing,red,154,17,108,1583.6832729997113,None,1583.6832729997113,None,2,1.5303291999734938,1583.6832729997113,None,1585.259388299659,None,1585.7640503998846,None,1585.7640503998846,None,n,0.9055399000644684,1585.7640503998846,None,,,color21,001,2021_Nov_08_1729,ProdSingRedo,3.2.3,59.90351947977005,
,,,,155,0,155,0,,,,,,,,,,,,,,,,,,,,,,,,1589.8960223998874,None,,,,,,,,,,,,,,,,,account,new_silent,yellow,155,164,1,1587.2182084997185,None,1587.2182084997185,None,1,1.7874107998795807,1587.2182084997185,None,1589.0482861995697,None,1589.5684106997214,None,1589.5684106997214,None,n,0.30114590004086494,1589.5684106997214,None,,,color21,001,2021_Nov_08_1729,ProdSingRedo,3.2.3,59.90351947977005,
,,,,156,0,156,0,,,,,,,,,,,,,,,,,,,,,,,,1592.916044099722,None,,,,,,,,,,,,,,,,,disease,aloud,blue,156,36,97,1590.4244306995533,None,1590.4244306995533,None,1,1.397172899916768,1590.4244306995533,None,1591.8506494998,None,1592.3656804999337,None,1592.3656804999337,None,n,0.5200672000646591,1592.3656804999337,None,,,color21,001,2021_Nov_08_1729,ProdSingRedo,3.2.3,59.90351947977005,
,,,,157,0,157,0,,,,,,,,,,,,,,,,,,,,,,,,1596.5466427998617,None,,,,,,,,,,,,,,,,,nation,silent,yellow,157,83,198,1593.442425399553,None,1593.442425399553,None,4,1.5951614999212325,1593.442425399553,None,1595.0852436996065,None,1595.6034083999693,None,1595.6034083999693,None,f,0.898450399748981,1595.6034083999693,None,,,color21,001,2021_Nov_08_1729,ProdSingRedo,3.2.3,59.90351947977005,
,,,,158,0,158,0,,,,,,,,,,,,,,,,,,,,,,,,1599.987832499668,None,,,,,,,,,,,,,,,,,personnel,new_aloud,blue,158,122,219,1597.077637199778,None,1597.077637199778,None,5,1.6959917000494897,1597.077637199778,None,1598.8196741999127,None,1599.3361451998353,None,1599.3361451998353,None,r,0.6295289997942746,1599.3361451998353,None,,,color21,001,2021_Nov_08_1729,ProdSingRedo,3.2.3,59.90351947977005,
,,,,159,0,159,0,,,,,,,,,,,,,,,,,,,,,,,,1603.843008699827,None,,,,,,,,,,,,,,,,,theme,silent,yellow,159,74,326,1600.513615399599,None,1600.513615399599,None,6,1.8682181001640856,1600.513615399599,None,1602.4183198995888,None,1602.92510999972,None,1602.92510999972,None,f,0.8804955999366939,1602.92510999972,None,,,color21,001,2021_Nov_08_1729,ProdSingRedo,3.2.3,59.90351947977005,
,,,,160,0,160,0,,,,,,,,,,,,,,,,,,,,,,,,1609.830935999751,None,,,,,,,,,,,,,,,,,second,silent,yellow,160,81,278,1604.3647151999176,None,1604.3647151999176,None,1,4.185057200025767,1604.3647151999176,None,1608.5915463999845,None,1609.1047315998003,None,1609.1047315998003,None,n,0.6931008999235928,1609.1047315998003,None,,,color21,001,2021_Nov_08_1729,ProdSingRedo,3.2.3,59.90351947977005,
,,,,161,0,161,0,,,,,,,,,,,,,,,,,,,,,,,,1612.717944599688,None,,,,,,,,,,,,,,,,,smell,new_sing,red,161,95,291,1610.3543774997815,None,1610.3543774997815,None,1,1.3869281001389027,1610.3543774997815,None,1611.7625205996446,None,1612.2802592995577,None,1612.2802592995577,None,n,0.41334240045398474,1612.2802592995577,None,,,color21,001,2021_Nov_08_1729,ProdSingRedo,3.2.3,59.90351947977005,
,,,,162,0,162,0,,,,,,,,,,,,,,,,,,,,,,,,1616.5377159998752,None,,,,,,,,,,,,,,,,,finance,silent,yellow,162,66,129,1613.2481185998768,None,1613.2481185998768,None,6,1.485642900224775,1613.2481185998768,None,1614.784510199912,None,1615.2946293996647,None,1615.2946293996647,None,f,1.215014100074768,1615.2946293996647,None,,,color21,001,2021_Nov_08_1729,ProdSingRedo,3.2.3,59.90351947977005,
,,,,163,0,163,0,,,,,,,,,,,,,,,,,,,,,,,,1620.0741877998225,None,,,,,,,,,,,,,,,,,space,sing,red,163,21,297,1617.0663827997632,None,1617.0663827997632,None,6,2.075322600081563,1617.0663827997632,None,1619.192809399683,None,1619.710141299758,None,1619.710141299758,None,r,0.3354491996578872,1619.710141299758,None,,,color21,001,2021_Nov_08_1729,ProdSingRedo,3.2.3,59.90351947977005,
,,,,164,0,164,0,,,,,,,,,,,,,,,,,,,,,,,,1623.2104302998632,None,,,,,,,,,,,,,,,,,safety,silent,yellow,164,78,270,1620.6036987998523,None,1620.6036987998523,None,1,1.3939813002943993,1620.6036987998523,None,1622.0481969998218,None,1622.5689945998602,None,1622.5689945998602,None,n,0.6046758000738919,1622.5689945998602,None,,,color21,001,2021_Nov_08_1729,ProdSingRedo,3.2.3,59.90351947977005,
,,,,165,0,165,0,,,,,,,,,,,,,,,,,,,,,,,,1631.2204913999885,None,,,,,,,,,,,,,,,,,minute,aloud,blue,165,37,192,1623.7332275998779,None,1623.7332275998779,None,1,5.792639600113034,1623.7332275998779,None,1629.5668754996732,None,1630.0878841998056,None,1630.0878841998056,None,f,1.1097976001910865,1630.0878841998056,None,,,color21,001,2021_Nov_08_1729,ProdSingRedo,3.2.3,59.90351947977005,
,,,,166,0,166,0,,,,,,,,,,,,,,,,,,,,,,,,1639.8121344996616,None,,,,,,,,,,,,,,,,,people,sing,red,166,25,216,1631.7463030996732,None,1631.7463030996732,None,3,7.091067200060934,1631.7463030996732,None,1638.853321599774,None,1639.364223299548,None,1639.364223299548,None,f,0.417506099678576,1639.364223299548,None,,,color21,001,2021_Nov_08_1729,ProdSingRedo,3.2.3,59.90351947977005,
,,,,167,0,167,0,,,,,,,,,,,,,,,,,,,,,,,,1643.5991854998283,None,,,,,,,,,,,,,,,,,solution,sing,red,167,11,294,1640.3405268997885,None,1640.3405268997885,None,6,1.6409134999848902,1640.3405268997885,None,1642.0111522995867,None,1642.5349451997317,None,1642.5349451997317,None,r,1.0309834997169673,1642.5349451997317,None,,,color21,001,2021_Nov_08_1729,ProdSingRedo,3.2.3,59.90351947977005,
,,,,168,0,168,0,,,,,,,,,,,,,,,,,,,,,,,,1647.0287248999812,None,,,,,,,,,,,,,,,,,household,aloud,blue,168,59,154,1644.1260088998824,None,1644.1260088998824,None,1,1.3433391000144184,1644.1260088998824,None,1645.5073088998906,None,1646.02637329977,None,1646.02637329977,None,n,0.9791611996479332,1646.02637329977,None,,,color21,001,2021_Nov_08_1729,ProdSingRedo,3.2.3,59.90351947977005,
,,,,169,0,169,0,,,,,,,,,,,,,,,,,,,,,,,,1651.8072230997495,None,,,,,,,,,,,,,,,,,swift,new_sing,red,169,98,320,1647.5468662995845,None,1647.5468662995845,None,1,3.3307747999206185,1647.5468662995845,None,1650.9245833996683,None,1651.4439583998173,None,1651.4439583998173,None,n,0.3300398997962475,1651.4439583998173,None,,,color21,001,2021_Nov_08_1729,ProdSingRedo,3.2.3,59.90351947977005,
,,,,170,0,170,0,,,,,,,,,,,,,,,,,,,,,,,,1655.6439901995473,None,,,,,,,,,,,,,,,,,display,new_silent,yellow,170,153,98,1652.3374771997333,None,1652.3374771997333,None,5,1.3243475002236664,1652.3374771997333,None,1653.7122475998476,None,1654.2336773998104,None,1654.2336773998104,None,r,1.388042500242591,1654.2336773998104,None,,,color21,001,2021_Nov_08_1729,ProdSingRedo,3.2.3,59.90351947977005,
,,,,171,0,171,0,,,,,,,,,,,,,,,,,,,,,,,,1660.05284629995,None,,,,,,,,,,,,,,,,,cross,new_sing,red,171,115,80,1656.165466999635,None,1656.165466999635,None,6,2.5763349002227187,1656.165466999635,None,1658.793461999856,None,1659.3160072998144,None,1659.3160072998144,None,n,0.6976165999658406,1659.3160072998144,None,,,color21,001,2021_Nov_08_1729,ProdSingRedo,3.2.3,59.90351947977005,
,,,,172,0,172,0,,,,,,,,,,,,,,,,,,,,,,,,1667.7389585999772,None,,,,,,,,,,,,,,,,,fellow,new_silent,yellow,172,176,126,1660.5810071998276,None,1660.5810071998276,None,4,4.864571699872613,1660.5810071998276,None,1665.4783300999552,None,1665.9900113996118,None,1665.9900113996118,None,f,1.7115865000523627,1665.9900113996118,None,,,color21,001,2021_Nov_08_1729,ProdSingRedo,3.2.3,59.90351947977005,
,,,,173,0,173,0,,,,,,,,,,,,,,,,,,,,,,,,1675.0294176996686,None,,,,,,,,,,,,,,,,,fashion,aloud,blue,173,51,125,1668.2689716997556,None,1668.2689716997556,None,5,5.280721400398761,1668.2689716997556,None,1673.597267799545,None,1674.1152437999845,None,1674.1152437999845,None,f,0.8903649002313614,1674.1152437999845,None,,,color21,001,2021_Nov_08_1729,ProdSingRedo,3.2.3,59.90351947977005,
,,,,174,0,174,0,,,,,,,,,,,,,,,,,,,,,,,,1677.921987099573,None,,,,,,,,,,,,,,,,,rural,new_aloud,blue,174,142,269,1675.5588049995713,None,1675.5588049995713,None,1,1.470933500211686,1675.5588049995713,None,1677.0849427999929,None,1677.603309399914,None,1677.603309399914,None,n,0.2745766998268664,1677.603309399914,None,,,color21,001,2021_Nov_08_1729,ProdSingRedo,3.2.3,59.90351947977005,
,,,,175,0,175,0,,,,,,,,,,,,,,,,,,,,,,,,1682.021372599993,None,,,,,,,,,,,,,,,,,council,new_aloud,blue,175,148,71,1678.4430437996052,None,1678.4430437996052,None,6,1.6107030999846756,1678.4430437996052,None,1680.10450699972,None,1680.6253114999272,None,1680.6253114999272,None,f,1.3722484996542335,1680.6253114999272,None,,,color21,001,2021_Nov_08_1729,ProdSingRedo,3.2.3,59.90351947977005,
,,,,176,0,176,0,,,,,,,,,,,,,,,,,,,,,,,,1686.0737259997986,None,,,,,,,,,,,,,,,,,military,aloud,blue,176,45,190,1682.5507837999612,None,1682.5507837999612,None,6,2.3188641001470387,1682.5507837999612,None,1684.9248746996745,None,1685.4333776999265,None,1685.4333776999265,None,r,0.6042728996835649,1685.4333776999265,None,,,color21,001,2021_Nov_08_1729,ProdSingRedo,3.2.3,59.90351947977005,
,,,,177,0,177,0,,,,,,,,,,,,,,,,,,,,,,,,1692.3310028999113,None,,,,,,,,,,,,,,,,,appearance,silent,yellow,177,87,10,1686.605861599557,None,1686.605861599557,None,1,4.247992699965835,1686.605861599557,None,1690.8993047997355,None,1691.4265798996203,None,1691.4265798996203,None,n,0.8670971998944879,1691.4265798996203,None,,,color21,001,2021_Nov_08_1729,ProdSingRedo,3.2.3,59.90351947977005,
,,,,178,0,178,0,,,,,,,,,,,,,,,,,,,,,,,,1696.167810799554,None,,,,,,,,,,,,,,,,,front,new_sing,red,178,99,134,1692.8606708999723,None,1692.8606708999723,None,2,1.785009200219065,1692.8606708999723,None,1694.6979706999846,None,1695.2197679998353,None,1695.2197679998353,None,f,0.9141601002775133,1695.2197679998353,None,,,color21,001,2021_Nov_08_1729,ProdSingRedo,3.2.3,59.90351947977005,
,,,,179,0,179,0,,,,,,,,,,,,,,,,,,,,,,,,1700.325476799626,None,,,,,,,,,,,,,,,,,religion,sing,red,179,5,258,1696.699132999871,None,1696.699132999871,None,5,2.1865965998731554,1696.699132999871,None,1698.9383477997035,None,1699.4568468998186,None,1699.4568468998186,None,n,0.8368143001571298,1699.4568468998186,None,,,color21,001,2021_Nov_08_1729,ProdSingRedo,3.2.3,59.90351947977005,
,,,,,,,,,,,,,,,,,,,,,,,,,,,,,,,,,,,,,,,,,,,,,,,,,,,,,,,,,,,,,,,,,,,,,,,,,1700.8326960997656,None,,,,,,,
