StudyLoop.thisRepN,StudyLoop.thisTrialN,StudyLoop.thisN,StudyLoop.thisIndex,TestLoop.thisRepN,TestLoop.thisTrialN,TestLoop.thisN,TestLoop.thisIndex,textCondition.started,textCondition.stopped,keyCondition.keys,keyCondition.rt,keyCondition.started,keyCondition.stopped,Condition,stim_colors,color_sing,color_aloud,color_silent,textWelcome.started,textWelcome.stopped,keyWelcome.keys,keyWelcome.rt,keyWelcome.started,keyWelcome.stopped,textAloud.started,textAloud.stopped,textSilent.started,textSilent.stopped,textSing.started,textSing.stopped,textBlank500.started,textBlank500.stopped,study_word,study_type,study_color,study_num,study_word_num,textStudy.started,textStudy.stopped,keyStudy.keys,keyStudy.started,keyStudy.stopped,textTestInstructions.started,textTestInstructions.stopped,key_resp_3.keys,key_resp_3.rt,key_resp_3.started,key_resp_3.stopped,testWord,testType,testColor,testN,test_num,test_word_num,textConf.started,textConf.stopped,textConfScale.started,textConfScale.stopped,keyConf.keys,keyConf.rt,keyConf.started,keyConf.stopped,textTestBlank.started,textTestBlank.stopped,textRKN.started,textRKN.stopped,textRKNScale.started,textRKNScale.stopped,keyRKN.keys,keyRKN.rt,keyRKN.started,keyRKN.stopped,textEnd.started,textEnd.stopped,participant,session,date,expName,psychopyVersion,frameRate,
,,,,,,,,32.31948499940336,None,y,20.817393401637673,32.31948499940336,None,,,,,,,,,,,,,,,,,,,,,,,,,,,,,,,,,,,,,,,,,,,,,,,,,,,,,,,,,,,,,,C30,001,2022_Mar_08_1701,ProdSingRedo,3.2.3,60.03705501272325,
,,,,,,,,,,,,,,ColoredTest,"['blue', 'red', 'yellow']",blue,red,yellow,53.193851098418236,None,space,75.20960270054638,53.193851098418236,None,,,,,,,,,,,,,,,,,,,,,,,,,,,,,,,,,,,,,,,,,,,,,,,,,,,C30,001,2022_Mar_08_1701,ProdSingRedo,3.2.3,60.03705501272325,
0,0,0,0,,,,,,,,,,,,,,,,,,,,,,53.193851098418236,None,53.193851098418236,None,53.193851098418236,None,130.96195060014725,None,music,aloud,red,35,196,128.95818349905312,None,None,128.95818349905312,None,,,,,,,,,,,,,,,,,,,,,,,,,,,,,,,,,C30,001,2022_Mar_08_1701,ProdSingRedo,3.2.3,60.03705501272325,
1,0,1,0,,,,,,,,,,,,,,,,,,,,,,,,,,,,133.47707789950073,None,stand,sing,blue,10,302,131.47282329946756,None,None,131.47282329946756,None,,,,,,,,,,,,,,,,,,,,,,,,,,,,,,,,,C30,001,2022_Mar_08_1701,ProdSingRedo,3.2.3,60.03705501272325,
2,0,2,0,,,,,,,,,,,,,,,,,,,,,,,,,,,,135.99392259866,None,crisis,sing,blue,27,79,133.98600719869137,None,None,133.98600719869137,None,,,,,,,,,,,,,,,,,,,,,,,,,,,,,,,,,C30,001,2022_Mar_08_1701,ProdSingRedo,3.2.3,60.03705501272325,
3,0,3,0,,,,,,,,,,,,,,,,,,,,,,,,,,,,138.51087779924273,None,frank,sing,blue,3,133,136.51417279988527,None,None,136.51417279988527,None,,,,,,,,,,,,,,,,,,,,,,,,,,,,,,,,,C30,001,2022_Mar_08_1701,ProdSingRedo,3.2.3,60.03705501272325,
4,0,4,0,,,,,,,,,,,,,,,,,,,,,,,,,,,,141.0275531988591,None,council,sing,blue,14,71,139.0127045996487,None,None,139.0127045996487,None,,,,,,,,,,,,,,,,,,,,,,,,,,,,,,,,,C30,001,2022_Mar_08_1701,ProdSingRedo,3.2.3,60.03705501272325,
5,0,5,0,,,,,,,,,,,,,,,,,,,,,,,,,,,,143.54509149864316,None,tough,silent,yellow,87,333,141.52961229905486,None,None,141.52961229905486,None,,,,,,,,,,,,,,,,,,,,,,,,,,,,,,,,,C30,001,2022_Mar_08_1701,ProdSingRedo,3.2.3,60.03705501272325,
6,0,6,0,,,,,,,,,,,,,,,,,,,,,,,,,,,,146.06086250022054,None,staff,aloud,red,57,301,144.04682420007885,None,None,144.04682420007885,None,,,,,,,,,,,,,,,,,,,,,,,,,,,,,,,,,C30,001,2022_Mar_08_1701,ProdSingRedo,3.2.3,60.03705501272325,
7,0,7,0,,,,,,,,,,,,,,,,,,,,,,,,,,,,148.5784559994936,None,season,sing,blue,28,277,146.5728422999382,None,None,146.5728422999382,None,,,,,,,,,,,,,,,,,,,,,,,,,,,,,,,,,C30,001,2022_Mar_08_1701,ProdSingRedo,3.2.3,60.03705501272325,
8,0,8,0,,,,,,,,,,,,,,,,,,,,,,,,,,,,151.0948849990964,None,literature,sing,blue,18,173,149.08627069927752,None,None,149.08627069927752,None,,,,,,,,,,,,,,,,,,,,,,,,,,,,,,,,,C30,001,2022_Mar_08_1701,ProdSingRedo,3.2.3,60.03705501272325,
9,0,9,0,,,,,,,,,,,,,,,,,,,,,,,,,,,,153.6108690984547,None,research,sing,blue,4,261,151.5989123992622,None,None,151.5989123992622,None,,,,,,,,,,,,,,,,,,,,,,,,,,,,,,,,,C30,001,2022_Mar_08_1701,ProdSingRedo,3.2.3,60.03705501272325,
10,0,10,0,,,,,,,,,,,,,,,,,,,,,,,,,,,,156.12902189977467,None,community,silent,yellow,84,63,154.12285669893026,None,None,154.12285669893026,None,,,,,,,,,,,,,,,,,,,,,,,,,,,,,,,,,C30,001,2022_Mar_08_1701,ProdSingRedo,3.2.3,60.03705501272325,
11,0,11,0,,,,,,,,,,,,,,,,,,,,,,,,,,,,158.6450298987329,None,speech,aloud,red,39,298,156.63897519931197,None,None,156.63897519931197,None,,,,,,,,,,,,,,,,,,,,,,,,,,,,,,,,,C30,001,2022_Mar_08_1701,ProdSingRedo,3.2.3,60.03705501272325,
12,0,12,0,,,,,,,,,,,,,,,,,,,,,,,,,,,,161.16220129840076,None,little,sing,blue,13,174,159.15601529926062,None,None,159.15601529926062,None,,,,,,,,,,,,,,,,,,,,,,,,,,,,,,,,,C30,001,2022_Mar_08_1701,ProdSingRedo,3.2.3,60.03705501272325,
13,0,13,0,,,,,,,,,,,,,,,,,,,,,,,,,,,,163.67903889901936,None,symbol,silent,yellow,60,321,161.68664299882948,None,None,161.68664299882948,None,,,,,,,,,,,,,,,,,,,,,,,,,,,,,,,,,C30,001,2022_Mar_08_1701,ProdSingRedo,3.2.3,60.03705501272325,
14,0,14,0,,,,,,,,,,,,,,,,,,,,,,,,,,,,166.19591089896858,None,raise,silent,yellow,88,250,164.18929480016232,None,None,164.18929480016232,None,,,,,,,,,,,,,,,,,,,,,,,,,,,,,,,,,C30,001,2022_Mar_08_1701,ProdSingRedo,3.2.3,60.03705501272325,
15,0,15,0,,,,,,,,,,,,,,,,,,,,,,,,,,,,168.71282659843564,None,election,aloud,red,38,109,166.70447549968958,None,None,166.70447549968958,None,,,,,,,,,,,,,,,,,,,,,,,,,,,,,,,,,C30,001,2022_Mar_08_1701,ProdSingRedo,3.2.3,60.03705501272325,
16,0,16,0,,,,,,,,,,,,,,,,,,,,,,,,,,,,171.22951849922538,None,title,silent,yellow,74,331,169.22366219945252,None,None,169.22366219945252,None,,,,,,,,,,,,,,,,,,,,,,,,,,,,,,,,,C30,001,2022_Mar_08_1701,ProdSingRedo,3.2.3,60.03705501272325,
17,0,17,0,,,,,,,,,,,,,,,,,,,,,,,,,,,,173.74634319916368,None,dispute,sing,blue,2,99,171.743806399405,None,None,171.743806399405,None,,,,,,,,,,,,,,,,,,,,,,,,,,,,,,,,,C30,001,2022_Mar_08_1701,ProdSingRedo,3.2.3,60.03705501272325,
18,0,18,0,,,,,,,,,,,,,,,,,,,,,,,,,,,,176.26332749985158,None,salary,silent,yellow,62,271,174.26937489956617,None,None,174.26937489956617,None,,,,,,,,,,,,,,,,,,,,,,,,,,,,,,,,,C30,001,2022_Mar_08_1701,ProdSingRedo,3.2.3,60.03705501272325,
19,0,19,0,,,,,,,,,,,,,,,,,,,,,,,,,,,,178.78006169945002,None,watch,aloud,red,33,351,176.7763951998204,None,None,176.7763951998204,None,,,,,,,,,,,,,,,,,,,,,,,,,,,,,,,,,C30,001,2022_Mar_08_1701,ProdSingRedo,3.2.3,60.03705501272325,
20,0,20,0,,,,,,,,,,,,,,,,,,,,,,,,,,,,181.29700779914856,None,evidence,silent,yellow,70,120,179.3048329986632,None,None,179.3048329986632,None,,,,,,,,,,,,,,,,,,,,,,,,,,,,,,,,,C30,001,2022_Mar_08_1701,ProdSingRedo,3.2.3,60.03705501272325,
21,0,21,0,,,,,,,,,,,,,,,,,,,,,,,,,,,,183.8136980999261,None,atmosphere,aloud,red,56,12,181.81027350015938,None,None,181.81027350015938,None,,,,,,,,,,,,,,,,,,,,,,,,,,,,,,,,,C30,001,2022_Mar_08_1701,ProdSingRedo,3.2.3,60.03705501272325,
22,0,22,0,,,,,,,,,,,,,,,,,,,,,,,,,,,,186.33050880022347,None,center,aloud,red,59,44,184.3289950992912,None,None,184.3289950992912,None,,,,,,,,,,,,,,,,,,,,,,,,,,,,,,,,,C30,001,2022_Mar_08_1701,ProdSingRedo,3.2.3,60.03705501272325,
23,0,23,0,,,,,,,,,,,,,,,,,,,,,,,,,,,,188.84683319926262,None,fight,silent,yellow,66,127,186.8399787992239,None,None,186.8399787992239,None,,,,,,,,,,,,,,,,,,,,,,,,,,,,,,,,,C30,001,2022_Mar_08_1701,ProdSingRedo,3.2.3,60.03705501272325,
24,0,24,0,,,,,,,,,,,,,,,,,,,,,,,,,,,,191.3642874993384,None,color,sing,blue,20,56,189.361969999969,None,None,189.361969999969,None,,,,,,,,,,,,,,,,,,,,,,,,,,,,,,,,,C30,001,2022_Mar_08_1701,ProdSingRedo,3.2.3,60.03705501272325,
25,0,25,0,,,,,,,,,,,,,,,,,,,,,,,,,,,,193.88100629858673,None,citizen,aloud,red,53,50,191.8791314996779,None,None,191.8791314996779,None,,,,,,,,,,,,,,,,,,,,,,,,,,,,,,,,,C30,001,2022_Mar_08_1701,ProdSingRedo,3.2.3,60.03705501272325,
26,0,26,0,,,,,,,,,,,,,,,,,,,,,,,,,,,,196.39788859896362,None,junior,sing,blue,9,167,194.40050949901342,None,None,194.40050949901342,None,,,,,,,,,,,,,,,,,,,,,,,,,,,,,,,,,C30,001,2022_Mar_08_1701,ProdSingRedo,3.2.3,60.03705501272325,
27,0,27,0,,,,,,,,,,,,,,,,,,,,,,,,,,,,198.91463189944625,None,notice,silent,yellow,69,201,196.90774869918823,None,None,196.90774869918823,None,,,,,,,,,,,,,,,,,,,,,,,,,,,,,,,,,C30,001,2022_Mar_08_1701,ProdSingRedo,3.2.3,60.03705501272325,
28,0,28,0,,,,,,,,,,,,,,,,,,,,,,,,,,,,201.43165249936283,None,relation,sing,blue,23,257,199.4326992984861,None,None,199.4326992984861,None,,,,,,,,,,,,,,,,,,,,,,,,,,,,,,,,,C30,001,2022_Mar_08_1701,ProdSingRedo,3.2.3,60.03705501272325,
29,0,29,0,,,,,,,,,,,,,,,,,,,,,,,,,,,,203.94834029860795,None,degree,silent,yellow,61,89,201.94573109969497,None,None,201.94573109969497,None,,,,,,,,,,,,,,,,,,,,,,,,,,,,,,,,,C30,001,2022_Mar_08_1701,ProdSingRedo,3.2.3,60.03705501272325,
30,0,30,0,,,,,,,,,,,,,,,,,,,,,,,,,,,,206.46453060023487,None,state,sing,blue,22,303,204.46572740003467,None,None,204.46572740003467,None,,,,,,,,,,,,,,,,,,,,,,,,,,,,,,,,,C30,001,2022_Mar_08_1701,ProdSingRedo,3.2.3,60.03705501272325,
31,0,31,0,,,,,,,,,,,,,,,,,,,,,,,,,,,,208.96535320021212,None,worker,sing,blue,19,356,206.96583899855614,None,None,206.96583899855614,None,,,,,,,,,,,,,,,,,,,,,,,,,,,,,,,,,C30,001,2022_Mar_08_1701,ProdSingRedo,3.2.3,60.03705501272325,
32,0,32,0,,,,,,,,,,,,,,,,,,,,,,,,,,,,211.4822753984481,None,resistance,sing,blue,0,262,209.48267239890993,None,None,209.48267239890993,None,,,,,,,,,,,,,,,,,,,,,,,,,,,,,,,,,C30,001,2022_Mar_08_1701,ProdSingRedo,3.2.3,60.03705501272325,
33,0,33,0,,,,,,,,,,,,,,,,,,,,,,,,,,,,213.99896129965782,None,engineer,aloud,red,45,114,211.9957231990993,None,None,211.9957231990993,None,,,,,,,,,,,,,,,,,,,,,,,,,,,,,,,,,C30,001,2022_Mar_08_1701,ProdSingRedo,3.2.3,60.03705501272325,
34,0,34,0,,,,,,,,,,,,,,,,,,,,,,,,,,,,216.51455339975655,None,accident,aloud,red,52,0,214.51103239879012,None,None,214.51103239879012,None,,,,,,,,,,,,,,,,,,,,,,,,,,,,,,,,,C30,001,2022_Mar_08_1701,ProdSingRedo,3.2.3,60.03705501272325,
35,0,35,0,,,,,,,,,,,,,,,,,,,,,,,,,,,,219.0326653998345,None,partner,sing,blue,16,211,217.0312524996698,None,None,217.0312524996698,None,,,,,,,,,,,,,,,,,,,,,,,,,,,,,,,,,C30,001,2022_Mar_08_1701,ProdSingRedo,3.2.3,60.03705501272325,
36,0,36,0,,,,,,,,,,,,,,,,,,,,,,,,,,,,221.55202629975975,None,turkey,sing,blue,5,342,219.54305649921298,None,None,219.54305649921298,None,,,,,,,,,,,,,,,,,,,,,,,,,,,,,,,,,C30,001,2022_Mar_08_1701,ProdSingRedo,3.2.3,60.03705501272325,
37,0,37,0,,,,,,,,,,,,,,,,,,,,,,,,,,,,224.06636229902506,None,harmony,aloud,red,49,148,222.06694830022752,None,None,222.06694830022752,None,,,,,,,,,,,,,,,,,,,,,,,,,,,,,,,,,C30,001,2022_Mar_08_1701,ProdSingRedo,3.2.3,60.03705501272325,
38,0,38,0,,,,,,,,,,,,,,,,,,,,,,,,,,,,226.58236069977283,None,government,sing,blue,12,139,224.5801654998213,None,None,224.5801654998213,None,,,,,,,,,,,,,,,,,,,,,,,,,,,,,,,,,C30,001,2022_Mar_08_1701,ProdSingRedo,3.2.3,60.03705501272325,
39,0,39,0,,,,,,,,,,,,,,,,,,,,,,,,,,,,229.1000001989305,None,people,silent,yellow,78,216,227.0923267994076,None,None,227.0923267994076,None,,,,,,,,,,,,,,,,,,,,,,,,,,,,,,,,,C30,001,2022_Mar_08_1701,ProdSingRedo,3.2.3,60.03705501272325,
40,0,40,0,,,,,,,,,,,,,,,,,,,,,,,,,,,,231.6168460994959,None,court,aloud,red,55,75,229.61124059930444,None,None,229.61124059930444,None,,,,,,,,,,,,,,,,,,,,,,,,,,,,,,,,,C30,001,2022_Mar_08_1701,ProdSingRedo,3.2.3,60.03705501272325,
41,0,41,0,,,,,,,,,,,,,,,,,,,,,,,,,,,,234.133647499606,None,murder,aloud,red,51,195,232.1302029993385,None,None,232.1302029993385,None,,,,,,,,,,,,,,,,,,,,,,,,,,,,,,,,,C30,001,2022_Mar_08_1701,ProdSingRedo,3.2.3,60.03705501272325,
42,0,42,0,,,,,,,,,,,,,,,,,,,,,,,,,,,,236.65045440010726,None,union,silent,yellow,77,344,234.644159398973,None,None,234.644159398973,None,,,,,,,,,,,,,,,,,,,,,,,,,,,,,,,,,C30,001,2022_Mar_08_1701,ProdSingRedo,3.2.3,60.03705501272325,
43,0,43,0,,,,,,,,,,,,,,,,,,,,,,,,,,,,239.1671342998743,None,heavy,sing,blue,6,151,237.1662007998675,None,None,237.1662007998675,None,,,,,,,,,,,,,,,,,,,,,,,,,,,,,,,,,C30,001,2022_Mar_08_1701,ProdSingRedo,3.2.3,60.03705501272325,
44,0,44,0,,,,,,,,,,,,,,,,,,,,,,,,,,,,241.68483099900186,None,beauty,silent,yellow,68,18,239.6788384001702,None,None,239.6788384001702,None,,,,,,,,,,,,,,,,,,,,,,,,,,,,,,,,,C30,001,2022_Mar_08_1701,ProdSingRedo,3.2.3,60.03705501272325,
45,0,45,0,,,,,,,,,,,,,,,,,,,,,,,,,,,,244.2010398991406,None,store,silent,yellow,67,305,242.19280929863453,None,None,242.19280929863453,None,,,,,,,,,,,,,,,,,,,,,,,,,,,,,,,,,C30,001,2022_Mar_08_1701,ProdSingRedo,3.2.3,60.03705501272325,
46,0,46,0,,,,,,,,,,,,,,,,,,,,,,,,,,,,246.71712059900165,None,route,aloud,red,50,267,244.71655669994652,None,None,244.71655669994652,None,,,,,,,,,,,,,,,,,,,,,,,,,,,,,,,,,C30,001,2022_Mar_08_1701,ProdSingRedo,3.2.3,60.03705501272325,
47,0,47,0,,,,,,,,,,,,,,,,,,,,,,,,,,,,249.23439999856055,None,smooth,sing,blue,25,292,247.2264705002308,None,None,247.2264705002308,None,,,,,,,,,,,,,,,,,,,,,,,,,,,,,,,,,C30,001,2022_Mar_08_1701,ProdSingRedo,3.2.3,60.03705501272325,
48,0,48,0,,,,,,,,,,,,,,,,,,,,,,,,,,,,251.7514864988625,None,territory,sing,blue,29,324,249.74398329854012,None,None,249.74398329854012,None,,,,,,,,,,,,,,,,,,,,,,,,,,,,,,,,,C30,001,2022_Mar_08_1701,ProdSingRedo,3.2.3,60.03705501272325,
49,0,49,0,,,,,,,,,,,,,,,,,,,,,,,,,,,,254.26815979927778,None,brilliant,aloud,red,42,30,252.26575339958072,None,None,252.26575339958072,None,,,,,,,,,,,,,,,,,,,,,,,,,,,,,,,,,C30,001,2022_Mar_08_1701,ProdSingRedo,3.2.3,60.03705501272325,
50,0,50,0,,,,,,,,,,,,,,,,,,,,,,,,,,,,256.7851483989507,None,management,aloud,red,47,177,254.7855708990246,None,None,254.7855708990246,None,,,,,,,,,,,,,,,,,,,,,,,,,,,,,,,,,C30,001,2022_Mar_08_1701,ProdSingRedo,3.2.3,60.03705501272325,
51,0,51,0,,,,,,,,,,,,,,,,,,,,,,,,,,,,259.3020615000278,None,motion,silent,yellow,65,194,257.2929311990738,None,None,257.2929311990738,None,,,,,,,,,,,,,,,,,,,,,,,,,,,,,,,,,C30,001,2022_Mar_08_1701,ProdSingRedo,3.2.3,60.03705501272325,
52,0,52,0,,,,,,,,,,,,,,,,,,,,,,,,,,,,261.81720330007374,None,entrance,silent,yellow,64,115,259.81858479976654,None,None,259.81858479976654,None,,,,,,,,,,,,,,,,,,,,,,,,,,,,,,,,,C30,001,2022_Mar_08_1701,ProdSingRedo,3.2.3,60.03705501272325,
53,0,53,0,,,,,,,,,,,,,,,,,,,,,,,,,,,,264.31872100010514,None,quiet,silent,yellow,72,249,262.3177400995046,None,None,262.3177400995046,None,,,,,,,,,,,,,,,,,,,,,,,,,,,,,,,,,C30,001,2022_Mar_08_1701,ProdSingRedo,3.2.3,60.03705501272325,
54,0,54,0,,,,,,,,,,,,,,,,,,,,,,,,,,,,266.83679400011897,None,property,sing,blue,1,242,264.8314107991755,None,None,264.8314107991755,None,,,,,,,,,,,,,,,,,,,,,,,,,,,,,,,,,C30,001,2022_Mar_08_1701,ProdSingRedo,3.2.3,60.03705501272325,
55,0,55,0,,,,,,,,,,,,,,,,,,,,,,,,,,,,269.35260359942913,None,native,silent,yellow,75,199,267.3373862989247,None,None,267.3373862989247,None,,,,,,,,,,,,,,,,,,,,,,,,,,,,,,,,,C30,001,2022_Mar_08_1701,ProdSingRedo,3.2.3,60.03705501272325,
56,0,56,0,,,,,,,,,,,,,,,,,,,,,,,,,,,,271.8686714991927,None,report,silent,yellow,76,259,269.8631036002189,None,None,269.8631036002189,None,,,,,,,,,,,,,,,,,,,,,,,,,,,,,,,,,C30,001,2022_Mar_08_1701,ProdSingRedo,3.2.3,60.03705501272325,
57,0,57,0,,,,,,,,,,,,,,,,,,,,,,,,,,,,274.38632819987833,None,number,sing,blue,11,203,272.3857923001051,None,None,272.3857923001051,None,,,,,,,,,,,,,,,,,,,,,,,,,,,,,,,,,C30,001,2022_Mar_08_1701,ProdSingRedo,3.2.3,60.03705501272325,
58,0,58,0,,,,,,,,,,,,,,,,,,,,,,,,,,,,276.9031494986266,None,carry,sing,blue,17,43,274.9029233995825,None,None,274.9029233995825,None,,,,,,,,,,,,,,,,,,,,,,,,,,,,,,,,,C30,001,2022_Mar_08_1701,ProdSingRedo,3.2.3,60.03705501272325,
59,0,59,0,,,,,,,,,,,,,,,,,,,,,,,,,,,,279.42008469998837,None,level,silent,yellow,80,170,277.41530229896307,None,None,277.41530229896307,None,,,,,,,,,,,,,,,,,,,,,,,,,,,,,,,,,C30,001,2022_Mar_08_1701,ProdSingRedo,3.2.3,60.03705501272325,
60,0,60,0,,,,,,,,,,,,,,,,,,,,,,,,,,,,281.9367851000279,None,estate,silent,yellow,82,119,279.9297026991844,None,None,279.9297026991844,None,,,,,,,,,,,,,,,,,,,,,,,,,,,,,,,,,C30,001,2022_Mar_08_1701,ProdSingRedo,3.2.3,60.03705501272325,
61,0,61,0,,,,,,,,,,,,,,,,,,,,,,,,,,,,284.4374172985554,None,surface,silent,yellow,86,316,282.435565399006,None,None,282.435565399006,None,,,,,,,,,,,,,,,,,,,,,,,,,,,,,,,,,C30,001,2022_Mar_08_1701,ProdSingRedo,3.2.3,60.03705501272325,
62,0,62,0,,,,,,,,,,,,,,,,,,,,,,,,,,,,286.95388239994645,None,measure,silent,yellow,83,184,284.9567108992487,None,None,284.9567108992487,None,,,,,,,,,,,,,,,,,,,,,,,,,,,,,,,,,C30,001,2022_Mar_08_1701,ProdSingRedo,3.2.3,60.03705501272325,
63,0,63,0,,,,,,,,,,,,,,,,,,,,,,,,,,,,289.4705991987139,None,couch,aloud,red,31,70,287.4674444999546,None,None,287.4674444999546,None,,,,,,,,,,,,,,,,,,,,,,,,,,,,,,,,,C30,001,2022_Mar_08_1701,ProdSingRedo,3.2.3,60.03705501272325,
64,0,64,0,,,,,,,,,,,,,,,,,,,,,,,,,,,,291.9860052000731,None,threat,aloud,red,54,329,289.9791583996266,None,None,289.9791583996266,None,,,,,,,,,,,,,,,,,,,,,,,,,,,,,,,,,C30,001,2022_Mar_08_1701,ProdSingRedo,3.2.3,60.03705501272325,
65,0,65,0,,,,,,,,,,,,,,,,,,,,,,,,,,,,294.486302100122,None,under,aloud,red,30,343,292.4860896002501,None,None,292.4860896002501,None,,,,,,,,,,,,,,,,,,,,,,,,,,,,,,,,,C30,001,2022_Mar_08_1701,ProdSingRedo,3.2.3,60.03705501272325,
66,0,66,0,,,,,,,,,,,,,,,,,,,,,,,,,,,,297.00412649847567,None,treatment,sing,blue,24,339,294.98814489878714,None,None,294.98814489878714,None,,,,,,,,,,,,,,,,,,,,,,,,,,,,,,,,,C30,001,2022_Mar_08_1701,ProdSingRedo,3.2.3,60.03705501272325,
67,0,67,0,,,,,,,,,,,,,,,,,,,,,,,,,,,,299.5214566998184,None,household,aloud,red,34,154,297.51062849909067,None,None,297.51062849909067,None,,,,,,,,,,,,,,,,,,,,,,,,,,,,,,,,,C30,001,2022_Mar_08_1701,ProdSingRedo,3.2.3,60.03705501272325,
68,0,68,0,,,,,,,,,,,,,,,,,,,,,,,,,,,,302.02074379846454,None,prime,silent,yellow,71,235,300.01982069946826,None,None,300.01982069946826,None,,,,,,,,,,,,,,,,,,,,,,,,,,,,,,,,,C30,001,2022_Mar_08_1701,ProdSingRedo,3.2.3,60.03705501272325,
69,0,69,0,,,,,,,,,,,,,,,,,,,,,,,,,,,,304.536764299497,None,sleep,aloud,red,46,290,302.52730389870703,None,None,302.52730389870703,None,,,,,,,,,,,,,,,,,,,,,,,,,,,,,,,,,C30,001,2022_Mar_08_1701,ProdSingRedo,3.2.3,60.03705501272325,
70,0,70,0,,,,,,,,,,,,,,,,,,,,,,,,,,,,307.03725289925933,None,meeting,silent,yellow,79,187,305.0370892994106,None,None,305.0370892994106,None,,,,,,,,,,,,,,,,,,,,,,,,,,,,,,,,,C30,001,2022_Mar_08_1701,ProdSingRedo,3.2.3,60.03705501272325,
71,0,71,0,,,,,,,,,,,,,,,,,,,,,,,,,,,,309.55408819951117,None,congress,aloud,red,40,67,307.54018019884825,None,None,307.54018019884825,None,,,,,,,,,,,,,,,,,,,,,,,,,,,,,,,,,C30,001,2022_Mar_08_1701,ProdSingRedo,3.2.3,60.03705501272325,
72,0,72,0,,,,,,,,,,,,,,,,,,,,,,,,,,,,312.070255599916,None,pattern,sing,blue,21,214,310.05750509910285,None,None,310.05750509910285,None,,,,,,,,,,,,,,,,,,,,,,,,,,,,,,,,,C30,001,2022_Mar_08_1701,ProdSingRedo,3.2.3,60.03705501272325,
73,0,73,0,,,,,,,,,,,,,,,,,,,,,,,,,,,,314.5882746987045,None,signal,aloud,red,36,287,312.57243429869413,None,None,312.57243429869413,None,,,,,,,,,,,,,,,,,,,,,,,,,,,,,,,,,C30,001,2022_Mar_08_1701,ProdSingRedo,3.2.3,60.03705501272325,
74,0,74,0,,,,,,,,,,,,,,,,,,,,,,,,,,,,317.1041512992233,None,husband,silent,yellow,81,156,315.10418539866805,None,None,315.10418539866805,None,,,,,,,,,,,,,,,,,,,,,,,,,,,,,,,,,C30,001,2022_Mar_08_1701,ProdSingRedo,3.2.3,60.03705501272325,
75,0,75,0,,,,,,,,,,,,,,,,,,,,,,,,,,,,319.62159509956837,None,oxygen,silent,yellow,73,209,317.616610199213,None,None,317.616610199213,None,,,,,,,,,,,,,,,,,,,,,,,,,,,,,,,,,C30,001,2022_Mar_08_1701,ProdSingRedo,3.2.3,60.03705501272325,
76,0,76,0,,,,,,,,,,,,,,,,,,,,,,,,,,,,322.1383080985397,None,revolution,silent,yellow,85,264,320.12376799993217,None,None,320.12376799993217,None,,,,,,,,,,,,,,,,,,,,,,,,,,,,,,,,,C30,001,2022_Mar_08_1701,ProdSingRedo,3.2.3,60.03705501272325,
77,0,77,0,,,,,,,,,,,,,,,,,,,,,,,,,,,,324.6554895993322,None,match,sing,blue,15,181,322.6442459989339,None,None,322.6442459989339,None,,,,,,,,,,,,,,,,,,,,,,,,,,,,,,,,,C30,001,2022_Mar_08_1701,ProdSingRedo,3.2.3,60.03705501272325,
78,0,78,0,,,,,,,,,,,,,,,,,,,,,,,,,,,,327.17190329916775,None,addition,silent,yellow,63,2,325.164699498564,None,None,325.164699498564,None,,,,,,,,,,,,,,,,,,,,,,,,,,,,,,,,,C30,001,2022_Mar_08_1701,ProdSingRedo,3.2.3,60.03705501272325,
79,0,79,0,,,,,,,,,,,,,,,,,,,,,,,,,,,,329.6889190990478,None,theme,aloud,red,37,326,327.68282779864967,None,None,327.68282779864967,None,,,,,,,,,,,,,,,,,,,,,,,,,,,,,,,,,C30,001,2022_Mar_08_1701,ProdSingRedo,3.2.3,60.03705501272325,
80,0,80,0,,,,,,,,,,,,,,,,,,,,,,,,,,,,332.205140799284,None,cross,aloud,red,58,80,330.198272800073,None,None,330.198272800073,None,,,,,,,,,,,,,,,,,,,,,,,,,,,,,,,,,C30,001,2022_Mar_08_1701,ProdSingRedo,3.2.3,60.03705501272325,
81,0,81,0,,,,,,,,,,,,,,,,,,,,,,,,,,,,334.72209039889276,None,balance,sing,blue,8,17,332.72836799919605,None,None,332.72836799919605,None,,,,,,,,,,,,,,,,,,,,,,,,,,,,,,,,,C30,001,2022_Mar_08_1701,ProdSingRedo,3.2.3,60.03705501272325,
82,0,82,0,,,,,,,,,,,,,,,,,,,,,,,,,,,,337.2402115985751,None,military,aloud,red,41,190,335.2420217990875,None,None,335.2420217990875,None,,,,,,,,,,,,,,,,,,,,,,,,,,,,,,,,,C30,001,2022_Mar_08_1701,ProdSingRedo,3.2.3,60.03705501272325,
83,0,83,0,,,,,,,,,,,,,,,,,,,,,,,,,,,,339.75545019842684,None,quantity,aloud,red,48,245,337.7529881000519,None,None,337.7529881000519,None,,,,,,,,,,,,,,,,,,,,,,,,,,,,,,,,,C30,001,2022_Mar_08_1701,ProdSingRedo,3.2.3,60.03705501272325,
84,0,84,0,,,,,,,,,,,,,,,,,,,,,,,,,,,,342.25591529905796,None,interior,aloud,red,44,164,340.25637449882925,None,None,340.25637449882925,None,,,,,,,,,,,,,,,,,,,,,,,,,,,,,,,,,C30,001,2022_Mar_08_1701,ProdSingRedo,3.2.3,60.03705501272325,
85,0,85,0,,,,,,,,,,,,,,,,,,,,,,,,,,,,344.7733593992889,None,listen,aloud,red,32,172,342.76651869900525,None,None,342.76651869900525,None,,,,,,,,,,,,,,,,,,,,,,,,,,,,,,,,,C30,001,2022_Mar_08_1701,ProdSingRedo,3.2.3,60.03705501272325,
86,0,86,0,,,,,,,,,,,,,,,,,,,,,,,,,,,,347.2898110989481,None,primary,sing,blue,26,234,345.28978869877756,None,None,345.28978869877756,None,,,,,,,,,,,,,,,,,,,,,,,,,,,,,,,,,C30,001,2022_Mar_08_1701,ProdSingRedo,3.2.3,60.03705501272325,
87,0,87,0,,,,,,,,,,,,,,,,,,,,,,,,,,,,349.807231400162,None,build,aloud,red,43,35,347.80031519941986,None,None,347.80031519941986,None,,,,,,,,,,,,,,,,,,,,,,,,,,,,,,,,,C30,001,2022_Mar_08_1701,ProdSingRedo,3.2.3,60.03705501272325,
88,0,88,0,,,,,,,,,,,,,,,,,,,,,,,,,,,,352.3238823991269,None,charter,silent,yellow,89,47,350.3164631985128,None,None,350.3164631985128,None,,,,,,,,,,,,,,,,,,,,,,,,,,,,,,,,,C30,001,2022_Mar_08_1701,ProdSingRedo,3.2.3,60.03705501272325,
89,0,89,0,,,,,,,,,,,,,,,,,,,,,,,,,,,,354.8405002988875,None,minor,sing,blue,7,191,352.83032820001245,None,None,352.83032820001245,None,,,,,,,,,,,,,,,,,,,,,,,,,,,,,,,,,C30,001,2022_Mar_08_1701,ProdSingRedo,3.2.3,60.03705501272325,
,,,,,,,,,,,,,,,,,,,,,,,,,,,,,,,,,,,,,,,,,,,355.3406243994832,None,k,135.03815090097487,355.3406243994832,None,,,,,,,,,,,,,,,,,,,,,,,,,,,C30,001,2022_Mar_08_1701,ProdSingRedo,3.2.3,60.03705501272325,
,,,,0,0,0,0,,,,,,,,,,,,,,,,,,,,,,,,498.8352197986096,None,,,,,,,,,,,,,,,,,speech,aloud,red,0,39,298,490.8987989984453,None,490.8987989984453,None,6,3.7599569000303745,490.8987989984453,None,494.68393569998443,None,495.1992628984153,None,495.1992628984153,None,r,3.6114272996783257,495.1992628984153,None,,,C30,001,2022_Mar_08_1701,ProdSingRedo,3.2.3,60.03705501272325,
,,,,1,0,1,0,,,,,,,,,,,,,,,,,,,,,,,,504.7833581995219,None,,,,,,,,,,,,,,,,,little,sing,blue,1,13,174,499.35253349877894,None,499.35253349877894,None,6,2.442197199910879,499.35253349877894,None,501.8181196991354,None,502.3336102999747,None,502.3336102999747,None,r,2.4211259987205267,502.3336102999747,None,,,C30,001,2022_Mar_08_1701,ProdSingRedo,3.2.3,60.03705501272325,
,,,,2,0,2,0,,,,,,,,,,,,,,,,,,,,,,,,514.7224393989891,None,,,,,,,,,,,,,,,,,fashion,new_sing,blue,2,94,125,505.28555849939585,None,505.28555849939585,None,1,5.3491214998066425,505.28555849939585,None,510.6689106989652,None,511.18388149887323,None,511.18388149887323,None,n,3.5161294993013144,511.18388149887323,None,,,C30,001,2022_Mar_08_1701,ProdSingRedo,3.2.3,60.03705501272325,
,,,,3,0,3,0,,,,,,,,,,,,,,,,,,,,,,,,526.6021039001644,None,,,,,,,,,,,,,,,,,personnel,new_aloud,red,3,124,219,515.2336029987782,None,515.2336029987782,None,1,6.98543019965291,515.2336029987782,None,522.254960399121,None,522.767406899482,None,522.767406899482,None,n,3.8115542009472847,522.767406899482,None,,,C30,001,2022_Mar_08_1701,ProdSingRedo,3.2.3,60.03705501272325,
,,,,4,0,4,0,,,,,,,,,,,,,,,,,,,,,,,,538.1403815988451,None,,,,,,,,,,,,,,,,,article,new_sing,blue,4,104,11,527.1209292989224,None,527.1209292989224,None,2,3.897918500006199,527.1209292989224,None,531.0373571999371,None,531.5609360989183,None,531.5609360989183,None,n,6.546127799898386,531.5609360989183,None,,,C30,001,2022_Mar_08_1701,ProdSingRedo,3.2.3,60.03705501272325,
,,,,5,0,5,0,,,,,,,,,,,,,,,,,,,,,,,,547.985567798838,None,,,,,,,,,,,,,,,,,split,new_sing,blue,5,93,299,538.6633530985564,None,538.6633530985564,None,1,2.8836062997579575,538.6633530985564,None,541.5717759989202,None,542.0923107992858,None,542.0923107992858,None,n,5.862284800037742,542.0923107992858,None,,,C30,001,2022_Mar_08_1701,ProdSingRedo,3.2.3,60.03705501272325,
,,,,6,0,6,0,,,,,,,,,,,,,,,,,,,,,,,,556.3606370985508,None,,,,,,,,,,,,,,,,,frank,sing,blue,6,3,133,548.4912439994514,None,548.4912439994514,None,6,2.9284430984407663,548.4912439994514,None,551.4591520987451,None,551.9653887990862,None,551.9653887990862,None,r,4.365305600687861,551.9653887990862,None,,,C30,001,2022_Mar_08_1701,ProdSingRedo,3.2.3,60.03705501272325,
,,,,7,0,7,0,,,,,,,,,,,,,,,,,,,,,,,,567.4307353999466,None,,,,,,,,,,,,,,,,,employment,new_silent,yellow,7,167,111,556.8868886996061,None,556.8868886996061,None,5,8.19598569907248,556.8868886996061,None,565.1186763998121,None,565.630889698863,None,565.630889698863,None,f,1.7639399003237486,565.630889698863,None,,,C30,001,2022_Mar_08_1701,ProdSingRedo,3.2.3,60.03705501272325,
,,,,8,0,8,0,,,,,,,,,,,,,,,,,,,,,,,,579.3147439993918,None,,,,,,,,,,,,,,,,,mayor,new_aloud,red,8,142,183,567.9552672989666,None,567.9552672989666,None,5,8.839519299566746,567.9552672989666,None,576.834739100188,None,577.347189700231,None,577.347189700231,None,f,1.9357444010674953,577.347189700231,None,,,C30,001,2022_Mar_08_1701,ProdSingRedo,3.2.3,60.03705501272325,
,,,,9,0,9,0,,,,,,,,,,,,,,,,,,,,,,,,583.9967167992145,None,,,,,,,,,,,,,,,,,property,sing,blue,9,1,242,579.8359070997685,None,579.8359070997685,None,6,2.606642499566078,579.8359070997685,None,582.4728055000305,None,582.9862487986684,None,582.9862487986684,None,r,0.976570500060916,582.9862487986684,None,,,C30,001,2022_Mar_08_1701,ProdSingRedo,3.2.3,60.03705501272325,
,,,,10,0,10,0,,,,,,,,,,,,,,,,,,,,,,,,598.3456468991935,None,,,,,,,,,,,,,,,,,platform,new_aloud,red,10,127,224,584.5214645992965,None,584.5214645992965,None,3,4.329371798783541,584.5214645992965,None,588.8884942997247,None,589.3882879000157,None,589.3882879000157,None,f,8.926568700000644,589.3882879000157,None,,,C30,001,2022_Mar_08_1701,ProdSingRedo,3.2.3,60.03705501272325,
,,,,11,0,11,0,,,,,,,,,,,,,,,,,,,,,,,,613.1794368997216,None,,,,,,,,,,,,,,,,,skill,new_silent,yellow,11,174,289,598.8765609990805,None,598.8765609990805,None,3,6.318173699080944,598.8765609990805,None,605.2358813993633,None,605.7433102000505,None,605.7433102000505,None,n,7.41160930134356,605.7433102000505,None,,,C30,001,2022_Mar_08_1701,ProdSingRedo,3.2.3,60.03705501272325,
,,,,12,0,12,0,,,,,,,,,,,,,,,,,,,,,,,,620.9105107989162,None,,,,,,,,,,,,,,,,,industry,new_silent,yellow,12,170,161,613.6921849995852,None,613.6921849995852,None,5,4.854373801499605,613.6921849995852,None,618.5786392986774,None,619.1007378995419,None,619.1007378995419,None,f,1.7898327000439167,619.1007378995419,None,,,C30,001,2022_Mar_08_1701,ProdSingRedo,3.2.3,60.03705501272325,
,,,,13,0,13,0,,,,,,,,,,,,,,,,,,,,,,,,630.8181638997048,None,,,,,,,,,,,,,,,,,engineer,aloud,red,13,45,114,621.4247408993542,None,621.4247408993542,None,6,3.40202940069139,621.4247408993542,None,624.8662019986659,None,625.3875967990607,None,625.3875967990607,None,f,5.399238599464297,625.3875967990607,None,,,C30,001,2022_Mar_08_1701,ProdSingRedo,3.2.3,60.03705501272325,
,,,,14,0,14,0,,,,,,,,,,,,,,,,,,,,,,,,635.8362942989916,None,,,,,,,,,,,,,,,,,territory,sing,blue,14,29,324,631.3497234992683,None,631.3497234992683,None,6,2.517041400074959,631.3497234992683,None,633.9177682995796,None,634.4371796995401,None,634.4371796995401,None,r,1.365608999505639,634.4371796995401,None,,,C30,001,2022_Mar_08_1701,ProdSingRedo,3.2.3,60.03705501272325,
,,,,15,0,15,0,,,,,,,,,,,,,,,,,,,,,,,,641.4608057998121,None,,,,,,,,,,,,,,,,,charter,silent,yellow,15,89,47,636.3604407999665,None,636.3604407999665,None,2,3.3942782003432512,636.3604407999665,None,639.7883590999991,None,640.3021206986159,None,640.3021206986159,None,n,1.1406642999500036,640.3021206986159,None,,,C30,001,2022_Mar_08_1701,ProdSingRedo,3.2.3,60.03705501272325,
,,,,16,0,16,0,,,,,,,,,,,,,,,,,,,,,,,,647.8475858997554,None,,,,,,,,,,,,,,,,,voice,new_silent,yellow,16,155,348,641.9882621001452,None,641.9882621001452,None,2,2.5344225987792015,641.9882621001452,None,644.5579888988286,None,645.0676383990794,None,645.0676383990794,None,n,2.751052899286151,645.0676383990794,None,,,C30,001,2022_Mar_08_1701,ProdSingRedo,3.2.3,60.03705501272325,
,,,,17,0,17,0,,,,,,,,,,,,,,,,,,,,,,,,653.2104789000005,None,,,,,,,,,,,,,,,,,search,new_aloud,red,17,136,276,648.3748607989401,None,648.3748607989401,None,3,3.1237082984298468,648.3748607989401,None,651.5263997986913,None,652.0269724987447,None,652.0269724987447,None,n,1.1517992988228798,652.0269724987447,None,,,C30,001,2022_Mar_08_1701,ProdSingRedo,3.2.3,60.03705501272325,
,,,,18,0,18,0,,,,,,,,,,,,,,,,,,,,,,,,659.5673439987004,None,,,,,,,,,,,,,,,,,discovery,new_aloud,red,18,143,95,653.7266491986811,None,653.7266491986811,None,5,4.0761849991977215,653.7266491986811,None,657.8409204985946,None,658.3616912998259,None,658.3616912998259,None,f,1.1690593995153904,658.3616912998259,None,,,C30,001,2022_Mar_08_1701,ProdSingRedo,3.2.3,60.03705501272325,
,,,,19,0,19,0,,,,,,,,,,,,,,,,,,,,,,,,665.8495888002217,None,,,,,,,,,,,,,,,,,build,aloud,red,19,43,35,660.0906593985856,None,660.0906593985856,None,2,3.0158665012568235,660.0906593985856,None,663.1357512995601,None,663.6499076988548,None,663.6499076988548,None,n,2.1688570994883776,663.6499076988548,None,,,C30,001,2022_Mar_08_1701,ProdSingRedo,3.2.3,60.03705501272325,
,,,,20,0,20,0,,,,,,,,,,,,,,,,,,,,,,,,671.5783243998885,None,,,,,,,,,,,,,,,,,meeting,silent,yellow,20,79,187,666.37476679869,None,666.37476679869,None,4,3.4685084000229836,666.37476679869,None,669.879082499072,None,670.384678799659,None,670.384678799659,None,f,1.169937001541257,670.384678799659,None,,,C30,001,2022_Mar_08_1701,ProdSingRedo,3.2.3,60.03705501272325,
,,,,21,0,21,0,,,,,,,,,,,,,,,,,,,,,,,,677.8795375991613,None,,,,,,,,,,,,,,,,,ground,new_aloud,red,21,147,142,672.0939719993621,None,672.0939719993621,None,1,4.0043852012604475,672.0939719993621,None,676.1421954985708,None,676.6572132986039,None,676.6572132986039,None,n,1.2014276999980211,676.6572132986039,None,,,C30,001,2022_Mar_08_1701,ProdSingRedo,3.2.3,60.03705501272325,
,,,,22,0,22,0,,,,,,,,,,,,,,,,,,,,,,,,683.985850898549,None,,,,,,,,,,,,,,,,,prime,silent,yellow,22,71,235,678.3952525984496,None,678.3952525984496,None,3,4.103459000587463,678.3952525984496,None,682.5406006984413,None,683.045360898599,None,683.045360898599,None,n,0.9175769984722137,683.045360898599,None,,,C30,001,2022_Mar_08_1701,ProdSingRedo,3.2.3,60.03705501272325,
,,,,23,0,23,0,,,,,,,,,,,,,,,,,,,,,,,,689.5641980990767,None,,,,,,,,,,,,,,,,,native,silent,yellow,23,75,199,684.5203344989568,None,684.5203344989568,None,6,2.722325200214982,684.5203344989568,None,687.2885377984494,None,687.8062654994428,None,687.8062654994428,None,r,1.7324200998991728,687.8062654994428,None,,,C30,001,2022_Mar_08_1701,ProdSingRedo,3.2.3,60.03705501272325,
,,,,24,0,24,0,,,,,,,,,,,,,,,,,,,,,,,,700.6821615993977,None,,,,,,,,,,,,,,,,,entrance,silent,yellow,24,64,115,690.0961246993393,None,690.0961246993393,None,3,4.6504797004163265,690.0961246993393,None,694.7877492997795,None,695.3060162998736,None,695.3060162998736,None,f,5.344651700928807,695.3060162998736,None,,,C30,001,2022_Mar_08_1701,ProdSingRedo,3.2.3,60.03705501272325,
,,,,25,0,25,0,,,,,,,,,,,,,,,,,,,,,,,,707.4075492992997,None,,,,,,,,,,,,,,,,,empty,new_aloud,red,25,126,112,701.2178005985916,None,701.2178005985916,None,2,3.568944700062275,701.2178005985916,None,704.8408122994006,None,705.3561648000032,None,705.3561648000032,None,n,2.0231541004031897,705.3561648000032,None,,,C30,001,2022_Mar_08_1701,ProdSingRedo,3.2.3,60.03705501272325,
,,,,26,0,26,0,,,,,,,,,,,,,,,,,,,,,,,,712.6726091988385,None,,,,,,,,,,,,,,,,,sweet,new_silent,yellow,26,150,319,707.9322577994317,None,707.9322577994317,None,2,3.0311772990971804,707.9322577994317,None,710.9999616984278,None,711.5254336986691,None,711.5254336986691,None,n,1.1092190016061068,711.5254336986691,None,,,C30,001,2022_Mar_08_1701,ProdSingRedo,3.2.3,60.03705501272325,
,,,,27,0,27,0,,,,,,,,,,,,,,,,,,,,,,,,717.2411649990827,None,,,,,,,,,,,,,,,,,curve,new_sing,blue,27,99,82,713.2023741994053,None,713.2023741994053,None,1,2.7202134989202023,713.2023741994053,None,715.9741059988737,None,716.492403799668,None,716.492403799668,None,n,0.7183056008070707,716.492403799668,None,,,C30,001,2022_Mar_08_1701,ProdSingRedo,3.2.3,60.03705501272325,
,,,,28,0,28,0,,,,,,,,,,,,,,,,,,,,,,,,730.3744423985481,None,,,,,,,,,,,,,,,,,suspect,new_sing,blue,28,95,318,717.768516799435,None,717.768516799435,None,2,8.730062199756503,717.768516799435,None,726.5408469997346,None,727.0604957994074,None,727.0604957994074,None,n,3.286830300465226,727.0604957994074,None,,,C30,001,2022_Mar_08_1701,ProdSingRedo,3.2.3,60.03705501272325,
,,,,29,0,29,0,,,,,,,,,,,,,,,,,,,,,,,,735.4358223993331,None,,,,,,,,,,,,,,,,,defeat,new_sing,blue,29,112,88,730.902546999976,None,730.902546999976,None,1,2.7719618007540703,730.902546999976,None,733.7205989994109,None,734.2250108998269,None,734.2250108998269,None,n,1.1697058994323015,734.2250108998269,None,,,C30,001,2022_Mar_08_1701,ProdSingRedo,3.2.3,60.03705501272325,
,,,,30,0,30,0,,,,,,,,,,,,,,,,,,,,,,,,742.8756457995623,None,,,,,,,,,,,,,,,,,notice,silent,yellow,30,69,201,735.9667147994041,None,735.9667147994041,None,4,4.683683900162578,735.9667147994041,None,740.6737439986318,None,741.1902196984738,None,741.1902196984738,None,f,1.6604580003768206,741.1902196984738,None,,,C30,001,2022_Mar_08_1701,ProdSingRedo,3.2.3,60.03705501272325,
,,,,31,0,31,0,,,,,,,,,,,,,,,,,,,,,,,,746.6532721985132,None,,,,,,,,,,,,,,,,,block,new_silent,yellow,31,157,25,743.4014948997647,None,743.4014948997647,None,1,1.545167699456215,743.4014948997647,None,744.9948466997594,None,745.5150568988174,None,745.5150568988174,None,n,1.1113900002092123,745.5150568988174,None,,,C30,001,2022_Mar_08_1701,ProdSingRedo,3.2.3,60.03705501272325,
,,,,32,0,32,0,,,,,,,,,,,,,,,,,,,,,,,,752.7852304000407,None,,,,,,,,,,,,,,,,,sleep,aloud,red,32,46,290,747.1768976990134,None,747.1768976990134,None,6,3.9385056998580694,747.1768976990134,None,751.1534962002188,None,751.6734226997942,None,751.6734226997942,None,r,1.0809482000768185,751.6734226997942,None,,,C30,001,2022_Mar_08_1701,ProdSingRedo,3.2.3,60.03705501272325,
,,,,33,0,33,0,,,,,,,,,,,,,,,,,,,,,,,,761.5526439994574,None,,,,,,,,,,,,,,,,,government,sing,blue,33,12,139,753.3011361993849,None,753.3011361993849,None,5,6.413907298818231,753.3011361993849,None,759.7471197992563,None,760.2619699984789,None,760.2619699984789,None,f,1.2604377008974552,760.2619699984789,None,,,C30,001,2022_Mar_08_1701,ProdSingRedo,3.2.3,60.03705501272325,
,,,,34,0,34,0,,,,,,,,,,,,,,,,,,,,,,,,765.512313099578,None,,,,,,,,,,,,,,,,,congress,aloud,red,34,40,67,762.0839855987579,None,762.0839855987579,None,6,1.9184408988803625,762.0839855987579,None,764.0390103999525,None,764.5642609987408,None,764.5642609987408,None,r,0.9103567004203796,764.5642609987408,None,,,C30,001,2022_Mar_08_1701,ProdSingRedo,3.2.3,60.03705501272325,
,,,,35,0,35,0,,,,,,,,,,,,,,,,,,,,,,,,770.0191466994584,None,,,,,,,,,,,,,,,,,signal,aloud,red,35,36,287,766.0389553997666,None,766.0389553997666,None,6,2.643547998741269,766.0389553997666,None,768.7135780993849,None,769.228870799765,None,769.228870799765,None,r,0.7573067992925644,769.228870799765,None,,,C30,001,2022_Mar_08_1701,ProdSingRedo,3.2.3,60.03705501272325,
,,,,36,0,36,0,,,,,,,,,,,,,,,,,,,,,,,,773.6934046000242,None,,,,,,,,,,,,,,,,,quick,new_aloud,red,36,135,248,770.5417486988008,None,770.5417486988008,None,1,1.8447156008332968,770.5417486988008,None,772.428279099986,None,772.948687300086,None,772.948687300086,None,n,0.7099492996931076,772.948687300086,None,,,C30,001,2022_Mar_08_1701,ProdSingRedo,3.2.3,60.03705501272325,
,,,,37,0,37,0,,,,,,,,,,,,,,,,,,,,,,,,782.7541143987328,None,,,,,,,,,,,,,,,,,report,silent,yellow,37,76,259,774.2160390987992,None,774.2160390987992,None,4,6.93037430010736,774.2160390987992,None,781.1846290994436,None,781.6928460001945,None,781.6928460001945,None,f,1.029492899775505,781.6928460001945,None,,,C30,001,2022_Mar_08_1701,ProdSingRedo,3.2.3,60.03705501272325,
,,,,38,0,38,0,,,,,,,,,,,,,,,,,,,,,,,,791.9129269998521,None,,,,,,,,,,,,,,,,,career,new_sing,blue,38,96,42,783.2740891985595,None,783.2740891985595,None,3,4.496008399873972,783.2740891985595,None,787.7996161989868,None,788.302919998765,None,788.302919998765,None,f,3.579533601179719,788.302919998765,None,,,C30,001,2022_Mar_08_1701,ProdSingRedo,3.2.3,60.03705501272325,
,,,,39,0,39,0,,,,,,,,,,,,,,,,,,,,,,,,797.0720617994666,None,,,,,,,,,,,,,,,,,shape,new_aloud,red,39,140,282,792.4375542998314,None,792.4375542998314,None,2,2.9329344984143972,792.4375542998314,None,795.4099896997213,None,795.9294534996152,None,795.9294534996152,None,n,1.1126651000231504,795.9294534996152,None,,,C30,001,2022_Mar_08_1701,ProdSingRedo,3.2.3,60.03705501272325,
,,,,40,0,40,0,,,,,,,,,,,,,,,,,,,,,,,,805.0347633995116,None,,,,,,,,,,,,,,,,,service,new_sing,blue,40,105,280,797.5884988997132,None,797.5884988997132,None,1,6.158002600073814,797.5884988997132,None,803.7900892999023,None,804.3170944992453,None,804.3170944992453,None,n,0.6856041997671127,804.3170944992453,None,,,C30,001,2022_Mar_08_1701,ProdSingRedo,3.2.3,60.03705501272325,
,,,,41,0,41,0,,,,,,,,,,,,,,,,,,,,,,,,814.3133189994842,None,,,,,,,,,,,,,,,,,master,new_sing,blue,41,108,180,805.5601748991758,None,805.5601748991758,None,1,7.4502079002559185,805.5601748991758,None,813.0582659002393,None,813.5762740988284,None,813.5762740988284,None,n,0.7061890009790659,813.5762740988284,None,,,C30,001,2022_Mar_08_1701,ProdSingRedo,3.2.3,60.03705501272325,
,,,,42,0,42,0,,,,,,,,,,,,,,,,,,,,,,,,823.8139609992504,None,,,,,,,,,,,,,,,,,clear,new_sing,blue,42,110,52,814.839758399874,None,814.839758399874,None,1,6.330954499542713,814.839758399874,None,821.2126083001494,None,821.7302806992084,None,821.7302806992084,None,n,2.0482056010514498,821.7302806992084,None,,,C30,001,2022_Mar_08_1701,ProdSingRedo,3.2.3,60.03705501272325,
,,,,43,0,43,0,,,,,,,,,,,,,,,,,,,,,,,,830.6144539993256,None,,,,,,,,,,,,,,,,,pretty,new_silent,yellow,43,168,233,824.3367831986398,None,824.3367831986398,None,2,4.641409199684858,824.3367831986398,None,829.0150791984051,None,829.5329013988376,None,829.5329013988376,None,n,1.0454980991780758,829.5329013988376,None,,,C30,001,2022_Mar_08_1701,ProdSingRedo,3.2.3,60.03705501272325,
,,,,44,0,44,0,,,,,,,,,,,,,,,,,,,,,,,,834.981428399682,None,,,,,,,,,,,,,,,,,heavy,sing,blue,44,6,151,831.14120849967,None,831.14120849967,None,6,2.2130800001323223,831.14120849967,None,833.3831599988043,None,833.9022321999073,None,833.9022321999073,None,r,1.0440955013036728,833.9022321999073,None,,,C30,001,2022_Mar_08_1701,ProdSingRedo,3.2.3,60.03705501272325,
,,,,45,0,45,0,,,,,,,,,,,,,,,,,,,,,,,,839.4670508001,None,,,,,,,,,,,,,,,,,crowd,new_sing,blue,45,113,81,835.5083481986076,None,835.5083481986076,None,3,2.4627399016171694,835.5083481986076,None,838.0141301993281,None,838.5348789989948,None,838.5348789989948,None,n,0.8995171990245581,838.5348789989948,None,,,C30,001,2022_Mar_08_1701,ProdSingRedo,3.2.3,60.03705501272325,
,,,,46,0,46,0,,,,,,,,,,,,,,,,,,,,,,,,844.0152549985796,None,,,,,,,,,,,,,,,,,route,aloud,red,46,50,267,839.9969896990806,None,839.9969896990806,None,6,2.7094788998365402,839.9969896990806,None,842.7468311991543,None,843.2676612995565,None,843.2676612995565,None,r,0.7107650004327297,843.2676612995565,None,,,C30,001,2022_Mar_08_1701,ProdSingRedo,3.2.3,60.03705501272325,
,,,,47,0,47,0,,,,,,,,,,,,,,,,,,,,,,,,850.1496703997254,None,,,,,,,,,,,,,,,,,height,new_silent,yellow,47,153,152,844.5434772986919,None,844.5434772986919,None,4,4.114599898457527,844.5434772986919,None,848.6899964995682,None,849.2024109996855,None,849.2024109996855,None,f,0.9119750000536442,849.2024109996855,None,,,C30,001,2022_Mar_08_1701,ProdSingRedo,3.2.3,60.03705501272325,
,,,,48,0,48,0,,,,,,,,,,,,,,,,,,,,,,,,854.7194575984031,None,,,,,,,,,,,,,,,,,partner,sing,blue,48,16,211,850.6765078995377,None,850.6765078995377,None,6,2.5737909991294146,850.6765078995377,None,853.2920909989625,None,853.8207126986235,None,853.8207126986235,None,r,0.8697048015892506,853.8207126986235,None,,,C30,001,2022_Mar_08_1701,ProdSingRedo,3.2.3,60.03705501272325,
,,,,49,0,49,0,,,,,,,,,,,,,,,,,,,,,,,,861.582851799205,None,,,,,,,,,,,,,,,,,alert,new_aloud,red,49,125,6,855.2375996001065,None,855.2375996001065,None,5,5.028659800067544,855.2375996001065,None,860.3063226994127,None,860.8169275987893,None,860.8169275987893,None,f,0.7294693998992443,860.8169275987893,None,,,C30,001,2022_Mar_08_1701,ProdSingRedo,3.2.3,60.03705501272325,
,,,,50,0,50,0,,,,,,,,,,,,,,,,,,,,,,,,870.2344867996871,None,,,,,,,,,,,,,,,,,leader,new_sing,blue,50,98,168,862.1081429999322,None,862.1081429999322,None,3,6.615055900067091,862.1081429999322,None,868.76766849868,None,869.2866385988891,None,869.2866385988891,None,f,0.9157074987888336,869.2866385988891,None,,,C30,001,2022_Mar_08_1701,ProdSingRedo,3.2.3,60.03705501272325,
,,,,51,0,51,0,,,,,,,,,,,,,,,,,,,,,,,,874.6334274988621,None,,,,,,,,,,,,,,,,,smooth,sing,blue,51,25,292,870.7555626984686,None,870.7555626984686,None,6,2.2149074990302324,870.7555626984686,None,873.0120788998902,None,873.532737499103,None,873.532737499103,None,r,1.061607301235199,873.532737499103,None,,,C30,001,2022_Mar_08_1701,ProdSingRedo,3.2.3,60.03705501272325,
,,,,52,0,52,0,,,,,,,,,,,,,,,,,,,,,,,,878.2596618998796,None,,,,,,,,,,,,,,,,,strain,new_sing,blue,52,106,308,875.1594706997275,None,875.1594706997275,None,1,2.1473715994507074,875.1594706997275,None,877.3476723991334,None,877.859936799854,None,877.859936799854,None,n,0.382100198417902,877.859936799854,None,,,C30,001,2022_Mar_08_1701,ProdSingRedo,3.2.3,60.03705501272325,
,,,,53,0,53,0,,,,,,,,,,,,,,,,,,,,,,,,883.6351503990591,None,,,,,,,,,,,,,,,,,watch,aloud,red,53,33,351,878.7711589988321,None,878.7711589988321,None,4,3.391175100579858,878.7711589988321,None,882.213112199679,None,882.7420669998974,None,882.7420669998974,None,f,0.8683911003172398,882.7420669998974,None,,,C30,001,2022_Mar_08_1701,ProdSingRedo,3.2.3,60.03705501272325,
,,,,54,0,54,0,,,,,,,,,,,,,,,,,,,,,,,,892.2863549999893,None,,,,,,,,,,,,,,,,,crisis,sing,blue,54,27,79,884.156540999189,None,884.156540999189,None,2,6.37339000031352,884.156540999189,None,890.5687680002302,None,891.0806498993188,None,891.0806498993188,None,n,1.177861401811242,891.0806498993188,None,,,C30,001,2022_Mar_08_1701,ProdSingRedo,3.2.3,60.03705501272325,
,,,,55,0,55,0,,,,,,,,,,,,,,,,,,,,,,,,898.8527255989611,None,,,,,,,,,,,,,,,,,education,new_aloud,red,55,149,108,892.8158921990544,None,892.8158921990544,None,5,4.594556700438261,892.8158921990544,None,897.450506798923,None,897.979261700064,None,897.979261700064,None,f,0.8389117009937763,897.979261700064,None,,,C30,001,2022_Mar_08_1701,ProdSingRedo,3.2.3,60.03705501272325,
,,,,56,0,56,0,,,,,,,,,,,,,,,,,,,,,,,,905.7854375001043,None,,,,,,,,,,,,,,,,,medicine,new_sing,blue,56,97,186,899.3770528994501,None,899.3770528994501,None,1,4.737250100821257,899.3770528994501,None,904.1639179997146,None,904.6851662993431,None,904.6851662993431,None,n,1.0771360993385315,904.6851662993431,None,,,C30,001,2022_Mar_08_1701,ProdSingRedo,3.2.3,60.03705501272325,
,,,,57,0,57,0,,,,,,,,,,,,,,,,,,,,,,,,919.3790859989822,None,,,,,,,,,,,,,,,,,production,new_sing,blue,57,103,240,906.3168771993369,None,906.3168771993369,None,5,2.9253609012812376,906.3168771993369,None,909.2740770000964,None,909.7916653994471,None,909.7916653994471,None,f,9.554326601326466,909.7916653994471,None,,,C30,001,2022_Mar_08_1701,ProdSingRedo,3.2.3,60.03705501272325,
,,,,58,0,58,0,,,,,,,,,,,,,,,,,,,,,,,,936.5993599984795,None,,,,,,,,,,,,,,,,,column,new_aloud,red,58,120,57,919.8934666998684,None,919.8934666998684,None,2,13.4927779994905,919.8934666998684,None,933.4292405992746,None,933.9405684992671,None,933.9405684992671,None,n,2.637551000341773,933.9405684992671,None,,,C30,001,2022_Mar_08_1701,ProdSingRedo,3.2.3,60.03705501272325,
,,,,59,0,59,0,,,,,,,,,,,,,,,,,,,,,,,,946.0989434998482,None,,,,,,,,,,,,,,,,,accident,aloud,red,59,52,0,937.1300926990807,None,937.1300926990807,None,1,4.471841000020504,937.1300926990807,None,941.646237699315,None,942.1580623984337,None,942.1580623984337,None,n,3.9159705005586147,942.1580623984337,None,,,C30,001,2022_Mar_08_1701,ProdSingRedo,3.2.3,60.03705501272325,
,,,,60,0,60,0,,,,,,,,,,,,,,,,,,,,,,,,949.9893348999321,None,,,,,,,,,,,,,,,,,goose,new_aloud,red,60,144,138,946.6463871989399,None,946.6463871989399,None,1,2.267840798944235,946.6463871989399,None,948.943067599088,None,949.4555638991296,None,949.4555638991296,None,n,0.5069043003022671,949.4555638991296,None,,,C30,001,2022_Mar_08_1701,ProdSingRedo,3.2.3,60.03705501272325,
,,,,61,0,61,0,,,,,,,,,,,,,,,,,,,,,,,,955.1898226998746,None,,,,,,,,,,,,,,,,,machinery,new_sing,blue,61,114,175,950.5178938992321,None,950.5178938992321,None,2,3.2843100000172853,950.5178938992321,None,953.855697799474,None,954.3830034993589,None,954.3830034993589,None,n,0.7711498998105526,954.3830034993589,None,,,C30,001,2022_Mar_08_1701,ProdSingRedo,3.2.3,60.03705501272325,
,,,,62,0,62,0,,,,,,,,,,,,,,,,,,,,,,,,960.5237345993519,None,,,,,,,,,,,,,,,,,title,silent,yellow,62,74,331,955.7082298994064,None,955.7082298994064,None,4,3.325967099517584,955.7082298994064,None,959.0848079994321,None,959.6100525986403,None,959.6100525986403,None,f,0.8883301001042128,959.6100525986403,None,,,C30,001,2022_Mar_08_1701,ProdSingRedo,3.2.3,60.03705501272325,
,,,,63,0,63,0,,,,,,,,,,,,,,,,,,,,,,,,966.3727076984942,None,,,,,,,,,,,,,,,,,husband,silent,yellow,63,81,156,961.0495173987001,None,961.0495173987001,None,6,3.864443600177765,961.0495173987001,None,964.9415028989315,None,965.4610137995332,None,965.4610137995332,None,r,0.8773680999875069,965.4610137995332,None,,,C30,001,2022_Mar_08_1701,ProdSingRedo,3.2.3,60.03705501272325,
,,,,64,0,64,0,,,,,,,,,,,,,,,,,,,,,,,,977.2581321001053,None,,,,,,,,,,,,,,,,,substance,new_aloud,red,64,146,313,966.9006720986217,None,966.9006720986217,None,4,6.541471399366856,966.9006720986217,None,973.4934096001089,None,974.0001141987741,None,974.0001141987741,None,f,3.2339992988854647,974.0001141987741,None,,,C30,001,2022_Mar_08_1701,ProdSingRedo,3.2.3,60.03705501272325,
,,,,65,0,65,0,,,,,,,,,,,,,,,,,,,,,,,,984.3081483989954,None,,,,,,,,,,,,,,,,,problem,new_silent,yellow,65,171,238,977.7854193989187,None,977.7854193989187,None,5,5.176657499745488,977.7854193989187,None,983.0139620993286,None,983.5344979986548,None,983.5344979986548,None,f,0.7396025005728006,983.5344979986548,None,,,C30,001,2022_Mar_08_1701,ProdSingRedo,3.2.3,60.03705501272325,
,,,,66,0,66,0,,,,,,,,,,,,,,,,,,,,,,,,994.5093625001609,None,,,,,,,,,,,,,,,,,generation,new_sing,blue,66,100,136,984.8359311986715,None,984.8359311986715,None,2,8.374184699729085,984.8359311986715,None,993.2604294996709,None,993.7776439990848,None,993.7776439990848,None,n,0.6963659003376961,993.7776439990848,None,,,C30,001,2022_Mar_08_1701,ProdSingRedo,3.2.3,60.03705501272325,
,,,,67,0,67,0,,,,,,,,,,,,,,,,,,,,,,,,1000.9093019999564,None,,,,,,,,,,,,,,,,,degree,silent,yellow,67,61,89,995.0353219993412,None,995.0353219993412,None,4,4.478944500908256,995.0353219993412,None,999.5474788993597,None,1000.0618567988276,None,1000.0618567988276,None,f,0.8203402012586594,1000.0618567988276,None,,,C30,001,2022_Mar_08_1701,ProdSingRedo,3.2.3,60.03705501272325,
,,,,68,0,68,0,,,,,,,,,,,,,,,,,,,,,,,,1006.7422530986369,None,,,,,,,,,,,,,,,,,primary,sing,blue,68,26,234,1001.433816999197,None,1001.433816999197,None,3,4.0649238005280495,1001.433816999197,None,1005.5403911992908,None,1006.0656218994409,None,1006.0656218994409,None,f,0.640446400269866,1006.0656218994409,None,,,C30,001,2022_Mar_08_1701,ProdSingRedo,3.2.3,60.03705501272325,
,,,,69,0,69,0,,,,,,,,,,,,,,,,,,,,,,,,1019.7450839001685,None,,,,,,,,,,,,,,,,,raise,silent,yellow,69,88,250,1007.2599611990154,None,1007.2599611990154,None,4,8.198026800528169,1007.2599611990154,None,1015.5041237995028,None,1016.0295145995915,None,1016.0295145995915,None,f,3.6765611991286278,1016.0295145995915,None,,,C30,001,2022_Mar_08_1701,ProdSingRedo,3.2.3,60.03705501272325,
,,,,70,0,70,0,,,,,,,,,,,,,,,,,,,,,,,,1033.211165299639,None,,,,,,,,,,,,,,,,,research,sing,blue,70,4,261,1020.2730410993099,None,1020.2730410993099,None,3,11.272762600332499,1020.2730410993099,None,1031.578148599714,None,1032.0981383994222,None,1032.0981383994222,None,f,1.0801500994712114,1032.0981383994222,None,,,C30,001,2022_Mar_08_1701,ProdSingRedo,3.2.3,60.03705501272325,
,,,,71,0,71,0,,,,,,,,,,,,,,,,,,,,,,,,1040.1629850994796,None,,,,,,,,,,,,,,,,,order,new_silent,yellow,71,159,207,1033.7343226000667,None,1033.7343226000667,None,2,5.1161896996200085,1033.7343226000667,None,1038.8922987990081,None,1039.412511298433,None,1039.412511298433,None,n,0.7254918999969959,1039.412511298433,None,,,C30,001,2022_Mar_08_1701,ProdSingRedo,3.2.3,60.03705501272325,
,,,,72,0,72,0,,,,,,,,,,,,,,,,,,,,,,,,1048.2947499994189,None,,,,,,,,,,,,,,,,,atmosphere,aloud,red,72,56,12,1040.6901648994535,None,1040.6901648994535,None,5,3.8640821017324924,1040.6901648994535,None,1044.5957157984376,None,1045.1108017992228,None,1045.1108017992228,None,f,3.1472509000450373,1045.1108017992228,None,,,C30,001,2022_Mar_08_1701,ProdSingRedo,3.2.3,60.03705501272325,
,,,,73,0,73,0,,,,,,,,,,,,,,,,,,,,,,,,1053.729632999748,None,,,,,,,,,,,,,,,,,relation,sing,blue,73,23,257,1048.8227503988892,None,1048.8227503988892,None,6,2.947616199031472,1048.8227503988892,None,1051.814816398546,None,1052.3346448987722,None,1052.3346448987722,None,r,1.363290399312973,1052.3346448987722,None,,,C30,001,2022_Mar_08_1701,ProdSingRedo,3.2.3,60.03705501272325,
,,,,74,0,74,0,,,,,,,,,,,,,,,,,,,,,,,,1062.5894887000322,None,,,,,,,,,,,,,,,,,capital,new_aloud,red,74,145,40,1054.2569005992264,None,1054.2569005992264,None,1,7.1049555987119675,1054.2569005992264,None,1061.404552999884,None,1061.918502399698,None,1061.918502399698,None,n,0.6513823010027409,1061.918502399698,None,,,C30,001,2022_Mar_08_1701,ProdSingRedo,3.2.3,60.03705501272325,
,,,,75,0,75,0,,,,,,,,,,,,,,,,,,,,,,,,1069.0296774990857,None,,,,,,,,,,,,,,,,,century,new_sing,blue,75,118,45,1063.1175692994148,None,1063.1175692994148,None,1,4.268854500725865,1063.1175692994148,None,1067.4314644988626,None,1067.952274600044,None,1067.952274600044,None,n,1.0415774993598461,1067.952274600044,None,,,C30,001,2022_Mar_08_1701,ProdSingRedo,3.2.3,60.03705501272325,
,,,,76,0,76,0,,,,,,,,,,,,,,,,,,,,,,,,1074.9416266996413,None,,,,,,,,,,,,,,,,,dream,new_silent,yellow,76,175,104,1069.5563389994204,None,1069.5563389994204,None,2,4.39743360131979,1069.5563389994204,None,1073.9856724999845,None,1074.4985967986286,None,1074.4985967986286,None,n,0.4074284005910158,1074.4985967986286,None,,,C30,001,2022_Mar_08_1701,ProdSingRedo,3.2.3,60.03705501272325,
,,,,77,0,77,0,,,,,,,,,,,,,,,,,,,,,,,,1082.0806792993098,None,,,,,,,,,,,,,,,,,threat,aloud,red,77,54,329,1075.4746444988996,None,1075.4746444988996,None,2,5.255446499213576,1075.4746444988996,None,1080.7781802993268,None,1081.3004401996732,None,1081.3004401996732,None,n,0.7414500005543232,1081.3004401996732,None,,,C30,001,2022_Mar_08_1701,ProdSingRedo,3.2.3,60.03705501272325,
,,,,78,0,78,0,,,,,,,,,,,,,,,,,,,,,,,,1087.8551981002092,None,,,,,,,,,,,,,,,,,salary,silent,yellow,78,62,271,1082.613655699417,None,1082.613655699417,None,4,3.740480400621891,1082.613655699417,None,1086.3926734998822,None,1086.9227826986462,None,1086.9227826986462,None,f,0.9108426012098789,1086.9227826986462,None,,,C30,001,2022_Mar_08_1701,ProdSingRedo,3.2.3,60.03705501272325,
,,,,79,0,79,0,,,,,,,,,,,,,,,,,,,,,,,,1091.0967509988695,None,,,,,,,,,,,,,,,,,damage,new_sing,blue,79,116,83,1088.3616074994206,None,1088.3616074994206,None,1,1.7604051996022463,1088.3616074994206,None,1090.1676546987146,None,1090.6912794988602,None,1090.6912794988602,None,n,0.374668899923563,1090.6912794988602,None,,,C30,001,2022_Mar_08_1701,ProdSingRedo,3.2.3,60.03705501272325,
,,,,80,0,80,0,,,,,,,,,,,,,,,,,,,,,,,,1095.6496784985065,None,,,,,,,,,,,,,,,,,broad,new_silent,yellow,80,162,31,1091.6268098000437,None,1091.6268098000437,None,1,2.975042099133134,1091.6268098000437,None,1094.655441198498,None,1095.1581915989518,None,1095.1581915989518,None,n,0.45175560005009174,1095.1581915989518,None,,,C30,001,2022_Mar_08_1701,ProdSingRedo,3.2.3,60.03705501272325,
,,,,81,0,81,0,,,,,,,,,,,,,,,,,,,,,,,,1100.532128199935,None,,,,,,,,,,,,,,,,,election,aloud,red,81,38,109,1096.168433599174,None,1096.168433599174,None,6,2.953769199550152,1096.168433599174,None,1099.1626934986562,None,1099.6817398983985,None,1099.6817398983985,None,r,0.8242055997252464,1099.6817398983985,None,,,C30,001,2022_Mar_08_1701,ProdSingRedo,3.2.3,60.03705501272325,
,,,,82,0,82,0,,,,,,,,,,,,,,,,,,,,,,,,1110.6329213995486,None,,,,,,,,,,,,,,,,,theme,aloud,red,82,37,326,1101.0534783992916,None,1101.0534783992916,None,2,7.7723207008093596,1101.0534783992916,None,1108.8764680996537,None,1109.3964641988277,None,1109.3964641988277,None,n,1.1973879002034664,1109.3964641988277,None,,,C30,001,2022_Mar_08_1701,ProdSingRedo,3.2.3,60.03705501272325,
,,,,83,0,83,0,,,,,,,,,,,,,,,,,,,,,,,,1121.0661525987089,None,,,,,,,,,,,,,,,,,enemy,new_silent,yellow,83,160,113,1111.158570099622,None,1111.158570099622,None,4,7.258949799463153,1111.158570099622,None,1118.4421510994434,None,1118.9529138989747,None,1118.9529138989747,None,f,2.088918400928378,1118.9529138989747,None,,,C30,001,2022_Mar_08_1701,ProdSingRedo,3.2.3,60.03705501272325,
,,,,84,0,84,0,,,,,,,,,,,,,,,,,,,,,,,,1130.1196309998631,None,,,,,,,,,,,,,,,,,state,sing,blue,84,22,303,1121.5936472993344,None,1121.5936472993344,None,3,6.184118900448084,1121.5936472993344,None,1127.8242066986859,None,1128.3384584989399,None,1128.3384584989399,None,f,1.7434823997318745,1128.3384584989399,None,,,C30,001,2022_Mar_08_1701,ProdSingRedo,3.2.3,60.03705501272325,
,,,,85,0,85,0,,,,,,,,,,,,,,,,,,,,,,,,1134.5271085985005,None,,,,,,,,,,,,,,,,,count,new_silent,yellow,85,173,72,1130.6397914998233,None,1130.6397914998233,None,1,2.6502814013510942,1130.6397914998233,None,1133.3260391000658,None,1133.835126100108,None,1133.835126100108,None,n,0.6706815008074045,1133.835126100108,None,,,C30,001,2022_Mar_08_1701,ProdSingRedo,3.2.3,60.03705501272325,
,,,,86,0,86,0,,,,,,,,,,,,,,,,,,,,,,,,1140.9778723996133,None,,,,,,,,,,,,,,,,,symbol,silent,yellow,86,60,321,1135.0637713000178,None,1135.0637713000178,None,2,4.450055301189423,1135.0637713000178,None,1139.5770819988102,None,1140.0856651999056,None,1140.0856651999056,None,n,0.8601041007786989,1140.0856651999056,None,,,C30,001,2022_Mar_08_1701,ProdSingRedo,3.2.3,60.03705501272325,
,,,,87,0,87,0,,,,,,,,,,,,,,,,,,,,,,,,1147.804593699053,None,,,,,,,,,,,,,,,,,store,silent,yellow,87,67,305,1141.4929259996861,None,1141.4929259996861,None,3,4.940847299993038,1141.4929259996861,None,1146.477442998439,None,1146.9852697998285,None,1146.9852697998285,None,n,0.7841417994350195,1146.9852697998285,None,,,C30,001,2022_Mar_08_1701,ProdSingRedo,3.2.3,60.03705501272325,
,,,,88,0,88,0,,,,,,,,,,,,,,,,,,,,,,,,1162.2197576984763,None,,,,,,,,,,,,,,,,,carry,sing,blue,88,17,43,1148.3113983999938,None,1148.3113983999938,None,3,12.290019501000643,1148.3113983999938,None,1160.6338611990213,None,1161.1497919987887,None,1161.1497919987887,None,f,1.0439804997295141,1161.1497919987887,None,,,C30,001,2022_Mar_08_1701,ProdSingRedo,3.2.3,60.03705501272325,
,,,,89,0,89,0,,,,,,,,,,,,,,,,,,,,,,,,1177.373819598928,None,,,,,,,,,,,,,,,,,private,new_aloud,red,89,130,237,1162.7505428995937,None,1162.7505428995937,None,4,5.995087198913097,1162.7505428995937,None,1168.7888553999364,None,1169.30754429847,None,1169.30754429847,None,n,8.030146799981594,1169.30754429847,None,,,C30,001,2022_Mar_08_1701,ProdSingRedo,3.2.3,60.03705501272325,
,,,,90,0,90,0,,,,,,,,,,,,,,,,,,,,,,,,1186.9738921988755,None,,,,,,,,,,,,,,,,,center,aloud,red,90,59,44,1177.8838885985315,None,1177.8838885985315,None,4,7.7898657992482185,1177.8838885985315,None,1185.7149267997593,None,1186.2370480000973,None,1186.2370480000973,None,f,0.7005743999034166,1186.2370480000973,None,,,C30,001,2022_Mar_08_1701,ProdSingRedo,3.2.3,60.03705501272325,
,,,,91,0,91,0,,,,,,,,,,,,,,,,,,,,,,,,1194.4890027996153,None,,,,,,,,,,,,,,,,,level,silent,yellow,91,80,170,1187.4997255001217,None,1187.4997255001217,None,2,4.781934998929501,1187.4997255001217,None,1192.3355674985796,None,1192.8564083985984,None,1192.8564083985984,None,n,1.5933878999203444,1192.8564083985984,None,,,C30,001,2022_Mar_08_1701,ProdSingRedo,3.2.3,60.03705501272325,
,,,,92,0,92,0,,,,,,,,,,,,,,,,,,,,,,,,1206.3247454985976,None,,,,,,,,,,,,,,,,,season,sing,blue,92,28,277,1195.014839898795,None,1195.014839898795,None,3,9.915146199986339,1195.014839898795,None,1204.969885399565,None,1205.4920196998864,None,1205.4920196998864,None,f,0.7976409997791052,1205.4920196998864,None,,,C30,001,2022_Mar_08_1701,ProdSingRedo,3.2.3,60.03705501272325,
,,,,93,0,93,0,,,,,,,,,,,,,,,,,,,,,,,,1211.6239697001874,None,,,,,,,,,,,,,,,,,sight,new_sing,blue,93,92,286,1206.8483974002302,None,1206.8483974002302,None,1,3.697569999843836,1206.8483974002302,None,1210.5889265984297,None,1211.113794799894,None,1211.113794799894,None,n,0.4799397997558117,1211.113794799894,None,,,C30,001,2022_Mar_08_1701,ProdSingRedo,3.2.3,60.03705501272325,
,,,,94,0,94,0,,,,,,,,,,,,,,,,,,,,,,,,1223.1873476989567,None,,,,,,,,,,,,,,,,,express,new_silent,yellow,94,166,124,1212.1475551985204,None,1212.1475551985204,None,3,6.109902000054717,1212.1475551985204,None,1218.2933280002326,None,1218.8028867989779,None,1218.8028867989779,None,f,4.350655799731612,1218.8028867989779,None,,,C30,001,2022_Mar_08_1701,ProdSingRedo,3.2.3,60.03705501272325,
,,,,95,0,95,0,,,,,,,,,,,,,,,,,,,,,,,,1231.7666673995554,None,,,,,,,,,,,,,,,,,measure,silent,yellow,95,83,184,1223.711816098541,None,1223.711816098541,None,4,5.537711299955845,1223.711816098541,None,1229.285056900233,None,1229.8132028989494,None,1229.8132028989494,None,f,1.9325073007494211,1229.8132028989494,None,,,C30,001,2022_Mar_08_1701,ProdSingRedo,3.2.3,60.03705501272325,
,,,,96,0,96,0,,,,,,,,,,,,,,,,,,,,,,,,1240.0400940999389,None,,,,,,,,,,,,,,,,,error,new_aloud,red,96,121,117,1232.2940704990178,None,1232.2940704990178,None,3,5.835444299504161,1232.2940704990178,None,1238.1542008984834,None,1238.665441500023,None,1238.665441500023,None,n,1.3520638011395931,1238.665441500023,None,,,C30,001,2022_Mar_08_1701,ProdSingRedo,3.2.3,60.03705501272325,
,,,,97,0,97,0,,,,,,,,,,,,,,,,,,,,,,,,1245.910232000053,None,,,,,,,,,,,,,,,,,stand,sing,blue,97,10,302,1240.563535099849,None,1240.563535099849,None,2,3.6540054008364677,1240.563535099849,None,1244.2572208996862,None,1244.7780376002192,None,1244.7780376002192,None,n,1.0954505000263453,1244.7780376002192,None,,,C30,001,2022_Mar_08_1701,ProdSingRedo,3.2.3,60.03705501272325,
,,,,98,0,98,0,,,,,,,,,,,,,,,,,,,,,,,,1263.5094345994294,None,,,,,,,,,,,,,,,,,color,sing,blue,98,20,56,1246.430310498923,None,1246.430310498923,None,1,15.539128199219704,1246.430310498923,None,1262.0035586990416,None,1262.5237008985132,None,1262.5237008985132,None,n,0.9583927989006042,1262.5237008985132,None,,,C30,001,2022_Mar_08_1701,ProdSingRedo,3.2.3,60.03705501272325,
,,,,99,0,99,0,,,,,,,,,,,,,,,,,,,,,,,,1269.6437318995595,None,,,,,,,,,,,,,,,,,under,aloud,red,99,30,343,1264.035163300112,None,1264.035163300112,None,1,4.430299699306488,1264.035163300112,None,1268.4853089991957,None,1268.9886542987078,None,1268.9886542987078,None,n,0.6208157017827034,1268.9886542987078,None,,,C30,001,2022_Mar_08_1701,ProdSingRedo,3.2.3,60.03705501272325,
,,,,100,0,100,0,,,,,,,,,,,,,,,,,,,,,,,,1273.910460298881,None,,,,,,,,,,,,,,,,,tragedy,new_silent,yellow,100,169,335,1270.1687548998743,None,1270.1687548998743,None,1,2.664953099563718,1270.1687548998743,None,1272.8732830993831,None,1273.4000224992633,None,1273.4000224992633,None,n,0.4815955013036728,1273.4000224992633,None,,,C30,001,2022_Mar_08_1701,ProdSingRedo,3.2.3,60.03705501272325,
,,,,101,0,101,0,,,,,,,,,,,,,,,,,,,,,,,,1279.5104230996221,None,,,,,,,,,,,,,,,,,number,sing,blue,101,11,203,1274.4425596985966,None,1274.4425596985966,None,2,3.7751139998435974,1274.4425596985966,None,1278.2625798992813,None,1278.7783562988043,None,1278.7783562988043,None,n,0.7031797003000975,1278.7783562988043,None,,,C30,001,2022_Mar_08_1701,ProdSingRedo,3.2.3,60.03705501272325,
,,,,102,0,102,0,,,,,,,,,,,,,,,,,,,,,,,,1283.5287486985326,None,,,,,,,,,,,,,,,,,oxygen,silent,yellow,102,73,209,1280.0286988988519,None,1280.0286988988519,None,6,2.1167649999260902,1280.0286988988519,None,1282.1961272992194,None,1282.71043859981,None,1282.71043859981,None,r,0.7790399007499218,1282.71043859981,None,,,C30,001,2022_Mar_08_1701,ProdSingRedo,3.2.3,60.03705501272325,
,,,,103,0,103,0,,,,,,,,,,,,,,,,,,,,,,,,1287.494533598423,None,,,,,,,,,,,,,,,,,council,sing,blue,103,14,71,1284.0537461992353,None,1284.0537461992353,None,6,2.171851398423314,1284.0537461992353,None,1286.2783012986183,None,1286.7990335002542,None,1286.7990335002542,None,r,0.6664420012384653,1286.7990335002542,None,,,C30,001,2022_Mar_08_1701,ProdSingRedo,3.2.3,60.03705501272325,
,,,,104,0,104,0,,,,,,,,,,,,,,,,,,,,,,,,1293.8379461001605,None,,,,,,,,,,,,,,,,,music,aloud,red,104,35,196,1288.017839299515,None,1288.017839299515,None,3,4.231937600299716,1288.017839299515,None,1292.2824412994087,None,1292.7982202991843,None,1292.7982202991843,None,f,1.0192792005836964,1292.7982202991843,None,,,C30,001,2022_Mar_08_1701,ProdSingRedo,3.2.3,60.03705501272325,
,,,,105,0,105,0,,,,,,,,,,,,,,,,,,,,,,,,1297.0445384997874,None,,,,,,,,,,,,,,,,,fight,silent,yellow,105,66,127,1294.37063119933,None,1294.37063119933,None,1,1.622869599610567,1294.37063119933,None,1296.0501434989274,None,1296.565969599411,None,1296.565969599411,None,n,0.44370679929852486,1296.565969599411,None,,,C30,001,2022_Mar_08_1701,ProdSingRedo,3.2.3,60.03705501272325,
,,,,106,0,106,0,,,,,,,,,,,,,,,,,,,,,,,,1301.7724586986005,None,,,,,,,,,,,,,,,,,union,silent,yellow,106,77,344,1297.5710341986269,None,1297.5710341986269,None,2,2.6942219994962215,1297.5710341986269,None,1300.2972871996462,None,1300.8153542988002,None,1300.8153542988002,None,n,0.9381419997662306,1300.8153542988002,None,,,C30,001,2022_Mar_08_1701,ProdSingRedo,3.2.3,60.03705501272325,
,,,,107,0,107,0,,,,,,,,,,,,,,,,,,,,,,,,1307.2517809998244,None,,,,,,,,,,,,,,,,,quiet,silent,yellow,107,72,249,1302.3033334985375,None,1302.3033334985375,None,4,3.666277900338173,1302.3033334985375,None,1306.0158617999405,None,1306.52784569934,None,1306.52784569934,None,f,0.6903524994850159,1306.52784569934,None,,,C30,001,2022_Mar_08_1701,ProdSingRedo,3.2.3,60.03705501272325,
,,,,108,0,108,0,,,,,,,,,,,,,,,,,,,,,,,,1313.796270499006,None,,,,,,,,,,,,,,,,,majority,new_aloud,red,108,128,176,1307.7767404001206,None,1307.7767404001206,None,2,4.384615300223231,1307.7767404001206,None,1312.2084448002279,None,1312.7354228999466,None,1312.7354228999466,None,n,1.0261172000318766,1312.7354228999466,None,,,C30,001,2022_Mar_08_1701,ProdSingRedo,3.2.3,60.03705501272325,
,,,,109,0,109,0,,,,,,,,,,,,,,,,,,,,,,,,1319.0792330987751,None,,,,,,,,,,,,,,,,,death,new_aloud,red,109,129,86,1314.3218308985233,None,1314.3218308985233,None,1,3.383576799184084,1314.3218308985233,None,1317.7443736996502,None,1318.2652807999402,None,1318.2652807999402,None,n,0.7762383986264467,1318.2652807999402,None,,,C30,001,2022_Mar_08_1701,ProdSingRedo,3.2.3,60.03705501272325,
,,,,110,0,110,0,,,,,,,,,,,,,,,,,,,,,,,,1322.5897674988955,None,,,,,,,,,,,,,,,,,strength,new_sing,blue,110,90,310,1319.6056235991418,None,1319.6056235991418,None,1,2.1481004990637302,1319.6056235991418,None,1321.7963717989624,None,1322.3170465994626,None,1322.3170465994626,None,n,0.24415479972958565,1322.3170465994626,None,,,C30,001,2022_Mar_08_1701,ProdSingRedo,3.2.3,60.03705501272325,
,,,,111,0,111,0,,,,,,,,,,,,,,,,,,,,,,,,1327.5305782984942,None,,,,,,,,,,,,,,,,,dispute,sing,blue,111,2,99,1323.1178386993706,None,1323.1178386993706,None,1,3.531469600275159,1323.1178386993706,None,1326.6918909996748,None,1327.217292400077,None,1327.217292400077,None,n,0.28021549992263317,1327.217292400077,None,,,C30,001,2022_Mar_08_1701,ProdSingRedo,3.2.3,60.03705501272325,
,,,,112,0,112,0,,,,,,,,,,,,,,,,,,,,,,,,1332.457470498979,None,,,,,,,,,,,,,,,,,murder,aloud,red,112,51,195,1328.0398412998766,None,1328.0398412998766,None,1,3.449396800249815,1328.0398412998766,None,1331.5133763998747,None,1332.0316242985427,None,1332.0316242985427,None,n,0.40185160003602505,1332.0316242985427,None,,,C30,001,2022_Mar_08_1701,ProdSingRedo,3.2.3,60.03705501272325,
,,,,113,0,113,0,,,,,,,,,,,,,,,,,,,,,,,,1339.879426598549,None,,,,,,,,,,,,,,,,,tough,silent,yellow,113,87,333,1332.9863264001906,None,1332.9863264001906,None,4,5.447064800187945,1332.9863264001906,None,1338.4776814002544,None,1339.001469898969,None,1339.001469898969,None,f,0.8238935992121696,1339.001469898969,None,,,C30,001,2022_Mar_08_1701,ProdSingRedo,3.2.3,60.03705501272325,
,,,,114,0,114,0,,,,,,,,,,,,,,,,,,,,,,,,1343.9071625992656,None,,,,,,,,,,,,,,,,,foundation,new_silent,yellow,114,163,132,1340.4126002993435,None,1340.4126002993435,None,5,2.1568844988942146,1340.4126002993435,None,1342.6173048000783,None,1343.140043400228,None,1343.140043400228,None,f,0.7491880003362894,1343.140043400228,None,,,C30,001,2022_Mar_08_1701,ProdSingRedo,3.2.3,60.03705501272325,
,,,,115,0,115,0,,,,,,,,,,,,,,,,,,,,,,,,1347.7979591991752,None,,,,,,,,,,,,,,,,,revolution,silent,yellow,115,85,264,1344.4303492996842,None,1344.4303492996842,None,6,1.643437698483467,1344.4303492996842,None,1346.123505398631,None,1346.641755098477,None,1346.641755098477,None,r,1.1197452004998922,1346.641755098477,None,,,C30,001,2022_Mar_08_1701,ProdSingRedo,3.2.3,60.03705501272325,
,,,,116,0,116,0,,,,,,,,,,,,,,,,,,,,,,,,1352.5431906990707,None,,,,,,,,,,,,,,,,,citizen,aloud,red,116,53,50,1348.3210326991975,None,1348.3210326991975,None,6,3.0006508994847536,1348.3210326991975,None,1351.3575062993914,None,1351.8714000992477,None,1351.8714000992477,None,r,0.6499429997056723,1351.8714000992477,None,,,C30,001,2022_Mar_08_1701,ProdSingRedo,3.2.3,60.03705501272325,
,,,,117,0,117,0,,,,,,,,,,,,,,,,,,,,,,,,1357.3499259985983,None,,,,,,,,,,,,,,,,,interior,aloud,red,117,44,164,1353.069342399016,None,1353.069342399016,None,6,1.748080300167203,1353.069342399016,None,1354.8573729991913,None,1355.367596399039,None,1355.367596399039,None,r,1.9544684011489153,1355.367596399039,None,,,C30,001,2022_Mar_08_1701,ProdSingRedo,3.2.3,60.03705501272325,
,,,,118,0,118,0,,,,,,,,,,,,,,,,,,,,,,,,1362.5332158990204,None,,,,,,,,,,,,,,,,,addition,silent,yellow,118,63,2,1357.8660118989646,None,1357.8660118989646,None,2,3.3914006985723972,1357.8660118989646,None,1361.2904211990535,None,1361.793590798974,None,1361.793590798974,None,n,0.7037346996366978,1361.793590798974,None,,,C30,001,2022_Mar_08_1701,ProdSingRedo,3.2.3,60.03705501272325,
,,,,119,0,119,0,,,,,,,,,,,,,,,,,,,,,,,,1365.7997147999704,None,,,,,,,,,,,,,,,,,turkey,sing,blue,119,5,342,1363.0432099997997,None,1363.0432099997997,None,6,1.686141600832343,1363.0432099997997,None,1364.782855099067,None,1365.2850283998996,None,1365.2850283998996,None,r,0.4844018016010523,1365.2850283998996,None,,,C30,001,2022_Mar_08_1701,ProdSingRedo,3.2.3,60.03705501272325,
,,,,120,0,120,0,,,,,,,,,,,,,,,,,,,,,,,,1371.1161304991692,None,,,,,,,,,,,,,,,,,working,new_sing,blue,120,109,357,1366.3283140994608,None,1366.3283140994608,None,1,3.1529949996620417,1366.3283140994608,None,1369.5370623990893,None,1370.055938899517,None,1370.055938899517,None,n,1.0253445003181696,1370.055938899517,None,,,C30,001,2022_Mar_08_1701,ProdSingRedo,3.2.3,60.03705501272325,
,,,,121,0,121,0,,,,,,,,,,,,,,,,,,,,,,,,1377.1762898992747,None,,,,,,,,,,,,,,,,,permit,new_aloud,red,121,131,218,1371.6404706984758,None,1371.6404706984758,None,2,4.344868099316955,1371.6404706984758,None,1376.0301881991327,None,1376.5530052985996,None,1376.5530052985996,None,n,0.5921905003488064,1376.5530052985996,None,,,C30,001,2022_Mar_08_1701,ProdSingRedo,3.2.3,60.03705501272325,
,,,,122,0,122,0,,,,,,,,,,,,,,,,,,,,,,,,1386.0268231984228,None,,,,,,,,,,,,,,,,,agreement,new_sing,blue,122,102,5,1377.7152257990092,None,1377.7152257990092,None,4,6.846181500703096,1377.7152257990092,None,1384.6152336988598,None,1385.137000899762,None,1385.137000899762,None,f,0.8723236992955208,1385.137000899762,None,,,C30,001,2022_Mar_08_1701,ProdSingRedo,3.2.3,60.03705501272325,
,,,,123,0,123,0,,,,,,,,,,,,,,,,,,,,,,,,1394.4852014984936,None,,,,,,,,,,,,,,,,,cousin,new_silent,yellow,123,152,76,1386.54033799842,None,1386.54033799842,None,6,4.076978899538517,1386.54033799842,None,1390.6691422984004,None,1391.1862866990268,None,1391.1862866990268,None,f,3.271321700885892,1391.1862866990268,None,,,C30,001,2022_Mar_08_1701,ProdSingRedo,3.2.3,60.03705501272325,
,,,,124,0,124,0,,,,,,,,,,,,,,,,,,,,,,,,1400.1887659002095,None,,,,,,,,,,,,,,,,,still,new_sing,blue,124,101,304,1395.0075615998358,None,1395.0075615998358,None,2,2.6664704997092485,1395.0075615998358,None,1397.712782599032,None,1398.2344485986978,None,1398.2344485986978,None,n,1.9189055003225803,1398.2344485986978,None,,,C30,001,2022_Mar_08_1701,ProdSingRedo,3.2.3,60.03705501272325,
,,,,125,0,125,0,,,,,,,,,,,,,,,,,,,,,,,,1404.3536200989038,None,,,,,,,,,,,,,,,,,estate,silent,yellow,125,82,119,1400.714320199564,None,1400.714320199564,None,4,2.2070953007787466,1400.714320199564,None,1402.967994298786,None,1403.4866943992674,None,1403.4866943992674,None,f,0.8346928991377354,1403.4866943992674,None,,,C30,001,2022_Mar_08_1701,ProdSingRedo,3.2.3,60.03705501272325,
,,,,126,0,126,0,,,,,,,,,,,,,,,,,,,,,,,,1409.1529366001487,None,,,,,,,,,,,,,,,,,concern,new_sing,blue,126,117,65,1404.8747593984008,None,1404.8747593984008,None,1,2.7264840994030237,1404.8747593984008,None,1407.6513250991702,None,1408.1661646999419,None,1408.1661646999419,None,n,0.9471093993633986,1408.1661646999419,None,,,C30,001,2022_Mar_08_1701,ProdSingRedo,3.2.3,60.03705501272325,
,,,,127,0,127,0,,,,,,,,,,,,,,,,,,,,,,,,1414.102401100099,None,,,,,,,,,,,,,,,,,management,aloud,red,127,47,177,1409.689574599266,None,1409.689574599266,None,5,3.159630799666047,1409.689574599266,None,1412.9005640000105,None,1413.4094190001488,None,1413.4094190001488,None,f,0.6559156998991966,1413.4094190001488,None,,,C30,001,2022_Mar_08_1701,ProdSingRedo,3.2.3,60.03705501272325,
,,,,128,0,128,0,,,,,,,,,,,,,,,,,,,,,,,,1419.4012662991881,None,,,,,,,,,,,,,,,,,division,new_silent,yellow,128,156,101,1414.6371199991554,None,1414.6371199991554,None,2,2.2120539993047714,1414.6371199991554,None,1416.8879707995802,None,1417.4046857990324,None,1417.4046857990324,None,n,1.9724895991384983,1417.4046857990324,None,,,C30,001,2022_Mar_08_1701,ProdSingRedo,3.2.3,60.03705501272325,
,,,,129,0,129,0,,,,,,,,,,,,,,,,,,,,,,,,1423.0046410001814,None,,,,,,,,,,,,,,,,,shear,new_aloud,red,129,148,283,1419.9265647996217,None,1419.9265647996217,None,1,1.9547496009618044,1419.9265647996217,None,1421.933269198984,None,1422.4550097994506,None,1422.4550097994506,None,n,0.5142448004335165,1422.4550097994506,None,,,C30,001,2022_Mar_08_1701,ProdSingRedo,3.2.3,60.03705501272325,
,,,,130,0,130,0,,,,,,,,,,,,,,,,,,,,,,,,1432.9618273992091,None,,,,,,,,,,,,,,,,,drama,new_aloud,red,130,141,103,1423.5342098996043,None,1423.5342098996043,None,1,8.12304599955678,1423.5342098996043,None,1431.7134121991694,None,1432.2138109989464,None,1432.2138109989464,None,n,0.7231080010533333,1432.2138109989464,None,,,C30,001,2022_Mar_08_1701,ProdSingRedo,3.2.3,60.03705501272325,
,,,,131,0,131,0,,,,,,,,,,,,,,,,,,,,,,,,1436.6470307987183,None,,,,,,,,,,,,,,,,,youth,new_aloud,red,131,133,359,1433.481397099793,None,1433.481397099793,None,2,1.8960828986018896,1433.481397099793,None,1435.4170632995665,None,1435.9439978990704,None,1435.9439978990704,None,n,0.6730070989578962,1435.9439978990704,None,,,C30,001,2022_Mar_08_1701,ProdSingRedo,3.2.3,60.03705501272325,
,,,,132,0,132,0,,,,,,,,,,,,,,,,,,,,,,,,1443.5929948985577,None,,,,,,,,,,,,,,,,,light,new_aloud,red,132,122,171,1437.1764007993042,None,1437.1764007993042,None,2,4.73729920014739,1437.1764007993042,None,1441.9482507985085,None,1442.474150499329,None,1442.474150499329,None,n,1.079000100493431,1442.474150499329,None,,,C30,001,2022_Mar_08_1701,ProdSingRedo,3.2.3,60.03705501272325,
,,,,133,0,133,0,,,,,,,,,,,,,,,,,,,,,,,,1447.5051751993597,None,,,,,,,,,,,,,,,,,account,new_silent,yellow,133,161,1,1444.1096208002418,None,1444.1096208002418,None,5,2.2036534007638693,1444.1096208002418,None,1446.3552623987198,None,1446.8725549988449,None,1446.8725549988449,None,f,0.6005902010947466,1446.8725549988449,None,,,C30,001,2022_Mar_08_1701,ProdSingRedo,3.2.3,60.03705501272325,
,,,,134,0,134,0,,,,,,,,,,,,,,,,,,,,,,,,1453.2230514995754,None,,,,,,,,,,,,,,,,,listen,aloud,red,134,32,172,1448.0141907986253,None,1448.0141907986253,None,5,3.683128399774432,1448.0141907986253,None,1451.7318126987666,None,1452.2548591997474,None,1452.2548591997474,None,f,0.9302933998405933,1452.2548591997474,None,,,C30,001,2022_Mar_08_1701,ProdSingRedo,3.2.3,60.03705501272325,
,,,,135,0,135,0,,,,,,,,,,,,,,,,,,,,,,,,1458.7174999993294,None,,,,,,,,,,,,,,,,,passage,new_aloud,red,135,134,212,1453.75165049918,None,1453.75165049918,None,4,3.329391499981284,1453.75165049918,None,1457.1231076996773,None,1457.6457947995514,None,1457.6457947995514,None,f,1.0273677986115217,1457.6457947995514,None,,,C30,001,2022_Mar_08_1701,ProdSingRedo,3.2.3,60.03705501272325,
,,,,136,0,136,0,,,,,,,,,,,,,,,,,,,,,,,,1464.0886240992695,None,,,,,,,,,,,,,,,,,brilliant,aloud,red,136,42,30,1459.2516295984387,None,1459.2516295984387,None,1,3.5818002987653017,1459.2516295984387,None,1462.8887008000165,None,1463.4155335985124,None,1463.4155335985124,None,n,0.6336305998265743,1463.4155335985124,None,,,C30,001,2022_Mar_08_1701,ProdSingRedo,3.2.3,60.03705501272325,
,,,,137,0,137,0,,,,,,,,,,,,,,,,,,,,,,,,1469.0832040999085,None,,,,,,,,,,,,,,,,,travel,new_sing,blue,137,115,338,1464.620411299169,None,1464.620411299169,None,3,3.0687149986624718,1464.620411299169,None,1467.739857899025,None,1468.2580319996923,None,1468.2580319996923,None,n,0.7990868017077446,1468.2580319996923,None,,,C30,001,2022_Mar_08_1701,ProdSingRedo,3.2.3,60.03705501272325,
,,,,138,0,138,0,,,,,,,,,,,,,,,,,,,,,,,,1475.0589595995843,None,,,,,,,,,,,,,,,,,resistance,sing,blue,138,0,262,1469.6108023989946,None,1469.6108023989946,None,5,3.9188742004334927,1469.6108023989946,None,1473.5693092998117,None,1474.093654198572,None,1474.093654198572,None,f,0.9394725989550352,1474.093654198572,None,,,C30,001,2022_Mar_08_1701,ProdSingRedo,3.2.3,60.03705501272325,
,,,,139,0,139,0,,,,,,,,,,,,,,,,,,,,,,,,1479.8042014986277,None,,,,,,,,,,,,,,,,,military,aloud,red,139,41,190,1475.588383499533,None,1475.588383499533,None,3,2.6924213003367186,1475.588383499533,None,1478.304355898872,None,1478.8308815993369,None,1478.8308815993369,None,f,0.94615270011127,1478.8308815993369,None,,,C30,001,2022_Mar_08_1701,ProdSingRedo,3.2.3,60.03705501272325,
,,,,140,0,140,0,,,,,,,,,,,,,,,,,,,,,,,,1489.38341389969,None,,,,,,,,,,,,,,,,,motion,silent,yellow,140,65,194,1480.327767699957,None,1480.327767699957,None,5,7.441132599487901,1480.327767699957,None,1487.8076259996742,None,1488.320132298395,None,1488.320132298395,None,f,1.032821299508214,1488.320132298395,None,,,C30,001,2022_Mar_08_1701,ProdSingRedo,3.2.3,60.03705501272325,
,,,,141,0,141,0,,,,,,,,,,,,,,,,,,,,,,,,1504.8691077996045,None,,,,,,,,,,,,,,,,,junior,sing,blue,141,9,167,1489.9027127996087,None,1489.9027127996087,None,2,13.306405000388622,1489.9027127996087,None,1503.2625757995993,None,1503.7823556996882,None,1503.7823556996882,None,n,1.0585217997431755,1503.7823556996882,None,,,C30,001,2022_Mar_08_1701,ProdSingRedo,3.2.3,60.03705501272325,
,,,,142,0,142,0,,,,,,,,,,,,,,,,,,,,,,,,1508.8102949000895,None,,,,,,,,,,,,,,,,,piece,new_aloud,red,142,123,221,1505.3959790989757,None,1505.3959790989757,None,1,2.277181601151824,1505.3959790989757,None,1507.719434298575,None,1508.233019798994,None,1508.233019798994,None,n,0.5440743993967772,1508.233019798994,None,,,C30,001,2022_Mar_08_1701,ProdSingRedo,3.2.3,60.03705501272325,
,,,,143,0,143,0,,,,,,,,,,,,,,,,,,,,,,,,1514.9262840989977,None,,,,,,,,,,,,,,,,,cross,aloud,red,143,58,80,1509.3283890001476,None,1509.3283890001476,None,1,3.912678800523281,1509.3283890001476,None,1513.27627629973,None,1513.7913054991513,None,1513.7913054991513,None,n,1.105767298489809,1513.7913054991513,None,,,C30,001,2022_Mar_08_1701,ProdSingRedo,3.2.3,60.03705501272325,
,,,,144,0,144,0,,,,,,,,,,,,,,,,,,,,,,,,1518.4753725994378,None,,,,,,,,,,,,,,,,,length,new_aloud,red,144,138,169,1515.4518040996045,None,1515.4518040996045,None,1,2.06126119941473,1515.4518040996045,None,1517.5538520999253,None,1518.0802905987948,None,1518.0802905987948,None,n,0.3608768004924059,1518.0802905987948,None,,,C30,001,2022_Mar_08_1701,ProdSingRedo,3.2.3,60.03705501272325,
,,,,145,0,145,0,,,,,,,,,,,,,,,,,,,,,,,,1527.1602667998523,None,,,,,,,,,,,,,,,,,pattern,sing,blue,145,21,214,1519.0028349999338,None,1519.0028349999338,None,1,5.4630810003727674,1519.0028349999338,None,1524.506977899,None,1525.0403084997088,None,1525.0403084997088,None,n,2.0887124985456467,1525.0403084997088,None,,,C30,001,2022_Mar_08_1701,ProdSingRedo,3.2.3,60.03705501272325,
,,,,146,0,146,0,,,,,,,,,,,,,,,,,,,,,,,,1531.4533015992492,None,,,,,,,,,,,,,,,,,space,new_sing,blue,146,119,297,1527.6863233987242,None,1527.6863233987242,None,1,2.947035901248455,1527.6863233987242,None,1530.6752245984972,None,1531.1952558998019,None,1531.1952558998019,None,n,0.237950399518013,1531.1952558998019,None,,,C30,001,2022_Mar_08_1701,ProdSingRedo,3.2.3,60.03705501272325,
,,,,147,0,147,0,,,,,,,,,,,,,,,,,,,,,,,,1537.2437602989376,None,,,,,,,,,,,,,,,,,provision,new_silent,yellow,147,178,243,1531.9873066991568,None,1531.9873066991568,None,4,3.7098141983151436,1531.9873066991568,None,1535.7391448002309,None,1536.2640375997871,None,1536.2640375997871,None,f,0.9452071003615856,1536.2640375997871,None,,,C30,001,2022_Mar_08_1701,ProdSingRedo,3.2.3,60.03705501272325,
,,,,148,0,148,0,,,,,,,,,,,,,,,,,,,,,,,,1541.4289868995547,None,,,,,,,,,,,,,,,,,couch,aloud,red,148,31,70,1537.774995598942,None,1537.774995598942,None,2,2.3059406001120806,1537.774995598942,None,1540.1298445984721,None,1540.6451937984675,None,1540.6451937984675,None,n,0.7560906000435352,1540.6451937984675,None,,,C30,001,2022_Mar_08_1701,ProdSingRedo,3.2.3,60.03705501272325,
,,,,149,0,149,0,,,,,,,,,,,,,,,,,,,,,,,,1549.0609655994922,None,,,,,,,,,,,,,,,,,finish,new_aloud,red,149,137,130,1541.947055598721,None,1541.947055598721,None,1,5.47798159904778,1541.947055598721,None,1547.4755442999303,None,1547.991117598489,None,1547.991117598489,None,n,1.0339269991964102,1547.991117598489,None,,,C30,001,2022_Mar_08_1701,ProdSingRedo,3.2.3,60.03705501272325,
,,,,150,0,150,0,,,,,,,,,,,,,,,,,,,,,,,,1554.3119753990322,None,,,,,,,,,,,,,,,,,community,silent,yellow,150,84,63,1549.5975116994232,None,1549.5975116994232,None,5,3.577326400205493,1549.5975116994232,None,1553.2270440999418,None,1553.7528091985732,None,1553.7528091985732,None,f,0.5281813014298677,1553.7528091985732,None,,,C30,001,2022_Mar_08_1701,ProdSingRedo,3.2.3,60.03705501272325,
,,,,151,0,151,0,,,,,,,,,,,,,,,,,,,,,,,,1557.47159479931,None,,,,,,,,,,,,,,,,,throw,new_silent,yellow,151,165,330,1554.8362169992179,None,1554.8362169992179,None,2,1.772766601294279,1554.8362169992179,None,1556.6604229994118,None,1557.1773898992687,None,1557.1773898992687,None,n,0.2634629998356104,1557.1773898992687,None,,,C30,001,2022_Mar_08_1701,ProdSingRedo,3.2.3,60.03705501272325,
,,,,152,0,152,0,,,,,,,,,,,,,,,,,,,,,,,,1566.146009998396,None,,,,,,,,,,,,,,,,,people,silent,yellow,152,78,216,1557.9984927996993,None,1557.9984927996993,None,3,4.610481899231672,1557.9984927996993,None,1562.6581411994994,None,1563.176326598972,None,1563.176326598972,None,f,2.936649700626731,1563.176326598972,None,,,C30,001,2022_Mar_08_1701,ProdSingRedo,3.2.3,60.03705501272325,
,,,,153,0,153,0,,,,,,,,,,,,,,,,,,,,,,,,1576.1303476002067,None,,,,,,,,,,,,,,,,,balance,sing,blue,153,8,17,1566.6779960989952,None,1566.6779960989952,None,4,8.170958001166582,1566.6779960989952,None,1574.9011480994523,None,1575.4203263986856,None,1575.4203263986856,None,f,0.6765857990831137,1575.4203263986856,None,,,C30,001,2022_Mar_08_1701,ProdSingRedo,3.2.3,60.03705501272325,
,,,,154,0,154,0,,,,,,,,,,,,,,,,,,,,,,,,1581.5468722991645,None,,,,,,,,,,,,,,,,,minor,sing,blue,154,7,191,1576.6535988990217,None,1576.6535988990217,None,4,3.9951303005218506,1576.6535988990217,None,1580.6865954995155,None,1581.1955999992788,None,1581.1955999992788,None,f,0.3258694987744093,1581.1955999992788,None,,,C30,001,2022_Mar_08_1701,ProdSingRedo,3.2.3,60.03705501272325,
,,,,155,0,155,0,,,,,,,,,,,,,,,,,,,,,,,,1585.2485572993755,None,,,,,,,,,,,,,,,,,court,aloud,red,155,55,75,1582.0729737002403,None,1582.0729737002403,None,5,2.5117675997316837,1582.0729737002403,None,1584.6187261994928,None,1585.1309791989625,None,1585.1309791989625,None,f,0.08610410057008266,1585.1309791989625,None,,,C30,001,2022_Mar_08_1701,ProdSingRedo,3.2.3,60.03705501272325,
,,,,156,0,156,0,,,,,,,,,,,,,,,,,,,,,,,,1589.2254111990333,None,,,,,,,,,,,,,,,,,match,sing,blue,156,15,181,1585.769790198654,None,1585.769790198654,None,2,2.647138299420476,1585.769790198654,None,1588.463849298656,None,1588.9808564987034,None,1588.9808564987034,None,n,0.21988660097122192,1588.9808564987034,None,,,C30,001,2022_Mar_08_1701,ProdSingRedo,3.2.3,60.03705501272325,
,,,,157,0,157,0,,,,,,,,,,,,,,,,,,,,,,,,1593.2974318992347,None,,,,,,,,,,,,,,,,,safety,new_silent,yellow,157,158,270,1589.7559746988118,None,1589.7559746988118,None,3,2.3327638003975153,1589.7559746988118,None,1592.1180416997522,None,1592.6335621997714,None,1592.6335621997714,None,n,0.6398617997765541,1592.6335621997714,None,,,C30,001,2022_Mar_08_1701,ProdSingRedo,3.2.3,60.03705501272325,
,,,,158,0,158,0,,,,,,,,,,,,,,,,,,,,,,,,1598.3076670002192,None,,,,,,,,,,,,,,,,,population,new_silent,yellow,158,179,227,1593.8284050989896,None,1593.8284050989896,None,6,2.052479499951005,1593.8284050989896,None,1595.9327481985092,None,1596.4505287986249,None,1596.4505287986249,None,r,1.8301902990788221,1596.4505287986249,None,,,C30,001,2022_Mar_08_1701,ProdSingRedo,3.2.3,60.03705501272325,
,,,,159,0,159,0,,,,,,,,,,,,,,,,,,,,,,,,1601.8492184989154,None,,,,,,,,,,,,,,,,,hunger,new_sing,blue,159,107,155,1598.8296568989754,None,1598.8296568989754,None,1,1.7873500995337963,1598.8296568989754,None,1600.6580113992095,None,1601.1854529995471,None,1601.1854529995471,None,n,0.6315612010657787,1601.1854529995471,None,,,C30,001,2022_Mar_08_1701,ProdSingRedo,3.2.3,60.03705501272325,
,,,,160,0,160,0,,,,,,,,,,,,,,,,,,,,,,,,1607.0970944985747,None,,,,,,,,,,,,,,,,,treatment,sing,blue,160,24,339,1602.3781522996724,None,1602.3781522996724,None,4,3.5746291000396013,1602.3781522996724,None,1605.975560599938,None,1606.4997648000717,None,1606.4997648000717,None,f,0.5733461994677782,1606.4997648000717,None,,,C30,001,2022_Mar_08_1701,ProdSingRedo,3.2.3,60.03705501272325,
,,,,161,0,161,0,,,,,,,,,,,,,,,,,,,,,,,,1619.7253599986434,None,,,,,,,,,,,,,,,,,conference,new_sing,blue,161,111,66,1607.6371299996972,None,1607.6371299996972,None,3,8.803856801241636,1607.6371299996972,None,1616.485972698778,None,1617.0027530994266,None,1617.0027530994266,None,f,2.6939000003039837,1617.0027530994266,None,,,C30,001,2022_Mar_08_1701,ProdSingRedo,3.2.3,60.03705501272325,
,,,,162,0,162,0,,,,,,,,,,,,,,,,,,,,,,,,1628.5907712988555,None,,,,,,,,,,,,,,,,,staff,aloud,red,162,57,301,1620.2378062997013,None,1620.2378062997013,None,5,6.570880299434066,1620.2378062997013,None,1626.8380461987108,None,1627.3490451984107,None,1627.3490451984107,None,f,1.2114877998828888,1627.3490451984107,None,,,C30,001,2022_Mar_08_1701,ProdSingRedo,3.2.3,60.03705501272325,
,,,,163,0,163,0,,,,,,,,,,,,,,,,,,,,,,,,1637.578315699473,None,,,,,,,,,,,,,,,,,interview,new_sing,blue,163,91,165,1629.1135427001864,None,1629.1135427001864,None,1,6.999229999259114,1629.1135427001864,None,1636.1676135994494,None,1636.6903047990054,None,1636.6903047990054,None,n,0.8623150996863842,1636.6903047990054,None,,,C30,001,2022_Mar_08_1701,ProdSingRedo,3.2.3,60.03705501272325,
,,,,164,0,164,0,,,,,,,,,,,,,,,,,,,,,,,,1646.8015685994178,None,,,,,,,,,,,,,,,,,impact,new_silent,yellow,164,176,157,1638.1092248000205,None,1638.1092248000205,None,2,6.60343150049448,1638.1092248000205,None,1644.7580090984702,None,1645.270386699587,None,1645.270386699587,None,n,1.4984311014413834,1645.270386699587,None,,,C30,001,2022_Mar_08_1701,ProdSingRedo,3.2.3,60.03705501272325,
,,,,165,0,165,0,,,,,,,,,,,,,,,,,,,,,,,,1657.8461213000119,None,,,,,,,,,,,,,,,,,opening,new_silent,yellow,165,151,205,1647.3255954999477,None,1647.3255954999477,None,3,9.48355619981885,1647.3255954999477,None,1656.851794399321,None,1657.3706595990807,None,1657.3706595990807,None,n,0.44594139978289604,1657.3706595990807,None,,,C30,001,2022_Mar_08_1701,ProdSingRedo,3.2.3,60.03705501272325,
,,,,166,0,166,0,,,,,,,,,,,,,,,,,,,,,,,,1661.5348658990115,None,,,,,,,,,,,,,,,,,mankind,new_silent,yellow,166,177,178,1658.3621100001037,None,1658.3621100001037,None,1,1.7428548000752926,1658.3621100001037,None,1660.1459913998842,None,1660.674236400053,None,1660.674236400053,None,n,0.8225174993276596,1660.674236400053,None,,,C30,001,2022_Mar_08_1701,ProdSingRedo,3.2.3,60.03705501272325,
,,,,167,0,167,0,,,,,,,,,,,,,,,,,,,,,,,,1666.490853600204,None,,,,,,,,,,,,,,,,,quantity,aloud,red,167,48,245,1662.0603800993413,None,1662.0603800993413,None,6,3.092374298721552,1662.0603800993413,None,1665.2062131986022,None,1665.7222348991781,None,1665.7222348991781,None,f,0.7264281995594501,1665.7222348991781,None,,,C30,001,2022_Mar_08_1701,ProdSingRedo,3.2.3,60.03705501272325,
,,,,168,0,168,0,,,,,,,,,,,,,,,,,,,,,,,,1670.31091869995,None,,,,,,,,,,,,,,,,,literature,sing,blue,168,18,173,1667.0236261989921,None,1667.0236261989921,None,6,1.9051268994808197,1667.0236261989921,None,1668.9634213987738,None,1669.4927589986473,None,1669.4927589986473,None,r,0.7957947012037039,1669.4927589986473,None,,,C30,001,2022_Mar_08_1701,ProdSingRedo,3.2.3,60.03705501272325,
,,,,169,0,169,0,,,,,,,,,,,,,,,,,,,,,,,,1677.0461687985808,None,,,,,,,,,,,,,,,,,household,aloud,red,169,34,154,1670.8173281997442,None,1670.8173281997442,None,6,4.3114339001476765,1670.8173281997442,None,1675.1695183999836,None,1675.6913181990385,None,1675.6913181990385,None,r,1.325372500345111,1675.6913181990385,None,,,C30,001,2022_Mar_08_1701,ProdSingRedo,3.2.3,60.03705501272325,
,,,,170,0,170,0,,,,,,,,,,,,,,,,,,,,,,,,1687.0044594984502,None,,,,,,,,,,,,,,,,,beauty,silent,yellow,170,68,18,1677.5838951990008,None,1677.5838951990008,None,2,8.168807499110699,1677.5838951990008,None,1685.8114718999714,None,1686.3250538986176,None,1686.3250538986176,None,n,0.6439595017582178,1686.3250538986176,None,,,C30,001,2022_Mar_08_1701,ProdSingRedo,3.2.3,60.03705501272325,
,,,,171,0,171,0,,,,,,,,,,,,,,,,,,,,,,,,1698.180371100083,None,,,,,,,,,,,,,,,,,audience,new_silent,yellow,171,164,14,1687.5268945991993,None,1687.5268945991993,None,3,9.201891601085663,1687.5268945991993,None,1696.7688438985497,None,1697.2898829001933,None,1697.2898829001933,None,n,0.8710367996245623,1697.2898829001933,None,,,C30,001,2022_Mar_08_1701,ProdSingRedo,3.2.3,60.03705501272325,
,,,,172,0,172,0,,,,,,,,,,,,,,,,,,,,,,,,1709.7725229989737,None,,,,,,,,,,,,,,,,,scene,new_silent,yellow,172,154,273,1698.6940136998892,None,1698.6940136998892,None,2,9.178633900359273,1698.6940136998892,None,1707.9174520000815,None,1708.4348665997386,None,1708.4348665997386,None,n,1.3020086996257305,1708.4348665997386,None,,,C30,001,2022_Mar_08_1701,ProdSingRedo,3.2.3,60.03705501272325,
,,,,173,0,173,0,,,,,,,,,,,,,,,,,,,,,,,,1717.0727576985955,None,,,,,,,,,,,,,,,,,evidence,silent,yellow,173,70,120,1710.2967920992523,None,1710.2967920992523,None,6,5.359919600188732,1710.2967920992523,None,1715.7082097996026,None,1716.2268656995147,None,1716.2268656995147,None,r,0.8217239994555712,1716.2268656995147,None,,,C30,001,2022_Mar_08_1701,ProdSingRedo,3.2.3,60.03705501272325,
,,,,174,0,174,0,,,,,,,,,,,,,,,,,,,,,,,,1721.4569076988846,None,,,,,,,,,,,,,,,,,harmony,aloud,red,174,49,148,1717.5966194998473,None,1717.5966194998473,None,6,2.5960793998092413,1717.5966194998473,None,1720.2373618986458,None,1720.7623821999878,None,1720.7623821999878,None,r,0.6623849011957645,1720.7623821999878,None,,,C30,001,2022_Mar_08_1701,ProdSingRedo,3.2.3,60.03705501272325,
,,,,175,0,175,0,,,,,,,,,,,,,,,,,,,,,,,,1726.5068232994527,None,,,,,,,,,,,,,,,,,story,new_aloud,red,175,139,306,1721.982512800023,None,1721.982512800023,None,3,3.170161599293351,1721.982512800023,None,1725.2025899998844,None,1725.7246458996087,None,1725.7246458996087,None,n,0.7480490002781153,1725.7246458996087,None,,,C30,001,2022_Mar_08_1701,ProdSingRedo,3.2.3,60.03705501272325,
,,,,176,0,176,0,,,,,,,,,,,,,,,,,,,,,,,,1730.4401476997882,None,,,,,,,,,,,,,,,,,surface,silent,yellow,176,86,316,1727.037090299651,None,1727.037090299651,None,1,1.8436275999993086,1727.037090299651,None,1728.9269784986973,None,1729.4461679998785,None,1729.4461679998785,None,n,0.9623722992837429,1729.4461679998785,None,,,C30,001,2022_Mar_08_1701,ProdSingRedo,3.2.3,60.03705501272325,
,,,,177,0,177,0,,,,,,,,,,,,,,,,,,,,,,,,1738.5077330991626,None,,,,,,,,,,,,,,,,,worker,sing,blue,177,19,356,1730.9662902001292,None,1730.9662902001292,None,5,5.258371101692319,1730.9662902001292,None,1736.2744795996696,None,1736.7925566993654,None,1736.7925566993654,None,f,1.6800571009516716,1736.7925566993654,None,,,C30,001,2022_Mar_08_1701,ProdSingRedo,3.2.3,60.03705501272325,
,,,,178,0,178,0,,,,,,,,,,,,,,,,,,,,,,,,1752.494228599593,None,,,,,,,,,,,,,,,,,month,new_silent,yellow,178,172,193,1739.028219498694,None,1739.028219498694,None,3,7.540215499699116,1739.028219498694,None,1746.6069021001458,None,1747.122695500031,None,1747.122695500031,None,n,5.342168400064111,1747.122695500031,None,,,C30,001,2022_Mar_08_1701,ProdSingRedo,3.2.3,60.03705501272325,
,,,,179,0,179,0,,,,,,,,,,,,,,,,,,,,,,,,1766.226739199832,None,,,,,,,,,,,,,,,,,business,new_aloud,red,179,132,38,1753.0169329997152,None,1753.0169329997152,None,3,3.831503599882126,1753.0169329997152,None,1756.8787743989378,None,1757.3955061994493,None,1757.3955061994493,None,f,8.80517810024321,1757.3955061994493,None,,,C30,001,2022_Mar_08_1701,ProdSingRedo,3.2.3,60.03705501272325,
,,,,,,,,,,,,,,,,,,,,,,,,,,,,,,,,,,,,,,,,,,,,,,,,,,,,,,,,,,,,,,,,,,,,,,,,,1766.7347270995378,None,,,,,,,
