StudyLoop.thisRepN,StudyLoop.thisTrialN,StudyLoop.thisN,StudyLoop.thisIndex,TestLoop.thisRepN,TestLoop.thisTrialN,TestLoop.thisN,TestLoop.thisIndex,textCondition.started,textCondition.stopped,keyCondition.keys,keyCondition.rt,keyCondition.started,keyCondition.stopped,Condition,stim_colors,color_sing,color_aloud,color_silent,textWelcome.started,textWelcome.stopped,keyWelcome.keys,keyWelcome.rt,keyWelcome.started,keyWelcome.stopped,textAloud.started,textAloud.stopped,textSilent.started,textSilent.stopped,textSing.started,textSing.stopped,textBlank500.started,textBlank500.stopped,study_word,study_type,study_color,study_num,study_word_num,textStudy.started,textStudy.stopped,keyStudy.keys,keyStudy.started,keyStudy.stopped,textTestInstructions.started,textTestInstructions.stopped,key_resp_3.keys,key_resp_3.rt,key_resp_3.started,key_resp_3.stopped,testWord,testType,testColor,testN,test_num,test_word_num,textConf.started,textConf.stopped,textConfScale.started,textConfScale.stopped,keyConf.keys,keyConf.rt,keyConf.started,keyConf.stopped,textTestBlank.started,textTestBlank.stopped,textRKN.started,textRKN.stopped,textRKNScale.started,textRKNScale.stopped,keyRKN.keys,keyRKN.rt,keyRKN.started,keyRKN.stopped,textEnd.started,textEnd.stopped,participant,session,date,expName,psychopyVersion,frameRate,
,,,,,,,,10.179800398705993,None,y,1.0021994084818289,10.179800398705993,None,,,,,,,,,,,,,,,,,,,,,,,,,,,,,,,,,,,,,,,,,,,,,,,,,,,,,,,,,,,,,,color1,001,2019_Nov_21_1336,ProdSingRedo,3.2.4,59.946269641225754,
,,,,,,,,,,,,,,ColoredTest,"['red', 'blue', 'yellow']",red,blue,yellow,11.214535937877372,None,space,678.6299025629705,11.214535937877372,None,,,,,,,,,,,,,,,,,,,,,,,,,,,,,,,,,,,,,,,,,,,,,,,,,,,color1,001,2019_Nov_21_1336,ProdSingRedo,3.2.4,59.946269641225754,
0,0,0,0,,,,,,,,,,,,,,,,,,,,,,11.214535937877372,None,11.214535937877372,None,11.214535937877372,None,692.3854133687564,None,enemy,sing,red,10,113,690.3888909967791,None,None,690.3888909967791,None,,,,,,,,,,,,,,,,,,,,,,,,,,,,,,,,,color1,001,2019_Nov_21_1336,ProdSingRedo,3.2.4,59.946269641225754,
1,0,1,0,,,,,,,,,,,,,,,,,,,,,,,,,,,,694.9028749055287,None,comedy,silent,yellow,85,58,692.9022345517296,None,None,692.9022345517296,None,,,,,,,,,,,,,,,,,,,,,,,,,,,,,,,,,color1,001,2019_Nov_21_1336,ProdSingRedo,3.2.4,59.946269641225754,
2,0,2,0,,,,,,,,,,,,,,,,,,,,,,,,,,,,697.4036318851868,None,subject,sing,red,6,312,695.4029259099043,None,None,695.4029259099043,None,,,,,,,,,,,,,,,,,,,,,,,,,,,,,,,,,color1,001,2019_Nov_21_1336,ProdSingRedo,3.2.4,59.946269641225754,
3,0,3,0,,,,,,,,,,,,,,,,,,,,,,,,,,,,699.9210868909431,None,revolution,aloud,blue,47,264,697.924588777154,None,None,697.924588777154,None,,,,,,,,,,,,,,,,,,,,,,,,,,,,,,,,,color1,001,2019_Nov_21_1336,ProdSingRedo,3.2.4,59.946269641225754,
4,0,4,0,,,,,,,,,,,,,,,,,,,,,,,,,,,,702.438521059521,None,recall,aloud,blue,45,255,700.4378657776106,None,None,700.4378657776106,None,,,,,,,,,,,,,,,,,,,,,,,,,,,,,,,,,color1,001,2019_Nov_21_1336,ProdSingRedo,3.2.4,59.946269641225754,
5,0,5,0,,,,,,,,,,,,,,,,,,,,,,,,,,,,704.9559636251652,None,question,sing,red,5,247,702.9552408557502,None,None,702.9552408557502,None,,,,,,,,,,,,,,,,,,,,,,,,,,,,,,,,,color1,001,2019_Nov_21_1336,ProdSingRedo,3.2.4,59.946269641225754,
6,0,6,0,,,,,,,,,,,,,,,,,,,,,,,,,,,,707.4733834876388,None,sweet,aloud,blue,36,319,705.4727465548785,None,None,705.4727465548785,None,,,,,,,,,,,,,,,,,,,,,,,,,,,,,,,,,color1,001,2019_Nov_21_1336,ProdSingRedo,3.2.4,59.946269641225754,
7,0,7,0,,,,,,,,,,,,,,,,,,,,,,,,,,,,709.9908033501124,None,speech,silent,yellow,86,298,707.9901897425298,None,None,707.9901897425298,None,,,,,,,,,,,,,,,,,,,,,,,,,,,,,,,,,color1,001,2019_Nov_21_1336,ProdSingRedo,3.2.4,59.946269641225754,
8,0,8,0,,,,,,,,,,,,,,,,,,,,,,,,,,,,712.4914772921766,None,victory,sing,red,11,346,710.490864928579,None,None,710.490864928579,None,,,,,,,,,,,,,,,,,,,,,,,,,,,,,,,,,color1,001,2019_Nov_21_1336,ProdSingRedo,3.2.4,59.946269641225754,
9,0,9,0,,,,,,,,,,,,,,,,,,,,,,,,,,,,715.0089167477854,None,space,aloud,blue,44,297,713.0083718716924,None,None,713.0083718716924,None,,,,,,,,,,,,,,,,,,,,,,,,,,,,,,,,,color1,001,2019_Nov_21_1336,ProdSingRedo,3.2.4,59.946269641225754,
10,0,10,0,,,,,,,,,,,,,,,,,,,,,,,,,,,,717.5264787383203,None,range,sing,red,25,251,715.5114504837547,None,None,715.5114504837547,None,,,,,,,,,,,,,,,,,,,,,,,,,,,,,,,,,color1,001,2019_Nov_21_1336,ProdSingRedo,3.2.4,59.946269641225754,
11,0,11,0,,,,,,,,,,,,,,,,,,,,,,,,,,,,720.0439250360068,None,platform,aloud,blue,31,224,718.043232433818,None,None,718.043232433818,None,,,,,,,,,,,,,,,,,,,,,,,,,,,,,,,,,color1,001,2019_Nov_21_1336,ProdSingRedo,3.2.4,59.946269641225754,
12,0,12,0,,,,,,,,,,,,,,,,,,,,,,,,,,,,722.5611306178616,None,problem,sing,red,24,238,720.56068961657,None,None,720.56068961657,None,,,,,,,,,,,,,,,,,,,,,,,,,,,,,,,,,color1,001,2019_Nov_21_1336,ProdSingRedo,3.2.4,59.946269641225754,
13,0,13,0,,,,,,,,,,,,,,,,,,,,,,,,,,,,725.0788039472536,None,debate,silent,yellow,76,87,723.0780255084101,None,None,723.0780255084101,None,,,,,,,,,,,,,,,,,,,,,,,,,,,,,,,,,color1,001,2019_Nov_21_1336,ProdSingRedo,3.2.4,59.946269641225754,
14,0,14,0,,,,,,,,,,,,,,,,,,,,,,,,,,,,727.5962110586115,None,height,sing,red,22,152,725.5956111351261,None,None,725.5956111351261,None,,,,,,,,,,,,,,,,,,,,,,,,,,,,,,,,,color1,001,2019_Nov_21_1336,ProdSingRedo,3.2.4,59.946269641225754,
15,0,15,0,,,,,,,,,,,,,,,,,,,,,,,,,,,,730.1136138159782,None,build,aloud,blue,38,35,728.112862745329,None,None,728.112862745329,None,,,,,,,,,,,,,,,,,,,,,,,,,,,,,,,,,color1,001,2019_Nov_21_1336,ProdSingRedo,3.2.4,59.946269641225754,
16,0,16,0,,,,,,,,,,,,,,,,,,,,,,,,,,,,732.6311615004088,None,division,aloud,blue,34,101,730.6302832298097,None,None,730.6302832298097,None,,,,,,,,,,,,,,,,,,,,,,,,,,,,,,,,,color1,001,2019_Nov_21_1336,ProdSingRedo,3.2.4,59.946269641225754,
17,0,17,0,,,,,,,,,,,,,,,,,,,,,,,,,,,,735.1318796047708,None,scene,sing,red,18,273,733.1310977449175,None,None,733.1310977449175,None,,,,,,,,,,,,,,,,,,,,,,,,,,,,,,,,,color1,001,2019_Nov_21_1336,ProdSingRedo,3.2.4,59.946269641225754,
18,0,18,0,,,,,,,,,,,,,,,,,,,,,,,,,,,,737.6491685352812,None,motion,sing,red,26,194,735.6486563144426,None,None,735.6486563144426,None,,,,,,,,,,,,,,,,,,,,,,,,,,,,,,,,,color1,001,2019_Nov_21_1336,ProdSingRedo,3.2.4,59.946269641225754,
19,0,19,0,,,,,,,,,,,,,,,,,,,,,,,,,,,,740.1500993652444,None,medicine,sing,red,14,186,738.1503609181964,None,None,738.1503609181964,None,,,,,,,,,,,,,,,,,,,,,,,,,,,,,,,,,color1,001,2019_Nov_21_1336,ProdSingRedo,3.2.4,59.946269641225754,
20,0,20,0,,,,,,,,,,,,,,,,,,,,,,,,,,,,742.6674660463177,None,interior,silent,yellow,63,164,740.666863634804,None,None,740.666863634804,None,,,,,,,,,,,,,,,,,,,,,,,,,,,,,,,,,color1,001,2019_Nov_21_1336,ProdSingRedo,3.2.4,59.946269641225754,
21,0,21,0,,,,,,,,,,,,,,,,,,,,,,,,,,,,745.1849555733206,None,listen,silent,yellow,67,172,743.1842906503298,None,None,743.1842906503298,None,,,,,,,,,,,,,,,,,,,,,,,,,,,,,,,,,color1,001,2019_Nov_21_1336,ProdSingRedo,3.2.4,59.946269641225754,
22,0,22,0,,,,,,,,,,,,,,,,,,,,,,,,,,,,747.7023931629083,None,touch,aloud,blue,32,332,745.7017080248042,None,None,745.7017080248042,None,,,,,,,,,,,,,,,,,,,,,,,,,,,,,,,,,color1,001,2019_Nov_21_1336,ProdSingRedo,3.2.4,59.946269641225754,
23,0,23,0,,,,,,,,,,,,,,,,,,,,,,,,,,,,750.219624557998,None,trail,sing,red,23,336,748.2191658295633,None,None,748.2191658295633,None,,,,,,,,,,,,,,,,,,,,,,,,,,,,,,,,,color1,001,2019_Nov_21_1336,ProdSingRedo,3.2.4,59.946269641225754,
24,0,24,0,,,,,,,,,,,,,,,,,,,,,,,,,,,,752.7372590120649,None,throw,sing,red,13,330,750.7365241135703,None,None,750.7365241135703,None,,,,,,,,,,,,,,,,,,,,,,,,,,,,,,,,,color1,001,2019_Nov_21_1336,ProdSingRedo,3.2.4,59.946269641225754,
25,0,25,0,,,,,,,,,,,,,,,,,,,,,,,,,,,,755.2380240777857,None,election,aloud,blue,43,109,753.2372658541135,None,None,753.2372658541135,None,,,,,,,,,,,,,,,,,,,,,,,,,,,,,,,,,color1,001,2019_Nov_21_1336,ProdSingRedo,3.2.4,59.946269641225754,
26,0,26,0,,,,,,,,,,,,,,,,,,,,,,,,,,,,757.7552759990213,None,science,sing,red,17,275,755.7548163375759,None,None,755.7548163375759,None,,,,,,,,,,,,,,,,,,,,,,,,,,,,,,,,,color1,001,2019_Nov_21_1336,ProdSingRedo,3.2.4,59.946269641225754,
27,0,27,0,,,,,,,,,,,,,,,,,,,,,,,,,,,,760.2729213381826,None,youth,silent,yellow,78,359,758.2599618711101,None,None,758.2599618711101,None,,,,,,,,,,,,,,,,,,,,,,,,,,,,,,,,,color1,001,2019_Nov_21_1336,ProdSingRedo,3.2.4,59.946269641225754,
28,0,28,0,,,,,,,,,,,,,,,,,,,,,,,,,,,,762.7901119919261,None,mechanical,silent,yellow,72,185,760.7897064448916,None,None,760.7897064448916,None,,,,,,,,,,,,,,,,,,,,,,,,,,,,,,,,,color1,001,2019_Nov_21_1336,ProdSingRedo,3.2.4,59.946269641225754,
29,0,29,0,,,,,,,,,,,,,,,,,,,,,,,,,,,,765.3077980724047,None,colonel,sing,red,27,55,763.3070920971222,None,None,763.3070920971222,None,,,,,,,,,,,,,,,,,,,,,,,,,,,,,,,,,color1,001,2019_Nov_21_1336,ProdSingRedo,3.2.4,59.946269641225754,
30,0,30,0,,,,,,,,,,,,,,,,,,,,,,,,,,,,767.8251986527466,None,worker,aloud,blue,39,356,765.8245651409961,None,None,765.8245651409961,None,,,,,,,,,,,,,,,,,,,,,,,,,,,,,,,,,color1,001,2019_Nov_21_1336,ProdSingRedo,3.2.4,59.946269641225754,
31,0,31,0,,,,,,,,,,,,,,,,,,,,,,,,,,,,770.342498779326,None,background,silent,yellow,82,16,768.3430850187142,None,None,768.3430850187142,None,,,,,,,,,,,,,,,,,,,,,,,,,,,,,,,,,color1,001,2019_Nov_21_1336,ProdSingRedo,3.2.4,59.946269641225754,
32,0,32,0,,,,,,,,,,,,,,,,,,,,,,,,,,,,772.8600984011427,None,research,silent,yellow,74,261,770.8592139105021,None,None,770.8592139105021,None,,,,,,,,,,,,,,,,,,,,,,,,,,,,,,,,,color1,001,2019_Nov_21_1336,ProdSingRedo,3.2.4,59.946269641225754,
33,0,33,0,,,,,,,,,,,,,,,,,,,,,,,,,,,,775.3775468758249,None,review,aloud,blue,58,263,773.3768262834346,None,None,773.3768262834346,None,,,,,,,,,,,,,,,,,,,,,,,,,,,,,,,,,color1,001,2019_Nov_21_1336,ProdSingRedo,3.2.4,59.946269641225754,
34,0,34,0,,,,,,,,,,,,,,,,,,,,,,,,,,,,777.8949570972181,None,material,aloud,blue,35,182,775.8942091366334,None,None,775.8942091366334,None,,,,,,,,,,,,,,,,,,,,,,,,,,,,,,,,,color1,001,2019_Nov_21_1336,ProdSingRedo,3.2.4,59.946269641225754,
35,0,35,0,,,,,,,,,,,,,,,,,,,,,,,,,,,,780.3957517081872,None,measure,aloud,blue,52,184,778.394849179429,None,None,778.394849179429,None,,,,,,,,,,,,,,,,,,,,,,,,,,,,,,,,,color1,001,2019_Nov_21_1336,ProdSingRedo,3.2.4,59.946269641225754,
36,0,36,0,,,,,,,,,,,,,,,,,,,,,,,,,,,,782.91326300535,None,dance,sing,red,20,84,780.9125377479068,None,None,780.9125377479068,None,,,,,,,,,,,,,,,,,,,,,,,,,,,,,,,,,color1,001,2019_Nov_21_1336,ProdSingRedo,3.2.4,59.946269641225754,
37,0,37,0,,,,,,,,,,,,,,,,,,,,,,,,,,,,785.4306299974269,None,entrance,sing,red,4,115,783.429831343441,None,None,783.429831343441,None,,,,,,,,,,,,,,,,,,,,,,,,,,,,,,,,,color1,001,2019_Nov_21_1336,ProdSingRedo,3.2.4,59.946269641225754,
38,0,38,0,,,,,,,,,,,,,,,,,,,,,,,,,,,,787.9480644770083,None,literature,silent,yellow,88,173,785.9471809193783,None,None,785.9471809193783,None,,,,,,,,,,,,,,,,,,,,,,,,,,,,,,,,,color1,001,2019_Nov_21_1336,ProdSingRedo,3.2.4,59.946269641225754,
39,0,39,0,,,,,,,,,,,,,,,,,,,,,,,,,,,,790.4655076646595,None,public,silent,yellow,73,244,788.4646639153361,None,None,788.4646639153361,None,,,,,,,,,,,,,,,,,,,,,,,,,,,,,,,,,color1,001,2019_Nov_21_1336,ProdSingRedo,3.2.4,59.946269641225754,
40,0,40,0,,,,,,,,,,,,,,,,,,,,,,,,,,,,792.9826942753862,None,guest,silent,yellow,70,146,790.9821630833903,None,None,790.9821630833903,None,,,,,,,,,,,,,,,,,,,,,,,,,,,,,,,,,color1,001,2019_Nov_21_1336,ProdSingRedo,3.2.4,59.946269641225754,
41,0,41,0,,,,,,,,,,,,,,,,,,,,,,,,,,,,795.5003909299267,None,quiet,aloud,blue,56,249,793.4995736158162,None,None,793.4995736158162,None,,,,,,,,,,,,,,,,,,,,,,,,,,,,,,,,,color1,001,2019_Nov_21_1336,ProdSingRedo,3.2.4,59.946269641225754,
42,0,42,0,,,,,,,,,,,,,,,,,,,,,,,,,,,,798.0178282085399,None,object,silent,yellow,80,204,796.017007162387,None,None,796.017007162387,None,,,,,,,,,,,,,,,,,,,,,,,,,,,,,,,,,color1,001,2019_Nov_21_1336,ProdSingRedo,3.2.4,59.946269641225754,
43,0,43,0,,,,,,,,,,,,,,,,,,,,,,,,,,,,800.5352757502114,None,orchestra,silent,yellow,65,206,798.5346254443284,None,None,798.5346254443284,None,,,,,,,,,,,,,,,,,,,,,,,,,,,,,,,,,color1,001,2019_Nov_21_1336,ProdSingRedo,3.2.4,59.946269641225754,
44,0,44,0,,,,,,,,,,,,,,,,,,,,,,,,,,,,803.0360261988244,None,minute,silent,yellow,66,192,801.0352063966857,None,None,801.0352063966857,None,,,,,,,,,,,,,,,,,,,,,,,,,,,,,,,,,color1,001,2019_Nov_21_1336,ProdSingRedo,3.2.4,59.946269641225754,
45,0,45,0,,,,,,,,,,,,,,,,,,,,,,,,,,,,805.5534715635004,None,exchange,sing,red,21,121,803.5526470963378,None,None,803.5526470963378,None,,,,,,,,,,,,,,,,,,,,,,,,,,,,,,,,,color1,001,2019_Nov_21_1336,ProdSingRedo,3.2.4,59.946269641225754,
46,0,46,0,,,,,,,,,,,,,,,,,,,,,,,,,,,,808.0708575267345,None,command,silent,yellow,89,60,806.0701518624264,None,None,806.0701518624264,None,,,,,,,,,,,,,,,,,,,,,,,,,,,,,,,,,color1,001,2019_Nov_21_1336,ProdSingRedo,3.2.4,59.946269641225754,
47,0,47,0,,,,,,,,,,,,,,,,,,,,,,,,,,,,810.5881321511115,None,answer,aloud,blue,49,8,808.5876927048084,None,None,808.5876927048084,None,,,,,,,,,,,,,,,,,,,,,,,,,,,,,,,,,color1,001,2019_Nov_21_1336,ProdSingRedo,3.2.4,59.946269641225754,
48,0,48,0,,,,,,,,,,,,,,,,,,,,,,,,,,,,813.1057075147401,None,article,silent,yellow,71,11,811.105111945275,None,None,811.105111945275,None,,,,,,,,,,,,,,,,,,,,,,,,,,,,,,,,,color1,001,2019_Nov_21_1336,ProdSingRedo,3.2.4,59.946269641225754,
49,0,49,0,,,,,,,,,,,,,,,,,,,,,,,,,,,,815.6063680836814,None,column,sing,red,29,57,813.607201258943,None,None,813.607201258943,None,,,,,,,,,,,,,,,,,,,,,,,,,,,,,,,,,color1,001,2019_Nov_21_1336,ProdSingRedo,3.2.4,59.946269641225754,
50,0,50,0,,,,,,,,,,,,,,,,,,,,,,,,,,,,818.1239179451368,None,surface,silent,yellow,77,316,816.1231895776873,None,None,816.1231895776873,None,,,,,,,,,,,,,,,,,,,,,,,,,,,,,,,,,color1,001,2019_Nov_21_1336,ProdSingRedo,3.2.4,59.946269641225754,
51,0,51,0,,,,,,,,,,,,,,,,,,,,,,,,,,,,820.641422400251,None,damage,aloud,blue,59,83,818.6407546782575,None,None,818.6407546782575,None,,,,,,,,,,,,,,,,,,,,,,,,,,,,,,,,,color1,001,2019_Nov_21_1336,ProdSingRedo,3.2.4,59.946269641225754,
52,0,52,0,,,,,,,,,,,,,,,,,,,,,,,,,,,,823.1588463057706,None,design,aloud,blue,46,91,821.1582118610095,None,None,821.1582118610095,None,,,,,,,,,,,,,,,,,,,,,,,,,,,,,,,,,color1,001,2019_Nov_21_1336,ProdSingRedo,3.2.4,59.946269641225754,
53,0,53,0,,,,,,,,,,,,,,,,,,,,,,,,,,,,825.6762910484103,None,number,aloud,blue,50,203,823.6754824423697,None,None,823.6754824423697,None,,,,,,,,,,,,,,,,,,,,,,,,,,,,,,,,,color1,001,2019_Nov_21_1336,ProdSingRedo,3.2.4,59.946269641225754,
54,0,54,0,,,,,,,,,,,,,,,,,,,,,,,,,,,,828.193699714815,None,route,silent,yellow,81,267,826.1931240494887,None,None,826.1931240494887,None,,,,,,,,,,,,,,,,,,,,,,,,,,,,,,,,,color1,001,2019_Nov_21_1336,ProdSingRedo,3.2.4,59.946269641225754,
55,0,55,0,,,,,,,,,,,,,,,,,,,,,,,,,,,,830.7111024721526,None,patient,aloud,blue,37,213,828.7105261848483,None,None,828.7105261848483,None,,,,,,,,,,,,,,,,,,,,,,,,,,,,,,,,,color1,001,2019_Nov_21_1336,ProdSingRedo,3.2.4,59.946269641225754,
56,0,56,0,,,,,,,,,,,,,,,,,,,,,,,,,,,,833.2286392715177,None,suspect,aloud,blue,55,318,831.21448213447,None,None,831.21448213447,None,,,,,,,,,,,,,,,,,,,,,,,,,,,,,,,,,color1,001,2019_Nov_21_1336,ProdSingRedo,3.2.4,59.946269641225754,
57,0,57,0,,,,,,,,,,,,,,,,,,,,,,,,,,,,835.7460737510992,None,sunset,sing,red,2,315,833.7453994980315,None,None,833.7453994980315,None,,,,,,,,,,,,,,,,,,,,,,,,,,,,,,,,,color1,001,2019_Nov_21_1336,ProdSingRedo,3.2.4,59.946269641225754,
58,0,58,0,,,,,,,,,,,,,,,,,,,,,,,,,,,,838.2632864860061,None,expansion,sing,red,9,123,836.2628290015855,None,None,836.2628290015855,None,,,,,,,,,,,,,,,,,,,,,,,,,,,,,,,,,color1,001,2019_Nov_21_1336,ProdSingRedo,3.2.4,59.946269641225754,
59,0,59,0,,,,,,,,,,,,,,,,,,,,,,,,,,,,840.7643009755993,None,fashion,aloud,blue,41,125,838.7634581592865,None,None,838.7634581592865,None,,,,,,,,,,,,,,,,,,,,,,,,,,,,,,,,,color1,001,2019_Nov_21_1336,ProdSingRedo,3.2.4,59.946269641225754,
60,0,60,0,,,,,,,,,,,,,,,,,,,,,,,,,,,,843.2815466767934,None,device,silent,yellow,79,93,841.281015173794,None,None,841.281015173794,None,,,,,,,,,,,,,,,,,,,,,,,,,,,,,,,,,color1,001,2019_Nov_21_1336,ProdSingRedo,3.2.4,59.946269641225754,
61,0,61,0,,,,,,,,,,,,,,,,,,,,,,,,,,,,845.7991310594953,None,burden,aloud,blue,53,36,843.7984916387068,None,None,843.7984916387068,None,,,,,,,,,,,,,,,,,,,,,,,,,,,,,,,,,color1,001,2019_Nov_21_1336,ProdSingRedo,3.2.4,59.946269641225754,
62,0,62,0,,,,,,,,,,,,,,,,,,,,,,,,,,,,848.2998911491886,None,owner,silent,yellow,62,208,846.2991590496968,None,None,846.2991590496968,None,,,,,,,,,,,,,,,,,,,,,,,,,,,,,,,,,color1,001,2019_Nov_21_1336,ProdSingRedo,3.2.4,59.946269641225754,
63,0,63,0,,,,,,,,,,,,,,,,,,,,,,,,,,,,850.8173480209371,None,plane,silent,yellow,83,223,848.8165403478779,None,None,848.8165403478779,None,,,,,,,,,,,,,,,,,,,,,,,,,,,,,,,,,color1,001,2019_Nov_21_1336,ProdSingRedo,3.2.4,59.946269641225754,
64,0,64,0,,,,,,,,,,,,,,,,,,,,,,,,,,,,853.3347607303585,None,curve,silent,yellow,69,82,851.333959899348,None,None,851.333959899348,None,,,,,,,,,,,,,,,,,,,,,,,,,,,,,,,,,color1,001,2019_Nov_21_1336,ProdSingRedo,3.2.4,59.946269641225754,
65,0,65,0,,,,,,,,,,,,,,,,,,,,,,,,,,,,855.8521861908666,None,signal,sing,red,7,287,853.8515190908802,None,None,853.8515190908802,None,,,,,,,,,,,,,,,,,,,,,,,,,,,,,,,,,color1,001,2019_Nov_21_1336,ProdSingRedo,3.2.4,59.946269641225754,
66,0,66,0,,,,,,,,,,,,,,,,,,,,,,,,,,,,858.3696293785179,None,message,sing,red,3,189,856.3689977327886,None,None,856.3689977327886,None,,,,,,,,,,,,,,,,,,,,,,,,,,,,,,,,,color1,001,2019_Nov_21_1336,ProdSingRedo,3.2.4,59.946269641225754,
67,0,67,0,,,,,,,,,,,,,,,,,,,,,,,,,,,,860.8871008673741,None,relation,aloud,blue,51,257,858.8864502505166,None,None,858.8864502505166,None,,,,,,,,,,,,,,,,,,,,,,,,,,,,,,,,,color1,001,2019_Nov_21_1336,ProdSingRedo,3.2.4,59.946269641225754,
68,0,68,0,,,,,,,,,,,,,,,,,,,,,,,,,,,,863.4045303709281,None,length,aloud,blue,40,169,861.4038754000212,None,None,861.4038754000212,None,,,,,,,,,,,,,,,,,,,,,,,,,,,,,,,,,color1,001,2019_Nov_21_1336,ProdSingRedo,3.2.4,59.946269641225754,
69,0,69,0,,,,,,,,,,,,,,,,,,,,,,,,,,,,865.9219701375405,None,notice,aloud,blue,42,201,863.9213148556591,None,None,863.9213148556591,None,,,,,,,,,,,,,,,,,,,,,,,,,,,,,,,,,color1,001,2019_Nov_21_1336,ProdSingRedo,3.2.4,59.946269641225754,
70,0,70,0,,,,,,,,,,,,,,,,,,,,,,,,,,,,868.439421722258,None,century,aloud,blue,54,45,866.4386846467387,None,None,866.4386846467387,None,,,,,,,,,,,,,,,,,,,,,,,,,,,,,,,,,color1,001,2019_Nov_21_1336,ProdSingRedo,3.2.4,59.946269641225754,
71,0,71,0,,,,,,,,,,,,,,,,,,,,,,,,,,,,870.9567383319663,None,comfort,silent,yellow,84,59,868.9562018529396,None,None,868.9562018529396,None,,,,,,,,,,,,,,,,,,,,,,,,,,,,,,,,,color1,001,2019_Nov_21_1336,ProdSingRedo,3.2.4,59.946269641225754,
72,0,72,0,,,,,,,,,,,,,,,,,,,,,,,,,,,,873.4742829063907,None,crowd,silent,yellow,87,81,871.4736176723964,None,None,871.4736176723964,None,,,,,,,,,,,,,,,,,,,,,,,,,,,,,,,,,color1,001,2019_Nov_21_1336,ProdSingRedo,3.2.4,59.946269641225754,
73,0,73,0,,,,,,,,,,,,,,,,,,,,,,,,,,,,875.9916558075056,None,travel,sing,red,16,338,873.9909227750031,None,None,873.9909227750031,None,,,,,,,,,,,,,,,,,,,,,,,,,,,,,,,,,color1,001,2019_Nov_21_1336,ProdSingRedo,3.2.4,59.946269641225754,
74,0,74,0,,,,,,,,,,,,,,,,,,,,,,,,,,,,878.5090542108228,None,crisis,silent,yellow,64,79,876.5084132350166,None,None,876.5084132350166,None,,,,,,,,,,,,,,,,,,,,,,,,,,,,,,,,,color1,001,2019_Nov_21_1336,ProdSingRedo,3.2.4,59.946269641225754,
75,0,75,0,,,,,,,,,,,,,,,,,,,,,,,,,,,,881.0265819910855,None,foundation,sing,red,8,132,879.0258091503056,None,None,879.0258091503056,None,,,,,,,,,,,,,,,,,,,,,,,,,,,,,,,,,color1,001,2019_Nov_21_1336,ProdSingRedo,3.2.4,59.946269641225754,
76,0,76,0,,,,,,,,,,,,,,,,,,,,,,,,,,,,883.5440320207854,None,break,silent,yellow,68,26,881.543387934973,None,None,881.543387934973,None,,,,,,,,,,,,,,,,,,,,,,,,,,,,,,,,,color1,001,2019_Nov_21_1336,ProdSingRedo,3.2.4,59.946269641225754,
77,0,77,0,,,,,,,,,,,,,,,,,,,,,,,,,,,,886.0614708544163,None,strain,sing,red,19,308,884.0608074864431,None,None,884.0608074864431,None,,,,,,,,,,,,,,,,,,,,,,,,,,,,,,,,,color1,001,2019_Nov_21_1336,ProdSingRedo,3.2.4,59.946269641225754,
78,0,78,0,,,,,,,,,,,,,,,,,,,,,,,,,,,,888.5789342572098,None,conference,aloud,blue,33,66,886.5782680902339,None,None,886.5782680902339,None,,,,,,,,,,,,,,,,,,,,,,,,,,,,,,,,,color1,001,2019_Nov_21_1336,ProdSingRedo,3.2.4,59.946269641225754,
79,0,79,0,,,,,,,,,,,,,,,,,,,,,,,,,,,,891.0963668707991,None,stand,silent,yellow,60,302,889.0956975937588,None,None,889.0956975937588,None,,,,,,,,,,,,,,,,,,,,,,,,,,,,,,,,,color1,001,2019_Nov_21_1336,ProdSingRedo,3.2.4,59.946269641225754,
80,0,80,0,,,,,,,,,,,,,,,,,,,,,,,,,,,,893.6137708721508,None,region,sing,red,0,256,891.6131435804418,None,None,891.6131435804418,None,,,,,,,,,,,,,,,,,,,,,,,,,,,,,,,,,color1,001,2019_Nov_21_1336,ProdSingRedo,3.2.4,59.946269641225754,
81,0,81,0,,,,,,,,,,,,,,,,,,,,,,,,,,,,896.1312513800804,None,provision,silent,yellow,75,243,894.1305482038006,None,None,894.1305482038006,None,,,,,,,,,,,,,,,,,,,,,,,,,,,,,,,,,color1,001,2019_Nov_21_1336,ProdSingRedo,3.2.4,59.946269641225754,
82,0,82,0,,,,,,,,,,,,,,,,,,,,,,,,,,,,898.64866129047,None,phrase,aloud,blue,30,220,896.6480072525737,None,None,896.6480072525737,None,,,,,,,,,,,,,,,,,,,,,,,,,,,,,,,,,color1,001,2019_Nov_21_1336,ProdSingRedo,3.2.4,59.946269641225754,
83,0,83,0,,,,,,,,,,,,,,,,,,,,,,,,,,,,901.1660708898562,None,point,sing,red,15,226,899.1654376891383,None,None,899.1654376891383,None,,,,,,,,,,,,,,,,,,,,,,,,,,,,,,,,,color1,001,2019_Nov_21_1336,ProdSingRedo,3.2.4,59.946269641225754,
84,0,84,0,,,,,,,,,,,,,,,,,,,,,,,,,,,,903.6835296276258,None,career,aloud,blue,57,42,901.6686515871843,None,None,901.6686515871843,None,,,,,,,,,,,,,,,,,,,,,,,,,,,,,,,,,color1,001,2019_Nov_21_1336,ProdSingRedo,3.2.4,59.946269641225754,
85,0,85,0,,,,,,,,,,,,,,,,,,,,,,,,,,,,906.2007498266175,None,right,sing,red,28,265,904.20030478228,None,None,904.20030478228,None,,,,,,,,,,,,,,,,,,,,,,,,,,,,,,,,,color1,001,2019_Nov_21_1336,ProdSingRedo,3.2.4,59.946269641225754,
86,0,86,0,,,,,,,,,,,,,,,,,,,,,,,,,,,,908.7184001418063,None,discussion,sing,red,12,96,906.7177103386493,None,None,906.7177103386493,None,,,,,,,,,,,,,,,,,,,,,,,,,,,,,,,,,color1,001,2019_Nov_21_1336,ProdSingRedo,3.2.4,59.946269641225754,
87,0,87,0,,,,,,,,,,,,,,,,,,,,,,,,,,,,911.2358563915477,None,carry,aloud,blue,48,43,909.2350676896458,None,None,909.2350676896458,None,,,,,,,,,,,,,,,,,,,,,,,,,,,,,,,,,color1,001,2019_Nov_21_1336,ProdSingRedo,3.2.4,59.946269641225754,
88,0,88,0,,,,,,,,,,,,,,,,,,,,,,,,,,,,913.7532426657854,None,impact,silent,yellow,61,157,911.7525485085789,None,None,911.7525485085789,None,,,,,,,,,,,,,,,,,,,,,,,,,,,,,,,,,color1,001,2019_Nov_21_1336,ProdSingRedo,3.2.4,59.946269641225754,
89,0,89,0,,,,,,,,,,,,,,,,,,,,,,,,,,,,916.27072970476,None,piece,sing,red,1,221,914.2700769108778,None,None,914.2700769108778,None,,,,,,,,,,,,,,,,,,,,,,,,,,,,,,,,,color1,001,2019_Nov_21_1336,ProdSingRedo,3.2.4,59.946269641225754,
,,,,,,,,,,,,,,,,,,,,,,,,,,,,,,,,,,,,,,,,,,,916.7708967130166,None,k,98.58929250080837,916.7708967130166,None,,,,,,,,,,,,,,,,,,,,,,,,,,,color1,001,2019_Nov_21_1336,ProdSingRedo,3.2.4,59.946269641225754,
,,,,0,0,0,0,,,,,,,,,,,,,,,,,,,,,,,,1028.0048799375363,None,,,,,,,,,,,,,,,,,present,new_sing,red,0,101,231,1015.9027396195161,None,1015.9027396195161,None,3,7.097080621140776,1015.9027396195161,None,1023.0416982593306,None,1023.5702576032199,None,1023.5702576032199,None,f,4.397174854850164,1023.5702576032199,None,,,color1,001,2019_Nov_21_1336,ProdSingRedo,3.2.4,59.946269641225754,
,,,,1,0,1,0,,,,,,,,,,,,,,,,,,,,,,,,1037.8413029753428,None,,,,,,,,,,,,,,,,,public,silent,yellow,1,73,244,1028.5236383540614,None,1028.5236383540614,None,5,6.899521367420675,1028.5236383540614,None,1035.4738950864703,None,1035.958424586599,None,1035.958424586599,None,f,1.8486249031848274,1035.958424586599,None,,,color1,001,2019_Nov_21_1336,ProdSingRedo,3.2.4,59.946269641225754,
,,,,2,0,2,0,,,,,,,,,,,,,,,,,,,,,,,,1044.9933234019845,None,,,,,,,,,,,,,,,,,mayor,new_aloud,blue,2,128,183,1038.3580299246532,None,1038.3580299246532,None,1,4.1605238523334265,1038.3580299246532,None,1042.5759246876696,None,1043.076235379005,None,1043.076235379005,None,n,1.8906366528535727,1043.076235379005,None,,,color1,001,2019_Nov_21_1336,ProdSingRedo,3.2.4,59.946269641225754,
,,,,3,0,3,0,,,,,,,,,,,,,,,,,,,,,,,,1053.9962480679096,None,,,,,,,,,,,,,,,,,number,aloud,blue,3,50,203,1045.5124746144284,None,1045.5124746144284,None,2,6.285487698303768,1045.5124746144284,None,1051.849454346404,None,1052.362263288349,None,1052.362263288349,None,n,1.5875465337303467,1052.362263288349,None,,,color1,001,2019_Nov_21_1336,ProdSingRedo,3.2.4,59.946269641225754,
,,,,4,0,4,0,,,,,,,,,,,,,,,,,,,,,,,,1061.7484364357952,None,,,,,,,,,,,,,,,,,second,new_sing,red,4,111,278,1054.5129184147518,None,1054.5129184147518,None,6,5.164629083068576,1054.5129184147518,None,1059.716767690581,None,1060.2315194640832,None,1060.2315194640832,None,r,1.4697976307652425,1060.2315194640832,None,,,color1,001,2019_Nov_21_1336,ProdSingRedo,3.2.4,59.946269641225754,
,,,,5,0,5,0,,,,,,,,,,,,,,,,,,,,,,,,1067.4336992794124,None,,,,,,,,,,,,,,,,,build,aloud,blue,5,38,35,1062.248862819979,None,1062.248862819979,None,6,3.1162710198550485,1062.248862819979,None,1065.4041814263037,None,1065.916405061871,None,1065.916405061871,None,r,1.4806568991043605,1065.916405061871,None,,,color1,001,2019_Nov_21_1336,ProdSingRedo,3.2.4,59.946269641225754,
,,,,6,0,6,0,,,,,,,,,,,,,,,,,,,,,,,,1077.3865242690663,None,,,,,,,,,,,,,,,,,permit,new_silent,yellow,6,176,218,1067.950368071266,None,1067.950368071266,None,3,7.526475939288503,1067.950368071266,None,1075.5193782441493,None,1076.0363412441802,None,1076.0363412441802,None,f,1.320316849189112,1076.0363412441802,None,,,color1,001,2019_Nov_21_1336,ProdSingRedo,3.2.4,59.946269641225754,
,,,,7,0,7,0,,,,,,,,,,,,,,,,,,,,,,,,1088.3234421115776,None,,,,,,,,,,,,,,,,,cross,new_silent,yellow,7,172,80,1077.90354418254,None,1077.90354418254,None,2,5.740824653767049,1077.90354418254,None,1083.6904052671453,None,1084.2055003872083,None,1084.2055003872083,None,n,4.070196646760451,1084.2055003872083,None,,,color1,001,2019_Nov_21_1336,ProdSingRedo,3.2.4,59.946269641225754,
,,,,8,0,8,0,,,,,,,,,,,,,,,,,,,,,,,,1093.991827480786,None,,,,,,,,,,,,,,,,,minute,silent,yellow,8,66,192,1088.8401376496186,None,1088.8401376496186,None,4,3.7553279364074115,1088.8401376496186,None,1092.643711999408,None,1093.1582659754204,None,1093.1582659754204,None,f,0.789395753556164,1093.1582659754204,None,,,color1,001,2019_Nov_21_1336,ProdSingRedo,3.2.4,59.946269641225754,
,,,,9,0,9,0,,,,,,,,,,,,,,,,,,,,,,,,1100.5961273989815,None,,,,,,,,,,,,,,,,,master,new_silent,yellow,9,150,180,1094.5084996936494,None,1094.5084996936494,None,3,4.886573096446227,1094.5084996936494,None,1099.4433963320334,None,1099.9603723941837,None,1099.9603723941837,None,n,0.6105681701446883,1099.9603723941837,None,,,color1,001,2019_Nov_21_1336,ProdSingRedo,3.2.4,59.946269641225754,
,,,,10,0,10,0,,,,,,,,,,,,,,,,,,,,,,,,1108.8630781144602,None,,,,,,,,,,,,,,,,,place,new_silent,yellow,10,175,222,1101.1272428710363,None,1101.1272428710363,None,6,6.027543921285542,1101.1272428710363,None,1107.1959827828978,None,1107.7127206172736,None,1107.7127206172736,None,r,1.1060377992107533,1107.7127206172736,None,,,color1,001,2019_Nov_21_1336,ProdSingRedo,3.2.4,59.946269641225754,
,,,,11,0,11,0,,,,,,,,,,,,,,,,,,,,,,,,1115.1149900012824,None,,,,,,,,,,,,,,,,,literature,silent,yellow,11,88,173,1109.3797242031433,None,1109.3797242031433,None,6,3.5344155177881476,1109.3797242031433,None,1112.9511776103172,None,1113.4505095773202,None,1113.4505095773202,None,r,1.631561138376128,1113.4505095773202,None,,,color1,001,2019_Nov_21_1336,ProdSingRedo,3.2.4,59.946269641225754,
,,,,12,0,12,0,,,,,,,,,,,,,,,,,,,,,,,,1118.6994003875006,None,,,,,,,,,,,,,,,,,medicine,sing,red,12,14,186,1115.6318189593148,None,1115.6318189593148,None,6,1.7544729910150636,1115.6318189593148,None,1117.4357040004106,None,1117.9491529851512,None,1117.9491529851512,None,r,0.7089696181938052,1117.9491529851512,None,,,color1,001,2019_Nov_21_1336,ProdSingRedo,3.2.4,59.946269641225754,
,,,,13,0,13,0,,,,,,,,,,,,,,,,,,,,,,,,1121.8837277361308,None,,,,,,,,,,,,,,,,,measure,aloud,blue,13,52,184,1119.2162691538397,None,1119.2162691538397,None,6,1.5614394431759138,1119.2162691538397,None,1120.8165530989936,None,1121.3335611943621,None,1121.3335611943621,None,r,0.5162700868677348,1121.3335611943621,None,,,color1,001,2019_Nov_21_1336,ProdSingRedo,3.2.4,59.946269641225754,
,,,,14,0,14,0,,,,,,,,,,,,,,,,,,,,,,,,1125.1513838048559,None,,,,,,,,,,,,,,,,,century,aloud,blue,14,54,45,1122.400441001315,None,1122.400441001315,None,6,1.5611862872901838,1122.400441001315,None,1124.0067997549195,None,1124.5178667728323,None,1124.5178667728323,None,r,0.5956543644715566,1124.5178667728323,None,,,color1,001,2019_Nov_21_1336,ProdSingRedo,3.2.4,59.946269641225754,
,,,,15,0,15,0,,,,,,,,,,,,,,,,,,,,,,,,1129.2359935435816,None,,,,,,,,,,,,,,,,,concern,new_sing,red,15,117,65,1125.6681172851822,None,1125.6681172851822,None,6,2.637166022352176,1125.6681172851822,None,1128.3538615604339,None,1128.869230673532,None,1128.869230673532,None,r,0.3242712437931914,1128.869230673532,None,,,color1,001,2019_Nov_21_1336,ProdSingRedo,3.2.4,59.946269641225754,
,,,,16,0,16,0,,,,,,,,,,,,,,,,,,,,,,,,1135.921347821888,None,,,,,,,,,,,,,,,,,hearing,new_aloud,blue,16,148,150,1129.752654560376,None,1129.752654560376,None,2,2.848427105724113,1129.752654560376,None,1132.636868393136,None,1133.153847254318,None,1133.153847254318,None,n,2.726970743999118,1133.153847254318,None,,,color1,001,2019_Nov_21_1336,ProdSingRedo,3.2.4,59.946269641225754,
,,,,17,0,17,0,,,,,,,,,,,,,,,,,,,,,,,,1140.4893186249828,None,,,,,,,,,,,,,,,,,nation,new_aloud,blue,17,120,198,1136.4380337188777,None,1136.4380337188777,None,6,2.7786394270078745,1136.4380337188777,None,1139.2600253155979,None,1139.7892194152519,None,1139.7892194152519,None,r,0.6594325451296754,1139.7892194152519,None,,,color1,001,2019_Nov_21_1336,ProdSingRedo,3.2.4,59.946269641225754,
,,,,18,0,18,0,,,,,,,,,,,,,,,,,,,,,,,,1144.7907588767703,None,,,,,,,,,,,,,,,,,region,sing,red,18,0,256,1141.0060791625292,None,1141.0060791625292,None,6,1.8023670387337916,1141.0060791625292,None,1142.8587984113838,None,1143.3734926494653,None,1143.3734926494653,None,r,1.3788409565167967,1143.3734926494653,None,,,color1,001,2019_Nov_21_1336,ProdSingRedo,3.2.4,59.946269641225754,
,,,,19,0,19,0,,,,,,,,,,,,,,,,,,,,,,,,1148.1416453889105,None,,,,,,,,,,,,,,,,,listen,silent,yellow,19,67,172,1145.3075729067205,None,1145.3075729067205,None,6,1.7729284912347794,1145.3075729067205,None,1147.1246497336251,None,1147.6416145996773,None,1147.6416145996773,None,r,0.46251551125897095,1147.6416145996773,None,,,color1,001,2019_Nov_21_1336,ProdSingRedo,3.2.4,59.946269641225754,
,,,,20,0,20,0,,,,,,,,,,,,,,,,,,,,,,,,1150.9759971512249,None,,,,,,,,,,,,,,,,,subject,sing,red,20,6,312,1148.6602116059803,None,1148.6602116059803,None,6,1.3881022948771715,1148.6602116059803,None,1150.0944526514504,None,1150.609074425971,None,1150.609074425971,None,r,0.31881253092433326,1150.609074425971,None,,,color1,001,2019_Nov_21_1336,ProdSingRedo,3.2.4,59.946269641225754,
,,,,21,0,21,0,,,,,,,,,,,,,,,,,,,,,,,,1154.8939105743775,None,,,,,,,,,,,,,,,,,tennis,new_sing,red,21,98,323,1151.4759763140464,None,1151.4759763140464,None,1,1.819792810245417,1151.4759763140464,None,1153.3446471834031,None,1153.8433866909763,None,1153.8433866909763,None,n,1.0123200462840032,1153.8433866909763,None,,,color1,001,2019_Nov_21_1336,ProdSingRedo,3.2.4,59.946269641225754,
,,,,22,0,22,0,,,,,,,,,,,,,,,,,,,,,,,,1159.2618655163678,None,,,,,,,,,,,,,,,,,suspect,aloud,blue,22,55,318,1155.4106875950529,None,1155.4106875950529,None,6,2.573184135137126,1155.4106875950529,None,1158.0311695864657,None,1158.5449681378086,None,1158.5449681378086,None,r,0.6703888462216128,1158.5449681378086,None,,,color1,001,2019_Nov_21_1336,ProdSingRedo,3.2.4,59.946269641225754,
,,,,23,0,23,0,,,,,,,,,,,,,,,,,,,,,,,,1161.86264675422,None,,,,,,,,,,,,,,,,,column,sing,red,23,29,57,1159.7785168920818,None,1159.7785168920818,None,6,1.0286025732348207,1159.7785168920818,None,1160.8288482650823,None,1161.3455820564122,None,1161.3455820564122,None,r,0.4696415076032281,1161.3455820564122,None,,,color1,001,2019_Nov_21_1336,ProdSingRedo,3.2.4,59.946269641225754,
,,,,24,0,24,0,,,,,,,,,,,,,,,,,,,,,,,,1169.8317713759607,None,,,,,,,,,,,,,,,,,business,new_aloud,blue,24,135,38,1162.3794806883088,None,1162.3794806883088,None,5,5.515322151768487,1162.3794806883088,None,1167.9188050668454,None,1168.431382934068,None,1168.431382934068,None,f,1.3594409422075842,1168.431382934068,None,,,color1,001,2019_Nov_21_1336,ProdSingRedo,3.2.4,59.946269641225754,
,,,,25,0,25,0,,,,,,,,,,,,,,,,,,,,,,,,1173.89975306415,None,,,,,,,,,,,,,,,,,period,new_silent,yellow,25,155,217,1170.3485947359586,None,1170.3485947359586,None,5,2.4741585054725874,1170.3485947359586,None,1172.8657483804564,None,1173.3828382694628,None,1173.3828382694628,None,f,0.47963618946960196,1173.3828382694628,None,,,color1,001,2019_Nov_21_1336,ProdSingRedo,3.2.4,59.946269641225754,
,,,,26,0,26,0,,,,,,,,,,,,,,,,,,,,,,,,1179.8014778830693,None,,,,,,,,,,,,,,,,,military,new_silent,yellow,26,165,190,1174.4163381963735,None,1174.4163381963735,None,2,3.9340283198689576,1174.4163381963735,None,1178.3842471100215,None,1178.8843472527515,None,1178.8843472527515,None,n,0.8818586121196859,1178.8843472527515,None,,,color1,001,2019_Nov_21_1336,ProdSingRedo,3.2.4,59.946269641225754,
,,,,27,0,27,0,,,,,,,,,,,,,,,,,,,,,,,,1184.802953278122,None,,,,,,,,,,,,,,,,,debate,silent,yellow,27,76,87,1180.3182673438278,None,1180.3182673438278,None,3,3.143653219973203,1180.3182673438278,None,1183.519170805579,None,1184.0192899194662,None,1184.0192899194662,None,n,0.7549180353526026,1184.0192899194662,None,,,color1,001,2019_Nov_21_1336,ProdSingRedo,3.2.4,59.946269641225754,
,,,,28,0,28,0,,,,,,,,,,,,,,,,,,,,,,,,1189.9212461241405,None,,,,,,,,,,,,,,,,,impact,silent,yellow,28,61,157,1185.319648194156,None,1185.319648194156,None,4,2.1582774824928492,1185.319648194156,None,1187.5241586609336,None,1188.0372095626954,None,1188.0372095626954,None,f,1.8406268563121557,1188.0372095626954,None,,,color1,001,2019_Nov_21_1336,ProdSingRedo,3.2.4,59.946269641225754,
,,,,29,0,29,0,,,,,,,,,,,,,,,,,,,,,,,,1194.605996124912,None,,,,,,,,,,,,,,,,,article,silent,yellow,29,71,11,1190.437904341903,None,1190.437904341903,None,6,1.9115111292048823,1190.437904341903,None,1192.3895164224668,None,1192.9053996224538,None,1192.9053996224538,None,r,1.651825117180124,1192.9053996224538,None,,,color1,001,2019_Nov_21_1336,ProdSingRedo,3.2.4,59.946269641225754,
,,,,30,0,30,0,,,,,,,,,,,,,,,,,,,,,,,,1205.6759113145818,None,,,,,,,,,,,,,,,,,damage,aloud,blue,30,59,83,1195.1088455282443,None,1195.1088455282443,None,3,9.01604585419409,1195.1088455282443,None,1204.160929399368,None,1204.6757813156,None,1204.6757813156,None,f,0.976584012620151,1204.6757813156,None,,,color1,001,2019_Nov_21_1336,ProdSingRedo,3.2.4,59.946269641225754,
,,,,31,0,31,0,,,,,,,,,,,,,,,,,,,,,,,,1209.0103159472637,None,,,,,,,,,,,,,,,,,career,aloud,blue,31,57,42,1206.1770209708775,None,1206.1770209708775,None,6,2.099527276470326,1206.1770209708775,None,1208.3101990103896,None,1208.8122015543922,None,1208.8122015543922,None,r,0.15213269848027267,1208.8122015543922,None,,,color1,001,2019_Nov_21_1336,ProdSingRedo,3.2.4,59.946269641225754,
,,,,32,0,32,0,,,,,,,,,,,,,,,,,,,,,,,,1216.0125054036616,None,,,,,,,,,,,,,,,,,poetry,new_sing,red,32,116,225,1209.527269617247,None,1209.527269617247,None,3,3.9489054272999056,1209.527269617247,None,1213.5137192457623,None,1214.028639271506,None,1214.028639271506,None,n,1.9512516288668849,1214.028639271506,None,,,color1,001,2019_Nov_21_1336,ProdSingRedo,3.2.4,59.946269641225754,
,,,,33,0,33,0,,,,,,,,,,,,,,,,,,,,,,,,1219.6136586003122,None,,,,,,,,,,,,,,,,,property,new_aloud,blue,33,122,242,1216.5294584516378,None,1216.5294584516378,None,6,2.418355668487493,1216.5294584516378,None,1218.999271943554,None,1219.5135749406763,None,1219.5135749406763,None,r,0.06629729954875074,1219.5135749406763,None,,,color1,001,2019_Nov_21_1336,ProdSingRedo,3.2.4,59.946269641225754,
,,,,34,0,34,0,,,,,,,,,,,,,,,,,,,,,,,,1225.516506448621,None,,,,,,,,,,,,,,,,,crowd,silent,yellow,34,87,81,1220.130507773487,None,1220.130507773487,None,5,3.9289263266546186,1220.130507773487,None,1224.0983274294704,None,1224.6152151669667,None,1224.6152151669667,None,r,0.876290737389354,1224.6152151669667,None,,,color1,001,2019_Nov_21_1336,ProdSingRedo,3.2.4,59.946269641225754,
,,,,35,0,35,0,,,,,,,,,,,,,,,,,,,,,,,,1229.3998843071167,None,,,,,,,,,,,,,,,,,suggestion,new_silent,yellow,35,161,314,1226.032128717634,None,1226.032128717634,None,6,2.443164946307661,1226.032128717634,None,1228.519599055784,None,1229.0332477040356,None,1229.0332477040356,None,r,0.32993179716868326,1229.0332477040356,None,,,color1,001,2019_Nov_21_1336,ProdSingRedo,3.2.4,59.946269641225754,
,,,,36,0,36,0,,,,,,,,,,,,,,,,,,,,,,,,1232.9842695021653,None,,,,,,,,,,,,,,,,,comfort,silent,yellow,36,84,59,1229.9168165179435,None,1229.9168165179435,None,6,1.0142205815354828,1229.9168165179435,None,1230.9672253305034,None,1231.48399893014,None,1231.48399893014,None,r,1.4787100245594047,1231.48399893014,None,,,color1,001,2019_Nov_21_1336,ProdSingRedo,3.2.4,59.946269641225754,
,,,,37,0,37,0,,,,,,,,,,,,,,,,,,,,,,,,1235.418545690918,None,,,,,,,,,,,,,,,,,strain,sing,red,37,19,308,1233.5012278372014,None,1233.5012278372014,None,6,0.9976478893950116,1233.5012278372014,None,1234.5354412034503,None,1235.0517510986247,None,1235.0517510986247,None,r,0.31898389317211695,1235.0517510986247,None,,,color1,001,2019_Nov_21_1336,ProdSingRedo,3.2.4,59.946269641225754,
,,,,38,0,38,0,,,,,,,,,,,,,,,,,,,,,,,,1238.7711812801426,None,,,,,,,,,,,,,,,,,goose,new_aloud,blue,38,143,138,1235.9185596860189,None,1235.9185596860189,None,1,1.7641327233577613,1235.9185596860189,None,1237.7191481024201,None,1238.2192868094426,None,1238.2192868094426,None,n,0.5272192348493263,1238.2192868094426,None,,,color1,001,2019_Nov_21_1336,ProdSingRedo,3.2.4,59.946269641225754,
,,,,39,0,39,0,,,,,,,,,,,,,,,,,,,,,,,,1246.2051694807305,None,,,,,,,,,,,,,,,,,discovery,new_aloud,blue,39,149,95,1239.2908574645116,None,1239.2908574645116,None,3,4.695211808138993,1239.2908574645116,None,1244.0048264451616,None,1244.521081603889,None,1244.521081603889,None,f,1.641311061423039,1244.521081603889,None,,,color1,001,2019_Nov_21_1336,ProdSingRedo,3.2.4,59.946269641225754,
,,,,40,0,40,0,,,,,,,,,,,,,,,,,,,,,,,,1251.3400735831528,None,,,,,,,,,,,,,,,,,pressure,new_silent,yellow,40,170,232,1246.7218905209447,None,1246.7218905209447,None,6,3.2160343471041415,1246.7218905209447,None,1249.977676563809,None,1250.489803477627,None,1250.489803477627,None,r,0.8161637240555137,1250.489803477627,None,,,color1,001,2019_Nov_21_1336,ProdSingRedo,3.2.4,59.946269641225754,
,,,,41,0,41,0,,,,,,,,,,,,,,,,,,,,,,,,1253.924215263367,None,,,,,,,,,,,,,,,,,recall,aloud,blue,41,45,255,1251.8569084502524,None,1251.8569084502524,None,6,1.160812462476315,1251.8569084502524,None,1253.0596318976313,None,1253.5740875969059,None,1253.5740875969059,None,r,0.3077769242518116,1253.5740875969059,None,,,color1,001,2019_Nov_21_1336,ProdSingRedo,3.2.4,59.946269641225754,
,,,,42,0,42,0,,,,,,,,,,,,,,,,,,,,,,,,1260.0093499740178,None,,,,,,,,,,,,,,,,,sunset,sing,red,42,2,315,1254.4410389343684,None,1254.4410389343684,None,4,3.7845279451285023,1254.4410389343684,None,1258.2587676221738,None,1258.775689569913,None,1258.775689569913,None,f,1.1855337266460992,1258.775689569913,None,,,color1,001,2019_Nov_21_1336,ProdSingRedo,3.2.4,59.946269641225754,
,,,,43,0,43,0,,,,,,,,,,,,,,,,,,,,,,,,1263.5770610901818,None,,,,,,,,,,,,,,,,,majority,new_aloud,blue,43,127,176,1260.5094569588255,None,1260.5094569588255,None,4,1.9157768371514976,1260.5094569588255,None,1262.4654718993697,None,1262.9768405895447,None,1262.9768405895447,None,f,0.56026851941715,1262.9768405895447,None,,,color1,001,2019_Nov_21_1336,ProdSingRedo,3.2.4,59.946269641225754,
,,,,44,0,44,0,,,,,,,,,,,,,,,,,,,,,,,,1266.794702386309,None,,,,,,,,,,,,,,,,,platform,aloud,blue,44,31,224,1264.0939948560263,None,1264.0939948560263,None,6,1.8109547460335307,1264.0939948560263,None,1265.945177442365,None,1266.4613750657008,None,1266.4613750657008,None,r,0.30773493892047554,1266.4613750657008,None,,,color1,001,2019_Nov_21_1336,ProdSingRedo,3.2.4,59.946269641225754,
,,,,45,0,45,0,,,,,,,,,,,,,,,,,,,,,,,,1272.6132639383432,None,,,,,,,,,,,,,,,,,entrance,sing,red,45,4,115,1267.3116507692612,None,1267.3116507692612,None,4,4.336863728094613,1267.3116507692612,None,1271.6993297899899,None,1272.213043126685,None,1272.213043126685,None,f,0.3558358032023534,1272.213043126685,None,,,color1,001,2019_Nov_21_1336,ProdSingRedo,3.2.4,59.946269641225754,
,,,,46,0,46,0,,,,,,,,,,,,,,,,,,,,,,,,1275.981068355206,None,,,,,,,,,,,,,,,,,block,new_silent,yellow,46,156,25,1273.1132082689146,None,1273.1132082689146,None,2,1.775422729930142,1273.1132082689146,None,1274.9367570542963,None,1275.4473581907223,None,1275.4473581907223,None,n,0.49697488034144044,1275.4473581907223,None,,,color1,001,2019_Nov_21_1336,ProdSingRedo,3.2.4,59.946269641225754,
,,,,47,0,47,0,,,,,,,,,,,,,,,,,,,,,,,,1281.7326104602544,None,,,,,,,,,,,,,,,,,bicycle,new_aloud,blue,47,137,21,1276.4997595952009,None,1276.4997595952009,None,2,0.932430078915786,1276.4997595952009,None,1277.4979822168825,None,1277.998255276936,None,1277.998255276936,None,n,3.68990113234031,1277.998255276936,None,,,color1,001,2019_Nov_21_1336,ProdSingRedo,3.2.4,59.946269641225754,
,,,,48,0,48,0,,,,,,,,,,,,,,,,,,,,,,,,1287.4011413785338,None,,,,,,,,,,,,,,,,,management,new_aloud,blue,48,147,177,1282.249529608962,None,1282.249529608962,None,5,4.0380940533359535,1282.249529608962,None,1286.3383033578866,None,1286.850799742475,None,1286.850799742475,None,r,0.5170283105690032,1286.850799742475,None,,,color1,001,2019_Nov_21_1336,ProdSingRedo,3.2.4,59.946269641225754,
,,,,49,0,49,0,,,,,,,,,,,,,,,,,,,,,,,,1296.720620698441,None,,,,,,,,,,,,,,,,,author,new_aloud,blue,49,140,15,1287.9179669155565,None,1287.9179669155565,None,4,7.5451283040165436,1287.9179669155565,None,1295.5053965124243,None,1296.0203862026974,None,1296.0203862026974,None,f,0.6588273346133064,1296.0203862026974,None,,,color1,001,2019_Nov_21_1336,ProdSingRedo,3.2.4,59.946269641225754,
,,,,50,0,50,0,,,,,,,,,,,,,,,,,,,,,,,,1301.4387079719163,None,,,,,,,,,,,,,,,,,clear,new_sing,red,50,96,52,1297.2373224565526,None,1297.2373224565526,None,6,2.7455369610979687,1297.2373224565526,None,1300.0220407350862,None,1300.5383969695831,None,1300.5383969695831,None,r,0.8843270376091823,1300.5383969695831,None,,,color1,001,2019_Nov_21_1336,ProdSingRedo,3.2.4,59.946269641225754,
,,,,51,0,51,0,,,,,,,,,,,,,,,,,,,,,,,,1303.939526530041,None,,,,,,,,,,,,,,,,,revolution,aloud,blue,51,47,264,1301.9581767177442,None,1301.9581767177442,None,6,1.0726821773860138,1301.9581767177442,None,1303.0891404206632,None,1303.5893481702078,None,1303.5893481702078,None,r,0.3133046796428971,1303.5893481702078,None,,,color1,001,2019_Nov_21_1336,ProdSingRedo,3.2.4,59.946269641225754,
,,,,52,0,52,0,,,,,,,,,,,,,,,,,,,,,,,,1309.0911317685677,None,,,,,,,,,,,,,,,,,marriage,new_aloud,blue,52,136,179,1304.45621149402,None,1304.45621149402,None,4,3.910243172722403,1304.45621149402,None,1308.4074876920786,None,1308.907530921395,None,1308.907530921395,None,f,0.14679652050836012,1308.907530921395,None,,,color1,001,2019_Nov_21_1336,ProdSingRedo,3.2.4,59.946269641225754,
,,,,53,0,53,0,,,,,,,,,,,,,,,,,,,,,,,,1312.9589927878405,None,,,,,,,,,,,,,,,,,touch,aloud,blue,53,32,332,1309.6079479755135,None,1309.6079479755135,None,6,2.670075666886987,1309.6079479755135,None,1312.3252605421876,None,1312.8422922737664,None,1312.8422922737664,None,r,0.07573062222218141,1312.8422922737664,None,,,color1,001,2019_Nov_21_1336,ProdSingRedo,3.2.4,59.946269641225754,
,,,,54,0,54,0,,,,,,,,,,,,,,,,,,,,,,,,1315.7931884269929,None,,,,,,,,,,,,,,,,,notice,aloud,blue,54,42,201,1313.475793444697,None,1313.475793444697,None,6,0.9141303908254486,1313.475793444697,None,1314.4259593644238,None,1314.9429198764556,None,1314.9429198764556,None,r,0.8149679201014806,1314.9429198764556,None,,,color1,001,2019_Nov_21_1336,ProdSingRedo,3.2.4,59.946269641225754,
,,,,55,0,55,0,,,,,,,,,,,,,,,,,,,,,,,,1321.9283428862982,None,,,,,,,,,,,,,,,,,thick,new_silent,yellow,55,167,327,1316.3098992041487,None,1316.3098992041487,None,4,4.671609530370915,1316.3098992041487,None,1321.03385882359,None,1321.528098438459,None,1321.528098438459,None,f,0.3654977125697769,1321.528098438459,None,,,color1,001,2019_Nov_21_1336,ProdSingRedo,3.2.4,59.946269641225754,
,,,,56,0,56,0,,,,,,,,,,,,,,,,,,,,,,,,1326.4464217626955,None,,,,,,,,,,,,,,,,,provision,silent,yellow,56,75,243,1322.4473090523388,None,1322.4473090523388,None,6,2.5820700936892536,1322.4473090523388,None,1325.0792017192289,None,1325.5794004497002,None,1325.5794004497002,None,r,0.8338852588203736,1325.5794004497002,None,,,color1,001,2019_Nov_21_1336,ProdSingRedo,3.2.4,59.946269641225754,
,,,,57,0,57,0,,,,,,,,,,,,,,,,,,,,,,,,1331.898113148869,None,,,,,,,,,,,,,,,,,finance,new_sing,red,57,110,129,1326.9631079706887,None,1326.9631079706887,None,6,4.049894725700142,1326.9631079706887,None,1331.0514170821116,None,1331.5506582364324,None,1331.5506582364324,None,r,0.30272562443860807,1331.5506582364324,None,,,color1,001,2019_Nov_21_1336,ProdSingRedo,3.2.4,59.946269641225754,
,,,,58,0,58,0,,,,,,,,,,,,,,,,,,,,,,,,1337.2829688904458,None,,,,,,,,,,,,,,,,,science,sing,red,58,17,275,1332.4147897157818,None,1332.4147897157818,None,4,3.453809312020894,1332.4147897157818,None,1335.917599621811,None,1336.4328346929397,None,1336.4328346929397,None,f,0.8116722284175921,1336.4328346929397,None,,,color1,001,2019_Nov_21_1336,ProdSingRedo,3.2.4,59.946269641225754,
,,,,59,0,59,0,,,,,,,,,,,,,,,,,,,,,,,,1340.9507761062996,None,,,,,,,,,,,,,,,,,mechanical,silent,yellow,59,72,185,1337.799929091474,None,1337.799929091474,None,6,2.1886328648542985,1337.799929091474,None,1340.0337089204695,None,1340.5506190501328,None,1340.5506190501328,None,r,0.3658099589229096,1340.5506190501328,None,,,color1,001,2019_Nov_21_1336,ProdSingRedo,3.2.4,59.946269641225754,
,,,,60,0,60,0,,,,,,,,,,,,,,,,,,,,,,,,1344.8021048637747,None,,,,,,,,,,,,,,,,,patient,aloud,blue,60,37,213,1341.4676395856077,None,1341.4676395856077,None,6,1.9685246982553508,1341.4676395856077,None,1343.4848759567249,None,1344.0016520443605,None,1344.0016520443605,None,r,0.7543930634274147,1344.0016520443605,None,,,color1,001,2019_Nov_21_1336,ProdSingRedo,3.2.4,59.946269641225754,
,,,,61,0,61,0,,,,,,,,,,,,,,,,,,,,,,,,1349.1366370074102,None,,,,,,,,,,,,,,,,,substance,new_sing,red,61,95,313,1345.308129911893,None,1345.308129911893,None,6,2.9757234691642225,1345.308129911893,None,1348.3235173741414,None,1348.836512295471,None,1348.836512295471,None,r,0.26328866303083487,1348.836512295471,None,,,color1,001,2019_Nov_21_1336,ProdSingRedo,3.2.4,59.946269641225754,
,,,,62,0,62,0,,,,,,,,,,,,,,,,,,,,,,,,1353.08794990374,None,,,,,,,,,,,,,,,,,account,new_silent,yellow,62,153,1,1349.653526921902,None,1349.653526921902,None,3,2.342381531430874,1349.653526921902,None,1352.0397361456126,None,1352.554325575882,None,1352.554325575882,None,r,0.4973051648121327,1352.554325575882,None,,,color1,001,2019_Nov_21_1336,ProdSingRedo,3.2.4,59.946269641225754,
,,,,63,0,63,0,,,,,,,,,,,,,,,,,,,,,,,,1363.9412525929802,None,,,,,,,,,,,,,,,,,owner,silent,yellow,63,62,208,1353.5878578470438,None,1353.5878578470438,None,3,6.6793202111148275,1353.5878578470438,None,1360.309142535465,None,1360.8236442630878,None,1360.8236442630878,None,n,3.0755076335626654,1360.8236442630878,None,,,color1,001,2019_Nov_21_1336,ProdSingRedo,3.2.4,59.946269641225754,
,,,,64,0,64,0,,,,,,,,,,,,,,,,,,,,,,,,1372.2771201806318,None,,,,,,,,,,,,,,,,,bureau,new_silent,yellow,64,157,37,1364.4581073642184,None,1364.4581073642184,None,1,6.832221707329154,1364.4581073642184,None,1371.3267107460706,None,1371.8269334237266,None,1371.8269334237266,None,n,0.4155059541517403,1371.8269334237266,None,,,color1,001,2019_Nov_21_1336,ProdSingRedo,3.2.4,59.946269641225754,
,,,,65,0,65,0,,,,,,,,,,,,,,,,,,,,,,,,1377.7288622601773,None,,,,,,,,,,,,,,,,,weather,new_aloud,blue,65,124,352,1372.7938262927637,None,1372.7938262927637,None,1,3.232372232450871,1372.7938262927637,None,1376.0653698906244,None,1376.5783467738074,None,1376.5783467738074,None,n,1.1117468689626548,1376.5783467738074,None,,,color1,001,2019_Nov_21_1336,ProdSingRedo,3.2.4,59.946269641225754,
,,,,66,0,66,0,,,,,,,,,,,,,,,,,,,,,,,,1382.2969086368394,None,,,,,,,,,,,,,,,,,rural,new_aloud,blue,66,138,269,1378.2456570079667,None,1378.2456570079667,None,1,3.164147029456217,1378.2456570079667,None,1381.4348160887603,None,1381.950190799922,None,1381.950190799922,None,n,0.29957890283549204,1381.950190799922,None,,,color1,001,2019_Nov_21_1336,ProdSingRedo,3.2.4,59.946269641225754,
,,,,67,0,67,0,,,,,,,,,,,,,,,,,,,,,,,,1385.6812574446085,None,,,,,,,,,,,,,,,,,trend,new_sing,red,67,112,340,1382.8135643666028,None,1382.8135643666028,None,1,1.9638916965341195,1382.8135643666028,None,1384.7975415265828,None,1385.3142824709648,None,1385.3142824709648,None,n,0.3273265306779649,1385.3142824709648,None,,,color1,001,2019_Nov_21_1336,ProdSingRedo,3.2.4,59.946269641225754,
,,,,68,0,68,0,,,,,,,,,,,,,,,,,,,,,,,,1389.782521980087,None,,,,,,,,,,,,,,,,,session,new_silent,yellow,68,174,281,1386.19808640267,None,1386.19808640267,None,1,2.587282181746559,1386.19808640267,None,1388.8321548418317,None,1389.3490515984013,None,1389.3490515984013,None,n,0.38859087953460403,1389.3490515984013,None,,,color1,001,2019_Nov_21_1336,ProdSingRedo,3.2.4,59.946269641225754,
,,,,69,0,69,0,,,,,,,,,,,,,,,,,,,,,,,,1393.2502508233883,None,,,,,,,,,,,,,,,,,range,sing,red,69,25,251,1390.299350005138,None,1390.299350005138,None,6,2.237779940973269,1390.299350005138,None,1392.5848672486609,None,1393.100214591599,None,1393.100214591599,None,r,0.10903959372080863,1393.100214591599,None,,,color1,001,2019_Nov_21_1336,ProdSingRedo,3.2.4,59.946269641225754,
,,,,70,0,70,0,,,,,,,,,,,,,,,,,,,,,,,,1398.6852289443486,None,,,,,,,,,,,,,,,,,dance,sing,red,70,20,84,1393.766926146287,None,1393.766926146287,None,4,3.5619746781885624,1393.766926146287,None,1397.3680180754454,None,1397.8681853947055,None,1397.8681853947055,None,f,0.780659387120977,1397.8681853947055,None,,,color1,001,2019_Nov_21_1336,ProdSingRedo,3.2.4,59.946269641225754,
,,,,71,0,71,0,,,,,,,,,,,,,,,,,,,,,,,,1401.3360215337889,None,,,,,,,,,,,,,,,,,length,aloud,blue,71,40,169,1399.2019185733807,None,1399.2019185733807,None,6,1.2230779278615955,1399.2019185733807,None,1400.4710861134226,None,1400.9859719289234,None,1400.9859719289234,None,r,0.3106113994726911,1400.9859719289234,None,,,color1,001,2019_Nov_21_1336,ProdSingRedo,3.2.4,59.946269641225754,
,,,,72,0,72,0,,,,,,,,,,,,,,,,,,,,,,,,1403.786815056228,None,,,,,,,,,,,,,,,,,expansion,sing,red,72,9,123,1401.8529042952578,None,1401.8529042952578,None,6,1.0596629978681449,1401.8529042952578,None,1402.9530784565432,None,1403.4700324375299,None,1403.4700324375299,None,r,0.27470400353195146,1403.4700324375299,None,,,color1,001,2019_Nov_21_1336,ProdSingRedo,3.2.4,59.946269641225754,
,,,,73,0,73,0,,,,,,,,,,,,,,,,,,,,,,,,1408.7716847929114,None,,,,,,,,,,,,,,,,,report,new_silent,yellow,73,158,259,1404.3034773170366,None,1404.3034773170366,None,4,3.8487819593865424,1404.3034773170366,None,1408.1903931380366,None,1408.70495240108,None,1408.70495240108,None,f,0.03125760014518164,1408.70495240108,None,,,color1,001,2019_Nov_21_1336,ProdSingRedo,3.2.4,59.946269641225754,
,,,,74,0,74,0,,,,,,,,,,,,,,,,,,,,,,,,1413.489791037544,None,,,,,,,,,,,,,,,,,addition,new_silent,yellow,74,173,2,1409.2885013108607,None,1409.2885013108607,None,4,2.98361670828308,1409.2885013108607,None,1412.3064965276571,None,1412.822918072663,None,1412.822918072663,None,f,0.6331015329342335,1412.822918072663,None,,,color1,001,2019_Nov_21_1336,ProdSingRedo,3.2.4,59.946269641225754,
,,,,75,0,75,0,,,,,,,,,,,,,,,,,,,,,,,,1417.2908444024215,None,,,,,,,,,,,,,,,,,youth,silent,yellow,75,78,359,1414.006494350644,None,1414.006494350644,None,6,2.265254819765687,1414.006494350644,None,1416.3125595180609,None,1416.8241446658503,None,1416.8241446658503,None,r,0.42370055450010113,1416.8241446658503,None,,,color1,001,2019_Nov_21_1336,ProdSingRedo,3.2.4,59.946269641225754,
,,,,76,0,76,0,,,,,,,,,,,,,,,,,,,,,,,,1427.444057522982,None,,,,,,,,,,,,,,,,,distance,new_silent,yellow,76,166,100,1417.8077147237782,None,1417.8077147237782,None,4,8.527680140308803,1417.8077147237782,None,1426.3769503733492,None,1426.8938617470267,None,1426.8938617470267,None,f,0.5132026708743069,1426.8938617470267,None,,,color1,001,2019_Nov_21_1336,ProdSingRedo,3.2.4,59.946269641225754,
,,,,77,0,77,0,,,,,,,,,,,,,,,,,,,,,,,,1430.8116084729554,None,,,,,,,,,,,,,,,,,speech,silent,yellow,77,86,298,1427.9606886835536,None,1427.9606886835536,None,4,1.6622496042400599,1427.9606886835536,None,1429.6640307146008,None,1430.1782425880374,None,1430.1782425880374,None,f,0.6052484753017779,1430.1782425880374,None,,,color1,001,2019_Nov_21_1336,ProdSingRedo,3.2.4,59.946269641225754,
,,,,78,0,78,0,,,,,,,,,,,,,,,,,,,,,,,,1435.8299874665972,None,,,,,,,,,,,,,,,,,detective,new_aloud,blue,78,132,92,1431.328499942465,None,1431.328499942465,None,4,3.558328175888164,1431.328499942465,None,1434.9327143350383,None,1435.4464621930092,None,1435.4464621930092,None,f,0.3360426819708664,1435.4464621930092,None,,,color1,001,2019_Nov_21_1336,ProdSingRedo,3.2.4,59.946269641225754,
,,,,79,0,79,0,,,,,,,,,,,,,,,,,,,,,,,,1439.230862005148,None,,,,,,,,,,,,,,,,,emergency,new_sing,red,79,90,110,1436.3470571404614,None,1436.3470571404614,None,3,1.7791323656856548,1436.3470571404614,None,1438.1499982894748,None,1438.6809162750724,None,1438.6809162750724,None,n,0.5255217841768172,1438.6809162750724,None,,,color1,001,2019_Nov_21_1336,ProdSingRedo,3.2.4,59.946269641225754,
,,,,80,0,80,0,,,,,,,,,,,,,,,,,,,,,,,,1443.2822654031625,None,,,,,,,,,,,,,,,,,light,new_aloud,blue,80,139,171,1439.7476275187219,None,1439.7476275187219,None,6,2.666638158116257,1439.7476275187219,None,1442.4508697180136,None,1442.965352474479,None,1442.965352474479,None,r,0.28077507999842055,1442.965352474479,None,,,color1,001,2019_Nov_21_1336,ProdSingRedo,3.2.4,59.946269641225754,
,,,,81,0,81,0,,,,,,,,,,,,,,,,,,,,,,,,1451.5847745699575,None,,,,,,,,,,,,,,,,,guard,new_aloud,blue,81,123,145,1443.7989139798738,None,1443.7989139798738,None,3,5.0387770144152455,1443.7989139798738,None,1448.8856478644884,None,1449.4007529366354,None,1449.4007529366354,None,f,2.1488677960296627,1449.4007529366354,None,,,color1,001,2019_Nov_21_1336,ProdSingRedo,3.2.4,59.946269641225754,
,,,,82,0,82,0,,,,,,,,,,,,,,,,,,,,,,,,1455.5203227582097,None,,,,,,,,,,,,,,,,,right,sing,red,82,28,265,1452.084780167992,None,1452.084780167992,None,6,1.8806758702558,1452.084780167992,None,1454.003530809452,None,1454.5190436056291,None,1454.5190436056291,None,r,0.9821568633487914,1454.5190436056291,None,,,color1,001,2019_Nov_21_1336,ProdSingRedo,3.2.4,59.946269641225754,
,,,,83,0,83,0,,,,,,,,,,,,,,,,,,,,,,,,1457.9200885734754,None,,,,,,,,,,,,,,,,,fashion,aloud,blue,83,41,125,1456.0359947876132,None,1456.0359947876132,None,6,0.9531813983339816,1456.0359947876132,None,1457.036305789923,None,1457.5533309904567,None,1457.5533309904567,None,r,0.32403488201089203,1457.5533309904567,None,,,color1,001,2019_Nov_21_1336,ProdSingRedo,3.2.4,59.946269641225754,
,,,,84,0,84,0,,,,,,,,,,,,,,,,,,,,,,,,1460.8542114380398,None,,,,,,,,,,,,,,,,,phrase,aloud,blue,84,30,220,1458.4368895413063,None,1458.4368895413063,None,6,1.544192186993314,1458.4368895413063,None,1460.0227031700488,None,1460.5375519762747,None,1460.5375519762747,None,r,0.29165891752927564,1460.5375519762747,None,,,color1,001,2019_Nov_21_1336,ProdSingRedo,3.2.4,59.946269641225754,
,,,,85,0,85,0,,,,,,,,,,,,,,,,,,,,,,,,1466.1409860639833,None,,,,,,,,,,,,,,,,,contract,new_sing,red,85,97,68,1461.371142093849,None,1461.371142093849,None,5,3.9935718928463757,1461.371142093849,None,1465.4054500048223,None,1465.9225451808597,None,1465.9225451808597,None,f,0.19398614796227776,1465.9225451808597,None,,,color1,001,2019_Nov_21_1336,ProdSingRedo,3.2.4,59.946269641225754,
,,,,86,0,86,0,,,,,,,,,,,,,,,,,,,,,,,,1469.0901527332317,None,,,,,,,,,,,,,,,,,question,sing,red,86,5,247,1466.672717009642,None,1466.672717009642,None,6,1.4197536239516921,1466.672717009642,None,1468.1411729763786,None,1468.6399286560772,None,1468.6399286560772,None,r,0.404623049631482,1468.6399286560772,None,,,color1,001,2019_Nov_21_1336,ProdSingRedo,3.2.4,59.946269641225754,
,,,,87,0,87,0,,,,,,,,,,,,,,,,,,,,,,,,1471.290828230296,None,,,,,,,,,,,,,,,,,piece,sing,red,87,1,221,1469.5946093966195,None,1469.5946093966195,None,6,0.8257768060429953,1469.5946093966195,None,1470.46071542977,None,1470.957373087731,None,1470.957373087731,None,r,0.29502458474598825,1470.957373087731,None,,,color1,001,2019_Nov_21_1336,ProdSingRedo,3.2.4,59.946269641225754,
,,,,88,0,88,0,,,,,,,,,,,,,,,,,,,,,,,,1475.6754118448298,None,,,,,,,,,,,,,,,,,cousin,new_silent,yellow,88,162,76,1471.8076413272356,None,1471.8076413272356,None,5,2.8444848401704803,1471.8076413272356,None,1474.693739212118,None,1475.2086800750112,None,1475.2086800750112,None,f,0.4353535007976461,1475.2086800750112,None,,,color1,001,2019_Nov_21_1336,ProdSingRedo,3.2.4,59.946269641225754,
,,,,89,0,89,0,,,,,,,,,,,,,,,,,,,,,,,,1478.309618369036,None,,,,,,,,,,,,,,,,,discussion,sing,red,89,12,96,1476.192298960319,None,1476.192298960319,None,6,1.0998535178950988,1476.192298960319,None,1477.326937155769,None,1477.8428685610706,None,1477.8428685610706,None,r,0.4169720191275701,1477.8428685610706,None,,,color1,001,2019_Nov_21_1336,ProdSingRedo,3.2.4,59.946269641225754,
,,,,90,0,90,0,,,,,,,,,,,,,,,,,,,,,,,,1482.0792800917989,None,,,,,,,,,,,,,,,,,music,new_aloud,blue,90,145,196,1478.8265039295075,None,1478.8265039295075,None,4,2.281296008906793,1478.8265039295075,None,1481.1467312100285,None,1481.660669090401,None,1481.660669090401,None,f,0.3911697108705994,1481.660669090401,None,,,color1,001,2019_Nov_21_1336,ProdSingRedo,3.2.4,59.946269641225754,
,,,,91,0,91,0,,,,,,,,,,,,,,,,,,,,,,,,1485.213837115647,None,,,,,,,,,,,,,,,,,plane,silent,yellow,91,83,223,1482.610971851187,None,1482.610971851187,None,3,1.4806581431184895,1482.610971851187,None,1484.1304738742474,None,1484.6449581857305,None,1484.6449581857305,None,f,0.5344864263024647,1484.6449581857305,None,,,color1,001,2019_Nov_21_1336,ProdSingRedo,3.2.4,59.946269641225754,
,,,,92,0,92,0,,,,,,,,,,,,,,,,,,,,,,,,1488.6961824464088,None,,,,,,,,,,,,,,,,,answer,aloud,blue,92,49,8,1485.7451410551148,None,1485.7451410551148,None,5,1.7462631515227258,1485.7451410551148,None,1487.5313160685473,None,1488.0459717423364,None,1488.0459717423364,None,r,0.6056997396808583,1488.0459717423364,None,,,color1,001,2019_Nov_21_1336,ProdSingRedo,3.2.4,59.946269641225754,
,,,,93,0,93,0,,,,,,,,,,,,,,,,,,,,,,,,1495.5482877766772,None,,,,,,,,,,,,,,,,,native,new_silent,yellow,93,168,199,1489.2145325168385,None,1489.2145325168385,None,4,5.4043586976476945,1489.2145325168385,None,1494.6812869898276,None,1495.1814589741116,None,1495.1814589741116,None,f,0.325611663836753,1495.1814589741116,None,,,color1,001,2019_Nov_21_1336,ProdSingRedo,3.2.4,59.946269641225754,
,,,,94,0,94,0,,,,,,,,,,,,,,,,,,,,,,,,1499.8495725273096,None,,,,,,,,,,,,,,,,,solution,new_sing,red,94,106,294,1496.0649693196174,None,1496.0649693196174,None,3,1.7778028307366185,1496.0649693196174,None,1497.8857175290177,None,1498.3990225196758,None,1498.3990225196758,None,f,1.403556311619468,1498.3990225196758,None,,,color1,001,2019_Nov_21_1336,ProdSingRedo,3.2.4,59.946269641225754,
,,,,95,0,95,0,,,,,,,,,,,,,,,,,,,,,,,,1502.7338121732464,None,,,,,,,,,,,,,,,,,motion,sing,red,95,26,194,1500.366412059433,None,1500.366412059433,None,6,1.4360464139899705,1500.366412059433,None,1501.8508152925933,None,1502.367044638173,None,1502.367044638173,None,r,0.3237198366841767,1502.367044638173,None,,,color1,001,2019_Nov_21_1336,ProdSingRedo,3.2.4,59.946269641225754,
,,,,96,0,96,0,,,,,,,,,,,,,,,,,,,,,,,,1504.967849512177,None,,,,,,,,,,,,,,,,,weight,new_aloud,blue,96,131,353,1503.250625270186,None,1503.250625270186,None,6,0.8716751518368255,1503.250625270186,None,1504.1696943780116,None,1504.684420338308,None,1504.684420338308,None,r,0.24591856091865338,1504.684420338308,None,,,color1,001,2019_Nov_21_1336,ProdSingRedo,3.2.4,59.946269641225754,
,,,,97,0,97,0,,,,,,,,,,,,,,,,,,,,,,,,1507.3518932266743,None,,,,,,,,,,,,,,,,,citizen,new_silent,yellow,97,160,50,1505.4844735196966,None,1505.4844735196966,None,6,0.9977813093573786,1505.4844735196966,None,1506.5348540310515,None,1507.0349939821172,None,1507.0349939821172,None,r,0.2711228117113933,1507.0349939821172,None,,,color1,001,2019_Nov_21_1336,ProdSingRedo,3.2.4,59.946269641225754,
,,,,98,0,98,0,,,,,,,,,,,,,,,,,,,,,,,,1513.0703356648155,None,,,,,,,,,,,,,,,,,running,new_aloud,blue,98,141,268,1507.8687162756687,None,1507.8687162756687,None,3,1.9415511552069802,1507.8687162756687,None,1509.85460267897,None,1510.3694542841986,None,1510.3694542841986,None,f,2.6567013227031566,1510.3694542841986,None,,,color1,001,2019_Nov_21_1336,ProdSingRedo,3.2.4,59.946269641225754,
,,,,99,0,99,0,,,,,,,,,,,,,,,,,,,,,,,,1518.1218454256305,None,,,,,,,,,,,,,,,,,command,silent,yellow,99,89,60,1513.5877175850037,None,1513.5877175850037,None,4,3.6458572934789117,1513.5877175850037,None,1517.2713784556254,None,1517.7884297803394,None,1517.7884297803394,None,f,0.28510672043194063,1517.7884297803394,None,,,color1,001,2019_Nov_21_1336,ProdSingRedo,3.2.4,59.946269641225754,
,,,,100,0,100,0,,,,,,,,,,,,,,,,,,,,,,,,1520.9060505503148,None,,,,,,,,,,,,,,,,,foundation,sing,red,100,8,132,1518.638686201768,None,1518.638686201768,None,6,1.394723534496734,1518.638686201768,None,1520.0763893251424,None,1520.5892918788013,None,1520.5892918788013,None,r,0.2680681468336843,1520.5892918788013,None,,,color1,001,2019_Nov_21_1336,ProdSingRedo,3.2.4,59.946269641225754,
,,,,101,0,101,0,,,,,,,,,,,,,,,,,,,,,,,,1525.0406585785386,None,,,,,,,,,,,,,,,,,south,new_aloud,blue,101,134,296,1521.4228785753658,None,1521.4228785753658,None,2,2.698284200130729,1521.4228785753658,None,1524.159352617542,None,1524.6738814023556,None,1524.6738814023556,None,n,0.31915556648164056,1524.6738814023556,None,,,color1,001,2019_Nov_21_1336,ProdSingRedo,3.2.4,59.946269641225754,
,,,,102,0,102,0,,,,,,,,,,,,,,,,,,,,,,,,1530.6255954916996,None,,,,,,,,,,,,,,,,,society,new_sing,red,102,118,293,1525.5575298329059,None,1525.5575298329059,None,5,3.835342926729936,1525.5575298329059,None,1529.4461543007055,None,1529.9586730774608,None,1529.9586730774608,None,f,0.6262545056524687,1529.9586730774608,None,,,color1,001,2019_Nov_21_1336,ProdSingRedo,3.2.4,59.946269641225754,
,,,,103,0,103,0,,,,,,,,,,,,,,,,,,,,,,,,1534.2934739271295,None,,,,,,,,,,,,,,,,,sweet,aloud,blue,103,36,319,1531.1425077983877,None,1531.1425077983877,None,3,1.7781073020014446,1531.1425077983877,None,1532.9598032599315,None,1533.476556333393,None,1533.476556333393,None,f,0.7720598617452197,1533.476556333393,None,,,color1,001,2019_Nov_21_1336,ProdSingRedo,3.2.4,59.946269641225754,
,,,,104,0,104,0,,,,,,,,,,,,,,,,,,,,,,,,1537.1943581067317,None,,,,,,,,,,,,,,,,,material,aloud,blue,104,35,182,1534.8102425507095,None,1534.8102425507095,None,6,1.5583807352813892,1534.8102425507095,None,1536.4105977153813,None,1536.9274832758529,None,1536.9274832758529,None,r,0.23299703616066836,1536.9274832758529,None,,,color1,001,2019_Nov_21_1336,ProdSingRedo,3.2.4,59.946269641225754,
,,,,105,0,105,0,,,,,,,,,,,,,,,,,,,,,,,,1540.0119875847886,None,,,,,,,,,,,,,,,,,comedy,silent,yellow,105,85,58,1537.7111369934282,None,1537.7111369934282,None,2,1.5370195402647369,1537.7111369934282,None,1539.3014837921073,None,1539.8118498107651,None,1539.8118498107651,None,n,0.15662419408909045,1539.8118498107651,None,,,color1,001,2019_Nov_21_1336,ProdSingRedo,3.2.4,59.946269641225754,
,,,,106,0,106,0,,,,,,,,,,,,,,,,,,,,,,,,1542.5626884285302,None,,,,,,,,,,,,,,,,,spoke,new_sing,red,106,103,300,1540.5287798445497,None,1540.5287798445497,None,2,1.0953163049125578,1540.5287798445497,None,1541.6641849717416,None,1542.1792465035396,None,1542.1792465035396,None,n,0.3487219359376468,1542.1792465035396,None,,,color1,001,2019_Nov_21_1336,ProdSingRedo,3.2.4,59.946269641225754,
,,,,107,0,107,0,,,,,,,,,,,,,,,,,,,,,,,,1545.4969294740004,None,,,,,,,,,,,,,,,,,crisis,silent,yellow,107,64,79,1543.0795043244725,None,1543.0795043244725,None,6,1.552338582027005,1543.0795043244725,None,1544.6831075974624,None,1545.1968389723334,None,1545.1968389723334,None,r,0.2590434812591411,1545.1968389723334,None,,,color1,001,2019_Nov_21_1336,ProdSingRedo,3.2.4,59.946269641225754,
,,,,108,0,108,0,,,,,,,,,,,,,,,,,,,,,,,,1549.0980419293337,None,,,,,,,,,,,,,,,,,profession,new_silent,yellow,108,151,241,1546.0137547000195,None,1546.0137547000195,None,6,1.9222425755870063,1546.0137547000195,None,1547.9847073934507,None,1548.497720974934,None,1548.497720974934,None,r,0.5660634258238133,1548.497720974934,None,,,color1,001,2019_Nov_21_1336,ProdSingRedo,3.2.4,59.946269641225754,
,,,,109,0,109,0,,,,,,,,,,,,,,,,,,,,,,,,1553.56607182289,None,,,,,,,,,,,,,,,,,exchange,sing,red,109,21,121,1549.614848495199,None,1549.614848495199,None,5,2.976775590068428,1549.614848495199,None,1552.634678936738,None,1553.1491349470161,None,1553.1491349470161,None,f,0.37015372843598016,1553.1491349470161,None,,,color1,001,2019_Nov_21_1336,ProdSingRedo,3.2.4,59.946269641225754,
,,,,110,0,110,0,,,,,,,,,,,,,,,,,,,,,,,,1556.833581720537,None,,,,,,,,,,,,,,,,,shock,new_sing,red,110,113,284,1554.0828236523375,None,1554.0828236523375,None,2,2.0123937538301107,1554.0828236523375,None,1556.1377441757068,None,1556.6501876898983,None,1556.6501876898983,None,n,0.14900152702466585,1556.6501876898983,None,,,color1,001,2019_Nov_21_1336,ProdSingRedo,3.2.4,59.946269641225754,
,,,,111,0,111,0,,,,,,,,,,,,,,,,,,,,,,,,1561.8852360974124,None,,,,,,,,,,,,,,,,,production,new_aloud,blue,111,142,240,1557.3503929514554,None,1557.3503929514554,None,5,3.9204403170733713,1557.3503929514554,None,1561.32183298553,None,1561.8352266118454,None,1561.8352266118454,None,f,0.011579238722333685,1561.8352266118454,None,,,color1,001,2019_Nov_21_1336,ProdSingRedo,3.2.4,59.946269641225754,
,,,,112,0,112,0,,,,,,,,,,,,,,,,,,,,,,,,1565.319666543306,None,,,,,,,,,,,,,,,,,strength,new_aloud,blue,112,130,310,1562.4021244569158,None,1562.4021244569158,None,6,1.3088268681021873,1562.4021244569158,None,1563.7552389897464,None,1564.269333615317,None,1564.269333615317,None,r,1.0172656053036917,1564.269333615317,None,,,color1,001,2019_Nov_21_1336,ProdSingRedo,3.2.4,59.946269641225754,
,,,,113,0,113,0,,,,,,,,,,,,,,,,,,,,,,,,1567.5536911311501,None,,,,,,,,,,,,,,,,,scene,sing,red,113,18,273,1565.8363163640024,None,1565.8363163640024,None,6,0.8423613162885886,1565.8363163640024,None,1566.722333077283,None,1567.2369253065553,None,1567.2369253065553,None,r,0.2738412830804009,1567.2369253065553,None,,,color1,001,2019_Nov_21_1336,ProdSingRedo,3.2.4,59.946269641225754,
,,,,114,0,114,0,,,,,,,,,,,,,,,,,,,,,,,,1570.9880973188556,None,,,,,,,,,,,,,,,,,close,new_aloud,blue,114,146,53,1568.0705107591348,None,1568.0705107591348,None,5,2.311808447469957,1568.0705107591348,None,1570.4233851981407,None,1570.9380735271552,None,1570.9380735271552,None,f,0.012228922598296776,1570.9380735271552,None,,,color1,001,2019_Nov_21_1336,ProdSingRedo,3.2.4,59.946269641225754,
,,,,115,0,115,0,,,,,,,,,,,,,,,,,,,,,,,,1575.2560556818498,None,,,,,,,,,,,,,,,,,problem,sing,red,115,24,238,1571.505077113019,None,1571.505077113019,None,6,2.8610379391757306,1571.505077113019,None,1574.422314417141,None,1574.9392581350403,None,1574.9392581350403,None,r,0.2828954938740935,1574.9392581350403,None,,,color1,001,2019_Nov_21_1336,ProdSingRedo,3.2.4,59.946269641225754,
,,,,116,0,116,0,,,,,,,,,,,,,,,,,,,,,,,,1580.1241922492045,None,,,,,,,,,,,,,,,,,universal,new_aloud,blue,116,126,345,1575.7752373725234,None,1575.7752373725234,None,5,3.382489635841921,1575.7752373725234,None,1579.1941948305175,None,1579.7074114965217,None,1579.7074114965217,None,f,0.37025418219855055,1579.7074114965217,None,,,color1,001,2019_Nov_21_1336,ProdSingRedo,3.2.4,59.946269641225754,
,,,,117,0,117,0,,,,,,,,,,,,,,,,,,,,,,,,1587.2763924351893,None,,,,,,,,,,,,,,,,,background,silent,yellow,117,82,16,1580.6443679033255,None,1580.6443679033255,None,6,5.960993154847529,1580.6443679033255,None,1586.6593762537232,None,1587.1595737402095,None,1587.1595737402095,None,r,0.07775307036354207,1587.1595737402095,None,,,color1,001,2019_Nov_21_1336,ProdSingRedo,3.2.4,59.946269641225754,
,,,,118,0,118,0,,,,,,,,,,,,,,,,,,,,,,,,1593.1781838086026,None,,,,,,,,,,,,,,,,,enemy,sing,red,118,10,113,1587.7930979253142,None,1587.7930979253142,None,5,4.779913603560999,1587.7930979253142,None,1592.6168756083935,None,1593.1281771220383,None,1593.1281771220383,None,f,0.004691470152465627,1593.1281771220383,None,,,color1,001,2019_Nov_21_1336,ProdSingRedo,3.2.4,59.946269641225754,
,,,,119,0,119,0,,,,,,,,,,,,,,,,,,,,,,,,1596.3458548054623,None,,,,,,,,,,,,,,,,,history,new_sing,red,119,104,153,1593.695051641931,None,1593.695051641931,None,5,1.8777400082617532,1593.695051641931,None,1595.6188750423607,None,1596.1289381447423,None,1596.1289381447423,None,f,0.1721326362749096,1596.1289381447423,None,,,color1,001,2019_Nov_21_1336,ProdSingRedo,3.2.4,59.946269641225754,
,,,,120,0,120,0,,,,,,,,,,,,,,,,,,,,,,,,1598.9300011507003,None,,,,,,,,,,,,,,,,,worker,aloud,blue,120,39,356,1596.8638742804178,None,1596.8638742804178,None,6,1.212733990396373,1596.8638742804178,None,1598.1166016153293,None,1598.62975265985,None,1598.62975265985,None,r,0.26284237470827065,1598.62975265985,None,,,color1,001,2019_Nov_21_1336,ProdSingRedo,3.2.4,59.946269641225754,
,,,,121,0,121,0,,,,,,,,,,,,,,,,,,,,,,,,1601.0806354399538,None,,,,,,,,,,,,,,,,,victory,sing,red,121,11,346,1599.4480063195515,None,1599.4480063195515,None,6,0.8048423062718939,1599.4480063195515,None,1600.3023172783433,None,1600.813749412977,None,1600.813749412977,None,r,0.23074289126088843,1600.813749412977,None,,,color1,001,2019_Nov_21_1336,ProdSingRedo,3.2.4,59.946269641225754,
,,,,122,0,122,0,,,,,,,,,,,,,,,,,,,,,,,,1604.464996065828,None,,,,,,,,,,,,,,,,,carry,aloud,blue,122,48,43,1601.5973070308391,None,1601.5973070308391,None,6,2.0470048920542467,1601.5973070308391,None,1603.6865665653895,None,1604.1981112828653,None,1604.1981112828653,None,r,0.23014887681347318,1604.1981112828653,None,,,color1,001,2019_Nov_21_1336,ProdSingRedo,3.2.4,59.946269641225754,
,,,,123,0,123,0,,,,,,,,,,,,,,,,,,,,,,,,1610.166758205014,None,,,,,,,,,,,,,,,,,display,new_sing,red,123,115,98,1604.9817373212136,None,1604.9817373212136,None,4,4.3424667460494675,1604.9817373212136,None,1609.3686344820599,None,1609.8999412205594,None,1609.8999412205594,None,f,0.22418665114673786,1609.8999412205594,None,,,color1,001,2019_Nov_21_1336,ProdSingRedo,3.2.4,59.946269641225754,
,,,,124,0,124,0,,,,,,,,,,,,,,,,,,,,,,,,1614.5514463163272,None,,,,,,,,,,,,,,,,,country,new_aloud,blue,124,129,73,1610.683491996344,None,1610.683491996344,None,5,3.0482227772008628,1610.683491996344,None,1613.7723839261453,None,1614.2845263901108,None,1614.2845263901108,None,f,0.22345672867959365,1614.2845263901108,None,,,color1,001,2019_Nov_21_1336,ProdSingRedo,3.2.4,59.946269641225754,
,,,,125,0,125,0,,,,,,,,,,,,,,,,,,,,,,,,1617.2689361543162,None,,,,,,,,,,,,,,,,,interior,silent,yellow,125,63,164,1615.0681185292196,None,1615.0681185292196,None,6,1.3114004123781342,1615.0681185292196,None,1616.4230620667222,None,1616.9355438342318,None,1616.9355438342318,None,r,0.2838312999228947,1616.9355438342318,None,,,color1,001,2019_Nov_21_1336,ProdSingRedo,3.2.4,59.946269641225754,
,,,,126,0,126,0,,,,,,,,,,,,,,,,,,,,,,,,1622.9040022889676,None,,,,,,,,,,,,,,,,,title,new_sing,red,126,105,331,1617.7856248503376,None,1617.7856248503376,None,3,4.417683592444519,1617.7856248503376,None,1622.236937435664,None,1622.7539225168875,None,1622.7539225168875,None,f,0.10553677447023802,1622.7539225168875,None,,,color1,001,2019_Nov_21_1336,ProdSingRedo,3.2.4,59.946269641225754,
,,,,127,0,127,0,,,,,,,,,,,,,,,,,,,,,,,,1625.9382570185408,None,,,,,,,,,,,,,,,,,research,silent,yellow,127,74,261,1623.4208163189178,None,1623.4208163189178,None,6,0.9261689799895976,1623.4208163189178,None,1624.3903825639572,None,1624.9044734575145,None,1624.9044734575145,None,r,0.9944694455771241,1624.9044734575145,None,,,color1,001,2019_Nov_21_1336,ProdSingRedo,3.2.4,59.946269641225754,
,,,,128,0,128,0,,,,,,,,,,,,,,,,,,,,,,,,1629.6393769379356,None,,,,,,,,,,,,,,,,,machinery,new_aloud,blue,128,121,175,1626.4549320304359,None,1626.4549320304359,None,6,1.5000189711572602,1626.4549320304359,None,1627.9929097688873,None,1628.5055563676287,None,1628.5055563676287,None,r,1.0971589937107638,1628.5055563676287,None,,,color1,001,2019_Nov_21_1336,ProdSingRedo,3.2.4,59.946269641225754,
,,,,129,0,129,0,,,,,,,,,,,,,,,,,,,,,,,,1632.240179634944,None,,,,,,,,,,,,,,,,,primary,new_sing,red,129,93,234,1630.1560469738033,None,1630.1560469738033,None,6,1.2625204872747418,1630.1560469738033,None,1631.4731182026444,None,1631.9734232959454,None,1631.9734232959454,None,r,0.22908773686503991,1631.9734232959454,None,,,color1,001,2019_Nov_21_1336,ProdSingRedo,3.2.4,59.946269641225754,
,,,,130,0,130,0,,,,,,,,,,,,,,,,,,,,,,,,1636.6080826395482,None,,,,,,,,,,,,,,,,,quiet,aloud,blue,130,56,249,1632.7568406517385,None,1632.7568406517385,None,6,2.9257133615901694,1632.7568406517385,None,1635.7293384047516,None,1636.2412756071426,None,1636.2412756071426,None,r,0.329197209677659,1636.2412756071426,None,,,color1,001,2019_Nov_21_1336,ProdSingRedo,3.2.4,59.946269641225754,
,,,,131,0,131,0,,,,,,,,,,,,,,,,,,,,,,,,1638.908769643691,None,,,,,,,,,,,,,,,,,personnel,new_silent,yellow,131,169,219,1637.1249921471754,None,1637.1249921471754,None,6,0.933310837514,1637.1249921471754,None,1638.0958580709703,None,1638.6086872280575,None,1638.6086872280575,None,r,0.2576728939602617,1638.6086872280575,None,,,color1,001,2019_Nov_21_1336,ProdSingRedo,3.2.4,59.946269641225754,
,,,,132,0,132,0,,,,,,,,,,,,,,,,,,,,,,,,1642.1598492882622,None,,,,,,,,,,,,,,,,,message,sing,red,132,3,189,1639.4257323327183,None,1639.4257323327183,None,6,1.888296982360771,1639.4257323327183,None,1641.3616804699705,None,1641.876457123668,None,1641.876457123668,None,r,0.2374536995193921,1641.876457123668,None,,,color1,001,2019_Nov_21_1336,ProdSingRedo,3.2.4,59.946269641225754,
,,,,133,0,133,0,,,,,,,,,,,,,,,,,,,,,,,,1644.3938869381964,None,,,,,,,,,,,,,,,,,division,aloud,blue,133,34,101,1642.6777707975125,None,1642.6777707975125,None,6,0.8840903648524545,1642.6777707975125,None,1643.626895792433,None,1644.1270761738124,None,1644.1270761738124,None,r,0.2187587275111582,1644.1270761738124,None,,,color1,001,2019_Nov_21_1336,ProdSingRedo,3.2.4,59.946269641225754,
,,,,134,0,134,0,,,,,,,,,,,,,,,,,,,,,,,,1648.5785330642248,None,,,,,,,,,,,,,,,,,prime,new_silent,yellow,134,177,235,1644.9105750122108,None,1644.9105750122108,None,6,2.7310604246449657,1644.9105750122108,None,1647.6808938829054,None,1648.1950752781122,None,1648.1950752781122,None,r,0.33441365175531246,1648.1950752781122,None,,,color1,001,2019_Nov_21_1336,ProdSingRedo,3.2.4,59.946269641225754,
,,,,135,0,135,0,,,,,,,,,,,,,,,,,,,,,,,,1654.446910347353,None,,,,,,,,,,,,,,,,,state,new_silent,yellow,135,152,303,1649.0953502041812,None,1649.0953502041812,None,2,2.0422294512973167,1649.0953502041812,None,1651.1803231936065,None,1651.6961404610774,None,1651.6961404610774,None,f,2.728828671941301,1651.6961404610774,None,,,color1,001,2019_Nov_21_1336,ProdSingRedo,3.2.4,59.946269641225754,
,,,,136,0,136,0,,,,,,,,,,,,,,,,,,,,,,,,1661.9992986897414,None,,,,,,,,,,,,,,,,,junior,new_sing,red,136,92,167,1654.963628277561,None,1654.963628277561,None,3,3.7493467396125197,1654.963628277561,None,1658.764964654576,None,1659.2816085662344,None,1659.2816085662344,None,f,2.6791308106912766,1659.2816085662344,None,,,color1,001,2019_Nov_21_1336,ProdSingRedo,3.2.4,59.946269641225754,
,,,,137,0,137,0,,,,,,,,,,,,,,,,,,,,,,,,1668.3512071555306,None,,,,,,,,,,,,,,,,,surface,silent,yellow,137,77,316,1662.499331967003,None,1662.499331967003,None,3,4.189105899393326,1662.499331967003,None,1666.7377205395314,None,1667.2509017512493,None,1667.2509017512493,None,f,1.053376085794298,1667.2509017512493,None,,,color1,001,2019_Nov_21_1336,ProdSingRedo,3.2.4,59.946269641225754,
,,,,138,0,138,0,,,,,,,,,,,,,,,,,,,,,,,,1672.1857246820873,None,,,,,,,,,,,,,,,,,harmony,new_silent,yellow,138,178,148,1668.8681427873962,None,1668.8681427873962,None,2,2.3242575596668757,1668.8681427873962,None,1671.2520011444867,None,1671.7521628656832,None,1671.7521628656832,None,n,0.39209276577457786,1671.7521628656832,None,,,color1,001,2019_Nov_21_1336,ProdSingRedo,3.2.4,59.946269641225754,
,,,,139,0,139,0,,,,,,,,,,,,,,,,,,,,,,,,1676.8371856155281,None,,,,,,,,,,,,,,,,,under,new_aloud,blue,139,144,343,1672.7025946924405,None,1672.7025946924405,None,2,3.3934879222360905,1672.7025946924405,None,1676.1378906577884,None,1676.6537673267012,None,1676.6537673267012,None,n,0.13804149394854903,1676.6537673267012,None,,,color1,001,2019_Nov_21_1336,ProdSingRedo,3.2.4,59.946269641225754,
,,,,140,0,140,0,,,,,,,,,,,,,,,,,,,,,,,,1680.7550471012946,None,,,,,,,,,,,,,,,,,watch,new_sing,red,140,94,351,1677.353979430307,None,1677.353979430307,None,6,1.8297228036099114,1677.353979430307,None,1679.2237723960425,None,1679.7380797472142,None,1679.7380797472142,None,r,0.9737846806528978,1679.7380797472142,None,,,color1,001,2019_Nov_21_1336,ProdSingRedo,3.2.4,59.946269641225754,
,,,,141,0,141,0,,,,,,,,,,,,,,,,,,,,,,,,1685.5398537045112,None,,,,,,,,,,,,,,,,,review,aloud,blue,141,58,263,1681.2717130941164,None,1681.2717130941164,None,3,3.423979212617269,1681.2717130941164,None,1684.7561604896327,None,1685.2562699624687,None,1685.2562699624687,None,f,0.2469946289784275,1685.2562699624687,None,,,color1,001,2019_Nov_21_1336,ProdSingRedo,3.2.4,59.946269641225754,
,,,,142,0,142,0,,,,,,,,,,,,,,,,,,,,,,,,1689.1909902625193,None,,,,,,,,,,,,,,,,,election,aloud,blue,142,43,109,1686.0566447202582,None,1686.0566447202582,None,6,1.054730811942136,1686.0566447202582,None,1687.1569031632098,None,1687.6738235559314,None,1687.6738235559314,None,r,1.4772607536870055,1687.6738235559314,None,,,color1,001,2019_Nov_21_1336,ProdSingRedo,3.2.4,59.946269641225754,
,,,,143,0,143,0,,,,,,,,,,,,,,,,,,,,,,,,1694.8426785386691,None,,,,,,,,,,,,,,,,,executive,new_aloud,blue,143,125,122,1689.7098755679617,None,1689.7098755679617,None,6,4.273188489169115,1689.7098755679617,None,1694.027531792206,None,1694.5425955010287,None,1694.5425955010287,None,r,0.26414049841696396,1694.5425955010287,None,,,color1,001,2019_Nov_21_1336,ProdSingRedo,3.2.4,59.946269641225754,
,,,,144,0,144,0,,,,,,,,,,,,,,,,,,,,,,,,1699.310738288419,None,,,,,,,,,,,,,,,,,conference,aloud,blue,144,33,66,1695.359467688424,None,1695.359467688424,None,6,1.2234016812872142,1695.359467688424,None,1696.6310759747576,None,1697.1432965002896,None,1697.1432965002896,None,r,2.1271119390730746,1697.1432965002896,None,,,color1,001,2019_Nov_21_1336,ProdSingRedo,3.2.4,59.946269641225754,
,,,,145,0,145,0,,,,,,,,,,,,,,,,,,,,,,,,1702.9118442127074,None,,,,,,,,,,,,,,,,,break,silent,yellow,145,68,26,1699.8276070547872,None,1699.8276070547872,None,5,1.9070289636438247,1699.8276070547872,None,1701.7947064293548,None,1702.2948317632836,None,1702.2948317632836,None,f,0.5755850731220562,1702.2948317632836,None,,,color1,001,2019_Nov_21_1336,ProdSingRedo,3.2.4,59.946269641225754,
,,,,146,0,146,0,,,,,,,,,,,,,,,,,,,,,,,,1707.3798896563821,None,,,,,,,,,,,,,,,,,object,silent,yellow,146,80,204,1703.4296400769963,None,1703.4296400769963,None,6,2.4804631446604617,1703.4296400769963,None,1705.9626433331869,None,1706.4627795522101,None,1706.4627795522101,None,r,0.8792225563665852,1706.4627795522101,None,,,color1,001,2019_Nov_21_1336,ProdSingRedo,3.2.4,59.946269641225754,
,,,,147,0,147,0,,,,,,,,,,,,,,,,,,,,,,,,1709.6472443638486,None,,,,,,,,,,,,,,,,,burden,aloud,blue,147,53,36,1707.896823111194,None,1707.896823111194,None,6,0.9170276885561179,1707.896823111194,None,1708.8532352017355,None,1709.3638298070873,None,1709.3638298070873,None,r,0.2421535667090211,1709.3638298070873,None,,,color1,001,2019_Nov_21_1336,ProdSingRedo,3.2.4,59.946269641225754,
,,,,148,0,148,0,,,,,,,,,,,,,,,,,,,,,,,,1712.7982282197336,None,,,,,,,,,,,,,,,,,stand,silent,yellow,148,60,302,1710.1640683458827,None,1710.1640683458827,None,5,1.3776544826396275,1710.1640683458827,None,1711.583824768837,None,1712.0979912359617,None,1712.0979912359617,None,f,0.6595917783561163,1712.0979912359617,None,,,color1,001,2019_Nov_21_1336,ProdSingRedo,3.2.4,59.946269641225754,
,,,,149,0,149,0,,,,,,,,,,,,,,,,,,,,,,,,1715.3656448166876,None,,,,,,,,,,,,,,,,,space,aloud,blue,149,44,297,1713.3150422496547,None,1713.3150422496547,None,6,1.1864191502972972,1713.3150422496547,None,1714.550077284075,None,1715.0655879032565,None,1715.0655879032565,None,r,0.25984275722294115,1715.0655879032565,None,,,color1,001,2019_Nov_21_1336,ProdSingRedo,3.2.4,59.946269641225754,
,,,,150,0,150,0,,,,,,,,,,,,,,,,,,,,,,,,1719.1001405730494,None,,,,,,,,,,,,,,,,,health,new_sing,red,150,119,149,1715.8823356897046,None,1715.8823356897046,None,3,1.386959672352532,1715.8823356897046,None,1717.319164585555,None,1717.8330906478513,None,1717.8330906478513,None,f,1.2281765000370797,1717.8330906478513,None,,,color1,001,2019_Nov_21_1336,ProdSingRedo,3.2.4,59.946269641225754,
,,,,151,0,151,0,,,,,,,,,,,,,,,,,,,,,,,,1722.2010956612066,None,,,,,,,,,,,,,,,,,people,new_silent,yellow,151,154,216,1719.6169608230412,None,1719.6169608230412,None,3,1.916197934304364,1719.6169608230412,None,1721.5695015565725,None,1722.084396080114,None,1722.084396080114,None,f,0.08062424388481304,1722.084396080114,None,,,color1,001,2019_Nov_21_1336,ProdSingRedo,3.2.4,59.946269641225754,
,,,,152,0,152,0,,,,,,,,,,,,,,,,,,,,,,,,1727.2193120006414,None,,,,,,,,,,,,,,,,,figure,new_aloud,blue,152,133,128,1722.7178720598458,None,1722.7178720598458,None,6,2.286956873314921,1722.7178720598458,None,1725.0550203550956,None,1725.5687983802927,None,1725.5687983802927,None,r,1.6038853520876728,1725.5687983802927,None,,,color1,001,2019_Nov_21_1336,ProdSingRedo,3.2.4,59.946269641225754,
,,,,153,0,153,0,,,,,,,,,,,,,,,,,,,,,,,,1729.870119518193,None,,,,,,,,,,,,,,,,,travel,sing,red,153,16,338,1727.7360171797627,None,1727.7360171797627,None,6,0.9646632933290675,1727.7360171797627,None,1728.7529960409447,None,1729.2532762540504,None,1729.2532762540504,None,r,0.5834888863319065,1729.2532762540504,None,,,color1,001,2019_Nov_21_1336,ProdSingRedo,3.2.4,59.946269641225754,
,,,,154,0,154,0,,,,,,,,,,,,,,,,,,,,,,,,1732.8376928603102,None,,,,,,,,,,,,,,,,,curve,silent,yellow,154,69,82,1730.3875717249175,None,1730.3875717249175,None,6,1.4490348042745609,1730.3875717249175,None,1731.8750336660014,None,1732.3873683293932,None,1732.3873683293932,None,r,0.4170758938998915,1732.3873683293932,None,,,color1,001,2019_Nov_21_1336,ProdSingRedo,3.2.4,59.946269641225754,
,,,,155,0,155,0,,,,,,,,,,,,,,,,,,,,,,,,1735.8384523279965,None,,,,,,,,,,,,,,,,,scale,new_sing,red,155,114,272,1733.3544950721553,None,1733.3544950721553,None,3,1.4097443249775097,1733.3544950721553,None,1734.8074376207078,None,1735.3217857131676,None,1735.3217857131676,None,f,0.4825742284883745,1735.3217857131676,None,,,color1,001,2019_Nov_21_1336,ProdSingRedo,3.2.4,59.946269641225754,
,,,,156,0,156,0,,,,,,,,,,,,,,,,,,,,,,,,1739.5063858108188,None,,,,,,,,,,,,,,,,,sound,new_silent,yellow,156,164,295,1736.3554056869762,None,1736.3554056869762,None,2,1.6168426421645563,1736.3554056869762,None,1738.0093425099622,None,1738.5227709685569,None,1738.5227709685569,None,n,0.9451746433624066,1738.5227709685569,None,,,color1,001,2019_Nov_21_1336,ProdSingRedo,3.2.4,59.946269641225754,
,,,,157,0,157,0,,,,,,,,,,,,,,,,,,,,,,,,1744.8747245296836,None,,,,,,,,,,,,,,,,,frank,new_sing,red,157,102,133,1740.0231547454314,None,1740.0231547454314,None,1,2.5486560034332797,1740.0231547454314,None,1742.6126322926139,None,1743.124048877129,None,1743.124048877129,None,n,1.703560665686382,1743.124048877129,None,,,color1,001,2019_Nov_21_1336,ProdSingRedo,3.2.4,59.946269641225754,
,,,,158,0,158,0,,,,,,,,,,,,,,,,,,,,,,,,1750.2763252586883,None,,,,,,,,,,,,,,,,,design,aloud,blue,158,46,91,1745.3915289185534,None,1745.3915289185534,None,3,3.6921195119793992,1745.3915289185534,None,1749.1268261279329,None,1749.6428471019317,None,1749.6428471019317,None,f,0.6004400683159474,1749.6428471019317,None,,,color1,001,2019_Nov_21_1336,ProdSingRedo,3.2.4,59.946269641225754,
,,,,159,0,159,0,,,,,,,,,,,,,,,,,,,,,,,,1754.0608631558716,None,,,,,,,,,,,,,,,,,quarter,new_sing,red,159,107,246,1750.7931846949505,None,1750.7931846949505,None,6,1.9219732475758065,1750.7931846949505,None,1752.7613057121634,None,1753.2772921649157,None,1753.2772921649157,None,r,0.7499416870705318,1753.2772921649157,None,,,color1,001,2019_Nov_21_1336,ProdSingRedo,3.2.4,59.946269641225754,
,,,,160,0,160,0,,,,,,,,,,,,,,,,,,,,,,,,1757.0784382084967,None,,,,,,,,,,,,,,,,,series,new_sing,red,160,100,279,1754.5775344357244,None,1754.5775344357244,None,6,1.5934275877662003,1754.5775344357244,None,1756.2135046541516,None,1756.7283152070886,None,1756.7283152070886,None,r,0.3145393588929437,1756.7283152070886,None,,,color1,001,2019_Nov_21_1336,ProdSingRedo,3.2.4,59.946269641225754,
,,,,161,0,161,0,,,,,,,,,,,,,,,,,,,,,,,,1759.1790956674377,None,,,,,,,,,,,,,,,,,height,sing,red,161,22,152,1757.5952792956377,None,1757.5952792956377,None,6,0.7115717746783048,1757.5952792956377,None,1758.347426300228,None,1758.862309316697,None,1758.862309316697,None,r,0.27650346301379614,1758.862309316697,None,,,color1,001,2019_Nov_21_1336,ProdSingRedo,3.2.4,59.946269641225754,
,,,,162,0,162,0,,,,,,,,,,,,,,,,,,,,,,,,1763.2470210641914,None,,,,,,,,,,,,,,,,,dream,new_sing,red,162,109,104,1759.6959159174003,None,1759.6959159174003,None,4,2.0507586901949253,1759.6959159174003,None,1761.7816959579068,None,1762.2967030642903,None,1762.2967030642903,None,f,0.9061771282867994,1762.2967030642903,None,,,color1,001,2019_Nov_21_1336,ProdSingRedo,3.2.4,59.946269641225754,
,,,,163,0,163,0,,,,,,,,,,,,,,,,,,,,,,,,1766.931460062624,None,,,,,,,,,,,,,,,,,tragedy,new_sing,red,163,99,335,1763.7637498794938,None,1763.7637498794938,None,6,1.82302661248832,1763.7637498794938,None,1765.6477416565758,None,1766.1479067988112,None,1766.1479067988112,None,r,0.7504467548569664,1766.1479067988112,None,,,color1,001,2019_Nov_21_1336,ProdSingRedo,3.2.4,59.946269641225754,
,,,,164,0,164,0,,,,,,,,,,,,,,,,,,,,,,,,1771.7162442736735,None,,,,,,,,,,,,,,,,,instrument,new_silent,yellow,164,179,163,1767.4482544994098,None,1767.4482544994098,None,2,3.009806525456952,1767.4482544994098,None,1770.5020096970547,None,1771.0160819304583,None,1771.0160819304583,None,n,0.6660665358358528,1771.0160819304583,None,,,color1,001,2019_Nov_21_1336,ProdSingRedo,3.2.4,59.946269641225754,
,,,,165,0,165,0,,,,,,,,,,,,,,,,,,,,,,,,1774.7507341209857,None,,,,,,,,,,,,,,,,,relation,aloud,blue,165,51,257,1772.233106819971,None,1772.233106819971,None,6,1.8967605997459032,1772.233106819971,None,1774.1701857617008,None,1774.6837383102102,None,1774.6837383102102,None,r,0.030054332106374204,1774.6837383102102,None,,,color1,001,2019_Nov_21_1336,ProdSingRedo,3.2.4,59.946269641225754,
,,,,166,0,166,0,,,,,,,,,,,,,,,,,,,,,,,,1780.9691202677204,None,,,,,,,,,,,,,,,,,thing,new_silent,yellow,166,159,328,1775.2673382243665,None,1775.2673382243665,None,3,1.3906123946944717,1775.2673382243665,None,1776.7032449982944,None,1777.2179750016367,None,1777.2179750016367,None,f,3.7114958901074715,1777.2179750016367,None,,,color1,001,2019_Nov_21_1336,ProdSingRedo,3.2.4,59.946269641225754,
,,,,167,0,167,0,,,,,,,,,,,,,,,,,,,,,,,,1783.569907725614,None,,,,,,,,,,,,,,,,,colonel,sing,red,167,27,55,1781.4857819064928,None,1781.4857819064928,None,6,1.2275927486771252,1781.4857819064928,None,1782.7528476928128,None,1783.2698116258834,None,1783.2698116258834,None,r,0.2594732864527032,1783.2698116258834,None,,,color1,001,2019_Nov_21_1336,ProdSingRedo,3.2.4,59.946269641225754,
,,,,168,0,168,0,,,,,,,,,,,,,,,,,,,,,,,,1786.7375342491432,None,,,,,,,,,,,,,,,,,device,silent,yellow,168,79,93,1784.093164168793,None,1784.093164168793,None,6,1.8362143552221823,1784.093164168793,None,1785.9872933778388,None,1786.4874666061369,None,1786.4874666061369,None,r,0.20165359938982874,1786.4874666061369,None,,,color1,001,2019_Nov_21_1336,ProdSingRedo,3.2.4,59.946269641225754,
,,,,169,0,169,0,,,,,,,,,,,,,,,,,,,,,,,,1789.3883467427222,None,,,,,,,,,,,,,,,,,guest,silent,yellow,169,70,146,1787.2542481363053,None,1787.2542481363053,None,2,1.3787712919875048,1787.2542481363053,None,1788.6713377143315,None,1789.1882764561742,None,1789.1882764561742,None,n,0.16469003952806816,1789.1882764561742,None,,,color1,001,2019_Nov_21_1336,ProdSingRedo,3.2.4,59.946269641225754,
,,,,170,0,170,0,,,,,,,,,,,,,,,,,,,,,,,,1792.105867058941,None,,,,,,,,,,,,,,,,,orchestra,silent,yellow,170,65,206,1789.9051626386645,None,1789.9051626386645,None,6,1.3838322329102084,1789.9051626386645,None,1791.3271511253552,None,1791.8389878740127,None,1791.8389878740127,None,r,0.21774206089321524,1791.8389878740127,None,,,color1,001,2019_Nov_21_1336,ProdSingRedo,3.2.4,59.946269641225754,
,,,,171,0,171,0,,,,,,,,,,,,,,,,,,,,,,,,1797.1240790443553,None,,,,,,,,,,,,,,,,,group,new_silent,yellow,171,171,143,1792.6225311857706,None,1792.6225311857706,None,4,3.034156763838837,1792.6225311857706,None,1795.6901157239627,None,1796.2071157332975,None,1796.2071157332975,None,f,0.8813750034896657,1796.2071157332975,None,,,color1,001,2019_Nov_21_1336,ProdSingRedo,3.2.4,59.946269641225754,
,,,,172,0,172,0,,,,,,,,,,,,,,,,,,,,,,,,1802.0922389368643,None,,,,,,,,,,,,,,,,,husband,new_sing,red,172,108,156,1797.6419240469986,None,1797.6419240469986,None,6,3.4542664854379836,1797.6419240469986,None,1801.1444260607532,None,1801.6587862822926,None,1801.6587862822926,None,r,0.39740188655559905,1801.6587862822926,None,,,color1,001,2019_Nov_21_1336,ProdSingRedo,3.2.4,59.946269641225754,
,,,,173,0,173,0,,,,,,,,,,,,,,,,,,,,,,,,1804.2595793382498,None,,,,,,,,,,,,,,,,,route,silent,yellow,173,81,267,1802.6089276328566,None,1802.6089276328566,None,6,0.919109849142842,1802.6089276328566,None,1803.575917845621,None,1804.0928671615839,None,1804.0928671615839,None,r,0.1234645037620794,1804.0928671615839,None,,,color1,001,2019_Nov_21_1336,ProdSingRedo,3.2.4,59.946269641225754,
,,,,174,0,174,0,,,,,,,,,,,,,,,,,,,,,,,,1806.376903722994,None,,,,,,,,,,,,,,,,,throw,sing,red,174,13,330,1804.7762484411069,None,1804.7762484411069,None,6,0.8797298011777457,1804.7762484411069,None,1805.6962378048047,None,1806.2101579580922,None,1806.2101579580922,None,r,0.11772215674864128,1806.2101579580922,None,,,color1,001,2019_Nov_21_1336,ProdSingRedo,3.2.4,59.946269641225754,
,,,,175,0,175,0,,,,,,,,,,,,,,,,,,,,,,,,1808.2941379170807,None,,,,,,,,,,,,,,,,,signal,sing,red,175,7,287,1806.893699403794,None,1806.893699403794,None,6,0.7224789373576641,1806.893699403794,None,1807.6631228987826,None,1808.1774504650966,None,1808.1774504650966,None,r,0.07027906240546145,1808.1774504650966,None,,,color1,001,2019_Nov_21_1336,ProdSingRedo,3.2.4,59.946269641225754,
,,,,176,0,176,0,,,,,,,,,,,,,,,,,,,,,,,,1812.3620533617795,None,,,,,,,,,,,,,,,,,still,new_sing,red,176,91,304,1808.810988023295,None,1808.810988023295,None,6,2.660605645942269,1808.810988023295,None,1811.5142286675691,None,1812.0286283864116,None,1812.0286283864116,None,r,0.2989768023544457,1812.0286283864116,None,,,color1,001,2019_Nov_21_1336,ProdSingRedo,3.2.4,59.946269641225754,
,,,,177,0,177,0,,,,,,,,,,,,,,,,,,,,,,,,1815.0295585943968,None,,,,,,,,,,,,,,,,,narrow,new_silent,yellow,177,163,197,1812.878909999039,None,1812.878909999039,None,2,1.4805281441367697,1812.878909999039,None,1814.3985121648584,None,1814.9128543482802,None,1814.9128543482802,None,n,0.07857007347047329,1814.9128543482802,None,,,color1,001,2019_Nov_21_1336,ProdSingRedo,3.2.4,59.946269641225754,
,,,,178,0,178,0,,,,,,,,,,,,,,,,,,,,,,,,1818.197191026964,None,,,,,,,,,,,,,,,,,point,sing,red,178,15,226,1815.5462376493088,None,1815.5462376493088,None,3,1.6369545407942496,1815.5462376493088,None,1817.2325809150352,None,1817.7470251072082,None,1817.7470251072082,None,f,0.4041027427301742,1817.7470251072082,None,,,color1,001,2019_Nov_21_1336,ProdSingRedo,3.2.4,59.946269641225754,
,,,,179,0,179,0,,,,,,,,,,,,,,,,,,,,,,,,1820.7479848604125,None,,,,,,,,,,,,,,,,,trail,sing,red,179,23,336,1818.713854842761,None,1818.713854842761,None,6,1.1812384734803345,1818.713854842761,None,1819.9330309354118,None,1820.4478868946608,None,1820.4478868946608,None,r,0.2554579353891313,1820.4478868946608,None,,,color1,001,2019_Nov_21_1336,ProdSingRedo,3.2.4,59.946269641225754,
,,,,,,,,,,,,,,,,,,,,,,,,,,,,,,,,,,,,,,,,,,,,,,,,,,,,,,,,,,,,,,,,,,,,,,,,,1821.2481366295542,None,,,,,,,
