StudyLoop.thisRepN,StudyLoop.thisTrialN,StudyLoop.thisN,StudyLoop.thisIndex,TestLoop.thisRepN,TestLoop.thisTrialN,TestLoop.thisN,TestLoop.thisIndex,textCondition.started,textCondition.stopped,keyCondition.keys,keyCondition.rt,keyCondition.started,keyCondition.stopped,Condition,stim_colors,color_sing,color_aloud,color_silent,textWelcome.started,textWelcome.stopped,keyWelcome.keys,keyWelcome.rt,keyWelcome.started,keyWelcome.stopped,textAloud.started,textAloud.stopped,textSilent.started,textSilent.stopped,textSing.started,textSing.stopped,textBlank500.started,textBlank500.stopped,study_word,study_type,study_color,study_num,study_word_num,textStudy.started,textStudy.stopped,keyStudy.keys,keyStudy.started,keyStudy.stopped,textTestInstructions.started,textTestInstructions.stopped,key_resp_3.keys,key_resp_3.rt,key_resp_3.started,key_resp_3.stopped,testWord,testType,testColor,testN,test_num,test_word_num,textConf.started,textConf.stopped,textConfScale.started,textConfScale.stopped,keyConf.keys,keyConf.rt,keyConf.started,keyConf.stopped,textTestBlank.started,textTestBlank.stopped,textRKN.started,textRKN.stopped,textRKNScale.started,textRKNScale.stopped,keyRKN.keys,keyRKN.rt,keyRKN.started,keyRKN.stopped,textEnd.started,textEnd.stopped,participant,session,date,expName,psychopyVersion,frameRate,
,,,,,,,,41.06201949995011,None,y,3.6306922994554043,41.06201949995011,None,,,,,,,,,,,,,,,,,,,,,,,,,,,,,,,,,,,,,,,,,,,,,,,,,,,,,,,,,,,,,,color 27,001,2022_Feb_17_1151,ProdSingRedo,3.2.3,60.02062310338627,
,,,,,,,,,,,,,,ColoredTest,"['yellow', 'blue', 'red']",yellow,blue,red,44.766672199591994,None,space,504.71708749979734,44.766672199591994,None,,,,,,,,,,,,,,,,,,,,,,,,,,,,,,,,,,,,,,,,,,,,,,,,,,,color 27,001,2022_Feb_17_1151,ProdSingRedo,3.2.3,60.02062310338627,
0,0,0,0,,,,,,,,,,,,,,,,,,,,,,44.766672199591994,None,44.766672199591994,None,44.766672199591994,None,552.0217451993376,None,bicycle,sing,yellow,24,21,550.0324117997661,None,None,550.0324117997661,None,,,,,,,,,,,,,,,,,,,,,,,,,,,,,,,,,color 27,001,2022_Feb_17_1151,ProdSingRedo,3.2.3,60.02062310338627,
1,0,1,0,,,,,,,,,,,,,,,,,,,,,,,,,,,,554.5413482999429,None,scale,aloud,blue,30,272,552.5292302994058,None,None,552.5292302994058,None,,,,,,,,,,,,,,,,,,,,,,,,,,,,,,,,,color 27,001,2022_Feb_17_1151,ProdSingRedo,3.2.3,60.02062310338627,
2,0,2,0,,,,,,,,,,,,,,,,,,,,,,,,,,,,557.0590678993613,None,emergency,silent,red,75,110,555.0560168996453,None,None,555.0560168996453,None,,,,,,,,,,,,,,,,,,,,,,,,,,,,,,,,,color 27,001,2022_Feb_17_1151,ProdSingRedo,3.2.3,60.02062310338627,
3,0,3,0,,,,,,,,,,,,,,,,,,,,,,,,,,,,559.5615173000842,None,running,sing,yellow,22,268,557.5594448000193,None,None,557.5594448000193,None,,,,,,,,,,,,,,,,,,,,,,,,,,,,,,,,,color 27,001,2022_Feb_17_1151,ProdSingRedo,3.2.3,60.02062310338627,
4,0,4,0,,,,,,,,,,,,,,,,,,,,,,,,,,,,562.0817321995273,None,reading,silent,red,74,254,560.0684295995161,None,None,560.0684295995161,None,,,,,,,,,,,,,,,,,,,,,,,,,,,,,,,,,color 27,001,2022_Feb_17_1151,ProdSingRedo,3.2.3,60.02062310338627,
5,0,5,0,,,,,,,,,,,,,,,,,,,,,,,,,,,,564.6010900996625,None,interview,silent,red,78,165,562.6044666999951,None,None,562.6044666999951,None,,,,,,,,,,,,,,,,,,,,,,,,,,,,,,,,,color 27,001,2022_Feb_17_1151,ProdSingRedo,3.2.3,60.02062310338627,
6,0,6,0,,,,,,,,,,,,,,,,,,,,,,,,,,,,567.1201121993363,None,state,aloud,blue,44,303,565.1122014001012,None,None,565.1122014001012,None,,,,,,,,,,,,,,,,,,,,,,,,,,,,,,,,,color 27,001,2022_Feb_17_1151,ProdSingRedo,3.2.3,60.02062310338627,
7,0,7,0,,,,,,,,,,,,,,,,,,,,,,,,,,,,569.6382186999545,None,sweet,aloud,blue,56,319,567.6333047999069,None,None,567.6333047999069,None,,,,,,,,,,,,,,,,,,,,,,,,,,,,,,,,,color 27,001,2022_Feb_17_1151,ProdSingRedo,3.2.3,60.02062310338627,
8,0,8,0,,,,,,,,,,,,,,,,,,,,,,,,,,,,572.1411668993533,None,service,sing,yellow,16,280,570.1386313997209,None,None,570.1386313997209,None,,,,,,,,,,,,,,,,,,,,,,,,,,,,,,,,,color 27,001,2022_Feb_17_1151,ProdSingRedo,3.2.3,60.02062310338627,
9,0,9,0,,,,,,,,,,,,,,,,,,,,,,,,,,,,574.6610872000456,None,force,sing,yellow,4,131,572.6541447993368,None,None,572.6541447993368,None,,,,,,,,,,,,,,,,,,,,,,,,,,,,,,,,,color 27,001,2022_Feb_17_1151,ProdSingRedo,3.2.3,60.02062310338627,
10,0,10,0,,,,,,,,,,,,,,,,,,,,,,,,,,,,577.1789906993508,None,search,silent,red,64,276,575.1725482000038,None,None,575.1725482000038,None,,,,,,,,,,,,,,,,,,,,,,,,,,,,,,,,,color 27,001,2022_Feb_17_1151,ProdSingRedo,3.2.3,60.02062310338627,
11,0,11,0,,,,,,,,,,,,,,,,,,,,,,,,,,,,579.6814478999004,None,youth,aloud,blue,39,359,577.6797008002177,None,None,577.6797008002177,None,,,,,,,,,,,,,,,,,,,,,,,,,,,,,,,,,color 27,001,2022_Feb_17_1151,ProdSingRedo,3.2.3,60.02062310338627,
12,0,12,0,,,,,,,,,,,,,,,,,,,,,,,,,,,,582.1853519994766,None,trail,silent,red,62,336,580.1822157995775,None,None,580.1822157995775,None,,,,,,,,,,,,,,,,,,,,,,,,,,,,,,,,,color 27,001,2022_Feb_17_1151,ProdSingRedo,3.2.3,60.02062310338627,
13,0,13,0,,,,,,,,,,,,,,,,,,,,,,,,,,,,584.7058627000079,None,little,silent,red,76,174,582.6951628001407,None,None,582.6951628001407,None,,,,,,,,,,,,,,,,,,,,,,,,,,,,,,,,,color 27,001,2022_Feb_17_1151,ProdSingRedo,3.2.3,60.02062310338627,
14,0,14,0,,,,,,,,,,,,,,,,,,,,,,,,,,,,587.2228186996654,None,captain,aloud,blue,35,41,585.2209155997261,None,None,585.2209155997261,None,,,,,,,,,,,,,,,,,,,,,,,,,,,,,,,,,color 27,001,2022_Feb_17_1151,ProdSingRedo,3.2.3,60.02062310338627,
15,0,15,0,,,,,,,,,,,,,,,,,,,,,,,,,,,,589.7414916995913,None,volume,sing,yellow,23,349,587.7361897993833,None,None,587.7361897993833,None,,,,,,,,,,,,,,,,,,,,,,,,,,,,,,,,,color 27,001,2022_Feb_17_1151,ProdSingRedo,3.2.3,60.02062310338627,
16,0,16,0,,,,,,,,,,,,,,,,,,,,,,,,,,,,592.2453317996114,None,institute,silent,red,63,162,590.2421193001792,None,None,590.2421193001792,None,,,,,,,,,,,,,,,,,,,,,,,,,,,,,,,,,color 27,001,2022_Feb_17_1151,ProdSingRedo,3.2.3,60.02062310338627,
17,0,17,0,,,,,,,,,,,,,,,,,,,,,,,,,,,,594.7638293001801,None,alert,sing,yellow,10,6,592.7540857996792,None,None,592.7540857996792,None,,,,,,,,,,,,,,,,,,,,,,,,,,,,,,,,,color 27,001,2022_Feb_17_1151,ProdSingRedo,3.2.3,60.02062310338627,
18,0,18,0,,,,,,,,,,,,,,,,,,,,,,,,,,,,597.2836088994518,None,business,silent,red,84,38,595.2756896996871,None,None,595.2756896996871,None,,,,,,,,,,,,,,,,,,,,,,,,,,,,,,,,,color 27,001,2022_Feb_17_1151,ProdSingRedo,3.2.3,60.02062310338627,
19,0,19,0,,,,,,,,,,,,,,,,,,,,,,,,,,,,599.8024543998763,None,length,sing,yellow,7,169,597.7962275994942,None,None,597.7962275994942,None,,,,,,,,,,,,,,,,,,,,,,,,,,,,,,,,,color 27,001,2022_Feb_17_1151,ProdSingRedo,3.2.3,60.02062310338627,
20,0,20,0,,,,,,,,,,,,,,,,,,,,,,,,,,,,602.322023499757,None,author,aloud,blue,55,15,600.3104842994362,None,None,600.3104842994362,None,,,,,,,,,,,,,,,,,,,,,,,,,,,,,,,,,color 27,001,2022_Feb_17_1151,ProdSingRedo,3.2.3,60.02062310338627,
21,0,21,0,,,,,,,,,,,,,,,,,,,,,,,,,,,,604.8411476993933,None,growth,aloud,blue,36,144,602.8386682001874,None,None,602.8386682001874,None,,,,,,,,,,,,,,,,,,,,,,,,,,,,,,,,,color 27,001,2022_Feb_17_1151,ProdSingRedo,3.2.3,60.02062310338627,
22,0,22,0,,,,,,,,,,,,,,,,,,,,,,,,,,,,607.3428410999477,None,second,silent,red,66,278,605.3405703995377,None,None,605.3405703995377,None,,,,,,,,,,,,,,,,,,,,,,,,,,,,,,,,,color 27,001,2022_Feb_17_1151,ProdSingRedo,3.2.3,60.02062310338627,
23,0,23,0,,,,,,,,,,,,,,,,,,,,,,,,,,,,609.8626224994659,None,smooth,sing,yellow,18,292,607.854920799844,None,None,607.854920799844,None,,,,,,,,,,,,,,,,,,,,,,,,,,,,,,,,,color 27,001,2022_Feb_17_1151,ProdSingRedo,3.2.3,60.02062310338627,
24,0,24,0,,,,,,,,,,,,,,,,,,,,,,,,,,,,612.381980699487,None,people,aloud,blue,47,216,610.3722598999739,None,None,610.3722598999739,None,,,,,,,,,,,,,,,,,,,,,,,,,,,,,,,,,color 27,001,2022_Feb_17_1151,ProdSingRedo,3.2.3,60.02062310338627,
25,0,25,0,,,,,,,,,,,,,,,,,,,,,,,,,,,,614.8847054997459,None,enemy,sing,yellow,21,113,612.8814404997975,None,None,612.8814404997975,None,,,,,,,,,,,,,,,,,,,,,,,,,,,,,,,,,color 27,001,2022_Feb_17_1151,ProdSingRedo,3.2.3,60.02062310338627,
26,0,26,0,,,,,,,,,,,,,,,,,,,,,,,,,,,,617.4025892000645,None,territory,sing,yellow,11,324,615.3952290993184,None,None,615.3952290993184,None,,,,,,,,,,,,,,,,,,,,,,,,,,,,,,,,,color 27,001,2022_Feb_17_1151,ProdSingRedo,3.2.3,60.02062310338627,
27,0,27,0,,,,,,,,,,,,,,,,,,,,,,,,,,,,619.9221153995022,None,science,aloud,blue,59,275,617.9114954993129,None,None,617.9114954993129,None,,,,,,,,,,,,,,,,,,,,,,,,,,,,,,,,,color 27,001,2022_Feb_17_1151,ProdSingRedo,3.2.3,60.02062310338627,
28,0,28,0,,,,,,,,,,,,,,,,,,,,,,,,,,,,622.4249794995412,None,silence,sing,yellow,15,288,620.4222241993994,None,None,620.4222241993994,None,,,,,,,,,,,,,,,,,,,,,,,,,,,,,,,,,color 27,001,2022_Feb_17_1151,ProdSingRedo,3.2.3,60.02062310338627,
29,0,29,0,,,,,,,,,,,,,,,,,,,,,,,,,,,,624.9283737996593,None,course,sing,yellow,26,74,622.9247658997774,None,None,622.9247658997774,None,,,,,,,,,,,,,,,,,,,,,,,,,,,,,,,,,color 27,001,2022_Feb_17_1151,ProdSingRedo,3.2.3,60.02062310338627,
30,0,30,0,,,,,,,,,,,,,,,,,,,,,,,,,,,,627.4470790997148,None,empty,sing,yellow,1,112,625.4405335001647,None,None,625.4405335001647,None,,,,,,,,,,,,,,,,,,,,,,,,,,,,,,,,,color 27,001,2022_Feb_17_1151,ProdSingRedo,3.2.3,60.02062310338627,
31,0,31,0,,,,,,,,,,,,,,,,,,,,,,,,,,,,629.9662063997239,None,fellow,silent,red,82,126,627.960066200234,None,None,627.960066200234,None,,,,,,,,,,,,,,,,,,,,,,,,,,,,,,,,,color 27,001,2022_Feb_17_1151,ProdSingRedo,3.2.3,60.02062310338627,
32,0,32,0,,,,,,,,,,,,,,,,,,,,,,,,,,,,632.484642200172,None,commercial,aloud,blue,41,61,630.4811514997855,None,None,630.4811514997855,None,,,,,,,,,,,,,,,,,,,,,,,,,,,,,,,,,color 27,001,2022_Feb_17_1151,ProdSingRedo,3.2.3,60.02062310338627,
33,0,33,0,,,,,,,,,,,,,,,,,,,,,,,,,,,,635.0050010997802,None,period,aloud,blue,38,217,632.9965156000108,None,None,632.9965156000108,None,,,,,,,,,,,,,,,,,,,,,,,,,,,,,,,,,color 27,001,2022_Feb_17_1151,ProdSingRedo,3.2.3,60.02062310338627,
34,0,34,0,,,,,,,,,,,,,,,,,,,,,,,,,,,,637.5069706998765,None,rapid,sing,yellow,3,252,635.5039628995582,None,None,635.5039628995582,None,,,,,,,,,,,,,,,,,,,,,,,,,,,,,,,,,color 27,001,2022_Feb_17_1151,ProdSingRedo,3.2.3,60.02062310338627,
35,0,35,0,,,,,,,,,,,,,,,,,,,,,,,,,,,,640.0250476999208,None,stand,silent,red,83,302,638.0215847995132,None,None,638.0215847995132,None,,,,,,,,,,,,,,,,,,,,,,,,,,,,,,,,,color 27,001,2022_Feb_17_1151,ProdSingRedo,3.2.3,60.02062310338627,
36,0,36,0,,,,,,,,,,,,,,,,,,,,,,,,,,,,642.5287951994687,None,appeal,aloud,blue,42,9,640.5271517997608,None,None,640.5271517997608,None,,,,,,,,,,,,,,,,,,,,,,,,,,,,,,,,,color 27,001,2022_Feb_17_1151,ProdSingRedo,3.2.3,60.02062310338627,
37,0,37,0,,,,,,,,,,,,,,,,,,,,,,,,,,,,645.0478977002203,None,broad,aloud,blue,31,31,643.0435098996386,None,None,643.0435098996386,None,,,,,,,,,,,,,,,,,,,,,,,,,,,,,,,,,color 27,001,2022_Feb_17_1151,ProdSingRedo,3.2.3,60.02062310338627,
38,0,38,0,,,,,,,,,,,,,,,,,,,,,,,,,,,,647.5673008002341,None,command,aloud,blue,57,60,645.5620515001938,None,None,645.5620515001938,None,,,,,,,,,,,,,,,,,,,,,,,,,,,,,,,,,color 27,001,2022_Feb_17_1151,ProdSingRedo,3.2.3,60.02062310338627,
39,0,39,0,,,,,,,,,,,,,,,,,,,,,,,,,,,,650.0853421995416,None,atmosphere,sing,yellow,27,12,648.0799981001765,None,None,648.0799981001765,None,,,,,,,,,,,,,,,,,,,,,,,,,,,,,,,,,color 27,001,2022_Feb_17_1151,ProdSingRedo,3.2.3,60.02062310338627,
40,0,40,0,,,,,,,,,,,,,,,,,,,,,,,,,,,,652.5887794997543,None,crime,aloud,blue,54,78,650.5888238996267,None,None,650.5888238996267,None,,,,,,,,,,,,,,,,,,,,,,,,,,,,,,,,,color 27,001,2022_Feb_17_1151,ProdSingRedo,3.2.3,60.02062310338627,
41,0,41,0,,,,,,,,,,,,,,,,,,,,,,,,,,,,655.1069553000852,None,message,sing,yellow,0,189,653.102159999311,None,None,653.102159999311,None,,,,,,,,,,,,,,,,,,,,,,,,,,,,,,,,,color 27,001,2022_Feb_17_1151,ProdSingRedo,3.2.3,60.02062310338627,
42,0,42,0,,,,,,,,,,,,,,,,,,,,,,,,,,,,657.6098628994077,None,incident,aloud,blue,37,158,655.6074776994064,None,None,655.6074776994064,None,,,,,,,,,,,,,,,,,,,,,,,,,,,,,,,,,color 27,001,2022_Feb_17_1151,ProdSingRedo,3.2.3,60.02062310338627,
43,0,43,0,,,,,,,,,,,,,,,,,,,,,,,,,,,,660.1123152999207,None,contract,silent,red,61,68,658.1102756001055,None,None,658.1102756001055,None,,,,,,,,,,,,,,,,,,,,,,,,,,,,,,,,,color 27,001,2022_Feb_17_1151,ProdSingRedo,3.2.3,60.02062310338627,
44,0,44,0,,,,,,,,,,,,,,,,,,,,,,,,,,,,662.6147270994261,None,health,sing,yellow,20,149,660.614697699435,None,None,660.614697699435,None,,,,,,,,,,,,,,,,,,,,,,,,,,,,,,,,,color 27,001,2022_Feb_17_1151,ProdSingRedo,3.2.3,60.02062310338627,
45,0,45,0,,,,,,,,,,,,,,,,,,,,,,,,,,,,665.1172914002091,None,afternoon,sing,yellow,14,3,663.1160129001364,None,None,663.1160129001364,None,,,,,,,,,,,,,,,,,,,,,,,,,,,,,,,,,color 27,001,2022_Feb_17_1151,ProdSingRedo,3.2.3,60.02062310338627,
46,0,46,0,,,,,,,,,,,,,,,,,,,,,,,,,,,,667.619754999876,None,literature,silent,red,69,173,665.6198044996709,None,None,665.6198044996709,None,,,,,,,,,,,,,,,,,,,,,,,,,,,,,,,,,color 27,001,2022_Feb_17_1151,ProdSingRedo,3.2.3,60.02062310338627,
47,0,47,0,,,,,,,,,,,,,,,,,,,,,,,,,,,,670.121930600144,None,suggestion,sing,yellow,17,314,668.1202671993524,None,None,668.1202671993524,None,,,,,,,,,,,,,,,,,,,,,,,,,,,,,,,,,color 27,001,2022_Feb_17_1151,ProdSingRedo,3.2.3,60.02062310338627,
48,0,48,0,,,,,,,,,,,,,,,,,,,,,,,,,,,,672.6242322996259,None,country,silent,red,67,73,670.6225549997762,None,None,670.6225549997762,None,,,,,,,,,,,,,,,,,,,,,,,,,,,,,,,,,color 27,001,2022_Feb_17_1151,ProdSingRedo,3.2.3,60.02062310338627,
49,0,49,0,,,,,,,,,,,,,,,,,,,,,,,,,,,,675.1270648995414,None,council,silent,red,65,71,673.1246647993103,None,None,673.1246647993103,None,,,,,,,,,,,,,,,,,,,,,,,,,,,,,,,,,color 27,001,2022_Feb_17_1151,ProdSingRedo,3.2.3,60.02062310338627,
50,0,50,0,,,,,,,,,,,,,,,,,,,,,,,,,,,,677.6470261998475,None,light,silent,red,80,171,675.6398631995544,None,None,675.6398631995544,None,,,,,,,,,,,,,,,,,,,,,,,,,,,,,,,,,color 27,001,2022_Feb_17_1151,ProdSingRedo,3.2.3,60.02062310338627,
51,0,51,0,,,,,,,,,,,,,,,,,,,,,,,,,,,,680.1661474993452,None,present,silent,red,71,231,678.1563721001148,None,None,678.1563721001148,None,,,,,,,,,,,,,,,,,,,,,,,,,,,,,,,,,color 27,001,2022_Feb_17_1151,ProdSingRedo,3.2.3,60.02062310338627,
52,0,52,0,,,,,,,,,,,,,,,,,,,,,,,,,,,,682.6849349997938,None,patient,silent,red,60,213,680.6790669001639,None,None,680.6790669001639,None,,,,,,,,,,,,,,,,,,,,,,,,,,,,,,,,,color 27,001,2022_Feb_17_1151,ProdSingRedo,3.2.3,60.02062310338627,
53,0,53,0,,,,,,,,,,,,,,,,,,,,,,,,,,,,685.205107299611,None,direction,aloud,blue,40,94,683.193338399753,None,None,683.193338399753,None,,,,,,,,,,,,,,,,,,,,,,,,,,,,,,,,,color 27,001,2022_Feb_17_1151,ProdSingRedo,3.2.3,60.02062310338627,
54,0,54,0,,,,,,,,,,,,,,,,,,,,,,,,,,,,687.7272720001638,None,treatment,aloud,blue,50,339,685.7178029995412,None,None,685.7178029995412,None,,,,,,,,,,,,,,,,,,,,,,,,,,,,,,,,,color 27,001,2022_Feb_17_1151,ProdSingRedo,3.2.3,60.02062310338627,
55,0,55,0,,,,,,,,,,,,,,,,,,,,,,,,,,,,690.2428978998214,None,power,silent,red,86,230,688.2349311998114,None,None,688.2349311998114,None,,,,,,,,,,,,,,,,,,,,,,,,,,,,,,,,,color 27,001,2022_Feb_17_1151,ProdSingRedo,3.2.3,60.02062310338627,
56,0,56,0,,,,,,,,,,,,,,,,,,,,,,,,,,,,692.7614043001086,None,write,aloud,blue,58,358,690.752589199692,None,None,690.752589199692,None,,,,,,,,,,,,,,,,,,,,,,,,,,,,,,,,,color 27,001,2022_Feb_17_1151,ProdSingRedo,3.2.3,60.02062310338627,
57,0,57,0,,,,,,,,,,,,,,,,,,,,,,,,,,,,695.2646249998361,None,union,aloud,blue,43,344,693.2616735994816,None,None,693.2616735994816,None,,,,,,,,,,,,,,,,,,,,,,,,,,,,,,,,,color 27,001,2022_Feb_17_1151,ProdSingRedo,3.2.3,60.02062310338627,
58,0,58,0,,,,,,,,,,,,,,,,,,,,,,,,,,,,697.782935500145,None,appearance,silent,red,87,10,695.7823263993487,None,None,695.7823263993487,None,,,,,,,,,,,,,,,,,,,,,,,,,,,,,,,,,color 27,001,2022_Feb_17_1151,ProdSingRedo,3.2.3,60.02062310338627,
59,0,59,0,,,,,,,,,,,,,,,,,,,,,,,,,,,,700.3023870000616,None,majority,aloud,blue,46,176,698.309576800093,None,None,698.309576800093,None,,,,,,,,,,,,,,,,,,,,,,,,,,,,,,,,,color 27,001,2022_Feb_17_1151,ProdSingRedo,3.2.3,60.02062310338627,
60,0,60,0,,,,,,,,,,,,,,,,,,,,,,,,,,,,702.8220221996307,None,object,sing,yellow,5,204,700.8102302998304,None,None,700.8102302998304,None,,,,,,,,,,,,,,,,,,,,,,,,,,,,,,,,,color 27,001,2022_Feb_17_1151,ProdSingRedo,3.2.3,60.02062310338627,
61,0,61,0,,,,,,,,,,,,,,,,,,,,,,,,,,,,705.340849599801,None,stranger,aloud,blue,49,309,703.3445923998952,None,None,703.3445923998952,None,,,,,,,,,,,,,,,,,,,,,,,,,,,,,,,,,color 27,001,2022_Feb_17_1151,ProdSingRedo,3.2.3,60.02062310338627,
62,0,62,0,,,,,,,,,,,,,,,,,,,,,,,,,,,,707.8437288999557,None,religion,sing,yellow,19,258,705.8408110002056,None,None,705.8408110002056,None,,,,,,,,,,,,,,,,,,,,,,,,,,,,,,,,,color 27,001,2022_Feb_17_1151,ProdSingRedo,3.2.3,60.02062310338627,
63,0,63,0,,,,,,,,,,,,,,,,,,,,,,,,,,,,710.3618458993733,None,session,silent,red,73,281,708.3580326000229,None,None,708.3580326000229,None,,,,,,,,,,,,,,,,,,,,,,,,,,,,,,,,,color 27,001,2022_Feb_17_1151,ProdSingRedo,3.2.3,60.02062310338627,
64,0,64,0,,,,,,,,,,,,,,,,,,,,,,,,,,,,712.8654331993312,None,income,silent,red,88,159,710.862390499562,None,None,710.862390499562,None,,,,,,,,,,,,,,,,,,,,,,,,,,,,,,,,,color 27,001,2022_Feb_17_1151,ProdSingRedo,3.2.3,60.02062310338627,
65,0,65,0,,,,,,,,,,,,,,,,,,,,,,,,,,,,715.3835768001154,None,general,sing,yellow,9,135,713.3818886000663,None,None,713.3818886000663,None,,,,,,,,,,,,,,,,,,,,,,,,,,,,,,,,,color 27,001,2022_Feb_17_1151,ProdSingRedo,3.2.3,60.02062310338627,
66,0,66,0,,,,,,,,,,,,,,,,,,,,,,,,,,,,717.8873199000955,None,working,aloud,blue,33,357,715.8866713000461,None,None,715.8866713000461,None,,,,,,,,,,,,,,,,,,,,,,,,,,,,,,,,,color 27,001,2022_Feb_17_1151,ProdSingRedo,3.2.3,60.02062310338627,
67,0,67,0,,,,,,,,,,,,,,,,,,,,,,,,,,,,720.4068887997419,None,strength,sing,yellow,12,310,718.4050522996113,None,None,718.4050522996113,None,,,,,,,,,,,,,,,,,,,,,,,,,,,,,,,,,color 27,001,2022_Feb_17_1151,ProdSingRedo,3.2.3,60.02062310338627,
68,0,68,0,,,,,,,,,,,,,,,,,,,,,,,,,,,,722.9247730998322,None,watch,aloud,blue,45,351,720.9172692997381,None,None,720.9172692997381,None,,,,,,,,,,,,,,,,,,,,,,,,,,,,,,,,,color 27,001,2022_Feb_17_1151,ProdSingRedo,3.2.3,60.02062310338627,
69,0,69,0,,,,,,,,,,,,,,,,,,,,,,,,,,,,725.4445121996105,None,danger,sing,yellow,8,85,723.4477241002023,None,None,723.4477241002023,None,,,,,,,,,,,,,,,,,,,,,,,,,,,,,,,,,color 27,001,2022_Feb_17_1151,ProdSingRedo,3.2.3,60.02062310338627,
70,0,70,0,,,,,,,,,,,,,,,,,,,,,,,,,,,,727.964061900042,None,disease,silent,red,89,97,725.9615608993918,None,None,725.9615608993918,None,,,,,,,,,,,,,,,,,,,,,,,,,,,,,,,,,color 27,001,2022_Feb_17_1151,ProdSingRedo,3.2.3,60.02062310338627,
71,0,71,0,,,,,,,,,,,,,,,,,,,,,,,,,,,,730.4663200993091,None,shear,silent,red,72,283,728.4635300999507,None,None,728.4635300999507,None,,,,,,,,,,,,,,,,,,,,,,,,,,,,,,,,,color 27,001,2022_Feb_17_1151,ProdSingRedo,3.2.3,60.02062310338627,
72,0,72,0,,,,,,,,,,,,,,,,,,,,,,,,,,,,732.9856086997315,None,theme,sing,yellow,25,326,730.9746845001355,None,None,730.9746845001355,None,,,,,,,,,,,,,,,,,,,,,,,,,,,,,,,,,color 27,001,2022_Feb_17_1151,ProdSingRedo,3.2.3,60.02062310338627,
73,0,73,0,,,,,,,,,,,,,,,,,,,,,,,,,,,,735.5039056995884,None,turkey,silent,red,77,342,733.4972256999463,None,None,733.4972256999463,None,,,,,,,,,,,,,,,,,,,,,,,,,,,,,,,,,color 27,001,2022_Feb_17_1151,ProdSingRedo,3.2.3,60.02062310338627,
74,0,74,0,,,,,,,,,,,,,,,,,,,,,,,,,,,,738.0244383998215,None,bucket,silent,red,85,33,736.0096536995843,None,None,736.0096536995843,None,,,,,,,,,,,,,,,,,,,,,,,,,,,,,,,,,color 27,001,2022_Feb_17_1151,ProdSingRedo,3.2.3,60.02062310338627,
75,0,75,0,,,,,,,,,,,,,,,,,,,,,,,,,,,,740.5430950000882,None,review,silent,red,70,263,738.5458175996318,None,None,738.5458175996318,None,,,,,,,,,,,,,,,,,,,,,,,,,,,,,,,,,color 27,001,2022_Feb_17_1151,ProdSingRedo,3.2.3,60.02062310338627,
76,0,76,0,,,,,,,,,,,,,,,,,,,,,,,,,,,,743.045544099994,None,opening,sing,yellow,6,205,741.0437867995352,None,None,741.0437867995352,None,,,,,,,,,,,,,,,,,,,,,,,,,,,,,,,,,color 27,001,2022_Feb_17_1151,ProdSingRedo,3.2.3,60.02062310338627,
77,0,77,0,,,,,,,,,,,,,,,,,,,,,,,,,,,,745.5637080995366,None,quick,silent,red,81,248,743.5672859996557,None,None,743.5672859996557,None,,,,,,,,,,,,,,,,,,,,,,,,,,,,,,,,,color 27,001,2022_Feb_17_1151,ProdSingRedo,3.2.3,60.02062310338627,
78,0,78,0,,,,,,,,,,,,,,,,,,,,,,,,,,,,748.0839876998216,None,community,aloud,blue,52,63,746.0816952995956,None,None,746.0816952995956,None,,,,,,,,,,,,,,,,,,,,,,,,,,,,,,,,,color 27,001,2022_Feb_17_1151,ProdSingRedo,3.2.3,60.02062310338627,
79,0,79,0,,,,,,,,,,,,,,,,,,,,,,,,,,,,750.603109699674,None,plane,aloud,blue,32,223,748.5991485994309,None,None,748.5991485994309,None,,,,,,,,,,,,,,,,,,,,,,,,,,,,,,,,,color 27,001,2022_Feb_17_1151,ProdSingRedo,3.2.3,60.02062310338627,
80,0,80,0,,,,,,,,,,,,,,,,,,,,,,,,,,,,753.1212355997413,None,measure,sing,yellow,28,184,751.118314399384,None,None,751.118314399384,None,,,,,,,,,,,,,,,,,,,,,,,,,,,,,,,,,color 27,001,2022_Feb_17_1151,ProdSingRedo,3.2.3,60.02062310338627,
81,0,81,0,,,,,,,,,,,,,,,,,,,,,,,,,,,,755.6403997000307,None,agency,sing,yellow,29,4,753.6373597001657,None,None,753.6373597001657,None,,,,,,,,,,,,,,,,,,,,,,,,,,,,,,,,,color 27,001,2022_Feb_17_1151,ProdSingRedo,3.2.3,60.02062310338627,
82,0,82,0,,,,,,,,,,,,,,,,,,,,,,,,,,,,758.1439431998879,None,drink,silent,red,79,105,756.1410142993554,None,None,756.1410142993554,None,,,,,,,,,,,,,,,,,,,,,,,,,,,,,,,,,color 27,001,2022_Feb_17_1151,ProdSingRedo,3.2.3,60.02062310338627,
83,0,83,0,,,,,,,,,,,,,,,,,,,,,,,,,,,,760.6625151997432,None,shock,sing,yellow,2,284,758.6560837998986,None,None,758.6560837998986,None,,,,,,,,,,,,,,,,,,,,,,,,,,,,,,,,,color 27,001,2022_Feb_17_1151,ProdSingRedo,3.2.3,60.02062310338627,
84,0,84,0,,,,,,,,,,,,,,,,,,,,,,,,,,,,763.1819544993341,None,owner,aloud,blue,34,208,761.1738046994433,None,None,761.1738046994433,None,,,,,,,,,,,,,,,,,,,,,,,,,,,,,,,,,color 27,001,2022_Feb_17_1151,ProdSingRedo,3.2.3,60.02062310338627,
85,0,85,0,,,,,,,,,,,,,,,,,,,,,,,,,,,,765.702039799653,None,accident,sing,yellow,13,0,763.6973903002217,None,None,763.6973903002217,None,,,,,,,,,,,,,,,,,,,,,,,,,,,,,,,,,color 27,001,2022_Feb_17_1151,ProdSingRedo,3.2.3,60.02062310338627,
86,0,86,0,,,,,,,,,,,,,,,,,,,,,,,,,,,,768.2213370995596,None,welcome,aloud,blue,53,354,766.2147559002042,None,None,766.2147559002042,None,,,,,,,,,,,,,,,,,,,,,,,,,,,,,,,,,color 27,001,2022_Feb_17_1151,ProdSingRedo,3.2.3,60.02062310338627,
87,0,87,0,,,,,,,,,,,,,,,,,,,,,,,,,,,,770.7397560002282,None,court,silent,red,68,75,768.7318445993587,None,None,768.7318445993587,None,,,,,,,,,,,,,,,,,,,,,,,,,,,,,,,,,color 27,001,2022_Feb_17_1151,ProdSingRedo,3.2.3,60.02062310338627,
88,0,88,0,,,,,,,,,,,,,,,,,,,,,,,,,,,,773.2590266996995,None,evidence,aloud,blue,51,120,771.2565441997722,None,None,771.2565441997722,None,,,,,,,,,,,,,,,,,,,,,,,,,,,,,,,,,color 27,001,2022_Feb_17_1151,ProdSingRedo,3.2.3,60.02062310338627,
89,0,89,0,,,,,,,,,,,,,,,,,,,,,,,,,,,,775.778502699919,None,beauty,aloud,blue,48,18,773.7721306001768,None,None,773.7721306001768,None,,,,,,,,,,,,,,,,,,,,,,,,,,,,,,,,,color 27,001,2022_Feb_17_1151,ProdSingRedo,3.2.3,60.02062310338627,
,,,,,,,,,,,,,,,,,,,,,,,,,,,,,,,,,,,,,,,,,,,776.2788706999272,None,k,236.99602799955755,776.2788706999272,None,,,,,,,,,,,,,,,,,,,,,,,,,,,color 27,001,2022_Feb_17_1151,ProdSingRedo,3.2.3,60.02062310338627,
,,,,0,0,0,0,,,,,,,,,,,,,,,,,,,,,,,,1020.1162598999217,None,,,,,,,,,,,,,,,,,minute,new_silent,red,0,156,192,1013.8220827998593,None,1013.8220827998593,None,2,3.252737200818956,1013.8220827998593,None,1017.128310199827,None,1017.6561394995078,None,1017.6561394995078,None,f,2.426695399917662,1017.6561394995078,None,,,color 27,001,2022_Feb_17_1151,ProdSingRedo,3.2.3,60.02062310338627,
,,,,1,0,1,0,,,,,,,,,,,,,,,,,,,,,,,,1027.2383325994015,None,,,,,,,,,,,,,,,,,salary,new_aloud,blue,1,140,271,1020.6424464993179,None,1020.6424464993179,None,6,3.448770400136709,1020.6424464993179,None,1024.1398944994435,None,1024.6593303000554,None,1024.6593303000554,None,r,2.552160399965942,1024.6593303000554,None,,,color 27,001,2022_Feb_17_1151,ProdSingRedo,3.2.3,60.02062310338627,
,,,,2,0,2,0,,,,,,,,,,,,,,,,,,,,,,,,1032.308755000122,None,,,,,,,,,,,,,,,,,plane,aloud,blue,2,32,223,1027.764429899864,None,1027.764429899864,None,6,2.5672187004238367,1027.764429899864,None,1030.3677704995498,None,1030.89495159965,None,1030.89495159965,None,f,1.3885293994098902,1030.89495159965,None,,,color 27,001,2022_Feb_17_1151,ProdSingRedo,3.2.3,60.02062310338627,
,,,,3,0,3,0,,,,,,,,,,,,,,,,,,,,,,,,1037.9843498999253,None,,,,,,,,,,,,,,,,,health,sing,yellow,3,20,149,1032.8378512999043,None,1032.8378512999043,None,5,2.82893589977175,1032.8378512999043,None,1035.706546199508,None,1036.219192999415,None,1036.219192999415,None,f,1.7276518000289798,1036.219192999415,None,,,color 27,001,2022_Feb_17_1151,ProdSingRedo,3.2.3,60.02062310338627,
,,,,4,0,4,0,,,,,,,,,,,,,,,,,,,,,,,,1043.0078910999,None,,,,,,,,,,,,,,,,,dozen,new_sing,yellow,4,101,102,1038.5188847994432,None,1038.5188847994432,None,1,2.483958199620247,1038.5188847994432,None,1041.0503930998966,None,1041.5705613000318,None,1041.5705613000318,None,n,1.400143699720502,1041.5705613000318,None,,,color 27,001,2022_Feb_17_1151,ProdSingRedo,3.2.3,60.02062310338627,
,,,,5,0,5,0,,,,,,,,,,,,,,,,,,,,,,,,1048.6095330994576,None,,,,,,,,,,,,,,,,,touch,new_silent,red,5,165,332,1043.527350999415,None,1043.527350999415,None,3,3.0204039001837373,1043.527350999415,None,1046.5861451998353,None,1047.0927969999611,None,1047.0927969999611,None,f,1.486004799604416,1047.0927969999611,None,,,color 27,001,2022_Feb_17_1151,ProdSingRedo,3.2.3,60.02062310338627,
,,,,6,0,6,0,,,,,,,,,,,,,,,,,,,,,,,,1052.9263650001958,None,,,,,,,,,,,,,,,,,contract,silent,red,6,61,68,1049.1357402000576,None,1049.1357402000576,None,6,2.4510714998468757,1049.1357402000576,None,1051.626610700041,None,1052.1529256999493,None,1052.1529256999493,None,r,0.7377463998273015,1052.1529256999493,None,,,color 27,001,2022_Feb_17_1151,ProdSingRedo,3.2.3,60.02062310338627,
,,,,7,0,7,0,,,,,,,,,,,,,,,,,,,,,,,,1058.2516517993063,None,,,,,,,,,,,,,,,,,broad,aloud,blue,7,31,31,1053.4553041998297,None,1053.4553041998297,None,6,1.7316459994763136,1053.4553041998297,None,1055.2291422002017,None,1055.735350199975,None,1055.735350199975,None,f,2.4833712996914983,1055.735350199975,None,,,color 27,001,2022_Feb_17_1151,ProdSingRedo,3.2.3,60.02062310338627,
,,,,8,0,8,0,,,,,,,,,,,,,,,,,,,,,,,,1062.1279507,None,,,,,,,,,,,,,,,,,conference,new_aloud,blue,8,130,66,1058.7803020998836,None,1058.7803020998836,None,6,1.5744456006214023,1058.7803020998836,None,1060.406522899866,None,1060.927564700134,None,1060.927564700134,None,f,1.1631738999858499,1060.927564700134,None,,,color 27,001,2022_Feb_17_1151,ProdSingRedo,3.2.3,60.02062310338627,
,,,,9,0,9,0,,,,,,,,,,,,,,,,,,,,,,,,1065.6895022997633,None,,,,,,,,,,,,,,,,,order,new_silent,red,9,159,207,1062.6440050993115,None,1062.6440050993115,None,5,1.8307579001411796,1062.6440050993115,None,1064.5199620993808,None,1065.0443417001516,None,1065.0443417001516,None,r,0.614237199537456,1065.0443417001516,None,,,color 27,001,2022_Feb_17_1151,ProdSingRedo,3.2.3,60.02062310338627,
,,,,10,0,10,0,,,,,,,,,,,,,,,,,,,,,,,,1071.1221944997087,None,,,,,,,,,,,,,,,,,present,silent,red,10,71,231,1066.2161481995136,None,1066.2161481995136,None,4,2.8346337005496025,1066.2161481995136,None,1069.0906517999247,None,1069.6144158998504,None,1069.6144158998504,None,f,1.484064499847591,1069.6144158998504,None,,,color 27,001,2022_Feb_17_1151,ProdSingRedo,3.2.3,60.02062310338627,
,,,,11,0,11,0,,,,,,,,,,,,,,,,,,,,,,,,1074.3007372999564,None,,,,,,,,,,,,,,,,,company,new_silent,red,11,160,64,1071.644190499559,None,1071.644190499559,None,6,1.7507712002843618,1071.644190499559,None,1073.4468315001577,None,1073.9529912993312,None,1073.9529912993312,None,r,0.3138170000165701,1073.9529912993312,None,,,color 27,001,2022_Feb_17_1151,ProdSingRedo,3.2.3,60.02062310338627,
,,,,12,0,12,0,,,,,,,,,,,,,,,,,,,,,,,,1080.232567800209,None,,,,,,,,,,,,,,,,,signal,new_aloud,blue,12,139,287,1074.8366208998486,None,1074.8366208998486,None,3,2.65404050052166,1074.8366208998486,None,1077.5453457999974,None,1078.0595426000655,None,1078.0595426000655,None,f,2.1431489000096917,1078.0595426000655,None,,,color 27,001,2022_Feb_17_1151,ProdSingRedo,3.2.3,60.02062310338627,
,,,,13,0,13,0,,,,,,,,,,,,,,,,,,,,,,,,1087.6633143993095,None,,,,,,,,,,,,,,,,,business,silent,red,13,84,38,1080.7537198001519,None,1080.7537198001519,None,1,3.433215799741447,1080.7537198001519,None,1084.2304015997797,None,1084.7476273002103,None,1084.7476273002103,None,f,2.8790394999086857,1084.7476273002103,None,,,color 27,001,2022_Feb_17_1151,ProdSingRedo,3.2.3,60.02062310338627,
,,,,14,0,14,0,,,,,,,,,,,,,,,,,,,,,,,,1090.6057581994683,None,,,,,,,,,,,,,,,,,author,aloud,blue,14,55,15,1088.189014799893,None,1088.189014799893,None,6,1.4216368002817035,1088.189014799893,None,1089.6634047999978,None,1090.1859713997692,None,1090.1859713997692,None,r,0.3766943998634815,1090.1859713997692,None,,,color 27,001,2022_Feb_17_1151,ProdSingRedo,3.2.3,60.02062310338627,
,,,,15,0,15,0,,,,,,,,,,,,,,,,,,,,,,,,1093.9537159996107,None,,,,,,,,,,,,,,,,,evidence,aloud,blue,15,51,120,1091.1283105993643,None,1091.1283105993643,None,5,1.9143689004704356,1091.1283105993643,None,1093.0860321000218,None,1093.5983346998692,None,1093.5983346998692,None,f,0.32474769931286573,1093.5983346998692,None,,,color 27,001,2022_Feb_17_1151,ProdSingRedo,3.2.3,60.02062310338627,
,,,,16,0,16,0,,,,,,,,,,,,,,,,,,,,,,,,1096.6335276002064,None,,,,,,,,,,,,,,,,,career,new_aloud,blue,16,142,42,1094.483735599555,None,1094.483735599555,None,6,1.2149192998185754,1094.483735599555,None,1095.733443199657,None,1096.2623092001304,None,1096.2623092001304,None,f,0.3479923000559211,1096.2623092001304,None,,,color 27,001,2022_Feb_17_1151,ProdSingRedo,3.2.3,60.02062310338627,
,,,,17,0,17,0,,,,,,,,,,,,,,,,,,,,,,,,1101.6118543995544,None,,,,,,,,,,,,,,,,,emergency,silent,red,17,75,110,1097.1508102994412,None,1097.1508102994412,None,6,3.1639179000630975,1097.1508102994412,None,1100.3677869001403,None,1100.8854542998597,None,1100.8854542998597,None,f,0.7012785999104381,1100.8854542998597,None,,,color 27,001,2022_Feb_17_1151,ProdSingRedo,3.2.3,60.02062310338627,
,,,,18,0,18,0,,,,,,,,,,,,,,,,,,,,,,,,1105.0159622998908,None,,,,,,,,,,,,,,,,,volume,sing,yellow,18,23,349,1102.1408502999693,None,1102.1408502999693,None,4,1.9418585998937488,1102.1408502999693,None,1104.129050400108,None,1104.636467100121,None,1104.636467100121,None,f,0.3501297002658248,1104.636467100121,None,,,color 27,001,2022_Feb_17_1151,ProdSingRedo,3.2.3,60.02062310338627,
,,,,19,0,19,0,,,,,,,,,,,,,,,,,,,,,,,,1112.7080608997494,None,,,,,,,,,,,,,,,,,build,new_aloud,blue,19,122,35,1105.5393676999956,None,1105.5393676999956,None,4,5.639365600422025,1105.5393676999956,None,1111.220945299603,None,1111.7419344000518,None,1111.7419344000518,None,f,0.9327154997736216,1111.7419344000518,None,,,color 27,001,2022_Feb_17_1151,ProdSingRedo,3.2.3,60.02062310338627,
,,,,20,0,20,0,,,,,,,,,,,,,,,,,,,,,,,,1117.7485474999994,None,,,,,,,,,,,,,,,,,bicycle,sing,yellow,20,24,21,1113.2364151999354,None,1113.2364151999354,None,1,1.5823146998882294,1113.2364151999354,None,1114.871318999678,None,1115.4006888000295,None,1115.4006888000295,None,f,2.313862000592053,1115.4006888000295,None,,,color 27,001,2022_Feb_17_1151,ProdSingRedo,3.2.3,60.02062310338627,
,,,,21,0,21,0,,,,,,,,,,,,,,,,,,,,,,,,1123.6833675997332,None,,,,,,,,,,,,,,,,,hearing,new_sing,yellow,21,96,150,1118.277692399919,None,1118.277692399919,None,3,4.508943299762905,1118.277692399919,None,1122.8395342994481,None,1123.3575352001935,None,1123.3575352001935,None,r,0.293219699524343,1123.3575352001935,None,,,color 27,001,2022_Feb_17_1151,ProdSingRedo,3.2.3,60.02062310338627,
,,,,22,0,22,0,,,,,,,,,,,,,,,,,,,,,,,,1126.744329500012,None,,,,,,,,,,,,,,,,,silence,sing,yellow,22,15,288,1124.2065797997639,None,1124.2065797997639,None,6,1.3882200997322798,1124.2065797997639,None,1125.6423413995653,None,1126.1512747993693,None,1126.1512747993693,None,r,0.5709349000826478,1126.1512747993693,None,,,color 27,001,2022_Feb_17_1151,ProdSingRedo,3.2.3,60.02062310338627,
,,,,23,0,23,0,,,,,,,,,,,,,,,,,,,,,,,,1130.456334299408,None,,,,,,,,,,,,,,,,,council,silent,red,23,65,71,1127.2463715998456,None,1127.2463715998456,None,6,1.6761990999802947,1127.2463715998456,None,1128.9728601993993,None,1129.4970282996073,None,1129.4970282996073,None,f,0.921582399867475,1129.4970282996073,None,,,color 27,001,2022_Feb_17_1151,ProdSingRedo,3.2.3,60.02062310338627,
,,,,24,0,24,0,,,,,,,,,,,,,,,,,,,,,,,,1136.764203700237,None,,,,,,,,,,,,,,,,,general,sing,yellow,24,9,135,1130.9861735999584,None,1130.9861735999584,None,4,4.008055599406362,1130.9861735999584,None,1135.022326800041,None,1135.5531687997282,None,1135.5531687997282,None,f,1.1854979004710913,1135.5531687997282,None,,,color 27,001,2022_Feb_17_1151,ProdSingRedo,3.2.3,60.02062310338627,
,,,,25,0,25,0,,,,,,,,,,,,,,,,,,,,,,,,1140.8263354999945,None,,,,,,,,,,,,,,,,,throw,new_sing,yellow,25,104,330,1137.2878479994833,None,1137.2878479994833,None,1,1.9467105995863676,1137.2878479994833,None,1139.2790187997743,None,1139.784633900039,None,1139.784633900039,None,n,1.009650000371039,1139.784633900039,None,,,color 27,001,2022_Feb_17_1151,ProdSingRedo,3.2.3,60.02062310338627,
,,,,26,0,26,0,,,,,,,,,,,,,,,,,,,,,,,,1147.2404394000769,None,,,,,,,,,,,,,,,,,suggestion,sing,yellow,26,17,314,1141.3460352998227,None,1141.3460352998227,None,4,4.576531299389899,1141.3460352998227,None,1145.9747445993125,None,1146.4968518000096,None,1146.4968518000096,None,r,0.7057269001379609,1146.4968518000096,None,,,color 27,001,2022_Feb_17_1151,ProdSingRedo,3.2.3,60.02062310338627,
,,,,27,0,27,0,,,,,,,,,,,,,,,,,,,,,,,,1151.7116385996342,None,,,,,,,,,,,,,,,,,fellow,silent,red,27,82,126,1147.7671793997288,None,1147.7671793997288,None,5,1.8593118004500866,1147.7671793997288,None,1149.6697607999668,None,1150.2004086999223,None,1150.2004086999223,None,n,1.474278099834919,1150.2004086999223,None,,,color 27,001,2022_Feb_17_1151,ProdSingRedo,3.2.3,60.02062310338627,
,,,,28,0,28,0,,,,,,,,,,,,,,,,,,,,,,,,1156.1671150000766,None,,,,,,,,,,,,,,,,,partner,new_aloud,blue,28,148,211,1152.2385032996535,None,1152.2385032996535,None,6,2.5003658002242446,1152.2385032996535,None,1154.7809606995434,None,1155.3025278998539,None,1155.3025278998539,None,f,0.8361962996423244,1155.3025278998539,None,,,color 27,001,2022_Feb_17_1151,ProdSingRedo,3.2.3,60.02062310338627,
,,,,29,0,29,0,,,,,,,,,,,,,,,,,,,,,,,,1160.2374447993934,None,,,,,,,,,,,,,,,,,reach,new_sing,yellow,29,118,253,1156.679967499338,None,1156.679967499338,None,4,1.8746421001851559,1156.679967499338,None,1158.5994445001706,None,1159.1220469996333,None,1159.1220469996333,None,f,1.0889285998418927,1159.1220469996333,None,,,color 27,001,2022_Feb_17_1151,ProdSingRedo,3.2.3,60.02062310338627,
,,,,30,0,30,0,,,,,,,,,,,,,,,,,,,,,,,,1166.5928850993514,None,,,,,,,,,,,,,,,,,straight,new_sing,yellow,30,109,307,1160.768439299427,None,1160.768439299427,None,1,3.7942531993612647,1160.768439299427,None,1164.6122517995536,None,1165.1415801998228,None,1165.1415801998228,None,n,1.4209982994943857,1165.1415801998228,None,,,color 27,001,2022_Feb_17_1151,ProdSingRedo,3.2.3,60.02062310338627,
,,,,31,0,31,0,,,,,,,,,,,,,,,,,,,,,,,,1169.7293130997568,None,,,,,,,,,,,,,,,,,interview,silent,red,31,78,165,1167.1255439994857,None,1167.1255439994857,None,6,1.5971289006993175,1167.1255439994857,None,1168.7797673000023,None,1169.299149500206,None,1169.299149500206,None,r,0.39141410030424595,1169.299149500206,None,,,color 27,001,2022_Feb_17_1151,ProdSingRedo,3.2.3,60.02062310338627,
,,,,32,0,32,0,,,,,,,,,,,,,,,,,,,,,,,,1176.5517854001373,None,,,,,,,,,,,,,,,,,enemy,sing,yellow,32,21,113,1170.2544093001634,None,1170.2544093001634,None,2,4.380133899860084,1170.2544093001634,None,1174.6811664998531,None,1175.1862840997055,None,1175.1862840997055,None,n,1.3283047992736101,1175.1862840997055,None,,,color 27,001,2022_Feb_17_1151,ProdSingRedo,3.2.3,60.02062310338627,
,,,,33,0,33,0,,,,,,,,,,,,,,,,,,,,,,,,1179.5576671995223,None,,,,,,,,,,,,,,,,,machinery,new_sing,yellow,33,112,175,1177.0838469993323,None,1177.0838469993323,None,1,1.6545430002734065,1177.0838469993323,None,1178.7924533998594,None,1179.310932399705,None,1179.310932399705,None,n,0.21154880058020353,1179.310932399705,None,,,color 27,001,2022_Feb_17_1151,ProdSingRedo,3.2.3,60.02062310338627,
,,,,34,0,34,0,,,,,,,,,,,,,,,,,,,,,,,,1185.3955702995881,None,,,,,,,,,,,,,,,,,welcome,aloud,blue,34,53,354,1180.081594299525,None,1180.081594299525,None,5,2.8013410000130534,1180.081594299525,None,1182.9253311995417,None,1183.4465618999675,None,1183.4465618999675,None,r,1.924074299633503,1183.4465618999675,None,,,color 27,001,2022_Feb_17_1151,ProdSingRedo,3.2.3,60.02062310338627,
,,,,35,0,35,0,,,,,,,,,,,,,,,,,,,,,,,,1191.6893542995676,None,,,,,,,,,,,,,,,,,running,sing,yellow,35,22,268,1185.9241041000932,None,1185.9241041000932,None,5,4.174471399746835,1185.9241041000932,None,1190.1460798997432,None,1190.6712205996737,None,1190.6712205996737,None,n,0.9879364995285869,1190.6712205996737,None,,,color 27,001,2022_Feb_17_1151,ProdSingRedo,3.2.3,60.02062310338627,
,,,,36,0,36,0,,,,,,,,,,,,,,,,,,,,,,,,1195.744701099582,None,,,,,,,,,,,,,,,,,private,new_aloud,blue,36,131,237,1192.2116489997134,None,1192.2116489997134,None,6,2.750869200564921,1192.2116489997134,None,1195.0148403998464,None,1195.529222900048,None,1195.529222900048,None,r,0.18538299947977066,1195.529222900048,None,,,color 27,001,2022_Feb_17_1151,ProdSingRedo,3.2.3,60.02062310338627,
,,,,37,0,37,0,,,,,,,,,,,,,,,,,,,,,,,,1198.5408878000453,None,,,,,,,,,,,,,,,,,error,new_aloud,blue,37,124,117,1196.2618191000074,None,1196.2618191000074,None,5,1.5406304998323321,1196.2618191000074,None,1197.8487232001498,None,1198.363028199412,None,1198.363028199412,None,r,0.143414500169456,1198.363028199412,None,,,color 27,001,2022_Feb_17_1151,ProdSingRedo,3.2.3,60.02062310338627,
,,,,38,0,38,0,,,,,,,,,,,,,,,,,,,,,,,,1204.0311115998775,None,,,,,,,,,,,,,,,,,literature,silent,red,38,69,173,1199.0718861995265,None,1199.0718861995265,None,6,4.170777800492942,1199.0718861995265,None,1203.298488999717,None,1203.8182365000248,None,1203.8182365000248,None,r,0.1841933000832796,1203.8182365000248,None,,,color 27,001,2022_Feb_17_1151,ProdSingRedo,3.2.3,60.02062310338627,
,,,,39,0,39,0,,,,,,,,,,,,,,,,,,,,,,,,1208.218829699792,None,,,,,,,,,,,,,,,,,message,sing,yellow,39,0,189,1204.558155999519,None,1204.558155999519,None,6,2.8761964002624154,1204.558155999519,None,1207.4689072994515,None,1207.9867782993242,None,1207.9867782993242,None,f,0.19178459979593754,1207.9867782993242,None,,,color 27,001,2022_Feb_17_1151,ProdSingRedo,3.2.3,60.02062310338627,
,,,,40,0,40,0,,,,,,,,,,,,,,,,,,,,,,,,1211.5550662996247,None,,,,,,,,,,,,,,,,,search,silent,red,40,64,276,1208.7455666996539,None,1208.7455666996539,None,3,1.7368174996227026,1208.7455666996539,None,1210.5237526996061,None,1211.0426634000614,None,1211.0426634000614,None,r,0.47975310031324625,1211.0426634000614,None,,,color 27,001,2022_Feb_17_1151,ProdSingRedo,3.2.3,60.02062310338627,
,,,,41,0,41,0,,,,,,,,,,,,,,,,,,,,,,,,1217.0345764001831,None,,,,,,,,,,,,,,,,,scale,aloud,blue,41,30,272,1212.083928199485,None,1212.083928199485,None,5,4.110606299713254,1212.083928199485,None,1216.2432998996228,None,1216.7508876994252,None,1216.7508876994252,None,f,0.2671693004667759,1216.7508876994252,None,,,color 27,001,2022_Feb_17_1151,ProdSingRedo,3.2.3,60.02062310338627,
,,,,42,0,42,0,,,,,,,,,,,,,,,,,,,,,,,,1220.1294952994213,None,,,,,,,,,,,,,,,,,appeal,aloud,blue,42,42,9,1217.5520802000538,None,1217.5520802000538,None,4,1.5703851003199816,1217.5520802000538,None,1219.1761047998443,None,1219.6853403002024,None,1219.6853403002024,None,r,0.41312010027468204,1219.6853403002024,None,,,color 27,001,2022_Feb_17_1151,ProdSingRedo,3.2.3,60.02062310338627,
,,,,43,0,43,0,,,,,,,,,,,,,,,,,,,,,,,,1223.3014017995447,None,,,,,,,,,,,,,,,,,country,silent,red,43,67,73,1220.654505699873,None,1220.654505699873,None,3,1.9319690996780992,1220.654505699873,None,1222.6199896000326,None,1223.139958200045,None,1223.139958200045,None,f,0.12644380051642656,1223.139958200045,None,,,color 27,001,2022_Feb_17_1151,ProdSingRedo,3.2.3,60.02062310338627,
,,,,44,0,44,0,,,,,,,,,,,,,,,,,,,,,,,,1226.702933699824,None,,,,,,,,,,,,,,,,,population,new_sing,yellow,44,93,227,1223.829094699584,None,1223.829094699584,None,1,1.9335166001692414,1223.829094699584,None,1225.815468499437,None,1226.3439929001033,None,1226.3439929001033,None,n,0.3306005001068115,1226.3439929001033,None,,,color 27,001,2022_Feb_17_1151,ProdSingRedo,3.2.3,60.02062310338627,
,,,,45,0,45,0,,,,,,,,,,,,,,,,,,,,,,,,1231.50078890007,None,,,,,,,,,,,,,,,,,danger,sing,yellow,45,8,85,1227.2325924001634,None,1227.2325924001634,None,5,3.6659367997199297,1227.2325924001634,None,1230.9401014000177,None,1231.4680778998882,None,1231.4680778998882,None,f,0.006214800290763378,1231.4680778998882,None,,,color 27,001,2022_Feb_17_1151,ProdSingRedo,3.2.3,60.02062310338627,
,,,,46,0,46,0,,,,,,,,,,,,,,,,,,,,,,,,1236.145704999566,None,,,,,,,,,,,,,,,,,bucket,silent,red,46,85,33,1232.019273799844,None,1232.019273799844,None,5,3.359097399748862,1232.019273799844,None,1235.430447699502,None,1235.947703000158,None,1235.947703000158,None,r,0.15882240049540997,1235.947703000158,None,,,color 27,001,2022_Feb_17_1151,ProdSingRedo,3.2.3,60.02062310338627,
,,,,47,0,47,0,,,,,,,,,,,,,,,,,,,,,,,,1241.1663739001378,None,,,,,,,,,,,,,,,,,discovery,new_aloud,blue,47,123,95,1236.675372700207,None,1236.675372700207,None,6,3.0950402999296784,1236.675372700207,None,1239.8170707002282,None,1240.3426024001092,None,1240.3426024001092,None,f,0.7877832995727658,1240.3426024001092,None,,,color 27,001,2022_Feb_17_1151,ProdSingRedo,3.2.3,60.02062310338627,
,,,,48,0,48,0,,,,,,,,,,,,,,,,,,,,,,,,1244.2367821997032,None,,,,,,,,,,,,,,,,,dispute,new_aloud,blue,48,126,99,1241.6940581994131,None,1241.6940581994131,None,1,1.4686745991930366,1241.6940581994131,None,1243.2081445995718,None,1243.723178599961,None,1243.723178599961,None,n,0.47917990013957024,1243.723178599961,None,,,color 27,001,2022_Feb_17_1151,ProdSingRedo,3.2.3,60.02062310338627,
,,,,49,0,49,0,,,,,,,,,,,,,,,,,,,,,,,,1247.0477873999625,None,,,,,,,,,,,,,,,,,majority,aloud,blue,49,46,176,1244.76697949972,None,1244.76697949972,None,6,1.5314760003238916,1244.76697949972,None,1246.3355967998505,None,1246.848657399416,None,1246.848657399416,None,r,0.16943230014294386,1246.848657399416,None,,,color 27,001,2022_Feb_17_1151,ProdSingRedo,3.2.3,60.02062310338627,
,,,,50,0,50,0,,,,,,,,,,,,,,,,,,,,,,,,1250.1264880001545,None,,,,,,,,,,,,,,,,,write,aloud,blue,50,58,358,1247.5622496996075,None,1247.5622496996075,None,6,1.7120221992954612,1247.5622496996075,None,1249.3222960997373,None,1249.8609106997028,None,1249.8609106997028,None,f,0.22953609935939312,1249.8609106997028,None,,,color 27,001,2022_Feb_17_1151,ProdSingRedo,3.2.3,60.02062310338627,
,,,,51,0,51,0,,,,,,,,,,,,,,,,,,,,,,,,1253.3810580996796,None,,,,,,,,,,,,,,,,,treatment,aloud,blue,51,50,339,1250.651572899893,None,1250.651572899893,None,5,1.286723599769175,1250.651572899893,None,1251.9840463995934,None,1252.5017427001148,None,1252.5017427001148,None,r,0.8527619000524282,1252.5017427001148,None,,,color 27,001,2022_Feb_17_1151,ProdSingRedo,3.2.3,60.02062310338627,
,,,,52,0,52,0,,,,,,,,,,,,,,,,,,,,,,,,1257.4182171998546,None,,,,,,,,,,,,,,,,,provision,new_sing,yellow,52,99,243,1253.9097601994872,None,1253.9097601994872,None,4,1.7563316999003291,1253.9097601994872,None,1255.697618899867,None,1256.2069619996473,None,1256.2069619996473,None,f,1.1794304000213742,1256.2069619996473,None,,,color 27,001,2022_Feb_17_1151,ProdSingRedo,3.2.3,60.02062310338627,
,,,,53,0,53,0,,,,,,,,,,,,,,,,,,,,,,,,1260.0364910000935,None,,,,,,,,,,,,,,,,,series,new_silent,red,53,163,279,1257.9379131002352,None,1257.9379131002352,None,1,1.2964097997173667,1257.9379131002352,None,1259.2815111996606,None,1259.8046271996573,None,1259.8046271996573,None,n,0.1977210994809866,1259.8046271996573,None,,,color 27,001,2022_Feb_17_1151,ProdSingRedo,3.2.3,60.02062310338627,
,,,,54,0,54,0,,,,,,,,,,,,,,,,,,,,,,,,1262.7749942000955,None,,,,,,,,,,,,,,,,,ground,new_sing,yellow,54,113,142,1260.5650402000174,None,1260.5650402000174,None,4,1.3575026001781225,1260.5650402000174,None,1261.9744828995317,None,1262.4939345000312,None,1262.4939345000312,None,f,0.2526663998141885,1262.4939345000312,None,,,color 27,001,2022_Feb_17_1151,ProdSingRedo,3.2.3,60.02062310338627,
,,,,55,0,55,0,,,,,,,,,,,,,,,,,,,,,,,,1265.45818629954,None,,,,,,,,,,,,,,,,,watch,aloud,blue,55,45,351,1263.2981471996754,None,1263.2981471996754,None,5,1.5121890995651484,1263.2981471996754,None,1264.8606111994013,None,1265.3776033995673,None,1265.3776033995673,None,r,0.05663000047206879,1265.3776033995673,None,,,color 27,001,2022_Feb_17_1151,ProdSingRedo,3.2.3,60.02062310338627,
,,,,56,0,56,0,,,,,,,,,,,,,,,,,,,,,,,,1268.3678737999871,None,,,,,,,,,,,,,,,,,crime,aloud,blue,56,54,78,1265.9783848999068,None,1265.9783848999068,None,5,1.2242358000949025,1265.9783848999068,None,1267.240776299499,None,1267.7615073993802,None,1267.7615073993802,None,n,0.5688642002642155,1267.7615073993802,None,,,color 27,001,2022_Feb_17_1151,ProdSingRedo,3.2.3,60.02062310338627,
,,,,57,0,57,0,,,,,,,,,,,,,,,,,,,,,,,,1273.93438269943,None,,,,,,,,,,,,,,,,,short,new_silent,red,57,155,285,1268.8838185993955,None,1268.8838185993955,None,1,4.294523400254548,1268.8838185993955,None,1273.226573499851,None,1273.749448900111,None,1273.749448900111,None,n,0.15689249988645315,1273.749448900111,None,,,color 27,001,2022_Feb_17_1151,ProdSingRedo,3.2.3,60.02062310338627,
,,,,58,0,58,0,,,,,,,,,,,,,,,,,,,,,,,,1277.2276957994327,None,,,,,,,,,,,,,,,,,territory,sing,yellow,58,11,324,1274.4611630998552,None,1274.4611630998552,None,6,1.565326800569892,1274.4611630998552,None,1276.0630620000884,None,1276.6026226999238,None,1276.6026226999238,None,r,0.6074708001688123,1276.6026226999238,None,,,color 27,001,2022_Feb_17_1151,ProdSingRedo,3.2.3,60.02062310338627,
,,,,59,0,59,0,,,,,,,,,,,,,,,,,,,,,,,,1280.2758678002283,None,,,,,,,,,,,,,,,,,prime,new_sing,yellow,59,90,235,1277.7431921996176,None,1277.7431921996176,None,5,1.5791906006634235,1277.7431921996176,None,1279.367215800099,None,1279.8871905999258,None,1279.8871905999258,None,r,0.34714530035853386,1279.8871905999258,None,,,color 27,001,2022_Feb_17_1151,ProdSingRedo,3.2.3,60.02062310338627,
,,,,60,0,60,0,,,,,,,,,,,,,,,,,,,,,,,,1283.2942436002195,None,,,,,,,,,,,,,,,,,service,sing,yellow,60,16,280,1280.798041800037,None,1280.798041800037,None,6,1.7082468001171947,1280.798041800037,None,1282.557570000179,None,1283.0781066995114,None,1283.0781066995114,None,r,0.1888189995661378,1283.0781066995114,None,,,color 27,001,2022_Feb_17_1151,ProdSingRedo,3.2.3,60.02062310338627,
,,,,61,0,61,0,,,,,,,,,,,,,,,,,,,,,,,,1286.2950424998999,None,,,,,,,,,,,,,,,,,owner,aloud,blue,61,34,208,1283.8250148994848,None,1283.8250148994848,None,3,1.089334400370717,1283.8250148994848,None,1284.965652199462,None,1285.483143599704,None,1285.483143599704,None,n,0.7834566999226809,1285.483143599704,None,,,color 27,001,2022_Feb_17_1151,ProdSingRedo,3.2.3,60.02062310338627,
,,,,62,0,62,0,,,,,,,,,,,,,,,,,,,,,,,,1289.530957300216,None,,,,,,,,,,,,,,,,,captain,aloud,blue,62,35,41,1286.8248674999923,None,1286.8248674999923,None,6,1.5854083001613617,1286.8248674999923,None,1288.4683454995975,None,1288.990620199591,None,1288.990620199591,None,f,0.5160874994471669,1288.990620199591,None,,,color 27,001,2022_Feb_17_1151,ProdSingRedo,3.2.3,60.02062310338627,
,,,,63,0,63,0,,,,,,,,,,,,,,,,,,,,,,,,1292.6424009995535,None,,,,,,,,,,,,,,,,,beginning,new_sing,yellow,63,108,19,1290.0663695000112,None,1290.0663695000112,None,4,1.9599186992272735,1290.0663695000112,None,1292.0710832001641,None,1292.5930238999426,None,1292.5930238999426,None,f,0.01717070024460554,1292.5930238999426,None,,,color 27,001,2022_Feb_17_1151,ProdSingRedo,3.2.3,60.02062310338627,
,,,,64,0,64,0,,,,,,,,,,,,,,,,,,,,,,,,1295.005129000172,None,,,,,,,,,,,,,,,,,disease,silent,red,64,89,97,1293.1597982998937,None,1293.1597982998937,None,5,1.114511700347066,1293.1597982998937,None,1294.319751800038,None,1294.8273219997063,None,1294.8273219997063,None,f,0.15105869993567467,1294.8273219997063,None,,,color 27,001,2022_Feb_17_1151,ProdSingRedo,3.2.3,60.02062310338627,
,,,,65,0,65,0,,,,,,,,,,,,,,,,,,,,,,,,1298.35477039963,None,,,,,,,,,,,,,,,,,afternoon,sing,yellow,65,14,3,1295.5285435002297,None,1295.5285435002297,None,6,2.186559700407088,1295.5285435002297,None,1297.7631024997681,None,1298.2791259996593,None,1298.2791259996593,None,f,0.04308380000293255,1298.2791259996593,None,,,color 27,001,2022_Feb_17_1151,ProdSingRedo,3.2.3,60.02062310338627,
,,,,66,0,66,0,,,,,,,,,,,,,,,,,,,,,,,,1301.1375739993528,None,,,,,,,,,,,,,,,,,appearance,silent,red,66,87,10,1298.8901281999424,None,1298.8901281999424,None,2,1.6161038996651769,1298.8901281999424,None,1300.5672365995124,None,1301.0818905998021,None,1301.0818905998021,None,f,0.03222090005874634,1301.0818905998021,None,,,color 27,001,2022_Feb_17_1151,ProdSingRedo,3.2.3,60.02062310338627,
,,,,67,0,67,0,,,,,,,,,,,,,,,,,,,,,,,,1304.2142834002152,None,,,,,,,,,,,,,,,,,medicine,new_silent,red,67,168,186,1301.6651758002117,None,1301.6651758002117,None,3,1.5290157003328204,1301.6651758002117,None,1303.2385248001665,None,1303.7479393994436,None,1303.7479393994436,None,n,0.4383006999269128,1303.7479393994436,None,,,color 27,001,2022_Feb_17_1151,ProdSingRedo,3.2.3,60.02062310338627,
,,,,68,0,68,0,,,,,,,,,,,,,,,,,,,,,,,,1309.0704036001116,None,,,,,,,,,,,,,,,,,smooth,sing,yellow,68,18,292,1304.7385940002277,None,1304.7385940002277,None,6,1.5277466997504234,1304.7385940002277,None,1306.3103324994445,None,1306.8238952001557,None,1306.8238952001557,None,f,2.2193940998986363,1306.8238952001557,None,,,color 27,001,2022_Feb_17_1151,ProdSingRedo,3.2.3,60.02062310338627,
,,,,69,0,69,0,,,,,,,,,,,,,,,,,,,,,,,,1313.4997370997444,None,,,,,,,,,,,,,,,,,testimony,new_sing,yellow,69,111,325,1309.5983651997522,None,1309.5983651997522,None,3,3.092064599506557,1309.5983651997522,None,1312.7376798000187,None,1313.25883120019,None,1313.25883120019,None,n,0.19945270009338856,1313.25883120019,None,,,color 27,001,2022_Feb_17_1151,ProdSingRedo,3.2.3,60.02062310338627,
,,,,70,0,70,0,,,,,,,,,,,,,,,,,,,,,,,,1317.3868493000045,None,,,,,,,,,,,,,,,,,strength,sing,yellow,70,12,310,1314.0177529994398,None,1314.0177529994398,None,6,2.3284922996535897,1314.0177529994398,None,1316.3868929995224,None,1316.915132199414,None,1316.915132199414,None,r,0.4387689996510744,1316.915132199414,None,,,color 27,001,2022_Feb_17_1151,ProdSingRedo,3.2.3,60.02062310338627,
,,,,71,0,71,0,,,,,,,,,,,,,,,,,,,,,,,,1321.21383699961,None,,,,,,,,,,,,,,,,,little,silent,red,71,76,174,1317.9017460998148,None,1317.9017460998148,None,2,1.428524000570178,1317.9017460998148,None,1319.3782981997356,None,1319.8982536997646,None,1319.8982536997646,None,f,1.2800475005060434,1319.8982536997646,None,,,color 27,001,2022_Feb_17_1151,ProdSingRedo,3.2.3,60.02062310338627,
,,,,72,0,72,0,,,,,,,,,,,,,,,,,,,,,,,,1323.750962300226,None,,,,,,,,,,,,,,,,,commercial,aloud,blue,72,41,61,1321.7415632996708,None,1321.7415632996708,None,6,1.1726582003757358,1321.7415632996708,None,1322.9671775996685,None,1323.486652799882,None,1323.486652799882,None,r,0.2356514995917678,1323.486652799882,None,,,color 27,001,2022_Feb_17_1151,ProdSingRedo,3.2.3,60.02062310338627,
,,,,73,0,73,0,,,,,,,,,,,,,,,,,,,,,,,,1326.2097764993086,None,,,,,,,,,,,,,,,,,theme,sing,yellow,73,25,326,1324.2734813997522,None,1324.2734813997522,None,5,1.1767467996105552,1324.2734813997522,None,1325.4953764993697,None,1326.0018477002159,None,1326.0018477002159,None,f,0.17631689924746752,1326.0018477002159,None,,,color 27,001,2022_Feb_17_1151,ProdSingRedo,3.2.3,60.02062310338627,
,,,,74,0,74,0,,,,,,,,,,,,,,,,,,,,,,,,1330.0049801999703,None,,,,,,,,,,,,,,,,,force,sing,yellow,74,4,131,1326.7328441999853,None,1326.7328441999853,None,6,2.245786400511861,1326.7328441999853,None,1329.0150469001383,None,1329.5246958993375,None,1329.5246958993375,None,r,0.4455839991569519,1329.5246958993375,None,,,color 27,001,2022_Feb_17_1151,ProdSingRedo,3.2.3,60.02062310338627,
,,,,75,0,75,0,,,,,,,,,,,,,,,,,,,,,,,,1333.4934411998838,None,,,,,,,,,,,,,,,,,quick,silent,red,75,81,248,1330.535381499678,None,1330.535381499678,None,5,1.9471036000177264,1330.535381499678,None,1332.5210951995105,None,1333.047471399419,None,1333.047471399419,None,f,0.41066440008580685,1333.047471399419,None,,,color 27,001,2022_Feb_17_1151,ProdSingRedo,3.2.3,60.02062310338627,
,,,,76,0,76,0,,,,,,,,,,,,,,,,,,,,,,,,1335.8448717994615,None,,,,,,,,,,,,,,,,,shear,silent,red,76,72,283,1334.0179150002077,None,1334.0179150002077,None,6,1.128256700001657,1334.0179150002077,None,1335.1905338000506,None,1335.7159802997485,None,1335.7159802997485,None,r,0.094030000269413,1335.7159802997485,None,,,color 27,001,2022_Feb_17_1151,ProdSingRedo,3.2.3,60.02062310338627,
,,,,77,0,77,0,,,,,,,,,,,,,,,,,,,,,,,,1338.4653985993937,None,,,,,,,,,,,,,,,,,course,sing,yellow,77,26,74,1336.3727946002036,None,1336.3727946002036,None,6,1.2853943994268775,1336.3727946002036,None,1337.70919900015,None,1338.2176334001124,None,1338.2176334001124,None,f,0.2087192004546523,1338.2176334001124,None,,,color 27,001,2022_Feb_17_1151,ProdSingRedo,3.2.3,60.02062310338627,
,,,,78,0,78,0,,,,,,,,,,,,,,,,,,,,,,,,1341.5341163994744,None,,,,,,,,,,,,,,,,,power,silent,red,78,86,230,1338.9914907999337,None,1338.9914907999337,None,4,1.482902000658214,1338.9914907999337,None,1340.5160700995475,None,1341.0387022998184,None,1341.0387022998184,None,r,0.4674751004204154,1341.0387022998184,None,,,color 27,001,2022_Feb_17_1151,ProdSingRedo,3.2.3,60.02062310338627,
,,,,79,0,79,0,,,,,,,,,,,,,,,,,,,,,,,,1344.5548467999324,None,,,,,,,,,,,,,,,,,sunset,new_sing,yellow,79,119,315,1342.058104899712,None,1342.058104899712,None,2,1.6162598002701998,1342.058104899712,None,1343.7238542996347,None,1344.2405292000622,None,1344.2405292000622,None,n,0.2817019997164607,1344.2405292000622,None,,,color 27,001,2022_Feb_17_1151,ProdSingRedo,3.2.3,60.02062310338627,
,,,,80,0,80,0,,,,,,,,,,,,,,,,,,,,,,,,1347.3060926999897,None,,,,,,,,,,,,,,,,,thing,new_sing,yellow,80,115,328,1345.0807481994852,None,1345.0807481994852,None,3,1.2894401997327805,1345.0807481994852,None,1346.4182003000751,None,1346.9400872001424,None,1346.9400872001424,None,f,0.342293799854815,1346.9400872001424,None,,,color 27,001,2022_Feb_17_1151,ProdSingRedo,3.2.3,60.02062310338627,
,,,,81,0,81,0,,,,,,,,,,,,,,,,,,,,,,,,1350.176189799793,None,,,,,,,,,,,,,,,,,edition,new_aloud,blue,81,120,107,1347.8316206000745,None,1347.8316206000745,None,6,1.4510460002347827,1347.8316206000745,None,1349.3215592000633,None,1349.8500881996006,None,1349.8500881996006,None,f,0.29605000000447035,1349.8500881996006,None,,,color 27,001,2022_Feb_17_1151,ProdSingRedo,3.2.3,60.02062310338627,
,,,,82,0,82,0,,,,,,,,,,,,,,,,,,,,,,,,1356.3691374994814,None,,,,,,,,,,,,,,,,,growth,aloud,blue,82,36,144,1350.7056836001575,None,1350.7056836001575,None,6,4.344478799961507,1350.7056836001575,None,1355.0984232993796,None,1355.619505399838,None,1355.619505399838,None,r,0.7107531996443868,1355.619505399838,None,,,color 27,001,2022_Feb_17_1151,ProdSingRedo,3.2.3,60.02062310338627,
,,,,83,0,83,0,,,,,,,,,,,,,,,,,,,,,,,,1358.919412999414,None,,,,,,,,,,,,,,,,,express,new_silent,red,83,157,124,1356.8895379994065,None,1356.8895379994065,None,5,1.2567316005006433,1356.8895379994065,None,1358.194740199484,None,1358.7195801995695,None,1358.7195801995695,None,f,0.17059200070798397,1358.7195801995695,None,,,color 27,001,2022_Feb_17_1151,ProdSingRedo,3.2.3,60.02062310338627,
,,,,84,0,84,0,,,,,,,,,,,,,,,,,,,,,,,,1361.3372248001397,None,,,,,,,,,,,,,,,,,judge,new_silent,red,84,152,166,1359.447527400218,None,1359.447527400218,None,3,1.2347293002530932,1359.447527400218,None,1360.7392115993425,None,1361.2579529993236,None,1361.2579529993236,None,f,0.04027619957923889,1361.2579529993236,None,,,color 27,001,2022_Feb_17_1151,ProdSingRedo,3.2.3,60.02062310338627,
,,,,85,0,85,0,,,,,,,,,,,,,,,,,,,,,,,,1366.699235599488,None,,,,,,,,,,,,,,,,,quantity,new_sing,yellow,85,102,245,1361.8687220001593,None,1361.8687220001593,None,1,3.757384800352156,1361.8687220001593,None,1365.6805871995166,None,1366.2025346998125,None,1366.2025346998125,None,n,0.46332470048218966,1366.2025346998125,None,,,color 27,001,2022_Feb_17_1151,ProdSingRedo,3.2.3,60.02062310338627,
,,,,86,0,86,0,,,,,,,,,,,,,,,,,,,,,,,,1369.3463180996478,None,,,,,,,,,,,,,,,,,court,silent,red,86,68,75,1367.203297299333,None,1367.203297299333,None,4,1.406908399425447,1367.203297299333,None,1368.6601713998243,None,1369.1812346000224,None,1369.1812346000224,None,f,0.13287189975380898,1369.1812346000224,None,,,color 27,001,2022_Feb_17_1151,ProdSingRedo,3.2.3,60.02062310338627,
,,,,87,0,87,0,,,,,,,,,,,,,,,,,,,,,,,,1374.6178797995672,None,,,,,,,,,,,,,,,,,people,aloud,blue,87,47,216,1369.868207800202,None,1369.868207800202,None,5,3.3579473001882434,1369.868207800202,None,1373.2608659993857,None,1373.7835598001257,None,1373.7835598001257,None,f,0.8024908993393183,1373.7835598001257,None,,,color 27,001,2022_Feb_17_1151,ProdSingRedo,3.2.3,60.02062310338627,
,,,,88,0,88,0,,,,,,,,,,,,,,,,,,,,,,,,1377.1370789995417,None,,,,,,,,,,,,,,,,,member,new_aloud,blue,88,132,188,1375.145626699552,None,1375.145626699552,None,4,1.1205398999154568,1375.145626699552,None,1376.3173116995022,None,1376.8424351001158,None,1376.8424351001158,None,n,0.2556867999956012,1376.8424351001158,None,,,color 27,001,2022_Feb_17_1151,ProdSingRedo,3.2.3,60.02062310338627,
,,,,89,0,89,0,,,,,,,,,,,,,,,,,,,,,,,,1379.7653585001826,None,,,,,,,,,,,,,,,,,incident,aloud,blue,89,37,158,1377.6608777996153,None,1377.6608777996153,None,3,1.3011026000604033,1377.6608777996153,None,1378.98151780013,None,1379.5099021000788,None,1379.5099021000788,None,r,0.2360175997018814,1379.5099021000788,None,,,color 27,001,2022_Feb_17_1151,ProdSingRedo,3.2.3,60.02062310338627,
,,,,90,0,90,0,,,,,,,,,,,,,,,,,,,,,,,,1382.696532299742,None,,,,,,,,,,,,,,,,,foundation,new_aloud,blue,90,143,132,1380.2820643000305,None,1380.2820643000305,None,1,1.4239966999739408,1380.2820643000305,None,1381.7631644997746,None,1382.2891843998805,None,1382.2891843998805,None,f,0.3689345996826887,1382.2891843998805,None,,,color 27,001,2022_Feb_17_1151,ProdSingRedo,3.2.3,60.02062310338627,
,,,,91,0,91,0,,,,,,,,,,,,,,,,,,,,,,,,1387.0790703995153,None,,,,,,,,,,,,,,,,,republic,new_silent,red,91,177,260,1383.2206699997187,None,1383.2206699997187,None,3,3.18948769941926,1383.2206699997187,None,1386.4589178999886,None,1386.9685183996335,None,1386.9685183996335,None,f,0.081611099652946,1386.9685183996335,None,,,color 27,001,2022_Feb_17_1151,ProdSingRedo,3.2.3,60.02062310338627,
,,,,92,0,92,0,,,,,,,,,,,,,,,,,,,,,,,,1389.6189387999475,None,,,,,,,,,,,,,,,,,community,aloud,blue,92,52,63,1387.611379799433,None,1387.611379799433,None,5,1.271047099493444,1387.611379799433,None,1388.9348580995575,None,1389.458285599947,None,1389.458285599947,None,f,0.12780840042978525,1389.458285599947,None,,,color 27,001,2022_Feb_17_1151,ProdSingRedo,3.2.3,60.02062310338627,
,,,,93,0,93,0,,,,,,,,,,,,,,,,,,,,,,,,1394.0542529998347,None,,,,,,,,,,,,,,,,,turkey,silent,red,93,77,342,1390.1499675000086,None,1390.1499675000086,None,6,2.9481890005990863,1390.1499675000086,None,1393.157184300013,None,1393.6773303998634,None,1393.6773303998634,None,r,0.34875529911369085,1393.6773303998634,None,,,color 27,001,2022_Feb_17_1151,ProdSingRedo,3.2.3,60.02062310338627,
,,,,94,0,94,0,,,,,,,,,,,,,,,,,,,,,,,,1397.0315012000501,None,,,,,,,,,,,,,,,,,detective,new_silent,red,94,167,92,1394.5818285997957,None,1394.5818285997957,None,2,1.7483609998598695,1394.5818285997957,None,1396.374122899957,None,1396.880297199823,None,1396.880297199823,None,n,0.12958330009132624,1396.880297199823,None,,,color 27,001,2022_Feb_17_1151,ProdSingRedo,3.2.3,60.02062310338627,
,,,,95,0,95,0,,,,,,,,,,,,,,,,,,,,,,,,1400.0422251997516,None,,,,,,,,,,,,,,,,,weight,new_aloud,blue,95,127,353,1397.5327228000388,None,1397.5327228000388,None,6,1.5894520999863744,1397.5327228000388,None,1399.1737588001415,None,1399.6819471996278,None,1399.6819471996278,None,f,0.3363934000954032,1399.6819471996278,None,,,color 27,001,2022_Feb_17_1151,ProdSingRedo,3.2.3,60.02062310338627,
,,,,96,0,96,0,,,,,,,,,,,,,,,,,,,,,,,,1403.1114079998806,None,,,,,,,,,,,,,,,,,master,new_silent,red,96,176,180,1400.564533399418,None,1400.564533399418,None,5,1.5336258998140693,1400.564533399418,None,1402.1440749997273,None,1402.6673529995605,None,1402.6673529995605,None,f,0.41468700021505356,1402.6673529995605,None,,,color 27,001,2022_Feb_17_1151,ProdSingRedo,3.2.3,60.02062310338627,
,,,,97,0,97,0,,,,,,,,,,,,,,,,,,,,,,,,1406.7335847998038,None,,,,,,,,,,,,,,,,,property,new_silent,red,97,164,242,1403.6379164997488,None,1403.6379164997488,None,6,1.5642486000433564,1403.6379164997488,None,1405.24219049979,None,1405.769106099382,None,1405.769106099382,None,r,0.9289622996002436,1405.769106099382,None,,,color 27,001,2022_Feb_17_1151,ProdSingRedo,3.2.3,60.02062310338627,
,,,,98,0,98,0,,,,,,,,,,,,,,,,,,,,,,,,1410.9539871998131,None,,,,,,,,,,,,,,,,,youth,aloud,blue,98,39,359,1407.2682173997164,None,1407.2682173997164,None,6,2.8138886000961065,1407.2682173997164,None,1410.1332187997177,None,1410.6621639002115,None,1410.6621639002115,None,f,0.2678954005241394,1410.6621639002115,None,,,color 27,001,2022_Feb_17_1151,ProdSingRedo,3.2.3,60.02062310338627,
,,,,99,0,99,0,,,,,,,,,,,,,,,,,,,,,,,,1413.8399088000879,None,,,,,,,,,,,,,,,,,atmosphere,sing,yellow,99,27,12,1411.4784853998572,None,1411.4784853998572,None,5,1.6755043007433414,1411.4784853998572,None,1413.2051532994956,None,1413.7255681995302,None,1413.7255681995302,None,r,0.07655389979481697,1413.7255681995302,None,,,color 27,001,2022_Feb_17_1151,ProdSingRedo,3.2.3,60.02062310338627,
,,,,100,0,100,0,,,,,,,,,,,,,,,,,,,,,,,,1416.60117849987,None,,,,,,,,,,,,,,,,,couch,new_aloud,blue,100,135,70,1414.3663340993226,None,1414.3663340993226,None,1,1.4117108006030321,1414.3663340993226,None,1415.8256129994988,None,1416.3447904000059,None,1416.3447904000059,None,n,0.22509170044213533,1416.3447904000059,None,,,color 27,001,2022_Feb_17_1151,ProdSingRedo,3.2.3,60.02062310338627,
,,,,101,0,101,0,,,,,,,,,,,,,,,,,,,,,,,,1419.21437219996,None,,,,,,,,,,,,,,,,,background,new_silent,red,101,153,16,1417.1292595993727,None,1417.1292595993727,None,2,1.2890996998175979,1417.1292595993727,None,1418.469952300191,None,1418.9755288995802,None,1418.9755288995802,None,n,0.21069050021469593,1418.9755288995802,None,,,color 27,001,2022_Feb_17_1151,ProdSingRedo,3.2.3,60.02062310338627,
,,,,102,0,102,0,,,,,,,,,,,,,,,,,,,,,,,,1423.3329421998933,None,,,,,,,,,,,,,,,,,range,new_sing,yellow,102,100,251,1419.7421356998384,None,1419.7421356998384,None,5,1.7640040004625916,1419.7421356998384,None,1421.5477350996807,None,1422.0706476997584,None,1422.0706476997584,None,f,1.2358401007950306,1422.0706476997584,None,,,color 27,001,2022_Feb_17_1151,ProdSingRedo,3.2.3,60.02062310338627,
,,,,103,0,103,0,,,,,,,,,,,,,,,,,,,,,,,,1426.33593450021,None,,,,,,,,,,,,,,,,,still,new_silent,red,103,162,304,1423.8570723999292,None,1423.8570723999292,None,6,1.6892357002943754,1423.8570723999292,None,1425.6067816000432,None,1426.1186149995774,None,1426.1186149995774,None,r,0.18751110043376684,1426.1186149995774,None,,,color 27,001,2022_Feb_17_1151,ProdSingRedo,3.2.3,60.02062310338627,
,,,,104,0,104,0,,,,,,,,,,,,,,,,,,,,,,,,1429.9993428997695,None,,,,,,,,,,,,,,,,,cousin,new_sing,yellow,104,95,76,1426.8465833999217,None,1426.8465833999217,None,6,2.0591484997421503,1426.8465833999217,None,1428.9310133000836,None,1429.4461186993867,None,1429.4461186993867,None,r,0.523581400513649,1429.4461186993867,None,,,color 27,001,2022_Feb_17_1151,ProdSingRedo,3.2.3,60.02062310338627,
,,,,105,0,105,0,,,,,,,,,,,,,,,,,,,,,,,,1435.7524031996727,None,,,,,,,,,,,,,,,,,revolution,new_silent,red,105,170,264,1430.5143681000918,None,1430.5143681000918,None,3,4.3512947000563145,1430.5143681000918,None,1434.887499500066,None,1435.4019773993641,None,1435.4019773993641,None,f,0.3277124995365739,1435.4019773993641,None,,,color 27,001,2022_Feb_17_1151,ProdSingRedo,3.2.3,60.02062310338627,
,,,,106,0,106,0,,,,,,,,,,,,,,,,,,,,,,,,1439.2894917000085,None,,,,,,,,,,,,,,,,,thick,new_sing,yellow,106,98,327,1436.2528360998258,None,1436.2528360998258,None,1,1.341012299992144,1436.2528360998258,None,1437.622161399573,None,1438.121299999766,None,1438.121299999766,None,n,1.1524380994960666,1438.121299999766,None,,,color 27,001,2022_Feb_17_1151,ProdSingRedo,3.2.3,60.02062310338627,
,,,,107,0,107,0,,,,,,,,,,,,,,,,,,,,,,,,1444.6280054999515,None,,,,,,,,,,,,,,,,,reading,silent,red,107,74,254,1439.8011806998402,None,1439.8011806998402,None,4,3.992609499953687,1439.8011806998402,None,1443.8235769998282,None,1444.3276322996244,None,1444.3276322996244,None,f,0.2741063004359603,1444.3276322996244,None,,,color 27,001,2022_Feb_17_1151,ProdSingRedo,3.2.3,60.02062310338627,
,,,,108,0,108,0,,,,,,,,,,,,,,,,,,,,,,,,1447.3140025995672,None,,,,,,,,,,,,,,,,,waste,new_silent,red,108,174,350,1445.1288701994345,None,1445.1288701994345,None,1,1.4491021996363997,1445.1288701994345,None,1446.5986811993644,None,1447.1136109000072,None,1447.1136109000072,None,n,0.17605780065059662,1447.1136109000072,None,,,color 27,001,2022_Feb_17_1151,ProdSingRedo,3.2.3,60.02062310338627,
,,,,109,0,109,0,,,,,,,,,,,,,,,,,,,,,,,,1450.183702999726,None,,,,,,,,,,,,,,,,,measure,sing,yellow,109,28,184,1447.8145003998652,None,1447.8145003998652,None,6,1.6191424997523427,1447.8145003998652,None,1449.4566549994051,None,1449.9667400997132,None,1449.9667400997132,None,r,0.1869976995512843,1449.9667400997132,None,,,color 27,001,2022_Feb_17_1151,ProdSingRedo,3.2.3,60.02062310338627,
,,,,110,0,110,0,,,,,,,,,,,,,,,,,,,,,,,,1452.5399805996567,None,,,,,,,,,,,,,,,,,profession,new_aloud,blue,110,145,241,1450.687148699537,None,1450.687148699537,None,4,1.1068302998319268,1450.687148699537,None,1451.8449385995045,None,1452.36804609932,None,1452.36804609932,None,f,0.12191869970411062,1452.36804609932,None,,,color 27,001,2022_Feb_17_1151,ProdSingRedo,3.2.3,60.02062310338627,
,,,,111,0,111,0,,,,,,,,,,,,,,,,,,,,,,,,1456.9907456999645,None,,,,,,,,,,,,,,,,,religion,sing,yellow,111,19,258,1453.0712815998122,None,1453.0712815998122,None,6,3.042695000767708,1453.0712815998122,None,1456.158169299364,None,1456.6755400998518,None,1456.6755400998518,None,r,0.2860487001016736,1456.6755400998518,None,,,color 27,001,2022_Feb_17_1151,ProdSingRedo,3.2.3,60.02062310338627,
,,,,112,0,112,0,,,,,,,,,,,,,,,,,,,,,,,,1461.637962399982,None,,,,,,,,,,,,,,,,,benefit,new_sing,yellow,112,114,20,1457.4932872997597,None,1457.4932872997597,None,6,2.9486020002514124,1457.4932872997597,None,1460.4877562001348,None,1461.0067815994844,None,1461.0067815994844,None,r,0.6034299004822969,1461.0067815994844,None,,,color 27,001,2022_Feb_17_1151,ProdSingRedo,3.2.3,60.02062310338627,
,,,,113,0,113,0,,,,,,,,,,,,,,,,,,,,,,,,1466.6419471995905,None,,,,,,,,,,,,,,,,,working,aloud,blue,113,33,357,1462.1672001993284,None,1462.1672001993284,None,4,1.2826944002881646,1462.1672001993284,None,1463.5032671000808,None,1464.0340443998575,None,1464.0340443998575,None,f,2.5758538004010916,1464.0340443998575,None,,,color 27,001,2022_Feb_17_1151,ProdSingRedo,3.2.3,60.02062310338627,
,,,,114,0,114,0,,,,,,,,,,,,,,,,,,,,,,,,1470.9209115002304,None,,,,,,,,,,,,,,,,,article,new_sing,yellow,114,110,11,1467.1680378001183,None,1467.1680378001183,None,1,1.4501820001751184,1467.1680378001183,None,1468.6568181999028,None,1469.178857599385,None,1469.178857599385,None,n,1.7267364002764225,1469.178857599385,None,,,color 27,001,2022_Feb_17_1151,ProdSingRedo,3.2.3,60.02062310338627,
,,,,115,0,115,0,,,,,,,,,,,,,,,,,,,,,,,,1473.5047263996676,None,,,,,,,,,,,,,,,,,carry,new_aloud,blue,115,141,43,1471.4325450994074,None,1471.4325450994074,None,1,1.1774573996663094,1471.4325450994074,None,1472.665839499794,None,1473.189191499725,None,1473.189191499725,None,f,0.2852348992601037,1473.189191499725,None,,,color 27,001,2022_Feb_17_1151,ProdSingRedo,3.2.3,60.02062310338627,
,,,,116,0,116,0,,,,,,,,,,,,,,,,,,,,,,,,1476.1858655000106,None,,,,,,,,,,,,,,,,,dance,new_silent,red,116,166,84,1474.0245178993791,None,1474.0245178993791,None,3,1.337563800625503,1474.0245178993791,None,1475.4117622999474,None,1475.9360671993345,None,1475.9360671993345,None,n,0.2258344003930688,1475.9360671993345,None,,,color 27,001,2022_Feb_17_1151,ProdSingRedo,3.2.3,60.02062310338627,
,,,,117,0,117,0,,,,,,,,,,,,,,,,,,,,,,,,1479.021062400192,None,,,,,,,,,,,,,,,,,beauty,aloud,blue,117,48,18,1476.7182144001126,None,1476.7182144001126,None,5,1.459829700179398,1476.7182144001126,None,1478.223444399424,None,1478.7504727002233,None,1478.7504727002233,None,f,0.24341270048171282,1478.7504727002233,None,,,color 27,001,2022_Feb_17_1151,ProdSingRedo,3.2.3,60.02062310338627,
,,,,118,0,118,0,,,,,,,,,,,,,,,,,,,,,,,,1482.7151848999783,None,,,,,,,,,,,,,,,,,cover,new_aloud,blue,118,128,77,1479.5473028002307,None,1479.5473028002307,None,4,1.2387191997841,1479.5473028002307,None,1480.8397215995938,None,1481.3633463000879,None,1481.3633463000879,None,r,1.3194503001868725,1481.3633463000879,None,,,color 27,001,2022_Feb_17_1151,ProdSingRedo,3.2.3,60.02062310338627,
,,,,119,0,119,0,,,,,,,,,,,,,,,,,,,,,,,,1485.5605905996636,None,,,,,,,,,,,,,,,,,permit,new_aloud,blue,119,146,218,1483.2186668999493,None,1483.2186668999493,None,3,1.4159540999680758,1483.2186668999493,None,1484.673909000121,None,1485.1949610998854,None,1485.1949610998854,None,n,0.34300300013273954,1485.1949610998854,None,,,color 27,001,2022_Feb_17_1151,ProdSingRedo,3.2.3,60.02062310338627,
,,,,120,0,120,0,,,,,,,,,,,,,,,,,,,,,,,,1488.335223599337,None,,,,,,,,,,,,,,,,,drink,silent,red,120,79,105,1486.0750698996708,None,1486.0750698996708,None,2,1.5189104992896318,1486.0750698996708,None,1487.6435645995662,None,1488.1654962999746,None,1488.1654962999746,None,n,0.13256660010665655,1488.1654962999746,None,,,color 27,001,2022_Feb_17_1151,ProdSingRedo,3.2.3,60.02062310338627,
,,,,121,0,121,0,,,,,,,,,,,,,,,,,,,,,,,,1492.113541599363,None,,,,,,,,,,,,,,,,,region,new_sing,yellow,121,117,256,1488.8576959995553,None,1488.8576959995553,None,6,2.3124620001763105,1488.8576959995553,None,1491.2171625001356,None,1491.7401820002124,None,1491.7401820002124,None,f,0.33399520069360733,1491.7401820002124,None,,,color 27,001,2022_Feb_17_1151,ProdSingRedo,3.2.3,60.02062310338627,
,,,,122,0,122,0,,,,,,,,,,,,,,,,,,,,,,,,1495.4197980994359,None,,,,,,,,,,,,,,,,,graduate,new_aloud,blue,122,129,141,1492.652090399526,None,1492.652090399526,None,2,1.9980241004377604,1492.652090399526,None,1494.7119050994515,None,1495.2155583994463,None,1495.2155583994463,None,n,0.1704703001305461,1495.2155583994463,None,,,color 27,001,2022_Feb_17_1151,ProdSingRedo,3.2.3,60.02062310338627,
,,,,123,0,123,0,,,,,,,,,,,,,,,,,,,,,,,,1500.1919534998015,None,,,,,,,,,,,,,,,,,voice,new_silent,red,123,171,348,1495.9464568998665,None,1495.9464568998665,None,4,2.5115561997517943,1495.9464568998665,None,1498.5067112995312,None,1499.0275996997952,None,1499.0275996997952,None,f,1.1262276004999876,1499.0275996997952,None,,,color 27,001,2022_Feb_17_1151,ProdSingRedo,3.2.3,60.02062310338627,
,,,,124,0,124,0,,,,,,,,,,,,,,,,,,,,,,,,1504.6301114996895,None,,,,,,,,,,,,,,,,,sleep,new_sing,yellow,124,106,290,1500.7142126001418,None,1500.7142126001418,None,6,3.19156329985708,1500.7142126001418,None,1503.9381192000583,None,1504.4467487996444,None,1504.4467487996444,None,f,0.15511210076510906,1504.4467487996444,None,,,color 27,001,2022_Feb_17_1151,ProdSingRedo,3.2.3,60.02062310338627,
,,,,125,0,125,0,,,,,,,,,,,,,,,,,,,,,,,,1507.4739379994571,None,,,,,,,,,,,,,,,,,close,new_aloud,blue,125,149,53,1505.152903799899,None,1505.152903799899,None,5,1.4489220008254051,1505.152903799899,None,1506.6414200002328,None,1507.1571159996092,None,1507.1571159996092,None,r,0.3003700999543071,1507.1571159996092,None,,,color 27,001,2022_Feb_17_1151,ProdSingRedo,3.2.3,60.02062310338627,
,,,,126,0,126,0,,,,,,,,,,,,,,,,,,,,,,,,1509.9747430998832,None,,,,,,,,,,,,,,,,,right,new_sing,yellow,126,105,265,1507.9797256002203,None,1507.9797256002203,None,6,1.102207399904728,1507.9797256002203,None,1509.1322657000273,None,1509.6542855994776,None,1509.6542855994776,None,r,0.2835739003494382,1509.6542855994776,None,,,color 27,001,2022_Feb_17_1151,ProdSingRedo,3.2.3,60.02062310338627,
,,,,127,0,127,0,,,,,,,,,,,,,,,,,,,,,,,,1513.655805199407,None,,,,,,,,,,,,,,,,,estate,new_silent,red,127,178,119,1510.5010191993788,None,1510.5010191993788,None,3,1.8208081992343068,1510.5010191993788,None,1512.3683607000858,None,1512.8945623999462,None,1512.8945623999462,None,f,0.7232912993058562,1512.8945623999462,None,,,color 27,001,2022_Feb_17_1151,ProdSingRedo,3.2.3,60.02062310338627,
,,,,128,0,128,0,,,,,,,,,,,,,,,,,,,,,,,,1516.454433299601,None,,,,,,,,,,,,,,,,,accident,sing,yellow,128,13,0,1514.1841807002202,None,1514.1841807002202,None,6,1.6256545996293426,1514.1841807002202,None,1515.8527684994042,None,1516.3687535999343,None,1516.3687535999343,None,r,0.056946899741888046,1516.3687535999343,None,,,color 27,001,2022_Feb_17_1151,ProdSingRedo,3.2.3,60.02062310338627,
,,,,129,0,129,0,,,,,,,,,,,,,,,,,,,,,,,,1519.5617266995832,None,,,,,,,,,,,,,,,,,length,sing,yellow,129,7,169,1516.9668753994629,None,1516.9668753994629,None,5,1.9309938997030258,1516.9668753994629,None,1518.9401171999052,None,1519.4719824995846,None,1519.4719824995846,None,r,0.06600699946284294,1519.4719824995846,None,,,color 27,001,2022_Feb_17_1151,ProdSingRedo,3.2.3,60.02062310338627,
,,,,130,0,130,0,,,,,,,,,,,,,,,,,,,,,,,,1522.3144177999347,None,,,,,,,,,,,,,,,,,science,aloud,blue,130,59,275,1520.0849020993337,None,1520.0849020993337,None,2,1.5969372000545263,1520.0849020993337,None,1521.7253505000845,None,1522.2461711997166,None,1522.2461711997166,None,n,0.027789700776338577,1522.2461711997166,None,,,color 27,001,2022_Feb_17_1151,ProdSingRedo,3.2.3,60.02062310338627,
,,,,131,0,131,0,,,,,,,,,,,,,,,,,,,,,,,,1530.8892222996801,None,,,,,,,,,,,,,,,,,mechanical,new_aloud,blue,131,147,185,1522.8405683999881,None,1522.8405683999881,None,2,7.385257499292493,1522.8405683999881,None,1530.2763040997088,None,1530.7957579996437,None,1530.7957579996437,None,n,0.06201949995011091,1530.7957579996437,None,,,color 27,001,2022_Feb_17_1151,ProdSingRedo,3.2.3,60.02062310338627,
,,,,132,0,132,0,,,,,,,,,,,,,,,,,,,,,,,,1533.540474999696,None,,,,,,,,,,,,,,,,,period,aloud,blue,132,38,217,1531.4125042995438,None,1531.4125042995438,None,6,1.5094333002343774,1531.4125042995438,None,1532.9697690000758,None,1533.4938036995009,None,1533.4938036995009,None,r,0.012324700132012367,1533.4938036995009,None,,,color 27,001,2022_Feb_17_1151,ProdSingRedo,3.2.3,60.02062310338627,
,,,,133,0,133,0,,,,,,,,,,,,,,,,,,,,,,,,1536.980268499814,None,,,,,,,,,,,,,,,,,symbol,new_sing,yellow,133,116,321,1534.0711300997064,None,1534.0711300997064,None,6,1.9226041994988918,1534.0711300997064,None,1536.0509628998116,None,1536.5678448993713,None,1536.5678448993713,None,f,0.3861277997493744,1536.5678448993713,None,,,color 27,001,2022_Feb_17_1151,ProdSingRedo,3.2.3,60.02062310338627,
,,,,134,0,134,0,,,,,,,,,,,,,,,,,,,,,,,,1539.4811333995312,None,,,,,,,,,,,,,,,,,public,new_aloud,blue,134,121,244,1537.5052515994757,None,1537.5052515994757,None,6,1.160589300096035,1537.5052515994757,None,1538.7100337995216,None,1539.235935899429,None,1539.235935899429,None,r,0.221819999627769,1539.235935899429,None,,,color 27,001,2022_Feb_17_1151,ProdSingRedo,3.2.3,60.02062310338627,
,,,,135,0,135,0,,,,,,,,,,,,,,,,,,,,,,,,1542.9706290997565,None,,,,,,,,,,,,,,,,,light,silent,red,135,80,171,1540.0072070993483,None,1540.0072070993483,None,6,2.258851000107825,1540.0072070993483,None,1542.3117584995925,None,1542.838264199905,None,1542.838264199905,None,r,0.09958049934357405,1542.838264199905,None,,,color 27,001,2022_Feb_17_1151,ProdSingRedo,3.2.3,60.02062310338627,
,,,,136,0,136,0,,,,,,,,,,,,,,,,,,,,,,,,1545.720928600058,None,,,,,,,,,,,,,,,,,alert,sing,yellow,136,10,6,1543.4793670000508,None,1543.4793670000508,None,6,1.41058489959687,1543.4793670000508,None,1544.9350650999695,None,1545.4553122995421,None,1545.4553122995421,None,r,0.2351409997791052,1545.4553122995421,None,,,color 27,001,2022_Feb_17_1151,ProdSingRedo,3.2.3,60.02062310338627,
,,,,137,0,137,0,,,,,,,,,,,,,,,,,,,,,,,,1548.5242689000443,None,,,,,,,,,,,,,,,,,institute,silent,red,137,63,162,1546.2461270000786,None,1546.2461270000786,None,5,1.5638253996148705,1546.2461270000786,None,1547.8559758998454,None,1548.381705599837,None,1548.381705599837,None,r,0.11635549925267696,1548.381705599837,None,,,color 27,001,2022_Feb_17_1151,ProdSingRedo,3.2.3,60.02062310338627,
,,,,138,0,138,0,,,,,,,,,,,,,,,,,,,,,,,,1551.0966528002173,None,,,,,,,,,,,,,,,,,income,silent,red,138,88,159,1549.045691399835,None,1549.045691399835,None,4,1.228285700082779,1549.045691399835,None,1550.3179736994207,None,1550.8267748998478,None,1550.8267748998478,None,r,0.2390684001147747,1550.8267748998478,None,,,color 27,001,2022_Feb_17_1151,ProdSingRedo,3.2.3,60.02062310338627,
,,,,139,0,139,0,,,,,,,,,,,,,,,,,,,,,,,,1554.0459966994822,None,,,,,,,,,,,,,,,,,rapid,sing,yellow,139,3,252,1551.6185926999897,None,1551.6185926999897,None,3,1.5110591994598508,1551.6185926999897,None,1553.168972699903,None,1553.6809951998293,None,1553.6809951998293,None,r,0.3287594001740217,1553.6809951998293,None,,,color 27,001,2022_Feb_17_1151,ProdSingRedo,3.2.3,60.02062310338627,
,,,,140,0,140,0,,,,,,,,,,,,,,,,,,,,,,,,1556.982298899442,None,,,,,,,,,,,,,,,,,husband,new_silent,red,140,179,156,1554.5742876995355,None,1554.5742876995355,None,1,1.563560999929905,1554.5742876995355,None,1556.188021400012,None,1556.7063222993165,None,1556.7063222993165,None,n,0.23950229957699776,1556.7063222993165,None,,,color 27,001,2022_Feb_17_1151,ProdSingRedo,3.2.3,60.02062310338627,
,,,,141,0,141,0,,,,,,,,,,,,,,,,,,,,,,,,1559.5025031995028,None,,,,,,,,,,,,,,,,,pretty,new_silent,red,141,154,233,1557.510049299337,None,1557.510049299337,None,3,1.1639258991926908,1557.510049299337,None,1558.7152370000258,None,1559.2380499998108,None,1559.2380499998108,None,n,0.23566849995404482,1559.2380499998108,None,,,color 27,001,2022_Feb_17_1151,ProdSingRedo,3.2.3,60.02062310338627,
,,,,142,0,142,0,,,,,,,,,,,,,,,,,,,,,,,,1562.3202740997076,None,,,,,,,,,,,,,,,,,raise,new_sing,yellow,142,103,250,1560.019597299397,None,1560.019597299397,None,5,1.414296600036323,1560.019597299397,None,1561.4804582996294,None,1562.006184199825,None,1562.006184199825,None,f,0.2756144003942609,1562.006184199825,None,,,color 27,001,2022_Feb_17_1151,ProdSingRedo,3.2.3,60.02062310338627,
,,,,143,0,143,0,,,,,,,,,,,,,,,,,,,,,,,,1566.2451031999663,None,,,,,,,,,,,,,,,,,stand,silent,red,143,83,302,1562.8425281001255,None,1562.8425281001255,None,6,2.767229100689292,1562.8425281001255,None,1565.651073699817,None,1566.1616396000609,None,1566.1616396000609,None,r,0.05637359991669655,1566.1616396000609,None,,,color 27,001,2022_Feb_17_1151,ProdSingRedo,3.2.3,60.02062310338627,
,,,,144,0,144,0,,,,,,,,,,,,,,,,,,,,,,,,1570.4790838994086,None,,,,,,,,,,,,,,,,,place,new_silent,red,144,151,222,1566.768373100087,None,1566.768373100087,None,6,1.3613056000322104,1566.768373100087,None,1568.172782599926,None,1568.6984767001122,None,1568.6984767001122,None,n,1.7433155002072453,1568.6984767001122,None,,,color 27,001,2022_Feb_17_1151,ProdSingRedo,3.2.3,60.02062310338627,
,,,,145,0,145,0,,,,,,,,,,,,,,,,,,,,,,,,1573.6307354997844,None,,,,,,,,,,,,,,,,,election,new_aloud,blue,145,138,109,1571.0027222996578,None,1571.0027222996578,None,4,1.567033899948001,1571.0027222996578,None,1572.6087764995173,None,1573.1301750997081,None,1573.1301750997081,None,f,0.4635124998167157,1573.1301750997081,None,,,color 27,001,2022_Feb_17_1151,ProdSingRedo,3.2.3,60.02062310338627,
,,,,146,0,146,0,,,,,,,,,,,,,,,,,,,,,,,,1576.8600842999294,None,,,,,,,,,,,,,,,,,expansion,new_sing,yellow,146,92,123,1574.1523599000648,None,1574.1523599000648,None,2,1.4813617998734117,1574.1523599000648,None,1575.6914665000513,None,1576.207152299583,None,1576.207152299583,None,f,0.6345726996660233,1576.207152299583,None,,,color 27,001,2022_Feb_17_1151,ProdSingRedo,3.2.3,60.02062310338627,
,,,,147,0,147,0,,,,,,,,,,,,,,,,,,,,,,,,1581.222663000226,None,,,,,,,,,,,,,,,,,count,new_silent,red,147,172,72,1577.3631771001965,None,1577.3631771001965,None,6,2.8465789007022977,1577.3631771001965,None,1580.253508400172,None,1580.7649988001212,None,1580.7649988001212,None,f,0.4287005001679063,1580.7649988001212,None,,,color 27,001,2022_Feb_17_1151,ProdSingRedo,3.2.3,60.02062310338627,
,,,,148,0,148,0,,,,,,,,,,,,,,,,,,,,,,,,1583.8095998996869,None,,,,,,,,,,,,,,,,,mankind,new_aloud,blue,148,134,178,1581.751947700046,None,1581.751947700046,None,1,1.4337833002209663,1581.751947700046,None,1583.2451802995056,None,1583.7523982999846,None,1583.7523982999846,None,n,0.033336699940264225,1583.7523982999846,None,,,color 27,001,2022_Feb_17_1151,ProdSingRedo,3.2.3,60.02062310338627,
,,,,149,0,149,0,,,,,,,,,,,,,,,,,,,,,,,,1586.761409100145,None,,,,,,,,,,,,,,,,,union,aloud,blue,149,43,344,1584.336283499375,None,1584.336283499375,None,6,1.3614486996084452,1584.336283499375,None,1585.7483767000958,None,1586.2627323996276,None,1586.2627323996276,None,r,0.466928000561893,1586.2627323996276,None,,,color 27,001,2022_Feb_17_1151,ProdSingRedo,3.2.3,60.02062310338627,
,,,,150,0,150,0,,,,,,,,,,,,,,,,,,,,,,,,1589.7639605998993,None,,,,,,,,,,,,,,,,,agency,sing,yellow,150,29,4,1587.291637700051,None,1587.291637700051,None,5,1.6701229000464082,1587.291637700051,None,1589.0157399997115,None,1589.5362614002079,None,1589.5362614002079,None,f,0.19366080034524202,1589.5362614002079,None,,,color 27,001,2022_Feb_17_1151,ProdSingRedo,3.2.3,60.02062310338627,
,,,,151,0,151,0,,,,,,,,,,,,,,,,,,,,,,,,1592.2336519993842,None,,,,,,,,,,,,,,,,,object,sing,yellow,151,5,204,1590.294896800071,None,1590.294896800071,None,6,1.154746100306511,1590.294896800071,None,1591.501254399307,None,1592.00704749953,None,1592.00704749953,None,r,0.20286010019481182,1592.00704749953,None,,,color 27,001,2022_Feb_17_1151,ProdSingRedo,3.2.3,60.02062310338627,
,,,,152,0,152,0,,,,,,,,,,,,,,,,,,,,,,,,1594.8039784999564,None,,,,,,,,,,,,,,,,,guest,new_silent,red,152,158,146,1592.7586242994294,None,1592.7586242994294,None,5,1.363047600723803,1592.7586242994294,None,1594.172423100099,None,1594.6886201994494,None,1594.6886201994494,None,r,0.08920089993625879,1594.6886201994494,None,,,color 27,001,2022_Feb_17_1151,ProdSingRedo,3.2.3,60.02062310338627,
,,,,153,0,153,0,,,,,,,,,,,,,,,,,,,,,,,,1597.6902064997703,None,,,,,,,,,,,,,,,,,opening,sing,yellow,153,6,205,1595.329018799588,None,1595.329018799588,None,6,1.224621900357306,1595.329018799588,None,1596.6038742000237,None,1597.123467599973,None,1597.123467599973,None,r,0.534248000010848,1597.123467599973,None,,,color 27,001,2022_Feb_17_1151,ProdSingRedo,3.2.3,60.02062310338627,
,,,,154,0,154,0,,,,,,,,,,,,,,,,,,,,,,,,1601.1937074000016,None,,,,,,,,,,,,,,,,,stranger,aloud,blue,154,49,309,1598.2210503993556,None,1598.2210503993556,None,4,2.2050375007092953,1598.2210503993556,None,1600.477545099333,None,1601.0011511994526,None,1601.0011511994526,None,f,0.16069390065968037,1601.0011511994526,None,,,color 27,001,2022_Feb_17_1151,ProdSingRedo,3.2.3,60.02062310338627,
,,,,155,0,155,0,,,,,,,,,,,,,,,,,,,,,,,,1603.7885369993746,None,,,,,,,,,,,,,,,,,trail,silent,red,155,62,336,1601.7186091002077,None,1601.7186091002077,None,6,1.2910815998911858,1601.7186091002077,None,1603.059154599905,None,1603.5817505996674,None,1603.5817505996674,None,f,0.18773599993437529,1603.5817505996674,None,,,color 27,001,2022_Feb_17_1151,ProdSingRedo,3.2.3,60.02062310338627,
,,,,156,0,156,0,,,,,,,,,,,,,,,,,,,,,,,,1608.1179545000196,None,,,,,,,,,,,,,,,,,review,silent,red,156,70,263,1604.3151548001915,None,1604.3151548001915,None,6,2.207424799911678,1604.3151548001915,None,1606.56991309952,None,1607.0743386000395,None,1607.0743386000395,None,r,1.0158438002690673,1607.0743386000395,None,,,color 27,001,2022_Feb_17_1151,ProdSingRedo,3.2.3,60.02062310338627,
,,,,157,0,157,0,,,,,,,,,,,,,,,,,,,,,,,,1611.0202754996717,None,,,,,,,,,,,,,,,,,patient,silent,red,157,60,213,1608.6444116998464,None,1608.6444116998464,None,4,1.5173361003398895,1608.6444116998464,None,1610.206811199896,None,1610.7247500000522,None,1610.7247500000522,None,r,0.2692203000187874,1610.7247500000522,None,,,color 27,001,2022_Feb_17_1151,ProdSingRedo,3.2.3,60.02062310338627,
,,,,158,0,158,0,,,,,,,,,,,,,,,,,,,,,,,,1614.8565267995,None,,,,,,,,,,,,,,,,,leader,new_silent,red,158,161,168,1611.5451405001804,None,1611.5451405001804,None,6,2.648442399688065,1611.5451405001804,None,1614.23885879945,None,1614.745113699697,None,1614.745113699697,None,r,0.08851879928261042,1614.745113699697,None,,,color 27,001,2022_Feb_17_1151,ProdSingRedo,3.2.3,60.02062310338627,
,,,,159,0,159,0,,,,,,,,,,,,,,,,,,,,,,,,1618.8772676000372,None,,,,,,,,,,,,,,,,,generation,new_sing,yellow,159,107,136,1615.3851878996938,None,1615.3851878996938,None,3,1.5601719999685884,1615.3851878996938,None,1616.974924299866,None,1617.4943931996822,None,1617.4943931996822,None,f,1.355231599882245,1617.4943931996822,None,,,color 27,001,2022_Feb_17_1151,ProdSingRedo,3.2.3,60.02062310338627,
,,,,160,0,160,0,,,,,,,,,,,,,,,,,,,,,,,,1623.0982892997563,None,,,,,,,,,,,,,,,,,relation,new_aloud,blue,160,136,257,1619.4046130999923,None,1619.4046130999923,None,4,1.8850481994450092,1619.4046130999923,None,1621.3292590994388,None,1621.8506507994607,None,1621.8506507994607,None,f,1.222996899858117,1621.8506507994607,None,,,color 27,001,2022_Feb_17_1151,ProdSingRedo,3.2.3,60.02062310338627,
,,,,161,0,161,0,,,,,,,,,,,,,,,,,,,,,,,,1626.3518733996898,None,,,,,,,,,,,,,,,,,session,silent,red,161,73,281,1623.6150243999436,None,1623.6150243999436,None,6,1.7623076001182199,1623.6150243999436,None,1625.4106831001118,None,1625.9177402993664,None,1625.9177402993664,None,r,0.3958356995135546,1625.9177402993664,None,,,color 27,001,2022_Feb_17_1151,ProdSingRedo,3.2.3,60.02062310338627,
,,,,162,0,162,0,,,,,,,,,,,,,,,,,,,,,,,,1629.2213191995397,None,,,,,,,,,,,,,,,,,fashion,new_silent,red,162,150,125,1626.8786817993969,None,1626.8786817993969,None,5,1.5388822993263602,1626.8786817993969,None,1628.4540062993765,None,1628.9719171999022,None,1628.9719171999022,None,r,0.22177799977362156,1628.9719171999022,None,,,color 27,001,2022_Feb_17_1151,ProdSingRedo,3.2.3,60.02062310338627,
,,,,163,0,163,0,,,,,,,,,,,,,,,,,,,,,,,,1632.256972199306,None,,,,,,,,,,,,,,,,,empty,sing,yellow,163,1,112,1629.7473818995059,None,1629.7473818995059,None,6,1.238171299919486,1629.7473818995059,None,1631.0434550000355,None,1631.5566820995882,None,1631.5566820995882,None,f,0.6771456999704242,1631.5566820995882,None,,,color 27,001,2022_Feb_17_1151,ProdSingRedo,3.2.3,60.02062310338627,
,,,,164,0,164,0,,,,,,,,,,,,,,,,,,,,,,,,1634.9783592997119,None,,,,,,,,,,,,,,,,,produce,new_silent,red,164,173,239,1632.7852560002357,None,1632.7852560002357,None,6,1.336366499774158,1632.7852560002357,None,1634.1706294994801,None,1634.6806415999308,None,1634.6806415999308,None,r,0.2729799998924136,1634.6806415999308,None,,,color 27,001,2022_Feb_17_1151,ProdSingRedo,3.2.3,60.02062310338627,
,,,,165,0,165,0,,,,,,,,,,,,,,,,,,,,,,,,1638.3637827001512,None,,,,,,,,,,,,,,,,,safety,new_sing,yellow,165,97,270,1635.5147954998538,None,1635.5147954998538,None,6,1.3664643997326493,1635.5147954998538,None,1636.9104897994548,None,1637.422422000207,None,1637.422422000207,None,r,0.9154885997995734,1637.422422000207,None,,,color 27,001,2022_Feb_17_1151,ProdSingRedo,3.2.3,60.02062310338627,
,,,,166,0,166,0,,,,,,,,,,,,,,,,,,,,,,,,1642.4173045996577,None,,,,,,,,,,,,,,,,,state,aloud,blue,166,44,303,1638.8900731997564,None,1638.8900731997564,None,5,2.5195512995123863,1638.8900731997564,None,1641.447558700107,None,1641.9550032997504,None,1641.9550032997504,None,r,0.4305688999593258,1641.9550032997504,None,,,color 27,001,2022_Feb_17_1151,ProdSingRedo,3.2.3,60.02062310338627,
,,,,167,0,167,0,,,,,,,,,,,,,,,,,,,,,,,,1647.9897504001856,None,,,,,,,,,,,,,,,,,entrance,new_aloud,blue,167,125,115,1642.9452877994627,None,1642.9452877994627,None,3,4.056490300223231,1642.9452877994627,None,1647.0542385000736,None,1647.5633488995954,None,1647.5633488995954,None,n,0.3901971997693181,1647.5633488995954,None,,,color 27,001,2022_Feb_17_1151,ProdSingRedo,3.2.3,60.02062310338627,
,,,,168,0,168,0,,,,,,,,,,,,,,,,,,,,,,,,1650.9935162998736,None,,,,,,,,,,,,,,,,,command,aloud,blue,168,57,60,1648.5190554000437,None,1648.5190554000437,None,5,1.610538300126791,1648.5190554000437,None,1650.175634600222,None,1650.6965331993997,None,1650.6965331993997,None,f,0.26512099988758564,1650.6965331993997,None,,,color 27,001,2022_Feb_17_1151,ProdSingRedo,3.2.3,60.02062310338627,
,,,,169,0,169,0,,,,,,,,,,,,,,,,,,,,,,,,1653.5973071996123,None,,,,,,,,,,,,,,,,,trial,new_aloud,blue,169,137,341,1651.5197636997327,None,1651.5197636997327,None,6,1.289801400154829,1651.5197636997327,None,1652.8578893002123,None,1653.3796387994662,None,1653.3796387994662,None,f,0.1818971000611782,1653.3796387994662,None,,,color 27,001,2022_Feb_17_1151,ProdSingRedo,3.2.3,60.02062310338627,
,,,,170,0,170,0,,,,,,,,,,,,,,,,,,,,,,,,1656.4851116994396,None,,,,,,,,,,,,,,,,,direction,aloud,blue,170,40,94,1654.1172569999471,None,1654.1172569999471,None,4,1.532417199574411,1654.1172569999471,None,1655.7013012999669,None,1656.2156095001847,None,1656.2156095001847,None,f,0.2255972996354103,1656.2156095001847,None,,,color 27,001,2022_Feb_17_1151,ProdSingRedo,3.2.3,60.02062310338627,
,,,,171,0,171,0,,,,,,,,,,,,,,,,,,,,,,,,1660.0352885993198,None,,,,,,,,,,,,,,,,,sweet,aloud,blue,171,56,319,1657.0094433994964,None,1657.0094433994964,None,5,1.784141599200666,1657.0094433994964,None,1658.848419699818,None,1659.3526139995083,None,1659.3526139995083,None,f,0.6570188999176025,1659.3526139995083,None,,,color 27,001,2022_Feb_17_1151,ProdSingRedo,3.2.3,60.02062310338627,
,,,,172,0,172,0,,,,,,,,,,,,,,,,,,,,,,,,1662.7906248997897,None,,,,,,,,,,,,,,,,,junior,new_silent,red,172,169,167,1660.5632795002311,None,1660.5632795002311,None,2,1.198106499388814,1660.5632795002311,None,1661.7965666996315,None,1662.3111127996817,None,1662.3111127996817,None,n,0.4425432998687029,1662.3111127996817,None,,,color 27,001,2022_Feb_17_1151,ProdSingRedo,3.2.3,60.02062310338627,
,,,,173,0,173,0,,,,,,,,,,,,,,,,,,,,,,,,1665.240236000158,None,,,,,,,,,,,,,,,,,store,new_sing,yellow,173,94,305,1663.3096004994586,None,1663.3096004994586,None,1,1.18795819953084,1663.3096004994586,None,1664.5339685995132,None,1665.057170599699,None,1665.057170599699,None,n,0.1444159997627139,1665.057170599699,None,,,color 27,001,2022_Feb_17_1151,ProdSingRedo,3.2.3,60.02062310338627,
,,,,174,0,174,0,,,,,,,,,,,,,,,,,,,,,,,,1667.852483799681,None,,,,,,,,,,,,,,,,,substance,new_aloud,blue,174,133,313,1665.7707684999332,None,1665.7707684999332,None,5,1.3345280000939965,1665.7707684999332,None,1667.1423284998164,None,1667.6502296999097,None,1667.6502296999097,None,r,0.18324169982224703,1667.6502296999097,None,,,color 27,001,2022_Feb_17_1151,ProdSingRedo,3.2.3,60.02062310338627,
,,,,175,0,175,0,,,,,,,,,,,,,,,,,,,,,,,,1670.8730785995722,None,,,,,,,,,,,,,,,,,cross,new_sing,yellow,175,91,80,1668.367537099868,None,1668.367537099868,None,6,1.3779822997748852,1668.367537099868,None,1669.7888731993735,None,1670.3096087994054,None,1670.3096087994054,None,f,0.539907000027597,1670.3096087994054,None,,,color 27,001,2022_Feb_17_1151,ProdSingRedo,3.2.3,60.02062310338627,
,,,,176,0,176,0,,,,,,,,,,,,,,,,,,,,,,,,1673.3806112995371,None,,,,,,,,,,,,,,,,,finish,new_silent,red,176,175,130,1671.4024943998083,None,1671.4024943998083,None,5,1.1510538002476096,1671.4024943998083,None,1672.597841899842,None,1673.1229861993343,None,1673.1229861993343,None,f,0.22266860026866198,1673.1229861993343,None,,,color 27,001,2022_Feb_17_1151,ProdSingRedo,3.2.3,60.02062310338627,
,,,,177,0,177,0,,,,,,,,,,,,,,,,,,,,,,,,1678.3527251994237,None,,,,,,,,,,,,,,,,,discussion,new_aloud,blue,177,144,96,1673.9053152995184,None,1673.9053152995184,None,6,2.0563118997961283,1673.9053152995184,None,1676.0190787995234,None,1676.5444430997595,None,1676.5444430997595,None,r,1.7691261004656553,1676.5444430997595,None,,,color 27,001,2022_Feb_17_1151,ProdSingRedo,3.2.3,60.02062310338627,
,,,,178,0,178,0,,,,,,,,,,,,,,,,,,,,,,,,1681.18982199952,None,,,,,,,,,,,,,,,,,shock,sing,yellow,178,2,284,1678.8848516000435,None,1678.8848516000435,None,6,1.4367682998999953,1678.8848516000435,None,1680.369249499403,None,1680.8901434997097,None,1680.8901434997097,None,f,0.27136070001870394,1680.8901434997097,None,,,color 27,001,2022_Feb_17_1151,ProdSingRedo,3.2.3,60.02062310338627,
,,,,179,0,179,0,,,,,,,,,,,,,,,,,,,,,,,,1684.5112616997212,None,,,,,,,,,,,,,,,,,second,silent,red,179,66,278,1681.712269200012,None,1681.712269200012,None,5,1.7696201000362635,1681.712269200012,None,1683.5119372000918,None,1684.02591669932,None,1684.02591669932,None,n,0.4476979002356529,1684.02591669932,None,,,color 27,001,2022_Feb_17_1151,ProdSingRedo,3.2.3,60.02062310338627,
,,,,,,,,,,,,,,,,,,,,,,,,,,,,,,,,,,,,,,,,,,,,,,,,,,,,,,,,,,,,,,,,,,,,,,,,,1685.018873299472,None,,,,,,,
