StudyLoop.thisRepN,StudyLoop.thisTrialN,StudyLoop.thisN,StudyLoop.thisIndex,TestLoop.thisRepN,TestLoop.thisTrialN,TestLoop.thisN,TestLoop.thisIndex,textCondition.started,textCondition.stopped,keyCondition.keys,keyCondition.rt,keyCondition.started,keyCondition.stopped,Condition,stim_colors,color_sing,color_aloud,color_silent,textWelcome.started,textWelcome.stopped,keyWelcome.keys,keyWelcome.rt,keyWelcome.started,keyWelcome.stopped,textAloud.started,textAloud.stopped,textSilent.started,textSilent.stopped,textSing.started,textSing.stopped,textBlank500.started,textBlank500.stopped,study_word,study_type,study_color,study_num,study_word_num,textStudy.started,textStudy.stopped,keyStudy.keys,keyStudy.started,keyStudy.stopped,textTestInstructions.started,textTestInstructions.stopped,key_resp_3.keys,key_resp_3.rt,key_resp_3.started,key_resp_3.stopped,testWord,testType,testColor,testN,test_num,test_word_num,textConf.started,textConf.stopped,textConfScale.started,textConfScale.stopped,keyConf.keys,keyConf.rt,keyConf.started,keyConf.stopped,textTestBlank.started,textTestBlank.stopped,textRKN.started,textRKN.stopped,textRKNScale.started,textRKNScale.stopped,keyRKN.keys,keyRKN.rt,keyRKN.started,keyRKN.stopped,textEnd.started,textEnd.stopped,participant,session,date,expName,psychopyVersion,frameRate,
,,,,,,,,25.04062299989164,None,y,1.8073672000318766,25.04062299989164,None,,,,,,,,,,,,,,,,,,,,,,,,,,,,,,,,,,,,,,,,,,,,,,,,,,,,,,,,,,,,,,Color33,001,2022_Apr_08_1137,ProdSingRedo,3.2.3,59.956782766068706,
,,,,,,,,,,,,,,ColoredTest,"['yellow', 'blue', 'red']",yellow,blue,red,26.89086159877479,None,space,1429.562606299296,26.89086159877479,None,,,,,,,,,,,,,,,,,,,,,,,,,,,,,,,,,,,,,,,,,,,,,,,,,,,Color33,001,2022_Apr_08_1137,ProdSingRedo,3.2.3,59.956782766068706,
0,0,0,0,,,,,,,,,,,,,,,,,,,,,,26.89086159877479,None,26.89086159877479,None,26.89086159877479,None,1459.0156439002603,None,people,silent,red,70,216,1457.002842400223,None,None,1457.002842400223,None,,,,,,,,,,,,,,,,,,,,,,,,,,,,,,,,,Color33,001,2022_Apr_08_1137,ProdSingRedo,3.2.3,59.956782766068706,
1,0,1,0,,,,,,,,,,,,,,,,,,,,,,,,,,,,1461.5334427002817,None,salary,sing,yellow,29,271,1459.5433895997703,None,None,1459.5433895997703,None,,,,,,,,,,,,,,,,,,,,,,,,,,,,,,,,,Color33,001,2022_Apr_08_1137,ProdSingRedo,3.2.3,59.956782766068706,
2,0,2,0,,,,,,,,,,,,,,,,,,,,,,,,,,,,1464.0495440997183,None,object,silent,red,78,204,1462.0587236993015,None,None,1462.0587236993015,None,,,,,,,,,,,,,,,,,,,,,,,,,,,,,,,,,Color33,001,2022_Apr_08_1137,ProdSingRedo,3.2.3,59.956782766068706,
3,0,3,0,,,,,,,,,,,,,,,,,,,,,,,,,,,,1466.5670095998794,None,smooth,aloud,blue,36,292,1464.5585505999625,None,None,1464.5585505999625,None,,,,,,,,,,,,,,,,,,,,,,,,,,,,,,,,,Color33,001,2022_Apr_08_1137,ProdSingRedo,3.2.3,59.956782766068706,
4,0,4,0,,,,,,,,,,,,,,,,,,,,,,,,,,,,1469.0839051995426,None,minor,sing,yellow,17,191,1467.0756602995098,None,None,1467.0756602995098,None,,,,,,,,,,,,,,,,,,,,,,,,,,,,,,,,,Color33,001,2022_Apr_08_1137,ProdSingRedo,3.2.3,59.956782766068706,
5,0,5,0,,,,,,,,,,,,,,,,,,,,,,,,,,,,1471.6005536001176,None,agreement,sing,yellow,5,5,1469.5965620987117,None,None,1469.5965620987117,None,,,,,,,,,,,,,,,,,,,,,,,,,,,,,,,,,Color33,001,2022_Apr_08_1137,ProdSingRedo,3.2.3,59.956782766068706,
6,0,6,0,,,,,,,,,,,,,,,,,,,,,,,,,,,,1474.1175683997571,None,personnel,silent,red,89,219,1472.1103917993605,None,None,1472.1103917993605,None,,,,,,,,,,,,,,,,,,,,,,,,,,,,,,,,,Color33,001,2022_Apr_08_1137,ProdSingRedo,3.2.3,59.956782766068706,
7,0,7,0,,,,,,,,,,,,,,,,,,,,,,,,,,,,1476.6342673990875,None,space,sing,yellow,8,297,1474.630707198754,None,None,1474.630707198754,None,,,,,,,,,,,,,,,,,,,,,,,,,,,,,,,,,Color33,001,2022_Apr_08_1137,ProdSingRedo,3.2.3,59.956782766068706,
8,0,8,0,,,,,,,,,,,,,,,,,,,,,,,,,,,,1479.1503090001643,None,short,sing,yellow,22,285,1477.1439952999353,None,None,1477.1439952999353,None,,,,,,,,,,,,,,,,,,,,,,,,,,,,,,,,,Color33,001,2022_Apr_08_1137,ProdSingRedo,3.2.3,59.956782766068706,
9,0,9,0,,,,,,,,,,,,,,,,,,,,,,,,,,,,1481.6687549985945,None,marriage,silent,red,64,179,1479.6677208989859,None,None,1479.6677208989859,None,,,,,,,,,,,,,,,,,,,,,,,,,,,,,,,,,Color33,001,2022_Apr_08_1137,ProdSingRedo,3.2.3,59.956782766068706,
10,0,10,0,,,,,,,,,,,,,,,,,,,,,,,,,,,,1484.1848022993654,None,capital,aloud,blue,40,40,1482.1835944000632,None,None,1482.1835944000632,None,,,,,,,,,,,,,,,,,,,,,,,,,,,,,,,,,Color33,001,2022_Apr_08_1137,ProdSingRedo,3.2.3,59.956782766068706,
11,0,11,0,,,,,,,,,,,,,,,,,,,,,,,,,,,,1486.7016382999718,None,straight,silent,red,68,307,1484.7014917992055,None,None,1484.7014917992055,None,,,,,,,,,,,,,,,,,,,,,,,,,,,,,,,,,Color33,001,2022_Apr_08_1137,ProdSingRedo,3.2.3,59.956782766068706,
12,0,12,0,,,,,,,,,,,,,,,,,,,,,,,,,,,,1489.2184899002314,None,danger,aloud,blue,51,85,1487.2172346990556,None,None,1487.2172346990556,None,,,,,,,,,,,,,,,,,,,,,,,,,,,,,,,,,Color33,001,2022_Apr_08_1137,ProdSingRedo,3.2.3,59.956782766068706,
13,0,13,0,,,,,,,,,,,,,,,,,,,,,,,,,,,,1491.735312398523,None,sleep,aloud,blue,39,290,1489.729978499934,None,None,1489.729978499934,None,,,,,,,,,,,,,,,,,,,,,,,,,,,,,,,,,Color33,001,2022_Apr_08_1137,ProdSingRedo,3.2.3,59.956782766068706,
14,0,14,0,,,,,,,,,,,,,,,,,,,,,,,,,,,,1494.2524017002434,None,population,silent,red,67,227,1492.2507044002414,None,None,1492.2507044002414,None,,,,,,,,,,,,,,,,,,,,,,,,,,,,,,,,,Color33,001,2022_Apr_08_1137,ProdSingRedo,3.2.3,59.956782766068706,
15,0,15,0,,,,,,,,,,,,,,,,,,,,,,,,,,,,1496.769000498578,None,welcome,aloud,blue,45,354,1494.7649510987103,None,None,1494.7649510987103,None,,,,,,,,,,,,,,,,,,,,,,,,,,,,,,,,,Color33,001,2022_Apr_08_1137,ProdSingRedo,3.2.3,59.956782766068706,
16,0,16,0,,,,,,,,,,,,,,,,,,,,,,,,,,,,1499.2858559992164,None,whole,aloud,blue,52,355,1497.281462399289,None,None,1497.281462399289,None,,,,,,,,,,,,,,,,,,,,,,,,,,,,,,,,,Color33,001,2022_Apr_08_1137,ProdSingRedo,3.2.3,59.956782766068706,
17,0,17,0,,,,,,,,,,,,,,,,,,,,,,,,,,,,1501.8026608992368,None,permit,silent,red,85,218,1499.7944342996925,None,None,1499.7944342996925,None,,,,,,,,,,,,,,,,,,,,,,,,,,,,,,,,,Color33,001,2022_Apr_08_1137,ProdSingRedo,3.2.3,59.956782766068706,
18,0,18,0,,,,,,,,,,,,,,,,,,,,,,,,,,,,1504.3195302989334,None,reading,sing,yellow,11,254,1502.3041444998235,None,None,1502.3041444998235,None,,,,,,,,,,,,,,,,,,,,,,,,,,,,,,,,,Color33,001,2022_Apr_08_1137,ProdSingRedo,3.2.3,59.956782766068706,
19,0,19,0,,,,,,,,,,,,,,,,,,,,,,,,,,,,1506.8363140989095,None,contract,silent,red,60,68,1504.8338098991662,None,None,1504.8338098991662,None,,,,,,,,,,,,,,,,,,,,,,,,,,,,,,,,,Color33,001,2022_Apr_08_1137,ProdSingRedo,3.2.3,59.956782766068706,
20,0,20,0,,,,,,,,,,,,,,,,,,,,,,,,,,,,1509.3531403001398,None,entrance,sing,yellow,27,115,1507.3493668995798,None,None,1507.3493668995798,None,,,,,,,,,,,,,,,,,,,,,,,,,,,,,,,,,Color33,001,2022_Apr_08_1137,ProdSingRedo,3.2.3,59.956782766068706,
21,0,21,0,,,,,,,,,,,,,,,,,,,,,,,,,,,,1511.8701133001596,None,comfort,sing,yellow,1,59,1509.8668682985008,None,None,1509.8668682985008,None,,,,,,,,,,,,,,,,,,,,,,,,,,,,,,,,,Color33,001,2022_Apr_08_1137,ProdSingRedo,3.2.3,59.956782766068706,
22,0,22,0,,,,,,,,,,,,,,,,,,,,,,,,,,,,1514.3860248997808,None,degree,silent,red,88,89,1512.3821178991348,None,None,1512.3821178991348,None,,,,,,,,,,,,,,,,,,,,,,,,,,,,,,,,,Color33,001,2022_Apr_08_1137,ProdSingRedo,3.2.3,59.956782766068706,
23,0,23,0,,,,,,,,,,,,,,,,,,,,,,,,,,,,1516.9036378990859,None,surprise,sing,yellow,15,317,1514.8897718992084,None,None,1514.8897718992084,None,,,,,,,,,,,,,,,,,,,,,,,,,,,,,,,,,Color33,001,2022_Apr_08_1137,ProdSingRedo,3.2.3,59.956782766068706,
24,0,24,0,,,,,,,,,,,,,,,,,,,,,,,,,,,,1519.4204693995416,None,recall,sing,yellow,4,255,1517.414284998551,None,None,1517.414284998551,None,,,,,,,,,,,,,,,,,,,,,,,,,,,,,,,,,Color33,001,2022_Apr_08_1137,ProdSingRedo,3.2.3,59.956782766068706,
25,0,25,0,,,,,,,,,,,,,,,,,,,,,,,,,,,,1521.9373199995607,None,measure,sing,yellow,21,184,1519.936830298975,None,None,1519.936830298975,None,,,,,,,,,,,,,,,,,,,,,,,,,,,,,,,,,Color33,001,2022_Apr_08_1137,ProdSingRedo,3.2.3,59.956782766068706,
26,0,26,0,,,,,,,,,,,,,,,,,,,,,,,,,,,,1524.454480798915,None,trial,sing,yellow,25,341,1522.449722899124,None,None,1522.449722899124,None,,,,,,,,,,,,,,,,,,,,,,,,,,,,,,,,,Color33,001,2022_Apr_08_1137,ProdSingRedo,3.2.3,59.956782766068706,
27,0,27,0,,,,,,,,,,,,,,,,,,,,,,,,,,,,1526.9710834994912,None,institute,aloud,blue,34,162,1524.9641517996788,None,None,1524.9641517996788,None,,,,,,,,,,,,,,,,,,,,,,,,,,,,,,,,,Color33,001,2022_Apr_08_1137,ProdSingRedo,3.2.3,59.956782766068706,
28,0,28,0,,,,,,,,,,,,,,,,,,,,,,,,,,,,1529.4904971998185,None,month,silent,red,72,193,1527.4824998993427,None,None,1527.4824998993427,None,,,,,,,,,,,,,,,,,,,,,,,,,,,,,,,,,Color33,001,2022_Apr_08_1137,ProdSingRedo,3.2.3,59.956782766068706,
29,0,29,0,,,,,,,,,,,,,,,,,,,,,,,,,,,,1532.0046200994402,None,dream,aloud,blue,31,104,1530.0003680996597,None,None,1530.0003680996597,None,,,,,,,,,,,,,,,,,,,,,,,,,,,,,,,,,Color33,001,2022_Apr_08_1137,ProdSingRedo,3.2.3,59.956782766068706,
30,0,30,0,,,,,,,,,,,,,,,,,,,,,,,,,,,,1534.5214109998196,None,minute,aloud,blue,50,192,1532.5200990997255,None,None,1532.5200990997255,None,,,,,,,,,,,,,,,,,,,,,,,,,,,,,,,,,Color33,001,2022_Apr_08_1137,ProdSingRedo,3.2.3,59.956782766068706,
31,0,31,0,,,,,,,,,,,,,,,,,,,,,,,,,,,,1537.0383303985,None,century,aloud,blue,38,45,1535.0242388993502,None,None,1535.0242388993502,None,,,,,,,,,,,,,,,,,,,,,,,,,,,,,,,,,Color33,001,2022_Apr_08_1137,ProdSingRedo,3.2.3,59.956782766068706,
32,0,32,0,,,,,,,,,,,,,,,,,,,,,,,,,,,,1539.555109899491,None,master,aloud,blue,42,180,1537.5401922985911,None,None,1537.5401922985911,None,,,,,,,,,,,,,,,,,,,,,,,,,,,,,,,,,Color33,001,2022_Apr_08_1137,ProdSingRedo,3.2.3,59.956782766068706,
33,0,33,0,,,,,,,,,,,,,,,,,,,,,,,,,,,,1542.0719329994172,None,block,silent,red,63,25,1540.0717128999531,None,None,1540.0717128999531,None,,,,,,,,,,,,,,,,,,,,,,,,,,,,,,,,,Color33,001,2022_Apr_08_1137,ProdSingRedo,3.2.3,59.956782766068706,
34,0,34,0,,,,,,,,,,,,,,,,,,,,,,,,,,,,1544.572129899636,None,story,silent,red,80,306,1542.572829399258,None,None,1542.572829399258,None,,,,,,,,,,,,,,,,,,,,,,,,,,,,,,,,,Color33,001,2022_Apr_08_1137,ProdSingRedo,3.2.3,59.956782766068706,
35,0,35,0,,,,,,,,,,,,,,,,,,,,,,,,,,,,1547.088949099183,None,equipment,sing,yellow,23,116,1545.0972732994705,None,None,1545.0972732994705,None,,,,,,,,,,,,,,,,,,,,,,,,,,,,,,,,,Color33,001,2022_Apr_08_1137,ProdSingRedo,3.2.3,59.956782766068706,
36,0,36,0,,,,,,,,,,,,,,,,,,,,,,,,,,,,1549.6074043996632,None,republic,silent,red,84,260,1547.607096400112,None,None,1547.607096400112,None,,,,,,,,,,,,,,,,,,,,,,,,,,,,,,,,,Color33,001,2022_Apr_08_1137,ProdSingRedo,3.2.3,59.956782766068706,
37,0,37,0,,,,,,,,,,,,,,,,,,,,,,,,,,,,1552.1226025987417,None,growth,silent,red,69,144,1550.1210930999368,None,None,1550.1210930999368,None,,,,,,,,,,,,,,,,,,,,,,,,,,,,,,,,,Color33,001,2022_Apr_08_1137,ProdSingRedo,3.2.3,59.956782766068706,
38,0,38,0,,,,,,,,,,,,,,,,,,,,,,,,,,,,1554.6394843999296,None,position,silent,red,83,229,1552.6322337985039,None,None,1552.6322337985039,None,,,,,,,,,,,,,,,,,,,,,,,,,,,,,,,,,Color33,001,2022_Apr_08_1137,ProdSingRedo,3.2.3,59.956782766068706,
39,0,39,0,,,,,,,,,,,,,,,,,,,,,,,,,,,,1557.1563537996262,None,balance,sing,yellow,3,17,1555.1564497984946,None,None,1555.1564497984946,None,,,,,,,,,,,,,,,,,,,,,,,,,,,,,,,,,Color33,001,2022_Apr_08_1137,ProdSingRedo,3.2.3,59.956782766068706,
40,0,40,0,,,,,,,,,,,,,,,,,,,,,,,,,,,,1559.6731496993452,None,south,sing,yellow,14,296,1557.6688128001988,None,None,1557.6688128001988,None,,,,,,,,,,,,,,,,,,,,,,,,,,,,,,,,,Color33,001,2022_Apr_08_1137,ProdSingRedo,3.2.3,59.956782766068706,
41,0,41,0,,,,,,,,,,,,,,,,,,,,,,,,,,,,1562.1899135001004,None,question,sing,yellow,6,247,1560.1882376987487,None,None,1560.1882376987487,None,,,,,,,,,,,,,,,,,,,,,,,,,,,,,,,,,Color33,001,2022_Apr_08_1137,ProdSingRedo,3.2.3,59.956782766068706,
42,0,42,0,,,,,,,,,,,,,,,,,,,,,,,,,,,,1564.7068497985601,None,novel,aloud,blue,57,202,1562.709128499031,None,None,1562.709128499031,None,,,,,,,,,,,,,,,,,,,,,,,,,,,,,,,,,Color33,001,2022_Apr_08_1137,ProdSingRedo,3.2.3,59.956782766068706,
43,0,43,0,,,,,,,,,,,,,,,,,,,,,,,,,,,,1567.2235781997442,None,message,aloud,blue,48,189,1565.2208148986101,None,None,1565.2208148986101,None,,,,,,,,,,,,,,,,,,,,,,,,,,,,,,,,,Color33,001,2022_Apr_08_1137,ProdSingRedo,3.2.3,59.956782766068706,
44,0,44,0,,,,,,,,,,,,,,,,,,,,,,,,,,,,1569.7405213993043,None,review,aloud,blue,32,263,1567.7396815996617,None,None,1567.7396815996617,None,,,,,,,,,,,,,,,,,,,,,,,,,,,,,,,,,Color33,001,2022_Apr_08_1137,ProdSingRedo,3.2.3,59.956782766068706,
45,0,45,0,,,,,,,,,,,,,,,,,,,,,,,,,,,,1572.2572615984827,None,damage,sing,yellow,24,83,1570.2556238994002,None,None,1570.2556238994002,None,,,,,,,,,,,,,,,,,,,,,,,,,,,,,,,,,Color33,001,2022_Apr_08_1137,ProdSingRedo,3.2.3,59.956782766068706,
46,0,46,0,,,,,,,,,,,,,,,,,,,,,,,,,,,,1574.7574054002762,None,accident,aloud,blue,44,0,1572.7558749001473,None,None,1572.7558749001473,None,,,,,,,,,,,,,,,,,,,,,,,,,,,,,,,,,Color33,001,2022_Apr_08_1137,ProdSingRedo,3.2.3,59.956782766068706,
47,0,47,0,,,,,,,,,,,,,,,,,,,,,,,,,,,,1577.274105899036,None,escape,aloud,blue,35,118,1575.2722758986056,None,None,1575.2722758986056,None,,,,,,,,,,,,,,,,,,,,,,,,,,,,,,,,,Color33,001,2022_Apr_08_1137,ProdSingRedo,3.2.3,59.956782766068706,
48,0,48,0,,,,,,,,,,,,,,,,,,,,,,,,,,,,1579.7910813000053,None,company,aloud,blue,47,64,1577.7887541987002,None,None,1577.7887541987002,None,,,,,,,,,,,,,,,,,,,,,,,,,,,,,,,,,Color33,001,2022_Apr_08_1137,ProdSingRedo,3.2.3,59.956782766068706,
49,0,49,0,,,,,,,,,,,,,,,,,,,,,,,,,,,,1582.3074197992682,None,state,sing,yellow,2,303,1580.3025186993182,None,None,1580.3025186993182,None,,,,,,,,,,,,,,,,,,,,,,,,,,,,,,,,,Color33,001,2022_Apr_08_1137,ProdSingRedo,3.2.3,59.956782766068706,
50,0,50,0,,,,,,,,,,,,,,,,,,,,,,,,,,,,1584.8247413989156,None,individual,silent,red,75,160,1582.8258996997029,None,None,1582.8258996997029,None,,,,,,,,,,,,,,,,,,,,,,,,,,,,,,,,,Color33,001,2022_Apr_08_1137,ProdSingRedo,3.2.3,59.956782766068706,
51,0,51,0,,,,,,,,,,,,,,,,,,,,,,,,,,,,1587.34033029899,None,display,sing,yellow,9,98,1585.3370623998344,None,None,1585.3370623998344,None,,,,,,,,,,,,,,,,,,,,,,,,,,,,,,,,,Color33,001,2022_Apr_08_1137,ProdSingRedo,3.2.3,59.956782766068706,
52,0,52,0,,,,,,,,,,,,,,,,,,,,,,,,,,,,1589.8587634991854,None,season,sing,yellow,10,277,1587.8544801995158,None,None,1587.8544801995158,None,,,,,,,,,,,,,,,,,,,,,,,,,,,,,,,,,Color33,001,2022_Apr_08_1137,ProdSingRedo,3.2.3,59.956782766068706,
53,0,53,0,,,,,,,,,,,,,,,,,,,,,,,,,,,,1592.3755430988967,None,provision,sing,yellow,7,243,1590.37275319919,None,None,1590.37275319919,None,,,,,,,,,,,,,,,,,,,,,,,,,,,,,,,,,Color33,001,2022_Apr_08_1137,ProdSingRedo,3.2.3,59.956782766068706,
54,0,54,0,,,,,,,,,,,,,,,,,,,,,,,,,,,,1594.892117800191,None,scene,silent,red,81,273,1592.8838915992528,None,None,1592.8838915992528,None,,,,,,,,,,,,,,,,,,,,,,,,,,,,,,,,,Color33,001,2022_Apr_08_1137,ProdSingRedo,3.2.3,59.956782766068706,
55,0,55,0,,,,,,,,,,,,,,,,,,,,,,,,,,,,1597.4088559988886,None,little,aloud,blue,59,174,1595.4013793002814,None,None,1595.4013793002814,None,,,,,,,,,,,,,,,,,,,,,,,,,,,,,,,,,Color33,001,2022_Apr_08_1137,ProdSingRedo,3.2.3,59.956782766068706,
56,0,56,0,,,,,,,,,,,,,,,,,,,,,,,,,,,,1599.9256908986717,None,general,aloud,blue,49,135,1597.9264302998781,None,None,1597.9264302998781,None,,,,,,,,,,,,,,,,,,,,,,,,,,,,,,,,,Color33,001,2022_Apr_08_1137,ProdSingRedo,3.2.3,59.956782766068706,
57,0,57,0,,,,,,,,,,,,,,,,,,,,,,,,,,,,1602.4555834997445,None,nation,sing,yellow,13,198,1600.4400802999735,None,None,1600.4400802999735,None,,,,,,,,,,,,,,,,,,,,,,,,,,,,,,,,,Color33,001,2022_Apr_08_1137,ProdSingRedo,3.2.3,59.956782766068706,
58,0,58,0,,,,,,,,,,,,,,,,,,,,,,,,,,,,1604.9432327002287,None,pressure,sing,yellow,12,232,1602.9435537997633,None,None,1602.9435537997633,None,,,,,,,,,,,,,,,,,,,,,,,,,,,,,,,,,Color33,001,2022_Apr_08_1137,ProdSingRedo,3.2.3,59.956782766068706,
59,0,59,0,,,,,,,,,,,,,,,,,,,,,,,,,,,,1607.4595266990364,None,service,aloud,blue,33,280,1605.4581973999739,None,None,1605.4581973999739,None,,,,,,,,,,,,,,,,,,,,,,,,,,,,,,,,,Color33,001,2022_Apr_08_1137,ProdSingRedo,3.2.3,59.956782766068706,
60,0,60,0,,,,,,,,,,,,,,,,,,,,,,,,,,,,1609.9763827994466,None,color,sing,yellow,28,56,1607.9672627002,None,None,1607.9672627002,None,,,,,,,,,,,,,,,,,,,,,,,,,,,,,,,,,Color33,001,2022_Apr_08_1137,ProdSingRedo,3.2.3,59.956782766068706,
61,0,61,0,,,,,,,,,,,,,,,,,,,,,,,,,,,,1612.493425199762,None,religion,aloud,blue,30,258,1610.494633499533,None,None,1610.494633499533,None,,,,,,,,,,,,,,,,,,,,,,,,,,,,,,,,,Color33,001,2022_Apr_08_1137,ProdSingRedo,3.2.3,59.956782766068706,
62,0,62,0,,,,,,,,,,,,,,,,,,,,,,,,,,,,1615.0100549999624,None,pattern,silent,red,79,214,1613.00737079978,None,None,1613.00737079978,None,,,,,,,,,,,,,,,,,,,,,,,,,,,,,,,,,Color33,001,2022_Apr_08_1137,ProdSingRedo,3.2.3,59.956782766068706,
63,0,63,0,,,,,,,,,,,,,,,,,,,,,,,,,,,,1617.5269738994539,None,cover,silent,red,61,77,1615.5243700984865,None,None,1615.5243700984865,None,,,,,,,,,,,,,,,,,,,,,,,,,,,,,,,,,Color33,001,2022_Apr_08_1137,ProdSingRedo,3.2.3,59.956782766068706,
64,0,64,0,,,,,,,,,,,,,,,,,,,,,,,,,,,,1620.0437649991363,None,carry,sing,yellow,0,43,1618.0425878986716,None,None,1618.0425878986716,None,,,,,,,,,,,,,,,,,,,,,,,,,,,,,,,,,Color33,001,2022_Apr_08_1137,ProdSingRedo,3.2.3,59.956782766068706,
65,0,65,0,,,,,,,,,,,,,,,,,,,,,,,,,,,,1622.560545399785,None,under,aloud,blue,53,343,1620.5550666991621,None,None,1620.5550666991621,None,,,,,,,,,,,,,,,,,,,,,,,,,,,,,,,,,Color33,001,2022_Apr_08_1137,ProdSingRedo,3.2.3,59.956782766068706,
66,0,66,0,,,,,,,,,,,,,,,,,,,,,,,,,,,,1625.077506199479,None,strain,sing,yellow,18,308,1623.074923299253,None,None,1623.074923299253,None,,,,,,,,,,,,,,,,,,,,,,,,,,,,,,,,,Color33,001,2022_Apr_08_1137,ProdSingRedo,3.2.3,59.956782766068706,
67,0,67,0,,,,,,,,,,,,,,,,,,,,,,,,,,,,1627.5943458992988,None,fellow,aloud,blue,55,126,1625.59009449929,None,None,1625.59009449929,None,,,,,,,,,,,,,,,,,,,,,,,,,,,,,,,,,Color33,001,2022_Apr_08_1137,ProdSingRedo,3.2.3,59.956782766068706,
68,0,68,0,,,,,,,,,,,,,,,,,,,,,,,,,,,,1630.111102098599,None,style,aloud,blue,58,311,1628.106750300154,None,None,1628.106750300154,None,,,,,,,,,,,,,,,,,,,,,,,,,,,,,,,,,Color33,001,2022_Apr_08_1137,ProdSingRedo,3.2.3,59.956782766068706,
69,0,69,0,,,,,,,,,,,,,,,,,,,,,,,,,,,,1632.6266961991787,None,sunset,aloud,blue,37,315,1630.6246964987367,None,None,1630.6246964987367,None,,,,,,,,,,,,,,,,,,,,,,,,,,,,,,,,,Color33,001,2022_Apr_08_1137,ProdSingRedo,3.2.3,59.956782766068706,
70,0,70,0,,,,,,,,,,,,,,,,,,,,,,,,,,,,1635.1286917999387,None,match,silent,red,76,181,1633.127823099494,None,None,1633.127823099494,None,,,,,,,,,,,,,,,,,,,,,,,,,,,,,,,,,Color33,001,2022_Apr_08_1137,ProdSingRedo,3.2.3,59.956782766068706,
71,0,71,0,,,,,,,,,,,,,,,,,,,,,,,,,,,,1637.6615239996463,None,citizen,aloud,blue,43,50,1635.6656646002084,None,None,1635.6656646002084,None,,,,,,,,,,,,,,,,,,,,,,,,,,,,,,,,,Color33,001,2022_Apr_08_1137,ProdSingRedo,3.2.3,59.956782766068706,
72,0,72,0,,,,,,,,,,,,,,,,,,,,,,,,,,,,1640.1783846002072,None,guard,sing,yellow,16,145,1638.1721807997674,None,None,1638.1721807997674,None,,,,,,,,,,,,,,,,,,,,,,,,,,,,,,,,,Color33,001,2022_Apr_08_1137,ProdSingRedo,3.2.3,59.956782766068706,
73,0,73,0,,,,,,,,,,,,,,,,,,,,,,,,,,,,1642.6951738987118,None,article,aloud,blue,46,11,1640.6898524984717,None,None,1640.6898524984717,None,,,,,,,,,,,,,,,,,,,,,,,,,,,,,,,,,Color33,001,2022_Apr_08_1137,ProdSingRedo,3.2.3,59.956782766068706,
74,0,74,0,,,,,,,,,,,,,,,,,,,,,,,,,,,,1645.2120666988194,None,treatment,aloud,blue,41,339,1643.209120599553,None,None,1643.209120599553,None,,,,,,,,,,,,,,,,,,,,,,,,,,,,,,,,,Color33,001,2022_Apr_08_1137,ProdSingRedo,3.2.3,59.956782766068706,
75,0,75,0,,,,,,,,,,,,,,,,,,,,,,,,,,,,1647.7283792998642,None,tennis,silent,red,77,323,1645.7216429002583,None,None,1645.7216429002583,None,,,,,,,,,,,,,,,,,,,,,,,,,,,,,,,,,Color33,001,2022_Apr_08_1137,ProdSingRedo,3.2.3,59.956782766068706,
76,0,76,0,,,,,,,,,,,,,,,,,,,,,,,,,,,,1650.2457309998572,None,session,sing,yellow,20,281,1648.2409767992795,None,None,1648.2409767992795,None,,,,,,,,,,,,,,,,,,,,,,,,,,,,,,,,,Color33,001,2022_Apr_08_1137,ProdSingRedo,3.2.3,59.956782766068706,
77,0,77,0,,,,,,,,,,,,,,,,,,,,,,,,,,,,1652.7625353001058,None,center,silent,red,62,44,1650.7472847998142,None,None,1650.7472847998142,None,,,,,,,,,,,,,,,,,,,,,,,,,,,,,,,,,Color33,001,2022_Apr_08_1137,ProdSingRedo,3.2.3,59.956782766068706,
78,0,78,0,,,,,,,,,,,,,,,,,,,,,,,,,,,,1655.2795396987349,None,impact,aloud,blue,56,157,1653.2749469988048,None,None,1653.2749469988048,None,,,,,,,,,,,,,,,,,,,,,,,,,,,,,,,,,Color33,001,2022_Apr_08_1137,ProdSingRedo,3.2.3,59.956782766068706,
79,0,79,0,,,,,,,,,,,,,,,,,,,,,,,,,,,,1657.7952975984663,None,turkey,silent,red,82,342,1655.796664999798,None,None,1655.796664999798,None,,,,,,,,,,,,,,,,,,,,,,,,,,,,,,,,,Color33,001,2022_Apr_08_1137,ProdSingRedo,3.2.3,59.956782766068706,
80,0,80,0,,,,,,,,,,,,,,,,,,,,,,,,,,,,1660.3129468001425,None,health,silent,red,73,149,1658.313550999388,None,None,1658.313550999388,None,,,,,,,,,,,,,,,,,,,,,,,,,,,,,,,,,Color33,001,2022_Apr_08_1137,ProdSingRedo,3.2.3,59.956782766068706,
81,0,81,0,,,,,,,,,,,,,,,,,,,,,,,,,,,,1662.8285253997892,None,fight,silent,red,66,127,1660.8274646997452,None,None,1660.8274646997452,None,,,,,,,,,,,,,,,,,,,,,,,,,,,,,,,,,Color33,001,2022_Apr_08_1137,ProdSingRedo,3.2.3,59.956782766068706,
82,0,82,0,,,,,,,,,,,,,,,,,,,,,,,,,,,,1665.3300903998315,None,public,sing,yellow,26,244,1663.328555898741,None,None,1663.328555898741,None,,,,,,,,,,,,,,,,,,,,,,,,,,,,,,,,,Color33,001,2022_Apr_08_1137,ProdSingRedo,3.2.3,59.956782766068706,
83,0,83,0,,,,,,,,,,,,,,,,,,,,,,,,,,,,1667.8468915000558,None,taste,aloud,blue,54,322,1665.845578899607,None,None,1665.845578899607,None,,,,,,,,,,,,,,,,,,,,,,,,,,,,,,,,,Color33,001,2022_Apr_08_1137,ProdSingRedo,3.2.3,59.956782766068706,
84,0,84,0,,,,,,,,,,,,,,,,,,,,,,,,,,,,1670.3640131987631,None,search,silent,red,86,276,1668.3603431992233,None,None,1668.3603431992233,None,,,,,,,,,,,,,,,,,,,,,,,,,,,,,,,,,Color33,001,2022_Apr_08_1137,ProdSingRedo,3.2.3,59.956782766068706,
85,0,85,0,,,,,,,,,,,,,,,,,,,,,,,,,,,,1672.8806529995054,None,court,sing,yellow,19,75,1670.8760345987976,None,None,1670.8760345987976,None,,,,,,,,,,,,,,,,,,,,,,,,,,,,,,,,,Color33,001,2022_Apr_08_1137,ProdSingRedo,3.2.3,59.956782766068706,
86,0,86,0,,,,,,,,,,,,,,,,,,,,,,,,,,,,1675.3974529001862,None,figure,silent,red,65,128,1673.3953670989722,None,None,1673.3953670989722,None,,,,,,,,,,,,,,,,,,,,,,,,,,,,,,,,,Color33,001,2022_Apr_08_1137,ProdSingRedo,3.2.3,59.956782766068706,
87,0,87,0,,,,,,,,,,,,,,,,,,,,,,,,,,,,1677.914186598733,None,author,silent,red,71,15,1675.9091974999756,None,None,1675.9091974999756,None,,,,,,,,,,,,,,,,,,,,,,,,,,,,,,,,,Color33,001,2022_Apr_08_1137,ProdSingRedo,3.2.3,59.956782766068706,
88,0,88,0,,,,,,,,,,,,,,,,,,,,,,,,,,,,1680.4310285001993,None,ground,silent,red,74,142,1678.4274861998856,None,None,1678.4274861998856,None,,,,,,,,,,,,,,,,,,,,,,,,,,,,,,,,,Color33,001,2022_Apr_08_1137,ProdSingRedo,3.2.3,59.956782766068706,
89,0,89,0,,,,,,,,,,,,,,,,,,,,,,,,,,,,1682.9478347990662,None,watch,silent,red,87,351,1680.942786699161,None,None,1680.942786699161,None,,,,,,,,,,,,,,,,,,,,,,,,,,,,,,,,,Color33,001,2022_Apr_08_1137,ProdSingRedo,3.2.3,59.956782766068706,
,,,,,,,,,,,,,,,,,,,,,,,,,,,,,,,,,,,,,,,,,,,1683.4479029998183,None,k,141.70955860055983,1683.4479029998183,None,,,,,,,,,,,,,,,,,,,,,,,,,,,Color33,001,2022_Apr_08_1137,ProdSingRedo,3.2.3,59.956782766068706,
,,,,0,0,0,0,,,,,,,,,,,,,,,,,,,,,,,,1863.7209799997509,None,,,,,,,,,,,,,,,,,carry,sing,yellow,0,0,43,1825.697039399296,None,1825.697039399296,None,6,12.611937699839473,1825.697039399296,None,1838.353572499007,None,1838.868757000193,None,1838.868757000193,None,r,24.823993699625134,1838.868757000193,None,,,Color33,001,2022_Apr_08_1137,ProdSingRedo,3.2.3,59.956782766068706,
,,,,1,0,1,0,,,,,,,,,,,,,,,,,,,,,,,,1877.0547067988664,None,,,,,,,,,,,,,,,,,staff,new_silent,red,1,153,301,1864.2434670999646,None,1864.2434670999646,None,1,8.904966499656439,1864.2434670999646,None,1873.1875447984785,None,1873.7017586994916,None,1873.7017586994916,None,n,3.311083100736141,1873.7017586994916,None,,,Color33,001,2022_Apr_08_1137,ProdSingRedo,3.2.3,59.956782766068706,
,,,,2,0,2,0,,,,,,,,,,,,,,,,,,,,,,,,1886.3365441001952,None,,,,,,,,,,,,,,,,,income,new_silent,red,2,168,159,1877.5750795993954,None,1877.5750795993954,None,1,3.9017647989094257,1877.5750795993954,None,1881.5136615000665,None,1882.0331982001662,None,1882.0331982001662,None,n,4.267896801233292,1882.0331982001662,None,,,Color33,001,2022_Apr_08_1137,ProdSingRedo,3.2.3,59.956782766068706,
,,,,3,0,3,0,,,,,,,,,,,,,,,,,,,,,,,,1921.9048663992435,None,,,,,,,,,,,,,,,,,institute,aloud,blue,3,34,162,1886.863525699824,None,1886.863525699824,None,6,15.780952300876379,1886.863525699824,None,1902.6702696997672,None,1903.1777561996132,None,1903.1777561996132,None,f,18.69084420055151,1903.1777561996132,None,,,Color33,001,2022_Apr_08_1137,ProdSingRedo,3.2.3,59.956782766068706,
,,,,4,0,4,0,,,,,,,,,,,,,,,,,,,,,,,,1934.9561985991895,None,,,,,,,,,,,,,,,,,region,new_silent,red,4,152,256,1922.4185252990574,None,1922.4185252990574,None,1,5.842584999278188,1922.4185252990574,None,1928.3023856002837,None,1928.8253279998899,None,1928.8253279998899,None,f,6.09915759973228,1928.8253279998899,None,,,Color33,001,2022_Apr_08_1137,ProdSingRedo,3.2.3,59.956782766068706,
,,,,5,0,5,0,,,,,,,,,,,,,,,,,,,,,,,,1943.334967199713,None,,,,,,,,,,,,,,,,,candidate,new_sing,yellow,5,92,39,1935.4855827987194,None,1935.4855827987194,None,1,5.438928300514817,1935.4855827987194,None,1940.969094099477,None,1941.496829399839,None,1941.496829399839,None,n,1.8115413002669811,1941.496829399839,None,,,Color33,001,2022_Apr_08_1137,ProdSingRedo,3.2.3,59.956782766068706,
,,,,6,0,6,0,,,,,,,,,,,,,,,,,,,,,,,,1952.7579395994544,None,,,,,,,,,,,,,,,,,production,new_aloud,blue,6,142,240,1943.8666781987995,None,1943.8666781987995,None,1,6.362134698778391,1943.8666781987995,None,1950.2738995999098,None,1950.8042505998164,None,1950.8042505998164,None,n,1.9284969996660948,1950.8042505998164,None,,,Color33,001,2022_Apr_08_1137,ProdSingRedo,3.2.3,59.956782766068706,
,,,,7,0,7,0,,,,,,,,,,,,,,,,,,,,,,,,1962.2078211996704,None,,,,,,,,,,,,,,,,,space,sing,yellow,7,8,297,1953.2848081998527,None,1953.2848081998527,None,6,5.351466299965978,1953.2848081998527,None,1958.6885051000863,None,1959.2098880987614,None,1959.2098880987614,None,r,2.970905900001526,1959.2098880987614,None,,,Color33,001,2022_Apr_08_1137,ProdSingRedo,3.2.3,59.956782766068706,
,,,,8,0,8,0,,,,,,,,,,,,,,,,,,,,,,,,1974.9645814988762,None,,,,,,,,,,,,,,,,,narrow,new_silent,red,8,156,197,1962.722665099427,None,1962.722665099427,None,6,8.370089901611209,1962.722665099427,None,1971.1397794988006,None,1971.6627095993608,None,1971.6627095993608,None,n,3.2617146987468004,1971.6627095993608,None,,,Color33,001,2022_Apr_08_1137,ProdSingRedo,3.2.3,59.956782766068706,
,,,,9,0,9,0,,,,,,,,,,,,,,,,,,,,,,,,1991.5453695990145,None,,,,,,,,,,,,,,,,,military,new_silent,red,9,155,190,1975.4919642992318,None,1975.4919642992318,None,6,14.120592400431633,1975.4919642992318,None,1989.6557897999883,None,1990.1889324001968,None,1990.1889324001968,None,n,1.31947229988873,1990.1889324001968,None,,,Color33,001,2022_Apr_08_1137,ProdSingRedo,3.2.3,59.956782766068706,
,,,,10,0,10,0,,,,,,,,,,,,,,,,,,,,,,,,2004.3934553992003,None,,,,,,,,,,,,,,,,,republic,silent,red,10,84,260,1992.069184999913,None,1992.069184999913,None,6,9.943272100761533,1992.069184999913,None,2002.0625771991909,None,2002.5811280999333,None,2002.5811280999333,None,n,1.7755226008594036,2002.5811280999333,None,,,Color33,001,2022_Apr_08_1137,ProdSingRedo,3.2.3,59.956782766068706,
,,,,11,0,11,0,,,,,,,,,,,,,,,,,,,,,,,,2013.799173399806,None,,,,,,,,,,,,,,,,,fashion,new_sing,yellow,11,98,125,2004.920496698469,None,2004.920496698469,None,1,6.259916899725795,2004.920496698469,None,2011.2274775002152,None,2011.7461887989193,None,2011.7461887989193,None,n,2.0181926991790533,2011.7461887989193,None,,,Color33,001,2022_Apr_08_1137,ProdSingRedo,3.2.3,59.956782766068706,
,,,,12,0,12,0,,,,,,,,,,,,,,,,,,,,,,,,2019.71928479895,None,,,,,,,,,,,,,,,,,plane,new_aloud,blue,12,149,223,2014.3202944993973,None,2014.3202944993973,None,1,2.3082226011902094,2014.3202944993973,None,2016.6798010002822,None,2017.1967904996127,None,2017.1967904996127,None,n,2.4953399002552032,2017.1967904996127,None,,,Color33,001,2022_Apr_08_1137,ProdSingRedo,3.2.3,59.956782766068706,
,,,,13,0,13,0,,,,,,,,,,,,,,,,,,,,,,,,2027.9457344990224,None,,,,,,,,,,,,,,,,,sleep,aloud,blue,13,39,290,2020.234202599153,None,2020.234202599153,None,6,5.682197799906135,2020.234202599153,None,2025.954117199406,None,2026.4614186994731,None,2026.4614186994731,None,f,1.4550127983093262,2026.4614186994731,None,,,Color33,001,2022_Apr_08_1137,ProdSingRedo,3.2.3,59.956782766068706,
,,,,14,0,14,0,,,,,,,,,,,,,,,,,,,,,,,,2041.1814925000072,None,,,,,,,,,,,,,,,,,danger,aloud,blue,14,51,85,2028.4716747999191,None,2028.4716747999191,None,1,8.573113799095154,2028.4716747999191,None,2037.0905530992895,None,2037.6171634998173,None,2037.6171634998173,None,n,3.5311421994119883,2037.6171634998173,None,,,Color33,001,2022_Apr_08_1137,ProdSingRedo,3.2.3,59.956782766068706,
,,,,15,0,15,0,,,,,,,,,,,,,,,,,,,,,,,,2049.113887999207,None,,,,,,,,,,,,,,,,,education,new_silent,red,15,158,108,2041.7064249999821,None,2041.7064249999821,None,1,5.553962400183082,2041.7064249999821,None,2047.3127119988203,None,2047.8303052000701,None,2047.8303052000701,None,n,1.2462364006787539,2047.8303052000701,None,,,Color33,001,2022_Apr_08_1137,ProdSingRedo,3.2.3,59.956782766068706,
,,,,16,0,16,0,,,,,,,,,,,,,,,,,,,,,,,,2055.9682897999883,None,,,,,,,,,,,,,,,,,surprise,sing,yellow,16,15,317,2049.640945298597,None,2049.640945298597,None,6,3.419057099148631,2049.640945298597,None,2053.0956859998405,None,2053.6145920995623,None,2053.6145920995623,None,r,2.3097543008625507,2053.6145920995623,None,,,Color33,001,2022_Apr_08_1137,ProdSingRedo,3.2.3,59.956782766068706,
,,,,17,0,17,0,,,,,,,,,,,,,,,,,,,,,,,,2062.1813290994614,None,,,,,,,,,,,,,,,,,crisis,new_silent,red,17,179,79,2056.4890906997025,None,2056.4890906997025,None,1,4.307356601580977,2056.4890906997025,None,2060.840836999938,None,2061.3625639993697,None,2061.3625639993697,None,n,0.7858154010027647,2061.3625639993697,None,,,Color33,001,2022_Apr_08_1137,ProdSingRedo,3.2.3,59.956782766068706,
,,,,18,0,18,0,,,,,,,,,,,,,,,,,,,,,,,,2070.065813999623,None,,,,,,,,,,,,,,,,,damage,sing,yellow,18,24,83,2062.7056527994573,None,2062.7056527994573,None,1,5.299008699133992,2062.7056527994573,None,2068.0443302001804,None,2068.5726139992476,None,2068.5726139992476,None,n,1.4559289999306202,2068.5726139992476,None,,,Color33,001,2022_Apr_08_1137,ProdSingRedo,3.2.3,59.956782766068706,
,,,,19,0,19,0,,,,,,,,,,,,,,,,,,,,,,,,2078.6650988999754,None,,,,,,,,,,,,,,,,,color,sing,yellow,19,28,56,2070.589306598529,None,2070.589306598529,None,6,2.726961100474,2070.589306598529,None,2073.35497889854,None,2073.8747165985405,None,2073.8747165985405,None,r,4.753573000431061,2073.8747165985405,None,,,Color33,001,2022_Apr_08_1137,ProdSingRedo,3.2.3,59.956782766068706,
,,,,20,0,20,0,,,,,,,,,,,,,,,,,,,,,,,,2086.299528999254,None,,,,,,,,,,,,,,,,,style,aloud,blue,20,58,311,2079.1843802984804,None,2079.1843802984804,None,6,3.555580200627446,2079.1843802984804,None,2082.7590224985033,None,2083.273655500263,None,2083.273655500263,None,r,2.9946446008980274,2083.273655500263,None,,,Color33,001,2022_Apr_08_1137,ProdSingRedo,3.2.3,59.956782766068706,
,,,,21,0,21,0,,,,,,,,,,,,,,,,,,,,,,,,2101.683450099081,None,,,,,,,,,,,,,,,,,disease,new_aloud,blue,21,146,97,2086.8225666992366,None,2086.8225666992366,None,5,9.56613690033555,2086.8225666992366,None,2096.4291819985956,None,2096.9541066996753,None,2096.9541066996753,None,n,4.690100198611617,2096.9541066996753,None,,,Color33,001,2022_Apr_08_1137,ProdSingRedo,3.2.3,59.956782766068706,
,,,,22,0,22,0,,,,,,,,,,,,,,,,,,,,,,,,2116.535823598504,None,,,,,,,,,,,,,,,,,watch,silent,red,22,87,351,2102.2069390993565,None,2102.2069390993565,None,1,12.42137200012803,2102.2069390993565,None,2114.682331798598,None,2115.201089899987,None,2115.201089899987,None,n,1.3072104007005692,2115.201089899987,None,,,Color33,001,2022_Apr_08_1137,ProdSingRedo,3.2.3,59.956782766068706,
,,,,23,0,23,0,,,,,,,,,,,,,,,,,,,,,,,,2141.5160252992064,None,,,,,,,,,,,,,,,,,session,sing,yellow,23,20,281,2117.0570537000895,None,2117.0570537000895,None,6,15.610977498814464,2117.0570537000895,None,2132.7036914993078,None,2133.2180671002716,None,2133.2180671002716,None,r,8.274189500138164,2133.2180671002716,None,,,Color33,001,2022_Apr_08_1137,ProdSingRedo,3.2.3,59.956782766068706,
,,,,24,0,24,0,,,,,,,,,,,,,,,,,,,,,,,,2154.2872796002775,None,,,,,,,,,,,,,,,,,little,aloud,blue,24,59,174,2142.0269252993166,None,2142.0269252993166,None,6,6.537228899076581,2142.0269252993166,None,2148.6177016999573,None,2149.1349074002355,None,2149.1349074002355,None,r,5.125509399920702,2149.1349074002355,None,,,Color33,001,2022_Apr_08_1137,ProdSingRedo,3.2.3,59.956782766068706,
,,,,25,0,25,0,,,,,,,,,,,,,,,,,,,,,,,,2164.6714094989,None,,,,,,,,,,,,,,,,,story,silent,red,25,80,306,2154.813185499981,None,2154.813185499981,None,1,5.23898739926517,2154.813185499981,None,2160.1039921995252,None,2160.6221411991864,None,2160.6221411991864,None,f,4.022297099232674,2160.6221411991864,None,,,Color33,001,2022_Apr_08_1137,ProdSingRedo,3.2.3,59.956782766068706,
,,,,26,0,26,0,,,,,,,,,,,,,,,,,,,,,,,,2179.9548551999032,None,,,,,,,,,,,,,,,,,article,aloud,blue,26,46,11,2165.196797698736,None,2165.196797698736,None,6,11.175265500321984,2165.196797698736,None,2176.4205487985164,None,2176.940443098545,None,2176.940443098545,None,n,2.9756266996264458,2176.940443098545,None,,,Color33,001,2022_Apr_08_1137,ProdSingRedo,3.2.3,59.956782766068706,
,,,,27,0,27,0,,,,,,,,,,,,,,,,,,,,,,,,2184.0719537995756,None,,,,,,,,,,,,,,,,,captain,new_aloud,blue,27,125,41,2180.4870145991445,None,2180.4870145991445,None,1,2.1256066989153624,2180.4870145991445,None,2182.650337798521,None,2183.177611099556,None,2183.177611099556,None,n,0.8585438001900911,2183.177611099556,None,,,Color33,001,2022_Apr_08_1137,ProdSingRedo,3.2.3,59.956782766068706,
,,,,28,0,28,0,,,,,,,,,,,,,,,,,,,,,,,,2192.074078500271,None,,,,,,,,,,,,,,,,,turkey,silent,red,28,82,342,2184.6003063991666,None,2184.6003063991666,None,6,4.435895400121808,2184.6003063991666,None,2189.092339798808,None,2189.613535599783,None,2189.613535599783,None,r,2.4305825997143984,2189.613535599783,None,,,Color33,001,2022_Apr_08_1137,ProdSingRedo,3.2.3,59.956782766068706,
,,,,29,0,29,0,,,,,,,,,,,,,,,,,,,,,,,,2202.4162659998983,None,,,,,,,,,,,,,,,,,trail,new_aloud,blue,29,136,336,2192.597820499912,None,2192.597820499912,None,1,7.014823200181127,2192.597820499912,None,2199.6524029988796,None,2200.1754853986204,None,2200.1754853986204,None,n,2.2206485997885466,2200.1754853986204,None,,,Color33,001,2022_Apr_08_1137,ProdSingRedo,3.2.3,59.956782766068706,
,,,,30,0,30,0,,,,,,,,,,,,,,,,,,,,,,,,2208.1457221992314,None,,,,,,,,,,,,,,,,,break,new_sing,yellow,30,109,26,2202.9416709002107,None,2202.9416709002107,None,1,3.238696299493313,2202.9416709002107,None,2206.2215483989567,None,2206.7491001989692,None,2206.7491001989692,None,n,1.3671408016234636,2206.7491001989692,None,,,Color33,001,2022_Apr_08_1137,ProdSingRedo,3.2.3,59.956782766068706,
,,,,31,0,31,0,,,,,,,,,,,,,,,,,,,,,,,,2222.275105699897,None,,,,,,,,,,,,,,,,,piece,new_silent,red,31,177,221,2208.6623462997377,None,2208.6623462997377,None,6,9.869873099029064,2208.6623462997377,None,2218.5690447986126,None,2219.0884332992136,None,2219.0884332992136,None,n,3.1555749997496605,2219.0884332992136,None,,,Color33,001,2022_Apr_08_1137,ProdSingRedo,3.2.3,59.956782766068706,
,,,,32,0,32,0,,,,,,,,,,,,,,,,,,,,,,,,2231.3422663994133,None,,,,,,,,,,,,,,,,,figure,silent,red,32,65,128,2222.8016013987362,None,2222.8016013987362,None,1,3.51449660025537,2222.8016013987362,None,2226.362288599834,None,2226.879245199263,None,2226.879245199263,None,f,4.4368156008422375,2226.879245199263,None,,,Color33,001,2022_Apr_08_1137,ProdSingRedo,3.2.3,59.956782766068706,
,,,,33,0,33,0,,,,,,,,,,,,,,,,,,,,,,,,2235.575294099748,None,,,,,,,,,,,,,,,,,platform,new_silent,red,33,162,224,2231.871325198561,None,2231.871325198561,None,1,2.6364538986235857,2231.871325198561,None,2234.5468769986182,None,2235.050420898944,None,2235.050420898944,None,n,0.4896760992705822,2235.050420898944,None,,,Color33,001,2022_Apr_08_1137,ProdSingRedo,3.2.3,59.956782766068706,
,,,,34,0,34,0,,,,,,,,,,,,,,,,,,,,,,,,2240.644811199978,None,,,,,,,,,,,,,,,,,message,aloud,blue,34,48,189,2236.1017911992967,None,2236.1017911992967,None,1,3.678199900314212,2236.1017911992967,None,2239.8227196000516,None,2240.3455077987164,None,2240.3455077987164,None,n,0.2585513982921839,2240.3455077987164,None,,,Color33,001,2022_Apr_08_1137,ProdSingRedo,3.2.3,59.956782766068706,
,,,,35,0,35,0,,,,,,,,,,,,,,,,,,,,,,,,2243.3155694995075,None,,,,,,,,,,,,,,,,,under,aloud,blue,35,53,343,2241.166986199096,None,2241.166986199096,None,1,1.373038899153471,2241.166986199096,None,2242.5859145000577,None,2243.110593698919,None,2243.110593698919,None,n,0.1654668003320694,2243.110593698919,None,,,Color33,001,2022_Apr_08_1137,ProdSingRedo,3.2.3,59.956782766068706,
,,,,36,0,36,0,,,,,,,,,,,,,,,,,,,,,,,,2246.1602218989283,None,,,,,,,,,,,,,,,,,drama,new_silent,red,36,175,103,2243.8363749999553,None,2243.8363749999553,None,1,1.5756091997027397,2243.8363749999553,None,2245.458737200126,None,2245.9805772993714,None,2245.9805772993714,None,n,0.14337760023772717,2245.9805772993714,None,,,Color33,001,2022_Apr_08_1137,ProdSingRedo,3.2.3,59.956782766068706,
,,,,37,0,37,0,,,,,,,,,,,,,,,,,,,,,,,,2251.8267805986106,None,,,,,,,,,,,,,,,,,search,silent,red,37,86,276,2246.6879193987697,None,2246.6879193987697,None,1,3.748030500486493,2246.6879193987697,None,2250.4750234987587,None,2250.996279699728,None,2250.996279699728,None,n,0.7916587013751268,2250.996279699728,None,,,Color33,001,2022_Apr_08_1137,ProdSingRedo,3.2.3,59.956782766068706,
,,,,38,0,38,0,,,,,,,,,,,,,,,,,,,,,,,,2256.142110599205,None,,,,,,,,,,,,,,,,,express,new_aloud,blue,38,123,124,2252.3495870996267,None,2252.3495870996267,None,1,3.014368999749422,2252.3495870996267,None,2255.406132798642,None,2255.9261429999024,None,2255.9261429999024,None,n,0.18205390125513077,2255.9261429999024,None,,,Color33,001,2022_Apr_08_1137,ProdSingRedo,3.2.3,59.956782766068706,
,,,,39,0,39,0,,,,,,,,,,,,,,,,,,,,,,,,2266.0601848997176,None,,,,,,,,,,,,,,,,,conference,new_sing,yellow,39,116,66,2256.678181199357,None,2256.678181199357,None,1,6.245446899905801,2256.678181199357,None,2262.9543714001775,None,2263.470378799364,None,2263.470378799364,None,n,2.5656649004667997,2263.470378799364,None,,,Color33,001,2022_Apr_08_1137,ProdSingRedo,3.2.3,59.956782766068706,
,,,,40,0,40,0,,,,,,,,,,,,,,,,,,,,,,,,2273.7290655002,None,,,,,,,,,,,,,,,,,general,aloud,blue,40,49,135,2266.5860721990466,None,2266.5860721990466,None,6,3.0901109986007214,2266.5860721990466,None,2269.7279425989836,None,2270.249061400071,None,2270.249061400071,None,n,3.450917398557067,2270.249061400071,None,,,Color33,001,2022_Apr_08_1137,ProdSingRedo,3.2.3,59.956782766068706,
,,,,41,0,41,0,,,,,,,,,,,,,,,,,,,,,,,,2290.162876298651,None,,,,,,,,,,,,,,,,,whole,aloud,blue,41,52,355,2274.2527802996337,None,2274.2527802996337,None,6,14.679354200139642,2274.2527802996337,None,2288.977914398536,None,2289.4978171996772,None,2289.4978171996772,None,n,0.634272200986743,2289.4978171996772,None,,,Color33,001,2022_Apr_08_1137,ProdSingRedo,3.2.3,59.956782766068706,
,,,,42,0,42,0,,,,,,,,,,,,,,,,,,,,,,,,2293.6699182987213,None,,,,,,,,,,,,,,,,,burden,new_sing,yellow,42,91,36,2290.6918880995363,None,2290.6918880995363,None,1,2.1759058013558388,2290.6918880995363,None,2292.8931609988213,None,2293.403853399679,None,2293.403853399679,None,n,0.22405550070106983,2293.403853399679,None,,,Color33,001,2022_Apr_08_1137,ProdSingRedo,3.2.3,59.956782766068706,
,,,,43,0,43,0,,,,,,,,,,,,,,,,,,,,,,,,2302.34777119942,None,,,,,,,,,,,,,,,,,recall,sing,yellow,43,4,255,2294.1856510993093,None,2294.1856510993093,None,6,4.9222697000950575,2294.1856510993093,None,2299.1601026002318,None,2299.6852032989264,None,2299.6852032989264,None,n,2.622858500108123,2299.6852032989264,None,,,Color33,001,2022_Apr_08_1137,ProdSingRedo,3.2.3,59.956782766068706,
,,,,44,0,44,0,,,,,,,,,,,,,,,,,,,,,,,,2310.1809463985264,None,,,,,,,,,,,,,,,,,smooth,aloud,blue,44,36,292,2302.868807999417,None,2302.868807999417,None,6,4.422980599105358,2302.868807999417,None,2307.3377835992724,None,2307.848533799872,None,2307.848533799872,None,r,2.2992743998765945,2307.848533799872,None,,,Color33,001,2022_Apr_08_1137,ProdSingRedo,3.2.3,59.956782766068706,
,,,,45,0,45,0,,,,,,,,,,,,,,,,,,,,,,,,2314.154800599441,None,,,,,,,,,,,,,,,,,tough,new_aloud,blue,45,135,333,2310.706337198615,None,2310.706337198615,None,1,2.4655358996242285,2310.706337198615,None,2313.2067977990955,None,2313.7183762993664,None,2313.7183762993664,None,n,0.42110469937324524,2313.7183762993664,None,,,Color33,001,2022_Apr_08_1137,ProdSingRedo,3.2.3,59.956782766068706,
,,,,46,0,46,0,,,,,,,,,,,,,,,,,,,,,,,,2322.049693999812,None,,,,,,,,,,,,,,,,,concern,new_aloud,blue,46,129,65,2314.6692025996745,None,2314.6692025996745,None,1,2.6625963989645243,2314.6692025996745,None,2317.3740914985538,None,2317.8965092990547,None,2317.8965092990547,None,r,4.115311700850725,2317.8965092990547,None,,,Color33,001,2022_Apr_08_1137,ProdSingRedo,3.2.3,59.956782766068706,
,,,,47,0,47,0,,,,,,,,,,,,,,,,,,,,,,,,2333.0169657990336,None,,,,,,,,,,,,,,,,,pattern,silent,red,47,79,214,2322.5667144991457,None,2322.5667144991457,None,6,4.164921000599861,2322.5667144991457,None,2326.7652366999537,None,2327.284931799397,None,2327.284931799397,None,n,5.703288299962878,2327.284931799397,None,,,Color33,001,2022_Apr_08_1137,ProdSingRedo,3.2.3,59.956782766068706,
,,,,48,0,48,0,,,,,,,,,,,,,,,,,,,,,,,,2339.9498239997774,None,,,,,,,,,,,,,,,,,brief,new_silent,red,48,157,28,2333.5430164989084,None,2333.5430164989084,None,1,3.4129777010530233,2333.5430164989084,None,2336.9998856987804,None,2337.5191403999925,None,2337.5191403999925,None,n,2.396571299061179,2337.5191403999925,None,,,Color33,001,2022_Apr_08_1137,ProdSingRedo,3.2.3,59.956782766068706,
,,,,49,0,49,0,,,,,,,,,,,,,,,,,,,,,,,,2343.067462399602,None,,,,,,,,,,,,,,,,,spoke,new_silent,red,49,150,300,2340.472731599584,None,2340.472731599584,None,1,1.8030594997107983,2340.472731599584,None,2342.3147720992565,None,2342.834658998996,None,2342.834658998996,None,n,0.20127560012042522,2342.834658998996,None,,,Color33,001,2022_Apr_08_1137,ProdSingRedo,3.2.3,59.956782766068706,
,,,,50,0,50,0,,,,,,,,,,,,,,,,,,,,,,,,2352.8402933999896,None,,,,,,,,,,,,,,,,,produce,new_silent,red,50,164,239,2343.5934643987566,None,2343.5934643987566,None,6,3.379091700538993,2343.5934643987566,None,2347.0130984988064,None,2347.5366882998496,None,2347.5366882998496,None,f,5.274777999147773,2347.5366882998496,None,,,Color33,001,2022_Apr_08_1137,ProdSingRedo,3.2.3,59.956782766068706,
,,,,51,0,51,0,,,,,,,,,,,,,,,,,,,,,,,,2360.566825998947,None,,,,,,,,,,,,,,,,,people,silent,red,51,70,216,2353.3436388000846,None,2353.3436388000846,None,6,6.252118099480867,2353.3436388000846,None,2359.6445233989507,None,2360.166229499504,None,2360.166229499504,None,f,0.36568949930369854,2360.166229499504,None,,,Color33,001,2022_Apr_08_1137,ProdSingRedo,3.2.3,59.956782766068706,
,,,,52,0,52,0,,,,,,,,,,,,,,,,,,,,,,,,2366.9177787993103,None,,,,,,,,,,,,,,,,,author,silent,red,52,71,15,2361.0921443998814,None,2361.0921443998814,None,1,4.503704499453306,2361.0921443998814,None,2365.647884398699,None,2366.170421998948,None,2366.170421998948,None,n,0.7213845998048782,2366.170421998948,None,,,Color33,001,2022_Apr_08_1137,ProdSingRedo,3.2.3,59.956782766068706,
,,,,53,0,53,0,,,,,,,,,,,,,,,,,,,,,,,,2373.0203845985234,None,,,,,,,,,,,,,,,,,report,new_sing,yellow,53,115,259,2367.4386755991727,None,2367.4386755991727,None,6,3.0693151988089085,2367.4386755991727,None,2370.546156199649,None,2371.0656153988093,None,2371.0656153988093,None,f,1.9140639007091522,2371.0656153988093,None,,,Color33,001,2022_Apr_08_1137,ProdSingRedo,3.2.3,59.956782766068706,
,,,,54,0,54,0,,,,,,,,,,,,,,,,,,,,,,,,2376.1364640984684,None,,,,,,,,,,,,,,,,,empty,new_aloud,blue,54,143,112,2373.548489799723,None,2373.548489799723,None,1,1.4392591007053852,2373.548489799723,None,2375.031490098685,None,2375.55361109972,None,2375.55361109972,None,n,0.5543416999280453,2375.55361109972,None,,,Color33,001,2022_Apr_08_1137,ProdSingRedo,3.2.3,59.956782766068706,
,,,,55,0,55,0,,,,,,,,,,,,,,,,,,,,,,,,2380.785796198994,None,,,,,,,,,,,,,,,,,agreement,sing,yellow,55,5,5,2376.6566345989704,None,2376.6566345989704,None,1,3.2513283994048834,2376.6566345989704,None,2379.949407098815,None,2380.471254900098,None,2380.471254900098,None,n,0.2765206005424261,2380.471254900098,None,,,Color33,001,2022_Apr_08_1137,ProdSingRedo,3.2.3,59.956782766068706,
,,,,56,0,56,0,,,,,,,,,,,,,,,,,,,,,,,,2383.7842149995267,None,,,,,,,,,,,,,,,,,dozen,new_silent,red,56,178,102,2381.3108832985163,None,2381.3108832985163,None,1,0.7649608012288809,2381.3108832985163,None,2382.118608498946,None,2382.6272523999214,None,2382.6272523999214,None,n,1.1205950994044542,2382.6272523999214,None,,,Color33,001,2022_Apr_08_1137,ProdSingRedo,3.2.3,59.956782766068706,
,,,,57,0,57,0,,,,,,,,,,,,,,,,,,,,,,,,2386.3022801987827,None,,,,,,,,,,,,,,,,,block,silent,red,57,63,25,2384.315201198682,None,2384.315201198682,None,1,0.6484873984009027,2384.315201198682,None,2385.017414499074,None,2385.5354417990893,None,2385.5354417990893,None,n,0.7322415001690388,2385.5354417990893,None,,,Color33,001,2022_Apr_08_1137,ProdSingRedo,3.2.3,59.956782766068706,
,,,,58,0,58,0,,,,,,,,,,,,,,,,,,,,,,,,2389.252653500065,None,,,,,,,,,,,,,,,,,swift,new_aloud,blue,58,141,320,2386.8252342995256,None,2386.8252342995256,None,1,1.434358298778534,2386.8252342995256,None,2388.2909142989665,None,2388.8117273990065,None,2388.8117273990065,None,n,0.407990999519825,2388.8117273990065,None,,,Color33,001,2022_Apr_08_1137,ProdSingRedo,3.2.3,59.956782766068706,
,,,,59,0,59,0,,,,,,,,,,,,,,,,,,,,,,,,2393.8537347987294,None,,,,,,,,,,,,,,,,,equipment,sing,yellow,59,23,116,2389.782933698967,None,2389.782933698967,None,1,2.900813100859523,2389.782933698967,None,2392.7349028997123,None,2393.2590884994715,None,2393.2590884994715,None,n,0.5685988999903202,2393.2590884994715,None,,,Color33,001,2022_Apr_08_1137,ProdSingRedo,3.2.3,59.956782766068706,
,,,,60,0,60,0,,,,,,,,,,,,,,,,,,,,,,,,2398.752380600199,None,,,,,,,,,,,,,,,,,display,sing,yellow,60,9,98,2394.377844300121,None,2394.377844300121,None,1,2.71436969935894,2394.377844300121,None,2397.1359861996025,None,2397.655529299751,None,2397.655529299751,None,n,1.060368100181222,2397.655529299751,None,,,Color33,001,2022_Apr_08_1137,ProdSingRedo,3.2.3,59.956782766068706,
,,,,61,0,61,0,,,,,,,,,,,,,,,,,,,,,,,,2402.1863559987396,None,,,,,,,,,,,,,,,,,company,aloud,blue,61,47,64,2399.2817953992635,None,2399.2817953992635,None,1,1.6580474991351366,2399.2817953992635,None,2400.9876673985273,None,2401.513709599152,None,2401.513709599152,None,n,0.6339772995561361,2401.513709599152,None,,,Color33,001,2022_Apr_08_1137,ProdSingRedo,3.2.3,59.956782766068706,
,,,,62,0,62,0,,,,,,,,,,,,,,,,,,,,,,,,2406.569839499891,None,,,,,,,,,,,,,,,,,speech,new_sing,yellow,62,104,298,2402.708843000233,None,2402.708843000233,None,1,2.967942399904132,2402.708843000233,None,2405.718191999942,None,2406.2385523002595,None,2406.2385523002595,None,n,0.29308499954640865,2406.2385523002595,None,,,Color33,001,2022_Apr_08_1137,ProdSingRedo,3.2.3,59.956782766068706,
,,,,63,0,63,0,,,,,,,,,,,,,,,,,,,,,,,,2411.588119599968,None,,,,,,,,,,,,,,,,,executive,new_sing,yellow,63,103,122,2407.1024338994175,None,2407.1024338994175,None,1,3.4612539000809193,2407.1024338994175,None,2410.6175774987787,None,2411.145111899823,None,2411.145111899823,None,n,0.4183402005583048,2411.145111899823,None,,,Color33,001,2022_Apr_08_1137,ProdSingRedo,3.2.3,59.956782766068706,
,,,,64,0,64,0,,,,,,,,,,,,,,,,,,,,,,,,2428.7417375985533,None,,,,,,,,,,,,,,,,,welcome,aloud,blue,64,45,354,2412.1131127998233,None,2412.1131127998233,None,1,15.594515100121498,2412.1131127998233,None,2427.7558947987854,None,2428.274095799774,None,2428.274095799774,None,n,0.43349880166351795,2428.274095799774,None,,,Color33,001,2022_Apr_08_1137,ProdSingRedo,3.2.3,59.956782766068706,
,,,,65,0,65,0,,,,,,,,,,,,,,,,,,,,,,,,2431.0885723996907,None,,,,,,,,,,,,,,,,,finish,new_silent,red,65,163,130,2429.2632317990065,None,2429.2632317990065,None,1,0.8203838001936674,2429.2632317990065,None,2430.1357939001173,None,2430.6573293991387,None,2430.6573293991387,None,n,0.40235840156674385,2430.6573293991387,None,,,Color33,001,2022_Apr_08_1137,ProdSingRedo,3.2.3,59.956782766068706,
,,,,66,0,66,0,,,,,,,,,,,,,,,,,,,,,,,,2434.854971598834,None,,,,,,,,,,,,,,,,,rural,new_sing,yellow,66,93,269,2431.6165498998016,None,2431.6165498998016,None,1,0.8590306993573904,2431.6165498998016,None,2432.5161294993013,None,2433.0428966991603,None,2433.0428966991603,None,n,1.7766753993928432,2433.0428966991603,None,,,Color33,001,2022_Apr_08_1137,ProdSingRedo,3.2.3,59.956782766068706,
,,,,67,0,67,0,,,,,,,,,,,,,,,,,,,,,,,,2438.7737801000476,None,,,,,,,,,,,,,,,,,count,new_aloud,blue,67,138,72,2435.381299998611,None,2435.381299998611,None,1,2.326281700283289,2435.381299998611,None,2437.7545308992267,None,2438.2725274991244,None,2438.2725274991244,None,n,0.46709110029041767,2438.2725274991244,None,,,Color33,001,2022_Apr_08_1137,ProdSingRedo,3.2.3,59.956782766068706,
,,,,68,0,68,0,,,,,,,,,,,,,,,,,,,,,,,,2442.1122811995447,None,,,,,,,,,,,,,,,,,treatment,aloud,blue,68,41,339,2439.2946112994105,None,2439.2946112994105,None,1,1.7490072008222342,2439.2946112994105,None,2441.0904679000378,None,2441.6061550993472,None,2441.6061550993472,None,n,0.46956329979002476,2441.6061550993472,None,,,Color33,001,2022_Apr_08_1137,ProdSingRedo,3.2.3,59.956782766068706,
,,,,69,0,69,0,,,,,,,,,,,,,,,,,,,,,,,,2444.6893667001277,None,,,,,,,,,,,,,,,,,degree,silent,red,69,88,89,2442.620639199391,None,2442.620639199391,None,1,1.198963301256299,2442.620639199391,None,2443.8721532989293,None,2444.390946799889,None,2444.390946799889,None,n,0.2606469988822937,2444.390946799889,None,,,Color33,001,2022_Apr_08_1137,ProdSingRedo,3.2.3,59.956782766068706,
,,,,70,0,70,0,,,,,,,,,,,,,,,,,,,,,,,,2448.58286799863,None,,,,,,,,,,,,,,,,,debate,new_aloud,blue,70,148,87,2445.2174900993705,None,2445.2174900993705,None,1,2.2660377994179726,2445.2174900993705,None,2447.5391430985183,None,2448.0618818998337,None,2448.0618818998337,None,n,0.4933324009180069,2448.0618818998337,None,,,Color33,001,2022_Apr_08_1137,ProdSingRedo,3.2.3,59.956782766068706,
,,,,71,0,71,0,,,,,,,,,,,,,,,,,,,,,,,,2450.622689699754,None,,,,,,,,,,,,,,,,,pancakes,new_aloud,blue,71,128,210,2449.098971698433,None,2449.098971698433,None,1,0.8971362989395857,2449.098971698433,None,2450.042573399842,None,2450.568360200152,None,2450.568360200152,None,n,0.01920110173523426,2450.568360200152,None,,,Color33,001,2022_Apr_08_1137,ProdSingRedo,3.2.3,59.956782766068706,
,,,,72,0,72,0,,,,,,,,,,,,,,,,,,,,,,,,2453.7739178985357,None,,,,,,,,,,,,,,,,,strain,sing,yellow,72,18,308,2451.14039270021,None,2451.14039270021,None,1,1.471721800044179,2451.14039270021,None,2452.6606925986707,None,2453.177574198693,None,2453.177574198693,None,n,0.5705955009907484,2453.177574198693,None,,,Color33,001,2022_Apr_08_1137,ProdSingRedo,3.2.3,59.956782766068706,
,,,,73,0,73,0,,,,,,,,,,,,,,,,,,,,,,,,2455.973778799176,None,,,,,,,,,,,,,,,,,cover,silent,red,73,61,77,2454.29930889979,None,2454.29930889979,None,1,1.0321715008467436,2454.29930889979,None,2455.370006699115,None,2455.88554889895,None,2455.88554889895,None,n,0.054027000442147255,2455.88554889895,None,,,Color33,001,2022_Apr_08_1137,ProdSingRedo,3.2.3,59.956782766068706,
,,,,74,0,74,0,,,,,,,,,,,,,,,,,,,,,,,,2465.124459799379,None,,,,,,,,,,,,,,,,,guard,sing,yellow,74,16,145,2456.5011876001954,None,2456.5011876001954,None,1,7.9903749991208315,2456.5011876001954,None,2464.5388375986367,None,2465.0575258992612,None,2465.0575258992612,None,n,0.03412169963121414,2465.0575258992612,None,,,Color33,001,2022_Apr_08_1137,ProdSingRedo,3.2.3,59.956782766068706,
,,,,75,0,75,0,,,,,,,,,,,,,,,,,,,,,,,,2468.0733954999596,None,,,,,,,,,,,,,,,,,hearing,new_aloud,blue,75,127,150,2465.6557837985456,None,2465.6557837985456,None,1,1.2838938999921083,2465.6557837985456,None,2466.9858507998288,None,2467.498455699533,None,2467.498455699533,None,n,0.5370691996067762,2467.498455699533,None,,,Color33,001,2022_Apr_08_1137,ProdSingRedo,3.2.3,59.956782766068706,
,,,,76,0,76,0,,,,,,,,,,,,,,,,,,,,,,,,2470.359400499612,None,,,,,,,,,,,,,,,,,sunset,aloud,blue,76,37,315,2468.5993379987776,None,2468.5993379987776,None,1,0.6282751001417637,2468.5993379987776,None,2469.2746963985264,None,2469.7951173000038,None,2469.7951173000038,None,n,0.5365302003920078,2469.7951173000038,None,,,Color33,001,2022_Apr_08_1137,ProdSingRedo,3.2.3,59.956782766068706,
,,,,77,0,77,0,,,,,,,,,,,,,,,,,,,,,,,,2472.474807098508,None,,,,,,,,,,,,,,,,,marriage,silent,red,77,64,179,2470.8835431989282,None,2470.8835431989282,None,1,0.9599897004663944,2470.8835431989282,None,2471.8957548998296,None,2472.4166473988444,None,2472.4166473988444,None,n,0.026865998283028603,2472.4166473988444,None,,,Color33,001,2022_Apr_08_1137,ProdSingRedo,3.2.3,59.956782766068706,
,,,,78,0,78,0,,,,,,,,,,,,,,,,,,,,,,,,2474.5908789001405,None,,,,,,,,,,,,,,,,,bitter,new_aloud,blue,78,137,23,2472.987455099821,None,2472.987455099821,None,1,0.9120487999171019,2472.987455099821,None,2473.9386209994555,None,2474.4590264,None,2474.4590264,None,n,0.09651209972798824,2474.4590264,None,,,Color33,001,2022_Apr_08_1137,ProdSingRedo,3.2.3,59.956782766068706,
,,,,79,0,79,0,,,,,,,,,,,,,,,,,,,,,,,,2477.2077642995864,None,,,,,,,,,,,,,,,,,blind,new_silent,red,79,159,24,2475.113478800282,None,2475.113478800282,None,1,0.9456898998469114,2475.113478800282,None,2476.084970999509,None,2476.609135199338,None,2476.609135199338,None,n,0.5623873993754387,2476.609135199338,None,,,Color33,001,2022_Apr_08_1137,ProdSingRedo,3.2.3,59.956782766068706,
,,,,80,0,80,0,,,,,,,,,,,,,,,,,,,,,,,,2479.6078514996916,None,,,,,,,,,,,,,,,,,evidence,new_silent,red,80,154,120,2477.737319998443,None,2477.737319998443,None,1,0.6664302013814449,2477.737319998443,None,2478.4564976990223,None,2478.9789896998554,None,2478.9789896998554,None,n,0.5925268009305,2478.9789896998554,None,,,Color33,001,2022_Apr_08_1137,ProdSingRedo,3.2.3,59.956782766068706,
,,,,81,0,81,0,,,,,,,,,,,,,,,,,,,,,,,,2482.4923285990953,None,,,,,,,,,,,,,,,,,majority,new_aloud,blue,81,130,176,2480.132987199351,None,2480.132987199351,None,1,1.2545113004744053,2480.132987199351,None,2481.442148199305,None,2481.966101599857,None,2481.966101599857,None,n,0.4934527985751629,2481.966101599857,None,,,Color33,001,2022_Apr_08_1137,ProdSingRedo,3.2.3,59.956782766068706,
,,,,82,0,82,0,,,,,,,,,,,,,,,,,,,,,,,,2485.0766757000238,None,,,,,,,,,,,,,,,,,passage,new_aloud,blue,82,124,212,2483.020638799295,None,2483.020638799295,None,1,0.8389045987278223,2483.020638799295,None,2483.908011799678,None,2484.43249890022,None,2484.43249890022,None,n,0.6109923999756575,2484.43249890022,None,,,Color33,001,2022_Apr_08_1137,ProdSingRedo,3.2.3,59.956782766068706,
,,,,83,0,83,0,,,,,,,,,,,,,,,,,,,,,,,,2494.4927698001266,None,,,,,,,,,,,,,,,,,state,sing,yellow,83,2,303,2485.6023885998875,None,2485.6023885998875,None,6,5.577053399756551,2485.6023885998875,None,2491.2257431987673,None,2491.7455933988094,None,2491.7455933988094,None,r,2.7138948999345303,2491.7455933988094,None,,,Color33,001,2022_Apr_08_1137,ProdSingRedo,3.2.3,59.956782766068706,
,,,,84,0,84,0,,,,,,,,,,,,,,,,,,,,,,,,2501.476582398638,None,,,,,,,,,,,,,,,,,ground,silent,red,84,74,142,2495.02239699848,None,2495.02239699848,None,1,2.9568208009004593,2495.02239699848,None,2498.022919299081,None,2498.5312906987965,None,2498.5312906987965,None,f,2.912229400128126,2498.5312906987965,None,,,Color33,001,2022_Apr_08_1137,ProdSingRedo,3.2.3,59.956782766068706,
,,,,85,0,85,0,,,,,,,,,,,,,,,,,,,,,,,,2507.8446862995625,None,,,,,,,,,,,,,,,,,trial,sing,yellow,85,25,341,2502.0025098994374,None,2502.0025098994374,None,6,4.328860899433494,2502.0025098994374,None,2506.3750073984265,None,2506.899360800162,None,2506.899360800162,None,f,0.9120828006416559,2506.899360800162,None,,,Color33,001,2022_Apr_08_1137,ProdSingRedo,3.2.3,59.956782766068706,
,,,,86,0,86,0,,,,,,,,,,,,,,,,,,,,,,,,2512.8771927002817,None,,,,,,,,,,,,,,,,,motion,new_sing,yellow,86,97,194,2508.3654380999506,None,2508.3654380999506,None,1,3.4379976000636816,2508.3654380999506,None,2511.8343908991665,None,2512.346584400162,None,2512.346584400162,None,n,0.5049226004630327,2512.346584400162,None,,,Color33,001,2022_Apr_08_1137,ProdSingRedo,3.2.3,59.956782766068706,
,,,,87,0,87,0,,,,,,,,,,,,,,,,,,,,,,,,2515.345500899479,None,,,,,,,,,,,,,,,,,frank,new_sing,yellow,87,112,133,2513.4077110998333,None,2513.4077110998333,None,1,0.9317212998867035,2513.4077110998333,None,2514.3889859002084,None,2514.9163678996265,None,2514.9163678996265,None,n,0.39913160167634487,2514.9163678996265,None,,,Color33,001,2022_Apr_08_1137,ProdSingRedo,3.2.3,59.956782766068706,
,,,,88,0,88,0,,,,,,,,,,,,,,,,,,,,,,,,2518.3445996996015,None,,,,,,,,,,,,,,,,,substance,new_sing,yellow,88,100,313,2515.876400599256,None,2515.876400599256,None,1,1.031148498877883,2515.876400599256,None,2516.9647746998817,None,2517.487317899242,None,2517.487317899242,None,n,0.8281043004244566,2517.487317899242,None,,,Color33,001,2022_Apr_08_1137,ProdSingRedo,3.2.3,59.956782766068706,
,,,,89,0,89,0,,,,,,,,,,,,,,,,,,,,,,,,2522.8976705987006,None,,,,,,,,,,,,,,,,,notice,new_silent,red,89,171,201,2518.867005199194,None,2518.867005199194,None,6,3.0326621998101473,2518.867005199194,None,2521.937850398943,None,2522.465489799157,None,2522.465489799157,None,f,0.40246780030429363,2522.465489799157,None,,,Color33,001,2022_Apr_08_1137,ProdSingRedo,3.2.3,59.956782766068706,
,,,,90,0,90,0,,,,,,,,,,,,,,,,,,,,,,,,2530.9792671985924,None,,,,,,,,,,,,,,,,,review,aloud,blue,90,32,263,2523.4228658992797,None,2523.4228658992797,None,6,3.188640398904681,2523.4228658992797,None,2526.664648698643,None,2527.1842700000852,None,2527.1842700000852,None,f,3.755145000293851,2527.1842700000852,None,,,Color33,001,2022_Apr_08_1137,ProdSingRedo,3.2.3,59.956782766068706,
,,,,91,0,91,0,,,,,,,,,,,,,,,,,,,,,,,,2533.7215704992414,None,,,,,,,,,,,,,,,,,permit,silent,red,91,85,218,2531.5005121994764,None,2531.5005121994764,None,1,1.2785254996269941,2531.5005121994764,None,2532.8094956986606,None,2533.3189914990216,None,2533.3189914990216,None,n,0.35649630054831505,2533.3189914990216,None,,,Color33,001,2022_Apr_08_1137,ProdSingRedo,3.2.3,59.956782766068706,
,,,,92,0,92,0,,,,,,,,,,,,,,,,,,,,,,,,2540.947193099186,None,,,,,,,,,,,,,,,,,season,sing,yellow,92,10,277,2534.2524050995708,None,2534.2524050995708,None,6,4.342943299561739,2534.2524050995708,None,2538.6458714995533,None,2539.1632369998842,None,2539.1632369998842,None,f,1.752267299219966,2539.1632369998842,None,,,Color33,001,2022_Apr_08_1137,ProdSingRedo,3.2.3,59.956782766068706,
,,,,93,0,93,0,,,,,,,,,,,,,,,,,,,,,,,,2548.078963899985,None,,,,,,,,,,,,,,,,,south,sing,yellow,93,14,296,2541.472025498748,None,2541.472025498748,None,6,1.8273259997367859,2541.472025498748,None,2543.3453978989273,None,2543.8656899984926,None,2543.8656899984926,None,r,4.177709300071001,2543.8656899984926,None,,,Color33,001,2022_Apr_08_1137,ProdSingRedo,3.2.3,59.956782766068706,
,,,,94,0,94,0,,,,,,,,,,,,,,,,,,,,,,,,2555.6838809996843,None,,,,,,,,,,,,,,,,,store,new_sing,yellow,94,106,305,2548.601388098672,None,2548.601388098672,None,6,4.522100200876594,2548.601388098672,None,2553.170506298542,None,2553.680168999359,None,2553.680168999359,None,f,1.9632070995867252,2553.680168999359,None,,,Color33,001,2022_Apr_08_1137,ProdSingRedo,3.2.3,59.956782766068706,
,,,,95,0,95,0,,,,,,,,,,,,,,,,,,,,,,,,2560.981131698936,None,,,,,,,,,,,,,,,,,sound,new_aloud,blue,95,145,295,2556.2024047002196,None,2556.2024047002196,None,6,2.720915898680687,2556.2024047002196,None,2558.960650898516,None,2559.4832546990365,None,2559.4832546990365,None,n,1.4644131995737553,2559.4832546990365,None,,,Color33,001,2022_Apr_08_1137,ProdSingRedo,3.2.3,59.956782766068706,
,,,,96,0,96,0,,,,,,,,,,,,,,,,,,,,,,,,2564.2499679997563,None,,,,,,,,,,,,,,,,,commercial,new_aloud,blue,96,134,61,2561.5074915997684,None,2561.5074915997684,None,1,1.7755130007863045,2561.5074915997684,None,2563.3100668992847,None,2563.8344375994056,None,2563.8344375994056,None,n,0.3852635994553566,2563.8344375994056,None,,,Color33,001,2022_Apr_08_1137,ProdSingRedo,3.2.3,59.956782766068706,
,,,,97,0,97,0,,,,,,,,,,,,,,,,,,,,,,,,2566.956876900047,None,,,,,,,,,,,,,,,,,resistance,new_sing,yellow,97,102,262,2564.776516498998,None,2564.776516498998,None,1,1.0508868992328644,2564.776516498998,None,2565.872165998444,None,2566.390185398981,None,2566.390185398981,None,n,0.5489411987364292,2566.390185398981,None,,,Color33,001,2022_Apr_08_1137,ProdSingRedo,3.2.3,59.956782766068706,
,,,,98,0,98,0,,,,,,,,,,,,,,,,,,,,,,,,2569.2982161995023,None,,,,,,,,,,,,,,,,,science,new_aloud,blue,98,144,275,2567.4617170989513,None,2567.4617170989513,None,1,0.8696133997291327,2567.4617170989513,None,2568.376740800217,None,2568.8976492993534,None,2568.8976492993534,None,n,0.3617726992815733,2568.8976492993534,None,,,Color33,001,2022_Apr_08_1137,ProdSingRedo,3.2.3,59.956782766068706,
,,,,99,0,99,0,,,,,,,,,,,,,,,,,,,,,,,,2573.614021100104,None,,,,,,,,,,,,,,,,,novel,aloud,blue,99,57,202,2569.823569798842,None,2569.823569798842,None,6,2.364264700561762,2569.823569798842,None,2572.2375465985388,None,2572.738542199135,None,2572.738542199135,None,f,0.8406181000173092,2572.738542199135,None,,,Color33,001,2022_Apr_08_1137,ProdSingRedo,3.2.3,59.956782766068706,
,,,,100,0,100,0,,,,,,,,,,,,,,,,,,,,,,,,2576.9649441987276,None,,,,,,,,,,,,,,,,,tragedy,new_sing,yellow,100,101,335,2574.1399604994804,None,2574.1399604994804,None,1,1.7276930008083582,2574.1399604994804,None,2575.9004989992827,None,2576.4106173999608,None,2576.4106173999608,None,n,0.5206794999539852,2576.4106173999608,None,,,Color33,001,2022_Apr_08_1137,ProdSingRedo,3.2.3,59.956782766068706,
,,,,101,0,101,0,,,,,,,,,,,,,,,,,,,,,,,,2587.1148783992976,None,,,,,,,,,,,,,,,,,reading,sing,yellow,101,11,254,2577.492142099887,None,2577.492142099887,None,6,2.2072061002254486,2577.492142099887,None,2579.749825399369,None,2580.2689787000418,None,2580.2689787000418,None,r,6.806545300409198,2580.2689787000418,None,,,Color33,001,2022_Apr_08_1137,ProdSingRedo,3.2.3,59.956782766068706,
,,,,102,0,102,0,,,,,,,,,,,,,,,,,,,,,,,,2592.6912629995495,None,,,,,,,,,,,,,,,,,taste,aloud,blue,102,54,322,2587.639576198533,None,2587.639576198533,None,6,2.8839114997535944,2587.639576198533,None,2590.5587748996913,None,2591.0848814994097,None,2591.0848814994097,None,f,1.5740696005523205,2591.0848814994097,None,,,Color33,001,2022_Apr_08_1137,ProdSingRedo,3.2.3,59.956782766068706,
,,,,103,0,103,0,,,,,,,,,,,,,,,,,,,,,,,,2595.800917999819,None,,,,,,,,,,,,,,,,,fellow,aloud,blue,103,55,126,2593.2084221988916,None,2593.2084221988916,None,6,1.6348832994699478,2593.2084221988916,None,2594.898109698668,None,2595.419855998829,None,2595.419855998829,None,f,0.3517185989767313,2595.419855998829,None,,,Color33,001,2022_Apr_08_1137,ProdSingRedo,3.2.3,59.956782766068706,
,,,,104,0,104,0,,,,,,,,,,,,,,,,,,,,,,,,2598.466980298981,None,,,,,,,,,,,,,,,,,month,silent,red,104,72,193,2596.3300633989275,None,2596.3300633989275,None,6,1.5131687000393867,2596.3300633989275,None,2597.891992500052,None,2598.3998956996948,None,2598.3998956996948,None,f,0.027216700837016106,2598.3998956996948,None,,,Color33,001,2022_Apr_08_1137,ProdSingRedo,3.2.3,59.956782766068706,
,,,,105,0,105,0,,,,,,,,,,,,,,,,,,,,,,,,2602.716818999499,None,,,,,,,,,,,,,,,,,fight,silent,red,105,66,127,2598.9928350001574,None,2598.9928350001574,None,1,2.8265179991722107,2598.9928350001574,None,2601.8665989991277,None,2602.3871966991574,None,2602.3871966991574,None,n,0.3040382992476225,2602.3871966991574,None,,,Color33,001,2022_Apr_08_1137,ProdSingRedo,3.2.3,59.956782766068706,
,,,,106,0,106,0,,,,,,,,,,,,,,,,,,,,,,,,2606.6501219999045,None,,,,,,,,,,,,,,,,,rough,new_sing,yellow,106,96,266,2603.2409701999277,None,2603.2409701999277,None,6,2.1623841002583504,2603.2409701999277,None,2605.448689399287,None,2605.967550398782,None,2605.967550398782,None,n,0.651723301038146,2605.967550398782,None,,,Color33,001,2022_Apr_08_1137,ProdSingRedo,3.2.3,59.956782766068706,
,,,,107,0,107,0,,,,,,,,,,,,,,,,,,,,,,,,2609.734023399651,None,,,,,,,,,,,,,,,,,measure,sing,yellow,107,21,184,2607.1772956997156,None,2607.1772956997156,None,6,1.6659060008823872,2607.1772956997156,None,2608.881851999089,None,2609.4071883000433,None,2609.4071883000433,None,n,0.29198800027370453,2609.4071883000433,None,,,Color33,001,2022_Apr_08_1137,ProdSingRedo,3.2.3,59.956782766068706,
,,,,108,0,108,0,,,,,,,,,,,,,,,,,,,,,,,,2612.4843689985573,None,,,,,,,,,,,,,,,,,scale,new_sing,yellow,108,107,272,2610.258030999452,None,2610.258030999452,None,6,1.409204501658678,2610.258030999452,None,2611.7166531998664,None,2612.2361250985414,None,2612.2361250985414,None,n,0.2151683997362852,2612.2361250985414,None,,,Color33,001,2022_Apr_08_1137,ProdSingRedo,3.2.3,59.956782766068706,
,,,,109,0,109,0,,,,,,,,,,,,,,,,,,,,,,,,2616.9833249989897,None,,,,,,,,,,,,,,,,,court,sing,yellow,109,19,75,2613.0095939990133,None,2613.0095939990133,None,6,2.9696379005908966,2613.0095939990133,None,2616.0264263991266,None,2616.538099600002,None,2616.538099600002,None,n,0.40911800041794777,2616.538099600002,None,,,Color33,001,2022_Apr_08_1137,ProdSingRedo,3.2.3,59.956782766068706,
,,,,110,0,110,0,,,,,,,,,,,,,,,,,,,,,,,,2621.518253799528,None,,,,,,,,,,,,,,,,,religion,aloud,blue,110,30,258,2617.508224999532,None,2617.508224999532,None,6,1.9349313005805016,2617.508224999532,None,2619.4822097998112,None,2620.0048928000033,None,2620.0048928000033,None,n,1.478253100067377,2620.0048928000033,None,,,Color33,001,2022_Apr_08_1137,ProdSingRedo,3.2.3,59.956782766068706,
,,,,111,0,111,0,,,,,,,,,,,,,,,,,,,,,,,,2627.3349737990648,None,,,,,,,,,,,,,,,,,opening,new_sing,yellow,111,113,205,2622.044384898618,None,2622.044384898618,None,6,3.6631928998976946,2622.044384898618,None,2625.7439879998565,None,2626.2610687986016,None,2626.2610687986016,None,f,1.0381923001259565,2626.2610687986016,None,,,Color33,001,2022_Apr_08_1137,ProdSingRedo,3.2.3,59.956782766068706,
,,,,112,0,112,0,,,,,,,,,,,,,,,,,,,,,,,,2634.937058499083,None,,,,,,,,,,,,,,,,,scene,silent,red,112,81,273,2627.8566087987274,None,2627.8566087987274,None,1,6.202311299741268,2627.8566087987274,None,2634.084707699716,None,2634.6060054991394,None,2634.6060054991394,None,n,0.29323129914700985,2634.6060054991394,None,,,Color33,001,2022_Apr_08_1137,ProdSingRedo,3.2.3,59.956782766068706,
,,,,113,0,113,0,,,,,,,,,,,,,,,,,,,,,,,,2638.452469298616,None,,,,,,,,,,,,,,,,,grade,new_silent,red,113,172,140,2635.4607954993844,None,2635.4607954993844,None,1,2.1185267008841038,2635.4607954993844,None,2637.627837399021,None,2638.1407474000007,None,2638.1407474000007,None,n,0.2784529998898506,2638.1407474000007,None,,,Color33,001,2022_Apr_08_1137,ProdSingRedo,3.2.3,59.956782766068706,
,,,,114,0,114,0,,,,,,,,,,,,,,,,,,,,,,,,2642.086140599102,None,,,,,,,,,,,,,,,,,stand,new_aloud,blue,114,126,302,2638.980776099488,None,2638.980776099488,None,1,2.0144305005669594,2638.980776099488,None,2641.0356522984803,None,2641.554249498993,None,2641.554249498993,None,n,0.4969296008348465,2641.554249498993,None,,,Color33,001,2022_Apr_08_1137,ProdSingRedo,3.2.3,59.956782766068706,
,,,,115,0,115,0,,,,,,,,,,,,,,,,,,,,,,,,2645.912942999974,None,,,,,,,,,,,,,,,,,comfort,sing,yellow,115,1,59,2642.613162498921,None,2642.613162498921,None,6,1.3420742005109787,2642.613162498921,None,2644.002150999382,None,2644.5244490988553,None,2644.5244490988553,None,f,1.3584773000329733,2644.5244490988553,None,,,Color33,001,2022_Apr_08_1137,ProdSingRedo,3.2.3,59.956782766068706,
,,,,116,0,116,0,,,,,,,,,,,,,,,,,,,,,,,,2649.1378483995795,None,,,,,,,,,,,,,,,,,owner,new_sing,yellow,116,94,208,2646.4302583988756,None,2646.4302583988756,None,1,1.5090479999780655,2646.4302583988756,None,2647.992387998849,None,2648.5074525997043,None,2648.5074525997043,None,n,0.599643399938941,2648.5074525997043,None,,,Color33,001,2022_Apr_08_1137,ProdSingRedo,3.2.3,59.956782766068706,
,,,,117,0,117,0,,,,,,,,,,,,,,,,,,,,,,,,2653.2777877990156,None,,,,,,,,,,,,,,,,,short,sing,yellow,117,22,285,2649.6576480995864,None,2649.6576480995864,None,6,1.905605798587203,2649.6576480995864,None,2651.6167756002396,None,2652.1366852000356,None,2652.1366852000356,None,n,1.1223882995545864,2652.1366852000356,None,,,Color33,001,2022_Apr_08_1137,ProdSingRedo,3.2.3,59.956782766068706,
,,,,118,0,118,0,,,,,,,,,,,,,,,,,,,,,,,,2656.070287199691,None,,,,,,,,,,,,,,,,,meeting,new_sing,yellow,118,111,187,2653.7939911987633,None,2653.7939911987633,None,6,1.305324601009488,2653.7939911987633,None,2655.145858500153,None,2655.6598041001707,None,2655.6598041001707,None,n,0.37531330063939095,2655.6598041001707,None,,,Color33,001,2022_Apr_08_1137,ProdSingRedo,3.2.3,59.956782766068706,
,,,,119,0,119,0,,,,,,,,,,,,,,,,,,,,,,,,2659.337535198778,None,,,,,,,,,,,,,,,,,listen,new_sing,yellow,119,119,172,2656.5921752993017,None,2656.5921752993017,None,1,1.619004800915718,2656.5921752993017,None,2658.2492924984545,None,2658.768106499687,None,2658.768106499687,None,n,0.5390356015414,2658.768106499687,None,,,Color33,001,2022_Apr_08_1137,ProdSingRedo,3.2.3,59.956782766068706,
,,,,120,0,120,0,,,,,,,,,,,,,,,,,,,,,,,,2662.5424326993525,None,,,,,,,,,,,,,,,,,service,aloud,blue,120,33,280,2659.864091699943,None,2659.864091699943,None,6,1.5956236999481916,2659.864091699943,None,2661.5032252985984,None,2662.023431899026,None,2662.023431899026,None,n,0.47568259947001934,2662.023431899026,None,,,Color33,001,2022_Apr_08_1137,ProdSingRedo,3.2.3,59.956782766068706,
,,,,121,0,121,0,,,,,,,,,,,,,,,,,,,,,,,,2668.370279898867,None,,,,,,,,,,,,,,,,,provision,sing,yellow,121,7,243,2663.061739899218,None,2663.061739899218,None,6,3.64548309892416,2663.061739899218,None,2666.752537999302,None,2667.275393700227,None,2667.275393700227,None,f,1.0557983983308077,2667.275393700227,None,,,Color33,001,2022_Apr_08_1137,ProdSingRedo,3.2.3,59.956782766068706,
,,,,122,0,122,0,,,,,,,,,,,,,,,,,,,,,,,,2671.2515632994473,None,,,,,,,,,,,,,,,,,front,new_sing,yellow,122,117,134,2668.8952466994524,None,2668.8952466994524,None,1,1.33214239962399,2668.8952466994524,None,2670.2635241001844,None,2670.7758743986487,None,2670.7758743986487,None,n,0.44336730055511,2670.7758743986487,None,,,Color33,001,2022_Apr_08_1137,ProdSingRedo,3.2.3,59.956782766068706,
,,,,123,0,123,0,,,,,,,,,,,,,,,,,,,,,,,,2678.387849099934,None,,,,,,,,,,,,,,,,,division,new_silent,red,123,160,101,2671.7701564989984,None,2671.7701564989984,None,6,3.1287807002663612,2671.7701564989984,None,2674.930909698829,None,2675.4577677994967,None,2675.4577677994967,None,n,2.8973184004426003,2675.4577677994967,None,,,Color33,001,2022_Apr_08_1137,ProdSingRedo,3.2.3,59.956782766068706,
,,,,124,0,124,0,,,,,,,,,,,,,,,,,,,,,,,,2686.141636699438,None,,,,,,,,,,,,,,,,,personnel,silent,red,124,89,219,2678.9116992987692,None,2678.9116992987692,None,1,6.187449799850583,2678.9116992987692,None,2685.146152699366,None,2685.6565617993474,None,2685.6565617993474,None,n,0.45056090131402016,2685.6565617993474,None,,,Color33,001,2022_Apr_08_1137,ProdSingRedo,3.2.3,59.956782766068706,
,,,,125,0,125,0,,,,,,,,,,,,,,,,,,,,,,,,2689.172228800133,None,,,,,,,,,,,,,,,,,running,new_silent,red,125,170,268,2686.6712117996067,None,2686.6712117996067,None,1,1.283889301121235,2686.6712117996067,None,2688.006993100047,None,2688.527374899015,None,2688.527374899015,None,n,0.6117087006568909,2688.527374899015,None,,,Color33,001,2022_Apr_08_1137,ProdSingRedo,3.2.3,59.956782766068706,
,,,,126,0,126,0,,,,,,,,,,,,,,,,,,,,,,,,2692.577983399853,None,,,,,,,,,,,,,,,,,collection,new_aloud,blue,126,147,54,2689.6963292993605,None,2689.6963292993605,None,1,1.9708354007452726,2689.6963292993605,None,2691.7188162989914,None,2692.2410767991096,None,2692.2410767991096,None,n,0.2979568988084793,2692.2410767991096,None,,,Color33,001,2022_Apr_08_1137,ProdSingRedo,3.2.3,59.956782766068706,
,,,,127,0,127,0,,,,,,,,,,,,,,,,,,,,,,,,2698.1230303999037,None,,,,,,,,,,,,,,,,,pressure,sing,yellow,127,12,232,2693.0957430992275,None,2693.0957430992275,None,6,2.507361300289631,2693.0957430992275,None,2695.6492101997137,None,2696.1769762989134,None,2696.1769762989134,None,r,1.9220722001045942,2696.1769762989134,None,,,Color33,001,2022_Apr_08_1137,ProdSingRedo,3.2.3,59.956782766068706,
,,,,128,0,128,0,,,,,,,,,,,,,,,,,,,,,,,,2701.4725720994174,None,,,,,,,,,,,,,,,,,public,sing,yellow,128,26,244,2698.639847099781,None,2698.639847099781,None,6,1.6433284990489483,2698.639847099781,None,2700.3405309002846,None,2700.8589731995016,None,2700.8589731995016,None,f,0.5760204996913671,2700.8589731995016,None,,,Color33,001,2022_Apr_08_1137,ProdSingRedo,3.2.3,59.956782766068706,
,,,,129,0,129,0,,,,,,,,,,,,,,,,,,,,,,,,2704.9103274997324,None,,,,,,,,,,,,,,,,,poetry,new_aloud,blue,129,121,225,2701.982760598883,None,2701.982760598883,None,1,1.4683267995715141,2701.982760598883,None,2703.500257600099,None,2704.0240302998573,None,2704.0240302998573,None,n,0.8590287994593382,2704.0240302998573,None,,,Color33,001,2022_Apr_08_1137,ProdSingRedo,3.2.3,59.956782766068706,
,,,,130,0,130,0,,,,,,,,,,,,,,,,,,,,,,,,2707.4403754994273,None,,,,,,,,,,,,,,,,,principal,new_silent,red,130,174,236,2705.433264998719,None,2705.433264998719,None,1,1.0739155001938343,2705.433264998719,None,2706.555182199925,None,2707.066831499338,None,2707.066831499338,None,n,0.3442106992006302,2707.066831499338,None,,,Color33,001,2022_Apr_08_1137,ProdSingRedo,3.2.3,59.956782766068706,
,,,,131,0,131,0,,,,,,,,,,,,,,,,,,,,,,,,2711.190792599693,None,,,,,,,,,,,,,,,,,straight,silent,red,131,68,307,2707.968185098842,None,2707.968185098842,None,1,2.202962599694729,2707.968185098842,None,2710.224768700078,None,2710.7486732993275,None,2710.7486732993275,None,n,0.40636900067329407,2710.7486732993275,None,,,Color33,001,2022_Apr_08_1137,ProdSingRedo,3.2.3,59.956782766068706,
,,,,132,0,132,0,,,,,,,,,,,,,,,,,,,,,,,,2713.8774391990155,None,,,,,,,,,,,,,,,,,employment,new_aloud,blue,132,131,111,2711.7083085998893,None,2711.7083085998893,None,1,1.0464278999716043,2711.7083085998893,None,2712.792445199564,None,2713.2987500000745,None,2713.2987500000745,None,n,0.5364234000444412,2713.2987500000745,None,,,Color33,001,2022_Apr_08_1137,ProdSingRedo,3.2.3,59.956782766068706,
,,,,133,0,133,0,,,,,,,,,,,,,,,,,,,,,,,,2716.3246944993734,None,,,,,,,,,,,,,,,,,engineer,new_silent,red,133,151,114,2714.4130155984312,None,2714.4130155984312,None,1,0.8380080014467239,2714.4130155984312,None,2715.305129898712,None,2715.8277000989765,None,2715.8277000989765,None,n,0.4633409008383751,2715.8277000989765,None,,,Color33,001,2022_Apr_08_1137,ProdSingRedo,3.2.3,59.956782766068706,
,,,,134,0,134,0,,,,,,,,,,,,,,,,,,,,,,,,2719.0912541002035,None,,,,,,,,,,,,,,,,,entrance,sing,yellow,134,27,115,2716.853639598936,None,2716.853639598936,None,1,1.1974679995328188,2716.853639598936,None,2718.111150799319,None,2718.626587400213,None,2718.626587400213,None,n,0.440455200150609,2718.626587400213,None,,,Color33,001,2022_Apr_08_1137,ProdSingRedo,3.2.3,59.956782766068706,
,,,,135,0,135,0,,,,,,,,,,,,,,,,,,,,,,,,2723.2758626993746,None,,,,,,,,,,,,,,,,,school,new_aloud,blue,135,132,274,2719.6153260990977,None,2719.6153260990977,None,6,2.1485952995717525,2719.6153260990977,None,2721.8011814001948,None,2722.323245199397,None,2722.323245199397,None,f,0.9277372993528843,2722.323245199397,None,,,Color33,001,2022_Apr_08_1137,ProdSingRedo,3.2.3,59.956782766068706,
,,,,136,0,136,0,,,,,,,,,,,,,,,,,,,,,,,,2726.9246637001634,None,,,,,,,,,,,,,,,,,salary,sing,yellow,136,29,271,2723.7991667985916,None,2723.7991667985916,None,1,1.939979499205947,2723.7991667985916,None,2725.790316399187,None,2726.315289299935,None,2726.315289299935,None,n,0.5837693996727467,2726.315289299935,None,,,Color33,001,2022_Apr_08_1137,ProdSingRedo,3.2.3,59.956782766068706,
,,,,137,0,137,0,,,,,,,,,,,,,,,,,,,,,,,,2730.941693900153,None,,,,,,,,,,,,,,,,,volume,new_silent,red,137,166,349,2727.4530098997056,None,2727.4530098997056,None,1,2.438163099810481,2727.4530098997056,None,2729.9369219988585,None,2730.463855000213,None,2730.463855000213,None,n,0.45130070112645626,2730.463855000213,None,,,Color33,001,2022_Apr_08_1137,ProdSingRedo,3.2.3,59.956782766068706,
,,,,138,0,138,0,,,,,,,,,,,,,,,,,,,,,,,,2734.009175699204,None,,,,,,,,,,,,,,,,,judge,new_sing,yellow,138,118,166,2731.4708962999284,None,2731.4708962999284,None,6,1.8200394995510578,2731.4708962999284,None,2733.343159498647,None,2733.865236699581,None,2733.865236699581,None,f,0.11373900063335896,2733.865236699581,None,,,Color33,001,2022_Apr_08_1137,ProdSingRedo,3.2.3,59.956782766068706,
,,,,139,0,139,0,,,,,,,,,,,,,,,,,,,,,,,,2737.943666299805,None,,,,,,,,,,,,,,,,,height,new_sing,yellow,139,99,152,2734.5351499002427,None,2734.5351499002427,None,1,2.227776799350977,2734.5351499002427,None,2736.8043563999236,None,2737.3164609000087,None,2737.3164609000087,None,n,0.5906233992427588,2737.3164609000087,None,,,Color33,001,2022_Apr_08_1137,ProdSingRedo,3.2.3,59.956782766068706,
,,,,140,0,140,0,,,,,,,,,,,,,,,,,,,,,,,,2746.7763070985675,None,,,,,,,,,,,,,,,,,minute,aloud,blue,140,50,192,2738.468551799655,None,2738.468551799655,None,6,3.8636958990246058,2738.468551799655,None,2742.381966399029,None,2742.8914251998067,None,2742.8914251998067,None,f,3.855527900159359,2742.8914251998067,None,,,Color33,001,2022_Apr_08_1137,ProdSingRedo,3.2.3,59.956782766068706,
,,,,141,0,141,0,,,,,,,,,,,,,,,,,,,,,,,,2750.443644599989,None,,,,,,,,,,,,,,,,,minor,sing,yellow,141,17,191,2747.2967677991837,None,2747.2967677991837,None,1,1.9941038005053997,2747.2967677991837,None,2749.3379761986434,None,2749.8587258998305,None,2749.8587258998305,None,n,0.5523031987249851,2749.8587258998305,None,,,Color33,001,2022_Apr_08_1137,ProdSingRedo,3.2.3,59.956782766068706,
,,,,142,0,142,0,,,,,,,,,,,,,,,,,,,,,,,,2756.119336700067,None,,,,,,,,,,,,,,,,,citizen,aloud,blue,142,43,50,2750.966661900282,None,2750.966661900282,None,6,3.924329400062561,2750.966661900282,None,2754.9416834991425,None,2755.4630449991673,None,2755.4630449991673,None,f,0.6359522007405758,2755.4630449991673,None,,,Color33,001,2022_Apr_08_1137,ProdSingRedo,3.2.3,59.956782766068706,
,,,,143,0,143,0,,,,,,,,,,,,,,,,,,,,,,,,2760.860334498808,None,,,,,,,,,,,,,,,,,object,silent,red,143,78,204,2756.6364396996796,None,2756.6364396996796,None,1,3.430861499160528,2756.6364396996796,None,2760.1080345995724,None,2760.6299069989473,None,2760.6299069989473,None,n,0.1970140002667904,2760.6299069989473,None,,,Color33,001,2022_Apr_08_1137,ProdSingRedo,3.2.3,59.956782766068706,
,,,,144,0,144,0,,,,,,,,,,,,,,,,,,,,,,,,2766.1203316990286,None,,,,,,,,,,,,,,,,,capital,aloud,blue,144,40,40,2761.3887660987675,None,2761.3887660987675,None,6,3.454101400449872,2761.3887660987675,None,2764.8896551001817,None,2765.4163402989507,None,2765.4163402989507,None,n,0.6832999996840954,2765.4163402989507,None,,,Color33,001,2022_Apr_08_1137,ProdSingRedo,3.2.3,59.956782766068706,
,,,,145,0,145,0,,,,,,,,,,,,,,,,,,,,,,,,2769.562101598829,None,,,,,,,,,,,,,,,,,distance,new_aloud,blue,145,139,100,2766.6425084993243,None,2766.6425084993243,None,1,1.8804423995316029,2766.6425084993243,None,2768.573589399457,None,2769.097663300112,None,2769.097663300112,None,n,0.433271799236536,2769.097663300112,None,,,Color33,001,2022_Apr_08_1137,ProdSingRedo,3.2.3,59.956782766068706,
,,,,146,0,146,0,,,,,,,,,,,,,,,,,,,,,,,,2771.897469099611,None,,,,,,,,,,,,,,,,,growth,silent,red,146,69,144,2770.0881348997355,None,2770.0881348997355,None,1,1.0908007007092237,2770.0881348997355,None,2771.227311398834,None,2771.7501014992595,None,2771.7501014992595,None,n,0.10888970084488392,2771.7501014992595,None,,,Color33,001,2022_Apr_08_1137,ProdSingRedo,3.2.3,59.956782766068706,
,,,,147,0,147,0,,,,,,,,,,,,,,,,,,,,,,,,2774.077866299078,None,,,,,,,,,,,,,,,,,tennis,silent,red,147,77,323,2772.4135847985744,None,2772.4135847985744,None,1,1.004992900416255,2772.4135847985744,None,2773.4402360990644,None,2773.9583946000785,None,2773.9583946000785,None,n,0.0844539999961853,2773.9583946000785,None,,,Color33,001,2022_Apr_08_1137,ProdSingRedo,3.2.3,59.956782766068706,
,,,,148,0,148,0,,,,,,,,,,,,,,,,,,,,,,,,2776.1618969999254,None,,,,,,,,,,,,,,,,,safety,new_aloud,blue,148,122,270,2774.6017051991075,None,2774.6017051991075,None,1,0.9293221011757851,2774.6017051991075,None,2775.5784035995603,None,2776.0893858000636,None,2776.0893858000636,None,n,0.03339659981429577,2776.0893858000636,None,,,Color33,001,2022_Apr_08_1137,ProdSingRedo,3.2.3,59.956782766068706,
,,,,149,0,149,0,,,,,,,,,,,,,,,,,,,,,,,,2778.779238199815,None,,,,,,,,,,,,,,,,,health,silent,red,149,73,149,2776.686912499368,None,2776.686912499368,None,1,0.8761155996471643,2776.686912499368,None,2777.605062900111,None,2778.1425844002515,None,2778.1425844002515,None,n,0.6043949984014034,2778.1425844002515,None,,,Color33,001,2022_Apr_08_1137,ProdSingRedo,3.2.3,59.956782766068706,
,,,,150,0,150,0,,,,,,,,,,,,,,,,,,,,,,,,2783.544524099678,None,,,,,,,,,,,,,,,,,nation,sing,yellow,150,13,198,2779.303739199415,None,2779.303739199415,None,6,3.5152474995702505,2779.303739199415,None,2782.855246698484,None,2783.381040599197,None,2783.381040599197,None,n,0.12586040049791336,2783.381040599197,None,,,Color33,001,2022_Apr_08_1137,ProdSingRedo,3.2.3,59.956782766068706,
,,,,151,0,151,0,,,,,,,,,,,,,,,,,,,,,,,,2787.096365099773,None,,,,,,,,,,,,,,,,,master,aloud,blue,151,42,180,2784.0718223992735,None,2784.0718223992735,None,1,1.547147300094366,2784.0718223992735,None,2785.663678199053,None,2786.1795530002564,None,2786.1795530002564,None,n,0.8793607987463474,2786.1795530002564,None,,,Color33,001,2022_Apr_08_1137,ProdSingRedo,3.2.3,59.956782766068706,
,,,,152,0,152,0,,,,,,,,,,,,,,,,,,,,,,,,2790.7664278987795,None,,,,,,,,,,,,,,,,,appeal,new_sing,yellow,152,105,9,2787.6224745996296,None,2787.6224745996296,None,1,2.0291574001312256,2787.6224745996296,None,2789.6914168987423,None,2790.2162429001182,None,2790.2162429001182,None,n,0.506522299721837,2790.2162429001182,None,,,Color33,001,2022_Apr_08_1137,ProdSingRedo,3.2.3,59.956782766068706,
,,,,153,0,153,0,,,,,,,,,,,,,,,,,,,,,,,,2796.62963449955,None,,,,,,,,,,,,,,,,,population,silent,red,153,67,227,2791.2963750995696,None,2791.2963750995696,None,6,1.8104995004832745,2791.2963750995696,None,2793.164872698486,None,2793.68339679949,None,2793.68339679949,None,n,2.9114414006471634,2793.68339679949,None,,,Color33,001,2022_Apr_08_1137,ProdSingRedo,3.2.3,59.956782766068706,
,,,,154,0,154,0,,,,,,,,,,,,,,,,,,,,,,,,2800.1631653998047,None,,,,,,,,,,,,,,,,,sweet,new_sing,yellow,154,108,319,2797.156212899834,None,2797.156212899834,None,1,1.9907574001699686,2797.156212899834,None,2799.199551898986,None,2799.7169573996216,None,2799.7169573996216,None,n,0.4139468986541033,2799.7169573996216,None,,,Color33,001,2022_Apr_08_1137,ProdSingRedo,3.2.3,59.956782766068706,
,,,,155,0,155,0,,,,,,,,,,,,,,,,,,,,,,,,2804.3142333999276,None,,,,,,,,,,,,,,,,,individual,silent,red,155,75,160,2800.6949696000665,None,2800.6949696000665,None,6,2.123800899833441,2800.6949696000665,None,2802.8395283985883,None,2803.3558207992464,None,2803.3558207992464,None,f,0.9271052982658148,2803.3558207992464,None,,,Color33,001,2022_Apr_08_1137,ProdSingRedo,3.2.3,59.956782766068706,
,,,,156,0,156,0,,,,,,,,,,,,,,,,,,,,,,,,2808.5461630988866,None,,,,,,,,,,,,,,,,,dream,aloud,blue,156,31,104,2804.839840499684,None,2804.839840499684,None,6,2.395066199824214,2804.839840499684,None,2807.2827341984957,None,2807.7994689997286,None,2807.7994689997286,None,r,0.7073803003877401,2807.7994689997286,None,,,Color33,001,2022_Apr_08_1137,ProdSingRedo,3.2.3,59.956782766068706,
,,,,157,0,157,0,,,,,,,,,,,,,,,,,,,,,,,,2811.8650332000107,None,,,,,,,,,,,,,,,,,subject,new_sing,yellow,157,90,312,2809.0720028001815,None,2809.0720028001815,None,6,1.5949357002973557,2809.0720028001815,None,2810.7148028984666,None,2811.2388531994075,None,2811.2388531994075,None,f,0.5960281994193792,2811.2388531994075,None,,,Color33,001,2022_Apr_08_1137,ProdSingRedo,3.2.3,59.956782766068706,
,,,,158,0,158,0,,,,,,,,,,,,,,,,,,,,,,,,2816.021557999775,None,,,,,,,,,,,,,,,,,government,new_aloud,blue,158,120,139,2812.3887595999986,None,2812.3887595999986,None,1,2.6222962010651827,2812.3887595999986,None,2815.0653689000756,None,2815.583020599559,None,2815.583020599559,None,n,0.3958161994814873,2815.583020599559,None,,,Color33,001,2022_Apr_08_1137,ProdSingRedo,3.2.3,59.956782766068706,
,,,,159,0,159,0,,,,,,,,,,,,,,,,,,,,,,,,2819.9902403987944,None,,,,,,,,,,,,,,,,,suspect,new_silent,red,159,165,318,2816.5234226994216,None,2816.5234226994216,None,1,2.439315000548959,2816.5234226994216,None,2819.009130999446,None,2819.5218003988266,None,2819.5218003988266,None,n,0.44883649982511997,2819.5218003988266,None,,,Color33,001,2022_Apr_08_1137,ProdSingRedo,3.2.3,59.956782766068706,
,,,,160,0,160,0,,,,,,,,,,,,,,,,,,,,,,,,2824.68182840012,None,,,,,,,,,,,,,,,,,escape,aloud,blue,160,35,118,2820.506147099659,None,2820.506147099659,None,6,2.7048554997891188,2820.506147099659,None,2823.261707900092,None,2823.7864466998726,None,2823.7864466998726,None,n,0.8563317004591227,2823.7864466998726,None,,,Color33,001,2022_Apr_08_1137,ProdSingRedo,3.2.3,59.956782766068706,
,,,,161,0,161,0,,,,,,,,,,,,,,,,,,,,,,,,2828.014393299818,None,,,,,,,,,,,,,,,,,match,silent,red,161,76,181,2825.2074403986335,None,2825.2074403986335,None,6,2.107335699722171,2825.2074403986335,None,2827.363869300112,None,2827.88093129918,None,2827.88093129918,None,n,0.09794970043003559,2827.88093129918,None,,,Color33,001,2022_Apr_08_1137,ProdSingRedo,3.2.3,59.956782766068706,
,,,,162,0,162,0,,,,,,,,,,,,,,,,,,,,,,,,2830.9482736997306,None,,,,,,,,,,,,,,,,,broad,new_silent,red,162,169,31,2828.541463699192,None,2828.541463699192,None,1,1.3813744001090527,2828.541463699192,None,2829.951217699796,None,2830.4696720000356,None,2830.4696720000356,None,n,0.4450765997171402,2830.4696720000356,None,,,Color33,001,2022_Apr_08_1137,ProdSingRedo,3.2.3,59.956782766068706,
,,,,163,0,163,0,,,,,,,,,,,,,,,,,,,,,,,,2833.8803288992494,None,,,,,,,,,,,,,,,,,question,sing,yellow,163,6,247,2831.476120200008,None,2831.476120200008,None,1,1.334375100210309,2831.476120200008,None,2832.8452992998064,None,2833.3552898000926,None,2833.3552898000926,None,n,0.4956602994352579,2833.3552898000926,None,,,Color33,001,2022_Apr_08_1137,ProdSingRedo,3.2.3,59.956782766068706,
,,,,164,0,164,0,,,,,,,,,,,,,,,,,,,,,,,,2845.831895498559,None,,,,,,,,,,,,,,,,,present,new_silent,red,164,161,231,2834.4037582986057,None,2834.4037582986057,None,1,10.463070299476385,2834.4037582986057,None,2844.9141499996185,None,2845.432848898694,None,2845.432848898694,None,n,0.3620255012065172,2845.432848898694,None,,,Color33,001,2022_Apr_08_1137,ProdSingRedo,3.2.3,59.956782766068706,
,,,,165,0,165,0,,,,,,,,,,,,,,,,,,,,,,,,2848.091821398586,None,,,,,,,,,,,,,,,,,accident,aloud,blue,165,44,0,2846.3569695986807,None,2846.3569695986807,None,1,0.8219624012708664,2846.3569695986807,None,2847.2298425994813,None,2847.7510323990136,None,2847.7510323990136,None,n,0.3234996013343334,2847.7510323990136,None,,,Color33,001,2022_Apr_08_1137,ProdSingRedo,3.2.3,59.956782766068706,
,,,,166,0,166,0,,,,,,,,,,,,,,,,,,,,,,,,2852.1510494984686,None,,,,,,,,,,,,,,,,,impact,aloud,blue,166,56,157,2848.6077681984752,None,2848.6077681984752,None,6,2.3476956002414227,2848.6077681984752,None,2850.9984450992197,None,2851.51814349927,None,2851.51814349927,None,n,0.6049291007220745,2851.51814349927,None,,,Color33,001,2022_Apr_08_1137,ProdSingRedo,3.2.3,59.956782766068706,
,,,,167,0,167,0,,,,,,,,,,,,,,,,,,,,,,,,2855.0211640000343,None,,,,,,,,,,,,,,,,,center,silent,red,167,62,44,2852.672800699249,None,2852.672800699249,None,6,1.018069600686431,2852.672800699249,None,2853.7297120001167,None,2854.255638798699,None,2854.255638798699,None,n,0.7390600983053446,2854.255638798699,None,,,Color33,001,2022_Apr_08_1137,ProdSingRedo,3.2.3,59.956782766068706,
,,,,168,0,168,0,,,,,,,,,,,,,,,,,,,,,,,,2859.199080299586,None,,,,,,,,,,,,,,,,,exchange,new_sing,yellow,168,114,121,2855.543307898566,None,2855.543307898566,None,1,2.6434288006275892,2855.543307898566,None,2858.236584600061,None,2858.7538684997708,None,2858.7538684997708,None,n,0.4090925008058548,2858.7538684997708,None,,,Color33,001,2022_Apr_08_1137,ProdSingRedo,3.2.3,59.956782766068706,
,,,,169,0,169,0,,,,,,,,,,,,,,,,,,,,,,,,2861.9647597987205,None,,,,,,,,,,,,,,,,,century,aloud,blue,169,38,45,2859.727325199172,None,2859.727325199172,None,6,1.2594534996896982,2859.727325199172,None,2861.035940999165,None,2861.555548099801,None,2861.555548099801,None,n,0.38369280099868774,2861.555548099801,None,,,Color33,001,2022_Apr_08_1137,ProdSingRedo,3.2.3,59.956782766068706,
,,,,170,0,170,0,,,,,,,,,,,,,,,,,,,,,,,,2865.4557443000376,None,,,,,,,,,,,,,,,,,orchestra,new_silent,red,170,173,206,2862.490450799465,None,2862.490450799465,None,1,1.8326339982450008,2862.490450799465,None,2864.3629952985793,None,2864.8882963992655,None,2864.8882963992655,None,n,0.5226449016481638,2864.8882963992655,None,,,Color33,001,2022_Apr_08_1137,ProdSingRedo,3.2.3,59.956782766068706,
,,,,171,0,171,0,,,,,,,,,,,,,,,,,,,,,,,,2868.5684516988695,None,,,,,,,,,,,,,,,,,position,silent,red,171,83,229,2865.9722806997597,None,2865.9722806997597,None,6,1.7824108991771936,2865.9722806997597,None,2867.798802100122,None,2868.3159226998687,None,2868.3159226998687,None,n,0.22294040024280548,2868.3159226998687,None,,,Color33,001,2022_Apr_08_1137,ProdSingRedo,3.2.3,59.956782766068706,
,,,,172,0,172,0,,,,,,,,,,,,,,,,,,,,,,,,2873.117895198986,None,,,,,,,,,,,,,,,,,generation,new_silent,red,172,167,136,2869.09683649987,None,2869.09683649987,None,1,3.265751000493765,2869.09683649987,None,2872.417936500162,None,2872.938340799883,None,2872.938340799883,None,n,0.14438229985535145,2872.938340799883,None,,,Color33,001,2022_Apr_08_1137,ProdSingRedo,3.2.3,59.956782766068706,
,,,,173,0,173,0,,,,,,,,,,,,,,,,,,,,,,,,2875.8181777000427,None,,,,,,,,,,,,,,,,,point,new_silent,red,173,176,226,2873.639423100278,None,2873.639423100278,None,1,1.4678339008241892,2873.639423100278,None,2875.1481305994093,None,2875.665168499574,None,2875.665168499574,None,n,0.11353820003569126,2875.665168499574,None,,,Color33,001,2022_Apr_08_1137,ProdSingRedo,3.2.3,59.956782766068706,
,,,,174,0,174,0,,,,,,,,,,,,,,,,,,,,,,,,2878.3465069998056,None,,,,,,,,,,,,,,,,,committee,new_aloud,blue,174,140,62,2876.3406654987484,None,2876.3406654987484,None,1,1.062066599726677,2876.3406654987484,None,2877.44378590025,None,2877.9526057988405,None,2877.9526057988405,None,n,0.3462623003870249,2877.9526057988405,None,,,Color33,001,2022_Apr_08_1137,ProdSingRedo,3.2.3,59.956782766068706,
,,,,175,0,175,0,,,,,,,,,,,,,,,,,,,,,,,,2880.754854599014,None,,,,,,,,,,,,,,,,,thick,new_aloud,blue,175,133,327,2878.872768700123,None,2878.872768700123,None,1,0.8979304991662502,2878.872768700123,None,2879.8128899000585,None,2880.3359893001616,None,2880.3359893001616,None,n,0.3786714989691973,2880.3359893001616,None,,,Color33,001,2022_Apr_08_1137,ProdSingRedo,3.2.3,59.956782766068706,
,,,,176,0,176,0,,,,,,,,,,,,,,,,,,,,,,,,2883.269081098959,None,,,,,,,,,,,,,,,,,union,new_sing,yellow,176,110,344,2881.260262899101,None,2881.260262899101,None,1,1.1024945005774498,2881.260262899101,None,2882.402378199622,None,2882.9253080990165,None,2882.9253080990165,None,n,0.3175888005644083,2882.9253080990165,None,,,Color33,001,2022_Apr_08_1137,ProdSingRedo,3.2.3,59.956782766068706,
,,,,177,0,177,0,,,,,,,,,,,,,,,,,,,,,,,,2889.0365458987653,None,,,,,,,,,,,,,,,,,balance,sing,yellow,177,3,17,2883.7984010986984,None,2883.7984010986984,None,6,0.8765315003693104,2883.7984010986984,None,2884.7212837990373,None,2885.2390753999352,None,2885.2390753999352,None,r,3.771714000031352,2885.2390753999352,None,,,Color33,001,2022_Apr_08_1137,ProdSingRedo,3.2.3,59.956782766068706,
,,,,178,0,178,0,,,,,,,,,,,,,,,,,,,,,,,,2892.7809069994837,None,,,,,,,,,,,,,,,,,cousin,new_sing,yellow,178,95,76,2889.561814699322,None,2889.561814699322,None,1,2.240770000964403,2889.561814699322,None,2891.8352216985077,None,2892.3537916000932,None,2892.3537916000932,None,n,0.38462680019438267,2892.3537916000932,None,,,Color33,001,2022_Apr_08_1137,ProdSingRedo,3.2.3,59.956782766068706,
,,,,179,0,179,0,,,,,,,,,,,,,,,,,,,,,,,,2895.269084898755,None,,,,,,,,,,,,,,,,,contract,silent,red,179,60,68,2893.295507499948,None,2893.295507499948,None,1,1.1475983001291752,2893.295507499948,None,2894.481534600258,None,2894.9979421999305,None,2894.9979421999305,None,n,0.24477799981832504,2894.9979421999305,None,,,Color33,001,2022_Apr_08_1137,ProdSingRedo,3.2.3,59.956782766068706,
,,,,,,,,,,,,,,,,,,,,,,,,,,,,,,,,,,,,,,,,,,,,,,,,,,,,,,,,,,,,,,,,,,,,,,,,,2895.778046598658,None,,,,,,,
