StudyLoop.thisRepN,StudyLoop.thisTrialN,StudyLoop.thisN,StudyLoop.thisIndex,TestLoop.thisRepN,TestLoop.thisTrialN,TestLoop.thisN,TestLoop.thisIndex,textCondition.started,textCondition.stopped,keyCondition.keys,keyCondition.rt,keyCondition.started,keyCondition.stopped,Condition,stim_colors,color_sing,color_aloud,color_silent,textWelcome.started,textWelcome.stopped,keyWelcome.keys,keyWelcome.rt,keyWelcome.started,keyWelcome.stopped,textAloud.started,textAloud.stopped,textSilent.started,textSilent.stopped,textSing.started,textSing.stopped,textBlank500.started,textBlank500.stopped,study_word,study_type,study_color,study_num,study_word_num,textStudy.started,textStudy.stopped,keyStudy.keys,keyStudy.started,keyStudy.stopped,textTestInstructions.started,textTestInstructions.stopped,key_resp_3.keys,key_resp_3.rt,key_resp_3.started,key_resp_3.stopped,testWord,testType,testColor,testN,test_num,test_word_num,textConf.started,textConf.stopped,textConfScale.started,textConfScale.stopped,keyConf.keys,keyConf.rt,keyConf.started,keyConf.stopped,textTestBlank.started,textTestBlank.stopped,textRKN.started,textRKN.stopped,textRKNScale.started,textRKNScale.stopped,keyRKN.keys,keyRKN.rt,keyRKN.started,keyRKN.stopped,textEnd.started,textEnd.stopped,participant,session,date,expName,psychopyVersion,frameRate,
,,,,,,,,57.10423779999837,None,y,3.6074935998767614,57.10423779999837,None,,,,,,,,,,,,,,,,,,,,,,,,,,,,,,,,,,,,,,,,,,,,,,,,,,,,,,,,,,,,,,color22,001,2021_Nov_10_1530,ProdSingRedo,3.2.3,60.060132186771135,
,,,,,,,,,,,,,,ColoredTest,"['yellow', 'blue', 'red']",yellow,blue,red,60.78220519982278,None,space,1374.8823419003747,60.78220519982278,None,,,,,,,,,,,,,,,,,,,,,,,,,,,,,,,,,,,,,,,,,,,,,,,,,,,color22,001,2021_Nov_10_1530,ProdSingRedo,3.2.3,60.060132186771135,
0,0,0,0,,,,,,,,,,,,,,,,,,,,,,60.78220519982278,None,60.78220519982278,None,60.78220519982278,None,1438.2166345999576,None,rapid,aloud,blue,31,252,1436.2063644998707,None,None,1436.2063644998707,None,,,,,,,,,,,,,,,,,,,,,,,,,,,,,,,,,color22,001,2021_Nov_10_1530,ProdSingRedo,3.2.3,60.060132186771135,
1,0,1,0,,,,,,,,,,,,,,,,,,,,,,,,,,,,1440.7318219998851,None,provision,sing,yellow,8,243,1438.7357097999193,None,None,1438.7357097999193,None,,,,,,,,,,,,,,,,,,,,,,,,,,,,,,,,,color22,001,2021_Nov_10_1530,ProdSingRedo,3.2.3,60.060132186771135,
2,0,2,0,,,,,,,,,,,,,,,,,,,,,,,,,,,,1443.2489017997868,None,drink,silent,red,75,105,1441.2482390999794,None,None,1441.2482390999794,None,,,,,,,,,,,,,,,,,,,,,,,,,,,,,,,,,color22,001,2021_Nov_10_1530,ProdSingRedo,3.2.3,60.060132186771135,
3,0,3,0,,,,,,,,,,,,,,,,,,,,,,,,,,,,1445.765424899757,None,salary,aloud,blue,56,271,1443.7770475000143,None,None,1443.7770475000143,None,,,,,,,,,,,,,,,,,,,,,,,,,,,,,,,,,color22,001,2021_Nov_10_1530,ProdSingRedo,3.2.3,60.060132186771135,
4,0,4,0,,,,,,,,,,,,,,,,,,,,,,,,,,,,1448.2823919998482,None,detective,silent,red,79,92,1446.2817641999573,None,None,1446.2817641999573,None,,,,,,,,,,,,,,,,,,,,,,,,,,,,,,,,,color22,001,2021_Nov_10_1530,ProdSingRedo,3.2.3,60.060132186771135,
5,0,5,0,,,,,,,,,,,,,,,,,,,,,,,,,,,,1450.7999629997648,None,corner,aloud,blue,44,69,1448.7919337996282,None,None,1448.7919337996282,None,,,,,,,,,,,,,,,,,,,,,,,,,,,,,,,,,color22,001,2021_Nov_10_1530,ProdSingRedo,3.2.3,60.060132186771135,
6,0,6,0,,,,,,,,,,,,,,,,,,,,,,,,,,,,1453.3146936995909,None,throw,aloud,blue,45,330,1451.309823599644,None,None,1451.309823599644,None,,,,,,,,,,,,,,,,,,,,,,,,,,,,,,,,,color22,001,2021_Nov_10_1530,ProdSingRedo,3.2.3,60.060132186771135,
7,0,7,0,,,,,,,,,,,,,,,,,,,,,,,,,,,,1455.8329047998413,None,candidate,sing,yellow,13,39,1453.8301801998168,None,None,1453.8301801998168,None,,,,,,,,,,,,,,,,,,,,,,,,,,,,,,,,,color22,001,2021_Nov_10_1530,ProdSingRedo,3.2.3,60.060132186771135,
8,0,8,0,,,,,,,,,,,,,,,,,,,,,,,,,,,,1458.3497947999276,None,month,sing,yellow,12,193,1456.3434108998626,None,None,1456.3434108998626,None,,,,,,,,,,,,,,,,,,,,,,,,,,,,,,,,,color22,001,2021_Nov_10_1530,ProdSingRedo,3.2.3,60.060132186771135,
9,0,9,0,,,,,,,,,,,,,,,,,,,,,,,,,,,,1460.8665704997256,None,owner,aloud,blue,42,208,1458.8640030999668,None,None,1458.8640030999668,None,,,,,,,,,,,,,,,,,,,,,,,,,,,,,,,,,color22,001,2021_Nov_10_1530,ProdSingRedo,3.2.3,60.060132186771135,
10,0,10,0,,,,,,,,,,,,,,,,,,,,,,,,,,,,1463.3836618997157,None,machinery,silent,red,66,175,1461.3839783999138,None,None,1461.3839783999138,None,,,,,,,,,,,,,,,,,,,,,,,,,,,,,,,,,color22,001,2021_Nov_10_1530,ProdSingRedo,3.2.3,60.060132186771135,
11,0,11,0,,,,,,,,,,,,,,,,,,,,,,,,,,,,1465.9004479995929,None,search,silent,red,85,276,1463.8963635996915,None,None,1463.8963635996915,None,,,,,,,,,,,,,,,,,,,,,,,,,,,,,,,,,color22,001,2021_Nov_10_1530,ProdSingRedo,3.2.3,60.060132186771135,
12,0,12,0,,,,,,,,,,,,,,,,,,,,,,,,,,,,1468.4168975995854,None,literature,sing,yellow,22,173,1466.4241906995885,None,None,1466.4241906995885,None,,,,,,,,,,,,,,,,,,,,,,,,,,,,,,,,,color22,001,2021_Nov_10_1530,ProdSingRedo,3.2.3,60.060132186771135,
13,0,13,0,,,,,,,,,,,,,,,,,,,,,,,,,,,,1470.9338833997026,None,group,sing,yellow,16,143,1468.9311531996354,None,None,1468.9311531996354,None,,,,,,,,,,,,,,,,,,,,,,,,,,,,,,,,,color22,001,2021_Nov_10_1530,ProdSingRedo,3.2.3,60.060132186771135,
14,0,14,0,,,,,,,,,,,,,,,,,,,,,,,,,,,,1473.4507110998966,None,damage,silent,red,83,83,1471.453877300024,None,None,1471.453877300024,None,,,,,,,,,,,,,,,,,,,,,,,,,,,,,,,,,color22,001,2021_Nov_10_1530,ProdSingRedo,3.2.3,60.060132186771135,
15,0,15,0,,,,,,,,,,,,,,,,,,,,,,,,,,,,1475.9676212999038,None,angle,aloud,blue,38,7,1473.9655339997262,None,None,1473.9655339997262,None,,,,,,,,,,,,,,,,,,,,,,,,,,,,,,,,,color22,001,2021_Nov_10_1530,ProdSingRedo,3.2.3,60.060132186771135,
16,0,16,0,,,,,,,,,,,,,,,,,,,,,,,,,,,,1478.484386799857,None,personnel,sing,yellow,5,219,1476.4793805996887,None,None,1476.4793805996887,None,,,,,,,,,,,,,,,,,,,,,,,,,,,,,,,,,color22,001,2021_Nov_10_1530,ProdSingRedo,3.2.3,60.060132186771135,
17,0,17,0,,,,,,,,,,,,,,,,,,,,,,,,,,,,1481.001228099689,None,drove,sing,yellow,11,106,1478.996725199744,None,None,1478.996725199744,None,,,,,,,,,,,,,,,,,,,,,,,,,,,,,,,,,color22,001,2021_Nov_10_1530,ProdSingRedo,3.2.3,60.060132186771135,
18,0,18,0,,,,,,,,,,,,,,,,,,,,,,,,,,,,1483.5171850998886,None,couch,silent,red,77,70,1481.513843599707,None,None,1481.513843599707,None,,,,,,,,,,,,,,,,,,,,,,,,,,,,,,,,,color22,001,2021_Nov_10_1530,ProdSingRedo,3.2.3,60.060132186771135,
19,0,19,0,,,,,,,,,,,,,,,,,,,,,,,,,,,,1486.0348100997508,None,universal,aloud,blue,46,345,1484.0351306996308,None,None,1484.0351306996308,None,,,,,,,,,,,,,,,,,,,,,,,,,,,,,,,,,color22,001,2021_Nov_10_1530,ProdSingRedo,3.2.3,60.060132186771135,
20,0,20,0,,,,,,,,,,,,,,,,,,,,,,,,,,,,1488.5509102996439,None,question,silent,red,63,247,1486.5563387996517,None,None,1486.5563387996517,None,,,,,,,,,,,,,,,,,,,,,,,,,,,,,,,,,color22,001,2021_Nov_10_1530,ProdSingRedo,3.2.3,60.060132186771135,
21,0,21,0,,,,,,,,,,,,,,,,,,,,,,,,,,,,1491.0687328996137,None,community,silent,red,81,63,1489.0698271999136,None,None,1489.0698271999136,None,,,,,,,,,,,,,,,,,,,,,,,,,,,,,,,,,color22,001,2021_Nov_10_1530,ProdSingRedo,3.2.3,60.060132186771135,
22,0,22,0,,,,,,,,,,,,,,,,,,,,,,,,,,,,1493.5854921997525,None,agency,sing,yellow,27,4,1491.5834883996285,None,None,1491.5834883996285,None,,,,,,,,,,,,,,,,,,,,,,,,,,,,,,,,,color22,001,2021_Nov_10_1530,ProdSingRedo,3.2.3,60.060132186771135,
23,0,23,0,,,,,,,,,,,,,,,,,,,,,,,,,,,,1496.1019009999,None,cousin,sing,yellow,20,76,1494.0989222996868,None,None,1494.0989222996868,None,,,,,,,,,,,,,,,,,,,,,,,,,,,,,,,,,color22,001,2021_Nov_10_1530,ProdSingRedo,3.2.3,60.060132186771135,
24,0,24,0,,,,,,,,,,,,,,,,,,,,,,,,,,,,1498.6012311996892,None,growth,sing,yellow,9,144,1496.601664299611,None,None,1496.601664299611,None,,,,,,,,,,,,,,,,,,,,,,,,,,,,,,,,,color22,001,2021_Nov_10_1530,ProdSingRedo,3.2.3,60.060132186771135,
25,0,25,0,,,,,,,,,,,,,,,,,,,,,,,,,,,,1501.12346099969,None,private,sing,yellow,2,237,1499.103886099998,None,None,1499.103886099998,None,,,,,,,,,,,,,,,,,,,,,,,,,,,,,,,,,color22,001,2021_Nov_10_1530,ProdSingRedo,3.2.3,60.060132186771135,
26,0,26,0,,,,,,,,,,,,,,,,,,,,,,,,,,,,1503.6360996998847,None,volume,silent,red,65,349,1501.6344298999757,None,None,1501.6344298999757,None,,,,,,,,,,,,,,,,,,,,,,,,,,,,,,,,,color22,001,2021_Nov_10_1530,ProdSingRedo,3.2.3,60.060132186771135,
27,0,27,0,,,,,,,,,,,,,,,,,,,,,,,,,,,,1506.1529481997713,None,treatment,sing,yellow,18,339,1504.153478199616,None,None,1504.153478199616,None,,,,,,,,,,,,,,,,,,,,,,,,,,,,,,,,,color22,001,2021_Nov_10_1530,ProdSingRedo,3.2.3,60.060132186771135,
28,0,28,0,,,,,,,,,,,,,,,,,,,,,,,,,,,,1508.6697645997629,None,figure,aloud,blue,30,128,1506.6696836999618,None,None,1506.6696836999618,None,,,,,,,,,,,,,,,,,,,,,,,,,,,,,,,,,color22,001,2021_Nov_10_1530,ProdSingRedo,3.2.3,60.060132186771135,
29,0,29,0,,,,,,,,,,,,,,,,,,,,,,,,,,,,1511.1885391999967,None,number,silent,red,80,203,1509.194704500027,None,None,1509.194704500027,None,,,,,,,,,,,,,,,,,,,,,,,,,,,,,,,,,color22,001,2021_Nov_10_1530,ProdSingRedo,3.2.3,60.060132186771135,
30,0,30,0,,,,,,,,,,,,,,,,,,,,,,,,,,,,1513.7032613996416,None,threat,sing,yellow,10,329,1511.7002332997508,None,None,1511.7002332997508,None,,,,,,,,,,,,,,,,,,,,,,,,,,,,,,,,,color22,001,2021_Nov_10_1530,ProdSingRedo,3.2.3,60.060132186771135,
31,0,31,0,,,,,,,,,,,,,,,,,,,,,,,,,,,,1516.2202783999965,None,taste,silent,red,84,322,1514.216555999592,None,None,1514.216555999592,None,,,,,,,,,,,,,,,,,,,,,,,,,,,,,,,,,color22,001,2021_Nov_10_1530,ProdSingRedo,3.2.3,60.060132186771135,
32,0,32,0,,,,,,,,,,,,,,,,,,,,,,,,,,,,1518.7371680997312,None,center,sing,yellow,19,44,1516.728995599784,None,None,1516.728995599784,None,,,,,,,,,,,,,,,,,,,,,,,,,,,,,,,,,color22,001,2021_Nov_10_1530,ProdSingRedo,3.2.3,60.060132186771135,
33,0,33,0,,,,,,,,,,,,,,,,,,,,,,,,,,,,1521.2539813998155,None,region,silent,red,62,256,1519.2520051999018,None,None,1519.2520051999018,None,,,,,,,,,,,,,,,,,,,,,,,,,,,,,,,,,color22,001,2021_Nov_10_1530,ProdSingRedo,3.2.3,60.060132186771135,
34,0,34,0,,,,,,,,,,,,,,,,,,,,,,,,,,,,1523.7708180998452,None,trend,silent,red,82,340,1521.762592899613,None,None,1521.762592899613,None,,,,,,,,,,,,,,,,,,,,,,,,,,,,,,,,,color22,001,2021_Nov_10_1530,ProdSingRedo,3.2.3,60.060132186771135,
35,0,35,0,,,,,,,,,,,,,,,,,,,,,,,,,,,,1526.2882050997578,None,afternoon,silent,red,86,3,1524.283145299647,None,None,1524.283145299647,None,,,,,,,,,,,,,,,,,,,,,,,,,,,,,,,,,color22,001,2021_Nov_10_1530,ProdSingRedo,3.2.3,60.060132186771135,
36,0,36,0,,,,,,,,,,,,,,,,,,,,,,,,,,,,1528.8045687000267,None,shock,sing,yellow,26,284,1526.7989102997817,None,None,1526.7989102997817,None,,,,,,,,,,,,,,,,,,,,,,,,,,,,,,,,,color22,001,2021_Nov_10_1530,ProdSingRedo,3.2.3,60.060132186771135,
37,0,37,0,,,,,,,,,,,,,,,,,,,,,,,,,,,,1531.3213231000118,None,equipment,sing,yellow,23,116,1529.322060499806,None,None,1529.322060499806,None,,,,,,,,,,,,,,,,,,,,,,,,,,,,,,,,,color22,001,2021_Nov_10_1530,ProdSingRedo,3.2.3,60.060132186771135,
38,0,38,0,,,,,,,,,,,,,,,,,,,,,,,,,,,,1533.8401391999796,None,addition,aloud,blue,51,2,1531.8336375998333,None,None,1531.8336375998333,None,,,,,,,,,,,,,,,,,,,,,,,,,,,,,,,,,color22,001,2021_Nov_10_1530,ProdSingRedo,3.2.3,60.060132186771135,
39,0,39,0,,,,,,,,,,,,,,,,,,,,,,,,,,,,1536.3550897999667,None,write,silent,red,69,358,1534.3488328997046,None,None,1534.3488328997046,None,,,,,,,,,,,,,,,,,,,,,,,,,,,,,,,,,color22,001,2021_Nov_10_1530,ProdSingRedo,3.2.3,60.060132186771135,
40,0,40,0,,,,,,,,,,,,,,,,,,,,,,,,,,,,1538.8722102995962,None,crisis,aloud,blue,47,79,1536.8637514999136,None,None,1536.8637514999136,None,,,,,,,,,,,,,,,,,,,,,,,,,,,,,,,,,color22,001,2021_Nov_10_1530,ProdSingRedo,3.2.3,60.060132186771135,
41,0,41,0,,,,,,,,,,,,,,,,,,,,,,,,,,,,1541.3887186995707,None,south,sing,yellow,29,296,1539.3861053995788,None,None,1539.3861053995788,None,,,,,,,,,,,,,,,,,,,,,,,,,,,,,,,,,color22,001,2021_Nov_10_1530,ProdSingRedo,3.2.3,60.060132186771135,
42,0,42,0,,,,,,,,,,,,,,,,,,,,,,,,,,,,1543.9054879997857,None,clean,aloud,blue,41,51,1541.9015628998168,None,None,1541.9015628998168,None,,,,,,,,,,,,,,,,,,,,,,,,,,,,,,,,,color22,001,2021_Nov_10_1530,ProdSingRedo,3.2.3,60.060132186771135,
43,0,43,0,,,,,,,,,,,,,,,,,,,,,,,,,,,,1546.4223202997819,None,country,aloud,blue,58,73,1544.4134805998765,None,None,1544.4134805998765,None,,,,,,,,,,,,,,,,,,,,,,,,,,,,,,,,,color22,001,2021_Nov_10_1530,ProdSingRedo,3.2.3,60.060132186771135,
44,0,44,0,,,,,,,,,,,,,,,,,,,,,,,,,,,,1548.939199499786,None,stand,aloud,blue,43,302,1546.9359404998831,None,None,1546.9359404998831,None,,,,,,,,,,,,,,,,,,,,,,,,,,,,,,,,,color22,001,2021_Nov_10_1530,ProdSingRedo,3.2.3,60.060132186771135,
45,0,45,0,,,,,,,,,,,,,,,,,,,,,,,,,,,,1551.456124600023,None,display,aloud,blue,50,98,1549.4564783996902,None,None,1549.4564783996902,None,,,,,,,,,,,,,,,,,,,,,,,,,,,,,,,,,color22,001,2021_Nov_10_1530,ProdSingRedo,3.2.3,60.060132186771135,
46,0,46,0,,,,,,,,,,,,,,,,,,,,,,,,,,,,1553.9729955997318,None,solution,silent,red,60,294,1551.971790699754,None,None,1551.971790699754,None,,,,,,,,,,,,,,,,,,,,,,,,,,,,,,,,,color22,001,2021_Nov_10_1530,ProdSingRedo,3.2.3,60.060132186771135,
47,0,47,0,,,,,,,,,,,,,,,,,,,,,,,,,,,,1556.4903714996763,None,minute,silent,red,78,192,1554.4886656999588,None,None,1554.4886656999588,None,,,,,,,,,,,,,,,,,,,,,,,,,,,,,,,,,color22,001,2021_Nov_10_1530,ProdSingRedo,3.2.3,60.060132186771135,
48,0,48,0,,,,,,,,,,,,,,,,,,,,,,,,,,,,1559.0069161998108,None,individual,aloud,blue,57,160,1557.0035341000184,None,None,1557.0035341000184,None,,,,,,,,,,,,,,,,,,,,,,,,,,,,,,,,,color22,001,2021_Nov_10_1530,ProdSingRedo,3.2.3,60.060132186771135,
49,0,49,0,,,,,,,,,,,,,,,,,,,,,,,,,,,,1561.5225686999038,None,disease,sing,yellow,3,97,1559.5229803998955,None,None,1559.5229803998955,None,,,,,,,,,,,,,,,,,,,,,,,,,,,,,,,,,color22,001,2021_Nov_10_1530,ProdSingRedo,3.2.3,60.060132186771135,
50,0,50,0,,,,,,,,,,,,,,,,,,,,,,,,,,,,1564.0236310996115,None,degree,aloud,blue,59,89,1562.0244235997088,None,None,1562.0244235997088,None,,,,,,,,,,,,,,,,,,,,,,,,,,,,,,,,,color22,001,2021_Nov_10_1530,ProdSingRedo,3.2.3,60.060132186771135,
51,0,51,0,,,,,,,,,,,,,,,,,,,,,,,,,,,,1566.5398171995766,None,income,aloud,blue,36,159,1564.5376900997944,None,None,1564.5376900997944,None,,,,,,,,,,,,,,,,,,,,,,,,,,,,,,,,,color22,001,2021_Nov_10_1530,ProdSingRedo,3.2.3,60.060132186771135,
52,0,52,0,,,,,,,,,,,,,,,,,,,,,,,,,,,,1569.057446599938,None,concern,aloud,blue,52,65,1567.0495437998325,None,None,1567.0495437998325,None,,,,,,,,,,,,,,,,,,,,,,,,,,,,,,,,,color22,001,2021_Nov_10_1530,ProdSingRedo,3.2.3,60.060132186771135,
53,0,53,0,,,,,,,,,,,,,,,,,,,,,,,,,,,,1571.5740785999224,None,working,sing,yellow,25,357,1569.5709408000112,None,None,1569.5709408000112,None,,,,,,,,,,,,,,,,,,,,,,,,,,,,,,,,,color22,001,2021_Nov_10_1530,ProdSingRedo,3.2.3,60.060132186771135,
54,0,54,0,,,,,,,,,,,,,,,,,,,,,,,,,,,,1574.0909458999522,None,appearance,silent,red,88,10,1572.0912809995934,None,None,1572.0912809995934,None,,,,,,,,,,,,,,,,,,,,,,,,,,,,,,,,,color22,001,2021_Nov_10_1530,ProdSingRedo,3.2.3,60.060132186771135,
55,0,55,0,,,,,,,,,,,,,,,,,,,,,,,,,,,,1576.607921199873,None,science,aloud,blue,39,275,1574.6003452995792,None,None,1574.6003452995792,None,,,,,,,,,,,,,,,,,,,,,,,,,,,,,,,,,color22,001,2021_Nov_10_1530,ProdSingRedo,3.2.3,60.060132186771135,
56,0,56,0,,,,,,,,,,,,,,,,,,,,,,,,,,,,1579.1251517999917,None,quantity,sing,yellow,1,245,1577.1244881995954,None,None,1577.1244881995954,None,,,,,,,,,,,,,,,,,,,,,,,,,,,,,,,,,color22,001,2021_Nov_10_1530,ProdSingRedo,3.2.3,60.060132186771135,
57,0,57,0,,,,,,,,,,,,,,,,,,,,,,,,,,,,1581.641477899626,None,chief,sing,yellow,7,48,1579.636106999591,None,None,1579.636106999591,None,,,,,,,,,,,,,,,,,,,,,,,,,,,,,,,,,color22,001,2021_Nov_10_1530,ProdSingRedo,3.2.3,60.060132186771135,
58,0,58,0,,,,,,,,,,,,,,,,,,,,,,,,,,,,1584.158270899672,None,carry,sing,yellow,14,43,1582.1617244998924,None,None,1582.1617244998924,None,,,,,,,,,,,,,,,,,,,,,,,,,,,,,,,,,color22,001,2021_Nov_10_1530,ProdSingRedo,3.2.3,60.060132186771135,
59,0,59,0,,,,,,,,,,,,,,,,,,,,,,,,,,,,1586.675188199617,None,comedy,silent,red,64,58,1584.6726128999144,None,None,1584.6726128999144,None,,,,,,,,,,,,,,,,,,,,,,,,,,,,,,,,,color22,001,2021_Nov_10_1530,ProdSingRedo,3.2.3,60.060132186771135,
60,0,60,0,,,,,,,,,,,,,,,,,,,,,,,,,,,,1589.1919714999385,None,gesture,aloud,blue,54,137,1587.1898165997118,None,None,1587.1898165997118,None,,,,,,,,,,,,,,,,,,,,,,,,,,,,,,,,,color22,001,2021_Nov_10_1530,ProdSingRedo,3.2.3,60.060132186771135,
61,0,61,0,,,,,,,,,,,,,,,,,,,,,,,,,,,,1591.7087903995998,None,rough,silent,red,87,266,1589.7016594996676,None,None,1589.7016594996676,None,,,,,,,,,,,,,,,,,,,,,,,,,,,,,,,,,color22,001,2021_Nov_10_1530,ProdSingRedo,3.2.3,60.060132186771135,
62,0,62,0,,,,,,,,,,,,,,,,,,,,,,,,,,,,1594.225776899606,None,touch,sing,yellow,21,332,1592.2206469997764,None,None,1592.2206469997764,None,,,,,,,,,,,,,,,,,,,,,,,,,,,,,,,,,color22,001,2021_Nov_10_1530,ProdSingRedo,3.2.3,60.060132186771135,
63,0,63,0,,,,,,,,,,,,,,,,,,,,,,,,,,,,1596.7425309997052,None,mechanical,silent,red,68,185,1594.7427842998877,None,None,1594.7427842998877,None,,,,,,,,,,,,,,,,,,,,,,,,,,,,,,,,,color22,001,2021_Nov_10_1530,ProdSingRedo,3.2.3,60.060132186771135,
64,0,64,0,,,,,,,,,,,,,,,,,,,,,,,,,,,,1599.259271999821,None,murder,sing,yellow,17,195,1597.2556086997502,None,None,1597.2556086997502,None,,,,,,,,,,,,,,,,,,,,,,,,,,,,,,,,,color22,001,2021_Nov_10_1530,ProdSingRedo,3.2.3,60.060132186771135,
65,0,65,0,,,,,,,,,,,,,,,,,,,,,,,,,,,,1601.7762054996565,None,incident,silent,red,71,158,1599.7707052999176,None,None,1599.7707052999176,None,,,,,,,,,,,,,,,,,,,,,,,,,,,,,,,,,color22,001,2021_Nov_10_1530,ProdSingRedo,3.2.3,60.060132186771135,
66,0,66,0,,,,,,,,,,,,,,,,,,,,,,,,,,,,1604.2933477996849,None,foundation,silent,red,89,132,1602.2981566996314,None,None,1602.2981566996314,None,,,,,,,,,,,,,,,,,,,,,,,,,,,,,,,,,color22,001,2021_Nov_10_1530,ProdSingRedo,3.2.3,60.060132186771135,
67,0,67,0,,,,,,,,,,,,,,,,,,,,,,,,,,,,1606.8101951996796,None,military,sing,yellow,24,190,1604.810459499713,None,None,1604.810459499713,None,,,,,,,,,,,,,,,,,,,,,,,,,,,,,,,,,color22,001,2021_Nov_10_1530,ProdSingRedo,3.2.3,60.060132186771135,
68,0,68,0,,,,,,,,,,,,,,,,,,,,,,,,,,,,1609.3267915998586,None,evidence,aloud,blue,53,120,1607.3328330996446,None,None,1607.3328330996446,None,,,,,,,,,,,,,,,,,,,,,,,,,,,,,,,,,color22,001,2021_Nov_10_1530,ProdSingRedo,3.2.3,60.060132186771135,
69,0,69,0,,,,,,,,,,,,,,,,,,,,,,,,,,,,1611.8425103998743,None,welcome,aloud,blue,55,354,1609.8387088999152,None,None,1609.8387088999152,None,,,,,,,,,,,,,,,,,,,,,,,,,,,,,,,,,color22,001,2021_Nov_10_1530,ProdSingRedo,3.2.3,60.060132186771135,
70,0,70,0,,,,,,,,,,,,,,,,,,,,,,,,,,,,1614.3616199996322,None,beginning,silent,red,76,19,1612.3601209996268,None,None,1612.3601209996268,None,,,,,,,,,,,,,,,,,,,,,,,,,,,,,,,,,color22,001,2021_Nov_10_1530,ProdSingRedo,3.2.3,60.060132186771135,
71,0,71,0,,,,,,,,,,,,,,,,,,,,,,,,,,,,1616.876276599709,None,bicycle,aloud,blue,40,21,1614.8773583997972,None,None,1614.8773583997972,None,,,,,,,,,,,,,,,,,,,,,,,,,,,,,,,,,color22,001,2021_Nov_10_1530,ProdSingRedo,3.2.3,60.060132186771135,
72,0,72,0,,,,,,,,,,,,,,,,,,,,,,,,,,,,1619.3940096995793,None,discovery,sing,yellow,0,95,1617.3952528997324,None,None,1617.3952528997324,None,,,,,,,,,,,,,,,,,,,,,,,,,,,,,,,,,color22,001,2021_Nov_10_1530,ProdSingRedo,3.2.3,60.060132186771135,
73,0,73,0,,,,,,,,,,,,,,,,,,,,,,,,,,,,1621.9111969997175,None,emergency,aloud,blue,34,110,1619.9097078000195,None,None,1619.9097078000195,None,,,,,,,,,,,,,,,,,,,,,,,,,,,,,,,,,color22,001,2021_Nov_10_1530,ProdSingRedo,3.2.3,60.060132186771135,
74,0,74,0,,,,,,,,,,,,,,,,,,,,,,,,,,,,1624.4320597997867,None,fight,aloud,blue,32,127,1622.415128099732,None,None,1622.415128099732,None,,,,,,,,,,,,,,,,,,,,,,,,,,,,,,,,,color22,001,2021_Nov_10_1530,ProdSingRedo,3.2.3,60.060132186771135,
75,0,75,0,,,,,,,,,,,,,,,,,,,,,,,,,,,,1626.9448359999806,None,century,silent,red,74,45,1624.9547624997795,None,None,1624.9547624997795,None,,,,,,,,,,,,,,,,,,,,,,,,,,,,,,,,,color22,001,2021_Nov_10_1530,ProdSingRedo,3.2.3,60.060132186771135,
76,0,76,0,,,,,,,,,,,,,,,,,,,,,,,,,,,,1629.4614299996756,None,atmosphere,silent,red,61,12,1627.4580100998282,None,None,1627.4580100998282,None,,,,,,,,,,,,,,,,,,,,,,,,,,,,,,,,,color22,001,2021_Nov_10_1530,ProdSingRedo,3.2.3,60.060132186771135,
77,0,77,0,,,,,,,,,,,,,,,,,,,,,,,,,,,,1631.9783029998653,None,force,sing,yellow,28,131,1629.972694199998,None,None,1629.972694199998,None,,,,,,,,,,,,,,,,,,,,,,,,,,,,,,,,,color22,001,2021_Nov_10_1530,ProdSingRedo,3.2.3,60.060132186771135,
78,0,78,0,,,,,,,,,,,,,,,,,,,,,,,,,,,,1634.4951267000288,None,answer,sing,yellow,15,8,1632.4948661997914,None,None,1632.4948661997914,None,,,,,,,,,,,,,,,,,,,,,,,,,,,,,,,,,color22,001,2021_Nov_10_1530,ProdSingRedo,3.2.3,60.060132186771135,
79,0,79,0,,,,,,,,,,,,,,,,,,,,,,,,,,,,1637.0118854995817,None,level,sing,yellow,6,170,1635.000450299587,None,None,1635.000450299587,None,,,,,,,,,,,,,,,,,,,,,,,,,,,,,,,,,color22,001,2021_Nov_10_1530,ProdSingRedo,3.2.3,60.060132186771135,
80,0,80,0,,,,,,,,,,,,,,,,,,,,,,,,,,,,1639.5287748998962,None,husband,silent,red,67,156,1637.5181567999534,None,None,1637.5181567999534,None,,,,,,,,,,,,,,,,,,,,,,,,,,,,,,,,,color22,001,2021_Nov_10_1530,ProdSingRedo,3.2.3,60.060132186771135,
81,0,81,0,,,,,,,,,,,,,,,,,,,,,,,,,,,,1642.0455946000293,None,production,sing,yellow,4,240,1640.0413224999793,None,None,1640.0413224999793,None,,,,,,,,,,,,,,,,,,,,,,,,,,,,,,,,,color22,001,2021_Nov_10_1530,ProdSingRedo,3.2.3,60.060132186771135,
82,0,82,0,,,,,,,,,,,,,,,,,,,,,,,,,,,,1644.5612721997313,None,object,aloud,blue,33,204,1642.562215599697,None,None,1642.562215599697,None,,,,,,,,,,,,,,,,,,,,,,,,,,,,,,,,,color22,001,2021_Nov_10_1530,ProdSingRedo,3.2.3,60.060132186771135,
83,0,83,0,,,,,,,,,,,,,,,,,,,,,,,,,,,,1647.0792666999623,None,dozen,silent,red,73,102,1645.0858479999006,None,None,1645.0858479999006,None,,,,,,,,,,,,,,,,,,,,,,,,,,,,,,,,,color22,001,2021_Nov_10_1530,ProdSingRedo,3.2.3,60.060132186771135,
84,0,84,0,,,,,,,,,,,,,,,,,,,,,,,,,,,,1649.5961271999404,None,death,silent,red,72,86,1647.5847391998395,None,None,1647.5847391998395,None,,,,,,,,,,,,,,,,,,,,,,,,,,,,,,,,,color22,001,2021_Nov_10_1530,ProdSingRedo,3.2.3,60.060132186771135,
85,0,85,0,,,,,,,,,,,,,,,,,,,,,,,,,,,,1652.1129020997323,None,election,silent,red,70,109,1650.0975945997052,None,None,1650.0975945997052,None,,,,,,,,,,,,,,,,,,,,,,,,,,,,,,,,,color22,001,2021_Nov_10_1530,ProdSingRedo,3.2.3,60.060132186771135,
86,0,86,0,,,,,,,,,,,,,,,,,,,,,,,,,,,,1654.6298312,None,ground,aloud,blue,35,142,1652.6284457999282,None,None,1652.6284457999282,None,,,,,,,,,,,,,,,,,,,,,,,,,,,,,,,,,color22,001,2021_Nov_10_1530,ProdSingRedo,3.2.3,60.060132186771135,
87,0,87,0,,,,,,,,,,,,,,,,,,,,,,,,,,,,1657.1463328995742,None,research,aloud,blue,49,261,1655.1594032999128,None,None,1655.1594032999128,None,,,,,,,,,,,,,,,,,,,,,,,,,,,,,,,,,color22,001,2021_Nov_10_1530,ProdSingRedo,3.2.3,60.060132186771135,
88,0,88,0,,,,,,,,,,,,,,,,,,,,,,,,,,,,1659.6637130999006,None,strength,aloud,blue,48,310,1657.6627662996762,None,None,1657.6627662996762,None,,,,,,,,,,,,,,,,,,,,,,,,,,,,,,,,,color22,001,2021_Nov_10_1530,ProdSingRedo,3.2.3,60.060132186771135,
89,0,89,0,,,,,,,,,,,,,,,,,,,,,,,,,,,,1662.1803162996657,None,sight,aloud,blue,37,286,1660.1775872996077,None,None,1660.1775872996077,None,,,,,,,,,,,,,,,,,,,,,,,,,,,,,,,,,color22,001,2021_Nov_10_1530,ProdSingRedo,3.2.3,60.060132186771135,
,,,,,,,,,,,,,,,,,,,,,,,,,,,,,,,,,,,,,,,,,,,1662.6794127998874,None,k,215.76980109978467,1662.6794127998874,None,,,,,,,,,,,,,,,,,,,,,,,,,,,color22,001,2021_Nov_10_1530,ProdSingRedo,3.2.3,60.060132186771135,
,,,,0,0,0,0,,,,,,,,,,,,,,,,,,,,,,,,1891.1282096998766,None,,,,,,,,,,,,,,,,,provision,sing,yellow,0,8,243,1878.987358899787,None,1878.987358899787,None,1,6.301340399775654,1878.987358899787,None,1885.3134709997103,None,1885.8273691996,None,1885.8273691996,None,n,5.277296000160277,1885.8273691996,None,,,color22,001,2021_Nov_10_1530,ProdSingRedo,3.2.3,60.060132186771135,
,,,,1,0,1,0,,,,,,,,,,,,,,,,,,,,,,,,1896.5282856998965,None,,,,,,,,,,,,,,,,,rapid,aloud,blue,1,31,252,1891.6332544996403,None,1891.6332544996403,None,6,2.039445099886507,1891.6332544996403,None,1893.6959762996994,None,1894.2112219999544,None,1894.2112219999544,None,r,2.3015735000371933,1894.2112219999544,None,,,color22,001,2021_Nov_10_1530,ProdSingRedo,3.2.3,60.060132186771135,
,,,,2,0,2,0,,,,,,,,,,,,,,,,,,,,,,,,1905.9039313998073,None,,,,,,,,,,,,,,,,,council,new_silent,red,2,162,71,1897.0289902999066,None,1897.0289902999066,None,3,5.459780300036073,1897.0289902999066,None,1902.5141971996054,None,1903.0287452996708,None,1903.0287452996708,None,f,2.8523200997151434,1903.0287452996708,None,,,color22,001,2021_Nov_10_1530,ProdSingRedo,3.2.3,60.060132186771135,
,,,,3,0,3,0,,,,,,,,,,,,,,,,,,,,,,,,1910.8651963998564,None,,,,,,,,,,,,,,,,,murder,sing,yellow,3,17,195,1906.4281655997038,None,1906.4281655997038,None,6,2.0286405999213457,1906.4281655997038,None,1908.4851909996942,None,1909.00093119964,None,1909.00093119964,None,r,1.840059599839151,1909.00093119964,None,,,color22,001,2021_Nov_10_1530,ProdSingRedo,3.2.3,60.060132186771135,
,,,,4,0,4,0,,,,,,,,,,,,,,,,,,,,,,,,1916.972883799579,None,,,,,,,,,,,,,,,,,light,new_aloud,blue,4,146,171,1911.385088399984,None,1911.385088399984,None,4,3.4159542000852525,1911.385088399984,None,1914.851746100001,None,1915.3753248997964,None,1915.3753248997964,None,n,1.5699706999585032,1915.3753248997964,None,,,color22,001,2021_Nov_10_1530,ProdSingRedo,3.2.3,60.060132186771135,
,,,,5,0,5,0,,,,,,,,,,,,,,,,,,,,,,,,1920.7642643996514,None,,,,,,,,,,,,,,,,,disease,sing,yellow,5,3,97,1917.4998393999413,None,1917.4998393999413,None,6,1.6371702998876572,1917.4998393999413,None,1919.1865760996006,None,1919.712230999954,None,1919.712230999954,None,r,1.0328576997853816,1919.712230999954,None,,,color22,001,2021_Nov_10_1530,ProdSingRedo,3.2.3,60.060132186771135,
,,,,6,0,6,0,,,,,,,,,,,,,,,,,,,,,,,,1927.890200200025,None,,,,,,,,,,,,,,,,,benefit,new_sing,yellow,6,111,20,1921.274297799915,None,1921.274297799915,None,3,3.862727599684149,1921.274297799915,None,1925.1887072999962,None,1925.7155329999514,None,1925.7155329999514,None,n,2.1414641002193093,1925.7155329999514,None,,,color22,001,2021_Nov_10_1530,ProdSingRedo,3.2.3,60.060132186771135,
,,,,7,0,7,0,,,,,,,,,,,,,,,,,,,,,,,,1931.206530299969,None,,,,,,,,,,,,,,,,,crowd,new_sing,yellow,7,100,81,1928.4169687996618,None,1928.4169687996618,None,6,1.7681018998846412,1928.4169687996618,None,1930.2325613996945,None,1930.7420187997632,None,1930.7420187997632,None,r,0.4269938003271818,1930.7420187997632,None,,,color22,001,2021_Nov_10_1530,ProdSingRedo,3.2.3,60.060132186771135,
,,,,8,0,8,0,,,,,,,,,,,,,,,,,,,,,,,,1936.0742065999657,None,,,,,,,,,,,,,,,,,review,new_silent,red,8,175,263,1931.7312188996002,None,1931.7312188996002,None,6,2.566108400002122,1931.7312188996002,None,1934.3417360996827,None,1934.8622564999387,None,1934.8622564999387,None,r,1.1786843999288976,1934.8622564999387,None,,,color22,001,2021_Nov_10_1530,ProdSingRedo,3.2.3,60.060132186771135,
,,,,9,0,9,0,,,,,,,,,,,,,,,,,,,,,,,,1939.964798899833,None,,,,,,,,,,,,,,,,,expansion,new_silent,red,9,168,123,1936.6016861996613,None,1936.6016861996613,None,6,1.7030675001442432,1936.6016861996613,None,1938.3343779998831,None,1938.8512518997304,None,1938.8512518997304,None,r,1.09376659989357,1938.8512518997304,None,,,color22,001,2021_Nov_10_1530,ProdSingRedo,3.2.3,60.060132186771135,
,,,,10,0,10,0,,,,,,,,,,,,,,,,,,,,,,,,1942.917402499821,None,,,,,,,,,,,,,,,,,bicycle,aloud,blue,10,40,21,1940.4670980996452,None,1940.4670980996452,None,6,1.333632200025022,1940.4670980996452,None,1941.8380971997976,None,1942.3477560998872,None,1942.3477560998872,None,r,0.5411426997743547,1942.3477560998872,None,,,color22,001,2021_Nov_10_1530,ProdSingRedo,3.2.3,60.060132186771135,
,,,,11,0,11,0,,,,,,,,,,,,,,,,,,,,,,,,1946.4920243998058,None,,,,,,,,,,,,,,,,,session,new_aloud,blue,11,140,281,1943.4342502998188,None,1943.4342502998188,None,4,1.6471462999470532,1943.4342502998188,None,1945.1238194997422,None,1945.6321225999855,None,1945.6321225999855,None,f,0.8249214002862573,1945.6321225999855,None,,,color22,001,2021_Nov_10_1530,ProdSingRedo,3.2.3,60.060132186771135,
,,,,12,0,12,0,,,,,,,,,,,,,,,,,,,,,,,,1950.1510657998733,None,,,,,,,,,,,,,,,,,weather,new_silent,red,12,176,352,1947.018761499785,None,1947.018761499785,None,6,1.5183913996443152,1947.018761499785,None,1948.589467199985,None,1949.1096803997643,None,1949.1096803997643,None,r,1.0194864999502897,1949.1096803997643,None,,,color22,001,2021_Nov_10_1530,ProdSingRedo,3.2.3,60.060132186771135,
,,,,13,0,13,0,,,,,,,,,,,,,,,,,,,,,,,,1953.824590999633,None,,,,,,,,,,,,,,,,,front,new_silent,red,13,174,134,1950.667552500032,None,1950.667552500032,None,4,1.6052800002507865,1950.667552500032,None,1952.300966099836,None,1952.8153798999265,None,1952.8153798999265,None,f,0.9698164998553693,1952.8153798999265,None,,,color22,001,2021_Nov_10_1530,ProdSingRedo,3.2.3,60.060132186771135,
,,,,14,0,14,0,,,,,,,,,,,,,,,,,,,,,,,,1958.8758056997322,None,,,,,,,,,,,,,,,,,silence,new_aloud,blue,14,143,288,1954.3473664997146,None,1954.3473664997146,None,6,2.8296936000697315,1954.3473664997146,None,1957.2130648000166,None,1957.7159237996675,None,1957.7159237996675,None,r,1.1251214002259076,1957.7159237996675,None,,,color22,001,2021_Nov_10_1530,ProdSingRedo,3.2.3,60.060132186771135,
,,,,15,0,15,0,,,,,,,,,,,,,,,,,,,,,,,,1962.6444755997509,None,,,,,,,,,,,,,,,,,comedy,silent,red,15,64,58,1959.4001936996356,None,1959.4001936996356,None,5,1.5848853001371026,1959.4001936996356,None,1961.025841199793,None,1961.5444587999955,None,1961.5444587999955,None,r,1.0732976999133825,1961.5444587999955,None,,,color22,001,2021_Nov_10_1530,ProdSingRedo,3.2.3,60.060132186771135,
,,,,16,0,16,0,,,,,,,,,,,,,,,,,,,,,,,,1967.6263106996194,None,,,,,,,,,,,,,,,,,birth,new_silent,red,16,154,22,1963.1519422000274,None,1963.1519422000274,None,4,1.513483399990946,1963.1519422000274,None,1964.7094512996264,None,1965.2289694999345,None,1965.2289694999345,None,f,2.3640791000798345,1965.2289694999345,None,,,color22,001,2021_Nov_10_1530,ProdSingRedo,3.2.3,60.060132186771135,
,,,,17,0,17,0,,,,,,,,,,,,,,,,,,,,,,,,1972.2602015999146,None,,,,,,,,,,,,,,,,,growth,sing,yellow,17,9,144,1968.1543938997202,None,1968.1543938997202,None,6,1.3586517996154726,1968.1543938997202,None,1969.558865999803,None,1970.0823144000024,None,1970.0823144000024,None,r,2.150903800036758,1970.0823144000024,None,,,color22,001,2021_Nov_10_1530,ProdSingRedo,3.2.3,60.060132186771135,
,,,,18,0,18,0,,,,,,,,,,,,,,,,,,,,,,,,1976.4765442996286,None,,,,,,,,,,,,,,,,,region,silent,red,18,62,256,1972.785378600005,None,1972.785378600005,None,5,1.407642100006342,1972.785378600005,None,1974.2407750999555,None,1974.7639627000317,None,1974.7639627000317,None,f,1.6770594003610313,1974.7639627000317,None,,,color22,001,2021_Nov_10_1530,ProdSingRedo,3.2.3,60.060132186771135,
,,,,19,0,19,0,,,,,,,,,,,,,,,,,,,,,,,,1979.664267399814,None,,,,,,,,,,,,,,,,,incident,silent,red,19,71,158,1976.9982912000269,None,1976.9982912000269,None,5,1.2429819996468723,1976.9982912000269,None,1978.2921927999705,None,1978.8132740999572,None,1978.8132740999572,None,f,0.8117198003455997,1978.8132740999572,None,,,color22,001,2021_Nov_10_1530,ProdSingRedo,3.2.3,60.060132186771135,
,,,,20,0,20,0,,,,,,,,,,,,,,,,,,,,,,,,1982.9598292997107,None,,,,,,,,,,,,,,,,,taste,silent,red,20,84,322,1980.186818299815,None,1980.186818299815,None,6,1.406177000142634,1980.186818299815,None,1981.6439857999794,None,1982.1653411998414,None,1982.1653411998414,None,r,0.7556941001676023,1982.1653411998414,None,,,color22,001,2021_Nov_10_1530,ProdSingRedo,3.2.3,60.060132186771135,
,,,,21,0,21,0,,,,,,,,,,,,,,,,,,,,,,,,1986.3943616999313,None,,,,,,,,,,,,,,,,,treatment,sing,yellow,21,18,339,1983.4851762996987,None,1983.4851762996987,None,6,1.259957400150597,1983.4851762996987,None,1984.795255899895,None,1985.3147195996717,None,1985.3147195996717,None,r,1.0463959001936018,1985.3147195996717,None,,,color22,001,2021_Nov_10_1530,ProdSingRedo,3.2.3,60.060132186771135,
,,,,22,0,22,0,,,,,,,,,,,,,,,,,,,,,,,,1989.5946776997298,None,,,,,,,,,,,,,,,,,addition,aloud,blue,22,51,2,1986.9207148998976,None,1986.9207148998976,None,6,1.1443304000422359,1986.9207148998976,None,1988.1048691999167,None,1988.6189621998928,None,1988.6189621998928,None,r,0.9501302000135183,1988.6189621998928,None,,,color22,001,2021_Nov_10_1530,ProdSingRedo,3.2.3,60.060132186771135,
,,,,23,0,23,0,,,,,,,,,,,,,,,,,,,,,,,,1992.3276975997724,None,,,,,,,,,,,,,,,,,gesture,aloud,blue,23,54,137,1990.1219290997833,None,1990.1219290997833,None,6,1.0388941001147032,1990.1219290997833,None,1991.1882180999964,None,1991.7171865999699,None,1991.7171865999699,None,r,0.571941299829632,1991.7171865999699,None,,,color22,001,2021_Nov_10_1530,ProdSingRedo,3.2.3,60.060132186771135,
,,,,24,0,24,0,,,,,,,,,,,,,,,,,,,,,,,,1995.9622311997227,None,,,,,,,,,,,,,,,,,health,new_silent,red,24,163,149,1992.8401297000237,None,1992.8401297000237,None,4,1.673001800198108,1992.8401297000237,None,1994.5542012997903,None,1995.0821344000287,None,1995.0821344000287,None,n,0.8469190998002887,1995.0821344000287,None,,,color22,001,2021_Nov_10_1530,ProdSingRedo,3.2.3,60.060132186771135,
,,,,25,0,25,0,,,,,,,,,,,,,,,,,,,,,,,,2000.8453507996164,None,,,,,,,,,,,,,,,,,fellow,new_sing,yellow,25,102,126,1996.4870936996303,None,1996.4870936996303,None,3,2.298233200330287,1996.4870936996303,None,1998.8388978997245,None,1999.3474439997226,None,1999.3474439997226,None,n,1.4706913996487856,1999.3474439997226,None,,,color22,001,2021_Nov_10_1530,ProdSingRedo,3.2.3,60.060132186771135,
,,,,26,0,26,0,,,,,,,,,,,,,,,,,,,,,,,,2007.6988227996044,None,,,,,,,,,,,,,,,,,fashion,new_silent,red,26,171,125,2001.3705813996494,None,2001.3705813996494,None,3,2.2062581996433437,2001.3705813996494,None,2003.6123060998507,None,2004.1191677995957,None,2004.1191677995957,None,n,3.5459949001669884,2004.1191677995957,None,,,color22,001,2021_Nov_10_1530,ProdSingRedo,3.2.3,60.060132186771135,
,,,,27,0,27,0,,,,,,,,,,,,,,,,,,,,,,,,2012.129911699798,None,,,,,,,,,,,,,,,,,country,aloud,blue,27,58,73,2008.226491399575,None,2008.226491399575,None,6,1.734514200128615,2008.226491399575,None,2010.0072806999087,None,2010.534678099677,None,2010.534678099677,None,r,1.5624309000559151,2010.534678099677,None,,,color22,001,2021_Nov_10_1530,ProdSingRedo,3.2.3,60.060132186771135,
,,,,28,0,28,0,,,,,,,,,,,,,,,,,,,,,,,,2015.1851649996825,None,,,,,,,,,,,,,,,,,candidate,sing,yellow,28,13,39,2012.6608915999532,None,2012.6608915999532,None,6,1.116244399920106,2012.6608915999532,None,2013.8325541997328,None,2014.3506473000161,None,2014.3506473000161,None,r,0.7945975000038743,2014.3506473000161,None,,,color22,001,2021_Nov_10_1530,ProdSingRedo,3.2.3,60.060132186771135,
,,,,29,0,29,0,,,,,,,,,,,,,,,,,,,,,,,,2019.513208099641,None,,,,,,,,,,,,,,,,,conference,new_silent,red,29,166,66,2015.7080041998997,None,2015.7080041998997,None,4,2.0048241997137666,2015.7080041998997,None,2017.757518499624,None,2018.2847737995908,None,2018.2847737995908,None,f,1.196494100149721,2018.2847737995908,None,,,color22,001,2021_Nov_10_1530,ProdSingRedo,3.2.3,60.060132186771135,
,,,,30,0,30,0,,,,,,,,,,,,,,,,,,,,,,,,2022.3143785996363,None,,,,,,,,,,,,,,,,,group,sing,yellow,30,16,143,2020.0293711000122,None,2020.0293711000122,None,6,1.1876826002262533,2020.0293711000122,None,2021.2703423998319,None,2021.7898850999773,None,2021.7898850999773,None,r,0.4993338999338448,2021.7898850999773,None,,,color22,001,2021_Nov_10_1530,ProdSingRedo,3.2.3,60.060132186771135,
,,,,31,0,31,0,,,,,,,,,,,,,,,,,,,,,,,,2025.0967571996152,None,,,,,,,,,,,,,,,,,individual,aloud,blue,31,57,160,2022.8235899996944,None,2022.8235899996944,None,6,1.0896699000149965,2022.8235899996944,None,2023.9696150999516,None,2024.485942799598,None,2024.485942799598,None,r,0.5871910001151264,2024.485942799598,None,,,color22,001,2021_Nov_10_1530,ProdSingRedo,3.2.3,60.060132186771135,
,,,,32,0,32,0,,,,,,,,,,,,,,,,,,,,,,,,2027.8804823998362,None,,,,,,,,,,,,,,,,,throw,aloud,blue,32,45,330,2025.621871699579,None,2025.621871699579,None,6,0.9953890000469983,2025.621871699579,None,2026.6634110999294,None,2027.18094199989,None,2027.18094199989,None,r,0.668198499828577,2027.18094199989,None,,,color22,001,2021_Nov_10_1530,ProdSingRedo,3.2.3,60.060132186771135,
,,,,33,0,33,0,,,,,,,,,,,,,,,,,,,,,,,,2030.4806470000185,None,,,,,,,,,,,,,,,,,fight,aloud,blue,33,32,127,2028.4086487996392,None,2028.4086487996392,None,6,0.9447065000422299,2028.4086487996392,None,2029.3989725997671,None,2029.9187053996138,None,2029.9187053996138,None,r,0.5304674999788404,2029.9187053996138,None,,,color22,001,2021_Nov_10_1530,ProdSingRedo,3.2.3,60.060132186771135,
,,,,34,0,34,0,,,,,,,,,,,,,,,,,,,,,,,,2033.3037191997282,None,,,,,,,,,,,,,,,,,capital,new_silent,red,34,177,40,2031.0096799000166,None,2031.0096799000166,None,5,1.3514947001822293,2031.0096799000166,None,2032.4107752996497,None,2032.936335499864,None,2032.936335499864,None,f,0.3367325998842716,2032.936335499864,None,,,color22,001,2021_Nov_10_1530,ProdSingRedo,3.2.3,60.060132186771135,
,,,,35,0,35,0,,,,,,,,,,,,,,,,,,,,,,,,2036.4232227997854,None,,,,,,,,,,,,,,,,,stand,aloud,blue,35,43,302,2033.8269965997897,None,2033.8269965997897,None,6,1.1662426996044815,2033.8269965997897,None,2035.0459990999661,None,2035.5681396997534,None,2035.5681396997534,None,r,0.8327376996167004,2035.5681396997534,None,,,color22,001,2021_Nov_10_1530,ProdSingRedo,3.2.3,60.060132186771135,
,,,,36,0,36,0,,,,,,,,,,,,,,,,,,,,,,,,2039.2139544999227,None,,,,,,,,,,,,,,,,,equipment,sing,yellow,36,23,116,2036.941303699743,None,2036.941303699743,None,6,1.0439897999167442,2036.941303699743,None,2038.0182403996587,None,2038.5333659998141,None,2038.5333659998141,None,r,0.6439709002152085,2038.5333659998141,None,,,color22,001,2021_Nov_10_1530,ProdSingRedo,3.2.3,60.060132186771135,
,,,,37,0,37,0,,,,,,,,,,,,,,,,,,,,,,,,2042.1366640999913,None,,,,,,,,,,,,,,,,,measure,new_aloud,blue,37,147,184,2039.7439639000222,None,2039.7439639000222,None,5,1.2331872000358999,2039.7439639000222,None,2041.0260173999704,None,2041.553289399948,None,2041.553289399948,None,f,0.5518925003707409,2041.553289399948,None,,,color22,001,2021_Nov_10_1530,ProdSingRedo,3.2.3,60.060132186771135,
,,,,38,0,38,0,,,,,,,,,,,,,,,,,,,,,,,,2047.2143028997816,None,,,,,,,,,,,,,,,,,little,new_aloud,blue,38,120,174,2042.653767499607,None,2042.653767499607,None,1,2.1712623997591436,2042.653767499607,None,2044.8683505998924,None,2045.3846240998246,None,2045.3846240998246,None,n,1.7925481996499002,2045.3846240998246,None,,,color22,001,2021_Nov_10_1530,ProdSingRedo,3.2.3,60.060132186771135,
,,,,39,0,39,0,,,,,,,,,,,,,,,,,,,,,,,,2049.9980217996053,None,,,,,,,,,,,,,,,,,strength,aloud,blue,39,48,310,2047.7409262997098,None,2047.7409262997098,None,6,1.179963399656117,2047.7409262997098,None,2048.9458854999393,None,2049.455606199801,None,2049.455606199801,None,r,0.5056183999404311,2049.455606199801,None,,,color22,001,2021_Nov_10_1530,ProdSingRedo,3.2.3,60.060132186771135,
,,,,40,0,40,0,,,,,,,,,,,,,,,,,,,,,,,,2054.0330481999554,None,,,,,,,,,,,,,,,,,emergency,aloud,blue,40,34,110,2050.527636599727,None,2050.527636599727,None,6,2.3851696997880936,2050.527636599727,None,2052.961940499954,None,2053.4723922000267,None,2053.4723922000267,None,f,0.536803999915719,2053.4723922000267,None,,,color22,001,2021_Nov_10_1530,ProdSingRedo,3.2.3,60.060132186771135,
,,,,41,0,41,0,,,,,,,,,,,,,,,,,,,,,,,,2056.565580899827,None,,,,,,,,,,,,,,,,,figure,aloud,blue,41,30,128,2054.5594279998913,None,2054.5594279998913,None,6,1.0820313999429345,2054.5594279998913,None,2055.682968599722,None,2056.2013496998698,None,2056.2013496998698,None,r,0.3361543999053538,2056.2013496998698,None,,,color22,001,2021_Nov_10_1530,ProdSingRedo,3.2.3,60.060132186771135,
,,,,42,0,42,0,,,,,,,,,,,,,,,,,,,,,,,,2059.3329182998277,None,,,,,,,,,,,,,,,,,salary,aloud,blue,42,56,271,2057.0965676996857,None,2057.0965676996857,None,6,1.2725694999098778,2057.0965676996857,None,2058.41834059963,None,2058.937156299595,None,2058.937156299595,None,r,0.3682853998616338,2058.937156299595,None,,,color22,001,2021_Nov_10_1530,ProdSingRedo,3.2.3,60.060132186771135,
,,,,43,0,43,0,,,,,,,,,,,,,,,,,,,,,,,,2063.099267799873,None,,,,,,,,,,,,,,,,,foundation,silent,red,43,89,132,2059.8607907998376,None,2059.8607907998376,None,5,1.7564051002264023,2059.8607907998376,None,2061.6633534999564,None,2062.1930348998867,None,2062.1930348998867,None,f,0.8801865996792912,2062.1930348998867,None,,,color22,001,2021_Nov_10_1530,ProdSingRedo,3.2.3,60.060132186771135,
,,,,44,0,44,0,,,,,,,,,,,,,,,,,,,,,,,,2067.473912599962,None,,,,,,,,,,,,,,,,,majority,new_silent,red,44,151,176,2063.63202659972,None,2063.63202659972,None,2,1.6171288997866213,2063.63202659972,None,2065.2958181998692,None,2065.810195100028,None,2065.810195100028,None,n,1.6387368002906442,2065.810195100028,None,,,color22,001,2021_Nov_10_1530,ProdSingRedo,3.2.3,60.060132186771135,
,,,,45,0,45,0,,,,,,,,,,,,,,,,,,,,,,,,2071.032617099583,None,,,,,,,,,,,,,,,,,clean,aloud,blue,45,41,51,2067.9955796999857,None,2067.9955796999857,None,5,2.085523699875921,2067.9955796999857,None,2070.1258650999516,None,2070.6524397996254,None,2070.6524397996254,None,f,0.3407256999053061,2070.6524397996254,None,,,color22,001,2021_Nov_10_1530,ProdSingRedo,3.2.3,60.060132186771135,
,,,,46,0,46,0,,,,,,,,,,,,,,,,,,,,,,,,2073.3339208997786,None,,,,,,,,,,,,,,,,,angle,aloud,blue,46,38,7,2071.5516009996645,None,2071.5516009996645,None,6,1.0095606003887951,2071.5516009996645,None,2072.611623799894,None,2073.1394156999886,None,2073.1394156999886,None,r,0.16657449956983328,2073.1394156999886,None,,,color22,001,2021_Nov_10_1530,ProdSingRedo,3.2.3,60.060132186771135,
,,,,47,0,47,0,,,,,,,,,,,,,,,,,,,,,,,,2075.5675068995915,None,,,,,,,,,,,,,,,,,concern,aloud,blue,47,52,65,2073.858150199987,None,2073.858150199987,None,6,0.927010300103575,2073.858150199987,None,2074.828429499641,None,2075.348643399775,None,2075.348643399775,None,r,0.1804865002632141,2075.348643399775,None,,,color22,001,2021_Nov_10_1530,ProdSingRedo,3.2.3,60.060132186771135,
,,,,48,0,48,0,,,,,,,,,,,,,,,,,,,,,,,,2077.969388899859,None,,,,,,,,,,,,,,,,,company,new_sing,yellow,48,115,64,2076.0921486997977,None,2076.0921486997977,None,6,1.1011730004101992,2076.0921486997977,None,2077.235832999926,None,2077.7647736999206,None,2077.7647736999206,None,r,0.15636639995500445,2077.7647736999206,None,,,color22,001,2021_Nov_10_1530,ProdSingRedo,3.2.3,60.060132186771135,
,,,,49,0,49,0,,,,,,,,,,,,,,,,,,,,,,,,2080.917432599701,None,,,,,,,,,,,,,,,,,beauty,new_silent,red,49,159,18,2078.494730899576,None,2078.494730899576,None,6,1.4025003002025187,2078.494730899576,None,2079.9515417995863,None,2080.47219339991,None,2080.47219339991,None,r,0.41770249977707863,2080.47219339991,None,,,color22,001,2021_Nov_10_1530,ProdSingRedo,3.2.3,60.060132186771135,
,,,,50,0,50,0,,,,,,,,,,,,,,,,,,,,,,,,2086.067672399804,None,,,,,,,,,,,,,,,,,graduate,new_sing,yellow,50,106,141,2081.4494701996446,None,2081.4494701996446,None,1,2.1995478002354503,2081.4494701996446,None,2083.7119864998385,None,2084.215541699901,None,2084.215541699901,None,n,1.8258290998637676,2084.215541699901,None,,,color22,001,2021_Nov_10_1530,ProdSingRedo,3.2.3,60.060132186771135,
,,,,51,0,51,0,,,,,,,,,,,,,,,,,,,,,,,,2089.8271319996566,None,,,,,,,,,,,,,,,,,produce,new_aloud,blue,51,121,239,2086.594266399741,None,2086.594266399741,None,1,1.7268358999863267,2086.594266399741,None,2088.3622667999007,None,2088.888311599847,None,2088.888311599847,None,n,0.920539100188762,2088.888311599847,None,,,color22,001,2021_Nov_10_1530,ProdSingRedo,3.2.3,60.060132186771135,
,,,,52,0,52,0,,,,,,,,,,,,,,,,,,,,,,,,2092.5855727996677,None,,,,,,,,,,,,,,,,,shock,sing,yellow,52,26,284,2090.3403658997267,None,2090.3403658997267,None,6,1.517150199972093,2090.3403658997267,None,2091.897582399659,None,2092.419745299965,None,2092.419745299965,None,r,0.1333693997003138,2092.419745299965,None,,,color22,001,2021_Nov_10_1530,ProdSingRedo,3.2.3,60.060132186771135,
,,,,53,0,53,0,,,,,,,,,,,,,,,,,,,,,,,,2096.2685437998734,None,,,,,,,,,,,,,,,,,shape,new_aloud,blue,53,139,282,2093.1118888999335,None,2093.1118888999335,None,2,1.8492665998637676,2093.1118888999335,None,2094.995151099749,None,2095.521488199942,None,2095.521488199942,None,f,0.7200798001140356,2095.521488199942,None,,,color22,001,2021_Nov_10_1530,ProdSingRedo,3.2.3,60.060132186771135,
,,,,54,0,54,0,,,,,,,,,,,,,,,,,,,,,,,,2099.6354965995997,None,,,,,,,,,,,,,,,,,rough,silent,red,54,87,266,2096.791471599601,None,2096.791471599601,None,4,1.4816880002617836,2096.791471599601,None,2098.319428099785,None,2098.8409609999508,None,2098.8409609999508,None,f,0.7683625998906791,2098.8409609999508,None,,,color22,001,2021_Nov_10_1530,ProdSingRedo,3.2.3,60.060132186771135,
,,,,55,0,55,0,,,,,,,,,,,,,,,,,,,,,,,,2103.085651199799,None,,,,,,,,,,,,,,,,,executive,new_silent,red,55,157,122,2100.167489899788,None,2100.167489899788,None,2,1.8579402999021113,2100.167489899788,None,2102.070135699585,None,2102.592566799838,None,2102.592566799838,None,f,0.46520419977605343,2102.592566799838,None,,,color22,001,2021_Nov_10_1530,ProdSingRedo,3.2.3,60.060132186771135,
,,,,56,0,56,0,,,,,,,,,,,,,,,,,,,,,,,,2106.468511699699,None,,,,,,,,,,,,,,,,,service,new_sing,yellow,56,96,280,2103.6137998998165,None,2103.6137998998165,None,5,1.4116858998313546,2103.6137998998165,None,2105.068297599908,None,2105.5885288999416,None,2105.5885288999416,None,f,0.8446887996979058,2105.5885288999416,None,,,color22,001,2021_Nov_10_1530,ProdSingRedo,3.2.3,60.060132186771135,
,,,,57,0,57,0,,,,,,,,,,,,,,,,,,,,,,,,2110.4519471996464,None,,,,,,,,,,,,,,,,,couch,silent,red,57,77,70,2106.9956986997277,None,2106.9956986997277,None,6,2.3895168001763523,2106.9956986997277,None,2109.426766799763,None,2109.94139979966,None,2109.94139979966,None,r,0.4758528000675142,2109.94139979966,None,,,color22,001,2021_Nov_10_1530,ProdSingRedo,3.2.3,60.060132186771135,
,,,,58,0,58,0,,,,,,,,,,,,,,,,,,,,,,,,2115.3363592997193,None,,,,,,,,,,,,,,,,,payment,new_sing,yellow,58,92,215,2110.986824200023,None,2110.986824200023,None,2,1.622652200050652,2110.986824200023,None,2112.66260479996,None,2113.160398299806,None,2113.160398299806,None,n,2.144890199881047,2113.160398299806,None,,,color22,001,2021_Nov_10_1530,ProdSingRedo,3.2.3,60.060132186771135,
,,,,59,0,59,0,,,,,,,,,,,,,,,,,,,,,,,,2117.6295607998036,None,,,,,,,,,,,,,,,,,edition,new_aloud,blue,59,127,107,2115.859134799801,None,2115.859134799801,None,6,1.054089699871838,2115.859134799801,None,2116.9633406996727,None,2117.487169199623,None,2117.487169199623,None,r,0.09794549969956279,2117.487169199623,None,,,color22,001,2021_Nov_10_1530,ProdSingRedo,3.2.3,60.060132186771135,
,,,,60,0,60,0,,,,,,,,,,,,,,,,,,,,,,,,2120.021459199954,None,,,,,,,,,,,,,,,,,afternoon,silent,red,60,86,3,2118.1675827996805,None,2118.1675827996805,None,6,1.113600100390613,2118.1675827996805,None,2119.3343915999867,None,2119.856951699592,None,2119.856951699592,None,r,0.13690940011292696,2119.856951699592,None,,,color22,001,2021_Nov_10_1530,ProdSingRedo,3.2.3,60.060132186771135,
,,,,61,0,61,0,,,,,,,,,,,,,,,,,,,,,,,,2124.654076699633,None,,,,,,,,,,,,,,,,,still,new_silent,red,61,153,304,2120.540766599588,None,2120.540766599588,None,1,1.5404068999923766,2120.540766599588,None,2122.1301555000246,None,2122.6533756996505,None,2122.6533756996505,None,n,1.9637623997405171,2122.6533756996505,None,,,color22,001,2021_Nov_10_1530,ProdSingRedo,3.2.3,60.060132186771135,
,,,,62,0,62,0,,,,,,,,,,,,,,,,,,,,,,,,2127.1393598997965,None,,,,,,,,,,,,,,,,,drove,sing,yellow,62,11,106,2125.1810722998343,None,2125.1810722998343,None,6,0.9080714997835457,2125.1810722998343,None,2126.1399735999294,None,2126.647724899929,None,2126.647724899929,None,r,0.45747350016608834,2126.647724899929,None,,,color22,001,2021_Nov_10_1530,ProdSingRedo,3.2.3,60.060132186771135,
,,,,63,0,63,0,,,,,,,,,,,,,,,,,,,,,,,,2130.9452805998735,None,,,,,,,,,,,,,,,,,straight,new_aloud,blue,63,149,307,2127.662488800008,None,2127.662488800008,None,1,2.1066048997454345,2127.662488800008,None,2129.8106531999074,None,2130.3193942997605,None,2130.3193942997605,None,r,0.6015737000852823,2130.3193942997605,None,,,color22,001,2021_Nov_10_1530,ProdSingRedo,3.2.3,60.060132186771135,
,,,,64,0,64,0,,,,,,,,,,,,,,,,,,,,,,,,2133.55479619978,None,,,,,,,,,,,,,,,,,ground,aloud,blue,64,35,142,2131.447684200015,None,2131.447684200015,None,6,1.4816602002829313,2131.447684200015,None,2132.97018009983,None,2133.4989737998694,None,2133.4989737998694,None,r,0.030008200090378523,2133.4989737998694,None,,,color22,001,2021_Nov_10_1530,ProdSingRedo,3.2.3,60.060132186771135,
,,,,65,0,65,0,,,,,,,,,,,,,,,,,,,,,,,,2137.353706599679,None,,,,,,,,,,,,,,,,,opening,new_sing,yellow,65,110,205,2134.081144399941,None,2134.081144399941,None,1,1.248042999766767,2134.081144399941,None,2135.367835199926,None,2135.889501599595,None,2135.889501599595,None,f,1.4241455998271704,2135.889501599595,None,,,color22,001,2021_Nov_10_1530,ProdSingRedo,3.2.3,60.060132186771135,
,,,,66,0,66,0,,,,,,,,,,,,,,,,,,,,,,,,2140.337804599665,None,,,,,,,,,,,,,,,,,goose,new_silent,red,66,158,138,2137.879361399915,None,2137.879361399915,None,1,1.4500039000995457,2137.879361399915,None,2139.365862699691,None,2139.8809946998954,None,2139.8809946998954,None,f,0.42415109975263476,2139.8809946998954,None,,,color22,001,2021_Nov_10_1530,ProdSingRedo,3.2.3,60.060132186771135,
,,,,67,0,67,0,,,,,,,,,,,,,,,,,,,,,,,,2143.1309278998524,None,,,,,,,,,,,,,,,,,degree,aloud,blue,67,59,89,2140.8610030999407,None,2140.8610030999407,None,6,0.9802308999933302,2140.8610030999407,None,2141.883277799934,None,2142.411102899816,None,2142.411102899816,None,r,0.7018733001314104,2142.411102899816,None,,,color22,001,2021_Nov_10_1530,ProdSingRedo,3.2.3,60.060132186771135,
,,,,68,0,68,0,,,,,,,,,,,,,,,,,,,,,,,,2145.1707003996707,None,,,,,,,,,,,,,,,,,estate,new_sing,yellow,68,98,119,2143.658424299676,None,2143.658424299676,None,6,0.8869190001860261,2143.658424299676,None,2144.60314629972,None,2145.1107822996564,None,2145.1107822996564,None,r,0.034824099857360125,2145.1107822996564,None,,,color22,001,2021_Nov_10_1530,ProdSingRedo,3.2.3,60.060132186771135,
,,,,69,0,69,0,,,,,,,,,,,,,,,,,,,,,,,,2147.4890552000143,None,,,,,,,,,,,,,,,,,detective,silent,red,69,79,92,2145.688321399968,None,2145.688321399968,None,6,1.1368928998708725,2145.688321399968,None,2146.8659136998467,None,2147.3820777996443,None,2147.3820777996443,None,r,0.0672433995641768,2147.3820777996443,None,,,color22,001,2021_Nov_10_1530,ProdSingRedo,3.2.3,60.060132186771135,
,,,,70,0,70,0,,,,,,,,,,,,,,,,,,,,,,,,2149.3123808000237,None,,,,,,,,,,,,,,,,,trend,silent,red,70,82,340,2148.012123099994,None,2148.012123099994,None,6,0.661088400054723,2148.012123099994,None,2148.7154599996284,None,2149.2377601996996,None,2149.2377601996996,None,r,0.03553680004552007,2149.2377601996996,None,,,color22,001,2021_Nov_10_1530,ProdSingRedo,3.2.3,60.060132186771135,
,,,,71,0,71,0,,,,,,,,,,,,,,,,,,,,,,,,2152.28885359969,None,,,,,,,,,,,,,,,,,population,new_aloud,blue,71,142,227,2149.8337241997942,None,2149.8337241997942,None,1,1.6474017999134958,2149.8337241997942,None,2151.519467999693,None,2152.04544789996,None,2152.04544789996,None,n,0.21182480035349727,2152.04544789996,None,,,color22,001,2021_Nov_10_1530,ProdSingRedo,3.2.3,60.060132186771135,
,,,,72,0,72,0,,,,,,,,,,,,,,,,,,,,,,,,2155.3890215000138,None,,,,,,,,,,,,,,,,,history,new_sing,yellow,72,107,153,2152.8151359995827,None,2152.8151359995827,None,1,1.3220953000709414,2152.8151359995827,None,2154.182627100032,None,2154.7081608995795,None,2154.7081608995795,None,n,0.6450928999111056,2154.7081608995795,None,,,color22,001,2021_Nov_10_1530,ProdSingRedo,3.2.3,60.060132186771135,
,,,,73,0,73,0,,,,,,,,,,,,,,,,,,,,,,,,2158.023740899749,None,,,,,,,,,,,,,,,,,dozen,silent,red,73,73,102,2155.9152935999446,None,2155.9152935999446,None,5,1.214336400385946,2155.9152935999446,None,2157.1722573000006,None,2157.6940691997297,None,2157.6940691997297,None,n,0.2990966998040676,2157.6940691997297,None,,,color22,001,2021_Nov_10_1530,ProdSingRedo,3.2.3,60.060132186771135,
,,,,74,0,74,0,,,,,,,,,,,,,,,,,,,,,,,,2160.5902656000108,None,,,,,,,,,,,,,,,,,second,new_aloud,blue,74,144,278,2158.544502899982,None,2158.544502899982,None,1,1.4087317995727062,2158.544502899982,None,2159.999145099893,None,2160.5221001999453,None,2160.5221001999453,None,n,0.040027299895882607,2160.5221001999453,None,,,color22,001,2021_Nov_10_1530,ProdSingRedo,3.2.3,60.060132186771135,
,,,,75,0,75,0,,,,,,,,,,,,,,,,,,,,,,,,2163.639529099688,None,,,,,,,,,,,,,,,,,literature,sing,yellow,75,22,173,2161.1193169998005,None,2161.1193169998005,None,6,1.1939964001066983,2161.1193169998005,None,2162.360676500015,None,2162.8789729997516,None,2162.8789729997516,None,r,0.7222283999435604,2162.8789729997516,None,,,color22,001,2021_Nov_10_1530,ProdSingRedo,3.2.3,60.060132186771135,
,,,,76,0,76,0,,,,,,,,,,,,,,,,,,,,,,,,2168.7724352995865,None,,,,,,,,,,,,,,,,,answer,sing,yellow,76,15,8,2164.156581499614,None,2164.156581499614,None,6,3.0206776997074485,2164.156581499614,None,2167.2262040995993,None,2167.74547969969,None,2167.74547969969,None,r,0.9917179998010397,2167.74547969969,None,,,color22,001,2021_Nov_10_1530,ProdSingRedo,3.2.3,60.060132186771135,
,,,,77,0,77,0,,,,,,,,,,,,,,,,,,,,,,,,2172.7001813999377,None,,,,,,,,,,,,,,,,,industry,new_silent,red,77,155,161,2169.3003849997185,None,2169.3003849997185,None,4,1.9728033998981118,2169.3003849997185,None,2171.327138299588,None,2171.8476641997695,None,2171.8476641997695,None,r,0.8333220002241433,2171.8476641997695,None,,,color22,001,2021_Nov_10_1530,ProdSingRedo,3.2.3,60.060132186771135,
,,,,78,0,78,0,,,,,,,,,,,,,,,,,,,,,,,,2175.190779699944,None,,,,,,,,,,,,,,,,,title,new_silent,red,78,179,331,2173.2165398998186,None,2173.2165398998186,None,1,1.2566301999613643,2173.2165398998186,None,2174.5176533996128,None,2175.0389519999735,None,2175.0389519999735,None,n,0.1143800001591444,2175.0389519999735,None,,,color22,001,2021_Nov_10_1530,ProdSingRedo,3.2.3,60.060132186771135,
,,,,79,0,79,0,,,,,,,,,,,,,,,,,,,,,,,,2178.556667199824,None,,,,,,,,,,,,,,,,,owner,aloud,blue,79,42,208,2175.716188999824,None,2175.716188999824,None,6,1.181494299788028,2175.716188999824,None,2176.9395385999233,None,2177.458655399736,None,2177.458655399736,None,r,1.062544499989599,2177.458655399736,None,,,color22,001,2021_Nov_10_1530,ProdSingRedo,3.2.3,60.060132186771135,
,,,,80,0,80,0,,,,,,,,,,,,,,,,,,,,,,,,2180.840317199938,None,,,,,,,,,,,,,,,,,military,sing,yellow,80,24,190,2179.0824562995695,None,2179.0824562995695,None,6,0.8315369002521038,2179.0824562995695,None,2179.957013899926,None,2180.481994799804,None,2180.481994799804,None,r,0.3192485002800822,2180.481994799804,None,,,color22,001,2021_Nov_10_1530,ProdSingRedo,3.2.3,60.060132186771135,
,,,,81,0,81,0,,,,,,,,,,,,,,,,,,,,,,,,2183.223624599632,None,,,,,,,,,,,,,,,,,welcome,aloud,blue,81,55,354,2181.362094799988,None,2181.362094799988,None,6,0.9271962996572256,2181.362094799988,None,2182.3404153999873,None,2182.8613501996733,None,2182.8613501996733,None,r,0.3239245000295341,2182.8613501996733,None,,,color22,001,2021_Nov_10_1530,ProdSingRedo,3.2.3,60.060132186771135,
,,,,82,0,82,0,,,,,,,,,,,,,,,,,,,,,,,,2186.125678899698,None,,,,,,,,,,,,,,,,,principal,new_aloud,blue,82,130,236,2183.737493599765,None,2183.737493599765,None,1,1.4638399998657405,2183.737493599765,None,2185.2573564997874,None,2185.779423299711,None,2185.779423299711,None,n,0.31809640023857355,2185.779423299711,None,,,color22,001,2021_Nov_10_1530,ProdSingRedo,3.2.3,60.060132186771135,
,,,,83,0,83,0,,,,,,,,,,,,,,,,,,,,,,,,2190.3908186997287,None,,,,,,,,,,,,,,,,,mayor,new_sing,yellow,83,108,183,2186.6535580996424,None,2186.6535580996424,None,1,1.355708200018853,2186.6535580996424,None,2188.053771799896,None,2188.582843999844,None,2188.582843999844,None,f,1.7704230998642743,2188.582843999844,None,,,color22,001,2021_Nov_10_1530,ProdSingRedo,3.2.3,60.060132186771135,
,,,,84,0,84,0,,,,,,,,,,,,,,,,,,,,,,,,2192.7490232996643,None,,,,,,,,,,,,,,,,,private,sing,yellow,84,2,237,2190.918853599578,None,2190.918853599578,None,6,1.1303469999693334,2190.918853599578,None,2192.07475399971,None,2192.5960095999762,None,2192.5960095999762,None,r,0.1332160998135805,2192.5960095999762,None,,,color22,001,2021_Nov_10_1530,ProdSingRedo,3.2.3,60.060132186771135,
,,,,85,0,85,0,,,,,,,,,,,,,,,,,,,,,,,,2195.1000347998925,None,,,,,,,,,,,,,,,,,touch,sing,yellow,85,21,332,2193.250675200019,None,2193.250675200019,None,6,1.0702545000240207,2193.250675200019,None,2194.3540782998316,None,2194.8728190995753,None,2194.8728190995753,None,r,0.20012889988720417,2194.8728190995753,None,,,color22,001,2021_Nov_10_1530,ProdSingRedo,3.2.3,60.060132186771135,
,,,,86,0,86,0,,,,,,,,,,,,,,,,,,,,,,,,2199.1603770996444,None,,,,,,,,,,,,,,,,,place,new_sing,yellow,86,109,222,2195.6219253996387,None,2195.6219253996387,None,1,1.259590100031346,2195.6219253996387,None,2196.9151801997796,None,2197.43411329994,None,2197.43411329994,None,f,1.6951041999273002,2197.43411329994,None,,,color22,001,2021_Nov_10_1530,ProdSingRedo,3.2.3,60.060132186771135,
,,,,87,0,87,0,,,,,,,,,,,,,,,,,,,,,,,,2203.6608547000214,None,,,,,,,,,,,,,,,,,minute,silent,red,87,78,192,2199.6844631996937,None,2199.6844631996937,None,1,1.300718099810183,2199.6844631996937,None,2201.03055139957,None,2201.545048299711,None,2201.545048299711,None,f,2.0801442000083625,2201.545048299711,None,,,color22,001,2021_Nov_10_1530,ProdSingRedo,3.2.3,60.060132186771135,
,,,,88,0,88,0,,,,,,,,,,,,,,,,,,,,,,,,2206.9086082000285,None,,,,,,,,,,,,,,,,,attack,new_silent,red,88,172,13,2204.1893380000256,None,2204.1893380000256,None,1,1.1082246000878513,2204.1893380000256,None,2205.337861099746,None,2205.865306899883,None,2205.865306899883,None,f,1.0081777996383607,2205.865306899883,None,,,color22,001,2021_Nov_10_1530,ProdSingRedo,3.2.3,60.060132186771135,
,,,,89,0,89,0,,,,,,,,,,,,,,,,,,,,,,,,2209.7928441995755,None,,,,,,,,,,,,,,,,,strain,new_silent,red,89,164,308,2207.4329253998585,None,2207.4329253998585,None,1,0.9603698998689651,2207.4329253998585,None,2208.4429446998984,None,2208.96336219972,None,2208.96336219972,None,f,0.7978157000616193,2208.96336219972,None,,,color22,001,2021_Nov_10_1530,ProdSingRedo,3.2.3,60.060132186771135,
,,,,90,0,90,0,,,,,,,,,,,,,,,,,,,,,,,,2212.827153099701,None,,,,,,,,,,,,,,,,,childhood,new_aloud,blue,90,138,49,2210.3161965999752,None,2210.3161965999752,None,1,1.1332069002091885,2210.3161965999752,None,2211.4918146999553,None,2212.0090079996735,None,2212.0090079996735,None,n,0.7843605997040868,2212.0090079996735,None,,,color22,001,2021_Nov_10_1530,ProdSingRedo,3.2.3,60.060132186771135,
,,,,91,0,91,0,,,,,,,,,,,,,,,,,,,,,,,,2215.4432049999014,None,,,,,,,,,,,,,,,,,sight,aloud,blue,91,37,286,2213.352961299941,None,2213.352961299941,None,1,0.8803380997851491,2213.352961299941,None,2214.2744634998962,None,2214.797949799802,None,2214.797949799802,None,n,0.6112557002343237,2214.797949799802,None,,,color22,001,2021_Nov_10_1530,ProdSingRedo,3.2.3,60.060132186771135,
,,,,92,0,92,0,,,,,,,,,,,,,,,,,,,,,,,,2218.4100695997477,None,,,,,,,,,,,,,,,,,quantity,sing,yellow,92,1,245,2215.974155299831,None,2215.974155299831,None,6,1.723054800182581,2215.974155299831,None,2217.7457636999898,None,2218.267784100026,None,2218.267784100026,None,r,0.1176473000086844,2218.267784100026,None,,,color22,001,2021_Nov_10_1530,ProdSingRedo,3.2.3,60.060132186771135,
,,,,93,0,93,0,,,,,,,,,,,,,,,,,,,,,,,,2220.7788882995956,None,,,,,,,,,,,,,,,,,machinery,silent,red,93,66,175,2218.944930099882,None,2218.944930099882,None,6,1.128143500071019,2218.944930099882,None,2220.1142531996593,None,2220.6320949997753,None,2220.6320949997753,None,r,0.10510679986327887,2220.6320949997753,None,,,color22,001,2021_Nov_10_1530,ProdSingRedo,3.2.3,60.060132186771135,
,,,,94,0,94,0,,,,,,,,,,,,,,,,,,,,,,,,2224.060885499697,None,,,,,,,,,,,,,,,,,recall,new_sing,yellow,94,95,255,2221.3102212999947,None,2221.3102212999947,None,1,1.0671693999320269,2221.3102212999947,None,2222.4153430997394,None,2222.929454599973,None,2222.929454599973,None,n,1.1040667998604476,2222.929454599973,None,,,color22,001,2021_Nov_10_1530,ProdSingRedo,3.2.3,60.060132186771135,
,,,,95,0,95,0,,,,,,,,,,,,,,,,,,,,,,,,2226.728588699829,None,,,,,,,,,,,,,,,,,level,sing,yellow,95,6,170,2224.5861647999845,None,2224.5861647999845,None,6,0.9350831001065671,2224.5861647999845,None,2225.565753699746,None,2226.0857967999764,None,2226.0857967999764,None,r,0.611461800057441,2226.0857967999764,None,,,color22,001,2021_Nov_10_1530,ProdSingRedo,3.2.3,60.060132186771135,
,,,,96,0,96,0,,,,,,,,,,,,,,,,,,,,,,,,2229.144619499799,None,,,,,,,,,,,,,,,,,death,silent,red,96,72,86,2227.2538000997156,None,2227.2538000997156,None,6,1.06756620015949,2227.2538000997156,None,2228.377325399779,None,2228.8959735999815,None,2228.8959735999815,None,r,0.19330829987302423,2228.8959735999815,None,,,color22,001,2021_Nov_10_1530,ProdSingRedo,3.2.3,60.060132186771135,
,,,,97,0,97,0,,,,,,,,,,,,,,,,,,,,,,,,2231.244175899774,None,,,,,,,,,,,,,,,,,income,aloud,blue,97,36,159,2229.667951699812,None,2229.667951699812,None,6,0.9334180997684598,2229.667951699812,None,2230.6395934997126,None,2231.1609523999505,None,2231.1609523999505,None,r,0.05660049989819527,2231.1609523999505,None,,,color22,001,2021_Nov_10_1530,ProdSingRedo,3.2.3,60.060132186771135,
,,,,98,0,98,0,,,,,,,,,,,,,,,,,,,,,,,,2234.020674199797,None,,,,,,,,,,,,,,,,,century,silent,red,98,74,45,2231.7752673998475,None,2231.7752673998475,None,6,1.07396740000695,2231.7752673998475,None,2232.885420399718,None,2233.3872206998058,None,2233.3872206998058,None,r,0.6146003999747336,2233.3872206998058,None,,,color22,001,2021_Nov_10_1530,ProdSingRedo,3.2.3,60.060132186771135,
,,,,99,0,99,0,,,,,,,,,,,,,,,,,,,,,,,,2236.712607800029,None,,,,,,,,,,,,,,,,,charter,new_silent,red,99,156,47,2234.549508799799,None,2234.549508799799,None,1,1.0363150001503527,2234.549508799799,None,2235.6163356998004,None,2236.1363999997266,None,2236.1363999997266,None,f,0.544842999894172,2236.1363999997266,None,,,color22,001,2021_Nov_10_1530,ProdSingRedo,3.2.3,60.060132186771135,
,,,,100,0,100,0,,,,,,,,,,,,,,,,,,,,,,,,2242.1441643997096,None,,,,,,,,,,,,,,,,,exchange,new_sing,yellow,100,112,121,2237.2444050996564,None,2237.2444050996564,None,6,1.2128909002058208,2237.2444050996564,None,2238.5096796997823,None,2239.0165406996384,None,2239.0165406996384,None,n,3.08878709981218,2239.0165406996384,None,,,color22,001,2021_Nov_10_1530,ProdSingRedo,3.2.3,60.060132186771135,
,,,,101,0,101,0,,,,,,,,,,,,,,,,,,,,,,,,2244.601168499794,None,,,,,,,,,,,,,,,,,beginning,silent,red,101,76,19,2242.6782490997575,None,2242.6782490997575,None,6,1.2511438997462392,2242.6782490997575,None,2243.976403299719,None,2244.5055164997466,None,2244.5055164997466,None,r,0.06386529980227351,2244.5055164997466,None,,,color22,001,2021_Nov_10_1530,ProdSingRedo,3.2.3,60.060132186771135,
,,,,102,0,102,0,,,,,,,,,,,,,,,,,,,,,,,,2246.979317399673,None,,,,,,,,,,,,,,,,,south,sing,yellow,102,29,296,2245.123335099779,None,2245.123335099779,None,6,1.1019814000464976,2245.123335099779,None,2246.2754829996265,None,2246.7980899997056,None,2246.7980899997056,None,r,0.15522600011900067,2246.7980899997056,None,,,color22,001,2021_Nov_10_1530,ProdSingRedo,3.2.3,60.060132186771135,
,,,,103,0,103,0,,,,,,,,,,,,,,,,,,,,,,,,2251.395612800028,None,,,,,,,,,,,,,,,,,range,new_aloud,blue,103,145,251,2247.5062629999593,None,2247.5062629999593,None,2,1.7670554998330772,2247.5062629999593,None,2249.3284732997417,None,2249.850823599845,None,2249.850823599845,None,f,1.5105582000687718,2249.850823599845,None,,,color22,001,2021_Nov_10_1530,ProdSingRedo,3.2.3,60.060132186771135,
,,,,104,0,104,0,,,,,,,,,,,,,,,,,,,,,,,,2253.5712853996083,None,,,,,,,,,,,,,,,,,universal,aloud,blue,104,46,345,2251.9246605997905,None,2251.9246605997905,None,6,1.0287902001291513,2251.9246605997905,None,2253.0018519996665,None,2253.523640899919,None,2253.523640899919,None,r,0.02141030039638281,2253.523640899919,None,,,color22,001,2021_Nov_10_1530,ProdSingRedo,3.2.3,60.060132186771135,
,,,,105,0,105,0,,,,,,,,,,,,,,,,,,,,,,,,2256.8526724996045,None,,,,,,,,,,,,,,,,,staff,new_sing,yellow,105,94,301,2254.087570499629,None,2254.087570499629,None,1,2.001908500213176,2254.087570499629,None,2256.165059799794,None,2256.6913374997675,None,2256.6913374997675,None,n,0.12616530014202,2256.6913374997675,None,,,color22,001,2021_Nov_10_1530,ProdSingRedo,3.2.3,60.060132186771135,
,,,,106,0,106,0,,,,,,,,,,,,,,,,,,,,,,,,2259.143849999644,None,,,,,,,,,,,,,,,,,prime,new_aloud,blue,106,133,235,2257.3712856997736,None,2257.3712856997736,None,1,1.1820191000588238,2257.3712856997736,None,2258.583432099782,None,2259.0952415997162,None,2259.0952415997162,None,n,0.009994799736887217,2259.0952415997162,None,,,color22,001,2021_Nov_10_1530,ProdSingRedo,3.2.3,60.060132186771135,
,,,,107,0,107,0,,,,,,,,,,,,,,,,,,,,,,,,2262.0227353996597,None,,,,,,,,,,,,,,,,,community,silent,red,107,81,63,2259.6749518997967,None,2259.6749518997967,None,6,1.126808200031519,2259.6749518997967,None,2260.851078099571,None,2261.3687707995996,None,2261.3687707995996,None,r,0.6243054000660777,2261.3687707995996,None,,,color22,001,2021_Nov_10_1530,ProdSingRedo,3.2.3,60.060132186771135,
,,,,108,0,108,0,,,,,,,,,,,,,,,,,,,,,,,,2264.747496899683,None,,,,,,,,,,,,,,,,,center,sing,yellow,108,19,44,2262.5247356998734,None,2262.5247356998734,None,6,1.3007030002772808,2262.5247356998734,None,2263.874077899847,None,2264.3945273999125,None,2264.3945273999125,None,r,0.3267888999544084,2264.3945273999125,None,,,color22,001,2021_Nov_10_1530,ProdSingRedo,3.2.3,60.060132186771135,
,,,,109,0,109,0,,,,,,,,,,,,,,,,,,,,,,,,2267.781166299712,None,,,,,,,,,,,,,,,,,number,silent,red,109,80,203,2265.2730345996097,None,2265.2730345996097,None,1,1.1842195997014642,2265.2730345996097,None,2266.515877599828,None,2267.035794899799,None,2267.035794899799,None,n,0.7094833999872208,2267.035794899799,None,,,color22,001,2021_Nov_10_1530,ProdSingRedo,3.2.3,60.060132186771135,
,,,,110,0,110,0,,,,,,,,,,,,,,,,,,,,,,,,2270.4219402996823,None,,,,,,,,,,,,,,,,,length,new_aloud,blue,110,148,169,2268.3088197000325,None,2268.3088197000325,None,2,1.43646730016917,2268.3088197000325,None,2269.7958025997505,None,2270.3175305998884,None,2270.3175305998884,None,n,0.0597116001881659,2270.3175305998884,None,,,color22,001,2021_Nov_10_1530,ProdSingRedo,3.2.3,60.060132186771135,
,,,,111,0,111,0,,,,,,,,,,,,,,,,,,,,,,,,2272.829110699706,None,,,,,,,,,,,,,,,,,chief,sing,yellow,111,7,48,2270.941053299699,None,2270.941053299699,None,6,1.1563706998713315,2270.941053299699,None,2272.1402999996208,None,2272.6650995998643,None,2272.6650995998643,None,r,0.1361390999518335,2272.6650995998643,None,,,color22,001,2021_Nov_10_1530,ProdSingRedo,3.2.3,60.060132186771135,
,,,,112,0,112,0,,,,,,,,,,,,,,,,,,,,,,,,2275.297471500002,None,,,,,,,,,,,,,,,,,guest,new_aloud,blue,112,128,146,2273.3561804997735,None,2273.3561804997735,None,1,1.245131699834019,2273.3561804997735,None,2274.647015399765,None,2275.1685789995827,None,2275.1685789995827,None,n,0.10468279989436269,2275.1685789995827,None,,,color22,001,2021_Nov_10_1530,ProdSingRedo,3.2.3,60.060132186771135,
,,,,113,0,113,0,,,,,,,,,,,,,,,,,,,,,,,,2277.5651404997334,None,,,,,,,,,,,,,,,,,production,sing,yellow,113,4,240,2275.8259041998535,None,2275.8259041998535,None,6,1.07965790014714,2275.8259041998535,None,2276.9427065998316,None,2277.4688928998075,None,2277.4688928998075,None,r,0.060353600420057774,2277.4688928998075,None,,,color22,001,2021_Nov_10_1530,ProdSingRedo,3.2.3,60.060132186771135,
,,,,114,0,114,0,,,,,,,,,,,,,,,,,,,,,,,,2279.889892600011,None,,,,,,,,,,,,,,,,,agency,sing,yellow,114,27,4,2278.0926096998155,None,2278.0926096998155,None,6,1.1806831997819245,2278.0926096998155,None,2279.3114680997096,None,2279.836571399588,None,2279.836571399588,None,r,0.03654199978336692,2279.836571399588,None,,,color22,001,2021_Nov_10_1530,ProdSingRedo,3.2.3,60.060132186771135,
,,,,115,0,115,0,,,,,,,,,,,,,,,,,,,,,,,,2282.464514899999,None,,,,,,,,,,,,,,,,,distance,new_silent,red,115,173,100,2280.4085528999567,None,2280.4085528999567,None,1,1.3527183001860976,2280.4085528999567,None,2281.8133266996592,None,2282.3348776996136,None,2282.3348776996136,None,n,0.09852250013500452,2282.3348776996136,None,,,color22,001,2021_Nov_10_1530,ProdSingRedo,3.2.3,60.060132186771135,
,,,,116,0,116,0,,,,,,,,,,,,,,,,,,,,,,,,2284.781503799837,None,,,,,,,,,,,,,,,,,appearance,silent,red,116,88,10,2282.996316900011,None,2282.996316900011,None,6,1.1169602000154555,2282.996316900011,None,2284.1754089999013,None,2284.6936209998094,None,2284.6936209998094,None,r,0.05174999963492155,2284.6936209998094,None,,,color22,001,2021_Nov_10_1530,ProdSingRedo,3.2.3,60.060132186771135,
,,,,117,0,117,0,,,,,,,,,,,,,,,,,,,,,,,,2287.6640557995997,None,,,,,,,,,,,,,,,,,mechanical,silent,red,117,68,185,2285.311925199814,None,2285.311925199814,None,6,1.1216919999569654,2285.311925199814,None,2286.480539099779,None,2287.0064687998965,None,2287.0064687998965,None,r,0.6193999000824988,2287.0064687998965,None,,,color22,001,2021_Nov_10_1530,ProdSingRedo,3.2.3,60.060132186771135,
,,,,118,0,118,0,,,,,,,,,,,,,,,,,,,,,,,,2290.003276599571,None,,,,,,,,,,,,,,,,,crisis,aloud,blue,118,47,79,2288.186188600026,None,2288.186188600026,None,6,0.9751117001287639,2288.186188600026,None,2289.2083012997173,None,2289.731087999884,None,2289.731087999884,None,r,0.23818610003218055,2289.731087999884,None,,,color22,001,2021_Nov_10_1530,ProdSingRedo,3.2.3,60.060132186771135,
,,,,119,0,119,0,,,,,,,,,,,,,,,,,,,,,,,,2292.123936999589,None,,,,,,,,,,,,,,,,,corner,aloud,blue,119,44,69,2290.521820599679,None,2290.521820599679,None,6,0.8162497002631426,2290.521820599679,None,2291.3714794996195,None,2291.8826361997053,None,2291.8826361997053,None,r,0.21462059998884797,2291.8826361997053,None,,,color22,001,2021_Nov_10_1530,ProdSingRedo,3.2.3,60.060132186771135,
,,,,120,0,120,0,,,,,,,,,,,,,,,,,,,,,,,,2295.065221800003,None,,,,,,,,,,,,,,,,,raise,new_aloud,blue,120,122,250,2292.65432399977,None,2292.65432399977,None,1,1.2269406002014875,2292.65432399977,None,2293.924403599929,None,2294.453047499992,None,2294.453047499992,None,n,0.5802337997592986,2294.453047499992,None,,,color22,001,2021_Nov_10_1530,ProdSingRedo,3.2.3,60.060132186771135,
,,,,121,0,121,0,,,,,,,,,,,,,,,,,,,,,,,,2297.3989071999677,None,,,,,,,,,,,,,,,,,sweet,new_silent,red,121,160,319,2295.591649999842,None,2295.591649999842,None,1,1.0735929999500513,2295.591649999842,None,2296.7098581995815,None,2297.2359173996374,None,2297.2359173996374,None,n,0.1333584999665618,2297.2359173996374,None,,,color22,001,2021_Nov_10_1530,ProdSingRedo,3.2.3,60.060132186771135,
,,,,122,0,122,0,,,,,,,,,,,,,,,,,,,,,,,,2299.6481830999255,None,,,,,,,,,,,,,,,,,symbol,new_sing,yellow,122,116,321,2297.921829899773,None,2297.921829899773,None,1,1.0554905999451876,2297.921829899773,None,2299.026478299871,None,2299.5434877998196,None,2299.5434877998196,None,n,0.06584679987281561,2299.5434877998196,None,,,color22,001,2021_Nov_10_1530,ProdSingRedo,3.2.3,60.060132186771135,
,,,,123,0,123,0,,,,,,,,,,,,,,,,,,,,,,,,2302.0158277996816,None,,,,,,,,,,,,,,,,,tennis,new_sing,yellow,123,113,323,2300.173061499838,None,2300.173061499838,None,1,1.1654449999332428,2300.173061499838,None,2301.3786445995793,None,2301.90287250001,None,2301.90287250001,None,n,0.08271670015528798,2301.90287250001,None,,,color22,001,2021_Nov_10_1530,ProdSingRedo,3.2.3,60.060132186771135,
,,,,124,0,124,0,,,,,,,,,,,,,,,,,,,,,,,,2304.332643099595,None,,,,,,,,,,,,,,,,,notice,new_sing,yellow,124,93,201,2302.5376797998324,None,2302.5376797998324,None,1,1.1038220999762416,2302.5376797998324,None,2303.673045599833,None,2304.1865232996643,None,2304.1865232996643,None,n,0.1108971000649035,2304.1865232996643,None,,,color22,001,2021_Nov_10_1530,ProdSingRedo,3.2.3,60.060132186771135,
,,,,125,0,125,0,,,,,,,,,,,,,,,,,,,,,,,,2306.8846428999677,None,,,,,,,,,,,,,,,,,safety,new_sing,yellow,125,118,270,2304.8627291996963,None,2304.8627291996963,None,1,1.2271328000351787,2304.8627291996963,None,2306.1315209995955,None,2306.6564726997167,None,2306.6564726997167,None,n,0.1927760001271963,2306.6564726997167,None,,,color22,001,2021_Nov_10_1530,ProdSingRedo,3.2.3,60.060132186771135,
,,,,126,0,126,0,,,,,,,,,,,,,,,,,,,,,,,,2309.3492272999138,None,,,,,,,,,,,,,,,,,science,aloud,blue,126,39,275,2307.4164485000074,None,2307.4164485000074,None,6,1.296855399850756,2307.4164485000074,None,2308.761131399777,None,2309.2814187998883,None,2309.2814187998883,None,r,0.04035599995404482,2309.2814187998883,None,,,color22,001,2021_Nov_10_1530,ProdSingRedo,3.2.3,60.060132186771135,
,,,,127,0,127,0,,,,,,,,,,,,,,,,,,,,,,,,2312.8663272997364,None,,,,,,,,,,,,,,,,,running,new_silent,red,127,165,268,2309.878317399882,None,2309.878317399882,None,3,1.8508136998862028,2309.878317399882,None,2311.7753162998706,None,2312.2897168998607,None,2312.2897168998607,None,n,0.5516825998201966,2312.2897168998607,None,,,color22,001,2021_Nov_10_1530,ProdSingRedo,3.2.3,60.060132186771135,
,,,,128,0,128,0,,,,,,,,,,,,,,,,,,,,,,,,2315.6501519996673,None,,,,,,,,,,,,,,,,,resistance,new_sing,yellow,128,91,262,2313.396108499728,None,2313.396108499728,None,1,1.1732155000790954,2313.396108499728,None,2314.616023999639,None,2315.139884999953,None,2315.139884999953,None,n,0.4773666001856327,2315.139884999953,None,,,color22,001,2021_Nov_10_1530,ProdSingRedo,3.2.3,60.060132186771135,
,,,,129,0,129,0,,,,,,,,,,,,,,,,,,,,,,,,2318.4343238999136,None,,,,,,,,,,,,,,,,,power,new_aloud,blue,129,131,230,2316.1754616997205,None,2316.1754616997205,None,1,1.098531300202012,2316.1754616997205,None,2317.317123199813,None,2317.839322099928,None,2317.839322099928,None,n,0.5620418000034988,2317.839322099928,None,,,color22,001,2021_Nov_10_1530,ProdSingRedo,3.2.3,60.060132186771135,
,,,,130,0,130,0,,,,,,,,,,,,,,,,,,,,,,,,2321.9011890999973,None,,,,,,,,,,,,,,,,,object,aloud,blue,130,33,204,2318.942413199693,None,2318.942413199693,None,6,1.7066873996518552,2318.942413199693,None,2320.6861961996183,None,2321.194189899601,None,2321.194189899601,None,r,0.6709499000571668,2321.194189899601,None,,,color22,001,2021_Nov_10_1530,ProdSingRedo,3.2.3,60.060132186771135,
,,,,131,0,131,0,,,,,,,,,,,,,,,,,,,,,,,,2324.5518298000097,None,,,,,,,,,,,,,,,,,trash,new_aloud,blue,131,123,337,2322.4226765995845,None,2322.4226765995845,None,1,1.0987737998366356,2322.4226765995845,None,2323.549134099856,None,2324.0700399000198,None,2324.0700399000198,None,n,0.4512354996986687,2324.0700399000198,None,,,color22,001,2021_Nov_10_1530,ProdSingRedo,3.2.3,60.060132186771135,
,,,,132,0,132,0,,,,,,,,,,,,,,,,,,,,,,,,2327.166770400014,None,,,,,,,,,,,,,,,,,drama,new_sing,yellow,132,105,103,2325.077826899942,None,2325.077826899942,None,1,0.9556350000202656,2325.077826899942,None,2326.081791799981,None,2326.6052019000053,None,2326.6052019000053,None,n,0.5240654000081122,2326.6052019000053,None,,,color22,001,2021_Nov_10_1530,ProdSingRedo,3.2.3,60.060132186771135,
,,,,133,0,133,0,,,,,,,,,,,,,,,,,,,,,,,,2329.8363569998182,None,,,,,,,,,,,,,,,,,discovery,sing,yellow,133,0,95,2327.6960591999814,None,2327.6960591999814,None,6,1.0333251003175974,2327.6960591999814,None,2328.781813299749,None,2329.3084819000214,None,2329.3084819000214,None,r,0.5009470996446908,2329.3084819000214,None,,,color22,001,2021_Nov_10_1530,ProdSingRedo,3.2.3,60.060132186771135,
,,,,134,0,134,0,,,,,,,,,,,,,,,,,,,,,,,,2332.2519480995834,None,,,,,,,,,,,,,,,,,primary,new_silent,red,134,178,234,2330.3655449999496,None,2330.3655449999496,None,1,1.12428729981184,2330.3655449999496,None,2331.5375259998254,None,2332.05661949981,None,2332.05661949981,None,n,0.16051630023866892,2332.05661949981,None,,,color22,001,2021_Nov_10_1530,ProdSingRedo,3.2.3,60.060132186771135,
,,,,135,0,135,0,,,,,,,,,,,,,,,,,,,,,,,,2335.2064222996123,None,,,,,,,,,,,,,,,,,spoke,new_aloud,blue,135,124,300,2332.777393399738,None,2332.777393399738,None,1,1.223967199679464,2332.777393399738,None,2334.0491089997813,None,2334.569841099903,None,2334.569841099903,None,n,0.5995832001790404,2334.569841099903,None,,,color22,001,2021_Nov_10_1530,ProdSingRedo,3.2.3,60.060132186771135,
,,,,136,0,136,0,,,,,,,,,,,,,,,,,,,,,,,,2337.434672500007,None,,,,,,,,,,,,,,,,,cross,new_aloud,blue,136,137,80,2335.722688699607,None,2335.722688699607,None,1,1.0467648999765515,2335.722688699607,None,2336.8131035999395,None,2337.3332322998904,None,2337.3332322998904,None,n,0.06797420000657439,2337.3332322998904,None,,,color22,001,2021_Nov_10_1530,ProdSingRedo,3.2.3,60.060132186771135,
,,,,137,0,137,0,,,,,,,,,,,,,,,,,,,,,,,,2341.0191788999364,None,,,,,,,,,,,,,,,,,interior,new_sing,yellow,137,117,164,2337.956718399655,None,2337.956718399655,None,3,2.1172321001067758,2337.956718399655,None,2340.114587799646,None,2340.634394499939,None,2340.634394499939,None,n,0.3594478997401893,2340.634394499939,None,,,color22,001,2021_Nov_10_1530,ProdSingRedo,3.2.3,60.060132186771135,
,,,,138,0,138,0,,,,,,,,,,,,,,,,,,,,,,,,2343.503534299787,None,,,,,,,,,,,,,,,,,property,new_silent,red,138,150,242,2341.5438629998825,None,2341.5438629998825,None,6,1.161433200351894,2341.5438629998825,None,2342.752073899843,None,2343.2721528997645,None,2343.2721528997645,None,r,0.20128800021484494,2343.2721528997645,None,,,color22,001,2021_Nov_10_1530,ProdSingRedo,3.2.3,60.060132186771135,
,,,,139,0,139,0,,,,,,,,,,,,,,,,,,,,,,,,2346.235362199601,None,,,,,,,,,,,,,,,,,question,silent,red,139,63,247,2344.0192025997676,None,2344.0192025997676,None,1,1.0861042002215981,2344.0192025997676,None,2345.152696099598,None,2345.670884499792,None,2345.670884499792,None,n,0.5386304999701679,2345.670884499792,None,,,color22,001,2021_Nov_10_1530,ProdSingRedo,3.2.3,60.060132186771135,
,,,,140,0,140,0,,,,,,,,,,,,,,,,,,,,,,,,2349.003707799595,None,,,,,,,,,,,,,,,,,narrow,new_sing,yellow,140,90,197,2346.762398699764,None,2346.762398699764,None,1,1.5589441996999085,2346.762398699764,None,2348.368569499813,None,2348.881210499909,None,2348.881210499909,None,n,0.08808719972148538,2348.881210499909,None,,,color22,001,2021_Nov_10_1530,ProdSingRedo,3.2.3,60.060132186771135,
,,,,141,0,141,0,,,,,,,,,,,,,,,,,,,,,,,,2352.285190399736,None,,,,,,,,,,,,,,,,,empty,new_aloud,blue,141,136,112,2349.5269635999575,None,2349.5269635999575,None,4,1.9063349002972245,2349.5269635999575,None,2351.4836009996943,None,2352.003226199653,None,2352.003226199653,None,n,0.24609720008447766,2352.003226199653,None,,,color22,001,2021_Nov_10_1530,ProdSingRedo,3.2.3,60.060132186771135,
,,,,142,0,142,0,,,,,,,,,,,,,,,,,,,,,,,,2355.2861305996776,None,,,,,,,,,,,,,,,,,evidence,aloud,blue,142,53,120,2352.799318399746,None,2352.799318399746,None,6,1.0104366997256875,2352.799318399746,None,2353.852772399783,None,2354.3736560000107,None,2354.3736560000107,None,r,0.8839862998574972,2354.3736560000107,None,,,color22,001,2021_Nov_10_1530,ProdSingRedo,3.2.3,60.060132186771135,
,,,,143,0,143,0,,,,,,,,,,,,,,,,,,,,,,,,2357.5627131997608,None,,,,,,,,,,,,,,,,,drink,silent,red,143,75,105,2355.8116482999176,None,2355.8116482999176,None,1,1.1416947999969125,2355.8116482999176,None,2357.0017313999124,None,2357.512744099833,None,2357.512744099833,None,n,0.024552199989557266,2357.512744099833,None,,,color22,001,2021_Nov_10_1530,ProdSingRedo,3.2.3,60.060132186771135,
,,,,144,0,144,0,,,,,,,,,,,,,,,,,,,,,,,,2361.4180446998216,None,,,,,,,,,,,,,,,,,search,silent,red,144,85,276,2358.091412199661,None,2358.091412199661,None,1,2.5980212995782495,2358.091412199661,None,2360.7362449998036,None,2361.2658659997396,None,2361.2658659997396,None,n,0.11949190031737089,2361.2658659997396,None,,,color22,001,2021_Nov_10_1530,ProdSingRedo,3.2.3,60.060132186771135,
,,,,145,0,145,0,,,,,,,,,,,,,,,,,,,,,,,,2364.886060899589,None,,,,,,,,,,,,,,,,,material,new_sing,yellow,145,104,182,2361.95473639993,None,2361.95473639993,None,4,1.734722400084138,2361.95473639993,None,2363.732894399669,None,2364.261141399853,None,2364.261141399853,None,n,0.5881761000491679,2364.261141399853,None,,,color22,001,2021_Nov_10_1530,ProdSingRedo,3.2.3,60.060132186771135,
,,,,146,0,146,0,,,,,,,,,,,,,,,,,,,,,,,,2367.2498084995896,None,,,,,,,,,,,,,,,,,husband,silent,red,146,67,156,2365.413601799868,None,2365.413601799868,None,4,1.0998541000299156,2365.413601799868,None,2366.5753109999932,None,2367.090271599591,None,2367.090271599591,None,n,0.12714080000296235,2367.090271599591,None,,,color22,001,2021_Nov_10_1530,ProdSingRedo,3.2.3,60.060132186771135,
,,,,147,0,147,0,,,,,,,,,,,,,,,,,,,,,,,,2369.7036869996227,None,,,,,,,,,,,,,,,,,swift,new_aloud,blue,147,141,320,2367.781442699954,None,2367.781442699954,None,1,1.2919801999814808,2367.781442699954,None,2369.12044039974,None,2369.641947799828,None,2369.641947799828,None,n,0.03148370003327727,2369.641947799828,None,,,color22,001,2021_Nov_10_1530,ProdSingRedo,3.2.3,60.060132186771135,
,,,,148,0,148,0,,,,,,,,,,,,,,,,,,,,,,,,2372.453164199833,None,,,,,,,,,,,,,,,,,finish,new_sing,yellow,148,114,130,2370.2302377996966,None,2370.2302377996966,None,1,1.1071268999949098,2370.2302377996966,None,2371.3853698996827,None,2371.9061385998502,None,2371.9061385998502,None,n,0.5112968003377318,2371.9061385998502,None,,,color22,001,2021_Nov_10_1530,ProdSingRedo,3.2.3,60.060132186771135,
,,,,149,0,149,0,,,,,,,,,,,,,,,,,,,,,,,,2374.954165400006,None,,,,,,,,,,,,,,,,,cousin,sing,yellow,149,20,76,2372.9814186999574,None,2372.9814186999574,None,6,1.0919584999792278,2372.9814186999574,None,2374.1148791997693,None,2374.6305157998577,None,2374.6305157998577,None,r,0.2990421000868082,2374.6305157998577,None,,,color22,001,2021_Nov_10_1530,ProdSingRedo,3.2.3,60.060132186771135,
,,,,150,0,150,0,,,,,,,,,,,,,,,,,,,,,,,,2377.3551735999063,None,,,,,,,,,,,,,,,,,theme,new_silent,red,150,170,326,2375.4758565998636,None,2375.4758565998636,None,1,1.269423000048846,2375.4758565998636,None,2376.7704069996253,None,2377.2865122999065,None,2377.2865122999065,None,n,0.026967099867761135,2377.2865122999065,None,,,color22,001,2021_Nov_10_1530,ProdSingRedo,3.2.3,60.060132186771135,
,,,,151,0,151,0,,,,,,,,,,,,,,,,,,,,,,,,2381.504625399597,None,,,,,,,,,,,,,,,,,force,sing,yellow,151,28,131,2377.87896969961,None,2377.87896969961,None,1,2.842472500167787,2377.87896969961,None,2380.766826499719,None,2381.2897243998013,None,2381.2897243998013,None,n,0.1757256998680532,2381.2897243998013,None,,,color22,001,2021_Nov_10_1530,ProdSingRedo,3.2.3,60.060132186771135,
,,,,152,0,152,0,,,,,,,,,,,,,,,,,,,,,,,,2384.345115899574,None,,,,,,,,,,,,,,,,,display,aloud,blue,152,50,98,2382.0207254998386,None,2382.0207254998386,None,6,1.460293599870056,2382.0207254998386,None,2383.5277370996773,None,2384.0473532998003,None,2384.0473532998003,None,r,0.2737174998037517,2384.0473532998003,None,,,color22,001,2021_Nov_10_1530,ProdSingRedo,3.2.3,60.060132186771135,
,,,,153,0,153,0,,,,,,,,,,,,,,,,,,,,,,,,2387.038051799871,None,,,,,,,,,,,,,,,,,generation,new_sing,yellow,153,99,136,2384.852942499798,None,2384.852942499798,None,1,1.5410352000035346,2384.852942499798,None,2386.438524399884,None,2386.9608574998565,None,2386.9608574998565,None,n,0.04865559982135892,2386.9608574998565,None,,,color22,001,2021_Nov_10_1530,ProdSingRedo,3.2.3,60.060132186771135,
,,,,154,0,154,0,,,,,,,,,,,,,,,,,,,,,,,,2389.9245356996544,None,,,,,,,,,,,,,,,,,carry,sing,yellow,154,14,43,2387.5666073998436,None,2387.5666073998436,None,6,1.2029994996264577,2387.5666073998436,None,2388.8173940000124,None,2389.342950799968,None,2389.342950799968,None,r,0.5464252000674605,2389.342950799968,None,,,color22,001,2021_Nov_10_1530,ProdSingRedo,3.2.3,60.060132186771135,
,,,,155,0,155,0,,,,,,,,,,,,,,,,,,,,,,,,2392.1433719997294,None,,,,,,,,,,,,,,,,,month,sing,yellow,155,12,193,2390.4436336997896,None,2390.4436336997896,None,6,0.8859132998622954,2390.4436336997896,None,2391.3623662996106,None,2391.872411799617,None,2391.872411799617,None,r,0.24112109979614615,2391.872411799617,None,,,color22,001,2021_Nov_10_1530,ProdSingRedo,3.2.3,60.060132186771135,
,,,,156,0,156,0,,,,,,,,,,,,,,,,,,,,,,,,2396.006163999904,None,,,,,,,,,,,,,,,,,business,new_silent,red,156,161,38,2392.6595671996474,None,2392.6595671996474,None,5,2.605791099835187,2392.6595671996474,None,2395.300658599939,None,2395.8208186998963,None,2395.8208186998963,None,n,0.14853989984840155,2395.8208186998963,None,,,color22,001,2021_Nov_10_1530,ProdSingRedo,3.2.3,60.060132186771135,
,,,,157,0,157,0,,,,,,,,,,,,,,,,,,,,,,,,2399.0879444996826,None,,,,,,,,,,,,,,,,,write,silent,red,157,69,358,2396.5346474000253,None,2396.5346474000253,None,1,1.0348269999958575,2396.5346474000253,None,2397.6197989997454,None,2398.1323468997143,None,2398.1323468997143,None,n,0.9171683001331985,2398.1323468997143,None,,,color22,001,2021_Nov_10_1530,ProdSingRedo,3.2.3,60.060132186771135,
,,,,158,0,158,0,,,,,,,,,,,,,,,,,,,,,,,,2401.624394599814,None,,,,,,,,,,,,,,,,,public,new_aloud,blue,158,129,244,2399.61360459961,None,2399.61360459961,None,1,1.3487649001181126,2399.61360459961,None,2401.0012213997543,None,2401.5298470999114,None,2401.5298470999114,None,n,0.055709199979901314,2401.5298470999114,None,,,color22,001,2021_Nov_10_1530,ProdSingRedo,3.2.3,60.060132186771135,
,,,,159,0,159,0,,,,,,,,,,,,,,,,,,,,,,,,2403.838536599651,None,,,,,,,,,,,,,,,,,working,sing,yellow,159,25,357,2402.1600690996274,None,2402.1600690996274,None,1,1.0253090001642704,2402.1600690996274,None,2403.2400844995864,None,2403.764374199789,None,2403.764374199789,None,n,0.03711460018530488,2403.764374199789,None,,,color22,001,2021_Nov_10_1530,ProdSingRedo,3.2.3,60.060132186771135,
,,,,160,0,160,0,,,,,,,,,,,,,,,,,,,,,,,,2406.524388999678,None,,,,,,,,,,,,,,,,,personnel,sing,yellow,160,5,219,2404.3644917998463,None,2404.3644917998463,None,6,1.1249643000774086,2404.3644917998463,None,2405.536009799689,None,2406.057106100023,None,2406.057106100023,None,r,0.4403846999630332,2406.057106100023,None,,,color22,001,2021_Nov_10_1530,ProdSingRedo,3.2.3,60.060132186771135,
,,,,161,0,161,0,,,,,,,,,,,,,,,,,,,,,,,,2409.2083918997087,None,,,,,,,,,,,,,,,,,household,new_aloud,blue,161,126,154,2407.0521388999186,None,2407.0521388999186,None,1,1.0372915999032557,2407.0521388999186,None,2408.142672599759,None,2408.6602458995767,None,2408.6602458995767,None,n,0.5171310999430716,2408.6602458995767,None,,,color22,001,2021_Nov_10_1530,ProdSingRedo,3.2.3,60.060132186771135,
,,,,162,0,162,0,,,,,,,,,,,,,,,,,,,,,,,,2411.6684777997434,None,,,,,,,,,,,,,,,,,damage,silent,red,162,83,83,2409.73584739957,None,2409.73584739957,None,6,1.217478800099343,2409.73584739957,None,2410.9934231997468,None,2411.5113056995906,None,2411.5113056995906,None,r,0.12203110009431839,2411.5113056995906,None,,,color22,001,2021_Nov_10_1530,ProdSingRedo,3.2.3,60.060132186771135,
,,,,163,0,163,0,,,,,,,,,,,,,,,,,,,,,,,,2413.600380699616,None,,,,,,,,,,,,,,,,,threat,sing,yellow,163,10,329,2412.2070101997815,None,2412.2070101997815,None,6,0.8261147001758218,2412.2070101997815,None,2413.06546860002,None,2413.5821069995873,None,2413.5821069995873,None,r,0.002976899966597557,2413.5821069995873,None,,,color22,001,2021_Nov_10_1530,ProdSingRedo,3.2.3,60.060132186771135,
,,,,164,0,164,0,,,,,,,,,,,,,,,,,,,,,,,,2415.7737447996624,None,,,,,,,,,,,,,,,,,religion,new_silent,red,164,169,258,2414.1298004998825,None,2414.1298004998825,None,6,1.0075667998753488,2414.1298004998825,None,2415.189140799921,None,2415.7115834997967,None,2415.7115834997967,None,r,0.02555500017479062,2415.7115834997967,None,,,color22,001,2021_Nov_10_1530,ProdSingRedo,3.2.3,60.060132186771135,
,,,,165,0,165,0,,,,,,,,,,,,,,,,,,,,,,,,2418.4233164000325,None,,,,,,,,,,,,,,,,,republic,new_silent,red,165,152,260,2416.3032760997303,None,2416.3032760997303,None,1,1.0580468997359276,2416.3032760997303,None,2417.4040067000315,None,2417.929649199825,None,2417.929649199825,None,n,0.4557578000240028,2417.929649199825,None,,,color22,001,2021_Nov_10_1530,ProdSingRedo,3.2.3,60.060132186771135,
,,,,166,0,166,0,,,,,,,,,,,,,,,,,,,,,,,,2420.963189399801,None,,,,,,,,,,,,,,,,,volume,silent,red,166,65,349,2418.955913799815,None,2418.955913799815,None,1,0.9174739997833967,2418.955913799815,None,2419.9212793000042,None,2420.4463907997124,None,2420.4463907997124,None,n,0.48380069993436337,2420.4463907997124,None,,,color22,001,2021_Nov_10_1530,ProdSingRedo,3.2.3,60.060132186771135,
,,,,167,0,167,0,,,,,,,,,,,,,,,,,,,,,,,,2423.440792299807,None,,,,,,,,,,,,,,,,,tough,new_aloud,blue,167,135,333,2421.4808702999726,None,2421.4808702999726,None,1,1.2965065999887884,2421.4808702999726,None,2422.823941099923,None,2423.345680399798,None,2423.345680399798,None,n,0.06375790014863014,2423.345680399798,None,,,color22,001,2021_Nov_10_1530,ProdSingRedo,3.2.3,60.060132186771135,
,,,,168,0,168,0,,,,,,,,,,,,,,,,,,,,,,,,2426.257708699908,None,,,,,,,,,,,,,,,,,poetry,new_sing,yellow,168,101,225,2423.967723299749,None,2423.967723299749,None,1,1.2097879997454584,2423.967723299749,None,2425.2236492997035,None,2425.7410688996315,None,2425.7410688996315,None,n,0.4764380999840796,2425.7410688996315,None,,,color22,001,2021_Nov_10_1530,ProdSingRedo,3.2.3,60.060132186771135,
,,,,169,0,169,0,,,,,,,,,,,,,,,,,,,,,,,,2428.691107999999,None,,,,,,,,,,,,,,,,,express,new_aloud,blue,169,134,124,2426.7832050998695,None,2426.7832050998695,None,1,1.2421865002252162,2426.7832050998695,None,2428.0629290998913,None,2428.5780579997227,None,2428.5780579997227,None,n,0.07929470017552376,2428.5780579997227,None,,,color22,001,2021_Nov_10_1530,ProdSingRedo,3.2.3,60.060132186771135,
,,,,170,0,170,0,,,,,,,,,,,,,,,,,,,,,,,,2431.4416169999167,None,,,,,,,,,,,,,,,,,alert,new_sing,yellow,170,103,6,2429.2054577996023,None,2429.2054577996023,None,1,1.148041300009936,2429.2054577996023,None,2430.406252899673,None,2430.9260693998076,None,2430.9260693998076,None,n,0.48339120019227266,2430.9260693998076,None,,,color22,001,2021_Nov_10_1530,ProdSingRedo,3.2.3,60.060132186771135,
,,,,171,0,171,0,,,,,,,,,,,,,,,,,,,,,,,,2434.2092281999066,None,,,,,,,,,,,,,,,,,atmosphere,silent,red,171,61,12,2431.9681985997595,None,2431.9681985997595,None,6,1.145850300323218,2431.9681985997595,None,2433.1531367995776,None,2433.6785972998478,None,2433.6785972998478,None,r,0.49082319997251034,2433.6785972998478,None,,,color22,001,2021_Nov_10_1530,ProdSingRedo,3.2.3,60.060132186771135,
,,,,172,0,172,0,,,,,,,,,,,,,,,,,,,,,,,,2437.324230399914,None,,,,,,,,,,,,,,,,,enemy,new_aloud,blue,172,125,113,2434.732969599776,None,2434.732969599776,None,3,1.8604926001280546,2434.732969599776,None,2436.6388197997585,None,2437.1588339996524,None,2437.1588339996524,None,r,0.1305646998807788,2437.1588339996524,None,,,color22,001,2021_Nov_10_1530,ProdSingRedo,3.2.3,60.060132186771135,
,,,,173,0,173,0,,,,,,,,,,,,,,,,,,,,,,,,2440.392450899817,None,,,,,,,,,,,,,,,,,research,aloud,blue,173,49,261,2437.8526126998477,None,2437.8526126998477,None,6,1.596962499897927,2437.8526126998477,None,2439.486961599905,None,2440.014266700018,None,2440.014266700018,None,r,0.34736529970541596,2440.014266700018,None,,,color22,001,2021_Nov_10_1530,ProdSingRedo,3.2.3,60.060132186771135,
,,,,174,0,174,0,,,,,,,,,,,,,,,,,,,,,,,,2442.983744399622,None,,,,,,,,,,,,,,,,,waste,new_silent,red,174,167,350,2440.916235799901,None,2440.916235799901,None,1,1.3172645000740886,2440.916235799901,None,2442.2705387999304,None,2442.797609999776,None,2442.797609999776,None,n,0.16342679969966412,2442.797609999776,None,,,color22,001,2021_Nov_10_1530,ProdSingRedo,3.2.3,60.060132186771135,
,,,,175,0,175,0,,,,,,,,,,,,,,,,,,,,,,,,2445.0850657997653,None,,,,,,,,,,,,,,,,,election,silent,red,175,70,109,2443.4990050997585,None,2443.4990050997585,None,1,0.6064287000335753,2443.4990050997585,None,2444.1547610997222,None,2444.675155099947,None,2444.675155099947,None,n,0.3819487001746893,2444.675155099947,None,,,color22,001,2021_Nov_10_1530,ProdSingRedo,3.2.3,60.060132186771135,
,,,,176,0,176,0,,,,,,,,,,,,,,,,,,,,,,,,2446.9202807997353,None,,,,,,,,,,,,,,,,,solution,silent,red,176,60,294,2445.6318621998653,None,2445.6318621998653,None,1,0.5133615001104772,2445.6318621998653,None,2446.1785520999692,None,2446.6882356000133,None,2446.6882356000133,None,n,0.18512089969590306,2446.6882356000133,None,,,color22,001,2021_Nov_10_1530,ProdSingRedo,3.2.3,60.060132186771135,
,,,,177,0,177,0,,,,,,,,,,,,,,,,,,,,,,,,2449.058962999843,None,,,,,,,,,,,,,,,,,close,new_aloud,blue,177,132,53,2447.4361363998614,None,2447.4361363998614,None,1,0.8296718001365662,2447.4361363998614,None,2448.3001427999698,None,2448.813807999715,None,2448.813807999715,None,n,0.21156790014356375,2448.813807999715,None,,,color22,001,2021_Nov_10_1530,ProdSingRedo,3.2.3,60.060132186771135,
,,,,178,0,178,0,,,,,,,,,,,,,,,,,,,,,,,,2451.808325699996,None,,,,,,,,,,,,,,,,,voice,new_sing,yellow,178,119,348,2449.5837453999557,None,2449.5837453999557,None,1,1.5456340997479856,2449.5837453999557,None,2451.1748459995724,None,2451.69400379993,None,2451.69400379993,None,n,0.07540210010483861,2451.69400379993,None,,,color22,001,2021_Nov_10_1530,ProdSingRedo,3.2.3,60.060132186771135,
,,,,179,0,179,0,,,,,,,,,,,,,,,,,,,,,,,,2454.142045099754,None,,,,,,,,,,,,,,,,,surface,new_sing,yellow,179,97,316,2452.3381357998587,None,2452.3381357998587,None,1,0.9512298000045121,2452.3381357998587,None,2453.3406631997786,None,2453.8652506996877,None,2453.8652506996877,None,n,0.2401155000552535,2453.8652506996877,None,,,color22,001,2021_Nov_10_1530,ProdSingRedo,3.2.3,60.060132186771135,
,,,,,,,,,,,,,,,,,,,,,,,,,,,,,,,,,,,,,,,,,,,,,,,,,,,,,,,,,,,,,,,,,,,,,,,,,2454.6524760997854,None,,,,,,,
