StudyLoop.thisRepN,StudyLoop.thisTrialN,StudyLoop.thisN,StudyLoop.thisIndex,TestLoop.thisRepN,TestLoop.thisTrialN,TestLoop.thisN,TestLoop.thisIndex,textCondition.started,textCondition.stopped,keyCondition.keys,keyCondition.rt,keyCondition.started,keyCondition.stopped,Condition,stim_colors,color_sing,color_aloud,color_silent,textWelcome.started,textWelcome.stopped,keyWelcome.keys,keyWelcome.rt,keyWelcome.started,keyWelcome.stopped,textAloud.started,textAloud.stopped,textSilent.started,textSilent.stopped,textSing.started,textSing.stopped,textBlank500.started,textBlank500.stopped,study_word,study_type,study_color,study_num,study_word_num,textStudy.started,textStudy.stopped,keyStudy.keys,keyStudy.started,keyStudy.stopped,textTestInstructions.started,textTestInstructions.stopped,key_resp_3.keys,key_resp_3.rt,key_resp_3.started,key_resp_3.stopped,testWord,testType,testColor,testN,test_num,test_word_num,textConf.started,textConf.stopped,textConfScale.started,textConfScale.stopped,keyConf.keys,keyConf.rt,keyConf.started,keyConf.stopped,textTestBlank.started,textTestBlank.stopped,textRKN.started,textRKN.stopped,textRKNScale.started,textRKNScale.stopped,keyRKN.keys,keyRKN.rt,keyRKN.started,keyRKN.stopped,textEnd.started,textEnd.stopped,participant,session,date,expName,psychopyVersion,frameRate,
,,,,,,,,33.309238999994704,None,y,1.935609599982854,33.309238999994704,None,,,,,,,,,,,,,,,,,,,,,,,,,,,,,,,,,,,,,,,,,,,,,,,,,,,,,,,,,,,,,,color37,001,2022_Apr_21_1054,ProdSingRedo,3.2.3,59.98404424493943,
,,,,,,,,,,,,,,ColoredTest,"['yellow', 'red', 'blue']",yellow,red,blue,35.28753020000295,None,space,234.4215018999821,35.28753020000295,None,,,,,,,,,,,,,,,,,,,,,,,,,,,,,,,,,,,,,,,,,,,,,,,,,,,color37,001,2022_Apr_21_1054,ProdSingRedo,3.2.3,59.98404424493943,
0,0,0,0,,,,,,,,,,,,,,,,,,,,,,35.28753020000295,None,35.28753020000295,None,35.28753020000295,None,272.25355480000144,None,short,aloud,red,31,285,270.2536384999985,None,None,270.2536384999985,None,,,,,,,,,,,,,,,,,,,,,,,,,,,,,,,,,color37,001,2022_Apr_21_1054,ProdSingRedo,3.2.3,59.98404424493943,
1,0,1,0,,,,,,,,,,,,,,,,,,,,,,,,,,,,274.77273930000956,None,trash,silent,blue,75,337,272.76493180001853,None,None,272.76493180001853,None,,,,,,,,,,,,,,,,,,,,,,,,,,,,,,,,,color37,001,2022_Apr_21_1054,ProdSingRedo,3.2.3,59.98404424493943,
2,0,2,0,,,,,,,,,,,,,,,,,,,,,,,,,,,,277.29187710001133,None,blind,silent,blue,87,24,275.28993140000966,None,None,275.28993140000966,None,,,,,,,,,,,,,,,,,,,,,,,,,,,,,,,,,color37,001,2022_Apr_21_1054,ProdSingRedo,3.2.3,59.98404424493943,
3,0,3,0,,,,,,,,,,,,,,,,,,,,,,,,,,,,279.8111693999963,None,population,silent,blue,74,227,277.80991209999775,None,None,277.80991209999775,None,,,,,,,,,,,,,,,,,,,,,,,,,,,,,,,,,color37,001,2022_Apr_21_1054,ProdSingRedo,3.2.3,59.98404424493943,
4,0,4,0,,,,,,,,,,,,,,,,,,,,,,,,,,,,282.3303264999995,None,school,silent,blue,63,274,280.32056180000654,None,None,280.32056180000654,None,,,,,,,,,,,,,,,,,,,,,,,,,,,,,,,,,color37,001,2022_Apr_21_1054,ProdSingRedo,3.2.3,59.98404424493943,
5,0,5,0,,,,,,,,,,,,,,,,,,,,,,,,,,,,284.8495131999953,None,trend,sing,yellow,18,340,282.8394105999905,None,None,282.8394105999905,None,,,,,,,,,,,,,,,,,,,,,,,,,,,,,,,,,color37,001,2022_Apr_21_1054,ProdSingRedo,3.2.3,59.98404424493943,
6,0,6,0,,,,,,,,,,,,,,,,,,,,,,,,,,,,287.36860489999526,None,display,silent,blue,79,98,285.3706581000006,None,None,285.3706581000006,None,,,,,,,,,,,,,,,,,,,,,,,,,,,,,,,,,color37,001,2022_Apr_21_1054,ProdSingRedo,3.2.3,59.98404424493943,
7,0,7,0,,,,,,,,,,,,,,,,,,,,,,,,,,,,289.8878595000133,None,judge,sing,yellow,8,166,287.8946705000126,None,None,287.8946705000126,None,,,,,,,,,,,,,,,,,,,,,,,,,,,,,,,,,color37,001,2022_Apr_21_1054,ProdSingRedo,3.2.3,59.98404424493943,
8,0,8,0,,,,,,,,,,,,,,,,,,,,,,,,,,,,292.407085999992,None,region,aloud,red,35,256,290.4006626000046,None,None,290.4006626000046,None,,,,,,,,,,,,,,,,,,,,,,,,,,,,,,,,,color37,001,2022_Apr_21_1054,ProdSingRedo,3.2.3,59.98404424493943,
9,0,9,0,,,,,,,,,,,,,,,,,,,,,,,,,,,,294.9261864,None,enemy,silent,blue,62,113,292.9231659999932,None,None,292.9231659999932,None,,,,,,,,,,,,,,,,,,,,,,,,,,,,,,,,,color37,001,2022_Apr_21_1054,ProdSingRedo,3.2.3,59.98404424493943,
10,0,10,0,,,,,,,,,,,,,,,,,,,,,,,,,,,,297.4451088999922,None,provision,sing,yellow,28,243,295.44898809998995,None,None,295.44898809998995,None,,,,,,,,,,,,,,,,,,,,,,,,,,,,,,,,,color37,001,2022_Apr_21_1054,ProdSingRedo,3.2.3,59.98404424493943,
11,0,11,0,,,,,,,,,,,,,,,,,,,,,,,,,,,,299.9645843000035,None,author,sing,yellow,16,15,297.9581942000077,None,None,297.9581942000077,None,,,,,,,,,,,,,,,,,,,,,,,,,,,,,,,,,color37,001,2022_Apr_21_1054,ProdSingRedo,3.2.3,59.98404424493943,
12,0,12,0,,,,,,,,,,,,,,,,,,,,,,,,,,,,302.46716410000226,None,heavy,aloud,red,33,151,300.46484780000173,None,None,300.46484780000173,None,,,,,,,,,,,,,,,,,,,,,,,,,,,,,,,,,color37,001,2022_Apr_21_1054,ProdSingRedo,3.2.3,59.98404424493943,
13,0,13,0,,,,,,,,,,,,,,,,,,,,,,,,,,,,304.98617819999345,None,graduate,silent,blue,67,141,302.98670390000916,None,None,302.98670390000916,None,,,,,,,,,,,,,,,,,,,,,,,,,,,,,,,,,color37,001,2022_Apr_21_1054,ProdSingRedo,3.2.3,59.98404424493943,
14,0,14,0,,,,,,,,,,,,,,,,,,,,,,,,,,,,307.50549700000556,None,skill,aloud,red,47,289,305.50269449999905,None,None,305.50269449999905,None,,,,,,,,,,,,,,,,,,,,,,,,,,,,,,,,,color37,001,2022_Apr_21_1054,ProdSingRedo,3.2.3,59.98404424493943,
15,0,15,0,,,,,,,,,,,,,,,,,,,,,,,,,,,,310.00801620000857,None,material,sing,yellow,29,182,308.00566130000516,None,None,308.00566130000516,None,,,,,,,,,,,,,,,,,,,,,,,,,,,,,,,,,color37,001,2022_Apr_21_1054,ProdSingRedo,3.2.3,59.98404424493943,
16,0,16,0,,,,,,,,,,,,,,,,,,,,,,,,,,,,312.52714749998995,None,appearance,silent,blue,86,10,310.52412819999154,None,None,310.52412819999154,None,,,,,,,,,,,,,,,,,,,,,,,,,,,,,,,,,color37,001,2022_Apr_21_1054,ProdSingRedo,3.2.3,59.98404424493943,
17,0,17,0,,,,,,,,,,,,,,,,,,,,,,,,,,,,315.0463301000127,None,track,aloud,red,34,334,313.04312570000184,None,None,313.04312570000184,None,,,,,,,,,,,,,,,,,,,,,,,,,,,,,,,,,color37,001,2022_Apr_21_1054,ProdSingRedo,3.2.3,59.98404424493943,
18,0,18,0,,,,,,,,,,,,,,,,,,,,,,,,,,,,317.56556139999884,None,speech,silent,blue,68,298,315.55565580000984,None,None,315.55565580000984,None,,,,,,,,,,,,,,,,,,,,,,,,,,,,,,,,,color37,001,2022_Apr_21_1054,ProdSingRedo,3.2.3,59.98404424493943,
19,0,19,0,,,,,,,,,,,,,,,,,,,,,,,,,,,,320.084537799994,None,colonel,aloud,red,36,55,318.074809999991,None,None,318.074809999991,None,,,,,,,,,,,,,,,,,,,,,,,,,,,,,,,,,color37,001,2022_Apr_21_1054,ProdSingRedo,3.2.3,59.98404424493943,
20,0,20,0,,,,,,,,,,,,,,,,,,,,,,,,,,,,322.6038887000177,None,bucket,aloud,red,44,33,320.6003951000166,None,None,320.6003951000166,None,,,,,,,,,,,,,,,,,,,,,,,,,,,,,,,,,color37,001,2022_Apr_21_1054,ProdSingRedo,3.2.3,59.98404424493943,
21,0,21,0,,,,,,,,,,,,,,,,,,,,,,,,,,,,325.1230073000188,None,growth,silent,blue,80,144,323.1268119000015,None,None,323.1268119000015,None,,,,,,,,,,,,,,,,,,,,,,,,,,,,,,,,,color37,001,2022_Apr_21_1054,ProdSingRedo,3.2.3,59.98404424493943,
22,0,22,0,,,,,,,,,,,,,,,,,,,,,,,,,,,,327.641909900005,None,public,silent,blue,85,244,325.6348776000086,None,None,325.6348776000086,None,,,,,,,,,,,,,,,,,,,,,,,,,,,,,,,,,color37,001,2022_Apr_21_1054,ProdSingRedo,3.2.3,59.98404424493943,
23,0,23,0,,,,,,,,,,,,,,,,,,,,,,,,,,,,330.161431799992,None,collection,aloud,red,48,54,328.1551030999981,None,None,328.1551030999981,None,,,,,,,,,,,,,,,,,,,,,,,,,,,,,,,,,color37,001,2022_Apr_21_1054,ProdSingRedo,3.2.3,59.98404424493943,
24,0,24,0,,,,,,,,,,,,,,,,,,,,,,,,,,,,332.6806137000094,None,present,aloud,red,39,231,330.669876400003,None,None,330.669876400003,None,,,,,,,,,,,,,,,,,,,,,,,,,,,,,,,,,color37,001,2022_Apr_21_1054,ProdSingRedo,3.2.3,59.98404424493943,
25,0,25,0,,,,,,,,,,,,,,,,,,,,,,,,,,,,335.199861400004,None,thing,silent,blue,84,328,333.19154400000116,None,None,333.19154400000116,None,,,,,,,,,,,,,,,,,,,,,,,,,,,,,,,,,color37,001,2022_Apr_21_1054,ProdSingRedo,3.2.3,59.98404424493943,
26,0,26,0,,,,,,,,,,,,,,,,,,,,,,,,,,,,337.7190079000138,None,council,sing,yellow,22,71,335.7119168000063,None,None,335.7119168000063,None,,,,,,,,,,,,,,,,,,,,,,,,,,,,,,,,,color37,001,2022_Apr_21_1054,ProdSingRedo,3.2.3,59.98404424493943,
27,0,27,0,,,,,,,,,,,,,,,,,,,,,,,,,,,,340.2380486000038,None,service,aloud,red,30,280,338.2326808999933,None,None,338.2326808999933,None,,,,,,,,,,,,,,,,,,,,,,,,,,,,,,,,,color37,001,2022_Apr_21_1054,ProdSingRedo,3.2.3,59.98404424493943,
28,0,28,0,,,,,,,,,,,,,,,,,,,,,,,,,,,,342.7573285000108,None,youth,silent,blue,69,359,340.7556951000006,None,None,340.7556951000006,None,,,,,,,,,,,,,,,,,,,,,,,,,,,,,,,,,color37,001,2022_Apr_21_1054,ProdSingRedo,3.2.3,59.98404424493943,
29,0,29,0,,,,,,,,,,,,,,,,,,,,,,,,,,,,345.2765277000144,None,style,aloud,red,32,311,343.27001470001414,None,None,343.27001470001414,None,,,,,,,,,,,,,,,,,,,,,,,,,,,,,,,,,color37,001,2022_Apr_21_1054,ProdSingRedo,3.2.3,59.98404424493943,
30,0,30,0,,,,,,,,,,,,,,,,,,,,,,,,,,,,347.7956935999973,None,broke,silent,blue,76,32,345.79100440000184,None,None,345.79100440000184,None,,,,,,,,,,,,,,,,,,,,,,,,,,,,,,,,,color37,001,2022_Apr_21_1054,ProdSingRedo,3.2.3,59.98404424493943,
31,0,31,0,,,,,,,,,,,,,,,,,,,,,,,,,,,,350.3149431000056,None,instrument,silent,blue,70,163,348.3107000000018,None,None,348.3107000000018,None,,,,,,,,,,,,,,,,,,,,,,,,,,,,,,,,,color37,001,2022_Apr_21_1054,ProdSingRedo,3.2.3,59.98404424493943,
32,0,32,0,,,,,,,,,,,,,,,,,,,,,,,,,,,,352.8340041000047,None,court,sing,yellow,25,75,350.8277190999943,None,None,350.8277190999943,None,,,,,,,,,,,,,,,,,,,,,,,,,,,,,,,,,color37,001,2022_Apr_21_1054,ProdSingRedo,3.2.3,59.98404424493943,
33,0,33,0,,,,,,,,,,,,,,,,,,,,,,,,,,,,355.35320189999766,None,meeting,sing,yellow,20,187,353.3447895999998,None,None,353.3447895999998,None,,,,,,,,,,,,,,,,,,,,,,,,,,,,,,,,,color37,001,2022_Apr_21_1054,ProdSingRedo,3.2.3,59.98404424493943,
34,0,34,0,,,,,,,,,,,,,,,,,,,,,,,,,,,,357.87238030001754,None,power,silent,blue,81,230,355.8661003000161,None,None,355.8661003000161,None,,,,,,,,,,,,,,,,,,,,,,,,,,,,,,,,,color37,001,2022_Apr_21_1054,ProdSingRedo,3.2.3,59.98404424493943,
35,0,35,0,,,,,,,,,,,,,,,,,,,,,,,,,,,,360.3916220999963,None,place,silent,blue,61,222,358.3854174000153,None,None,358.3854174000153,None,,,,,,,,,,,,,,,,,,,,,,,,,,,,,,,,,color37,001,2022_Apr_21_1054,ProdSingRedo,3.2.3,59.98404424493943,
36,0,36,0,,,,,,,,,,,,,,,,,,,,,,,,,,,,362.9108034000092,None,relation,aloud,red,59,257,360.9057174999907,None,None,360.9057174999907,None,,,,,,,,,,,,,,,,,,,,,,,,,,,,,,,,,color37,001,2022_Apr_21_1054,ProdSingRedo,3.2.3,59.98404424493943,
37,0,37,0,,,,,,,,,,,,,,,,,,,,,,,,,,,,365.4298766000138,None,husband,silent,blue,82,156,363.4248679000011,None,None,363.4248679000011,None,,,,,,,,,,,,,,,,,,,,,,,,,,,,,,,,,color37,001,2022_Apr_21_1054,ProdSingRedo,3.2.3,59.98404424493943,
38,0,38,0,,,,,,,,,,,,,,,,,,,,,,,,,,,,367.94916899999953,None,working,sing,yellow,24,357,365.94568490001257,None,None,365.94568490001257,None,,,,,,,,,,,,,,,,,,,,,,,,,,,,,,,,,color37,001,2022_Apr_21_1054,ProdSingRedo,3.2.3,59.98404424493943,
39,0,39,0,,,,,,,,,,,,,,,,,,,,,,,,,,,,370.4682862999907,None,afternoon,sing,yellow,6,3,368.4619659000018,None,None,368.4619659000018,None,,,,,,,,,,,,,,,,,,,,,,,,,,,,,,,,,color37,001,2022_Apr_21_1054,ProdSingRedo,3.2.3,59.98404424493943,
40,0,40,0,,,,,,,,,,,,,,,,,,,,,,,,,,,,372.9708490000048,None,engineer,aloud,red,51,114,370.9687074999965,None,None,370.9687074999965,None,,,,,,,,,,,,,,,,,,,,,,,,,,,,,,,,,color37,001,2022_Apr_21_1054,ProdSingRedo,3.2.3,59.98404424493943,
41,0,41,0,,,,,,,,,,,,,,,,,,,,,,,,,,,,375.4900315999985,None,executive,silent,blue,77,122,373.4927091000136,None,None,373.4927091000136,None,,,,,,,,,,,,,,,,,,,,,,,,,,,,,,,,,color37,001,2022_Apr_21_1054,ProdSingRedo,3.2.3,59.98404424493943,
42,0,42,0,,,,,,,,,,,,,,,,,,,,,,,,,,,,378.00915800000075,None,quick,sing,yellow,26,248,376.011147000012,None,None,376.011147000012,None,,,,,,,,,,,,,,,,,,,,,,,,,,,,,,,,,color37,001,2022_Apr_21_1054,ProdSingRedo,3.2.3,59.98404424493943,
43,0,43,0,,,,,,,,,,,,,,,,,,,,,,,,,,,,380.5284273000143,None,business,sing,yellow,13,38,378.5214489999926,None,None,378.5214489999926,None,,,,,,,,,,,,,,,,,,,,,,,,,,,,,,,,,color37,001,2022_Apr_21_1054,ProdSingRedo,3.2.3,59.98404424493943,
44,0,44,0,,,,,,,,,,,,,,,,,,,,,,,,,,,,383.04724539999734,None,clean,aloud,red,57,51,381.0414562000078,None,None,381.0414562000078,None,,,,,,,,,,,,,,,,,,,,,,,,,,,,,,,,,color37,001,2022_Apr_21_1054,ProdSingRedo,3.2.3,59.98404424493943,
45,0,45,0,,,,,,,,,,,,,,,,,,,,,,,,,,,,385.59292580001056,None,payment,silent,blue,73,215,383.5508983999898,None,None,383.5508983999898,None,,,,,,,,,,,,,,,,,,,,,,,,,,,,,,,,,color37,001,2022_Apr_21_1054,ProdSingRedo,3.2.3,59.98404424493943,
46,0,46,0,,,,,,,,,,,,,,,,,,,,,,,,,,,,388.0560090999934,None,number,sing,yellow,14,203,386.05512770000496,None,None,386.05512770000496,None,,,,,,,,,,,,,,,,,,,,,,,,,,,,,,,,,color37,001,2022_Apr_21_1054,ProdSingRedo,3.2.3,59.98404424493943,
47,0,47,0,,,,,,,,,,,,,,,,,,,,,,,,,,,,390.5751569000131,None,object,silent,blue,60,204,388.57231360001606,None,None,388.57231360001606,None,,,,,,,,,,,,,,,,,,,,,,,,,,,,,,,,,color37,001,2022_Apr_21_1054,ProdSingRedo,3.2.3,59.98404424493943,
48,0,48,0,,,,,,,,,,,,,,,,,,,,,,,,,,,,393.09088780000457,None,recall,aloud,red,45,255,391.08163400000194,None,None,391.08163400000194,None,,,,,,,,,,,,,,,,,,,,,,,,,,,,,,,,,color37,001,2022_Apr_21_1054,ProdSingRedo,3.2.3,59.98404424493943,
49,0,49,0,,,,,,,,,,,,,,,,,,,,,,,,,,,,395.6100373000081,None,nature,aloud,red,54,200,393.6047497999971,None,None,393.6047497999971,None,,,,,,,,,,,,,,,,,,,,,,,,,,,,,,,,,color37,001,2022_Apr_21_1054,ProdSingRedo,3.2.3,59.98404424493943,
50,0,50,0,,,,,,,,,,,,,,,,,,,,,,,,,,,,398.1293269000016,None,straight,sing,yellow,0,307,396.1247788000037,None,None,396.1247788000037,None,,,,,,,,,,,,,,,,,,,,,,,,,,,,,,,,,color37,001,2022_Apr_21_1054,ProdSingRedo,3.2.3,59.98404424493943,
51,0,51,0,,,,,,,,,,,,,,,,,,,,,,,,,,,,400.648497999995,None,title,aloud,red,52,331,398.637910999998,None,None,398.637910999998,None,,,,,,,,,,,,,,,,,,,,,,,,,,,,,,,,,color37,001,2022_Apr_21_1054,ProdSingRedo,3.2.3,59.98404424493943,
52,0,52,0,,,,,,,,,,,,,,,,,,,,,,,,,,,,403.1675714000012,None,conference,aloud,red,53,66,401.16220290001365,None,None,401.16220290001365,None,,,,,,,,,,,,,,,,,,,,,,,,,,,,,,,,,color37,001,2022_Apr_21_1054,ProdSingRedo,3.2.3,59.98404424493943,
53,0,53,0,,,,,,,,,,,,,,,,,,,,,,,,,,,,405.6868312000006,None,balance,sing,yellow,27,17,403.6805860000022,None,None,403.6805860000022,None,,,,,,,,,,,,,,,,,,,,,,,,,,,,,,,,,color37,001,2022_Apr_21_1054,ProdSingRedo,3.2.3,59.98404424493943,
54,0,54,0,,,,,,,,,,,,,,,,,,,,,,,,,,,,408.2060391000123,None,contract,silent,blue,71,68,406.20222710000235,None,None,406.20222710000235,None,,,,,,,,,,,,,,,,,,,,,,,,,,,,,,,,,color37,001,2022_Apr_21_1054,ProdSingRedo,3.2.3,59.98404424493943,
55,0,55,0,,,,,,,,,,,,,,,,,,,,,,,,,,,,410.7252703999984,None,private,sing,yellow,15,237,408.72054310000385,None,None,408.72054310000385,None,,,,,,,,,,,,,,,,,,,,,,,,,,,,,,,,,color37,001,2022_Apr_21_1054,ProdSingRedo,3.2.3,59.98404424493943,
56,0,56,0,,,,,,,,,,,,,,,,,,,,,,,,,,,,413.24440100000356,None,beginning,silent,blue,66,19,411.23869269998977,None,None,411.23869269998977,None,,,,,,,,,,,,,,,,,,,,,,,,,,,,,,,,,color37,001,2022_Apr_21_1054,ProdSingRedo,3.2.3,59.98404424493943,
57,0,57,0,,,,,,,,,,,,,,,,,,,,,,,,,,,,415.76361660001567,None,audience,aloud,red,37,14,413.75523670000257,None,None,413.75523670000257,None,,,,,,,,,,,,,,,,,,,,,,,,,,,,,,,,,color37,001,2022_Apr_21_1054,ProdSingRedo,3.2.3,59.98404424493943,
58,0,58,0,,,,,,,,,,,,,,,,,,,,,,,,,,,,418.2827830000024,None,carry,silent,blue,89,43,416.27635709999595,None,None,416.27635709999595,None,,,,,,,,,,,,,,,,,,,,,,,,,,,,,,,,,color37,001,2022_Apr_21_1054,ProdSingRedo,3.2.3,59.98404424493943,
59,0,59,0,,,,,,,,,,,,,,,,,,,,,,,,,,,,420.80195260001346,None,narrow,silent,blue,78,197,418.79463429999305,None,None,418.79463429999305,None,,,,,,,,,,,,,,,,,,,,,,,,,,,,,,,,,color37,001,2022_Apr_21_1054,ProdSingRedo,3.2.3,59.98404424493943,
60,0,60,0,,,,,,,,,,,,,,,,,,,,,,,,,,,,423.3211985999951,None,native,silent,blue,65,199,421.31626739999047,None,None,421.31626739999047,None,,,,,,,,,,,,,,,,,,,,,,,,,,,,,,,,,color37,001,2022_Apr_21_1054,ProdSingRedo,3.2.3,59.98404424493943,
61,0,61,0,,,,,,,,,,,,,,,,,,,,,,,,,,,,425.8402148000023,None,theme,aloud,red,46,326,423.82777299999725,None,None,423.82777299999725,None,,,,,,,,,,,,,,,,,,,,,,,,,,,,,,,,,color37,001,2022_Apr_21_1054,ProdSingRedo,3.2.3,59.98404424493943,
62,0,62,0,,,,,,,,,,,,,,,,,,,,,,,,,,,,428.3595985000138,None,surprise,sing,yellow,21,317,426.35231660000863,None,None,426.35231660000863,None,,,,,,,,,,,,,,,,,,,,,,,,,,,,,,,,,color37,001,2022_Apr_21_1054,ProdSingRedo,3.2.3,59.98404424493943,
63,0,63,0,,,,,,,,,,,,,,,,,,,,,,,,,,,,430.87868359999266,None,capital,sing,yellow,19,40,428.87426979999873,None,None,428.87426979999873,None,,,,,,,,,,,,,,,,,,,,,,,,,,,,,,,,,color37,001,2022_Apr_21_1054,ProdSingRedo,3.2.3,59.98404424493943,
64,0,64,0,,,,,,,,,,,,,,,,,,,,,,,,,,,,433.3978311000101,None,individual,sing,yellow,4,160,431.39386929999455,None,None,431.39386929999455,None,,,,,,,,,,,,,,,,,,,,,,,,,,,,,,,,,color37,001,2022_Apr_21_1054,ProdSingRedo,3.2.3,59.98404424493943,
65,0,65,0,,,,,,,,,,,,,,,,,,,,,,,,,,,,435.91699349999544,None,route,sing,yellow,7,267,433.911070800008,None,None,433.911070800008,None,,,,,,,,,,,,,,,,,,,,,,,,,,,,,,,,,color37,001,2022_Apr_21_1054,ProdSingRedo,3.2.3,59.98404424493943,
66,0,66,0,,,,,,,,,,,,,,,,,,,,,,,,,,,,438.43623290001415,None,empty,sing,yellow,3,112,436.4261409000028,None,None,436.4261409000028,None,,,,,,,,,,,,,,,,,,,,,,,,,,,,,,,,,color37,001,2022_Apr_21_1054,ProdSingRedo,3.2.3,59.98404424493943,
67,0,67,0,,,,,,,,,,,,,,,,,,,,,,,,,,,,440.95541230001254,None,split,sing,yellow,10,299,438.94442800001707,None,None,438.94442800001707,None,,,,,,,,,,,,,,,,,,,,,,,,,,,,,,,,,color37,001,2022_Apr_21_1054,ProdSingRedo,3.2.3,59.98404424493943,
68,0,68,0,,,,,,,,,,,,,,,,,,,,,,,,,,,,443.4746378000127,None,religion,aloud,red,55,258,441.4720592999947,None,None,441.4720592999947,None,,,,,,,,,,,,,,,,,,,,,,,,,,,,,,,,,color37,001,2022_Apr_21_1054,ProdSingRedo,3.2.3,59.98404424493943,
69,0,69,0,,,,,,,,,,,,,,,,,,,,,,,,,,,,445.9938564999902,None,finish,aloud,red,42,130,443.9843942000007,None,None,443.9843942000007,None,,,,,,,,,,,,,,,,,,,,,,,,,,,,,,,,,color37,001,2022_Apr_21_1054,ProdSingRedo,3.2.3,59.98404424493943,
70,0,70,0,,,,,,,,,,,,,,,,,,,,,,,,,,,,448.5129167000123,None,curve,aloud,red,50,82,446.5094049999898,None,None,446.5094049999898,None,,,,,,,,,,,,,,,,,,,,,,,,,,,,,,,,,color37,001,2022_Apr_21_1054,ProdSingRedo,3.2.3,59.98404424493943,
71,0,71,0,,,,,,,,,,,,,,,,,,,,,,,,,,,,451.03211840000586,None,measure,aloud,red,49,184,449.0287849000015,None,None,449.0287849000015,None,,,,,,,,,,,,,,,,,,,,,,,,,,,,,,,,,color37,001,2022_Apr_21_1054,ProdSingRedo,3.2.3,59.98404424493943,
72,0,72,0,,,,,,,,,,,,,,,,,,,,,,,,,,,,453.5513312999974,None,touch,sing,yellow,17,332,451.54398950000177,None,None,451.54398950000177,None,,,,,,,,,,,,,,,,,,,,,,,,,,,,,,,,,color37,001,2022_Apr_21_1054,ProdSingRedo,3.2.3,59.98404424493943,
73,0,73,0,,,,,,,,,,,,,,,,,,,,,,,,,,,,456.07051180000417,None,society,aloud,red,43,293,454.063238600007,None,None,454.063238600007,None,,,,,,,,,,,,,,,,,,,,,,,,,,,,,,,,,color37,001,2022_Apr_21_1054,ProdSingRedo,3.2.3,59.98404424493943,
74,0,74,0,,,,,,,,,,,,,,,,,,,,,,,,,,,,458.58965270000044,None,character,sing,yellow,11,46,456.5862645000161,None,None,456.5862645000161,None,,,,,,,,,,,,,,,,,,,,,,,,,,,,,,,,,color37,001,2022_Apr_21_1054,ProdSingRedo,3.2.3,59.98404424493943,
75,0,75,0,,,,,,,,,,,,,,,,,,,,,,,,,,,,461.1087998000148,None,welcome,sing,yellow,1,354,459.10143740000785,None,None,459.10143740000785,None,,,,,,,,,,,,,,,,,,,,,,,,,,,,,,,,,color37,001,2022_Apr_21_1054,ProdSingRedo,3.2.3,59.98404424493943,
76,0,76,0,,,,,,,,,,,,,,,,,,,,,,,,,,,,463.62802639999427,None,design,sing,yellow,5,91,461.62603370001307,None,None,461.62603370001307,None,,,,,,,,,,,,,,,,,,,,,,,,,,,,,,,,,color37,001,2022_Apr_21_1054,ProdSingRedo,3.2.3,59.98404424493943,
77,0,77,0,,,,,,,,,,,,,,,,,,,,,,,,,,,,466.14718490000814,None,under,aloud,red,41,343,464.13905359999626,None,None,464.13905359999626,None,,,,,,,,,,,,,,,,,,,,,,,,,,,,,,,,,color37,001,2022_Apr_21_1054,ProdSingRedo,3.2.3,59.98404424493943,
78,0,78,0,,,,,,,,,,,,,,,,,,,,,,,,,,,,468.6664960999915,None,mayor,aloud,red,38,183,466.661797800014,None,None,466.661797800014,None,,,,,,,,,,,,,,,,,,,,,,,,,,,,,,,,,color37,001,2022_Apr_21_1054,ProdSingRedo,3.2.3,59.98404424493943,
79,0,79,0,,,,,,,,,,,,,,,,,,,,,,,,,,,,471.1855843999947,None,drove,silent,blue,83,106,469.1774878000142,None,None,469.1774878000142,None,,,,,,,,,,,,,,,,,,,,,,,,,,,,,,,,,color37,001,2022_Apr_21_1054,ProdSingRedo,3.2.3,59.98404424493943,
80,0,80,0,,,,,,,,,,,,,,,,,,,,,,,,,,,,473.7047703000135,None,running,sing,yellow,9,268,471.69854020001367,None,None,471.69854020001367,None,,,,,,,,,,,,,,,,,,,,,,,,,,,,,,,,,color37,001,2022_Apr_21_1054,ProdSingRedo,3.2.3,59.98404424493943,
81,0,81,0,,,,,,,,,,,,,,,,,,,,,,,,,,,,476.2239877000102,None,industry,sing,yellow,12,161,474.22001449999516,None,None,474.22001449999516,None,,,,,,,,,,,,,,,,,,,,,,,,,,,,,,,,,color37,001,2022_Apr_21_1054,ProdSingRedo,3.2.3,59.98404424493943,
82,0,82,0,,,,,,,,,,,,,,,,,,,,,,,,,,,,478.743206300016,None,department,silent,blue,88,90,476.7389375999919,None,None,476.7389375999919,None,,,,,,,,,,,,,,,,,,,,,,,,,,,,,,,,,color37,001,2022_Apr_21_1054,ProdSingRedo,3.2.3,59.98404424493943,
83,0,83,0,,,,,,,,,,,,,,,,,,,,,,,,,,,,481.2624774000142,None,pressure,silent,blue,72,232,479.257030400011,None,None,479.257030400011,None,,,,,,,,,,,,,,,,,,,,,,,,,,,,,,,,,color37,001,2022_Apr_21_1054,ProdSingRedo,3.2.3,59.98404424493943,
84,0,84,0,,,,,,,,,,,,,,,,,,,,,,,,,,,,483.78142610000214,None,mechanical,aloud,red,58,185,481.77862970001297,None,None,481.77862970001297,None,,,,,,,,,,,,,,,,,,,,,,,,,,,,,,,,,color37,001,2022_Apr_21_1054,ProdSingRedo,3.2.3,59.98404424493943,
85,0,85,0,,,,,,,,,,,,,,,,,,,,,,,,,,,,486.30069470001035,None,level,aloud,red,40,170,484.2966296999948,None,None,484.2966296999948,None,,,,,,,,,,,,,,,,,,,,,,,,,,,,,,,,,color37,001,2022_Apr_21_1054,ProdSingRedo,3.2.3,59.98404424493943,
86,0,86,0,,,,,,,,,,,,,,,,,,,,,,,,,,,,488.8198871999921,None,evidence,aloud,red,56,120,486.8145801000064,None,None,486.8145801000064,None,,,,,,,,,,,,,,,,,,,,,,,,,,,,,,,,,color37,001,2022_Apr_21_1054,ProdSingRedo,3.2.3,59.98404424493943,
87,0,87,0,,,,,,,,,,,,,,,,,,,,,,,,,,,,491.3390808000113,None,angle,silent,blue,64,7,489.33408490000875,None,None,489.33408490000875,None,,,,,,,,,,,,,,,,,,,,,,,,,,,,,,,,,color37,001,2022_Apr_21_1054,ProdSingRedo,3.2.3,59.98404424493943,
88,0,88,0,,,,,,,,,,,,,,,,,,,,,,,,,,,,493.85821530001704,None,profession,sing,yellow,2,241,491.8559205000056,None,None,491.8559205000056,None,,,,,,,,,,,,,,,,,,,,,,,,,,,,,,,,,color37,001,2022_Apr_21_1054,ProdSingRedo,3.2.3,59.98404424493943,
89,0,89,0,,,,,,,,,,,,,,,,,,,,,,,,,,,,496.3774046000035,None,partner,sing,yellow,23,211,494.36918110001716,None,None,494.36918110001716,None,,,,,,,,,,,,,,,,,,,,,,,,,,,,,,,,,color37,001,2022_Apr_21_1054,ProdSingRedo,3.2.3,59.98404424493943,
,,,,,,,,,,,,,,,,,,,,,,,,,,,,,,,,,,,,,,,,,,,496.87819459999446,None,k,159.03872440001578,496.87819459999446,None,,,,,,,,,,,,,,,,,,,,,,,,,,,color37,001,2022_Apr_21_1054,ProdSingRedo,3.2.3,59.98404424493943,
,,,,0,0,0,0,,,,,,,,,,,,,,,,,,,,,,,,676.7191416000132,None,,,,,,,,,,,,,,,,,weather,new_sing,yellow,0,115,352,656.463373800012,None,656.463373800012,None,3,16.989277099986793,656.463373800012,None,673.4945306000009,None,674.0190786000167,None,674.0190786000167,None,n,2.6737498000147752,674.0190786000167,None,,,color37,001,2022_Apr_21_1054,ProdSingRedo,3.2.3,59.98404424493943,
,,,,1,0,1,0,,,,,,,,,,,,,,,,,,,,,,,,690.6144429999986,None,,,,,,,,,,,,,,,,,short,aloud,red,1,31,285,677.239350799995,None,677.239350799995,None,4,8.445434000022942,677.239350799995,None,685.7200127000106,None,686.2393676000065,None,686.2393676000065,None,r,4.349491000000853,686.2393676000065,None,,,color37,001,2022_Apr_21_1054,ProdSingRedo,3.2.3,59.98404424493943,
,,,,2,0,2,0,,,,,,,,,,,,,,,,,,,,,,,,702.4223226000031,None,,,,,,,,,,,,,,,,,working,sing,yellow,2,24,357,691.1382698999951,None,691.1382698999951,None,5,9.386593899980653,691.1382698999951,None,700.5789749000105,None,701.0941633000039,None,701.0941633000039,None,r,1.2945985999831464,701.0941633000039,None,,,color37,001,2022_Apr_21_1054,ProdSingRedo,3.2.3,59.98404424493943,
,,,,3,0,3,0,,,,,,,,,,,,,,,,,,,,,,,,712.400175799994,None,,,,,,,,,,,,,,,,,religion,aloud,red,3,55,258,702.9505629999912,None,702.9505629999912,None,6,8.446384800015949,702.9505629999912,None,711.4459521000099,None,711.9704604000144,None,711.9704604000144,None,r,0.39432780002243817,711.9704604000144,None,,,color37,001,2022_Apr_21_1054,ProdSingRedo,3.2.3,59.98404424493943,
,,,,4,0,4,0,,,,,,,,,,,,,,,,,,,,,,,,738.3933490999916,None,,,,,,,,,,,,,,,,,clean,aloud,red,4,57,51,712.9277669000148,None,712.9277669000148,None,4,23.53299489998608,712.9277669000148,None,736.5092681999959,None,737.0270418,None,737.0270418,None,f,1.337976399983745,737.0270418,None,,,color37,001,2022_Apr_21_1054,ProdSingRedo,3.2.3,59.98404424493943,
,,,,5,0,5,0,,,,,,,,,,,,,,,,,,,,,,,,743.1992878000019,None,,,,,,,,,,,,,,,,,question,new_aloud,red,5,127,247,738.9234332999913,None,738.9234332999913,None,5,3.225799299980281,738.9234332999913,None,742.2033580999996,None,742.7194776000106,None,742.7194776000106,None,f,0.44539559999248013,742.7194776000106,None,,,color37,001,2022_Apr_21_1054,ProdSingRedo,3.2.3,59.98404424493943,
,,,,6,0,6,0,,,,,,,,,,,,,,,,,,,,,,,,749.2887586000143,None,,,,,,,,,,,,,,,,,track,aloud,red,6,34,334,743.7250868999981,None,743.7250868999981,None,2,2.767711099993903,743.7250868999981,None,746.5370789000008,None,747.0666118999943,None,747.0666118999943,None,n,2.1941952999914065,747.0666118999943,None,,,color37,001,2022_Apr_21_1054,ProdSingRedo,3.2.3,59.98404424493943,
,,,,7,0,7,0,,,,,,,,,,,,,,,,,,,,,,,,754.5085048000037,None,,,,,,,,,,,,,,,,,trash,silent,blue,7,75,337,749.813472800015,None,749.813472800015,None,5,3.6718115999829024,749.813472800015,None,753.526532799995,None,754.0430276000116,None,754.0430276000116,None,r,0.44168489999719895,754.0430276000116,None,,,color37,001,2022_Apr_21_1054,ProdSingRedo,3.2.3,59.98404424493943,
,,,,8,0,8,0,,,,,,,,,,,,,,,,,,,,,,,,760.8815644000133,None,,,,,,,,,,,,,,,,,close,new_silent,blue,8,176,53,755.0300428000046,None,755.0300428000046,None,3,3.382798999984516,755.0300428000046,None,758.459777400014,None,758.972735599993,None,758.972735599993,None,f,1.8720805999764707,758.972735599993,None,,,color37,001,2022_Apr_21_1054,ProdSingRedo,3.2.3,59.98404424493943,
,,,,9,0,9,0,,,,,,,,,,,,,,,,,,,,,,,,765.9045860000188,None,,,,,,,,,,,,,,,,,service,aloud,red,9,30,280,761.4106421000033,None,761.4106421000033,None,5,3.6024353000102565,761.4106421000033,None,765.0512654999911,None,765.5628479000006,None,765.5628479000006,None,f,0.30606819997774437,765.5628479000006,None,,,color37,001,2022_Apr_21_1054,ProdSingRedo,3.2.3,59.98404424493943,
,,,,10,0,10,0,,,,,,,,,,,,,,,,,,,,,,,,773.5118240000156,None,,,,,,,,,,,,,,,,,capital,sing,yellow,10,19,40,766.4324191999913,None,766.4324191999913,None,6,5.060426000010921,766.4324191999913,None,771.5409063000116,None,772.0673941000132,None,772.0673941000132,None,r,1.4172584999760147,772.0673941000132,None,,,color37,001,2022_Apr_21_1054,ProdSingRedo,3.2.3,59.98404424493943,
,,,,11,0,11,0,,,,,,,,,,,,,,,,,,,,,,,,780.3148202000011,None,,,,,,,,,,,,,,,,,estate,new_sing,yellow,11,111,119,774.0416629000101,None,774.0416629000101,None,3,2.5630481999833137,774.0416629000101,None,776.6473638000025,None,777.1579851999995,None,777.1579851999995,None,n,3.1267601000145078,777.1579851999995,None,,,color37,001,2022_Apr_21_1054,ProdSingRedo,3.2.3,59.98404424493943,
,,,,12,0,12,0,,,,,,,,,,,,,,,,,,,,,,,,785.9928188000049,None,,,,,,,,,,,,,,,,,colonel,aloud,red,12,36,55,780.8376476000121,None,780.8376476000121,None,3,4.007258400000865,780.8376476000121,None,784.8892121000099,None,785.4069353000086,None,785.4069353000086,None,n,0.5581309999979567,785.4069353000086,None,,,color37,001,2022_Apr_21_1054,ProdSingRedo,3.2.3,59.98404424493943,
,,,,13,0,13,0,,,,,,,,,,,,,,,,,,,,,,,,791.6638003000116,None,,,,,,,,,,,,,,,,,quantity,new_silent,blue,13,160,245,786.5235731000139,None,786.5235731000139,None,3,4.441195599996718,786.5235731000139,None,791.0089367000037,None,791.5346874000097,None,791.5346874000097,None,f,0.10230119997868314,791.5346874000097,None,,,color37,001,2022_Apr_21_1054,ProdSingRedo,3.2.3,59.98404424493943,
,,,,14,0,14,0,,,,,,,,,,,,,,,,,,,,,,,,794.8833768000186,None,,,,,,,,,,,,,,,,,individual,sing,yellow,14,4,160,792.1960402000113,None,792.1960402000113,None,6,1.6567841000214685,792.1960402000113,None,793.8977459000016,None,794.423200499994,None,794.423200499994,None,r,0.42150039999978617,794.423200499994,None,,,color37,001,2022_Apr_21_1054,ProdSingRedo,3.2.3,59.98404424493943,
,,,,15,0,15,0,,,,,,,,,,,,,,,,,,,,,,,,804.1100787000032,None,,,,,,,,,,,,,,,,,mankind,new_silent,blue,15,159,178,795.4142757999944,None,795.4142757999944,None,3,6.782534300000407,795.4142757999944,None,802.2369608000154,None,802.7638894999982,None,802.7638894999982,None,n,1.3129061000072397,802.7638894999982,None,,,color37,001,2022_Apr_21_1054,ProdSingRedo,3.2.3,59.98404424493943,
,,,,16,0,16,0,,,,,,,,,,,,,,,,,,,,,,,,807.0706069000007,None,,,,,,,,,,,,,,,,,present,aloud,red,16,39,231,804.6321017000009,None,804.6321017000009,None,6,1.6366038999985904,804.6321017000009,None,806.3053329999966,None,806.8274059999967,None,806.8274059999967,None,r,0.2168861999816727,806.8274059999967,None,,,color37,001,2022_Apr_21_1054,ProdSingRedo,3.2.3,59.98404424493943,
,,,,17,0,17,0,,,,,,,,,,,,,,,,,,,,,,,,810.674471300008,None,,,,,,,,,,,,,,,,,evidence,aloud,red,17,56,120,807.5744833000062,None,807.5744833000062,None,5,2.4860129000153393,807.5744833000062,None,810.1043121000112,None,810.6191530000069,None,810.6191530000069,None,r,0.025395800010301173,810.6191530000069,None,,,color37,001,2022_Apr_21_1054,ProdSingRedo,3.2.3,59.98404424493943,
,,,,18,0,18,0,,,,,,,,,,,,,,,,,,,,,,,,818.7566466999997,None,,,,,,,,,,,,,,,,,sight,new_silent,blue,18,152,286,811.1899524000182,None,811.1899524000182,None,2,2.4308851000096183,811.1899524000182,None,813.6637293999956,None,814.1884640000062,None,814.1884640000062,None,f,4.54439039999852,814.1884640000062,None,,,color37,001,2022_Apr_21_1054,ProdSingRedo,3.2.3,59.98404424493943,
,,,,19,0,19,0,,,,,,,,,,,,,,,,,,,,,,,,829.2262392000121,None,,,,,,,,,,,,,,,,,leader,new_aloud,red,19,130,168,819.2852446000034,None,819.2852446000034,None,1,7.95176320002065,819.2852446000034,None,827.2840629999992,None,827.8018891999964,None,827.8018891999964,None,n,1.402605000010226,827.8018891999964,None,,,color37,001,2022_Apr_21_1054,ProdSingRedo,3.2.3,59.98404424493943,
,,,,20,0,20,0,,,,,,,,,,,,,,,,,,,,,,,,834.6398049000127,None,,,,,,,,,,,,,,,,,population,silent,blue,20,74,227,829.7482374999963,None,829.7482374999963,None,4,3.3604819999891333,829.7482374999963,None,833.1576809000107,None,833.6794480000099,None,833.6794480000099,None,f,0.9253173999895807,833.6794480000099,None,,,color37,001,2022_Apr_21_1054,ProdSingRedo,3.2.3,59.98404424493943,
,,,,21,0,21,0,,,,,,,,,,,,,,,,,,,,,,,,837.8425759999955,None,,,,,,,,,,,,,,,,,partner,sing,yellow,21,23,211,835.1664374000102,None,835.1664374000102,None,6,1.9818306000088342,835.1664374000102,None,837.1673947999952,None,837.6688891999947,None,837.6688891999947,None,r,0.14380650001112372,837.6688891999947,None,,,color37,001,2022_Apr_21_1054,ProdSingRedo,3.2.3,59.98404424493943,
,,,,22,0,22,0,,,,,,,,,,,,,,,,,,,,,,,,842.3287963999901,None,,,,,,,,,,,,,,,,,revolution,new_aloud,red,22,125,264,838.371716099995,None,838.371716099995,None,2,2.5771333999873605,838.371716099995,None,840.9929645000084,None,841.5202373999928,None,841.5202373999928,None,f,0.772419400018407,841.5202373999928,None,,,color37,001,2022_Apr_21_1054,ProdSingRedo,3.2.3,59.98404424493943,
,,,,23,0,23,0,,,,,,,,,,,,,,,,,,,,,,,,845.6334179000114,None,,,,,,,,,,,,,,,,,subject,new_sing,yellow,23,108,312,842.8588802000158,None,842.8588802000158,None,5,2.081632499990519,842.8588802000158,None,844.9776078000141,None,845.4851889999991,None,845.4851889999991,None,r,0.11162800001329742,845.4851889999991,None,,,color37,001,2022_Apr_21_1054,ProdSingRedo,3.2.3,59.98404424493943,
,,,,24,0,24,0,,,,,,,,,,,,,,,,,,,,,,,,850.5876841999998,None,,,,,,,,,,,,,,,,,still,new_aloud,red,24,146,304,846.1567615999957,None,846.1567615999957,None,2,2.2160660999943502,846.1567615999957,None,848.4153745000076,None,848.9292707999994,None,848.9292707999994,None,n,1.6355805000057444,848.9292707999994,None,,,color37,001,2022_Apr_21_1054,ProdSingRedo,3.2.3,59.98404424493943,
,,,,25,0,25,0,,,,,,,,,,,,,,,,,,,,,,,,856.1788039999956,None,,,,,,,,,,,,,,,,,power,silent,blue,25,81,230,851.1118178000033,None,851.1118178000033,None,2,3.4289194000011776,851.1118178000033,None,854.5903678000032,None,855.1105100999994,None,855.1105100999994,None,f,1.0387226000020746,855.1105100999994,None,,,color37,001,2022_Apr_21_1054,ProdSingRedo,3.2.3,59.98404424493943,
,,,,26,0,26,0,,,,,,,,,,,,,,,,,,,,,,,,859.2897094000073,None,,,,,,,,,,,,,,,,,government,new_silent,blue,26,172,139,856.706585500011,None,856.706585500011,None,3,1.9940885000105482,856.706585500011,None,858.7399613000161,None,859.252036299993,None,859.252036299993,None,f,0.016464699991047382,859.252036299993,None,,,color37,001,2022_Apr_21_1054,ProdSingRedo,3.2.3,59.98404424493943,
,,,,27,0,27,0,,,,,,,,,,,,,,,,,,,,,,,,862.2845635999984,None,,,,,,,,,,,,,,,,,mayor,aloud,red,27,38,183,859.8112048000039,None,859.8112048000039,None,5,1.2336045000120066,859.8112048000039,None,861.0943095000111,None,861.6204672000022,None,861.6204672000022,None,r,0.640326200023992,861.6204672000022,None,,,color37,001,2022_Apr_21_1054,ProdSingRedo,3.2.3,59.98404424493943,
,,,,28,0,28,0,,,,,,,,,,,,,,,,,,,,,,,,865.6969894999929,None,,,,,,,,,,,,,,,,,cross,new_sing,yellow,28,113,80,862.8148743000056,None,862.8148743000056,None,3,2.2457854000094812,862.8148743000056,None,865.1219276000047,None,865.6338004000136,None,865.6338004000136,None,f,0.03480470000067726,865.6338004000136,None,,,color37,001,2022_Apr_21_1054,ProdSingRedo,3.2.3,59.98404424493943,
,,,,29,0,29,0,,,,,,,,,,,,,,,,,,,,,,,,868.6155873000098,None,,,,,,,,,,,,,,,,,ground,new_silent,blue,29,165,142,866.2149102000112,None,866.2149102000112,None,3,1.7820165999874007,866.2149102000112,None,868.0399152000027,None,868.5625838999986,None,868.5625838999986,None,f,0.025870999990729615,868.5625838999986,None,,,color37,001,2022_Apr_21_1054,ProdSingRedo,3.2.3,59.98404424493943,
,,,,30,0,30,0,,,,,,,,,,,,,,,,,,,,,,,,874.6795896000112,None,,,,,,,,,,,,,,,,,literature,new_sing,yellow,30,106,173,869.1163074999931,None,869.1163074999931,None,5,2.384349800006021,869.1163074999931,None,871.546925600007,None,872.0649358000082,None,872.0649358000082,None,f,2.5877993000030983,872.0649358000082,None,,,color37,001,2022_Apr_21_1054,ProdSingRedo,3.2.3,59.98404424493943,
,,,,31,0,31,0,,,,,,,,,,,,,,,,,,,,,,,,881.036056300014,None,,,,,,,,,,,,,,,,,author,sing,yellow,31,16,15,875.2032757000125,None,875.2032757000125,None,4,3.6174275999946985,875.2032757000125,None,878.8663329000119,None,879.3840251000074,None,879.3840251000074,None,f,1.6290709000022616,879.3840251000074,None,,,color37,001,2022_Apr_21_1054,ProdSingRedo,3.2.3,59.98404424493943,
,,,,32,0,32,0,,,,,,,,,,,,,,,,,,,,,,,,889.6113910000131,None,,,,,,,,,,,,,,,,,sound,new_sing,yellow,32,90,295,881.565013000014,None,881.565013000014,None,3,5.70390409999527,881.565013000014,None,887.3050128000032,None,887.829009500012,None,887.829009500012,None,f,1.743803499994101,887.829009500012,None,,,color37,001,2022_Apr_21_1054,ProdSingRedo,3.2.3,59.98404424493943,
,,,,33,0,33,0,,,,,,,,,,,,,,,,,,,,,,,,894.4831046999898,None,,,,,,,,,,,,,,,,,payment,silent,blue,33,73,215,890.1447131000168,None,890.1447131000168,None,5,2.212221800000407,890.1447131000168,None,892.3988248000096,None,892.9176780999987,None,892.9176780999987,None,r,1.5271009000134654,892.9176780999987,None,,,color37,001,2022_Apr_21_1054,ProdSingRedo,3.2.3,59.98404424493943,
,,,,34,0,34,0,,,,,,,,,,,,,,,,,,,,,,,,897.9706242000102,None,,,,,,,,,,,,,,,,,private,sing,yellow,34,15,237,895.0104883000022,None,895.0104883000022,None,4,1.8980620999936946,895.0104883000022,None,896.9458163999952,None,897.4612935000041,None,897.4612935000041,None,r,0.4794555999978911,897.4612935000041,None,,,color37,001,2022_Apr_21_1054,ProdSingRedo,3.2.3,59.98404424493943,
,,,,35,0,35,0,,,,,,,,,,,,,,,,,,,,,,,,903.9958253999939,None,,,,,,,,,,,,,,,,,suggestion,new_sing,yellow,35,102,314,898.4984483000007,None,898.4984483000007,None,4,3.714267099974677,898.4984483000007,None,902.2577395999979,None,902.7796492000052,None,902.7796492000052,None,r,1.1850902999867685,902.7796492000052,None,,,color37,001,2022_Apr_21_1054,ProdSingRedo,3.2.3,59.98404424493943,
,,,,36,0,36,0,,,,,,,,,,,,,,,,,,,,,,,,907.279214500013,None,,,,,,,,,,,,,,,,,business,sing,yellow,36,13,38,904.5192280999909,None,904.5192280999909,None,3,1.3734730999858584,904.5192280999909,None,905.9381935000129,None,906.4656201000034,None,906.4656201000034,None,f,0.7792080999934115,906.4656201000034,None,,,color37,001,2022_Apr_21_1054,ProdSingRedo,3.2.3,59.98404424493943,
,,,,37,0,37,0,,,,,,,,,,,,,,,,,,,,,,,,910.6971190000186,None,,,,,,,,,,,,,,,,,comfort,new_sing,yellow,37,100,59,907.8075066000165,None,907.8075066000165,None,2,1.645307099999627,907.8075066000165,None,909.4964920000057,None,910.0161687000073,None,910.0161687000073,None,n,0.6445890000031795,910.0161687000073,None,,,color37,001,2022_Apr_21_1054,ProdSingRedo,3.2.3,59.98404424493943,
,,,,38,0,38,0,,,,,,,,,,,,,,,,,,,,,,,,915.0729843000008,None,,,,,,,,,,,,,,,,,order,new_aloud,red,38,149,207,911.2177205999906,None,911.2177205999906,None,3,2.9070141999982297,911.2177205999906,None,914.1632701999915,None,914.6842818000005,None,914.6842818000005,None,f,0.3603433000098448,914.6842818000005,None,,,color37,001,2022_Apr_21_1054,ProdSingRedo,3.2.3,59.98404424493943,
,,,,39,0,39,0,,,,,,,,,,,,,,,,,,,,,,,,922.3259409000166,None,,,,,,,,,,,,,,,,,drove,silent,blue,39,83,106,915.5949436000083,None,915.5949436000083,None,1,2.5857793999894056,915.5949436000083,None,918.2308598000091,None,918.7412500999926,None,918.7412500999926,None,n,3.5597078999853693,918.7412500999926,None,,,color37,001,2022_Apr_21_1054,ProdSingRedo,3.2.3,59.98404424493943,
,,,,40,0,40,0,,,,,,,,,,,,,,,,,,,,,,,,924.7632551999995,None,,,,,,,,,,,,,,,,,empty,sing,yellow,40,3,112,922.8489232000138,None,922.8489232000138,None,5,1.2600132999941707,922.8489232000138,None,924.1521027999988,None,924.6644025999994,None,924.6644025999994,None,r,0.060318300005747005,924.6644025999994,None,,,color37,001,2022_Apr_21_1054,ProdSingRedo,3.2.3,59.98404424493943,
,,,,41,0,41,0,,,,,,,,,,,,,,,,,,,,,,,,929.2997093000158,None,,,,,,,,,,,,,,,,,appearance,silent,blue,41,86,10,925.2923124000081,None,925.2923124000081,None,4,2.9846225999935996,925.2923124000081,None,928.3186370000185,None,928.840480999992,None,928.840480999992,None,f,0.4365698000183329,928.840480999992,None,,,color37,001,2022_Apr_21_1054,ProdSingRedo,3.2.3,59.98404424493943,
,,,,42,0,42,0,,,,,,,,,,,,,,,,,,,,,,,,933.8749396000057,None,,,,,,,,,,,,,,,,,growth,silent,blue,42,80,144,929.825760000007,None,929.825760000007,None,4,2.1149975000007544,929.825760000007,None,931.98177079999,None,932.5074391000089,None,932.5074391000089,None,f,1.3372638000000734,932.5074391000089,None,,,color37,001,2022_Apr_21_1054,ProdSingRedo,3.2.3,59.98404424493943,
,,,,43,0,43,0,,,,,,,,,,,,,,,,,,,,,,,,937.3097727000131,None,,,,,,,,,,,,,,,,,dozen,new_sing,yellow,43,107,102,934.4032791999925,None,934.4032791999925,None,1,2.097898299980443,934.4032791999925,None,936.5358219000045,None,937.0601763000013,None,937.0601763000013,None,n,0.21661730000050738,937.0601763000013,None,,,color37,001,2022_Apr_21_1054,ProdSingRedo,3.2.3,59.98404424493943,
,,,,44,0,44,0,,,,,,,,,,,,,,,,,,,,,,,,940.395219500002,None,,,,,,,,,,,,,,,,,surprise,sing,yellow,44,21,317,937.8369971000066,None,937.8369971000066,None,6,1.8075829000154044,937.8369971000066,None,939.690354499995,None,940.2153505000169,None,940.2153505000169,None,r,0.1574589000083506,940.2153505000169,None,,,color37,001,2022_Apr_21_1054,ProdSingRedo,3.2.3,59.98404424493943,
,,,,45,0,45,0,,,,,,,,,,,,,,,,,,,,,,,,947.6867935000046,None,,,,,,,,,,,,,,,,,contract,silent,blue,45,71,68,940.9232075000182,None,940.9232075000182,None,4,5.921753200003877,940.9232075000182,None,946.8845004000177,None,947.4072013999976,None,947.4072013999976,None,f,0.25339930001064204,947.4072013999976,None,,,color37,001,2022_Apr_21_1054,ProdSingRedo,3.2.3,59.98404424493943,
,,,,46,0,46,0,,,,,,,,,,,,,,,,,,,,,,,,950.8744005000044,None,,,,,,,,,,,,,,,,,benefit,new_silent,blue,46,163,20,948.2097497000068,None,948.2097497000068,None,2,1.8670311000023503,948.2097497000068,None,950.122128899995,None,950.6431742999994,None,950.6431742999994,None,n,0.2017115000053309,950.6431742999994,None,,,color37,001,2022_Apr_21_1054,ProdSingRedo,3.2.3,59.98404424493943,
,,,,47,0,47,0,,,,,,,,,,,,,,,,,,,,,,,,955.0927262000041,None,,,,,,,,,,,,,,,,,recall,aloud,red,47,45,255,951.4004305000126,None,951.4004305000126,None,4,2.2442549999977928,951.4004305000126,None,953.693998200004,None,954.2167793000117,None,954.2167793000117,None,r,0.8440139000013005,954.2167793000117,None,,,color37,001,2022_Apr_21_1054,ProdSingRedo,3.2.3,59.98404424493943,
,,,,48,0,48,0,,,,,,,,,,,,,,,,,,,,,,,,958.397572899994,None,,,,,,,,,,,,,,,,,school,silent,blue,48,63,274,955.6173237000185,None,955.6173237000185,None,3,1.2910774999763817,955.6173237000185,None,956.9580147000088,None,957.4711031999905,None,957.4711031999905,None,f,0.9018484999833163,957.4711031999905,None,,,color37,001,2022_Apr_21_1054,ProdSingRedo,3.2.3,59.98404424493943,
,,,,49,0,49,0,,,,,,,,,,,,,,,,,,,,,,,,965.2721560999926,None,,,,,,,,,,,,,,,,,guard,new_aloud,red,49,142,145,958.9211680000008,None,958.9211680000008,None,2,2.987486900005024,958.9211680000008,None,961.9458506999945,None,962.4697541999922,None,962.4697541999922,None,f,2.7747951000055764,962.4697541999922,None,,,color37,001,2022_Apr_21_1054,ProdSingRedo,3.2.3,59.98404424493943,
,,,,50,0,50,0,,,,,,,,,,,,,,,,,,,,,,,,968.1389679000131,None,,,,,,,,,,,,,,,,,sweet,new_sing,yellow,50,118,319,965.7948393000115,None,965.7948393000115,None,2,1.4502393000002485,965.7948393000115,None,967.2901899999997,None,967.8009553000156,None,967.8009553000156,None,f,0.29989009999553673,967.8009553000156,None,,,color37,001,2022_Apr_21_1054,ProdSingRedo,3.2.3,59.98404424493943,
,,,,51,0,51,0,,,,,,,,,,,,,,,,,,,,,,,,970.7252720000106,None,,,,,,,,,,,,,,,,,split,sing,yellow,51,10,299,968.6593487999926,None,968.6593487999926,None,5,1.4255525000044145,968.6593487999926,None,970.1211448000104,None,970.6401394999993,None,970.6401394999993,None,r,0.06051290000323206,970.6401394999993,None,,,color37,001,2022_Apr_21_1054,ProdSingRedo,3.2.3,59.98404424493943,
,,,,52,0,52,0,,,,,,,,,,,,,,,,,,,,,,,,975.6648249000136,None,,,,,,,,,,,,,,,,,husband,silent,blue,52,82,156,971.2545842000109,None,971.2545842000109,None,6,2.9902448000211734,971.2545842000109,None,974.3005146000069,None,974.809817900008,None,974.809817900008,None,r,0.826900799991563,974.809817900008,None,,,color37,001,2022_Apr_21_1054,ProdSingRedo,3.2.3,59.98404424493943,
,,,,53,0,53,0,,,,,,,,,,,,,,,,,,,,,,,,979.2016622000083,None,,,,,,,,,,,,,,,,,danger,new_sing,yellow,53,97,85,976.1937135999906,None,976.1937135999906,None,3,1.40299239999149,976.1937135999906,None,977.6514790999936,None,978.1707069000113,None,978.1707069000113,None,n,0.9940709999937098,978.1707069000113,None,,,color37,001,2022_Apr_21_1054,ProdSingRedo,3.2.3,59.98404424493943,
,,,,54,0,54,0,,,,,,,,,,,,,,,,,,,,,,,,981.8365747999924,None,,,,,,,,,,,,,,,,,childhood,new_sing,yellow,54,105,49,979.7244445999968,None,979.7244445999968,None,1,1.4083607999782544,979.7244445999968,None,981.1767150000087,None,981.6890499000147,None,981.6890499000147,None,n,0.11611410000477917,981.6890499000147,None,,,color37,001,2022_Apr_21_1054,ProdSingRedo,3.2.3,59.98404424493943,
,,,,55,0,55,0,,,,,,,,,,,,,,,,,,,,,,,,988.5265744999924,None,,,,,,,,,,,,,,,,,resistance,new_silent,blue,55,154,262,982.3664590000117,None,982.3664590000117,None,5,3.8383603999973275,982.3664590000117,None,986.2621113999921,None,986.7784391000168,None,986.7784391000168,None,f,1.722035099985078,986.7784391000168,None,,,color37,001,2022_Apr_21_1054,ProdSingRedo,3.2.3,59.98404424493943,
,,,,56,0,56,0,,,,,,,,,,,,,,,,,,,,,,,,993.0975937999901,None,,,,,,,,,,,,,,,,,thing,silent,blue,56,84,328,989.0432647000125,None,989.0432647000125,None,4,2.3937724999850616,989.0432647000125,None,991.4752174000023,None,991.998531899997,None,991.998531899997,None,f,1.0704893000074662,991.998531899997,None,,,color37,001,2022_Apr_21_1054,ProdSingRedo,3.2.3,59.98404424493943,
,,,,57,0,57,0,,,,,,,,,,,,,,,,,,,,,,,,995.7679621000134,None,,,,,,,,,,,,,,,,,angle,silent,blue,57,64,7,993.6240872000053,None,993.6240872000053,None,3,1.380654799984768,993.6240872000053,None,995.0518531000125,None,995.5696313999943,None,995.5696313999943,None,f,0.17143919999944046,995.5696313999943,None,,,color37,001,2022_Apr_21_1054,ProdSingRedo,3.2.3,59.98404424493943,
,,,,58,0,58,0,,,,,,,,,,,,,,,,,,,,,,,,999.8717226000153,None,,,,,,,,,,,,,,,,,employment,new_aloud,red,58,126,111,996.2972668000148,None,996.2972668000148,None,5,2.6514057999884244,996.2972668000148,None,998.9981261999928,None,999.5265582000138,None,999.5265582000138,None,f,0.3102410999999847,999.5265582000138,None,,,color37,001,2022_Apr_21_1054,ProdSingRedo,3.2.3,59.98404424493943,
,,,,59,0,59,0,,,,,,,,,,,,,,,,,,,,,,,,1008.2300355999905,None,,,,,,,,,,,,,,,,,bucket,aloud,red,59,44,33,1000.3999995999911,None,1000.3999995999911,None,3,5.348774899990531,1000.3999995999911,None,1005.7954676999943,None,1006.3147229000169,None,1006.3147229000169,None,f,1.8820208000252023,1006.3147229000169,None,,,color37,001,2022_Apr_21_1054,ProdSingRedo,3.2.3,59.98404424493943,
,,,,60,0,60,0,,,,,,,,,,,,,,,,,,,,,,,,1012.2168926000013,None,,,,,,,,,,,,,,,,,skill,aloud,red,60,47,289,1008.7544894000166,None,1008.7544894000166,None,5,1.7709253999928478,1008.7544894000166,None,1010.5672065000108,None,1011.0874838000163,None,1011.0874838000163,None,r,1.1012170999892987,1011.0874838000163,None,,,color37,001,2022_Apr_21_1054,ProdSingRedo,3.2.3,59.98404424493943,
,,,,61,0,61,0,,,,,,,,,,,,,,,,,,,,,,,,1016.555608900002,None,,,,,,,,,,,,,,,,,frank,new_aloud,red,61,137,133,1012.7468377000187,None,1012.7468377000187,None,2,1.377840200002538,1012.7468377000187,None,1014.1714864000096,None,1014.6915041000175,None,1014.6915041000175,None,n,1.8335739999893121,1014.6915041000175,None,,,color37,001,2022_Apr_21_1054,ProdSingRedo,3.2.3,59.98404424493943,
,,,,62,0,62,0,,,,,,,,,,,,,,,,,,,,,,,,1019.107062199997,None,,,,,,,,,,,,,,,,,degree,new_aloud,red,62,123,89,1017.0638097999908,None,1017.0638097999908,None,2,1.3568146999750752,1017.0638097999908,None,1018.4730272000015,None,1018.9904946000024,None,1018.9904946000024,None,n,0.08623389998683706,1018.9904946000024,None,,,color37,001,2022_Apr_21_1054,ProdSingRedo,3.2.3,59.98404424493943,
,,,,63,0,63,0,,,,,,,,,,,,,,,,,,,,,,,,1021.9767935000127,None,,,,,,,,,,,,,,,,,nature,aloud,red,63,54,200,1019.6332425000146,None,1019.6332425000146,None,6,1.4673257999820635,1019.6332425000146,None,1021.1468955000164,None,1021.6633194000169,None,1021.6633194000169,None,f,0.27743209997424856,1021.6633194000169,None,,,color37,001,2022_Apr_21_1054,ProdSingRedo,3.2.3,59.98404424493943,
,,,,64,0,64,0,,,,,,,,,,,,,,,,,,,,,,,,1024.8294511999993,None,,,,,,,,,,,,,,,,,youth,silent,blue,64,69,359,1022.5053496000182,None,1022.5053496000182,None,3,1.64339199999813,1022.5053496000182,None,1024.195954499999,None,1024.7183950000035,None,1024.7183950000035,None,f,0.07829430000856519,1024.7183950000035,None,,,color37,001,2022_Apr_21_1054,ProdSingRedo,3.2.3,59.98404424493943,
,,,,65,0,65,0,,,,,,,,,,,,,,,,,,,,,,,,1028.3674858000013,None,,,,,,,,,,,,,,,,,prime,new_sing,yellow,65,112,235,1025.3505175000173,None,1025.3505175000173,None,2,1.2222151999885682,1025.3505175000173,None,1026.609526699991,None,1027.1294506000122,None,1027.1294506000122,None,n,1.2033280000032391,1027.1294506000122,None,,,color37,001,2022_Apr_21_1054,ProdSingRedo,3.2.3,59.98404424493943,
,,,,66,0,66,0,,,,,,,,,,,,,,,,,,,,,,,,1032.117851499992,None,,,,,,,,,,,,,,,,,attack,new_sing,yellow,66,114,13,1028.8961104000045,None,1028.8961104000045,None,2,1.2286496000015177,1028.8961104000045,None,1030.1659733999986,None,1030.6992171000165,None,1030.6992171000165,None,n,1.3854152999992948,1030.6992171000165,None,,,color37,001,2022_Apr_21_1054,ProdSingRedo,3.2.3,59.98404424493943,
,,,,67,0,67,0,,,,,,,,,,,,,,,,,,,,,,,,1038.8946933000116,None,,,,,,,,,,,,,,,,,finish,aloud,red,67,42,130,1032.6475938000076,None,1032.6475938000076,None,4,4.84527820002404,1032.6475938000076,None,1037.5404020000133,None,1038.0602505000134,None,1038.0602505000134,None,f,0.8085171999991871,1038.0602505000134,None,,,color37,001,2022_Apr_21_1054,ProdSingRedo,3.2.3,59.98404424493943,
,,,,68,0,68,0,,,,,,,,,,,,,,,,,,,,,,,,1042.3304371999984,None,,,,,,,,,,,,,,,,,character,sing,yellow,68,11,46,1039.4226689999923,None,1039.4226689999923,None,5,1.26209679999738,1039.4226689999923,None,1040.7270014999958,None,1041.2445276000071,None,1041.2445276000071,None,r,1.0482827000087127,1041.2445276000071,None,,,color37,001,2022_Apr_21_1054,ProdSingRedo,3.2.3,59.98404424493943,
,,,,69,0,69,0,,,,,,,,,,,,,,,,,,,,,,,,1045.3498123000027,None,,,,,,,,,,,,,,,,,straight,sing,yellow,69,0,307,1042.8567799000011,None,1042.8567799000011,None,6,1.4920092000102159,1042.8567799000011,None,1044.4014795999974,None,1044.9216844000039,None,1044.9216844000039,None,r,0.40301560002262704,1044.9216844000039,None,,,color37,001,2022_Apr_21_1054,ProdSingRedo,3.2.3,59.98404424493943,
,,,,70,0,70,0,,,,,,,,,,,,,,,,,,,,,,,,1048.1350710999977,None,,,,,,,,,,,,,,,,,council,sing,yellow,70,22,71,1045.8789898999967,None,1045.8789898999967,None,4,1.1652272999926936,1045.8789898999967,None,1047.0699139999924,None,1047.5777287000092,None,1047.5777287000092,None,r,0.5229922000144143,1047.5777287000092,None,,,color37,001,2022_Apr_21_1054,ProdSingRedo,3.2.3,59.98404424493943,
,,,,71,0,71,0,,,,,,,,,,,,,,,,,,,,,,,,1050.7567258999916,None,,,,,,,,,,,,,,,,,number,sing,yellow,71,14,203,1048.664419800014,None,1048.664419800014,None,5,1.1804837000090629,1048.664419800014,None,1049.889358400018,None,1050.41033839999,None,1050.41033839999,None,r,0.31444159999955446,1050.41033839999,None,,,color37,001,2022_Apr_21_1054,ProdSingRedo,3.2.3,59.98404424493943,
,,,,72,0,72,0,,,,,,,,,,,,,,,,,,,,,,,,1054.9773718999932,None,,,,,,,,,,,,,,,,,signal,new_aloud,red,72,141,287,1051.2812860000122,None,1051.2812860000122,None,3,2.8038403000100516,1051.2812860000122,None,1054.1280958999996,None,1054.646150000015,None,1054.646150000015,None,f,0.3026409999874886,1054.646150000015,None,,,color37,001,2022_Apr_21_1054,ProdSingRedo,3.2.3,59.98404424493943,
,,,,73,0,73,0,,,,,,,,,,,,,,,,,,,,,,,,1058.7813780000142,None,,,,,,,,,,,,,,,,,rough,new_sing,yellow,73,104,266,1055.5032525999995,None,1055.5032525999995,None,2,2.477719900023658,1055.5032525999995,None,1058.0299917999946,None,1058.548194300005,None,1058.548194300005,None,n,0.20872370002325624,1058.548194300005,None,,,color37,001,2022_Apr_21_1054,ProdSingRedo,3.2.3,59.98404424493943,
,,,,74,0,74,0,,,,,,,,,,,,,,,,,,,,,,,,1061.8157818999898,None,,,,,,,,,,,,,,,,,region,aloud,red,74,35,256,1059.3046692000062,None,1059.3046692000062,None,2,1.844498599995859,1059.3046692000062,None,1061.2001477000013,None,1061.7188925000082,None,1061.7188925000082,None,n,0.061792399996193126,1061.7188925000082,None,,,color37,001,2022_Apr_21_1054,ProdSingRedo,3.2.3,59.98404424493943,
,,,,75,0,75,0,,,,,,,,,,,,,,,,,,,,,,,,1064.3516636000131,None,,,,,,,,,,,,,,,,,title,aloud,red,75,52,331,1062.3405649999913,None,1062.3405649999913,None,3,1.3601951000164263,1062.3405649999913,None,1063.745675400016,None,1064.2531402000168,None,1064.2531402000168,None,n,0.07135660000494681,1064.2531402000168,None,,,color37,001,2022_Apr_21_1054,ProdSingRedo,3.2.3,59.98404424493943,
,,,,76,0,76,0,,,,,,,,,,,,,,,,,,,,,,,,1067.1046961999964,None,,,,,,,,,,,,,,,,,mechanical,aloud,red,76,58,185,1064.8811624000082,None,1064.8811624000082,None,6,1.4355110000178684,1064.8811624000082,None,1066.371687100007,None,1066.893915499997,None,1066.893915499997,None,r,0.17528979998314753,1066.893915499997,None,,,color37,001,2022_Apr_21_1054,ProdSingRedo,3.2.3,59.98404424493943,
,,,,77,0,77,0,,,,,,,,,,,,,,,,,,,,,,,,1069.959706099995,None,,,,,,,,,,,,,,,,,orchestra,new_silent,blue,77,161,206,1067.6317004000011,None,1067.6317004000011,None,1,1.5408863000047859,1067.6317004000011,None,1069.2205195999995,None,1069.733403499995,None,1069.733403499995,None,n,0.19925129998591729,1069.733403499995,None,,,color37,001,2022_Apr_21_1054,ProdSingRedo,3.2.3,59.98404424493943,
,,,,78,0,78,0,,,,,,,,,,,,,,,,,,,,,,,,1075.2784478999965,None,,,,,,,,,,,,,,,,,owner,new_sing,yellow,78,92,208,1070.4868285999983,None,1070.4868285999983,None,2,4.16582229998312,1070.4868285999983,None,1074.695194400003,None,1075.2158203000145,None,1075.2158203000145,None,n,0.03688889998011291,1075.2158203000145,None,,,color37,001,2022_Apr_21_1054,ProdSingRedo,3.2.3,59.98404424493943,
,,,,79,0,79,0,,,,,,,,,,,,,,,,,,,,,,,,1079.618576400011,None,,,,,,,,,,,,,,,,,route,sing,yellow,79,7,267,1075.804689200013,None,1075.804689200013,None,5,2.9038504000054672,1075.804689200013,None,1078.7490854999924,None,1079.2693624999956,None,1079.2693624999956,None,r,0.3192692000011448,1079.2693624999956,None,,,color37,001,2022_Apr_21_1054,ProdSingRedo,3.2.3,59.98404424493943,
,,,,80,0,80,0,,,,,,,,,,,,,,,,,,,,,,,,1087.2588934999949,None,,,,,,,,,,,,,,,,,interior,new_aloud,red,80,139,164,1080.1413968999987,None,1080.1413968999987,None,2,5.535344500007341,1080.1413968999987,None,1085.7216153999907,None,1086.2403735000116,None,1086.2403735000116,None,n,0.9802797999873292,1086.2403735000116,None,,,color37,001,2022_Apr_21_1054,ProdSingRedo,3.2.3,59.98404424493943,
,,,,81,0,81,0,,,,,,,,,,,,,,,,,,,,,,,,1089.9311135000025,None,,,,,,,,,,,,,,,,,guide,new_sing,yellow,81,91,147,1087.7858479999995,None,1087.7858479999995,None,4,1.3788962999824435,1087.7858479999995,None,1089.2051297000144,None,1089.728300399991,None,1089.728300399991,None,f,0.16444709998904727,1089.728300399991,None,,,color37,001,2022_Apr_21_1054,ProdSingRedo,3.2.3,59.98404424493943,
,,,,82,0,82,0,,,,,,,,,,,,,,,,,,,,,,,,1097.3855113000027,None,,,,,,,,,,,,,,,,,space,new_silent,blue,82,166,297,1090.457322400005,None,1090.457322400005,None,5,5.80331039999146,1090.457322400005,None,1096.2897190999938,None,1096.801008600014,None,1096.801008600014,None,f,0.5557245000090916,1096.801008600014,None,,,color37,001,2022_Apr_21_1054,ProdSingRedo,3.2.3,59.98404424493943,
,,,,83,0,83,0,,,,,,,,,,,,,,,,,,,,,,,,1099.8871577999962,None,,,,,,,,,,,,,,,,,member,new_sing,yellow,83,99,188,1097.9079921999946,None,1097.9079921999946,None,3,1.2888957999821287,1097.9079921999946,None,1099.231162800017,None,1099.7569884000113,None,1099.7569884000113,None,f,0.09575570002198219,1099.7569884000113,None,,,color37,001,2022_Apr_21_1054,ProdSingRedo,3.2.3,59.98404424493943,
,,,,84,0,84,0,,,,,,,,,,,,,,,,,,,,,,,,1103.1912927000085,None,,,,,,,,,,,,,,,,,course,new_sing,yellow,84,117,74,1100.4136574000004,None,1100.4136574000004,None,2,1.6791215000266675,1100.4136574000004,None,1102.135328000004,None,1102.659681899997,None,1102.659681899997,None,n,0.4972489000065252,1102.659681899997,None,,,color37,001,2022_Apr_21_1054,ProdSingRedo,3.2.3,59.98404424493943,
,,,,85,0,85,0,,,,,,,,,,,,,,,,,,,,,,,,1106.094816500001,None,,,,,,,,,,,,,,,,,production,new_aloud,red,85,138,240,1103.7206845000037,None,1103.7206845000037,None,5,1.3639477000106126,1103.7206845000037,None,1105.1272537000186,None,1105.6451115999953,None,1105.6451115999953,None,r,0.4157877000106964,1105.6451115999953,None,,,color37,001,2022_Apr_21_1054,ProdSingRedo,3.2.3,59.98404424493943,
,,,,86,0,86,0,,,,,,,,,,,,,,,,,,,,,,,,1108.8300748000038,None,,,,,,,,,,,,,,,,,speech,silent,blue,86,68,298,1106.6180318999977,None,1106.6180318999977,None,3,1.4987574999977369,1106.6180318999977,None,1108.1571798000077,None,1108.6836500999925,None,1108.6836500999925,None,n,0.11294819999602623,1108.6836500999925,None,,,color37,001,2022_Apr_21_1054,ProdSingRedo,3.2.3,59.98404424493943,
,,,,87,0,87,0,,,,,,,,,,,,,,,,,,,,,,,,1111.861078899994,None,,,,,,,,,,,,,,,,,meeting,sing,yellow,87,20,187,1109.3562860999955,None,1109.3562860999955,None,2,1.8324326000001747,1109.3562860999955,None,1111.2497023000033,None,1111.7681748000032,None,1111.7681748000032,None,f,0.06830270000500605,1111.7681748000032,None,,,color37,001,2022_Apr_21_1054,ProdSingRedo,3.2.3,59.98404424493943,
,,,,88,0,88,0,,,,,,,,,,,,,,,,,,,,,,,,1116.6920221000037,None,,,,,,,,,,,,,,,,,whole,new_sing,yellow,88,95,355,1112.3906956000137,None,1112.3906956000137,None,2,3.6219022999866866,1112.3906956000137,None,1116.051949899993,None,1116.5727565000125,None,1116.5727565000125,None,f,0.07995530002517626,1116.5727565000125,None,,,color37,001,2022_Apr_21_1054,ProdSingRedo,3.2.3,59.98404424493943,
,,,,89,0,89,0,,,,,,,,,,,,,,,,,,,,,,,,1119.1306881000055,None,,,,,,,,,,,,,,,,,collection,aloud,red,89,48,54,1117.2125891000032,None,1117.2125891000032,None,5,1.1440009000070859,1117.2125891000032,None,1118.40457839999,None,1118.9234199000057,None,1118.9234199000057,None,r,0.17736049997620285,1118.9234199000057,None,,,color37,001,2022_Apr_21_1054,ProdSingRedo,3.2.3,59.98404424493943,
,,,,90,0,90,0,,,,,,,,,,,,,,,,,,,,,,,,1122.8461262999917,None,,,,,,,,,,,,,,,,,public,silent,blue,90,85,244,1119.6490714999964,None,1119.6490714999964,None,3,1.1636052000103518,1119.6490714999964,None,1120.855256800016,None,1121.379728400003,None,1121.379728400003,None,n,1.432995499984827,1121.379728400003,None,,,color37,001,2022_Apr_21_1054,ProdSingRedo,3.2.3,59.98404424493943,
,,,,91,0,91,0,,,,,,,,,,,,,,,,,,,,,,,,1127.834582200012,None,,,,,,,,,,,,,,,,,finance,new_sing,yellow,91,93,129,1123.3711476000026,None,1123.3711476000026,None,1,2.1775216000096407,1123.3711476000026,None,1125.594809400005,None,1126.1108100000129,None,1126.1108100000129,None,n,1.685976100008702,1126.1108100000129,None,,,color37,001,2022_Apr_21_1054,ProdSingRedo,3.2.3,59.98404424493943,
,,,,92,0,92,0,,,,,,,,,,,,,,,,,,,,,,,,1130.6675795000046,None,,,,,,,,,,,,,,,,,committee,new_silent,blue,92,178,62,1128.3543587000167,None,1128.3543587000167,None,2,1.546480299992254,1128.3543587000167,None,1129.9439106000063,None,1130.4534596000158,None,1130.4534596000158,None,n,0.18348039998090826,1130.4534596000158,None,,,color37,001,2022_Apr_21_1054,ProdSingRedo,3.2.3,59.98404424493943,
,,,,93,0,93,0,,,,,,,,,,,,,,,,,,,,,,,,1135.0395098000008,None,,,,,,,,,,,,,,,,,salary,new_aloud,red,93,135,271,1131.1996644000174,None,1131.1996644000174,None,1,2.052643500006525,1131.1996644000174,None,1133.3115308000124,None,1133.8137848000042,None,1133.8137848000042,None,n,1.1989530000137165,1133.8137848000042,None,,,color37,001,2022_Apr_21_1054,ProdSingRedo,3.2.3,59.98404424493943,
,,,,94,0,94,0,,,,,,,,,,,,,,,,,,,,,,,,1138.0580353999976,None,,,,,,,,,,,,,,,,,treatment,new_silent,blue,94,162,339,1135.5653112000145,None,1135.5653112000145,None,6,1.8548988999973517,1135.5653112000145,None,1137.4558299999917,None,1137.9774228000024,None,1137.9774228000024,None,r,0.050920600013341755,1137.9774228000024,None,,,color37,001,2022_Apr_21_1054,ProdSingRedo,3.2.3,59.98404424493943,
,,,,95,0,95,0,,,,,,,,,,,,,,,,,,,,,,,,1141.5810618000105,None,,,,,,,,,,,,,,,,,under,aloud,red,95,41,343,1138.5826541999995,None,1138.5826541999995,None,2,1.2057473000022583,1138.5826541999995,None,1139.811302200018,None,1140.3273716999975,None,1140.3273716999975,None,n,1.229354000010062,1140.3273716999975,None,,,color37,001,2022_Apr_21_1054,ProdSingRedo,3.2.3,59.98404424493943,
,,,,96,0,96,0,,,,,,,,,,,,,,,,,,,,,,,,1145.90059189999,None,,,,,,,,,,,,,,,,,style,aloud,red,96,32,311,1142.1077001999947,None,1142.1077001999947,None,4,2.648973000003025,1142.1077001999947,None,1144.7989131000068,None,1145.3195401999983,None,1145.3195401999983,None,f,0.5573552999994718,1145.3195401999983,None,,,color37,001,2022_Apr_21_1054,ProdSingRedo,3.2.3,59.98404424493943,
,,,,97,0,97,0,,,,,,,,,,,,,,,,,,,,,,,,1151.4899582999933,None,,,,,,,,,,,,,,,,,management,new_aloud,red,97,147,177,1146.4311044999922,None,1146.4311044999922,None,3,3.805509099998744,1146.4311044999922,None,1150.2862877000007,None,1150.8133542000141,None,1150.8133542000141,None,f,0.6394717000075616,1150.8133542000141,None,,,color37,001,2022_Apr_21_1054,ProdSingRedo,3.2.3,59.98404424493943,
,,,,98,0,98,0,,,,,,,,,,,,,,,,,,,,,,,,1156.3734576000134,None,,,,,,,,,,,,,,,,,place,silent,blue,98,61,222,1152.0152254000132,None,1152.0152254000132,None,2,1.2534978999756277,1152.0152254000132,None,1153.3177514999988,None,1153.8299286999973,None,1153.8299286999973,None,f,2.4947036000085063,1153.8299286999973,None,,,color37,001,2022_Apr_21_1054,ProdSingRedo,3.2.3,59.98404424493943,
,,,,99,0,99,0,,,,,,,,,,,,,,,,,,,,,,,,1160.09790600001,None,,,,,,,,,,,,,,,,,judge,sing,yellow,99,8,166,1156.9064576000092,None,1156.9064576000092,None,3,2.546256200002972,1156.9064576000092,None,1159.5029917999927,None,1160.019988999993,None,1160.019988999993,None,f,0.04870159999700263,1160.019988999993,None,,,color37,001,2022_Apr_21_1054,ProdSingRedo,3.2.3,59.98404424493943,
,,,,100,0,100,0,,,,,,,,,,,,,,,,,,,,,,,,1162.6847563000047,None,,,,,,,,,,,,,,,,,entrance,new_aloud,red,100,120,115,1160.6277807000151,None,1160.6277807000151,None,1,1.3049060000048485,1160.6277807000151,None,1161.980647599994,None,1162.4989445999963,None,1162.4989445999963,None,f,0.15372460000799038,1162.4989445999963,None,,,color37,001,2022_Apr_21_1054,ProdSingRedo,3.2.3,59.98404424493943,
,,,,101,0,101,0,,,,,,,,,,,,,,,,,,,,,,,,1165.6711522999976,None,,,,,,,,,,,,,,,,,quick,sing,yellow,101,26,248,1163.2118207000021,None,1163.2118207000021,None,5,1.4169585999916308,1163.2118207000021,None,1164.670751800004,None,1165.1905540000007,None,1165.1905540000007,None,f,0.4463138999999501,1165.1905540000007,None,,,color37,001,2022_Apr_21_1054,ProdSingRedo,3.2.3,59.98404424493943,
,,,,102,0,102,0,,,,,,,,,,,,,,,,,,,,,,,,1169.5584032000042,None,,,,,,,,,,,,,,,,,column,new_silent,blue,102,164,57,1166.1985268999997,None,1166.1985268999997,None,1,1.4857321000017691,1166.1985268999997,None,1167.7153480999987,None,1168.2244090000167,None,1168.2244090000167,None,n,1.3002756999921985,1168.2244090000167,None,,,color37,001,2022_Apr_21_1054,ProdSingRedo,3.2.3,59.98404424493943,
,,,,103,0,103,0,,,,,,,,,,,,,,,,,,,,,,,,1172.159710900014,None,,,,,,,,,,,,,,,,,hearing,new_aloud,red,103,132,150,1170.0826691999973,None,1170.0826691999973,None,2,1.1460223000030965,1170.0826691999973,None,1171.2772699999914,None,1171.7951606000133,None,1171.7951606000133,None,n,0.32957150001311675,1171.7951606000133,None,,,color37,001,2022_Apr_21_1054,ProdSingRedo,3.2.3,59.98404424493943,
,,,,104,0,104,0,,,,,,,,,,,,,,,,,,,,,,,,1174.779248100007,None,,,,,,,,,,,,,,,,,heavy,aloud,red,104,33,151,1172.688904300012,None,1172.688904300012,None,6,1.147736500017345,1172.688904300012,None,1173.872928900004,None,1174.3998060000013,None,1174.3998060000013,None,r,0.35677640000358224,1174.3998060000013,None,,,color37,001,2022_Apr_21_1054,ProdSingRedo,3.2.3,59.98404424493943,
,,,,105,0,105,0,,,,,,,,,,,,,,,,,,,,,,,,1177.0509728000034,None,,,,,,,,,,,,,,,,,running,sing,yellow,105,9,268,1175.304455800011,None,1175.304455800011,None,3,1.1166353999869898,1175.304455800011,None,1176.4728655999934,None,1176.9872019000177,None,1176.9872019000177,None,n,0.0253458000079263,1176.9872019000177,None,,,color37,001,2022_Apr_21_1054,ProdSingRedo,3.2.3,59.98404424493943,
,,,,106,0,106,0,,,,,,,,,,,,,,,,,,,,,,,,1180.2294284999953,None,,,,,,,,,,,,,,,,,direction,new_sing,yellow,106,103,94,1177.5854094999959,None,1177.5854094999959,None,2,1.1715868000173941,1177.5854094999959,None,1178.7928110999928,None,1179.302417800005,None,1179.302417800005,None,n,0.9099894000100903,1179.302417800005,None,,,color37,001,2022_Apr_21_1054,ProdSingRedo,3.2.3,59.98404424493943,
,,,,107,0,107,0,,,,,,,,,,,,,,,,,,,,,,,,1184.2547571000177,None,,,,,,,,,,,,,,,,,principal,new_sing,yellow,107,101,236,1180.7637396999926,None,1180.7637396999926,None,1,2.737013999983901,1180.7637396999926,None,1183.555059700011,None,1184.075297400006,None,1184.075297400006,None,n,0.14542419998906553,1184.075297400006,None,,,color37,001,2022_Apr_21_1054,ProdSingRedo,3.2.3,59.98404424493943,
,,,,108,0,108,0,,,,,,,,,,,,,,,,,,,,,,,,1188.811001199996,None,,,,,,,,,,,,,,,,,beginning,silent,blue,108,66,19,1184.784677699994,None,1184.784677699994,None,4,2.908022899995558,1184.784677699994,None,1187.7465403999959,None,1188.2630509000155,None,1188.2630509000155,None,r,0.5178889000089839,1188.2630509000155,None,,,color37,001,2022_Apr_21_1054,ProdSingRedo,3.2.3,59.98404424493943,
,,,,109,0,109,0,,,,,,,,,,,,,,,,,,,,,,,,1191.3625066000095,None,,,,,,,,,,,,,,,,,afternoon,sing,yellow,109,6,3,1189.3388307999994,None,1189.3388307999994,None,2,1.4337815000035334,1189.3388307999994,None,1190.8116251000029,None,1191.3226746,None,1191.3226746,None,n,0.00987780001014471,1191.3226746,None,,,color37,001,2022_Apr_21_1054,ProdSingRedo,3.2.3,59.98404424493943,
,,,,110,0,110,0,,,,,,,,,,,,,,,,,,,,,,,,1194.5833147999947,None,,,,,,,,,,,,,,,,,graduate,silent,blue,110,67,141,1191.8950825000065,None,1191.8950825000065,None,2,2.03748369999812,1191.8950825000065,None,1193.9863365000056,None,1194.4913328000112,None,1194.4913328000112,None,n,0.05719149997457862,1194.4913328000112,None,,,color37,001,2022_Apr_21_1054,ProdSingRedo,3.2.3,59.98404424493943,
,,,,111,0,111,0,,,,,,,,,,,,,,,,,,,,,,,,1197.0470283000031,None,,,,,,,,,,,,,,,,,pressure,silent,blue,111,72,232,1195.105958500004,None,1195.105958500004,None,5,1.3549867999972776,1195.105958500004,None,1196.510825400008,None,1197.0101844000164,None,1197.0101844000164,None,f,0.01801489997887984,1197.0101844000164,None,,,color37,001,2022_Apr_21_1054,ProdSingRedo,3.2.3,59.98404424493943,
,,,,112,0,112,0,,,,,,,,,,,,,,,,,,,,,,,,1201.7817504999985,None,,,,,,,,,,,,,,,,,broke,silent,blue,112,76,32,1197.5608332999982,None,1197.5608332999982,None,4,2.5162226999818813,1197.5608332999982,None,1200.1203376000049,None,1200.6436306000105,None,1200.6436306000105,None,f,1.1127277000050526,1200.6436306000105,None,,,color37,001,2022_Apr_21_1054,ProdSingRedo,3.2.3,59.98404424493943,
,,,,113,0,113,0,,,,,,,,,,,,,,,,,,,,,,,,1204.9593876000145,None,,,,,,,,,,,,,,,,,silence,new_silent,blue,113,153,288,1202.2948425000068,None,1202.2948425000068,None,4,1.686255100008566,1202.2948425000068,None,1204.0169689000177,None,1204.5270056000154,None,1204.5270056000154,None,f,0.405712699983269,1204.5270056000154,None,,,color37,001,2022_Apr_21_1054,ProdSingRedo,3.2.3,59.98404424493943,
,,,,114,0,114,0,,,,,,,,,,,,,,,,,,,,,,,,1207.4966946000059,None,,,,,,,,,,,,,,,,,accident,new_aloud,red,114,133,0,1205.4848694000102,None,1205.4848694000102,None,2,1.255822100007208,1205.4848694000102,None,1206.7949059999955,None,1207.3123320000013,None,1207.3123320000013,None,n,0.15650449998793192,1207.3123320000013,None,,,color37,001,2022_Apr_21_1054,ProdSingRedo,3.2.3,59.98404424493943,
,,,,115,0,115,0,,,,,,,,,,,,,,,,,,,,,,,,1210.5145271999936,None,,,,,,,,,,,,,,,,,welcome,sing,yellow,115,1,354,1208.0225246000045,None,1208.0225246000045,None,6,1.5821062000177335,1208.0225246000045,None,1209.6440691000025,None,1210.141308899998,None,1210.141308899998,None,r,0.33530679999967106,1210.141308899998,None,,,color37,001,2022_Apr_21_1054,ProdSingRedo,3.2.3,59.98404424493943,
,,,,116,0,116,0,,,,,,,,,,,,,,,,,,,,,,,,1213.7692320999922,None,,,,,,,,,,,,,,,,,dream,new_aloud,red,116,129,104,1211.0377103000064,None,1211.0377103000064,None,3,1.4708623999904376,1211.0377103000064,None,1212.5513162999996,None,1213.0707296000037,None,1213.0707296000037,None,f,0.6703549999801908,1213.0707296000037,None,,,color37,001,2022_Apr_21_1054,ProdSingRedo,3.2.3,59.98404424493943,
,,,,117,0,117,0,,,,,,,,,,,,,,,,,,,,,,,,1216.0864941999898,None,,,,,,,,,,,,,,,,,alert,new_silent,blue,117,156,6,1214.2950058999995,None,1214.2950058999995,None,3,1.141566399979638,1214.2950058999995,None,1215.490939500014,None,1216.0048636000138,None,1216.0048636000138,None,f,0.04781020001973957,1216.0048636000138,None,,,color37,001,2022_Apr_21_1054,ProdSingRedo,3.2.3,59.98404424493943,
,,,,118,0,118,0,,,,,,,,,,,,,,,,,,,,,,,,1221.0264865999925,None,,,,,,,,,,,,,,,,,blind,silent,blue,118,87,24,1216.6107524000108,None,1216.6107524000108,None,4,3.0339818999927957,1216.6107524000108,None,1219.687625999999,None,1220.2098674000008,None,1220.2098674000008,None,f,0.7868653000041377,1220.2098674000008,None,,,color37,001,2022_Apr_21_1054,ProdSingRedo,3.2.3,59.98404424493943,
,,,,119,0,119,0,,,,,,,,,,,,,,,,,,,,,,,,1223.8307741000026,None,,,,,,,,,,,,,,,,,health,new_sing,yellow,119,110,149,1221.5543690999912,None,1221.5543690999912,None,3,1.2104718000045978,1221.5543690999912,None,1222.8095570000005,None,1223.3281257000053,None,1223.3281257000053,None,n,0.4685466999944765,1223.3281257000053,None,,,color37,001,2022_Apr_21_1054,ProdSingRedo,3.2.3,59.98404424493943,
,,,,120,0,120,0,,,,,,,,,,,,,,,,,,,,,,,,1227.2236642999924,None,,,,,,,,,,,,,,,,,narrow,silent,blue,120,78,197,1224.3526807000162,None,1224.3526807000162,None,5,1.5079989999940153,1224.3526807000162,None,1225.9147109000187,None,1226.4382659000112,None,1226.4382659000112,None,r,0.7579344999976456,1226.4382659000112,None,,,color37,001,2022_Apr_21_1054,ProdSingRedo,3.2.3,59.98404424493943,
,,,,121,0,121,0,,,,,,,,,,,,,,,,,,,,,,,,1229.5186056999955,None,,,,,,,,,,,,,,,,,command,new_aloud,red,121,143,60,1227.7243618000066,None,1227.7243618000066,None,3,1.1125033000134863,1227.7243618000066,None,1228.8822988000175,None,1229.4028548999922,None,1229.4028548999922,None,n,0.08975320000899956,1229.4028548999922,None,,,color37,001,2022_Apr_21_1054,ProdSingRedo,3.2.3,59.98404424493943,
,,,,122,0,122,0,,,,,,,,,,,,,,,,,,,,,,,,1233.6399291999987,None,,,,,,,,,,,,,,,,,suspect,new_silent,blue,122,179,318,1230.0439845999936,None,1230.0439845999936,None,3,1.6402764999947976,1230.0439845999936,None,1231.7208034000068,None,1232.236972899991,None,1232.236972899991,None,n,1.3756228999991436,1232.236972899991,None,,,color37,001,2022_Apr_21_1054,ProdSingRedo,3.2.3,59.98404424493943,
,,,,123,0,123,0,,,,,,,,,,,,,,,,,,,,,,,,1236.457549200015,None,,,,,,,,,,,,,,,,,curve,aloud,red,123,50,82,1234.1660953999963,None,1234.1660953999963,None,5,1.246918499993626,1234.1660953999963,None,1235.4538531000144,None,1235.9790995999938,None,1235.9790995999938,None,r,0.44966690000728704,1235.9790995999938,None,,,color37,001,2022_Apr_21_1054,ProdSingRedo,3.2.3,59.98404424493943,
,,,,124,0,124,0,,,,,,,,,,,,,,,,,,,,,,,,1239.5662819000136,None,,,,,,,,,,,,,,,,,industry,sing,yellow,124,12,161,1236.9835710000189,None,1236.9835710000189,None,5,1.6533941000234336,1236.9835710000189,None,1238.6732355999993,None,1239.202676100016,None,1239.202676100016,None,r,0.32198540001991205,1239.202676100016,None,,,color37,001,2022_Apr_21_1054,ProdSingRedo,3.2.3,59.98404424493943,
,,,,125,0,125,0,,,,,,,,,,,,,,,,,,,,,,,,1243.4809924,None,,,,,,,,,,,,,,,,,month,new_silent,blue,125,175,193,1240.0888381999976,None,1240.0888381999976,None,3,1.1236367999808863,1240.0888381999976,None,1241.2445859000145,None,1241.7597202000034,None,1241.7597202000034,None,f,1.6928925999964122,1241.7597202000034,None,,,color37,001,2022_Apr_21_1054,ProdSingRedo,3.2.3,59.98404424493943,
,,,,126,0,126,0,,,,,,,,,,,,,,,,,,,,,,,,1245.883341400011,None,,,,,,,,,,,,,,,,,right,new_aloud,red,126,145,265,1244.0060222000175,None,1244.0060222000175,None,3,1.1667159000062384,1244.0060222000175,None,1245.2103124000132,None,1245.7355960000132,None,1245.7355960000132,None,n,0.10899030001019128,1245.7355960000132,None,,,color37,001,2022_Apr_21_1054,ProdSingRedo,3.2.3,59.98404424493943,
,,,,127,0,127,0,,,,,,,,,,,,,,,,,,,,,,,,1248.48870419999,None,,,,,,,,,,,,,,,,,piece,new_aloud,red,127,144,221,1246.4055865000119,None,1246.4055865000119,None,3,0.9750423999794293,1246.4055865000119,None,1247.4261741999944,None,1247.93725670001,None,1247.93725670001,None,n,0.5234095000196248,1247.93725670001,None,,,color37,001,2022_Apr_21_1054,ProdSingRedo,3.2.3,59.98404424493943,
,,,,128,0,128,0,,,,,,,,,,,,,,,,,,,,,,,,1250.687808000017,None,,,,,,,,,,,,,,,,,murder,new_aloud,red,128,124,195,1249.0143438999949,None,1249.0143438999949,None,2,0.974408099980792,1249.0143438999949,None,1250.0339671999973,None,1250.5587522000133,None,1250.5587522000133,None,n,0.09389570000348613,1250.5587522000133,None,,,color37,001,2022_Apr_21_1054,ProdSingRedo,3.2.3,59.98404424493943,
,,,,129,0,129,0,,,,,,,,,,,,,,,,,,,,,,,,1253.7739161000063,None,,,,,,,,,,,,,,,,,disease,new_sing,yellow,129,96,97,1251.2153381000098,None,1251.2153381000098,None,1,1.4374559999851044,1251.2153381000098,None,1252.7078743000166,None,1253.2253735999984,None,1253.2253735999984,None,n,0.5151593999762554,1253.2253735999984,None,,,color37,001,2022_Apr_21_1054,ProdSingRedo,3.2.3,59.98404424493943,
,,,,130,0,130,0,,,,,,,,,,,,,,,,,,,,,,,,1256.1191354000184,None,,,,,,,,,,,,,,,,,hunger,new_sing,yellow,130,109,155,1254.2970475000038,None,1254.2970475000038,None,1,1.1874671000114176,1254.2970475000038,None,1255.5277379000036,None,1256.0384000999911,None,1256.0384000999911,None,n,0.06183749999036081,1256.0384000999911,None,,,color37,001,2022_Apr_21_1054,ProdSingRedo,3.2.3,59.98404424493943,
,,,,131,0,131,0,,,,,,,,,,,,,,,,,,,,,,,,1258.4622873000044,None,,,,,,,,,,,,,,,,,enemy,silent,blue,131,62,113,1256.6244024999905,None,1256.6244024999905,None,2,1.2438747999840416,1256.6244024999905,None,1257.8896566000185,None,1258.4153334000148,None,1258.4153334000148,None,n,0.02145959998597391,1258.4153334000148,None,,,color37,001,2022_Apr_21_1054,ProdSingRedo,3.2.3,59.98404424493943,
,,,,132,0,132,0,,,,,,,,,,,,,,,,,,,,,,,,1263.0655602000188,None,,,,,,,,,,,,,,,,,relation,aloud,red,132,59,257,1258.9918957999907,None,1258.9918957999907,None,6,3.4367382999917027,1258.9918957999907,None,1262.4806134999963,None,1262.9877072999952,None,1262.9877072999952,None,r,0.04092629998922348,1262.9877072999952,None,,,color37,001,2022_Apr_21_1054,ProdSingRedo,3.2.3,59.98404424493943,
,,,,133,0,133,0,,,,,,,,,,,,,,,,,,,,,,,,1268.691827200004,None,,,,,,,,,,,,,,,,,pancakes,new_silent,blue,133,171,210,1263.5952318999916,None,1263.5952318999916,None,3,3.057459099974949,1263.5952318999916,None,1266.7090220999962,None,1267.2275400999933,None,1267.2275400999933,None,n,1.4332506000064313,1267.2275400999933,None,,,color37,001,2022_Apr_21_1054,ProdSingRedo,3.2.3,59.98404424493943,
,,,,134,0,134,0,,,,,,,,,,,,,,,,,,,,,,,,1271.9920135000139,None,,,,,,,,,,,,,,,,,society,aloud,red,134,43,293,1269.2154952000128,None,1269.2154952000128,None,4,1.8452538000128698,1269.2154952000128,None,1271.1045420000155,None,1271.627632799995,None,1271.627632799995,None,r,0.329088700003922,1271.627632799995,None,,,color37,001,2022_Apr_21_1054,ProdSingRedo,3.2.3,59.98404424493943,
,,,,135,0,135,0,,,,,,,,,,,,,,,,,,,,,,,,1274.4465024000092,None,,,,,,,,,,,,,,,,,background,new_silent,blue,135,167,16,1272.5297688000137,None,1272.5297688000137,None,3,1.1469501000246964,1272.5297688000137,None,1273.734543300001,None,1274.2514864999976,None,1274.2514864999976,None,n,0.16114620000007562,1274.2514864999976,None,,,color37,001,2022_Apr_21_1054,ProdSingRedo,3.2.3,59.98404424493943,
,,,,136,0,136,0,,,,,,,,,,,,,,,,,,,,,,,,1277.0641137000057,None,,,,,,,,,,,,,,,,,fight,new_silent,blue,136,169,127,1274.9725506000104,None,1274.9725506000104,None,3,1.432168700004695,1274.9725506000104,None,1276.4466524000163,None,1276.966202200012,None,1276.966202200012,None,n,0.06244999999762513,1276.966202200012,None,,,color37,001,2022_Apr_21_1054,ProdSingRedo,3.2.3,59.98404424493943,
,,,,137,0,137,0,,,,,,,,,,,,,,,,,,,,,,,,1279.7674407000013,None,,,,,,,,,,,,,,,,,theme,aloud,red,137,46,326,1277.598232599994,None,1277.598232599994,None,5,1.3023883000132628,1277.598232599994,None,1278.9459687999915,None,1279.464925200009,None,1279.464925200009,None,r,0.2756865000119433,1279.464925200009,None,,,color37,001,2022_Apr_21_1054,ProdSingRedo,3.2.3,59.98404424493943,
,,,,138,0,138,0,,,,,,,,,,,,,,,,,,,,,,,,1283.0557606999937,None,,,,,,,,,,,,,,,,,detective,new_aloud,red,138,131,92,1280.2947096000134,None,1280.2947096000134,None,3,1.165823499992257,1280.2947096000134,None,1281.502095200005,None,1282.0240420000046,None,1282.0240420000046,None,n,1.0048741000064183,1282.0240420000046,None,,,color37,001,2022_Apr_21_1054,ProdSingRedo,3.2.3,59.98404424493943,
,,,,139,0,139,0,,,,,,,,,,,,,,,,,,,,,,,,1285.4891179999977,None,,,,,,,,,,,,,,,,,audience,aloud,red,139,37,14,1283.5831326000043,None,1283.5831326000043,None,5,1.0934463999874424,1283.5831326000043,None,1284.716590600001,None,1285.2421790999942,None,1285.2421790999942,None,r,0.21030969999264926,1285.2421790999942,None,,,color37,001,2022_Apr_21_1054,ProdSingRedo,3.2.3,59.98404424493943,
,,,,140,0,140,0,,,,,,,,,,,,,,,,,,,,,,,,1288.308062199998,None,,,,,,,,,,,,,,,,,phrase,new_aloud,red,140,122,220,1286.016071399994,None,1286.016071399994,None,3,1.164129699987825,1286.016071399994,None,1287.20026089999,None,1287.7014087999996,None,1287.7014087999996,None,n,0.575342099997215,1287.7014087999996,None,,,color37,001,2022_Apr_21_1054,ProdSingRedo,3.2.3,59.98404424493943,
,,,,141,0,141,0,,,,,,,,,,,,,,,,,,,,,,,,1294.0142299,None,,,,,,,,,,,,,,,,,personnel,new_silent,blue,141,168,219,1288.8293943000026,None,1288.8293943000026,None,2,3.294949600007385,1288.8293943000026,None,1292.1560064000078,None,1292.6643848000094,None,1292.6643848000094,None,n,1.3166993999911938,1292.6643848000094,None,,,color37,001,2022_Apr_21_1054,ProdSingRedo,3.2.3,59.98404424493943,
,,,,142,0,142,0,,,,,,,,,,,,,,,,,,,,,,,,1296.9066158999922,None,,,,,,,,,,,,,,,,,court,sing,yellow,142,25,75,1294.5409830000135,None,1294.5409830000135,None,5,1.3597144999948796,1294.5409830000135,None,1295.9503619000025,None,1296.468214499997,None,1296.468214499997,None,r,0.40065479997429065,1296.468214499997,None,,,color37,001,2022_Apr_21_1054,ProdSingRedo,3.2.3,59.98404424493943,
,,,,143,0,143,0,,,,,,,,,,,,,,,,,,,,,,,,1300.3731449999905,None,,,,,,,,,,,,,,,,,general,new_aloud,red,143,134,135,1297.4319656000007,None,1297.4319656000007,None,4,2.1887072999961674,1297.4319656000007,None,1299.6669990000082,None,1300.1915537000168,None,1300.1915537000168,None,f,0.14914170000702143,1300.1915537000168,None,,,color37,001,2022_Apr_21_1054,ProdSingRedo,3.2.3,59.98404424493943,
,,,,144,0,144,0,,,,,,,,,,,,,,,,,,,,,,,,1304.4749134000158,None,,,,,,,,,,,,,,,,,travel,new_silent,blue,144,173,338,1300.902757600008,None,1300.902757600008,None,4,2.7659036999975797,1300.902757600008,None,1303.7091023999965,None,1304.2300530000066,None,1304.2300530000066,None,f,0.20665619999635965,1304.2300530000066,None,,,color37,001,2022_Apr_21_1054,ProdSingRedo,3.2.3,59.98404424493943,
,,,,145,0,145,0,,,,,,,,,,,,,,,,,,,,,,,,1306.736603199999,None,,,,,,,,,,,,,,,,,measure,aloud,red,145,49,184,1305.005686599994,None,1305.005686599994,None,5,1.0871215999941342,1305.005686599994,None,1306.1468891999975,None,1306.6658786000044,None,1306.6658786000044,None,f,0.05050660000415519,1306.6658786000044,None,,,color37,001,2022_Apr_21_1054,ProdSingRedo,3.2.3,59.98404424493943,
,,,,146,0,146,0,,,,,,,,,,,,,,,,,,,,,,,,1309.4326389000053,None,,,,,,,,,,,,,,,,,victory,new_aloud,red,146,121,346,1307.256766800012,None,1307.256766800012,None,3,1.1957142000028398,1307.256766800012,None,1308.4970367999922,None,1309.0132643000106,None,1309.0132643000106,None,n,0.39136879998841323,1309.0132643000106,None,,,color37,001,2022_Apr_21_1054,ProdSingRedo,3.2.3,59.98404424493943,
,,,,147,0,147,0,,,,,,,,,,,,,,,,,,,,,,,,1315.1208964000107,None,,,,,,,,,,,,,,,,,republic,new_silent,blue,147,177,260,1309.959479800018,None,1309.959479800018,None,4,4.213181300001452,1309.959479800018,None,1314.213589299994,None,1314.740072000015,None,1314.740072000015,None,f,0.3525604000024032,1314.740072000015,None,,,color37,001,2022_Apr_21_1054,ProdSingRedo,3.2.3,59.98404424493943,
,,,,148,0,148,0,,,,,,,,,,,,,,,,,,,,,,,,1318.5013804000046,None,,,,,,,,,,,,,,,,,patient,new_sing,yellow,148,119,213,1315.6438583999989,None,1315.6438583999989,None,3,2.080400600010762,1315.6438583999989,None,1317.7550591000181,None,1318.2648920000065,None,1318.2648920000065,None,n,0.20348109997576103,1318.2648920000065,None,,,color37,001,2022_Apr_21_1054,ProdSingRedo,3.2.3,59.98404424493943,
,,,,149,0,149,0,,,,,,,,,,,,,,,,,,,,,,,,1321.0343135000148,None,,,,,,,,,,,,,,,,,equipment,new_silent,blue,149,158,116,1319.037677300017,None,1319.037677300017,None,2,1.3589991999906488,1319.037677300017,None,1320.4439146000077,None,1320.9642200999951,None,1320.9642200999951,None,n,0.04014299999107607,1320.9642200999951,None,,,color37,001,2022_Apr_21_1054,ProdSingRedo,3.2.3,59.98404424493943,
,,,,150,0,150,0,,,,,,,,,,,,,,,,,,,,,,,,1324.0953945000074,None,,,,,,,,,,,,,,,,,trend,sing,yellow,150,18,340,1321.5461055999913,None,1321.5461055999913,None,4,1.570452900021337,1321.5461055999913,None,1323.1552259000018,None,1323.673873199994,None,1323.673873199994,None,f,0.3869176000007428,1323.673873199994,None,,,color37,001,2022_Apr_21_1054,ProdSingRedo,3.2.3,59.98404424493943,
,,,,151,0,151,0,,,,,,,,,,,,,,,,,,,,,,,,1326.9155788999924,None,,,,,,,,,,,,,,,,,balance,sing,yellow,151,27,17,1324.6209704999928,None,1324.6209704999928,None,5,1.1437047999934293,1324.6209704999928,None,1325.8150059999898,None,1326.3333932000096,None,1326.3333932000096,None,r,0.5512632000027224,1326.3333932000096,None,,,color37,001,2022_Apr_21_1054,ProdSingRedo,3.2.3,59.98404424493943,
,,,,152,0,152,0,,,,,,,,,,,,,,,,,,,,,,,,1329.3688571999955,None,,,,,,,,,,,,,,,,,gesture,new_silent,blue,152,150,137,1327.4381440000143,None,1327.4381440000143,None,2,1.254668000008678,1327.4381440000143,None,1328.7286060999904,None,1329.2528205999988,None,1329.2528205999988,None,n,0.08802110000397079,1329.2528205999988,None,,,color37,001,2022_Apr_21_1054,ProdSingRedo,3.2.3,59.98404424493943,
,,,,153,0,153,0,,,,,,,,,,,,,,,,,,,,,,,,1332.0337246000126,None,,,,,,,,,,,,,,,,,object,silent,blue,153,60,204,1329.8953541000083,None,1329.8953541000083,None,3,1.5093600999971386,1329.8953541000083,None,1331.455790100008,None,1331.9747487000132,None,1331.9747487000132,None,n,0.029661999986274168,1331.9747487000132,None,,,color37,001,2022_Apr_21_1054,ProdSingRedo,3.2.3,59.98404424493943,
,,,,154,0,154,0,,,,,,,,,,,,,,,,,,,,,,,,1335.2403768000077,None,,,,,,,,,,,,,,,,,executive,silent,blue,154,77,122,1332.5620513000176,None,1332.5620513000176,None,5,1.6029535999987274,1332.5620513000176,None,1334.210872800002,None,1334.7269411000016,None,1334.7269411000016,None,r,0.485579800006235,1334.7269411000016,None,,,color37,001,2022_Apr_21_1054,ProdSingRedo,3.2.3,59.98404424493943,
,,,,155,0,155,0,,,,,,,,,,,,,,,,,,,,,,,,1338.3408232000074,None,,,,,,,,,,,,,,,,,universal,new_aloud,red,155,140,345,1335.7708962000033,None,1335.7708962000033,None,2,1.401884599996265,1335.7708962000033,None,1337.2247439000057,None,1337.7500765000004,None,1337.7500765000004,None,n,0.5587595000106376,1337.7500765000004,None,,,color37,001,2022_Apr_21_1054,ProdSingRedo,3.2.3,59.98404424493943,
,,,,156,0,156,0,,,,,,,,,,,,,,,,,,,,,,,,1340.9633555000182,None,,,,,,,,,,,,,,,,,drink,new_sing,yellow,156,116,105,1338.8654098999978,None,1338.8654098999978,None,3,1.163334599987138,1338.8654098999978,None,1340.0775379000115,None,1340.5956553000142,None,1340.5956553000142,None,n,0.32891499999095686,1340.5956553000142,None,,,color37,001,2022_Apr_21_1054,ProdSingRedo,3.2.3,59.98404424493943,
,,,,157,0,157,0,,,,,,,,,,,,,,,,,,,,,,,,1345.1916445000097,None,,,,,,,,,,,,,,,,,profession,sing,yellow,157,2,241,1341.4901776000042,None,1341.4901776000042,None,6,3.090620200004196,1341.4901776000042,None,1344.6262706000125,None,1345.1480485000066,None,1345.1480485000066,None,r,0.016219500015722588,1345.1480485000066,None,,,color37,001,2022_Apr_21_1054,ProdSingRedo,3.2.3,59.98404424493943,
,,,,158,0,158,0,,,,,,,,,,,,,,,,,,,,,,,,1347.9016536000127,None,,,,,,,,,,,,,,,,,material,sing,yellow,158,29,182,1345.7074826000025,None,1345.7074826000025,None,6,1.0731673999980558,1345.7074826000025,None,1346.8387275999994,None,1347.3438082000066,None,1347.3438082000066,None,r,0.5250718999886885,1347.3438082000066,None,,,color37,001,2022_Apr_21_1054,ProdSingRedo,3.2.3,59.98404424493943,
,,,,159,0,159,0,,,,,,,,,,,,,,,,,,,,,,,,1350.9386913999915,None,,,,,,,,,,,,,,,,,instrument,silent,blue,159,70,163,1348.4309549000172,None,1348.4309549000172,None,3,1.3176023999985773,1348.4309549000172,None,1349.8034732000087,None,1350.3248740000126,None,1350.3248740000126,None,f,0.5757441000023391,1350.3248740000126,None,,,color37,001,2022_Apr_21_1054,ProdSingRedo,3.2.3,59.98404424493943,
,,,,160,0,160,0,,,,,,,,,,,,,,,,,,,,,,,,1354.541942700016,None,,,,,,,,,,,,,,,,,carry,silent,blue,160,89,43,1351.4678582999913,None,1351.4678582999913,None,3,1.4010438999976031,1351.4678582999913,None,1352.9252916999976,None,1353.4464753000066,None,1353.4464753000066,None,n,1.0700199000129942,1353.4464753000066,None,,,color37,001,2022_Apr_21_1054,ProdSingRedo,3.2.3,59.98404424493943,
,,,,161,0,161,0,,,,,,,,,,,,,,,,,,,,,,,,1360.0810522999964,None,,,,,,,,,,,,,,,,,provision,sing,yellow,161,28,243,1355.072319800005,None,1355.072319800005,None,4,4.204230200004531,1355.072319800005,None,1359.3250348000147,None,1359.8500622000138,None,1359.8500622000138,None,f,0.20245209999848157,1359.8500622000138,None,,,color37,001,2022_Apr_21_1054,ProdSingRedo,3.2.3,59.98404424493943,
,,,,162,0,162,0,,,,,,,,,,,,,,,,,,,,,,,,1362.716558300017,None,,,,,,,,,,,,,,,,,conference,aloud,red,162,53,66,1360.6078507000057,None,1360.6078507000057,None,5,1.3087163000018336,1360.6078507000057,None,1361.96743650001,None,1362.477702300006,None,1362.477702300006,None,r,0.2148641999810934,1362.477702300006,None,,,color37,001,2022_Apr_21_1054,ProdSingRedo,3.2.3,59.98404424493943,
,,,,163,0,163,0,,,,,,,,,,,,,,,,,,,,,,,,1365.3919442000042,None,,,,,,,,,,,,,,,,,pretty,new_sing,yellow,163,98,233,1363.2417925999907,None,1363.2417925999907,None,1,1.4749461000028532,1363.2417925999907,None,1364.7612036000064,None,1365.2722146000015,None,1365.2722146000015,None,n,0.07640920000267215,1365.2722146000015,None,,,color37,001,2022_Apr_21_1054,ProdSingRedo,3.2.3,59.98404424493943,
,,,,164,0,164,0,,,,,,,,,,,,,,,,,,,,,,,,1368.8054258000047,None,,,,,,,,,,,,,,,,,birth,new_aloud,red,164,136,22,1365.9122695999977,None,1365.9122695999977,None,4,1.9722915999882389,1365.9122695999977,None,1367.9389023999975,None,1368.4673702,None,1368.4673702,None,f,0.3052451999974437,1368.4673702,None,,,color37,001,2022_Apr_21_1054,ProdSingRedo,3.2.3,59.98404424493943,
,,,,165,0,165,0,,,,,,,,,,,,,,,,,,,,,,,,1371.9263162999996,None,,,,,,,,,,,,,,,,,session,new_silent,blue,165,151,281,1369.3259331000154,None,1369.3259331000154,None,2,1.5185885000100825,1369.3259331000154,None,1370.8872530999943,None,1371.401430900005,None,1371.401430900005,None,n,0.4992047999985516,1371.401430900005,None,,,color37,001,2022_Apr_21_1054,ProdSingRedo,3.2.3,59.98404424493943,
,,,,166,0,166,0,,,,,,,,,,,,,,,,,,,,,,,,1374.782087700005,None,,,,,,,,,,,,,,,,,display,silent,blue,166,79,98,1372.4559251000173,None,1372.4559251000173,None,2,1.4849475999944843,1372.4559251000173,None,1373.9942495000141,None,1374.5248241999943,None,1374.5248241999943,None,n,0.2317330999940168,1374.5248241999943,None,,,color37,001,2022_Apr_21_1054,ProdSingRedo,3.2.3,59.98404424493943,
,,,,167,0,167,0,,,,,,,,,,,,,,,,,,,,,,,,1377.040865499992,None,,,,,,,,,,,,,,,,,tennis,new_silent,blue,167,157,323,1375.3023684000073,None,1375.3023684000073,None,1,1.1103489999950398,1375.3023684000073,None,1376.4560214999947,None,1376.9663728000014,None,1376.9663728000014,None,n,0.04577090000384487,1376.9663728000014,None,,,color37,001,2022_Apr_21_1054,ProdSingRedo,3.2.3,59.98404424493943,
,,,,168,0,168,0,,,,,,,,,,,,,,,,,,,,,,,,1381.165383500018,None,,,,,,,,,,,,,,,,,touch,sing,yellow,168,17,332,1377.5427036000183,None,1377.5427036000183,None,2,2.9096198999905027,1377.5427036000183,None,1380.4823552000162,None,1380.9940146000008,None,1380.9940146000008,None,n,0.12256490002619103,1380.9940146000008,None,,,color37,001,2022_Apr_21_1054,ProdSingRedo,3.2.3,59.98404424493943,
,,,,169,0,169,0,,,,,,,,,,,,,,,,,,,,,,,,1383.6698120000074,None,,,,,,,,,,,,,,,,,tough,new_silent,blue,169,174,333,1381.693597000005,None,1381.693597000005,None,3,1.367148699995596,1381.693597000005,None,1383.102940700017,None,1383.6134780000139,None,1383.6134780000139,None,n,0.022850400011520833,1383.6134780000139,None,,,color37,001,2022_Apr_21_1054,ProdSingRedo,3.2.3,59.98404424493943,
,,,,170,0,170,0,,,,,,,,,,,,,,,,,,,,,,,,1386.4241137999925,None,,,,,,,,,,,,,,,,,department,silent,blue,170,88,90,1384.196878000017,None,1384.196878000017,None,3,1.2397688999772072,1384.196878000017,None,1385.4856063000043,None,1386.0116732000024,None,1386.0116732000024,None,n,0.3848946999933105,1386.0116732000024,None,,,color37,001,2022_Apr_21_1054,ProdSingRedo,3.2.3,59.98404424493943,
,,,,171,0,171,0,,,,,,,,,,,,,,,,,,,,,,,,1389.5403893000039,None,,,,,,,,,,,,,,,,,turkey,new_sing,yellow,171,94,342,1386.9554608000035,None,1386.9554608000035,None,1,1.9290686000022106,1386.9554608000035,None,1388.931819599995,None,1389.449989899993,None,1389.449989899993,None,n,0.06644819999928586,1389.449989899993,None,,,color37,001,2022_Apr_21_1054,ProdSingRedo,3.2.3,59.98404424493943,
,,,,172,0,172,0,,,,,,,,,,,,,,,,,,,,,,,,1392.2631762000092,None,,,,,,,,,,,,,,,,,device,new_aloud,red,172,128,93,1390.0705336999963,None,1390.0705336999963,None,1,1.4224765000108164,1390.0705336999963,None,1391.5461317000154,None,1392.0675971000164,None,1392.0675971000164,None,n,0.16929820002405904,1392.0675971000164,None,,,color37,001,2022_Apr_21_1054,ProdSingRedo,3.2.3,59.98404424493943,
,,,,173,0,173,0,,,,,,,,,,,,,,,,,,,,,,,,1395.3503824000072,None,,,,,,,,,,,,,,,,,engineer,aloud,red,173,51,114,1392.7904045000032,None,1392.7904045000032,None,6,1.470149799977662,1392.7904045000032,None,1394.3104456000146,None,1394.8347742999904,None,1394.8347742999904,None,r,0.4818902999977581,1394.8347742999904,None,,,color37,001,2022_Apr_21_1054,ProdSingRedo,3.2.3,59.98404424493943,
,,,,174,0,174,0,,,,,,,,,,,,,,,,,,,,,,,,1399.7525817000133,None,,,,,,,,,,,,,,,,,shock,new_silent,blue,174,155,284,1395.8743422999978,None,1395.8743422999978,None,3,3.1303555999766104,1395.8743422999978,None,1399.0474539000134,None,1399.5713666999945,None,1399.5713666999945,None,n,0.15329809999093413,1399.5713666999945,None,,,color37,001,2022_Apr_21_1054,ProdSingRedo,3.2.3,59.98404424493943,
,,,,175,0,175,0,,,,,,,,,,,,,,,,,,,,,,,,1402.9055007999996,None,,,,,,,,,,,,,,,,,crisis,new_silent,blue,175,170,79,1400.273921999993,None,1400.273921999993,None,4,1.1787945000105537,1400.273921999993,None,1401.499473600008,None,1402.0059943000088,None,1402.0059943000088,None,n,0.8626571999920998,1402.0059943000088,None,,,color37,001,2022_Apr_21_1054,ProdSingRedo,3.2.3,59.98404424493943,
,,,,176,0,176,0,,,,,,,,,,,,,,,,,,,,,,,,1405.5480659000168,None,,,,,,,,,,,,,,,,,design,sing,yellow,176,5,91,1403.439746899996,None,1403.439746899996,None,5,1.2849115999997593,1403.439746899996,None,1404.7735168999934,None,1405.2978405000176,None,1405.2978405000176,None,r,0.21903949999250472,1405.2978405000176,None,,,color37,001,2022_Apr_21_1054,ProdSingRedo,3.2.3,59.98404424493943,
,,,,177,0,177,0,,,,,,,,,,,,,,,,,,,,,,,,1408.2498286000045,None,,,,,,,,,,,,,,,,,level,aloud,red,177,40,170,1406.0688894999912,None,1406.0688894999912,None,5,1.367369100014912,1406.0688894999912,None,1407.4577685999975,None,1407.9808317999996,None,1407.9808317999996,None,r,0.23178679999546148,1407.9808317999996,None,,,color37,001,2022_Apr_21_1054,ProdSingRedo,3.2.3,59.98404424493943,
,,,,178,0,178,0,,,,,,,,,,,,,,,,,,,,,,,,1410.9753545999993,None,,,,,,,,,,,,,,,,,broad,new_aloud,red,178,148,31,1408.768639499991,None,1408.768639499991,None,2,1.5878969999903347,1408.768639499991,None,1410.3987691999937,None,1410.9178141000157,None,1410.9178141000157,None,n,0.030535400001099333,1410.9178141000157,None,,,color37,001,2022_Apr_21_1054,ProdSingRedo,3.2.3,59.98404424493943,
,,,,179,0,179,0,,,,,,,,,,,,,,,,,,,,,,,,1413.8494753999985,None,,,,,,,,,,,,,,,,,native,silent,blue,179,65,199,1411.4948653000174,None,1411.4948653000174,None,6,1.4458365999744274,1411.4948653000174,None,1412.9857537999924,None,1413.5054735000012,None,1413.5054735000012,None,r,0.2991223999997601,1413.5054735000012,None,,,color37,001,2022_Apr_21_1054,ProdSingRedo,3.2.3,59.98404424493943,
,,,,,,,,,,,,,,,,,,,,,,,,,,,,,,,,,,,,,,,,,,,,,,,,,,,,,,,,,,,,,,,,,,,,,,,,,1414.3615073999972,None,,,,,,,
