StudyLoop.thisRepN,StudyLoop.thisTrialN,StudyLoop.thisN,StudyLoop.thisIndex,TestLoop.thisRepN,TestLoop.thisTrialN,TestLoop.thisN,TestLoop.thisIndex,textCondition.started,textCondition.stopped,keyCondition.keys,keyCondition.rt,keyCondition.started,keyCondition.stopped,Condition,stim_colors,color_sing,color_aloud,color_silent,textWelcome.started,textWelcome.stopped,keyWelcome.keys,keyWelcome.rt,keyWelcome.started,keyWelcome.stopped,textAloud.started,textAloud.stopped,textSilent.started,textSilent.stopped,textSing.started,textSing.stopped,textBlank500.started,textBlank500.stopped,study_word,study_type,study_color,study_num,study_word_num,textStudy.started,textStudy.stopped,keyStudy.keys,keyStudy.started,keyStudy.stopped,textTestInstructions.started,textTestInstructions.stopped,key_resp_3.keys,key_resp_3.rt,key_resp_3.started,key_resp_3.stopped,testWord,testType,testColor,testN,test_num,test_word_num,textConf.started,textConf.stopped,textConfScale.started,textConfScale.stopped,keyConf.keys,keyConf.rt,keyConf.started,keyConf.stopped,textTestBlank.started,textTestBlank.stopped,textRKN.started,textRKN.stopped,textRKNScale.started,textRKNScale.stopped,keyRKN.keys,keyRKN.rt,keyRKN.started,keyRKN.stopped,textEnd.started,textEnd.stopped,participant,session,date,expName,psychopyVersion,frameRate,
,,,,,,,,17.429619200062007,None,y,4.4857761999592185,17.429619200062007,None,,,,,,,,,,,,,,,,,,,,,,,,,,,,,,,,,,,,,,,,,,,,,,,,,,,,,,,,,,,,,,color18,001,2021_Nov_01_1551,ProdSingRedo,3.2.3,60.05230552294829,
,,,,,,,,,,,,,,ColoredTest,"['blue', 'red', 'yellow']",blue,red,yellow,21.977055200142786,None,space,4166.82933670003,21.977055200142786,None,,,,,,,,,,,,,,,,,,,,,,,,,,,,,,,,,,,,,,,,,,,,,,,,,,,color18,001,2021_Nov_01_1551,ProdSingRedo,3.2.3,60.05230552294829,
0,0,0,0,,,,,,,,,,,,,,,,,,,,,,21.977055200142786,None,21.977055200142786,None,21.977055200142786,None,4191.352770500118,None,error,aloud,red,53,117,4189.345182200195,None,None,4189.345182200195,None,,,,,,,,,,,,,,,,,,,,,,,,,,,,,,,,,color18,001,2021_Nov_01_1551,ProdSingRedo,3.2.3,60.05230552294829,
1,0,1,0,,,,,,,,,,,,,,,,,,,,,,,,,,,,4193.871925200103,None,disease,silent,yellow,77,97,4191.877245899988,None,None,4191.877245899988,None,,,,,,,,,,,,,,,,,,,,,,,,,,,,,,,,,color18,001,2021_Nov_01_1551,ProdSingRedo,3.2.3,60.05230552294829,
2,0,2,0,,,,,,,,,,,,,,,,,,,,,,,,,,,,4196.391127100214,None,point,silent,yellow,88,226,4194.379172099987,None,None,4194.379172099987,None,,,,,,,,,,,,,,,,,,,,,,,,,,,,,,,,,color18,001,2021_Nov_01_1551,ProdSingRedo,3.2.3,60.05230552294829,
3,0,3,0,,,,,,,,,,,,,,,,,,,,,,,,,,,,4198.9103330001235,None,owner,aloud,red,44,208,4196.897982500028,None,None,4196.897982500028,None,,,,,,,,,,,,,,,,,,,,,,,,,,,,,,,,,color18,001,2021_Nov_01_1551,ProdSingRedo,3.2.3,60.05230552294829,
4,0,4,0,,,,,,,,,,,,,,,,,,,,,,,,,,,,4201.429518399993,None,comedy,aloud,red,52,58,4199.429835100193,None,None,4199.429835100193,None,,,,,,,,,,,,,,,,,,,,,,,,,,,,,,,,,color18,001,2021_Nov_01_1551,ProdSingRedo,3.2.3,60.05230552294829,
5,0,5,0,,,,,,,,,,,,,,,,,,,,,,,,,,,,4203.948691600002,None,tennis,sing,blue,17,323,4201.935793400044,None,None,4201.935793400044,None,,,,,,,,,,,,,,,,,,,,,,,,,,,,,,,,,color18,001,2021_Nov_01_1551,ProdSingRedo,3.2.3,60.05230552294829,
6,0,6,0,,,,,,,,,,,,,,,,,,,,,,,,,,,,4206.4678785,None,afternoon,sing,blue,11,3,4204.459398700157,None,None,4204.459398700157,None,,,,,,,,,,,,,,,,,,,,,,,,,,,,,,,,,color18,001,2021_Nov_01_1551,ProdSingRedo,3.2.3,60.05230552294829,
7,0,7,0,,,,,,,,,,,,,,,,,,,,,,,,,,,,4208.987074700184,None,working,aloud,red,48,357,4206.988447400043,None,None,4206.988447400043,None,,,,,,,,,,,,,,,,,,,,,,,,,,,,,,,,,color18,001,2021_Nov_01_1551,ProdSingRedo,3.2.3,60.05230552294829,
8,0,8,0,,,,,,,,,,,,,,,,,,,,,,,,,,,,4211.505825900007,None,phrase,aloud,red,56,220,4209.500728300074,None,None,4209.500728300074,None,,,,,,,,,,,,,,,,,,,,,,,,,,,,,,,,,color18,001,2021_Nov_01_1551,ProdSingRedo,3.2.3,60.05230552294829,
9,0,9,0,,,,,,,,,,,,,,,,,,,,,,,,,,,,4214.008822500007,None,research,silent,yellow,81,261,4212.006598100066,None,None,4212.006598100066,None,,,,,,,,,,,,,,,,,,,,,,,,,,,,,,,,,color18,001,2021_Nov_01_1551,ProdSingRedo,3.2.3,60.05230552294829,
10,0,10,0,,,,,,,,,,,,,,,,,,,,,,,,,,,,4216.527892200043,None,nature,sing,blue,22,200,4214.524403300136,None,None,4214.524403300136,None,,,,,,,,,,,,,,,,,,,,,,,,,,,,,,,,,color18,001,2021_Nov_01_1551,ProdSingRedo,3.2.3,60.05230552294829,
11,0,11,0,,,,,,,,,,,,,,,,,,,,,,,,,,,,4219.046825500205,None,youth,sing,blue,14,359,4217.040146700107,None,None,4217.040146700107,None,,,,,,,,,,,,,,,,,,,,,,,,,,,,,,,,,color18,001,2021_Nov_01_1551,ProdSingRedo,3.2.3,60.05230552294829,
12,0,12,0,,,,,,,,,,,,,,,,,,,,,,,,,,,,4221.549602000043,None,present,silent,yellow,74,231,4219.547442100011,None,None,4219.547442100011,None,,,,,,,,,,,,,,,,,,,,,,,,,,,,,,,,,color18,001,2021_Nov_01_1551,ProdSingRedo,3.2.3,60.05230552294829,
13,0,13,0,,,,,,,,,,,,,,,,,,,,,,,,,,,,4224.068859999999,None,murder,sing,blue,26,195,4222.065807300154,None,None,4222.065807300154,None,,,,,,,,,,,,,,,,,,,,,,,,,,,,,,,,,color18,001,2021_Nov_01_1551,ProdSingRedo,3.2.3,60.05230552294829,
14,0,14,0,,,,,,,,,,,,,,,,,,,,,,,,,,,,4226.587975000031,None,bitter,silent,yellow,68,23,4224.582671000157,None,None,4224.582671000157,None,,,,,,,,,,,,,,,,,,,,,,,,,,,,,,,,,color18,001,2021_Nov_01_1551,ProdSingRedo,3.2.3,60.05230552294829,
15,0,15,0,,,,,,,,,,,,,,,,,,,,,,,,,,,,4229.107168900082,None,frank,aloud,red,51,133,4227.10135160014,None,None,4227.10135160014,None,,,,,,,,,,,,,,,,,,,,,,,,,,,,,,,,,color18,001,2021_Nov_01_1551,ProdSingRedo,3.2.3,60.05230552294829,
16,0,16,0,,,,,,,,,,,,,,,,,,,,,,,,,,,,4231.626364400145,None,husband,silent,yellow,89,156,4229.624145300128,None,None,4229.624145300128,None,,,,,,,,,,,,,,,,,,,,,,,,,,,,,,,,,color18,001,2021_Nov_01_1551,ProdSingRedo,3.2.3,60.05230552294829,
17,0,17,0,,,,,,,,,,,,,,,,,,,,,,,,,,,,4234.145548700122,None,community,sing,blue,3,63,4232.142264600145,None,None,4232.142264600145,None,,,,,,,,,,,,,,,,,,,,,,,,,,,,,,,,,color18,001,2021_Nov_01_1551,ProdSingRedo,3.2.3,60.05230552294829,
18,0,18,0,,,,,,,,,,,,,,,,,,,,,,,,,,,,4236.66468590009,None,society,silent,yellow,86,293,4234.655293700052,None,None,4234.655293700052,None,,,,,,,,,,,,,,,,,,,,,,,,,,,,,,,,,color18,001,2021_Nov_01_1551,ProdSingRedo,3.2.3,60.05230552294829,
19,0,19,0,,,,,,,,,,,,,,,,,,,,,,,,,,,,4239.183927000035,None,carry,sing,blue,20,43,4237.178739800118,None,None,4237.178739800118,None,,,,,,,,,,,,,,,,,,,,,,,,,,,,,,,,,color18,001,2021_Nov_01_1551,ProdSingRedo,3.2.3,60.05230552294829,
20,0,20,0,,,,,,,,,,,,,,,,,,,,,,,,,,,,4241.702748800162,None,public,aloud,red,46,244,4239.699034500169,None,None,4239.699034500169,None,,,,,,,,,,,,,,,,,,,,,,,,,,,,,,,,,color18,001,2021_Nov_01_1551,ProdSingRedo,3.2.3,60.05230552294829,
21,0,21,0,,,,,,,,,,,,,,,,,,,,,,,,,,,,4244.205614500213,None,impact,sing,blue,2,157,4242.203643999994,None,None,4242.203643999994,None,,,,,,,,,,,,,,,,,,,,,,,,,,,,,,,,,color18,001,2021_Nov_01_1551,ProdSingRedo,3.2.3,60.05230552294829,
22,0,22,0,,,,,,,,,,,,,,,,,,,,,,,,,,,,4246.724798200186,None,native,aloud,red,59,199,4244.731386200059,None,None,4244.731386200059,None,,,,,,,,,,,,,,,,,,,,,,,,,,,,,,,,,color18,001,2021_Nov_01_1551,ProdSingRedo,3.2.3,60.05230552294829,
23,0,23,0,,,,,,,,,,,,,,,,,,,,,,,,,,,,4249.2439720002,None,danger,silent,yellow,73,85,4247.238543100189,None,None,4247.238543100189,None,,,,,,,,,,,,,,,,,,,,,,,,,,,,,,,,,color18,001,2021_Nov_01_1551,ProdSingRedo,3.2.3,60.05230552294829,
24,0,24,0,,,,,,,,,,,,,,,,,,,,,,,,,,,,4251.763199200155,None,produce,aloud,red,58,239,4249.75749590015,None,None,4249.75749590015,None,,,,,,,,,,,,,,,,,,,,,,,,,,,,,,,,,color18,001,2021_Nov_01_1551,ProdSingRedo,3.2.3,60.05230552294829,
25,0,25,0,,,,,,,,,,,,,,,,,,,,,,,,,,,,4254.282356400043,None,poetry,sing,blue,12,225,4252.273097800091,None,None,4252.273097800091,None,,,,,,,,,,,,,,,,,,,,,,,,,,,,,,,,,color18,001,2021_Nov_01_1551,ProdSingRedo,3.2.3,60.05230552294829,
26,0,26,0,,,,,,,,,,,,,,,,,,,,,,,,,,,,4256.801517700078,None,grade,aloud,red,34,140,4254.794875800144,None,None,4254.794875800144,None,,,,,,,,,,,,,,,,,,,,,,,,,,,,,,,,,color18,001,2021_Nov_01_1551,ProdSingRedo,3.2.3,60.05230552294829,
27,0,27,0,,,,,,,,,,,,,,,,,,,,,,,,,,,,4259.320727900136,None,production,aloud,red,40,240,4257.3159139000345,None,None,4257.3159139000345,None,,,,,,,,,,,,,,,,,,,,,,,,,,,,,,,,,color18,001,2021_Nov_01_1551,ProdSingRedo,3.2.3,60.05230552294829,
28,0,28,0,,,,,,,,,,,,,,,,,,,,,,,,,,,,4261.839917600155,None,discussion,silent,yellow,62,96,4259.8328941999935,None,None,4259.8328941999935,None,,,,,,,,,,,,,,,,,,,,,,,,,,,,,,,,,color18,001,2021_Nov_01_1551,ProdSingRedo,3.2.3,60.05230552294829,
29,0,29,0,,,,,,,,,,,,,,,,,,,,,,,,,,,,4264.35907180002,None,meeting,sing,blue,21,187,4262.353066700045,None,None,4262.353066700045,None,,,,,,,,,,,,,,,,,,,,,,,,,,,,,,,,,color18,001,2021_Nov_01_1551,ProdSingRedo,3.2.3,60.05230552294829,
30,0,30,0,,,,,,,,,,,,,,,,,,,,,,,,,,,,4266.87828360009,None,trash,silent,yellow,66,337,4264.870641699992,None,None,4264.870641699992,None,,,,,,,,,,,,,,,,,,,,,,,,,,,,,,,,,color18,001,2021_Nov_01_1551,ProdSingRedo,3.2.3,60.05230552294829,
31,0,31,0,,,,,,,,,,,,,,,,,,,,,,,,,,,,4269.397464700043,None,territory,sing,blue,9,324,4267.388590899995,None,None,4267.388590899995,None,,,,,,,,,,,,,,,,,,,,,,,,,,,,,,,,,color18,001,2021_Nov_01_1551,ProdSingRedo,3.2.3,60.05230552294829,
32,0,32,0,,,,,,,,,,,,,,,,,,,,,,,,,,,,4271.916577100055,None,drink,sing,blue,24,105,4269.908074400155,None,None,4269.908074400155,None,,,,,,,,,,,,,,,,,,,,,,,,,,,,,,,,,color18,001,2021_Nov_01_1551,ProdSingRedo,3.2.3,60.05230552294829,
33,0,33,0,,,,,,,,,,,,,,,,,,,,,,,,,,,,4274.435830800096,None,short,silent,yellow,63,285,4272.42402460007,None,None,4272.42402460007,None,,,,,,,,,,,,,,,,,,,,,,,,,,,,,,,,,color18,001,2021_Nov_01_1551,ProdSingRedo,3.2.3,60.05230552294829,
34,0,34,0,,,,,,,,,,,,,,,,,,,,,,,,,,,,4276.955024300143,None,permit,aloud,red,45,218,4274.944139900152,None,None,4274.944139900152,None,,,,,,,,,,,,,,,,,,,,,,,,,,,,,,,,,color18,001,2021_Nov_01_1551,ProdSingRedo,3.2.3,60.05230552294829,
35,0,35,0,,,,,,,,,,,,,,,,,,,,,,,,,,,,4279.457523500081,None,whole,silent,yellow,65,355,4277.457287300145,None,None,4277.457287300145,None,,,,,,,,,,,,,,,,,,,,,,,,,,,,,,,,,color18,001,2021_Nov_01_1551,ProdSingRedo,3.2.3,60.05230552294829,
36,0,36,0,,,,,,,,,,,,,,,,,,,,,,,,,,,,4281.976813800167,None,build,silent,yellow,70,35,4279.972687700065,None,None,4279.972687700065,None,,,,,,,,,,,,,,,,,,,,,,,,,,,,,,,,,color18,001,2021_Nov_01_1551,ProdSingRedo,3.2.3,60.05230552294829,
37,0,37,0,,,,,,,,,,,,,,,,,,,,,,,,,,,,4284.495862600161,None,mayor,aloud,red,41,183,4282.4970571000595,None,None,4282.4970571000595,None,,,,,,,,,,,,,,,,,,,,,,,,,,,,,,,,,color18,001,2021_Nov_01_1551,ProdSingRedo,3.2.3,60.05230552294829,
38,0,38,0,,,,,,,,,,,,,,,,,,,,,,,,,,,,4287.015078100143,None,service,sing,blue,6,280,4285.008513200097,None,None,4285.008513200097,None,,,,,,,,,,,,,,,,,,,,,,,,,,,,,,,,,color18,001,2021_Nov_01_1551,ProdSingRedo,3.2.3,60.05230552294829,
39,0,39,0,,,,,,,,,,,,,,,,,,,,,,,,,,,,4289.53427110007,None,volume,sing,blue,23,349,4287.529617500026,None,None,4287.529617500026,None,,,,,,,,,,,,,,,,,,,,,,,,,,,,,,,,,color18,001,2021_Nov_01_1551,ProdSingRedo,3.2.3,60.05230552294829,
40,0,40,0,,,,,,,,,,,,,,,,,,,,,,,,,,,,4292.053451700136,None,running,silent,yellow,72,268,4290.047443700023,None,None,4290.047443700023,None,,,,,,,,,,,,,,,,,,,,,,,,,,,,,,,,,color18,001,2021_Nov_01_1551,ProdSingRedo,3.2.3,60.05230552294829,
41,0,41,0,,,,,,,,,,,,,,,,,,,,,,,,,,,,4294.5726371000055,None,sleep,silent,yellow,82,290,4292.5608796000015,None,None,4292.5608796000015,None,,,,,,,,,,,,,,,,,,,,,,,,,,,,,,,,,color18,001,2021_Nov_01_1551,ProdSingRedo,3.2.3,60.05230552294829,
42,0,42,0,,,,,,,,,,,,,,,,,,,,,,,,,,,,4297.091818500077,None,republic,aloud,red,39,260,4295.087409400148,None,None,4295.087409400148,None,,,,,,,,,,,,,,,,,,,,,,,,,,,,,,,,,color18,001,2021_Nov_01_1551,ProdSingRedo,3.2.3,60.05230552294829,
43,0,43,0,,,,,,,,,,,,,,,,,,,,,,,,,,,,4299.61101400014,None,election,silent,yellow,79,109,4297.602292700205,None,None,4297.602292700205,None,,,,,,,,,,,,,,,,,,,,,,,,,,,,,,,,,color18,001,2021_Nov_01_1551,ProdSingRedo,3.2.3,60.05230552294829,
44,0,44,0,,,,,,,,,,,,,,,,,,,,,,,,,,,,4302.129867900163,None,quick,sing,blue,27,248,4300.132741400041,None,None,4300.132741400041,None,,,,,,,,,,,,,,,,,,,,,,,,,,,,,,,,,color18,001,2021_Nov_01_1551,ProdSingRedo,3.2.3,60.05230552294829,
45,0,45,0,,,,,,,,,,,,,,,,,,,,,,,,,,,,4304.649372300133,None,capital,aloud,red,30,40,4302.649265500018,None,None,4302.649265500018,None,,,,,,,,,,,,,,,,,,,,,,,,,,,,,,,,,color18,001,2021_Nov_01_1551,ProdSingRedo,3.2.3,60.05230552294829,
46,0,46,0,,,,,,,,,,,,,,,,,,,,,,,,,,,,4307.1686142000835,None,generation,silent,yellow,75,136,4305.159721400123,None,None,4305.159721400123,None,,,,,,,,,,,,,,,,,,,,,,,,,,,,,,,,,color18,001,2021_Nov_01_1551,ProdSingRedo,3.2.3,60.05230552294829,
47,0,47,0,,,,,,,,,,,,,,,,,,,,,,,,,,,,4309.687744900119,None,season,sing,blue,16,277,4307.680785000091,None,None,4307.680785000091,None,,,,,,,,,,,,,,,,,,,,,,,,,,,,,,,,,color18,001,2021_Nov_01_1551,ProdSingRedo,3.2.3,60.05230552294829,
48,0,48,0,,,,,,,,,,,,,,,,,,,,,,,,,,,,4312.206931800116,None,cross,sing,blue,19,80,4310.1941500999965,None,None,4310.1941500999965,None,,,,,,,,,,,,,,,,,,,,,,,,,,,,,,,,,color18,001,2021_Nov_01_1551,ProdSingRedo,3.2.3,60.05230552294829,
49,0,49,0,,,,,,,,,,,,,,,,,,,,,,,,,,,,4314.726148799993,None,place,sing,blue,18,222,4312.719719400164,None,None,4312.719719400164,None,,,,,,,,,,,,,,,,,,,,,,,,,,,,,,,,,color18,001,2021_Nov_01_1551,ProdSingRedo,3.2.3,60.05230552294829,
50,0,50,0,,,,,,,,,,,,,,,,,,,,,,,,,,,,4317.245256900089,None,problem,aloud,red,33,238,4315.237150200177,None,None,4315.237150200177,None,,,,,,,,,,,,,,,,,,,,,,,,,,,,,,,,,color18,001,2021_Nov_01_1551,ProdSingRedo,3.2.3,60.05230552294829,
51,0,51,0,,,,,,,,,,,,,,,,,,,,,,,,,,,,4319.764525800012,None,comfort,silent,yellow,84,59,4317.758421400096,None,None,4317.758421400096,None,,,,,,,,,,,,,,,,,,,,,,,,,,,,,,,,,color18,001,2021_Nov_01_1551,ProdSingRedo,3.2.3,60.05230552294829,
52,0,52,0,,,,,,,,,,,,,,,,,,,,,,,,,,,,4322.283669900149,None,council,silent,yellow,60,71,4320.275982500054,None,None,4320.275982500054,None,,,,,,,,,,,,,,,,,,,,,,,,,,,,,,,,,color18,001,2021_Nov_01_1551,ProdSingRedo,3.2.3,60.05230552294829,
53,0,53,0,,,,,,,,,,,,,,,,,,,,,,,,,,,,4324.80285550002,None,split,aloud,red,36,299,4322.79017160018,None,None,4322.79017160018,None,,,,,,,,,,,,,,,,,,,,,,,,,,,,,,,,,color18,001,2021_Nov_01_1551,ProdSingRedo,3.2.3,60.05230552294829,
54,0,54,0,,,,,,,,,,,,,,,,,,,,,,,,,,,,4327.322038900107,None,majority,aloud,red,54,176,4325.32081960002,None,None,4325.32081960002,None,,,,,,,,,,,,,,,,,,,,,,,,,,,,,,,,,color18,001,2021_Nov_01_1551,ProdSingRedo,3.2.3,60.05230552294829,
55,0,55,0,,,,,,,,,,,,,,,,,,,,,,,,,,,,4329.841290000128,None,industry,silent,yellow,64,161,4327.837221400114,None,None,4327.837221400114,None,,,,,,,,,,,,,,,,,,,,,,,,,,,,,,,,,color18,001,2021_Nov_01_1551,ProdSingRedo,3.2.3,60.05230552294829,
56,0,56,0,,,,,,,,,,,,,,,,,,,,,,,,,,,,4332.360355600016,None,brief,silent,yellow,83,28,4330.354954200098,None,None,4330.354954200098,None,,,,,,,,,,,,,,,,,,,,,,,,,,,,,,,,,color18,001,2021_Nov_01_1551,ProdSingRedo,3.2.3,60.05230552294829,
57,0,57,0,,,,,,,,,,,,,,,,,,,,,,,,,,,,4334.879602900008,None,theme,sing,blue,5,326,4332.867141800001,None,None,4332.867141800001,None,,,,,,,,,,,,,,,,,,,,,,,,,,,,,,,,,color18,001,2021_Nov_01_1551,ProdSingRedo,3.2.3,60.05230552294829,
58,0,58,0,,,,,,,,,,,,,,,,,,,,,,,,,,,,4337.39877700014,None,attack,sing,blue,25,13,4335.395715299994,None,None,4335.395715299994,None,,,,,,,,,,,,,,,,,,,,,,,,,,,,,,,,,color18,001,2021_Nov_01_1551,ProdSingRedo,3.2.3,60.05230552294829,
59,0,59,0,,,,,,,,,,,,,,,,,,,,,,,,,,,,4339.917982100043,None,cousin,aloud,red,57,76,4337.910843600053,None,None,4337.910843600053,None,,,,,,,,,,,,,,,,,,,,,,,,,,,,,,,,,color18,001,2021_Nov_01_1551,ProdSingRedo,3.2.3,60.05230552294829,
60,0,60,0,,,,,,,,,,,,,,,,,,,,,,,,,,,,4342.437154800165,None,series,silent,yellow,87,279,4340.425749200163,None,None,4340.425749200163,None,,,,,,,,,,,,,,,,,,,,,,,,,,,,,,,,,color18,001,2021_Nov_01_1551,ProdSingRedo,3.2.3,60.05230552294829,
61,0,61,0,,,,,,,,,,,,,,,,,,,,,,,,,,,,4344.956323000137,None,corner,silent,yellow,71,69,4342.944528300082,None,None,4342.944528300082,None,,,,,,,,,,,,,,,,,,,,,,,,,,,,,,,,,color18,001,2021_Nov_01_1551,ProdSingRedo,3.2.3,60.05230552294829,
62,0,62,0,,,,,,,,,,,,,,,,,,,,,,,,,,,,4347.475520899985,None,silence,aloud,red,32,288,4345.4661838000175,None,None,4345.4661838000175,None,,,,,,,,,,,,,,,,,,,,,,,,,,,,,,,,,color18,001,2021_Nov_01_1551,ProdSingRedo,3.2.3,60.05230552294829,
63,0,63,0,,,,,,,,,,,,,,,,,,,,,,,,,,,,4349.994651500136,None,vision,aloud,red,42,347,4347.9900464999955,None,None,4347.9900464999955,None,,,,,,,,,,,,,,,,,,,,,,,,,,,,,,,,,color18,001,2021_Nov_01_1551,ProdSingRedo,3.2.3,60.05230552294829,
64,0,64,0,,,,,,,,,,,,,,,,,,,,,,,,,,,,4352.51393850008,None,shear,aloud,red,38,283,4350.505861300044,None,None,4350.505861300044,None,,,,,,,,,,,,,,,,,,,,,,,,,,,,,,,,,color18,001,2021_Nov_01_1551,ProdSingRedo,3.2.3,60.05230552294829,
65,0,65,0,,,,,,,,,,,,,,,,,,,,,,,,,,,,4355.033073600149,None,south,sing,blue,7,296,4353.0250999000855,None,None,4353.0250999000855,None,,,,,,,,,,,,,,,,,,,,,,,,,,,,,,,,,color18,001,2021_Nov_01_1551,ProdSingRedo,3.2.3,60.05230552294829,
66,0,66,0,,,,,,,,,,,,,,,,,,,,,,,,,,,,4357.552320000017,None,front,silent,yellow,80,134,4355.543658400187,None,None,4355.543658400187,None,,,,,,,,,,,,,,,,,,,,,,,,,,,,,,,,,color18,001,2021_Nov_01_1551,ProdSingRedo,3.2.3,60.05230552294829,
67,0,67,0,,,,,,,,,,,,,,,,,,,,,,,,,,,,4360.071453500073,None,mechanical,silent,yellow,69,185,4358.069433200173,None,None,4358.069433200173,None,,,,,,,,,,,,,,,,,,,,,,,,,,,,,,,,,color18,001,2021_Nov_01_1551,ProdSingRedo,3.2.3,60.05230552294829,
68,0,68,0,,,,,,,,,,,,,,,,,,,,,,,,,,,,4362.59054860007,None,finish,sing,blue,4,130,4360.582036999986,None,None,4360.582036999986,None,,,,,,,,,,,,,,,,,,,,,,,,,,,,,,,,,color18,001,2021_Nov_01_1551,ProdSingRedo,3.2.3,60.05230552294829,
69,0,69,0,,,,,,,,,,,,,,,,,,,,,,,,,,,,4365.109822400147,None,under,silent,yellow,85,343,4363.102200800087,None,None,4363.102200800087,None,,,,,,,,,,,,,,,,,,,,,,,,,,,,,,,,,color18,001,2021_Nov_01_1551,ProdSingRedo,3.2.3,60.05230552294829,
70,0,70,0,,,,,,,,,,,,,,,,,,,,,,,,,,,,4367.629010300152,None,school,sing,blue,15,274,4365.621359500103,None,None,4365.621359500103,None,,,,,,,,,,,,,,,,,,,,,,,,,,,,,,,,,color18,001,2021_Nov_01_1551,ProdSingRedo,3.2.3,60.05230552294829,
71,0,71,0,,,,,,,,,,,,,,,,,,,,,,,,,,,,4370.14819550002,None,reach,silent,yellow,61,253,4368.1402728999965,None,None,4368.1402728999965,None,,,,,,,,,,,,,,,,,,,,,,,,,,,,,,,,,color18,001,2021_Nov_01_1551,ProdSingRedo,3.2.3,60.05230552294829,
72,0,72,0,,,,,,,,,,,,,,,,,,,,,,,,,,,,4372.667281100061,None,military,silent,yellow,67,190,4370.659138200106,None,None,4370.659138200106,None,,,,,,,,,,,,,,,,,,,,,,,,,,,,,,,,,color18,001,2021_Nov_01_1551,ProdSingRedo,3.2.3,60.05230552294829,
73,0,73,0,,,,,,,,,,,,,,,,,,,,,,,,,,,,4375.186497000046,None,pattern,aloud,red,55,214,4373.179698200198,None,None,4373.179698200198,None,,,,,,,,,,,,,,,,,,,,,,,,,,,,,,,,,color18,001,2021_Nov_01_1551,ProdSingRedo,3.2.3,60.05230552294829,
74,0,74,0,,,,,,,,,,,,,,,,,,,,,,,,,,,,4377.705752600217,None,judge,aloud,red,43,166,4375.705079900101,None,None,4375.705079900101,None,,,,,,,,,,,,,,,,,,,,,,,,,,,,,,,,,color18,001,2021_Nov_01_1551,ProdSingRedo,3.2.3,60.05230552294829,
75,0,75,0,,,,,,,,,,,,,,,,,,,,,,,,,,,,4380.224897300126,None,center,aloud,red,35,44,4378.214903100161,None,None,4378.214903100161,None,,,,,,,,,,,,,,,,,,,,,,,,,,,,,,,,,color18,001,2021_Nov_01_1551,ProdSingRedo,3.2.3,60.05230552294829,
76,0,76,0,,,,,,,,,,,,,,,,,,,,,,,,,,,,4382.744050899986,None,gesture,sing,blue,8,137,4380.737685800064,None,None,4380.737685800064,None,,,,,,,,,,,,,,,,,,,,,,,,,,,,,,,,,color18,001,2021_Nov_01_1551,ProdSingRedo,3.2.3,60.05230552294829,
77,0,77,0,,,,,,,,,,,,,,,,,,,,,,,,,,,,4385.263332600007,None,household,aloud,red,47,154,4383.258559200214,None,None,4383.258559200214,None,,,,,,,,,,,,,,,,,,,,,,,,,,,,,,,,,color18,001,2021_Nov_01_1551,ProdSingRedo,3.2.3,60.05230552294829,
78,0,78,0,,,,,,,,,,,,,,,,,,,,,,,,,,,,4387.782483200077,None,medicine,aloud,red,37,186,4385.772205900168,None,None,4385.772205900168,None,,,,,,,,,,,,,,,,,,,,,,,,,,,,,,,,,color18,001,2021_Nov_01_1551,ProdSingRedo,3.2.3,60.05230552294829,
79,0,79,0,,,,,,,,,,,,,,,,,,,,,,,,,,,,4390.3016637000255,None,search,sing,blue,29,276,4388.288562400034,None,None,4388.288562400034,None,,,,,,,,,,,,,,,,,,,,,,,,,,,,,,,,,color18,001,2021_Nov_01_1551,ProdSingRedo,3.2.3,60.05230552294829,
80,0,80,0,,,,,,,,,,,,,,,,,,,,,,,,,,,,4392.820875100093,None,atmosphere,sing,blue,13,12,4390.816050000023,None,None,4390.816050000023,None,,,,,,,,,,,,,,,,,,,,,,,,,,,,,,,,,color18,001,2021_Nov_01_1551,ProdSingRedo,3.2.3,60.05230552294829,
81,0,81,0,,,,,,,,,,,,,,,,,,,,,,,,,,,,4395.340072400169,None,edition,aloud,red,31,107,4393.3281962000765,None,None,4393.3281962000765,None,,,,,,,,,,,,,,,,,,,,,,,,,,,,,,,,,color18,001,2021_Nov_01_1551,ProdSingRedo,3.2.3,60.05230552294829,
82,0,82,0,,,,,,,,,,,,,,,,,,,,,,,,,,,,4397.859217000194,None,career,silent,yellow,78,42,4395.850890100002,None,None,4395.850890100002,None,,,,,,,,,,,,,,,,,,,,,,,,,,,,,,,,,color18,001,2021_Nov_01_1551,ProdSingRedo,3.2.3,60.05230552294829,
83,0,83,0,,,,,,,,,,,,,,,,,,,,,,,,,,,,4400.378411800135,None,stranger,silent,yellow,76,309,4398.3743338000495,None,None,4398.3743338000495,None,,,,,,,,,,,,,,,,,,,,,,,,,,,,,,,,,color18,001,2021_Nov_01_1551,ProdSingRedo,3.2.3,60.05230552294829,
84,0,84,0,,,,,,,,,,,,,,,,,,,,,,,,,,,,4402.89750410011,None,express,aloud,red,50,124,4400.885406500194,None,None,4400.885406500194,None,,,,,,,,,,,,,,,,,,,,,,,,,,,,,,,,,color18,001,2021_Nov_01_1551,ProdSingRedo,3.2.3,60.05230552294829,
85,0,85,0,,,,,,,,,,,,,,,,,,,,,,,,,,,,4405.416783299996,None,revolution,sing,blue,28,264,4403.41353660007,None,None,4403.41353660007,None,,,,,,,,,,,,,,,,,,,,,,,,,,,,,,,,,color18,001,2021_Nov_01_1551,ProdSingRedo,3.2.3,60.05230552294829,
86,0,86,0,,,,,,,,,,,,,,,,,,,,,,,,,,,,4407.935607100138,None,answer,sing,blue,10,8,4405.92793060001,None,None,4405.92793060001,None,,,,,,,,,,,,,,,,,,,,,,,,,,,,,,,,,color18,001,2021_Nov_01_1551,ProdSingRedo,3.2.3,60.05230552294829,
87,0,87,0,,,,,,,,,,,,,,,,,,,,,,,,,,,,4410.45519030001,None,month,aloud,red,49,193,4408.455012300052,None,None,4408.455012300052,None,,,,,,,,,,,,,,,,,,,,,,,,,,,,,,,,,color18,001,2021_Nov_01_1551,ProdSingRedo,3.2.3,60.05230552294829,
88,0,88,0,,,,,,,,,,,,,,,,,,,,,,,,,,,,4412.974338200176,None,raise,sing,blue,1,250,4410.96613080008,None,None,4410.96613080008,None,,,,,,,,,,,,,,,,,,,,,,,,,,,,,,,,,color18,001,2021_Nov_01_1551,ProdSingRedo,3.2.3,60.05230552294829,
89,0,89,0,,,,,,,,,,,,,,,,,,,,,,,,,,,,4415.493520400021,None,title,sing,blue,0,331,4413.480876300018,None,None,4413.480876300018,None,,,,,,,,,,,,,,,,,,,,,,,,,,,,,,,,,color18,001,2021_Nov_01_1551,ProdSingRedo,3.2.3,60.05230552294829,
,,,,,,,,,,,,,,,,,,,,,,,,,,,,,,,,,,,,,,,,,,,4415.994310600217,None,k,128.71644180011936,4415.994310600217,None,,,,,,,,,,,,,,,,,,,,,,,,,,,color18,001,2021_Nov_01_1551,ProdSingRedo,3.2.3,60.05230552294829,
,,,,0,0,0,0,,,,,,,,,,,,,,,,,,,,,,,,4558.3507272000425,None,,,,,,,,,,,,,,,,,route,new_silent,yellow,0,161,267,4545.267049000133,None,4545.267049000133,None,5,9.163723200093955,4545.267049000133,None,4554.468603000045,None,4554.993846700061,None,4554.993846700061,None,f,3.324696100084111,4554.993846700061,None,,,color18,001,2021_Nov_01_1551,ProdSingRedo,3.2.3,60.05230552294829,
,,,,1,0,1,0,,,,,,,,,,,,,,,,,,,,,,,,4566.784914700082,None,,,,,,,,,,,,,,,,,error,aloud,red,1,53,117,4558.86591719999,None,4558.86591719999,None,6,4.364864900009707,4558.86591719999,None,4563.27477990021,None,4563.781051700003,None,4563.781051700003,None,f,2.9775918999221176,4563.781051700003,None,,,color18,001,2021_Nov_01_1551,ProdSingRedo,3.2.3,60.05230552294829,
,,,,2,0,2,0,,,,,,,,,,,,,,,,,,,,,,,,4573.32597850007,None,,,,,,,,,,,,,,,,,grade,aloud,red,2,34,140,4567.310564500047,None,4567.310564500047,None,4,3.904169699875638,4567.310564500047,None,4571.259939900134,None,4571.766225200146,None,4571.766225200146,None,f,1.5364808000158519,4571.766225200146,None,,,color18,001,2021_Nov_01_1551,ProdSingRedo,3.2.3,60.05230552294829,
,,,,3,0,3,0,,,,,,,,,,,,,,,,,,,,,,,,4579.580613700207,None,,,,,,,,,,,,,,,,,place,sing,blue,3,18,222,4573.851039400091,None,4573.851039400091,None,2,2.97176850005053,4573.851039400091,None,4576.863772000186,None,4577.383125900058,None,4577.383125900058,None,n,2.1755150000099093,4577.383125900058,None,,,color18,001,2021_Nov_01_1551,ProdSingRedo,3.2.3,60.05230552294829,
,,,,4,0,4,0,,,,,,,,,,,,,,,,,,,,,,,,4586.4542420001235,None,,,,,,,,,,,,,,,,,express,aloud,red,4,50,124,4580.103202700149,None,4580.103202700149,None,5,4.399622300174087,4580.103202700149,None,4584.547633700073,None,4585.068547900068,None,4585.068547900068,None,f,1.3620555999223143,4585.068547900068,None,,,color18,001,2021_Nov_01_1551,ProdSingRedo,3.2.3,60.05230552294829,
,,,,5,0,5,0,,,,,,,,,,,,,,,,,,,,,,,,4595.363894200185,None,,,,,,,,,,,,,,,,,department,new_sing,blue,5,111,90,4586.9794413000345,None,4586.9794413000345,None,1,6.267288300208747,4586.9794413000345,None,4593.30135500012,None,4593.817772100214,None,4593.817772100214,None,n,1.5089342999272048,4593.817772100214,None,,,color18,001,2021_Nov_01_1551,ProdSingRedo,3.2.3,60.05230552294829,
,,,,6,0,6,0,,,,,,,,,,,,,,,,,,,,,,,,4600.485067300033,None,,,,,,,,,,,,,,,,,blind,new_silent,yellow,6,150,24,4595.881282899994,None,4595.881282899994,None,2,2.6373205001000315,4595.881282899994,None,4598.561387600144,None,4599.071903300006,None,4599.071903300006,None,n,1.38284460012801,4599.071903300006,None,,,color18,001,2021_Nov_01_1551,ProdSingRedo,3.2.3,60.05230552294829,
,,,,7,0,7,0,,,,,,,,,,,,,,,,,,,,,,,,4607.140679400181,None,,,,,,,,,,,,,,,,,youth,sing,blue,7,14,359,4601.013349900022,None,4601.013349900022,None,5,4.2734138001687825,4601.013349900022,None,4605.339346900117,None,4605.866419000085,None,4605.866419000085,None,f,1.2528570999857038,4605.866419000085,None,,,color18,001,2021_Nov_01_1551,ProdSingRedo,3.2.3,60.05230552294829,
,,,,8,0,8,0,,,,,,,,,,,,,,,,,,,,,,,,4614.217418000102,None,,,,,,,,,,,,,,,,,state,new_aloud,red,8,131,303,4607.667127700057,None,4607.667127700057,None,4,4.571491500129923,4607.667127700057,None,4612.274824500084,None,4612.784680800047,None,4612.784680800047,None,f,1.3980660999659449,4612.784680800047,None,,,color18,001,2021_Nov_01_1551,ProdSingRedo,3.2.3,60.05230552294829,
,,,,9,0,9,0,,,,,,,,,,,,,,,,,,,,,,,,4619.087264000205,None,,,,,,,,,,,,,,,,,fellow,new_sing,blue,9,103,126,4614.7461757001,None,4614.7461757001,None,1,2.6845960998907685,4614.7461757001,None,4617.463879900053,None,4617.973262300016,None,4617.973262300016,None,n,1.0894232999999076,4617.973262300016,None,,,color18,001,2021_Nov_01_1551,ProdSingRedo,3.2.3,60.05230552294829,
,,,,10,0,10,0,,,,,,,,,,,,,,,,,,,,,,,,4631.333678300027,None,,,,,,,,,,,,,,,,,election,silent,yellow,10,79,109,4619.6104092001915,None,4619.6104092001915,None,2,9.908356999978423,4619.6104092001915,None,4629.563911400037,None,4630.081430300139,None,4630.081430300139,None,n,1.2293690000660717,4630.081430300139,None,,,color18,001,2021_Nov_01_1551,ProdSingRedo,3.2.3,60.05230552294829,
,,,,11,0,11,0,,,,,,,,,,,,,,,,,,,,,,,,4646.649620900163,None,,,,,,,,,,,,,,,,,income,new_aloud,red,11,130,159,4631.843163500074,None,4631.843163500074,None,2,13.259661999996752,4631.843163500074,None,4645.1438263000455,None,4645.666341500124,None,4645.666341500124,None,n,0.956656799884513,4645.666341500124,None,,,color18,001,2021_Nov_01_1551,ProdSingRedo,3.2.3,60.05230552294829,
,,,,12,0,12,0,,,,,,,,,,,,,,,,,,,,,,,,4652.820134100039,None,,,,,,,,,,,,,,,,,point,silent,yellow,12,88,226,4647.169244100107,None,4647.169244100107,None,2,3.9895293000154197,4647.169244100107,None,4651.198090500198,None,4651.717802300118,None,4651.717802300118,None,n,1.0650061001069844,4651.717802300118,None,,,color18,001,2021_Nov_01_1551,ProdSingRedo,3.2.3,60.05230552294829,
,,,,13,0,13,0,,,,,,,,,,,,,,,,,,,,,,,,4656.708010000177,None,,,,,,,,,,,,,,,,,danger,silent,yellow,13,73,85,4653.352086700033,None,4653.352086700033,None,2,2.2947263999376446,4653.352086700033,None,4655.684851300204,None,4656.19589260011,None,4656.19589260011,None,n,0.4828282999806106,4656.19589260011,None,,,color18,001,2021_Nov_01_1551,ProdSingRedo,3.2.3,60.05230552294829,
,,,,14,0,14,0,,,,,,,,,,,,,,,,,,,,,,,,4665.038357100217,None,,,,,,,,,,,,,,,,,produce,aloud,red,14,58,239,4657.233728000196,None,4657.233728000196,None,4,5.148977999808267,4657.233728000196,None,4662.421625500079,None,4662.936589000048,None,4662.936589000048,None,f,2.0701659999322146,4662.936589000048,None,,,color18,001,2021_Nov_01_1551,ProdSingRedo,3.2.3,60.05230552294829,
,,,,15,0,15,0,,,,,,,,,,,,,,,,,,,,,,,,4670.45498670009,None,,,,,,,,,,,,,,,,,bitter,silent,yellow,15,68,23,4665.558261300204,None,4665.558261300204,None,3,2.5762857000809163,4665.558261300204,None,4668.18149460014,None,4668.688429700211,None,4668.688429700211,None,n,1.7344301999546587,4668.688429700211,None,,,color18,001,2021_Nov_01_1551,ProdSingRedo,3.2.3,60.05230552294829,
,,,,16,0,16,0,,,,,,,,,,,,,,,,,,,,,,,,4679.724230600055,None,,,,,,,,,,,,,,,,,research,silent,yellow,16,81,261,4670.979474700056,None,4670.979474700056,None,3,6.179330900078639,4670.979474700056,None,4677.215790400049,None,4677.735468600178,None,4677.735468600178,None,n,1.9590751000214368,4677.735468600178,None,,,color18,001,2021_Nov_01_1551,ProdSingRedo,3.2.3,60.05230552294829,
,,,,17,0,17,0,,,,,,,,,,,,,,,,,,,,,,,,4685.918683800148,None,,,,,,,,,,,,,,,,,rural,new_sing,blue,17,101,269,4680.242632000009,None,4680.242632000009,None,1,2.5881366000976413,4680.242632000009,None,4682.887098800158,None,4683.394407600164,None,4683.394407600164,None,n,2.492386900121346,4683.394407600164,None,,,color18,001,2021_Nov_01_1551,ProdSingRedo,3.2.3,60.05230552294829,
,,,,18,0,18,0,,,,,,,,,,,,,,,,,,,,,,,,4691.25936630019,None,,,,,,,,,,,,,,,,,harmony,new_sing,blue,18,114,148,4686.453409800073,None,4686.453409800073,None,1,3.065345000009984,4686.453409800073,None,4689.5533843000885,None,4690.086952100042,None,4690.086952100042,None,n,1.1360218001063913,4690.086952100042,None,,,color18,001,2021_Nov_01_1551,ProdSingRedo,3.2.3,60.05230552294829,
,,,,19,0,19,0,,,,,,,,,,,,,,,,,,,,,,,,4696.849179800134,None,,,,,,,,,,,,,,,,,watch,new_aloud,red,19,122,351,4691.769932200201,None,4691.769932200201,None,2,4.084794600028545,4691.769932200201,None,4695.8942267000675,None,4696.4141757001635,None,4696.4141757001635,None,n,0.40884960000403225,4696.4141757001635,None,,,color18,001,2021_Nov_01_1551,ProdSingRedo,3.2.3,60.05230552294829,
,,,,20,0,20,0,,,,,,,,,,,,,,,,,,,,,,,,4700.334856700152,None,,,,,,,,,,,,,,,,,title,sing,blue,20,0,331,4697.371826100163,None,4697.371826100163,None,1,1.8909542998299003,4697.371826100163,None,4699.311963000102,None,4699.818059900077,None,4699.818059900077,None,n,0.4848648998886347,4699.818059900077,None,,,color18,001,2021_Nov_01_1551,ProdSingRedo,3.2.3,60.05230552294829,
,,,,21,0,21,0,,,,,,,,,,,,,,,,,,,,,,,,4706.390819700202,None,,,,,,,,,,,,,,,,,company,new_aloud,red,21,121,64,4700.874152300181,None,4700.874152300181,None,5,3.9325652001425624,4700.874152300181,None,4704.851535200141,None,4705.3780651001725,None,4705.3780651001725,None,n,0.9807627000845969,4705.3780651001725,None,,,color18,001,2021_Nov_01_1551,ProdSingRedo,3.2.3,60.05230552294829,
,,,,22,0,22,0,,,,,,,,,,,,,,,,,,,,,,,,4715.576416700147,None,,,,,,,,,,,,,,,,,population,new_aloud,red,22,149,227,4706.92404250009,None,4706.92404250009,None,2,6.114949999842793,4706.92404250009,None,4713.078064700123,None,4713.5883724000305,None,4713.5883724000305,None,n,1.969976699911058,4713.5883724000305,None,,,color18,001,2021_Nov_01_1551,ProdSingRedo,3.2.3,60.05230552294829,
,,,,23,0,23,0,,,,,,,,,,,,,,,,,,,,,,,,4721.6659913000185,None,,,,,,,,,,,,,,,,,afternoon,sing,blue,23,11,3,4716.09256190015,None,4716.09256190015,None,2,4.058249399997294,4716.09256190015,None,4720.194244600134,None,4720.7085595000535,None,4720.7085595000535,None,n,0.9298103000037372,4720.7085595000535,None,,,color18,001,2021_Nov_01_1551,ProdSingRedo,3.2.3,60.05230552294829,
,,,,24,0,24,0,,,,,,,,,,,,,,,,,,,,,,,,4728.796390200034,None,,,,,,,,,,,,,,,,,debate,new_silent,yellow,24,177,87,4722.1698852002155,None,4722.1698852002155,None,3,5.541146199917421,4722.1698852002155,None,4727.766710600117,None,4728.294045699993,None,4728.294045699993,None,n,0.48072340013459325,4728.294045699993,None,,,color18,001,2021_Nov_01_1551,ProdSingRedo,3.2.3,60.05230552294829,
,,,,25,0,25,0,,,,,,,,,,,,,,,,,,,,,,,,4735.155066800071,None,,,,,,,,,,,,,,,,,prime,new_silent,yellow,25,176,235,4729.318030700088,None,4729.318030700088,None,3,4.4649668000638485,4729.318030700088,None,4733.830043600174,None,4734.332832999993,None,4734.332832999993,None,n,0.7939997999928892,4734.332832999993,None,,,color18,001,2021_Nov_01_1551,ProdSingRedo,3.2.3,60.05230552294829,
,,,,26,0,26,0,,,,,,,,,,,,,,,,,,,,,,,,4739.942237999989,None,,,,,,,,,,,,,,,,,stand,new_silent,yellow,26,155,302,4735.678981000092,None,4735.678981000092,None,4,3.071922899922356,4735.678981000092,None,4738.786680800142,None,4739.3124847,None,4739.3124847,None,n,0.5982405000831932,4739.3124847,None,,,color18,001,2021_Nov_01_1551,ProdSingRedo,3.2.3,60.05230552294829,
,,,,27,0,27,0,,,,,,,,,,,,,,,,,,,,,,,,4745.430832300102,None,,,,,,,,,,,,,,,,,portion,new_silent,yellow,27,167,228,4740.464695700211,None,4740.464695700211,None,4,2.494084999896586,4740.464695700211,None,4743.006561300019,None,4743.52723430004,None,4743.52723430004,None,n,1.8797504000831395,4743.52723430004,None,,,color18,001,2021_Nov_01_1551,ProdSingRedo,3.2.3,60.05230552294829,
,,,,28,0,28,0,,,,,,,,,,,,,,,,,,,,,,,,4752.330090700183,None,,,,,,,,,,,,,,,,,degree,new_sing,blue,28,106,89,4745.959090100136,None,4745.959090100136,None,2,3.647760799853131,4745.959090100136,None,4749.652725900058,None,4750.171191700036,None,4750.171191700036,None,n,2.1313040000386536,4750.171191700036,None,,,color18,001,2021_Nov_01_1551,ProdSingRedo,3.2.3,60.05230552294829,
,,,,29,0,29,0,,,,,,,,,,,,,,,,,,,,,,,,4757.4580618001055,None,,,,,,,,,,,,,,,,,finish,sing,blue,29,4,130,4752.845937900012,None,4752.845937900012,None,1,3.600980600109324,4752.845937900012,None,4756.483925400069,None,4756.99586640019,None,4756.99586640019,None,n,0.4269306999631226,4756.99586640019,None,,,color18,001,2021_Nov_01_1551,ProdSingRedo,3.2.3,60.05230552294829,
,,,,30,0,30,0,,,,,,,,,,,,,,,,,,,,,,,,4763.197424400132,None,,,,,,,,,,,,,,,,,permit,aloud,red,30,45,218,4757.981748100137,None,4757.981748100137,None,6,3.5371495001018047,4757.981748100137,None,4761.55831930018,None,4762.062223799992,None,4762.062223799992,None,f,1.1045444998890162,4762.062223799992,None,,,color18,001,2021_Nov_01_1551,ProdSingRedo,3.2.3,60.05230552294829,
,,,,31,0,31,0,,,,,,,,,,,,,,,,,,,,,,,,4767.819078600034,None,,,,,,,,,,,,,,,,,territory,sing,blue,31,9,324,4763.722650200129,None,4763.722650200129,None,1,2.676535400096327,4763.722650200129,None,4766.4495947000105,None,4766.972014100058,None,4766.972014100058,None,n,0.8187756000552326,4766.972014100058,None,,,color18,001,2021_Nov_01_1551,ProdSingRedo,3.2.3,60.05230552294829,
,,,,32,0,32,0,,,,,,,,,,,,,,,,,,,,,,,,4774.391230100067,None,,,,,,,,,,,,,,,,,cousin,aloud,red,32,57,76,4768.346338900039,None,4768.346338900039,None,6,4.396451599895954,4768.346338900039,None,4772.779684800189,None,4773.294395700097,None,4773.294395700097,None,f,1.0644778998102993,4773.294395700097,None,,,color18,001,2021_Nov_01_1551,ProdSingRedo,3.2.3,60.05230552294829,
,,,,33,0,33,0,,,,,,,,,,,,,,,,,,,,,,,,4778.329200800043,None,,,,,,,,,,,,,,,,,cross,sing,blue,33,19,80,4774.912763300119,None,4774.912763300119,None,2,2.470148100052029,4774.912763300119,None,4777.420416300185,None,4777.9278404000215,None,4777.9278404000215,None,n,0.3671377000864595,4777.9278404000215,None,,,color18,001,2021_Nov_01_1551,ProdSingRedo,3.2.3,60.05230552294829,
,,,,34,0,34,0,,,,,,,,,,,,,,,,,,,,,,,,4783.829899400007,None,,,,,,,,,,,,,,,,,capital,aloud,red,34,30,40,4778.8561778999865,None,4778.8561778999865,None,4,2.6546927001327276,4778.8561778999865,None,4781.563303500181,None,4782.059936000034,None,4782.059936000034,None,f,1.746618099976331,4782.059936000034,None,,,color18,001,2021_Nov_01_1551,ProdSingRedo,3.2.3,60.05230552294829,
,,,,35,0,35,0,,,,,,,,,,,,,,,,,,,,,,,,4792.711683400208,None,,,,,,,,,,,,,,,,,nature,sing,blue,35,22,200,4784.343425100204,None,4784.343425100204,None,6,6.431425099959597,4784.343425100204,None,4790.826698300196,None,4791.348708900157,None,4791.348708900157,None,n,1.3301701999735087,4791.348708900157,None,,,color18,001,2021_Nov_01_1551,ProdSingRedo,3.2.3,60.05230552294829,
,,,,36,0,36,0,,,,,,,,,,,,,,,,,,,,,,,,4797.398681499995,None,,,,,,,,,,,,,,,,,murder,sing,blue,36,26,195,4793.238972800085,None,4793.238972800085,None,6,2.375923400046304,4793.238972800085,None,4795.663409100147,None,4796.183675600216,None,4796.183675600216,None,r,1.191073799971491,4796.183675600216,None,,,color18,001,2021_Nov_01_1551,ProdSingRedo,3.2.3,60.05230552294829,
,,,,37,0,37,0,,,,,,,,,,,,,,,,,,,,,,,,4801.537160700187,None,,,,,,,,,,,,,,,,,stranger,silent,yellow,37,76,309,4797.928364300169,None,4797.928364300169,None,6,2.4544923999346793,4797.928364300169,None,4800.43162220018,None,4800.941955700051,None,4800.941955700051,None,r,0.5609548999927938,4800.941955700051,None,,,color18,001,2021_Nov_01_1551,ProdSingRedo,3.2.3,60.05230552294829,
,,,,38,0,38,0,,,,,,,,,,,,,,,,,,,,,,,,4806.942086500116,None,,,,,,,,,,,,,,,,,military,silent,yellow,38,67,190,4802.065592000028,None,4802.065592000028,None,3,3.1574836999643594,4802.065592000028,None,4805.27668840019,None,4805.795552900061,None,4805.795552900061,None,n,1.1234275000169873,4805.795552900061,None,,,color18,001,2021_Nov_01_1551,ProdSingRedo,3.2.3,60.05230552294829,
,,,,39,0,39,0,,,,,,,,,,,,,,,,,,,,,,,,4812.273580000037,None,,,,,,,,,,,,,,,,,damage,new_silent,yellow,39,164,83,4807.47117270017,None,4807.47117270017,None,4,3.9036834000144154,4807.47117270017,None,4811.439651400084,None,4811.9421238000505,None,4811.9421238000505,None,n,0.30444899993017316,4811.9421238000505,None,,,color18,001,2021_Nov_01_1551,ProdSingRedo,3.2.3,60.05230552294829,
,,,,40,0,40,0,,,,,,,,,,,,,,,,,,,,,,,,4817.216821300099,None,,,,,,,,,,,,,,,,,vision,aloud,red,40,42,347,4812.78677450004,None,4812.78677450004,None,6,3.5721520001534373,4812.78677450004,None,4816.400248300051,None,4816.919942300068,None,4816.919942300068,None,f,0.2708946999628097,4816.919942300068,None,,,color18,001,2021_Nov_01_1551,ProdSingRedo,3.2.3,60.05230552294829,
,,,,41,0,41,0,,,,,,,,,,,,,,,,,,,,,,,,4823.52408490004,None,,,,,,,,,,,,,,,,,mechanical,silent,yellow,41,69,185,4817.744588500122,None,4817.744588500122,None,3,4.406454999931157,4817.744588500122,None,4822.189041300211,None,4822.715273100184,None,4822.715273100184,None,n,0.7715776998084038,4822.715273100184,None,,,color18,001,2021_Nov_01_1551,ProdSingRedo,3.2.3,60.05230552294829,
,,,,42,0,42,0,,,,,,,,,,,,,,,,,,,,,,,,4830.150482100202,None,,,,,,,,,,,,,,,,,safety,new_aloud,red,42,133,270,4824.050135800149,None,4824.050135800149,None,3,4.901269500143826,4824.050135800149,None,4828.999221500009,None,4829.518274000147,None,4829.518274000147,None,n,0.6004991999361664,4829.518274000147,None,,,color18,001,2021_Nov_01_1551,ProdSingRedo,3.2.3,60.05230552294829,
,,,,43,0,43,0,,,,,,,,,,,,,,,,,,,,,,,,4834.836930599995,None,,,,,,,,,,,,,,,,,series,silent,yellow,43,87,279,4830.6714390001725,None,4830.6714390001725,None,3,2.8636442001443356,4830.6714390001725,None,4833.5770905001555,None,4834.087644300191,None,4834.087644300191,None,n,0.7191920999903232,4834.087644300191,None,,,color18,001,2021_Nov_01_1551,ProdSingRedo,3.2.3,60.05230552294829,
,,,,44,0,44,0,,,,,,,,,,,,,,,,,,,,,,,,4842.069859000156,None,,,,,,,,,,,,,,,,,month,aloud,red,44,49,193,4835.358460200019,None,4835.358460200019,None,2,5.240714499959722,4835.358460200019,None,4840.633800400188,None,4841.139513200149,None,4841.139513200149,None,n,0.9151757000945508,4841.139513200149,None,,,color18,001,2021_Nov_01_1551,ProdSingRedo,3.2.3,60.05230552294829,
,,,,45,0,45,0,,,,,,,,,,,,,,,,,,,,,,,,4845.447688500164,None,,,,,,,,,,,,,,,,,split,aloud,red,45,36,299,4842.581242399989,None,4842.581242399989,None,2,1.9297229000367224,4842.581242399989,None,4844.558855800191,None,4845.07760170009,None,4845.07760170009,None,n,0.3372712000273168,4845.07760170009,None,,,color18,001,2021_Nov_01_1551,ProdSingRedo,3.2.3,60.05230552294829,
,,,,46,0,46,0,,,,,,,,,,,,,,,,,,,,,,,,4849.176886600209,None,,,,,,,,,,,,,,,,,tennis,sing,blue,46,17,323,4845.968899900094,None,4845.968899900094,None,1,2.413620400009677,4845.968899900094,None,4848.409586900147,None,4848.910097200191,None,4848.910097200191,None,n,0.2404573999810964,4848.910097200191,None,,,color18,001,2021_Nov_01_1551,ProdSingRedo,3.2.3,60.05230552294829,
,,,,47,0,47,0,,,,,,,,,,,,,,,,,,,,,,,,4853.872850400163,None,,,,,,,,,,,,,,,,,rapid,new_aloud,red,47,125,252,4849.695157800103,None,4849.695157800103,None,4,2.4398049998562783,4849.695157800103,None,4852.193324499996,None,4852.709688300034,None,4852.709688300034,None,n,1.1292820000089705,4852.709688300034,None,,,color18,001,2021_Nov_01_1551,ProdSingRedo,3.2.3,60.05230552294829,
,,,,48,0,48,0,,,,,,,,,,,,,,,,,,,,,,,,4860.42938830005,None,,,,,,,,,,,,,,,,,disease,silent,yellow,48,77,97,4854.398951900192,None,4854.398951900192,None,5,4.5519268999341875,4854.398951900192,None,4858.995681100059,None,4859.516325600212,None,4859.516325600212,None,f,0.8825934999622405,4859.516325600212,None,,,color18,001,2021_Nov_01_1551,ProdSingRedo,3.2.3,60.05230552294829,
,,,,49,0,49,0,,,,,,,,,,,,,,,,,,,,,,,,4867.10171580012,None,,,,,,,,,,,,,,,,,impact,sing,blue,49,2,157,4860.9563481002115,None,4860.9563481002115,None,3,3.834747300017625,4860.9563481002115,None,4864.832799700089,None,4865.353778300108,None,4865.353778300108,None,f,1.7251918998081237,4865.353778300108,None,,,color18,001,2021_Nov_01_1551,ProdSingRedo,3.2.3,60.05230552294829,
,,,,50,0,50,0,,,,,,,,,,,,,,,,,,,,,,,,4878.4130761001725,None,,,,,,,,,,,,,,,,,corner,silent,yellow,50,71,69,4867.622515100054,None,4867.622515100054,None,2,9.560655500041321,4867.622515100054,None,4877.224043000024,None,4877.7443738,None,4877.7443738,None,n,0.6385031000245363,4877.7443738,None,,,color18,001,2021_Nov_01_1551,ProdSingRedo,3.2.3,60.05230552294829,
,,,,51,0,51,0,,,,,,,,,,,,,,,,,,,,,,,,4882.119018800091,None,,,,,,,,,,,,,,,,,number,new_silent,yellow,51,159,203,4878.940492900088,None,4878.940492900088,None,2,1.6983789999503642,4878.940492900088,None,4880.68888120004,None,4881.205960800173,None,4881.205960800173,None,n,0.8890227999072522,4881.205960800173,None,,,color18,001,2021_Nov_01_1551,ProdSingRedo,3.2.3,60.05230552294829,
,,,,52,0,52,0,,,,,,,,,,,,,,,,,,,,,,,,4888.55649810005,None,,,,,,,,,,,,,,,,,under,silent,yellow,52,85,343,4882.6409798001405,None,4882.6409798001405,None,2,3.9743164000101388,4882.6409798001405,None,4886.653973100008,None,4887.173630900215,None,4887.173630900215,None,n,1.3453877000138164,4887.173630900215,None,,,color18,001,2021_Nov_01_1551,ProdSingRedo,3.2.3,60.05230552294829,
,,,,53,0,53,0,,,,,,,,,,,,,,,,,,,,,,,,4895.497014900204,None,,,,,,,,,,,,,,,,,voice,new_sing,blue,53,107,348,4889.079888300039,None,4889.079888300039,None,1,5.543181899935007,4889.079888300039,None,4894.6489101999905,None,4895.163732900051,None,4895.163732900051,None,n,0.29945289995521307,4895.163732900051,None,,,color18,001,2021_Nov_01_1551,ProdSingRedo,3.2.3,60.05230552294829,
,,,,54,0,54,0,,,,,,,,,,,,,,,,,,,,,,,,4900.673387000104,None,,,,,,,,,,,,,,,,,institute,new_sing,blue,54,110,162,4896.025937800063,None,4896.025937800063,None,1,1.9328737000469118,4896.025937800063,None,4897.995485100197,None,4898.520507500041,None,4898.520507500041,None,n,2.1262954000849277,4898.520507500041,None,,,color18,001,2021_Nov_01_1551,ProdSingRedo,3.2.3,60.05230552294829,
,,,,55,0,55,0,,,,,,,,,,,,,,,,,,,,,,,,4906.189393999986,None,,,,,,,,,,,,,,,,,thick,new_aloud,red,55,124,327,4901.198041100055,None,4901.198041100055,None,2,4.000782399903983,4901.198041100055,None,4905.237427800195,None,4905.756848399993,None,4905.756848399993,None,n,0.4100351999513805,4905.756848399993,None,,,color18,001,2021_Nov_01_1551,ProdSingRedo,3.2.3,60.05230552294829,
,,,,56,0,56,0,,,,,,,,,,,,,,,,,,,,,,,,4910.888634700095,None,,,,,,,,,,,,,,,,,leader,new_sing,blue,56,119,168,4906.715719700092,None,4906.715719700092,None,2,3.170925100101158,4906.715719700092,None,4909.908999600215,None,4910.426581600215,None,4910.426581600215,None,n,0.44396870001219213,4910.426581600215,None,,,color18,001,2021_Nov_01_1551,ProdSingRedo,3.2.3,60.05230552294829,
,,,,57,0,57,0,,,,,,,,,,,,,,,,,,,,,,,,4915.83496030001,None,,,,,,,,,,,,,,,,,character,new_sing,blue,57,115,46,4911.389357100008,None,4911.389357100008,None,2,3.6416750999633223,4911.389357100008,None,4915.086188500049,None,4915.60910640005,None,4915.60910640005,None,n,0.19796529994346201,4915.60910640005,None,,,color18,001,2021_Nov_01_1551,ProdSingRedo,3.2.3,60.05230552294829,
,,,,58,0,58,0,,,,,,,,,,,,,,,,,,,,,,,,4920.571657299995,None,,,,,,,,,,,,,,,,,profession,new_aloud,red,58,134,241,4916.362619400024,None,4916.362619400024,None,3,3.1165103998500854,4916.362619400024,None,4919.5232236001175,None,4920.041297100019,None,4920.041297100019,None,n,0.4936909000389278,4920.041297100019,None,,,color18,001,2021_Nov_01_1551,ProdSingRedo,3.2.3,60.05230552294829,
,,,,59,0,59,0,,,,,,,,,,,,,,,,,,,,,,,,4926.110557700042,None,,,,,,,,,,,,,,,,,production,aloud,red,59,40,240,4921.102024700027,None,4921.102024700027,None,4,3.0328486999496818,4921.102024700027,None,4924.176190100145,None,4924.700122900074,None,4924.700122900074,None,f,1.3788572000339627,4924.700122900074,None,,,color18,001,2021_Nov_01_1551,ProdSingRedo,3.2.3,60.05230552294829,
,,,,60,0,60,0,,,,,,,,,,,,,,,,,,,,,,,,4931.018367700046,None,,,,,,,,,,,,,,,,,story,new_aloud,red,60,129,306,4926.635677900165,None,4926.635677900165,None,3,3.459369200048968,4926.635677900165,None,4930.146256100154,None,4930.67021560017,None,4930.67021560017,None,n,0.32073849998414516,4930.67021560017,None,,,color18,001,2021_Nov_01_1551,ProdSingRedo,3.2.3,60.05230552294829,
,,,,61,0,61,0,,,,,,,,,,,,,,,,,,,,,,,,4937.771786000114,None,,,,,,,,,,,,,,,,,appearance,new_sing,blue,61,105,10,4931.544401600026,None,4931.544401600026,None,4,5.390582699794322,4931.544401600026,None,4936.988706400152,None,4937.51213220018,None,4937.51213220018,None,f,0.222762499935925,4937.51213220018,None,,,color18,001,2021_Nov_01_1551,ProdSingRedo,3.2.3,60.05230552294829,
,,,,62,0,62,0,,,,,,,,,,,,,,,,,,,,,,,,4943.29529420007,None,,,,,,,,,,,,,,,,,working,aloud,red,62,48,357,4938.303021,None,4938.303021,None,3,3.9677389999851584,4938.303021,None,4942.315757400123,None,4942.834184900159,None,4942.834184900159,None,n,0.4366665999405086,4942.834184900159,None,,,color18,001,2021_Nov_01_1551,ProdSingRedo,3.2.3,60.05230552294829,
,,,,63,0,63,0,,,,,,,,,,,,,,,,,,,,,,,,4955.706228000112,None,,,,,,,,,,,,,,,,,meeting,sing,blue,63,21,187,4943.821053700056,None,4943.821053700056,None,4,8.209899199893698,4943.821053700056,None,4952.0798008001875,None,4952.588559400057,None,4952.588559400057,None,f,3.0824633999727666,4952.588559400057,None,,,color18,001,2021_Nov_01_1551,ProdSingRedo,3.2.3,60.05230552294829,
,,,,64,0,64,0,,,,,,,,,,,,,,,,,,,,,,,,4959.694979300024,None,,,,,,,,,,,,,,,,,spoke,new_aloud,red,64,138,300,4956.2329183002,None,4956.2329183002,None,2,2.6141793001443148,4956.2329183002,None,4958.89682400017,None,4959.416027000174,None,4959.416027000174,None,n,0.25516210007481277,4959.416027000174,None,,,color18,001,2021_Nov_01_1551,ProdSingRedo,3.2.3,60.05230552294829,
,,,,65,0,65,0,,,,,,,,,,,,,,,,,,,,,,,,4964.7318909000605,None,,,,,,,,,,,,,,,,,comedy,aloud,red,65,52,58,4960.220134800067,None,4960.220134800067,None,5,3.3067447000648826,4960.220134800067,None,4963.563263399992,None,4964.08359230007,None,4964.08359230007,None,n,0.6119026001542807,4964.08359230007,None,,,color18,001,2021_Nov_01_1551,ProdSingRedo,3.2.3,60.05230552294829,
,,,,66,0,66,0,,,,,,,,,,,,,,,,,,,,,,,,4989.008922600187,None,,,,,,,,,,,,,,,,,device,new_silent,yellow,66,165,93,4965.257342600031,None,4965.257342600031,None,3,21.669735700124875,4965.257342600031,None,4986.9683823001105,None,4987.491507100174,None,4987.491507100174,None,n,1.4835169001016766,4987.491507100174,None,,,color18,001,2021_Nov_01_1551,ProdSingRedo,3.2.3,60.05230552294829,
,,,,67,0,67,0,,,,,,,,,,,,,,,,,,,,,,,,4992.460456400178,None,,,,,,,,,,,,,,,,,turkey,new_aloud,red,67,148,342,4989.541470300173,None,4989.541470300173,None,3,1.78528459998779,4989.541470300173,None,4991.369174800115,None,4991.869883900043,None,4991.869883900043,None,n,0.5610867999494076,4991.869883900043,None,,,color18,001,2021_Nov_01_1551,ProdSingRedo,3.2.3,60.05230552294829,
,,,,68,0,68,0,,,,,,,,,,,,,,,,,,,,,,,,4997.620582600124,None,,,,,,,,,,,,,,,,,display,new_sing,blue,68,98,98,4992.986364200013,None,4992.986364200013,None,5,2.4925522999837995,4992.986364200013,None,4995.522186400136,None,4996.042117500212,None,4996.042117500212,None,f,1.5408522998914123,4996.042117500212,None,,,color18,001,2021_Nov_01_1551,ProdSingRedo,3.2.3,60.05230552294829,
,,,,69,0,69,0,,,,,,,,,,,,,,,,,,,,,,,,5001.653158500092,None,,,,,,,,,,,,,,,,,article,new_sing,blue,69,102,11,4998.143538600067,None,4998.143538600067,None,4,2.2157850000075996,4998.143538600067,None,5000.40097720013,None,5000.920394500019,None,5000.920394500019,None,f,0.694619000190869,5000.920394500019,None,,,color18,001,2021_Nov_01_1551,ProdSingRedo,3.2.3,60.05230552294829,
,,,,70,0,70,0,,,,,,,,,,,,,,,,,,,,,,,,5008.6267080002,None,,,,,,,,,,,,,,,,,signal,new_silent,yellow,70,169,287,5002.180079300189,None,5002.180079300189,None,3,4.426866699941456,5002.180079300189,None,5006.660090200137,None,5007.164935800014,None,5007.164935800014,None,n,1.425965600181371,5007.164935800014,None,,,color18,001,2021_Nov_01_1551,ProdSingRedo,3.2.3,60.05230552294829,
,,,,71,0,71,0,,,,,,,,,,,,,,,,,,,,,,,,5015.834039800102,None,,,,,,,,,,,,,,,,,balance,new_silent,yellow,71,151,17,5009.157375200186,None,5009.157375200186,None,4,4.63356010010466,5009.157375200186,None,5013.837610500166,None,5014.361302000005,None,5014.361302000005,None,n,1.4376346999779344,5014.361302000005,None,,,color18,001,2021_Nov_01_1551,ProdSingRedo,3.2.3,60.05230552294829,
,,,,72,0,72,0,,,,,,,,,,,,,,,,,,,,,,,,5024.0079669000115,None,,,,,,,,,,,,,,,,,raise,sing,blue,72,1,250,5016.359883700032,None,5016.359883700032,None,3,5.222699499921873,5016.359883700032,None,5021.600958800176,None,5022.116478600074,None,5022.116478600074,None,n,1.8668774000834674,5022.116478600074,None,,,color18,001,2021_Nov_01_1551,ProdSingRedo,3.2.3,60.05230552294829,
,,,,73,0,73,0,,,,,,,,,,,,,,,,,,,,,,,,5031.1627429001965,None,,,,,,,,,,,,,,,,,primary,new_silent,yellow,73,154,234,5024.535499100108,None,5024.535499100108,None,3,3.6956083001568913,5024.535499100108,None,5028.279432100011,None,5028.800530600129,None,5028.800530600129,None,n,2.3342998002190143,5028.800530600129,None,,,color18,001,2021_Nov_01_1551,ProdSingRedo,3.2.3,60.05230552294829,
,,,,74,0,74,0,,,,,,,,,,,,,,,,,,,,,,,,5040.219865299994,None,,,,,,,,,,,,,,,,,poetry,sing,blue,74,12,225,5031.686952600023,None,5031.686952600023,None,4,6.687750200042501,5031.686952600023,None,5038.422396900132,None,5038.927174100187,None,5038.927174100187,None,f,1.2478489999193698,5038.927174100187,None,,,color18,001,2021_Nov_01_1551,ProdSingRedo,3.2.3,60.05230552294829,
,,,,75,0,75,0,,,,,,,,,,,,,,,,,,,,,,,,5044.51302860002,None,,,,,,,,,,,,,,,,,school,sing,blue,75,15,274,5040.74615430017,None,5040.74615430017,None,3,2.6285808000247926,5040.74615430017,None,5043.420803999994,None,5043.926303000189,None,5043.926303000189,None,n,0.5608392001595348,5043.926303000189,None,,,color18,001,2021_Nov_01_1551,ProdSingRedo,3.2.3,60.05230552294829,
,,,,76,0,76,0,,,,,,,,,,,,,,,,,,,,,,,,5051.320020900108,None,,,,,,,,,,,,,,,,,science,new_sing,blue,76,95,275,5045.035790000111,None,5045.035790000111,None,2,4.331165599869564,5045.035790000111,None,5049.415837400127,None,5049.933400900103,None,5049.933400900103,None,n,1.353669200092554,5049.933400900103,None,,,color18,001,2021_Nov_01_1551,ProdSingRedo,3.2.3,60.05230552294829,
,,,,77,0,77,0,,,,,,,,,,,,,,,,,,,,,,,,5055.656872900203,None,,,,,,,,,,,,,,,,,quarter,new_silent,yellow,77,170,246,5051.829537500162,None,5051.829537500162,None,3,3.0095183001831174,5051.829537500162,None,5054.892032300122,None,5055.394744200166,None,5055.394744200166,None,n,0.2362774999346584,5055.394744200166,None,,,color18,001,2021_Nov_01_1551,ProdSingRedo,3.2.3,60.05230552294829,
,,,,78,0,78,0,,,,,,,,,,,,,,,,,,,,,,,,5062.69742280012,None,,,,,,,,,,,,,,,,,guide,new_aloud,red,78,126,147,5056.183293200098,None,5056.183293200098,None,4,3.511764300055802,5056.183293200098,None,5059.742372400127,None,5060.262778200209,None,5060.262778200209,None,f,2.4002506998367608,5060.262778200209,None,,,color18,001,2021_Nov_01_1551,ProdSingRedo,3.2.3,60.05230552294829,
,,,,79,0,79,0,,,,,,,,,,,,,,,,,,,,,,,,5067.019087700173,None,,,,,,,,,,,,,,,,,bureau,new_silent,yellow,79,152,37,5063.226309600053,None,5063.226309600053,None,1,2.6610191999934614,5063.226309600053,None,5065.932798700174,None,5066.457507200073,None,5066.457507200073,None,n,0.533515099901706,5066.457507200073,None,,,color18,001,2021_Nov_01_1551,ProdSingRedo,3.2.3,60.05230552294829,
,,,,80,0,80,0,,,,,,,,,,,,,,,,,,,,,,,,5070.755148900207,None,,,,,,,,,,,,,,,,,discussion,silent,yellow,80,62,96,5067.54647930013,None,5067.54647930013,None,3,2.604552899952978,5067.54647930013,None,5070.198577000061,None,5070.713524600025,None,5070.713524600025,None,n,0.013437099987640977,5070.713524600025,None,,,color18,001,2021_Nov_01_1551,ProdSingRedo,3.2.3,60.05230552294829,
,,,,81,0,81,0,,,,,,,,,,,,,,,,,,,,,,,,5079.712941700127,None,,,,,,,,,,,,,,,,,quick,sing,blue,81,27,248,5071.286069100024,None,5071.286069100024,None,2,7.305000699823722,5071.286069100024,None,5078.626136700157,None,5079.15184730012,None,5079.15184730012,None,n,0.5270644999109209,5079.15184730012,None,,,color18,001,2021_Nov_01_1551,ProdSingRedo,3.2.3,60.05230552294829,
,,,,82,0,82,0,,,,,,,,,,,,,,,,,,,,,,,,5083.501355700195,None,,,,,,,,,,,,,,,,,trend,new_silent,yellow,82,174,340,5080.234254300129,None,5080.234254300129,None,3,2.244750700192526,5080.234254300129,None,5082.533177000005,None,5083.048121100059,None,5083.048121100059,None,n,0.42293459991924465,5083.048121100059,None,,,color18,001,2021_Nov_01_1551,ProdSingRedo,3.2.3,60.05230552294829,
,,,,83,0,83,0,,,,,,,,,,,,,,,,,,,,,,,,5087.355078600114,None,,,,,,,,,,,,,,,,,oxygen,new_sing,blue,83,109,209,5084.029155299999,None,5084.029155299999,None,3,2.1459216000512242,5084.029155299999,None,5086.212734700181,None,5086.725132800173,None,5086.725132800173,None,n,0.5939191998913884,5086.725132800173,None,,,color18,001,2021_Nov_01_1551,ProdSingRedo,3.2.3,60.05230552294829,
,,,,84,0,84,0,,,,,,,,,,,,,,,,,,,,,,,,5093.312003200175,None,,,,,,,,,,,,,,,,,problem,aloud,red,84,33,238,5087.882237800164,None,5087.882237800164,None,6,2.1408905000425875,5087.882237800164,None,5090.074790500104,None,5090.596637699986,None,5090.596637699986,None,f,2.6826053999830037,5090.596637699986,None,,,color18,001,2021_Nov_01_1551,ProdSingRedo,3.2.3,60.05230552294829,
,,,,85,0,85,0,,,,,,,,,,,,,,,,,,,,,,,,5103.339393000118,None,,,,,,,,,,,,,,,,,service,sing,blue,85,6,280,5093.839611100033,None,5093.839611100033,None,6,7.807297100080177,5093.839611100033,None,5101.685823300155,None,5102.195991000161,None,5102.195991000161,None,f,1.1150726999621838,5102.195991000161,None,,,color18,001,2021_Nov_01_1551,ProdSingRedo,3.2.3,60.05230552294829,
,,,,86,0,86,0,,,,,,,,,,,,,,,,,,,,,,,,5114.717164000031,None,,,,,,,,,,,,,,,,,escape,new_silent,yellow,86,179,118,5103.860545200063,None,5103.860545200063,None,2,8.154168599983677,5103.860545200063,None,5112.045686500147,None,5112.567892400082,None,5112.567892400082,None,n,2.119119099806994,5112.567892400082,None,,,color18,001,2021_Nov_01_1551,ProdSingRedo,3.2.3,60.05230552294829,
,,,,87,0,87,0,,,,,,,,,,,,,,,,,,,,,,,,5121.789640900213,None,,,,,,,,,,,,,,,,,season,sing,blue,87,16,277,5115.24703800003,None,5115.24703800003,None,5,5.552362699992955,5115.24703800003,None,5120.833596599987,None,5121.358872500015,None,5121.358872500015,None,f,0.4081707000732422,5121.358872500015,None,,,color18,001,2021_Nov_01_1551,ProdSingRedo,3.2.3,60.05230552294829,
,,,,88,0,88,0,,,,,,,,,,,,,,,,,,,,,,,,5130.182371100178,None,,,,,,,,,,,,,,,,,solution,new_aloud,red,88,147,294,5122.320932600182,None,5122.320932600182,None,5,5.894170699873939,5122.320932600182,None,5128.263905100059,None,5128.786065000109,None,5128.786065000109,None,f,1.3729729000478983,5128.786065000109,None,,,color18,001,2021_Nov_01_1551,ProdSingRedo,3.2.3,60.05230552294829,
,,,,89,0,89,0,,,,,,,,,,,,,,,,,,,,,,,,5135.0535561,None,,,,,,,,,,,,,,,,,attack,sing,blue,89,25,13,5130.707592600025,None,5130.707592600025,None,3,2.3634573000017554,5130.707592600025,None,5133.122834500158,None,5133.639446899993,None,5133.639446899993,None,n,1.3755077000241727,5133.639446899993,None,,,color18,001,2021_Nov_01_1551,ProdSingRedo,3.2.3,60.05230552294829,
,,,,90,0,90,0,,,,,,,,,,,,,,,,,,,,,,,,5146.932476600166,None,,,,,,,,,,,,,,,,,majority,aloud,red,90,54,176,5135.584813100053,None,5135.584813100053,None,3,9.598486699862406,5135.584813100053,None,5145.2275009001605,None,5145.7550124002155,None,5145.7550124002155,None,f,1.1481355000287294,5145.7550124002155,None,,,color18,001,2021_Nov_01_1551,ProdSingRedo,3.2.3,60.05230552294829,
,,,,91,0,91,0,,,,,,,,,,,,,,,,,,,,,,,,5151.471300500212,None,,,,,,,,,,,,,,,,,mankind,new_aloud,red,91,127,178,5147.463300800184,None,5147.463300800184,None,1,1.9758724998682737,5147.463300800184,None,5149.490090999985,None,5150.016318100039,None,5150.016318100039,None,n,1.4227522001601756,5150.016318100039,None,,,color18,001,2021_Nov_01_1551,ProdSingRedo,3.2.3,60.05230552294829,
,,,,92,0,92,0,,,,,,,,,,,,,,,,,,,,,,,,5155.68971390021,None,,,,,,,,,,,,,,,,,phrase,aloud,red,92,56,220,5151.995358400047,None,5151.995358400047,None,2,1.9797600999008864,5151.995358400047,None,5154.022315500071,None,5154.541876300005,None,5154.541876300005,None,n,1.1132776997983456,5154.541876300005,None,,,color18,001,2021_Nov_01_1551,ProdSingRedo,3.2.3,60.05230552294829,
,,,,93,0,93,0,,,,,,,,,,,,,,,,,,,,,,,,5161.611406800104,None,,,,,,,,,,,,,,,,,opening,new_sing,blue,93,108,205,5156.216298300074,None,5156.216298300074,None,3,3.7588494999799877,5156.216298300074,None,5160.025722200051,None,5160.53057860001,None,5160.53057860001,None,n,1.0525466999970376,5160.53057860001,None,,,color18,001,2021_Nov_01_1551,ProdSingRedo,3.2.3,60.05230552294829,
,,,,94,0,94,0,,,,,,,,,,,,,,,,,,,,,,,,5171.372510100016,None,,,,,,,,,,,,,,,,,gesture,sing,blue,94,8,137,5162.123157400172,None,5162.123157400172,None,2,7.923889299854636,5162.123157400172,None,5170.087404000107,None,5170.608467100188,None,5170.608467100188,None,n,0.7346590999513865,5170.608467100188,None,,,color18,001,2021_Nov_01_1551,ProdSingRedo,3.2.3,60.05230552294829,
,,,,95,0,95,0,,,,,,,,,,,,,,,,,,,,,,,,5176.294244100107,None,,,,,,,,,,,,,,,,,management,new_sing,blue,95,93,177,5171.882805900183,None,5171.882805900183,None,4,2.068405299913138,5171.882805900183,None,5173.999350900063,None,5174.515584100038,None,5174.515584100038,None,f,1.7558591000270098,5174.515584100038,None,,,color18,001,2021_Nov_01_1551,ProdSingRedo,3.2.3,60.05230552294829,
,,,,96,0,96,0,,,,,,,,,,,,,,,,,,,,,,,,5182.400352400029,None,,,,,,,,,,,,,,,,,owner,aloud,red,96,44,208,5176.821151100099,None,5176.821151100099,None,6,3.762099899817258,5176.821151100099,None,5180.631058600033,None,5181.153179400135,None,5181.153179400135,None,f,1.213978199986741,5181.153179400135,None,,,color18,001,2021_Nov_01_1551,ProdSingRedo,3.2.3,60.05230552294829,
,,,,97,0,97,0,,,,,,,,,,,,,,,,,,,,,,,,5186.638816900086,None,,,,,,,,,,,,,,,,,republic,aloud,red,97,39,260,5182.927213400137,None,5182.927213400137,None,6,2.6240316999610513,5182.927213400137,None,5185.607566800201,None,5186.128088100115,None,5186.128088100115,None,f,0.4871555999852717,5186.128088100115,None,,,color18,001,2021_Nov_01_1551,ProdSingRedo,3.2.3,60.05230552294829,
,,,,98,0,98,0,,,,,,,,,,,,,,,,,,,,,,,,5191.60706160008,None,,,,,,,,,,,,,,,,,reach,silent,yellow,98,61,253,5187.162674900144,None,5187.162674900144,None,3,2.476544899865985,5187.162674900144,None,5189.691413599998,None,5190.196862300159,None,5190.196862300159,None,n,1.3860874001402408,5190.196862300159,None,,,color18,001,2021_Nov_01_1551,ProdSingRedo,3.2.3,60.05230552294829,
,,,,99,0,99,0,,,,,,,,,,,,,,,,,,,,,,,,5199.534028600203,None,,,,,,,,,,,,,,,,,speech,new_sing,blue,99,99,298,5192.131021200214,None,5192.131021200214,None,4,2.852158199995756,5192.131021200214,None,5195.0217301000375,None,5195.529785600025,None,5195.529785600025,None,f,3.9733874001540244,5195.529785600025,None,,,color18,001,2021_Nov_01_1551,ProdSingRedo,3.2.3,60.05230552294829,
,,,,100,0,100,0,,,,,,,,,,,,,,,,,,,,,,,,5212.631880200002,None,,,,,,,,,,,,,,,,,trash,silent,yellow,100,66,337,5200.05978570017,None,5200.05978570017,None,2,10.291479400126263,5200.05978570017,None,5210.396214600187,None,5210.9195917001925,None,5210.9195917001925,None,n,1.6875801999121904,5210.9195917001925,None,,,color18,001,2021_Nov_01_1551,ProdSingRedo,3.2.3,60.05230552294829,
,,,,101,0,101,0,,,,,,,,,,,,,,,,,,,,,,,,5218.068393000169,None,,,,,,,,,,,,,,,,,sight,new_aloud,red,101,132,286,5213.15702010016,None,5213.15702010016,None,3,3.2742327000014484,5213.15702010016,None,5216.4781684000045,None,5216.988216300029,None,5216.988216300029,None,n,1.0429873000830412,5216.988216300029,None,,,color18,001,2021_Nov_01_1551,ProdSingRedo,3.2.3,60.05230552294829,
,,,,102,0,102,0,,,,,,,,,,,,,,,,,,,,,,,,5222.223369100131,None,,,,,,,,,,,,,,,,,literature,new_sing,blue,102,112,173,5218.59622590011,None,5218.59622590011,None,5,1.8750656000338495,5218.59622590011,None,5220.520748100011,None,5221.045077100163,None,5221.045077100163,None,f,1.1462727999314666,5221.045077100163,None,,,color18,001,2021_Nov_01_1551,ProdSingRedo,3.2.3,60.05230552294829,
,,,,103,0,103,0,,,,,,,,,,,,,,,,,,,,,,,,5227.730271600187,None,,,,,,,,,,,,,,,,,medicine,aloud,red,103,37,186,5222.74737870018,None,5222.74737870018,None,3,2.891455000033602,5222.74737870018,None,5225.684170000022,None,5226.197838300141,None,5226.197838300141,None,n,1.5054201998282224,5226.197838300141,None,,,color18,001,2021_Nov_01_1551,ProdSingRedo,3.2.3,60.05230552294829,
,,,,104,0,104,0,,,,,,,,,,,,,,,,,,,,,,,,5235.405494600069,None,,,,,,,,,,,,,,,,,bucket,new_aloud,red,104,135,33,5228.257897700183,None,5228.257897700183,None,5,2.7814165998715907,5228.257897700183,None,5231.080379600171,None,5231.5973906000145,None,5231.5973906000145,None,f,3.7778972000814974,5231.5973906000145,None,,,color18,001,2021_Nov_01_1551,ProdSingRedo,3.2.3,60.05230552294829,
,,,,105,0,105,0,,,,,,,,,,,,,,,,,,,,,,,,5241.392315200064,None,,,,,,,,,,,,,,,,,brief,silent,yellow,105,83,28,5235.934206200065,None,5235.934206200065,None,2,3.52929629990831,5235.934206200065,None,5239.5127627002075,None,5240.028397400165,None,5240.028397400165,None,n,1.3390369999688119,5240.028397400165,None,,,color18,001,2021_Nov_01_1551,ProdSingRedo,3.2.3,60.05230552294829,
,,,,106,0,106,0,,,,,,,,,,,,,,,,,,,,,,,,5245.513773899991,None,,,,,,,,,,,,,,,,,symbol,new_silent,yellow,106,178,321,5241.92157490016,None,5241.92157490016,None,2,2.4136012999806553,5241.92157490016,None,5244.380929500097,None,5244.907944800099,None,5244.907944800099,None,n,0.5712445001117885,5244.907944800099,None,,,color18,001,2021_Nov_01_1551,ProdSingRedo,3.2.3,60.05230552294829,
,,,,107,0,107,0,,,,,,,,,,,,,,,,,,,,,,,,5252.086632800056,None,,,,,,,,,,,,,,,,,minor,new_sing,blue,107,117,191,5246.03610480018,None,5246.03610480018,None,2,3.6110492998268455,5246.03610480018,None,5249.694911100203,None,5250.201682500076,None,5250.201682500076,None,n,1.8535132999531925,5250.201682500076,None,,,color18,001,2021_Nov_01_1551,ProdSingRedo,3.2.3,60.05230552294829,
,,,,108,0,108,0,,,,,,,,,,,,,,,,,,,,,,,,5259.66112410021,None,,,,,,,,,,,,,,,,,crowd,new_aloud,red,108,120,81,5252.6155858000275,None,5252.6155858000275,None,4,5.85569900018163,5252.6155858000275,None,5258.513975500129,None,5259.03050000011,None,5259.03050000011,None,f,0.5927337999455631,5259.03050000011,None,,,color18,001,2021_Nov_01_1551,ProdSingRedo,3.2.3,60.05230552294829,
,,,,109,0,109,0,,,,,,,,,,,,,,,,,,,,,,,,5263.616171400063,None,,,,,,,,,,,,,,,,,front,silent,yellow,109,80,134,5260.185933300061,None,5260.185933300061,None,2,2.188986500026658,5260.185933300061,None,5262.390228500124,None,5262.902832800057,None,5262.902832800057,None,n,0.6882740000728518,5262.902832800057,None,,,color18,001,2021_Nov_01_1551,ProdSingRedo,3.2.3,60.05230552294829,
,,,,110,0,110,0,,,,,,,,,,,,,,,,,,,,,,,,5273.876399500063,None,,,,,,,,,,,,,,,,,addition,new_sing,blue,110,91,2,5264.143786400091,None,5264.143786400091,None,4,2.983358400175348,5264.143786400091,None,5267.165688900044,None,5267.695425100159,None,5267.695425100159,None,f,6.143782699946314,5267.695425100159,None,,,color18,001,2021_Nov_01_1551,ProdSingRedo,3.2.3,60.05230552294829,
,,,,111,0,111,0,,,,,,,,,,,,,,,,,,,,,,,,5293.098500600085,None,,,,,,,,,,,,,,,,,range,new_aloud,red,111,137,251,5274.40629900014,None,5274.40629900014,None,3,16.905028900131583,5274.40629900014,None,5291.36346940021,None,5291.869440900162,None,5291.869440900162,None,n,1.1938191000372171,5291.869440900162,None,,,color18,001,2021_Nov_01_1551,ProdSingRedo,3.2.3,60.05230552294829,
,,,,112,0,112,0,,,,,,,,,,,,,,,,,,,,,,,,5309.095544100041,None,,,,,,,,,,,,,,,,,guard,new_silent,yellow,112,156,145,5293.619372199988,None,5293.619372199988,None,2,6.187825399916619,5293.619372199988,None,5299.845716900192,None,5300.361728900112,None,5300.361728900112,None,n,8.701446500141174,5300.361728900112,None,,,color18,001,2021_Nov_01_1551,ProdSingRedo,3.2.3,60.05230552294829,
,,,,113,0,113,0,,,,,,,,,,,,,,,,,,,,,,,,5315.788325000089,None,,,,,,,,,,,,,,,,,country,new_aloud,red,113,146,73,5309.619564700173,None,5309.619564700173,None,3,3.9635409000329673,5309.619564700173,None,5313.632393300068,None,5314.138818600215,None,5314.138818600215,None,n,1.6203918000683188,5314.138818600215,None,,,color18,001,2021_Nov_01_1551,ProdSingRedo,3.2.3,60.05230552294829,
,,,,114,0,114,0,,,,,,,,,,,,,,,,,,,,,,,,5322.9751097001135,None,,,,,,,,,,,,,,,,,strength,new_aloud,red,114,123,310,5316.310092800064,None,5316.310092800064,None,4,5.08936470001936,5316.310092800064,None,5321.437208899995,None,5321.932919700164,None,5321.932919700164,None,f,1.010343800066039,5321.932919700164,None,,,color18,001,2021_Nov_01_1551,ProdSingRedo,3.2.3,60.05230552294829,
,,,,115,0,115,0,,,,,,,,,,,,,,,,,,,,,,,,5332.683479900006,None,,,,,,,,,,,,,,,,,industry,silent,yellow,115,64,161,5323.506268199999,None,5323.506268199999,None,2,6.948939400026575,5323.506268199999,None,5330.498261600034,None,5331.023289300036,None,5331.023289300036,None,n,1.631913400022313,5331.023289300036,None,,,color18,001,2021_Nov_01_1551,ProdSingRedo,3.2.3,60.05230552294829,
,,,,116,0,116,0,,,,,,,,,,,,,,,,,,,,,,,,5338.672331200214,None,,,,,,,,,,,,,,,,,shear,aloud,red,116,38,283,5333.208307099994,None,5333.208307099994,None,5,2.918843099847436,5333.208307099994,None,5336.166556700133,None,5336.691109100124,None,5336.691109100124,None,f,1.9482247999403626,5336.691109100124,None,,,color18,001,2021_Nov_01_1551,ProdSingRedo,3.2.3,60.05230552294829,
,,,,117,0,117,0,,,,,,,,,,,,,,,,,,,,,,,,5343.77971160016,None,,,,,,,,,,,,,,,,,mayor,aloud,red,117,41,183,5339.199454799993,None,5339.199454799993,None,5,2.871884200023487,5339.199454799993,None,5342.11030940013,None,5342.615281700157,None,5342.615281700157,None,f,1.1359586999751627,5342.615281700157,None,,,color18,001,2021_Nov_01_1551,ProdSingRedo,3.2.3,60.05230552294829,
,,,,118,0,118,0,,,,,,,,,,,,,,,,,,,,,,,,5346.864483600017,None,,,,,,,,,,,,,,,,,crime,new_aloud,red,118,139,78,5344.303262900095,None,5344.303262900095,None,4,1.680008800001815,5344.303262900095,None,5346.02534910012,None,5346.530271100113,None,5346.530271100113,None,f,0.3010148999746889,5346.530271100113,None,,,color18,001,2021_Nov_01_1551,ProdSingRedo,3.2.3,60.05230552294829,
,,,,119,0,119,0,,,,,,,,,,,,,,,,,,,,,,,,5350.200625400059,None,,,,,,,,,,,,,,,,,judge,aloud,red,119,43,166,5347.392546400195,None,5347.392546400195,None,2,2.0628058000002056,5347.392546400195,None,5349.498745599994,None,5350.010237600189,None,5350.010237600189,None,n,0.15702380007132888,5350.010237600189,None,,,color18,001,2021_Nov_01_1551,ProdSingRedo,3.2.3,60.05230552294829,
,,,,120,0,120,0,,,,,,,,,,,,,,,,,,,,,,,,5353.60446170019,None,,,,,,,,,,,,,,,,,running,silent,yellow,120,72,268,5350.74679910019,None,5350.74679910019,None,1,2.204450099961832,5350.74679910019,None,5353.007032599999,None,5353.508199800039,None,5353.508199800039,None,n,0.06704370002262294,5353.508199800039,None,,,color18,001,2021_Nov_01_1551,ProdSingRedo,3.2.3,60.05230552294829,
,,,,121,0,121,0,,,,,,,,,,,,,,,,,,,,,,,,5359.26046050014,None,,,,,,,,,,,,,,,,,generation,silent,yellow,121,75,136,5354.1376711002085,None,5354.1376711002085,None,1,4.045687699923292,5354.1376711002085,None,5358.2315970000345,None,5358.75102130021,None,5358.75102130021,None,n,0.4803291999269277,5358.75102130021,None,,,color18,001,2021_Nov_01_1551,ProdSingRedo,3.2.3,60.05230552294829,
,,,,122,0,122,0,,,,,,,,,,,,,,,,,,,,,,,,5366.0832584002055,None,,,,,,,,,,,,,,,,,court,new_silent,yellow,122,172,75,5359.78927180008,None,5359.78927180008,None,3,3.0980592002160847,5359.78927180008,None,5362.927405600203,None,5363.451755200047,None,5363.451755200047,None,n,2.59551540017128,5363.451755200047,None,,,color18,001,2021_Nov_01_1551,ProdSingRedo,3.2.3,60.05230552294829,
,,,,123,0,123,0,,,,,,,,,,,,,,,,,,,,,,,,5371.155106200138,None,,,,,,,,,,,,,,,,,atmosphere,sing,blue,123,13,12,5366.611945600016,None,5366.611945600016,None,2,2.4832832999527454,5366.611945600016,None,5369.138478400186,None,5369.6571998000145,None,5369.6571998000145,None,n,1.4620755999349058,5369.6571998000145,None,,,color18,001,2021_Nov_01_1551,ProdSingRedo,3.2.3,60.05230552294829,
,,,,124,0,124,0,,,,,,,,,,,,,,,,,,,,,,,,5375.877982500009,None,,,,,,,,,,,,,,,,,south,sing,blue,124,7,296,5371.682776900008,None,5371.682776900008,None,2,1.8447636999189854,5371.682776900008,None,5373.577137200162,None,5374.094543599989,None,5374.094543599989,None,n,1.7527456998359412,5374.094543599989,None,,,color18,001,2021_Nov_01_1551,ProdSingRedo,3.2.3,60.05230552294829,
,,,,125,0,125,0,,,,,,,,,,,,,,,,,,,,,,,,5385.35429830011,None,,,,,,,,,,,,,,,,,audience,new_aloud,red,125,141,14,5376.401768100215,None,5376.401768100215,None,4,6.517971399938688,5376.401768100215,None,5382.968706200132,None,5383.487748700194,None,5383.487748700194,None,f,1.8395713998470455,5383.487748700194,None,,,color18,001,2021_Nov_01_1551,ProdSingRedo,3.2.3,60.05230552294829,
,,,,126,0,126,0,,,,,,,,,,,,,,,,,,,,,,,,5390.408202900086,None,,,,,,,,,,,,,,,,,frank,aloud,red,126,51,133,5385.880135199986,None,5385.880135199986,None,4,2.215290099848062,5385.880135199986,None,5388.13630800019,None,5388.6638906002045,None,5388.6638906002045,None,f,1.7113363998942077,5388.6638906002045,None,,,color18,001,2021_Nov_01_1551,ProdSingRedo,3.2.3,60.05230552294829,
,,,,127,0,127,0,,,,,,,,,,,,,,,,,,,,,,,,5396.899061500095,None,,,,,,,,,,,,,,,,,drink,sing,blue,127,24,105,5390.933472700184,None,5390.933472700184,None,2,5.009856800083071,5390.933472700184,None,5395.990368600003,None,5396.4994586000685,None,5396.4994586000685,None,n,0.37186069996096194,5396.4994586000685,None,,,color18,001,2021_Nov_01_1551,ProdSingRedo,3.2.3,60.05230552294829,
,,,,128,0,128,0,,,,,,,,,,,,,,,,,,,,,,,,5401.7683973000385,None,,,,,,,,,,,,,,,,,search,sing,blue,128,29,276,5397.427177200094,None,5397.427177200094,None,3,3.1565400999970734,5397.427177200094,None,5400.63427070016,None,5401.138362100115,None,5401.138362100115,None,n,0.5969199000392109,5401.138362100115,None,,,color18,001,2021_Nov_01_1551,ProdSingRedo,3.2.3,60.05230552294829,
,,,,129,0,129,0,,,,,,,,,,,,,,,,,,,,,,,,5406.589817300206,None,,,,,,,,,,,,,,,,,career,silent,yellow,129,78,42,5402.292457200121,None,5402.292457200121,None,2,1.8748637998942286,5402.292457200121,None,5404.218918400118,None,5404.748867300106,None,5404.748867300106,None,n,1.8108035000041127,5404.748867300106,None,,,color18,001,2021_Nov_01_1551,ProdSingRedo,3.2.3,60.05230552294829,
,,,,130,0,130,0,,,,,,,,,,,,,,,,,,,,,,,,5419.155636400217,None,,,,,,,,,,,,,,,,,suspect,new_sing,blue,130,100,318,5407.116172700189,None,5407.116172700189,None,4,10.154987300047651,5407.116172700189,None,5417.317376899999,None,5417.839818800101,None,5417.839818800101,None,n,1.2875043000094593,5417.839818800101,None,,,color18,001,2021_Nov_01_1551,ProdSingRedo,3.2.3,60.05230552294829,
,,,,131,0,131,0,,,,,,,,,,,,,,,,,,,,,,,,5422.590314600151,None,,,,,,,,,,,,,,,,,union,new_sing,blue,131,90,344,5419.680127200205,None,5419.680127200205,None,1,1.8791873999871314,5419.680127200205,None,5421.603652600199,None,5422.112155100098,None,5422.112155100098,None,n,0.44739330001175404,5422.112155100098,None,,,color18,001,2021_Nov_01_1551,ProdSingRedo,3.2.3,60.05230552294829,
,,,,132,0,132,0,,,,,,,,,,,,,,,,,,,,,,,,5425.492526800139,None,,,,,,,,,,,,,,,,,welcome,new_sing,blue,132,104,354,5423.113890300039,None,5423.113890300039,None,1,1.7412973998580128,5423.113890300039,None,5424.906006100122,None,5425.411653900053,None,5425.411653900053,None,n,0.04373729997314513,5425.411653900053,None,,,color18,001,2021_Nov_01_1551,ProdSingRedo,3.2.3,60.05230552294829,
,,,,133,0,133,0,,,,,,,,,,,,,,,,,,,,,,,,5432.716379899997,None,,,,,,,,,,,,,,,,,break,new_aloud,red,133,142,26,5426.019217400113,None,5426.019217400113,None,3,1.892100399825722,5426.019217400113,None,5427.971194999991,None,5428.486270300113,None,5428.486270300113,None,f,4.192991799907759,5428.486270300113,None,,,color18,001,2021_Nov_01_1551,ProdSingRedo,3.2.3,60.05230552294829,
,,,,134,0,134,0,,,,,,,,,,,,,,,,,,,,,,,,5438.5739198999945,None,,,,,,,,,,,,,,,,,native,aloud,red,134,59,199,5433.246203500079,None,5433.246203500079,None,4,2.8892322999890894,5433.246203500079,None,5436.192909600213,None,5436.711889000144,None,5436.711889000144,None,f,1.8393747999798506,5436.711889000144,None,,,color18,001,2021_Nov_01_1551,ProdSingRedo,3.2.3,60.05230552294829,
,,,,135,0,135,0,,,,,,,,,,,,,,,,,,,,,,,,5442.119657400064,None,,,,,,,,,,,,,,,,,household,aloud,red,135,47,154,5439.0991738000885,None,5439.0991738000885,None,4,2.108154600020498,5439.0991738000885,None,5441.256839500042,None,5441.769273700193,None,5441.769273700193,None,f,0.3256451999768615,5441.769273700193,None,,,color18,001,2021_Nov_01_1551,ProdSingRedo,3.2.3,60.05230552294829,
,,,,136,0,136,0,,,,,,,,,,,,,,,,,,,,,,,,5448.867358000018,None,,,,,,,,,,,,,,,,,husband,silent,yellow,136,89,156,5442.645670100115,None,5442.645670100115,None,5,3.393647399963811,5442.645670100115,None,5446.085981900105,None,5446.5888041001745,None,5446.5888041001745,None,f,2.250558099942282,5446.5888041001745,None,,,color18,001,2021_Nov_01_1551,ProdSingRedo,3.2.3,60.05230552294829,
,,,,137,0,137,0,,,,,,,,,,,,,,,,,,,,,,,,5453.25460240012,None,,,,,,,,,,,,,,,,,carry,sing,blue,137,20,43,5449.391437600134,None,5449.391437600134,None,3,1.7117685999255627,5449.391437600134,None,5451.155178999994,None,5451.672130700201,None,5451.672130700201,None,f,1.5597694998141378,5451.672130700201,None,,,color18,001,2021_Nov_01_1551,ProdSingRedo,3.2.3,60.05230552294829,
,,,,138,0,138,0,,,,,,,,,,,,,,,,,,,,,,,,5468.289515100187,None,,,,,,,,,,,,,,,,,scene,new_sing,blue,138,92,273,5453.777700800216,None,5453.777700800216,None,3,13.053706499980763,5453.777700800216,None,5466.880477200029,None,5467.394997199997,None,5467.394997199997,None,n,0.8602809999138117,5467.394997199997,None,,,color18,001,2021_Nov_01_1551,ProdSingRedo,3.2.3,60.05230552294829,
,,,,139,0,139,0,,,,,,,,,,,,,,,,,,,,,,,,5479.131468200125,None,,,,,,,,,,,,,,,,,answer,sing,blue,139,10,8,5468.808747000061,None,5468.808747000061,None,2,8.158515100134537,5468.808747000061,None,5477.01729060011,None,5477.526545200031,None,5477.526545200031,None,n,1.5768912001512945,5477.526545200031,None,,,color18,001,2021_Nov_01_1551,ProdSingRedo,3.2.3,60.05230552294829,
,,,,140,0,140,0,,,,,,,,,,,,,,,,,,,,,,,,5491.3778536000755,None,,,,,,,,,,,,,,,,,individual,new_sing,blue,140,97,160,5479.65973280021,None,5479.65973280021,None,3,7.563773500034586,5479.65973280021,None,5487.282829900039,None,5487.798729700036,None,5487.798729700036,None,n,3.5446051000617445,5487.798729700036,None,,,color18,001,2021_Nov_01_1551,ProdSingRedo,3.2.3,60.05230552294829,
,,,,141,0,141,0,,,,,,,,,,,,,,,,,,,,,,,,5496.483809099998,None,,,,,,,,,,,,,,,,,community,sing,blue,141,3,63,5491.901510500116,None,5491.901510500116,None,5,2.5619800998829305,5491.901510500116,None,5494.510469400091,None,5495.036407000152,None,5495.036407000152,None,f,1.4192122998647392,5495.036407000152,None,,,color18,001,2021_Nov_01_1551,ProdSingRedo,3.2.3,60.05230552294829,
,,,,142,0,142,0,,,,,,,,,,,,,,,,,,,,,,,,5505.8234139001,None,,,,,,,,,,,,,,,,,center,aloud,red,142,35,44,5497.004281200003,None,5497.004281200003,None,3,7.035054000094533,5497.004281200003,None,5504.086999100167,None,5504.603480500169,None,5504.603480500169,None,n,1.1957812998443842,5504.603480500169,None,,,color18,001,2021_Nov_01_1551,ProdSingRedo,3.2.3,60.05230552294829,
,,,,143,0,143,0,,,,,,,,,,,,,,,,,,,,,,,,5513.9653285001405,None,,,,,,,,,,,,,,,,,edition,aloud,red,143,31,107,5506.348548000213,None,5506.348548000213,None,4,6.002903399989009,5506.348548000213,None,5512.392720300006,None,5512.913838000037,None,5512.913838000037,None,f,1.013513799989596,5512.913838000037,None,,,color18,001,2021_Nov_01_1551,ProdSingRedo,3.2.3,60.05230552294829,
,,,,144,0,144,0,,,,,,,,,,,,,,,,,,,,,,,,5517.736995500047,None,,,,,,,,,,,,,,,,,education,new_silent,yellow,144,173,108,5514.499712800141,None,5514.499712800141,None,2,2.187713500112295,5514.499712800141,None,5516.736807900015,None,5517.258660200052,None,5517.258660200052,None,n,0.45257119997404516,5517.258660200052,None,,,color18,001,2021_Nov_01_1551,ProdSingRedo,3.2.3,60.05230552294829,
,,,,145,0,145,0,,,,,,,,,,,,,,,,,,,,,,,,5521.949548100121,None,,,,,,,,,,,,,,,,,present,silent,yellow,145,74,231,5518.257867500186,None,5518.257867500186,None,3,1.957664999878034,5518.257867500186,None,5520.248605100205,None,5520.754557900131,None,5520.754557900131,None,n,1.1648086998611689,5520.754557900131,None,,,color18,001,2021_Nov_01_1551,ProdSingRedo,3.2.3,60.05230552294829,
,,,,146,0,146,0,,,,,,,,,,,,,,,,,,,,,,,,5526.57797130011,None,,,,,,,,,,,,,,,,,captain,new_aloud,red,146,128,41,5522.468694600044,None,5522.468694600044,None,5,3.034946999978274,5522.468694600044,None,5525.5486527001485,None,5526.065258400049,None,5526.065258400049,None,f,0.47813800000585616,5526.065258400049,None,,,color18,001,2021_Nov_01_1551,ProdSingRedo,3.2.3,60.05230552294829,
,,,,147,0,147,0,,,,,,,,,,,,,,,,,,,,,,,,5532.209601900075,None,,,,,,,,,,,,,,,,,citizen,new_sing,blue,147,96,50,5527.1124542001635,None,5527.1124542001635,None,4,2.1909332000650465,5527.1124542001635,None,5529.342116900021,None,5529.8515000999905,None,5529.8515000999905,None,f,2.331476000137627,5529.8515000999905,None,,,color18,001,2021_Nov_01_1551,ProdSingRedo,3.2.3,60.05230552294829,
,,,,148,0,148,0,,,,,,,,,,,,,,,,,,,,,,,,5537.758594400017,None,,,,,,,,,,,,,,,,,society,silent,yellow,148,86,293,5532.72520440002,None,5532.72520440002,None,3,2.362156799994409,5532.72520440002,None,5535.137488500215,None,5535.661401200108,None,5535.661401200108,None,n,2.0660685999318957,5535.661401200108,None,,,color18,001,2021_Nov_01_1551,ProdSingRedo,3.2.3,60.05230552294829,
,,,,149,0,149,0,,,,,,,,,,,,,,,,,,,,,,,,5541.963944300078,None,,,,,,,,,,,,,,,,,smell,new_silent,yellow,149,157,291,5538.277970500058,None,5538.277970500058,None,2,2.0893713000696152,5538.277970500058,None,5540.401926200138,None,5540.901667600032,None,5540.901667600032,None,n,1.0335532000754029,5540.901667600032,None,,,color18,001,2021_Nov_01_1551,ProdSingRedo,3.2.3,60.05230552294829,
,,,,150,0,150,0,,,,,,,,,,,,,,,,,,,,,,,,5556.959026199998,None,,,,,,,,,,,,,,,,,theme,sing,blue,150,5,326,5542.479908200214,None,5542.479908200214,None,2,12.951545299962163,5542.479908200214,None,5555.466626000125,None,5555.974719100166,None,5555.974719100166,None,n,0.9527292000129819,5555.974719100166,None,,,color18,001,2021_Nov_01_1551,ProdSingRedo,3.2.3,60.05230552294829,
,,,,151,0,151,0,,,,,,,,,,,,,,,,,,,,,,,,5560.496431100182,None,,,,,,,,,,,,,,,,,salary,new_aloud,red,151,140,271,5557.48912849999,None,5557.48912849999,None,4,1.9985722000710666,5557.48912849999,None,5559.525931100128,None,5560.052087299991,None,5560.052087299991,None,n,0.4116819000337273,5560.052087299991,None,,,color18,001,2021_Nov_01_1551,ProdSingRedo,3.2.3,60.05230552294829,
,,,,152,0,152,0,,,,,,,,,,,,,,,,,,,,,,,,5563.831430300139,None,,,,,,,,,,,,,,,,,brilliant,new_sing,blue,152,94,30,5561.0235629000235,None,5561.0235629000235,None,3,2.055926000000909,5561.0235629000235,None,5563.135977800004,None,5563.654980600113,None,5563.654980600113,None,n,0.14437979995273054,5563.654980600113,None,,,color18,001,2021_Nov_01_1551,ProdSingRedo,3.2.3,60.05230552294829,
,,,,153,0,153,0,,,,,,,,,,,,,,,,,,,,,,,,5568.85328060016,None,,,,,,,,,,,,,,,,,whole,silent,yellow,153,65,355,5564.357349100057,None,5564.357349100057,None,4,2.2102800998836756,5564.357349100057,None,5566.6157549000345,None,5567.135338600026,None,5567.135338600026,None,f,1.6881992002017796,5567.135338600026,None,,,color18,001,2021_Nov_01_1551,ProdSingRedo,3.2.3,60.05230552294829,
,,,,154,0,154,0,,,,,,,,,,,,,,,,,,,,,,,,5574.858959900215,None,,,,,,,,,,,,,,,,,growth,new_sing,blue,154,118,144,5569.3824402000755,None,5569.3824402000755,None,3,4.712988399900496,5569.3824402000755,None,5574.143381400034,None,5574.647170100128,None,5574.647170100128,None,n,0.17630720022134483,5574.647170100128,None,,,color18,001,2021_Nov_01_1551,ProdSingRedo,3.2.3,60.05230552294829,
,,,,155,0,155,0,,,,,,,,,,,,,,,,,,,,,,,,5579.981887700036,None,,,,,,,,,,,,,,,,,worker,new_aloud,red,155,144,356,5575.390228200005,None,5575.390228200005,None,4,2.8811492999084294,5575.390228200005,None,5578.318684100173,None,5578.835133100161,None,5578.835133100161,None,n,1.1084764001425356,5578.835133100161,None,,,color18,001,2021_Nov_01_1551,ProdSingRedo,3.2.3,60.05230552294829,
,,,,156,0,156,0,,,,,,,,,,,,,,,,,,,,,,,,5585.120766600128,None,,,,,,,,,,,,,,,,,sleep,silent,yellow,156,82,290,5580.507081200136,None,5580.507081200136,None,2,3.052277599927038,5580.507081200136,None,5583.595550300088,None,5584.100154600106,None,5584.100154600106,None,n,0.9951185998506844,5584.100154600106,None,,,color18,001,2021_Nov_01_1551,ProdSingRedo,3.2.3,60.05230552294829,
,,,,157,0,157,0,,,,,,,,,,,,,,,,,,,,,,,,5596.8824345001485,None,,,,,,,,,,,,,,,,,public,aloud,red,157,46,244,5585.647703299997,None,5585.647703299997,None,3,10.343574699945748,5585.647703299997,None,5596.035847800085,None,5596.553676499985,None,5596.553676499985,None,n,0.30164130008779466,5596.553676499985,None,,,color18,001,2021_Nov_01_1551,ProdSingRedo,3.2.3,60.05230552294829,
,,,,158,0,158,0,,,,,,,,,,,,,,,,,,,,,,,,5600.563446700107,None,,,,,,,,,,,,,,,,,straight,new_silent,yellow,158,175,307,5597.415359800216,None,5597.415359800216,None,2,1.8400841997936368,5597.415359800216,None,5599.304908400169,None,5599.825369200204,None,5599.825369200204,None,n,0.7179705000016838,5599.825369200204,None,,,color18,001,2021_Nov_01_1551,ProdSingRedo,3.2.3,60.05230552294829,
,,,,159,0,159,0,,,,,,,,,,,,,,,,,,,,,,,,5608.0595780999865,None,,,,,,,,,,,,,,,,,childhood,new_silent,yellow,159,171,49,5601.0902678000275,None,5601.0902678000275,None,2,5.69315730012022,5601.0902678000275,None,5606.835466300137,None,5607.346608099993,None,5607.346608099993,None,n,0.6768835999537259,5607.346608099993,None,,,color18,001,2021_Nov_01_1551,ProdSingRedo,3.2.3,60.05230552294829,
,,,,160,0,160,0,,,,,,,,,,,,,,,,,,,,,,,,5617.700834500138,None,,,,,,,,,,,,,,,,,build,silent,yellow,160,70,35,5608.587402900215,None,5608.587402900215,None,3,7.11600529984571,5608.587402900215,None,5615.752488500206,None,5616.277219300158,None,5616.277219300158,None,n,1.4024182001594454,5616.277219300158,None,,,color18,001,2021_Nov_01_1551,ProdSingRedo,3.2.3,60.05230552294829,
,,,,161,0,161,0,,,,,,,,,,,,,,,,,,,,,,,,5624.478342100047,None,,,,,,,,,,,,,,,,,pattern,aloud,red,161,55,214,5618.226324600168,None,5618.226324600168,None,4,5.173293999861926,5618.226324600168,None,5623.443354099989,None,5623.962206199998,None,5623.962206199998,None,f,0.4772499001119286,5623.962206199998,None,,,color18,001,2021_Nov_01_1551,ProdSingRedo,3.2.3,60.05230552294829,
,,,,162,0,162,0,,,,,,,,,,,,,,,,,,,,,,,,5628.162821800215,None,,,,,,,,,,,,,,,,,tragedy,new_aloud,red,162,143,335,5624.993550500134,None,5624.993550500134,None,3,2.2699272001627833,5624.993550500134,None,5627.313946300186,None,5627.83311610017,None,5627.83311610017,None,n,0.29443600005470216,5627.83311610017,None,,,color18,001,2021_Nov_01_1551,ProdSingRedo,3.2.3,60.05230552294829,
,,,,163,0,163,0,,,,,,,,,,,,,,,,,,,,,,,,5633.1686222001445,None,,,,,,,,,,,,,,,,,universal,new_silent,yellow,163,158,345,5628.695857200073,None,5628.695857200073,None,2,3.615617200033739,5628.695857200073,None,5632.35759460018,None,5632.8739815000445,None,5632.8739815000445,None,n,0.26942819985561073,5632.8739815000445,None,,,color18,001,2021_Nov_01_1551,ProdSingRedo,3.2.3,60.05230552294829,
,,,,164,0,164,0,,,,,,,,,,,,,,,,,,,,,,,,5636.371764700161,None,,,,,,,,,,,,,,,,,religion,new_aloud,red,164,145,258,5633.695921700215,None,5633.695921700215,None,3,1.7115887000691146,5633.695921700215,None,5635.454555400182,None,5635.956854500109,None,5635.956854500109,None,n,0.3867449997924268,5635.956854500109,None,,,color18,001,2021_Nov_01_1551,ProdSingRedo,3.2.3,60.05230552294829,
,,,,165,0,165,0,,,,,,,,,,,,,,,,,,,,,,,,5643.162789700087,None,,,,,,,,,,,,,,,,,comfort,silent,yellow,165,84,59,5636.897933,None,5636.897933,None,3,5.197596600046381,5636.897933,None,5642.144499700051,None,5642.669597100001,None,5642.669597100001,None,n,0.4579219000879675,5642.669597100001,None,,,color18,001,2021_Nov_01_1551,ProdSingRedo,3.2.3,60.05230552294829,
,,,,166,0,166,0,,,,,,,,,,,,,,,,,,,,,,,,5649.049246900016,None,,,,,,,,,,,,,,,,,government,new_silent,yellow,166,166,139,5643.692893100204,None,5643.692893100204,None,3,4.218687500106171,5643.692893100204,None,5647.971711500082,None,5648.4902764,None,5648.4902764,None,n,0.5252525999676436,5648.4902764,None,,,color18,001,2021_Nov_01_1551,ProdSingRedo,3.2.3,60.05230552294829,
,,,,167,0,167,0,,,,,,,,,,,,,,,,,,,,,,,,5654.605721100001,None,,,,,,,,,,,,,,,,,resistance,new_silent,yellow,167,163,262,5649.56038720021,None,5649.56038720021,None,2,3.3990766999777406,5649.56038720021,None,5653.011937100207,None,5653.507552500116,None,5653.507552500116,None,n,1.07596779987216,5653.507552500116,None,,,color18,001,2021_Nov_01_1551,ProdSingRedo,3.2.3,60.05230552294829,
,,,,168,0,168,0,,,,,,,,,,,,,,,,,,,,,,,,5658.0971666001715,None,,,,,,,,,,,,,,,,,member,new_silent,yellow,168,160,188,5655.1336940000765,None,5655.1336940000765,None,3,1.8097648001275957,5655.1336940000765,None,5656.988851100206,None,5657.512228400214,None,5657.512228400214,None,n,0.543335699941963,5657.512228400214,None,,,color18,001,2021_Nov_01_1551,ProdSingRedo,3.2.3,60.05230552294829,
,,,,169,0,169,0,,,,,,,,,,,,,,,,,,,,,,,,5663.319647000171,None,,,,,,,,,,,,,,,,,revolution,sing,blue,169,28,264,5658.618260000134,None,5658.618260000134,None,6,2.5891856998205185,5658.618260000134,None,5661.249100200133,None,5661.766208100133,None,5661.766208100133,None,n,1.5213798999320716,5661.766208100133,None,,,color18,001,2021_Nov_01_1551,ProdSingRedo,3.2.3,60.05230552294829,
,,,,170,0,170,0,,,,,,,,,,,,,,,,,,,,,,,,5673.456398000009,None,,,,,,,,,,,,,,,,,silence,aloud,red,170,32,288,5663.8469138999935,None,5663.8469138999935,None,4,5.6566304001025856,5663.8469138999935,None,5669.543640200049,None,5670.0540549000725,None,5670.0540549000725,None,f,3.3614462001714855,5670.0540549000725,None,,,color18,001,2021_Nov_01_1551,ProdSingRedo,3.2.3,60.05230552294829,
,,,,171,0,171,0,,,,,,,,,,,,,,,,,,,,,,,,5681.22370010009,None,,,,,,,,,,,,,,,,,health,new_silent,yellow,171,162,149,5673.981869300129,None,5673.981869300129,None,3,6.56971099996008,5673.981869300129,None,5680.596750100143,None,5681.101683600107,None,5681.101683600107,None,n,0.08970550005324185,5681.101683600107,None,,,color18,001,2021_Nov_01_1551,ProdSingRedo,3.2.3,60.05230552294829,
,,,,172,0,172,0,,,,,,,,,,,,,,,,,,,,,,,,5685.886454000138,None,,,,,,,,,,,,,,,,,pretty,new_sing,blue,172,113,233,5681.729412200162,None,5681.729412200162,None,3,2.110146699938923,5681.729412200162,None,5683.879311100114,None,5684.388185800053,None,5684.388185800053,None,n,1.4752245999407023,5684.388185800053,None,,,color18,001,2021_Nov_01_1551,ProdSingRedo,3.2.3,60.05230552294829,
,,,,173,0,173,0,,,,,,,,,,,,,,,,,,,,,,,,5696.5793088001665,None,,,,,,,,,,,,,,,,,council,silent,yellow,173,60,71,5686.413388200104,None,5686.413388200104,None,3,8.586217900039628,5686.413388200104,None,5695.046315200161,None,5695.566255700076,None,5695.566255700076,None,n,0.9772546000313014,5695.566255700076,None,,,color18,001,2021_Nov_01_1551,ProdSingRedo,3.2.3,60.05230552294829,
,,,,174,0,174,0,,,,,,,,,,,,,,,,,,,,,,,,5702.853358700173,None,,,,,,,,,,,,,,,,,short,silent,yellow,174,63,285,5697.102434400003,None,5697.102434400003,None,3,4.145094399806112,5697.102434400003,None,5701.281511200126,None,5701.800343600102,None,5701.800343600102,None,n,1.0310039999894798,5701.800343600102,None,,,color18,001,2021_Nov_01_1551,ProdSingRedo,3.2.3,60.05230552294829,
,,,,175,0,175,0,,,,,,,,,,,,,,,,,,,,,,,,5707.209051700076,None,,,,,,,,,,,,,,,,,commercial,new_silent,yellow,175,168,61,5703.365633500041,None,5703.365633500041,None,3,2.9378045999910682,5703.365633500041,None,5706.357920899987,None,5706.865318000084,None,5706.865318000084,None,n,0.3180851999204606,5706.865318000084,None,,,color18,001,2021_Nov_01_1551,ProdSingRedo,3.2.3,60.05230552294829,
,,,,176,0,176,0,,,,,,,,,,,,,,,,,,,,,,,,5713.835872400086,None,,,,,,,,,,,,,,,,,smooth,new_silent,yellow,176,153,292,5707.730253300164,None,5707.730253300164,None,4,4.108851999975741,5707.730253300164,None,5711.8559940001,None,5712.356779200025,None,5712.356779200025,None,n,1.4506882999558002,5712.356779200025,None,,,color18,001,2021_Nov_01_1551,ProdSingRedo,3.2.3,60.05230552294829,
,,,,177,0,177,0,,,,,,,,,,,,,,,,,,,,,,,,5722.989939900115,None,,,,,,,,,,,,,,,,,couch,new_aloud,red,177,136,70,5714.357603900135,None,5714.357603900135,None,3,7.9218704998493195,5714.357603900135,None,5722.323799000122,None,5722.843415800016,None,5722.843415800016,None,n,0.12408350012265146,5722.843415800016,None,,,color18,001,2021_Nov_01_1551,ProdSingRedo,3.2.3,60.05230552294829,
,,,,178,0,178,0,,,,,,,,,,,,,,,,,,,,,,,,5728.789448100142,None,,,,,,,,,,,,,,,,,shape,new_sing,blue,178,116,282,5723.515693100169,None,5723.515693100169,None,2,4.171436100034043,5723.515693100169,None,5727.7067805000115,None,5728.231036100071,None,5728.231036100071,None,n,0.5284233998972923,5728.231036100071,None,,,color18,001,2021_Nov_01_1551,ProdSingRedo,3.2.3,60.05230552294829,
,,,,179,0,179,0,,,,,,,,,,,,,,,,,,,,,,,,5731.499108600197,None,,,,,,,,,,,,,,,,,volume,sing,blue,179,23,349,5729.294668100076,None,5729.294668100076,None,2,1.4967503999359906,5729.294668100076,None,5730.827333500143,None,5731.354576500133,None,5731.354576500133,None,n,0.1169848998542875,5731.354576500133,None,,,color18,001,2021_Nov_01_1551,ProdSingRedo,3.2.3,60.05230552294829,
,,,,,,,,,,,,,,,,,,,,,,,,,,,,,,,,,,,,,,,,,,,,,,,,,,,,,,,,,,,,,,,,,,,,,,,,,5732.0102562000975,None,,,,,,,
