StudyLoop.thisRepN,StudyLoop.thisTrialN,StudyLoop.thisN,StudyLoop.thisIndex,TestLoop.thisRepN,TestLoop.thisTrialN,TestLoop.thisN,TestLoop.thisIndex,textCondition.started,textCondition.stopped,keyCondition.keys,keyCondition.rt,keyCondition.started,keyCondition.stopped,Condition,stim_colors,color_sing,color_aloud,color_silent,textWelcome.started,textWelcome.stopped,keyWelcome.keys,keyWelcome.rt,keyWelcome.started,keyWelcome.stopped,textAloud.started,textAloud.stopped,textSilent.started,textSilent.stopped,textSing.started,textSing.stopped,textBlank500.started,textBlank500.stopped,study_word,study_type,study_color,study_num,study_word_num,textStudy.started,textStudy.stopped,keyStudy.keys,keyStudy.started,keyStudy.stopped,textTestInstructions.started,textTestInstructions.stopped,key_resp_3.keys,key_resp_3.rt,key_resp_3.started,key_resp_3.stopped,testWord,testType,testColor,testN,test_num,test_word_num,textConf.started,textConf.stopped,textConfScale.started,textConfScale.stopped,keyConf.keys,keyConf.rt,keyConf.started,keyConf.stopped,textTestBlank.started,textTestBlank.stopped,textRKN.started,textRKN.stopped,textRKNScale.started,textRKNScale.stopped,keyRKN.keys,keyRKN.rt,keyRKN.started,keyRKN.stopped,textEnd.started,textEnd.stopped,participant,session,date,expName,psychopyVersion,frameRate,
,,,,,,,,22.06915010139346,None,y,4.428479800000787,22.06915010139346,None,,,,,,,,,,,,,,,,,,,,,,,,,,,,,,,,,,,,,,,,,,,,,,,,,,,,,,,,,,,,,,color29,001,2022_Mar_03_1550,ProdSingRedo,3.2.3,59.890711879669034,
,,,,,,,,,,,,,,ColoredTest,"['blue', 'yellow', 'red']",blue,yellow,red,26.559271801263094,None,space,334.55385459959507,26.559271801263094,None,,,,,,,,,,,,,,,,,,,,,,,,,,,,,,,,,,,,,,,,,,,,,,,,,,,color29,001,2022_Mar_03_1550,ProdSingRedo,3.2.3,59.890711879669034,
0,0,0,0,,,,,,,,,,,,,,,,,,,,,,26.559271801263094,None,26.559271801263094,None,26.559271801263094,None,363.66284660063684,None,silence,aloud,yellow,36,288,361.6666130013764,None,None,361.6666130013764,None,,,,,,,,,,,,,,,,,,,,,,,,,,,,,,,,,color29,001,2022_Mar_03_1550,ProdSingRedo,3.2.3,59.890711879669034,
1,0,1,0,,,,,,,,,,,,,,,,,,,,,,,,,,,,366.1842017006129,None,straight,sing,blue,26,307,364.181488500908,None,None,364.181488500908,None,,,,,,,,,,,,,,,,,,,,,,,,,,,,,,,,,color29,001,2022_Mar_03_1550,ProdSingRedo,3.2.3,59.890711879669034,
2,0,2,0,,,,,,,,,,,,,,,,,,,,,,,,,,,,368.70179340057075,None,science,aloud,yellow,33,275,366.69299679994583,None,None,366.69299679994583,None,,,,,,,,,,,,,,,,,,,,,,,,,,,,,,,,,color29,001,2022_Mar_03_1550,ProdSingRedo,3.2.3,59.890711879669034,
3,0,3,0,,,,,,,,,,,,,,,,,,,,,,,,,,,,371.2210520002991,None,institute,silent,red,88,162,369.2172010000795,None,None,369.2172010000795,None,,,,,,,,,,,,,,,,,,,,,,,,,,,,,,,,,color29,001,2022_Mar_03_1550,ProdSingRedo,3.2.3,59.890711879669034,
4,0,4,0,,,,,,,,,,,,,,,,,,,,,,,,,,,,373.74017610028386,None,employment,sing,blue,22,111,371.7451051007956,None,None,371.7451051007956,None,,,,,,,,,,,,,,,,,,,,,,,,,,,,,,,,,color29,001,2022_Mar_03_1550,ProdSingRedo,3.2.3,59.890711879669034,
5,0,5,0,,,,,,,,,,,,,,,,,,,,,,,,,,,,376.25951760075986,None,religion,sing,blue,16,258,374.25779130123556,None,None,374.25779130123556,None,,,,,,,,,,,,,,,,,,,,,,,,,,,,,,,,,color29,001,2022_Mar_03_1550,ProdSingRedo,3.2.3,59.890711879669034,
6,0,6,0,,,,,,,,,,,,,,,,,,,,,,,,,,,,378.77905590087175,None,alert,sing,blue,23,6,376.77127270027995,None,None,376.77127270027995,None,,,,,,,,,,,,,,,,,,,,,,,,,,,,,,,,,color29,001,2022_Mar_03_1550,ProdSingRedo,3.2.3,59.890711879669034,
7,0,7,0,,,,,,,,,,,,,,,,,,,,,,,,,,,,381.2980704009533,None,angle,sing,blue,7,7,379.2969284001738,None,None,379.2969284001738,None,,,,,,,,,,,,,,,,,,,,,,,,,,,,,,,,,color29,001,2022_Mar_03_1550,ProdSingRedo,3.2.3,59.890711879669034,
8,0,8,0,,,,,,,,,,,,,,,,,,,,,,,,,,,,383.8161597009748,None,general,aloud,yellow,53,135,381.81506510078907,None,None,381.81506510078907,None,,,,,,,,,,,,,,,,,,,,,,,,,,,,,,,,,color29,001,2022_Mar_03_1550,ProdSingRedo,3.2.3,59.890711879669034,
9,0,9,0,,,,,,,,,,,,,,,,,,,,,,,,,,,,386.33496400155127,None,trend,sing,blue,5,340,384.3291661012918,None,None,384.3291661012918,None,,,,,,,,,,,,,,,,,,,,,,,,,,,,,,,,,color29,001,2022_Mar_03_1550,ProdSingRedo,3.2.3,59.890711879669034,
10,0,10,0,,,,,,,,,,,,,,,,,,,,,,,,,,,,388.83851450122893,None,suspect,sing,blue,10,318,386.8367715012282,None,None,386.8367715012282,None,,,,,,,,,,,,,,,,,,,,,,,,,,,,,,,,,color29,001,2022_Mar_03_1550,ProdSingRedo,3.2.3,59.890711879669034,
11,0,11,0,,,,,,,,,,,,,,,,,,,,,,,,,,,,391.3577431999147,None,drama,sing,blue,11,103,389.3536443002522,None,None,389.3536443002522,None,,,,,,,,,,,,,,,,,,,,,,,,,,,,,,,,,color29,001,2022_Mar_03_1550,ProdSingRedo,3.2.3,59.890711879669034,
12,0,12,0,,,,,,,,,,,,,,,,,,,,,,,,,,,,393.8761927001178,None,poetry,aloud,yellow,35,225,391.8726892005652,None,None,391.8726892005652,None,,,,,,,,,,,,,,,,,,,,,,,,,,,,,,,,,color29,001,2022_Mar_03_1550,ProdSingRedo,3.2.3,59.890711879669034,
13,0,13,0,,,,,,,,,,,,,,,,,,,,,,,,,,,,396.39615820162,None,committee,aloud,yellow,48,62,394.39383800141513,None,None,394.39383800141513,None,,,,,,,,,,,,,,,,,,,,,,,,,,,,,,,,,color29,001,2022_Mar_03_1550,ProdSingRedo,3.2.3,59.890711879669034,
14,0,14,0,,,,,,,,,,,,,,,,,,,,,,,,,,,,398.91628900170326,None,crisis,silent,red,67,79,396.9080984015018,None,None,396.9080984015018,None,,,,,,,,,,,,,,,,,,,,,,,,,,,,,,,,,color29,001,2022_Mar_03_1550,ProdSingRedo,3.2.3,59.890711879669034,
15,0,15,0,,,,,,,,,,,,,,,,,,,,,,,,,,,,401.43452530167997,None,oxygen,sing,blue,25,209,399.43154000118375,None,None,399.43154000118375,None,,,,,,,,,,,,,,,,,,,,,,,,,,,,,,,,,color29,001,2022_Mar_03_1550,ProdSingRedo,3.2.3,59.890711879669034,
16,0,16,0,,,,,,,,,,,,,,,,,,,,,,,,,,,,403.954442800954,None,welcome,silent,red,83,354,401.96022850088775,None,None,401.96022850088775,None,,,,,,,,,,,,,,,,,,,,,,,,,,,,,,,,,color29,001,2022_Mar_03_1550,ProdSingRedo,3.2.3,59.890711879669034,
17,0,17,0,,,,,,,,,,,,,,,,,,,,,,,,,,,,406.47301959991455,None,express,silent,red,80,124,404.4666593000293,None,None,404.4666593000293,None,,,,,,,,,,,,,,,,,,,,,,,,,,,,,,,,,color29,001,2022_Mar_03_1550,ProdSingRedo,3.2.3,59.890711879669034,
18,0,18,0,,,,,,,,,,,,,,,,,,,,,,,,,,,,408.9921388011426,None,estate,sing,blue,29,119,406.9845512006432,None,None,406.9845512006432,None,,,,,,,,,,,,,,,,,,,,,,,,,,,,,,,,,color29,001,2022_Mar_03_1550,ProdSingRedo,3.2.3,59.890711879669034,
19,0,19,0,,,,,,,,,,,,,,,,,,,,,,,,,,,,411.5112478006631,None,bitter,aloud,yellow,47,23,409.5174250006676,None,None,409.5174250006676,None,,,,,,,,,,,,,,,,,,,,,,,,,,,,,,,,,color29,001,2022_Mar_03_1550,ProdSingRedo,3.2.3,59.890711879669034,
20,0,20,0,,,,,,,,,,,,,,,,,,,,,,,,,,,,414.03120920062065,None,property,silent,red,72,242,412.0182133000344,None,None,412.0182133000344,None,,,,,,,,,,,,,,,,,,,,,,,,,,,,,,,,,color29,001,2022_Mar_03_1550,ProdSingRedo,3.2.3,59.890711879669034,
21,0,21,0,,,,,,,,,,,,,,,,,,,,,,,,,,,,416.54866860061884,None,raise,sing,blue,8,250,414.5494077000767,None,None,414.5494077000767,None,,,,,,,,,,,,,,,,,,,,,,,,,,,,,,,,,color29,001,2022_Mar_03_1550,ProdSingRedo,3.2.3,59.890711879669034,
22,0,22,0,,,,,,,,,,,,,,,,,,,,,,,,,,,,419.0687880013138,None,clean,sing,blue,12,51,417.06238860078156,None,None,417.06238860078156,None,,,,,,,,,,,,,,,,,,,,,,,,,,,,,,,,,color29,001,2022_Mar_03_1550,ProdSingRedo,3.2.3,59.890711879669034,
23,0,23,0,,,,,,,,,,,,,,,,,,,,,,,,,,,,421.5881606005132,None,turkey,silent,red,75,342,419.5879398006946,None,None,419.5879398006946,None,,,,,,,,,,,,,,,,,,,,,,,,,,,,,,,,,color29,001,2022_Mar_03_1550,ProdSingRedo,3.2.3,59.890711879669034,
24,0,24,0,,,,,,,,,,,,,,,,,,,,,,,,,,,,424.105958500877,None,primary,aloud,yellow,30,234,422.10558260045946,None,None,422.10558260045946,None,,,,,,,,,,,,,,,,,,,,,,,,,,,,,,,,,color29,001,2022_Mar_03_1550,ProdSingRedo,3.2.3,59.890711879669034,
25,0,25,0,,,,,,,,,,,,,,,,,,,,,,,,,,,,426.6263309009373,None,working,silent,red,85,357,424.62167300097644,None,None,424.62167300097644,None,,,,,,,,,,,,,,,,,,,,,,,,,,,,,,,,,color29,001,2022_Mar_03_1550,ProdSingRedo,3.2.3,59.890711879669034,
26,0,26,0,,,,,,,,,,,,,,,,,,,,,,,,,,,,429.14552810043097,None,series,aloud,yellow,51,279,427.1380253005773,None,None,427.1380253005773,None,,,,,,,,,,,,,,,,,,,,,,,,,,,,,,,,,color29,001,2022_Mar_03_1550,ProdSingRedo,3.2.3,59.890711879669034,
27,0,27,0,,,,,,,,,,,,,,,,,,,,,,,,,,,,431.66474300064147,None,population,silent,red,77,227,429.66143810003996,None,None,429.66143810003996,None,,,,,,,,,,,,,,,,,,,,,,,,,,,,,,,,,color29,001,2022_Mar_03_1550,ProdSingRedo,3.2.3,59.890711879669034,
28,0,28,0,,,,,,,,,,,,,,,,,,,,,,,,,,,,434.1839234009385,None,staff,sing,blue,1,301,432.18014900013804,None,None,432.18014900013804,None,,,,,,,,,,,,,,,,,,,,,,,,,,,,,,,,,color29,001,2022_Mar_03_1550,ProdSingRedo,3.2.3,59.890711879669034,
29,0,29,0,,,,,,,,,,,,,,,,,,,,,,,,,,,,436.7030350007117,None,piece,sing,blue,2,221,434.6957892011851,None,None,434.6957892011851,None,,,,,,,,,,,,,,,,,,,,,,,,,,,,,,,,,color29,001,2022_Mar_03_1550,ProdSingRedo,3.2.3,59.890711879669034,
30,0,30,0,,,,,,,,,,,,,,,,,,,,,,,,,,,,439.2222028002143,None,distance,aloud,yellow,58,100,437.22381930053234,None,None,437.22381930053234,None,,,,,,,,,,,,,,,,,,,,,,,,,,,,,,,,,color29,001,2022_Mar_03_1550,ProdSingRedo,3.2.3,59.890711879669034,
31,0,31,0,,,,,,,,,,,,,,,,,,,,,,,,,,,,441.741436900571,None,capital,aloud,yellow,39,40,439.7392415013164,None,None,439.7392415013164,None,,,,,,,,,,,,,,,,,,,,,,,,,,,,,,,,,color29,001,2022_Mar_03_1550,ProdSingRedo,3.2.3,59.890711879669034,
32,0,32,0,,,,,,,,,,,,,,,,,,,,,,,,,,,,444.2604346014559,None,character,aloud,yellow,57,46,442.25824600085616,None,None,442.25824600085616,None,,,,,,,,,,,,,,,,,,,,,,,,,,,,,,,,,color29,001,2022_Mar_03_1550,ProdSingRedo,3.2.3,59.890711879669034,
33,0,33,0,,,,,,,,,,,,,,,,,,,,,,,,,,,,446.77879680134356,None,frank,aloud,yellow,44,133,444.778607301414,None,None,444.778607301414,None,,,,,,,,,,,,,,,,,,,,,,,,,,,,,,,,,color29,001,2022_Mar_03_1550,ProdSingRedo,3.2.3,59.890711879669034,
34,0,34,0,,,,,,,,,,,,,,,,,,,,,,,,,,,,449.2987286001444,None,touch,aloud,yellow,42,332,447.2913874015212,None,None,447.2913874015212,None,,,,,,,,,,,,,,,,,,,,,,,,,,,,,,,,,color29,001,2022_Mar_03_1550,ProdSingRedo,3.2.3,59.890711879669034,
35,0,35,0,,,,,,,,,,,,,,,,,,,,,,,,,,,,451.8181824013591,None,beauty,silent,red,74,18,449.82249510101974,None,None,449.82249510101974,None,,,,,,,,,,,,,,,,,,,,,,,,,,,,,,,,,color29,001,2022_Mar_03_1550,ProdSingRedo,3.2.3,59.890711879669034,
36,0,36,0,,,,,,,,,,,,,,,,,,,,,,,,,,,,454.33710130117834,None,mayor,aloud,yellow,46,183,452.33264190144837,None,None,452.33264190144837,None,,,,,,,,,,,,,,,,,,,,,,,,,,,,,,,,,color29,001,2022_Mar_03_1550,ProdSingRedo,3.2.3,59.890711879669034,
37,0,37,0,,,,,,,,,,,,,,,,,,,,,,,,,,,,456.85627660155296,None,opening,aloud,yellow,54,205,454.85039840079844,None,None,454.85039840079844,None,,,,,,,,,,,,,,,,,,,,,,,,,,,,,,,,,color29,001,2022_Mar_03_1550,ProdSingRedo,3.2.3,59.890711879669034,
38,0,38,0,,,,,,,,,,,,,,,,,,,,,,,,,,,,459.3757964000106,None,center,silent,red,86,44,457.3683070000261,None,None,457.3683070000261,None,,,,,,,,,,,,,,,,,,,,,,,,,,,,,,,,,color29,001,2022_Mar_03_1550,ProdSingRedo,3.2.3,59.890711879669034,
39,0,39,0,,,,,,,,,,,,,,,,,,,,,,,,,,,,461.8960312008858,None,public,silent,red,61,244,459.8945885002613,None,None,459.8945885002613,None,,,,,,,,,,,,,,,,,,,,,,,,,,,,,,,,,color29,001,2022_Mar_03_1550,ProdSingRedo,3.2.3,59.890711879669034,
40,0,40,0,,,,,,,,,,,,,,,,,,,,,,,,,,,,464.41429550014436,None,under,sing,blue,0,343,462.4105956014246,None,None,462.4105956014246,None,,,,,,,,,,,,,,,,,,,,,,,,,,,,,,,,,color29,001,2022_Mar_03_1550,ProdSingRedo,3.2.3,59.890711879669034,
41,0,41,0,,,,,,,,,,,,,,,,,,,,,,,,,,,,466.93316020071507,None,whole,sing,blue,13,355,464.9278990998864,None,None,464.9278990998864,None,,,,,,,,,,,,,,,,,,,,,,,,,,,,,,,,,color29,001,2022_Mar_03_1550,ProdSingRedo,3.2.3,59.890711879669034,
42,0,42,0,,,,,,,,,,,,,,,,,,,,,,,,,,,,469.45225520059466,None,subject,aloud,yellow,52,312,467.4569359011948,None,None,467.4569359011948,None,,,,,,,,,,,,,,,,,,,,,,,,,,,,,,,,,color29,001,2022_Mar_03_1550,ProdSingRedo,3.2.3,59.890711879669034,
43,0,43,0,,,,,,,,,,,,,,,,,,,,,,,,,,,,471.97160700149834,None,fellow,aloud,yellow,56,126,469.96650590002537,None,None,469.96650590002537,None,,,,,,,,,,,,,,,,,,,,,,,,,,,,,,,,,color29,001,2022_Mar_03_1550,ProdSingRedo,3.2.3,59.890711879669034,
44,0,44,0,,,,,,,,,,,,,,,,,,,,,,,,,,,,474.49050640128553,None,account,aloud,yellow,41,1,472.48244629986584,None,None,472.48244629986584,None,,,,,,,,,,,,,,,,,,,,,,,,,,,,,,,,,color29,001,2022_Mar_03_1550,ProdSingRedo,3.2.3,59.890711879669034,
45,0,45,0,,,,,,,,,,,,,,,,,,,,,,,,,,,,477.0096662007272,None,harmony,sing,blue,20,148,475.00587450154126,None,None,475.00587450154126,None,,,,,,,,,,,,,,,,,,,,,,,,,,,,,,,,,color29,001,2022_Mar_03_1550,ProdSingRedo,3.2.3,59.890711879669034,
46,0,46,0,,,,,,,,,,,,,,,,,,,,,,,,,,,,479.5290942005813,None,music,aloud,yellow,59,196,477.52378780022264,None,None,477.52378780022264,None,,,,,,,,,,,,,,,,,,,,,,,,,,,,,,,,,color29,001,2022_Mar_03_1550,ProdSingRedo,3.2.3,59.890711879669034,
47,0,47,0,,,,,,,,,,,,,,,,,,,,,,,,,,,,482.0482472013682,None,finish,silent,red,63,130,480.0436014011502,None,None,480.0436014011502,None,,,,,,,,,,,,,,,,,,,,,,,,,,,,,,,,,color29,001,2022_Mar_03_1550,ProdSingRedo,3.2.3,59.890711879669034,
48,0,48,0,,,,,,,,,,,,,,,,,,,,,,,,,,,,484.56662620045245,None,sound,sing,blue,21,295,482.56435380131006,None,None,482.56435380131006,None,,,,,,,,,,,,,,,,,,,,,,,,,,,,,,,,,color29,001,2022_Mar_03_1550,ProdSingRedo,3.2.3,59.890711879669034,
49,0,49,0,,,,,,,,,,,,,,,,,,,,,,,,,,,,487.0865402016789,None,safety,silent,red,60,270,485.08574460074306,None,None,485.08574460074306,None,,,,,,,,,,,,,,,,,,,,,,,,,,,,,,,,,color29,001,2022_Mar_03_1550,ProdSingRedo,3.2.3,59.890711879669034,
50,0,50,0,,,,,,,,,,,,,,,,,,,,,,,,,,,,489.6061118002981,None,prime,sing,blue,4,235,487.5979165006429,None,None,487.5979165006429,None,,,,,,,,,,,,,,,,,,,,,,,,,,,,,,,,,color29,001,2022_Mar_03_1550,ProdSingRedo,3.2.3,59.890711879669034,
51,0,51,0,,,,,,,,,,,,,,,,,,,,,,,,,,,,492.12541880086064,None,literature,sing,blue,15,173,490.1238512005657,None,None,490.1238512005657,None,,,,,,,,,,,,,,,,,,,,,,,,,,,,,,,,,color29,001,2022_Mar_03_1550,ProdSingRedo,3.2.3,59.890711879669034,
52,0,52,0,,,,,,,,,,,,,,,,,,,,,,,,,,,,494.6443062014878,None,meeting,silent,red,78,187,492.64150610007346,None,None,492.64150610007346,None,,,,,,,,,,,,,,,,,,,,,,,,,,,,,,,,,color29,001,2022_Mar_03_1550,ProdSingRedo,3.2.3,59.890711879669034,
53,0,53,0,,,,,,,,,,,,,,,,,,,,,,,,,,,,497.1632756013423,None,skill,silent,red,71,289,495.1625293008983,None,None,495.1625293008983,None,,,,,,,,,,,,,,,,,,,,,,,,,,,,,,,,,color29,001,2022_Mar_03_1550,ProdSingRedo,3.2.3,59.890711879669034,
54,0,54,0,,,,,,,,,,,,,,,,,,,,,,,,,,,,499.6825744006783,None,passage,sing,blue,17,212,497.68295600079,None,None,497.68295600079,None,,,,,,,,,,,,,,,,,,,,,,,,,,,,,,,,,color29,001,2022_Mar_03_1550,ProdSingRedo,3.2.3,59.890711879669034,
55,0,55,0,,,,,,,,,,,,,,,,,,,,,,,,,,,,502.2016369011253,None,front,silent,red,73,134,500.1971406005323,None,None,500.1971406005323,None,,,,,,,,,,,,,,,,,,,,,,,,,,,,,,,,,color29,001,2022_Mar_03_1550,ProdSingRedo,3.2.3,59.890711879669034,
56,0,56,0,,,,,,,,,,,,,,,,,,,,,,,,,,,,504.7208681013435,None,blind,silent,red,87,24,502.71074080094695,None,None,502.71074080094695,None,,,,,,,,,,,,,,,,,,,,,,,,,,,,,,,,,color29,001,2022_Mar_03_1550,ProdSingRedo,3.2.3,59.890711879669034,
57,0,57,0,,,,,,,,,,,,,,,,,,,,,,,,,,,,507.2398310005665,None,suggestion,sing,blue,3,314,505.23698190040886,None,None,505.23698190040886,None,,,,,,,,,,,,,,,,,,,,,,,,,,,,,,,,,color29,001,2022_Mar_03_1550,ProdSingRedo,3.2.3,59.890711879669034,
58,0,58,0,,,,,,,,,,,,,,,,,,,,,,,,,,,,509.7592616006732,None,damage,silent,red,79,83,507.7562442012131,None,None,507.7562442012131,None,,,,,,,,,,,,,,,,,,,,,,,,,,,,,,,,,color29,001,2022_Mar_03_1550,ProdSingRedo,3.2.3,59.890711879669034,
59,0,59,0,,,,,,,,,,,,,,,,,,,,,,,,,,,,512.27837190032,None,smell,silent,red,64,291,510.267139300704,None,None,510.267139300704,None,,,,,,,,,,,,,,,,,,,,,,,,,,,,,,,,,color29,001,2022_Mar_03_1550,ProdSingRedo,3.2.3,59.890711879669034,
60,0,60,0,,,,,,,,,,,,,,,,,,,,,,,,,,,,514.7976125013083,None,present,aloud,yellow,55,231,512.7894087005407,None,None,512.7894087005407,None,,,,,,,,,,,,,,,,,,,,,,,,,,,,,,,,,color29,001,2022_Mar_03_1550,ProdSingRedo,3.2.3,59.890711879669034,
61,0,61,0,,,,,,,,,,,,,,,,,,,,,,,,,,,,517.3160309009254,None,symbol,silent,red,84,321,515.3142682015896,None,None,515.3142682015896,None,,,,,,,,,,,,,,,,,,,,,,,,,,,,,,,,,color29,001,2022_Mar_03_1550,ProdSingRedo,3.2.3,59.890711879669034,
62,0,62,0,,,,,,,,,,,,,,,,,,,,,,,,,,,,519.8359914012253,None,speech,silent,red,66,298,517.8264081012458,None,None,517.8264081012458,None,,,,,,,,,,,,,,,,,,,,,,,,,,,,,,,,,color29,001,2022_Mar_03_1550,ProdSingRedo,3.2.3,59.890711879669034,
63,0,63,0,,,,,,,,,,,,,,,,,,,,,,,,,,,,522.3551603015512,None,design,aloud,yellow,49,91,520.3526487015188,None,None,520.3526487015188,None,,,,,,,,,,,,,,,,,,,,,,,,,,,,,,,,,color29,001,2022_Mar_03_1550,ProdSingRedo,3.2.3,59.890711879669034,
64,0,64,0,,,,,,,,,,,,,,,,,,,,,,,,,,,,524.8743504006416,None,month,aloud,yellow,32,193,522.8640053998679,None,None,522.8640053998679,None,,,,,,,,,,,,,,,,,,,,,,,,,,,,,,,,,color29,001,2022_Mar_03_1550,ProdSingRedo,3.2.3,59.890711879669034,
65,0,65,0,,,,,,,,,,,,,,,,,,,,,,,,,,,,527.3934735003859,None,display,sing,blue,14,98,525.3899748008698,None,None,525.3899748008698,None,,,,,,,,,,,,,,,,,,,,,,,,,,,,,,,,,color29,001,2022_Mar_03_1550,ProdSingRedo,3.2.3,59.890711879669034,
66,0,66,0,,,,,,,,,,,,,,,,,,,,,,,,,,,,529.9127682000399,None,afternoon,silent,red,69,3,527.9066509008408,None,None,527.9066509008408,None,,,,,,,,,,,,,,,,,,,,,,,,,,,,,,,,,color29,001,2022_Mar_03_1550,ProdSingRedo,3.2.3,59.890711879669034,
67,0,67,0,,,,,,,,,,,,,,,,,,,,,,,,,,,,532.4317749999464,None,travel,sing,blue,18,338,530.4358776006848,None,None,530.4358776006848,None,,,,,,,,,,,,,,,,,,,,,,,,,,,,,,,,,color29,001,2022_Mar_03_1550,ProdSingRedo,3.2.3,59.890711879669034,
68,0,68,0,,,,,,,,,,,,,,,,,,,,,,,,,,,,534.951042400673,None,gesture,aloud,yellow,37,137,532.947917399928,None,None,532.947917399928,None,,,,,,,,,,,,,,,,,,,,,,,,,,,,,,,,,color29,001,2022_Mar_03_1550,ProdSingRedo,3.2.3,59.890711879669034,
69,0,69,0,,,,,,,,,,,,,,,,,,,,,,,,,,,,537.4702752009034,None,hunger,aloud,yellow,34,155,535.4667371008545,None,None,535.4667371008545,None,,,,,,,,,,,,,,,,,,,,,,,,,,,,,,,,,color29,001,2022_Mar_03_1550,ProdSingRedo,3.2.3,59.890711879669034,
70,0,70,0,,,,,,,,,,,,,,,,,,,,,,,,,,,,539.9892067015171,None,equipment,silent,red,76,116,537.9912149999291,None,None,537.9912149999291,None,,,,,,,,,,,,,,,,,,,,,,,,,,,,,,,,,color29,001,2022_Mar_03_1550,ProdSingRedo,3.2.3,59.890711879669034,
71,0,71,0,,,,,,,,,,,,,,,,,,,,,,,,,,,,542.5085287000984,None,citizen,sing,blue,6,50,540.509927900508,None,None,540.509927900508,None,,,,,,,,,,,,,,,,,,,,,,,,,,,,,,,,,color29,001,2022_Mar_03_1550,ProdSingRedo,3.2.3,59.890711879669034,
72,0,72,0,,,,,,,,,,,,,,,,,,,,,,,,,,,,545.0278045013547,None,trial,silent,red,81,341,543.022350801155,None,None,543.022350801155,None,,,,,,,,,,,,,,,,,,,,,,,,,,,,,,,,,color29,001,2022_Mar_03_1550,ProdSingRedo,3.2.3,59.890711879669034,
73,0,73,0,,,,,,,,,,,,,,,,,,,,,,,,,,,,547.5489936005324,None,plane,sing,blue,19,223,545.5510380007327,None,None,545.5510380007327,None,,,,,,,,,,,,,,,,,,,,,,,,,,,,,,,,,color29,001,2022_Mar_03_1550,ProdSingRedo,3.2.3,59.890711879669034,
74,0,74,0,,,,,,,,,,,,,,,,,,,,,,,,,,,,550.0659188013524,None,appeal,sing,blue,27,9,548.0634746011347,None,None,548.0634746011347,None,,,,,,,,,,,,,,,,,,,,,,,,,,,,,,,,,color29,001,2022_Mar_03_1550,ProdSingRedo,3.2.3,59.890711879669034,
75,0,75,0,,,,,,,,,,,,,,,,,,,,,,,,,,,,552.5854806005955,None,south,sing,blue,28,296,550.5807812009007,None,None,550.5807812009007,None,,,,,,,,,,,,,,,,,,,,,,,,,,,,,,,,,color29,001,2022_Mar_03_1550,ProdSingRedo,3.2.3,59.890711879669034,
76,0,76,0,,,,,,,,,,,,,,,,,,,,,,,,,,,,555.1044070012867,None,school,sing,blue,24,274,553.0961046013981,None,None,553.0961046013981,None,,,,,,,,,,,,,,,,,,,,,,,,,,,,,,,,,color29,001,2022_Mar_03_1550,ProdSingRedo,3.2.3,59.890711879669034,
77,0,77,0,,,,,,,,,,,,,,,,,,,,,,,,,,,,557.6235985010862,None,empty,silent,red,70,112,555.619670400396,None,None,555.619670400396,None,,,,,,,,,,,,,,,,,,,,,,,,,,,,,,,,,color29,001,2022_Mar_03_1550,ProdSingRedo,3.2.3,59.890711879669034,
78,0,78,0,,,,,,,,,,,,,,,,,,,,,,,,,,,,560.1425840016454,None,quantity,aloud,yellow,40,245,558.1413371004164,None,None,558.1413371004164,None,,,,,,,,,,,,,,,,,,,,,,,,,,,,,,,,,color29,001,2022_Mar_03_1550,ProdSingRedo,3.2.3,59.890711879669034,
79,0,79,0,,,,,,,,,,,,,,,,,,,,,,,,,,,,562.6621718015522,None,second,aloud,yellow,31,278,560.6537958011031,None,None,560.6537958011031,None,,,,,,,,,,,,,,,,,,,,,,,,,,,,,,,,,color29,001,2022_Mar_03_1550,ProdSingRedo,3.2.3,59.890711879669034,
80,0,80,0,,,,,,,,,,,,,,,,,,,,,,,,,,,,565.1808825004846,None,position,aloud,yellow,43,229,563.1757795009762,None,None,563.1757795009762,None,,,,,,,,,,,,,,,,,,,,,,,,,,,,,,,,,color29,001,2022_Mar_03_1550,ProdSingRedo,3.2.3,59.890711879669034,
81,0,81,0,,,,,,,,,,,,,,,,,,,,,,,,,,,,567.7001982014626,None,scale,aloud,yellow,45,272,565.6944315005094,None,None,565.6944315005094,None,,,,,,,,,,,,,,,,,,,,,,,,,,,,,,,,,color29,001,2022_Mar_03_1550,ProdSingRedo,3.2.3,59.890711879669034,
82,0,82,0,,,,,,,,,,,,,,,,,,,,,,,,,,,,570.2194682005793,None,hearing,silent,red,89,150,568.2192122004926,None,None,568.2192122004926,None,,,,,,,,,,,,,,,,,,,,,,,,,,,,,,,,,color29,001,2022_Mar_03_1550,ProdSingRedo,3.2.3,59.890711879669034,
83,0,83,0,,,,,,,,,,,,,,,,,,,,,,,,,,,,572.7386317010969,None,fight,silent,red,62,127,570.7291640006006,None,None,570.7291640006006,None,,,,,,,,,,,,,,,,,,,,,,,,,,,,,,,,,color29,001,2022_Mar_03_1550,ProdSingRedo,3.2.3,59.890711879669034,
84,0,84,0,,,,,,,,,,,,,,,,,,,,,,,,,,,,575.2577948011458,None,motion,aloud,yellow,38,194,573.2510189004242,None,None,573.2510189004242,None,,,,,,,,,,,,,,,,,,,,,,,,,,,,,,,,,color29,001,2022_Mar_03_1550,ProdSingRedo,3.2.3,59.890711879669034,
85,0,85,0,,,,,,,,,,,,,,,,,,,,,,,,,,,,577.7770068012178,None,income,silent,red,65,159,575.7694043014199,None,None,575.7694043014199,None,,,,,,,,,,,,,,,,,,,,,,,,,,,,,,,,,color29,001,2022_Mar_03_1550,ProdSingRedo,3.2.3,59.890711879669034,
86,0,86,0,,,,,,,,,,,,,,,,,,,,,,,,,,,,580.2962953001261,None,atmosphere,silent,red,68,12,578.2937998007983,None,None,578.2937998007983,None,,,,,,,,,,,,,,,,,,,,,,,,,,,,,,,,,color29,001,2022_Mar_03_1550,ProdSingRedo,3.2.3,59.890711879669034,
87,0,87,0,,,,,,,,,,,,,,,,,,,,,,,,,,,,582.8161252010614,None,ground,aloud,yellow,50,142,580.8123045004904,None,None,580.8123045004904,None,,,,,,,,,,,,,,,,,,,,,,,,,,,,,,,,,color29,001,2022_Mar_03_1550,ProdSingRedo,3.2.3,59.890711879669034,
88,0,88,0,,,,,,,,,,,,,,,,,,,,,,,,,,,,585.3345312010497,None,guard,sing,blue,9,145,583.3271735999733,None,None,583.3271735999733,None,,,,,,,,,,,,,,,,,,,,,,,,,,,,,,,,,color29,001,2022_Mar_03_1550,ProdSingRedo,3.2.3,59.890711879669034,
89,0,89,0,,,,,,,,,,,,,,,,,,,,,,,,,,,,587.8524434007704,None,color,silent,red,82,56,585.8491819016635,None,None,585.8491819016635,None,,,,,,,,,,,,,,,,,,,,,,,,,,,,,,,,,color29,001,2022_Mar_03_1550,ProdSingRedo,3.2.3,59.890711879669034,
,,,,,,,,,,,,,,,,,,,,,,,,,,,,,,,,,,,,,,,,,,,588.3530897013843,None,k,159.27135620079935,588.3530897013843,None,,,,,,,,,,,,,,,,,,,,,,,,,,,color29,001,2022_Mar_03_1550,ProdSingRedo,3.2.3,59.890711879669034,
,,,,0,0,0,0,,,,,,,,,,,,,,,,,,,,,,,,756.980776000768,None,,,,,,,,,,,,,,,,,discovery,new_sing,blue,0,113,95,748.1688586007804,None,748.1688586007804,None,4,5.743426399305463,748.1688586007804,None,753.9618393015116,None,754.4855956006795,None,754.4855956006795,None,f,2.4586851000785828,754.4855956006795,None,,,color29,001,2022_Mar_03_1550,ProdSingRedo,3.2.3,59.890711879669034,
,,,,1,0,1,0,,,,,,,,,,,,,,,,,,,,,,,,763.4915653001517,None,,,,,,,,,,,,,,,,,whole,sing,blue,1,13,355,757.5069987010211,None,757.5069987010211,None,5,5.005307098850608,757.5069987010211,None,762.5450665000826,None,763.0571108013391,None,763.0571108013391,None,f,0.39120540022850037,763.0571108013391,None,,,color29,001,2022_Mar_03_1550,ProdSingRedo,3.2.3,59.890711879669034,
,,,,2,0,2,0,,,,,,,,,,,,,,,,,,,,,,,,773.7796447016299,None,,,,,,,,,,,,,,,,,oxygen,sing,blue,2,25,209,764.0129773002118,None,764.0129773002118,None,6,8.331449000164866,764.0129773002118,None,772.3879055008292,None,772.8993516005576,None,772.8993516005576,None,r,0.8529592994600534,772.8993516005576,None,,,color29,001,2022_Mar_03_1550,ProdSingRedo,3.2.3,59.890711879669034,
,,,,3,0,3,0,,,,,,,,,,,,,,,,,,,,,,,,782.926821000874,None,,,,,,,,,,,,,,,,,hunger,aloud,yellow,3,34,155,774.3033070005476,None,774.3033070005476,None,3,4.4328509997576475,774.3033070005476,None,778.7754624001682,None,779.2897883001715,None,779.2897883001715,None,f,3.607107199728489,779.2897883001715,None,,,color29,001,2022_Mar_03_1550,ProdSingRedo,3.2.3,59.890711879669034,
,,,,4,0,4,0,,,,,,,,,,,,,,,,,,,,,,,,791.1655304003507,None,,,,,,,,,,,,,,,,,light,new_silent,red,4,166,171,783.4503585007042,None,783.4503585007042,None,2,4.966124599799514,783.4503585007042,None,788.460086600855,None,788.963446199894,None,788.963446199894,None,n,2.1729738991707563,788.963446199894,None,,,color29,001,2022_Mar_03_1550,ProdSingRedo,3.2.3,59.890711879669034,
,,,,5,0,5,0,,,,,,,,,,,,,,,,,,,,,,,,796.2789585012943,None,,,,,,,,,,,,,,,,,attack,new_sing,blue,5,96,13,791.6956392005086,None,791.6956392005086,None,5,3.176707699894905,791.6956392005086,None,794.9184765014797,None,795.4407597016543,None,795.4407597016543,None,f,0.815251899883151,795.4407597016543,None,,,color29,001,2022_Mar_03_1550,ProdSingRedo,3.2.3,59.890711879669034,
,,,,6,0,6,0,,,,,,,,,,,,,,,,,,,,,,,,806.4881886001676,None,,,,,,,,,,,,,,,,,power,new_aloud,yellow,6,132,230,796.7963410001248,None,796.7963410001248,None,6,6.547870500013232,796.7963410001248,None,803.3969484008849,None,803.917723800987,None,803.917723800987,None,r,2.554102100431919,803.917723800987,None,,,color29,001,2022_Mar_03_1550,ProdSingRedo,3.2.3,59.890711879669034,
,,,,7,0,7,0,,,,,,,,,,,,,,,,,,,,,,,,810.6337009016424,None,,,,,,,,,,,,,,,,,motion,aloud,yellow,7,38,194,806.988130800426,None,806.988130800426,None,2,2.2121661994606256,806.988130800426,None,809.2424143999815,None,809.7562433015555,None,809.7562433015555,None,n,0.852224400267005,809.7562433015555,None,,,color29,001,2022_Mar_03_1550,ProdSingRedo,3.2.3,59.890711879669034,
,,,,8,0,8,0,,,,,,,,,,,,,,,,,,,,,,,,814.6199498008937,None,,,,,,,,,,,,,,,,,school,sing,blue,8,24,274,811.1565848011523,None,811.1565848011523,None,6,2.0355666000396013,811.1565848011523,None,813.2310182005167,None,813.7541503999382,None,813.7541503999382,None,r,0.8301602005958557,813.7541503999382,None,,,color29,001,2022_Mar_03_1550,ProdSingRedo,3.2.3,59.890711879669034,
,,,,9,0,9,0,,,,,,,,,,,,,,,,,,,,,,,,819.708925601095,None,,,,,,,,,,,,,,,,,order,new_silent,red,9,159,207,815.1417804006487,None,815.1417804006487,None,5,3.306938599795103,815.1417804006487,None,818.4876035004854,None,819.0077403001487,None,819.0077403001487,None,f,0.6724642999470234,819.0077403001487,None,,,color29,001,2022_Mar_03_1550,ProdSingRedo,3.2.3,59.890711879669034,
,,,,10,0,10,0,,,,,,,,,,,,,,,,,,,,,,,,825.4804568011314,None,,,,,,,,,,,,,,,,,crisis,silent,red,10,67,79,820.2294210009277,None,820.2294210009277,None,4,3.9628244005143642,820.2294210009277,None,824.2403631005436,None,824.7468441016972,None,824.7468441016972,None,f,0.7013216000050306,824.7468441016972,None,,,color29,001,2022_Mar_03_1550,ProdSingRedo,3.2.3,59.890711879669034,
,,,,11,0,11,0,,,,,,,,,,,,,,,,,,,,,,,,830.5033261012286,None,,,,,,,,,,,,,,,,,birth,new_sing,blue,11,106,22,826.007407899946,None,826.007407899946,None,2,3.4888014998286963,826.007407899946,None,829.5309704001993,None,830.053168701008,None,830.053168701008,None,n,0.41120750084519386,830.053168701008,None,,,color29,001,2022_Mar_03_1550,ProdSingRedo,3.2.3,59.890711879669034,
,,,,12,0,12,0,,,,,,,,,,,,,,,,,,,,,,,,835.7200986016542,None,,,,,,,,,,,,,,,,,captain,new_aloud,yellow,12,142,41,831.0315863005817,None,831.0315863005817,None,3,3.216730199754238,831.0315863005817,None,834.2914013005793,None,834.7979488000274,None,834.7979488000274,None,f,0.8981599994003773,834.7979488000274,None,,,color29,001,2022_Mar_03_1550,ProdSingRedo,3.2.3,59.890711879669034,
,,,,13,0,13,0,,,,,,,,,,,,,,,,,,,,,,,,840.8814401999116,None,,,,,,,,,,,,,,,,,brief,new_silent,red,13,162,28,836.2341848015785,None,836.2341848015785,None,4,4.0060759000480175,836.2341848015785,None,840.2949556000531,None,840.8011798001826,None,840.8011798001826,None,f,0.04708940163254738,840.8011798001826,None,,,color29,001,2022_Mar_03_1550,ProdSingRedo,3.2.3,59.890711879669034,
,,,,14,0,14,0,,,,,,,,,,,,,,,,,,,,,,,,844.7941177003086,None,,,,,,,,,,,,,,,,,treatment,new_aloud,yellow,14,129,339,841.4103814009577,None,841.4103814009577,None,6,2.5097179003059864,841.4103814009577,None,843.9706546012312,None,844.487539101392,None,844.487539101392,None,r,0.28048030100762844,844.487539101392,None,,,color29,001,2022_Mar_03_1550,ProdSingRedo,3.2.3,59.890711879669034,
,,,,15,0,15,0,,,,,,,,,,,,,,,,,,,,,,,,849.8554236013442,None,,,,,,,,,,,,,,,,,institute,silent,red,15,88,162,845.31302620098,None,845.31302620098,None,4,3.4071197006851435,845.31302620098,None,848.7729628011584,None,849.2919386010617,None,849.2919386010617,None,f,0.5399149004369974,849.2919386010617,None,,,color29,001,2022_Mar_03_1550,ProdSingRedo,3.2.3,59.890711879669034,
,,,,16,0,16,0,,,,,,,,,,,,,,,,,,,,,,,,854.7773442007601,None,,,,,,,,,,,,,,,,,position,aloud,yellow,16,43,229,850.3756622001529,None,850.3756622001529,None,6,3.536631600931287,850.3756622001529,None,853.9559818003327,None,854.4763210006058,None,854.4763210006058,None,r,0.2763260994106531,854.4763210006058,None,,,color29,001,2022_Mar_03_1550,ProdSingRedo,3.2.3,59.890711879669034,
,,,,17,0,17,0,,,,,,,,,,,,,,,,,,,,,,,,860.266194300726,None,,,,,,,,,,,,,,,,,childhood,new_silent,red,17,155,49,855.2997381016612,None,855.2997381016612,None,4,3.404338398948312,855.2997381016612,None,858.7460524011403,None,859.2651995010674,None,859.2651995010674,None,n,0.9754013009369373,859.2651995010674,None,,,color29,001,2022_Mar_03_1550,ProdSingRedo,3.2.3,59.890711879669034,
,,,,18,0,18,0,,,,,,,,,,,,,,,,,,,,,,,,863.4527369011194,None,,,,,,,,,,,,,,,,,sound,sing,blue,18,21,295,860.7909763008356,None,860.7909763008356,None,6,1.6412073001265526,860.7909763008356,None,862.4843247011304,None,862.9959773011506,None,862.9959773011506,None,r,0.4284252002835274,862.9959773011506,None,,,color29,001,2022_Mar_03_1550,ProdSingRedo,3.2.3,59.890711879669034,
,,,,19,0,19,0,,,,,,,,,,,,,,,,,,,,,,,,868.3571271002293,None,,,,,,,,,,,,,,,,,design,aloud,yellow,19,49,91,863.9784602001309,None,863.9784602001309,None,5,3.486031899228692,863.9784602001309,None,867.5063021015376,None,868.0108567010611,None,868.0108567010611,None,f,0.3092042002826929,868.0108567010611,None,,,color29,001,2022_Mar_03_1550,ProdSingRedo,3.2.3,59.890711879669034,
,,,,20,0,20,0,,,,,,,,,,,,,,,,,,,,,,,,872.4454691000283,None,,,,,,,,,,,,,,,,,volume,new_aloud,yellow,20,149,349,868.8860124014318,None,868.8860124014318,None,3,2.642161499708891,868.8860124014318,None,871.5779039002955,None,872.0976277012378,None,872.0976277012378,None,n,0.3105535004287958,872.0976277012378,None,,,color29,001,2022_Mar_03_1550,ProdSingRedo,3.2.3,59.890711879669034,
,,,,21,0,21,0,,,,,,,,,,,,,,,,,,,,,,,,876.8165618013591,None,,,,,,,,,,,,,,,,,suspect,sing,blue,21,10,318,872.9702924005687,None,872.9702924005687,None,4,2.957879200577736,872.9702924005687,None,875.9748845007271,None,876.4861400015652,None,876.4861400015652,None,f,0.30625260062515736,876.4861400015652,None,,,color29,001,2022_Mar_03_1550,ProdSingRedo,3.2.3,59.890711879669034,
,,,,22,0,22,0,,,,,,,,,,,,,,,,,,,,,,,,880.8860896006227,None,,,,,,,,,,,,,,,,,finance,new_sing,blue,22,116,129,877.3440064005554,None,877.3440064005554,None,2,2.7681024000048637,877.3440064005554,None,880.1535251010209,None,880.6605306006968,None,880.6605306006968,None,n,0.18776019848883152,880.6605306006968,None,,,color29,001,2022_Mar_03_1550,ProdSingRedo,3.2.3,59.890711879669034,
,,,,23,0,23,0,,,,,,,,,,,,,,,,,,,,,,,,888.2462143003941,None,,,,,,,,,,,,,,,,,exchange,new_aloud,yellow,23,127,121,881.4166178014129,None,881.4166178014129,None,3,4.767566598951817,881.4166178014129,None,886.2276378013194,None,886.7491864003241,None,886.7491864003241,None,n,1.4589287005364895,886.7491864003241,None,,,color29,001,2022_Mar_03_1550,ProdSingRedo,3.2.3,59.890711879669034,
,,,,24,0,24,0,,,,,,,,,,,,,,,,,,,,,,,,893.3060861006379,None,,,,,,,,,,,,,,,,,personnel,new_silent,red,24,160,219,888.768101900816,None,888.768101900816,None,1,3.6160115990787745,888.768101900816,None,892.4326032008976,None,892.9506209008396,None,892.9506209008396,None,n,0.32173809967935085,892.9506209008396,None,,,color29,001,2022_Mar_03_1550,ProdSingRedo,3.2.3,59.890711879669034,
,,,,25,0,25,0,,,,,,,,,,,,,,,,,,,,,,,,900.2898845002055,None,,,,,,,,,,,,,,,,,trial,silent,red,25,81,341,893.8215985000134,None,893.8215985000134,None,2,5.826678600162268,893.8215985000134,None,899.6875482015312,None,900.2074839007109,None,900.2074839007109,None,n,0.05668080039322376,900.2074839007109,None,,,color29,001,2022_Mar_03_1550,ProdSingRedo,3.2.3,59.890711879669034,
,,,,26,0,26,0,,,,,,,,,,,,,,,,,,,,,,,,903.581252200529,None,,,,,,,,,,,,,,,,,center,silent,red,26,86,44,900.8126229010522,None,900.8126229010522,None,4,1.9718629997223616,900.8126229010522,None,902.8191105015576,None,903.3257841002196,None,903.3257841002196,None,f,0.21827729977667332,903.3257841002196,None,,,color29,001,2022_Mar_03_1550,ProdSingRedo,3.2.3,59.890711879669034,
,,,,27,0,27,0,,,,,,,,,,,,,,,,,,,,,,,,908.1975308004767,None,,,,,,,,,,,,,,,,,force,new_silent,red,27,165,131,904.1031510010362,None,904.1031510010362,None,1,3.2408566996455193,904.1031510010362,None,907.3917134013027,None,907.8999604005367,None,907.8999604005367,None,n,0.26010749861598015,907.8999604005367,None,,,color29,001,2022_Mar_03_1550,ProdSingRedo,3.2.3,59.890711879669034,
,,,,28,0,28,0,,,,,,,,,,,,,,,,,,,,,,,,913.4531396012753,None,,,,,,,,,,,,,,,,,music,aloud,yellow,28,59,196,908.7232600003481,None,908.7232600003481,None,4,3.4694321006536484,908.7232600003481,None,912.2326637003571,None,912.7367600016296,None,912.7367600016296,None,f,0.6794022992253304,912.7367600016296,None,,,color29,001,2022_Mar_03_1550,ProdSingRedo,3.2.3,59.890711879669034,
,,,,29,0,29,0,,,,,,,,,,,,,,,,,,,,,,,,919.559710200876,None,,,,,,,,,,,,,,,,,frank,aloud,yellow,29,44,133,913.9806512016803,None,913.9806512016803,None,2,4.915461899712682,913.9806512016803,None,918.9449655003846,None,919.4648203011602,None,919.4648203011602,None,n,0.06325360015034676,919.4648203011602,None,,,color29,001,2022_Mar_03_1550,ProdSingRedo,3.2.3,59.890711879669034,
,,,,30,0,30,0,,,,,,,,,,,,,,,,,,,,,,,,926.7908789999783,None,,,,,,,,,,,,,,,,,damage,silent,red,30,79,83,920.089447401464,None,920.089447401464,None,5,5.302640000358224,920.089447401464,None,925.4479193016887,None,925.950547201559,None,925.950547201559,None,r,0.8090843986719847,925.950547201559,None,,,color29,001,2022_Mar_03_1550,ProdSingRedo,3.2.3,59.890711879669034,
,,,,31,0,31,0,,,,,,,,,,,,,,,,,,,,,,,,933.3896038010716,None,,,,,,,,,,,,,,,,,chief,new_silent,red,31,163,48,927.3083399012685,None,927.3083399012685,None,4,5.075728800147772,927.3083399012685,None,932.4315748009831,None,932.9429669007659,None,932.9429669007659,None,f,0.40922570042312145,932.9429669007659,None,,,color29,001,2022_Mar_03_1550,ProdSingRedo,3.2.3,59.890711879669034,
,,,,32,0,32,0,,,,,,,,,,,,,,,,,,,,,,,,942.0656022001058,None,,,,,,,,,,,,,,,,,sweet,new_sing,blue,32,93,319,933.9163954015821,None,933.9163954015821,None,2,7.059556299820542,933.9163954015821,None,941.02716560103,None,941.53186680004,None,941.53186680004,None,n,0.5001340992748737,941.53186680004,None,,,color29,001,2022_Mar_03_1550,ProdSingRedo,3.2.3,59.890711879669034,
,,,,33,0,33,0,,,,,,,,,,,,,,,,,,,,,,,,945.8024762999266,None,,,,,,,,,,,,,,,,,travel,sing,blue,33,18,338,942.5933715999126,None,942.5933715999126,None,6,1.9667565003037453,942.5933715999126,None,944.6069960016757,None,945.0983551014215,None,945.0983551014215,None,r,0.6776436995714903,945.0983551014215,None,,,color29,001,2022_Mar_03_1550,ProdSingRedo,3.2.3,59.890711879669034,
,,,,34,0,34,0,,,,,,,,,,,,,,,,,,,,,,,,953.4616645015776,None,,,,,,,,,,,,,,,,,clear,new_aloud,yellow,34,144,52,946.336000200361,None,946.336000200361,None,3,5.711943199858069,946.336000200361,None,952.0676446016878,None,952.5783398002386,None,952.5783398002386,None,f,0.8536357004195452,952.5783398002386,None,,,color29,001,2022_Mar_03_1550,ProdSingRedo,3.2.3,59.890711879669034,
,,,,35,0,35,0,,,,,,,,,,,,,,,,,,,,,,,,961.4166195001453,None,,,,,,,,,,,,,,,,,candidate,new_silent,red,35,158,39,953.9914283007383,None,953.9914283007383,None,3,6.1685256995260715,953.9914283007383,None,960.211719000712,None,960.7221479006112,None,960.7221479006112,None,n,0.661811800673604,960.7221479006112,None,,,color29,001,2022_Mar_03_1550,ProdSingRedo,3.2.3,59.890711879669034,
,,,,36,0,36,0,,,,,,,,,,,,,,,,,,,,,,,,965.3709809016436,None,,,,,,,,,,,,,,,,,safety,silent,red,36,60,270,961.9428506009281,None,961.9428506009281,None,5,2.161191198974848,961.9428506009281,None,964.152835201472,None,964.6741420999169,None,964.6741420999169,None,f,0.6698139999061823,964.6741420999169,None,,,color29,001,2022_Mar_03_1550,ProdSingRedo,3.2.3,59.890711879669034,
,,,,37,0,37,0,,,,,,,,,,,,,,,,,,,,,,,,971.5097914002836,None,,,,,,,,,,,,,,,,,atmosphere,silent,red,37,68,12,965.9004162009805,None,965.9004162009805,None,4,4.427100099623203,965.9004162009805,None,970.352298900485,None,970.8624383006245,None,970.8624383006245,None,f,0.6094327997416258,970.8624383006245,None,,,color29,001,2022_Mar_03_1550,ProdSingRedo,3.2.3,59.890711879669034,
,,,,38,0,38,0,,,,,,,,,,,,,,,,,,,,,,,,976.8155815005302,None,,,,,,,,,,,,,,,,,equipment,silent,red,38,76,116,972.0436048004776,None,972.0436048004776,None,6,3.7882755007594824,972.0436048004776,None,975.878755601123,None,976.4046014007181,None,976.4046014007181,None,r,0.37935039959847927,976.4046014007181,None,,,color29,001,2022_Mar_03_1550,ProdSingRedo,3.2.3,59.890711879669034,
,,,,39,0,39,0,,,,,,,,,,,,,,,,,,,,,,,,982.4542404003441,None,,,,,,,,,,,,,,,,,right,new_sing,blue,39,111,265,977.3392214011401,None,977.3392214011401,None,1,4.212732100859284,977.3392214011401,None,981.5997112002224,None,982.1226361002773,None,982.1226361002773,None,n,0.29322149977087975,982.1226361002773,None,,,color29,001,2022_Mar_03_1550,ProdSingRedo,3.2.3,59.890711879669034,
,,,,40,0,40,0,,,,,,,,,,,,,,,,,,,,,,,,985.3919352013618,None,,,,,,,,,,,,,,,,,suggestion,sing,blue,40,3,314,982.9786900002509,None,982.9786900002509,None,6,1.5492653008550406,982.9786900002509,None,984.57566720061,None,985.0955846998841,None,985.0955846998841,None,r,0.2723197992891073,985.0955846998841,None,,,color29,001,2022_Mar_03_1550,ProdSingRedo,3.2.3,59.890711879669034,
,,,,41,0,41,0,,,,,,,,,,,,,,,,,,,,,,,,995.3670806009322,None,,,,,,,,,,,,,,,,,fight,silent,red,41,62,127,985.9176640007645,None,985.9176640007645,None,4,7.21027459949255,985.9176640007645,None,993.1794407013804,None,993.7080454006791,None,993.7080454006791,None,n,1.6358646005392075,993.7080454006791,None,,,color29,001,2022_Mar_03_1550,ProdSingRedo,3.2.3,59.890711879669034,
,,,,42,0,42,0,,,,,,,,,,,,,,,,,,,,,,,,1002.3342537004501,None,,,,,,,,,,,,,,,,,history,new_sing,blue,42,94,153,995.8913082014769,None,995.8913082014769,None,5,3.892587399110198,995.8913082014769,None,999.8358853012323,None,1000.3573680017143,None,1000.3573680017143,None,f,1.930536000058055,1000.3573680017143,None,,,color29,001,2022_Mar_03_1550,ProdSingRedo,3.2.3,59.890711879669034,
,,,,43,0,43,0,,,,,,,,,,,,,,,,,,,,,,,,1005.7777889017016,None,,,,,,,,,,,,,,,,,member,new_aloud,yellow,43,122,188,1002.8654587008059,None,1002.8654587008059,None,2,1.8304891008883715,1002.8654587008059,None,1004.7382308002561,None,1005.2633116003126,None,1005.2633116003126,None,n,0.480477100238204,1005.2633116003126,None,,,color29,001,2022_Mar_03_1550,ProdSingRedo,3.2.3,59.890711879669034,
,,,,44,0,44,0,,,,,,,,,,,,,,,,,,,,,,,,1012.8348936010152,None,,,,,,,,,,,,,,,,,gesture,aloud,yellow,44,37,137,1006.3062909003347,None,1006.3062909003347,None,3,5.613515799865127,1006.3062909003347,None,1011.9625401999801,None,1012.4721653014421,None,1012.4721653014421,None,n,0.3275637999176979,1012.4721653014421,None,,,color29,001,2022_Mar_03_1550,ProdSingRedo,3.2.3,59.890711879669034,
,,,,45,0,45,0,,,,,,,,,,,,,,,,,,,,,,,,1019.3251207005233,None,,,,,,,,,,,,,,,,,principal,new_silent,red,45,150,236,1013.3636936005205,None,1013.3636936005205,None,4,3.2119089998304844,1013.3636936005205,None,1016.6044551003724,None,1017.126097401604,None,1017.126097401604,None,n,2.1696377992630005,1017.126097401604,None,,,color29,001,2022_Mar_03_1550,ProdSingRedo,3.2.3,59.890711879669034,
,,,,46,0,46,0,,,,,,,,,,,,,,,,,,,,,,,,1022.7288571000099,None,,,,,,,,,,,,,,,,,harmony,sing,blue,46,20,148,1019.8499100003392,None,1019.8499100003392,None,6,1.8779340013861656,1019.8499100003392,None,1021.7741748001426,None,1022.2978123016655,None,1022.2978123016655,None,r,0.4060054998844862,1022.2978123016655,None,,,color29,001,2022_Mar_03_1550,ProdSingRedo,3.2.3,59.890711879669034,
,,,,47,0,47,0,,,,,,,,,,,,,,,,,,,,,,,,1027.166965501383,None,,,,,,,,,,,,,,,,,rough,new_aloud,yellow,47,136,266,1023.2567921001464,None,1023.2567921001464,None,2,2.7270510997623205,1023.2567921001464,None,1026.0287297014147,None,1026.5550045017153,None,1026.5550045017153,None,n,0.5808471012860537,1026.5550045017153,None,,,color29,001,2022_Mar_03_1550,ProdSingRedo,3.2.3,59.890711879669034,
,,,,48,0,48,0,,,,,,,,,,,,,,,,,,,,,,,,1031.1366179008037,None,,,,,,,,,,,,,,,,,second,aloud,yellow,48,31,278,1027.6890628002584,None,1027.6890628002584,None,2,2.4947756994515657,1027.6890628002584,None,1030.228237401694,None,1030.7350578010082,None,1030.7350578010082,None,n,0.36865519918501377,1030.7350578010082,None,,,color29,001,2022_Mar_03_1550,ProdSingRedo,3.2.3,59.890711879669034,
,,,,49,0,49,0,,,,,,,,,,,,,,,,,,,,,,,,1038.1768481004983,None,,,,,,,,,,,,,,,,,partner,new_silent,red,49,154,211,1031.6644754000008,None,1031.6644754000008,None,1,5.831286499276757,1031.6644754000008,None,1037.5429472010583,None,1038.0646935999393,None,1038.0646935999393,None,n,0.08716589957475662,1038.0646935999393,None,,,color29,001,2022_Mar_03_1550,ProdSingRedo,3.2.3,59.890711879669034,
,,,,50,0,50,0,,,,,,,,,,,,,,,,,,,,,,,,1043.4164292998612,None,,,,,,,,,,,,,,,,,provision,new_sing,blue,50,118,243,1038.7063488010317,None,1038.7063488010317,None,2,3.6775240004062653,1038.7063488010317,None,1042.4330210015178,None,1042.951741900295,None,1042.951741900295,None,n,0.4401459004729986,1042.951741900295,None,,,color29,001,2022_Mar_03_1550,ProdSingRedo,3.2.3,59.890711879669034,
,,,,51,0,51,0,,,,,,,,,,,,,,,,,,,,,,,,1047.892080301419,None,,,,,,,,,,,,,,,,,finish,silent,red,51,63,130,1043.9466174002737,None,1043.9466174002737,None,4,2.348718600347638,1043.9466174002737,None,1046.3311646003276,None,1046.8437320999801,None,1046.8437320999801,None,f,1.0039642006158829,1046.8437320999801,None,,,color29,001,2022_Mar_03_1550,ProdSingRedo,3.2.3,59.890711879669034,
,,,,52,0,52,0,,,,,,,,,,,,,,,,,,,,,,,,1051.8070700000972,None,,,,,,,,,,,,,,,,,country,new_silent,red,52,167,73,1048.412757800892,None,1048.412757800892,None,2,2.2990528009831905,1048.412757800892,None,1050.7558444999158,None,1051.2767874002457,None,1051.2767874002457,None,n,0.5070431996136904,1051.2767874002457,None,,,color29,001,2022_Mar_03_1550,ProdSingRedo,3.2.3,59.890711879669034,
,,,,53,0,53,0,,,,,,,,,,,,,,,,,,,,,,,,1057.1464315000921,None,,,,,,,,,,,,,,,,,shock,new_silent,red,53,164,284,1052.3309619016945,None,1052.3309619016945,None,1,4.108772899955511,1052.3309619016945,None,1056.4911768008024,None,1056.9960890002549,None,1056.9960890002549,None,n,0.11557829938828945,1056.9960890002549,None,,,color29,001,2022_Mar_03_1550,ProdSingRedo,3.2.3,59.890711879669034,
,,,,54,0,54,0,,,,,,,,,,,,,,,,,,,,,,,,1060.4333591014147,None,,,,,,,,,,,,,,,,,committee,aloud,yellow,54,48,62,1057.6688392013311,None,1057.6688392013311,None,6,1.4909496996551752,1057.6688392013311,None,1059.2090223003179,None,1059.7315012011677,None,1059.7315012011677,None,r,0.6681936997920275,1059.7315012011677,None,,,color29,001,2022_Mar_03_1550,ProdSingRedo,3.2.3,59.890711879669034,
,,,,55,0,55,0,,,,,,,,,,,,,,,,,,,,,,,,1063.9110937006772,None,,,,,,,,,,,,,,,,,beauty,silent,red,55,74,18,1060.962950201705,None,1060.962950201705,None,3,2.0367252994328737,1060.962950201705,None,1063.0508698001504,None,1063.5580439008772,None,1063.5580439008772,None,n,0.3216989003121853,1063.5580439008772,None,,,color29,001,2022_Mar_03_1550,ProdSingRedo,3.2.3,59.890711879669034,
,,,,56,0,56,0,,,,,,,,,,,,,,,,,,,,,,,,1067.1067367009819,None,,,,,,,,,,,,,,,,,citizen,sing,blue,56,6,50,1064.4346392005682,None,1064.4346392005682,None,5,1.7731177005916834,1064.4346392005682,None,1066.2586653009057,None,1066.7744153998792,None,1066.7744153998792,None,f,0.2973386012017727,1066.7744153998792,None,,,color29,001,2022_Mar_03_1550,ProdSingRedo,3.2.3,59.890711879669034,
,,,,57,0,57,0,,,,,,,,,,,,,,,,,,,,,,,,1070.2086717002094,None,,,,,,,,,,,,,,,,,angle,sing,blue,57,7,7,1067.634120600298,None,1067.634120600298,None,6,1.8775839991867542,1067.634120600298,None,1069.5575426016003,None,1070.0791092012078,None,1070.0791092012078,None,r,0.0965758990496397,1070.0791092012078,None,,,color29,001,2022_Mar_03_1550,ProdSingRedo,3.2.3,59.890711879669034,
,,,,58,0,58,0,,,,,,,,,,,,,,,,,,,,,,,,1077.4660982005298,None,,,,,,,,,,,,,,,,,employment,sing,blue,58,22,111,1070.7389474008232,None,1070.7389474008232,None,4,5.820395698770881,1070.7389474008232,None,1076.5949629005045,None,1077.1199678014964,None,1077.1199678014964,None,f,0.3206818997859955,1077.1199678014964,None,,,color29,001,2022_Mar_03_1550,ProdSingRedo,3.2.3,59.890711879669034,
,,,,59,0,59,0,,,,,,,,,,,,,,,,,,,,,,,,1080.703535700217,None,,,,,,,,,,,,,,,,,master,new_silent,red,59,179,180,1077.9915115013719,None,1077.9915115013719,None,2,1.656156400218606,1077.9915115013719,None,1079.6993877999485,None,1080.2049175016582,None,1080.2049175016582,None,n,0.4748480003327131,1080.2049175016582,None,,,color29,001,2022_Mar_03_1550,ProdSingRedo,3.2.3,59.890711879669034,
,,,,60,0,60,0,,,,,,,,,,,,,,,,,,,,,,,,1083.456123901531,None,,,,,,,,,,,,,,,,,drama,sing,blue,60,11,103,1081.2294256016612,None,1081.2294256016612,None,6,1.44237419962883,1081.2294256016612,None,1082.7204123008996,None,1083.2409659009427,None,1083.2409659009427,None,r,0.18288329988718033,1083.2409659009427,None,,,color29,001,2022_Mar_03_1550,ProdSingRedo,3.2.3,59.890711879669034,
,,,,61,0,61,0,,,,,,,,,,,,,,,,,,,,,,,,1089.5124456007034,None,,,,,,,,,,,,,,,,,science,aloud,yellow,61,33,275,1083.979340100661,None,1083.979340100661,None,6,4.65238169953227,1083.979340100661,None,1088.6700307000428,None,1089.1764828003943,None,1089.1764828003943,None,r,0.3113341983407736,1089.1764828003943,None,,,color29,001,2022_Mar_03_1550,ProdSingRedo,3.2.3,59.890711879669034,
,,,,62,0,62,0,,,,,,,,,,,,,,,,,,,,,,,,1093.898260600865,None,,,,,,,,,,,,,,,,,route,new_aloud,yellow,62,137,267,1090.0388293005526,None,1090.0388293005526,None,3,2.576801499351859,1090.0388293005526,None,1092.6596536003053,None,1093.1832557003945,None,1093.1832557003945,None,n,0.6803508996963501,1093.1832557003945,None,,,color29,001,2022_Mar_03_1550,ProdSingRedo,3.2.3,59.890711879669034,
,,,,63,0,63,0,,,,,,,,,,,,,,,,,,,,,,,,1098.5872563011944,None,,,,,,,,,,,,,,,,,trend,sing,blue,63,5,340,1094.4190680999309,None,1094.4190680999309,None,5,1.5165550000965595,1094.4190680999309,None,1095.9787183012813,None,1096.498522900045,None,1096.498522900045,None,f,2.0611445996910334,1096.498522900045,None,,,color29,001,2022_Mar_03_1550,ProdSingRedo,3.2.3,59.890711879669034,
,,,,64,0,64,0,,,,,,,,,,,,,,,,,,,,,,,,1103.7755191009492,None,,,,,,,,,,,,,,,,,trail,new_aloud,yellow,64,138,336,1099.110519701615,None,1099.110519701615,None,4,3.280977999791503,1099.110519701615,None,1102.4267591014504,None,1102.9441718012094,None,1102.9441718012094,None,f,0.7994434013962746,1102.9441718012094,None,,,color29,001,2022_Mar_03_1550,ProdSingRedo,3.2.3,59.890711879669034,
,,,,65,0,65,0,,,,,,,,,,,,,,,,,,,,,,,,1106.4699105005711,None,,,,,,,,,,,,,,,,,bureau,new_sing,blue,65,91,37,1104.3018377013505,None,1104.3018377013505,None,2,1.4818086009472609,1104.3018377013505,None,1105.827466500923,None,1106.3360954001546,None,1106.3360954001546,None,n,0.10319999977946281,1106.3360954001546,None,,,color29,001,2022_Mar_03_1550,ProdSingRedo,3.2.3,59.890711879669034,
,,,,66,0,66,0,,,,,,,,,,,,,,,,,,,,,,,,1110.632521001622,None,,,,,,,,,,,,,,,,,owner,new_silent,red,66,177,208,1106.971460999921,None,1106.971460999921,None,3,2.204340999945998,1106.971460999921,None,1109.2243814002723,None,1109.7340559009463,None,1109.7340559009463,None,f,0.8736451007425785,1109.7340559009463,None,,,color29,001,2022_Mar_03_1550,ProdSingRedo,3.2.3,59.890711879669034,
,,,,67,0,67,0,,,,,,,,,,,,,,,,,,,,,,,,1115.1873218007386,None,,,,,,,,,,,,,,,,,guest,new_sing,blue,67,114,146,1111.1561831012368,None,1111.1561831012368,None,4,3.3471959996968508,1111.1561831012368,None,1114.5335651002824,None,1115.0540240015835,None,1115.0540240015835,None,f,0.09764680080115795,1115.0540240015835,None,,,color29,001,2022_Mar_03_1550,ProdSingRedo,3.2.3,59.890711879669034,
,,,,68,0,68,0,,,,,,,,,,,,,,,,,,,,,,,,1119.9594135005027,None,,,,,,,,,,,,,,,,,property,silent,red,68,72,242,1115.7129648011178,None,1115.7129648011178,None,4,3.319157101213932,1115.7129648011178,None,1119.0815064013004,None,1119.58662690036,None,1119.58662690036,None,f,0.3490603007376194,1119.58662690036,None,,,color29,001,2022_Mar_03_1550,ProdSingRedo,3.2.3,59.890711879669034,
,,,,69,0,69,0,,,,,,,,,,,,,,,,,,,,,,,,1123.6062360014766,None,,,,,,,,,,,,,,,,,distance,aloud,yellow,69,58,100,1120.4855882003903,None,1120.4855882003903,None,5,1.8343221992254257,1120.4855882003903,None,1122.3596571013331,None,1122.8803821001202,None,1122.8803821001202,None,r,0.7030321005731821,1122.8803821001202,None,,,color29,001,2022_Mar_03_1550,ProdSingRedo,3.2.3,59.890711879669034,
,,,,70,0,70,0,,,,,,,,,,,,,,,,,,,,,,,,1127.2996614016593,None,,,,,,,,,,,,,,,,,research,new_sing,blue,70,102,261,1124.1374685000628,None,1124.1374685000628,None,4,2.318858601152897,1124.1374685000628,None,1126.4978656005114,None,1127.0199923999608,None,1127.0199923999608,None,f,0.24388680048286915,1127.0199923999608,None,,,color29,001,2022_Mar_03_1550,ProdSingRedo,3.2.3,59.890711879669034,
,,,,71,0,71,0,,,,,,,,,,,,,,,,,,,,,,,,1130.1852890010923,None,,,,,,,,,,,,,,,,,account,aloud,yellow,71,41,1,1127.8236544001848,None,1127.8236544001848,None,6,1.3920842986553907,1127.8236544001848,None,1129.2677634004503,None,1129.7961576003581,None,1129.7961576003581,None,r,0.3553710002452135,1129.7961576003581,None,,,color29,001,2022_Mar_03_1550,ProdSingRedo,3.2.3,59.890711879669034,
,,,,72,0,72,0,,,,,,,,,,,,,,,,,,,,,,,,1135.0066919010133,None,,,,,,,,,,,,,,,,,question,new_sing,blue,72,101,247,1130.719798201695,None,1130.719798201695,None,5,3.2556761000305414,1130.719798201695,None,1134.0242607016116,None,1134.5434680003673,None,1134.5434680003673,None,f,0.43995309993624687,1134.5434680003673,None,,,color29,001,2022_Mar_03_1550,ProdSingRedo,3.2.3,59.890711879669034,
,,,,73,0,73,0,,,,,,,,,,,,,,,,,,,,,,,,1140.0793316010386,None,,,,,,,,,,,,,,,,,growth,new_aloud,yellow,73,140,144,1135.5300705004483,None,1135.5300705004483,None,4,3.1815997008234262,1135.5300705004483,None,1138.7726559005678,None,1139.2799809016287,None,1139.2799809016287,None,f,0.7675726003944874,1139.2799809016287,None,,,color29,001,2022_Mar_03_1550,ProdSingRedo,3.2.3,59.890711879669034,
,,,,74,0,74,0,,,,,,,,,,,,,,,,,,,,,,,,1146.4179836008698,None,,,,,,,,,,,,,,,,,object,new_sing,blue,74,100,204,1140.60327110067,None,1140.60327110067,None,3,4.916343200951815,1140.60327110067,None,1145.5656187999994,None,1146.087007600814,None,1146.087007600814,None,f,0.2965882010757923,1146.087007600814,None,,,color29,001,2022_Mar_03_1550,ProdSingRedo,3.2.3,59.890711879669034,
,,,,75,0,75,0,,,,,,,,,,,,,,,,,,,,,,,,1149.6386164017022,None,,,,,,,,,,,,,,,,,court,new_sing,blue,75,112,75,1146.9455269016325,None,1146.9455269016325,None,5,1.7337417006492615,1146.9455269016325,None,1148.708261700347,None,1149.2170046009123,None,1149.2170046009123,None,f,0.3825376983731985,1149.2170046009123,None,,,color29,001,2022_Mar_03_1550,ProdSingRedo,3.2.3,59.890711879669034,
,,,,76,0,76,0,,,,,,,,,,,,,,,,,,,,,,,,1154.0272586010396,None,,,,,,,,,,,,,,,,,express,silent,red,76,80,124,1150.1627163998783,None,1150.1627163998783,None,4,2.9169965013861656,1150.1627163998783,None,1153.1162042003125,None,1153.6262876000255,None,1153.6262876000255,None,f,0.3742422014474869,1153.6262876000255,None,,,color29,001,2022_Mar_03_1550,ProdSingRedo,3.2.3,59.890711879669034,
,,,,77,0,77,0,,,,,,,,,,,,,,,,,,,,,,,,1158.3307711016387,None,,,,,,,,,,,,,,,,,afternoon,silent,red,77,69,3,1154.5511115007102,None,1154.5511115007102,None,3,2.4964023996144533,1154.5511115007102,None,1157.094274301082,None,1157.592879800126,None,1157.592879800126,None,f,0.7029245998710394,1157.592879800126,None,,,color29,001,2022_Mar_03_1550,ProdSingRedo,3.2.3,59.890711879669034,
,,,,78,0,78,0,,,,,,,,,,,,,,,,,,,,,,,,1162.5178913008422,None,,,,,,,,,,,,,,,,,prime,sing,blue,78,4,235,1158.85339490138,None,1158.85339490138,None,2,2.7705699987709522,1158.85339490138,None,1161.6587762013078,None,1162.165902601555,None,1162.165902601555,None,n,0.3137491997331381,1162.165902601555,None,,,color29,001,2022_Mar_03_1550,ProdSingRedo,3.2.3,59.890711879669034,
,,,,79,0,79,0,,,,,,,,,,,,,,,,,,,,,,,,1167.405831001699,None,,,,,,,,,,,,,,,,,entrance,new_silent,red,79,176,115,1163.0480621010065,None,1163.0480621010065,None,5,3.543156100437045,1163.0480621010065,None,1166.6222752016038,None,1167.1426545009017,None,1167.1426545009017,None,r,0.23303009942173958,1167.1426545009017,None,,,color29,001,2022_Mar_03_1550,ProdSingRedo,3.2.3,59.890711879669034,
,,,,80,0,80,0,,,,,,,,,,,,,,,,,,,,,,,,1172.3448263015598,None,,,,,,,,,,,,,,,,,society,new_aloud,yellow,80,130,293,1167.9291396010667,None,1167.9291396010667,None,4,2.030418999493122,1167.9291396010667,None,1170.001718601212,None,1170.511902000755,None,1170.511902000755,None,r,1.7996574994176626,1170.511902000755,None,,,color29,001,2022_Mar_03_1550,ProdSingRedo,3.2.3,59.890711879669034,
,,,,81,0,81,0,,,,,,,,,,,,,,,,,,,,,,,,1182.8379668015987,None,,,,,,,,,,,,,,,,,still,new_aloud,yellow,81,120,304,1172.8661120012403,None,1172.8661120012403,None,4,8.933441599830985,1172.8661120012403,None,1181.8470432013273,None,1182.3528780005872,None,1182.3528780005872,None,f,0.44660039991140366,1182.3528780005872,None,,,color29,001,2022_Mar_03_1550,ProdSingRedo,3.2.3,59.890711879669034,
,,,,82,0,82,0,,,,,,,,,,,,,,,,,,,,,,,,1188.5329985003918,None,,,,,,,,,,,,,,,,,threat,new_aloud,yellow,82,133,329,1183.364755500108,None,1183.364755500108,None,3,3.3787578996270895,1183.364755500108,None,1186.791666701436,None,1187.3165873009712,None,1187.3165873009712,None,f,1.171000899747014,1187.3165873009712,None,,,color29,001,2022_Mar_03_1550,ProdSingRedo,3.2.3,59.890711879669034,
,,,,83,0,83,0,,,,,,,,,,,,,,,,,,,,,,,,1192.215227400884,None,,,,,,,,,,,,,,,,,surface,new_aloud,yellow,83,148,316,1189.060790700838,None,1189.060790700838,None,5,2.0827153995633125,1189.060790700838,None,1191.193677701056,None,1191.719946300611,None,1191.719946300611,None,f,0.455519899725914,1191.719946300611,None,,,color29,001,2022_Mar_03_1550,ProdSingRedo,3.2.3,59.890711879669034,
,,,,84,0,84,0,,,,,,,,,,,,,,,,,,,,,,,,1197.1841529998928,None,,,,,,,,,,,,,,,,,piece,sing,blue,84,2,221,1192.7399297002703,None,1192.7399297002703,None,4,1.819659298285842,1192.7399297002703,None,1194.5922431014478,None,1195.106734700501,None,1195.106734700501,None,f,2.0446977987885475,1195.106734700501,None,,,color29,001,2022_Mar_03_1550,ProdSingRedo,3.2.3,59.890711879669034,
,,,,85,0,85,0,,,,,,,,,,,,,,,,,,,,,,,,1203.2595493011177,None,,,,,,,,,,,,,,,,,report,new_aloud,yellow,85,141,259,1197.7058462016284,None,1197.7058462016284,None,4,4.645674400031567,1197.7058462016284,None,1202.3860025014728,None,1202.9082196000963,None,1202.9082196000963,None,f,0.3234443999826908,1202.9082196000963,None,,,color29,001,2022_Mar_03_1550,ProdSingRedo,3.2.3,59.890711879669034,
,,,,86,0,86,0,,,,,,,,,,,,,,,,,,,,,,,,1209.0466296002269,None,,,,,,,,,,,,,,,,,symbol,silent,red,86,84,321,1203.78358730115,None,1203.78358730115,None,3,3.7439422998577356,1203.78358730115,None,1207.5809759013355,None,1208.0856247004122,None,1208.0856247004122,None,n,0.9378768000751734,1208.0856247004122,None,,,color29,001,2022_Mar_03_1550,ProdSingRedo,3.2.3,59.890711879669034,
,,,,87,0,87,0,,,,,,,,,,,,,,,,,,,,,,,,1212.101443901658,None,,,,,,,,,,,,,,,,,universal,new_silent,red,87,168,345,1209.5784892011434,None,1209.5784892011434,None,2,1.4455606993287802,1209.5784892011434,None,1211.070565201342,None,1211.579588200897,None,1211.579588200897,None,n,0.49189529940485954,1211.579588200897,None,,,color29,001,2022_Mar_03_1550,ProdSingRedo,3.2.3,59.890711879669034,
,,,,88,0,88,0,,,,,,,,,,,,,,,,,,,,,,,,1216.037612201646,None,,,,,,,,,,,,,,,,,alert,sing,blue,88,23,6,1212.6242166012526,None,1212.6242166012526,None,4,2.350875798612833,1212.6242166012526,None,1214.9961527008563,None,1215.5060378015041,None,1215.5060378015041,None,f,0.501443600282073,1215.5060378015041,None,,,color29,001,2022_Mar_03_1550,ProdSingRedo,3.2.3,59.890711879669034,
,,,,89,0,89,0,,,,,,,,,,,,,,,,,,,,,,,,1220.9935151003301,None,,,,,,,,,,,,,,,,,tennis,new_silent,red,89,153,323,1216.5576758012176,None,1216.5576758012176,None,4,3.241984499618411,1216.5576758012176,None,1219.8337505999953,None,1220.340604500845,None,1220.340604500845,None,f,0.6188738998025656,1220.340604500845,None,,,color29,001,2022_Mar_03_1550,ProdSingRedo,3.2.3,59.890711879669034,
,,,,90,0,90,0,,,,,,,,,,,,,,,,,,,,,,,,1225.7315760012716,None,,,,,,,,,,,,,,,,,meeting,silent,red,90,78,187,1221.520404100418,None,1221.520404100418,None,2,3.2709763012826443,1221.520404100418,None,1224.8398587014526,None,1225.3500824011862,None,1225.3500824011862,None,n,0.35324119962751865,1225.3500824011862,None,,,color29,001,2022_Mar_03_1550,ProdSingRedo,3.2.3,59.890711879669034,
,,,,91,0,91,0,,,,,,,,,,,,,,,,,,,,,,,,1229.2830896005034,None,,,,,,,,,,,,,,,,,measure,new_silent,red,91,156,184,1226.2457993999124,None,1226.2457993999124,None,4,1.9057001005858183,1226.2457993999124,None,1228.201203700155,None,1228.7134752999991,None,1228.7134752999991,None,f,0.5417748000472784,1228.7134752999991,None,,,color29,001,2022_Mar_03_1550,ProdSingRedo,3.2.3,59.890711879669034,
,,,,92,0,92,0,,,,,,,,,,,,,,,,,,,,,,,,1232.270162601024,None,,,,,,,,,,,,,,,,,story,new_sing,blue,92,99,306,1229.8088893014938,None,1229.8088893014938,None,3,1.8625045008957386,1229.8088893014938,None,1231.7125628013164,None,1232.2284232005477,None,1232.2284232005477,None,f,0.010915400460362434,1232.2284232005477,None,,,color29,001,2022_Mar_03_1550,ProdSingRedo,3.2.3,59.890711879669034,
,,,,93,0,93,0,,,,,,,,,,,,,,,,,,,,,,,,1236.1744316015393,None,,,,,,,,,,,,,,,,,leader,new_sing,blue,93,104,168,1232.783880200237,None,1232.783880200237,None,4,1.999517798423767,1232.783880200237,None,1234.8219631016254,None,1235.3425096012652,None,1235.3425096012652,None,f,0.8008561003953218,1235.3425096012652,None,,,color29,001,2022_Mar_03_1550,ProdSingRedo,3.2.3,59.890711879669034,
,,,,94,0,94,0,,,,,,,,,,,,,,,,,,,,,,,,1243.633825501427,None,,,,,,,,,,,,,,,,,touch,aloud,yellow,94,42,332,1236.6982219014317,None,1236.6982219014317,None,4,4.2371475994586945,1236.6982219014317,None,1240.9765925016254,None,1241.4978344999254,None,1241.4978344999254,None,f,2.1017135996371508,1241.4978344999254,None,,,color29,001,2022_Mar_03_1550,ProdSingRedo,3.2.3,59.890711879669034,
,,,,95,0,95,0,,,,,,,,,,,,,,,,,,,,,,,,1247.4344947002828,None,,,,,,,,,,,,,,,,,religion,sing,blue,95,16,258,1244.1629083007574,None,1244.1629083007574,None,6,2.3484591003507376,1244.1629083007574,None,1246.5550168007612,None,1247.0697520002723,None,1247.0697520002723,None,r,0.3296635001897812,1247.0697520002723,None,,,color29,001,2022_Mar_03_1550,ProdSingRedo,3.2.3,59.890711879669034,
,,,,96,0,96,0,,,,,,,,,,,,,,,,,,,,,,,,1251.6240499000996,None,,,,,,,,,,,,,,,,,patient,new_aloud,yellow,96,143,213,1247.9515912011266,None,1247.9515912011266,None,4,2.7037055995315313,1247.9515912011266,None,1250.7009648010135,None,1251.2074708007276,None,1251.2074708007276,None,f,0.3919961992651224,1251.2074708007276,None,,,color29,001,2022_Mar_03_1550,ProdSingRedo,3.2.3,59.890711879669034,
,,,,97,0,97,0,,,,,,,,,,,,,,,,,,,,,,,,1254.8600096013397,None,,,,,,,,,,,,,,,,,south,sing,blue,97,28,296,1252.14945670031,None,1252.14945670031,None,6,1.4258474987000227,1252.14945670031,None,1253.6196226999164,None,1254.146005101502,None,1254.146005101502,None,r,0.677377400919795,1254.146005101502,None,,,color29,001,2022_Mar_03_1550,ProdSingRedo,3.2.3,59.890711879669034,
,,,,98,0,98,0,,,,,,,,,,,,,,,,,,,,,,,,1258.0980984009802,None,,,,,,,,,,,,,,,,,crowd,new_aloud,yellow,98,134,81,1255.3835826013237,None,1255.3835826013237,None,4,1.4554041996598244,1255.3835826013237,None,1256.8741490002722,None,1257.3968938998878,None,1257.3968938998878,None,f,0.6664873007684946,1257.3968938998878,None,,,color29,001,2022_Mar_03_1550,ProdSingRedo,3.2.3,59.890711879669034,
,,,,99,0,99,0,,,,,,,,,,,,,,,,,,,,,,,,1264.4016752000898,None,,,,,,,,,,,,,,,,,contract,new_sing,blue,99,98,68,1258.6206571012735,None,1258.6206571012735,None,3,4.218812398612499,1258.6206571012735,None,1262.8805190008134,None,1263.4048560000956,None,1263.4048560000956,None,f,0.962788900360465,1263.4048560000956,None,,,color29,001,2022_Mar_03_1550,ProdSingRedo,3.2.3,59.890711879669034,
,,,,100,0,100,0,,,,,,,,,,,,,,,,,,,,,,,,1271.3113609999418,None,,,,,,,,,,,,,,,,,skill,silent,red,100,71,289,1264.9261631015688,None,1264.9261631015688,None,5,4.569198999553919,1264.9261631015688,None,1269.537769800052,None,1270.0595638006926,None,1270.0595638006926,None,r,1.2198166996240616,1270.0595638006926,None,,,color29,001,2022_Mar_03_1550,ProdSingRedo,3.2.3,59.890711879669034,
,,,,101,0,101,0,,,,,,,,,,,,,,,,,,,,,,,,1282.5870946012437,None,,,,,,,,,,,,,,,,,color,silent,red,101,82,56,1271.8353621009737,None,1271.8353621009737,None,3,6.267996899783611,1271.8353621009737,None,1278.1458452008665,None,1278.66513890028,None,1278.66513890028,None,n,3.8941539004445076,1278.66513890028,None,,,color29,001,2022_Mar_03_1550,ProdSingRedo,3.2.3,59.890711879669034,
,,,,102,0,102,0,,,,,,,,,,,,,,,,,,,,,,,,1286.3657611012459,None,,,,,,,,,,,,,,,,,appeal,sing,blue,102,27,9,1283.1142276003957,None,1283.1142276003957,None,4,2.13389110006392,1283.1142276003957,None,1285.2883188016713,None,1285.8194058015943,None,1285.8194058015943,None,f,0.5235278997570276,1285.8194058015943,None,,,color29,001,2022_Mar_03_1550,ProdSingRedo,3.2.3,59.890711879669034,
,,,,103,0,103,0,,,,,,,,,,,,,,,,,,,,,,,,1291.096478600055,None,,,,,,,,,,,,,,,,,voice,new_sing,blue,103,97,348,1286.8690135013312,None,1286.8690135013312,None,4,3.42619669996202,1286.8690135013312,None,1290.344719901681,None,1290.8662566002458,None,1290.8662566002458,None,f,0.19703459925949574,1290.8662566002458,None,,,color29,001,2022_Mar_03_1550,ProdSingRedo,3.2.3,59.890711879669034,
,,,,104,0,104,0,,,,,,,,,,,,,,,,,,,,,,,,1295.836131900549,None,,,,,,,,,,,,,,,,,novel,new_silent,red,104,169,202,1291.6202135011554,None,1291.6202135011554,None,3,1.8193047009408474,1291.6202135011554,None,1293.478648001328,None,1293.9855030998588,None,1293.9855030998588,None,f,1.822216099128127,1293.9855030998588,None,,,color29,001,2022_Mar_03_1550,ProdSingRedo,3.2.3,59.890711879669034,
,,,,105,0,105,0,,,,,,,,,,,,,,,,,,,,,,,,1302.2233137004077,None,,,,,,,,,,,,,,,,,staff,sing,blue,105,1,301,1296.3575724009424,None,1296.3575724009424,None,5,4.433607000857592,1296.3575724009424,None,1300.8375831004232,None,1301.365118600428,None,1301.365118600428,None,r,0.8345206994563341,1301.365118600428,None,,,color29,001,2022_Mar_03_1550,ProdSingRedo,3.2.3,59.890711879669034,
,,,,106,0,106,0,,,,,,,,,,,,,,,,,,,,,,,,1306.5784178003669,None,,,,,,,,,,,,,,,,,general,aloud,yellow,106,53,135,1302.7501892000437,None,1302.7501892000437,None,5,2.673130700364709,1302.7501892000437,None,1305.4847355000675,None,1305.994383201003,None,1305.994383201003,None,f,0.5573928002268076,1305.994383201003,None,,,color29,001,2022_Mar_03_1550,ProdSingRedo,3.2.3,59.890711879669034,
,,,,107,0,107,0,,,,,,,,,,,,,,,,,,,,,,,,1309.6319412011653,None,,,,,,,,,,,,,,,,,health,new_aloud,yellow,107,145,149,1307.1025503017008,None,1307.1025503017008,None,4,1.7447226997464895,1307.1025503017008,None,1308.895307701081,None,1309.3997448999435,None,1309.3997448999435,None,f,0.19938510097563267,1309.3997448999435,None,,,color29,001,2022_Mar_03_1550,ProdSingRedo,3.2.3,59.890711879669034,
,,,,108,0,108,0,,,,,,,,,,,,,,,,,,,,,,,,1316.4459854010493,None,,,,,,,,,,,,,,,,,vision,new_aloud,yellow,108,135,347,1310.1561631001532,None,1310.1561631001532,None,2,5.491009999066591,1310.1561631001532,None,1315.6806193999946,None,1316.196156801656,None,1316.196156801656,None,n,0.22679580003023148,1316.196156801656,None,,,color29,001,2022_Mar_03_1550,ProdSingRedo,3.2.3,59.890711879669034,
,,,,109,0,109,0,,,,,,,,,,,,,,,,,,,,,,,,1319.6637210007757,None,,,,,,,,,,,,,,,,,industry,new_aloud,yellow,109,131,161,1316.9488054011017,None,1316.9488054011017,None,3,1.9785273000597954,1316.9488054011017,None,1318.9752748012543,None,1319.4961006008089,None,1319.4961006008089,None,n,0.1273941993713379,1319.4961006008089,None,,,color29,001,2022_Mar_03_1550,ProdSingRedo,3.2.3,59.890711879669034,
,,,,110,0,110,0,,,,,,,,,,,,,,,,,,,,,,,,1325.4875578004867,None,,,,,,,,,,,,,,,,,under,sing,blue,110,0,343,1320.1808639001101,None,1320.1808639001101,None,1,4.098311400040984,1320.1808639001101,None,1324.3225190006196,None,1324.8321096003056,None,1324.8321096003056,None,n,0.6151570994406939,1324.8321096003056,None,,,color29,001,2022_Mar_03_1550,ProdSingRedo,3.2.3,59.890711879669034,
,,,,111,0,111,0,,,,,,,,,,,,,,,,,,,,,,,,1332.8872848004103,None,,,,,,,,,,,,,,,,,sight,new_silent,red,111,172,286,1325.9994472004473,None,1325.9994472004473,None,3,4.8558380007743835,1325.9994472004473,None,1330.8960359003395,None,1331.4155191015452,None,1331.4155191015452,None,f,1.4479651004076004,1331.4155191015452,None,,,color29,001,2022_Mar_03_1550,ProdSingRedo,3.2.3,59.890711879669034,
,,,,112,0,112,0,,,,,,,,,,,,,,,,,,,,,,,,1337.1096510011703,None,,,,,,,,,,,,,,,,,literature,sing,blue,112,15,173,1333.411500301212,None,1333.411500301212,None,6,2.731742599979043,1333.411500301212,None,1336.2036933004856,None,1336.714326100424,None,1336.714326100424,None,r,0.36484350077807903,1336.714326100424,None,,,color29,001,2022_Mar_03_1550,ProdSingRedo,3.2.3,59.890711879669034,
,,,,113,0,113,0,,,,,,,,,,,,,,,,,,,,,,,,1342.596578400582,None,,,,,,,,,,,,,,,,,cross,new_sing,blue,113,109,80,1337.6302449014038,None,1337.6302449014038,None,3,3.79290309920907,1337.6302449014038,None,1341.454179700464,None,1341.959876300767,None,1341.959876300767,None,n,0.5993584990501404,1341.959876300767,None,,,color29,001,2022_Mar_03_1550,ProdSingRedo,3.2.3,59.890711879669034,
,,,,114,0,114,0,,,,,,,,,,,,,,,,,,,,,,,,1346.375502800569,None,,,,,,,,,,,,,,,,,income,silent,red,114,65,159,1343.121212201193,None,1343.121212201193,None,2,2.5180775988847017,1343.121212201193,None,1345.6780712008476,None,1346.1922236010432,None,1346.1922236010432,None,n,0.16662169992923737,1346.1922236010432,None,,,color29,001,2022_Mar_03_1550,ProdSingRedo,3.2.3,59.890711879669034,
,,,,115,0,115,0,,,,,,,,,,,,,,,,,,,,,,,,1353.5578946005553,None,,,,,,,,,,,,,,,,,balance,new_sing,blue,115,108,17,1346.8816646002233,None,1346.8816646002233,None,4,5.653534401208162,1346.8816646002233,None,1352.5868676006794,None,1353.1131060998887,None,1353.1131060998887,None,f,0.4220201000571251,1353.1131060998887,None,,,color29,001,2022_Mar_03_1550,ProdSingRedo,3.2.3,59.890711879669034,
,,,,116,0,116,0,,,,,,,,,,,,,,,,,,,,,,,,1359.647142501548,None,,,,,,,,,,,,,,,,,blind,silent,red,116,87,24,1354.0819863006473,None,1354.0819863006473,None,4,2.981130400672555,1354.0819863006473,None,1357.1078848000616,None,1357.6307133007795,None,1357.6307133007795,None,f,1.9844654016196728,1357.6307133007795,None,,,color29,001,2022_Mar_03_1550,ProdSingRedo,3.2.3,59.890711879669034,
,,,,117,0,117,0,,,,,,,,,,,,,,,,,,,,,,,,1364.805107401684,None,,,,,,,,,,,,,,,,,estate,sing,blue,117,29,119,1360.1721176002175,None,1360.1721176002175,None,5,3.739276399835944,1360.1721176002175,None,1363.9491943009198,None,1364.4713048003614,None,1364.4713048003614,None,f,0.30376169830560684,1364.4713048003614,None,,,color29,001,2022_Mar_03_1550,ProdSingRedo,3.2.3,59.890711879669034,
,,,,118,0,118,0,,,,,,,,,,,,,,,,,,,,,,,,1371.7262241002172,None,,,,,,,,,,,,,,,,,working,silent,red,118,85,357,1365.3350676000118,None,1365.3350676000118,None,3,5.744088899344206,1365.3350676000118,None,1371.128585100174,None,1371.6540192998946,None,1371.6540192998946,None,n,0.041116898879408836,1371.6540192998946,None,,,color29,001,2022_Mar_03_1550,ProdSingRedo,3.2.3,59.890711879669034,
,,,,119,0,119,0,,,,,,,,,,,,,,,,,,,,,,,,1374.7468263003975,None,,,,,,,,,,,,,,,,,population,silent,red,119,77,227,1372.2555301003158,None,1372.2555301003158,None,5,1.407693900167942,1372.2555301003158,None,1373.7078055012971,None,1374.2353576011956,None,1374.2353576011956,None,r,0.47585950046777725,1374.2353576011956,None,,,color29,001,2022_Mar_03_1550,ProdSingRedo,3.2.3,59.890711879669034,
,,,,120,0,120,0,,,,,,,,,,,,,,,,,,,,,,,,1378.0656609013677,None,,,,,,,,,,,,,,,,,scale,aloud,yellow,120,45,272,1375.2754599004984,None,1375.2754599004984,None,5,1.787609601393342,1375.2754599004984,None,1377.1132142003626,None,1377.6178207006305,None,1377.6178207006305,None,r,0.41341060027480125,1377.6178207006305,None,,,color29,001,2022_Mar_03_1550,ProdSingRedo,3.2.3,59.890711879669034,
,,,,121,0,121,0,,,,,,,,,,,,,,,,,,,,,,,,1382.2358671016991,None,,,,,,,,,,,,,,,,,turkey,silent,red,121,75,342,1378.5927641000599,None,1378.5927641000599,None,1,2.5743420999497175,1378.5927641000599,None,1381.231412600726,None,1381.7418837007135,None,1381.7418837007135,None,n,0.45724919997155666,1381.7418837007135,None,,,color29,001,2022_Mar_03_1550,ProdSingRedo,3.2.3,59.890711879669034,
,,,,122,0,122,0,,,,,,,,,,,,,,,,,,,,,,,,1386.741000501439,None,,,,,,,,,,,,,,,,,display,sing,blue,122,14,98,1382.7599577009678,None,1382.7599577009678,None,3,2.2953321002423763,1382.7599577009678,None,1385.1000449005514,None,1385.6072403006256,None,1385.6072403006256,None,n,1.1039899997413158,1385.6072403006256,None,,,color29,001,2022_Mar_03_1550,ProdSingRedo,3.2.3,59.890711879669034,
,,,,123,0,123,0,,,,,,,,,,,,,,,,,,,,,,,,1390.2304395008832,None,,,,,,,,,,,,,,,,,quantity,aloud,yellow,123,40,245,1387.271305700764,None,1387.271305700764,None,4,1.91173480078578,1387.271305700764,None,1389.228349501267,None,1389.7485270015895,None,1389.7485270015895,None,f,0.45061139948666096,1389.7485270015895,None,,,color29,001,2022_Mar_03_1550,ProdSingRedo,3.2.3,59.890711879669034,
,,,,124,0,124,0,,,,,,,,,,,,,,,,,,,,,,,,1393.9641179013997,None,,,,,,,,,,,,,,,,,debate,new_sing,blue,124,105,87,1390.7573570013046,None,1390.7573570013046,None,4,2.137889700010419,1390.7573570013046,None,1392.9477497003973,None,1393.4517801012844,None,1393.4517801012844,None,f,0.4752732999622822,1393.4517801012844,None,,,color29,001,2022_Mar_03_1550,ProdSingRedo,3.2.3,59.890711879669034,
,,,,125,0,125,0,,,,,,,,,,,,,,,,,,,,,,,,1397.853369800374,None,,,,,,,,,,,,,,,,,individual,new_silent,red,125,178,160,1394.4913318008184,None,1394.4913318008184,None,3,1.9237664006650448,1394.4913318008184,None,1396.469637900591,None,1396.9752246011049,None,1396.9752246011049,None,f,0.8479018993675709,1396.9752246011049,None,,,color29,001,2022_Mar_03_1550,ProdSingRedo,3.2.3,59.890711879669034,
,,,,126,0,126,0,,,,,,,,,,,,,,,,,,,,,,,,1403.1399167012423,None,,,,,,,,,,,,,,,,,straight,sing,blue,126,26,307,1398.3784152008593,None,1398.3784152008593,None,2,4.060529500246048,1398.3784152008593,None,1402.480612501502,None,1402.997143600136,None,1402.997143600136,None,f,0.10590980015695095,1402.997143600136,None,,,color29,001,2022_Mar_03_1550,ProdSingRedo,3.2.3,59.890711879669034,
,,,,127,0,127,0,,,,,,,,,,,,,,,,,,,,,,,,1406.7190448008478,None,,,,,,,,,,,,,,,,,bitter,aloud,yellow,127,47,23,1403.6637395005673,None,1403.6637395005673,None,5,2.0474229995161295,1403.6637395005673,None,1405.7579840999097,None,1406.2671167999506,None,1406.2671167999506,None,r,0.42768900096416473,1406.2671167999506,None,,,color29,001,2022_Mar_03_1550,ProdSingRedo,3.2.3,59.890711879669034,
,,,,128,0,128,0,,,,,,,,,,,,,,,,,,,,,,,,1410.2479004003108,None,,,,,,,,,,,,,,,,,generation,new_aloud,yellow,128,125,136,1407.2401117999107,None,1407.2401117999107,None,4,1.8551409002393484,1407.2401117999107,None,1409.1477957013994,None,1409.652684500441,None,1409.652684500441,None,f,0.5623710993677378,1409.652684500441,None,,,color29,001,2022_Mar_03_1550,ProdSingRedo,3.2.3,59.890711879669034,
,,,,129,0,129,0,,,,,,,,,,,,,,,,,,,,,,,,1413.4182690009475,None,,,,,,,,,,,,,,,,,bright,new_silent,red,129,151,29,1410.7600021008402,None,1410.7600021008402,None,4,1.655095499008894,1410.7600021008402,None,1412.462563501671,None,1412.9927724003792,None,1412.9927724003792,None,f,0.3986633997410536,1412.9927724003792,None,,,color29,001,2022_Mar_03_1550,ProdSingRedo,3.2.3,59.890711879669034,
,,,,130,0,130,0,,,,,,,,,,,,,,,,,,,,,,,,1417.705258101225,None,,,,,,,,,,,,,,,,,character,aloud,yellow,130,57,46,1413.9548530001193,None,1413.9548530001193,None,4,2.5406823996454477,1413.9548530001193,None,1416.5378486011177,None,1417.060179401189,None,1417.060179401189,None,f,0.6196273993700743,1417.060179401189,None,,,color29,001,2022_Mar_03_1550,ProdSingRedo,3.2.3,59.890711879669034,
,,,,131,0,131,0,,,,,,,,,,,,,,,,,,,,,,,,1421.7809913009405,None,,,,,,,,,,,,,,,,,marriage,new_aloud,yellow,131,147,179,1418.2349472008646,None,1418.2349472008646,None,2,2.612050499767065,1418.2349472008646,None,1420.8939754012972,None,1421.4136188998818,None,1421.4136188998818,None,n,0.33742660097777843,1421.4136188998818,None,,,color29,001,2022_Mar_03_1550,ProdSingRedo,3.2.3,59.890711879669034,
,,,,132,0,132,0,,,,,,,,,,,,,,,,,,,,,,,,1425.696846101433,None,,,,,,,,,,,,,,,,,dream,new_silent,red,132,152,104,1422.2996746003628,None,1422.2996746003628,None,3,1.6993932016193867,1422.2996746003628,None,1424.0410667005926,None,1424.5709774009883,None,1424.5709774009883,None,f,1.100407199934125,1424.5709774009883,None,,,color29,001,2022_Mar_03_1550,ProdSingRedo,3.2.3,59.890711879669034,
,,,,133,0,133,0,,,,,,,,,,,,,,,,,,,,,,,,1429.0832686014473,None,,,,,,,,,,,,,,,,,speech,silent,red,133,66,298,1426.2212592009455,None,1426.2212592009455,None,4,1.633661400526762,1426.2212592009455,None,1427.8939458001405,None,1428.3961426001042,None,1428.3961426001042,None,f,0.6590407993644476,1428.3961426001042,None,,,color29,001,2022_Mar_03_1550,ProdSingRedo,3.2.3,59.890711879669034,
,,,,134,0,134,0,,,,,,,,,,,,,,,,,,,,,,,,1434.2548879012465,None,,,,,,,,,,,,,,,,,mankind,new_aloud,yellow,134,121,178,1429.6119830012321,None,1429.6119830012321,None,1,3.6270764004439116,1429.6119830012321,None,1433.2916338015348,None,1433.8123783003539,None,1433.8123783003539,None,n,0.41068690083920956,1433.8123783003539,None,,,color29,001,2022_Mar_03_1550,ProdSingRedo,3.2.3,59.890711879669034,
,,,,135,0,135,0,,,,,,,,,,,,,,,,,,,,,,,,1437.5752592012286,None,,,,,,,,,,,,,,,,,profession,new_sing,blue,135,90,241,1434.7801467999816,None,1434.7801467999816,None,4,1.9225826002657413,1434.7801467999816,None,1436.7349656000733,None,1437.2507926002145,None,1437.2507926002145,None,f,0.2923258990049362,1437.2507926002145,None,,,color29,001,2022_Mar_03_1550,ProdSingRedo,3.2.3,59.890711879669034,
,,,,136,0,136,0,,,,,,,,,,,,,,,,,,,,,,,,1444.5830195005983,None,,,,,,,,,,,,,,,,,hearing,silent,red,136,89,150,1438.0885644014925,None,1438.0885644014925,None,5,5.790497301146388,1438.0885644014925,None,1443.9367017000914,None,1444.4550347011536,None,1444.4550347011536,None,f,0.10421399958431721,1444.4550347011536,None,,,color29,001,2022_Mar_03_1550,ProdSingRedo,3.2.3,59.890711879669034,
,,,,137,0,137,0,,,,,,,,,,,,,,,,,,,,,,,,1448.0351545009762,None,,,,,,,,,,,,,,,,,ground,aloud,yellow,137,50,142,1445.110140901059,None,1445.110140901059,None,3,1.3608855996280909,1445.110140901059,None,1446.5215957015753,None,1447.038054600358,None,1447.038054600358,None,f,0.9688664004206657,1447.038054600358,None,,,color29,001,2022_Mar_03_1550,ProdSingRedo,3.2.3,59.890711879669034,
,,,,138,0,138,0,,,,,,,,,,,,,,,,,,,,,,,,1452.9355327002704,None,,,,,,,,,,,,,,,,,smooth,new_sing,blue,138,117,292,1448.5578612014651,None,1448.5578612014651,None,4,3.6247160993516445,1448.5578612014651,None,1452.2031784001738,None,1452.7235791012645,None,1452.7235791012645,None,f,0.17928959988057613,1452.7235791012645,None,,,color29,001,2022_Mar_03_1550,ProdSingRedo,3.2.3,59.890711879669034,
,,,,139,0,139,0,,,,,,,,,,,,,,,,,,,,,,,,1461.6326108016074,None,,,,,,,,,,,,,,,,,quick,new_sing,blue,139,107,248,1453.4661680012941,None,1453.4661680012941,None,4,6.764725198969245,1453.4661680012941,None,1460.2798212002963,None,1460.8026491999626,None,1460.8026491999626,None,f,0.8045636992901564,1460.8026491999626,None,,,color29,001,2022_Mar_03_1550,ProdSingRedo,3.2.3,59.890711879669034,
,,,,140,0,140,0,,,,,,,,,,,,,,,,,,,,,,,,1466.0719027016312,None,,,,,,,,,,,,,,,,,resistance,new_sing,blue,140,92,262,1462.1613574009389,None,1462.1613574009389,None,2,2.6860120985656977,1462.1613574009389,None,1464.8996665012091,None,1465.4070810005069,None,1465.4070810005069,None,n,0.631887398660183,1465.4070810005069,None,,,color29,001,2022_Mar_03_1550,ProdSingRedo,3.2.3,59.890711879669034,
,,,,141,0,141,0,,,,,,,,,,,,,,,,,,,,,,,,1472.5105647016317,None,,,,,,,,,,,,,,,,,raise,sing,blue,141,8,250,1466.5820778999478,None,1466.5820778999478,None,3,3.881080901250243,1466.5820778999478,None,1470.5091040004045,None,1471.043126700446,None,1471.043126700446,None,f,1.4279188998043537,1471.043126700446,None,,,color29,001,2022_Mar_03_1550,ProdSingRedo,3.2.3,59.890711879669034,
,,,,142,0,142,0,,,,,,,,,,,,,,,,,,,,,,,,1475.37902710028,None,,,,,,,,,,,,,,,,,series,aloud,yellow,142,51,279,1473.0310342013836,None,1473.0310342013836,None,4,1.4479016996920109,1473.0310342013836,None,1474.522938201204,None,1475.0260855015367,None,1475.0260855015367,None,f,0.32482900097966194,1475.0260855015367,None,,,color29,001,2022_Mar_03_1550,ProdSingRedo,3.2.3,59.890711879669034,
,,,,143,0,143,0,,,,,,,,,,,,,,,,,,,,,,,,1481.5043296013027,None,,,,,,,,,,,,,,,,,swift,new_sing,blue,143,110,320,1475.9080399014056,None,1475.9080399014056,None,4,4.5069837011396885,1475.9080399014056,None,1480.4683991000056,None,1480.9904943015426,None,1480.9904943015426,None,f,0.48042120039463043,1480.9904943015426,None,,,color29,001,2022_Mar_03_1550,ProdSingRedo,3.2.3,59.890711879669034,
,,,,144,0,144,0,,,,,,,,,,,,,,,,,,,,,,,,1484.8852456007153,None,,,,,,,,,,,,,,,,,junior,new_sing,blue,144,95,167,1482.0321580003947,None,1482.0321580003947,None,2,1.8386522997170687,1482.0321580003947,None,1483.9185661002994,None,1484.4260477013886,None,1484.4260477013886,None,n,0.4290129002183676,1484.4260477013886,None,,,color29,001,2022_Mar_03_1550,ProdSingRedo,3.2.3,59.890711879669034,
,,,,145,0,145,0,,,,,,,,,,,,,,,,,,,,,,,,1489.9440988004208,None,,,,,,,,,,,,,,,,,primary,aloud,yellow,145,30,234,1485.415539599955,None,1485.415539599955,None,2,3.7521604001522064,1485.415539599955,None,1489.2045657001436,None,1489.7141796015203,None,1489.7141796015203,None,n,0.204941900447011,1489.7141796015203,None,,,color29,001,2022_Mar_03_1550,ProdSingRedo,3.2.3,59.890711879669034,
,,,,146,0,146,0,,,,,,,,,,,,,,,,,,,,,,,,1493.2148312013596,None,,,,,,,,,,,,,,,,,empty,silent,red,146,70,112,1490.4688437003642,None,1490.4688437003642,None,4,1.0981366001069546,1490.4688437003642,None,1491.6041094008833,None,1492.1134093999863,None,1492.1134093999863,None,f,1.0775467995554209,1492.1134093999863,None,,,color29,001,2022_Mar_03_1550,ProdSingRedo,3.2.3,59.890711879669034,
,,,,147,0,147,0,,,,,,,,,,,,,,,,,,,,,,,,1496.5089973006397,None,,,,,,,,,,,,,,,,,poetry,aloud,yellow,147,35,225,1493.7397214006633,None,1493.7397214006633,None,6,1.6510687991976738,1493.7397214006633,None,1495.4241904001683,None,1495.9357863999903,None,1495.9357863999903,None,r,0.5427104011178017,1495.9357863999903,None,,,color29,001,2022_Mar_03_1550,ProdSingRedo,3.2.3,59.890711879669034,
,,,,148,0,148,0,,,,,,,,,,,,,,,,,,,,,,,,1501.3711653016508,None,,,,,,,,,,,,,,,,,smell,silent,red,148,64,291,1497.0191005002707,None,1497.0191005002707,None,4,3.6037558000534773,1497.0191005002707,None,1500.6617723014206,None,1501.1717473007739,None,1501.1717473007739,None,f,0.16317679919302464,1501.1717473007739,None,,,color29,001,2022_Mar_03_1550,ProdSingRedo,3.2.3,59.890711879669034,
,,,,149,0,149,0,,,,,,,,,,,,,,,,,,,,,,,,1505.4901480004191,None,,,,,,,,,,,,,,,,,production,new_sing,blue,149,119,240,1501.8990075010806,None,1501.8990075010806,None,4,2.763841500505805,1501.8990075010806,None,1504.713330000639,None,1505.2293875012547,None,1505.2293875012547,None,f,0.21745209954679012,1505.2293875012547,None,,,color29,001,2022_Mar_03_1550,ProdSingRedo,3.2.3,59.890711879669034,
,,,,150,0,150,0,,,,,,,,,,,,,,,,,,,,,,,,1510.6479256004095,None,,,,,,,,,,,,,,,,,watch,new_aloud,yellow,150,123,351,1506.0145826004446,None,1506.0145826004446,None,3,3.2566459998488426,1506.0145826004446,None,1509.3098232001066,None,1509.8169814012945,None,1509.8169814012945,None,f,0.7977772001177073,1509.8169814012945,None,,,color29,001,2022_Mar_03_1550,ProdSingRedo,3.2.3,59.890711879669034,
,,,,151,0,151,0,,,,,,,,,,,,,,,,,,,,,,,,1514.352634601295,None,,,,,,,,,,,,,,,,,mayor,aloud,yellow,151,46,183,1511.176665501669,None,1511.176665501669,None,6,2.3102131988853216,1511.176665501669,None,1513.530403200537,None,1514.036276999861,None,1514.036276999861,None,r,0.2826125994324684,1514.036276999861,None,,,color29,001,2022_Mar_03_1550,ProdSingRedo,3.2.3,59.890711879669034,
,,,,152,0,152,0,,,,,,,,,,,,,,,,,,,,,,,,1520.591066800058,None,,,,,,,,,,,,,,,,,front,silent,red,152,73,134,1514.8769810013473,None,1514.8769810013473,None,4,4.561903700232506,1514.8769810013473,None,1519.4931794013828,None,1520.013906000182,None,1520.013906000182,None,f,0.544963801279664,1520.013906000182,None,,,color29,001,2022_Mar_03_1550,ProdSingRedo,3.2.3,59.890711879669034,
,,,,153,0,153,0,,,,,,,,,,,,,,,,,,,,,,,,1523.7777795009315,None,,,,,,,,,,,,,,,,,height,new_sing,blue,153,115,152,1521.1156796012074,None,1521.1156796012074,None,4,1.7952111009508371,1521.1156796012074,None,1522.954776899889,None,1523.4642698001117,None,1523.4642698001117,None,f,0.28663660027086735,1523.4642698001117,None,,,color29,001,2022_Mar_03_1550,ProdSingRedo,3.2.3,59.890711879669034,
,,,,154,0,154,0,,,,,,,,,,,,,,,,,,,,,,,,1526.624190500006,None,,,,,,,,,,,,,,,,,brilliant,new_silent,red,154,171,30,1524.3053617011756,None,1524.3053617011756,None,2,1.5338046997785568,1524.3053617011756,None,1525.8832042999566,None,1526.3882669005543,None,1526.3882669005543,None,n,0.21824559941887856,1526.3882669005543,None,,,color29,001,2022_Mar_03_1550,ProdSingRedo,3.2.3,59.890711879669034,
,,,,155,0,155,0,,,,,,,,,,,,,,,,,,,,,,,,1530.0838437005877,None,,,,,,,,,,,,,,,,,passage,sing,blue,155,17,212,1527.1431869007647,None,1527.1431869007647,None,6,1.6876933984458447,1527.1431869007647,None,1528.8838169015944,None,1529.4067488014698,None,1529.4067488014698,None,r,0.6480197999626398,1529.4067488014698,None,,,color29,001,2022_Mar_03_1550,ProdSingRedo,3.2.3,59.890711879669034,
,,,,156,0,156,0,,,,,,,,,,,,,,,,,,,,,,,,1533.7082251999527,None,,,,,,,,,,,,,,,,,silence,aloud,yellow,156,36,288,1530.603895900771,None,1530.603895900771,None,4,1.5548697002232075,1530.603895900771,None,1532.1996180005372,None,1532.717651899904,None,1532.717651899904,None,f,0.953269699588418,1532.717651899904,None,,,color29,001,2022_Mar_03_1550,ProdSingRedo,3.2.3,59.890711879669034,
,,,,157,0,157,0,,,,,,,,,,,,,,,,,,,,,,,,1536.6408639010042,None,,,,,,,,,,,,,,,,,device,new_aloud,yellow,157,139,93,1534.2296826001257,None,1534.2296826001257,None,2,1.6411531008780003,1534.2296826001257,None,1535.9163931012154,None,1536.4272026009858,None,1536.4272026009858,None,n,0.17958449944853783,1536.4272026009858,None,,,color29,001,2022_Mar_03_1550,ProdSingRedo,3.2.3,59.890711879669034,
,,,,158,0,158,0,,,,,,,,,,,,,,,,,,,,,,,,1541.5790260005742,None,,,,,,,,,,,,,,,,,tough,new_aloud,yellow,158,124,333,1537.167437100783,None,1537.167437100783,None,4,3.559392500668764,1537.167437100783,None,1540.771272500977,None,1541.281300701201,None,1541.281300701201,None,f,0.26947280019521713,1541.281300701201,None,,,color29,001,2022_Mar_03_1550,ProdSingRedo,3.2.3,59.890711879669034,
,,,,159,0,159,0,,,,,,,,,,,,,,,,,,,,,,,,1546.0660621002316,None,,,,,,,,,,,,,,,,,detective,new_aloud,yellow,159,128,92,1542.1068007014692,None,1542.1068007014692,None,3,1.8600172996520996,1542.1068007014692,None,1544.0114027000964,None,1544.5182443000376,None,1544.5182443000376,None,n,1.512543000280857,1544.5182443000376,None,,,color29,001,2022_Mar_03_1550,ProdSingRedo,3.2.3,59.890711879669034,
,,,,160,0,160,0,,,,,,,,,,,,,,,,,,,,,,,,1549.0697060003877,None,,,,,,,,,,,,,,,,,present,aloud,yellow,160,55,231,1546.58701390028,None,1546.58701390028,None,4,1.5316933002322912,1546.58701390028,None,1548.1660802010447,None,1548.6860102005303,None,1548.6860102005303,None,f,0.3450061995536089,1548.6860102005303,None,,,color29,001,2022_Mar_03_1550,ProdSingRedo,3.2.3,59.890711879669034,
,,,,161,0,161,0,,,,,,,,,,,,,,,,,,,,,,,,1551.97405599989,None,,,,,,,,,,,,,,,,,fellow,aloud,yellow,161,56,126,1549.5966775007546,None,1549.5966775007546,None,2,1.6183723006397486,1549.5966775007546,None,1551.2544245012105,None,1551.7602142002434,None,1551.7602142002434,None,n,0.18267269991338253,1551.7602142002434,None,,,color29,001,2022_Mar_03_1550,ProdSingRedo,3.2.3,59.890711879669034,
,,,,162,0,162,0,,,,,,,,,,,,,,,,,,,,,,,,1558.8457310013473,None,,,,,,,,,,,,,,,,,charter,new_silent,red,162,174,47,1552.5005924012512,None,1552.5005924012512,None,2,5.394169799983501,1552.5005924012512,None,1557.945960700512,None,1558.4488983005285,None,1558.4488983005285,None,n,0.3739224001765251,1558.4488983005285,None,,,color29,001,2022_Mar_03_1550,ProdSingRedo,3.2.3,59.890711879669034,
,,,,163,0,163,0,,,,,,,,,,,,,,,,,,,,,,,,1563.767359500751,None,,,,,,,,,,,,,,,,,heavy,new_aloud,yellow,163,146,151,1559.3705970998853,None,1559.3705970998853,None,2,3.5322037991136312,1559.3705970998853,None,1562.9451207015663,None,1563.4548695012927,None,1563.4548695012927,None,n,0.2799053005874157,1563.4548695012927,None,,,color29,001,2022_Mar_03_1550,ProdSingRedo,3.2.3,59.890711879669034,
,,,,164,0,164,0,,,,,,,,,,,,,,,,,,,,,,,,1566.488930400461,None,,,,,,,,,,,,,,,,,machinery,new_silent,red,164,170,175,1564.296322800219,None,1564.296322800219,None,2,1.2465844992548227,1564.296322800219,None,1565.5824711006135,None,1566.0924724005163,None,1566.0924724005163,None,n,0.3706556987017393,1566.0924724005163,None,,,color29,001,2022_Mar_03_1550,ProdSingRedo,3.2.3,59.890711879669034,
,,,,165,0,165,0,,,,,,,,,,,,,,,,,,,,,,,,1570.1417200006545,None,,,,,,,,,,,,,,,,,plane,sing,blue,165,19,223,1567.012950900942,None,1567.012950900942,None,3,1.1937616001814604,1567.012950900942,None,1568.2419362012297,None,1568.7573415003717,None,1568.7573415003717,None,f,1.3534580003470182,1568.7573415003717,None,,,color29,001,2022_Mar_03_1550,ProdSingRedo,3.2.3,59.890711879669034,
,,,,166,0,166,0,,,,,,,,,,,,,,,,,,,,,,,,1575.8298428002745,None,,,,,,,,,,,,,,,,,management,new_silent,red,166,175,177,1570.6724206004292,None,1570.6724206004292,None,4,3.774285200983286,1570.6724206004292,None,1574.501490501687,None,1575.0060707014054,None,1575.0060707014054,None,f,0.7846533004194498,1575.0060707014054,None,,,color29,001,2022_Mar_03_1550,ProdSingRedo,3.2.3,59.890711879669034,
,,,,167,0,167,0,,,,,,,,,,,,,,,,,,,,,,,,1579.5666689015925,None,,,,,,,,,,,,,,,,,subject,aloud,yellow,167,52,312,1576.3578842002898,None,1576.3578842002898,None,3,1.7847969997674227,1576.3578842002898,None,1578.202150600031,None,1578.719283901155,None,1578.719283901155,None,f,0.8238899987190962,1578.719283901155,None,,,color29,001,2022_Mar_03_1550,ProdSingRedo,3.2.3,59.890711879669034,
,,,,168,0,168,0,,,,,,,,,,,,,,,,,,,,,,,,1591.4117223005742,None,,,,,,,,,,,,,,,,,department,new_aloud,yellow,168,126,90,1580.0934810005128,None,1580.0934810005128,None,4,8.30555840022862,1580.0934810005128,None,1588.4406321998686,None,1588.9711716007441,None,1588.9711716007441,None,n,2.4116041995584965,1588.9711716007441,None,,,color29,001,2022_Mar_03_1550,ProdSingRedo,3.2.3,59.890711879669034,
,,,,169,0,169,0,,,,,,,,,,,,,,,,,,,,,,,,1595.3315549008548,None,,,,,,,,,,,,,,,,,capital,aloud,yellow,169,39,40,1591.9397855009884,None,1591.9397855009884,None,4,2.5789340995252132,1591.9397855009884,None,1594.5615557003766,None,1595.0886507015675,None,1595.0886507015675,None,f,0.20598109997808933,1595.0886507015675,None,,,color29,001,2022_Mar_03_1550,ProdSingRedo,3.2.3,59.890711879669034,
,,,,170,0,170,0,,,,,,,,,,,,,,,,,,,,,,,,1598.4864441007376,None,,,,,,,,,,,,,,,,,welcome,silent,red,170,83,354,1595.856122000143,None,1595.856122000143,None,4,1.8305516988039017,1595.856122000143,None,1597.7334332000464,None,1598.2382001001388,None,1598.2382001001388,None,f,0.21652689948678017,1598.2382001001388,None,,,color29,001,2022_Mar_03_1550,ProdSingRedo,3.2.3,59.890711879669034,
,,,,171,0,171,0,,,,,,,,,,,,,,,,,,,,,,,,1602.2237209007144,None,,,,,,,,,,,,,,,,,month,aloud,yellow,171,32,193,1599.009651100263,None,1599.009651100263,None,5,2.157057300209999,1599.009651100263,None,1601.2180360015482,None,1601.7437075003982,None,1601.7437075003982,None,f,0.4470154009759426,1601.7437075003982,None,,,color29,001,2022_Mar_03_1550,ProdSingRedo,3.2.3,59.890711879669034,
,,,,172,0,172,0,,,,,,,,,,,,,,,,,,,,,,,,1605.8102059010416,None,,,,,,,,,,,,,,,,,colonel,new_silent,red,172,157,55,1602.7466480005533,None,1602.7466480005533,None,2,2.171848099678755,1602.7466480005533,None,1604.9430086016655,None,1605.4524111002684,None,1605.4524111002684,None,n,0.3225177004933357,1605.4524111002684,None,,,color29,001,2022_Mar_03_1550,ProdSingRedo,3.2.3,59.890711879669034,
,,,,173,0,173,0,,,,,,,,,,,,,,,,,,,,,,,,1609.1203693002462,None,,,,,,,,,,,,,,,,,judge,new_sing,blue,173,103,166,1606.3400028012693,None,1606.3400028012693,None,3,1.4267816003412008,1606.3400028012693,None,1607.8139994014055,None,1608.3314310014248,None,1608.3314310014248,None,f,0.7550515998154879,1608.3314310014248,None,,,color29,001,2022_Mar_03_1550,ProdSingRedo,3.2.3,59.890711879669034,
,,,,174,0,174,0,,,,,,,,,,,,,,,,,,,,,,,,1611.5889252014458,None,,,,,,,,,,,,,,,,,opening,aloud,yellow,174,54,205,1609.6355284005404,None,1609.6355284005404,None,2,1.0831493996083736,1609.6355284005404,None,1610.7606814000756,None,1611.2663133013994,None,1611.2663133013994,None,n,0.292178001254797,1611.2663133013994,None,,,color29,001,2022_Mar_03_1550,ProdSingRedo,3.2.3,59.890711879669034,
,,,,175,0,175,0,,,,,,,,,,,,,,,,,,,,,,,,1614.8009453006089,None,,,,,,,,,,,,,,,,,clean,sing,blue,175,12,51,1612.106430100277,None,1612.106430100277,None,4,1.844173401594162,1612.106430100277,None,1613.9979552011937,None,1614.5028913002461,None,1614.5028913002461,None,f,0.26376429945230484,1614.5028913002461,None,,,color29,001,2022_Mar_03_1550,ProdSingRedo,3.2.3,59.890711879669034,
,,,,176,0,176,0,,,,,,,,,,,,,,,,,,,,,,,,1617.821248801425,None,,,,,,,,,,,,,,,,,period,new_silent,red,176,161,217,1615.3231401015073,None,1615.3231401015073,None,2,1.6672690007835627,1615.3231401015073,None,1617.0164111014456,None,1617.5347257014364,None,1617.5347257014364,None,n,0.25584059953689575,1617.5347257014364,None,,,color29,001,2022_Mar_03_1550,ProdSingRedo,3.2.3,59.890711879669034,
,,,,177,0,177,0,,,,,,,,,,,,,,,,,,,,,,,,1620.5957155004144,None,,,,,,,,,,,,,,,,,guard,sing,blue,177,9,145,1618.3436122015119,None,1618.3436122015119,None,4,1.4230094011873007,1618.3436122015119,None,1619.8035455010831,None,1620.3088813014328,None,1620.3088813014328,None,f,0.25821170024573803,1620.3088813014328,None,,,color29,001,2022_Mar_03_1550,ProdSingRedo,3.2.3,59.890711879669034,
,,,,178,0,178,0,,,,,,,,,,,,,,,,,,,,,,,,1628.031864900142,None,,,,,,,,,,,,,,,,,public,silent,red,178,61,244,1621.123227801174,None,1621.123227801174,None,3,5.819401100277901,1621.123227801174,None,1626.9999512005597,None,1627.5188400000334,None,1627.5188400000334,None,n,0.47976419888436794,1627.5188400000334,None,,,color29,001,2022_Mar_03_1550,ProdSingRedo,3.2.3,59.890711879669034,
,,,,179,0,179,0,,,,,,,,,,,,,,,,,,,,,,,,1632.2353459000587,None,,,,,,,,,,,,,,,,,shape,new_silent,red,179,173,282,1628.5587642006576,None,1628.5587642006576,None,3,2.8318045008927584,1628.5587642006576,None,1631.4304696004838,None,1631.9394755009562,None,1631.9394755009562,None,f,0.25930440053343773,1631.9394755009562,None,,,color29,001,2022_Mar_03_1550,ProdSingRedo,3.2.3,59.890711879669034,
,,,,,,,,,,,,,,,,,,,,,,,,,,,,,,,,,,,,,,,,,,,,,,,,,,,,,,,,,,,,,,,,,,,,,,,,,1632.7479663006961,None,,,,,,,
