StudyLoop.thisRepN,StudyLoop.thisTrialN,StudyLoop.thisN,StudyLoop.thisIndex,TestLoop.thisRepN,TestLoop.thisTrialN,TestLoop.thisN,TestLoop.thisIndex,textCondition.started,textCondition.stopped,keyCondition.keys,keyCondition.rt,keyCondition.started,keyCondition.stopped,Condition,stim_colors,color_sing,color_aloud,color_silent,textWelcome.started,textWelcome.stopped,keyWelcome.keys,keyWelcome.rt,keyWelcome.started,keyWelcome.stopped,textAloud.started,textAloud.stopped,textSilent.started,textSilent.stopped,textSing.started,textSing.stopped,textBlank500.started,textBlank500.stopped,study_word,study_type,study_color,study_num,study_word_num,textStudy.started,textStudy.stopped,keyStudy.keys,keyStudy.started,keyStudy.stopped,textTestInstructions.started,textTestInstructions.stopped,key_resp_3.keys,key_resp_3.rt,key_resp_3.started,key_resp_3.stopped,testWord,testType,testColor,testN,test_num,test_word_num,textConf.started,textConf.stopped,textConfScale.started,textConfScale.stopped,keyConf.keys,keyConf.rt,keyConf.started,keyConf.stopped,textTestBlank.started,textTestBlank.stopped,textRKN.started,textRKN.stopped,textRKNScale.started,textRKNScale.stopped,keyRKN.keys,keyRKN.rt,keyRKN.started,keyRKN.stopped,textEnd.started,textEnd.stopped,participant,session,date,expName,psychopyVersion,frameRate
,,,,,,,,17.80434781,None,y,0.928599463,17.80434781,None,,,,,,,,,,,,,,,,,,,,,,,,,,,,,,,,,,,,,,,,,,,,,,,,,,,,,,,,,,,,,,color10,1,2019_Dec_04_1238,ProdSingRedo,3.2.4,59.93632459
,,,,,,,,,,,,,,ColoredTest,"['yellow', 'red', 'blue']",yellow,red,blue,18.7989625,None,space,3432.348525,18.7989625,None,,,,,,,,,,,,,,,,,,,,,,,,,,,,,,,,,,,,,,,,,,,,,,,,,,,color10,1,2019_Dec_04_1238,ProdSingRedo,3.2.4,59.93632459
0,0,0,0,,,,,,,,,,,,,,,,,,,,,,18.7989625,None,18.7989625,None,18.7989625,None,3453.685467,None,curve,aloud,red,50,82,3451.691716,None,None,3451.691716,None,,,,,,,,,,,,,,,,,,,,,,,,,,,,,,,,,color10,1,2019_Dec_04_1238,ProdSingRedo,3.2.4,59.93632459
1,0,1,0,,,,,,,,,,,,,,,,,,,,,,,,,,,,3456.202875,None,waste,sing,yellow,6,350,3454.202244,None,None,3454.202244,None,,,,,,,,,,,,,,,,,,,,,,,,,,,,,,,,,color10,1,2019_Dec_04_1238,ProdSingRedo,3.2.4,59.93632459
2,0,2,0,,,,,,,,,,,,,,,,,,,,,,,,,,,,3458.720353,None,generation,aloud,red,59,136,3456.719682,None,None,3456.719682,None,,,,,,,,,,,,,,,,,,,,,,,,,,,,,,,,,color10,1,2019_Dec_04_1238,ProdSingRedo,3.2.4,59.93632459
3,0,3,0,,,,,,,,,,,,,,,,,,,,,,,,,,,,3461.237758,None,frank,sing,yellow,0,133,3459.237189,None,None,3459.237189,None,,,,,,,,,,,,,,,,,,,,,,,,,,,,,,,,,color10,1,2019_Dec_04_1238,ProdSingRedo,3.2.4,59.93632459
4,0,4,0,,,,,,,,,,,,,,,,,,,,,,,,,,,,3463.755222,None,throw,sing,yellow,2,330,3461.754533,None,None,3461.754533,None,,,,,,,,,,,,,,,,,,,,,,,,,,,,,,,,,color10,1,2019_Dec_04_1238,ProdSingRedo,3.2.4,59.93632459
5,0,5,0,,,,,,,,,,,,,,,,,,,,,,,,,,,,3466.272655,None,grade,aloud,red,38,140,3464.272028,None,None,3464.272028,None,,,,,,,,,,,,,,,,,,,,,,,,,,,,,,,,,color10,1,2019_Dec_04_1238,ProdSingRedo,3.2.4,59.93632459
6,0,6,0,,,,,,,,,,,,,,,,,,,,,,,,,,,,3468.79008,None,corner,aloud,red,54,69,3466.789402,None,None,3466.789402,None,,,,,,,,,,,,,,,,,,,,,,,,,,,,,,,,,color10,1,2019_Dec_04_1238,ProdSingRedo,3.2.4,59.93632459
7,0,7,0,,,,,,,,,,,,,,,,,,,,,,,,,,,,3471.307512,None,travel,sing,yellow,1,338,3469.306715,None,None,3469.306715,None,,,,,,,,,,,,,,,,,,,,,,,,,,,,,,,,,color10,1,2019_Dec_04_1238,ProdSingRedo,3.2.4,59.93632459
8,0,8,0,,,,,,,,,,,,,,,,,,,,,,,,,,,,3473.824955,None,attack,silent,blue,78,13,3471.824143,None,None,3471.824143,None,,,,,,,,,,,,,,,,,,,,,,,,,,,,,,,,,color10,1,2019_Dec_04_1238,ProdSingRedo,3.2.4,59.93632459
9,0,9,0,,,,,,,,,,,,,,,,,,,,,,,,,,,,3476.342382,None,executive,aloud,red,36,122,3474.341592,None,None,3474.341592,None,,,,,,,,,,,,,,,,,,,,,,,,,,,,,,,,,color10,1,2019_Dec_04_1238,ProdSingRedo,3.2.4,59.93632459
10,0,10,0,,,,,,,,,,,,,,,,,,,,,,,,,,,,3478.859839,None,victory,aloud,red,43,346,3476.86104,None,None,3476.86104,None,,,,,,,,,,,,,,,,,,,,,,,,,,,,,,,,,color10,1,2019_Dec_04_1238,ProdSingRedo,3.2.4,59.93632459
11,0,11,0,,,,,,,,,,,,,,,,,,,,,,,,,,,,3481.377271,None,junior,aloud,red,45,167,3479.378245,None,None,3479.378245,None,,,,,,,,,,,,,,,,,,,,,,,,,,,,,,,,,color10,1,2019_Dec_04_1238,ProdSingRedo,3.2.4,59.93632459
12,0,12,0,,,,,,,,,,,,,,,,,,,,,,,,,,,,3483.894709,None,escape,aloud,red,39,118,3481.894078,None,None,3481.894078,None,,,,,,,,,,,,,,,,,,,,,,,,,,,,,,,,,color10,1,2019_Dec_04_1238,ProdSingRedo,3.2.4,59.93632459
13,0,13,0,,,,,,,,,,,,,,,,,,,,,,,,,,,,3486.412159,None,childhood,aloud,red,55,49,3484.411507,None,None,3484.411507,None,,,,,,,,,,,,,,,,,,,,,,,,,,,,,,,,,color10,1,2019_Dec_04_1238,ProdSingRedo,3.2.4,59.93632459
14,0,14,0,,,,,,,,,,,,,,,,,,,,,,,,,,,,3488.929589,None,sunset,sing,yellow,21,315,3486.928938,None,None,3486.928938,None,,,,,,,,,,,,,,,,,,,,,,,,,,,,,,,,,color10,1,2019_Dec_04_1238,ProdSingRedo,3.2.4,59.93632459
15,0,15,0,,,,,,,,,,,,,,,,,,,,,,,,,,,,3491.447036,None,government,silent,blue,83,139,3489.447024,None,None,3489.447024,None,,,,,,,,,,,,,,,,,,,,,,,,,,,,,,,,,color10,1,2019_Dec_04_1238,ProdSingRedo,3.2.4,59.93632459
16,0,16,0,,,,,,,,,,,,,,,,,,,,,,,,,,,,3493.964452,None,angle,silent,blue,86,7,3491.963808,None,None,3491.963808,None,,,,,,,,,,,,,,,,,,,,,,,,,,,,,,,,,color10,1,2019_Dec_04_1238,ProdSingRedo,3.2.4,59.93632459
17,0,17,0,,,,,,,,,,,,,,,,,,,,,,,,,,,,3496.481905,None,leader,silent,blue,75,168,3494.481217,None,None,3494.481217,None,,,,,,,,,,,,,,,,,,,,,,,,,,,,,,,,,color10,1,2019_Dec_04_1238,ProdSingRedo,3.2.4,59.93632459
18,0,18,0,,,,,,,,,,,,,,,,,,,,,,,,,,,,3498.999324,None,mechanical,silent,blue,73,185,3496.998745,None,None,3496.998745,None,,,,,,,,,,,,,,,,,,,,,,,,,,,,,,,,,color10,1,2019_Dec_04_1238,ProdSingRedo,3.2.4,59.93632459
19,0,19,0,,,,,,,,,,,,,,,,,,,,,,,,,,,,3501.516788,None,hearing,sing,yellow,14,150,3499.516129,None,None,3499.516129,None,,,,,,,,,,,,,,,,,,,,,,,,,,,,,,,,,color10,1,2019_Dec_04_1238,ProdSingRedo,3.2.4,59.93632459
20,0,20,0,,,,,,,,,,,,,,,,,,,,,,,,,,,,3504.034178,None,phrase,sing,yellow,29,220,3502.033563,None,None,3502.033563,None,,,,,,,,,,,,,,,,,,,,,,,,,,,,,,,,,color10,1,2019_Dec_04_1238,ProdSingRedo,3.2.4,59.93632459
21,0,21,0,,,,,,,,,,,,,,,,,,,,,,,,,,,,3506.551657,None,power,sing,yellow,4,230,3504.551017,None,None,3504.551017,None,,,,,,,,,,,,,,,,,,,,,,,,,,,,,,,,,color10,1,2019_Dec_04_1238,ProdSingRedo,3.2.4,59.93632459
22,0,22,0,,,,,,,,,,,,,,,,,,,,,,,,,,,,3509.069103,None,character,aloud,red,33,46,3507.06829,None,None,3507.06829,None,,,,,,,,,,,,,,,,,,,,,,,,,,,,,,,,,color10,1,2019_Dec_04_1238,ProdSingRedo,3.2.4,59.93632459
23,0,23,0,,,,,,,,,,,,,,,,,,,,,,,,,,,,3511.586518,None,sight,aloud,red,56,286,3509.585772,None,None,3509.585772,None,,,,,,,,,,,,,,,,,,,,,,,,,,,,,,,,,color10,1,2019_Dec_04_1238,ProdSingRedo,3.2.4,59.93632459
24,0,24,0,,,,,,,,,,,,,,,,,,,,,,,,,,,,3514.103987,None,industry,silent,blue,79,161,3512.103185,None,None,3512.103185,None,,,,,,,,,,,,,,,,,,,,,,,,,,,,,,,,,color10,1,2019_Dec_04_1238,ProdSingRedo,3.2.4,59.93632459
25,0,25,0,,,,,,,,,,,,,,,,,,,,,,,,,,,,3516.621413,None,salary,silent,blue,67,271,3514.620759,None,None,3514.620759,None,,,,,,,,,,,,,,,,,,,,,,,,,,,,,,,,,color10,1,2019_Dec_04_1238,ProdSingRedo,3.2.4,59.93632459
26,0,26,0,,,,,,,,,,,,,,,,,,,,,,,,,,,,3519.138859,None,guest,sing,yellow,13,146,3517.138161,None,None,3517.138161,None,,,,,,,,,,,,,,,,,,,,,,,,,,,,,,,,,color10,1,2019_Dec_04_1238,ProdSingRedo,3.2.4,59.93632459
27,0,27,0,,,,,,,,,,,,,,,,,,,,,,,,,,,,3521.656284,None,majority,aloud,red,42,176,3519.655807,None,None,3519.655807,None,,,,,,,,,,,,,,,,,,,,,,,,,,,,,,,,,color10,1,2019_Dec_04_1238,ProdSingRedo,3.2.4,59.93632459
28,0,28,0,,,,,,,,,,,,,,,,,,,,,,,,,,,,3524.173759,None,territory,silent,blue,62,324,3522.173057,None,None,3522.173057,None,,,,,,,,,,,,,,,,,,,,,,,,,,,,,,,,,color10,1,2019_Dec_04_1238,ProdSingRedo,3.2.4,59.93632459
29,0,29,0,,,,,,,,,,,,,,,,,,,,,,,,,,,,3526.69115,None,company,aloud,red,57,64,3524.690489,None,None,3524.690489,None,,,,,,,,,,,,,,,,,,,,,,,,,,,,,,,,,color10,1,2019_Dec_04_1238,ProdSingRedo,3.2.4,59.93632459
30,0,30,0,,,,,,,,,,,,,,,,,,,,,,,,,,,,3529.208602,None,region,silent,blue,64,256,3527.207957,None,None,3527.207957,None,,,,,,,,,,,,,,,,,,,,,,,,,,,,,,,,,color10,1,2019_Dec_04_1238,ProdSingRedo,3.2.4,59.93632459
31,0,31,0,,,,,,,,,,,,,,,,,,,,,,,,,,,,3531.726039,None,exchange,sing,yellow,3,121,3529.725391,None,None,3529.725391,None,,,,,,,,,,,,,,,,,,,,,,,,,,,,,,,,,color10,1,2019_Dec_04_1238,ProdSingRedo,3.2.4,59.93632459
32,0,32,0,,,,,,,,,,,,,,,,,,,,,,,,,,,,3534.243466,None,couch,aloud,red,52,70,3532.242842,None,None,3532.242842,None,,,,,,,,,,,,,,,,,,,,,,,,,,,,,,,,,color10,1,2019_Dec_04_1238,ProdSingRedo,3.2.4,59.93632459
33,0,33,0,,,,,,,,,,,,,,,,,,,,,,,,,,,,3536.760945,None,running,sing,yellow,8,268,3534.760259,None,None,3534.760259,None,,,,,,,,,,,,,,,,,,,,,,,,,,,,,,,,,color10,1,2019_Dec_04_1238,ProdSingRedo,3.2.4,59.93632459
34,0,34,0,,,,,,,,,,,,,,,,,,,,,,,,,,,,3539.278366,None,population,silent,blue,89,227,3537.277555,None,None,3537.277555,None,,,,,,,,,,,,,,,,,,,,,,,,,,,,,,,,,color10,1,2019_Dec_04_1238,ProdSingRedo,3.2.4,59.93632459
35,0,35,0,,,,,,,,,,,,,,,,,,,,,,,,,,,,3541.795809,None,surface,sing,yellow,10,316,3539.795123,None,None,3539.795123,None,,,,,,,,,,,,,,,,,,,,,,,,,,,,,,,,,color10,1,2019_Dec_04_1238,ProdSingRedo,3.2.4,59.93632459
36,0,36,0,,,,,,,,,,,,,,,,,,,,,,,,,,,,3544.313243,None,taste,silent,blue,88,322,3542.312575,None,None,3542.312575,None,,,,,,,,,,,,,,,,,,,,,,,,,,,,,,,,,color10,1,2019_Dec_04_1238,ProdSingRedo,3.2.4,59.93632459
37,0,37,0,,,,,,,,,,,,,,,,,,,,,,,,,,,,3546.830673,None,breath,aloud,red,41,27,3544.832834,None,None,3544.832834,None,,,,,,,,,,,,,,,,,,,,,,,,,,,,,,,,,color10,1,2019_Dec_04_1238,ProdSingRedo,3.2.4,59.93632459
38,0,38,0,,,,,,,,,,,,,,,,,,,,,,,,,,,,3549.348101,None,defeat,aloud,red,30,88,3547.347461,None,None,3547.347461,None,,,,,,,,,,,,,,,,,,,,,,,,,,,,,,,,,color10,1,2019_Dec_04_1238,ProdSingRedo,3.2.4,59.93632459
39,0,39,0,,,,,,,,,,,,,,,,,,,,,,,,,,,,3551.865546,None,drove,silent,blue,69,106,3549.864902,None,None,3549.864902,None,,,,,,,,,,,,,,,,,,,,,,,,,,,,,,,,,color10,1,2019_Dec_04_1238,ProdSingRedo,3.2.4,59.93632459
40,0,40,0,,,,,,,,,,,,,,,,,,,,,,,,,,,,3554.382939,None,worker,sing,yellow,16,356,3552.382329,None,None,3552.382329,None,,,,,,,,,,,,,,,,,,,,,,,,,,,,,,,,,color10,1,2019_Dec_04_1238,ProdSingRedo,3.2.4,59.93632459
41,0,41,0,,,,,,,,,,,,,,,,,,,,,,,,,,,,3556.90043,None,empty,sing,yellow,20,112,3554.899792,None,None,3554.899792,None,,,,,,,,,,,,,,,,,,,,,,,,,,,,,,,,,color10,1,2019_Dec_04_1238,ProdSingRedo,3.2.4,59.93632459
42,0,42,0,,,,,,,,,,,,,,,,,,,,,,,,,,,,3559.417872,None,capital,aloud,red,40,40,3557.417224,None,None,3557.417224,None,,,,,,,,,,,,,,,,,,,,,,,,,,,,,,,,,color10,1,2019_Dec_04_1238,ProdSingRedo,3.2.4,59.93632459
43,0,43,0,,,,,,,,,,,,,,,,,,,,,,,,,,,,3561.935289,None,thick,aloud,red,35,327,3559.93466,None,None,3559.93466,None,,,,,,,,,,,,,,,,,,,,,,,,,,,,,,,,,color10,1,2019_Dec_04_1238,ProdSingRedo,3.2.4,59.93632459
44,0,44,0,,,,,,,,,,,,,,,,,,,,,,,,,,,,3564.452755,None,express,sing,yellow,5,124,3562.452072,None,None,3562.452072,None,,,,,,,,,,,,,,,,,,,,,,,,,,,,,,,,,color10,1,2019_Dec_04_1238,ProdSingRedo,3.2.4,59.93632459
45,0,45,0,,,,,,,,,,,,,,,,,,,,,,,,,,,,3566.970178,None,judge,sing,yellow,23,166,3564.969367,None,None,3564.969367,None,,,,,,,,,,,,,,,,,,,,,,,,,,,,,,,,,color10,1,2019_Dec_04_1238,ProdSingRedo,3.2.4,59.93632459
46,0,46,0,,,,,,,,,,,,,,,,,,,,,,,,,,,,3569.487628,None,religion,silent,blue,82,258,3567.48681,None,None,3567.48681,None,,,,,,,,,,,,,,,,,,,,,,,,,,,,,,,,,color10,1,2019_Dec_04_1238,ProdSingRedo,3.2.4,59.93632459
47,0,47,0,,,,,,,,,,,,,,,,,,,,,,,,,,,,3572.005045,None,opening,silent,blue,63,205,3570.00427,None,None,3570.00427,None,,,,,,,,,,,,,,,,,,,,,,,,,,,,,,,,,color10,1,2019_Dec_04_1238,ProdSingRedo,3.2.4,59.93632459
48,0,48,0,,,,,,,,,,,,,,,,,,,,,,,,,,,,3574.522493,None,comfort,silent,blue,71,59,3572.521821,None,None,3572.521821,None,,,,,,,,,,,,,,,,,,,,,,,,,,,,,,,,,color10,1,2019_Dec_04_1238,ProdSingRedo,3.2.4,59.93632459
49,0,49,0,,,,,,,,,,,,,,,,,,,,,,,,,,,,3577.039901,None,series,sing,yellow,12,279,3575.039281,None,None,3575.039281,None,,,,,,,,,,,,,,,,,,,,,,,,,,,,,,,,,color10,1,2019_Dec_04_1238,ProdSingRedo,3.2.4,59.93632459
50,0,50,0,,,,,,,,,,,,,,,,,,,,,,,,,,,,3579.557359,None,engineer,silent,blue,74,114,3577.556723,None,None,3577.556723,None,,,,,,,,,,,,,,,,,,,,,,,,,,,,,,,,,color10,1,2019_Dec_04_1238,ProdSingRedo,3.2.4,59.93632459
51,0,51,0,,,,,,,,,,,,,,,,,,,,,,,,,,,,3582.074825,None,damage,silent,blue,84,83,3580.074164,None,None,3580.074164,None,,,,,,,,,,,,,,,,,,,,,,,,,,,,,,,,,color10,1,2019_Dec_04_1238,ProdSingRedo,3.2.4,59.93632459
52,0,52,0,,,,,,,,,,,,,,,,,,,,,,,,,,,,3584.592238,None,working,silent,blue,77,357,3582.591596,None,None,3582.591596,None,,,,,,,,,,,,,,,,,,,,,,,,,,,,,,,,,color10,1,2019_Dec_04_1238,ProdSingRedo,3.2.4,59.93632459
53,0,53,0,,,,,,,,,,,,,,,,,,,,,,,,,,,,3587.1097,None,health,sing,yellow,26,149,3585.109041,None,None,3585.109041,None,,,,,,,,,,,,,,,,,,,,,,,,,,,,,,,,,color10,1,2019_Dec_04_1238,ProdSingRedo,3.2.4,59.93632459
54,0,54,0,,,,,,,,,,,,,,,,,,,,,,,,,,,,3589.627133,None,ground,sing,yellow,11,142,3587.626507,None,None,3587.626507,None,,,,,,,,,,,,,,,,,,,,,,,,,,,,,,,,,color10,1,2019_Dec_04_1238,ProdSingRedo,3.2.4,59.93632459
55,0,55,0,,,,,,,,,,,,,,,,,,,,,,,,,,,,3592.144562,None,rapid,sing,yellow,19,252,3590.143897,None,None,3590.143897,None,,,,,,,,,,,,,,,,,,,,,,,,,,,,,,,,,color10,1,2019_Dec_04_1238,ProdSingRedo,3.2.4,59.93632459
56,0,56,0,,,,,,,,,,,,,,,,,,,,,,,,,,,,3594.662,None,story,sing,yellow,25,306,3592.661262,None,None,3592.661262,None,,,,,,,,,,,,,,,,,,,,,,,,,,,,,,,,,color10,1,2019_Dec_04_1238,ProdSingRedo,3.2.4,59.93632459
57,0,57,0,,,,,,,,,,,,,,,,,,,,,,,,,,,,3597.179438,None,material,sing,yellow,17,182,3595.178634,None,None,3595.178634,None,,,,,,,,,,,,,,,,,,,,,,,,,,,,,,,,,color10,1,2019_Dec_04_1238,ProdSingRedo,3.2.4,59.93632459
58,0,58,0,,,,,,,,,,,,,,,,,,,,,,,,,,,,3599.696859,None,addition,aloud,red,47,2,3597.696081,None,None,3597.696081,None,,,,,,,,,,,,,,,,,,,,,,,,,,,,,,,,,color10,1,2019_Dec_04_1238,ProdSingRedo,3.2.4,59.93632459
59,0,59,0,,,,,,,,,,,,,,,,,,,,,,,,,,,,3602.214313,None,scale,silent,blue,68,272,3600.213675,None,None,3600.213675,None,,,,,,,,,,,,,,,,,,,,,,,,,,,,,,,,,color10,1,2019_Dec_04_1238,ProdSingRedo,3.2.4,59.93632459
60,0,60,0,,,,,,,,,,,,,,,,,,,,,,,,,,,,3604.731715,None,problem,silent,blue,70,238,3602.730928,None,None,3602.730928,None,,,,,,,,,,,,,,,,,,,,,,,,,,,,,,,,,color10,1,2019_Dec_04_1238,ProdSingRedo,3.2.4,59.93632459
61,0,61,0,,,,,,,,,,,,,,,,,,,,,,,,,,,,3607.249199,None,election,silent,blue,85,109,3605.248548,None,None,3605.248548,None,,,,,,,,,,,,,,,,,,,,,,,,,,,,,,,,,color10,1,2019_Dec_04_1238,ProdSingRedo,3.2.4,59.93632459
62,0,62,0,,,,,,,,,,,,,,,,,,,,,,,,,,,,3609.766642,None,weight,aloud,red,31,353,3607.765978,None,None,3607.765978,None,,,,,,,,,,,,,,,,,,,,,,,,,,,,,,,,,color10,1,2019_Dec_04_1238,ProdSingRedo,3.2.4,59.93632459
63,0,63,0,,,,,,,,,,,,,,,,,,,,,,,,,,,,3612.284053,None,evidence,silent,blue,81,120,3610.283411,None,None,3610.283411,None,,,,,,,,,,,,,,,,,,,,,,,,,,,,,,,,,color10,1,2019_Dec_04_1238,ProdSingRedo,3.2.4,59.93632459
64,0,64,0,,,,,,,,,,,,,,,,,,,,,,,,,,,,3614.801531,None,clear,aloud,red,37,52,3612.800856,None,None,3612.800856,None,,,,,,,,,,,,,,,,,,,,,,,,,,,,,,,,,color10,1,2019_Dec_04_1238,ProdSingRedo,3.2.4,59.93632459
65,0,65,0,,,,,,,,,,,,,,,,,,,,,,,,,,,,3617.318971,None,universal,aloud,red,44,345,3615.318385,None,None,3615.318385,None,,,,,,,,,,,,,,,,,,,,,,,,,,,,,,,,,color10,1,2019_Dec_04_1238,ProdSingRedo,3.2.4,59.93632459
66,0,66,0,,,,,,,,,,,,,,,,,,,,,,,,,,,,3619.836398,None,medicine,sing,yellow,18,186,3617.835716,None,None,3617.835716,None,,,,,,,,,,,,,,,,,,,,,,,,,,,,,,,,,color10,1,2019_Dec_04_1238,ProdSingRedo,3.2.4,59.93632459
67,0,67,0,,,,,,,,,,,,,,,,,,,,,,,,,,,,3622.35382,None,private,aloud,red,51,237,3620.353167,None,None,3620.353167,None,,,,,,,,,,,,,,,,,,,,,,,,,,,,,,,,,color10,1,2019_Dec_04_1238,ProdSingRedo,3.2.4,59.93632459
68,0,68,0,,,,,,,,,,,,,,,,,,,,,,,,,,,,3624.871269,None,personnel,silent,blue,72,219,3622.870594,None,None,3622.870594,None,,,,,,,,,,,,,,,,,,,,,,,,,,,,,,,,,color10,1,2019_Dec_04_1238,ProdSingRedo,3.2.4,59.93632459
69,0,69,0,,,,,,,,,,,,,,,,,,,,,,,,,,,,3627.388675,None,household,sing,yellow,28,154,3625.388041,None,None,3625.388041,None,,,,,,,,,,,,,,,,,,,,,,,,,,,,,,,,,color10,1,2019_Dec_04_1238,ProdSingRedo,3.2.4,59.93632459
70,0,70,0,,,,,,,,,,,,,,,,,,,,,,,,,,,,3629.906153,None,people,silent,blue,60,216,3627.905491,None,None,3627.905491,None,,,,,,,,,,,,,,,,,,,,,,,,,,,,,,,,,color10,1,2019_Dec_04_1238,ProdSingRedo,3.2.4,59.93632459
71,0,71,0,,,,,,,,,,,,,,,,,,,,,,,,,,,,3632.423572,None,provision,aloud,red,46,243,3630.422763,None,None,3630.422763,None,,,,,,,,,,,,,,,,,,,,,,,,,,,,,,,,,color10,1,2019_Dec_04_1238,ProdSingRedo,3.2.4,59.93632459
72,0,72,0,,,,,,,,,,,,,,,,,,,,,,,,,,,,3634.941029,None,plane,aloud,red,53,223,3632.940239,None,None,3632.940239,None,,,,,,,,,,,,,,,,,,,,,,,,,,,,,,,,,color10,1,2019_Dec_04_1238,ProdSingRedo,3.2.4,59.93632459
73,0,73,0,,,,,,,,,,,,,,,,,,,,,,,,,,,,3637.458467,None,carry,silent,blue,66,43,3635.45764,None,None,3635.45764,None,,,,,,,,,,,,,,,,,,,,,,,,,,,,,,,,,color10,1,2019_Dec_04_1238,ProdSingRedo,3.2.4,59.93632459
74,0,74,0,,,,,,,,,,,,,,,,,,,,,,,,,,,,3639.975883,None,tough,silent,blue,61,333,3637.975247,None,None,3637.975247,None,,,,,,,,,,,,,,,,,,,,,,,,,,,,,,,,,color10,1,2019_Dec_04_1238,ProdSingRedo,3.2.4,59.93632459
75,0,75,0,,,,,,,,,,,,,,,,,,,,,,,,,,,,3642.49334,None,block,aloud,red,32,25,3640.492663,None,None,3640.492663,None,,,,,,,,,,,,,,,,,,,,,,,,,,,,,,,,,color10,1,2019_Dec_04_1238,ProdSingRedo,3.2.4,59.93632459
76,0,76,0,,,,,,,,,,,,,,,,,,,,,,,,,,,,3645.010764,None,crime,aloud,red,34,78,3643.010109,None,None,3643.010109,None,,,,,,,,,,,,,,,,,,,,,,,,,,,,,,,,,color10,1,2019_Dec_04_1238,ProdSingRedo,3.2.4,59.93632459
77,0,77,0,,,,,,,,,,,,,,,,,,,,,,,,,,,,3647.52819,None,council,aloud,red,48,71,3645.527528,None,None,3645.527528,None,,,,,,,,,,,,,,,,,,,,,,,,,,,,,,,,,color10,1,2019_Dec_04_1238,ProdSingRedo,3.2.4,59.93632459
78,0,78,0,,,,,,,,,,,,,,,,,,,,,,,,,,,,3650.045629,None,still,sing,yellow,22,304,3648.045011,None,None,3648.045011,None,,,,,,,,,,,,,,,,,,,,,,,,,,,,,,,,,color10,1,2019_Dec_04_1238,ProdSingRedo,3.2.4,59.93632459
79,0,79,0,,,,,,,,,,,,,,,,,,,,,,,,,,,,3652.563089,None,second,silent,blue,76,278,3650.562432,None,None,3650.562432,None,,,,,,,,,,,,,,,,,,,,,,,,,,,,,,,,,color10,1,2019_Dec_04_1238,ProdSingRedo,3.2.4,59.93632459
80,0,80,0,,,,,,,,,,,,,,,,,,,,,,,,,,,,3655.080486,None,novel,silent,blue,65,202,3653.079858,None,None,3653.079858,None,,,,,,,,,,,,,,,,,,,,,,,,,,,,,,,,,color10,1,2019_Dec_04_1238,ProdSingRedo,3.2.4,59.93632459
81,0,81,0,,,,,,,,,,,,,,,,,,,,,,,,,,,,3657.59796,None,science,sing,yellow,24,275,3655.597309,None,None,3655.597309,None,,,,,,,,,,,,,,,,,,,,,,,,,,,,,,,,,color10,1,2019_Dec_04_1238,ProdSingRedo,3.2.4,59.93632459
82,0,82,0,,,,,,,,,,,,,,,,,,,,,,,,,,,,3660.115419,None,order,sing,yellow,15,207,3658.114746,None,None,3658.114746,None,,,,,,,,,,,,,,,,,,,,,,,,,,,,,,,,,color10,1,2019_Dec_04_1238,ProdSingRedo,3.2.4,59.93632459
83,0,83,0,,,,,,,,,,,,,,,,,,,,,,,,,,,,3662.632817,None,budget,sing,yellow,7,34,3660.632027,None,None,3660.632027,None,,,,,,,,,,,,,,,,,,,,,,,,,,,,,,,,,color10,1,2019_Dec_04_1238,ProdSingRedo,3.2.4,59.93632459
84,0,84,0,,,,,,,,,,,,,,,,,,,,,,,,,,,,3665.150279,None,cousin,silent,blue,80,76,3663.149594,None,None,3663.149594,None,,,,,,,,,,,,,,,,,,,,,,,,,,,,,,,,,color10,1,2019_Dec_04_1238,ProdSingRedo,3.2.4,59.93632459
85,0,85,0,,,,,,,,,,,,,,,,,,,,,,,,,,,,3667.667706,None,contract,aloud,red,58,68,3665.66693,None,None,3665.66693,None,,,,,,,,,,,,,,,,,,,,,,,,,,,,,,,,,color10,1,2019_Dec_04_1238,ProdSingRedo,3.2.4,59.93632459
86,0,86,0,,,,,,,,,,,,,,,,,,,,,,,,,,,,3670.185163,None,foundation,aloud,red,49,132,3668.184372,None,None,3668.184372,None,,,,,,,,,,,,,,,,,,,,,,,,,,,,,,,,,color10,1,2019_Dec_04_1238,ProdSingRedo,3.2.4,59.93632459
87,0,87,0,,,,,,,,,,,,,,,,,,,,,,,,,,,,3672.702593,None,entrance,sing,yellow,27,115,3670.701947,None,None,3670.701947,None,,,,,,,,,,,,,,,,,,,,,,,,,,,,,,,,,color10,1,2019_Dec_04_1238,ProdSingRedo,3.2.4,59.93632459
88,0,88,0,,,,,,,,,,,,,,,,,,,,,,,,,,,,3675.220035,None,management,sing,yellow,9,177,3673.219356,None,None,3673.219356,None,,,,,,,,,,,,,,,,,,,,,,,,,,,,,,,,,color10,1,2019_Dec_04_1238,ProdSingRedo,3.2.4,59.93632459
89,0,89,0,,,,,,,,,,,,,,,,,,,,,,,,,,,,3677.73735,None,recall,silent,blue,87,255,3675.736798,None,None,3675.736798,None,,,,,,,,,,,,,,,,,,,,,,,,,,,,,,,,,color10,1,2019_Dec_04_1238,ProdSingRedo,3.2.4,59.93632459
,,,,,,,,,,,,,,,,,,,,,,,,,,,,,,,,,,,,,,,,,,,3678.237618,None,k,120.5046464,3678.237618,None,,,,,,,,,,,,,,,,,,,,,,,,,,,color10,1,2019_Dec_04_1238,ProdSingRedo,3.2.4,59.93632459
,,,,0,0,0,0,,,,,,,,,,,,,,,,,,,,,,,,3806.543496,None,,,,,,,,,,,,,,,,,search,new_aloud,red,0,129,276,3799.292742,None,3799.292742,None,1,4.393362899,3799.292742,None,3803.726593,None,3804.242852,None,3804.242852,None,n,2.25870169,3804.242852,None,,,color10,1,2019_Dec_04_1238,ProdSingRedo,3.2.4,59.93632459
,,,,1,0,1,0,,,,,,,,,,,,,,,,,,,,,,,,3814.46268,None,,,,,,,,,,,,,,,,,number,new_silent,blue,1,164,203,3807.062123,None,3807.062123,None,6,4.463167061,3807.062123,None,3811.578321,None,3812.078628,None,3812.078628,None,r,2.350646107,3812.078628,None,,,color10,1,2019_Dec_04_1238,ProdSingRedo,3.2.4,59.93632459
,,,,2,0,2,0,,,,,,,,,,,,,,,,,,,,,,,,3819.680938,None,,,,,,,,,,,,,,,,,foundation,aloud,red,2,49,132,3814.979508,None,3814.979508,None,6,2.321402869,3814.979508,None,3817.348626,None,3817.863677,None,3817.863677,None,r,1.781155747,3817.863677,None,,,color10,1,2019_Dec_04_1238,ProdSingRedo,3.2.4,59.93632459
,,,,3,0,3,0,,,,,,,,,,,,,,,,,,,,,,,,3825.015771,None,,,,,,,,,,,,,,,,,whole,new_aloud,red,3,143,355,3820.197741,None,3820.197741,None,3,2.870832025,3820.197741,None,3823.118509,None,3823.632152,None,3823.632152,None,f,1.340810037,3823.632152,None,,,color10,1,2019_Dec_04_1238,ProdSingRedo,3.2.4,59.93632459
,,,,4,0,4,0,,,,,,,,,,,,,,,,,,,,,,,,3834.868935,None,,,,,,,,,,,,,,,,,concern,new_silent,blue,4,169,65,3825.532565,None,3825.532565,None,2,4.792227119,3825.532565,None,3830.371004,None,3830.873796,None,3830.873796,None,n,3.962085706,3830.873796,None,,,color10,1,2019_Dec_04_1238,ProdSingRedo,3.2.4,59.93632459
,,,,5,0,5,0,,,,,,,,,,,,,,,,,,,,,,,,3841.83772,None,,,,,,,,,,,,,,,,,victory,aloud,red,5,43,346,3835.387879,None,3835.387879,None,3,4.679709897,3835.387879,None,3840.109673,None,3840.620519,None,3840.620519,None,n,1.175560504,3840.620519,None,,,color10,1,2019_Dec_04_1238,ProdSingRedo,3.2.4,59.93632459
,,,,6,0,6,0,,,,,,,,,,,,,,,,,,,,,,,,3849.240006,None,,,,,,,,,,,,,,,,,direction,new_silent,blue,6,163,94,3842.3544,None,3842.3544,None,6,3.896779882,3842.3544,None,3846.291285,None,3846.805809,None,3846.805809,None,r,2.389798813,3846.805809,None,,,color10,1,2019_Dec_04_1238,ProdSingRedo,3.2.4,59.93632459
,,,,7,0,7,0,,,,,,,,,,,,,,,,,,,,,,,,3854.408255,None,,,,,,,,,,,,,,,,,worker,sing,yellow,7,16,356,3849.757689,None,3849.757689,None,6,2.709437366,3849.757689,None,3852.524184,None,3853.024514,None,3853.024514,None,r,1.346209659,3853.024514,None,,,color10,1,2019_Dec_04_1238,ProdSingRedo,3.2.4,59.93632459
,,,,8,0,8,0,,,,,,,,,,,,,,,,,,,,,,,,3860.21003,None,,,,,,,,,,,,,,,,,escape,aloud,red,8,39,118,3854.924923,None,3854.924923,None,5,3.301610681,3854.924923,None,3858.260412,None,3858.776275,None,3858.776275,None,f,1.386026354,3858.776275,None,,,color10,1,2019_Dec_04_1238,ProdSingRedo,3.2.4,59.93632459
,,,,9,0,9,0,,,,,,,,,,,,,,,,,,,,,,,,3863.611057,None,,,,,,,,,,,,,,,,,subject,new_aloud,red,9,134,312,3860.72978,None,3860.72978,None,5,1.456760413,3860.72978,None,3862.243984,None,3862.74415,None,3862.74415,None,f,0.826310175,3862.74415,None,,,color10,1,2019_Dec_04_1238,ProdSingRedo,3.2.4,59.93632459
,,,,10,0,10,0,,,,,,,,,,,,,,,,,,,,,,,,3867.395551,None,,,,,,,,,,,,,,,,,front,new_sing,yellow,10,104,134,3864.12791,None,3864.12791,None,3,2.026395079,3864.12791,None,3866.198512,None,3866.695234,None,3866.695234,None,f,0.666832845,3866.695234,None,,,color10,1,2019_Dec_04_1238,ProdSingRedo,3.2.4,59.93632459
,,,,11,0,11,0,,,,,,,,,,,,,,,,,,,,,,,,3874.247671,None,,,,,,,,,,,,,,,,,crime,aloud,red,11,34,78,3867.912247,None,3867.912247,None,6,3.945454546,3867.912247,None,3871.90097,None,3872.413795,None,3872.413795,None,r,1.787637968,3872.413795,None,,,color10,1,2019_Dec_04_1238,ProdSingRedo,3.2.4,59.93632459
,,,,12,0,12,0,,,,,,,,,,,,,,,,,,,,,,,,3878.332269,None,,,,,,,,,,,,,,,,,nation,new_silent,blue,12,166,198,3874.764467,None,3874.764467,None,1,1.620836223,3874.764467,None,3876.43442,None,3876.94847,None,3876.94847,None,n,1.348815859,3876.94847,None,,,color10,1,2019_Dec_04_1238,ProdSingRedo,3.2.4,59.93632459
,,,,13,0,13,0,,,,,,,,,,,,,,,,,,,,,,,,3883.200375,None,,,,,,,,,,,,,,,,,block,aloud,red,13,32,25,3878.850946,None,3878.850946,None,6,2.382223107,3878.850946,None,3881.270296,None,3881.783191,None,3881.783191,None,r,1.369696244,3881.783191,None,,,color10,1,2019_Dec_04_1238,ProdSingRedo,3.2.4,59.93632459
,,,,14,0,14,0,,,,,,,,,,,,,,,,,,,,,,,,3886.384735,None,,,,,,,,,,,,,,,,,mayor,new_aloud,red,14,140,183,3883.718817,None,3883.718817,None,5,1.130068016,3883.718817,None,3884.900827,None,3885.400948,None,3885.400948,None,f,0.944124077,3885.400948,None,,,color10,1,2019_Dec_04_1238,ProdSingRedo,3.2.4,59.93632459
,,,,15,0,15,0,,,,,,,,,,,,,,,,,,,,,,,,3890.402624,None,,,,,,,,,,,,,,,,,murder,new_aloud,red,15,138,195,3886.901375,None,3886.901375,None,1,1.683366973,3886.901375,None,3888.619081,None,3889.135524,None,3889.135524,None,n,1.233096246,3889.135524,None,,,color10,1,2019_Dec_04_1238,ProdSingRedo,3.2.4,59.93632459
,,,,16,0,16,0,,,,,,,,,,,,,,,,,,,,,,,,3897.72153,None,,,,,,,,,,,,,,,,,religion,silent,blue,16,82,258,3890.919267,None,3890.919267,None,6,5.209490236,3890.919267,None,3896.17516,None,3896.687893,None,3896.687893,None,f,0.992676517,3896.687893,None,,,color10,1,2019_Dec_04_1238,ProdSingRedo,3.2.4,59.93632459
,,,,17,0,17,0,,,,,,,,,,,,,,,,,,,,,,,,3901.639373,None,,,,,,,,,,,,,,,,,finance,new_aloud,red,17,123,129,3898.238217,None,3898.238217,None,3,2.026042713,3898.238217,None,3900.309816,None,3900.822473,None,3900.822473,None,f,0.777580464,3900.822473,None,,,color10,1,2019_Dec_04_1238,ProdSingRedo,3.2.4,59.93632459
,,,,18,0,18,0,,,,,,,,,,,,,,,,,,,,,,,,3905.273713,None,,,,,,,,,,,,,,,,,passage,new_aloud,red,18,121,212,3902.156249,None,3902.156249,None,1,1.547463309,3902.156249,None,3903.740517,None,3904.256872,None,3904.256872,None,n,0.975156823,3904.256872,None,,,color10,1,2019_Dec_04_1238,ProdSingRedo,3.2.4,59.93632459
,,,,19,0,19,0,,,,,,,,,,,,,,,,,,,,,,,,3909.025001,None,,,,,,,,,,,,,,,,,sight,aloud,red,19,56,286,3905.79065,None,3905.79065,None,1,1.673329995,3905.79065,None,3907.511892,None,3908.024727,None,3908.024727,None,n,0.966773133,3908.024727,None,,,color10,1,2019_Dec_04_1238,ProdSingRedo,3.2.4,59.93632459
,,,,20,0,20,0,,,,,,,,,,,,,,,,,,,,,,,,3913.192805,None,,,,,,,,,,,,,,,,,people,silent,blue,20,60,216,3909.541815,None,3909.541815,None,6,1.769358495,3909.541815,None,3911.358877,None,3911.875871,None,3911.875871,None,f,1.283349868,3911.875871,None,,,color10,1,2019_Dec_04_1238,ProdSingRedo,3.2.4,59.93632459
,,,,21,0,21,0,,,,,,,,,,,,,,,,,,,,,,,,3916.910755,None,,,,,,,,,,,,,,,,,character,aloud,red,21,33,46,3913.709764,None,3913.709764,None,6,2.017377566,3913.709764,None,3915.764055,None,3916.277084,None,3916.277084,None,r,0.593947584,3916.277084,None,,,color10,1,2019_Dec_04_1238,ProdSingRedo,3.2.4,59.93632459
,,,,22,0,22,0,,,,,,,,,,,,,,,,,,,,,,,,3921.562201,None,,,,,,,,,,,,,,,,,master,new_silent,blue,22,179,180,3917.427578,None,3917.427578,None,1,2.059482617,3917.427578,None,3919.5312,None,3920.045052,None,3920.045052,None,n,1.474136424,3920.045052,None,,,color10,1,2019_Dec_04_1238,ProdSingRedo,3.2.4,59.93632459
,,,,23,0,23,0,,,,,,,,,,,,,,,,,,,,,,,,3925.49671,None,,,,,,,,,,,,,,,,,region,silent,blue,23,64,256,3922.078987,None,3922.078987,None,1,2.119458794,3922.078987,None,3924.249335,None,3924.763171,None,3924.763171,None,n,0.691612578,3924.763171,None,,,color10,1,2019_Dec_04_1238,ProdSingRedo,3.2.4,59.93632459
,,,,24,0,24,0,,,,,,,,,,,,,,,,,,,,,,,,3927.964153,None,,,,,,,,,,,,,,,,,carry,silent,blue,24,66,43,3926.014707,None,3926.014707,None,1,1.199666917,3926.014707,None,3927.270775,None,3927.780764,None,3927.780764,None,n,0.137403006,3927.780764,None,,,color10,1,2019_Dec_04_1238,ProdSingRedo,3.2.4,59.93632459
,,,,25,0,25,0,,,,,,,,,,,,,,,,,,,,,,,,3934.116051,None,,,,,,,,,,,,,,,,,provision,aloud,red,25,46,243,3928.483141,None,3928.483141,None,6,3.346861831,3928.483141,None,3931.881881,None,3932.383788,None,3932.383788,None,r,1.694086913,3932.383788,None,,,color10,1,2019_Dec_04_1238,ProdSingRedo,3.2.4,59.93632459
,,,,26,0,26,0,,,,,,,,,,,,,,,,,,,,,,,,3936.783509,None,,,,,,,,,,,,,,,,,trail,new_aloud,red,26,144,336,3934.632705,None,3934.632705,None,1,1.189640823,3934.632705,None,3935.867012,None,3936.383384,None,3936.383384,None,n,0.366405217,3936.383384,None,,,color10,1,2019_Dec_04_1238,ProdSingRedo,3.2.4,59.93632459
,,,,27,0,27,0,,,,,,,,,,,,,,,,,,,,,,,,3942.385203,None,,,,,,,,,,,,,,,,,sound,new_silent,blue,27,174,295,3937.300195,None,3937.300195,None,3,3.641823593,3937.300195,None,3940.988661,None,3941.501625,None,3941.501625,None,f,0.840234061,3941.501625,None,,,color10,1,2019_Dec_04_1238,ProdSingRedo,3.2.4,59.93632459
,,,,28,0,28,0,,,,,,,,,,,,,,,,,,,,,,,,3945.202764,None,,,,,,,,,,,,,,,,,government,silent,blue,28,83,139,3942.905298,None,3942.905298,None,3,1.323975791,3942.905298,None,3944.272427,None,3944.785957,None,3944.785957,None,f,0.379229087,3944.785957,None,,,color10,1,2019_Dec_04_1238,ProdSingRedo,3.2.4,59.93632459
,,,,29,0,29,0,,,,,,,,,,,,,,,,,,,,,,,,3949.920909,None,,,,,,,,,,,,,,,,,title,new_sing,yellow,29,111,331,3945.719588,None,3945.719588,None,4,3.261406477,3945.719588,None,3949.024389,None,3949.537438,None,3949.537438,None,f,0.34744185,3949.537438,None,,,color10,1,2019_Dec_04_1238,ProdSingRedo,3.2.4,59.93632459
,,,,30,0,30,0,,,,,,,,,,,,,,,,,,,,,,,,3953.405259,None,,,,,,,,,,,,,,,,,colonel,new_sing,yellow,30,118,55,3950.437622,None,3950.437622,None,1,1.975451342,3950.437622,None,3952.456041,None,3952.97181,None,3952.97181,None,n,0.384801005,3952.97181,None,,,color10,1,2019_Dec_04_1238,ProdSingRedo,3.2.4,59.93632459
,,,,31,0,31,0,,,,,,,,,,,,,,,,,,,,,,,,3956.806306,None,,,,,,,,,,,,,,,,,waste,sing,yellow,31,6,350,3953.921885,None,3953.921885,None,3,1.907107336,3953.921885,None,3955.87396,None,3956.389521,None,3956.389521,None,f,0.3752862,3956.389521,None,,,color10,1,2019_Dec_04_1238,ProdSingRedo,3.2.4,59.93632459
,,,,32,0,32,0,,,,,,,,,,,,,,,,,,,,,,,,3959.357082,None,,,,,,,,,,,,,,,,,brilliant,new_aloud,red,32,146,30,3957.325377,None,3957.325377,None,1,1.12698816,3957.325377,None,3958.491043,None,3959.007007,None,3959.007007,None,n,0.301323626,3959.007007,None,,,color10,1,2019_Dec_04_1238,ProdSingRedo,3.2.4,59.93632459
,,,,33,0,33,0,,,,,,,,,,,,,,,,,,,,,,,,3962.924884,None,,,,,,,,,,,,,,,,,taste,silent,blue,33,88,322,3959.873917,None,3959.873917,None,4,2.17015404,3959.873917,None,3962.094068,None,3962.608069,None,3962.608069,None,f,0.268017453,3962.608069,None,,,color10,1,2019_Dec_04_1238,ProdSingRedo,3.2.4,59.93632459
,,,,34,0,34,0,,,,,,,,,,,,,,,,,,,,,,,,3966.859275,None,,,,,,,,,,,,,,,,,cousin,silent,blue,34,80,76,3963.441675,None,3963.441675,None,6,2.626549336,3963.441675,None,3966.109016,None,3966.626006,None,3966.626006,None,r,0.194008851,3966.626006,None,,,color10,1,2019_Dec_04_1238,ProdSingRedo,3.2.4,59.93632459
,,,,35,0,35,0,,,,,,,,,,,,,,,,,,,,,,,,3970.260419,None,,,,,,,,,,,,,,,,,substance,new_silent,blue,35,167,313,3967.378091,None,3967.378091,None,4,2.090221154,3967.378091,None,3969.526768,None,3970.026847,None,3970.026847,None,f,0.200741741,3970.026847,None,,,color10,1,2019_Dec_04_1238,ProdSingRedo,3.2.4,59.93632459
,,,,36,0,36,0,,,,,,,,,,,,,,,,,,,,,,,,3976.512346,None,,,,,,,,,,,,,,,,,bureau,new_sing,yellow,36,100,37,3970.779503,None,3970.779503,None,1,3.927895043,3970.779503,None,3974.747055,None,3975.261941,None,3975.261941,None,n,1.205503808,3975.261941,None,,,color10,1,2019_Dec_04_1238,ProdSingRedo,3.2.4,59.93632459
,,,,37,0,37,0,,,,,,,,,,,,,,,,,,,,,,,,3979.179848,None,,,,,,,,,,,,,,,,,motion,new_sing,yellow,37,115,194,3977.029161,None,3977.029161,None,1,1.029988711,3977.029161,None,3978.098988,None,3978.612987,None,3978.612987,None,n,0.5181078,3978.612987,None,,,color10,1,2019_Dec_04_1238,ProdSingRedo,3.2.4,59.93632459
,,,,38,0,38,0,,,,,,,,,,,,,,,,,,,,,,,,3983.230933,None,,,,,,,,,,,,,,,,,trash,new_aloud,red,38,126,337,3979.696569,None,3979.696569,None,3,1.826797205,3979.696569,None,3981.567273,None,3982.08074,None,3982.08074,None,f,1.114036157,3982.08074,None,,,color10,1,2019_Dec_04_1238,ProdSingRedo,3.2.4,59.93632459
,,,,39,0,39,0,,,,,,,,,,,,,,,,,,,,,,,,3991.416895,None,,,,,,,,,,,,,,,,,harmony,new_sing,yellow,39,97,148,3983.74932,None,3983.74932,None,3,6.381070843,3983.74932,None,3990.183202,None,3990.683366,None,3990.683366,None,n,0.694987887,3990.683366,None,,,color10,1,2019_Dec_04_1238,ProdSingRedo,3.2.4,59.93632459
,,,,40,0,40,0,,,,,,,,,,,,,,,,,,,,,,,,3995.66823,None,,,,,,,,,,,,,,,,,committee,new_aloud,red,40,135,62,3991.933591,None,3991.933591,None,4,2.372989136,3991.933591,None,3994.355239,None,3994.867835,None,3994.867835,None,n,0.758682096,3994.867835,None,,,color10,1,2019_Dec_04_1238,ProdSingRedo,3.2.4,59.93632459
,,,,41,0,41,0,,,,,,,,,,,,,,,,,,,,,,,,3999.952825,None,,,,,,,,,,,,,,,,,contract,aloud,red,41,58,68,3996.184874,None,3996.184874,None,1,2.097103946,3996.184874,None,3998.320732,None,3998.835822,None,3998.835822,None,n,1.078009336,3998.835822,None,,,color10,1,2019_Dec_04_1238,ProdSingRedo,3.2.4,59.93632459
,,,,42,0,42,0,,,,,,,,,,,,,,,,,,,,,,,,4003.103798,None,,,,,,,,,,,,,,,,,court,new_silent,blue,42,157,75,4000.46971,None,4000.46971,None,3,1.387906675,4000.46971,None,4001.90717,None,4002.420289,None,4002.420289,None,f,0.637268653,4002.420289,None,,,color10,1,2019_Dec_04_1238,ProdSingRedo,3.2.4,59.93632459
,,,,43,0,43,0,,,,,,,,,,,,,,,,,,,,,,,,4006.271471,None,,,,,,,,,,,,,,,,,budget,sing,yellow,43,7,34,4003.621298,None,4003.621298,None,6,1.412225812,4003.621298,None,4005.073593,None,4005.587918,None,4005.587918,None,r,0.645474761,4005.587918,None,,,color10,1,2019_Dec_04_1238,ProdSingRedo,3.2.4,59.93632459
,,,,44,0,44,0,,,,,,,,,,,,,,,,,,,,,,,,4009.37243,None,,,,,,,,,,,,,,,,,universal,aloud,red,44,44,345,4006.792203,None,4006.792203,None,6,1.569562824,4006.792203,None,4008.422144,None,4008.922281,None,4008.922281,None,r,0.415003996,4008.922281,None,,,color10,1,2019_Dec_04_1238,ProdSingRedo,3.2.4,59.93632459
,,,,45,0,45,0,,,,,,,,,,,,,,,,,,,,,,,,4013.023548,None,,,,,,,,,,,,,,,,,broke,new_silent,blue,45,177,32,4009.892445,None,4009.892445,None,3,1.692700464,4009.892445,None,4011.639653,None,4012.139879,None,4012.139879,None,f,0.845178997,4012.139879,None,,,color10,1,2019_Dec_04_1238,ProdSingRedo,3.2.4,59.93632459
,,,,46,0,46,0,,,,,,,,,,,,,,,,,,,,,,,,4015.974455,None,,,,,,,,,,,,,,,,,throw,sing,yellow,46,2,330,4013.540373,None,4013.540373,None,3,1.525006764,4013.540373,None,4015.111486,None,4015.624342,None,4015.624342,None,f,0.312528107,4015.624342,None,,,color10,1,2019_Dec_04_1238,ProdSingRedo,3.2.4,59.93632459
,,,,47,0,47,0,,,,,,,,,,,,,,,,,,,,,,,,4020.509156,None,,,,,,,,,,,,,,,,,angle,silent,blue,47,86,7,4016.491138,None,4016.491138,None,6,1.99014558,4016.491138,None,4018.529199,None,4019.042105,None,4019.042105,None,n,1.430486003,4019.042105,None,,,color10,1,2019_Dec_04_1238,ProdSingRedo,3.2.4,59.93632459
,,,,48,0,48,0,,,,,,,,,,,,,,,,,,,,,,,,4024.243661,None,,,,,,,,,,,,,,,,,century,new_silent,blue,48,151,45,4021.026208,None,4021.026208,None,3,2.142535788,4021.026208,None,4023.216923,None,4023.727592,None,4023.727592,None,f,0.473515353,4023.727592,None,,,color10,1,2019_Dec_04_1238,ProdSingRedo,3.2.4,59.93632459
,,,,49,0,49,0,,,,,,,,,,,,,,,,,,,,,,,,4027.094543,None,,,,,,,,,,,,,,,,,frank,sing,yellow,49,0,133,4024.760471,None,4024.760471,None,1,1.440265472,4024.760471,None,4026.247866,None,4026.760962,None,4026.760962,None,n,0.287167733,4026.760962,None,,,color10,1,2019_Dec_04_1238,ProdSingRedo,3.2.4,59.93632459
,,,,50,0,50,0,,,,,,,,,,,,,,,,,,,,,,,,4030.262157,None,,,,,,,,,,,,,,,,,generation,aloud,red,50,59,136,4027.611361,None,4027.611361,None,3,1.636609017,4027.611361,None,4029.300564,None,4029.8119,None,4029.8119,None,f,0.412095192,4029.8119,None,,,color10,1,2019_Dec_04_1238,ProdSingRedo,3.2.4,59.93632459
,,,,51,0,51,0,,,,,,,,,,,,,,,,,,,,,,,,4033.529813,None,,,,,,,,,,,,,,,,,balance,new_aloud,red,51,124,17,4030.77882,None,4030.77882,None,3,1.220987681,4030.77882,None,4032.046435,None,4032.562868,None,4032.562868,None,f,0.925394273,4032.562868,None,,,color10,1,2019_Dec_04_1238,ProdSingRedo,3.2.4,59.93632459
,,,,52,0,52,0,,,,,,,,,,,,,,,,,,,,,,,,4036.81417,None,,,,,,,,,,,,,,,,,strain,new_aloud,red,52,149,308,4034.046498,None,4034.046498,None,1,1.873747049,4034.046498,None,4035.966309,None,4036.480708,None,4036.480708,None,n,0.286797018,4036.480708,None,,,color10,1,2019_Dec_04_1238,ProdSingRedo,3.2.4,59.93632459
,,,,53,0,53,0,,,,,,,,,,,,,,,,,,,,,,,,4039.498352,None,,,,,,,,,,,,,,,,,salary,silent,blue,53,67,271,4037.332037,None,4037.332037,None,1,1.075747105,4037.332037,None,4038.454932,None,4038.964658,None,4038.964658,None,n,0.491418513,4038.964658,None,,,color10,1,2019_Dec_04_1238,ProdSingRedo,3.2.4,59.93632459
,,,,54,0,54,0,,,,,,,,,,,,,,,,,,,,,,,,4042.565932,None,,,,,,,,,,,,,,,,,nature,new_sing,yellow,54,108,200,4040.015003,None,4040.015003,None,3,1.592792521,4040.015003,None,4041.651915,None,4042.165793,None,4042.165793,None,f,0.36136698,4042.165793,None,,,color10,1,2019_Dec_04_1238,ProdSingRedo,3.2.4,59.93632459
,,,,55,0,55,0,,,,,,,,,,,,,,,,,,,,,,,,4045.150067,None,,,,,,,,,,,,,,,,,school,new_sing,yellow,55,93,274,4043.082637,None,4043.082637,None,3,1.141090872,4043.082637,None,4044.270197,None,4044.783283,None,4044.783283,None,f,0.327797699,4044.783283,None,,,color10,1,2019_Dec_04_1238,ProdSingRedo,3.2.4,59.93632459
,,,,56,0,56,0,,,,,,,,,,,,,,,,,,,,,,,,4048.717815,None,,,,,,,,,,,,,,,,,comedy,new_silent,blue,56,158,58,4045.667121,None,4045.667121,None,5,2.292232406,4045.667121,None,4048.002383,None,4048.51775,None,4048.51775,None,f,0.153027763,4048.51775,None,,,color10,1,2019_Dec_04_1238,ProdSingRedo,3.2.4,59.93632459
,,,,57,0,57,0,,,,,,,,,,,,,,,,,,,,,,,,4051.768731,None,,,,,,,,,,,,,,,,,damage,silent,blue,57,84,83,4049.234604,None,4049.234604,None,5,1.532171014,4049.234604,None,4050.804663,None,4051.318603,None,4051.318603,None,f,0.408528928,4051.318603,None,,,color10,1,2019_Dec_04_1238,ProdSingRedo,3.2.4,59.93632459
,,,,58,0,58,0,,,,,,,,,,,,,,,,,,,,,,,,4055.036428,None,,,,,,,,,,,,,,,,,under,new_silent,blue,58,173,343,4052.285415,None,4052.285415,None,3,1.41729515,4052.285415,None,4053.740047,None,4054.252854,None,4054.252854,None,n,0.737550421,4054.252854,None,,,color10,1,2019_Dec_04_1238,ProdSingRedo,3.2.4,59.93632459
,,,,59,0,59,0,,,,,,,,,,,,,,,,,,,,,,,,4058.920959,None,,,,,,,,,,,,,,,,,background,new_silent,blue,59,152,16,4055.556608,None,4055.556608,None,3,1.561752001,4055.556608,None,4057.158862,None,4057.670918,None,4057.670918,None,n,1.215260884,4057.670918,None,,,color10,1,2019_Dec_04_1238,ProdSingRedo,3.2.4,59.93632459
,,,,60,0,60,0,,,,,,,,,,,,,,,,,,,,,,,,4062.07181,None,,,,,,,,,,,,,,,,,trend,new_aloud,red,60,125,340,4059.437772,None,4059.437772,None,5,1.288868294,4059.437772,None,4060.774674,None,4061.288357,None,4061.288357,None,f,0.742189954,4061.288357,None,,,color10,1,2019_Dec_04_1238,ProdSingRedo,3.2.4,59.93632459
,,,,61,0,61,0,,,,,,,,,,,,,,,,,,,,,,,,4066.489926,None,,,,,,,,,,,,,,,,,addition,aloud,red,61,47,2,4062.588731,None,4062.588731,None,1,2.625689104,4062.588731,None,4065.260848,None,4065.77305,None,4065.77305,None,n,0.673328129,4065.77305,None,,,color10,1,2019_Dec_04_1238,ProdSingRedo,3.2.4,59.93632459
,,,,62,0,62,0,,,,,,,,,,,,,,,,,,,,,,,,4070.524498,None,,,,,,,,,,,,,,,,,individual,new_silent,blue,62,154,160,4067.010025,None,4067.010025,None,1,1.683551398,4067.010025,None,4068.757209,None,4069.257368,None,4069.257368,None,n,1.22008142,4069.257368,None,,,color10,1,2019_Dec_04_1238,ProdSingRedo,3.2.4,59.93632459
,,,,63,0,63,0,,,,,,,,,,,,,,,,,,,,,,,,4074.609093,None,,,,,,,,,,,,,,,,,graduate,new_silent,blue,63,162,141,4071.041205,None,4071.041205,None,3,1.724729039,4071.041205,None,4072.809231,None,4073.325405,None,4073.325405,None,f,1.247827182,4073.325405,None,,,color10,1,2019_Dec_04_1238,ProdSingRedo,3.2.4,59.93632459
,,,,64,0,64,0,,,,,,,,,,,,,,,,,,,,,,,,4078.710366,None,,,,,,,,,,,,,,,,,power,sing,yellow,64,4,230,4075.125953,None,4075.125953,None,3,1.671124367,4075.125953,None,4076.846891,None,4077.35993,None,4077.35993,None,f,1.309361792,4077.35993,None,,,color10,1,2019_Dec_04_1238,ProdSingRedo,3.2.4,59.93632459
,,,,65,0,65,0,,,,,,,,,,,,,,,,,,,,,,,,4081.727952,None,,,,,,,,,,,,,,,,,sweet,new_aloud,red,65,131,319,4079.227019,None,4079.227019,None,6,1.626210965,4079.227019,None,4080.898175,None,4081.411186,None,4081.411186,None,r,0.281658016,4081.411186,None,,,color10,1,2019_Dec_04_1238,ProdSingRedo,3.2.4,59.93632459
,,,,66,0,66,0,,,,,,,,,,,,,,,,,,,,,,,,4087.996517,None,,,,,,,,,,,,,,,,,leader,silent,blue,66,75,168,4082.244787,None,4082.244787,None,6,3.808206107,4082.244787,None,4086.09726,None,4086.612776,None,4086.612776,None,r,1.335668857,4086.612776,None,,,color10,1,2019_Dec_04_1238,ProdSingRedo,3.2.4,59.93632459
,,,,67,0,67,0,,,,,,,,,,,,,,,,,,,,,,,,4090.764048,None,,,,,,,,,,,,,,,,,thick,aloud,red,67,35,327,4088.513871,None,4088.513871,None,6,1.226600962,4088.513871,None,4089.78473,None,4090.297093,None,4090.297093,None,r,0.427255,4090.297093,None,,,color10,1,2019_Dec_04_1238,ProdSingRedo,3.2.4,59.93632459
,,,,68,0,68,0,,,,,,,,,,,,,,,,,,,,,,,,4093.931583,None,,,,,,,,,,,,,,,,,native,new_aloud,red,68,145,199,4091.282589,None,4091.282589,None,3,1.922018032,4091.282589,None,4093.26461,None,4093.764942,None,4093.764942,None,f,0.127388109,4093.764942,None,,,color10,1,2019_Dec_04_1238,ProdSingRedo,3.2.4,59.93632459
,,,,69,0,69,0,,,,,,,,,,,,,,,,,,,,,,,,4096.765888,None,,,,,,,,,,,,,,,,,recall,silent,blue,69,87,255,4094.448495,None,4094.448495,None,6,1.459765318,4094.448495,None,4095.952716,None,4096.465788,None,4096.465788,None,r,0.266231367,4096.465788,None,,,color10,1,2019_Dec_04_1238,ProdSingRedo,3.2.4,59.93632459
,,,,70,0,70,0,,,,,,,,,,,,,,,,,,,,,,,,4100.850444,None,,,,,,,,,,,,,,,,,health,sing,yellow,70,26,149,4097.282589,None,4097.282589,None,6,2.657676004,4097.282589,None,4099.984212,None,4100.500383,None,4100.500383,None,r,0.30321141,4100.500383,None,,,color10,1,2019_Dec_04_1238,ProdSingRedo,3.2.4,59.93632459
,,,,71,0,71,0,,,,,,,,,,,,,,,,,,,,,,,,4103.784702,None,,,,,,,,,,,,,,,,,phrase,sing,yellow,71,29,220,4101.367173,None,4101.367173,None,6,1.50880572,4101.367173,None,4102.921524,None,4103.419383,None,4103.419383,None,r,0.320235366,4103.419383,None,,,color10,1,2019_Dec_04_1238,ProdSingRedo,3.2.4,59.93632459
,,,,72,0,72,0,,,,,,,,,,,,,,,,,,,,,,,,4106.852318,None,,,,,,,,,,,,,,,,,election,silent,blue,72,85,109,4104.301368,None,4104.301368,None,6,1.861986185,4104.301368,None,4106.206537,None,4106.718943,None,4106.718943,None,r,0.092731876,4106.718943,None,,,color10,1,2019_Dec_04_1238,ProdSingRedo,3.2.4,59.93632459
,,,,73,0,73,0,,,,,,,,,,,,,,,,,,,,,,,,4110.036611,None,,,,,,,,,,,,,,,,,private,aloud,red,73,51,237,4107.353129,None,4107.353129,None,3,1.937988313,4107.353129,None,4109.342976,None,4109.853076,None,4109.853076,None,f,0.14236567,4109.853076,None,,,color10,1,2019_Dec_04_1238,ProdSingRedo,3.2.4,59.93632459
,,,,74,0,74,0,,,,,,,,,,,,,,,,,,,,,,,,4112.537364,None,,,,,,,,,,,,,,,,,surface,sing,yellow,74,10,316,4110.553425,None,4110.553425,None,3,1.26558697,4110.553425,None,4111.858726,None,4112.370531,None,4112.370531,None,f,0.120352303,4112.370531,None,,,color10,1,2019_Dec_04_1238,ProdSingRedo,3.2.4,59.93632459
,,,,75,0,75,0,,,,,,,,,,,,,,,,,,,,,,,,4118.105757,None,,,,,,,,,,,,,,,,,quiet,new_sing,yellow,75,102,249,4113.059921,None,4113.059921,None,6,2.006980447,4113.059921,None,4115.107068,None,4115.621609,None,4115.621609,None,r,2.436940546,4115.621609,None,,,color10,1,2019_Dec_04_1238,ProdSingRedo,3.2.4,59.93632459
,,,,76,0,76,0,,,,,,,,,,,,,,,,,,,,,,,,4121.623495,None,,,,,,,,,,,,,,,,,clear,aloud,red,76,37,52,4118.622577,None,4118.622577,None,4,2.115927051,4118.622577,None,4120.774024,None,4121.290076,None,4121.290076,None,f,0.296339503,4121.290076,None,,,color10,1,2019_Dec_04_1238,ProdSingRedo,3.2.4,59.93632459
,,,,77,0,77,0,,,,,,,,,,,,,,,,,,,,,,,,4124.77446,None,,,,,,,,,,,,,,,,,volume,new_sing,yellow,77,96,349,4122.140595,None,4122.140595,None,4,1.661673006,4122.140595,None,4123.848122,None,4124.357656,None,4124.357656,None,f,0.373148681,4124.357656,None,,,color10,1,2019_Dec_04_1238,ProdSingRedo,3.2.4,59.93632459
,,,,78,0,78,0,,,,,,,,,,,,,,,,,,,,,,,,4127.408606,None,,,,,,,,,,,,,,,,,working,silent,blue,78,77,357,4125.293569,None,4125.293569,None,4,1.316535994,4125.293569,None,4126.661213,None,4127.175216,None,4127.175216,None,f,0.194832385,4127.175216,None,,,color10,1,2019_Dec_04_1238,ProdSingRedo,3.2.4,59.93632459
,,,,79,0,79,0,,,,,,,,,,,,,,,,,,,,,,,,4130.542939,None,,,,,,,,,,,,,,,,,comfort,silent,blue,79,71,59,4127.925431,None,4127.925431,None,3,1.612424543,4127.925431,None,4129.579565,None,4130.092817,None,4130.092817,None,n,0.412969108,4130.092817,None,,,color10,1,2019_Dec_04_1238,ProdSingRedo,3.2.4,59.93632459
,,,,80,0,80,0,,,,,,,,,,,,,,,,,,,,,,,,4134.844205,None,,,,,,,,,,,,,,,,,second,silent,blue,80,76,278,4131.059591,None,4131.059591,None,4,1.38223026,4131.059591,None,4132.480723,None,4132.99366,None,4132.99366,None,n,1.808335173,4132.99366,None,,,color10,1,2019_Dec_04_1238,ProdSingRedo,3.2.4,59.93632459
,,,,81,0,81,0,,,,,,,,,,,,,,,,,,,,,,,,4139.112174,None,,,,,,,,,,,,,,,,,scale,silent,blue,81,68,272,4135.361055,None,4135.361055,None,3,2.616442071,4135.361055,None,4138.015728,None,4138.528695,None,4138.528695,None,n,0.544626035,4138.528695,None,,,color10,1,2019_Dec_04_1238,ProdSingRedo,3.2.4,59.93632459
,,,,82,0,82,0,,,,,,,,,,,,,,,,,,,,,,,,4142.496584,None,,,,,,,,,,,,,,,,,company,aloud,red,82,57,64,4139.629458,None,4139.629458,None,1,2.163714114,4139.629458,None,4141.833745,None,4142.346392,None,4142.346392,None,n,0.110768145,4142.346392,None,,,color10,1,2019_Dec_04_1238,ProdSingRedo,3.2.4,59.93632459
,,,,83,0,83,0,,,,,,,,,,,,,,,,,,,,,,,,4146.597836,None,,,,,,,,,,,,,,,,,command,new_aloud,red,83,132,60,4143.01339,None,4143.01339,None,1,2.140197984,4143.01339,None,4145.197253,None,4145.714199,None,4145.714199,None,n,0.839289857,4145.714199,None,,,color10,1,2019_Dec_04_1238,ProdSingRedo,3.2.4,59.93632459
,,,,84,0,84,0,,,,,,,,,,,,,,,,,,,,,,,,4150.665727,None,,,,,,,,,,,,,,,,,division,new_sing,yellow,84,91,101,4147.114525,None,4147.114525,None,3,2.294481575,4147.114525,None,4149.453775,None,4149.965415,None,4149.965415,None,f,0.651247897,4149.965415,None,,,color10,1,2019_Dec_04_1238,ProdSingRedo,3.2.4,59.93632459
,,,,85,0,85,0,,,,,,,,,,,,,,,,,,,,,,,,4155.683948,None,,,,,,,,,,,,,,,,,split,new_silent,blue,85,156,299,4151.182439,None,4151.182439,None,3,1.569998849,4151.182439,None,4152.803269,None,4153.316583,None,4153.316583,None,f,2.32422366,4153.316583,None,,,color10,1,2019_Dec_04_1238,ProdSingRedo,3.2.4,59.93632459
,,,,86,0,86,0,,,,,,,,,,,,,,,,,,,,,,,,4161.51906,None,,,,,,,,,,,,,,,,,defeat,aloud,red,86,30,88,4156.200603,None,4156.200603,None,6,3.631393819,4156.200603,None,4159.872473,None,4160.385372,None,4160.385372,None,r,1.094581096,4160.385372,None,,,color10,1,2019_Dec_04_1238,ProdSingRedo,3.2.4,59.93632459
,,,,87,0,87,0,,,,,,,,,,,,,,,,,,,,,,,,4166.120464,None,,,,,,,,,,,,,,,,,length,new_sing,yellow,87,95,169,4162.035901,None,4162.035901,None,4,2.347880053,4162.035901,None,4164.420889,None,4164.926554,None,4164.926554,None,n,1.161068106,4164.926554,None,,,color10,1,2019_Dec_04_1238,ProdSingRedo,3.2.4,59.93632459
,,,,88,0,88,0,,,,,,,,,,,,,,,,,,,,,,,,4170.421789,None,,,,,,,,,,,,,,,,,minor,new_aloud,red,88,133,191,4166.637135,None,4166.637135,None,3,2.962389555,4166.637135,None,4169.639938,None,4170.155034,None,4170.155034,None,f,0.220315294,4170.155034,None,,,color10,1,2019_Dec_04_1238,ProdSingRedo,3.2.4,59.93632459
,,,,89,0,89,0,,,,,,,,,,,,,,,,,,,,,,,,4173.205995,None,,,,,,,,,,,,,,,,,testimony,new_aloud,red,89,120,325,4170.941375,None,4170.941375,None,3,1.385850327,4170.941375,None,4172.37576,None,4172.889219,None,4172.889219,None,f,0.269940692,4172.889219,None,,,color10,1,2019_Dec_04_1238,ProdSingRedo,3.2.4,59.93632459
,,,,90,0,90,0,,,,,,,,,,,,,,,,,,,,,,,,4176.206908,None,,,,,,,,,,,,,,,,,music,new_sing,yellow,90,90,196,4173.722684,None,4173.722684,None,6,1.612469638,4173.722684,None,4175.373241,None,4175.890116,None,4175.890116,None,r,0.276904034,4175.890116,None,,,color10,1,2019_Dec_04_1238,ProdSingRedo,3.2.4,59.93632459
,,,,91,0,91,0,,,,,,,,,,,,,,,,,,,,,,,,4179.591287,None,,,,,,,,,,,,,,,,,sunset,sing,yellow,91,21,315,4176.723591,None,4176.723591,None,2,1.363349931,4176.723591,None,4178.127258,None,4178.640972,None,4178.640972,None,n,0.901878143,4178.640972,None,,,color10,1,2019_Dec_04_1238,ProdSingRedo,3.2.4,59.93632459
,,,,92,0,92,0,,,,,,,,,,,,,,,,,,,,,,,,4182.625551,None,,,,,,,,,,,,,,,,,engineer,silent,blue,92,74,114,4180.10808,None,4180.10808,None,1,1.282767983,4180.10808,None,4181.428235,None,4181.941841,None,4181.941841,None,n,0.648850691,4181.941841,None,,,color10,1,2019_Dec_04_1238,ProdSingRedo,3.2.4,59.93632459
,,,,93,0,93,0,,,,,,,,,,,,,,,,,,,,,,,,4185.426373,None,,,,,,,,,,,,,,,,,quarter,new_aloud,red,93,130,246,4183.142229,None,4183.142229,None,1,1.104283435,4183.142229,None,4184.300321,None,4184.809545,None,4184.809545,None,n,0.573473989,4184.809545,None,,,color10,1,2019_Dec_04_1238,ProdSingRedo,3.2.4,59.93632459
,,,,94,0,94,0,,,,,,,,,,,,,,,,,,,,,,,,4187.893833,None,,,,,,,,,,,,,,,,,entrance,sing,yellow,94,27,115,4185.943226,None,4185.943226,None,3,0.927469903,4185.943226,None,4186.914556,None,4187.42689,None,4187.42689,None,f,0.427468659,4187.42689,None,,,color10,1,2019_Dec_04_1238,ProdSingRedo,3.2.4,59.93632459
,,,,95,0,95,0,,,,,,,,,,,,,,,,,,,,,,,,4192.546738,None,,,,,,,,,,,,,,,,,personnel,silent,blue,95,72,219,4188.410499,None,4188.410499,None,6,2.035714885,4188.410499,None,4190.498925,None,4191.011434,None,4191.011434,None,r,1.507033939,4191.011434,None,,,color10,1,2019_Dec_04_1238,ProdSingRedo,3.2.4,59.93632459
,,,,96,0,96,0,,,,,,,,,,,,,,,,,,,,,,,,4196.446428,None,,,,,,,,,,,,,,,,,error,new_sing,yellow,96,106,117,4193.078755,None,4193.078755,None,1,2.36730588,4193.078755,None,4195.482154,None,4195.996321,None,4195.996321,None,n,0.40980808,4195.996321,None,,,color10,1,2019_Dec_04_1238,ProdSingRedo,3.2.4,59.93632459
,,,,97,0,97,0,,,,,,,,,,,,,,,,,,,,,,,,4200.230894,None,,,,,,,,,,,,,,,,,shape,new_sing,yellow,97,110,282,4196.9631,None,4196.9631,None,2,1.730604806,4196.9631,None,4198.734426,None,4199.247303,None,4199.247303,None,n,0.942605142,4199.247303,None,,,color10,1,2019_Dec_04_1238,ProdSingRedo,3.2.4,59.93632459
,,,,98,0,98,0,,,,,,,,,,,,,,,,,,,,,,,,4202.865075,None,,,,,,,,,,,,,,,,,drove,silent,blue,98,69,106,4200.74766,None,4200.74766,None,3,1.313790776,4200.74766,None,4202.100524,None,4202.61498,None,4202.61498,None,f,0.214445436,4202.61498,None,,,color10,1,2019_Dec_04_1238,ProdSingRedo,3.2.4,59.93632459
,,,,99,0,99,0,,,,,,,,,,,,,,,,,,,,,,,,4206.616226,None,,,,,,,,,,,,,,,,,curve,aloud,red,99,50,82,4203.383833,None,4203.383833,None,6,1.453950507,4203.383833,None,4204.888086,None,4205.399066,None,4205.399066,None,r,1.174629052,4205.399066,None,,,color10,1,2019_Dec_04_1238,ProdSingRedo,3.2.4,59.93632459
,,,,100,0,100,0,,,,,,,,,,,,,,,,,,,,,,,,4209.333739,None,,,,,,,,,,,,,,,,,match,new_silent,blue,100,175,181,4207.132875,None,4207.132875,None,1,1.352241238,4207.132875,None,4208.536885,None,4209.050321,None,4209.050321,None,n,0.234721855,4209.050321,None,,,color10,1,2019_Dec_04_1238,ProdSingRedo,3.2.4,59.93632459
,,,,101,0,101,0,,,,,,,,,,,,,,,,,,,,,,,,4211.85116,None,,,,,,,,,,,,,,,,,answer,new_silent,blue,101,155,8,4209.850546,None,4209.850546,None,1,1.09084067,4209.850546,None,4210.984115,None,4211.501044,None,4211.501044,None,n,0.303759707,4211.501044,None,,,color10,1,2019_Dec_04_1238,ProdSingRedo,3.2.4,59.93632459
,,,,102,0,102,0,,,,,,,,,,,,,,,,,,,,,,,,4214.318591,None,,,,,,,,,,,,,,,,,watch,new_silent,blue,102,160,351,4212.367974,None,4212.367974,None,3,1.180800582,4212.367974,None,4213.58678,None,4214.101827,None,4214.101827,None,f,0.175246703,4214.101827,None,,,color10,1,2019_Dec_04_1238,ProdSingRedo,3.2.4,59.93632459
,,,,103,0,103,0,,,,,,,,,,,,,,,,,,,,,,,,4216.869366,None,,,,,,,,,,,,,,,,,position,new_sing,yellow,103,116,229,4214.835411,None,4214.835411,None,5,1.30586115,4214.835411,None,4216.190313,None,4216.702528,None,4216.702528,None,f,0.126343141,4216.702528,None,,,color10,1,2019_Dec_04_1238,ProdSingRedo,3.2.4,59.93632459
,,,,104,0,104,0,,,,,,,,,,,,,,,,,,,,,,,,4219.353464,None,,,,,,,,,,,,,,,,,hearing,sing,yellow,104,14,150,4217.386187,None,4217.386187,None,6,1.162241829,4217.386187,None,4218.591358,None,4219.1034,None,4219.1034,None,r,0.205677036,4219.1034,None,,,color10,1,2019_Dec_04_1238,ProdSingRedo,3.2.4,59.93632459
,,,,105,0,105,0,,,,,,,,,,,,,,,,,,,,,,,,4221.887611,None,,,,,,,,,,,,,,,,,marriage,new_silent,blue,105,159,179,4219.870287,None,4219.870287,None,4,1.310299464,4219.870287,None,4221.2262,None,4221.737548,None,4221.737548,None,f,0.114734979,4221.737548,None,,,color10,1,2019_Dec_04_1238,ProdSingRedo,3.2.4,59.93632459
,,,,106,0,106,0,,,,,,,,,,,,,,,,,,,,,,,,4224.771642,None,,,,,,,,,,,,,,,,,couch,aloud,red,106,52,70,4222.404235,None,4222.404235,None,5,1.224448204,4222.404235,None,4223.671337,None,4224.188276,None,4224.188276,None,f,0.543843242,4224.188276,None,,,color10,1,2019_Dec_04_1238,ProdSingRedo,3.2.4,59.93632459
,,,,107,0,107,0,,,,,,,,,,,,,,,,,,,,,,,,4227.50596,None,,,,,,,,,,,,,,,,,department,new_silent,blue,107,168,90,4225.28846,None,4225.28846,None,1,1.403457102,4225.28846,None,4226.74367,None,4227.255873,None,4227.255873,None,n,0.212067513,4227.255873,None,,,color10,1,2019_Dec_04_1238,ProdSingRedo,3.2.4,59.93632459
,,,,108,0,108,0,,,,,,,,,,,,,,,,,,,,,,,,4229.856698,None,,,,,,,,,,,,,,,,,author,new_sing,yellow,108,94,15,4228.022744,None,4228.022744,None,1,1.149014278,4228.022744,None,4229.21024,None,4229.723309,None,4229.723309,None,n,0.096501224,4229.723309,None,,,color10,1,2019_Dec_04_1238,ProdSingRedo,3.2.4,59.93632459
,,,,109,0,109,0,,,,,,,,,,,,,,,,,,,,,,,,4232.690865,None,,,,,,,,,,,,,,,,,guard,new_sing,yellow,109,98,145,4230.373519,None,4230.373519,None,3,1.670057318,4230.373519,None,4232.094961,None,4232.607538,None,4232.607538,None,f,0.03601718,4232.607538,None,,,color10,1,2019_Dec_04_1238,ProdSingRedo,3.2.4,59.93632459
,,,,110,0,110,0,,,,,,,,,,,,,,,,,,,,,,,,4235.925213,None,,,,,,,,,,,,,,,,,order,sing,yellow,110,15,207,4233.207562,None,4233.207562,None,3,1.131955178,4233.207562,None,4234.376538,None,4234.891581,None,4234.891581,None,f,0.99218731,4234.891581,None,,,color10,1,2019_Dec_04_1238,ProdSingRedo,3.2.4,59.93632459
,,,,111,0,111,0,,,,,,,,,,,,,,,,,,,,,,,,4238.325941,None,,,,,,,,,,,,,,,,,still,sing,yellow,111,22,304,4236.441882,None,4236.441882,None,3,0.889921037,4236.441882,None,4237.37644,None,4237.892477,None,4237.892477,None,f,0.398735465,4237.892477,None,,,color10,1,2019_Dec_04_1238,ProdSingRedo,3.2.4,59.93632459
,,,,112,0,112,0,,,,,,,,,,,,,,,,,,,,,,,,4240.943417,None,,,,,,,,,,,,,,,,,orchestra,new_sing,yellow,112,105,206,4238.842717,None,4238.842717,None,5,1.264462697,4238.842717,None,4240.148843,None,4240.659985,None,4240.659985,None,n,0.247128049,4240.659985,None,,,color10,1,2019_Dec_04_1238,ProdSingRedo,3.2.4,59.93632459
,,,,113,0,113,0,,,,,,,,,,,,,,,,,,,,,,,,4243.87766,None,,,,,,,,,,,,,,,,,hunger,new_silent,blue,113,171,155,4241.460111,None,4241.460111,None,6,1.47890409,4241.460111,None,4242.981433,None,4243.494211,None,4243.494211,None,f,0.341109221,4243.494211,None,,,color10,1,2019_Dec_04_1238,ProdSingRedo,3.2.4,59.93632459
,,,,114,0,114,0,,,,,,,,,,,,,,,,,,,,,,,,4247.612131,None,,,,,,,,,,,,,,,,,theme,new_sing,yellow,114,99,326,4244.394328,None,4244.394328,None,1,2.600514087,4244.394328,None,4247.03297,None,4247.545441,None,4247.545441,None,n,0.033352512,4247.545441,None,,,color10,1,2019_Dec_04_1238,ProdSingRedo,3.2.4,59.93632459
,,,,115,0,115,0,,,,,,,,,,,,,,,,,,,,,,,,4249.679419,None,,,,,,,,,,,,,,,,,travel,sing,yellow,115,1,338,4248.130351,None,4248.130351,None,1,0.832288573,4248.130351,None,4249.012426,None,4249.5127,None,4249.5127,None,n,0.129870219,4249.5127,None,,,color10,1,2019_Dec_04_1238,ProdSingRedo,3.2.4,59.93632459
,,,,116,0,116,0,,,,,,,,,,,,,,,,,,,,,,,,4253.914049,None,,,,,,,,,,,,,,,,,childhood,aloud,red,116,55,49,4250.196249,None,4250.196249,None,4,1.238142259,4250.196249,None,4251.479961,None,4251.996802,None,4251.996802,None,f,1.877674387,4251.996802,None,,,color10,1,2019_Dec_04_1238,ProdSingRedo,3.2.4,59.93632459
,,,,117,0,117,0,,,,,,,,,,,,,,,,,,,,,,,,4261.132942,None,,,,,,,,,,,,,,,,,empty,sing,yellow,117,20,112,4254.432168,None,4254.432168,None,1,5.313787044,4254.432168,None,4259.784952,None,4260.299211,None,4260.299211,None,n,0.798735776,4260.299211,None,,,color10,1,2019_Dec_04_1238,ProdSingRedo,3.2.4,59.93632459
,,,,118,0,118,0,,,,,,,,,,,,,,,,,,,,,,,,4264.834068,None,,,,,,,,,,,,,,,,,judge,sing,yellow,118,23,166,4261.649639,None,4261.649639,None,5,1.904032145,4261.649639,None,4263.607151,None,4264.117184,None,4264.117184,None,r,0.66847245,4264.117184,None,,,color10,1,2019_Dec_04_1238,ProdSingRedo,3.2.4,59.93632459
,,,,119,0,119,0,,,,,,,,,,,,,,,,,,,,,,,,4267.668269,None,,,,,,,,,,,,,,,,,guest,sing,yellow,119,13,146,4265.350894,None,4265.350894,None,6,1.491072989,4265.350894,None,4266.888057,None,4267.401543,None,4267.401543,None,r,0.231985035,4267.401543,None,,,color10,1,2019_Dec_04_1238,ProdSingRedo,3.2.4,59.93632459
,,,,120,0,120,0,,,,,,,,,,,,,,,,,,,,,,,,4270.452471,None,,,,,,,,,,,,,,,,,relation,new_silent,blue,120,150,257,4268.184976,None,4268.184976,None,1,1.568320059,4268.184976,None,4269.80419,None,4270.319078,None,4270.319078,None,n,0.098245014,4270.319078,None,,,color10,1,2019_Dec_04_1238,ProdSingRedo,3.2.4,59.93632459
,,,,121,0,121,0,,,,,,,,,,,,,,,,,,,,,,,,4273.103288,None,,,,,,,,,,,,,,,,,capital,aloud,red,121,40,40,4270.969134,None,4270.969134,None,6,1.448021248,4270.969134,None,4272.456658,None,4272.969907,None,4272.969907,None,r,0.087159958,4272.969907,None,,,color10,1,2019_Dec_04_1238,ProdSingRedo,3.2.4,59.93632459
,,,,122,0,122,0,,,,,,,,,,,,,,,,,,,,,,,,4277.187872,None,,,,,,,,,,,,,,,,,heavy,new_silent,blue,122,165,151,4273.620351,None,4273.620351,None,1,1.373133442,4273.620351,None,4275.043177,None,4275.554005,None,4275.554005,None,f,1.598909004,4275.554005,None,,,color10,1,2019_Dec_04_1238,ProdSingRedo,3.2.4,59.93632459
,,,,123,0,123,0,,,,,,,,,,,,,,,,,,,,,,,,4281.739169,None,,,,,,,,,,,,,,,,,chief,new_aloud,red,123,139,48,4277.704665,None,4277.704665,None,3,2.32800887,4277.704665,None,4280.075872,None,4280.588907,None,4280.588907,None,f,1.108159146,4280.588907,None,,,color10,1,2019_Dec_04_1238,ProdSingRedo,3.2.4,59.93632459
,,,,124,0,124,0,,,,,,,,,,,,,,,,,,,,,,,,4285.023574,None,,,,,,,,,,,,,,,,,express,sing,yellow,124,5,124,4282.255923,None,4282.255923,None,5,1.592913501,4282.255923,None,4283.894762,None,4284.406747,None,4284.406747,None,n,0.569609163,4284.406747,None,,,color10,1,2019_Dec_04_1238,ProdSingRedo,3.2.4,59.93632459
,,,,125,0,125,0,,,,,,,,,,,,,,,,,,,,,,,,4287.724436,None,,,,,,,,,,,,,,,,,spoke,new_silent,blue,125,170,300,4285.542117,None,4285.542117,None,1,1.090529046,4285.542117,None,4286.690627,None,4287.190934,None,4287.190934,None,n,0.497318538,4287.190934,None,,,color10,1,2019_Dec_04_1238,ProdSingRedo,3.2.4,59.93632459
,,,,126,0,126,0,,,,,,,,,,,,,,,,,,,,,,,,4290.525299,None,,,,,,,,,,,,,,,,,resistance,new_sing,yellow,126,117,262,4288.241246,None,4288.241246,None,4,1.559216088,4288.241246,None,4289.843344,None,4290.358544,None,4290.358544,None,n,0.129451298,4290.358544,None,,,color10,1,2019_Dec_04_1238,ProdSingRedo,3.2.4,59.93632459
,,,,127,0,127,0,,,,,,,,,,,,,,,,,,,,,,,,4293.009379,None,,,,,,,,,,,,,,,,,income,new_sing,yellow,127,114,159,4291.041946,None,4291.041946,None,6,1.294466958,4291.041946,None,4292.378889,None,4292.89267,None,4292.89267,None,r,0.075595647,4292.89267,None,,,color10,1,2019_Dec_04_1238,ProdSingRedo,3.2.4,59.93632459
,,,,128,0,128,0,,,,,,,,,,,,,,,,,,,,,,,,4296.943908,None,,,,,,,,,,,,,,,,,finish,new_silent,blue,128,176,130,4293.526041,None,4293.526041,None,3,1.626070703,4293.526041,None,4295.19682,None,4295.710211,None,4295.710211,None,n,1.193799547,4295.710211,None,,,color10,1,2019_Dec_04_1238,ProdSingRedo,3.2.4,59.93632459
,,,,129,0,129,0,,,,,,,,,,,,,,,,,,,,,,,,4300.094881,None,,,,,,,,,,,,,,,,,industry,silent,blue,129,79,161,4297.460782,None,4297.460782,None,6,1.938726321,4297.460782,None,4299.447242,None,4299.961481,None,4299.961481,None,r,0.08595669,4299.961481,None,,,color10,1,2019_Dec_04_1238,ProdSingRedo,3.2.4,59.93632459
,,,,130,0,130,0,,,,,,,,,,,,,,,,,,,,,,,,4302.545613,None,,,,,,,,,,,,,,,,,council,aloud,red,130,48,71,4300.611585,None,4300.611585,None,6,1.260150028,4300.611585,None,4301.916762,None,4302.428925,None,4302.428925,None,r,0.082547482,4302.428925,None,,,color10,1,2019_Dec_04_1238,ProdSingRedo,3.2.4,59.93632459
,,,,131,0,131,0,,,,,,,,,,,,,,,,,,,,,,,,4307.080432,None,,,,,,,,,,,,,,,,,pretty,new_silent,blue,131,153,233,4303.064228,None,4303.064228,None,3,2.623555316,4303.064228,None,4305.737568,None,4306.246603,None,4306.246603,None,n,0.800498848,4306.246603,None,,,color10,1,2019_Dec_04_1238,ProdSingRedo,3.2.4,59.93632459
,,,,132,0,132,0,,,,,,,,,,,,,,,,,,,,,,,,4309.931233,None,,,,,,,,,,,,,,,,,exchange,sing,yellow,132,3,121,4307.597124,None,4307.597124,None,3,1.129813616,4307.597124,None,4308.768601,None,4309.281029,None,4309.281029,None,f,0.613858264,4309.281029,None,,,color10,1,2019_Dec_04_1238,ProdSingRedo,3.2.4,59.93632459
,,,,133,0,133,0,,,,,,,,,,,,,,,,,,,,,,,,4313.982458,None,,,,,,,,,,,,,,,,,service,new_aloud,red,133,127,280,4310.449622,None,4310.449622,None,3,1.013212934,4310.449622,None,4311.502981,None,4312.015043,None,4312.015043,None,f,1.919539654,4312.015043,None,,,color10,1,2019_Dec_04_1238,ProdSingRedo,3.2.4,59.93632459
,,,,134,0,134,0,,,,,,,,,,,,,,,,,,,,,,,,4316.53327,None,,,,,,,,,,,,,,,,,mechanical,silent,blue,134,73,185,4314.49918,None,4314.49918,None,3,1.307908478,4314.49918,None,4315.852221,None,4316.366419,None,4316.366419,None,f,0.119989986,4316.366419,None,,,color10,1,2019_Dec_04_1238,ProdSingRedo,3.2.4,59.93632459
,,,,135,0,135,0,,,,,,,,,,,,,,,,,,,,,,,,4319.417455,None,,,,,,,,,,,,,,,,,center,new_aloud,red,135,148,44,4317.049926,None,4317.049926,None,6,1.636376076,4317.049926,None,4318.73422,None,4319.250779,None,4319.250779,None,r,0.131553674,4319.250779,None,,,color10,1,2019_Dec_04_1238,ProdSingRedo,3.2.4,59.93632459
,,,,136,0,136,0,,,,,,,,,,,,,,,,,,,,,,,,4322.001487,None,,,,,,,,,,,,,,,,,rapid,sing,yellow,136,19,252,4319.934152,None,4319.934152,None,1,1.319998072,4319.934152,None,4321.30445,None,4321.818234,None,4321.818234,None,n,0.147933856,4321.818234,None,,,color10,1,2019_Dec_04_1238,ProdSingRedo,3.2.4,59.93632459
,,,,137,0,137,0,,,,,,,,,,,,,,,,,,,,,,,,4324.23562,None,,,,,,,,,,,,,,,,,medicine,sing,yellow,137,18,186,4322.518303,None,4322.518303,None,1,1.040209802,4322.518303,None,4323.606692,None,4324.118919,None,4324.118919,None,n,0.079104686,4324.118919,None,,,color10,1,2019_Dec_04_1238,ProdSingRedo,3.2.4,59.93632459
,,,,138,0,138,0,,,,,,,,,,,,,,,,,,,,,,,,4326.653021,None,,,,,,,,,,,,,,,,,novel,silent,blue,138,65,202,4324.753934,None,4324.753934,None,2,1.204659126,4324.753934,None,4326.019339,None,4326.519693,None,4326.519693,None,n,0.086115301,4326.519693,None,,,color10,1,2019_Dec_04_1238,ProdSingRedo,3.2.4,59.93632459
,,,,139,0,139,0,,,,,,,,,,,,,,,,,,,,,,,,4329.220515,None,,,,,,,,,,,,,,,,,treatment,new_aloud,red,139,142,339,4327.16985,None,4327.16985,None,2,1.395916228,4327.16985,None,4328.60444,None,4329.120425,None,4329.120425,None,f,0.053222451,4329.120425,None,,,color10,1,2019_Dec_04_1238,ProdSingRedo,3.2.4,59.93632459
,,,,140,0,140,0,,,,,,,,,,,,,,,,,,,,,,,,4332.788247,None,,,,,,,,,,,,,,,,,level,new_aloud,red,140,136,170,4329.73816,None,4329.73816,None,4,2.187481845,4329.73816,None,4331.987865,None,4332.488113,None,4332.488113,None,f,0.253323526,4332.488113,None,,,color10,1,2019_Dec_04_1238,ProdSingRedo,3.2.4,59.93632459
,,,,141,0,141,0,,,,,,,,,,,,,,,,,,,,,,,,4335.589116,None,,,,,,,,,,,,,,,,,atmosphere,new_silent,blue,141,172,12,4333.304904,None,4333.304904,None,1,1.364486333,4333.304904,None,4334.710349,None,4335.222204,None,4335.222204,None,n,0.319075017,4335.222204,None,,,color10,1,2019_Dec_04_1238,ProdSingRedo,3.2.4,59.93632459
,,,,142,0,142,0,,,,,,,,,,,,,,,,,,,,,,,,4338.890119,None,,,,,,,,,,,,,,,,,majority,aloud,red,142,42,176,4336.109453,None,4336.109453,None,6,1.991707434,4336.109453,None,4338.144825,None,4338.656776,None,4338.656776,None,r,0.189585776,4338.656776,None,,,color10,1,2019_Dec_04_1238,ProdSingRedo,3.2.4,59.93632459
,,,,143,0,143,0,,,,,,,,,,,,,,,,,,,,,,,,4341.857695,None,,,,,,,,,,,,,,,,,household,sing,yellow,143,28,154,4339.40693,None,4339.40693,None,6,1.782050812,4339.40693,None,4341.227892,None,4341.740854,None,4341.740854,None,r,0.080094607,4341.740854,None,,,color10,1,2019_Dec_04_1238,ProdSingRedo,3.2.4,59.93632459
,,,,144,0,144,0,,,,,,,,,,,,,,,,,,,,,,,,4345.558822,None,,,,,,,,,,,,,,,,,evidence,silent,blue,144,81,120,4342.374394,None,4342.374394,None,6,1.230404521,4342.374394,None,4343.658057,None,4344.158374,None,4344.158374,None,r,1.358740254,4344.158374,None,,,color10,1,2019_Dec_04_1238,ProdSingRedo,3.2.4,59.93632459
,,,,145,0,145,0,,,,,,,,,,,,,,,,,,,,,,,,4348.192835,None,,,,,,,,,,,,,,,,,career,new_aloud,red,145,128,42,4346.077841,None,4346.077841,None,2,1.471295418,4346.077841,None,4347.593388,None,4348.109674,None,4348.109674,None,f,0.062649864,4348.109674,None,,,color10,1,2019_Dec_04_1238,ProdSingRedo,3.2.4,59.93632459
,,,,146,0,146,0,,,,,,,,,,,,,,,,,,,,,,,,4351.277224,None,,,,,,,,,,,,,,,,,congress,new_sing,yellow,146,119,67,4348.70978,None,4348.70978,None,1,1.791121194,4348.70978,None,4350.548609,None,4351.060494,None,4351.060494,None,n,0.18379709,4351.060494,None,,,color10,1,2019_Dec_04_1238,ProdSingRedo,3.2.4,59.93632459
,,,,147,0,147,0,,,,,,,,,,,,,,,,,,,,,,,,4353.577952,None,,,,,,,,,,,,,,,,,science,sing,yellow,147,24,275,4351.79398,None,4351.79398,None,1,1.146304204,4351.79398,None,4352.982761,None,4353.494414,None,4353.494414,None,n,0.045813442,4353.494414,None,,,color10,1,2019_Dec_04_1238,ProdSingRedo,3.2.4,59.93632459
,,,,148,0,148,0,,,,,,,,,,,,,,,,,,,,,,,,4356.46215,None,,,,,,,,,,,,,,,,,ground,sing,yellow,148,11,142,4354.094613,None,4354.094613,None,1,1.190062231,4354.094613,None,4355.328942,None,4355.845285,None,4355.845285,None,n,0.582874346,4355.845285,None,,,color10,1,2019_Dec_04_1238,ProdSingRedo,3.2.4,59.93632459
,,,,149,0,149,0,,,,,,,,,,,,,,,,,,,,,,,,4361.246966,None,,,,,,,,,,,,,,,,,corner,aloud,red,149,54,69,4356.978891,None,4356.978891,None,6,1.817115702,4356.978891,None,4358.833539,None,4359.346374,None,4359.346374,None,r,1.865323551,4359.346374,None,,,color10,1,2019_Dec_04_1238,ProdSingRedo,3.2.4,59.93632459
,,,,150,0,150,0,,,,,,,,,,,,,,,,,,,,,,,,4365.09812,None,,,,,,,,,,,,,,,,,attack,silent,blue,150,78,13,4361.764203,None,4361.764203,None,1,1.679426263,4361.764203,None,4363.486451,None,4363.997643,None,4363.997643,None,n,1.053825795,4363.997643,None,,,color10,1,2019_Dec_04_1238,ProdSingRedo,3.2.4,59.93632459
,,,,151,0,151,0,,,,,,,,,,,,,,,,,,,,,,,,4367.498868,None,,,,,,,,,,,,,,,,,executive,aloud,red,151,36,122,4365.616906,None,4365.616906,None,1,1.202461584,4365.616906,None,4366.881933,None,4367.381995,None,4367.381995,None,n,0.069330505,4367.381995,None,,,color10,1,2019_Dec_04_1238,ProdSingRedo,3.2.4,59.93632459
,,,,152,0,152,0,,,,,,,,,,,,,,,,,,,,,,,,4369.933001,None,,,,,,,,,,,,,,,,,opening,silent,blue,152,63,205,4368.015545,None,4368.015545,None,1,0.908173141,4368.015545,None,4368.970448,None,4369.48282,None,4369.48282,None,n,0.408736055,4369.48282,None,,,color10,1,2019_Dec_04_1238,ProdSingRedo,3.2.4,59.93632459
,,,,153,0,153,0,,,,,,,,,,,,,,,,,,,,,,,,4372.600443,None,,,,,,,,,,,,,,,,,education,new_aloud,red,153,141,108,4370.449617,None,4370.449617,None,6,1.241972563,4370.449617,None,4371.736688,None,4372.250189,None,4372.250189,None,f,0.304846971,4372.250189,None,,,color10,1,2019_Dec_04_1238,ProdSingRedo,3.2.4,59.93632459
,,,,154,0,154,0,,,,,,,,,,,,,,,,,,,,,,,,4375.301256,None,,,,,,,,,,,,,,,,,weight,aloud,red,154,31,353,4373.117094,None,4373.117094,None,6,1.397890471,4373.117094,None,4374.555271,None,4375.067871,None,4375.067871,None,r,0.191585832,4375.067871,None,,,color10,1,2019_Dec_04_1238,ProdSingRedo,3.2.4,59.93632459
,,,,155,0,155,0,,,,,,,,,,,,,,,,,,,,,,,,4378.135463,None,,,,,,,,,,,,,,,,,territory,silent,blue,155,62,324,4375.817916,None,4375.817916,None,6,1.696814714,4375.817916,None,4377.557405,None,4378.068642,None,4378.068642,None,f,0.022655587,4378.068642,None,,,color10,1,2019_Dec_04_1238,ProdSingRedo,3.2.4,59.93632459
,,,,156,0,156,0,,,,,,,,,,,,,,,,,,,,,,,,4380.702827,None,,,,,,,,,,,,,,,,,country,new_aloud,red,156,137,73,4378.652514,None,4378.652514,None,4,1.222576592,4378.652514,None,4379.925298,None,4380.436003,None,4380.436003,None,f,0.223073885,4380.436003,None,,,color10,1,2019_Dec_04_1238,ProdSingRedo,3.2.4,59.93632459
,,,,157,0,157,0,,,,,,,,,,,,,,,,,,,,,,,,4383.137002,None,,,,,,,,,,,,,,,,,article,new_sing,yellow,157,92,11,4381.219612,None,4381.219612,None,1,1.118842387,4381.219612,None,4382.387538,None,4382.903591,None,4382.903591,None,n,0.186761253,4382.903591,None,,,color10,1,2019_Dec_04_1238,ProdSingRedo,3.2.4,59.93632459
,,,,158,0,158,0,,,,,,,,,,,,,,,,,,,,,,,,4385.804498,None,,,,,,,,,,,,,,,,,grade,aloud,red,158,38,140,4383.653841,None,4383.653841,None,1,1.300492939,4383.653841,None,4384.991566,None,4385.504263,None,4385.504263,None,n,0.266124693,4385.504263,None,,,color10,1,2019_Dec_04_1238,ProdSingRedo,3.2.4,59.93632459
,,,,159,0,159,0,,,,,,,,,,,,,,,,,,,,,,,,4394.090365,None,,,,,,,,,,,,,,,,,material,sing,yellow,159,17,182,4386.321182,None,4386.321182,None,4,5.58483055,4386.321182,None,4391.944274,None,4392.456518,None,4392.456518,None,f,1.593540482,4392.456518,None,,,color10,1,2019_Dec_04_1238,ProdSingRedo,3.2.4,59.93632459
,,,,160,0,160,0,,,,,,,,,,,,,,,,,,,,,,,,4397.858186,None,,,,,,,,,,,,,,,,,running,sing,yellow,160,8,268,4394.607187,None,4394.607187,None,4,1.458789081,4394.607187,None,4396.112471,None,4396.624473,None,4396.624473,None,f,1.193367253,4396.624473,None,,,color10,1,2019_Dec_04_1238,ProdSingRedo,3.2.4,59.93632459
,,,,161,0,161,0,,,,,,,,,,,,,,,,,,,,,,,,4400.675733,None,,,,,,,,,,,,,,,,,plane,aloud,red,161,53,223,4398.374801,None,4398.374801,None,1,1.650735987,4398.374801,None,4400.058967,None,4400.575719,None,4400.575719,None,n,0.06575771,4400.575719,None,,,color10,1,2019_Dec_04_1238,ProdSingRedo,3.2.4,59.93632459
,,,,162,0,162,0,,,,,,,,,,,,,,,,,,,,,,,,4403.726654,None,,,,,,,,,,,,,,,,,problem,silent,blue,162,70,238,4401.194537,None,4401.194537,None,1,0.75873279,4401.194537,None,4402.00927,None,4402.509456,None,4402.509456,None,n,1.171782447,4402.509456,None,,,color10,1,2019_Dec_04_1238,ProdSingRedo,3.2.4,59.93632459
,,,,163,0,163,0,,,,,,,,,,,,,,,,,,,,,,,,4407.594501,None,,,,,,,,,,,,,,,,,stand,new_sing,yellow,163,109,302,4404.243471,None,4404.243471,None,3,2.629503858,4404.243471,None,4406.914271,None,4407.427803,None,4407.427803,None,f,0.125538889,4407.427803,None,,,color10,1,2019_Dec_04_1238,ProdSingRedo,3.2.4,59.93632459
,,,,164,0,164,0,,,,,,,,,,,,,,,,,,,,,,,,4410.778822,None,,,,,,,,,,,,,,,,,tough,silent,blue,164,61,333,4408.111329,None,4408.111329,None,6,1.385500761,4408.111329,None,4409.548102,None,4410.061905,None,4410.061905,None,r,0.675140029,4410.061905,None,,,color10,1,2019_Dec_04_1238,ProdSingRedo,3.2.4,59.93632459
,,,,165,0,165,0,,,,,,,,,,,,,,,,,,,,,,,,4413.546301,None,,,,,,,,,,,,,,,,,voice,new_silent,blue,165,178,348,4411.296391,None,4411.296391,None,3,1.44827938,4411.296391,None,4412.785659,None,4413.296255,None,4413.296255,None,n,0.208764357,4413.296255,None,,,color10,1,2019_Dec_04_1238,ProdSingRedo,3.2.4,59.93632459
,,,,166,0,166,0,,,,,,,,,,,,,,,,,,,,,,,,4416.363867,None,,,,,,,,,,,,,,,,,story,sing,yellow,166,25,306,4414.063073,None,4414.063073,None,3,1.113369679,4414.063073,None,4415.220879,None,4415.730324,None,4415.730324,None,f,0.598082049,4415.730324,None,,,color10,1,2019_Dec_04_1238,ProdSingRedo,3.2.4,59.93632459
,,,,167,0,167,0,,,,,,,,,,,,,,,,,,,,,,,,4418.714583,None,,,,,,,,,,,,,,,,,junior,aloud,red,167,45,167,4416.881296,None,4416.881296,None,6,1.183107909,4416.881296,None,4418.114269,None,4418.614548,None,4418.614548,None,r,0.058116383,4418.614548,None,,,color10,1,2019_Dec_04_1238,ProdSingRedo,3.2.4,59.93632459
,,,,168,0,168,0,,,,,,,,,,,,,,,,,,,,,,,,4422.915842,None,,,,,,,,,,,,,,,,,series,sing,yellow,168,12,279,4419.231395,None,4419.231395,None,3,2.24119879,4419.231395,None,4421.519203,None,4422.032264,None,4422.032264,None,f,0.840135473,4422.032264,None,,,color10,1,2019_Dec_04_1238,ProdSingRedo,3.2.4,59.93632459
,,,,169,0,169,0,,,,,,,,,,,,,,,,,,,,,,,,4425.499977,None,,,,,,,,,,,,,,,,,enemy,new_sing,yellow,169,113,113,4423.437996,None,4423.437996,None,1,1.129931175,4423.437996,None,4424.622588,None,4425.133082,None,4425.133082,None,n,0.323381155,4425.133082,None,,,color10,1,2019_Dec_04_1238,ProdSingRedo,3.2.4,59.93632459
,,,,170,0,170,0,,,,,,,,,,,,,,,,,,,,,,,,4427.51862,None,,,,,,,,,,,,,,,,,public,new_aloud,red,170,147,244,4426.019291,None,4426.019291,None,1,0.884382707,4426.019291,None,4426.967004,None,4427.467103,None,4427.467103,None,n,0.021175215,4427.467103,None,,,color10,1,2019_Dec_04_1238,ProdSingRedo,3.2.4,59.93632459
,,,,171,0,171,0,,,,,,,,,,,,,,,,,,,,,,,,4430.401507,None,,,,,,,,,,,,,,,,,fellow,new_sing,yellow,171,112,126,4428.050781,None,4428.050781,None,1,0.844852756,4428.050781,None,4428.938308,None,4429.451059,None,4429.451059,None,n,0.908832155,4429.451059,None,,,color10,1,2019_Dec_04_1238,ProdSingRedo,3.2.4,59.93632459
,,,,172,0,172,0,,,,,,,,,,,,,,,,,,,,,,,,4432.835598,None,,,,,,,,,,,,,,,,,session,new_sing,yellow,172,107,281,4430.918186,None,4430.918186,None,1,1.129202808,4430.918186,None,4432.090132,None,4432.602161,None,4432.602161,None,n,0.197178587,4432.602161,None,,,color10,1,2019_Dec_04_1238,ProdSingRedo,3.2.4,59.93632459
,,,,173,0,173,0,,,,,,,,,,,,,,,,,,,,,,,,4435.219646,None,,,,,,,,,,,,,,,,,revolution,new_aloud,red,173,122,264,4433.353589,None,4433.353589,None,1,1.054177228,4433.353589,None,4434.469307,None,4434.969496,None,4434.969496,None,n,0.206318323,4434.969496,None,,,color10,1,2019_Dec_04_1238,ProdSingRedo,3.2.4,59.93632459
,,,,174,0,174,0,,,,,,,,,,,,,,,,,,,,,,,,4441.821662,None,,,,,,,,,,,,,,,,,incident,new_sing,yellow,174,103,158,4435.736468,None,4435.736468,None,1,4.598465825,4435.736468,None,4440.373686,None,4440.887922,None,4440.887922,None,n,0.894941547,4440.887922,None,,,color10,1,2019_Dec_04_1238,ProdSingRedo,3.2.4,59.93632459
,,,,175,0,175,0,,,,,,,,,,,,,,,,,,,,,,,,4444.489144,None,,,,,,,,,,,,,,,,,reading,new_silent,blue,175,161,254,4442.338505,None,4442.338505,None,6,1.276540783,4442.338505,None,4443.66006,None,4444.17239,None,4444.17239,None,f,0.282380163,4444.17239,None,,,color10,1,2019_Dec_04_1238,ProdSingRedo,3.2.4,59.93632459
,,,,176,0,176,0,,,,,,,,,,,,,,,,,,,,,,,,4447.023249,None,,,,,,,,,,,,,,,,,population,silent,blue,176,89,227,4445.005971,None,4445.005971,None,1,1.328585157,4445.005971,None,4446.374511,None,4446.889869,None,4446.889869,None,n,0.084596055,4446.889869,None,,,color10,1,2019_Dec_04_1238,ProdSingRedo,3.2.4,59.93632459
,,,,177,0,177,0,,,,,,,,,,,,,,,,,,,,,,,,4449.590713,None,,,,,,,,,,,,,,,,,management,sing,yellow,177,9,177,4447.539945,None,4447.539945,None,1,1.139163901,4447.539945,None,4448.728622,None,4449.240613,None,4449.240613,None,n,0.301686255,4449.240613,None,,,color10,1,2019_Dec_04_1238,ProdSingRedo,3.2.4,59.93632459
,,,,178,0,178,0,,,,,,,,,,,,,,,,,,,,,,,,4452.058126,None,,,,,,,,,,,,,,,,,debate,new_sing,yellow,178,101,87,4450.110056,None,4450.110056,None,3,1.168127237,4450.110056,None,4451.327248,None,4451.841398,None,4451.841398,None,f,0.17335612,4451.841398,None,,,color10,1,2019_Dec_04_1238,ProdSingRedo,3.2.4,59.93632459
,,,,179,0,179,0,,,,,,,,,,,,,,,,,,,,,,,,4454.942349,None,,,,,,,,,,,,,,,,,breath,aloud,red,179,41,27,4452.57531,None,4452.57531,None,6,1.478799593,4452.57531,None,4454.099123,None,4454.608904,None,4454.608904,None,r,0.293468329,4454.608904,None,,,color10,1,2019_Dec_04_1238,ProdSingRedo,3.2.4,59.93632459
,,,,,,,,,,,,,,,,,,,,,,,,,,,,,,,,,,,,,,,,,,,,,,,,,,,,,,,,,,,,,,,,,,,,,,,,,4455.442541,None,,,,,,
