StudyLoop.thisRepN,StudyLoop.thisTrialN,StudyLoop.thisN,StudyLoop.thisIndex,TestLoop.thisRepN,TestLoop.thisTrialN,TestLoop.thisN,TestLoop.thisIndex,textCondition.started,textCondition.stopped,keyCondition.keys,keyCondition.rt,keyCondition.started,keyCondition.stopped,Condition,stim_colors,color_sing,color_aloud,color_silent,textWelcome.started,textWelcome.stopped,keyWelcome.keys,keyWelcome.rt,keyWelcome.started,keyWelcome.stopped,textAloud.started,textAloud.stopped,textSilent.started,textSilent.stopped,textSing.started,textSing.stopped,textBlank500.started,textBlank500.stopped,study_word,study_type,study_color,study_num,study_word_num,textStudy.started,textStudy.stopped,keyStudy.keys,keyStudy.started,keyStudy.stopped,textTestInstructions.started,textTestInstructions.stopped,key_resp_3.keys,key_resp_3.rt,key_resp_3.started,key_resp_3.stopped,testWord,testType,testColor,testN,test_num,test_word_num,textConf.started,textConf.stopped,textConfScale.started,textConfScale.stopped,keyConf.keys,keyConf.rt,keyConf.started,keyConf.stopped,textTestBlank.started,textTestBlank.stopped,textRKN.started,textRKN.stopped,textRKNScale.started,textRKNScale.stopped,keyRKN.keys,keyRKN.rt,keyRKN.started,keyRKN.stopped,textEnd.started,textEnd.stopped,participant,session,date,expName,psychopyVersion,frameRate,
,,,,,,,,23.861050199950114,None,y,1.8575270001310855,23.861050199950114,None,,,,,,,,,,,,,,,,,,,,,,,,,,,,,,,,,,,,,,,,,,,,,,,,,,,,,,,,,,,,,,color16,001,2021_Nov_01_1352,ProdSingRedo,3.2.3,59.89935715659874,
,,,,,,,,,,,,,,ColoredTest,"['red', 'yellow', 'blue']",red,yellow,blue,25.78291549999267,None,space,713.4085215998348,25.78291549999267,None,,,,,,,,,,,,,,,,,,,,,,,,,,,,,,,,,,,,,,,,,,,,,,,,,,,color16,001,2021_Nov_01_1352,ProdSingRedo,3.2.3,59.89935715659874,
0,0,0,0,,,,,,,,,,,,,,,,,,,,,,25.78291549999267,None,25.78291549999267,None,25.78291549999267,None,741.7286443999037,None,weather,silent,blue,67,352,739.7290759999305,None,None,739.7290759999305,None,,,,,,,,,,,,,,,,,,,,,,,,,,,,,,,,,color16,001,2021_Nov_01_1352,ProdSingRedo,3.2.3,59.89935715659874,
1,0,1,0,,,,,,,,,,,,,,,,,,,,,,,,,,,,744.248099300079,None,answer,silent,blue,74,8,742.2412705000024,None,None,742.2412705000024,None,,,,,,,,,,,,,,,,,,,,,,,,,,,,,,,,,color16,001,2021_Nov_01_1352,ProdSingRedo,3.2.3,59.89935715659874,
2,0,2,0,,,,,,,,,,,,,,,,,,,,,,,,,,,,746.7672655000351,None,debate,sing,red,5,87,744.767533000093,None,None,744.767533000093,None,,,,,,,,,,,,,,,,,,,,,,,,,,,,,,,,,color16,001,2021_Nov_01_1352,ProdSingRedo,3.2.3,59.89935715659874,
3,0,3,0,,,,,,,,,,,,,,,,,,,,,,,,,,,,749.2864367999136,None,voice,sing,red,17,348,747.2867443000432,None,None,747.2867443000432,None,,,,,,,,,,,,,,,,,,,,,,,,,,,,,,,,,color16,001,2021_Nov_01_1352,ProdSingRedo,3.2.3,59.89935715659874,
4,0,4,0,,,,,,,,,,,,,,,,,,,,,,,,,,,,751.8056584000587,None,solution,aloud,yellow,58,294,749.7982201001141,None,None,749.7982201001141,None,,,,,,,,,,,,,,,,,,,,,,,,,,,,,,,,,color16,001,2021_Nov_01_1352,ProdSingRedo,3.2.3,59.89935715659874,
5,0,5,0,,,,,,,,,,,,,,,,,,,,,,,,,,,,754.3248469999526,None,block,sing,red,23,25,752.3213378998917,None,None,752.3213378998917,None,,,,,,,,,,,,,,,,,,,,,,,,,,,,,,,,,color16,001,2021_Nov_01_1352,ProdSingRedo,3.2.3,59.89935715659874,
6,0,6,0,,,,,,,,,,,,,,,,,,,,,,,,,,,,756.8437552000396,None,concern,sing,red,20,65,754.8337777999695,None,None,754.8337777999695,None,,,,,,,,,,,,,,,,,,,,,,,,,,,,,,,,,color16,001,2021_Nov_01_1352,ProdSingRedo,3.2.3,59.89935715659874,
7,0,7,0,,,,,,,,,,,,,,,,,,,,,,,,,,,,759.3632408000994,None,front,sing,red,1,134,757.3583881000523,None,None,757.3583881000523,None,,,,,,,,,,,,,,,,,,,,,,,,,,,,,,,,,color16,001,2021_Nov_01_1352,ProdSingRedo,3.2.3,59.89935715659874,
8,0,8,0,,,,,,,,,,,,,,,,,,,,,,,,,,,,761.8823706000112,None,minor,aloud,yellow,34,191,759.8706980999559,None,None,759.8706980999559,None,,,,,,,,,,,,,,,,,,,,,,,,,,,,,,,,,color16,001,2021_Nov_01_1352,ProdSingRedo,3.2.3,59.89935715659874,
9,0,9,0,,,,,,,,,,,,,,,,,,,,,,,,,,,,764.4015701001044,None,material,silent,blue,88,182,762.3946124999784,None,None,762.3946124999784,None,,,,,,,,,,,,,,,,,,,,,,,,,,,,,,,,,color16,001,2021_Nov_01_1352,ProdSingRedo,3.2.3,59.89935715659874,
10,0,10,0,,,,,,,,,,,,,,,,,,,,,,,,,,,,766.9207655999344,None,rural,aloud,yellow,46,269,764.912334700115,None,None,764.912334700115,None,,,,,,,,,,,,,,,,,,,,,,,,,,,,,,,,,color16,001,2021_Nov_01_1352,ProdSingRedo,3.2.3,59.89935715659874,
11,0,11,0,,,,,,,,,,,,,,,,,,,,,,,,,,,,769.4399176000152,None,throw,sing,red,10,330,767.4325880999677,None,None,767.4325880999677,None,,,,,,,,,,,,,,,,,,,,,,,,,,,,,,,,,color16,001,2021_Nov_01_1352,ProdSingRedo,3.2.3,59.89935715659874,
12,0,12,0,,,,,,,,,,,,,,,,,,,,,,,,,,,,771.9588502999395,None,quiet,aloud,yellow,35,249,769.9565860000439,None,None,769.9565860000439,None,,,,,,,,,,,,,,,,,,,,,,,,,,,,,,,,,color16,001,2021_Nov_01_1352,ProdSingRedo,3.2.3,59.89935715659874,
13,0,13,0,,,,,,,,,,,,,,,,,,,,,,,,,,,,774.4783129000571,None,narrow,silent,blue,78,197,772.4711623000912,None,None,772.4711623000912,None,,,,,,,,,,,,,,,,,,,,,,,,,,,,,,,,,color16,001,2021_Nov_01_1352,ProdSingRedo,3.2.3,59.89935715659874,
14,0,14,0,,,,,,,,,,,,,,,,,,,,,,,,,,,,776.9975477999542,None,emergency,silent,blue,73,110,774.9994409000501,None,None,774.9994409000501,None,,,,,,,,,,,,,,,,,,,,,,,,,,,,,,,,,color16,001,2021_Nov_01_1352,ProdSingRedo,3.2.3,59.89935715659874,
15,0,15,0,,,,,,,,,,,,,,,,,,,,,,,,,,,,779.516723100096,None,force,silent,blue,79,131,777.5078900998924,None,None,777.5078900998924,None,,,,,,,,,,,,,,,,,,,,,,,,,,,,,,,,,color16,001,2021_Nov_01_1352,ProdSingRedo,3.2.3,59.89935715659874,
16,0,16,0,,,,,,,,,,,,,,,,,,,,,,,,,,,,782.035926700104,None,oxygen,sing,red,14,209,780.030246600043,None,None,780.030246600043,None,,,,,,,,,,,,,,,,,,,,,,,,,,,,,,,,,color16,001,2021_Nov_01_1352,ProdSingRedo,3.2.3,59.89935715659874,
17,0,17,0,,,,,,,,,,,,,,,,,,,,,,,,,,,,784.555115000112,None,childhood,silent,blue,83,49,782.544259400107,None,None,782.544259400107,None,,,,,,,,,,,,,,,,,,,,,,,,,,,,,,,,,color16,001,2021_Nov_01_1352,ProdSingRedo,3.2.3,59.89935715659874,
18,0,18,0,,,,,,,,,,,,,,,,,,,,,,,,,,,,787.0742420000024,None,store,sing,red,15,305,785.0633940000553,None,None,785.0633940000553,None,,,,,,,,,,,,,,,,,,,,,,,,,,,,,,,,,color16,001,2021_Nov_01_1352,ProdSingRedo,3.2.3,59.89935715659874,
19,0,19,0,,,,,,,,,,,,,,,,,,,,,,,,,,,,789.5934091999661,None,agreement,sing,red,25,5,787.584019199945,None,None,787.584019199945,None,,,,,,,,,,,,,,,,,,,,,,,,,,,,,,,,,color16,001,2021_Nov_01_1352,ProdSingRedo,3.2.3,59.89935715659874,
20,0,20,0,,,,,,,,,,,,,,,,,,,,,,,,,,,,792.1126631000079,None,curve,silent,blue,63,82,790.108585299924,None,None,790.108585299924,None,,,,,,,,,,,,,,,,,,,,,,,,,,,,,,,,,color16,001,2021_Nov_01_1352,ProdSingRedo,3.2.3,59.89935715659874,
21,0,21,0,,,,,,,,,,,,,,,,,,,,,,,,,,,,794.6317873001099,None,balance,sing,red,24,17,792.6262085998897,None,None,792.6262085998897,None,,,,,,,,,,,,,,,,,,,,,,,,,,,,,,,,,color16,001,2021_Nov_01_1352,ProdSingRedo,3.2.3,59.89935715659874,
22,0,22,0,,,,,,,,,,,,,,,,,,,,,,,,,,,,797.1509809000418,None,corner,aloud,yellow,31,69,795.1392192000058,None,None,795.1392192000058,None,,,,,,,,,,,,,,,,,,,,,,,,,,,,,,,,,color16,001,2021_Nov_01_1352,ProdSingRedo,3.2.3,59.89935715659874,
23,0,23,0,,,,,,,,,,,,,,,,,,,,,,,,,,,,799.6701613999903,None,error,silent,blue,75,117,797.6578885000199,None,None,797.6578885000199,None,,,,,,,,,,,,,,,,,,,,,,,,,,,,,,,,,color16,001,2021_Nov_01_1352,ProdSingRedo,3.2.3,59.89935715659874,
24,0,24,0,,,,,,,,,,,,,,,,,,,,,,,,,,,,802.1893011999782,None,platform,sing,red,9,224,800.1850533999968,None,None,800.1850533999968,None,,,,,,,,,,,,,,,,,,,,,,,,,,,,,,,,,color16,001,2021_Nov_01_1352,ProdSingRedo,3.2.3,59.89935715659874,
25,0,25,0,,,,,,,,,,,,,,,,,,,,,,,,,,,,804.708583700005,None,silence,aloud,yellow,49,288,802.6978309999686,None,None,802.6978309999686,None,,,,,,,,,,,,,,,,,,,,,,,,,,,,,,,,,color16,001,2021_Nov_01_1352,ProdSingRedo,3.2.3,59.89935715659874,
26,0,26,0,,,,,,,,,,,,,,,,,,,,,,,,,,,,807.2278146999888,None,marriage,aloud,yellow,52,179,805.2225671999622,None,None,805.2225671999622,None,,,,,,,,,,,,,,,,,,,,,,,,,,,,,,,,,color16,001,2021_Nov_01_1352,ProdSingRedo,3.2.3,59.89935715659874,
27,0,27,0,,,,,,,,,,,,,,,,,,,,,,,,,,,,809.7468938000966,None,youth,aloud,yellow,40,359,807.7436611999292,None,None,807.7436611999292,None,,,,,,,,,,,,,,,,,,,,,,,,,,,,,,,,,color16,001,2021_Nov_01_1352,ProdSingRedo,3.2.3,59.89935715659874,
28,0,28,0,,,,,,,,,,,,,,,,,,,,,,,,,,,,812.2660616000649,None,design,aloud,yellow,30,91,810.2611475000158,None,None,810.2611475000158,None,,,,,,,,,,,,,,,,,,,,,,,,,,,,,,,,,color16,001,2021_Nov_01_1352,ProdSingRedo,3.2.3,59.89935715659874,
29,0,29,0,,,,,,,,,,,,,,,,,,,,,,,,,,,,814.785281999968,None,music,aloud,yellow,42,196,812.7786165000871,None,None,812.7786165000871,None,,,,,,,,,,,,,,,,,,,,,,,,,,,,,,,,,color16,001,2021_Nov_01_1352,ProdSingRedo,3.2.3,59.89935715659874,
30,0,30,0,,,,,,,,,,,,,,,,,,,,,,,,,,,,817.3043569000438,None,citizen,aloud,yellow,39,50,815.3051849999465,None,None,815.3051849999465,None,,,,,,,,,,,,,,,,,,,,,,,,,,,,,,,,,color16,001,2021_Nov_01_1352,ProdSingRedo,3.2.3,59.89935715659874,
31,0,31,0,,,,,,,,,,,,,,,,,,,,,,,,,,,,819.8234131000936,None,build,sing,red,22,35,817.8143625000957,None,None,817.8143625000957,None,,,,,,,,,,,,,,,,,,,,,,,,,,,,,,,,,color16,001,2021_Nov_01_1352,ProdSingRedo,3.2.3,59.89935715659874,
32,0,32,0,,,,,,,,,,,,,,,,,,,,,,,,,,,,822.3261885000393,None,company,sing,red,12,64,820.3251716999803,None,None,820.3251716999803,None,,,,,,,,,,,,,,,,,,,,,,,,,,,,,,,,,color16,001,2021_Nov_01_1352,ProdSingRedo,3.2.3,59.89935715659874,
33,0,33,0,,,,,,,,,,,,,,,,,,,,,,,,,,,,824.8454056000337,None,position,silent,blue,68,229,822.8365619999822,None,None,822.8365619999822,None,,,,,,,,,,,,,,,,,,,,,,,,,,,,,,,,,color16,001,2021_Nov_01_1352,ProdSingRedo,3.2.3,59.89935715659874,
34,0,34,0,,,,,,,,,,,,,,,,,,,,,,,,,,,,827.3645275000017,None,tennis,aloud,yellow,53,323,825.3528245999478,None,None,825.3528245999478,None,,,,,,,,,,,,,,,,,,,,,,,,,,,,,,,,,color16,001,2021_Nov_01_1352,ProdSingRedo,3.2.3,59.89935715659874,
35,0,35,0,,,,,,,,,,,,,,,,,,,,,,,,,,,,829.883825100027,None,patient,silent,blue,84,213,827.8767884999979,None,None,827.8767884999979,None,,,,,,,,,,,,,,,,,,,,,,,,,,,,,,,,,color16,001,2021_Nov_01_1352,ProdSingRedo,3.2.3,59.89935715659874,
36,0,36,0,,,,,,,,,,,,,,,,,,,,,,,,,,,,832.4028670000844,None,health,aloud,yellow,36,149,830.3946310000028,None,None,830.3946310000028,None,,,,,,,,,,,,,,,,,,,,,,,,,,,,,,,,,color16,001,2021_Nov_01_1352,ProdSingRedo,3.2.3,59.89935715659874,
37,0,37,0,,,,,,,,,,,,,,,,,,,,,,,,,,,,834.922112399945,None,course,silent,blue,82,74,832.9170947999228,None,None,832.9170947999228,None,,,,,,,,,,,,,,,,,,,,,,,,,,,,,,,,,color16,001,2021_Nov_01_1352,ProdSingRedo,3.2.3,59.89935715659874,
38,0,38,0,,,,,,,,,,,,,,,,,,,,,,,,,,,,837.4412696999498,None,appeal,sing,red,11,9,835.436029799981,None,None,835.436029799981,None,,,,,,,,,,,,,,,,,,,,,,,,,,,,,,,,,color16,001,2021_Nov_01_1352,ProdSingRedo,3.2.3,59.89935715659874,
39,0,39,0,,,,,,,,,,,,,,,,,,,,,,,,,,,,839.9604370000307,None,bucket,sing,red,0,33,837.956582600018,None,None,837.956582600018,None,,,,,,,,,,,,,,,,,,,,,,,,,,,,,,,,,color16,001,2021_Nov_01_1352,ProdSingRedo,3.2.3,59.89935715659874,
40,0,40,0,,,,,,,,,,,,,,,,,,,,,,,,,,,,842.4796062000096,None,series,aloud,yellow,47,279,840.4679012000561,None,None,840.4679012000561,None,,,,,,,,,,,,,,,,,,,,,,,,,,,,,,,,,color16,001,2021_Nov_01_1352,ProdSingRedo,3.2.3,59.89935715659874,
41,0,41,0,,,,,,,,,,,,,,,,,,,,,,,,,,,,844.9987906001043,None,mechanical,silent,blue,85,185,842.9971769000404,None,None,842.9971769000404,None,,,,,,,,,,,,,,,,,,,,,,,,,,,,,,,,,color16,001,2021_Nov_01_1352,ProdSingRedo,3.2.3,59.89935715659874,
42,0,42,0,,,,,,,,,,,,,,,,,,,,,,,,,,,,847.5179204999004,None,general,silent,blue,69,135,845.5120117999613,None,None,845.5120117999613,None,,,,,,,,,,,,,,,,,,,,,,,,,,,,,,,,,color16,001,2021_Nov_01_1352,ProdSingRedo,3.2.3,59.89935715659874,
43,0,43,0,,,,,,,,,,,,,,,,,,,,,,,,,,,,850.0372387999669,None,bright,sing,red,18,29,848.0307915001176,None,None,848.0307915001176,None,,,,,,,,,,,,,,,,,,,,,,,,,,,,,,,,,color16,001,2021_Nov_01_1352,ProdSingRedo,3.2.3,59.89935715659874,
44,0,44,0,,,,,,,,,,,,,,,,,,,,,,,,,,,,852.5566922000144,None,foundation,aloud,yellow,59,132,850.5460129999556,None,None,850.5460129999556,None,,,,,,,,,,,,,,,,,,,,,,,,,,,,,,,,,color16,001,2021_Nov_01_1352,ProdSingRedo,3.2.3,59.89935715659874,
45,0,45,0,,,,,,,,,,,,,,,,,,,,,,,,,,,,855.0755525000859,None,personnel,silent,blue,71,219,853.066453400068,None,None,853.066453400068,None,,,,,,,,,,,,,,,,,,,,,,,,,,,,,,,,,color16,001,2021_Nov_01_1352,ProdSingRedo,3.2.3,59.89935715659874,
46,0,46,0,,,,,,,,,,,,,,,,,,,,,,,,,,,,857.5947461999021,None,education,silent,blue,70,108,855.5945031999145,None,None,855.5945031999145,None,,,,,,,,,,,,,,,,,,,,,,,,,,,,,,,,,color16,001,2021_Nov_01_1352,ProdSingRedo,3.2.3,59.89935715659874,
47,0,47,0,,,,,,,,,,,,,,,,,,,,,,,,,,,,860.1139305001125,None,point,silent,blue,76,226,858.1068273999263,None,None,858.1068273999263,None,,,,,,,,,,,,,,,,,,,,,,,,,,,,,,,,,color16,001,2021_Nov_01_1352,ProdSingRedo,3.2.3,59.89935715659874,
48,0,48,0,,,,,,,,,,,,,,,,,,,,,,,,,,,,862.6330726998858,None,shock,aloud,yellow,55,284,860.6231603000779,None,None,860.6231603000779,None,,,,,,,,,,,,,,,,,,,,,,,,,,,,,,,,,color16,001,2021_Nov_01_1352,ProdSingRedo,3.2.3,59.89935715659874,
49,0,49,0,,,,,,,,,,,,,,,,,,,,,,,,,,,,865.1522816000506,None,cover,aloud,yellow,57,77,863.1467947999481,None,None,863.1467947999481,None,,,,,,,,,,,,,,,,,,,,,,,,,,,,,,,,,color16,001,2021_Nov_01_1352,ProdSingRedo,3.2.3,59.89935715659874,
50,0,50,0,,,,,,,,,,,,,,,,,,,,,,,,,,,,867.6714677999262,None,spoke,sing,red,8,300,865.6613642999437,None,None,865.6613642999437,None,,,,,,,,,,,,,,,,,,,,,,,,,,,,,,,,,color16,001,2021_Nov_01_1352,ProdSingRedo,3.2.3,59.89935715659874,
51,0,51,0,,,,,,,,,,,,,,,,,,,,,,,,,,,,870.1906709999312,None,escape,aloud,yellow,32,118,868.182651600102,None,None,868.182651600102,None,,,,,,,,,,,,,,,,,,,,,,,,,,,,,,,,,color16,001,2021_Nov_01_1352,ProdSingRedo,3.2.3,59.89935715659874,
52,0,52,0,,,,,,,,,,,,,,,,,,,,,,,,,,,,872.7098304999527,None,impact,silent,blue,81,157,870.7045535000507,None,None,870.7045535000507,None,,,,,,,,,,,,,,,,,,,,,,,,,,,,,,,,,color16,001,2021_Nov_01_1352,ProdSingRedo,3.2.3,59.89935715659874,
53,0,53,0,,,,,,,,,,,,,,,,,,,,,,,,,,,,875.2290447999258,None,household,sing,red,2,154,873.2238660999574,None,None,873.2238660999574,None,,,,,,,,,,,,,,,,,,,,,,,,,,,,,,,,,color16,001,2021_Nov_01_1352,ProdSingRedo,3.2.3,59.89935715659874,
54,0,54,0,,,,,,,,,,,,,,,,,,,,,,,,,,,,877.7481881999411,None,property,sing,red,26,242,875.7414551000111,None,None,875.7414551000111,None,,,,,,,,,,,,,,,,,,,,,,,,,,,,,,,,,color16,001,2021_Nov_01_1352,ProdSingRedo,3.2.3,59.89935715659874,
55,0,55,0,,,,,,,,,,,,,,,,,,,,,,,,,,,,880.2674104999751,None,listen,aloud,yellow,45,172,878.2557139999699,None,None,878.2557139999699,None,,,,,,,,,,,,,,,,,,,,,,,,,,,,,,,,,color16,001,2021_Nov_01_1352,ProdSingRedo,3.2.3,59.89935715659874,
56,0,56,0,,,,,,,,,,,,,,,,,,,,,,,,,,,,882.7866036000196,None,permit,silent,blue,65,218,880.7740193998907,None,None,880.7740193998907,None,,,,,,,,,,,,,,,,,,,,,,,,,,,,,,,,,color16,001,2021_Nov_01_1352,ProdSingRedo,3.2.3,59.89935715659874,
57,0,57,0,,,,,,,,,,,,,,,,,,,,,,,,,,,,885.3057119001169,None,cousin,sing,red,21,76,883.2937668000814,None,None,883.2937668000814,None,,,,,,,,,,,,,,,,,,,,,,,,,,,,,,,,,color16,001,2021_Nov_01_1352,ProdSingRedo,3.2.3,59.89935715659874,
58,0,58,0,,,,,,,,,,,,,,,,,,,,,,,,,,,,887.8249655999243,None,principal,silent,blue,87,236,885.8193429000676,None,None,885.8193429000676,None,,,,,,,,,,,,,,,,,,,,,,,,,,,,,,,,,color16,001,2021_Nov_01_1352,ProdSingRedo,3.2.3,59.89935715659874,
59,0,59,0,,,,,,,,,,,,,,,,,,,,,,,,,,,,890.3441532000434,None,appearance,aloud,yellow,51,10,888.3447145998944,None,None,888.3447145998944,None,,,,,,,,,,,,,,,,,,,,,,,,,,,,,,,,,color16,001,2021_Nov_01_1352,ProdSingRedo,3.2.3,59.89935715659874,
60,0,60,0,,,,,,,,,,,,,,,,,,,,,,,,,,,,892.8633363000117,None,little,aloud,yellow,56,174,890.8516275000293,None,None,890.8516275000293,None,,,,,,,,,,,,,,,,,,,,,,,,,,,,,,,,,color16,001,2021_Nov_01_1352,ProdSingRedo,3.2.3,59.89935715659874,
61,0,61,0,,,,,,,,,,,,,,,,,,,,,,,,,,,,895.3825209001079,None,guide,aloud,yellow,33,147,893.3729093000293,None,None,893.3729093000293,None,,,,,,,,,,,,,,,,,,,,,,,,,,,,,,,,,color16,001,2021_Nov_01_1352,ProdSingRedo,3.2.3,59.89935715659874,
62,0,62,0,,,,,,,,,,,,,,,,,,,,,,,,,,,,897.9016702000517,None,hearing,sing,red,29,150,895.8981612999924,None,None,895.8981612999924,None,,,,,,,,,,,,,,,,,,,,,,,,,,,,,,,,,color16,001,2021_Nov_01_1352,ProdSingRedo,3.2.3,59.89935715659874,
63,0,63,0,,,,,,,,,,,,,,,,,,,,,,,,,,,,900.4208851000294,None,population,aloud,yellow,48,227,898.414998000022,None,None,898.414998000022,None,,,,,,,,,,,,,,,,,,,,,,,,,,,,,,,,,color16,001,2021_Nov_01_1352,ProdSingRedo,3.2.3,59.89935715659874,
64,0,64,0,,,,,,,,,,,,,,,,,,,,,,,,,,,,902.9401233000681,None,finish,silent,blue,77,130,900.9305443000048,None,None,900.9305443000048,None,,,,,,,,,,,,,,,,,,,,,,,,,,,,,,,,,color16,001,2021_Nov_01_1352,ProdSingRedo,3.2.3,59.89935715659874,
65,0,65,0,,,,,,,,,,,,,,,,,,,,,,,,,,,,905.4592587999068,None,interior,aloud,yellow,44,164,903.449258599896,None,None,903.449258599896,None,,,,,,,,,,,,,,,,,,,,,,,,,,,,,,,,,color16,001,2021_Nov_01_1352,ProdSingRedo,3.2.3,59.89935715659874,
66,0,66,0,,,,,,,,,,,,,,,,,,,,,,,,,,,,907.9784502000548,None,budget,aloud,yellow,54,34,905.9712145999074,None,None,905.9712145999074,None,,,,,,,,,,,,,,,,,,,,,,,,,,,,,,,,,color16,001,2021_Nov_01_1352,ProdSingRedo,3.2.3,59.89935715659874,
67,0,67,0,,,,,,,,,,,,,,,,,,,,,,,,,,,,910.4976009998936,None,signal,aloud,yellow,38,287,908.4912554000039,None,None,908.4912554000039,None,,,,,,,,,,,,,,,,,,,,,,,,,,,,,,,,,color16,001,2021_Nov_01_1352,ProdSingRedo,3.2.3,59.89935715659874,
68,0,68,0,,,,,,,,,,,,,,,,,,,,,,,,,,,,913.0168196999002,None,display,silent,blue,66,98,911.0114235000219,None,None,911.0114235000219,None,,,,,,,,,,,,,,,,,,,,,,,,,,,,,,,,,color16,001,2021_Nov_01_1352,ProdSingRedo,3.2.3,59.89935715659874,
69,0,69,0,,,,,,,,,,,,,,,,,,,,,,,,,,,,915.5360077999067,None,measure,sing,red,7,184,913.5304294999223,None,None,913.5304294999223,None,,,,,,,,,,,,,,,,,,,,,,,,,,,,,,,,,color16,001,2021_Nov_01_1352,ProdSingRedo,3.2.3,59.89935715659874,
70,0,70,0,,,,,,,,,,,,,,,,,,,,,,,,,,,,918.0551879999693,None,victory,silent,blue,86,346,916.0479906999972,None,None,916.0479906999972,None,,,,,,,,,,,,,,,,,,,,,,,,,,,,,,,,,color16,001,2021_Nov_01_1352,ProdSingRedo,3.2.3,59.89935715659874,
71,0,71,0,,,,,,,,,,,,,,,,,,,,,,,,,,,,920.5743666000199,None,blind,silent,blue,62,24,918.5673301999923,None,None,918.5673301999923,None,,,,,,,,,,,,,,,,,,,,,,,,,,,,,,,,,color16,001,2021_Nov_01_1352,ProdSingRedo,3.2.3,59.89935715659874,
72,0,72,0,,,,,,,,,,,,,,,,,,,,,,,,,,,,923.0935291000642,None,background,aloud,yellow,41,16,921.091192400083,None,None,921.091192400083,None,,,,,,,,,,,,,,,,,,,,,,,,,,,,,,,,,color16,001,2021_Nov_01_1352,ProdSingRedo,3.2.3,59.89935715659874,
73,0,73,0,,,,,,,,,,,,,,,,,,,,,,,,,,,,925.6127422999125,None,length,silent,blue,80,169,923.605252899928,None,None,923.605252899928,None,,,,,,,,,,,,,,,,,,,,,,,,,,,,,,,,,color16,001,2021_Nov_01_1352,ProdSingRedo,3.2.3,59.89935715659874,
74,0,74,0,,,,,,,,,,,,,,,,,,,,,,,,,,,,928.1319532000925,None,track,silent,blue,72,334,926.1270731000695,None,None,926.1270731000695,None,,,,,,,,,,,,,,,,,,,,,,,,,,,,,,,,,color16,001,2021_Nov_01_1352,ProdSingRedo,3.2.3,59.89935715659874,
75,0,75,0,,,,,,,,,,,,,,,,,,,,,,,,,,,,930.6511129001155,None,council,silent,blue,61,71,928.6449492000975,None,None,928.6449492000975,None,,,,,,,,,,,,,,,,,,,,,,,,,,,,,,,,,color16,001,2021_Nov_01_1352,ProdSingRedo,3.2.3,59.89935715659874,
76,0,76,0,,,,,,,,,,,,,,,,,,,,,,,,,,,,933.1703047999181,None,division,sing,red,28,101,931.1641700000037,None,None,931.1641700000037,None,,,,,,,,,,,,,,,,,,,,,,,,,,,,,,,,,color16,001,2021_Nov_01_1352,ProdSingRedo,3.2.3,59.89935715659874,
77,0,77,0,,,,,,,,,,,,,,,,,,,,,,,,,,,,935.6894859999884,None,court,silent,blue,89,75,933.6816056000534,None,None,933.6816056000534,None,,,,,,,,,,,,,,,,,,,,,,,,,,,,,,,,,color16,001,2021_Nov_01_1352,ProdSingRedo,3.2.3,59.89935715659874,
78,0,78,0,,,,,,,,,,,,,,,,,,,,,,,,,,,,938.2086829999462,None,pretty,silent,blue,64,233,936.2000257000327,None,None,936.2000257000327,None,,,,,,,,,,,,,,,,,,,,,,,,,,,,,,,,,color16,001,2021_Nov_01_1352,ProdSingRedo,3.2.3,59.89935715659874,
79,0,79,0,,,,,,,,,,,,,,,,,,,,,,,,,,,,940.7278579999693,None,people,silent,blue,60,216,938.7162589998916,None,None,938.7162589998916,None,,,,,,,,,,,,,,,,,,,,,,,,,,,,,,,,,color16,001,2021_Nov_01_1352,ProdSingRedo,3.2.3,59.89935715659874,
80,0,80,0,,,,,,,,,,,,,,,,,,,,,,,,,,,,943.2470050998963,None,audience,sing,red,13,14,941.243310000049,None,None,941.243310000049,None,,,,,,,,,,,,,,,,,,,,,,,,,,,,,,,,,color16,001,2021_Nov_01_1352,ProdSingRedo,3.2.3,59.89935715659874,
81,0,81,0,,,,,,,,,,,,,,,,,,,,,,,,,,,,945.7659501000308,None,right,aloud,yellow,43,265,943.7620858999435,None,None,943.7620858999435,None,,,,,,,,,,,,,,,,,,,,,,,,,,,,,,,,,color16,001,2021_Nov_01_1352,ProdSingRedo,3.2.3,59.89935715659874,
82,0,82,0,,,,,,,,,,,,,,,,,,,,,,,,,,,,948.2854174000677,None,substance,sing,red,4,313,946.2802081000991,None,None,946.2802081000991,None,,,,,,,,,,,,,,,,,,,,,,,,,,,,,,,,,color16,001,2021_Nov_01_1352,ProdSingRedo,3.2.3,59.89935715659874,
83,0,83,0,,,,,,,,,,,,,,,,,,,,,,,,,,,,950.8046003999189,None,trend,sing,red,19,340,948.7917088000104,None,None,948.7917088000104,None,,,,,,,,,,,,,,,,,,,,,,,,,,,,,,,,,color16,001,2021_Nov_01_1352,ProdSingRedo,3.2.3,59.89935715659874,
84,0,84,0,,,,,,,,,,,,,,,,,,,,,,,,,,,,953.3237834000029,None,finance,sing,red,16,129,951.3185453999322,None,None,951.3185453999322,None,,,,,,,,,,,,,,,,,,,,,,,,,,,,,,,,,color16,001,2021_Nov_01_1352,ProdSingRedo,3.2.3,59.89935715659874,
85,0,85,0,,,,,,,,,,,,,,,,,,,,,,,,,,,,955.8429739999119,None,style,sing,red,6,311,953.8340847000945,None,None,953.8340847000945,None,,,,,,,,,,,,,,,,,,,,,,,,,,,,,,,,,color16,001,2021_Nov_01_1352,ProdSingRedo,3.2.3,59.89935715659874,
86,0,86,0,,,,,,,,,,,,,,,,,,,,,,,,,,,,958.3621586000081,None,growth,aloud,yellow,50,144,956.3564444000367,None,None,956.3564444000367,None,,,,,,,,,,,,,,,,,,,,,,,,,,,,,,,,,color16,001,2021_Nov_01_1352,ProdSingRedo,3.2.3,59.89935715659874,
87,0,87,0,,,,,,,,,,,,,,,,,,,,,,,,,,,,960.8813656999264,None,mankind,sing,red,27,178,958.8816847999115,None,None,958.8816847999115,None,,,,,,,,,,,,,,,,,,,,,,,,,,,,,,,,,color16,001,2021_Nov_01_1352,ProdSingRedo,3.2.3,59.89935715659874,
88,0,88,0,,,,,,,,,,,,,,,,,,,,,,,,,,,,963.4005819000304,None,school,aloud,yellow,37,274,961.3859244999476,None,None,961.3859244999476,None,,,,,,,,,,,,,,,,,,,,,,,,,,,,,,,,,color16,001,2021_Nov_01_1352,ProdSingRedo,3.2.3,59.89935715659874,
89,0,89,0,,,,,,,,,,,,,,,,,,,,,,,,,,,,965.9030053000897,None,suspect,sing,red,3,318,963.9015178000554,None,None,963.9015178000554,None,,,,,,,,,,,,,,,,,,,,,,,,,,,,,,,,,color16,001,2021_Nov_01_1352,ProdSingRedo,3.2.3,59.89935715659874,
,,,,,,,,,,,,,,,,,,,,,,,,,,,,,,,,,,,,,,,,,,,966.403742399998,None,k,100.96325600007549,966.403742399998,None,,,,,,,,,,,,,,,,,,,,,,,,,,,color16,001,2021_Nov_01_1352,ProdSingRedo,3.2.3,59.89935715659874,
,,,,0,0,0,0,,,,,,,,,,,,,,,,,,,,,,,,1183.8971877000295,None,,,,,,,,,,,,,,,,,court,silent,blue,0,89,75,1067.9101970000193,None,1067.9101970000193,None,6,21.984711199998856,1067.9101970000193,None,1089.9120153998956,None,1090.4274651999585,None,1090.4274651999585,None,r,93.44413700001314,1090.4274651999585,None,,,color16,001,2021_Nov_01_1352,ProdSingRedo,3.2.3,59.89935715659874,
,,,,1,0,1,0,,,,,,,,,,,,,,,,,,,,,,,,1191.3006209998857,None,,,,,,,,,,,,,,,,,dance,new_silent,blue,1,154,84,1184.4204404000193,None,1184.4204404000193,None,1,4.954736400162801,1184.4204404000193,None,1189.4167665999848,None,1189.918663999997,None,1189.918663999997,None,n,1.3608524999581277,1189.918663999997,None,,,color16,001,2021_Nov_01_1352,ProdSingRedo,3.2.3,59.89935715659874,
,,,,2,0,2,0,,,,,,,,,,,,,,,,,,,,,,,,1203.7965798999649,None,,,,,,,,,,,,,,,,,height,new_sing,red,2,93,152,1191.8122427999042,None,1191.8122427999042,None,3,8.01110849995166,1191.8122427999042,None,1199.878049599938,None,1200.399450399913,None,1200.399450399913,None,f,3.3679098999127746,1200.399450399913,None,,,color16,001,2021_Nov_01_1352,ProdSingRedo,3.2.3,59.89935715659874,
,,,,3,0,3,0,,,,,,,,,,,,,,,,,,,,,,,,1215.4584327999037,None,,,,,,,,,,,,,,,,,voice,sing,red,3,17,348,1204.3201307000127,None,1204.3201307000127,None,5,9.351231399923563,1204.3201307000127,None,1213.7167169000022,None,1214.2257141999435,None,1214.2257141999435,None,f,1.1977858999744058,1214.2257141999435,None,,,color16,001,2021_Nov_01_1352,ProdSingRedo,3.2.3,59.89935715659874,
,,,,4,0,4,0,,,,,,,,,,,,,,,,,,,,,,,,1219.4627026000526,None,,,,,,,,,,,,,,,,,session,new_sing,red,4,116,281,1215.9824572000653,None,1215.9824572000653,None,1,2.169074699981138,1215.9824572000653,None,1218.1917002000846,None,1218.6942823999561,None,1218.6942823999561,None,n,0.7450206000357866,1218.6942823999561,None,,,color16,001,2021_Nov_01_1352,ProdSingRedo,3.2.3,59.89935715659874,
,,,,5,0,5,0,,,,,,,,,,,,,,,,,,,,,,,,1225.469136199914,None,,,,,,,,,,,,,,,,,growth,aloud,yellow,5,50,144,1219.986408600118,None,1219.986408600118,None,6,3.5089659998193383,1219.986408600118,None,1223.5361907999031,None,1224.0380776000675,None,1224.0380776000675,None,f,1.3935959001537412,1224.0380776000675,None,,,color16,001,2021_Nov_01_1352,ProdSingRedo,3.2.3,59.89935715659874,
,,,,6,0,6,0,,,,,,,,,,,,,,,,,,,,,,,,1234.9782742001116,None,,,,,,,,,,,,,,,,,smell,new_aloud,yellow,6,147,291,1225.9914174999576,None,1225.9914174999576,None,1,2.1679848998319358,1225.9914174999576,None,1228.2025641000364,None,1228.7194052000996,None,1228.7194052000996,None,n,6.223963600117713,1228.7194052000996,None,,,color16,001,2021_Nov_01_1352,ProdSingRedo,3.2.3,59.89935715659874,
,,,,7,0,7,0,,,,,,,,,,,,,,,,,,,,,,,,1241.7687538000755,None,,,,,,,,,,,,,,,,,interior,aloud,yellow,7,44,164,1235.5020335000008,None,1235.5020335000008,None,4,4.513462699949741,1235.5020335000008,None,1240.0566537000705,None,1240.5668188000564,None,1240.5668188000564,None,f,1.1684791001025587,1240.5668188000564,None,,,color16,001,2021_Nov_01_1352,ProdSingRedo,3.2.3,59.89935715659874,
,,,,8,0,8,0,,,,,,,,,,,,,,,,,,,,,,,,1247.3254044998903,None,,,,,,,,,,,,,,,,,style,sing,red,8,6,311,1242.2954798999708,None,1242.2954798999708,None,3,3.6718154998961836,1242.2954798999708,None,1246.0005632000975,None,1246.508786099963,None,1246.508786099963,None,n,0.7865882001351565,1246.508786099963,None,,,color16,001,2021_Nov_01_1352,ProdSingRedo,3.2.3,59.89935715659874,
,,,,9,0,9,0,,,,,,,,,,,,,,,,,,,,,,,,1253.6306974000763,None,,,,,,,,,,,,,,,,,citizen,aloud,yellow,9,39,50,1247.8506118999794,None,1247.8506118999794,None,6,3.972364400047809,1247.8506118999794,None,1251.8424740999471,None,1252.367133300053,None,1252.367133300053,None,f,1.2322126000653952,1252.367133300053,None,,,color16,001,2021_Nov_01_1352,ProdSingRedo,3.2.3,59.89935715659874,
,,,,10,0,10,0,,,,,,,,,,,,,,,,,,,,,,,,1257.8006746999454,None,,,,,,,,,,,,,,,,,design,aloud,yellow,10,30,91,1254.1544188999105,None,1254.1544188999105,None,4,2.7328937998972833,1254.1544188999105,None,1256.9325206999201,None,1257.4530038000084,None,1257.4530038000084,None,f,0.322421699995175,1257.4530038000084,None,,,color16,001,2021_Nov_01_1352,ProdSingRedo,3.2.3,59.89935715659874,
,,,,11,0,11,0,,,,,,,,,,,,,,,,,,,,,,,,1263.4732965999283,None,,,,,,,,,,,,,,,,,marriage,aloud,yellow,11,52,179,1258.326321600005,None,1258.326321600005,None,5,3.8647759999148548,1258.326321600005,None,1262.2178325999994,None,1262.7459547000472,None,1262.7459547000472,None,f,0.6933925000485033,1262.7459547000472,None,,,color16,001,2021_Nov_01_1352,ProdSingRedo,3.2.3,59.89935715659874,
,,,,12,0,12,0,,,,,,,,,,,,,,,,,,,,,,,,1268.227088500047,None,,,,,,,,,,,,,,,,,cover,aloud,yellow,12,57,77,1263.9947186000645,None,1263.9947186000645,None,2,2.7808000999502838,1263.9947186000645,None,1266.819888799917,None,1267.3295322998893,None,1267.3295322998893,None,n,0.8698374999221414,1267.3295322998893,None,,,color16,001,2021_Nov_01_1352,ProdSingRedo,3.2.3,59.89935715659874,
,,,,13,0,13,0,,,,,,,,,,,,,,,,,,,,,,,,1273.1664034998976,None,,,,,,,,,,,,,,,,,property,sing,red,13,26,242,1268.7537760999985,None,1268.7537760999985,None,3,3.237476099980995,1268.7537760999985,None,1272.030008400092,None,1272.5564184999093,None,1272.5564184999093,None,n,0.5869199999142438,1272.5564184999093,None,,,color16,001,2021_Nov_01_1352,ProdSingRedo,3.2.3,59.89935715659874,
,,,,14,0,14,0,,,,,,,,,,,,,,,,,,,,,,,,1276.8210118000861,None,,,,,,,,,,,,,,,,,symbol,new_aloud,yellow,14,136,321,1273.6949140999932,None,1273.6949140999932,None,1,1.968463599914685,1273.6949140999932,None,1275.6978086999152,None,1276.2085045001004,None,1276.2085045001004,None,n,0.5910231999587268,1276.2085045001004,None,,,color16,001,2021_Nov_01_1352,ProdSingRedo,3.2.3,59.89935715659874,
,,,,15,0,15,0,,,,,,,,,,,,,,,,,,,,,,,,1282.7422080000397,None,,,,,,,,,,,,,,,,,century,new_sing,red,15,110,45,1277.3512810000684,None,1277.3512810000684,None,1,4.263717000139877,1277.3512810000684,None,1281.6413213000633,None,1282.152409600094,None,1282.152409600094,None,n,0.566972500178963,1282.152409600094,None,,,color16,001,2021_Nov_01_1352,ProdSingRedo,3.2.3,59.89935715659874,
,,,,16,0,16,0,,,,,,,,,,,,,,,,,,,,,,,,1287.7516246000305,None,,,,,,,,,,,,,,,,,health,aloud,yellow,16,36,149,1283.274860800011,None,1283.274860800011,None,4,3.580852300161496,1283.274860800011,None,1286.8974621000234,None,1287.4196496999357,None,1287.4196496999357,None,f,0.29181739990599453,1287.4196496999357,None,,,color16,001,2021_Nov_01_1352,ProdSingRedo,3.2.3,59.89935715659874,
,,,,17,0,17,0,,,,,,,,,,,,,,,,,,,,,,,,1311.5314503000118,None,,,,,,,,,,,,,,,,,general,silent,blue,17,69,135,1288.2804539999925,None,1288.2804539999925,None,2,22.430969800101593,1288.2804539999925,None,1310.7564638999756,None,1311.2598111999687,None,1311.2598111999687,None,n,0.24326699995435774,1311.2598111999687,None,,,color16,001,2021_Nov_01_1352,ProdSingRedo,3.2.3,59.89935715659874,
,,,,18,0,18,0,,,,,,,,,,,,,,,,,,,,,,,,1322.2500469000079,None,,,,,,,,,,,,,,,,,religion,new_sing,red,18,104,258,1312.0322853000835,None,1312.0322853000835,None,1,8.807278299937025,1312.0322853000835,None,1320.8859683999326,None,1321.4025103000458,None,1321.4025103000458,None,n,0.8209823998622596,1321.4025103000458,None,,,color16,001,2021_Nov_01_1352,ProdSingRedo,3.2.3,59.89935715659874,
,,,,19,0,19,0,,,,,,,,,,,,,,,,,,,,,,,,1327.1218425000552,None,,,,,,,,,,,,,,,,,material,silent,blue,19,88,182,1322.7609671000391,None,1322.7609671000391,None,4,3.2145427998621017,1322.7609671000391,None,1326.022858900018,None,1326.5410492999945,None,1326.5410492999945,None,f,0.5546267998870462,1326.5410492999945,None,,,color16,001,2021_Nov_01_1352,ProdSingRedo,3.2.3,59.89935715659874,
,,,,20,0,20,0,,,,,,,,,,,,,,,,,,,,,,,,1332.0916619999334,None,,,,,,,,,,,,,,,,,still,new_aloud,yellow,20,141,304,1327.643076099921,None,1327.643076099921,None,3,3.6123471001628786,1327.643076099921,None,1331.302317700116,None,1331.8066940999124,None,1331.8066940999124,None,n,0.2488305999431759,1331.8066940999124,None,,,color16,001,2021_Nov_01_1352,ProdSingRedo,3.2.3,59.89935715659874,
,,,,21,0,21,0,,,,,,,,,,,,,,,,,,,,,,,,1345.3891185000539,None,,,,,,,,,,,,,,,,,literature,new_silent,blue,21,164,173,1332.622612999985,None,1332.622612999985,None,5,10.888761299895123,1332.622612999985,None,1343.552608099999,None,1344.060339000076,None,1344.060339000076,None,f,1.299200200010091,1344.060339000076,None,,,color16,001,2021_Nov_01_1352,ProdSingRedo,3.2.3,59.89935715659874,
,,,,22,0,22,0,,,,,,,,,,,,,,,,,,,,,,,,1351.1606560999062,None,,,,,,,,,,,,,,,,,passage,new_silent,blue,22,153,212,1345.9187078000978,None,1345.9187078000978,None,2,3.5448325998149812,1345.9187078000978,None,1349.512649900047,None,1350.0152447000146,None,1350.0152447000146,None,n,1.1121868998743594,1350.0152447000146,None,,,color16,001,2021_Nov_01_1352,ProdSingRedo,3.2.3,59.89935715659874,
,,,,23,0,23,0,,,,,,,,,,,,,,,,,,,,,,,,1360.76874520001,None,,,,,,,,,,,,,,,,,relation,new_sing,red,23,99,257,1351.6900863000192,None,1351.6900863000192,None,2,7.237653700169176,1351.6900863000192,None,1358.9704231999349,None,1359.4923572000116,None,1359.4923572000116,None,n,1.2434326999355108,1359.4923572000116,None,,,color16,001,2021_Nov_01_1352,ProdSingRedo,3.2.3,59.89935715659874,
,,,,24,0,24,0,,,,,,,,,,,,,,,,,,,,,,,,1367.0961668998934,None,,,,,,,,,,,,,,,,,command,new_aloud,yellow,24,135,60,1361.2974576000124,None,1361.2974576000124,None,1,3.510109799914062,1361.2974576000124,None,1364.8546859999187,None,1365.3790720000397,None,1365.3790720000397,None,n,1.6843835001345724,1365.3790720000397,None,,,color16,001,2021_Nov_01_1352,ProdSingRedo,3.2.3,59.89935715659874,
,,,,25,0,25,0,,,,,,,,,,,,,,,,,,,,,,,,1382.0250071000773,None,,,,,,,,,,,,,,,,,universal,new_aloud,yellow,25,121,345,1367.6220499000046,None,1367.6220499000046,None,2,13.609561200020835,1367.6220499000046,None,1381.2728693000972,None,1381.7999774001073,None,1381.7999774001073,None,n,0.19146989984437823,1381.7999774001073,None,,,color16,001,2021_Nov_01_1352,ProdSingRedo,3.2.3,59.89935715659874,
,,,,26,0,26,0,,,,,,,,,,,,,,,,,,,,,,,,1390.118170300033,None,,,,,,,,,,,,,,,,,impact,silent,blue,26,81,157,1382.549988700077,None,1382.549988700077,None,4,4.713170999893919,1382.549988700077,None,1387.2908820000011,None,1387.803162700031,None,1387.803162700031,None,f,2.2923727999441326,1387.803162700031,None,,,color16,001,2021_Nov_01_1352,ProdSingRedo,3.2.3,59.89935715659874,
,,,,27,0,27,0,,,,,,,,,,,,,,,,,,,,,,,,1395.606000599917,None,,,,,,,,,,,,,,,,,direction,new_silent,blue,27,166,94,1390.6406896000262,None,1390.6406896000262,None,5,4.110904600005597,1390.6406896000262,None,1394.78405570006,None,1395.303876100108,None,1395.303876100108,None,f,0.2795093001332134,1395.303876100108,None,,,color16,001,2021_Nov_01_1352,ProdSingRedo,3.2.3,59.89935715659874,
,,,,28,0,28,0,,,,,,,,,,,,,,,,,,,,,,,,1402.5295528001152,None,,,,,,,,,,,,,,,,,right,aloud,yellow,28,43,265,1396.1329542000312,None,1396.1329542000312,None,3,5.706068499945104,1396.1329542000312,None,1401.8602156999987,None,1402.3801057999954,None,1402.3801057999954,None,n,0.12338689994066954,1402.3801057999954,None,,,color16,001,2021_Nov_01_1352,ProdSingRedo,3.2.3,59.89935715659874,
,,,,29,0,29,0,,,,,,,,,,,,,,,,,,,,,,,,1409.1540838000365,None,,,,,,,,,,,,,,,,,institute,new_silent,blue,29,177,162,1403.0568236000836,None,1403.0568236000836,None,4,4.5188002998474985,1403.0568236000836,None,1407.6129566999152,None,1408.1383140999824,None,1408.1383140999824,None,n,0.9813031998928636,1408.1383140999824,None,,,color16,001,2021_Nov_01_1352,ProdSingRedo,3.2.3,59.89935715659874,
,,,,30,0,30,0,,,,,,,,,,,,,,,,,,,,,,,,1413.4395856999326,None,,,,,,,,,,,,,,,,,point,silent,blue,30,76,226,1409.6742298000026,None,1409.6742298000026,None,1,2.941231600008905,1409.6742298000026,None,1412.6514510998968,None,1413.1706950000953,None,1413.1706950000953,None,n,0.23672710009850562,1413.1706950000953,None,,,color16,001,2021_Nov_01_1352,ProdSingRedo,3.2.3,59.89935715659874,
,,,,31,0,31,0,,,,,,,,,,,,,,,,,,,,,,,,1419.2972903999034,None,,,,,,,,,,,,,,,,,little,aloud,yellow,31,56,174,1413.9606912001036,None,1413.9606912001036,None,6,3.6149843998719007,1413.9606912001036,None,1417.6240743000526,None,1418.1431923001073,None,1418.1431923001073,None,f,1.1202751998789608,1418.1431923001073,None,,,color16,001,2021_Nov_01_1352,ProdSingRedo,3.2.3,59.89935715659874,
,,,,32,0,32,0,,,,,,,,,,,,,,,,,,,,,,,,1426.9241386000067,None,,,,,,,,,,,,,,,,,build,sing,red,32,22,35,1419.8214674000628,None,1419.8214674000628,None,6,5.1781065000686795,1419.8214674000628,None,1425.0489946999587,None,1425.5736603001133,None,1425.5736603001133,None,f,1.3220375999808311,1425.5736603001133,None,,,color16,001,2021_Nov_01_1352,ProdSingRedo,3.2.3,59.89935715659874,
,,,,33,0,33,0,,,,,,,,,,,,,,,,,,,,,,,,1439.1699945,None,,,,,,,,,,,,,,,,,character,new_silent,blue,33,157,46,1427.4515943001024,None,1427.4515943001024,None,4,9.891995199956,1427.4515943001024,None,1437.3963303999044,None,1437.904645399889,None,1437.904645399889,None,f,1.239112300099805,1437.904645399889,None,,,color16,001,2021_Nov_01_1352,ProdSingRedo,3.2.3,59.89935715659874,
,,,,34,0,34,0,,,,,,,,,,,,,,,,,,,,,,,,1450.406245399965,None,,,,,,,,,,,,,,,,,suspect,sing,red,34,3,318,1439.6953926000278,None,1439.6953926000278,None,5,9.839784200070426,1439.6953926000278,None,1449.5869189999066,None,1450.0870773999486,None,1450.0870773999486,None,f,0.2961436999030411,1450.0870773999486,None,,,color16,001,2021_Nov_01_1352,ProdSingRedo,3.2.3,59.89935715659874,
,,,,35,0,35,0,,,,,,,,,,,,,,,,,,,,,,,,1453.5786413000897,None,,,,,,,,,,,,,,,,,safety,new_sing,red,35,91,270,1450.9211571998894,None,1450.9211571998894,None,2,1.790407899999991,1450.9211571998894,None,1452.7599945999682,None,1453.2859877001029,None,1453.2859877001029,None,n,0.2575189000926912,1453.2859877001029,None,,,color16,001,2021_Nov_01_1352,ProdSingRedo,3.2.3,59.89935715659874,
,,,,36,0,36,0,,,,,,,,,,,,,,,,,,,,,,,,1460.4042813999113,None,,,,,,,,,,,,,,,,,turkey,new_silent,blue,36,171,342,1454.107731899945,None,1454.107731899945,None,4,4.203770600026473,1454.107731899945,None,1458.3569902000017,None,1458.873982500052,None,1458.873982500052,None,n,1.4937094000633806,1458.873982500052,None,,,color16,001,2021_Nov_01_1352,ProdSingRedo,3.2.3,59.89935715659874,
,,,,37,0,37,0,,,,,,,,,,,,,,,,,,,,,,,,1466.3933439000975,None,,,,,,,,,,,,,,,,,mechanical,silent,blue,37,85,185,1460.9359391999897,None,1460.9359391999897,None,6,4.575771300122142,1460.9359391999897,None,1465.565764500061,None,1466.0831013999414,None,1466.0831013999414,None,f,0.28469520015642047,1466.0831013999414,None,,,color16,001,2021_Nov_01_1352,ProdSingRedo,3.2.3,59.89935715659874,
,,,,38,0,38,0,,,,,,,,,,,,,,,,,,,,,,,,1470.1648587998934,None,,,,,,,,,,,,,,,,,strength,new_sing,red,38,96,310,1466.9158962999936,None,1466.9158962999936,None,2,2.3639362000394613,1466.9158962999936,None,1469.3232714000624,None,1469.8343152999878,None,1469.8343152999878,None,f,0.30127279995940626,1469.8343152999878,None,,,color16,001,2021_Nov_01_1352,ProdSingRedo,3.2.3,59.89935715659874,
,,,,39,0,39,0,,,,,,,,,,,,,,,,,,,,,,,,1475.936606500065,None,,,,,,,,,,,,,,,,,provision,new_sing,red,39,108,243,1470.690207599895,None,1470.690207599895,None,3,4.477326499996707,1470.690207599895,None,1475.2208245999645,None,1475.743952699937,None,1475.743952699937,None,f,0.1594638000242412,1475.743952699937,None,,,color16,001,2021_Nov_01_1352,ProdSingRedo,3.2.3,59.89935715659874,
,,,,40,0,40,0,,,,,,,,,,,,,,,,,,,,,,,,1482.2762498999946,None,,,,,,,,,,,,,,,,,education,silent,blue,40,70,108,1476.4673021000344,None,1476.4673021000344,None,3,4.94032850000076,1476.4673021000344,None,1481.4621363000479,None,1481.9852881999686,None,1481.9852881999686,None,f,0.2542411999311298,1481.9852881999686,None,,,color16,001,2021_Nov_01_1352,ProdSingRedo,3.2.3,59.89935715659874,
,,,,41,0,41,0,,,,,,,,,,,,,,,,,,,,,,,,1490.8677354999818,None,,,,,,,,,,,,,,,,,curve,silent,blue,41,63,82,1482.807118800003,None,1482.807118800003,None,2,6.696477799909189,1482.807118800003,None,1489.5518471999094,None,1490.0556960999966,None,1490.0556960999966,None,n,0.7839419001247734,1490.0556960999966,None,,,color16,001,2021_Nov_01_1352,ProdSingRedo,3.2.3,59.89935715659874,
,,,,42,0,42,0,,,,,,,,,,,,,,,,,,,,,,,,1498.7440824001096,None,,,,,,,,,,,,,,,,,quarter,new_sing,red,42,95,246,1491.3955286999699,None,1491.3955286999699,None,3,6.139954899903387,1491.3955286999699,None,1497.5722437000368,None,1498.079505499918,None,1498.079505499918,None,n,0.6402255999855697,1498.079505499918,None,,,color16,001,2021_Nov_01_1352,ProdSingRedo,3.2.3,59.89935715659874,
,,,,43,0,43,0,,,,,,,,,,,,,,,,,,,,,,,,1505.9543204999063,None,,,,,,,,,,,,,,,,,solution,aloud,yellow,43,58,294,1499.269589100033,None,1499.269589100033,None,5,5.986003200057894,1499.269589100033,None,1505.297557800077,None,1505.8053854999598,None,1505.8053854999598,None,f,0.11416039988398552,1505.8053854999598,None,,,color16,001,2021_Nov_01_1352,ProdSingRedo,3.2.3,59.89935715659874,
,,,,44,0,44,0,,,,,,,,,,,,,,,,,,,,,,,,1516.5604240000248,None,,,,,,,,,,,,,,,,,attack,new_aloud,yellow,44,127,13,1506.4794385000132,None,1506.4794385000132,None,4,8.06419699988328,1506.4794385000132,None,1514.5873769000173,None,1515.0951574000064,None,1515.0951574000064,None,f,1.4327339997980744,1515.0951574000064,None,,,color16,001,2021_Nov_01_1352,ProdSingRedo,3.2.3,59.89935715659874,
,,,,45,0,45,0,,,,,,,,,,,,,,,,,,,,,,,,1528.771427199943,None,,,,,,,,,,,,,,,,,measure,sing,red,45,7,184,1517.0947863999754,None,1517.0947863999754,None,5,10.872782899998128,1517.0947863999754,None,1528.02108220011,None,1528.529137399979,None,1528.529137399979,None,f,0.2144572997931391,1528.529137399979,None,,,color16,001,2021_Nov_01_1352,ProdSingRedo,3.2.3,59.89935715659874,
,,,,46,0,46,0,,,,,,,,,,,,,,,,,,,,,,,,1532.2801908000838,None,,,,,,,,,,,,,,,,,concern,sing,red,46,20,65,1529.2928152000532,None,1529.2928152000532,None,5,2.1228392000775784,1529.2928152000532,None,1531.4534688000567,None,1531.9568912000395,None,1531.9568912000395,None,f,0.2906769001856446,1531.9568912000395,None,,,color16,001,2021_Nov_01_1352,ProdSingRedo,3.2.3,59.89935715659874,
,,,,47,0,47,0,,,,,,,,,,,,,,,,,,,,,,,,1536.9150358999614,None,,,,,,,,,,,,,,,,,discovery,new_aloud,yellow,47,144,95,1532.8053091000766,None,1532.8053091000766,None,4,3.4023863000329584,1532.8053091000766,None,1536.243581000017,None,1536.751369100064,None,1536.751369100064,None,f,0.1282475001644343,1536.751369100064,None,,,color16,001,2021_Nov_01_1352,ProdSingRedo,3.2.3,59.89935715659874,
,,,,48,0,48,0,,,,,,,,,,,,,,,,,,,,,,,,1544.205989799928,None,,,,,,,,,,,,,,,,,position,silent,blue,48,68,229,1537.437611100031,None,1537.437611100031,None,3,5.026437599910423,1537.437611100031,None,1542.4990993998945,None,1543.0044251000509,None,1543.0044251000509,None,f,1.171127999899909,1543.0044251000509,None,,,color16,001,2021_Nov_01_1352,ProdSingRedo,3.2.3,59.89935715659874,
,,,,49,0,49,0,,,,,,,,,,,,,,,,,,,,,,,,1549.6600039999466,None,,,,,,,,,,,,,,,,,people,silent,blue,49,60,216,1544.7289901999757,None,1544.7289901999757,None,2,2.7905850000679493,1544.7289901999757,None,1547.5518177999184,None,1548.0586804000195,None,1548.0586804000195,None,n,1.572967000072822,1548.0586804000195,None,,,color16,001,2021_Nov_01_1352,ProdSingRedo,3.2.3,59.89935715659874,
,,,,50,0,50,0,,,,,,,,,,,,,,,,,,,,,,,,1555.531277500093,None,,,,,,,,,,,,,,,,,household,sing,red,50,2,154,1550.1881979000755,None,1550.1881979000755,None,6,4.363372599938884,1550.1881979000755,None,1554.603990700096,None,1555.114886400057,None,1555.114886400057,None,r,0.3807848000433296,1555.114886400057,None,,,color16,001,2021_Nov_01_1352,ProdSingRedo,3.2.3,59.89935715659874,
,,,,51,0,51,0,,,,,,,,,,,,,,,,,,,,,,,,1560.2961732000113,None,,,,,,,,,,,,,,,,,degree,new_silent,blue,51,155,89,1556.0659229999874,None,1556.0659229999874,None,3,2.4456321999896318,1556.0659229999874,None,1558.5528967999853,None,1559.0723039999139,None,1559.0723039999139,None,n,1.1915941999759525,1559.0723039999139,None,,,color16,001,2021_Nov_01_1352,ProdSingRedo,3.2.3,59.89935715659874,
,,,,52,0,52,0,,,,,,,,,,,,,,,,,,,,,,,,1568.6299936000723,None,,,,,,,,,,,,,,,,,harmony,new_sing,red,52,103,148,1560.8196286000311,None,1560.8196286000311,None,4,6.676030799979344,1560.8196286000311,None,1567.5441203000955,None,1568.0696491000708,None,1568.0696491000708,None,f,0.5300187999382615,1568.0696491000708,None,,,color16,001,2021_Nov_01_1352,ProdSingRedo,3.2.3,59.89935715659874,
,,,,53,0,53,0,,,,,,,,,,,,,,,,,,,,,,,,1575.7304686999414,None,,,,,,,,,,,,,,,,,pretty,silent,blue,53,64,233,1569.1524050999433,None,1569.1524050999433,None,6,4.886893799994141,1569.1524050999433,None,1574.0659175999463,None,1574.5840507999528,None,1574.5840507999528,None,r,1.1273386999964714,1574.5840507999528,None,,,color16,001,2021_Nov_01_1352,ProdSingRedo,3.2.3,59.89935715659874,
,,,,54,0,54,0,,,,,,,,,,,,,,,,,,,,,,,,1585.4285369000863,None,,,,,,,,,,,,,,,,,treatment,new_silent,blue,54,156,339,1576.2473760999274,None,1576.2473760999274,None,3,7.040380599908531,1576.2473760999274,None,1583.3307996001095,None,1583.8488990999758,None,1583.8488990999758,None,n,1.558701799949631,1583.8488990999758,None,,,color16,001,2021_Nov_01_1352,ProdSingRedo,3.2.3,59.89935715659874,
,,,,55,0,55,0,,,,,,,,,,,,,,,,,,,,,,,,1591.3885735999793,None,,,,,,,,,,,,,,,,,region,new_sing,red,55,119,256,1585.9533762999345,None,1585.9533762999345,None,2,4.4060714999213815,1585.9533762999345,None,1590.395549000008,None,1590.9029606000986,None,1590.9029606000986,None,n,0.45694509986788034,1590.9029606000986,None,,,color16,001,2021_Nov_01_1352,ProdSingRedo,3.2.3,59.89935715659874,
,,,,56,0,56,0,,,,,,,,,,,,,,,,,,,,,,,,1596.2221681000665,None,,,,,,,,,,,,,,,,,listen,aloud,yellow,56,45,172,1591.9094350000378,None,1591.9094350000378,None,3,3.3137529001105577,1591.9094350000378,None,1595.249461099971,None,1595.7564940999728,None,1595.7564940999728,None,n,0.4352458000648767,1595.7564940999728,None,,,color16,001,2021_Nov_01_1352,ProdSingRedo,3.2.3,59.89935715659874,
,,,,57,0,57,0,,,,,,,,,,,,,,,,,,,,,,,,1606.6165579000954,None,,,,,,,,,,,,,,,,,error,silent,blue,57,75,117,1596.7469919000287,None,1596.7469919000287,None,3,8.932676200056449,1596.7469919000287,None,1605.7243935000151,None,1606.2358242999762,None,1606.2358242999762,None,n,0.35606479994021356,1606.2358242999762,None,,,color16,001,2021_Nov_01_1352,ProdSingRedo,3.2.3,59.89935715659874,
,,,,58,0,58,0,,,,,,,,,,,,,,,,,,,,,,,,1616.8815719000995,None,,,,,,,,,,,,,,,,,bucket,sing,red,58,0,33,1607.1455067999195,None,1607.1455067999195,None,3,8.942122400039807,1607.1455067999195,None,1616.1283001000993,None,1616.651035200106,None,1616.651035200106,None,n,0.19658129988238215,1616.651035200106,None,,,color16,001,2021_Nov_01_1352,ProdSingRedo,3.2.3,59.89935715659874,
,,,,59,0,59,0,,,,,,,,,,,,,,,,,,,,,,,,1623.1333327998873,None,,,,,,,,,,,,,,,,,music,aloud,yellow,59,42,196,1617.4031601001043,None,1617.4031601001043,None,4,5.124214000068605,1617.4031601001043,None,1622.5530352001078,None,1623.0684875999577,None,1623.0684875999577,None,f,0.03548979992046952,1623.0684875999577,None,,,color16,001,2021_Nov_01_1352,ProdSingRedo,3.2.3,59.89935715659874,
,,,,60,0,60,0,,,,,,,,,,,,,,,,,,,,,,,,1626.8191104000434,None,,,,,,,,,,,,,,,,,pattern,new_aloud,yellow,60,146,214,1623.6595058001112,None,1623.6595058001112,None,5,2.308257200056687,1623.6595058001112,None,1626.0125649999827,None,1626.5131924001034,None,1626.5131924001034,None,f,0.27856200002133846,1626.5131924001034,None,,,color16,001,2021_Nov_01_1352,ProdSingRedo,3.2.3,59.89935715659874,
,,,,61,0,61,0,,,,,,,,,,,,,,,,,,,,,,,,1631.7071599001065,None,,,,,,,,,,,,,,,,,generation,new_sing,red,61,98,136,1627.349682299886,None,1627.349682299886,None,3,3.546093499986455,1627.349682299886,None,1630.944703700021,None,1631.4617655000184,None,1631.4617655000184,None,f,0.20992089994251728,1631.4617655000184,None,,,color16,001,2021_Nov_01_1352,ProdSingRedo,3.2.3,59.89935715659874,
,,,,62,0,62,0,,,,,,,,,,,,,,,,,,,,,,,,1636.8635786001105,None,,,,,,,,,,,,,,,,,shock,aloud,yellow,62,55,284,1632.2316882000305,None,1632.2316882000305,None,5,4.000084300059825,1632.2316882000305,None,1636.2806067999918,None,1636.7979055999313,None,1636.7979055999313,None,f,0.041713899932801723,1636.7979055999313,None,,,color16,001,2021_Nov_01_1352,ProdSingRedo,3.2.3,59.89935715659874,
,,,,63,0,63,0,,,,,,,,,,,,,,,,,,,,,,,,1642.7690900000744,None,,,,,,,,,,,,,,,,,testimony,new_aloud,yellow,63,143,325,1637.390417000046,None,1637.390417000046,None,1,3.90514549985528,1637.390417000046,None,1641.3331897000317,None,1641.8452818000223,None,1641.8452818000223,None,n,0.8904019999317825,1641.8452818000223,None,,,color16,001,2021_Nov_01_1352,ProdSingRedo,3.2.3,59.89935715659874,
,,,,64,0,64,0,,,,,,,,,,,,,,,,,,,,,,,,1649.7930292000528,None,,,,,,,,,,,,,,,,,length,silent,blue,64,80,169,1643.2945815999992,None,1643.2945815999992,None,5,5.737064399989322,1643.2945815999992,None,1649.0731083999854,None,1649.5956304001156,None,1649.5956304001156,None,f,0.1482039000838995,1649.5956304001156,None,,,color16,001,2021_Nov_01_1352,ProdSingRedo,3.2.3,59.89935715659874,
,,,,65,0,65,0,,,,,,,,,,,,,,,,,,,,,,,,1655.0329169998877,None,,,,,,,,,,,,,,,,,fellow,new_sing,red,65,117,126,1650.321258299984,None,1650.321258299984,None,1,3.2465085999574512,1650.321258299984,None,1653.6165167998988,None,1654.135442599887,None,1654.135442599887,None,n,0.8642353001050651,1654.135442599887,None,,,color16,001,2021_Nov_01_1352,ProdSingRedo,3.2.3,59.89935715659874,
,,,,66,0,66,0,,,,,,,,,,,,,,,,,,,,,,,,1658.8190444000065,None,,,,,,,,,,,,,,,,,guide,aloud,yellow,66,33,147,1655.5561834999826,None,1655.5561834999826,None,4,2.395695799961686,1655.5561834999826,None,1657.9993541000877,None,1658.5194961999077,None,1658.5194961999077,None,f,0.2721775001846254,1658.5194961999077,None,,,color16,001,2021_Nov_01_1352,ProdSingRedo,3.2.3,59.89935715659874,
,,,,67,0,67,0,,,,,,,,,,,,,,,,,,,,,,,,1664.8744971998967,None,,,,,,,,,,,,,,,,,emergency,silent,blue,67,73,110,1659.3482170000207,None,1659.3482170000207,None,4,4.763502799905837,1659.3482170000207,None,1664.1606079998892,None,1664.6811540001072,None,1664.6811540001072,None,f,0.1586842001415789,1664.6811540001072,None,,,color16,001,2021_Nov_01_1352,ProdSingRedo,3.2.3,59.89935715659874,
,,,,68,0,68,0,,,,,,,,,,,,,,,,,,,,,,,,1668.7801552000456,None,,,,,,,,,,,,,,,,,mankind,sing,red,68,27,178,1665.4058834000025,None,1665.4058834000025,None,6,2.6175659000873566,1665.4058834000025,None,1668.0845753999893,None,1668.6004419999663,None,1668.6004419999663,None,r,0.15130720008164644,1668.6004419999663,None,,,color16,001,2021_Nov_01_1352,ProdSingRedo,3.2.3,59.89935715659874,
,,,,69,0,69,0,,,,,,,,,,,,,,,,,,,,,,,,1674.0776569999289,None,,,,,,,,,,,,,,,,,debate,sing,red,69,5,87,1669.3058958000038,None,1669.3058958000038,None,5,3.8537024999968708,1669.3058958000038,None,1673.2004708999302,None,1673.7064165999182,None,1673.7064165999182,None,f,0.3410966000519693,1673.7064165999182,None,,,color16,001,2021_Nov_01_1352,ProdSingRedo,3.2.3,59.89935715659874,
,,,,70,0,70,0,,,,,,,,,,,,,,,,,,,,,,,,1677.6222930001095,None,,,,,,,,,,,,,,,,,equipment,new_aloud,yellow,70,142,116,1674.5988115000073,None,1674.5988115000073,None,4,2.3290536000858992,1674.5988115000073,None,1676.9722661001142,None,1677.4784840000793,None,1677.4784840000793,None,f,0.11323369992896914,1677.4784840000793,None,,,color16,001,2021_Nov_01_1352,ProdSingRedo,3.2.3,59.89935715659874,
,,,,71,0,71,0,,,,,,,,,,,,,,,,,,,,,,,,1683.6782454000786,None,,,,,,,,,,,,,,,,,husband,new_sing,red,71,92,156,1678.1473509999923,None,1678.1473509999923,None,2,4.756489500170574,1678.1473509999923,None,1682.9422929999419,None,1683.4491856000386,None,1683.4491856000386,None,n,0.20647460012696683,1683.4491856000386,None,,,color16,001,2021_Nov_01_1352,ProdSingRedo,3.2.3,59.89935715659874,
,,,,72,0,72,0,,,,,,,,,,,,,,,,,,,,,,,,1689.259324700106,None,,,,,,,,,,,,,,,,,medicine,new_silent,blue,72,167,186,1684.199985400075,None,1684.199985400075,None,5,3.951849500183016,1684.199985400075,None,1688.1922738999128,None,1688.6970595000312,None,1688.6970595000312,None,f,0.5424579998943955,1688.6970595000312,None,,,color16,001,2021_Nov_01_1352,ProdSingRedo,3.2.3,59.89935715659874,
,,,,73,0,73,0,,,,,,,,,,,,,,,,,,,,,,,,1692.319541899953,None,,,,,,,,,,,,,,,,,personnel,silent,blue,73,71,219,1689.773275299929,None,1689.773275299929,None,6,1.738458199892193,1689.773275299929,None,1691.5510843999218,None,1692.0682294999715,None,1692.0682294999715,None,r,0.2274416999425739,1692.0682294999715,None,,,color16,001,2021_Nov_01_1352,ProdSingRedo,3.2.3,59.89935715659874,
,,,,74,0,74,0,,,,,,,,,,,,,,,,,,,,,,,,1698.5096903000958,None,,,,,,,,,,,,,,,,,recall,new_sing,red,74,94,255,1692.8440952000674,None,1692.8440952000674,None,3,4.667759099975228,1692.8440952000674,None,1697.5541340000927,None,1698.0769446999766,None,1698.0769446999766,None,f,0.40281170001253486,1698.0769446999766,None,,,color16,001,2021_Nov_01_1352,ProdSingRedo,3.2.3,59.89935715659874,
,,,,75,0,75,0,,,,,,,,,,,,,,,,,,,,,,,,1703.7463424999733,None,,,,,,,,,,,,,,,,,population,aloud,yellow,75,48,227,1699.0421863000374,None,1699.0421863000374,None,5,3.9738626000471413,1699.0421863000374,None,1703.0672748999204,None,1703.5717865999322,None,1703.5717865999322,None,f,0.14003020012751222,1703.5717865999322,None,,,color16,001,2021_Nov_01_1352,ProdSingRedo,3.2.3,59.89935715659874,
,,,,76,0,76,0,,,,,,,,,,,,,,,,,,,,,,,,1707.5184782999568,None,,,,,,,,,,,,,,,,,revolution,new_silent,blue,76,158,264,1704.2801101999357,None,1704.2801101999357,None,4,2.527605500072241,1704.2801101999357,None,1706.854581600055,None,1707.362448999891,None,1707.362448999891,None,f,0.1251852000132203,1707.362448999891,None,,,color16,001,2021_Nov_01_1352,ProdSingRedo,3.2.3,59.89935715659874,
,,,,77,0,77,0,,,,,,,,,,,,,,,,,,,,,,,,1713.7401568999048,None,,,,,,,,,,,,,,,,,company,sing,red,77,12,64,1708.0485320999287,None,1708.0485320999287,None,5,5.07921600015834,1708.0485320999287,None,1713.1748385000974,None,1713.680980999954,None,1713.680980999954,None,f,0.030555000063031912,1713.680980999954,None,,,color16,001,2021_Nov_01_1352,ProdSingRedo,3.2.3,59.89935715659874,
,,,,78,0,78,0,,,,,,,,,,,,,,,,,,,,,,,,1718.3785665999167,None,,,,,,,,,,,,,,,,,trend,sing,red,78,19,340,1714.2618750000838,None,1714.2618750000838,None,5,3.2338711000047624,1714.2618750000838,None,1717.5356060001068,None,1718.0422042999417,None,1718.0422042999417,None,f,0.3095049001276493,1718.0422042999417,None,,,color16,001,2021_Nov_01_1352,ProdSingRedo,3.2.3,59.89935715659874,
,,,,79,0,79,0,,,,,,,,,,,,,,,,,,,,,,,,1726.870421800064,None,,,,,,,,,,,,,,,,,break,new_aloud,yellow,79,124,26,1718.9056492000818,None,1718.9056492000818,None,2,6.76611279998906,1718.9056492000818,None,1725.7194896000437,None,1726.2261214999016,None,1726.2261214999016,None,n,0.6138467998243868,1726.2261214999016,None,,,color16,001,2021_Nov_01_1352,ProdSingRedo,3.2.3,59.89935715659874,
,,,,80,0,80,0,,,,,,,,,,,,,,,,,,,,,,,,1732.2355891999323,None,,,,,,,,,,,,,,,,,junior,new_silent,blue,80,162,167,1727.4053112999536,None,1727.4053112999536,None,1,3.6585740000009537,1727.4053112999536,None,1731.1112462000456,None,1731.6182293999009,None,1731.6182293999009,None,n,0.589363900013268,1731.6182293999009,None,,,color16,001,2021_Nov_01_1352,ProdSingRedo,3.2.3,59.89935715659874,
,,,,81,0,81,0,,,,,,,,,,,,,,,,,,,,,,,,1735.811512199929,None,,,,,,,,,,,,,,,,,rapid,new_silent,blue,81,179,252,1732.750996900024,None,1732.750996900024,None,1,2.12871539988555,1732.750996900024,None,1734.934765999904,None,1735.4486038999166,None,1735.4486038999166,None,n,0.32725160010159016,1735.4486038999166,None,,,color16,001,2021_Nov_01_1352,ProdSingRedo,3.2.3,59.89935715659874,
,,,,82,0,82,0,,,,,,,,,,,,,,,,,,,,,,,,1741.468539699912,None,,,,,,,,,,,,,,,,,school,aloud,yellow,82,37,274,1736.3335214001127,None,1736.3335214001127,None,4,4.330154099967331,1736.3335214001127,None,1740.706500899978,None,1741.2202461000998,None,1741.2202461000998,None,f,0.21947909984737635,1741.2202461000998,None,,,color16,001,2021_Nov_01_1352,ProdSingRedo,3.2.3,59.89935715659874,
,,,,83,0,83,0,,,,,,,,,,,,,,,,,,,,,,,,1745.0229909999762,None,,,,,,,,,,,,,,,,,council,silent,blue,83,61,71,1741.995400399901,None,1741.995400399901,None,5,2.2840875000692904,1741.995400399901,None,1744.3083462000359,None,1744.8244201999623,None,1744.8244201999623,None,f,0.16727560013532639,1744.8244201999623,None,,,color16,001,2021_Nov_01_1352,ProdSingRedo,3.2.3,59.89935715659874,
,,,,84,0,84,0,,,,,,,,,,,,,,,,,,,,,,,,1749.0098162000068,None,,,,,,,,,,,,,,,,,bright,sing,red,84,18,29,1745.549622700084,None,1745.549622700084,None,2,2.322066399967298,1745.549622700084,None,1747.9246163999196,None,1748.4461062001064,None,1748.4461062001064,None,n,0.5297256999183446,1748.4461062001064,None,,,color16,001,2021_Nov_01_1352,ProdSingRedo,3.2.3,59.89935715659874,
,,,,85,0,85,0,,,,,,,,,,,,,,,,,,,,,,,,1754.2652167000342,None,,,,,,,,,,,,,,,,,partner,new_aloud,yellow,85,149,211,1749.5364083000459,None,1749.5364083000459,None,2,3.799348499858752,1749.5364083000459,None,1753.3803111000452,None,1753.8846615001094,None,1753.8846615001094,None,n,0.35495489998720586,1753.8846615001094,None,,,color16,001,2021_Nov_01_1352,ProdSingRedo,3.2.3,59.89935715659874,
,,,,86,0,86,0,,,,,,,,,,,,,,,,,,,,,,,,1759.9536095999647,None,,,,,,,,,,,,,,,,,answer,silent,blue,86,74,8,1754.7763233000878,None,1754.7763233000878,None,3,4.367522600106895,1754.7763233000878,None,1759.1806425999384,None,1759.6917369000148,None,1759.6917369000148,None,n,0.23622859991155565,1759.6917369000148,None,,,color16,001,2021_Nov_01_1352,ProdSingRedo,3.2.3,59.89935715659874,
,,,,87,0,87,0,,,,,,,,,,,,,,,,,,,,,,,,1763.5834558000788,None,,,,,,,,,,,,,,,,,bicycle,new_silent,blue,87,161,21,1760.4836496000644,None,1760.4836496000644,None,1,2.332019600085914,1760.4836496000644,None,1762.8594144999515,None,1763.3670234999154,None,1763.3670234999154,None,n,0.19246069993823767,1763.3670234999154,None,,,color16,001,2021_Nov_01_1352,ProdSingRedo,3.2.3,59.89935715659874,
,,,,88,0,88,0,,,,,,,,,,,,,,,,,,,,,,,,1768.8126862000208,None,,,,,,,,,,,,,,,,,department,new_aloud,yellow,88,134,90,1764.0868814999703,None,1764.0868814999703,None,2,2.968871399993077,1764.0868814999703,None,1767.0979720000178,None,1767.5981552000158,None,1767.5981552000158,None,n,1.1857940999325365,1767.5981552000158,None,,,color16,001,2021_Nov_01_1352,ProdSingRedo,3.2.3,59.89935715659874,
,,,,89,0,89,0,,,,,,,,,,,,,,,,,,,,,,,,1776.0213474000338,None,,,,,,,,,,,,,,,,,foundation,aloud,yellow,89,59,132,1769.341426699888,None,1769.341426699888,None,5,5.850371800130233,1769.341426699888,None,1775.2472087000497,None,1775.7597807000857,None,1775.7597807000857,None,r,0.23215340008027852,1775.7597807000857,None,,,color16,001,2021_Nov_01_1352,ProdSingRedo,3.2.3,59.89935715659874,
,,,,90,0,90,0,,,,,,,,,,,,,,,,,,,,,,,,1781.3252203001175,None,,,,,,,,,,,,,,,,,figure,new_silent,blue,90,174,128,1776.5450385001022,None,1776.5450385001022,None,4,3.518506499938667,1776.5450385001022,None,1780.0913712000474,None,1780.6137516000308,None,1780.6137516000308,None,f,0.6740617000032216,1780.6137516000308,None,,,color16,001,2021_Nov_01_1352,ProdSingRedo,3.2.3,59.89935715659874,
,,,,91,0,91,0,,,,,,,,,,,,,,,,,,,,,,,,1788.0814789999276,None,,,,,,,,,,,,,,,,,surprise,new_sing,red,91,115,317,1781.8514163999353,None,1781.8514163999353,None,2,4.820647699991241,1781.8514163999353,None,1786.7111611000728,None,1787.2358462000266,None,1787.2358462000266,None,n,0.8198867999017239,1787.2358462000266,None,,,color16,001,2021_Nov_01_1352,ProdSingRedo,3.2.3,59.89935715659874,
,,,,92,0,92,0,,,,,,,,,,,,,,,,,,,,,,,,1791.6128163000103,None,,,,,,,,,,,,,,,,,agreement,sing,red,92,25,5,1788.6067427000962,None,1788.6067427000962,None,4,2.273138500051573,1788.6067427000962,None,1790.9254759999458,None,1791.4375072000548,None,1791.4375072000548,None,f,0.14580030017532408,1791.4375072000548,None,,,color16,001,2021_Nov_01_1352,ProdSingRedo,3.2.3,59.89935715659874,
,,,,93,0,93,0,,,,,,,,,,,,,,,,,,,,,,,,1797.008288800018,None,,,,,,,,,,,,,,,,,threat,new_aloud,yellow,93,139,329,1792.112137600081,None,1792.112137600081,None,2,4.103642999893054,1792.112137600081,None,1796.2524715999607,None,1796.7599897999316,None,1796.7599897999316,None,n,0.2158474000170827,1796.7599897999316,None,,,color16,001,2021_Nov_01_1352,ProdSingRedo,3.2.3,59.89935715659874,
,,,,94,0,94,0,,,,,,,,,,,,,,,,,,,,,,,,1806.066199199995,None,,,,,,,,,,,,,,,,,edition,new_sing,red,94,111,107,1797.53260460007,None,1797.53260460007,None,3,7.731233099941164,1797.53260460007,None,1805.3096519000828,None,1805.8157172999345,None,1805.8157172999345,None,n,0.22407900006510317,1805.8157172999345,None,,,color16,001,2021_Nov_01_1352,ProdSingRedo,3.2.3,59.89935715659874,
,,,,95,0,95,0,,,,,,,,,,,,,,,,,,,,,,,,1815.3086218999233,None,,,,,,,,,,,,,,,,,disease,new_aloud,yellow,95,140,97,1806.5922250999138,None,1806.5922250999138,None,2,7.975435300031677,1806.5922250999138,None,1814.6100167999975,None,1815.1301657999866,None,1815.1301657999866,None,n,0.149605100043118,1815.1301657999866,None,,,color16,001,2021_Nov_01_1352,ProdSingRedo,3.2.3,59.89935715659874,
,,,,96,0,96,0,,,,,,,,,,,,,,,,,,,,,,,,1819.4895538000856,None,,,,,,,,,,,,,,,,,comedy,new_sing,red,96,118,58,1815.831722300034,None,1815.831722300034,None,1,2.8881064001470804,1815.831722300034,None,1818.755468999967,None,1819.2642254999373,None,1819.2642254999373,None,n,0.19933680002577603,1819.2642254999373,None,,,color16,001,2021_Nov_01_1352,ProdSingRedo,3.2.3,59.89935715659874,
,,,,97,0,97,0,,,,,,,,,,,,,,,,,,,,,,,,1825.3267777999863,None,,,,,,,,,,,,,,,,,victory,silent,blue,97,86,346,1820.0074340999126,None,1820.0074340999126,None,2,4.552576499991119,1820.0074340999126,None,1824.602804099908,None,1825.1075778000522,None,1825.1075778000522,None,n,0.1805225999560207,1825.1075778000522,None,,,color16,001,2021_Nov_01_1352,ProdSingRedo,3.2.3,59.89935715659874,
,,,,98,0,98,0,,,,,,,,,,,,,,,,,,,,,,,,1837.1405086999293,None,,,,,,,,,,,,,,,,,hearing,sing,red,98,29,150,1825.829310900066,None,1825.829310900066,None,2,10.66652620001696,1825.829310900066,None,1836.5487647999544,None,1837.0748143999372,None,1837.0748143999372,None,n,0.036820400040596724,1837.0748143999372,None,,,color16,001,2021_Nov_01_1352,ProdSingRedo,3.2.3,59.89935715659874,
,,,,99,0,99,0,,,,,,,,,,,,,,,,,,,,,,,,1844.2226682000328,None,,,,,,,,,,,,,,,,,country,new_silent,blue,99,172,73,1837.6561557999812,None,1837.6561557999812,None,4,5.7436193998437375,1837.6561557999812,None,1843.4668238000013,None,1843.977444899967,None,1843.977444899967,None,f,0.2144009000621736,1843.977444899967,None,,,color16,001,2021_Nov_01_1352,ProdSingRedo,3.2.3,59.89935715659874,
,,,,100,0,100,0,,,,,,,,,,,,,,,,,,,,,,,,1850.9452708000317,None,,,,,,,,,,,,,,,,,tennis,aloud,yellow,100,53,323,1844.7437505999114,None,1844.7437505999114,None,4,5.400265800068155,1844.7437505999114,None,1850.189646899933,None,1850.6934954999015,None,1850.6934954999015,None,f,0.2263146999757737,1850.6934954999015,None,,,color16,001,2021_Nov_01_1352,ProdSingRedo,3.2.3,59.89935715659874,
,,,,101,0,101,0,,,,,,,,,,,,,,,,,,,,,,,,1868.2804668999743,None,,,,,,,,,,,,,,,,,present,new_sing,red,101,107,231,1851.4676202998962,None,1851.4676202998962,None,4,15.93178220000118,1851.4676202998962,None,1867.42554560001,None,1867.9429868001025,None,1867.9429868001025,None,f,0.3048639001790434,1867.9429868001025,None,,,color16,001,2021_Nov_01_1352,ProdSingRedo,3.2.3,59.89935715659874,
,,,,102,0,102,0,,,,,,,,,,,,,,,,,,,,,,,,1872.9175688000396,None,,,,,,,,,,,,,,,,,dozen,new_silent,blue,102,163,102,1868.8056429999415,None,1868.8056429999415,None,3,3.2262039999477565,1868.8056429999415,None,1872.0808796000201,None,1872.6039400999434,None,1872.6039400999434,None,f,0.2839466999284923,1872.6039400999434,None,,,color16,001,2021_Nov_01_1352,ProdSingRedo,3.2.3,59.89935715659874,
,,,,103,0,103,0,,,,,,,,,,,,,,,,,,,,,,,,1878.1886165998876,None,,,,,,,,,,,,,,,,,sunset,new_silent,blue,103,175,315,1873.442550699925,None,1873.442550699925,None,1,3.845295500010252,1873.442550699925,None,1877.338185899891,None,1877.8576372000389,None,1877.8576372000389,None,n,0.2943506999872625,1877.8576372000389,None,,,color16,001,2021_Nov_01_1352,ProdSingRedo,3.2.3,59.89935715659874,
,,,,104,0,104,0,,,,,,,,,,,,,,,,,,,,,,,,1885.9127613001037,None,,,,,,,,,,,,,,,,,season,new_sing,red,104,90,277,1878.7202713999432,None,1878.7202713999432,None,3,6.463567599887028,1878.7202713999432,None,1885.2295987999532,None,1885.7499432999175,None,1885.7499432999175,None,n,0.13779169996269047,1885.7499432999175,None,,,color16,001,2021_Nov_01_1352,ProdSingRedo,3.2.3,59.89935715659874,
,,,,105,0,105,0,,,,,,,,,,,,,,,,,,,,,,,,1890.3401909999084,None,,,,,,,,,,,,,,,,,birth,new_silent,blue,105,159,22,1886.4336775999982,None,1886.4336775999982,None,1,3.1106509000528604,1886.4336775999982,None,1889.6078542000614,None,1890.117921799887,None,1890.117921799887,None,n,0.19398389989510179,1890.117921799887,None,,,color16,001,2021_Nov_01_1352,ProdSingRedo,3.2.3,59.89935715659874,
,,,,106,0,106,0,,,,,,,,,,,,,,,,,,,,,,,,1893.9552048000041,None,,,,,,,,,,,,,,,,,finish,silent,blue,106,77,130,1890.8640606000554,None,1890.8640606000554,None,4,2.335841199848801,1890.8640606000554,None,1893.25200759992,None,1893.7567119000014,None,1893.7567119000014,None,f,0.17126509989611804,1893.7567119000014,None,,,color16,001,2021_Nov_01_1352,ProdSingRedo,3.2.3,59.89935715659874,
,,,,107,0,107,0,,,,,,,,,,,,,,,,,,,,,,,,1901.3963671000674,None,,,,,,,,,,,,,,,,,balance,sing,red,107,24,17,1894.4794731000438,None,1894.4794731000438,None,2,5.672552899923176,1894.4794731000438,None,1900.1882915000897,None,1900.7005497000646,None,1900.7005497000646,None,n,0.6673078001476824,1900.7005497000646,None,,,color16,001,2021_Nov_01_1352,ProdSingRedo,3.2.3,59.89935715659874,
,,,,108,0,108,0,,,,,,,,,,,,,,,,,,,,,,,,1906.9004474999383,None,,,,,,,,,,,,,,,,,division,sing,red,108,28,101,1901.9218808000442,None,1901.9218808000442,None,2,4.062109200051054,1901.9218808000442,None,1906.0391027000733,None,1906.5352409000043,None,1906.5352409000043,None,n,0.33659199997782707,1906.5352409000043,None,,,color16,001,2021_Nov_01_1352,ProdSingRedo,3.2.3,59.89935715659874,
,,,,109,0,109,0,,,,,,,,,,,,,,,,,,,,,,,,1912.4157012000214,None,,,,,,,,,,,,,,,,,cousin,sing,red,109,21,76,1907.4289849000052,None,1907.4289849000052,None,6,3.88291750010103,1907.4289849000052,None,1911.3567629000172,None,1911.8655626000836,None,1911.8655626000836,None,r,0.5339497001841664,1911.8655626000836,None,,,color16,001,2021_Nov_01_1352,ProdSingRedo,3.2.3,59.89935715659874,
,,,,110,0,110,0,,,,,,,,,,,,,,,,,,,,,,,,1918.1293635999318,None,,,,,,,,,,,,,,,,,scale,new_aloud,yellow,110,132,272,1912.9330537000205,None,1912.9330537000205,None,2,4.411028499947861,1912.9330537000205,None,1917.3920541000552,None,1917.8979601999745,None,1917.8979601999745,None,n,0.1979064999613911,1917.8979601999745,None,,,color16,001,2021_Nov_01_1352,ProdSingRedo,3.2.3,59.89935715659874,
,,,,111,0,111,0,,,,,,,,,,,,,,,,,,,,,,,,1928.775947399903,None,,,,,,,,,,,,,,,,,public,new_sing,red,111,105,244,1918.6528759000357,None,1918.6528759000357,None,2,9.202998000197113,1918.6528759000357,None,1927.8990279999562,None,1928.4105463000014,None,1928.4105463000014,None,n,0.333264899905771,1928.4105463000014,None,,,color16,001,2021_Nov_01_1352,ProdSingRedo,3.2.3,59.89935715659874,
,,,,112,0,112,0,,,,,,,,,,,,,,,,,,,,,,,,1933.7799033999909,None,,,,,,,,,,,,,,,,,executive,new_aloud,yellow,112,138,122,1929.3012800998986,None,1929.3012800998986,None,5,3.7067222001496702,1929.3012800998986,None,1933.0650343000889,None,1933.5653856999706,None,1933.5653856999706,None,f,0.18678370001725852,1933.5653856999706,None,,,color16,001,2021_Nov_01_1352,ProdSingRedo,3.2.3,59.89935715659874,
,,,,113,0,113,0,,,,,,,,,,,,,,,,,,,,,,,,1937.36416119989,None,,,,,,,,,,,,,,,,,suggestion,new_silent,blue,113,173,314,1934.306871100096,None,1934.306871100096,None,1,2.2610910998191684,1934.306871100096,None,1936.6141222000588,None,1937.118201999925,None,1937.118201999925,None,n,0.21771380002610385,1937.118201999925,None,,,color16,001,2021_Nov_01_1352,ProdSingRedo,3.2.3,59.89935715659874,
,,,,114,0,114,0,,,,,,,,,,,,,,,,,,,,,,,,1941.26673449995,None,,,,,,,,,,,,,,,,,phrase,new_silent,blue,114,178,220,1937.889570799889,None,1937.889570799889,None,2,2.5983331999741495,1937.889570799889,None,1940.5298148000147,None,1941.0399029001128,None,1941.0399029001128,None,n,0.19996090000495315,1941.0399029001128,None,,,color16,001,2021_Nov_01_1352,ProdSingRedo,3.2.3,59.89935715659874,
,,,,115,0,115,0,,,,,,,,,,,,,,,,,,,,,,,,1946.0228722998872,None,,,,,,,,,,,,,,,,,sleep,new_sing,red,115,102,290,1941.7784061001148,None,1941.7784061001148,None,2,3.4615728000644594,1941.7784061001148,None,1945.2911531999707,None,1945.8031969000585,None,1945.8031969000585,None,n,0.19696940016001463,1945.8031969000585,None,,,color16,001,2021_Nov_01_1352,ProdSingRedo,3.2.3,59.89935715659874,
,,,,116,0,116,0,,,,,,,,,,,,,,,,,,,,,,,,1950.2705796000082,None,,,,,,,,,,,,,,,,,blind,silent,blue,116,62,24,1946.5490570000838,None,1946.5490570000838,None,4,3.0828255999367684,1946.5490570000838,None,1949.6736586999614,None,1950.1954193001147,None,1950.1954193001147,None,f,0.05239689978770912,1950.1954193001147,None,,,color16,001,2021_Nov_01_1352,ProdSingRedo,3.2.3,59.89935715659874,
,,,,117,0,117,0,,,,,,,,,,,,,,,,,,,,,,,,1965.1920642000623,None,,,,,,,,,,,,,,,,,dream,new_silent,blue,117,170,104,1950.7840356999077,None,1950.7840356999077,None,4,12.863972800085321,1950.7840356999077,None,1963.6851715999655,None,1964.1944903000258,None,1964.1944903000258,None,f,0.9734553000889719,1964.1944903000258,None,,,color16,001,2021_Nov_01_1352,ProdSingRedo,3.2.3,59.89935715659874,
,,,,118,0,118,0,,,,,,,,,,,,,,,,,,,,,,,,1968.4459347999655,None,,,,,,,,,,,,,,,,,bureau,new_silent,blue,118,176,37,1965.72034660005,None,1965.72034660005,None,2,1.8876821999438107,1965.72034660005,None,1967.6594769000076,None,1968.1651445000898,None,1968.1651445000898,None,n,0.2427682001143694,1968.1651445000898,None,,,color16,001,2021_Nov_01_1352,ProdSingRedo,3.2.3,59.89935715659874,
,,,,119,0,119,0,,,,,,,,,,,,,,,,,,,,,,,,1973.6170485001057,None,,,,,,,,,,,,,,,,,appearance,aloud,yellow,119,51,10,1968.9772687000223,None,1968.9772687000223,None,3,3.8946685001719743,1968.9772687000223,None,1972.920048699947,None,1973.437922500074,None,1973.437922500074,None,f,0.14635180006735027,1973.437922500074,None,,,color16,001,2021_Nov_01_1352,ProdSingRedo,3.2.3,59.89935715659874,
,,,,120,0,120,0,,,,,,,,,,,,,,,,,,,,,,,,1979.8754022000358,None,,,,,,,,,,,,,,,,,majority,new_sing,red,120,113,176,1974.1486869000364,None,1974.1486869000364,None,2,4.107214999850839,1974.1486869000364,None,1978.302787099965,None,1978.8331858001184,None,1978.8331858001184,None,n,1.0150822000578046,1978.8331858001184,None,,,color16,001,2021_Nov_01_1352,ProdSingRedo,3.2.3,59.89935715659874,
,,,,121,0,121,0,,,,,,,,,,,,,,,,,,,,,,,,1984.3278856000397,None,,,,,,,,,,,,,,,,,finance,sing,red,121,16,129,1980.3986410999205,None,1980.3986410999205,None,3,3.1692214999347925,1980.3986410999205,None,1983.6085415999405,None,1984.133697600104,None,1984.133697600104,None,f,0.17017049994319677,1984.133697600104,None,,,color16,001,2021_Nov_01_1352,ProdSingRedo,3.2.3,59.89935715659874,
,,,,122,0,122,0,,,,,,,,,,,,,,,,,,,,,,,,1990.651840500068,None,,,,,,,,,,,,,,,,,minor,aloud,yellow,122,34,191,1984.8510443000123,None,1984.8510443000123,None,3,4.916907300008461,1984.8510443000123,None,1989.810402299976,None,1990.3168025000487,None,1990.3168025000487,None,n,0.3071580999530852,1990.3168025000487,None,,,color16,001,2021_Nov_01_1352,ProdSingRedo,3.2.3,59.89935715659874,
,,,,123,0,123,0,,,,,,,,,,,,,,,,,,,,,,,,1996.2574384000618,None,,,,,,,,,,,,,,,,,profession,new_sing,red,123,112,241,1991.179363900097,None,1991.179363900097,None,4,4.188819800037891,1991.179363900097,None,1995.4238241000567,None,1995.9442749000154,None,1995.9442749000154,None,f,0.2876808999571949,1995.9442749000154,None,,,color16,001,2021_Nov_01_1352,ProdSingRedo,3.2.3,59.89935715659874,
,,,,124,0,124,0,,,,,,,,,,,,,,,,,,,,,,,,2003.8348932000808,None,,,,,,,,,,,,,,,,,budget,aloud,yellow,124,54,34,1996.7838387000374,None,1996.7838387000374,None,4,5.447737599955872,1996.7838387000374,None,2002.2585062999278,None,2002.785859100055,None,2002.785859100055,None,f,1.014099400024861,2002.785859100055,None,,,color16,001,2021_Nov_01_1352,ProdSingRedo,3.2.3,59.89935715659874,
,,,,125,0,125,0,,,,,,,,,,,,,,,,,,,,,,,,2007.1509803999215,None,,,,,,,,,,,,,,,,,quiet,aloud,yellow,125,35,249,2004.3601504000835,None,2004.3601504000835,None,4,2.0157170000020415,2004.3601504000835,None,2006.4116305999923,None,2006.920920799952,None,2006.920920799952,None,f,0.19106619991362095,2006.920920799952,None,,,color16,001,2021_Nov_01_1352,ProdSingRedo,3.2.3,59.89935715659874,
,,,,126,0,126,0,,,,,,,,,,,,,,,,,,,,,,,,2011.9564495999366,None,,,,,,,,,,,,,,,,,raise,new_sing,red,126,106,250,2007.6785339000635,None,2007.6785339000635,None,2,3.4894250000361353,2007.6785339000635,None,2011.218789699953,None,2011.724774699891,None,2011.724774699891,None,n,0.19541019992902875,2011.724774699891,None,,,color16,001,2021_Nov_01_1352,ProdSingRedo,3.2.3,59.89935715659874,
,,,,127,0,127,0,,,,,,,,,,,,,,,,,,,,,,,,2018.6102012000047,None,,,,,,,,,,,,,,,,,platform,sing,red,127,9,224,2012.4850779999979,None,2012.4850779999979,None,5,5.387064700014889,2012.4850779999979,None,2017.9196069000755,None,2018.4178081001155,None,2018.4178081001155,None,f,0.15816579991951585,2018.4178081001155,None,,,color16,001,2021_Nov_01_1352,ProdSingRedo,3.2.3,59.89935715659874,
,,,,128,0,128,0,,,,,,,,,,,,,,,,,,,,,,,,2021.4914359000977,None,,,,,,,,,,,,,,,,,substance,sing,red,128,4,313,2019.1418339998927,None,2019.1418339998927,None,4,1.6668334000278264,2019.1418339998927,None,2020.8517752999905,None,2021.3701885000337,None,2021.3701885000337,None,f,0.09341809991747141,2021.3701885000337,None,,,color16,001,2021_Nov_01_1352,ProdSingRedo,3.2.3,59.89935715659874,
,,,,129,0,129,0,,,,,,,,,,,,,,,,,,,,,,,,2025.6969345000107,None,,,,,,,,,,,,,,,,,machinery,new_aloud,yellow,129,148,175,2022.0133877999615,None,2022.0133877999615,None,2,3.0505291000008583,2022.0133877999615,None,2025.1200963999145,None,2025.6394215999171,None,2025.6394215999171,None,n,0.04025459988042712,2025.6394215999171,None,,,color16,001,2021_Nov_01_1352,ProdSingRedo,3.2.3,59.89935715659874,
,,,,130,0,130,0,,,,,,,,,,,,,,,,,,,,,,,,2028.8378940999974,None,,,,,,,,,,,,,,,,,vision,new_aloud,yellow,130,125,347,2026.2127533999737,None,2026.2127533999737,None,2,1.9713162002153695,2026.2127533999737,None,2028.235193700064,None,2028.740330700064,None,2028.740330700064,None,n,0.07586109987460077,2028.740330700064,None,,,color16,001,2021_Nov_01_1352,ProdSingRedo,3.2.3,59.89935715659874,
,,,,131,0,131,0,,,,,,,,,,,,,,,,,,,,,,,,2033.5280255000107,None,,,,,,,,,,,,,,,,,center,new_silent,blue,131,152,44,2029.358415900031,None,2029.358415900031,None,3,3.425676500191912,2029.358415900031,None,2032.8279013000429,None,2033.344444599934,None,2033.344444599934,None,f,0.15987269999459386,2033.344444599934,None,,,color16,001,2021_Nov_01_1352,ProdSingRedo,3.2.3,59.89935715659874,
,,,,132,0,132,0,,,,,,,,,,,,,,,,,,,,,,,,2039.1654678999912,None,,,,,,,,,,,,,,,,,audience,sing,red,132,13,14,2034.053625300061,None,2034.053625300061,None,3,3.8903813001234084,2034.053625300061,None,2037.9937193999067,None,2038.5001993000042,None,2038.5001993000042,None,n,0.6357382999267429,2038.5001993000042,None,,,color16,001,2021_Nov_01_1352,ProdSingRedo,3.2.3,59.89935715659874,
,,,,133,0,133,0,,,,,,,,,,,,,,,,,,,,,,,,2042.970954600023,None,,,,,,,,,,,,,,,,,patient,silent,blue,133,84,213,2039.6929969999474,None,2039.6929969999474,None,3,2.291030899854377,2039.6929969999474,None,2042.0346174000297,None,2042.5398426998872,None,2042.5398426998872,None,n,0.3961181999184191,2042.5398426998872,None,,,color16,001,2021_Nov_01_1352,ProdSingRedo,3.2.3,59.89935715659874,
,,,,134,0,134,0,,,,,,,,,,,,,,,,,,,,,,,,2057.0180180000607,None,,,,,,,,,,,,,,,,,permit,silent,blue,134,65,218,2043.4921466000378,None,2043.4921466000378,None,3,11.73172689997591,2043.4921466000378,None,2055.2649435000494,None,2055.7760058999993,None,2055.7760058999993,None,n,1.2162494000513107,2055.7760058999993,None,,,color16,001,2021_Nov_01_1352,ProdSingRedo,3.2.3,59.89935715659874,
,,,,135,0,135,0,,,,,,,,,,,,,,,,,,,,,,,,2061.137279199902,None,,,,,,,,,,,,,,,,,store,sing,red,135,15,305,2057.540750599932,None,2057.540750599932,None,5,2.811215699883178,2057.540750599932,None,2060.3981143001,None,2060.905134000117,None,2060.905134000117,None,f,0.19884020020253956,2060.905134000117,None,,,color16,001,2021_Nov_01_1352,ProdSingRedo,3.2.3,59.89935715659874,
,,,,136,0,136,0,,,,,,,,,,,,,,,,,,,,,,,,2064.5582254000474,None,,,,,,,,,,,,,,,,,grade,new_silent,blue,136,168,140,2061.653086300008,None,2061.653086300008,None,2,2.226938399951905,2061.653086300008,None,2063.9250821000896,None,2064.4469214000273,None,2064.4469214000273,None,n,0.08114799996837974,2064.4469214000273,None,,,color16,001,2021_Nov_01_1352,ProdSingRedo,3.2.3,59.89935715659874,
,,,,137,0,137,0,,,,,,,,,,,,,,,,,,,,,,,,2068.6071921000257,None,,,,,,,,,,,,,,,,,notice,new_aloud,yellow,137,128,201,2065.0796980999876,None,2065.0796980999876,None,3,2.920273100025952,2065.0796980999876,None,2068.040906799957,None,2068.5603261000942,None,2068.5603261000942,None,n,0.023594799917191267,2068.5603261000942,None,,,color16,001,2021_Nov_01_1352,ProdSingRedo,3.2.3,59.89935715659874,
,,,,138,0,138,0,,,,,,,,,,,,,,,,,,,,,,,,2073.833439399954,None,,,,,,,,,,,,,,,,,contract,new_aloud,yellow,138,133,68,2069.1354233000893,None,2069.1354233000893,None,2,4.056468999944627,2069.1354233000893,None,2073.2365137001034,None,2073.7546894000843,None,2073.7546894000843,None,n,0.045059300027787685,2073.7546894000843,None,,,color16,001,2021_Nov_01_1352,ProdSingRedo,3.2.3,59.89935715659874,
,,,,139,0,139,0,,,,,,,,,,,,,,,,,,,,,,,,2078.1893754000776,None,,,,,,,,,,,,,,,,,title,new_aloud,yellow,139,130,331,2074.353995600017,None,2074.353995600017,None,2,2.733688399894163,2074.353995600017,None,2077.1190818999894,None,2077.6311127999797,None,2077.6311127999797,None,n,0.5288561000488698,2077.6311127999797,None,,,color16,001,2021_Nov_01_1352,ProdSingRedo,3.2.3,59.89935715659874,
,,,,140,0,140,0,,,,,,,,,,,,,,,,,,,,,,,,2086.6122149000876,None,,,,,,,,,,,,,,,,,signal,aloud,yellow,140,38,287,2078.7318106999155,None,2078.7318106999155,None,2,7.28427439997904,2078.7318106999155,None,2086.0664669999387,None,2086.567969100084,None,2086.567969100084,None,n,0.01607280015014112,2086.567969100084,None,,,color16,001,2021_Nov_01_1352,ProdSingRedo,3.2.3,59.89935715659874,
,,,,141,0,141,0,,,,,,,,,,,,,,,,,,,,,,,,2090.583966200007,None,,,,,,,,,,,,,,,,,principal,silent,blue,141,87,236,2087.138609800022,None,2087.138609800022,None,6,2.677418899955228,2087.138609800022,None,2089.8622369999066,None,2090.3711490998976,None,2090.3711490998976,None,r,0.1888247998431325,2090.3711490998976,None,,,color16,001,2021_Nov_01_1352,ProdSingRedo,3.2.3,59.89935715659874,
,,,,142,0,142,0,,,,,,,,,,,,,,,,,,,,,,,,2096.989418399986,None,,,,,,,,,,,,,,,,,appeal,sing,red,142,11,9,2091.110797900008,None,2091.110797900008,None,5,5.161258100066334,2091.110797900008,None,2096.3187931999564,None,2096.844675099943,None,2096.844675099943,None,f,0.11530190007761121,2096.844675099943,None,,,color16,001,2021_Nov_01_1352,ProdSingRedo,3.2.3,59.89935715659874,
,,,,143,0,143,0,,,,,,,,,,,,,,,,,,,,,,,,2104.797650600085,None,,,,,,,,,,,,,,,,,track,silent,blue,143,72,334,2097.5156541999895,None,2097.5156541999895,None,5,6.620311900041997,2097.5156541999895,None,2104.165670499904,None,2104.685091200052,None,2104.685091200052,None,f,0.09111999999731779,2104.685091200052,None,,,color16,001,2021_Nov_01_1352,ProdSingRedo,3.2.3,59.89935715659874,
,,,,144,0,144,0,,,,,,,,,,,,,,,,,,,,,,,,2108.7023599999957,None,,,,,,,,,,,,,,,,,trash,new_silent,blue,144,151,337,2105.3326838999055,None,2105.3326838999055,None,3,2.7152937999926507,2105.3326838999055,None,2108.1012734000105,None,2108.620010399958,None,2108.620010399958,None,n,0.059952800162136555,2108.620010399958,None,,,color16,001,2021_Nov_01_1352,ProdSingRedo,3.2.3,59.89935715659874,
,,,,145,0,145,0,,,,,,,,,,,,,,,,,,,,,,,,2113.4073566999286,None,,,,,,,,,,,,,,,,,silence,aloud,yellow,145,49,288,2109.223609500099,None,2109.223609500099,None,6,3.4644266001414508,2109.223609500099,None,2112.72957350011,None,2113.238696699962,None,2113.238696699962,None,r,0.14558260003104806,2113.238696699962,None,,,color16,001,2021_Nov_01_1352,ProdSingRedo,3.2.3,59.89935715659874,
,,,,146,0,146,0,,,,,,,,,,,,,,,,,,,,,,,,2118.1292906000745,None,,,,,,,,,,,,,,,,,discussion,new_aloud,yellow,146,137,96,2113.9369757000823,None,2113.9369757000823,None,3,3.2550373999401927,2113.9369757000823,None,2117.247646200005,None,2117.7671125999186,None,2117.7671125999186,None,n,0.3288882998749614,2117.7671125999186,None,,,color16,001,2021_Nov_01_1352,ProdSingRedo,3.2.3,59.89935715659874,
,,,,147,0,147,0,,,,,,,,,,,,,,,,,,,,,,,,2123.116477600066,None,,,,,,,,,,,,,,,,,couch,new_aloud,yellow,147,120,70,2118.655176700093,None,2118.655176700093,None,3,3.792707100044936,2118.655176700093,None,2122.491470299894,None,2123.0085424000863,None,2123.0085424000863,None,f,0.07939120009541512,2123.0085424000863,None,,,color16,001,2021_Nov_01_1352,ProdSingRedo,3.2.3,59.89935715659874,
,,,,148,0,148,0,,,,,,,,,,,,,,,,,,,,,,,,2127.020348600112,None,,,,,,,,,,,,,,,,,fight,new_silent,blue,148,165,127,2123.6405160999857,None,2123.6405160999857,None,2,2.695648199878633,2123.6405160999857,None,2126.381317900028,None,2126.8941037999466,None,2126.8941037999466,None,n,0.09788580005988479,2126.8941037999466,None,,,color16,001,2021_Nov_01_1352,ProdSingRedo,3.2.3,59.89935715659874,
,,,,149,0,149,0,,,,,,,,,,,,,,,,,,,,,,,,2138.5650057999883,None,,,,,,,,,,,,,,,,,corner,aloud,yellow,149,31,69,2127.5409836000763,None,2127.5409836000763,None,3,10.211100799962878,2127.5409836000763,None,2137.7940279000904,None,2138.3148616000544,None,2138.3148616000544,None,n,0.22122720000334084,2138.3148616000544,None,,,color16,001,2021_Nov_01_1352,ProdSingRedo,3.2.3,59.89935715659874,
,,,,150,0,150,0,,,,,,,,,,,,,,,,,,,,,,,,2144.1558797000907,None,,,,,,,,,,,,,,,,,meeting,new_sing,red,150,101,187,2139.089246599935,None,2139.089246599935,None,4,4.390726700192317,2139.089246599935,None,2143.5135852000676,None,2144.0247162999585,None,2144.0247162999585,None,f,0.09531860006973147,2144.0247162999585,None,,,color16,001,2021_Nov_01_1352,ProdSingRedo,3.2.3,59.89935715659874,
,,,,151,0,151,0,,,,,,,,,,,,,,,,,,,,,,,,2147.940244199941,None,,,,,,,,,,,,,,,,,force,silent,blue,151,79,131,2144.676365399966,None,2144.676365399966,None,3,2.507866600062698,2144.676365399966,None,2147.2213204000145,None,2147.731458999915,None,2147.731458999915,None,f,0.18061799998395145,2147.731458999915,None,,,color16,001,2021_Nov_01_1352,ProdSingRedo,3.2.3,59.89935715659874,
,,,,152,0,152,0,,,,,,,,,,,,,,,,,,,,,,,,2153.1672187000513,None,,,,,,,,,,,,,,,,,course,silent,blue,152,82,74,2148.469409199897,None,2148.469409199897,None,3,4.130402599927038,2148.469409199897,None,2152.630255199969,None,2153.149857700104,None,2153.149857700104,None,f,0.002327099908143282,2153.149857700104,None,,,color16,001,2021_Nov_01_1352,ProdSingRedo,3.2.3,59.89935715659874,
,,,,153,0,153,0,,,,,,,,,,,,,,,,,,,,,,,,2158.8857122999616,None,,,,,,,,,,,,,,,,,oxygen,sing,red,153,14,209,2153.6941092999186,None,2153.6941092999186,None,2,4.457891599973664,2153.6941092999186,None,2158.2017530000303,None,2158.714080200065,None,2158.714080200065,None,f,0.14202609984204173,2158.714080200065,None,,,color16,001,2021_Nov_01_1352,ProdSingRedo,3.2.3,59.89935715659874,
,,,,154,0,154,0,,,,,,,,,,,,,,,,,,,,,,,,2162.832687899936,None,,,,,,,,,,,,,,,,,commercial,new_sing,red,154,100,61,2159.417048400035,None,2159.417048400035,None,1,2.8070771999191493,2159.417048400035,None,2162.274973399937,None,2162.7935409001075,None,2162.7935409001075,None,n,0.02227739989757538,2162.7935409001075,None,,,color16,001,2021_Nov_01_1352,ProdSingRedo,3.2.3,59.89935715659874,
,,,,155,0,155,0,,,,,,,,,,,,,,,,,,,,,,,,2166.9280296999495,None,,,,,,,,,,,,,,,,,display,silent,blue,155,66,98,2163.350172400009,None,2163.350172400009,None,4,2.60987940011546,2163.350172400009,None,2166.0108183999546,None,2166.514720000094,None,2166.514720000094,None,f,0.38961419998668134,2166.514720000094,None,,,color16,001,2021_Nov_01_1352,ProdSingRedo,3.2.3,59.89935715659874,
,,,,156,0,156,0,,,,,,,,,,,,,,,,,,,,,,,,2170.9809954999946,None,,,,,,,,,,,,,,,,,fashion,new_sing,red,156,109,125,2167.4542076000944,None,2167.4542076000944,None,1,2.8578986001666635,2167.4542076000944,None,2170.3592753000557,None,2170.885628799908,None,2170.885628799908,None,n,0.06639169994741678,2170.885628799908,None,,,color16,001,2021_Nov_01_1352,ProdSingRedo,3.2.3,59.89935715659874,
,,,,157,0,157,0,,,,,,,,,,,,,,,,,,,,,,,,2175.050923099974,None,,,,,,,,,,,,,,,,,series,aloud,yellow,157,47,279,2171.5030207000673,None,2171.5030207000673,None,4,2.785031600156799,2171.5030207000673,None,2174.331193299964,None,2174.848450700054,None,2174.848450700054,None,f,0.16763949999585748,2174.848450700054,None,,,color16,001,2021_Nov_01_1352,ProdSingRedo,3.2.3,59.89935715659874,
,,,,158,0,158,0,,,,,,,,,,,,,,,,,,,,,,,,2180.4788142000325,None,,,,,,,,,,,,,,,,,childhood,silent,blue,158,83,49,2175.5728728999384,None,2175.5728728999384,None,4,4.1952048998791724,2175.5728728999384,None,2179.8029153000098,None,2180.323909299914,None,2180.323909299914,None,f,0.11637279996648431,2180.323909299914,None,,,color16,001,2021_Nov_01_1352,ProdSingRedo,3.2.3,59.89935715659874,
,,,,159,0,159,0,,,,,,,,,,,,,,,,,,,,,,,,2186.713488300098,None,,,,,,,,,,,,,,,,,front,sing,red,159,1,134,2181.0011096999515,None,2181.0011096999515,None,2,4.926651699934155,2181.0011096999515,None,2185.959330999991,None,2186.481436399976,None,2186.481436399976,None,n,0.2067640998866409,2186.481436399976,None,,,color16,001,2021_Nov_01_1352,ProdSingRedo,3.2.3,59.89935715659874,
,,,,160,0,160,0,,,,,,,,,,,,,,,,,,,,,,,,2189.951417800039,None,,,,,,,,,,,,,,,,,escape,aloud,yellow,160,32,118,2187.2415859000757,None,2187.2415859000757,None,2,2.014479799894616,2187.2415859000757,None,2189.2988694999367,None,2189.819358699955,None,2189.819358699955,None,n,0.10095130000263453,2189.819358699955,None,,,color16,001,2021_Nov_01_1352,ProdSingRedo,3.2.3,59.89935715659874,
,,,,161,0,161,0,,,,,,,,,,,,,,,,,,,,,,,,2193.2861750999,None,,,,,,,,,,,,,,,,,breath,new_aloud,yellow,161,145,27,2190.4773434998933,None,2190.4773434998933,None,3,2.106716000009328,2190.4773434998933,None,2192.636848299997,None,2193.140441399999,None,2193.140441399999,None,f,0.11567880003713071,2193.140441399999,None,,,color16,001,2021_Nov_01_1352,ProdSingRedo,3.2.3,59.89935715659874,
,,,,162,0,162,0,,,,,,,,,,,,,,,,,,,,,,,,2201.678240600042,None,,,,,,,,,,,,,,,,,throw,sing,red,162,10,330,2193.8089578999206,None,2193.8089578999206,None,3,7.087135900044814,2193.8089578999206,None,2200.942034299951,None,2201.44739259989,None,2201.44739259989,None,n,0.20065400004386902,2201.44739259989,None,,,color16,001,2021_Nov_01_1352,ProdSingRedo,3.2.3,59.89935715659874,
,,,,163,0,163,0,,,,,,,,,,,,,,,,,,,,,,,,2205.3490222999826,None,,,,,,,,,,,,,,,,,month,new_aloud,yellow,163,123,193,2202.200929200044,None,2202.200929200044,None,2,2.3907614999916404,2202.200929200044,None,2204.6079720999114,None,2205.115504000103,None,2205.115504000103,None,n,0.19622249994426966,2205.115504000103,None,,,color16,001,2021_Nov_01_1352,ProdSingRedo,3.2.3,59.89935715659874,
,,,,164,0,164,0,,,,,,,,,,,,,,,,,,,,,,,,2211.4726066999137,None,,,,,,,,,,,,,,,,,spoke,sing,red,164,8,300,2205.8715445999987,None,2205.8715445999987,None,3,4.768580700038001,2205.8715445999987,None,2210.687668700004,None,2211.207079600077,None,2211.207079600077,None,f,0.23306180001236498,2211.207079600077,None,,,color16,001,2021_Nov_01_1352,ProdSingRedo,3.2.3,59.89935715659874,
,,,,165,0,165,0,,,,,,,,,,,,,,,,,,,,,,,,2216.8271987999324,None,,,,,,,,,,,,,,,,,rural,aloud,yellow,165,46,269,2211.9853362001013,None,2211.9853362001013,None,6,4.038842000067234,2211.9853362001013,None,2216.0738401000854,None,2216.5978268999606,None,2216.5978268999606,None,r,0.1943989999126643,2216.5978268999606,None,,,color16,001,2021_Nov_01_1352,ProdSingRedo,3.2.3,59.89935715659874,
,,,,166,0,166,0,,,,,,,,,,,,,,,,,,,,,,,,2220.9482519999146,None,,,,,,,,,,,,,,,,,weather,silent,blue,166,67,352,2217.3562324000522,None,2217.3562324000522,None,5,2.899672399973497,2217.3562324000522,None,2220.2992678999435,None,2220.8178952001035,None,2220.8178952001035,None,f,0.10219660005532205,2220.8178952001035,None,,,color16,001,2021_Nov_01_1352,ProdSingRedo,3.2.3,59.89935715659874,
,,,,167,0,167,0,,,,,,,,,,,,,,,,,,,,,,,,2224.38622320001,None,,,,,,,,,,,,,,,,,subject,new_silent,blue,167,160,312,2221.4770057999995,None,2221.4770057999995,None,5,2.075109099969268,2221.4770057999995,None,2223.600542600034,None,2224.1109652998857,None,2224.1109652998857,None,f,0.24105299985967577,2224.1109652998857,None,,,color16,001,2021_Nov_01_1352,ProdSingRedo,3.2.3,59.89935715659874,
,,,,168,0,168,0,,,,,,,,,,,,,,,,,,,,,,,,2227.971333900001,None,,,,,,,,,,,,,,,,,block,sing,red,168,23,25,2224.9155234000646,None,2224.9155234000646,None,2,2.3246516999788582,2224.9155234000646,None,2227.287306699902,None,2227.7914573000744,None,2227.7914573000744,None,n,0.1526556999888271,2227.7914573000744,None,,,color16,001,2021_Nov_01_1352,ProdSingRedo,3.2.3,59.89935715659874,
,,,,169,0,169,0,,,,,,,,,,,,,,,,,,,,,,,,2233.9872683000285,None,,,,,,,,,,,,,,,,,narrow,silent,blue,169,78,197,2228.495258399984,None,2228.495258399984,None,3,4.816831200150773,2228.495258399984,None,2233.3641260000877,None,2233.8811494000256,None,2233.8811494000256,None,f,0.08689110004343092,2233.8811494000256,None,,,color16,001,2021_Nov_01_1352,ProdSingRedo,3.2.3,59.89935715659874,
,,,,170,0,170,0,,,,,,,,,,,,,,,,,,,,,,,,2237.041523500113,None,,,,,,,,,,,,,,,,,second,new_aloud,yellow,170,131,278,2234.499753500102,None,2234.499753500102,None,2,1.9405696000903845,2234.499753500102,None,2236.472844199976,None,2236.9788108000066,None,2236.9788108000066,None,n,0.045261000050231814,2236.9788108000066,None,,,color16,001,2021_Nov_01_1352,ProdSingRedo,3.2.3,59.89935715659874,
,,,,171,0,171,0,,,,,,,,,,,,,,,,,,,,,,,,2241.3251771000214,None,,,,,,,,,,,,,,,,,quantity,new_sing,red,171,97,245,2237.558367700083,None,2237.558367700083,None,3,3.07379880012013,2237.558367700083,None,2240.689646099927,None,2241.206899299985,None,2241.206899299985,None,f,0.0811769999563694,2241.206899299985,None,,,color16,001,2021_Nov_01_1352,ProdSingRedo,3.2.3,59.89935715659874,
,,,,172,0,172,0,,,,,,,,,,,,,,,,,,,,,,,,2244.355511999922,None,,,,,,,,,,,,,,,,,article,new_sing,red,172,114,11,2241.8283184000757,None,2241.8283184000757,None,2,1.8359512998722494,2241.8283184000757,None,2243.6999242000747,None,2244.206391399959,None,2244.206391399959,None,n,0.11372009990736842,2244.206391399959,None,,,color16,001,2021_Nov_01_1352,ProdSingRedo,3.2.3,59.89935715659874,
,,,,173,0,173,0,,,,,,,,,,,,,,,,,,,,,,,,2249.0757875000127,None,,,,,,,,,,,,,,,,,space,new_aloud,yellow,173,122,297,2244.8824245000724,None,2244.8824245000724,None,4,3.1339551999699324,2244.8824245000724,None,2248.0537135999184,None,2248.57904760004,None,2248.57904760004,None,f,0.46118139987811446,2248.57904760004,None,,,color16,001,2021_Nov_01_1352,ProdSingRedo,3.2.3,59.89935715659874,
,,,,174,0,174,0,,,,,,,,,,,,,,,,,,,,,,,,2253.729396099923,None,,,,,,,,,,,,,,,,,committee,new_aloud,yellow,174,126,62,2249.591096899938,None,2249.591096899938,None,3,3.040792499901727,2249.591096899938,None,2252.673147100024,None,2253.178962700069,None,2253.178962700069,None,f,0.51721700001508,2253.178962700069,None,,,color16,001,2021_Nov_01_1352,ProdSingRedo,3.2.3,59.89935715659874,
,,,,175,0,175,0,,,,,,,,,,,,,,,,,,,,,,,,2258.7675995000172,None,,,,,,,,,,,,,,,,,background,aloud,yellow,175,41,16,2254.2651394000277,None,2254.2651394000277,None,2,3.7829943001270294,2254.2651394000277,None,2258.1033306999598,None,2258.6178884000983,None,2258.6178884000983,None,n,0.12611679988913238,2258.6178884000983,None,,,color16,001,2021_Nov_01_1352,ProdSingRedo,3.2.3,59.89935715659874,
,,,,176,0,176,0,,,,,,,,,,,,,,,,,,,,,,,,2263.3227299000137,None,,,,,,,,,,,,,,,,,charter,new_silent,blue,176,150,47,2259.295894399984,None,2259.295894399984,None,2,3.320386999985203,2259.295894399984,None,2262.6552158000413,None,2263.1628072999883,None,2263.1628072999883,None,n,0.13327670004218817,2263.1628072999883,None,,,color16,001,2021_Nov_01_1352,ProdSingRedo,3.2.3,59.89935715659874,
,,,,177,0,177,0,,,,,,,,,,,,,,,,,,,,,,,,2269.046800500015,None,,,,,,,,,,,,,,,,,power,new_aloud,yellow,177,129,230,2263.849766399944,None,2263.849766399944,None,3,4.358063800027594,2263.849766399944,None,2268.2411839000415,None,2268.76518029999,None,2268.76518029999,None,n,0.25886310008354485,2268.76518029999,None,,,color16,001,2021_Nov_01_1352,ProdSingRedo,3.2.3,59.89935715659874,
,,,,178,0,178,0,,,,,,,,,,,,,,,,,,,,,,,,2273.300045599928,None,,,,,,,,,,,,,,,,,minute,new_silent,blue,178,169,192,2269.5734767999966,None,2269.5734767999966,None,5,2.986733900150284,2269.5734767999966,None,2272.5948691999074,None,2273.1020651001018,None,2273.1020651001018,None,f,0.1702225999906659,2273.1020651001018,None,,,color16,001,2021_Nov_01_1352,ProdSingRedo,3.2.3,59.89935715659874,
,,,,179,0,179,0,,,,,,,,,,,,,,,,,,,,,,,,2278.1887443999294,None,,,,,,,,,,,,,,,,,youth,aloud,yellow,179,40,359,2273.8249099999666,None,2273.8249099999666,None,5,3.5432873000390828,2273.8249099999666,None,2277.42129489989,None,2277.943496499909,None,2277.943496499909,None,f,0.21663350006565452,2277.943496499909,None,,,color16,001,2021_Nov_01_1352,ProdSingRedo,3.2.3,59.89935715659874,
,,,,,,,,,,,,,,,,,,,,,,,,,,,,,,,,,,,,,,,,,,,,,,,,,,,,,,,,,,,,,,,,,,,,,,,,,2278.6993553000502,None,,,,,,,
