StudyLoop.thisRepN,StudyLoop.thisTrialN,StudyLoop.thisN,StudyLoop.thisIndex,TestLoop.thisRepN,TestLoop.thisTrialN,TestLoop.thisN,TestLoop.thisIndex,textCondition.started,textCondition.stopped,keyCondition.keys,keyCondition.rt,keyCondition.started,keyCondition.stopped,Condition,stim_colors,color_sing,color_aloud,color_silent,textWelcome.started,textWelcome.stopped,keyWelcome.keys,keyWelcome.rt,keyWelcome.started,keyWelcome.stopped,textAloud.started,textAloud.stopped,textSilent.started,textSilent.stopped,textSing.started,textSing.stopped,textBlank500.started,textBlank500.stopped,study_word,study_type,study_color,study_num,study_word_num,textStudy.started,textStudy.stopped,keyStudy.keys,keyStudy.started,keyStudy.stopped,textTestInstructions.started,textTestInstructions.stopped,key_resp_3.keys,key_resp_3.rt,key_resp_3.started,key_resp_3.stopped,testWord,testType,testColor,testN,test_num,test_word_num,textConf.started,textConf.stopped,textConfScale.started,textConfScale.stopped,keyConf.keys,keyConf.rt,keyConf.started,keyConf.stopped,textTestBlank.started,textTestBlank.stopped,textRKN.started,textRKN.stopped,textRKNScale.started,textRKNScale.stopped,keyRKN.keys,keyRKN.rt,keyRKN.started,keyRKN.stopped,textEnd.started,textEnd.stopped,participant,session,date,expName,psychopyVersion,frameRate,
,,,,,,,,11.34296030679252,None,y,1.21896305604605,11.34296030679252,None,,,,,,,,,,,,,,,,,,,,,,,,,,,,,,,,,,,,,,,,,,,,,,,,,,,,,,,,,,,,,,color2,001,2019_Nov_21_1412,ProdSingRedo,3.2.4,59.98306137721858,
,,,,,,,,,,,,,,ColoredTest,"['blue', 'yellow', 'red']",blue,yellow,red,12.623299050523201,None,space,514.2430368133355,12.623299050523201,None,,,,,,,,,,,,,,,,,,,,,,,,,,,,,,,,,,,,,,,,,,,,,,,,,,,color2,001,2019_Nov_21_1412,ProdSingRedo,3.2.4,59.98306137721858,
0,0,0,0,,,,,,,,,,,,,,,,,,,,,,12.623299050523201,None,12.623299050523201,None,12.623299050523201,None,529.4152742574224,None,personnel,aloud,yellow,42,219,527.414635458641,None,None,527.414635458641,None,,,,,,,,,,,,,,,,,,,,,,,,,,,,,,,,,color2,001,2019_Nov_21_1412,ProdSingRedo,3.2.4,59.98306137721858,
1,0,1,0,,,,,,,,,,,,,,,,,,,,,,,,,,,,531.9326894548431,None,tough,silent,red,69,333,529.9320509670652,None,None,529.9320509670652,None,,,,,,,,,,,,,,,,,,,,,,,,,,,,,,,,,color2,001,2019_Nov_21_1412,ProdSingRedo,3.2.4,59.98306137721858,
2,0,2,0,,,,,,,,,,,,,,,,,,,,,,,,,,,,534.4501444605994,None,thick,silent,red,77,327,532.4495725273155,None,None,532.4495725273155,None,,,,,,,,,,,,,,,,,,,,,,,,,,,,,,,,,color2,001,2019_Nov_21_1412,ProdSingRedo,3.2.4,59.98306137721858,
3,0,3,0,,,,,,,,,,,,,,,,,,,,,,,,,,,,536.9675997773302,None,grade,sing,blue,2,140,534.9669550695107,None,None,534.9669550695107,None,,,,,,,,,,,,,,,,,,,,,,,,,,,,,,,,,color2,001,2019_Nov_21_1412,ProdSingRedo,3.2.4,59.98306137721858,
4,0,4,0,,,,,,,,,,,,,,,,,,,,,,,,,,,,539.4850165297976,None,travel,silent,red,72,338,537.4843145975319,None,None,537.4843145975319,None,,,,,,,,,,,,,,,,,,,,,,,,,,,,,,,,,color2,001,2019_Nov_21_1412,ProdSingRedo,3.2.4,59.98306137721858,
5,0,5,0,,,,,,,,,,,,,,,,,,,,,,,,,,,,542.002472779539,None,public,aloud,yellow,53,244,540.0017739573086,None,None,540.0017739573086,None,,,,,,,,,,,,,,,,,,,,,,,,,,,,,,,,,color2,001,2019_Nov_21_1412,ProdSingRedo,3.2.4,59.98306137721858,
6,0,6,0,,,,,,,,,,,,,,,,,,,,,,,,,,,,544.5199218762282,None,surface,silent,red,87,316,542.519270326331,None,None,542.519270326331,None,,,,,,,,,,,,,,,,,,,,,,,,,,,,,,,,,color2,001,2019_Nov_21_1412,ProdSingRedo,3.2.4,59.98306137721858,
7,0,7,0,,,,,,,,,,,,,,,,,,,,,,,,,,,,547.0373414276983,None,trial,silent,red,79,341,545.0366995188815,None,None,545.0366995188815,None,,,,,,,,,,,,,,,,,,,,,,,,,,,,,,,,,color2,001,2019_Nov_21_1412,ProdSingRedo,3.2.4,59.98306137721858,
8,0,8,0,,,,,,,,,,,,,,,,,,,,,,,,,,,,549.5547927014122,None,shear,aloud,yellow,54,283,547.5541305774532,None,None,547.5541305774532,None,,,,,,,,,,,,,,,,,,,,,,,,,,,,,,,,,color2,001,2019_Nov_21_1412,ProdSingRedo,3.2.4,59.98306137721858,
9,0,9,0,,,,,,,,,,,,,,,,,,,,,,,,,,,,552.0722355780599,None,threat,silent,red,89,329,550.0715827841777,None,None,550.0715827841777,None,,,,,,,,,,,,,,,,,,,,,,,,,,,,,,,,,color2,001,2019_Nov_21_1412,ProdSingRedo,3.2.4,59.98306137721858,
10,0,10,0,,,,,,,,,,,,,,,,,,,,,,,,,,,,554.5896731676476,None,degree,silent,red,76,89,552.5889783884631,None,None,552.5889783884631,None,,,,,,,,,,,,,,,,,,,,,,,,,,,,,,,,,color2,001,2019_Nov_21_1412,ProdSingRedo,3.2.4,59.98306137721858,
11,0,11,0,,,,,,,,,,,,,,,,,,,,,,,,,,,,557.1070948961424,None,reading,silent,red,60,254,555.1064470782876,None,None,555.1064470782876,None,,,,,,,,,,,,,,,,,,,,,,,,,,,,,,,,,color2,001,2019_Nov_21_1412,ProdSingRedo,3.2.4,59.98306137721858,
12,0,12,0,,,,,,,,,,,,,,,,,,,,,,,,,,,,559.624548346881,None,murder,silent,red,75,195,557.6113301258592,None,None,557.6113301258592,None,,,,,,,,,,,,,,,,,,,,,,,,,,,,,,,,,color2,001,2019_Nov_21_1412,ProdSingRedo,3.2.4,59.98306137721858,
13,0,13,0,,,,,,,,,,,,,,,,,,,,,,,,,,,,562.1420919882657,None,company,sing,blue,27,64,560.1420789261756,None,None,560.1420789261756,None,,,,,,,,,,,,,,,,,,,,,,,,,,,,,,,,,color2,001,2019_Nov_21_1412,ProdSingRedo,3.2.4,59.98306137721858,
14,0,14,0,,,,,,,,,,,,,,,,,,,,,,,,,,,,564.659407975967,None,stand,aloud,yellow,31,302,562.6587803732837,None,None,562.6587803732837,None,,,,,,,,,,,,,,,,,,,,,,,,,,,,,,,,,color2,001,2019_Nov_21_1412,ProdSingRedo,3.2.4,59.98306137721858,
15,0,15,0,,,,,,,,,,,,,,,,,,,,,,,,,,,,567.1768744887959,None,crime,aloud,yellow,50,78,565.1762058337918,None,None,565.1762058337918,None,,,,,,,,,,,,,,,,,,,,,,,,,,,,,,,,,color2,001,2019_Nov_21_1412,ProdSingRedo,3.2.4,59.98306137721858,
16,0,16,0,,,,,,,,,,,,,,,,,,,,,,,,,,,,569.6942772461334,None,still,silent,red,65,304,567.6934751711378,None,None,567.6934751711378,None,,,,,,,,,,,,,,,,,,,,,,,,,,,,,,,,,color2,001,2019_Nov_21_1412,ProdSingRedo,3.2.4,59.98306137721858,
17,0,17,0,,,,,,,,,,,,,,,,,,,,,,,,,,,,572.2117474910046,None,material,sing,blue,15,182,570.2109867793042,None,None,570.2109867793042,None,,,,,,,,,,,,,,,,,,,,,,,,,,,,,,,,,color2,001,2019_Nov_21_1412,ProdSingRedo,3.2.4,59.98306137721858,
18,0,18,0,,,,,,,,,,,,,,,,,,,,,,,,,,,,574.7291692194995,None,institute,silent,red,64,162,572.7284041537496,None,None,572.7284041537496,None,,,,,,,,,,,,,,,,,,,,,,,,,,,,,,,,,color2,001,2019_Nov_21_1412,ProdSingRedo,3.2.4,59.98306137721858,
19,0,19,0,,,,,,,,,,,,,,,,,,,,,,,,,,,,577.2466251582373,None,broke,silent,red,81,32,575.2457994470606,None,None,575.2457994470606,None,,,,,,,,,,,,,,,,,,,,,,,,,,,,,,,,,color2,001,2019_Nov_21_1412,ProdSingRedo,3.2.4,59.98306137721858,
20,0,20,0,,,,,,,,,,,,,,,,,,,,,,,,,,,,579.7639529640146,None,atmosphere,aloud,yellow,39,12,577.7634080879216,None,None,577.7634080879216,None,,,,,,,,,,,,,,,,,,,,,,,,,,,,,,,,,color2,001,2019_Nov_21_1412,ProdSingRedo,3.2.4,59.98306137721858,
21,0,21,0,,,,,,,,,,,,,,,,,,,,,,,,,,,,582.281497538439,None,hunger,sing,blue,22,155,580.2808049362502,None,None,580.2808049362502,None,,,,,,,,,,,,,,,,,,,,,,,,,,,,,,,,,color2,001,2019_Nov_21_1412,ProdSingRedo,3.2.4,59.98306137721858,
22,0,22,0,,,,,,,,,,,,,,,,,,,,,,,,,,,,584.7988713725645,None,quiet,sing,blue,13,249,582.7983890079486,None,None,582.7983890079486,None,,,,,,,,,,,,,,,,,,,,,,,,,,,,,,,,,color2,001,2019_Nov_21_1412,ProdSingRedo,3.2.4,59.98306137721858,
23,0,23,0,,,,,,,,,,,,,,,,,,,,,,,,,,,,587.316379559692,None,portion,aloud,yellow,43,228,585.3157118376985,None,None,585.3157118376985,None,,,,,,,,,,,,,,,,,,,,,,,,,,,,,,,,,color2,001,2019_Nov_21_1412,ProdSingRedo,3.2.4,59.98306137721858,
24,0,24,0,,,,,,,,,,,,,,,,,,,,,,,,,,,,589.8337770299986,None,device,silent,red,82,93,587.833141030249,None,None,587.833141030249,None,,,,,,,,,,,,,,,,,,,,,,,,,,,,,,,,,color2,001,2019_Nov_21_1412,ProdSingRedo,3.2.4,59.98306137721858,
25,0,25,0,,,,,,,,,,,,,,,,,,,,,,,,,,,,592.3512488298584,None,report,sing,blue,0,259,590.3506025670213,None,None,590.3506025670213,None,,,,,,,,,,,,,,,,,,,,,,,,,,,,,,,,,color2,001,2019_Nov_21_1412,ProdSingRedo,3.2.4,59.98306137721858,
26,0,26,0,,,,,,,,,,,,,,,,,,,,,,,,,,,,594.868685175461,None,running,silent,red,63,268,592.8680345585744,None,None,592.8680345585744,None,,,,,,,,,,,,,,,,,,,,,,,,,,,,,,,,,color2,001,2019_Nov_21_1412,ProdSingRedo,3.2.4,59.98306137721858,
27,0,27,0,,,,,,,,,,,,,,,,,,,,,,,,,,,,597.3860932198586,None,permit,aloud,yellow,52,218,595.3854774352221,None,None,595.3854774352221,None,,,,,,,,,,,,,,,,,,,,,,,,,,,,,,,,,color2,001,2019_Nov_21_1412,ProdSingRedo,3.2.4,59.98306137721858,
28,0,28,0,,,,,,,,,,,,,,,,,,,,,,,,,,,,599.903577770805,None,committee,sing,blue,26,62,597.9027411745337,None,None,597.9027411745337,None,,,,,,,,,,,,,,,,,,,,,,,,,,,,,,,,,color2,001,2019_Nov_21_1412,ProdSingRedo,3.2.4,59.98306137721858,
29,0,29,0,,,,,,,,,,,,,,,,,,,,,,,,,,,,602.4209960782609,None,breath,sing,blue,7,27,600.4201924482477,None,None,600.4201924482477,None,,,,,,,,,,,,,,,,,,,,,,,,,,,,,,,,,color2,001,2019_Nov_21_1412,ProdSingRedo,3.2.4,59.98306137721858,
30,0,30,0,,,,,,,,,,,,,,,,,,,,,,,,,,,,604.938447973982,None,growth,sing,blue,6,144,602.9377619028382,None,None,602.9377619028382,None,,,,,,,,,,,,,,,,,,,,,,,,,,,,,,,,,color2,001,2019_Nov_21_1412,ProdSingRedo,3.2.4,59.98306137721858,
31,0,31,0,,,,,,,,,,,,,,,,,,,,,,,,,,,,607.4558594393893,None,victory,sing,blue,19,346,605.4552274826565,None,None,605.4552274826565,None,,,,,,,,,,,,,,,,,,,,,,,,,,,,,,,,,color2,001,2019_Nov_21_1412,ProdSingRedo,3.2.4,59.98306137721858,
32,0,32,0,,,,,,,,,,,,,,,,,,,,,,,,,,,,609.9733250192076,None,guide,aloud,yellow,51,147,607.9726498331584,None,None,607.9726498331584,None,,,,,,,,,,,,,,,,,,,,,,,,,,,,,,,,,color2,001,2019_Nov_21_1412,ProdSingRedo,3.2.4,59.98306137721858,
33,0,33,0,,,,,,,,,,,,,,,,,,,,,,,,,,,,612.4907128484629,None,notice,silent,red,85,201,610.4900967528229,None,None,610.4900967528229,None,,,,,,,,,,,,,,,,,,,,,,,,,,,,,,,,,color2,001,2019_Nov_21_1412,ProdSingRedo,3.2.4,59.98306137721858,
34,0,34,0,,,,,,,,,,,,,,,,,,,,,,,,,,,,615.0081936673669,None,salary,sing,blue,21,271,613.0075567346066,None,None,613.0075567346066,None,,,,,,,,,,,,,,,,,,,,,,,,,,,,,,,,,color2,001,2019_Nov_21_1412,ProdSingRedo,3.2.4,59.98306137721858,
35,0,35,0,,,,,,,,,,,,,,,,,,,,,,,,,,,,617.5256325009977,None,figure,sing,blue,28,128,615.5249818841112,None,None,615.5249818841112,None,,,,,,,,,,,,,,,,,,,,,,,,,,,,,,,,,color2,001,2019_Nov_21_1412,ProdSingRedo,3.2.4,59.98306137721858,
36,0,36,0,,,,,,,,,,,,,,,,,,,,,,,,,,,,620.0430713345995,None,safety,silent,red,70,270,618.0424256937695,None,None,618.0424256937695,None,,,,,,,,,,,,,,,,,,,,,,,,,,,,,,,,,color2,001,2019_Nov_21_1412,ProdSingRedo,3.2.4,59.98306137721858,
37,0,37,0,,,,,,,,,,,,,,,,,,,,,,,,,,,,622.5605191873037,None,interior,silent,red,71,164,620.5598458672466,None,None,620.5598458672466,None,,,,,,,,,,,,,,,,,,,,,,,,,,,,,,,,,color2,001,2019_Nov_21_1412,ProdSingRedo,3.2.4,59.98306137721858,
38,0,38,0,,,,,,,,,,,,,,,,,,,,,,,,,,,,625.0779399827879,None,novel,silent,red,80,202,623.077306782041,None,None,623.077306782041,None,,,,,,,,,,,,,,,,,,,,,,,,,,,,,,,,,color2,001,2019_Nov_21_1412,ProdSingRedo,3.2.4,59.98306137721858,
39,0,39,0,,,,,,,,,,,,,,,,,,,,,,,,,,,,627.595387213456,None,member,sing,blue,25,188,625.5947117164033,None,None,625.5947117164033,None,,,,,,,,,,,,,,,,,,,,,,,,,,,,,,,,,color2,001,2019_Nov_21_1412,ProdSingRedo,3.2.4,59.98306137721858,
40,0,40,0,,,,,,,,,,,,,,,,,,,,,,,,,,,,630.1128297791001,None,raise,aloud,yellow,40,250,628.1121685881517,None,None,628.1121685881517,None,,,,,,,,,,,,,,,,,,,,,,,,,,,,,,,,,color2,001,2019_Nov_21_1412,ProdSingRedo,3.2.4,59.98306137721858,
41,0,41,0,,,,,,,,,,,,,,,,,,,,,,,,,,,,632.6302630146674,None,center,aloud,yellow,36,44,630.629562326445,None,None,630.629562326445,None,,,,,,,,,,,,,,,,,,,,,,,,,,,,,,,,,color2,001,2019_Nov_21_1412,ProdSingRedo,3.2.4,59.98306137721858,
42,0,42,0,,,,,,,,,,,,,,,,,,,,,,,,,,,,635.1476729250862,None,production,sing,blue,16,240,633.1469314955175,None,None,633.1469314955175,None,,,,,,,,,,,,,,,,,,,,,,,,,,,,,,,,,color2,001,2019_Nov_21_1412,ProdSingRedo,3.2.4,59.98306137721858,
43,0,43,0,,,,,,,,,,,,,,,,,,,,,,,,,,,,637.6651369498868,None,quantity,sing,blue,5,245,635.6643295878312,None,None,635.6643295878312,None,,,,,,,,,,,,,,,,,,,,,,,,,,,,,,,,,color2,001,2019_Nov_21_1412,ProdSingRedo,3.2.4,59.98306137721858,
44,0,44,0,,,,,,,,,,,,,,,,,,,,,,,,,,,,640.182524157106,None,alert,aloud,yellow,56,6,638.1819058844703,None,None,638.1819058844703,None,,,,,,,,,,,,,,,,,,,,,,,,,,,,,,,,,color2,001,2019_Nov_21_1412,ProdSingRedo,3.2.4,59.98306137721858,
45,0,45,0,,,,,,,,,,,,,,,,,,,,,,,,,,,,642.7000183491327,None,answer,sing,blue,3,8,640.6993801723584,None,None,640.6993801723584,None,,,,,,,,,,,,,,,,,,,,,,,,,,,,,,,,,color2,001,2019_Nov_21_1412,ProdSingRedo,3.2.4,59.98306137721858,
46,0,46,0,,,,,,,,,,,,,,,,,,,,,,,,,,,,645.2174985460879,None,comedy,sing,blue,20,58,643.2167987908178,None,None,643.2167987908178,None,,,,,,,,,,,,,,,,,,,,,,,,,,,,,,,,,color2,001,2019_Nov_21_1412,ProdSingRedo,3.2.4,59.98306137721858,
47,0,47,0,,,,,,,,,,,,,,,,,,,,,,,,,,,,647.7348848202964,None,appeal,aloud,yellow,37,9,645.7342453995079,None,None,645.7342453995079,None,,,,,,,,,,,,,,,,,,,,,,,,,,,,,,,,,color2,001,2019_Nov_21_1412,ProdSingRedo,3.2.4,59.98306137721858,
48,0,48,0,,,,,,,,,,,,,,,,,,,,,,,,,,,,650.2523286299547,None,empty,silent,red,62,112,648.251670238009,None,None,648.251670238009,None,,,,,,,,,,,,,,,,,,,,,,,,,,,,,,,,,color2,001,2019_Nov_21_1412,ProdSingRedo,3.2.4,59.98306137721858,
49,0,49,0,,,,,,,,,,,,,,,,,,,,,,,,,,,,652.7697792816616,None,provision,silent,red,73,243,650.7691174687061,None,None,650.7691174687061,None,,,,,,,,,,,,,,,,,,,,,,,,,,,,,,,,,color2,001,2019_Nov_21_1412,ProdSingRedo,3.2.4,59.98306137721858,
50,0,50,0,,,,,,,,,,,,,,,,,,,,,,,,,,,,655.2872140722466,None,management,aloud,yellow,38,177,653.2865286231099,None,None,653.2865286231099,None,,,,,,,,,,,,,,,,,,,,,,,,,,,,,,,,,color2,001,2019_Nov_21_1412,ProdSingRedo,3.2.4,59.98306137721858,
51,0,51,0,,,,,,,,,,,,,,,,,,,,,,,,,,,,657.8046311356884,None,piece,aloud,yellow,57,221,655.8039917148999,None,None,655.8039917148999,None,,,,,,,,,,,,,,,,,,,,,,,,,,,,,,,,,color2,001,2019_Nov_21_1412,ProdSingRedo,3.2.4,59.98306137721858,
52,0,52,0,,,,,,,,,,,,,,,,,,,,,,,,,,,,660.3220942275075,None,drove,silent,red,74,106,658.3214137543982,None,None,658.3214137543982,None,,,,,,,,,,,,,,,,,,,,,,,,,,,,,,,,,color2,001,2019_Nov_21_1412,ProdSingRedo,3.2.4,59.98306137721858,
53,0,53,0,,,,,,,,,,,,,,,,,,,,,,,,,,,,662.8394941858132,None,surprise,aloud,yellow,45,317,660.8388687601255,None,None,660.8388687601255,None,,,,,,,,,,,,,,,,,,,,,,,,,,,,,,,,,color2,001,2019_Nov_21_1412,ProdSingRedo,3.2.4,59.98306137721858,
54,0,54,0,,,,,,,,,,,,,,,,,,,,,,,,,,,,665.3569610096456,None,agreement,sing,blue,9,5,663.3562354411988,None,None,663.3562354411988,None,,,,,,,,,,,,,,,,,,,,,,,,,,,,,,,,,color2,001,2019_Nov_21_1412,ProdSingRedo,3.2.4,59.98306137721858,
55,0,55,0,,,,,,,,,,,,,,,,,,,,,,,,,,,,667.8744097953313,None,instrument,sing,blue,11,163,665.8736357105372,None,None,665.8736357105372,None,,,,,,,,,,,,,,,,,,,,,,,,,,,,,,,,,color2,001,2019_Nov_21_1412,ProdSingRedo,3.2.4,59.98306137721858,
56,0,56,0,,,,,,,,,,,,,,,,,,,,,,,,,,,,670.39184147591,None,poetry,silent,red,68,225,668.3910288268235,None,None,668.3910288268235,None,,,,,,,,,,,,,,,,,,,,,,,,,,,,,,,,,color2,001,2019_Nov_21_1412,ProdSingRedo,3.2.4,59.98306137721858,
57,0,57,0,,,,,,,,,,,,,,,,,,,,,,,,,,,,672.9093030126824,None,fashion,aloud,yellow,34,125,670.9086184965563,None,None,670.9086184965563,None,,,,,,,,,,,,,,,,,,,,,,,,,,,,,,,,,color2,001,2019_Nov_21_1412,ProdSingRedo,3.2.4,59.98306137721858,
58,0,58,0,,,,,,,,,,,,,,,,,,,,,,,,,,,,675.4100428872334,None,court,aloud,yellow,44,75,673.4091804777854,None,None,673.4091804777854,None,,,,,,,,,,,,,,,,,,,,,,,,,,,,,,,,,color2,001,2019_Nov_21_1412,ProdSingRedo,3.2.4,59.98306137721858,
59,0,59,0,,,,,,,,,,,,,,,,,,,,,,,,,,,,677.9274587066611,None,emergency,sing,blue,23,110,675.9266874208988,None,None,675.9266874208988,None,,,,,,,,,,,,,,,,,,,,,,,,,,,,,,,,,color2,001,2019_Nov_21_1412,ProdSingRedo,3.2.4,59.98306137721858,
60,0,60,0,,,,,,,,,,,,,,,,,,,,,,,,,,,,680.4449233534979,None,industry,sing,blue,12,161,678.444119412452,None,None,678.444119412452,None,,,,,,,,,,,,,,,,,,,,,,,,,,,,,,,,,color2,001,2019_Nov_21_1412,ProdSingRedo,3.2.4,59.98306137721858,
61,0,61,0,,,,,,,,,,,,,,,,,,,,,,,,,,,,682.9623401059362,None,union,silent,red,61,344,680.9617006851477,None,None,680.9617006851477,None,,,,,,,,,,,,,,,,,,,,,,,,,,,,,,,,,color2,001,2019_Nov_21_1412,ProdSingRedo,3.2.4,59.98306137721858,
62,0,62,0,,,,,,,,,,,,,,,,,,,,,,,,,,,,685.4797948006599,None,welcome,sing,blue,4,354,683.4791500928404,None,None,683.4791500928404,None,,,,,,,,,,,,,,,,,,,,,,,,,,,,,,,,,color2,001,2019_Nov_21_1412,ProdSingRedo,3.2.4,59.98306137721858,
63,0,63,0,,,,,,,,,,,,,,,,,,,,,,,,,,,,687.9972333232872,None,property,silent,red,83,242,685.9964188081794,None,None,685.9964188081794,None,,,,,,,,,,,,,,,,,,,,,,,,,,,,,,,,,color2,001,2019_Nov_21_1412,ProdSingRedo,3.2.4,59.98306137721858,
64,0,64,0,,,,,,,,,,,,,,,,,,,,,,,,,,,,690.5146584727918,None,straight,silent,red,86,307,688.5140268270625,None,None,688.5140268270625,None,,,,,,,,,,,,,,,,,,,,,,,,,,,,,,,,,color2,001,2019_Nov_21_1412,ProdSingRedo,3.2.4,59.98306137721858,
65,0,65,0,,,,,,,,,,,,,,,,,,,,,,,,,,,,693.0321231195994,None,review,aloud,yellow,47,263,691.0314435795299,None,None,691.0314435795299,None,,,,,,,,,,,,,,,,,,,,,,,,,,,,,,,,,color2,001,2019_Nov_21_1412,ProdSingRedo,3.2.4,59.98306137721858,
66,0,66,0,,,,,,,,,,,,,,,,,,,,,,,,,,,,695.5495383170492,None,judge,aloud,yellow,33,166,693.5488606429717,None,None,693.5488606429717,None,,,,,,,,,,,,,,,,,,,,,,,,,,,,,,,,,color2,001,2019_Nov_21_1412,ProdSingRedo,3.2.4,59.98306137721858,
67,0,67,0,,,,,,,,,,,,,,,,,,,,,,,,,,,,698.0669880357455,None,minute,sing,blue,10,192,696.0663212467625,None,None,696.0663212467625,None,,,,,,,,,,,,,,,,,,,,,,,,,,,,,,,,,color2,001,2019_Nov_21_1412,ProdSingRedo,3.2.4,59.98306137721858,
68,0,68,0,,,,,,,,,,,,,,,,,,,,,,,,,,,,700.5844113192579,None,charter,sing,blue,17,47,698.5837644344138,None,None,698.5837644344138,None,,,,,,,,,,,,,,,,,,,,,,,,,,,,,,,,,color2,001,2019_Nov_21_1412,ProdSingRedo,3.2.4,59.98306137721858,
69,0,69,0,,,,,,,,,,,,,,,,,,,,,,,,,,,,703.1018610379542,None,entrance,aloud,yellow,35,115,701.1012172631163,None,None,701.1012172631163,None,,,,,,,,,,,,,,,,,,,,,,,,,,,,,,,,,color2,001,2019_Nov_21_1412,ProdSingRedo,3.2.4,59.98306137721858,
70,0,70,0,,,,,,,,,,,,,,,,,,,,,,,,,,,,705.6192669053271,None,trend,aloud,yellow,59,340,703.6186284175492,None,None,703.6186284175492,None,,,,,,,,,,,,,,,,,,,,,,,,,,,,,,,,,color2,001,2019_Nov_21_1412,ProdSingRedo,3.2.4,59.98306137721858,
71,0,71,0,,,,,,,,,,,,,,,,,,,,,,,,,,,,708.1367290641065,None,incident,sing,blue,24,158,706.1360258878558,None,None,706.1360258878558,None,,,,,,,,,,,,,,,,,,,,,,,,,,,,,,,,,color2,001,2019_Nov_21_1412,ProdSingRedo,3.2.4,59.98306137721858,
72,0,72,0,,,,,,,,,,,,,,,,,,,,,,,,,,,,710.6541999309557,None,general,aloud,yellow,49,135,708.6535346969904,None,None,708.6535346969904,None,,,,,,,,,,,,,,,,,,,,,,,,,,,,,,,,,color2,001,2019_Nov_21_1412,ProdSingRedo,3.2.4,59.98306137721858,
73,0,73,0,,,,,,,,,,,,,,,,,,,,,,,,,,,,713.1716141953948,None,damage,aloud,yellow,48,83,711.1709719756036,None,None,711.1709719756036,None,,,,,,,,,,,,,,,,,,,,,,,,,,,,,,,,,color2,001,2019_Nov_21_1412,ProdSingRedo,3.2.4,59.98306137721858,
74,0,74,0,,,,,,,,,,,,,,,,,,,,,,,,,,,,715.6890692011511,None,strain,aloud,yellow,41,308,713.688401168125,None,None,713.688401168125,None,,,,,,,,,,,,,,,,,,,,,,,,,,,,,,,,,color2,001,2019_Nov_21_1412,ProdSingRedo,3.2.4,59.98306137721858,
75,0,75,0,,,,,,,,,,,,,,,,,,,,,,,,,,,,718.2065043027396,None,silence,aloud,yellow,30,288,716.2058372027241,None,None,716.2058372027241,None,,,,,,,,,,,,,,,,,,,,,,,,,,,,,,,,,color2,001,2019_Nov_21_1412,ProdSingRedo,3.2.4,59.98306137721858,
76,0,76,0,,,,,,,,,,,,,,,,,,,,,,,,,,,,720.7239403373096,None,smooth,sing,blue,29,292,718.7232558211836,None,None,718.7232558211836,None,,,,,,,,,,,,,,,,,,,,,,,,,,,,,,,,,color2,001,2019_Nov_21_1412,ProdSingRedo,3.2.4,59.98306137721858,
77,0,77,0,,,,,,,,,,,,,,,,,,,,,,,,,,,,723.2413592668017,None,error,sing,blue,18,117,721.2407139369461,None,None,721.2407139369461,None,,,,,,,,,,,,,,,,,,,,,,,,,,,,,,,,,color2,001,2019_Nov_21_1412,ProdSingRedo,3.2.4,59.98306137721858,
78,0,78,0,,,,,,,,,,,,,,,,,,,,,,,,,,,,725.7588033874345,None,space,aloud,yellow,46,297,723.7581051872112,None,None,723.7581051872112,None,,,,,,,,,,,,,,,,,,,,,,,,,,,,,,,,,color2,001,2019_Nov_21_1412,ProdSingRedo,3.2.4,59.98306137721858,
79,0,79,0,,,,,,,,,,,,,,,,,,,,,,,,,,,,728.2762226279301,None,disease,aloud,yellow,32,97,726.2756021782698,None,None,726.2756021782698,None,,,,,,,,,,,,,,,,,,,,,,,,,,,,,,,,,color2,001,2019_Nov_21_1412,ProdSingRedo,3.2.4,59.98306137721858,
80,0,80,0,,,,,,,,,,,,,,,,,,,,,,,,,,,,730.7936841647024,None,foundation,silent,red,67,132,728.7930341698229,None,None,728.7930341698229,None,,,,,,,,,,,,,,,,,,,,,,,,,,,,,,,,,color2,001,2019_Nov_21_1412,ProdSingRedo,3.2.4,59.98306137721858,
81,0,81,0,,,,,,,,,,,,,,,,,,,,,,,,,,,,733.311109314207,None,edition,silent,red,84,107,731.3104646063875,None,None,731.3104646063875,None,,,,,,,,,,,,,,,,,,,,,,,,,,,,,,,,,color2,001,2019_Nov_21_1412,ProdSingRedo,3.2.4,59.98306137721858,
82,0,82,0,,,,,,,,,,,,,,,,,,,,,,,,,,,,735.8285724060261,None,literature,sing,blue,8,173,733.8279146360874,None,None,733.8279146360874,None,,,,,,,,,,,,,,,,,,,,,,,,,,,,,,,,,color2,001,2019_Nov_21_1412,ProdSingRedo,3.2.4,59.98306137721858,
83,0,83,0,,,,,,,,,,,,,,,,,,,,,,,,,,,,738.345990713482,None,balance,silent,red,78,17,736.3453472496476,None,None,736.3453472496476,None,,,,,,,,,,,,,,,,,,,,,,,,,,,,,,,,,color2,001,2019_Nov_21_1412,ProdSingRedo,3.2.4,59.98306137721858,
84,0,84,0,,,,,,,,,,,,,,,,,,,,,,,,,,,,740.863426126074,None,account,aloud,yellow,55,1,738.8627963463659,None,None,738.8627963463659,None,,,,,,,,,,,,,,,,,,,,,,,,,,,,,,,,,color2,001,2019_Nov_21_1412,ProdSingRedo,3.2.4,59.98306137721858,
85,0,85,0,,,,,,,,,,,,,,,,,,,,,,,,,,,,743.3808602946519,None,region,silent,red,66,256,741.3802162088396,None,None,741.3802162088396,None,,,,,,,,,,,,,,,,,,,,,,,,,,,,,,,,,color2,001,2019_Nov_21_1412,ProdSingRedo,3.2.4,59.98306137721858,
86,0,86,0,,,,,,,,,,,,,,,,,,,,,,,,,,,,745.8983140563942,None,contract,sing,blue,1,68,743.8976575304696,None,None,743.8976575304696,None,,,,,,,,,,,,,,,,,,,,,,,,,,,,,,,,,color2,001,2019_Nov_21_1412,ProdSingRedo,3.2.4,59.98306137721858,
87,0,87,0,,,,,,,,,,,,,,,,,,,,,,,,,,,,748.4157597320445,None,nation,sing,blue,14,198,746.415058421786,None,None,746.415058421786,None,,,,,,,,,,,,,,,,,,,,,,,,,,,,,,,,,color2,001,2019_Nov_21_1412,ProdSingRedo,3.2.4,59.98306137721858,
88,0,88,0,,,,,,,,,,,,,,,,,,,,,,,,,,,,750.9331914126233,None,listen,silent,red,88,172,748.9325411067402,None,None,748.9325411067402,None,,,,,,,,,,,,,,,,,,,,,,,,,,,,,,,,,color2,001,2019_Nov_21_1412,ProdSingRedo,3.2.4,59.98306137721858,
89,0,89,0,,,,,,,,,,,,,,,,,,,,,,,,,,,,753.4506321122462,None,owner,aloud,yellow,58,208,751.449973409297,None,None,751.449973409297,None,,,,,,,,,,,,,,,,,,,,,,,,,,,,,,,,,color2,001,2019_Nov_21_1412,ProdSingRedo,3.2.4,59.98306137721858,
,,,,,,,,,,,,,,,,,,,,,,,,,,,,,,,,,,,,,,,,,,,753.9507907234365,None,k,108.79117126588244,753.9507907234365,None,,,,,,,,,,,,,,,,,,,,,,,,,,,color2,001,2019_Nov_21_1412,ProdSingRedo,3.2.4,59.98306137721858,
,,,,0,0,0,0,,,,,,,,,,,,,,,,,,,,,,,,870.8032561943983,None,,,,,,,,,,,,,,,,,still,silent,red,0,65,304,863.2842542630679,None,863.2842542630679,None,5,3.7530787675641477,863.2842542630679,None,867.0890032686584,None,867.6189232477336,None,867.6189232477336,None,f,3.146283988666255,867.6189232477336,None,,,color2,001,2019_Nov_21_1412,ProdSingRedo,3.2.4,59.98306137721858,
,,,,1,0,1,0,,,,,,,,,,,,,,,,,,,,,,,,877.2385216815455,None,,,,,,,,,,,,,,,,,growth,sing,blue,1,6,144,871.3200587172469,None,871.3200587172469,None,1,3.525054036639631,871.3200587172469,None,874.8903698128706,None,875.4046460638056,None,875.4046460638056,None,n,1.8002264096867293,875.4046460638056,None,,,color2,001,2019_Nov_21_1412,ProdSingRedo,3.2.4,59.98306137721858,
,,,,2,0,2,0,,,,,,,,,,,,,,,,,,,,,,,,882.2233702700469,None,,,,,,,,,,,,,,,,,medicine,new_silent,red,2,168,186,877.7552626259276,None,877.7552626259276,None,1,2.817430436552968,877.7552626259276,None,880.6061283009185,None,881.1230598897382,None,881.1230598897382,None,n,1.0654597702960018,881.1230598897382,None,,,color2,001,2019_Nov_21_1412,ProdSingRedo,3.2.4,59.98306137721858,
,,,,3,0,3,0,,,,,,,,,,,,,,,,,,,,,,,,887.424987482169,None,,,,,,,,,,,,,,,,,provision,silent,red,3,73,243,882.7441831679316,None,882.7441831679316,None,2,3.0600760089582764,882.7441831679316,None,885.857676937012,None,886.3578492322995,None,886.3578492322995,None,f,1.0226157784054521,886.3578492322995,None,,,color2,001,2019_Nov_21_1412,ProdSingRedo,3.2.4,59.98306137721858,
,,,,4,0,4,0,,,,,,,,,,,,,,,,,,,,,,,,892.7142858919979,None,,,,,,,,,,,,,,,,,breath,sing,blue,4,7,27,887.9417417996447,None,887.9417417996447,None,5,2.7661747646634467,887.9417417996447,None,890.7444549839711,None,891.2594866595755,None,891.2594866595755,None,f,1.4323255821072962,891.2594866595755,None,,,color2,001,2019_Nov_21_1412,ProdSingRedo,3.2.4,59.98306137721858,
,,,,5,0,5,0,,,,,,,,,,,,,,,,,,,,,,,,897.8781993587327,None,,,,,,,,,,,,,,,,,shock,new_aloud,yellow,5,139,284,893.24339104502,None,893.24339104502,None,1,3.448209715075791,893.24339104502,None,896.733084427804,None,897.244564456807,None,897.244564456807,None,n,0.5911572707700543,897.244564456807,None,,,color2,001,2019_Nov_21_1412,ProdSingRedo,3.2.4,59.98306137721858,
,,,,6,0,6,0,,,,,,,,,,,,,,,,,,,,,,,,902.4962713930872,None,,,,,,,,,,,,,,,,,drove,silent,red,6,74,106,898.3949253750034,None,898.3949253750034,None,1,3.128355326363817,898.3949253750034,None,901.5674700893578,None,902.0793469573255,None,902.0793469573255,None,n,0.3722054108220618,902.0793469573255,None,,,color2,001,2019_Nov_21_1412,ProdSingRedo,3.2.4,59.98306137721858,
,,,,7,0,7,0,,,,,,,,,,,,,,,,,,,,,,,,907.9479578032042,None,,,,,,,,,,,,,,,,,revolution,new_sing,blue,7,112,264,903.012970352167,None,903.012970352167,None,3,3.18205143357045,903.012970352167,None,906.2472776411159,None,906.7475957965071,None,906.7475957965071,None,f,1.1592745559755713,906.7475957965071,None,,,color2,001,2019_Nov_21_1412,ProdSingRedo,3.2.4,59.98306137721858,
,,,,8,0,8,0,,,,,,,,,,,,,,,,,,,,,,,,915.166839998652,None,,,,,,,,,,,,,,,,,edition,silent,red,8,84,107,908.4646278390719,None,908.4646278390719,None,5,5.649932668020483,908.4646278390719,None,914.1532728330349,None,914.6666537082347,None,914.6666537082347,None,f,0.46381301296059974,914.6666537082347,None,,,color2,001,2019_Nov_21_1412,ProdSingRedo,3.2.4,59.98306137721858,
,,,,9,0,9,0,,,,,,,,,,,,,,,,,,,,,,,,919.6682037438441,None,,,,,,,,,,,,,,,,,fashion,aloud,yellow,9,34,125,915.6836686456809,None,915.6836686456809,None,4,3.0067782957630698,915.6836686456809,None,918.734473364224,None,919.251402776019,None,919.251402776019,None,f,0.38287154672434554,919.251402776019,None,,,color2,001,2019_Nov_21_1412,ProdSingRedo,3.2.4,59.98306137721858,
,,,,10,0,10,0,,,,,,,,,,,,,,,,,,,,,,,,922.9859038194409,None,,,,,,,,,,,,,,,,,member,sing,blue,10,25,188,920.1851471507689,None,920.1851471507689,None,6,1.6410998908395413,920.1851471507689,None,921.8854398039402,None,922.3855937501066,None,922.3855937501066,None,r,0.5604106474784203,922.3855937501066,None,,,color2,001,2019_Nov_21_1412,ProdSingRedo,3.2.4,59.98306137721858,
,,,,11,0,11,0,,,,,,,,,,,,,,,,,,,,,,,,929.2044644384587,None,,,,,,,,,,,,,,,,,machinery,new_silent,red,11,172,175,923.502601223503,None,923.502601223503,None,2,2.2673304492782336,923.502601223503,None,925.8072454212816,None,926.32007115733,None,926.32007115733,None,n,2.8496008285146672,926.32007115733,None,,,color2,001,2019_Nov_21_1412,ProdSingRedo,3.2.4,59.98306137721858,
,,,,12,0,12,0,,,,,,,,,,,,,,,,,,,,,,,,932.855542217032,None,,,,,,,,,,,,,,,,,addition,new_silent,red,12,153,2,929.7212843774178,None,929.7212843774178,None,6,2.112174808193231,929.7212843774178,None,931.8718374950695,None,932.3887386056595,None,932.3887386056595,None,r,0.4286703717370983,932.3887386056595,None,,,color2,001,2019_Nov_21_1412,ProdSingRedo,3.2.4,59.98306137721858,
,,,,13,0,13,0,,,,,,,,,,,,,,,,,,,,,,,,937.8571059367387,None,,,,,,,,,,,,,,,,,charter,sing,blue,13,17,47,933.3722928024945,None,933.3722928024945,None,6,2.7572813420265447,933.3722928024945,None,936.1750675652584,None,936.6901343841164,None,936.6901343841164,None,r,1.118866334320046,936.6901343841164,None,,,color2,001,2019_Nov_21_1412,ProdSingRedo,3.2.4,59.98306137721858,
,,,,14,0,14,0,,,,,,,,,,,,,,,,,,,,,,,,941.5582389182237,None,,,,,,,,,,,,,,,,,thick,silent,red,14,77,327,938.3737955657416,None,938.3737955657416,None,6,2.1710481711488683,938.3737955657416,None,940.5950724791037,None,941.10798000879,None,941.10798000879,None,r,0.4047981439216528,941.10798000879,None,,,color2,001,2019_Nov_21_1412,ProdSingRedo,3.2.4,59.98306137721858,
,,,,15,0,15,0,,,,,,,,,,,,,,,,,,,,,,,,945.559465511411,None,,,,,,,,,,,,,,,,,property,silent,red,15,83,242,942.0751406508207,None,942.0751406508207,None,3,2.781457730132388,942.0751406508207,None,944.9092849745648,None,945.4094342556782,None,945.4094342556782,None,f,0.11114663447369821,945.4094342556782,None,,,color2,001,2019_Nov_21_1412,ProdSingRedo,3.2.4,59.98306137721858,
,,,,16,0,16,0,,,,,,,,,,,,,,,,,,,,,,,,950.3609623656084,None,,,,,,,,,,,,,,,,,degree,silent,red,16,76,89,946.0762916704407,None,946.0762916704407,None,2,3.5723335437942296,946.0762916704407,None,949.6960154381522,None,950.2109152487537,None,950.2109152487537,None,n,0.10130589877371676,950.2109152487537,None,,,color2,001,2019_Nov_21_1412,ProdSingRedo,3.2.4,59.98306137721858,
,,,,17,0,17,0,,,,,,,,,,,,,,,,,,,,,,,,954.5289104655385,None,,,,,,,,,,,,,,,,,track,new_silent,red,17,158,334,950.8777322332317,None,950.8777322332317,None,2,1.8024584734230302,950.8777322332317,None,952.7332918663742,None,953.24516064825,None,953.24516064825,None,n,1.242848345922539,953.24516064825,None,,,color2,001,2019_Nov_21_1412,ProdSingRedo,3.2.4,59.98306137721858,
,,,,18,0,18,0,,,,,,,,,,,,,,,,,,,,,,,,957.8799269766605,None,,,,,,,,,,,,,,,,,brief,new_silent,red,18,176,28,955.0457179644436,None,955.0457179644436,None,1,1.6822227958473377,955.0457179644436,None,956.7655832382152,None,957.2796383665118,None,957.2796383665118,None,n,0.5602212470548693,957.2796383665118,None,,,color2,001,2019_Nov_21_1412,ProdSingRedo,3.2.4,59.98306137721858,
,,,,19,0,19,0,,,,,,,,,,,,,,,,,,,,,,,,961.3143207242829,None,,,,,,,,,,,,,,,,,listen,silent,red,19,88,172,958.3967649537663,None,958.3967649537663,None,1,1.9548452607996296,958.3967649537663,None,960.397150596662,None,960.9141745531815,None,960.9141745531815,None,n,0.3653929047868587,960.9141745531815,None,,,color2,001,2019_Nov_21_1412,ProdSingRedo,3.2.4,59.98306137721858,
,,,,20,0,20,0,,,,,,,,,,,,,,,,,,,,,,,,964.0484849521599,None,,,,,,,,,,,,,,,,,clean,new_silent,red,20,154,51,961.8309804970631,None,961.8309804970631,None,1,1.184582059533568,961.8309804970631,None,963.0647516179888,None,963.5816766757634,None,963.5816766757634,None,n,0.4258041742723435,963.5816766757634,None,,,color2,001,2019_Nov_21_1412,ProdSingRedo,3.2.4,59.98306137721858,
,,,,21,0,21,0,,,,,,,,,,,,,,,,,,,,,,,,967.2327930186293,None,,,,,,,,,,,,,,,,,error,sing,blue,21,18,117,964.5651465909614,None,964.5651465909614,None,6,1.890559213294182,964.5651465909614,None,966.4999191394018,None,967.0160343470925,None,967.0160343470925,None,r,0.18340367169003002,967.0160343470925,None,,,color2,001,2019_Nov_21_1412,ProdSingRedo,3.2.4,59.98306137721858,
,,,,22,0,22,0,,,,,,,,,,,,,,,,,,,,,,,,972.3343411882233,None,,,,,,,,,,,,,,,,,interior,silent,red,22,71,164,967.7495084608381,None,967.7495084608381,None,5,2.1217300437565427,967.7495084608381,None,969.920040057099,None,970.433783872053,None,970.433783872053,None,r,1.8531123558059335,970.433783872053,None,,,color2,001,2019_Nov_21_1412,ProdSingRedo,3.2.4,59.98306137721858,
,,,,23,0,23,0,,,,,,,,,,,,,,,,,,,,,,,,977.952759679174,None,,,,,,,,,,,,,,,,,narrow,new_silent,red,23,167,197,972.8511866293848,None,972.8511866293848,None,2,3.819434846576769,972.8511866293848,None,976.7189086306316,None,977.235837109416,None,977.235837109416,None,n,0.6828846088319551,977.235837109416,None,,,color2,001,2019_Nov_21_1412,ProdSingRedo,3.2.4,59.98306137721858,
,,,,24,0,24,0,,,,,,,,,,,,,,,,,,,,,,,,981.3204428051249,None,,,,,,,,,,,,,,,,,tragedy,new_silent,red,24,150,335,978.4695413648733,None,978.4695413648733,None,1,1.9209145956556313,978.4695413648733,None,980.4372279118397,None,980.9537359154783,None,980.9537359154783,None,n,0.33277902350528166,980.9537359154783,None,,,color2,001,2019_Nov_21_1412,ProdSingRedo,3.2.4,59.98306137721858,
,,,,25,0,25,0,,,,,,,,,,,,,,,,,,,,,,,,983.8712024283013,None,,,,,,,,,,,,,,,,,bucket,new_sing,blue,25,114,33,981.8380626421131,None,981.8380626421131,None,1,1.1122836589929648,981.8380626421131,None,982.9893503472558,None,983.504409080022,None,983.504409080022,None,n,0.3259612304682378,983.504409080022,None,,,color2,001,2019_Nov_21_1412,ProdSingRedo,3.2.4,59.98306137721858,
,,,,26,0,26,0,,,,,,,,,,,,,,,,,,,,,,,,987.1388824442402,None,,,,,,,,,,,,,,,,,murder,silent,red,26,75,195,984.3879505257646,None,984.3879505257646,None,6,2.1141667781048454,984.3879505257646,None,986.5407061619044,None,987.0555447050428,None,987.0555447050428,None,r,0.046524704463081434,987.0555447050428,None,,,color2,001,2019_Nov_21_1412,ProdSingRedo,3.2.4,59.98306137721858,
,,,,27,0,27,0,,,,,,,,,,,,,,,,,,,,,,,,990.3065472210583,None,,,,,,,,,,,,,,,,,atmosphere,aloud,yellow,27,39,12,987.6556942971656,None,987.6556942971656,None,6,1.2942800451419316,987.6556942971656,None,988.9898392429168,None,989.5062642089324,None,989.5062642089324,None,r,0.7558659704227466,989.5062642089324,None,,,color2,001,2019_Nov_21_1412,ProdSingRedo,3.2.4,59.98306137721858,
,,,,28,0,28,0,,,,,,,,,,,,,,,,,,,,,,,,993.8242488516262,None,,,,,,,,,,,,,,,,,notice,silent,red,28,85,201,990.8233553419414,None,990.8233553419414,None,5,2.078346773807425,990.8233553419414,None,992.9423084458977,None,993.4574953116535,None,993.4574953116535,None,f,0.33208735432708636,993.4574953116535,None,,,color2,001,2019_Nov_21_1412,ProdSingRedo,3.2.4,59.98306137721858,
,,,,29,0,29,0,,,,,,,,,,,,,,,,,,,,,,,,997.6087929688802,None,,,,,,,,,,,,,,,,,staff,new_silent,red,29,175,301,994.3410961588088,None,994.3410961588088,None,2,2.104320444370387,994.3410961588088,None,996.4925353220897,None,997.0085951713845,None,997.0085951713845,None,n,0.5647914262954146,997.0085951713845,None,,,color2,001,2019_Nov_21_1412,ProdSingRedo,3.2.4,59.98306137721858,
,,,,30,0,30,0,,,,,,,,,,,,,,,,,,,,,,,,1001.2598530203104,None,,,,,,,,,,,,,,,,,personnel,aloud,yellow,30,42,219,998.1255718555476,None,998.1255718555476,None,6,1.4157115266716573,998.1255718555476,None,999.5758372960263,None,1000.0928289082949,None,1000.0928289082949,None,r,1.128373053506948,1000.0928289082949,None,,,color2,001,2019_Nov_21_1412,ProdSingRedo,3.2.4,59.98306137721858,
,,,,31,0,31,0,,,,,,,,,,,,,,,,,,,,,,,,1004.2441492686921,None,,,,,,,,,,,,,,,,,silence,aloud,yellow,31,30,288,1001.7767248966848,None,1001.7767248966848,None,6,1.1245754040719476,1001.7767248966848,None,1002.9458128201368,None,1003.4605649046425,None,1003.4605649046425,None,r,0.7444643140479457,1003.4605649046425,None,,,color2,001,2019_Nov_21_1412,ProdSingRedo,3.2.4,59.98306137721858,
,,,,32,0,32,0,,,,,,,,,,,,,,,,,,,,,,,,1006.6948687725817,None,,,,,,,,,,,,,,,,,emergency,sing,blue,32,23,110,1004.7608877250459,None,1004.7608877250459,None,6,1.1402788446866907,1004.7608877250459,None,1005.9612198755494,None,1006.4615007106622,None,1006.4615007106622,None,r,0.19157463588635437,1006.4615007106622,None,,,color2,001,2019_Nov_21_1412,ProdSingRedo,3.2.4,59.98306137721858,
,,,,33,0,33,0,,,,,,,,,,,,,,,,,,,,,,,,1009.7958064445993,None,,,,,,,,,,,,,,,,,center,aloud,yellow,33,36,44,1007.2117275868368,None,1007.2117275868368,None,1,1.529023359384155,1007.2117275868368,None,1008.78087024673,None,1009.2957016368164,None,1009.2957016368164,None,n,0.4529089602874592,1009.2957016368164,None,,,color2,001,2019_Nov_21_1412,ProdSingRedo,3.2.4,59.98306137721858,
,,,,34,0,34,0,,,,,,,,,,,,,,,,,,,,,,,,1012.1965718213469,None,,,,,,,,,,,,,,,,,threat,silent,red,34,89,329,1010.3125368149194,None,1010.3125368149194,None,1,1.2520011444867123,1010.3125368149194,None,1011.614150295005,None,1012.1298720847408,None,1012.1298720847408,None,n,0.026697061985032633,1012.1298720847408,None,,,color2,001,2019_Nov_21_1412,ProdSingRedo,3.2.4,59.98306137721858,
,,,,35,0,35,0,,,,,,,,,,,,,,,,,,,,,,,,1015.080759218894,None,,,,,,,,,,,,,,,,,agency,new_silent,red,35,166,4,1012.6965046448167,None,1012.6965046448167,None,1,1.3319517573108897,1012.6965046448167,None,1014.0652999150916,None,1014.5806382389856,None,1014.5806382389856,None,n,0.4560488398128655,1014.5806382389856,None,,,color2,001,2019_Nov_21_1412,ProdSingRedo,3.2.4,59.98306137721858,
,,,,36,0,36,0,,,,,,,,,,,,,,,,,,,,,,,,1019.6988629754924,None,,,,,,,,,,,,,,,,,entrance,aloud,yellow,36,35,115,1015.5975073163281,None,1015.5975073163281,None,3,3.3986197716731112,1015.5975073163281,None,1019.0348437679932,None,1019.5488034185546,None,1019.5488034185546,None,f,0.10319865896599367,1019.5488034185546,None,,,color2,001,2019_Nov_21_1412,ProdSingRedo,3.2.4,59.98306137721858,
,,,,37,0,37,0,,,,,,,,,,,,,,,,,,,,,,,,1023.1666104789183,None,,,,,,,,,,,,,,,,,stand,aloud,yellow,37,31,302,1020.2155734416447,None,1020.2155734416447,None,3,2.0603779922239482,1020.2155734416447,None,1022.316173987143,None,1022.8331643553975,None,1022.8331643553975,None,f,0.29865926897036843,1022.8331643553975,None,,,color2,001,2019_Nov_21_1412,ProdSingRedo,3.2.4,59.98306137721858,
,,,,38,0,38,0,,,,,,,,,,,,,,,,,,,,,,,,1026.4009410930448,None,,,,,,,,,,,,,,,,,capital,new_silent,red,38,165,40,1023.6834453460178,None,1023.6834453460178,None,1,1.8084169670473784,1023.6834453460178,None,1025.53384234049,None,1026.0507960104733,None,1026.0507960104733,None,n,0.30480000996612944,1026.0507960104733,None,,,color2,001,2019_Nov_21_1412,ProdSingRedo,3.2.4,59.98306137721858,
,,,,39,0,39,0,,,,,,,,,,,,,,,,,,,,,,,,1029.9353712279408,None,,,,,,,,,,,,,,,,,poetry,silent,red,39,68,225,1026.917727443797,None,1026.917727443797,None,1,1.9740897739247885,1026.917727443797,None,1028.9393918660644,None,1029.4517274624377,None,1029.4517274624377,None,n,0.44772983851726167,1029.4517274624377,None,,,color2,001,2019_Nov_21_1412,ProdSingRedo,3.2.4,59.98306137721858,
,,,,40,0,40,0,,,,,,,,,,,,,,,,,,,,,,,,1034.6367744704476,None,,,,,,,,,,,,,,,,,shape,new_silent,red,40,163,282,1030.4521728177788,None,1030.4521728177788,None,6,2.7510432573326398,1030.4521728177788,None,1033.2362059581792,None,1033.7531891734106,None,1033.7531891734106,None,r,0.842188709997572,1033.7531891734106,None,,,color2,001,2019_Nov_21_1412,ProdSingRedo,3.2.4,59.98306137721858,
,,,,41,0,41,0,,,,,,,,,,,,,,,,,,,,,,,,1039.58831502049,None,,,,,,,,,,,,,,,,,travel,silent,red,41,72,338,1035.15348151559,None,1035.15348151559,None,3,3.521387630200479,1035.15348151559,None,1038.7237347647897,None,1039.2382100571995,None,1039.2382100571995,None,f,0.30879048083443195,1039.2382100571995,None,,,color2,001,2019_Nov_21_1412,ProdSingRedo,3.2.4,59.98306137721858,
,,,,42,0,42,0,,,,,,,,,,,,,,,,,,,,,,,,1043.3894822122238,None,,,,,,,,,,,,,,,,,general,aloud,yellow,42,49,135,1040.105021132622,None,1040.105021132622,None,1,2.257910188724054,1040.105021132622,None,1042.4085388799722,None,1042.9226191994385,None,1042.9226191994385,None,n,0.4242130863422062,1042.9226191994385,None,,,color2,001,2019_Nov_21_1412,ProdSingRedo,3.2.4,59.98306137721858,
,,,,43,0,43,0,,,,,,,,,,,,,,,,,,,,,,,,1047.5574163170531,None,,,,,,,,,,,,,,,,,review,aloud,yellow,43,47,263,1043.907742403011,None,1043.907742403011,None,3,2.7908975838217884,1043.907742403011,None,1046.7442873537075,None,1047.2573248823755,None,1047.2573248823755,None,f,0.2572555288497824,1047.2573248823755,None,,,color2,001,2019_Nov_21_1412,ProdSingRedo,3.2.4,59.98306137721858,
,,,,44,0,44,0,,,,,,,,,,,,,,,,,,,,,,,,1050.3415950065537,None,,,,,,,,,,,,,,,,,series,new_aloud,yellow,44,146,279,1048.0741019030393,None,1048.0741019030393,None,1,1.4881075819430407,1048.0741019030393,None,1049.6092768884846,None,1050.1248621482227,None,1050.1248621482227,None,n,0.18129569789743982,1050.1248621482227,None,,,color2,001,2019_Nov_21_1412,ProdSingRedo,3.2.4,59.98306137721858,
,,,,45,0,45,0,,,,,,,,,,,,,,,,,,,,,,,,1054.642932627583,None,,,,,,,,,,,,,,,,,interview,new_sing,blue,45,106,165,1050.860355911078,None,1050.860355911078,None,6,3.0936092131596524,1050.860355911078,None,1053.9949567862495,None,1054.50957327371,None,1054.50957327371,None,r,0.09244077740004286,1054.50957327371,None,,,color2,001,2019_Nov_21_1412,ProdSingRedo,3.2.4,59.98306137721858,
,,,,46,0,46,0,,,,,,,,,,,,,,,,,,,,,,,,1057.3270780398161,None,,,,,,,,,,,,,,,,,equipment,new_aloud,yellow,46,123,116,1055.159647758759,None,1055.159647758759,None,1,1.282206001720624,1055.159647758759,None,1056.48140765875,None,1056.9934798361792,None,1056.9934798361792,None,n,0.2882696141314227,1056.9934798361792,None,,,color2,001,2019_Nov_21_1412,ProdSingRedo,3.2.4,59.98306137721858,
,,,,47,0,47,0,,,,,,,,,,,,,,,,,,,,,,,,1060.9781579954142,None,,,,,,,,,,,,,,,,,balance,silent,red,47,78,17,1057.8438587925048,None,1057.8438587925048,None,3,2.069690645992523,1057.8438587925048,None,1059.9628423746908,None,1060.4780510106066,None,1060.4780510106066,None,f,0.4515141148294788,1060.4780510106066,None,,,color2,001,2019_Nov_21_1412,ProdSingRedo,3.2.4,59.98306137721858,
,,,,48,0,48,0,,,,,,,,,,,,,,,,,,,,,,,,1065.3628778289712,None,,,,,,,,,,,,,,,,,direction,new_silent,red,48,179,94,1061.4949312840472,None,1061.4949312840472,None,1,2.9223430293495767,1061.4949312840472,None,1064.462431851629,None,1064.9793634404487,None,1064.9793634404487,None,n,0.35002316965255886,1064.9793634404487,None,,,color2,001,2019_Nov_21_1412,ProdSingRedo,3.2.4,59.98306137721858,
,,,,49,0,49,0,,,,,,,,,,,,,,,,,,,,,,,,1068.0803832170786,None,,,,,,,,,,,,,,,,,shear,aloud,yellow,49,54,283,1065.8796983899374,None,1065.8796983899374,None,1,1.2737784606288187,1065.8796983899374,None,1067.1973244469555,None,1067.7135705866676,None,1067.7135705866676,None,n,0.31946905684890226,1067.7135705866676,None,,,color2,001,2019_Nov_21_1412,ProdSingRedo,3.2.4,59.98306137721858,
,,,,50,0,50,0,,,,,,,,,,,,,,,,,,,,,,,,1071.2980245132057,None,,,,,,,,,,,,,,,,,employment,new_aloud,yellow,50,149,111,1068.598006164073,None,1068.598006164073,None,3,1.6750557471823413,1068.598006164073,None,1070.3175489284622,None,1070.83122245688,None,1070.83122245688,None,f,0.41770909461774863,1070.83122245688,None,,,color2,001,2019_Nov_21_1412,ProdSingRedo,3.2.4,59.98306137721858,
,,,,51,0,51,0,,,,,,,,,,,,,,,,,,,,,,,,1074.6156580342795,None,,,,,,,,,,,,,,,,,nation,sing,blue,51,14,198,1071.8148590693017,None,1071.8148590693017,None,6,1.6741354912810493,1071.8148590693017,None,1073.532018000813,None,1074.0369592058414,None,1074.0369592058414,None,r,0.5398020781285595,1074.0369592058414,None,,,color2,001,2019_Nov_21_1412,ProdSingRedo,3.2.4,59.98306137721858,
,,,,52,0,52,0,,,,,,,,,,,,,,,,,,,,,,,,1077.0331145950477,None,,,,,,,,,,,,,,,,,material,sing,blue,52,15,182,1075.1323274481401,None,1075.1323274481401,None,6,0.7802983134461101,1075.1323274481401,None,1075.9494045860483,None,1076.4662105299358,None,1076.4662105299358,None,r,0.5343707334250212,1076.4662105299358,None,,,color2,001,2019_Nov_21_1412,ProdSingRedo,3.2.4,59.98306137721858,
,,,,53,0,53,0,,,,,,,,,,,,,,,,,,,,,,,,1080.8176045978616,None,,,,,,,,,,,,,,,,,salary,sing,blue,53,21,271,1077.5498766875826,None,1077.5498766875826,None,3,2.1384507729962934,1077.5498766875826,None,1079.7355245520885,None,1080.2507726853073,None,1080.2507726853073,None,f,0.5335960266238544,1080.2507726853073,None,,,color2,001,2019_Nov_21_1412,ProdSingRedo,3.2.4,59.98306137721858,
,,,,54,0,54,0,,,,,,,,,,,,,,,,,,,,,,,,1084.218657962745,None,,,,,,,,,,,,,,,,,quantity,sing,blue,54,5,245,1081.3362697136763,None,1081.3362697136763,None,6,2.0319999626954086,1081.3362697136763,None,1083.418233444565,None,1083.9185478679428,None,1083.9185478679428,None,r,0.26562397950328887,1083.9185478679428,None,,,color2,001,2019_Nov_21_1412,ProdSingRedo,3.2.4,59.98306137721858,
,,,,55,0,55,0,,,,,,,,,,,,,,,,,,,,,,,,1087.55301065807,None,,,,,,,,,,,,,,,,,trial,silent,red,55,79,341,1084.7352850803,None,1084.7352850803,None,3,1.6088987096445635,1084.7352850803,None,1086.3869089789514,None,1086.9028089730418,None,1086.9028089730418,None,f,0.60913880346925,1086.9028089730418,None,,,color2,001,2019_Nov_21_1412,ProdSingRedo,3.2.4,59.98306137721858,
,,,,56,0,56,0,,,,,,,,,,,,,,,,,,,,,,,,1090.4539088327729,None,,,,,,,,,,,,,,,,,count,new_aloud,yellow,56,121,72,1088.0696847369545,None,1088.0696847369545,None,1,1.5064685374381952,1088.0696847369545,None,1089.6214495196764,None,1090.137140520179,None,1090.137140520179,None,n,0.27862387691857293,1090.137140520179,None,,,color2,001,2019_Nov_21_1412,ProdSingRedo,3.2.4,59.98306137721858,
,,,,57,0,57,0,,,,,,,,,,,,,,,,,,,,,,,,1092.7212604302622,None,,,,,,,,,,,,,,,,,appeal,aloud,yellow,57,37,9,1090.9706071698456,None,1090.9706071698456,None,1,1.1412603680219036,1090.9706071698456,None,1092.1563514450681,None,1092.6712584087218,None,1092.6712584087218,None,n,0.01644642520113848,1092.6712584087218,None,,,color2,001,2019_Nov_21_1412,ProdSingRedo,3.2.4,59.98306137721858,
,,,,58,0,58,0,,,,,,,,,,,,,,,,,,,,,,,,1095.9722623242415,None,,,,,,,,,,,,,,,,,company,sing,blue,58,27,64,1093.2380915653193,None,1093.2380915653193,None,6,1.4654656793281902,1093.2380915653193,None,1094.7448567989923,None,1095.2553649456822,None,1095.2553649456822,None,r,0.6723811271367595,1095.2553649456822,None,,,color2,001,2019_Nov_21_1412,ProdSingRedo,3.2.4,59.98306137721858,
,,,,59,0,59,0,,,,,,,,,,,,,,,,,,,,,,,,1099.056503214204,None,,,,,,,,,,,,,,,,,short,new_aloud,yellow,59,126,285,1096.4890922153136,None,1096.4890922153136,None,3,1.750289076648187,1096.4890922153136,None,1098.2753390703,None,1098.7897574492963,None,1098.7897574492963,None,f,0.2256539601366967,1098.7897574492963,None,,,color2,001,2019_Nov_21_1412,ProdSingRedo,3.2.4,59.98306137721858,
,,,,60,0,60,0,,,,,,,,,,,,,,,,,,,,,,,,1101.7073063777352,None,,,,,,,,,,,,,,,,,birth,new_silent,red,60,157,22,1099.5733026270464,None,1099.5733026270464,None,1,1.4498978357296437,1099.5733026270464,None,1101.0588173825527,None,1101.5739401818137,None,1101.5739401818137,None,n,0.0971297595242504,1101.5739401818137,None,,,color2,001,2019_Nov_21_1412,ProdSingRedo,3.2.4,59.98306137721858,
,,,,61,0,61,0,,,,,,,,,,,,,,,,,,,,,,,,1104.3414777586877,None,,,,,,,,,,,,,,,,,right,new_aloud,yellow,61,127,265,1102.224044212111,None,1102.224044212111,None,1,1.2392671541019809,1102.224044212111,None,1103.5104602523497,None,1104.0247262401972,None,1104.0247262401972,None,n,0.2781237851595506,1104.0247262401972,None,,,color2,001,2019_Nov_21_1412,ProdSingRedo,3.2.4,59.98306137721858,
,,,,62,0,62,0,,,,,,,,,,,,,,,,,,,,,,,,1106.5921869994781,None,,,,,,,,,,,,,,,,,sweet,new_sing,blue,62,117,319,1104.8582998746715,None,1104.8582998746715,None,1,0.7645398254098836,1104.8582998746715,None,1105.6591759682342,None,1106.1753375152766,None,1106.1753375152766,None,n,0.3754948824644089,1106.1753375152766,None,,,color2,001,2019_Nov_21_1412,ProdSingRedo,3.2.4,59.98306137721858,
,,,,63,0,63,0,,,,,,,,,,,,,,,,,,,,,,,,1109.9932273022714,None,,,,,,,,,,,,,,,,,candidate,new_silent,red,63,174,39,1107.1089705511986,None,1107.1089705511986,None,1,1.7297001004626509,1107.1089705511986,None,1108.8793932966655,None,1109.3929579742544,None,1109.3929579742544,None,n,0.557796050910838,1109.3929579742544,None,,,color2,001,2019_Nov_21_1412,ProdSingRedo,3.2.4,59.98306137721858,
,,,,64,0,64,0,,,,,,,,,,,,,,,,,,,,,,,,1113.577641420532,None,,,,,,,,,,,,,,,,,government,new_sing,blue,64,92,139,1110.5099088452407,None,1110.5099088452407,None,3,2.2884381774056237,1110.5099088452407,None,1112.8483201209165,None,1113.3607751422096,None,1113.3607751422096,None,f,0.18158399703679606,1113.3607751422096,None,,,color2,001,2019_Nov_21_1412,ProdSingRedo,3.2.4,59.98306137721858,
,,,,65,0,65,0,,,,,,,,,,,,,,,,,,,,,,,,1116.0784027542395,None,,,,,,,,,,,,,,,,,season,new_silent,red,65,162,277,1114.094460115506,None,1114.094460115506,None,1,1.056077452027239,1114.094460115506,None,1115.1974264557357,None,1115.7116199800512,None,1115.7116199800512,None,n,0.3185861211968586,1115.7116199800512,None,,,color2,001,2019_Nov_21_1412,ProdSingRedo,3.2.4,59.98306137721858,
,,,,66,0,66,0,,,,,,,,,,,,,,,,,,,,,,,,1119.8629238573194,None,,,,,,,,,,,,,,,,,harmony,new_aloud,yellow,66,135,148,1116.5951891049626,None,1116.5951891049626,None,1,2.3391719874052797,1116.5951891049626,None,1118.9858329108974,None,1119.4961214899668,None,1119.4961214899668,None,n,0.33392040204489604,1119.4961214899668,None,,,color2,001,2019_Nov_21_1412,ProdSingRedo,3.2.4,59.98306137721858,
,,,,67,0,67,0,,,,,,,,,,,,,,,,,,,,,,,,1124.8310815728037,None,,,,,,,,,,,,,,,,,safety,silent,red,67,70,270,1120.379649251583,None,1120.379649251583,None,1,3.537973384401994,1120.379649251583,None,1123.97074525489,None,1124.4808920169016,None,1124.4808920169016,None,n,0.308838064171141,1124.4808920169016,None,,,color2,001,2019_Nov_21_1412,ProdSingRedo,3.2.4,59.98306137721858,
,,,,68,0,68,0,,,,,,,,,,,,,,,,,,,,,,,,1126.8150450486864,None,,,,,,,,,,,,,,,,,enemy,new_aloud,yellow,68,137,113,1125.3478881386982,None,1125.3478881386982,None,1,0.7937357910850551,1125.3478881386982,None,1126.1822557621053,None,1126.698325563455,None,1126.698325563455,None,n,0.07552940369350836,1126.698325563455,None,,,color2,001,2019_Nov_21_1412,ProdSingRedo,3.2.4,59.98306137721858,
,,,,69,0,69,0,,,,,,,,,,,,,,,,,,,,,,,,1128.8490021490434,None,,,,,,,,,,,,,,,,,novel,silent,red,69,80,202,1127.3326826127886,None,1127.3326826127886,None,1,0.6570110810280312,1127.3326826127886,None,1128.0377818069828,None,1128.5489153793897,None,1128.5489153793897,None,n,0.2567140737955924,1128.5489153793897,None,,,color2,001,2019_Nov_21_1412,ProdSingRedo,3.2.4,59.98306137721858,
,,,,70,0,70,0,,,,,,,,,,,,,,,,,,,,,,,,1136.1512255046982,None,,,,,,,,,,,,,,,,,incident,sing,blue,70,24,158,1129.3658332841005,None,1129.3658332841005,None,4,5.831213437806582,1129.3658332841005,None,1135.2372717631806,None,1135.7511272279662,None,1135.7511272279662,None,f,0.35801313052070327,1135.7511272279662,None,,,color2,001,2019_Nov_21_1412,ProdSingRedo,3.2.4,59.98306137721858,
,,,,71,0,71,0,,,,,,,,,,,,,,,,,,,,,,,,1139.568961034529,None,,,,,,,,,,,,,,,,,industry,sing,blue,71,12,161,1136.6679222867533,None,1136.6679222867533,None,6,1.320853639190318,1136.6679222867533,None,1138.0360196678084,None,1138.5518412892998,None,1138.5518412892998,None,r,0.973348033381626,1138.5518412892998,None,,,color2,001,2019_Nov_21_1412,ProdSingRedo,3.2.4,59.98306137721858,
,,,,72,0,72,0,,,,,,,,,,,,,,,,,,,,,,,,1143.4868371374323,None,,,,,,,,,,,,,,,,,guide,aloud,yellow,72,51,147,1140.0856273383542,None,1140.0856273383542,None,1,2.5029227999038994,1140.0856273383542,None,1142.6364239708346,None,1143.1533819948381,None,1143.1533819948381,None,n,0.29925732643459924,1143.1533819948381,None,,,color2,001,2019_Nov_21_1412,ProdSingRedo,3.2.4,59.98306137721858,
,,,,73,0,73,0,,,,,,,,,,,,,,,,,,,,,,,,1145.537461474596,None,,,,,,,,,,,,,,,,,front,new_sing,blue,73,119,134,1144.0036555214028,None,1144.0036555214028,None,1,0.7287910406594165,1144.0036555214028,None,1144.7718567772245,None,1145.2873860565305,None,1145.2873860565305,None,n,0.21299367732717656,1145.2873860565305,None,,,color2,001,2019_Nov_21_1412,ProdSingRedo,3.2.4,59.98306137721858,
,,,,74,0,74,0,,,,,,,,,,,,,,,,,,,,,,,,1147.9548573898792,None,,,,,,,,,,,,,,,,,strain,aloud,yellow,74,41,308,1146.0541109842889,None,1146.0541109842889,None,1,0.9182032773387618,1146.0541109842889,None,1147.0071126232797,None,1147.5213963382703,None,1147.5213963382703,None,n,0.39484264838392846,1147.5213963382703,None,,,color2,001,2019_Nov_21_1412,ProdSingRedo,3.2.4,59.98306137721858,
,,,,75,0,75,0,,,,,,,,,,,,,,,,,,,,,,,,1150.3889494652394,None,,,,,,,,,,,,,,,,,surface,silent,red,75,87,316,1148.4716851039266,None,1148.4716851039266,None,1,0.8524073135340586,1148.4716851039266,None,1149.3734061908326,None,1149.8887945860915,None,1149.8887945860915,None,n,0.4513104083016515,1149.8887945860915,None,,,color2,001,2019_Nov_21_1412,ProdSingRedo,3.2.4,59.98306137721858,
,,,,76,0,76,0,,,,,,,,,,,,,,,,,,,,,,,,1155.0570477792935,None,,,,,,,,,,,,,,,,,disease,aloud,yellow,76,32,97,1150.9057168448344,None,1150.9057168448344,None,3,3.1301628719083965,1150.9057168448344,None,1154.0750610342075,None,1154.590200005594,None,1154.590200005594,None,f,0.4296067997638602,1154.590200005594,None,,,color2,001,2019_Nov_21_1412,ProdSingRedo,3.2.4,59.98306137721858,
,,,,77,0,77,0,,,,,,,,,,,,,,,,,,,,,,,,1161.592378265923,None,,,,,,,,,,,,,,,,,crime,aloud,yellow,77,50,78,1155.5738733163162,None,1155.5738733163162,None,1,2.4217073406034615,1155.5738733163162,None,1158.0430007370887,None,1158.5580890151032,None,1158.5580890151032,None,f,2.989598216081504,1158.5580890151032,None,,,color2,001,2019_Nov_21_1412,ProdSingRedo,3.2.4,59.98306137721858,
,,,,78,0,78,0,,,,,,,,,,,,,,,,,,,,,,,,1165.2434669295908,None,,,,,,,,,,,,,,,,,theme,new_sing,blue,78,110,326,1162.1090641629125,None,1162.1090641629125,None,1,2.254111917281989,1162.1090641629125,None,1164.4111102472234,None,1164.926730028208,None,1164.926730028208,None,n,0.28445952461333945,1164.926730028208,None,,,color2,001,2019_Nov_21_1412,ProdSingRedo,3.2.4,59.98306137721858,
,,,,79,0,79,0,,,,,,,,,,,,,,,,,,,,,,,,1167.627555428393,None,,,,,,,,,,,,,,,,,tough,silent,red,79,69,333,1165.760170242691,None,1165.760170242691,None,1,0.8829744884860702,1165.760170242691,None,1166.6771578119078,None,1167.194056123495,None,1167.194056123495,None,n,0.40099862846545875,1167.194056123495,None,,,color2,001,2019_Nov_21_1412,ProdSingRedo,3.2.4,59.98306137721858,
,,,,80,0,80,0,,,,,,,,,,,,,,,,,,,,,,,,1169.8282072892762,None,,,,,,,,,,,,,,,,,quarter,new_sing,blue,80,109,246,1168.14430819088,None,1168.14430819088,None,1,0.8505655577464495,1168.14430819088,None,1169.031572023494,None,1169.544683259679,None,1169.544683259679,None,n,0.24238837347365916,1169.544683259679,None,,,color2,001,2019_Nov_21_1412,ProdSingRedo,3.2.4,59.98306137721858,
,,,,81,0,81,0,,,,,,,,,,,,,,,,,,,,,,,,1171.9455416261044,None,,,,,,,,,,,,,,,,,state,new_aloud,yellow,81,142,303,1170.3449662718049,None,1170.3449662718049,None,1,0.8420133046747651,1170.3449662718049,None,1171.2286178123613,None,1171.7454912437533,None,1171.7454912437533,None,n,0.1532084555074107,1171.7454912437533,None,,,color2,001,2019_Nov_21_1412,ProdSingRedo,3.2.4,59.98306137721858,
,,,,82,0,82,0,,,,,,,,,,,,,,,,,,,,,,,,1176.7803536718711,None,,,,,,,,,,,,,,,,,beginning,new_aloud,yellow,82,130,19,1172.4623282878601,None,1172.4623282878601,None,1,3.5162452066724654,1172.4623282878601,None,1176.0300263419049,None,1176.5301292836666,None,1176.5301292836666,None,n,0.20855629607103765,1176.5301292836666,None,,,color2,001,2019_Nov_21_1412,ProdSingRedo,3.2.4,59.98306137721858,
,,,,83,0,83,0,,,,,,,,,,,,,,,,,,,,,,,,1178.9477034033043,None,,,,,,,,,,,,,,,,,prime,new_aloud,yellow,83,141,235,1177.2971785868867,None,1177.2971785868867,None,1,0.7452038775663823,1177.2971785868867,None,1178.0829530293413,None,1178.5975906649546,None,1178.5975906649546,None,n,0.30881598303676583,1178.5975906649546,None,,,color2,001,2019_Nov_21_1412,ProdSingRedo,3.2.4,59.98306137721858,
,,,,84,0,84,0,,,,,,,,,,,,,,,,,,,,,,,,1183.6491209519154,None,,,,,,,,,,,,,,,,,production,sing,blue,84,16,240,1179.4644891320204,None,1179.4644891320204,None,6,2.625866996764671,1179.4644891320204,None,1182.134817954793,None,1182.6487091848394,None,1182.6487091848394,None,r,0.9613906158192549,1182.6487091848394,None,,,color2,001,2019_Nov_21_1412,ProdSingRedo,3.2.4,59.98306137721858,
,,,,85,0,85,0,,,,,,,,,,,,,,,,,,,,,,,,1187.7837370662019,None,,,,,,,,,,,,,,,,,volume,new_aloud,yellow,85,132,349,1184.1659651490918,None,1184.1659651490918,None,1,0.8359363191702869,1184.1659651490918,None,1185.052826855681,None,1185.5662842374877,None,1185.5662842374877,None,n,2.1795372907363344,1185.5662842374877,None,,,color2,001,2019_Nov_21_1412,ProdSingRedo,3.2.4,59.98306137721858,
,,,,86,0,86,0,,,,,,,,,,,,,,,,,,,,,,,,1191.901637427276,None,,,,,,,,,,,,,,,,,answer,sing,blue,86,3,8,1188.3005719333014,None,1188.3005719333014,None,6,2.5650153479655273,1188.3005719333014,None,1190.901264535467,None,1191.4180664363375,None,1191.4180664363375,None,r,0.4397364566102624,1191.4180664363375,None,,,color2,001,2019_Nov_21_1412,ProdSingRedo,3.2.4,59.98306137721858,
,,,,87,0,87,0,,,,,,,,,,,,,,,,,,,,,,,,1194.6358520375506,None,,,,,,,,,,,,,,,,,gesture,new_silent,red,87,169,137,1192.4184956195531,None,1192.4184956195531,None,1,1.2789286591578275,1192.4184956195531,None,1193.7379102509585,None,1194.2523631512013,None,1194.2523631512013,None,n,0.3412053206411656,1194.2523631512013,None,,,color2,001,2019_Nov_21_1412,ProdSingRedo,3.2.4,59.98306137721858,
,,,,88,0,88,0,,,,,,,,,,,,,,,,,,,,,,,,1196.8031722237647,None,,,,,,,,,,,,,,,,,comfort,new_sing,blue,88,101,59,1195.1526984117227,None,1195.1526984117227,None,1,0.7525373125099577,1195.1526984117227,None,1195.9541567016568,None,1196.469744449394,None,1196.469744449394,None,n,0.2995938309468329,1196.469744449394,None,,,color2,001,2019_Nov_21_1412,ProdSingRedo,3.2.4,59.98306137721858,
,,,,89,0,89,0,,,,,,,,,,,,,,,,,,,,,,,,1198.8038010704913,None,,,,,,,,,,,,,,,,,contract,sing,blue,89,1,68,1197.319841948629,None,1197.319841948629,None,1,0.6575525360822212,1197.319841948629,None,1198.0203619445092,None,1198.5370204733044,None,1198.5370204733044,None,n,0.2320481680217199,1198.5370204733044,None,,,color2,001,2019_Nov_21_1412,ProdSingRedo,3.2.4,59.98306137721858,
,,,,90,0,90,0,,,,,,,,,,,,,,,,,,,,,,,,1200.887620241294,None,,,,,,,,,,,,,,,,,device,silent,red,90,82,93,1199.3218615977385,None,1199.3218615977385,None,1,0.6632158884895034,1199.3218615977385,None,1200.0233373038063,None,1200.537643410964,None,1200.537643410964,None,n,0.31137708720052615,1200.537643410964,None,,,color2,001,2019_Nov_21_1412,ProdSingRedo,3.2.4,59.98306137721858,
,,,,91,0,91,0,,,,,,,,,,,,,,,,,,,,,,,,1205.022388124693,None,,,,,,,,,,,,,,,,,court,aloud,yellow,91,44,75,1201.4044426682813,None,1201.4044426682813,None,5,2.652391141426051,1201.4044426682813,None,1204.105293259665,None,1204.6222251594882,None,1204.6222251594882,None,f,0.36253945840871893,1204.6222251594882,None,,,color2,001,2019_Nov_21_1412,ProdSingRedo,3.2.4,59.98306137721858,
,,,,92,0,92,0,,,,,,,,,,,,,,,,,,,,,,,,1211.0575419619854,None,,,,,,,,,,,,,,,,,problem,new_sing,blue,92,102,238,1205.5390444764635,None,1205.5390444764635,None,1,4.565473765396746,1205.5390444764635,None,1210.1571805772837,None,1210.657427513128,None,1210.657427513128,None,n,0.36707387235946953,1210.657427513128,None,,,color2,001,2019_Nov_21_1412,ProdSingRedo,3.2.4,59.98306137721858,
,,,,93,0,93,0,,,,,,,,,,,,,,,,,,,,,,,,1214.62528884341,None,,,,,,,,,,,,,,,,,region,silent,red,93,66,256,1211.5742583372048,None,1211.5742583372048,None,1,2.169905859598657,1211.5742583372048,None,1213.7914953303116,None,1214.308500937681,None,1214.308500937681,None,n,0.26768063791678287,1214.308500937681,None,,,color2,001,2019_Nov_21_1412,ProdSingRedo,3.2.4,59.98306137721858,
,,,,94,0,94,0,,,,,,,,,,,,,,,,,,,,,,,,1218.8432495389425,None,,,,,,,,,,,,,,,,,permit,aloud,yellow,94,52,218,1215.141973185382,None,1215.141973185382,None,1,2.969924830715172,1215.141973185382,None,1218.1614587253425,None,1218.6765442043252,None,1218.6765442043252,None,n,0.12358019661041908,1218.6765442043252,None,,,color2,001,2019_Nov_21_1412,ProdSingRedo,3.2.4,59.98306137721858,
,,,,95,0,95,0,,,,,,,,,,,,,,,,,,,,,,,,1220.7605191872863,None,,,,,,,,,,,,,,,,,minor,new_aloud,yellow,95,143,191,1219.3600694779307,None,1219.3600694779307,None,1,0.543779797910247,1219.3600694779307,None,1219.943447336438,None,1220.4603751932154,None,1220.4603751932154,None,n,0.2593728327192366,1220.4603751932154,None,,,color2,001,2019_Nov_21_1412,ProdSingRedo,3.2.4,59.98306137721858,
,,,,96,0,96,0,,,,,,,,,,,,,,,,,,,,,,,,1223.1946134396712,None,,,,,,,,,,,,,,,,,cross,new_silent,red,96,171,80,1221.277345968323,None,1221.277345968323,None,1,0.6023098143050447,1221.277345968323,None,1221.9281332707324,None,1222.4443657263182,None,1222.4443657263182,None,f,0.7153314818278886,1222.4443657263182,None,,,color2,001,2019_Nov_21_1412,ProdSingRedo,3.2.4,59.98306137721858,
,,,,97,0,97,0,,,,,,,,,,,,,,,,,,,,,,,,1225.5453220584604,None,,,,,,,,,,,,,,,,,trend,aloud,yellow,97,59,340,1223.711428402603,None,1223.711428402603,None,1,1.1441209674812853,1223.711428402603,None,1224.8950298717828,None,1225.41192289631,None,1225.41192289631,None,n,0.09968775365268812,1225.41192289631,None,,,color2,001,2019_Nov_21_1412,ProdSingRedo,3.2.4,59.98306137721858,
,,,,98,0,98,0,,,,,,,,,,,,,,,,,,,,,,,,1227.6626144099864,None,,,,,,,,,,,,,,,,,bureau,new_aloud,yellow,98,134,37,1226.0620042234077,None,1226.0620042234077,None,1,0.6416233077470679,1226.0620042234077,None,1226.7488886331848,None,1227.2624128804891,None,1227.2624128804891,None,n,0.36094837050768547,1227.2624128804891,None,,,color2,001,2019_Nov_21_1412,ProdSingRedo,3.2.4,59.98306137721858,
,,,,99,0,99,0,,,,,,,,,,,,,,,,,,,,,,,,1230.0300204328669,None,,,,,,,,,,,,,,,,,place,new_aloud,yellow,99,147,222,1228.1794237748836,None,1228.1794237748836,None,1,1.0678376941068564,1228.1794237748836,None,1229.297405618563,None,1229.8132953495951,None,1229.8132953495951,None,n,0.17794122677878477,1229.8132953495951,None,,,color2,001,2019_Nov_21_1412,ProdSingRedo,3.2.4,59.98306137721858,
,,,,100,0,100,0,,,,,,,,,,,,,,,,,,,,,,,,1231.9973011217953,None,,,,,,,,,,,,,,,,,empty,silent,red,100,62,112,1230.5468241997296,None,1230.5468241997296,None,1,0.5963674927770626,1230.5468241997296,None,1231.185614898277,None,1231.6970958602615,None,1231.6970958602615,None,n,0.2621388874249533,1231.6970958602615,None,,,color2,001,2019_Nov_21_1412,ProdSingRedo,3.2.4,59.98306137721858,
,,,,101,0,101,0,,,,,,,,,,,,,,,,,,,,,,,,1234.5312678632035,None,,,,,,,,,,,,,,,,,carry,new_sing,blue,101,96,43,1232.5140025688743,None,1232.5140025688743,None,1,1.2051265624177177,1232.5140025688743,None,1233.768275585404,None,1234.2812070622458,None,1234.2812070622458,None,n,0.21363154309801757,1234.2812070622458,None,,,color2,001,2019_Nov_21_1412,ProdSingRedo,3.2.4,59.98306137721858,
,,,,102,0,102,0,,,,,,,,,,,,,,,,,,,,,,,,1236.54871416089,None,,,,,,,,,,,,,,,,,congress,new_aloud,yellow,102,136,67,1235.0482277532283,None,1235.0482277532283,None,1,0.5987003212794662,1235.0482277532283,None,1235.6836789087683,None,1236.1985905374459,None,1236.1985905374459,None,n,0.31224727173685096,1236.1985905374459,None,,,color2,001,2019_Nov_21_1412,ProdSingRedo,3.2.4,59.98306137721858,
,,,,103,0,103,0,,,,,,,,,,,,,,,,,,,,,,,,1238.7493591796956,None,,,,,,,,,,,,,,,,,leader,new_sing,blue,103,93,168,1237.0653785986942,None,1237.0653785986942,None,1,0.8213686590606812,1237.0653785986942,None,1237.935691871331,None,1238.4491831523774,None,1238.4491831523774,None,n,0.25344170728931203,1238.4491831523774,None,,,color2,001,2019_Nov_21_1412,ProdSingRedo,3.2.4,59.98306137721858,
,,,,104,0,104,0,,,,,,,,,,,,,,,,,,,,,,,,1240.8330903368478,None,,,,,,,,,,,,,,,,,victory,sing,blue,104,19,346,1239.2675944902876,None,1239.2675944902876,None,1,0.7232119698601309,1239.2675944902876,None,1240.0496328617737,None,1240.533019428316,None,1240.533019428316,None,n,0.28133519520633854,1240.533019428316,None,,,color2,001,2019_Nov_21_1412,ProdSingRedo,3.2.4,59.98306137721858,
,,,,105,0,105,0,,,,,,,,,,,,,,,,,,,,,,,,1242.8339455932728,None,,,,,,,,,,,,,,,,,institute,silent,red,105,64,162,1241.350104652287,None,1241.350104652287,None,1,0.5763616459444165,1241.350104652287,None,1241.9679689370969,None,1242.4838201038365,None,1242.4838201038365,None,n,0.3069067397445906,1242.4838201038365,None,,,color2,001,2019_Nov_21_1412,ProdSingRedo,3.2.4,59.98306137721858,
,,,,106,0,106,0,,,,,,,,,,,,,,,,,,,,,,,,1246.4683950102772,None,,,,,,,,,,,,,,,,,meeting,new_aloud,yellow,106,128,187,1243.3507537141559,None,1243.3507537141559,None,1,2.447477926616557,1243.3507537141559,None,1245.836706671951,None,1246.3516767690598,None,1246.3516767690598,None,n,0.07850911704008467,1246.3516767690598,None,,,color2,001,2019_Nov_21_1412,ProdSingRedo,3.2.4,59.98306137721858,
,,,,107,0,107,0,,,,,,,,,,,,,,,,,,,,,,,,1249.7860929088492,None,,,,,,,,,,,,,,,,,judge,aloud,yellow,107,33,166,1246.9851238255796,None,1246.9851238255796,None,1,0.7810459630272817,1246.9851238255796,None,1247.8065534410998,None,1248.318831813056,None,1248.318831813056,None,r,1.4312196578248404,1248.318831813056,None,,,color2,001,2019_Nov_21_1412,ProdSingRedo,3.2.4,59.98306137721858,
,,,,108,0,108,0,,,,,,,,,,,,,,,,,,,,,,,,1258.7221561169717,None,,,,,,,,,,,,,,,,,worker,new_sing,blue,108,105,356,1250.3027887578937,None,1250.3027887578937,None,3,7.518873798369896,1250.3027887578937,None,1257.8589029081922,None,1258.3718857004424,None,1258.3718857004424,None,f,0.31360852892976254,1258.3718857004424,None,,,color2,001,2019_Nov_21_1412,ProdSingRedo,3.2.4,59.98306137721858,
,,,,109,0,109,0,,,,,,,,,,,,,,,,,,,,,,,,1261.32296223499,None,,,,,,,,,,,,,,,,,bicycle,new_aloud,yellow,109,131,21,1259.2387661293615,None,1259.2387661293615,None,1,1.1588077414489817,1259.2387661293615,None,1260.4414976628323,None,1260.9561138392892,None,1260.9561138392892,None,n,0.32114256036584266,1260.9561138392892,None,,,color2,001,2019_Nov_21_1412,ProdSingRedo,3.2.4,59.98306137721858,
,,,,110,0,110,0,,,,,,,,,,,,,,,,,,,,,,,,1265.42412756072,None,,,,,,,,,,,,,,,,,committee,sing,blue,110,26,62,1261.8396425339452,None,1261.8396425339452,None,6,2.6374415704631247,1261.8396425339452,None,1264.5261730230413,None,1265.0407441041898,None,1265.0407441041898,None,r,0.34832851798273623,1265.0407441041898,None,,,color2,001,2019_Nov_21_1412,ProdSingRedo,3.2.4,59.98306137721858,
,,,,111,0,111,0,,,,,,,,,,,,,,,,,,,,,,,,1269.0086100994959,None,,,,,,,,,,,,,,,,,raise,aloud,yellow,111,40,250,1265.9410308483348,None,1265.9410308483348,None,3,2.1518882506352384,1265.9410308483348,None,1268.1421489017084,None,1268.658544944512,None,1268.658544944512,None,f,0.306617818569066,1268.658544944512,None,,,color2,001,2019_Nov_21_1412,ProdSingRedo,3.2.4,59.98306137721858,
,,,,112,0,112,0,,,,,,,,,,,,,,,,,,,,,,,,1271.4790306679497,None,,,,,,,,,,,,,,,,,mankind,new_silent,red,112,155,178,1269.5254085793276,None,1269.5254085793276,None,1,1.0633564615272917,1269.5254085793276,None,1270.6321433347766,None,1271.1424530619697,None,1271.1424530619697,None,n,0.3022242886654567,1271.1424530619697,None,,,color2,001,2019_Nov_21_1412,ProdSingRedo,3.2.4,59.98306137721858,
,,,,113,0,113,0,,,,,,,,,,,,,,,,,,,,,,,,1276.2941264100082,None,,,,,,,,,,,,,,,,,guest,new_silent,red,113,164,146,1272.0094812170137,None,1272.0094812170137,None,1,3.5789921036630403,1272.0094812170137,None,1275.6296826843463,None,1276.144166684826,None,1276.144166684826,None,n,0.10838431178126484,1276.144166684826,None,,,color2,001,2019_Nov_21_1412,ProdSingRedo,3.2.4,59.98306137721858,
,,,,114,0,114,0,,,,,,,,,,,,,,,,,,,,,,,,1279.0471846514265,None,,,,,,,,,,,,,,,,,private,new_sing,blue,114,100,237,1276.8126854740258,None,1276.8126854740258,None,3,1.6075470935320482,1276.8126854740258,None,1278.4666045698687,None,1278.978227970947,None,1278.978227970947,None,f,0.04219150901190005,1278.978227970947,None,,,color2,001,2019_Nov_21_1412,ProdSingRedo,3.2.4,59.98306137721858,
,,,,115,0,115,0,,,,,,,,,,,,,,,,,,,,,,,,1283.4630323971214,None,,,,,,,,,,,,,,,,,minute,sing,blue,115,10,192,1279.5783763190557,None,1279.5783763190557,None,6,2.889984169974923,1279.5783763190557,None,1282.5138190775178,None,1283.029582230578,None,1283.029582230578,None,r,0.39059155754512176,1283.029582230578,None,,,color2,001,2019_Nov_21_1412,ProdSingRedo,3.2.4,59.98306137721858,
,,,,116,0,116,0,,,,,,,,,,,,,,,,,,,,,,,,1288.7813613194157,None,,,,,,,,,,,,,,,,,figure,sing,blue,116,28,128,1283.9797475283267,None,1283.9797475283267,None,2,3.3681362563511357,1283.9797475283267,None,1287.380776635022,None,1287.8977548741968,None,1287.8977548741968,None,f,0.8499647012213245,1287.8977548741968,None,,,color2,001,2019_Nov_21_1412,ProdSingRedo,3.2.4,59.98306137721858,
,,,,117,0,117,0,,,,,,,,,,,,,,,,,,,,,,,,1292.6325292886468,None,,,,,,,,,,,,,,,,,debate,new_aloud,yellow,117,148,87,1289.2980338432826,None,1289.2980338432826,None,1,2.593384047446307,1289.2980338432826,None,1291.9353979741281,None,1292.4490435123444,None,1292.4490435123444,None,n,0.13829931485815905,1292.4490435123444,None,,,color2,001,2019_Nov_21_1412,ProdSingRedo,3.2.4,59.98306137721858,
,,,,118,0,118,0,,,,,,,,,,,,,,,,,,,,,,,,1295.9669031321246,None,,,,,,,,,,,,,,,,,agreement,sing,blue,118,9,5,1293.1506809396087,None,1293.1506809396087,None,6,1.8685066601028666,1293.1506809396087,None,1295.0689918237622,None,1295.5834444130014,None,1295.5834444130014,None,r,0.3400303538364824,1295.5834444130014,None,,,color2,001,2019_Nov_21_1412,ProdSingRedo,3.2.4,59.98306137721858,
,,,,119,0,119,0,,,,,,,,,,,,,,,,,,,,,,,,1299.5346512575343,None,,,,,,,,,,,,,,,,,welcome,sing,blue,119,4,354,1296.483736133203,None,1296.483736133203,None,6,2.1272674402280245,1296.483736133203,None,1298.6529770698107,None,1299.167884344468,None,1299.167884344468,None,r,0.3233796001004521,1299.167884344468,None,,,color2,001,2019_Nov_21_1412,ProdSingRedo,3.2.4,59.98306137721858,
,,,,120,0,120,0,,,,,,,,,,,,,,,,,,,,,,,,1303.002384454856,None,,,,,,,,,,,,,,,,,budget,new_sing,blue,120,116,34,1300.0514363642724,None,1300.0514363642724,None,3,1.615488537994679,1300.0514363642724,None,1301.7029498571064,None,1302.2186996370729,None,1302.2186996370729,None,f,0.7440817811584566,1302.2186996370729,None,,,color2,001,2019_Nov_21_1412,ProdSingRedo,3.2.4,59.98306137721858,
,,,,121,0,121,0,,,,,,,,,,,,,,,,,,,,,,,,1305.703217008093,None,,,,,,,,,,,,,,,,,crowd,new_silent,red,121,151,81,1303.519120734214,None,1303.519120734214,None,1,1.2034913121606223,1303.519120734214,None,1304.7713000830554,None,1305.286388983077,None,1305.286388983077,None,n,0.3725515563855879,1305.286388983077,None,,,color2,001,2019_Nov_21_1412,ProdSingRedo,3.2.4,59.98306137721858,
,,,,122,0,122,0,,,,,,,,,,,,,,,,,,,,,,,,1308.7208017018274,None,,,,,,,,,,,,,,,,,executive,new_sing,blue,122,113,122,1306.219941469375,None,1306.219941469375,None,3,1.8625282623397652,1306.219941469375,None,1308.137262433098,None,1308.6374288193474,None,1308.6374288193474,None,f,0.04499612803920172,1308.6374288193474,None,,,color2,001,2019_Nov_21_1412,ProdSingRedo,3.2.4,59.98306137721858,
,,,,123,0,123,0,,,,,,,,,,,,,,,,,,,,,,,,1314.1724669637915,None,,,,,,,,,,,,,,,,,foundation,silent,red,123,67,132,1309.2374782687111,None,1309.2374782687111,None,3,4.180418360308977,1309.2374782687111,None,1313.4387126369693,None,1313.9556445367925,None,1313.9556445367925,None,f,0.1825490373012144,1313.9556445367925,None,,,color2,001,2019_Nov_21_1412,ProdSingRedo,3.2.4,59.98306137721858,
,,,,124,0,124,0,,,,,,,,,,,,,,,,,,,,,,,,1317.0066859280923,None,,,,,,,,,,,,,,,,,accident,new_silent,red,124,161,0,1314.68931302696,None,1314.68931302696,None,3,1.4248615262040403,1314.68931302696,None,1316.1592851300666,None,1316.6732578427182,None,1316.6732578427182,None,f,0.28895102022215724,1316.6732578427182,None,,,color2,001,2019_Nov_21_1412,ProdSingRedo,3.2.4,59.98306137721858,
,,,,125,0,125,0,,,,,,,,,,,,,,,,,,,,,,,,1319.8075408735021,None,,,,,,,,,,,,,,,,,impact,new_silent,red,125,177,157,1317.523355341953,None,1317.523355341953,None,3,0.6305065295018721,1317.523355341953,None,1318.190808015148,None,1318.7072065459797,None,1318.7072065459797,None,n,1.0544667709618807,1318.7072065459797,None,,,color2,001,2019_Nov_21_1412,ProdSingRedo,3.2.4,59.98306137721858,
,,,,126,0,126,0,,,,,,,,,,,,,,,,,,,,,,,,1323.6587079097226,None,,,,,,,,,,,,,,,,,voice,new_sing,blue,126,107,348,1320.3243349992845,None,1320.3243349992845,None,1,2.405321560858283,1320.3243349992845,None,1322.776961880445,None,1323.2919329105935,None,1323.2919329105935,None,n,0.3257326437160373,1323.2919329105935,None,,,color2,001,2019_Nov_21_1412,ProdSingRedo,3.2.4,59.98306137721858,
,,,,127,0,127,0,,,,,,,,,,,,,,,,,,,,,,,,1327.259798594896,None,,,,,,,,,,,,,,,,,century,new_silent,red,127,170,45,1324.1753981607326,None,1324.1753981607326,None,6,1.9619892952905502,1324.1753981607326,None,1326.1816903598665,None,1326.6929523762083,None,1326.6929523762083,None,r,0.5323986676812638,1326.6929523762083,None,,,color2,001,2019_Nov_21_1412,ProdSingRedo,3.2.4,59.98306137721858,
,,,,128,0,128,0,,,,,,,,,,,,,,,,,,,,,,,,1330.2107047001773,None,,,,,,,,,,,,,,,,,straight,silent,red,128,86,307,1327.7765068840527,None,1327.7765068840527,None,3,1.6006745640479494,1327.7765068840527,None,1329.4132813545002,None,1329.927306626545,None,1329.927306626545,None,f,0.24198407045332715,1329.927306626545,None,,,color2,001,2019_Nov_21_1412,ProdSingRedo,3.2.4,59.98306137721858,
,,,,129,0,129,0,,,,,,,,,,,,,,,,,,,,,,,,1333.561752311536,None,,,,,,,,,,,,,,,,,comedy,sing,blue,129,20,58,1330.72744657757,None,1330.72744657757,None,6,1.9854531770688482,1330.72744657757,None,1332.7634603363404,None,1333.2782105547958,None,1333.2782105547958,None,r,0.23464286047965288,1333.2782105547958,None,,,color2,001,2019_Nov_21_1412,ProdSingRedo,3.2.4,59.98306137721858,
,,,,130,0,130,0,,,,,,,,,,,,,,,,,,,,,,,,1336.1792303314433,None,,,,,,,,,,,,,,,,,article,new_sing,blue,130,95,11,1334.078430122463,None,1334.078430122463,None,1,1.3143465374596417,1334.078430122463,None,1335.4305671749462,None,1335.945777054876,None,1335.945777054876,None,n,0.19115167274139822,1335.945777054876,None,,,color2,001,2019_Nov_21_1412,ProdSingRedo,3.2.4,59.98306137721858,
,,,,131,0,131,0,,,,,,,,,,,,,,,,,,,,,,,,1338.1465020012984,None,,,,,,,,,,,,,,,,,match,new_aloud,yellow,131,122,181,1336.6959050323348,None,1336.6959050323348,None,1,0.8487766723555978,1336.6959050323348,None,1337.5796078882704,None,1338.096476965613,None,1338.096476965613,None,n,0.01623525461764075,1338.096476965613,None,,,color2,001,2019_Nov_21_1412,ProdSingRedo,3.2.4,59.98306137721858,
,,,,132,0,132,0,,,,,,,,,,,,,,,,,,,,,,,,1340.2304639221984,None,,,,,,,,,,,,,,,,,weight,new_sing,blue,132,91,353,1338.6632989261125,None,1338.6632989261125,None,1,0.8493423855688889,1338.6632989261125,None,1339.5468136256386,None,1340.0637116262224,None,1340.0637116262224,None,n,0.12071835319511592,1340.0637116262224,None,,,color2,001,2019_Nov_21_1412,ProdSingRedo,3.2.4,59.98306137721858,
,,,,133,0,133,0,,,,,,,,,,,,,,,,,,,,,,,,1342.080909433018,None,,,,,,,,,,,,,,,,,discussion,new_sing,blue,133,94,96,1340.7471317810123,None,1340.7471317810123,None,1,0.6372307108540554,1340.7471317810123,None,1341.432371921488,None,1341.9474567784637,None,1341.9474567784637,None,n,0.10889217859948985,1341.9474567784637,None,,,color2,001,2019_Nov_21_1412,ProdSingRedo,3.2.4,59.98306137721858,
,,,,134,0,134,0,,,,,,,,,,,,,,,,,,,,,,,,1344.7485036122962,None,,,,,,,,,,,,,,,,,instrument,sing,blue,134,11,163,1342.5977107118524,None,1342.5977107118524,None,6,1.4185634180612396,1342.5977107118524,None,1344.067695255042,None,1344.581692847889,None,1344.581692847889,None,r,0.13056593094370328,1344.581692847889,None,,,color2,001,2019_Nov_21_1412,ProdSingRedo,3.2.4,59.98306137721858,
,,,,135,0,135,0,,,,,,,,,,,,,,,,,,,,,,,,1348.0329000034253,None,,,,,,,,,,,,,,,,,rough,new_aloud,yellow,135,133,266,1345.2652153224626,None,1345.2652153224626,None,1,2.1509011292655487,1345.2652153224626,None,1347.4500237916945,None,1347.9662008888554,None,1347.9662008888554,None,n,0.01777844814932905,1347.9662008888554,None,,,color2,001,2019_Nov_21_1412,ProdSingRedo,3.2.4,59.98306137721858,
,,,,136,0,136,0,,,,,,,,,,,,,,,,,,,,,,,,1353.0677356853557,None,,,,,,,,,,,,,,,,,quiet,sing,blue,136,13,249,1348.5496123355988,None,1348.5496123355988,None,4,3.6981059958052356,1348.5496123355988,None,1352.288752911758,None,1352.800872672553,None,1352.800872672553,None,f,0.2308281059085857,1352.800872672553,None,,,color2,001,2019_Nov_21_1412,ProdSingRedo,3.2.4,59.98306137721858,
,,,,137,0,137,0,,,,,,,,,,,,,,,,,,,,,,,,1358.2860101822298,None,,,,,,,,,,,,,,,,,grade,sing,blue,137,2,140,1353.5844218933198,None,1353.5844218933198,None,1,2.5913174369488843,1353.5844218933198,None,1356.2201097216457,None,1356.7355245520885,None,1356.7355245520885,None,r,1.5037889413943049,1356.7355245520885,None,,,color2,001,2019_Nov_21_1412,ProdSingRedo,3.2.4,59.98306137721858,
,,,,138,0,138,0,,,,,,,,,,,,,,,,,,,,,,,,1360.6200643152988,None,,,,,,,,,,,,,,,,,union,silent,red,138,61,344,1358.80269172517,None,1358.80269172517,None,1,1.1248154978675302,1358.80269172517,None,1359.9706973605207,None,1360.4866825692588,None,1360.4866825692588,None,n,0.08890592490206473,1360.4866825692588,None,,,color2,001,2019_Nov_21_1412,ProdSingRedo,3.2.4,59.98306137721858,
,,,,139,0,139,0,,,,,,,,,,,,,,,,,,,,,,,,1364.321160287509,None,,,,,,,,,,,,,,,,,write,new_sing,blue,139,98,358,1361.1367430592072,None,1361.1367430592072,None,1,1.3745889326673932,1361.1367430592072,None,1362.5538444553094,None,1363.070802479313,None,1363.070802479313,None,n,1.208421010087477,1363.070802479313,None,,,color2,001,2019_Nov_21_1412,ProdSingRedo,3.2.4,59.98306137721858,
,,,,140,0,140,0,,,,,,,,,,,,,,,,,,,,,,,,1367.0887159025006,None,,,,,,,,,,,,,,,,,surprise,aloud,yellow,140,45,317,1364.8380312308727,None,1364.8380312308727,None,1,1.6488721500500105,1364.8380312308727,None,1366.5251868346531,None,1367.0386862017622,None,1367.0386862017622,None,n,0.008357565617188811,1367.0386862017622,None,,,color2,001,2019_Nov_21_1412,ProdSingRedo,3.2.4,59.98306137721858,
,,,,141,0,141,0,,,,,,,,,,,,,,,,,,,,,,,,1369.3393881340162,None,,,,,,,,,,,,,,,,,sound,new_silent,red,141,159,295,1367.6055041192449,None,1367.6055041192449,None,1,0.8333693059394136,1367.6055041192449,None,1368.4751390957972,None,1368.9892716636532,None,1368.9892716636532,None,n,0.30577717928099446,1368.9892716636532,None,,,color2,001,2019_Nov_21_1412,ProdSingRedo,3.2.4,59.98306137721858,
,,,,142,0,142,0,,,,,,,,,,,,,,,,,,,,,,,,1372.5570334731892,None,,,,,,,,,,,,,,,,,audience,new_aloud,yellow,142,138,14,1369.8562009199522,None,1369.8562009199522,None,3,1.8702824834326748,1369.8562009199522,None,1371.789969863894,None,1372.273597146239,None,1372.273597146239,None,f,0.23687803422217257,1372.273597146239,None,,,color2,001,2019_Nov_21_1412,ProdSingRedo,3.2.4,59.98306137721858,
,,,,143,0,143,0,,,,,,,,,,,,,,,,,,,,,,,,1375.858066311921,None,,,,,,,,,,,,,,,,,under,new_aloud,yellow,143,129,343,1373.073754202429,None,1373.073754202429,None,1,2.0605978708772454,1373.073754202429,None,1375.1773409922898,None,1375.6913519582304,None,1375.6913519582304,None,n,0.13098360705771483,1375.6913519582304,None,,,color2,001,2019_Nov_21_1412,ProdSingRedo,3.2.4,59.98306137721858,
,,,,144,0,144,0,,,,,,,,,,,,,,,,,,,,,,,,1378.758920324326,None,,,,,,,,,,,,,,,,,department,new_sing,blue,144,103,90,1376.3747590509593,None,1376.3747590509593,None,1,1.6954578109725844,1376.3747590509593,None,1378.112205286423,None,1378.625470779778,None,1378.625470779778,None,n,0.08469868538668379,1378.625470779778,None,,,color2,001,2019_Nov_21_1412,ProdSingRedo,3.2.4,59.98306137721858,
,,,,145,0,145,0,,,,,,,,,,,,,,,,,,,,,,,,1380.7428993503272,None,,,,,,,,,,,,,,,,,stranger,new_sing,blue,145,90,309,1379.275770119537,None,1379.275770119537,None,1,0.7143085951684043,1379.275770119537,None,1380.0290323784575,None,1380.5428514559753,None,1380.5428514559753,None,n,0.16708537944941781,1380.5428514559753,None,,,color2,001,2019_Nov_21_1412,ProdSingRedo,3.2.4,59.98306137721858,
,,,,146,0,146,0,,,,,,,,,,,,,,,,,,,,,,,,1382.6768247284344,None,,,,,,,,,,,,,,,,,character,new_aloud,yellow,146,140,46,1381.2597140022554,None,1381.2597140022554,None,1,0.49826989401481114,1381.2597140022554,None,1381.796064887545,None,1382.2984614714806,None,1382.2984614714806,None,n,0.3394609085517004,1382.2984614714806,None,,,color2,001,2019_Nov_21_1412,ProdSingRedo,3.2.4,59.98306137721858,
,,,,147,0,147,0,,,,,,,,,,,,,,,,,,,,,,,,1384.4773711595335,None,,,,,,,,,,,,,,,,,pattern,new_sing,blue,147,108,214,1383.19351715644,None,1383.19351715644,None,1,0.6123517685336992,1383.19351715644,None,1383.8461300425115,None,1384.3606784204894,None,1384.3606784204894,None,n,0.07713915177737363,1384.3606784204894,None,,,color2,001,2019_Nov_21_1412,ProdSingRedo,3.2.4,59.98306137721858,
,,,,148,0,148,0,,,,,,,,,,,,,,,,,,,,,,,,1386.4946560469689,None,,,,,,,,,,,,,,,,,relation,new_aloud,yellow,148,144,257,1384.994067008578,None,1384.994067008578,None,1,0.6195906587236095,1384.994067008578,None,1385.662352546031,None,1386.1778942654491,None,1386.1778942654491,None,n,0.27572440216317773,1386.1778942654491,None,,,color2,001,2019_Nov_21_1412,ProdSingRedo,3.2.4,59.98306137721858,
,,,,149,0,149,0,,,,,,,,,,,,,,,,,,,,,,,,1388.4785921546572,None,,,,,,,,,,,,,,,,,thing,new_sing,blue,149,118,328,1387.0114651008917,None,1387.0114651008917,None,1,0.7540490948304068,1387.0114651008917,None,1387.8115786167327,None,1388.3285521908547,None,1388.3285521908547,None,n,0.11704386066412553,1388.3285521908547,None,,,color2,001,2019_Nov_21_1412,ProdSingRedo,3.2.4,59.98306137721858,
,,,,150,0,150,0,,,,,,,,,,,,,,,,,,,,,,,,1390.3291490043339,None,,,,,,,,,,,,,,,,,month,new_aloud,yellow,150,125,193,1388.9954152036807,None,1388.9954152036807,None,1,0.6742294139694422,1388.9954152036807,None,1389.7127666456217,None,1390.2290905358968,None,1390.2290905358968,None,n,0.056712207762757316,1390.2290905358968,None,,,color2,001,2019_Nov_21_1412,ProdSingRedo,3.2.4,59.98306137721858,
,,,,151,0,151,0,,,,,,,,,,,,,,,,,,,,,,,,1393.3467632432585,None,,,,,,,,,,,,,,,,,alert,aloud,yellow,151,56,6,1390.8459932015103,None,1390.8459932015103,None,3,1.5354601746075787,1390.8459932015103,None,1392.4296898373868,None,1392.9466360433144,None,1392.9466360433144,None,f,0.35490435123210773,1392.9466360433144,None,,,color2,001,2019_Nov_21_1412,ProdSingRedo,3.2.4,59.98306137721858,
,,,,152,0,152,0,,,,,,,,,,,,,,,,,,,,,,,,1395.464030092582,None,,,,,,,,,,,,,,,,,damage,aloud,yellow,152,48,83,1393.8634407431819,None,1393.8634407431819,None,3,0.69377497737878,1393.8634407431819,None,1394.5989382380503,None,1395.1139540525328,None,1395.1139540525328,None,f,0.30738412830396555,1395.1139540525328,None,,,color2,001,2019_Nov_21_1412,ProdSingRedo,3.2.4,59.98306137721858,
,,,,153,0,153,0,,,,,,,,,,,,,,,,,,,,,,,,1397.6480579459749,None,,,,,,,,,,,,,,,,,reading,silent,red,153,60,254,1395.980906323006,None,1395.980906323006,None,3,0.8001984194852412,1395.980906323006,None,1396.8167751546425,None,1397.3313225996098,None,1397.3313225996098,None,f,0.28172270409413613,1397.3313225996098,None,,,color2,001,2019_Nov_21_1412,ProdSingRedo,3.2.4,59.98306137721858,
,,,,154,0,154,0,,,,,,,,,,,,,,,,,,,,,,,,1399.9821235861164,None,,,,,,,,,,,,,,,,,majority,new_sing,blue,154,97,176,1398.1678442251578,None,1398.1678442251578,None,3,0.8849810755054932,1398.1678442251578,None,1399.1150702398736,None,1399.6153364578786,None,1399.6153364578786,None,f,0.3256408980523702,1399.6153364578786,None,,,color2,001,2019_Nov_21_1412,ProdSingRedo,3.2.4,59.98306137721858,
,,,,155,0,155,0,,,,,,,,,,,,,,,,,,,,,,,,1402.9497047032928,None,,,,,,,,,,,,,,,,,management,aloud,yellow,155,38,177,1400.4987992200186,None,1400.4987992200186,None,6,1.6339844685571734,1400.4987992200186,None,1402.1699117686367,None,1402.6828227193619,None,1402.6828227193619,None,r,0.22580915028811432,1402.6828227193619,None,,,color2,001,2019_Nov_21_1412,ProdSingRedo,3.2.4,59.98306137721858,
,,,,156,0,156,0,,,,,,,,,,,,,,,,,,,,,,,,1405.517146180442,None,,,,,,,,,,,,,,,,,public,aloud,yellow,156,53,244,1403.4664599538082,None,1403.4664599538082,None,3,1.13815874181455,1403.4664599538082,None,1404.6557673827047,None,1405.1670256670332,None,1405.1670256670332,None,f,0.3095216473157052,1405.1670256670332,None,,,color2,001,2019_Nov_21_1412,ProdSingRedo,3.2.4,59.98306137721858,
,,,,157,0,157,0,,,,,,,,,,,,,,,,,,,,,,,,1408.5014094625658,None,,,,,,,,,,,,,,,,,bright,new_sing,blue,157,104,29,1406.0339546123287,None,1406.0339546123287,None,3,0.6184800694172736,1406.0339546123287,None,1406.7057044047397,None,1407.217572875641,None,1407.217572875641,None,n,1.2428116476512514,1407.217572875641,None,,,color2,001,2019_Nov_21_1412,ProdSingRedo,3.2.4,59.98306137721858,
,,,,158,0,158,0,,,,,,,,,,,,,,,,,,,,,,,,1412.0524732460326,None,,,,,,,,,,,,,,,,,sight,new_sing,blue,158,115,286,1409.018085718475,None,1409.018085718475,None,1,2.338001063646516,1409.018085718475,None,1411.4022513458622,None,1411.9191026960907,None,1411.9191026960907,None,n,0.09300991165218875,1411.9191026960907,None,,,color2,001,2019_Nov_21_1412,ProdSingRedo,3.2.4,59.98306137721858,
,,,,159,0,159,0,,,,,,,,,,,,,,,,,,,,,,,,1415.0367054279195,None,,,,,,,,,,,,,,,,,individual,new_silent,red,159,173,160,1412.5706438681227,None,1412.5706438681227,None,4,1.745331388519844,1412.5706438681227,None,1414.3578094239929,None,1414.8698511231923,None,1414.8698511231923,None,f,0.13401090374100022,1414.8698511231923,None,,,color2,001,2019_Nov_21_1412,ProdSingRedo,3.2.4,59.98306137721858,
,,,,160,0,160,0,,,,,,,,,,,,,,,,,,,,,,,,1417.8906683751266,None,,,,,,,,,,,,,,,,,order,new_silent,red,160,156,207,1415.553416516108,None,1415.553416516108,None,4,1.6505077113106381,1415.553416516108,None,1417.237554775289,None,1417.754232586216,None,1417.754232586216,None,f,0.11348692700266838,1417.754232586216,None,,,color2,001,2019_Nov_21_1412,ProdSingRedo,3.2.4,59.98306137721858,
,,,,161,0,161,0,,,,,,,,,,,,,,,,,,,,,,,,1420.5717693855695,None,,,,,,,,,,,,,,,,,south,new_sing,blue,161,99,296,1418.4211108381278,None,1418.4211108381278,None,1,1.2388326838554349,1418.4211108381278,None,1419.7056670844613,None,1420.2216796613939,None,1420.2216796613939,None,n,0.30184020078741014,1420.2216796613939,None,,,color2,001,2019_Nov_21_1412,ProdSingRedo,3.2.4,59.98306137721858,
,,,,162,0,162,0,,,,,,,,,,,,,,,,,,,,,,,,1426.1234781878593,None,,,,,,,,,,,,,,,,,resistance,new_aloud,yellow,162,120,262,1421.0886098507035,None,1421.0886098507035,None,3,4.107025231613079,1421.0886098507035,None,1425.24282377676,None,1425.7565986919217,None,1425.7565986919217,None,f,0.3187954257882666,1425.7565986919217,None,,,color2,001,2019_Nov_21_1412,ProdSingRedo,3.2.4,59.98306137721858,
,,,,163,0,163,0,,,,,,,,,,,,,,,,,,,,,,,,1428.3241095225967,None,,,,,,,,,,,,,,,,,account,aloud,yellow,163,55,1,1426.6403027918714,None,1426.6403027918714,None,3,0.5392195707536303,1426.6403027918714,None,1427.2252636522462,None,1427.7406464494416,None,1427.7406464494416,None,r,0.5425255255249795,1427.7406464494416,None,,,color2,001,2019_Nov_21_1412,ProdSingRedo,3.2.4,59.98306137721858,
,,,,164,0,164,0,,,,,,,,,,,,,,,,,,,,,,,,1430.824892004457,None,,,,,,,,,,,,,,,,,number,new_silent,red,164,152,203,1428.8409173324762,None,1428.8409173324762,None,3,1.1141331898688804,1428.8409173324762,None,1429.993649954442,None,1430.5081516820646,None,1430.5081516820646,None,f,0.27882291839341633,1430.5081516820646,None,,,color2,001,2019_Nov_21_1412,ProdSingRedo,3.2.4,59.98306137721858,
,,,,165,0,165,0,,,,,,,,,,,,,,,,,,,,,,,,1432.8270914129098,None,,,,,,,,,,,,,,,,,broke,silent,red,165,81,32,1431.3416413459054,None,1431.3416413459054,None,3,0.5812627316627186,1431.3416413459054,None,1431.9750731633103,None,1432.4752781138523,None,1432.4752781138523,None,n,0.31950948713347316,1432.4752781138523,None,,,color2,001,2019_Nov_21_1412,ProdSingRedo,3.2.4,59.98306137721858,
,,,,166,0,166,0,,,,,,,,,,,,,,,,,,,,,,,,1436.626632995496,None,,,,,,,,,,,,,,,,,space,aloud,yellow,166,46,297,1433.3590238881006,None,1433.3590238881006,None,5,2.5316351569490507,1433.3590238881006,None,1435.9281889401318,None,1436.443308318383,None,1436.443308318383,None,f,0.14330178732052445,1436.443308318383,None,,,color2,001,2019_Nov_21_1412,ProdSingRedo,3.2.4,59.98306137721858,
,,,,167,0,167,0,,,,,,,,,,,,,,,,,,,,,,,,1440.8815569398575,None,,,,,,,,,,,,,,,,,hunger,sing,blue,167,22,155,1437.143522909988,None,1437.143522909988,None,6,3.0988387172983494,1437.143522909988,None,1440.2776034782582,None,1440.7945372441027,None,1440.7945372441027,None,r,0.06378035774105228,1440.7945372441027,None,,,color2,001,2019_Nov_21_1412,ProdSingRedo,3.2.4,59.98306137721858,
,,,,168,0,168,0,,,,,,,,,,,,,,,,,,,,,,,,1444.3457307155186,None,,,,,,,,,,,,,,,,,owner,aloud,yellow,168,58,208,1441.4113798862381,None,1441.4113798862381,None,4,2.191038778895745,1441.4113798862381,None,1443.6466099191166,None,1444.1623304648674,None,1444.1623304648674,None,f,0.14380530008929782,1444.1623304648674,None,,,color2,001,2019_Nov_21_1412,ProdSingRedo,3.2.4,59.98306137721858,
,,,,169,0,169,0,,,,,,,,,,,,,,,,,,,,,,,,1446.929831343441,None,,,,,,,,,,,,,,,,,running,silent,red,169,63,268,1444.862412880495,None,1444.862412880495,None,2,1.3956385033379775,1444.862412880495,None,1446.2986689100508,None,1446.8131258533103,None,1446.8131258533103,None,f,0.06887488689972088,1446.8131258533103,None,,,color2,001,2019_Nov_21_1412,ProdSingRedo,3.2.4,59.98306137721858,
,,,,170,0,170,0,,,,,,,,,,,,,,,,,,,,,,,,1449.4972964567714,None,,,,,,,,,,,,,,,,,collection,new_silent,red,170,178,54,1447.4465352785483,None,1447.4465352785483,None,1,1.3397383226256352,1447.4465352785483,None,1448.8303155740723,None,1449.3472617799998,None,1449.3472617799998,None,n,0.11057407921180129,1449.3472617799998,None,,,color2,001,2019_Nov_21_1412,ProdSingRedo,3.2.4,59.98306137721858,
,,,,171,0,171,0,,,,,,,,,,,,,,,,,,,,,,,,1452.0314093692577,None,,,,,,,,,,,,,,,,,portion,aloud,yellow,171,43,228,1450.014116706734,None,1450.014116706734,None,4,1.1715622580086347,1450.014116706734,None,1451.233684662322,None,1451.7480007215345,None,1451.7480007215345,None,f,0.23759676059125923,1451.7480007215345,None,,,color2,001,2019_Nov_21_1412,ProdSingRedo,3.2.4,59.98306137721858,
,,,,172,0,172,0,,,,,,,,,,,,,,,,,,,,,,,,1454.498815392144,None,,,,,,,,,,,,,,,,,literature,sing,blue,172,8,173,1452.5481049073278,None,1452.5481049073278,None,4,1.317637253087014,1452.5481049073278,None,1453.8984387683158,None,1454.4154328686127,None,1454.4154328686127,None,f,0.04227330262074247,1454.4154328686127,None,,,color2,001,2019_Nov_21_1412,ProdSingRedo,3.2.4,59.98306137721858,
,,,,173,0,173,0,,,,,,,,,,,,,,,,,,,,,,,,1456.2993982105108,None,,,,,,,,,,,,,,,,,report,sing,blue,173,0,259,1455.0156658093329,None,1455.0156658093329,None,4,0.5936972268100362,1455.0156658093329,None,1455.652675086545,None,1456.1660752439057,None,1456.1660752439057,None,f,0.0994174926308915,1456.1660752439057,None,,,color2,001,2019_Nov_21_1412,ProdSingRedo,3.2.4,59.98306137721858,
,,,,174,0,174,0,,,,,,,,,,,,,,,,,,,,,,,,1458.0999713877973,None,,,,,,,,,,,,,,,,,smooth,sing,blue,174,29,292,1456.8161960683065,None,1456.8161960683065,None,4,0.4894414709415287,1456.8161960683065,None,1457.3495712832955,None,1457.8665414364077,None,1457.8665414364077,None,f,0.1986897471942939,1457.8665414364077,None,,,color2,001,2019_Nov_21_1412,ProdSingRedo,3.2.4,59.98306137721858,
,,,,175,0,175,0,,,,,,,,,,,,,,,,,,,,,,,,1460.3672906410065,None,,,,,,,,,,,,,,,,,attack,new_silent,red,175,160,13,1458.616737523378,None,1458.616737523378,None,4,0.848445454845205,1458.616737523378,None,1459.5046177626064,None,1460.0170821139473,None,1460.0170821139473,None,f,0.3039960689493455,1460.0170821139473,None,,,color2,001,2019_Nov_21_1412,ProdSingRedo,3.2.4,59.98306137721858,
,,,,176,0,176,0,,,,,,,,,,,,,,,,,,,,,,,,1463.0846902883495,None,,,,,,,,,,,,,,,,,health,new_sing,blue,176,111,149,1460.8839802700095,None,1460.8839802700095,None,4,1.1734295159694739,1460.8839802700095,None,1462.1041789383162,None,1462.6179942837916,None,1462.6179942837916,None,f,0.4231883336615283,1462.6179942837916,None,,,color2,001,2019_Nov_21_1412,ProdSingRedo,3.2.4,59.98306137721858,
,,,,177,0,177,0,,,,,,,,,,,,,,,,,,,,,,,,1465.3021446720813,None,,,,,,,,,,,,,,,,,piece,aloud,yellow,177,57,221,1463.601619389141,None,1463.601619389141,None,4,0.5192305180244148,1463.601619389141,None,1464.1690369191056,None,1464.685297364893,None,1464.685297364893,None,f,0.5795683909673244,1464.685297364893,None,,,color2,001,2019_Nov_21_1412,ProdSingRedo,3.2.4,59.98306137721858,
,,,,178,0,178,0,,,,,,,,,,,,,,,,,,,,,,,,1467.3694343800598,None,,,,,,,,,,,,,,,,,death,new_aloud,yellow,178,124,86,1465.8189845152083,None,1465.8189845152083,None,4,0.845795092987828,1465.8189845152083,None,1466.7032369122608,None,1467.219418985449,None,1467.219418985449,None,f,0.11725067722727545,1467.219418985449,None,,,color2,001,2019_Nov_21_1412,ProdSingRedo,3.2.4,59.98306137721858,
,,,,179,0,179,0,,,,,,,,,,,,,,,,,,,,,,,,1470.0035926989221,None,,,,,,,,,,,,,,,,,orchestra,new_aloud,yellow,179,145,206,1467.8862689361558,None,1467.8862689361558,None,4,1.2664475136843976,1467.8862689361558,None,1469.18977486543,None,1469.7035043742508,None,1469.7035043742508,None,f,0.2572489978047088,1469.7035043742508,None,,,color2,001,2019_Nov_21_1412,ProdSingRedo,3.2.4,59.98306137721858,
,,,,,,,,,,,,,,,,,,,,,,,,,,,,,,,,,,,,,,,,,,,,,,,,,,,,,,,,,,,,,,,,,,,,,,,,,1470.5037615731708,None,,,,,,,
