StudyLoop.thisRepN,StudyLoop.thisTrialN,StudyLoop.thisN,StudyLoop.thisIndex,TestLoop.thisRepN,TestLoop.thisTrialN,TestLoop.thisN,TestLoop.thisIndex,textCondition.started,textCondition.stopped,keyCondition.keys,keyCondition.rt,keyCondition.started,keyCondition.stopped,Condition,stim_colors,color_sing,color_aloud,color_silent,textWelcome.started,textWelcome.stopped,keyWelcome.keys,keyWelcome.rt,keyWelcome.started,keyWelcome.stopped,textAloud.started,textAloud.stopped,textSilent.started,textSilent.stopped,textSing.started,textSing.stopped,textBlank500.started,textBlank500.stopped,study_word,study_type,study_color,study_num,study_word_num,textStudy.started,textStudy.stopped,keyStudy.keys,keyStudy.started,keyStudy.stopped,textTestInstructions.started,textTestInstructions.stopped,key_resp_3.keys,key_resp_3.rt,key_resp_3.started,key_resp_3.stopped,testWord,testType,testColor,testN,test_num,test_word_num,textConf.started,textConf.stopped,textConfScale.started,textConfScale.stopped,keyConf.keys,keyConf.rt,keyConf.started,keyConf.stopped,textTestBlank.started,textTestBlank.stopped,textRKN.started,textRKN.stopped,textRKNScale.started,textRKNScale.stopped,keyRKN.keys,keyRKN.rt,keyRKN.started,keyRKN.stopped,textEnd.started,textEnd.stopped,participant,session,date,expName,psychopyVersion,frameRate,
,,,,,,,,23.35418689996004,None,y,2.5887544001452625,23.35418689996004,None,,,,,,,,,,,,,,,,,,,,,,,,,,,,,,,,,,,,,,,,,,,,,,,,,,,,,,,,,,,,,,color17,001,2021_Nov_01_1522,ProdSingRedo,3.2.3,59.96753356746996,
,,,,,,,,,,,,,,ColoredTest,"['yellow', 'red', 'blue']",yellow,red,blue,25.998834100086242,None,space,525.4566492999438,25.998834100086242,None,,,,,,,,,,,,,,,,,,,,,,,,,,,,,,,,,,,,,,,,,,,,,,,,,,,color17,001,2021_Nov_01_1522,ProdSingRedo,3.2.3,59.96753356746996,
0,0,0,0,,,,,,,,,,,,,,,,,,,,,,25.998834100086242,None,25.998834100086242,None,25.998834100086242,None,554.0008411000017,None,goose,silent,blue,72,138,551.9945745998994,None,None,551.9945745998994,None,,,,,,,,,,,,,,,,,,,,,,,,,,,,,,,,,color17,001,2021_Nov_01_1522,ProdSingRedo,3.2.3,59.96753356746996,
1,0,1,0,,,,,,,,,,,,,,,,,,,,,,,,,,,,556.5203110000584,None,space,silent,blue,80,297,554.5126916000154,None,None,554.5126916000154,None,,,,,,,,,,,,,,,,,,,,,,,,,,,,,,,,,color17,001,2021_Nov_01_1522,ProdSingRedo,3.2.3,59.96753356746996,
2,0,2,0,,,,,,,,,,,,,,,,,,,,,,,,,,,,559.0392125998624,None,break,aloud,red,36,26,557.0244042999111,None,None,557.0244042999111,None,,,,,,,,,,,,,,,,,,,,,,,,,,,,,,,,,color17,001,2021_Nov_01_1522,ProdSingRedo,3.2.3,59.96753356746996,
3,0,3,0,,,,,,,,,,,,,,,,,,,,,,,,,,,,561.5584555999376,None,alert,aloud,red,42,6,559.5541278000455,None,None,559.5541278000455,None,,,,,,,,,,,,,,,,,,,,,,,,,,,,,,,,,color17,001,2021_Nov_01_1522,ProdSingRedo,3.2.3,59.96753356746996,
4,0,4,0,,,,,,,,,,,,,,,,,,,,,,,,,,,,564.0775675999466,None,group,aloud,red,39,143,562.0711904999334,None,None,562.0711904999334,None,,,,,,,,,,,,,,,,,,,,,,,,,,,,,,,,,color17,001,2021_Nov_01_1522,ProdSingRedo,3.2.3,59.96753356746996,
5,0,5,0,,,,,,,,,,,,,,,,,,,,,,,,,,,,566.5967886000872,None,drink,sing,yellow,11,105,564.588263399899,None,None,564.588263399899,None,,,,,,,,,,,,,,,,,,,,,,,,,,,,,,,,,color17,001,2021_Nov_01_1522,ProdSingRedo,3.2.3,59.96753356746996,
6,0,6,0,,,,,,,,,,,,,,,,,,,,,,,,,,,,569.1159409999382,None,command,silent,blue,65,60,567.1100075999275,None,None,567.1100075999275,None,,,,,,,,,,,,,,,,,,,,,,,,,,,,,,,,,color17,001,2021_Nov_01_1522,ProdSingRedo,3.2.3,59.96753356746996,
7,0,7,0,,,,,,,,,,,,,,,,,,,,,,,,,,,,571.6352580999956,None,pancakes,sing,yellow,22,210,569.6348230000585,None,None,569.6348230000585,None,,,,,,,,,,,,,,,,,,,,,,,,,,,,,,,,,color17,001,2021_Nov_01_1522,ProdSingRedo,3.2.3,59.96753356746996,
8,0,8,0,,,,,,,,,,,,,,,,,,,,,,,,,,,,574.1543660999741,None,brilliant,aloud,red,58,30,572.147891700035,None,None,572.147891700035,None,,,,,,,,,,,,,,,,,,,,,,,,,,,,,,,,,color17,001,2021_Nov_01_1522,ProdSingRedo,3.2.3,59.96753356746996,
9,0,9,0,,,,,,,,,,,,,,,,,,,,,,,,,,,,576.6735056999605,None,prime,sing,yellow,19,235,574.6618913998827,None,None,574.6618913998827,None,,,,,,,,,,,,,,,,,,,,,,,,,,,,,,,,,color17,001,2021_Nov_01_1522,ProdSingRedo,3.2.3,59.96753356746996,
10,0,10,0,,,,,,,,,,,,,,,,,,,,,,,,,,,,579.1926790000871,None,trend,silent,blue,63,340,577.1815732999239,None,None,577.1815732999239,None,,,,,,,,,,,,,,,,,,,,,,,,,,,,,,,,,color17,001,2021_Nov_01_1522,ProdSingRedo,3.2.3,59.96753356746996,
11,0,11,0,,,,,,,,,,,,,,,,,,,,,,,,,,,,581.7119183000177,None,order,sing,yellow,26,207,579.6983908000402,None,None,579.6983908000402,None,,,,,,,,,,,,,,,,,,,,,,,,,,,,,,,,,color17,001,2021_Nov_01_1522,ProdSingRedo,3.2.3,59.96753356746996,
12,0,12,0,,,,,,,,,,,,,,,,,,,,,,,,,,,,584.231080000056,None,government,silent,blue,77,139,582.2379582000431,None,None,582.2379582000431,None,,,,,,,,,,,,,,,,,,,,,,,,,,,,,,,,,color17,001,2021_Nov_01_1522,ProdSingRedo,3.2.3,59.96753356746996,
13,0,13,0,,,,,,,,,,,,,,,,,,,,,,,,,,,,586.7499655000865,None,addition,aloud,red,43,2,584.7449141999241,None,None,584.7449141999241,None,,,,,,,,,,,,,,,,,,,,,,,,,,,,,,,,,color17,001,2021_Nov_01_1522,ProdSingRedo,3.2.3,59.96753356746996,
14,0,14,0,,,,,,,,,,,,,,,,,,,,,,,,,,,,589.2694659999106,None,plane,sing,yellow,3,223,587.2627127000596,None,None,587.2627127000596,None,,,,,,,,,,,,,,,,,,,,,,,,,,,,,,,,,color17,001,2021_Nov_01_1522,ProdSingRedo,3.2.3,59.96753356746996,
15,0,15,0,,,,,,,,,,,,,,,,,,,,,,,,,,,,591.788613999961,None,population,silent,blue,61,227,589.7806152000558,None,None,589.7806152000558,None,,,,,,,,,,,,,,,,,,,,,,,,,,,,,,,,,color17,001,2021_Nov_01_1522,ProdSingRedo,3.2.3,59.96753356746996,
16,0,16,0,,,,,,,,,,,,,,,,,,,,,,,,,,,,594.3079017000273,None,charter,sing,yellow,21,47,592.2992930000182,None,None,592.2992930000182,None,,,,,,,,,,,,,,,,,,,,,,,,,,,,,,,,,color17,001,2021_Nov_01_1522,ProdSingRedo,3.2.3,59.96753356746996,
17,0,17,0,,,,,,,,,,,,,,,,,,,,,,,,,,,,596.8270290999208,None,individual,silent,blue,71,160,594.8281568000093,None,None,594.8281568000093,None,,,,,,,,,,,,,,,,,,,,,,,,,,,,,,,,,color17,001,2021_Nov_01_1522,ProdSingRedo,3.2.3,59.96753356746996,
18,0,18,0,,,,,,,,,,,,,,,,,,,,,,,,,,,,599.346288499888,None,volume,aloud,red,37,349,597.338190499926,None,None,597.338190499926,None,,,,,,,,,,,,,,,,,,,,,,,,,,,,,,,,,color17,001,2021_Nov_01_1522,ProdSingRedo,3.2.3,59.96753356746996,
19,0,19,0,,,,,,,,,,,,,,,,,,,,,,,,,,,,601.8654354999308,None,general,silent,blue,70,135,599.857704800088,None,None,599.857704800088,None,,,,,,,,,,,,,,,,,,,,,,,,,,,,,,,,,color17,001,2021_Nov_01_1522,ProdSingRedo,3.2.3,59.96753356746996,
20,0,20,0,,,,,,,,,,,,,,,,,,,,,,,,,,,,604.3846539000515,None,touch,aloud,red,44,332,602.376214500051,None,None,602.376214500051,None,,,,,,,,,,,,,,,,,,,,,,,,,,,,,,,,,color17,001,2021_Nov_01_1522,ProdSingRedo,3.2.3,59.96753356746996,
21,0,21,0,,,,,,,,,,,,,,,,,,,,,,,,,,,,606.9038249999285,None,object,sing,yellow,24,204,604.9006652999669,None,None,604.9006652999669,None,,,,,,,,,,,,,,,,,,,,,,,,,,,,,,,,,color17,001,2021_Nov_01_1522,ProdSingRedo,3.2.3,59.96753356746996,
22,0,22,0,,,,,,,,,,,,,,,,,,,,,,,,,,,,609.4229440998752,None,agency,sing,yellow,14,4,607.4241291000508,None,None,607.4241291000508,None,,,,,,,,,,,,,,,,,,,,,,,,,,,,,,,,,color17,001,2021_Nov_01_1522,ProdSingRedo,3.2.3,59.96753356746996,
23,0,23,0,,,,,,,,,,,,,,,,,,,,,,,,,,,,611.9420249999966,None,dance,sing,yellow,29,84,609.9336566999555,None,None,609.9336566999555,None,,,,,,,,,,,,,,,,,,,,,,,,,,,,,,,,,color17,001,2021_Nov_01_1522,ProdSingRedo,3.2.3,59.96753356746996,
24,0,24,0,,,,,,,,,,,,,,,,,,,,,,,,,,,,614.4612777999137,None,education,aloud,red,35,108,612.4629858999979,None,None,612.4629858999979,None,,,,,,,,,,,,,,,,,,,,,,,,,,,,,,,,,color17,001,2021_Nov_01_1522,ProdSingRedo,3.2.3,59.96753356746996,
25,0,25,0,,,,,,,,,,,,,,,,,,,,,,,,,,,,616.9803923000582,None,safety,aloud,red,52,270,614.9747029000428,None,None,614.9747029000428,None,,,,,,,,,,,,,,,,,,,,,,,,,,,,,,,,,color17,001,2021_Nov_01_1522,ProdSingRedo,3.2.3,59.96753356746996,
26,0,26,0,,,,,,,,,,,,,,,,,,,,,,,,,,,,619.4997085998766,None,judge,silent,blue,62,166,617.4980395000894,None,None,617.4980395000894,None,,,,,,,,,,,,,,,,,,,,,,,,,,,,,,,,,color17,001,2021_Nov_01_1522,ProdSingRedo,3.2.3,59.96753356746996,
27,0,27,0,,,,,,,,,,,,,,,,,,,,,,,,,,,,622.0188370000105,None,curve,sing,yellow,16,82,620.0162976998836,None,None,620.0162976998836,None,,,,,,,,,,,,,,,,,,,,,,,,,,,,,,,,,color17,001,2021_Nov_01_1522,ProdSingRedo,3.2.3,59.96753356746996,
28,0,28,0,,,,,,,,,,,,,,,,,,,,,,,,,,,,624.5380144999363,None,country,sing,yellow,4,73,622.5342005998828,None,None,622.5342005998828,None,,,,,,,,,,,,,,,,,,,,,,,,,,,,,,,,,color17,001,2021_Nov_01_1522,ProdSingRedo,3.2.3,59.96753356746996,
29,0,29,0,,,,,,,,,,,,,,,,,,,,,,,,,,,,627.0572277000174,None,drove,aloud,red,48,106,625.0503745998722,None,None,625.0503745998722,None,,,,,,,,,,,,,,,,,,,,,,,,,,,,,,,,,color17,001,2021_Nov_01_1522,ProdSingRedo,3.2.3,59.96753356746996,
30,0,30,0,,,,,,,,,,,,,,,,,,,,,,,,,,,,629.5763953998685,None,smooth,aloud,red,47,292,627.5706593000796,None,None,627.5706593000796,None,,,,,,,,,,,,,,,,,,,,,,,,,,,,,,,,,color17,001,2021_Nov_01_1522,ProdSingRedo,3.2.3,59.96753356746996,
31,0,31,0,,,,,,,,,,,,,,,,,,,,,,,,,,,,632.0955717000179,None,cover,sing,yellow,1,77,630.0892338000704,None,None,630.0892338000704,None,,,,,,,,,,,,,,,,,,,,,,,,,,,,,,,,,color17,001,2021_Nov_01_1522,ProdSingRedo,3.2.3,59.96753356746996,
32,0,32,0,,,,,,,,,,,,,,,,,,,,,,,,,,,,634.6147568000015,None,grade,sing,yellow,0,140,632.6120617999695,None,None,632.6120617999695,None,,,,,,,,,,,,,,,,,,,,,,,,,,,,,,,,,color17,001,2021_Nov_01_1522,ProdSingRedo,3.2.3,59.96753356746996,
33,0,33,0,,,,,,,,,,,,,,,,,,,,,,,,,,,,637.1340236000251,None,direction,aloud,red,59,94,635.1228380000684,None,None,635.1228380000684,None,,,,,,,,,,,,,,,,,,,,,,,,,,,,,,,,,color17,001,2021_Nov_01_1522,ProdSingRedo,3.2.3,59.96753356746996,
34,0,34,0,,,,,,,,,,,,,,,,,,,,,,,,,,,,639.6531589999795,None,minute,sing,yellow,12,192,637.6445524999872,None,None,637.6445524999872,None,,,,,,,,,,,,,,,,,,,,,,,,,,,,,,,,,color17,001,2021_Nov_01_1522,ProdSingRedo,3.2.3,59.96753356746996,
35,0,35,0,,,,,,,,,,,,,,,,,,,,,,,,,,,,642.1722784000449,None,suggestion,silent,blue,84,314,640.1669335998595,None,None,640.1669335998595,None,,,,,,,,,,,,,,,,,,,,,,,,,,,,,,,,,color17,001,2021_Nov_01_1522,ProdSingRedo,3.2.3,59.96753356746996,
36,0,36,0,,,,,,,,,,,,,,,,,,,,,,,,,,,,644.6915432999376,None,institute,aloud,red,49,162,642.6871726000682,None,None,642.6871726000682,None,,,,,,,,,,,,,,,,,,,,,,,,,,,,,,,,,color17,001,2021_Nov_01_1522,ProdSingRedo,3.2.3,59.96753356746996,
37,0,37,0,,,,,,,,,,,,,,,,,,,,,,,,,,,,647.2105272999033,None,course,silent,blue,78,74,645.2056823999155,None,None,645.2056823999155,None,,,,,,,,,,,,,,,,,,,,,,,,,,,,,,,,,color17,001,2021_Nov_01_1522,ProdSingRedo,3.2.3,59.96753356746996,
38,0,38,0,,,,,,,,,,,,,,,,,,,,,,,,,,,,649.7298614999745,None,appeal,silent,blue,85,9,647.7321095999796,None,None,647.7321095999796,None,,,,,,,,,,,,,,,,,,,,,,,,,,,,,,,,,color17,001,2021_Nov_01_1522,ProdSingRedo,3.2.3,59.96753356746996,
39,0,39,0,,,,,,,,,,,,,,,,,,,,,,,,,,,,652.2490616000723,None,whole,sing,yellow,23,355,650.2407887999434,None,None,650.2407887999434,None,,,,,,,,,,,,,,,,,,,,,,,,,,,,,,,,,color17,001,2021_Nov_01_1522,ProdSingRedo,3.2.3,59.96753356746996,
40,0,40,0,,,,,,,,,,,,,,,,,,,,,,,,,,,,654.7682403000072,None,vision,silent,blue,69,347,652.7607257000636,None,None,652.7607257000636,None,,,,,,,,,,,,,,,,,,,,,,,,,,,,,,,,,color17,001,2021_Nov_01_1522,ProdSingRedo,3.2.3,59.96753356746996,
41,0,41,0,,,,,,,,,,,,,,,,,,,,,,,,,,,,657.2874304999132,None,century,aloud,red,40,45,655.28451830009,None,None,655.28451830009,None,,,,,,,,,,,,,,,,,,,,,,,,,,,,,,,,,color17,001,2021_Nov_01_1522,ProdSingRedo,3.2.3,59.96753356746996,
42,0,42,0,,,,,,,,,,,,,,,,,,,,,,,,,,,,659.8066195999272,None,narrow,sing,yellow,20,197,657.7969356998801,None,None,657.7969356998801,None,,,,,,,,,,,,,,,,,,,,,,,,,,,,,,,,,color17,001,2021_Nov_01_1522,ProdSingRedo,3.2.3,59.96753356746996,
43,0,43,0,,,,,,,,,,,,,,,,,,,,,,,,,,,,662.3257782000583,None,nation,silent,blue,86,198,660.3211594000459,None,None,660.3211594000459,None,,,,,,,,,,,,,,,,,,,,,,,,,,,,,,,,,color17,001,2021_Nov_01_1522,ProdSingRedo,3.2.3,59.96753356746996,
44,0,44,0,,,,,,,,,,,,,,,,,,,,,,,,,,,,664.844993900042,None,trial,silent,blue,68,341,662.8375893998891,None,None,662.8375893998891,None,,,,,,,,,,,,,,,,,,,,,,,,,,,,,,,,,color17,001,2021_Nov_01_1522,ProdSingRedo,3.2.3,59.96753356746996,
45,0,45,0,,,,,,,,,,,,,,,,,,,,,,,,,,,,667.3641808000393,None,relation,sing,yellow,2,257,665.3593377999496,None,None,665.3593377999496,None,,,,,,,,,,,,,,,,,,,,,,,,,,,,,,,,,color17,001,2021_Nov_01_1522,ProdSingRedo,3.2.3,59.96753356746996,
46,0,46,0,,,,,,,,,,,,,,,,,,,,,,,,,,,,669.8833453999832,None,science,silent,blue,81,275,667.8722890999634,None,None,667.8722890999634,None,,,,,,,,,,,,,,,,,,,,,,,,,,,,,,,,,color17,001,2021_Nov_01_1522,ProdSingRedo,3.2.3,59.96753356746996,
47,0,47,0,,,,,,,,,,,,,,,,,,,,,,,,,,,,672.402541300049,None,present,silent,blue,74,231,670.3903892999515,None,None,670.3903892999515,None,,,,,,,,,,,,,,,,,,,,,,,,,,,,,,,,,color17,001,2021_Nov_01_1522,ProdSingRedo,3.2.3,59.96753356746996,
48,0,48,0,,,,,,,,,,,,,,,,,,,,,,,,,,,,674.921751699876,None,threat,silent,blue,89,329,672.9131688000634,None,None,672.9131688000634,None,,,,,,,,,,,,,,,,,,,,,,,,,,,,,,,,,color17,001,2021_Nov_01_1522,ProdSingRedo,3.2.3,59.96753356746996,
49,0,49,0,,,,,,,,,,,,,,,,,,,,,,,,,,,,677.4405509000644,None,watch,silent,blue,87,351,675.4338618998881,None,None,675.4338618998881,None,,,,,,,,,,,,,,,,,,,,,,,,,,,,,,,,,color17,001,2021_Nov_01_1522,ProdSingRedo,3.2.3,59.96753356746996,
50,0,50,0,,,,,,,,,,,,,,,,,,,,,,,,,,,,679.9600903999526,None,murder,sing,yellow,18,195,677.9534704000689,None,None,677.9534704000689,None,,,,,,,,,,,,,,,,,,,,,,,,,,,,,,,,,color17,001,2021_Nov_01_1522,ProdSingRedo,3.2.3,59.96753356746996,
51,0,51,0,,,,,,,,,,,,,,,,,,,,,,,,,,,,682.479249099968,None,testimony,sing,yellow,15,325,680.4709572000429,None,None,680.4709572000429,None,,,,,,,,,,,,,,,,,,,,,,,,,,,,,,,,,color17,001,2021_Nov_01_1522,ProdSingRedo,3.2.3,59.96753356746996,
52,0,52,0,,,,,,,,,,,,,,,,,,,,,,,,,,,,684.9985088999383,None,region,aloud,red,57,256,682.9910639999434,None,None,682.9910639999434,None,,,,,,,,,,,,,,,,,,,,,,,,,,,,,,,,,color17,001,2021_Nov_01_1522,ProdSingRedo,3.2.3,59.96753356746996,
53,0,53,0,,,,,,,,,,,,,,,,,,,,,,,,,,,,687.5176997000817,None,session,aloud,red,38,281,685.5049959998578,None,None,685.5049959998578,None,,,,,,,,,,,,,,,,,,,,,,,,,,,,,,,,,color17,001,2021_Nov_01_1522,ProdSingRedo,3.2.3,59.96753356746996,
54,0,54,0,,,,,,,,,,,,,,,,,,,,,,,,,,,,690.0366573999636,None,drama,aloud,red,31,103,688.0282572999131,None,None,688.0282572999131,None,,,,,,,,,,,,,,,,,,,,,,,,,,,,,,,,,color17,001,2021_Nov_01_1522,ProdSingRedo,3.2.3,59.96753356746996,
55,0,55,0,,,,,,,,,,,,,,,,,,,,,,,,,,,,692.5560242999345,None,brief,silent,blue,60,28,690.5483999999706,None,None,690.5483999999706,None,,,,,,,,,,,,,,,,,,,,,,,,,,,,,,,,,color17,001,2021_Nov_01_1522,ProdSingRedo,3.2.3,59.96753356746996,
56,0,56,0,,,,,,,,,,,,,,,,,,,,,,,,,,,,695.0752290999517,None,committee,aloud,red,51,62,693.0630198998842,None,None,693.0630198998842,None,,,,,,,,,,,,,,,,,,,,,,,,,,,,,,,,,color17,001,2021_Nov_01_1522,ProdSingRedo,3.2.3,59.96753356746996,
57,0,57,0,,,,,,,,,,,,,,,,,,,,,,,,,,,,697.5944041998591,None,under,sing,yellow,8,343,695.5869592998642,None,None,695.5869592998642,None,,,,,,,,,,,,,,,,,,,,,,,,,,,,,,,,,color17,001,2021_Nov_01_1522,ProdSingRedo,3.2.3,59.96753356746996,
58,0,58,0,,,,,,,,,,,,,,,,,,,,,,,,,,,,700.1135094999336,None,fight,silent,blue,76,127,698.108526899945,None,None,698.108526899945,None,,,,,,,,,,,,,,,,,,,,,,,,,,,,,,,,,color17,001,2021_Nov_01_1522,ProdSingRedo,3.2.3,59.96753356746996,
59,0,59,0,,,,,,,,,,,,,,,,,,,,,,,,,,,,702.632759100059,None,religion,sing,yellow,17,258,700.6262737000361,None,None,700.6262737000361,None,,,,,,,,,,,,,,,,,,,,,,,,,,,,,,,,,color17,001,2021_Nov_01_1522,ProdSingRedo,3.2.3,59.96753356746996,
60,0,60,0,,,,,,,,,,,,,,,,,,,,,,,,,,,,705.1519414000213,None,author,silent,blue,79,15,703.1420724000782,None,None,703.1420724000782,None,,,,,,,,,,,,,,,,,,,,,,,,,,,,,,,,,color17,001,2021_Nov_01_1522,ProdSingRedo,3.2.3,59.96753356746996,
61,0,61,0,,,,,,,,,,,,,,,,,,,,,,,,,,,,707.6544603998773,None,title,silent,blue,64,331,705.6520722999703,None,None,705.6520722999703,None,,,,,,,,,,,,,,,,,,,,,,,,,,,,,,,,,color17,001,2021_Nov_01_1522,ProdSingRedo,3.2.3,59.96753356746996,
62,0,62,0,,,,,,,,,,,,,,,,,,,,,,,,,,,,710.1733061999548,None,department,silent,blue,83,90,708.1701153998729,None,None,708.1701153998729,None,,,,,,,,,,,,,,,,,,,,,,,,,,,,,,,,,color17,001,2021_Nov_01_1522,ProdSingRedo,3.2.3,59.96753356746996,
63,0,63,0,,,,,,,,,,,,,,,,,,,,,,,,,,,,712.6928568999283,None,industry,aloud,red,34,161,710.6934471998829,None,None,710.6934471998829,None,,,,,,,,,,,,,,,,,,,,,,,,,,,,,,,,,color17,001,2021_Nov_01_1522,ProdSingRedo,3.2.3,59.96753356746996,
64,0,64,0,,,,,,,,,,,,,,,,,,,,,,,,,,,,715.2120205999818,None,disease,aloud,red,54,97,713.2070609999355,None,None,713.2070609999355,None,,,,,,,,,,,,,,,,,,,,,,,,,,,,,,,,,color17,001,2021_Nov_01_1522,ProdSingRedo,3.2.3,59.96753356746996,
65,0,65,0,,,,,,,,,,,,,,,,,,,,,,,,,,,,717.7311845999211,None,close,silent,blue,66,53,715.7179960000794,None,None,715.7179960000794,None,,,,,,,,,,,,,,,,,,,,,,,,,,,,,,,,,color17,001,2021_Nov_01_1522,ProdSingRedo,3.2.3,59.96753356746996,
66,0,66,0,,,,,,,,,,,,,,,,,,,,,,,,,,,,720.250180499861,None,engineer,silent,blue,82,114,718.2428615000099,None,None,718.2428615000099,None,,,,,,,,,,,,,,,,,,,,,,,,,,,,,,,,,color17,001,2021_Nov_01_1522,ProdSingRedo,3.2.3,59.96753356746996,
67,0,67,0,,,,,,,,,,,,,,,,,,,,,,,,,,,,722.7696122999769,None,broke,aloud,red,53,32,720.7603235999122,None,None,720.7603235999122,None,,,,,,,,,,,,,,,,,,,,,,,,,,,,,,,,,color17,001,2021_Nov_01_1522,ProdSingRedo,3.2.3,59.96753356746996,
68,0,68,0,,,,,,,,,,,,,,,,,,,,,,,,,,,,725.2887359000742,None,revolution,sing,yellow,10,264,723.2731987999287,None,None,723.2731987999287,None,,,,,,,,,,,,,,,,,,,,,,,,,,,,,,,,,color17,001,2021_Nov_01_1522,ProdSingRedo,3.2.3,59.96753356746996,
69,0,69,0,,,,,,,,,,,,,,,,,,,,,,,,,,,,727.8079840999562,None,second,aloud,red,32,278,725.7992876998615,None,None,725.7992876998615,None,,,,,,,,,,,,,,,,,,,,,,,,,,,,,,,,,color17,001,2021_Nov_01_1522,ProdSingRedo,3.2.3,59.96753356746996,
70,0,70,0,,,,,,,,,,,,,,,,,,,,,,,,,,,,730.327102100011,None,crime,silent,blue,67,78,728.3139722000342,None,None,728.3139722000342,None,,,,,,,,,,,,,,,,,,,,,,,,,,,,,,,,,color17,001,2021_Nov_01_1522,ProdSingRedo,3.2.3,59.96753356746996,
71,0,71,0,,,,,,,,,,,,,,,,,,,,,,,,,,,,732.8463023998775,None,question,aloud,red,45,247,730.847505700076,None,None,730.847505700076,None,,,,,,,,,,,,,,,,,,,,,,,,,,,,,,,,,color17,001,2021_Nov_01_1522,ProdSingRedo,3.2.3,59.96753356746996,
72,0,72,0,,,,,,,,,,,,,,,,,,,,,,,,,,,,735.3658729000017,None,beauty,aloud,red,55,18,733.3617217999417,None,None,733.3617217999417,None,,,,,,,,,,,,,,,,,,,,,,,,,,,,,,,,,color17,001,2021_Nov_01_1522,ProdSingRedo,3.2.3,59.96753356746996,
73,0,73,0,,,,,,,,,,,,,,,,,,,,,,,,,,,,737.8679841998965,None,straight,aloud,red,50,307,735.865732499864,None,None,735.865732499864,None,,,,,,,,,,,,,,,,,,,,,,,,,,,,,,,,,color17,001,2021_Nov_01_1522,ProdSingRedo,3.2.3,59.96753356746996,
74,0,74,0,,,,,,,,,,,,,,,,,,,,,,,,,,,,740.3872797000222,None,finish,sing,yellow,9,130,738.3892166998703,None,None,738.3892166998703,None,,,,,,,,,,,,,,,,,,,,,,,,,,,,,,,,,color17,001,2021_Nov_01_1522,ProdSingRedo,3.2.3,59.96753356746996,
75,0,75,0,,,,,,,,,,,,,,,,,,,,,,,,,,,,742.9063506000675,None,colonel,sing,yellow,13,55,740.8987099998631,None,None,740.8987099998631,None,,,,,,,,,,,,,,,,,,,,,,,,,,,,,,,,,color17,001,2021_Nov_01_1522,ProdSingRedo,3.2.3,59.96753356746996,
76,0,76,0,,,,,,,,,,,,,,,,,,,,,,,,,,,,745.4255909000058,None,junior,silent,blue,88,167,743.422212400008,None,None,743.422212400008,None,,,,,,,,,,,,,,,,,,,,,,,,,,,,,,,,,color17,001,2021_Nov_01_1522,ProdSingRedo,3.2.3,59.96753356746996,
77,0,77,0,,,,,,,,,,,,,,,,,,,,,,,,,,,,747.9446737000253,None,resistance,aloud,red,56,262,745.9410564999562,None,None,745.9410564999562,None,,,,,,,,,,,,,,,,,,,,,,,,,,,,,,,,,color17,001,2021_Nov_01_1522,ProdSingRedo,3.2.3,59.96753356746996,
78,0,78,0,,,,,,,,,,,,,,,,,,,,,,,,,,,,750.4639023998752,None,travel,aloud,red,41,338,748.4591719999444,None,None,748.4591719999444,None,,,,,,,,,,,,,,,,,,,,,,,,,,,,,,,,,color17,001,2021_Nov_01_1522,ProdSingRedo,3.2.3,59.96753356746996,
79,0,79,0,,,,,,,,,,,,,,,,,,,,,,,,,,,,752.9830912998877,None,scale,sing,yellow,5,272,750.9739633998834,None,None,750.9739633998834,None,,,,,,,,,,,,,,,,,,,,,,,,,,,,,,,,,color17,001,2021_Nov_01_1522,ProdSingRedo,3.2.3,59.96753356746996,
80,0,80,0,,,,,,,,,,,,,,,,,,,,,,,,,,,,755.5022942998912,None,harmony,aloud,red,33,148,753.4989380000625,None,None,753.4989380000625,None,,,,,,,,,,,,,,,,,,,,,,,,,,,,,,,,,color17,001,2021_Nov_01_1522,ProdSingRedo,3.2.3,59.96753356746996,
81,0,81,0,,,,,,,,,,,,,,,,,,,,,,,,,,,,758.0214646998793,None,broad,aloud,red,46,31,756.0161961000413,None,None,756.0161961000413,None,,,,,,,,,,,,,,,,,,,,,,,,,,,,,,,,,color17,001,2021_Nov_01_1522,ProdSingRedo,3.2.3,59.96753356746996,
82,0,82,0,,,,,,,,,,,,,,,,,,,,,,,,,,,,760.540674299933,None,accident,silent,blue,73,0,758.5333946999162,None,None,758.5333946999162,None,,,,,,,,,,,,,,,,,,,,,,,,,,,,,,,,,color17,001,2021_Nov_01_1522,ProdSingRedo,3.2.3,59.96753356746996,
83,0,83,0,,,,,,,,,,,,,,,,,,,,,,,,,,,,763.0599211000372,None,rough,sing,yellow,6,266,761.0494389999658,None,None,761.0494389999658,None,,,,,,,,,,,,,,,,,,,,,,,,,,,,,,,,,color17,001,2021_Nov_01_1522,ProdSingRedo,3.2.3,59.96753356746996,
84,0,84,0,,,,,,,,,,,,,,,,,,,,,,,,,,,,765.579042499885,None,error,sing,yellow,28,117,763.5659075998701,None,None,763.5659075998701,None,,,,,,,,,,,,,,,,,,,,,,,,,,,,,,,,,color17,001,2021_Nov_01_1522,ProdSingRedo,3.2.3,59.96753356746996,
85,0,85,0,,,,,,,,,,,,,,,,,,,,,,,,,,,,768.0815351998899,None,period,sing,yellow,27,217,766.0796268999111,None,None,766.0796268999111,None,,,,,,,,,,,,,,,,,,,,,,,,,,,,,,,,,color17,001,2021_Nov_01_1522,ProdSingRedo,3.2.3,59.96753356746996,
86,0,86,0,,,,,,,,,,,,,,,,,,,,,,,,,,,,770.6007111000363,None,corner,sing,yellow,25,69,768.5918161999434,None,None,768.5918161999434,None,,,,,,,,,,,,,,,,,,,,,,,,,,,,,,,,,color17,001,2021_Nov_01_1522,ProdSingRedo,3.2.3,59.96753356746996,
87,0,87,0,,,,,,,,,,,,,,,,,,,,,,,,,,,,773.119546999922,None,finance,aloud,red,30,129,771.1145081999712,None,None,771.1145081999712,None,,,,,,,,,,,,,,,,,,,,,,,,,,,,,,,,,color17,001,2021_Nov_01_1522,ProdSingRedo,3.2.3,59.96753356746996,
88,0,88,0,,,,,,,,,,,,,,,,,,,,,,,,,,,,775.6391489999369,None,provision,silent,blue,75,243,773.6326856000815,None,None,773.6326856000815,None,,,,,,,,,,,,,,,,,,,,,,,,,,,,,,,,,color17,001,2021_Nov_01_1522,ProdSingRedo,3.2.3,59.96753356746996,
89,0,89,0,,,,,,,,,,,,,,,,,,,,,,,,,,,,778.1582927999552,None,crisis,sing,yellow,7,79,776.1471343000885,None,None,776.1471343000885,None,,,,,,,,,,,,,,,,,,,,,,,,,,,,,,,,,color17,001,2021_Nov_01_1522,ProdSingRedo,3.2.3,59.96753356746996,
,,,,,,,,,,,,,,,,,,,,,,,,,,,,,,,,,,,,,,,,,,,778.6589613000397,None,k,169.70101129985414,778.6589613000397,None,,,,,,,,,,,,,,,,,,,,,,,,,,,color17,001,2021_Nov_01_1522,ProdSingRedo,3.2.3,59.96753356746996,
,,,,0,0,0,0,,,,,,,,,,,,,,,,,,,,,,,,980.5358042998705,None,,,,,,,,,,,,,,,,,plane,sing,yellow,0,3,223,948.8993094000034,None,948.8993094000034,None,3,13.636475199833512,948.8993094000034,None,962.5867925998755,None,963.0930421999656,None,963.0930421999656,None,n,17.418877199990675,963.0930421999656,None,,,color17,001,2021_Nov_01_1522,ProdSingRedo,3.2.3,59.96753356746996,
,,,,1,0,1,0,,,,,,,,,,,,,,,,,,,,,,,,995.4506792000029,None,,,,,,,,,,,,,,,,,close,silent,blue,1,66,53,981.0568667999469,None,981.0568667999469,None,5,10.126810200046748,981.0568667999469,None,991.2235183999874,None,991.74726069998,None,991.74726069998,None,r,3.668398299952969,991.74726069998,None,,,color17,001,2021_Nov_01_1522,ProdSingRedo,3.2.3,59.96753356746996,
,,,,2,0,2,0,,,,,,,,,,,,,,,,,,,,,,,,1002.9565832000226,None,,,,,,,,,,,,,,,,,threat,silent,blue,2,89,329,995.9672328000888,None,995.9672328000888,None,6,5.152480700053275,995.9672328000888,None,1001.1669447999448,None,1001.6729562000837,None,1001.6729562000837,None,r,1.2467315001413226,1001.6729562000837,None,,,color17,001,2021_Nov_01_1522,ProdSingRedo,3.2.3,59.96753356746996,
,,,,3,0,3,0,,,,,,,,,,,,,,,,,,,,,,,,1009.8952804000583,None,,,,,,,,,,,,,,,,,account,new_aloud,red,3,123,1,1003.4823682999704,None,1003.4823682999704,None,6,3.813391499919817,1003.4823682999704,None,1007.3461581000593,None,1007.865645899903,None,1007.865645899903,None,r,1.9982875999994576,1007.865645899903,None,,,color17,001,2021_Nov_01_1522,ProdSingRedo,3.2.3,59.96753356746996,
,,,,4,0,4,0,,,,,,,,,,,,,,,,,,,,,,,,1015.251832799986,None,,,,,,,,,,,,,,,,,finance,aloud,red,4,30,129,1010.4234229999129,None,1010.4234229999129,None,6,3.432319800136611,1010.4234229999129,None,1013.8960166000761,None,1014.4049925000872,None,1014.4049925000872,None,r,0.8186596999876201,1014.4049925000872,None,,,color17,001,2021_Nov_01_1522,ProdSingRedo,3.2.3,59.96753356746996,
,,,,5,0,5,0,,,,,,,,,,,,,,,,,,,,,,,,1021.2587995000649,None,,,,,,,,,,,,,,,,,agency,sing,yellow,5,14,4,1015.7762635999825,None,1015.7762635999825,None,5,3.087763699935749,1015.7762635999825,None,1018.9016565999482,None,1019.4297700999305,None,1019.4297700999305,None,f,1.8018581001088023,1019.4297700999305,None,,,color17,001,2021_Nov_01_1522,ProdSingRedo,3.2.3,59.96753356746996,
,,,,6,0,6,0,,,,,,,,,,,,,,,,,,,,,,,,1030.3162972000428,None,,,,,,,,,,,,,,,,,block,new_sing,yellow,6,93,25,1021.780434400076,None,1021.780434400076,None,2,6.851370899938047,1021.780434400076,None,1028.678159700008,None,1029.185009199893,None,1029.185009199893,None,n,1.0946029999759048,1029.185009199893,None,,,color17,001,2021_Nov_01_1522,ProdSingRedo,3.2.3,59.96753356746996,
,,,,7,0,7,0,,,,,,,,,,,,,,,,,,,,,,,,1037.374366400065,None,,,,,,,,,,,,,,,,,ground,new_aloud,red,7,135,142,1030.8468394000083,None,1030.8468394000083,None,4,5.024449300020933,1030.8468394000083,None,1035.9013322000392,None,1036.4165121999104,None,1036.4165121999104,None,f,0.9271307999733835,1036.4165121999104,None,,,color17,001,2021_Nov_01_1522,ProdSingRedo,3.2.3,59.96753356746996,
,,,,8,0,8,0,,,,,,,,,,,,,,,,,,,,,,,,1043.7629611999728,None,,,,,,,,,,,,,,,,,interior,new_sing,yellow,8,102,164,1037.9056033000816,None,1037.9056033000816,None,1,5.030094299931079,1037.9056033000816,None,1042.9750945998821,None,1043.4972467999905,None,1043.4972467999905,None,n,0.23061180021613836,1043.4972467999905,None,,,color17,001,2021_Nov_01_1522,ProdSingRedo,3.2.3,59.96753356746996,
,,,,9,0,9,0,,,,,,,,,,,,,,,,,,,,,,,,1048.817612899933,None,,,,,,,,,,,,,,,,,period,sing,yellow,9,27,217,1044.2866533999331,None,1044.2866533999331,None,6,3.033096699975431,1044.2866533999331,None,1047.3630792999174,None,1047.8822771999985,None,1047.8822771999985,None,r,0.9015095001086593,1047.8822771999985,None,,,color17,001,2021_Nov_01_1522,ProdSingRedo,3.2.3,59.96753356746996,
,,,,10,0,10,0,,,,,,,,,,,,,,,,,,,,,,,,1052.8060067000333,None,,,,,,,,,,,,,,,,,order,sing,yellow,10,26,207,1049.3397816000506,None,1049.3397816000506,None,3,2.524358400143683,1049.3397816000506,None,1051.9010046999902,None,1052.4217820998747,None,1052.4217820998747,None,f,0.35400509997271,1052.4217820998747,None,,,color17,001,2021_Nov_01_1522,ProdSingRedo,3.2.3,59.96753356746996,
,,,,11,0,11,0,,,,,,,,,,,,,,,,,,,,,,,,1060.9982781999279,None,,,,,,,,,,,,,,,,,appeal,silent,blue,11,85,9,1053.332885199925,None,1053.332885199925,None,4,6.074776499997824,1053.332885199925,None,1059.4492742000148,None,1059.9676574999467,None,1059.9676574999467,None,f,1.0079739999491721,1059.9676574999467,None,,,color17,001,2021_Nov_01_1522,ProdSingRedo,3.2.3,59.96753356746996,
,,,,12,0,12,0,,,,,,,,,,,,,,,,,,,,,,,,1065.6296329998877,None,,,,,,,,,,,,,,,,,drove,aloud,red,12,48,106,1061.5239462000318,None,1061.5239462000318,None,2,2.2117960001342,1061.5239462000318,None,1063.7786721999291,None,1064.2897202998865,None,1064.2897202998865,None,n,1.301996599882841,1064.2897202998865,None,,,color17,001,2021_Nov_01_1522,ProdSingRedo,3.2.3,59.96753356746996,
,,,,13,0,13,0,,,,,,,,,,,,,,,,,,,,,,,,1074.040185400052,None,,,,,,,,,,,,,,,,,group,aloud,red,13,39,143,1066.130709900055,None,1066.130709900055,None,5,6.485151999862865,1066.130709900055,None,1072.6604396000039,None,1073.1801350999158,None,1073.1801350999158,None,f,0.827581699937582,1073.1801350999158,None,,,color17,001,2021_Nov_01_1522,ProdSingRedo,3.2.3,59.96753356746996,
,,,,14,0,14,0,,,,,,,,,,,,,,,,,,,,,,,,1097.5007253000513,None,,,,,,,,,,,,,,,,,owner,new_aloud,red,14,147,208,1074.5755358999595,None,1074.5755358999595,None,2,20.88014749996364,1074.5755358999595,None,1095.498891599942,None,1096.0091732998844,None,1096.0091732998844,None,f,1.4626034998800606,1096.0091732998844,None,,,color17,001,2021_Nov_01_1522,ProdSingRedo,3.2.3,59.96753356746996,
,,,,15,0,15,0,,,,,,,,,,,,,,,,,,,,,,,,1103.1556836999953,None,,,,,,,,,,,,,,,,,sweet,new_sing,yellow,15,90,319,1098.0244521999266,None,1098.0244521999266,None,1,2.6235912998672575,1098.0244521999266,None,1100.681072999956,None,1101.19039959996,None,1101.19039959996,None,n,1.9292991999536753,1101.19039959996,None,,,color17,001,2021_Nov_01_1522,ProdSingRedo,3.2.3,59.96753356746996,
,,,,16,0,16,0,,,,,,,,,,,,,,,,,,,,,,,,1107.194131999975,None,,,,,,,,,,,,,,,,,minute,sing,yellow,16,12,192,1103.6796842999756,None,1103.6796842999756,None,1,2.3924225999508053,1103.6796842999756,None,1106.1241882999893,None,1106.6340338999871,None,1106.6340338999871,None,n,0.5256475999485701,1106.6340338999871,None,,,color17,001,2021_Nov_01_1522,ProdSingRedo,3.2.3,59.96753356746996,
,,,,17,0,17,0,,,,,,,,,,,,,,,,,,,,,,,,1111.5147603000514,None,,,,,,,,,,,,,,,,,accident,silent,blue,17,73,0,1107.718987399945,None,1107.718987399945,None,6,2.896823200164363,1107.718987399945,None,1110.6630382998846,None,1111.1845342000015,None,1111.1845342000015,None,r,0.30323090008459985,1111.1845342000015,None,,,color17,001,2021_Nov_01_1522,ProdSingRedo,3.2.3,59.96753356746996,
,,,,18,0,18,0,,,,,,,,,,,,,,,,,,,,,,,,1116.5029776999727,None,,,,,,,,,,,,,,,,,smooth,aloud,red,18,47,292,1112.0387748000212,None,1112.0387748000212,None,6,3.737107199849561,1112.0387748000212,None,1115.8139092999045,None,1116.3204468998592,None,1116.3204468998592,None,r,0.15129559999331832,1116.3204468998592,None,,,color17,001,2021_Nov_01_1522,ProdSingRedo,3.2.3,59.96753356746996,
,,,,19,0,19,0,,,,,,,,,,,,,,,,,,,,,,,,1119.7592857999261,None,,,,,,,,,,,,,,,,,emergency,new_silent,blue,19,167,110,1117.028497299878,None,1117.028497299878,None,2,1.8112661999184638,1117.028497299878,None,1118.8922029999085,None,1119.395482599968,None,1119.395482599968,None,n,0.3323175001423806,1119.395482599968,None,,,color17,001,2021_Nov_01_1522,ProdSingRedo,3.2.3,59.96753356746996,
,,,,20,0,20,0,,,,,,,,,,,,,,,,,,,,,,,,1124.010585699929,None,,,,,,,,,,,,,,,,,department,silent,blue,20,83,90,1120.291976599954,None,1120.291976599954,None,1,2.4919823000673205,1120.291976599954,None,1122.8216086998582,None,1123.3483579000458,None,1123.3483579000458,None,n,0.6354211999569088,1123.3483579000458,None,,,color17,001,2021_Nov_01_1522,ProdSingRedo,3.2.3,59.96753356746996,
,,,,21,0,21,0,,,,,,,,,,,,,,,,,,,,,,,,1127.54772459995,None,,,,,,,,,,,,,,,,,beginning,new_silent,blue,21,166,19,1124.5405361000448,None,1124.5405361000448,None,1,2.099137300159782,1124.5405361000448,None,1126.6836389000528,None,1127.2032004999928,None,1127.2032004999928,None,n,0.3164258000906557,1127.2032004999928,None,,,color17,001,2021_Nov_01_1522,ProdSingRedo,3.2.3,59.96753356746996,
,,,,22,0,22,0,,,,,,,,,,,,,,,,,,,,,,,,1131.2008670999203,None,,,,,,,,,,,,,,,,,junior,silent,blue,22,88,167,1128.0747247999534,None,1128.0747247999534,None,1,2.0130499999504536,1128.0747247999534,None,1130.1382055999711,None,1130.6591755999252,None,1130.6591755999252,None,n,0.5167562998831272,1130.6591755999252,None,,,color17,001,2021_Nov_01_1522,ProdSingRedo,3.2.3,59.96753356746996,
,,,,23,0,23,0,,,,,,,,,,,,,,,,,,,,,,,,1135.3010646000039,None,,,,,,,,,,,,,,,,,trend,silent,blue,23,63,340,1131.7259084999096,None,1131.7259084999096,None,4,2.953984000021592,1131.7259084999096,None,1134.7160096999723,None,1135.2252978999168,None,1135.2252978999168,None,f,0.046165799954906106,1135.2252978999168,None,,,color17,001,2021_Nov_01_1522,ProdSingRedo,3.2.3,59.96753356746996,
,,,,24,0,24,0,,,,,,,,,,,,,,,,,,,,,,,,1138.1242056000046,None,,,,,,,,,,,,,,,,,orchestra,new_aloud,red,24,133,206,1135.8309656998608,None,1135.8309656998608,None,1,1.448803799925372,1135.8309656998608,None,1137.3155642000493,None,1137.8269334998913,None,1137.8269334998913,None,n,0.260842900024727,1137.8269334998913,None,,,color17,001,2021_Nov_01_1522,ProdSingRedo,3.2.3,59.96753356746996,
,,,,25,0,25,0,,,,,,,,,,,,,,,,,,,,,,,,1143.712871500058,None,,,,,,,,,,,,,,,,,addition,aloud,red,25,43,2,1138.65247059986,None,1138.65247059986,None,5,3.8753864001482725,1138.65247059986,None,1142.5770727999043,None,1143.0988260000013,None,1143.0988260000013,None,f,0.5808855001814663,1143.0988260000013,None,,,color17,001,2021_Nov_01_1522,ProdSingRedo,3.2.3,59.96753356746996,
,,,,26,0,26,0,,,,,,,,,,,,,,,,,,,,,,,,1146.9328743999358,None,,,,,,,,,,,,,,,,,committee,aloud,red,26,51,62,1144.234544799896,None,1144.234544799896,None,1,1.7652354999445379,1144.234544799896,None,1146.041754100006,None,1146.551911199931,None,1146.551911199931,None,n,0.34396430011838675,1146.551911199931,None,,,color17,001,2021_Nov_01_1522,ProdSingRedo,3.2.3,59.96753356746996,
,,,,27,0,27,0,,,,,,,,,,,,,,,,,,,,,,,,1149.8916726000607,None,,,,,,,,,,,,,,,,,weight,new_aloud,red,27,138,353,1147.4582147998735,None,1147.4582147998735,None,1,1.5337032999377698,1147.4582147998735,None,1149.0343360998668,None,1149.5515906999353,None,1149.5515906999353,None,n,0.31214840011671185,1149.5515906999353,None,,,color17,001,2021_Nov_01_1522,ProdSingRedo,3.2.3,59.96753356746996,
,,,,28,0,28,0,,,,,,,,,,,,,,,,,,,,,,,,1154.5246588999871,None,,,,,,,,,,,,,,,,,judge,silent,blue,28,62,166,1150.4289112999104,None,1150.4289112999104,None,3,2.466929699992761,1150.4289112999104,None,1152.9422764000483,None,1153.4504217999056,None,1153.4504217999056,None,f,1.0373843000270426,1153.4504217999056,None,,,color17,001,2021_Nov_01_1522,ProdSingRedo,3.2.3,59.96753356746996,
,,,,29,0,29,0,,,,,,,,,,,,,,,,,,,,,,,,1159.786260999972,None,,,,,,,,,,,,,,,,,narrow,sing,yellow,29,20,197,1155.0512925998773,None,1155.0512925998773,None,2,3.1246756999753416,1155.0512925998773,None,1158.2214184000622,None,1158.739332600031,None,1158.739332600031,None,n,1.0123741999268532,1158.739332600031,None,,,color17,001,2021_Nov_01_1522,ProdSingRedo,3.2.3,59.96753356746996,
,,,,30,0,30,0,,,,,,,,,,,,,,,,,,,,,,,,1164.58543560002,None,,,,,,,,,,,,,,,,,weather,new_silent,blue,30,162,352,1160.3088412000798,None,1160.3088412000798,None,4,3.6028840001672506,1160.3088412000798,None,1163.952033800073,None,1164.4749243999831,None,1164.4749243999831,None,f,0.07676779991015792,1164.4749243999831,None,,,color17,001,2021_Nov_01_1522,ProdSingRedo,3.2.3,59.96753356746996,
,,,,31,0,31,0,,,,,,,,,,,,,,,,,,,,,,,,1167.6371297999285,None,,,,,,,,,,,,,,,,,vision,silent,blue,31,69,347,1165.1103518998716,None,1165.1103518998716,None,1,1.6252852999605238,1165.1103518998716,None,1166.7886582000647,None,1167.2887732998934,None,1167.2887732998934,None,n,0.32712969998829067,1167.2887732998934,None,,,color17,001,2021_Nov_01_1522,ProdSingRedo,3.2.3,59.96753356746996,
,,,,32,0,32,0,,,,,,,,,,,,,,,,,,,,,,,,1170.6564968000166,None,,,,,,,,,,,,,,,,,search,new_silent,blue,32,179,276,1168.1639870998915,None,1168.1639870998915,None,1,1.547806299990043,1168.1639870998915,None,1169.754784699995,None,1170.259486200055,None,1170.259486200055,None,n,0.3643088999669999,1170.259486200055,None,,,color17,001,2021_Nov_01_1522,ProdSingRedo,3.2.3,59.96753356746996,
,,,,33,0,33,0,,,,,,,,,,,,,,,,,,,,,,,,1176.6474242999684,None,,,,,,,,,,,,,,,,,dance,sing,yellow,33,29,84,1171.1797090000473,None,1171.1797090000473,None,5,3.356298399856314,1171.1797090000473,None,1174.5711165000685,None,1175.0829874000046,None,1175.0829874000046,None,f,1.5410249999258667,1175.0829874000046,None,,,color17,001,2021_Nov_01_1522,ProdSingRedo,3.2.3,59.96753356746996,
,,,,34,0,34,0,,,,,,,,,,,,,,,,,,,,,,,,1181.3167137999553,None,,,,,,,,,,,,,,,,,error,sing,yellow,34,28,117,1177.1694992999546,None,1177.1694992999546,None,2,3.3182572999503464,1177.1694992999546,None,1180.528700799914,None,1181.047704800032,None,1181.047704800032,None,n,0.23217460000887513,1181.047704800032,None,,,color17,001,2021_Nov_01_1522,ProdSingRedo,3.2.3,59.96753356746996,
,,,,35,0,35,0,,,,,,,,,,,,,,,,,,,,,,,,1184.4201060999185,None,,,,,,,,,,,,,,,,,pancakes,sing,yellow,35,22,210,1181.8550163998734,None,1181.8550163998734,None,1,1.3206569000612944,1181.8550163998734,None,1183.2166466999333,None,1183.7243909998797,None,1183.7243909998797,None,n,0.659823999973014,1183.7243909998797,None,,,color17,001,2021_Nov_01_1522,ProdSingRedo,3.2.3,59.96753356746996,
,,,,36,0,36,0,,,,,,,,,,,,,,,,,,,,,,,,1188.3756657999475,None,,,,,,,,,,,,,,,,,cover,sing,yellow,36,1,77,1184.9455452000257,None,1184.9455452000257,None,3,2.126536700176075,1184.9455452000257,None,1187.120708100032,None,1187.6269841000903,None,1187.6269841000903,None,n,0.7248916998505592,1187.6269841000903,None,,,color17,001,2021_Nov_01_1522,ProdSingRedo,3.2.3,59.96753356746996,
,,,,37,0,37,0,,,,,,,,,,,,,,,,,,,,,,,,1192.2964808999095,None,,,,,,,,,,,,,,,,,instrument,new_aloud,red,37,134,163,1188.900950799929,None,1188.900950799929,None,2,2.1868972999509424,1188.900950799929,None,1191.129799099872,None,1191.651891299989,None,1191.651891299989,None,n,0.6119399999734014,1191.651891299989,None,,,color17,001,2021_Nov_01_1522,ProdSingRedo,3.2.3,59.96753356746996,
,,,,38,0,38,0,,,,,,,,,,,,,,,,,,,,,,,,1195.8655842998996,None,,,,,,,,,,,,,,,,,atmosphere,new_sing,yellow,38,107,12,1192.8351938999258,None,1192.8351938999258,None,1,2.0687740000430495,1192.8351938999258,None,1194.9492714998778,None,1195.4678303999826,None,1195.4678303999826,None,n,0.35620640008710325,1195.4678303999826,None,,,color17,001,2021_Nov_01_1522,ProdSingRedo,3.2.3,59.96753356746996,
,,,,39,0,39,0,,,,,,,,,,,,,,,,,,,,,,,,1199.286478599999,None,,,,,,,,,,,,,,,,,style,new_silent,blue,39,160,311,1196.3927684000228,None,1196.3927684000228,None,2,1.8469008000101894,1196.3927684000228,None,1198.2830787000712,None,1198.8042158000171,None,1198.8042158000171,None,n,0.45157069992274046,1198.8042158000171,None,,,color17,001,2021_Nov_01_1522,ProdSingRedo,3.2.3,59.96753356746996,
,,,,40,0,40,0,,,,,,,,,,,,,,,,,,,,,,,,1203.489575699903,None,,,,,,,,,,,,,,,,,country,sing,yellow,40,4,73,1199.8169708000496,None,1199.8169708000496,None,5,3.046965500107035,1199.8169708000496,None,1202.9094946999103,None,1203.411902999971,None,1203.411902999971,None,f,0.05176270008087158,1203.411902999971,None,,,color17,001,2021_Nov_01_1522,ProdSingRedo,3.2.3,59.96753356746996,
,,,,41,0,41,0,,,,,,,,,,,,,,,,,,,,,,,,1209.4302638000809,None,,,,,,,,,,,,,,,,,safety,aloud,red,41,52,270,1204.0175379000138,None,1204.0175379000138,None,6,3.206254000077024,1204.0175379000138,None,1207.2795025999658,None,1207.782577399863,None,1207.782577399863,None,r,1.6251825001090765,1207.782577399863,None,,,color17,001,2021_Nov_01_1522,ProdSingRedo,3.2.3,59.96753356746996,
,,,,42,0,42,0,,,,,,,,,,,,,,,,,,,,,,,,1214.06055309996,None,,,,,,,,,,,,,,,,,course,silent,blue,42,78,74,1209.9570816999767,None,1209.9570816999767,None,4,3.1547857001423836,1209.9570816999767,None,1213.174870399991,None,1213.682685900014,None,1213.682685900014,None,f,0.3487638998776674,1213.682685900014,None,,,color17,001,2021_Nov_01_1522,ProdSingRedo,3.2.3,59.96753356746996,
,,,,43,0,43,0,,,,,,,,,,,,,,,,,,,,,,,,1217.119843200082,None,,,,,,,,,,,,,,,,,exchange,new_aloud,red,43,143,121,1214.5879833998624,None,1214.5879833998624,None,1,1.5394816999323666,1214.5879833998624,None,1216.1517966999672,None,1216.6754043998662,None,1216.6754043998662,None,n,0.4123656000010669,1216.6754043998662,None,,,color17,001,2021_Nov_01_1522,ProdSingRedo,3.2.3,59.96753356746996,
,,,,44,0,44,0,,,,,,,,,,,,,,,,,,,,,,,,1220.4405648000538,None,,,,,,,,,,,,,,,,,travel,aloud,red,44,41,338,1217.6477971998975,None,1217.6477971998975,None,4,1.9035571001004428,1217.6477971998975,None,1219.590085099917,None,1220.1096725999378,None,1220.1096725999378,None,f,0.3060841001570225,1220.1096725999378,None,,,color17,001,2021_Nov_01_1522,ProdSingRedo,3.2.3,59.96753356746996,
,,,,45,0,45,0,,,,,,,,,,,,,,,,,,,,,,,,1226.7299116000067,None,,,,,,,,,,,,,,,,,government,silent,blue,45,77,139,1220.971088099992,None,1220.971088099992,None,3,4.925025699893013,1220.971088099992,None,1225.9395165999886,None,1226.4524594999384,None,1226.4524594999384,None,n,0.25138300005346537,1226.4524594999384,None,,,color17,001,2021_Nov_01_1522,ProdSingRedo,3.2.3,59.96753356746996,
,,,,46,0,46,0,,,,,,,,,,,,,,,,,,,,,,,,1231.2344402000308,None,,,,,,,,,,,,,,,,,general,silent,blue,46,70,135,1227.2543551998679,None,1227.2543551998679,None,2,2.473756500054151,1227.2543551998679,None,1229.765134499874,None,1230.2876748000272,None,1230.2876748000272,None,n,0.9201963001396507,1230.2876748000272,None,,,color17,001,2021_Nov_01_1522,ProdSingRedo,3.2.3,59.96753356746996,
,,,,47,0,47,0,,,,,,,,,,,,,,,,,,,,,,,,1235.555436699884,None,,,,,,,,,,,,,,,,,volume,aloud,red,47,37,349,1231.7647442999296,None,1231.7647442999296,None,4,2.995080499909818,1231.7647442999296,None,1234.804853499867,None,1235.327190699987,None,1235.327190699987,None,f,0.20070930011570454,1235.327190699987,None,,,color17,001,2021_Nov_01_1522,ProdSingRedo,3.2.3,59.96753356746996,
,,,,48,0,48,0,,,,,,,,,,,,,,,,,,,,,,,,1238.525665299967,None,,,,,,,,,,,,,,,,,industry,aloud,red,48,34,161,1236.0839511000086,None,1236.0839511000086,None,1,1.683917600195855,1236.0839511000086,None,1237.8076287999284,None,1238.308100400027,None,1238.308100400027,None,n,0.1881232000887394,1238.308100400027,None,,,color17,001,2021_Nov_01_1522,ProdSingRedo,3.2.3,59.96753356746996,
,,,,49,0,49,0,,,,,,,,,,,,,,,,,,,,,,,,1242.2455682000145,None,,,,,,,,,,,,,,,,,institute,aloud,red,49,49,162,1239.052541299956,None,1239.052541299956,None,2,1.4995581000111997,1239.052541299956,None,1240.5942754999269,None,1241.1164192999713,None,1241.1164192999713,None,n,1.1073663998395205,1241.1164192999713,None,,,color17,001,2021_Nov_01_1522,ProdSingRedo,3.2.3,59.96753356746996,
,,,,50,0,50,0,,,,,,,,,,,,,,,,,,,,,,,,1246.0090021998622,None,,,,,,,,,,,,,,,,,match,new_aloud,red,50,127,181,1242.7712773999665,None,1242.7712773999665,None,3,1.7804409998934716,1242.7712773999665,None,1244.59999649995,None,1245.1185723999515,None,1245.1185723999515,None,n,0.8729223001282662,1245.1185723999515,None,,,color17,001,2021_Nov_01_1522,ProdSingRedo,3.2.3,59.96753356746996,
,,,,51,0,51,0,,,,,,,,,,,,,,,,,,,,,,,,1255.4420181999449,None,,,,,,,,,,,,,,,,,contract,new_sing,yellow,51,108,68,1246.5118247999344,None,1246.5118247999344,None,2,7.2320888000540435,1246.5118247999344,None,1253.7934214000124,None,1254.3097425999586,None,1254.3097425999586,None,n,1.1061803998891264,1254.3097425999586,None,,,color17,001,2021_Nov_01_1522,ProdSingRedo,3.2.3,59.96753356746996,
,,,,52,0,52,0,,,,,,,,,,,,,,,,,,,,,,,,1258.161826999858,None,,,,,,,,,,,,,,,,,population,silent,blue,52,61,227,1255.973506799899,None,1255.973506799899,None,2,1.362322100205347,1255.973506799899,None,1257.381211000029,None,1257.902695799945,None,1257.902695799945,None,n,0.23359149997122586,1257.902695799945,None,,,color17,001,2021_Nov_01_1522,ProdSingRedo,3.2.3,59.96753356746996,
,,,,53,0,53,0,,,,,,,,,,,,,,,,,,,,,,,,1261.3142913000192,None,,,,,,,,,,,,,,,,,research,new_sing,yellow,53,110,261,1258.6874545000028,None,1258.6874545000028,None,4,1.7924171001650393,1258.6874545000028,None,1260.531469099922,None,1261.0542625000235,None,1261.0542625000235,None,f,0.22574690007604659,1261.0542625000235,None,,,color17,001,2021_Nov_01_1522,ProdSingRedo,3.2.3,59.96753356746996,
,,,,54,0,54,0,,,,,,,,,,,,,,,,,,,,,,,,1264.0343076998834,None,,,,,,,,,,,,,,,,,science,silent,blue,54,81,275,1261.8358358999249,None,1261.8358358999249,None,2,1.5001670999918133,1261.8358358999249,None,1263.3793500999454,None,1263.8977244000416,None,1263.8977244000416,None,n,0.11012600013054907,1263.8977244000416,None,,,color17,001,2021_Nov_01_1522,ProdSingRedo,3.2.3,59.96753356746996,
,,,,55,0,55,0,,,,,,,,,,,,,,,,,,,,,,,,1266.7517109999899,None,,,,,,,,,,,,,,,,,goose,silent,blue,55,72,138,1264.5598538999911,None,1264.5598538999911,None,1,1.3201225001830608,1264.5598538999911,None,1265.914236499928,None,1266.4213044999633,None,1266.4213044999633,None,n,0.29865500004962087,1266.4213044999633,None,,,color17,001,2021_Nov_01_1522,ProdSingRedo,3.2.3,59.96753356746996,
,,,,56,0,56,0,,,,,,,,,,,,,,,,,,,,,,,,1269.4361364999786,None,,,,,,,,,,,,,,,,,benefit,new_aloud,red,56,140,20,1267.286450699903,None,1267.286450699903,None,1,1.4737722999416292,1267.286450699903,None,1268.8015193000901,None,1269.3088124999776,None,1269.3088124999776,None,n,0.10710150003433228,1269.3088124999776,None,,,color17,001,2021_Nov_01_1522,ProdSingRedo,3.2.3,59.96753356746996,
,,,,57,0,57,0,,,,,,,,,,,,,,,,,,,,,,,,1273.6440133999567,None,,,,,,,,,,,,,,,,,audience,new_aloud,red,57,139,14,1269.9638988000806,None,1269.9638988000806,None,3,1.7319152001291513,1269.9638988000806,None,1271.7387945000082,None,1272.2614801998716,None,1272.2614801998716,None,f,1.3465582001954317,1272.2614801998716,None,,,color17,001,2021_Nov_01_1522,ProdSingRedo,3.2.3,59.96753356746996,
,,,,58,0,58,0,,,,,,,,,,,,,,,,,,,,,,,,1278.5483162999153,None,,,,,,,,,,,,,,,,,voice,new_aloud,red,58,141,348,1274.1681019000243,None,1274.1681019000243,None,2,3.6318253001663834,1274.1681019000243,None,1277.843996600015,None,1278.350867900066,None,1278.350867900066,None,n,0.16897600004449487,1278.350867900066,None,,,color17,001,2021_Nov_01_1522,ProdSingRedo,3.2.3,59.96753356746996,
,,,,59,0,59,0,,,,,,,,,,,,,,,,,,,,,,,,1281.2349203000776,None,,,,,,,,,,,,,,,,,distance,new_silent,blue,59,177,100,1279.0741347998846,None,1279.0741347998846,None,1,1.453953499905765,1279.0741347998846,None,1280.568920099875,None,1281.0868974998593,None,1281.0868974998593,None,n,0.12104749982245266,1281.0868974998593,None,,,color17,001,2021_Nov_01_1522,ProdSingRedo,3.2.3,59.96753356746996,
,,,,60,0,60,0,,,,,,,,,,,,,,,,,,,,,,,,1283.6533260999713,None,,,,,,,,,,,,,,,,,touch,aloud,red,60,44,332,1281.7588631000835,None,1281.7588631000835,None,2,1.2010496999137104,1281.7588631000835,None,1283.0068874999415,None,1283.523310800083,None,1283.523310800083,None,n,0.10853029997088015,1283.523310800083,None,,,color17,001,2021_Nov_01_1522,ProdSingRedo,3.2.3,59.96753356746996,
,,,,61,0,61,0,,,,,,,,,,,,,,,,,,,,,,,,1286.5559980000835,None,,,,,,,,,,,,,,,,,thing,new_silent,blue,61,163,328,1284.1762820000295,None,1284.1762820000295,None,2,1.4555186000652611,1284.1762820000295,None,1285.6643004999496,None,1286.1741410999093,None,1286.1741410999093,None,n,0.3455910000484437,1286.1741410999093,None,,,color17,001,2021_Nov_01_1522,ProdSingRedo,3.2.3,59.96753356746996,
,,,,62,0,62,0,,,,,,,,,,,,,,,,,,,,,,,,1289.8028690000065,None,,,,,,,,,,,,,,,,,direction,aloud,red,62,59,94,1287.0753156000283,None,1287.0753156000283,None,4,2.0845068998169154,1287.0753156000283,None,1289.2015788999852,None,1289.7131171000656,None,1289.7131171000656,None,f,0.046819600043818355,1289.7131171000656,None,,,color17,001,2021_Nov_01_1522,ProdSingRedo,3.2.3,59.96753356746996,
,,,,63,0,63,0,,,,,,,,,,,,,,,,,,,,,,,,1292.7726074999664,None,,,,,,,,,,,,,,,,,degree,new_sing,yellow,63,101,89,1290.3204256000463,None,1290.3204256000463,None,2,1.767505700001493,1290.3204256000463,None,1292.1277262000367,None,1292.6482863998972,None,1292.6482863998972,None,n,0.09533090004697442,1292.6482863998972,None,,,color17,001,2021_Nov_01_1522,ProdSingRedo,3.2.3,59.96753356746996,
,,,,64,0,64,0,,,,,,,,,,,,,,,,,,,,,,,,1296.3152846999,None,,,,,,,,,,,,,,,,,present,silent,blue,64,74,231,1293.286614799872,None,1293.286614799872,None,2,2.0972116000484675,1293.286614799872,None,1295.4282948998734,None,1295.9470533998683,None,1295.9470533998683,None,n,0.34081250010058284,1295.9470533998683,None,,,color17,001,2021_Nov_01_1522,ProdSingRedo,3.2.3,59.96753356746996,
,,,,65,0,65,0,,,,,,,,,,,,,,,,,,,,,,,,1299.7039041998796,None,,,,,,,,,,,,,,,,,rough,sing,yellow,65,6,266,1296.8400373000186,None,1296.8400373000186,None,2,1.7837889001239091,1296.8400373000186,None,1298.667478099931,None,1299.1861684999894,None,1299.1861684999894,None,n,0.4941090999636799,1299.1861684999894,None,,,color17,001,2021_Nov_01_1522,ProdSingRedo,3.2.3,59.96753356746996,
,,,,66,0,66,0,,,,,,,,,,,,,,,,,,,,,,,,1302.7899217999075,None,,,,,,,,,,,,,,,,,listen,new_aloud,red,66,136,172,1300.224839600036,None,1300.224839600036,None,1,1.6310525999870151,1300.224839600036,None,1301.9147703999188,None,1302.4202791000716,None,1302.4202791000716,None,n,0.3475728000048548,1302.4202791000716,None,,,color17,001,2021_Nov_01_1522,ProdSingRedo,3.2.3,59.96753356746996,
,,,,67,0,67,0,,,,,,,,,,,,,,,,,,,,,,,,1305.8367739000823,None,,,,,,,,,,,,,,,,,title,silent,blue,67,64,331,1303.3111872998998,None,1303.3111872998998,None,1,1.624638400040567,1303.3111872998998,None,1304.963045499986,None,1305.4737630998716,None,1305.4737630998716,None,n,0.3336839999537915,1305.4737630998716,None,,,color17,001,2021_Nov_01_1522,ProdSingRedo,3.2.3,59.96753356746996,
,,,,68,0,68,0,,,,,,,,,,,,,,,,,,,,,,,,1311.1636759999674,None,,,,,,,,,,,,,,,,,spoke,new_silent,blue,68,171,300,1306.3362012000289,None,1306.3362012000289,None,3,2.6238325000740588,1306.3362012000289,None,1309.0104030000512,None,1309.5172931998968,None,1309.5172931998968,None,n,1.6106203000526875,1309.5172931998968,None,,,color17,001,2021_Nov_01_1522,ProdSingRedo,3.2.3,59.96753356746996,
,,,,69,0,69,0,,,,,,,,,,,,,,,,,,,,,,,,1314.3841552999802,None,,,,,,,,,,,,,,,,,series,new_silent,blue,69,173,279,1311.6854359998833,None,1311.6854359998833,None,2,1.8903740998357534,1311.6854359998833,None,1313.6106507999357,None,1314.1142194999848,None,1314.1142194999848,None,n,0.23767890012823045,1314.1142194999848,None,,,color17,001,2021_Nov_01_1522,ProdSingRedo,3.2.3,59.96753356746996,
,,,,70,0,70,0,,,,,,,,,,,,,,,,,,,,,,,,1318.8715965000447,None,,,,,,,,,,,,,,,,,religion,sing,yellow,70,17,258,1314.9116235000547,None,1314.9116235000547,None,6,1.7762643999885768,1314.9116235000547,None,1316.736917299917,None,1317.2572947998997,None,1317.2572947998997,None,r,1.5825871000997722,1317.2572947998997,None,,,color17,001,2021_Nov_01_1522,ProdSingRedo,3.2.3,59.96753356746996,
,,,,71,0,71,0,,,,,,,,,,,,,,,,,,,,,,,,1321.5579613998998,None,,,,,,,,,,,,,,,,,expansion,new_silent,blue,71,152,123,1319.3978067999706,None,1319.3978067999706,None,2,1.3859780998900533,1319.3978067999706,None,1320.820485800039,None,1321.353375500068,None,1321.353375500068,None,n,0.1745452000759542,1321.353375500068,None,,,color17,001,2021_Nov_01_1522,ProdSingRedo,3.2.3,59.96753356746996,
,,,,72,0,72,0,,,,,,,,,,,,,,,,,,,,,,,,1325.9612873999868,None,,,,,,,,,,,,,,,,,crisis,sing,yellow,72,7,79,1322.0811719999183,None,1322.0811719999183,None,6,2.574792299885303,1322.0811719999183,None,1324.690923599992,None,1325.209630599944,None,1325.209630599944,None,r,0.7183473000768572,1325.209630599944,None,,,color17,001,2021_Nov_01_1522,ProdSingRedo,3.2.3,59.96753356746996,
,,,,73,0,73,0,,,,,,,,,,,,,,,,,,,,,,,,1329.7211672000121,None,,,,,,,,,,,,,,,,,escape,new_aloud,red,73,142,118,1326.4880502999295,None,1326.4880502999295,None,4,1.9759162000846118,1326.4880502999295,None,1328.5131216999143,None,1329.019242499955,None,1329.019242499955,None,f,0.6606721999123693,1329.019242499955,None,,,color17,001,2021_Nov_01_1522,ProdSingRedo,3.2.3,59.96753356746996,
,,,,74,0,74,0,,,,,,,,,,,,,,,,,,,,,,,,1332.3698420000728,None,,,,,,,,,,,,,,,,,afternoon,new_sing,yellow,74,98,3,1330.2417365999427,None,1330.2417365999427,None,1,1.366283900104463,1330.2417365999427,None,1331.6476735998876,None,1332.1730088000186,None,1332.1730088000186,None,n,0.16279860003851354,1332.1730088000186,None,,,color17,001,2021_Nov_01_1522,ProdSingRedo,3.2.3,59.96753356746996,
,,,,75,0,75,0,,,,,,,,,,,,,,,,,,,,,,,,1336.0993951999117,None,,,,,,,,,,,,,,,,,edition,new_sing,yellow,75,111,107,1332.8923639999703,None,1332.8923639999703,None,4,2.059544200077653,1332.8923639999703,None,1334.9982095998712,None,1335.507202199893,None,1335.507202199893,None,f,0.5643039999995381,1335.507202199893,None,,,color17,001,2021_Nov_01_1522,ProdSingRedo,3.2.3,59.96753356746996,
,,,,76,0,76,0,,,,,,,,,,,,,,,,,,,,,,,,1339.719359899871,None,,,,,,,,,,,,,,,,,angle,new_sing,yellow,76,113,7,1336.5997713999823,None,1336.5997713999823,None,1,2.143911699997261,1336.5997713999823,None,1338.787275499897,None,1339.3282256999519,None,1339.3282256999519,None,n,0.37529630004428327,1339.3282256999519,None,,,color17,001,2021_Nov_01_1522,ProdSingRedo,3.2.3,59.96753356746996,
,,,,77,0,77,0,,,,,,,,,,,,,,,,,,,,,,,,1344.4319185998756,None,,,,,,,,,,,,,,,,,corner,sing,yellow,77,25,69,1340.2354601998813,None,1340.2354601998813,None,5,3.5246143999975175,1340.2354601998813,None,1343.8022090999875,None,1344.3270576999057,None,1344.3270576999057,None,f,0.07287799986079335,1344.3270576999057,None,,,color17,001,2021_Nov_01_1522,ProdSingRedo,3.2.3,59.96753356746996,
,,,,78,0,78,0,,,,,,,,,,,,,,,,,,,,,,,,1348.518220399972,None,,,,,,,,,,,,,,,,,under,sing,yellow,78,8,343,1344.9554876999464,None,1344.9554876999464,None,3,2.164429800119251,1344.9554876999464,None,1347.1653094999492,None,1347.6832379000261,None,1347.6832379000261,None,n,0.8046907000243664,1347.6832379000261,None,,,color17,001,2021_Nov_01_1522,ProdSingRedo,3.2.3,59.96753356746996,
,,,,79,0,79,0,,,,,,,,,,,,,,,,,,,,,,,,1352.238731399877,None,,,,,,,,,,,,,,,,,alert,aloud,red,79,42,6,1349.0420929000247,None,1349.0420929000247,None,5,2.0061228999402374,1349.0420929000247,None,1351.0863218000159,None,1351.5886923000216,None,1351.5886923000216,None,f,0.6275010001845658,1351.5886923000216,None,,,color17,001,2021_Nov_01_1522,ProdSingRedo,3.2.3,59.96753356746996,
,,,,80,0,80,0,,,,,,,,,,,,,,,,,,,,,,,,1355.9093065999914,None,,,,,,,,,,,,,,,,,broad,aloud,red,80,46,31,1352.7656662999652,None,1352.7656662999652,None,4,2.314496299950406,1352.7656662999652,None,1355.119272599928,None,1355.6282309999224,None,1355.6282309999224,None,f,0.25960059999488294,1355.6282309999224,None,,,color17,001,2021_Nov_01_1522,ProdSingRedo,3.2.3,59.96753356746996,
,,,,81,0,81,0,,,,,,,,,,,,,,,,,,,,,,,,1358.6605603999924,None,,,,,,,,,,,,,,,,,speech,new_silent,blue,81,157,298,1356.4348114999011,None,1356.4348114999011,None,4,1.38900259998627,1356.4348114999011,None,1357.8724851999432,None,1358.3796818999108,None,1358.3796818999108,None,f,0.25221070018596947,1358.3796818999108,None,,,color17,001,2021_Nov_01_1522,ProdSingRedo,3.2.3,59.96753356746996,
,,,,82,0,82,0,,,,,,,,,,,,,,,,,,,,,,,,1361.7259420999326,None,,,,,,,,,,,,,,,,,signal,new_sing,yellow,82,114,287,1359.1897442999762,None,1359.1897442999762,None,2,1.9062071000225842,1359.1897442999762,None,1361.1426764000207,None,1361.6716028000228,None,1361.6716028000228,None,n,0.032261700136587024,1361.6716028000228,None,,,color17,001,2021_Nov_01_1522,ProdSingRedo,3.2.3,59.96753356746996,
,,,,83,0,83,0,,,,,,,,,,,,,,,,,,,,,,,,1364.4335334999487,None,,,,,,,,,,,,,,,,,quiet,new_sing,yellow,83,91,249,1362.243210799992,None,1362.243210799992,None,3,1.3326318999752402,1362.243210799992,None,1363.6168607000727,None,1364.1359208999202,None,1364.1359208999202,None,n,0.2640745001845062,1364.1359208999202,None,,,color17,001,2021_Nov_01_1522,ProdSingRedo,3.2.3,59.96753356746996,
,,,,84,0,84,0,,,,,,,,,,,,,,,,,,,,,,,,1367.9702003998682,None,,,,,,,,,,,,,,,,,front,new_silent,blue,84,161,134,1364.9579249999952,None,1364.9579249999952,None,1,2.258166699903086,1364.9579249999952,None,1367.2628679999616,None,1367.7725231000222,None,1367.7725231000222,None,n,0.16340920003131032,1367.7725231000222,None,,,color17,001,2021_Nov_01_1522,ProdSingRedo,3.2.3,59.96753356746996,
,,,,85,0,85,0,,,,,,,,,,,,,,,,,,,,,,,,1370.7061713999137,None,,,,,,,,,,,,,,,,,beauty,aloud,red,85,55,18,1368.4986080999952,None,1368.4986080999952,None,2,1.445354799972847,1368.4986080999952,None,1369.9954097000882,None,1370.5143422998954,None,1370.5143422998954,None,n,0.15778230014257133,1370.5143422998954,None,,,color17,001,2021_Nov_01_1522,ProdSingRedo,3.2.3,59.96753356746996,
,,,,86,0,86,0,,,,,,,,,,,,,,,,,,,,,,,,1373.6433508000337,None,,,,,,,,,,,,,,,,,session,aloud,red,86,38,281,1371.2305046999827,None,1371.2305046999827,None,5,1.593234600033611,1371.2305046999827,None,1372.8676588998642,None,1373.374379399931,None,1373.374379399931,None,f,0.24155859998427331,1373.374379399931,None,,,color17,001,2021_Nov_01_1522,ProdSingRedo,3.2.3,59.96753356746996,
,,,,87,0,87,0,,,,,,,,,,,,,,,,,,,,,,,,1377.141363499919,None,,,,,,,,,,,,,,,,,suggestion,silent,blue,87,84,314,1374.1732810998801,None,1374.1732810998801,None,3,2.354672299930826,1374.1732810998801,None,1376.5819367000367,None,1377.0991913999896,None,1377.0991913999896,None,n,0.020558600081130862,1377.0991913999896,None,,,color17,001,2021_Nov_01_1522,ProdSingRedo,3.2.3,59.96753356746996,
,,,,88,0,88,0,,,,,,,,,,,,,,,,,,,,,,,,1381.3846660999116,None,,,,,,,,,,,,,,,,,murder,sing,yellow,88,18,195,1377.6674420000054,None,1377.6674420000054,None,6,2.084577300120145,1377.6674420000054,None,1379.796808199957,None,1380.319544200087,None,1380.319544200087,None,r,1.0403259999584407,1380.319544200087,None,,,color17,001,2021_Nov_01_1522,ProdSingRedo,3.2.3,59.96753356746996,
,,,,89,0,89,0,,,,,,,,,,,,,,,,,,,,,,,,1385.5718878000043,None,,,,,,,,,,,,,,,,,material,new_aloud,red,89,124,182,1381.9161320999265,None,1381.9161320999265,None,2,3.0437749999109656,1381.9161320999265,None,1385.0086882999167,None,1385.527237500064,None,1385.527237500064,None,n,0.016492699971422553,1385.527237500064,None,,,color17,001,2021_Nov_01_1522,ProdSingRedo,3.2.3,59.96753356746996,
,,,,90,0,90,0,,,,,,,,,,,,,,,,,,,,,,,,1388.9080737000331,None,,,,,,,,,,,,,,,,,discovery,new_sing,yellow,90,106,95,1386.1021581999958,None,1386.1021581999958,None,3,2.177744399989024,1386.1021581999958,None,1388.3326995999087,None,1388.8475810000673,None,1388.8475810000673,None,n,0.02416919986717403,1388.8475810000673,None,,,color17,001,2021_Nov_01_1522,ProdSingRedo,3.2.3,59.96753356746996,
,,,,91,0,91,0,,,,,,,,,,,,,,,,,,,,,,,,1393.0461565000005,None,,,,,,,,,,,,,,,,,drama,aloud,red,91,31,103,1389.4313960000873,None,1389.4313960000873,None,5,2.8644791000988334,1389.4313960000873,None,1392.3402879999485,None,1392.8642808999866,None,1392.8642808999866,None,f,0.15958039998076856,1392.8642808999866,None,,,color17,001,2021_Nov_01_1522,ProdSingRedo,3.2.3,59.96753356746996,
,,,,92,0,92,0,,,,,,,,,,,,,,,,,,,,,,,,1396.3094977999572,None,,,,,,,,,,,,,,,,,turkey,new_aloud,red,92,148,342,1393.573200999992,None,1393.573200999992,None,1,1.4831303998362273,1393.573200999992,None,1395.1005511998665,None,1395.623732799897,None,1395.623732799897,None,n,0.663755499990657,1395.623732799897,None,,,color17,001,2021_Nov_01_1522,ProdSingRedo,3.2.3,59.96753356746996,
,,,,93,0,93,0,,,,,,,,,,,,,,,,,,,,,,,,1400.0203865000512,None,,,,,,,,,,,,,,,,,silence,new_silent,blue,93,153,288,1396.8225141000003,None,1396.8225141000003,None,4,1.4174178999383003,1396.8225141000003,None,1398.2772490999196,None,1398.783020199975,None,1398.783020199975,None,f,1.2089488001074642,1398.783020199975,None,,,color17,001,2021_Nov_01_1522,ProdSingRedo,3.2.3,59.96753356746996,
,,,,94,0,94,0,,,,,,,,,,,,,,,,,,,,,,,,1402.7373549998738,None,,,,,,,,,,,,,,,,,impact,new_silent,blue,94,172,157,1400.534235799918,None,1400.534235799918,None,3,1.5935990000143647,1400.534235799918,None,1402.1735374000855,None,1402.6824670999777,None,1402.6824670999777,None,n,0.021146500017493963,1402.6824670999777,None,,,color17,001,2021_Nov_01_1522,ProdSingRedo,3.2.3,59.96753356746996,
,,,,95,0,95,0,,,,,,,,,,,,,,,,,,,,,,,,1405.324441100005,None,,,,,,,,,,,,,,,,,figure,new_silent,blue,95,170,128,1403.2551631999668,None,1403.2551631999668,None,2,1.4409576999023557,1403.2551631999668,None,1404.7443136998918,None,1405.2620230000466,None,1405.2620230000466,None,n,0.025628000032156706,1405.2620230000466,None,,,color17,001,2021_Nov_01_1522,ProdSingRedo,3.2.3,59.96753356746996,
,,,,96,0,96,0,,,,,,,,,,,,,,,,,,,,,,,,1407.8252019998617,None,,,,,,,,,,,,,,,,,detective,new_aloud,red,96,149,92,1405.8518743999302,None,1405.8518743999302,None,1,1.3721628000494093,1405.8518743999302,None,1407.274850799935,None,1407.7987150000408,None,1407.7987150000408,None,n,0.009105399949476123,1407.7987150000408,None,,,color17,001,2021_Nov_01_1522,ProdSingRedo,3.2.3,59.96753356746996,
,,,,97,0,97,0,,,,,,,,,,,,,,,,,,,,,,,,1411.5913489998784,None,,,,,,,,,,,,,,,,,harmony,aloud,red,97,33,148,1408.355128099909,None,1408.355128099909,None,6,1.444902200018987,1408.355128099909,None,1409.8487775998656,None,1410.3667953999247,None,1410.3667953999247,None,r,1.1931709998752922,1410.3667953999247,None,,,color17,001,2021_Nov_01_1522,ProdSingRedo,3.2.3,59.96753356746996,
,,,,98,0,98,0,,,,,,,,,,,,,,,,,,,,,,,,1415.8122890999075,None,,,,,,,,,,,,,,,,,curve,sing,yellow,98,16,82,1412.1079992998857,None,1412.1079992998857,None,5,3.0442214000504464,1412.1079992998857,None,1415.199819699861,None,1415.724871699931,None,1415.724871699931,None,f,0.05887999990954995,1415.724871699931,None,,,color17,001,2021_Nov_01_1522,ProdSingRedo,3.2.3,59.96753356746996,
,,,,99,0,99,0,,,,,,,,,,,,,,,,,,,,,,,,1420.645347499987,None,,,,,,,,,,,,,,,,,engineer,silent,blue,99,82,114,1416.3307723999023,None,1416.3307723999023,None,4,3.709484799997881,1416.3307723999023,None,1420.095404200023,None,1420.611707400065,None,1420.611707400065,None,f,0.004298800136893988,1420.611707400065,None,,,color17,001,2021_Nov_01_1522,ProdSingRedo,3.2.3,59.96753356746996,
,,,,100,0,100,0,,,,,,,,,,,,,,,,,,,,,,,,1425.0615357998759,None,,,,,,,,,,,,,,,,,strain,new_silent,blue,100,175,308,1421.165863199858,None,1421.165863199858,None,1,2.914141400018707,1421.165863199858,None,1424.1273272999097,None,1424.6455645000096,None,1424.6455645000096,None,n,0.38638740009628236,1424.6455645000096,None,,,color17,001,2021_Nov_01_1522,ProdSingRedo,3.2.3,59.96753356746996,
,,,,101,0,101,0,,,,,,,,,,,,,,,,,,,,,,,,1429.7828168999404,None,,,,,,,,,,,,,,,,,minor,new_sing,yellow,101,109,191,1425.5815151999705,None,1425.5815151999705,None,5,2.690530800027773,1425.5815151999705,None,1428.309974799864,None,1428.830855899956,None,1428.830855899956,None,f,0.929580100113526,1428.830855899956,None,,,color17,001,2021_Nov_01_1522,ProdSingRedo,3.2.3,59.96753356746996,
,,,,102,0,102,0,,,,,,,,,,,,,,,,,,,,,,,,1434.132619800046,None,,,,,,,,,,,,,,,,,frank,new_silent,blue,102,168,133,1430.3137409000192,None,1430.3137409000192,None,1,2.390274199889973,1430.3137409000192,None,1432.7551539000124,None,1433.2771091000177,None,1433.2771091000177,None,n,0.8348631002008915,1433.2771091000177,None,,,color17,001,2021_Nov_01_1522,ProdSingRedo,3.2.3,59.96753356746996,
,,,,103,0,103,0,,,,,,,,,,,,,,,,,,,,,,,,1436.7170110000297,None,,,,,,,,,,,,,,,,,management,new_sing,yellow,103,116,177,1434.6645877999254,None,1434.6645877999254,None,1,1.2073800000362098,1434.6645877999254,None,1435.9239685998764,None,1436.4296019000467,None,1436.4296019000467,None,n,0.2583753999788314,1436.4296019000467,None,,,color17,001,2021_Nov_01_1522,ProdSingRedo,3.2.3,59.96753356746996,
,,,,104,0,104,0,,,,,,,,,,,,,,,,,,,,,,,,1439.87571939989,None,,,,,,,,,,,,,,,,,produce,new_aloud,red,104,137,239,1437.2379487999715,None,1437.2379487999715,None,4,1.762150099966675,1437.2379487999715,None,1439.0414193000179,None,1439.5460995000321,None,1439.5460995000321,None,f,0.29377570003271103,1439.5460995000321,None,,,color17,001,2021_Nov_01_1522,ProdSingRedo,3.2.3,59.96753356746996,
,,,,105,0,105,0,,,,,,,,,,,,,,,,,,,,,,,,1443.7785201999359,None,,,,,,,,,,,,,,,,,brilliant,aloud,red,105,58,30,1440.3997168000787,None,1440.3997168000787,None,5,2.256141100078821,1440.3997168000787,None,1442.6913453000598,None,1443.2185579000507,None,1443.2185579000507,None,f,0.525898199994117,1443.2185579000507,None,,,color17,001,2021_Nov_01_1522,ProdSingRedo,3.2.3,59.96753356746996,
,,,,106,0,106,0,,,,,,,,,,,,,,,,,,,,,,,,1446.7157665998675,None,,,,,,,,,,,,,,,,,problem,new_sing,yellow,106,92,238,1444.322082299972,None,1444.322082299972,None,1,1.3104002999607474,1444.322082299972,None,1445.6823112000711,None,1446.2019042999018,None,1446.2019042999018,None,n,0.4780545001849532,1446.2019042999018,None,,,color17,001,2021_Nov_01_1522,ProdSingRedo,3.2.3,59.96753356746996,
,,,,107,0,107,0,,,,,,,,,,,,,,,,,,,,,,,,1449.6920590000227,None,,,,,,,,,,,,,,,,,finish,sing,yellow,107,9,130,1447.2388770000543,None,1447.2388770000543,None,1,1.5291015000548214,1447.2388770000543,None,1448.8149580999743,None,1449.3354342998937,None,1449.3354342998937,None,n,0.3204594000708312,1449.3354342998937,None,,,color17,001,2021_Nov_01_1522,ProdSingRedo,3.2.3,59.96753356746996,
,,,,108,0,108,0,,,,,,,,,,,,,,,,,,,,,,,,1452.9727566998918,None,,,,,,,,,,,,,,,,,evidence,new_silent,blue,108,176,120,1450.2147850000765,None,1450.2147850000765,None,2,1.953246199991554,1450.2147850000765,None,1452.2234163000248,None,1452.749110699864,None,1452.749110699864,None,n,0.19490060000680387,1452.749110699864,None,,,color17,001,2021_Nov_01_1522,ProdSingRedo,3.2.3,59.96753356746996,
,,,,109,0,109,0,,,,,,,,,,,,,,,,,,,,,,,,1455.3244024000596,None,,,,,,,,,,,,,,,,,drink,sing,yellow,109,11,105,1453.4956276000012,None,1453.4956276000012,None,2,1.1523957999888808,1453.4956276000012,None,1454.6888923000079,None,1455.2128306999803,None,1455.2128306999803,None,n,0.07508189999498427,1455.2128306999803,None,,,color17,001,2021_Nov_01_1522,ProdSingRedo,3.2.3,59.96753356746996,
,,,,110,0,110,0,,,,,,,,,,,,,,,,,,,,,,,,1457.781308699865,None,,,,,,,,,,,,,,,,,portion,new_silent,blue,110,156,228,1455.8360615998972,None,1455.8360615998972,None,1,1.2440190000925213,1455.8360615998972,None,1457.1261392000597,None,1457.6419019999448,None,1457.6419019999448,None,n,0.10216330015100539,1457.6419019999448,None,,,color17,001,2021_Nov_01_1522,ProdSingRedo,3.2.3,59.96753356746996,
,,,,111,0,111,0,,,,,,,,,,,,,,,,,,,,,,,,1461.5138377000112,None,,,,,,,,,,,,,,,,,master,new_silent,blue,111,174,180,1458.303710399894,None,1458.303710399894,None,5,2.352120199939236,1458.303710399894,None,1460.6950159999542,None,1461.2014083999675,None,1461.2014083999675,None,f,0.2785916000138968,1461.2014083999675,None,,,color17,001,2021_Nov_01_1522,ProdSingRedo,3.2.3,59.96753356746996,
,,,,112,0,112,0,,,,,,,,,,,,,,,,,,,,,,,,1467.6567078998778,None,,,,,,,,,,,,,,,,,disease,aloud,red,112,54,97,1462.0393902000505,None,1462.0393902000505,None,5,2.8884038000833243,1462.0393902000505,None,1464.969537399942,None,1465.4787300999742,None,1465.4787300999742,None,f,2.137210999848321,1465.4787300999742,None,,,color17,001,2021_Nov_01_1522,ProdSingRedo,3.2.3,59.96753356746996,
,,,,113,0,113,0,,,,,,,,,,,,,,,,,,,,,,,,1470.8084154999815,None,,,,,,,,,,,,,,,,,second,aloud,red,113,32,278,1468.1770875998773,None,1468.1770875998773,None,3,1.7268387000076473,1468.1770875998773,None,1469.952961999923,None,1470.4716664999723,None,1470.4716664999723,None,n,0.31259869993664324,1470.4716664999723,None,,,color17,001,2021_Nov_01_1522,ProdSingRedo,3.2.3,59.96753356746996,
,,,,114,0,114,0,,,,,,,,,,,,,,,,,,,,,,,,1473.5605254999828,None,,,,,,,,,,,,,,,,,write,new_sing,yellow,114,115,358,1471.3336636999156,None,1471.3336636999156,None,2,1.3703327998518944,1471.3336636999156,None,1472.7397731000092,None,1473.260372400051,None,1473.260372400051,None,n,0.26774549996480346,1473.260372400051,None,,,color17,001,2021_Nov_01_1522,ProdSingRedo,3.2.3,59.96753356746996,
,,,,115,0,115,0,,,,,,,,,,,,,,,,,,,,,,,,1477.3122274000198,None,,,,,,,,,,,,,,,,,break,aloud,red,115,36,26,1474.0886552000884,None,1474.0886552000884,None,2,2.3114058999344707,1474.0886552000884,None,1476.4421862999443,None,1476.9554946999997,None,1476.9554946999997,None,n,0.32444479991681874,1476.9554946999997,None,,,color17,001,2021_Nov_01_1522,ProdSingRedo,3.2.3,59.96753356746996,
,,,,116,0,116,0,,,,,,,,,,,,,,,,,,,,,,,,1480.0164206998888,None,,,,,,,,,,,,,,,,,watch,silent,blue,116,87,351,1477.8368365999777,None,1477.8368365999777,None,3,1.2673174999654293,1477.8368365999777,None,1479.1480232998729,None,1479.665585800074,None,1479.665585800074,None,n,0.32636069995351136,1479.665585800074,None,,,color17,001,2021_Nov_01_1522,ProdSingRedo,3.2.3,59.96753356746996,
,,,,117,0,117,0,,,,,,,,,,,,,,,,,,,,,,,,1483.6875044999178,None,,,,,,,,,,,,,,,,,sunset,new_aloud,red,117,129,315,1480.5400483000558,None,1480.5400483000558,None,1,2.387952799908817,1480.5400483000558,None,1482.9723028000444,None,1483.492028400069,None,1483.492028400069,None,n,0.1638537000399083,1483.492028400069,None,,,color17,001,2021_Nov_01_1522,ProdSingRedo,3.2.3,59.96753356746996,
,,,,118,0,118,0,,,,,,,,,,,,,,,,,,,,,,,,1487.1911982998718,None,,,,,,,,,,,,,,,,,resistance,aloud,red,118,56,262,1484.2176536999177,None,1484.2176536999177,None,4,2.309952300041914,1484.2176536999177,None,1486.5545952999964,None,1487.0786611000076,None,1487.0786611000076,None,f,0.08137320005334914,1487.0786611000076,None,,,color17,001,2021_Nov_01_1522,ProdSingRedo,3.2.3,59.96753356746996,
,,,,119,0,119,0,,,,,,,,,,,,,,,,,,,,,,,,1490.9283441998996,None,,,,,,,,,,,,,,,,,command,silent,blue,119,65,60,1487.7181186000817,None,1487.7181186000817,None,3,2.433902299962938,1487.7181186000817,None,1490.1945020998828,None,1490.7112537999637,None,1490.7112537999637,None,n,0.19275299995206296,1490.7112537999637,None,,,color17,001,2021_Nov_01_1522,ProdSingRedo,3.2.3,59.96753356746996,
,,,,120,0,120,0,,,,,,,,,,,,,,,,,,,,,,,,1494.0668392998632,None,,,,,,,,,,,,,,,,,public,new_aloud,red,120,125,244,1491.4537913000677,None,1491.4537913000677,None,4,1.6982495000120252,1491.4537913000677,None,1493.1983473000582,None,1493.7158500000369,None,1493.7158500000369,None,f,0.3242234999779612,1493.7158500000369,None,,,color17,001,2021_Nov_01_1522,ProdSingRedo,3.2.3,59.96753356746996,
,,,,121,0,121,0,,,,,,,,,,,,,,,,,,,,,,,,1496.7167619999964,None,,,,,,,,,,,,,,,,,income,new_aloud,red,121,132,159,1494.5857979999855,None,1494.5857979999855,None,4,1.2299688998609781,1494.5857979999855,None,1495.857586799888,None,1496.366871099919,None,1496.366871099919,None,f,0.3131809001788497,1496.366871099919,None,,,color17,001,2021_Nov_01_1522,ProdSingRedo,3.2.3,59.96753356746996,
,,,,122,0,122,0,,,,,,,,,,,,,,,,,,,,,,,,1501.437178199878,None,,,,,,,,,,,,,,,,,scale,sing,yellow,122,5,272,1497.2434143000282,None,1497.2434143000282,None,2,3.220867200056091,1497.2434143000282,None,1500.501375199994,None,1501.00694760005,None,1501.00694760005,None,n,0.3932105000130832,1501.00694760005,None,,,color17,001,2021_Nov_01_1522,ProdSingRedo,3.2.3,59.96753356746996,
,,,,123,0,123,0,,,,,,,,,,,,,,,,,,,,,,,,1504.7914833000395,None,,,,,,,,,,,,,,,,,relation,sing,yellow,123,2,257,1501.959156200057,None,1501.959156200057,None,4,1.9689001999795437,1501.959156200057,None,1503.9687991000246,None,1504.494627499953,None,1504.494627499953,None,f,0.2653691000305116,1504.494627499953,None,,,color17,001,2021_Nov_01_1522,ProdSingRedo,3.2.3,59.96753356746996,
,,,,124,0,124,0,,,,,,,,,,,,,,,,,,,,,,,,1507.177011899883,None,,,,,,,,,,,,,,,,,pattern,new_sing,yellow,124,103,214,1505.3183999999892,None,1505.3183999999892,None,1,1.217558299889788,1505.3183999999892,None,1506.5738939999137,None,1507.0797438998707,None,1507.0797438998707,None,n,0.06413899990729988,1507.0797438998707,None,,,color17,001,2021_Nov_01_1522,ProdSingRedo,3.2.3,59.96753356746996,
,,,,125,0,125,0,,,,,,,,,,,,,,,,,,,,,,,,1510.0788773999084,None,,,,,,,,,,,,,,,,,dispute,new_aloud,red,125,131,99,1507.7056070999242,None,1507.7056070999242,None,2,1.3743443998973817,1507.7056070999242,None,1509.131679999875,None,1509.6497335999738,None,1509.6497335999738,None,n,0.40626929979771376,1509.6497335999738,None,,,color17,001,2021_Nov_01_1522,ProdSingRedo,3.2.3,59.96753356746996,
,,,,126,0,126,0,,,,,,,,,,,,,,,,,,,,,,,,1513.4168294998817,None,,,,,,,,,,,,,,,,,captain,new_aloud,red,126,128,41,1510.6108786000405,None,1510.6108786000405,None,4,1.909165599849075,1510.6108786000405,None,1512.5674999998882,None,1513.0719071000349,None,1513.0719071000349,None,f,0.320106300059706,1513.0719071000349,None,,,color17,001,2021_Nov_01_1522,ProdSingRedo,3.2.3,59.96753356746996,
,,,,127,0,127,0,,,,,,,,,,,,,,,,,,,,,,,,1519.9222381000873,None,,,,,,,,,,,,,,,,,season,new_sing,yellow,127,99,277,1513.9445732999593,None,1513.9445732999593,None,4,5.183492900105193,1513.9445732999593,None,1519.171946800081,None,1519.6903941000346,None,1519.6903941000346,None,f,0.19765750016085804,1519.6903941000346,None,,,color17,001,2021_Nov_01_1522,ProdSingRedo,3.2.3,59.96753356746996,
,,,,128,0,128,0,,,,,,,,,,,,,,,,,,,,,,,,1522.3757748999633,None,,,,,,,,,,,,,,,,,century,aloud,red,128,40,45,1520.4537786000874,None,1520.4537786000874,None,4,1.1863519998732954,1520.4537786000874,None,1521.6975014999043,None,1522.2115382000338,None,1522.2115382000338,None,f,0.1404758000280708,1522.2115382000338,None,,,color17,001,2021_Nov_01_1522,ProdSingRedo,3.2.3,59.96753356746996,
,,,,129,0,129,0,,,,,,,,,,,,,,,,,,,,,,,,1527.423812800087,None,,,,,,,,,,,,,,,,,citizen,new_aloud,red,129,146,50,1522.9099447999615,None,1522.9099447999615,None,5,3.6019850000739098,1522.9099447999615,None,1526.5619417999405,None,1527.0735023000743,None,1527.0735023000743,None,f,0.3262156001292169,1527.0735023000743,None,,,color17,001,2021_Nov_01_1522,ProdSingRedo,3.2.3,59.96753356746996,
,,,,130,0,130,0,,,,,,,,,,,,,,,,,,,,,,,,1534.9536663999315,None,,,,,,,,,,,,,,,,,comfort,new_sing,yellow,130,94,59,1527.9245678000152,None,1527.9245678000152,None,6,6.107550699962303,1527.9245678000152,None,1534.0703922000248,None,1534.5906571999658,None,1534.5906571999658,None,r,0.3294292001519352,1534.5906571999658,None,,,color17,001,2021_Nov_01_1522,ProdSingRedo,3.2.3,59.96753356746996,
,,,,131,0,131,0,,,,,,,,,,,,,,,,,,,,,,,,1537.7741708999965,None,,,,,,,,,,,,,,,,,fight,silent,blue,131,76,127,1535.479669699911,None,1535.479669699911,None,5,1.6161816001404077,1535.479669699911,None,1537.1403464998584,None,1537.6430202000774,None,1537.6430202000774,None,f,0.1010492998175323,1537.6430202000774,None,,,color17,001,2021_Nov_01_1522,ProdSingRedo,3.2.3,59.96753356746996,
,,,,132,0,132,0,,,,,,,,,,,,,,,,,,,,,,,,1540.8098635999486,None,,,,,,,,,,,,,,,,,colonel,sing,yellow,132,13,55,1538.2961939000525,None,1538.2961939000525,None,6,1.3438142999075353,1538.2961939000525,None,1539.6869079000317,None,1540.1945690999273,None,1540.1945690999273,None,r,0.5815218000207096,1540.1945690999273,None,,,color17,001,2021_Nov_01_1522,ProdSingRedo,3.2.3,59.96753356746996,
,,,,133,0,133,0,,,,,,,,,,,,,,,,,,,,,,,,1544.0629860998597,None,,,,,,,,,,,,,,,,,individual,silent,blue,133,71,160,1541.342182900058,None,1541.342182900058,None,4,1.705892900004983,1541.342182900058,None,1543.092718699947,None,1543.6238931999542,None,1543.6238931999542,None,f,0.4081806999165565,1543.6238931999542,None,,,color17,001,2021_Nov_01_1522,ProdSingRedo,3.2.3,59.96753356746996,
,,,,134,0,134,0,,,,,,,,,,,,,,,,,,,,,,,,1548.5864134998992,None,,,,,,,,,,,,,,,,,region,aloud,red,134,57,256,1544.5895674000494,None,1544.5895674000494,None,4,2.834480600198731,1544.5895674000494,None,1547.4640868999995,None,1547.9736434998922,None,1547.9736434998922,None,f,0.5866137999109924,1547.9736434998922,None,,,color17,001,2021_Nov_01_1522,ProdSingRedo,3.2.3,59.96753356746996,
,,,,135,0,135,0,,,,,,,,,,,,,,,,,,,,,,,,1552.6390670998953,None,,,,,,,,,,,,,,,,,education,aloud,red,135,35,108,1549.119568400085,None,1549.119568400085,None,2,2.3685767999850214,1549.119568400085,None,1551.540663300082,None,1552.05848779995,None,1552.05848779995,None,n,0.5578218998853117,1552.05848779995,None,,,color17,001,2021_Nov_01_1522,ProdSingRedo,3.2.3,59.96753356746996,
,,,,136,0,136,0,,,,,,,,,,,,,,,,,,,,,,,,1558.2623055998702,None,,,,,,,,,,,,,,,,,comedy,new_silent,blue,136,150,58,1553.1620577999856,None,1553.1620577999856,None,4,4.4060287000611424,1553.1620577999856,None,1557.6059502998833,None,1558.1127118000295,None,1558.1127118000295,None,f,0.11929609999060631,1558.1127118000295,None,,,color17,001,2021_Nov_01_1522,ProdSingRedo,3.2.3,59.96753356746996,
,,,,137,0,137,0,,,,,,,,,,,,,,,,,,,,,,,,1561.6812666999176,None,,,,,,,,,,,,,,,,,staff,new_silent,blue,137,169,301,1558.7871087999083,None,1558.7871087999083,None,2,2.036914700176567,1558.7871087999083,None,1560.8620215998963,None,1561.381807900034,None,1561.381807900034,None,n,0.2663217999506742,1561.381807900034,None,,,color17,001,2021_Nov_01_1522,ProdSingRedo,3.2.3,59.96753356746996,
,,,,138,0,138,0,,,,,,,,,,,,,,,,,,,,,,,,1566.4519982000347,None,,,,,,,,,,,,,,,,,background,new_aloud,red,138,121,16,1562.219757999992,None,1562.219757999992,None,4,3.3320879000239074,1562.219757999992,None,1565.6171814999543,None,1566.1298447998706,None,1566.1298447998706,None,f,0.2862717998214066,1566.1298447998706,None,,,color17,001,2021_Nov_01_1522,ProdSingRedo,3.2.3,59.96753356746996,
,,,,139,0,139,0,,,,,,,,,,,,,,,,,,,,,,,,1569.5051802999806,None,,,,,,,,,,,,,,,,,prime,sing,yellow,139,19,235,1566.9736198999453,None,1566.9736198999453,None,2,1.794426100095734,1566.9736198999453,None,1568.8151966000441,None,1569.325785299996,None,1569.325785299996,None,n,0.14621139992959797,1569.325785299996,None,,,color17,001,2021_Nov_01_1522,ProdSingRedo,3.2.3,59.96753356746996,
,,,,140,0,140,0,,,,,,,,,,,,,,,,,,,,,,,,1574.2106742998585,None,,,,,,,,,,,,,,,,,space,silent,blue,140,80,297,1570.0306867999025,None,1570.0306867999025,None,4,3.5294431000947952,1570.0306867999025,None,1573.6132451999001,None,1574.1314928000793,None,1574.1314928000793,None,f,0.05230850004591048,1574.1314928000793,None,,,color17,001,2021_Nov_01_1522,ProdSingRedo,3.2.3,59.96753356746996,
,,,,141,0,141,0,,,,,,,,,,,,,,,,,,,,,,,,1577.230218600016,None,,,,,,,,,,,,,,,,,discussion,new_sing,yellow,141,112,96,1574.7357218000107,None,1574.7357218000107,None,4,1.6479919000994414,1574.7357218000107,None,1576.406096499879,None,1576.920100899879,None,1576.920100899879,None,f,0.2878173999488354,1576.920100899879,None,,,color17,001,2021_Nov_01_1522,ProdSingRedo,3.2.3,59.96753356746996,
,,,,142,0,142,0,,,,,,,,,,,,,,,,,,,,,,,,1581.7171271999832,None,,,,,,,,,,,,,,,,,foundation,new_aloud,red,142,130,132,1577.7645860000048,None,1577.7645860000048,None,2,3.051471299957484,1577.7645860000048,None,1580.8842736999504,None,1581.3946122999769,None,1581.3946122999769,None,n,0.30136720021255314,1581.3946122999769,None,,,color17,001,2021_Nov_01_1522,ProdSingRedo,3.2.3,59.96753356746996,
,,,,143,0,143,0,,,,,,,,,,,,,,,,,,,,,,,,1584.7878968000878,None,,,,,,,,,,,,,,,,,childhood,new_silent,blue,143,151,49,1582.2411400999408,None,1582.2411400999408,None,1,1.5189785999245942,1582.2411400999408,None,1583.79659669986,None,1584.3047074999195,None,1584.3047074999195,None,n,0.45541139994747937,1584.3047074999195,None,,,color17,001,2021_Nov_01_1522,ProdSingRedo,3.2.3,59.96753356746996,
,,,,144,0,144,0,,,,,,,,,,,,,,,,,,,,,,,,1588.307377899997,None,,,,,,,,,,,,,,,,,blind,new_silent,blue,144,164,24,1585.3106301000807,None,1585.3106301000807,None,3,1.7775643998757005,1585.3106301000807,None,1587.1336409999058,None,1587.644333299948,None,1587.644333299948,None,f,0.6279895000625402,1587.644333299948,None,,,color17,001,2021_Nov_01_1522,ProdSingRedo,3.2.3,59.96753356746996,
,,,,145,0,145,0,,,,,,,,,,,,,,,,,,,,,,,,1592.8790883999318,None,,,,,,,,,,,,,,,,,stand,new_sing,yellow,145,100,302,1588.8317843999248,None,1588.8317843999248,None,1,3.208327200030908,1588.8317843999248,None,1592.0954298998695,None,1592.614205099875,None,1592.614205099875,None,n,0.24192749988287687,1592.614205099875,None,,,color17,001,2021_Nov_01_1522,ProdSingRedo,3.2.3,59.96753356746996,
,,,,146,0,146,0,,,,,,,,,,,,,,,,,,,,,,,,1595.4318166000303,None,,,,,,,,,,,,,,,,,brief,silent,blue,146,60,28,1593.4061769999098,None,1593.4061769999098,None,1,1.1699027998838574,1593.4061769999098,None,1594.613570800051,None,1595.1355733000673,None,1595.1355733000673,None,n,0.26466950005851686,1595.1355733000673,None,,,color17,001,2021_Nov_01_1522,ProdSingRedo,3.2.3,59.96753356746996,
,,,,147,0,147,0,,,,,,,,,,,,,,,,,,,,,,,,1598.368572599953,None,,,,,,,,,,,,,,,,,fellow,new_silent,blue,147,155,126,1595.9624792998657,None,1595.9624792998657,None,1,1.5334815001115203,1595.9624792998657,None,1597.5439810000826,None,1598.0608117000666,None,1598.0608117000666,None,n,0.283399699954316,1598.0608117000666,None,,,color17,001,2021_Nov_01_1522,ProdSingRedo,3.2.3,59.96753356746996,
,,,,148,0,148,0,,,,,,,,,,,,,,,,,,,,,,,,1601.1869379999116,None,,,,,,,,,,,,,,,,,solution,new_sing,yellow,148,105,294,1598.8961004999,None,1598.8961004999,None,2,1.4399377999361604,1598.8961004999,None,1600.3870049999095,None,1600.9108249999117,None,1600.9108249999117,None,n,0.24142320011742413,1600.9108249999117,None,,,color17,001,2021_Nov_01_1522,ProdSingRedo,3.2.3,59.96753356746996,
,,,,149,0,149,0,,,,,,,,,,,,,,,,,,,,,,,,1604.875231999904,None,,,,,,,,,,,,,,,,,growth,new_silent,blue,149,154,144,1601.7103411999997,None,1601.7103411999997,None,1,2.1623241999186575,1601.7103411999997,None,1603.9236506999005,None,1604.4445259999484,None,1604.4445259999484,None,n,0.37954879994504154,1604.4445259999484,None,,,color17,001,2021_Nov_01_1522,ProdSingRedo,3.2.3,59.96753356746996,
,,,,150,0,150,0,,,,,,,,,,,,,,,,,,,,,,,,1607.6109350998886,None,,,,,,,,,,,,,,,,,broke,aloud,red,150,53,32,1605.406308799982,None,1605.406308799982,None,4,1.489785899873823,1605.406308799982,None,1606.9461103000212,None,1607.4646640000865,None,1607.4646640000865,None,f,0.11149000003933907,1607.4646640000865,None,,,color17,001,2021_Nov_01_1522,ProdSingRedo,3.2.3,59.96753356746996,
,,,,151,0,151,0,,,,,,,,,,,,,,,,,,,,,,,,1610.0632490999997,None,,,,,,,,,,,,,,,,,testimony,sing,yellow,151,15,325,1608.1403606999665,None,1608.1403606999665,None,1,1.091685000108555,1608.1403606999665,None,1609.273274499923,None,1609.7830344000831,None,1609.7830344000831,None,n,0.2490634999703616,1609.7830344000831,None,,,color17,001,2021_Nov_01_1522,ProdSingRedo,3.2.3,59.96753356746996,
,,,,152,0,152,0,,,,,,,,,,,,,,,,,,,,,,,,1612.999358400004,None,,,,,,,,,,,,,,,,,passage,new_sing,yellow,152,118,212,1610.591031299904,None,1610.591031299904,None,1,1.3771500999573618,1610.591031299904,None,1612.0112477999646,None,1612.520159699954,None,1612.520159699954,None,n,0.4479857999831438,1612.520159699954,None,,,color17,001,2021_Nov_01_1522,ProdSingRedo,3.2.3,59.96753356746996,
,,,,153,0,153,0,,,,,,,,,,,,,,,,,,,,,,,,1615.7859354999382,None,,,,,,,,,,,,,,,,,reading,new_sing,yellow,153,104,254,1613.5248334000353,None,1613.5248334000353,None,2,1.4351181001402438,1613.5248334000353,None,1615.0012685998809,None,1615.507746499963,None,1615.507746499963,None,n,0.25259790010750294,1615.507746499963,None,,,color17,001,2021_Nov_01_1522,ProdSingRedo,3.2.3,59.96753356746996,
,,,,154,0,154,0,,,,,,,,,,,,,,,,,,,,,,,,1618.0878109999467,None,,,,,,,,,,,,,,,,,sleep,new_sing,yellow,154,96,290,1616.3124764000531,None,1616.3124764000531,None,1,1.1196617998648435,1616.3124764000531,None,1617.4662096998654,None,1617.9886095998809,None,1617.9886095998809,None,n,0.07547749998047948,1617.9886095998809,None,,,color17,001,2021_Nov_01_1522,ProdSingRedo,3.2.3,59.96753356746996,
,,,,155,0,155,0,,,,,,,,,,,,,,,,,,,,,,,,1620.889897099929,None,,,,,,,,,,,,,,,,,society,new_silent,blue,155,158,293,1618.6113851000555,None,1618.6113851000555,None,4,1.5246477001346648,1618.6113851000555,None,1620.188277799869,None,1620.7105723998975,None,1620.7105723998975,None,f,0.145590600091964,1620.7105723998975,None,,,color17,001,2021_Nov_01_1522,ProdSingRedo,3.2.3,59.96753356746996,
,,,,156,0,156,0,,,,,,,,,,,,,,,,,,,,,,,,1623.927811600035,None,,,,,,,,,,,,,,,,,trial,silent,blue,156,68,341,1621.416897200048,None,1621.416897200048,None,1,1.7191695999354124,1621.416897200048,None,1623.1742360999342,None,1623.6958957999013,None,1623.6958957999013,None,n,0.2003254999872297,1623.6958957999013,None,,,color17,001,2021_Nov_01_1522,ProdSingRedo,3.2.3,59.96753356746996,
,,,,157,0,157,0,,,,,,,,,,,,,,,,,,,,,,,,1627.442038499983,None,,,,,,,,,,,,,,,,,crime,silent,blue,157,67,78,1624.4490284000058,None,1624.4490284000058,None,4,1.9111361000686884,1624.4490284000058,None,1626.405155699933,None,1626.9134893999435,None,1626.9134893999435,None,f,0.49489110009744763,1626.9134893999435,None,,,color17,001,2021_Nov_01_1522,ProdSingRedo,3.2.3,59.96753356746996,
,,,,158,0,158,0,,,,,,,,,,,,,,,,,,,,,,,,1630.467174099991,None,,,,,,,,,,,,,,,,,provision,silent,blue,158,75,243,1627.9643308999948,None,1627.9643308999948,None,2,1.5157822000328451,1627.9643308999948,None,1629.5319815999828,None,1630.055027199909,None,1630.055027199909,None,n,0.3772112000733614,1630.055027199909,None,,,color17,001,2021_Nov_01_1522,ProdSingRedo,3.2.3,59.96753356746996,
,,,,159,0,159,0,,,,,,,,,,,,,,,,,,,,,,,,1633.636055599898,None,,,,,,,,,,,,,,,,,count,new_aloud,red,159,126,72,1630.9903658998664,None,1630.9903658998664,None,2,1.7137790999840945,1630.9903658998664,None,1632.7516699000262,None,1633.271268100012,None,1633.271268100012,None,n,0.32882929989136755,1633.271268100012,None,,,color17,001,2021_Nov_01_1522,ProdSingRedo,3.2.3,59.96753356746996,
,,,,160,0,160,0,,,,,,,,,,,,,,,,,,,,,,,,1637.006721700076,None,,,,,,,,,,,,,,,,,straight,aloud,red,160,50,307,1634.1650580000132,None,1634.1650580000132,None,6,1.8506441998761147,1634.1650580000132,None,1636.0332776999567,None,1636.5330940000713,None,1636.5330940000713,None,r,0.4430453998502344,1636.5330940000713,None,,,color17,001,2021_Nov_01_1522,ProdSingRedo,3.2.3,59.96753356746996,
,,,,161,0,161,0,,,,,,,,,,,,,,,,,,,,,,,,1639.7260392000899,None,,,,,,,,,,,,,,,,,power,new_silent,blue,161,165,230,1637.530487800017,None,1637.530487800017,None,3,1.3176696998998523,1637.530487800017,None,1638.8861567000858,None,1639.4015766999219,None,1639.4015766999219,None,n,0.29454819997772574,1639.4015766999219,None,,,color17,001,2021_Nov_01_1522,ProdSingRedo,3.2.3,59.96753356746996,
,,,,162,0,162,0,,,,,,,,,,,,,,,,,,,,,,,,1642.845953400014,None,,,,,,,,,,,,,,,,,concern,new_sing,yellow,162,117,65,1640.2471406999975,None,1640.2471406999975,None,4,1.3130348999984562,1640.2471406999975,None,1641.6067526999395,None,1642.1265256998595,None,1642.1265256998595,None,f,0.6896448999177665,1642.1265256998595,None,,,color17,001,2021_Nov_01_1522,ProdSingRedo,3.2.3,59.96753356746996,
,,,,163,0,163,0,,,,,,,,,,,,,,,,,,,,,,,,1645.2829227000475,None,,,,,,,,,,,,,,,,,author,silent,blue,163,79,15,1643.3718618000858,None,1643.3718618000858,None,2,1.3163270000368357,1643.3718618000858,None,1644.7315356000327,None,1645.2488581999205,None,1645.2488581999205,None,n,0.007265800144523382,1645.2488581999205,None,,,color17,001,2021_Nov_01_1522,ProdSingRedo,3.2.3,59.96753356746996,
,,,,164,0,164,0,,,,,,,,,,,,,,,,,,,,,,,,1648.2189732000697,None,,,,,,,,,,,,,,,,,charter,sing,yellow,164,21,47,1645.8097214999143,None,1645.8097214999143,None,1,1.6144719999283552,1645.8097214999143,None,1647.4639663000125,None,1647.9877877999097,None,1647.9877877999097,None,n,0.2043684001546353,1647.9877877999097,None,,,color17,001,2021_Nov_01_1522,ProdSingRedo,3.2.3,59.96753356746996,
,,,,165,0,165,0,,,,,,,,,,,,,,,,,,,,,,,,1651.6213356999215,None,,,,,,,,,,,,,,,,,grade,sing,yellow,165,0,140,1648.7447550999932,None,1648.7447550999932,None,4,1.8633202000055462,1648.7447550999932,None,1650.6526788999327,None,1651.1599703999236,None,1651.1599703999236,None,f,0.43247160012833774,1651.1599703999236,None,,,color17,001,2021_Nov_01_1522,ProdSingRedo,3.2.3,59.96753356746996,
,,,,166,0,166,0,,,,,,,,,,,,,,,,,,,,,,,,1654.1724862998817,None,,,,,,,,,,,,,,,,,position,new_sing,yellow,166,119,229,1652.1459117999766,None,1652.1459117999766,None,4,1.1178533998318017,1652.1459117999766,None,1653.2837028000504,None,1653.7902760999277,None,1653.7902760999277,None,f,0.34545130003243685,1653.7902760999277,None,,,color17,001,2021_Nov_01_1522,ProdSingRedo,3.2.3,59.96753356746996,
,,,,167,0,167,0,,,,,,,,,,,,,,,,,,,,,,,,1656.4933042000048,None,,,,,,,,,,,,,,,,,rapid,new_sing,yellow,167,97,252,1654.6987729000393,None,1654.6987729000393,None,1,1.053315700031817,1654.6987729000393,None,1655.7925052999053,None,1656.3088986999355,None,1656.3088986999355,None,n,0.14725379995070398,1656.3088986999355,None,,,color17,001,2021_Nov_01_1522,ProdSingRedo,3.2.3,59.96753356746996,
,,,,168,0,168,0,,,,,,,,,,,,,,,,,,,,,,,,1658.9836037999485,None,,,,,,,,,,,,,,,,,object,sing,yellow,168,24,204,1657.0267974999733,None,1657.0267974999733,None,4,1.1653768999967724,1657.0267974999733,None,1658.2444937999826,None,1658.7493803999387,None,1658.7493803999387,None,f,0.1948327999562025,1658.7493803999387,None,,,color17,001,2021_Nov_01_1522,ProdSingRedo,3.2.3,59.96753356746996,
,,,,169,0,169,0,,,,,,,,,,,,,,,,,,,,,,,,1661.5994275999255,None,,,,,,,,,,,,,,,,,marriage,new_aloud,red,169,145,179,1659.5089147998951,None,1659.5089147998951,None,1,1.2031625998206437,1659.5089147998951,None,1660.7652533999644,None,1661.2697284999304,None,1661.2697284999304,None,n,0.29850640008226037,1661.2697284999304,None,,,color17,001,2021_Nov_01_1522,ProdSingRedo,3.2.3,59.96753356746996,
,,,,170,0,170,0,,,,,,,,,,,,,,,,,,,,,,,,1664.4673582999967,None,,,,,,,,,,,,,,,,,mechanical,new_silent,blue,170,178,185,1662.1289544000756,None,1662.1289544000756,None,1,1.3192438001278788,1662.1289544000756,None,1663.5033177000005,None,1664.0235037999228,None,1664.0235037999228,None,n,0.40872459998354316,1664.0235037999228,None,,,color17,001,2021_Nov_01_1522,ProdSingRedo,3.2.3,59.96753356746996,
,,,,171,0,171,0,,,,,,,,,,,,,,,,,,,,,,,,1667.3120095999911,None,,,,,,,,,,,,,,,,,state,new_aloud,red,171,120,303,1664.994311899878,None,1664.994311899878,None,3,1.1974003999494016,1664.994311899878,None,1666.2152638998814,None,1666.7389613999985,None,1666.7389613999985,None,n,0.533211899921298,1666.7389613999985,None,,,color17,001,2021_Nov_01_1522,ProdSingRedo,3.2.3,59.96753356746996,
,,,,172,0,172,0,,,,,,,,,,,,,,,,,,,,,,,,1669.9053565999493,None,,,,,,,,,,,,,,,,,question,aloud,red,172,45,247,1667.8293794000056,None,1667.8293794000056,None,4,1.218644700013101,1667.8293794000056,None,1669.0901935999282,None,1669.6126450998709,None,1669.6126450998709,None,f,0.25951020000502467,1669.6126450998709,None,,,color17,001,2021_Nov_01_1522,ProdSingRedo,3.2.3,59.96753356746996,
,,,,173,0,173,0,,,,,,,,,,,,,,,,,,,,,,,,1672.725004500011,None,,,,,,,,,,,,,,,,,whole,sing,yellow,173,23,355,1670.43281379994,None,1670.43281379994,None,1,1.5034515999723226,1670.43281379994,None,1671.9683668999933,None,1672.4782847999595,None,1672.4782847999595,None,n,0.20996790006756783,1672.4782847999595,None,,,color17,001,2021_Nov_01_1522,ProdSingRedo,3.2.3,59.96753356746996,
,,,,174,0,174,0,,,,,,,,,,,,,,,,,,,,,,,,1676.005736199906,None,,,,,,,,,,,,,,,,,estate,new_silent,blue,174,159,119,1673.2494314999785,None,1673.2494314999785,None,2,1.9268989998381585,1673.2494314999785,None,1675.2283973998856,None,1675.7489626999013,None,1675.7489626999013,None,n,0.22687260014936328,1675.7489626999013,None,,,color17,001,2021_Nov_01_1522,ProdSingRedo,3.2.3,59.96753356746996,
,,,,175,0,175,0,,,,,,,,,,,,,,,,,,,,,,,,1678.5140561999287,None,,,,,,,,,,,,,,,,,business,new_aloud,red,175,144,38,1676.506290399935,None,1676.506290399935,None,4,1.2219165000133216,1676.506290399935,None,1677.7800410999916,None,1678.298746000044,None,1678.298746000044,None,f,0.18145789997652173,1678.298746000044,None,,,color17,001,2021_Nov_01_1522,ProdSingRedo,3.2.3,59.96753356746996,
,,,,176,0,176,0,,,,,,,,,,,,,,,,,,,,,,,,1681.384433399886,None,,,,,,,,,,,,,,,,,revolution,sing,yellow,176,10,264,1679.0446307999082,None,1679.0446307999082,None,1,1.6434628998395056,1679.0446307999082,None,1680.7405181999784,None,1681.2587144998834,None,1681.2587144998834,None,n,0.10120369982905686,1681.2587144998834,None,,,color17,001,2021_Nov_01_1522,ProdSingRedo,3.2.3,59.96753356746996,
,,,,177,0,177,0,,,,,,,,,,,,,,,,,,,,,,,,1684.0862457000185,None,,,,,,,,,,,,,,,,,nation,silent,blue,177,86,198,1681.9103822000325,None,1681.9103822000325,None,1,1.4340832999441773,1681.9103822000325,None,1683.3886283000465,None,1683.9051532000303,None,1683.9051532000303,None,n,0.15909440000541508,1683.9051532000303,None,,,color17,001,2021_Nov_01_1522,ProdSingRedo,3.2.3,59.96753356746996,
,,,,178,0,178,0,,,,,,,,,,,,,,,,,,,,,,,,1686.6496560000814,None,,,,,,,,,,,,,,,,,smell,new_sing,yellow,178,95,291,1684.6095459000207,None,1684.6095459000207,None,1,1.294729399960488,1684.6095459000207,None,1685.949529199861,None,1686.4563440999482,None,1686.4563440999482,None,n,0.17564039980061352,1686.4563440999482,None,,,color17,001,2021_Nov_01_1522,ProdSingRedo,3.2.3,59.96753356746996,
,,,,179,0,179,0,,,,,,,,,,,,,,,,,,,,,,,,1690.6596184999216,None,,,,,,,,,,,,,,,,,trail,new_aloud,red,179,122,336,1687.1657926999032,None,1687.1657926999032,None,4,2.5141055998392403,1687.1657926999032,None,1689.7110570999794,None,1690.2293507000431,None,1690.2293507000431,None,f,0.39483519992791116,1690.2293507000431,None,,,color17,001,2021_Nov_01_1522,ProdSingRedo,3.2.3,59.96753356746996,
,,,,,,,,,,,,,,,,,,,,,,,,,,,,,,,,,,,,,,,,,,,,,,,,,,,,,,,,,,,,,,,,,,,,,,,,,1691.171647500014,None,,,,,,,
