StudyLoop.thisRepN,StudyLoop.thisTrialN,StudyLoop.thisN,StudyLoop.thisIndex,TestLoop.thisRepN,TestLoop.thisTrialN,TestLoop.thisN,TestLoop.thisIndex,textCondition.started,textCondition.stopped,keyCondition.keys,keyCondition.rt,keyCondition.started,keyCondition.stopped,Condition,stim_colors,color_sing,color_aloud,color_silent,textWelcome.started,textWelcome.stopped,keyWelcome.keys,keyWelcome.rt,keyWelcome.started,keyWelcome.stopped,textAloud.started,textAloud.stopped,textSilent.started,textSilent.stopped,textSing.started,textSing.stopped,textBlank500.started,textBlank500.stopped,study_word,study_type,study_color,study_num,study_word_num,textStudy.started,textStudy.stopped,keyStudy.keys,keyStudy.started,keyStudy.stopped,textTestInstructions.started,textTestInstructions.stopped,key_resp_3.keys,key_resp_3.rt,key_resp_3.started,key_resp_3.stopped,testWord,testType,testColor,testN,test_num,test_word_num,textConf.started,textConf.stopped,textConfScale.started,textConfScale.stopped,keyConf.keys,keyConf.rt,keyConf.started,keyConf.stopped,textTestBlank.started,textTestBlank.stopped,textRKN.started,textRKN.stopped,textRKNScale.started,textRKNScale.stopped,keyRKN.keys,keyRKN.rt,keyRKN.started,keyRKN.stopped,textEnd.started,textEnd.stopped,participant,session,date,expName,psychopyVersion,frameRate,
,,,,,,,,16.478029299993068,None,y,2.7208797996863723,16.478029299993068,None,,,,,,,,,,,,,,,,,,,,,,,,,,,,,,,,,,,,,,,,,,,,,,,,,,,,,,,,,,,,,,color24,001,2021_Nov_10_1824,ProdSingRedo,3.2.3,59.997216052100654,
,,,,,,,,,,,,,,ColoredTest,"['yellow', 'red', 'blue']",yellow,red,blue,19.254684700164944,None,space,399.2661387999542,19.254684700164944,None,,,,,,,,,,,,,,,,,,,,,,,,,,,,,,,,,,,,,,,,,,,,,,,,,,,color24,001,2021_Nov_10_1824,ProdSingRedo,3.2.3,59.997216052100654,
0,0,0,0,,,,,,,,,,,,,,,,,,,,,,19.254684700164944,None,19.254684700164944,None,19.254684700164944,None,421.06828220002353,None,bureau,aloud,red,39,37,419.07812590012327,None,None,419.07812590012327,None,,,,,,,,,,,,,,,,,,,,,,,,,,,,,,,,,color24,001,2021_Nov_10_1824,ProdSingRedo,3.2.3,59.997216052100654,
1,0,1,0,,,,,,,,,,,,,,,,,,,,,,,,,,,,423.5860195001587,None,research,sing,yellow,10,261,421.5865758000873,None,None,421.5865758000873,None,,,,,,,,,,,,,,,,,,,,,,,,,,,,,,,,,color24,001,2021_Nov_10_1824,ProdSingRedo,3.2.3,59.997216052100654,
2,0,2,0,,,,,,,,,,,,,,,,,,,,,,,,,,,,426.10275720013306,None,state,sing,yellow,7,303,424.0971546000801,None,None,424.0971546000801,None,,,,,,,,,,,,,,,,,,,,,,,,,,,,,,,,,color24,001,2021_Nov_10_1824,ProdSingRedo,3.2.3,59.997216052100654,
3,0,3,0,,,,,,,,,,,,,,,,,,,,,,,,,,,,428.6197691000998,None,afternoon,aloud,red,35,3,426.6171643999405,None,None,426.6171643999405,None,,,,,,,,,,,,,,,,,,,,,,,,,,,,,,,,,color24,001,2021_Nov_10_1824,ProdSingRedo,3.2.3,59.997216052100654,
4,0,4,0,,,,,,,,,,,,,,,,,,,,,,,,,,,,431.1384801999666,None,management,sing,yellow,8,177,429.1354549000971,None,None,429.1354549000971,None,,,,,,,,,,,,,,,,,,,,,,,,,,,,,,,,,color24,001,2021_Nov_10_1824,ProdSingRedo,3.2.3,59.997216052100654,
5,0,5,0,,,,,,,,,,,,,,,,,,,,,,,,,,,,433.65371169988066,None,light,aloud,red,43,171,431.6494562001899,None,None,431.6494562001899,None,,,,,,,,,,,,,,,,,,,,,,,,,,,,,,,,,color24,001,2021_Nov_10_1824,ProdSingRedo,3.2.3,59.997216052100654,
6,0,6,0,,,,,,,,,,,,,,,,,,,,,,,,,,,,436.1701549999416,None,figure,sing,yellow,22,128,434.1705042999238,None,None,434.1705042999238,None,,,,,,,,,,,,,,,,,,,,,,,,,,,,,,,,,color24,001,2021_Nov_10_1824,ProdSingRedo,3.2.3,59.997216052100654,
7,0,7,0,,,,,,,,,,,,,,,,,,,,,,,,,,,,438.6870174999349,None,welcome,aloud,red,30,354,436.6834244001657,None,None,436.6834244001657,None,,,,,,,,,,,,,,,,,,,,,,,,,,,,,,,,,color24,001,2021_Nov_10_1824,ProdSingRedo,3.2.3,59.997216052100654,
8,0,8,0,,,,,,,,,,,,,,,,,,,,,,,,,,,,441.2039272002876,None,expansion,aloud,red,56,123,439.1962020001374,None,None,439.1962020001374,None,,,,,,,,,,,,,,,,,,,,,,,,,,,,,,,,,color24,001,2021_Nov_10_1824,ProdSingRedo,3.2.3,59.997216052100654,
9,0,9,0,,,,,,,,,,,,,,,,,,,,,,,,,,,,443.7208763002418,None,income,aloud,red,37,159,441.71382040018216,None,None,441.71382040018216,None,,,,,,,,,,,,,,,,,,,,,,,,,,,,,,,,,color24,001,2021_Nov_10_1824,ProdSingRedo,3.2.3,59.997216052100654,
10,0,10,0,,,,,,,,,,,,,,,,,,,,,,,,,,,,446.23772299988195,None,history,silent,blue,61,153,444.24890389991924,None,None,444.24890389991924,None,,,,,,,,,,,,,,,,,,,,,,,,,,,,,,,,,color24,001,2021_Nov_10_1824,ProdSingRedo,3.2.3,59.997216052100654,
11,0,11,0,,,,,,,,,,,,,,,,,,,,,,,,,,,,448.75442099990323,None,waste,silent,blue,89,350,446.7518771002069,None,None,446.7518771002069,None,,,,,,,,,,,,,,,,,,,,,,,,,,,,,,,,,color24,001,2021_Nov_10_1824,ProdSingRedo,3.2.3,59.997216052100654,
12,0,12,0,,,,,,,,,,,,,,,,,,,,,,,,,,,,451.27241099998355,None,mechanical,sing,yellow,25,185,449.2808791999705,None,None,449.2808791999705,None,,,,,,,,,,,,,,,,,,,,,,,,,,,,,,,,,color24,001,2021_Nov_10_1824,ProdSingRedo,3.2.3,59.997216052100654,
13,0,13,0,,,,,,,,,,,,,,,,,,,,,,,,,,,,453.78828570013866,None,graduate,aloud,red,38,141,451.79132470022887,None,None,451.79132470022887,None,,,,,,,,,,,,,,,,,,,,,,,,,,,,,,,,,color24,001,2021_Nov_10_1824,ProdSingRedo,3.2.3,59.997216052100654,
14,0,14,0,,,,,,,,,,,,,,,,,,,,,,,,,,,,456.30488089984283,None,century,sing,yellow,17,45,454.307157299947,None,None,454.307157299947,None,,,,,,,,,,,,,,,,,,,,,,,,,,,,,,,,,color24,001,2021_Nov_10_1824,ProdSingRedo,3.2.3,59.997216052100654,
15,0,15,0,,,,,,,,,,,,,,,,,,,,,,,,,,,,458.82157710008323,None,evidence,aloud,red,49,120,456.82310280017555,None,None,456.82310280017555,None,,,,,,,,,,,,,,,,,,,,,,,,,,,,,,,,,color24,001,2021_Nov_10_1824,ProdSingRedo,3.2.3,59.997216052100654,
16,0,16,0,,,,,,,,,,,,,,,,,,,,,,,,,,,,461.3388371998444,None,native,aloud,red,51,199,459.34620680008084,None,None,459.34620680008084,None,,,,,,,,,,,,,,,,,,,,,,,,,,,,,,,,,color24,001,2021_Nov_10_1824,ProdSingRedo,3.2.3,59.997216052100654,
17,0,17,0,,,,,,,,,,,,,,,,,,,,,,,,,,,,463.8552606999874,None,rapid,aloud,red,42,252,461.85283380001783,None,None,461.85283380001783,None,,,,,,,,,,,,,,,,,,,,,,,,,,,,,,,,,color24,001,2021_Nov_10_1824,ProdSingRedo,3.2.3,59.997216052100654,
18,0,18,0,,,,,,,,,,,,,,,,,,,,,,,,,,,,466.37228460004553,None,judge,sing,yellow,18,166,464.3806584998965,None,None,464.3806584998965,None,,,,,,,,,,,,,,,,,,,,,,,,,,,,,,,,,color24,001,2021_Nov_10_1824,ProdSingRedo,3.2.3,59.997216052100654,
19,0,19,0,,,,,,,,,,,,,,,,,,,,,,,,,,,,468.8889043000527,None,personnel,sing,yellow,0,219,466.8817042000592,None,None,466.8817042000592,None,,,,,,,,,,,,,,,,,,,,,,,,,,,,,,,,,color24,001,2021_Nov_10_1824,ProdSingRedo,3.2.3,59.997216052100654,
20,0,20,0,,,,,,,,,,,,,,,,,,,,,,,,,,,,471.40591449989006,None,conference,silent,blue,79,66,469.4053958002478,None,None,469.4053958002478,None,,,,,,,,,,,,,,,,,,,,,,,,,,,,,,,,,color24,001,2021_Nov_10_1824,ProdSingRedo,3.2.3,59.997216052100654,
21,0,21,0,,,,,,,,,,,,,,,,,,,,,,,,,,,,473.90609019994736,None,charter,sing,yellow,5,47,471.9067688998766,None,None,471.9067688998766,None,,,,,,,,,,,,,,,,,,,,,,,,,,,,,,,,,color24,001,2021_Nov_10_1824,ProdSingRedo,3.2.3,59.997216052100654,
22,0,22,0,,,,,,,,,,,,,,,,,,,,,,,,,,,,476.4219208001159,None,equipment,aloud,red,45,116,474.4310419000685,None,None,474.4310419000685,None,,,,,,,,,,,,,,,,,,,,,,,,,,,,,,,,,color24,001,2021_Nov_10_1824,ProdSingRedo,3.2.3,59.997216052100654,
23,0,23,0,,,,,,,,,,,,,,,,,,,,,,,,,,,,478.93973560025916,None,blind,sing,yellow,9,24,476.9308731998317,None,None,476.9308731998317,None,,,,,,,,,,,,,,,,,,,,,,,,,,,,,,,,,color24,001,2021_Nov_10_1824,ProdSingRedo,3.2.3,59.997216052100654,
24,0,24,0,,,,,,,,,,,,,,,,,,,,,,,,,,,,481.45657090004534,None,guide,sing,yellow,28,147,479.45124450000003,None,None,479.45124450000003,None,,,,,,,,,,,,,,,,,,,,,,,,,,,,,,,,,color24,001,2021_Nov_10_1824,ProdSingRedo,3.2.3,59.997216052100654,
25,0,25,0,,,,,,,,,,,,,,,,,,,,,,,,,,,,483.9732651002705,None,strain,sing,yellow,1,308,481.9690213999711,None,None,481.9690213999711,None,,,,,,,,,,,,,,,,,,,,,,,,,,,,,,,,,color24,001,2021_Nov_10_1824,ProdSingRedo,3.2.3,59.997216052100654,
26,0,26,0,,,,,,,,,,,,,,,,,,,,,,,,,,,,486.4907623999752,None,danger,silent,blue,75,85,484.49090080009773,None,None,484.49090080009773,None,,,,,,,,,,,,,,,,,,,,,,,,,,,,,,,,,color24,001,2021_Nov_10_1824,ProdSingRedo,3.2.3,59.997216052100654,
27,0,27,0,,,,,,,,,,,,,,,,,,,,,,,,,,,,489.0070942998864,None,listen,sing,yellow,26,172,486.99940499989316,None,None,486.99940499989316,None,,,,,,,,,,,,,,,,,,,,,,,,,,,,,,,,,color24,001,2021_Nov_10_1824,ProdSingRedo,3.2.3,59.997216052100654,
28,0,28,0,,,,,,,,,,,,,,,,,,,,,,,,,,,,491.5239380002022,None,division,sing,yellow,11,101,489.52132340008393,None,None,489.52132340008393,None,,,,,,,,,,,,,,,,,,,,,,,,,,,,,,,,,color24,001,2021_Nov_10_1824,ProdSingRedo,3.2.3,59.997216052100654,
29,0,29,0,,,,,,,,,,,,,,,,,,,,,,,,,,,,494.04055549995974,None,prime,aloud,red,48,235,492.0335400002077,None,None,492.0335400002077,None,,,,,,,,,,,,,,,,,,,,,,,,,,,,,,,,,color24,001,2021_Nov_10_1824,ProdSingRedo,3.2.3,59.997216052100654,
30,0,30,0,,,,,,,,,,,,,,,,,,,,,,,,,,,,496.55764750018716,None,generation,silent,blue,77,136,494.5573010002263,None,None,494.5573010002263,None,,,,,,,,,,,,,,,,,,,,,,,,,,,,,,,,,color24,001,2021_Nov_10_1824,ProdSingRedo,3.2.3,59.997216052100654,
31,0,31,0,,,,,,,,,,,,,,,,,,,,,,,,,,,,499.07439800025895,None,error,silent,blue,62,117,497.06738999998197,None,None,497.06738999998197,None,,,,,,,,,,,,,,,,,,,,,,,,,,,,,,,,,color24,001,2021_Nov_10_1824,ProdSingRedo,3.2.3,59.997216052100654,
32,0,32,0,,,,,,,,,,,,,,,,,,,,,,,,,,,,501.59133550012484,None,breath,silent,blue,78,27,499.5880692000501,None,None,499.5880692000501,None,,,,,,,,,,,,,,,,,,,,,,,,,,,,,,,,,color24,001,2021_Nov_10_1824,ProdSingRedo,3.2.3,59.997216052100654,
33,0,33,0,,,,,,,,,,,,,,,,,,,,,,,,,,,,504.10808459995314,None,object,aloud,red,41,204,502.1083986000158,None,None,502.1083986000158,None,,,,,,,,,,,,,,,,,,,,,,,,,,,,,,,,,color24,001,2021_Nov_10_1824,ProdSingRedo,3.2.3,59.997216052100654,
34,0,34,0,,,,,,,,,,,,,,,,,,,,,,,,,,,,506.62522340007126,None,smooth,silent,blue,60,292,504.61633510002866,None,None,504.61633510002866,None,,,,,,,,,,,,,,,,,,,,,,,,,,,,,,,,,color24,001,2021_Nov_10_1824,ProdSingRedo,3.2.3,59.997216052100654,
35,0,35,0,,,,,,,,,,,,,,,,,,,,,,,,,,,,509.14183080010116,None,congress,silent,blue,68,67,507.1393281999044,None,None,507.1393281999044,None,,,,,,,,,,,,,,,,,,,,,,,,,,,,,,,,,color24,001,2021_Nov_10_1824,ProdSingRedo,3.2.3,59.997216052100654,
36,0,36,0,,,,,,,,,,,,,,,,,,,,,,,,,,,,511.6585907000117,None,distance,sing,yellow,13,100,509.65471869986504,None,None,509.65471869986504,None,,,,,,,,,,,,,,,,,,,,,,,,,,,,,,,,,color24,001,2021_Nov_10_1824,ProdSingRedo,3.2.3,59.997216052100654,
37,0,37,0,,,,,,,,,,,,,,,,,,,,,,,,,,,,514.1743387999013,None,childhood,aloud,red,55,49,512.160243100021,None,None,512.160243100021,None,,,,,,,,,,,,,,,,,,,,,,,,,,,,,,,,,color24,001,2021_Nov_10_1824,ProdSingRedo,3.2.3,59.997216052100654,
38,0,38,0,,,,,,,,,,,,,,,,,,,,,,,,,,,,516.6757877999917,None,trash,aloud,red,44,337,514.6740744002163,None,None,514.6740744002163,None,,,,,,,,,,,,,,,,,,,,,,,,,,,,,,,,,color24,001,2021_Nov_10_1824,ProdSingRedo,3.2.3,59.997216052100654,
39,0,39,0,,,,,,,,,,,,,,,,,,,,,,,,,,,,519.1925138002262,None,union,aloud,red,58,344,517.1892702998593,None,None,517.1892702998593,None,,,,,,,,,,,,,,,,,,,,,,,,,,,,,,,,,color24,001,2021_Nov_10_1824,ProdSingRedo,3.2.3,59.997216052100654,
40,0,40,0,,,,,,,,,,,,,,,,,,,,,,,,,,,,521.7097792001441,None,clean,silent,blue,70,51,519.7073686001822,None,None,519.7073686001822,None,,,,,,,,,,,,,,,,,,,,,,,,,,,,,,,,,color24,001,2021_Nov_10_1824,ProdSingRedo,3.2.3,59.997216052100654,
41,0,41,0,,,,,,,,,,,,,,,,,,,,,,,,,,,,524.2261397000402,None,nation,silent,blue,83,198,522.2229110002518,None,None,522.2229110002518,None,,,,,,,,,,,,,,,,,,,,,,,,,,,,,,,,,color24,001,2021_Nov_10_1824,ProdSingRedo,3.2.3,59.997216052100654,
42,0,42,0,,,,,,,,,,,,,,,,,,,,,,,,,,,,526.7428850000724,None,enemy,silent,blue,86,113,524.7377381999977,None,None,524.7377381999977,None,,,,,,,,,,,,,,,,,,,,,,,,,,,,,,,,,color24,001,2021_Nov_10_1824,ProdSingRedo,3.2.3,59.997216052100654,
43,0,43,0,,,,,,,,,,,,,,,,,,,,,,,,,,,,529.2588325999677,None,drink,silent,blue,82,105,527.2590453000739,None,None,527.2590453000739,None,,,,,,,,,,,,,,,,,,,,,,,,,,,,,,,,,color24,001,2021_Nov_10_1824,ProdSingRedo,3.2.3,59.997216052100654,
44,0,44,0,,,,,,,,,,,,,,,,,,,,,,,,,,,,531.7767273001373,None,minor,silent,blue,73,191,529.7672827001661,None,None,529.7672827001661,None,,,,,,,,,,,,,,,,,,,,,,,,,,,,,,,,,color24,001,2021_Nov_10_1824,ProdSingRedo,3.2.3,59.997216052100654,
45,0,45,0,,,,,,,,,,,,,,,,,,,,,,,,,,,,534.2935991999693,None,empty,aloud,red,33,112,532.2785669001751,None,None,532.2785669001751,None,,,,,,,,,,,,,,,,,,,,,,,,,,,,,,,,,color24,001,2021_Nov_10_1824,ProdSingRedo,3.2.3,59.997216052100654,
46,0,46,0,,,,,,,,,,,,,,,,,,,,,,,,,,,,536.8104328000918,None,leader,aloud,red,34,168,534.8075239998288,None,None,534.8075239998288,None,,,,,,,,,,,,,,,,,,,,,,,,,,,,,,,,,color24,001,2021_Nov_10_1824,ProdSingRedo,3.2.3,59.997216052100654,
47,0,47,0,,,,,,,,,,,,,,,,,,,,,,,,,,,,539.3270928002894,None,salary,sing,yellow,29,271,537.3386825001799,None,None,537.3386825001799,None,,,,,,,,,,,,,,,,,,,,,,,,,,,,,,,,,color24,001,2021_Nov_10_1824,ProdSingRedo,3.2.3,59.997216052100654,
48,0,48,0,,,,,,,,,,,,,,,,,,,,,,,,,,,,541.8443734999746,None,block,aloud,red,50,25,539.8421944999136,None,None,539.8421944999136,None,,,,,,,,,,,,,,,,,,,,,,,,,,,,,,,,,color24,001,2021_Nov_10_1824,ProdSingRedo,3.2.3,59.997216052100654,
49,0,49,0,,,,,,,,,,,,,,,,,,,,,,,,,,,,544.3624114999548,None,harmony,silent,blue,67,148,542.3606381001882,None,None,542.3606381001882,None,,,,,,,,,,,,,,,,,,,,,,,,,,,,,,,,,color24,001,2021_Nov_10_1824,ProdSingRedo,3.2.3,59.997216052100654,
50,0,50,0,,,,,,,,,,,,,,,,,,,,,,,,,,,,546.8610835000873,None,build,silent,blue,76,35,544.8619500999339,None,None,544.8619500999339,None,,,,,,,,,,,,,,,,,,,,,,,,,,,,,,,,,color24,001,2021_Nov_10_1824,ProdSingRedo,3.2.3,59.997216052100654,
51,0,51,0,,,,,,,,,,,,,,,,,,,,,,,,,,,,549.3778663999401,None,skill,aloud,red,32,289,547.378125899937,None,None,547.378125899937,None,,,,,,,,,,,,,,,,,,,,,,,,,,,,,,,,,color24,001,2021_Nov_10_1824,ProdSingRedo,3.2.3,59.997216052100654,
52,0,52,0,,,,,,,,,,,,,,,,,,,,,,,,,,,,551.8948293998837,None,group,sing,yellow,20,143,549.8848389000632,None,None,549.8848389000632,None,,,,,,,,,,,,,,,,,,,,,,,,,,,,,,,,,color24,001,2021_Nov_10_1824,ProdSingRedo,3.2.3,59.997216052100654,
53,0,53,0,,,,,,,,,,,,,,,,,,,,,,,,,,,,554.4122162000276,None,contract,silent,blue,85,68,552.4083432001062,None,None,552.4083432001062,None,,,,,,,,,,,,,,,,,,,,,,,,,,,,,,,,,color24,001,2021_Nov_10_1824,ProdSingRedo,3.2.3,59.997216052100654,
54,0,54,0,,,,,,,,,,,,,,,,,,,,,,,,,,,,556.9284335002303,None,carry,aloud,red,46,43,554.9290469000116,None,None,554.9290469000116,None,,,,,,,,,,,,,,,,,,,,,,,,,,,,,,,,,color24,001,2021_Nov_10_1824,ProdSingRedo,3.2.3,59.997216052100654,
55,0,55,0,,,,,,,,,,,,,,,,,,,,,,,,,,,,559.4442289001308,None,motion,aloud,red,47,194,557.4371571000665,None,None,557.4371571000665,None,,,,,,,,,,,,,,,,,,,,,,,,,,,,,,,,,color24,001,2021_Nov_10_1824,ProdSingRedo,3.2.3,59.997216052100654,
56,0,56,0,,,,,,,,,,,,,,,,,,,,,,,,,,,,561.9620972000994,None,match,sing,yellow,15,181,559.9640787001699,None,None,559.9640787001699,None,,,,,,,,,,,,,,,,,,,,,,,,,,,,,,,,,color24,001,2021_Nov_10_1824,ProdSingRedo,3.2.3,59.997216052100654,
57,0,57,0,,,,,,,,,,,,,,,,,,,,,,,,,,,,564.4789074002765,None,short,silent,blue,63,285,562.470678600017,None,None,562.470678600017,None,,,,,,,,,,,,,,,,,,,,,,,,,,,,,,,,,color24,001,2021_Nov_10_1824,ProdSingRedo,3.2.3,59.997216052100654,
58,0,58,0,,,,,,,,,,,,,,,,,,,,,,,,,,,,566.9958359999582,None,balance,silent,blue,72,17,564.992995200213,None,None,564.992995200213,None,,,,,,,,,,,,,,,,,,,,,,,,,,,,,,,,,color24,001,2021_Nov_10_1824,ProdSingRedo,3.2.3,59.997216052100654,
59,0,59,0,,,,,,,,,,,,,,,,,,,,,,,,,,,,569.5127611998469,None,bright,silent,blue,81,29,567.5099809998646,None,None,567.5099809998646,None,,,,,,,,,,,,,,,,,,,,,,,,,,,,,,,,,color24,001,2021_Nov_10_1824,ProdSingRedo,3.2.3,59.997216052100654,
60,0,60,0,,,,,,,,,,,,,,,,,,,,,,,,,,,,572.0296729002148,None,position,aloud,red,54,229,570.0218043001369,None,None,570.0218043001369,None,,,,,,,,,,,,,,,,,,,,,,,,,,,,,,,,,color24,001,2021_Nov_10_1824,ProdSingRedo,3.2.3,59.997216052100654,
61,0,61,0,,,,,,,,,,,,,,,,,,,,,,,,,,,,574.5465919002891,None,society,aloud,red,40,293,572.541588100139,None,None,572.541588100139,None,,,,,,,,,,,,,,,,,,,,,,,,,,,,,,,,,color24,001,2021_Nov_10_1824,ProdSingRedo,3.2.3,59.997216052100654,
62,0,62,0,,,,,,,,,,,,,,,,,,,,,,,,,,,,577.0459205000661,None,opening,sing,yellow,4,205,575.0452014999464,None,None,575.0452014999464,None,,,,,,,,,,,,,,,,,,,,,,,,,,,,,,,,,color24,001,2021_Nov_10_1824,ProdSingRedo,3.2.3,59.997216052100654,
63,0,63,0,,,,,,,,,,,,,,,,,,,,,,,,,,,,579.5491977999918,None,marriage,silent,blue,74,179,577.5471987002529,None,None,577.5471987002529,None,,,,,,,,,,,,,,,,,,,,,,,,,,,,,,,,,color24,001,2021_Nov_10_1824,ProdSingRedo,3.2.3,59.997216052100654,
64,0,64,0,,,,,,,,,,,,,,,,,,,,,,,,,,,,582.0800878000446,None,disease,silent,blue,80,97,580.0781904999167,None,None,580.0781904999167,None,,,,,,,,,,,,,,,,,,,,,,,,,,,,,,,,,color24,001,2021_Nov_10_1824,ProdSingRedo,3.2.3,59.997216052100654,
65,0,65,0,,,,,,,,,,,,,,,,,,,,,,,,,,,,584.5969278998673,None,display,silent,blue,84,98,582.6002147002146,None,None,582.6002147002146,None,,,,,,,,,,,,,,,,,,,,,,,,,,,,,,,,,color24,001,2021_Nov_10_1824,ProdSingRedo,3.2.3,59.997216052100654,
66,0,66,0,,,,,,,,,,,,,,,,,,,,,,,,,,,,587.1136242998764,None,payment,silent,blue,65,215,585.1142544001341,None,None,585.1142544001341,None,,,,,,,,,,,,,,,,,,,,,,,,,,,,,,,,,color24,001,2021_Nov_10_1824,ProdSingRedo,3.2.3,59.997216052100654,
67,0,67,0,,,,,,,,,,,,,,,,,,,,,,,,,,,,589.6306238998659,None,husband,sing,yellow,12,156,587.6291216001846,None,None,587.6291216001846,None,,,,,,,,,,,,,,,,,,,,,,,,,,,,,,,,,color24,001,2021_Nov_10_1824,ProdSingRedo,3.2.3,59.997216052100654,
68,0,68,0,,,,,,,,,,,,,,,,,,,,,,,,,,,,592.1473925001919,None,write,silent,blue,87,358,590.1429626001045,None,None,590.1429626001045,None,,,,,,,,,,,,,,,,,,,,,,,,,,,,,,,,,color24,001,2021_Nov_10_1824,ProdSingRedo,3.2.3,59.997216052100654,
69,0,69,0,,,,,,,,,,,,,,,,,,,,,,,,,,,,594.6644974001683,None,captain,sing,yellow,16,41,592.6634058998898,None,None,592.6634058998898,None,,,,,,,,,,,,,,,,,,,,,,,,,,,,,,,,,color24,001,2021_Nov_10_1824,ProdSingRedo,3.2.3,59.997216052100654,
70,0,70,0,,,,,,,,,,,,,,,,,,,,,,,,,,,,597.1803822000511,None,growth,sing,yellow,19,144,595.1787940999493,None,None,595.1787940999493,None,,,,,,,,,,,,,,,,,,,,,,,,,,,,,,,,,color24,001,2021_Nov_10_1824,ProdSingRedo,3.2.3,59.997216052100654,
71,0,71,0,,,,,,,,,,,,,,,,,,,,,,,,,,,,599.6979916999117,None,session,sing,yellow,6,281,597.6902775000781,None,None,597.6902775000781,None,,,,,,,,,,,,,,,,,,,,,,,,,,,,,,,,,color24,001,2021_Nov_10_1824,ProdSingRedo,3.2.3,59.997216052100654,
72,0,72,0,,,,,,,,,,,,,,,,,,,,,,,,,,,,602.2149598002434,None,dozen,sing,yellow,14,102,600.2179628000595,None,None,600.2179628000595,None,,,,,,,,,,,,,,,,,,,,,,,,,,,,,,,,,color24,001,2021_Nov_10_1824,ProdSingRedo,3.2.3,59.997216052100654,
73,0,73,0,,,,,,,,,,,,,,,,,,,,,,,,,,,,604.731624700129,None,country,aloud,red,53,73,602.7312600999139,None,None,602.7312600999139,None,,,,,,,,,,,,,,,,,,,,,,,,,,,,,,,,,color24,001,2021_Nov_10_1824,ProdSingRedo,3.2.3,59.997216052100654,
74,0,74,0,,,,,,,,,,,,,,,,,,,,,,,,,,,,607.2318019000813,None,stranger,aloud,red,52,309,605.2328607998788,None,None,605.2328607998788,None,,,,,,,,,,,,,,,,,,,,,,,,,,,,,,,,,color24,001,2021_Nov_10_1824,ProdSingRedo,3.2.3,59.997216052100654,
75,0,75,0,,,,,,,,,,,,,,,,,,,,,,,,,,,,609.7488485998474,None,literature,sing,yellow,24,173,607.7556648999453,None,None,607.7556648999453,None,,,,,,,,,,,,,,,,,,,,,,,,,,,,,,,,,color24,001,2021_Nov_10_1824,ProdSingRedo,3.2.3,59.997216052100654,
76,0,76,0,,,,,,,,,,,,,,,,,,,,,,,,,,,,612.2655036002398,None,second,silent,blue,64,278,610.2578993001953,None,None,610.2578993001953,None,,,,,,,,,,,,,,,,,,,,,,,,,,,,,,,,,color24,001,2021_Nov_10_1824,ProdSingRedo,3.2.3,59.997216052100654,
77,0,77,0,,,,,,,,,,,,,,,,,,,,,,,,,,,,614.7822771002539,None,style,sing,yellow,21,311,612.778941700235,None,None,612.778941700235,None,,,,,,,,,,,,,,,,,,,,,,,,,,,,,,,,,color24,001,2021_Nov_10_1824,ProdSingRedo,3.2.3,59.997216052100654,
78,0,78,0,,,,,,,,,,,,,,,,,,,,,,,,,,,,617.2995970998891,None,whole,silent,blue,69,355,615.2935160999186,None,None,615.2935160999186,None,,,,,,,,,,,,,,,,,,,,,,,,,,,,,,,,,color24,001,2021_Nov_10_1824,ProdSingRedo,3.2.3,59.997216052100654,
79,0,79,0,,,,,,,,,,,,,,,,,,,,,,,,,,,,619.815913700033,None,commercial,silent,blue,66,61,617.8148758001626,None,None,617.8148758001626,None,,,,,,,,,,,,,,,,,,,,,,,,,,,,,,,,,color24,001,2021_Nov_10_1824,ProdSingRedo,3.2.3,59.997216052100654,
80,0,80,0,,,,,,,,,,,,,,,,,,,,,,,,,,,,622.33292610012,None,murder,aloud,red,31,195,620.3290536999702,None,None,620.3290536999702,None,,,,,,,,,,,,,,,,,,,,,,,,,,,,,,,,,color24,001,2021_Nov_10_1824,ProdSingRedo,3.2.3,59.997216052100654,
81,0,81,0,,,,,,,,,,,,,,,,,,,,,,,,,,,,624.8497462999076,None,general,silent,blue,71,135,622.8492870000191,None,None,622.8492870000191,None,,,,,,,,,,,,,,,,,,,,,,,,,,,,,,,,,color24,001,2021_Nov_10_1824,ProdSingRedo,3.2.3,59.997216052100654,
82,0,82,0,,,,,,,,,,,,,,,,,,,,,,,,,,,,627.3664437001571,None,pancakes,aloud,red,59,210,625.3706650999375,None,None,625.3706650999375,None,,,,,,,,,,,,,,,,,,,,,,,,,,,,,,,,,color24,001,2021_Nov_10_1824,ProdSingRedo,3.2.3,59.997216052100654,
83,0,83,0,,,,,,,,,,,,,,,,,,,,,,,,,,,,629.8833563001826,None,background,aloud,red,36,16,627.8852984998375,None,None,627.8852984998375,None,,,,,,,,,,,,,,,,,,,,,,,,,,,,,,,,,color24,001,2021_Nov_10_1824,ProdSingRedo,3.2.3,59.997216052100654,
84,0,84,0,,,,,,,,,,,,,,,,,,,,,,,,,,,,632.4001258001663,None,sound,sing,yellow,2,295,630.3973973002285,None,None,630.3973973002285,None,,,,,,,,,,,,,,,,,,,,,,,,,,,,,,,,,color24,001,2021_Nov_10_1824,ProdSingRedo,3.2.3,59.997216052100654,
85,0,85,0,,,,,,,,,,,,,,,,,,,,,,,,,,,,634.9171045999974,None,shape,sing,yellow,23,282,632.9136546002701,None,None,632.9136546002701,None,,,,,,,,,,,,,,,,,,,,,,,,,,,,,,,,,color24,001,2021_Nov_10_1824,ProdSingRedo,3.2.3,59.997216052100654,
86,0,86,0,,,,,,,,,,,,,,,,,,,,,,,,,,,,637.4170933999121,None,beginning,sing,yellow,3,19,635.4178368998691,None,None,635.4178368998691,None,,,,,,,,,,,,,,,,,,,,,,,,,,,,,,,,,color24,001,2021_Nov_10_1824,ProdSingRedo,3.2.3,59.997216052100654,
87,0,87,0,,,,,,,,,,,,,,,,,,,,,,,,,,,,639.933370300103,None,title,sing,yellow,27,331,637.9279478001408,None,None,637.9279478001408,None,,,,,,,,,,,,,,,,,,,,,,,,,,,,,,,,,color24,001,2021_Nov_10_1824,ProdSingRedo,3.2.3,59.997216052100654,
88,0,88,0,,,,,,,,,,,,,,,,,,,,,,,,,,,,642.4507618001662,None,benefit,silent,blue,88,20,640.4468855001032,None,None,640.4468855001032,None,,,,,,,,,,,,,,,,,,,,,,,,,,,,,,,,,color24,001,2021_Nov_10_1824,ProdSingRedo,3.2.3,59.997216052100654,
89,0,89,0,,,,,,,,,,,,,,,,,,,,,,,,,,,,644.9679167000577,None,production,aloud,red,57,240,642.9656728999689,None,None,642.9656728999689,None,,,,,,,,,,,,,,,,,,,,,,,,,,,,,,,,,color24,001,2021_Nov_10_1824,ProdSingRedo,3.2.3,59.997216052100654,
,,,,,,,,,,,,,,,,,,,,,,,,,,,,,,,,,,,,,,,,,,,645.4677479001693,None,k,156.39380299998447,645.4677479001693,None,,,,,,,,,,,,,,,,,,,,,,,,,,,color24,001,2021_Nov_10_1824,ProdSingRedo,3.2.3,59.997216052100654,
,,,,0,0,0,0,,,,,,,,,,,,,,,,,,,,,,,,813.5547023001127,None,,,,,,,,,,,,,,,,,solution,new_sing,yellow,0,113,294,802.4004855002277,None,802.4004855002277,None,4,6.695057000033557,802.4004855002277,None,809.140018499922,None,809.6577216000296,None,809.6577216000296,None,f,3.8616587999276817,809.6577216000296,None,,,color24,001,2021_Nov_10_1824,ProdSingRedo,3.2.3,59.997216052100654,
,,,,1,0,1,0,,,,,,,,,,,,,,,,,,,,,,,,820.0552236000076,None,,,,,,,,,,,,,,,,,bureau,aloud,red,1,39,37,814.0774598000571,None,814.0774598000571,None,6,3.0577209000475705,814.0774598000571,None,817.1719587002881,None,817.6902191000991,None,817.6902191000991,None,r,2.3332430999726057,817.6902191000991,None,,,color24,001,2021_Nov_10_1824,ProdSingRedo,3.2.3,59.997216052100654,
,,,,2,0,2,0,,,,,,,,,,,,,,,,,,,,,,,,828.49850649992,None,,,,,,,,,,,,,,,,,income,aloud,red,2,37,159,820.5773893999867,None,820.5773893999867,None,6,4.95086869969964,820.5773893999867,None,825.5666320002638,None,826.0864921999164,None,826.0864921999164,None,r,2.393360699992627,826.0864921999164,None,,,color24,001,2021_Nov_10_1824,ProdSingRedo,3.2.3,59.997216052100654,
,,,,3,0,3,0,,,,,,,,,,,,,,,,,,,,,,,,842.8565584998578,None,,,,,,,,,,,,,,,,,match,sing,yellow,3,15,181,829.0126558002084,None,829.0126558002084,None,3,10.73073219973594,829.0126558002084,None,839.7881784001365,None,840.3084972999059,None,840.3084972999059,None,n,2.5148784001357853,840.3084972999059,None,,,color24,001,2021_Nov_10_1824,ProdSingRedo,3.2.3,59.997216052100654,
,,,,4,0,4,0,,,,,,,,,,,,,,,,,,,,,,,,848.7561743999831,None,,,,,,,,,,,,,,,,,congress,silent,blue,4,68,67,843.3832781999372,None,843.3832781999372,None,5,2.824164899997413,843.3832781999372,None,846.2540127001703,None,846.780214600265,None,846.780214600265,None,r,1.9393235999159515,846.780214600265,None,,,color24,001,2021_Nov_10_1824,ProdSingRedo,3.2.3,59.997216052100654,
,,,,5,0,5,0,,,,,,,,,,,,,,,,,,,,,,,,857.5782683002762,None,,,,,,,,,,,,,,,,,weight,new_silent,blue,5,155,353,849.2702657999471,None,849.2702657999471,None,5,2.9531713002361357,849.2702657999471,None,852.2657385002822,None,852.788765899837,None,852.788765899837,None,f,4.746716800145805,852.788765899837,None,,,color24,001,2021_Nov_10_1824,ProdSingRedo,3.2.3,59.997216052100654,
,,,,6,0,6,0,,,,,,,,,,,,,,,,,,,,,,,,882.6807519998401,None,,,,,,,,,,,,,,,,,public,new_sing,yellow,6,97,244,858.1001595002599,None,858.1001595002599,None,3,19.915391799993813,858.1001595002599,None,878.0541483000852,None,878.5811463999562,None,878.5811463999562,None,f,4.058401599992067,878.5811463999562,None,,,color24,001,2021_Nov_10_1824,ProdSingRedo,3.2.3,59.997216052100654,
,,,,7,0,7,0,,,,,,,,,,,,,,,,,,,,,,,,887.6266987002455,None,,,,,,,,,,,,,,,,,drama,new_aloud,red,7,140,103,883.2041549002752,None,883.2041549002752,None,1,2.8514140998013318,883.2041549002752,None,886.1086293999106,None,886.6300625000149,None,886.6300625000149,None,n,0.9694322003051639,886.6300625000149,None,,,color24,001,2021_Nov_10_1824,ProdSingRedo,3.2.3,59.997216052100654,
,,,,8,0,8,0,,,,,,,,,,,,,,,,,,,,,,,,891.9174441001378,None,,,,,,,,,,,,,,,,,threat,new_aloud,red,8,125,329,888.1517155999318,None,888.1517155999318,None,1,2.5038665998727083,888.1517155999318,None,890.7087580002844,None,891.2329128002748,None,891.2329128002748,None,n,0.6542199999094009,891.2329128002748,None,,,color24,001,2021_Nov_10_1824,ProdSingRedo,3.2.3,59.997216052100654,
,,,,9,0,9,0,,,,,,,,,,,,,,,,,,,,,,,,899.5601695999503,None,,,,,,,,,,,,,,,,,interview,new_sing,yellow,9,112,165,892.4308277000673,None,892.4308277000673,None,4,4.736712799873203,892.4308277000673,None,897.2125428002328,None,897.733782700263,None,897.733782700263,None,f,1.7937294002622366,897.733782700263,None,,,color24,001,2021_Nov_10_1824,ProdSingRedo,3.2.3,59.997216052100654,
,,,,10,0,10,0,,,,,,,,,,,,,,,,,,,,,,,,904.2766525000334,None,,,,,,,,,,,,,,,,,century,sing,yellow,10,17,45,900.0893811001442,None,900.0893811001442,None,6,1.9110150001943111,900.0893811001442,None,902.0429624002427,None,902.5654787002131,None,902.5654787002131,None,r,1.674113499931991,902.5654787002131,None,,,color24,001,2021_Nov_10_1824,ProdSingRedo,3.2.3,59.997216052100654,
,,,,11,0,11,0,,,,,,,,,,,,,,,,,,,,,,,,912.1785061000846,None,,,,,,,,,,,,,,,,,silence,new_sing,yellow,11,100,288,904.7995148999617,None,904.7995148999617,None,4,4.543677000328898,904.7995148999617,None,909.382426999975,None,909.8961430001073,None,909.8961430001073,None,f,2.2553511997684836,909.8961430001073,None,,,color24,001,2021_Nov_10_1824,ProdSingRedo,3.2.3,59.997216052100654,
,,,,12,0,12,0,,,,,,,,,,,,,,,,,,,,,,,,918.5787233998999,None,,,,,,,,,,,,,,,,,enemy,silent,blue,12,86,113,912.7002224000171,None,912.7002224000171,None,6,3.195379300042987,912.7002224000171,None,915.9468894000165,None,916.4615205000155,None,916.4615205000155,None,r,2.0904167001135647,916.4615205000155,None,,,color24,001,2021_Nov_10_1824,ProdSingRedo,3.2.3,59.997216052100654,
,,,,13,0,13,0,,,,,,,,,,,,,,,,,,,,,,,,925.0448322999291,None,,,,,,,,,,,,,,,,,sound,sing,yellow,13,2,295,919.1068067001179,None,919.1068067001179,None,6,4.332711900118738,919.1068067001179,None,923.4953823001124,None,924.0144795998931,None,924.0144795998931,None,r,0.9931851997971535,924.0144795998931,None,,,color24,001,2021_Nov_10_1824,ProdSingRedo,3.2.3,59.997216052100654,
,,,,14,0,14,0,,,,,,,,,,,,,,,,,,,,,,,,928.328662100248,None,,,,,,,,,,,,,,,,,session,sing,yellow,14,6,281,925.5681329001673,None,925.5681329001673,None,6,1.871414499823004,925.5681329001673,None,927.4914195002057,None,928.0130104999989,None,928.0130104999989,None,r,0.2906404002569616,928.0130104999989,None,,,color24,001,2021_Nov_10_1824,ProdSingRedo,3.2.3,59.997216052100654,
,,,,15,0,15,0,,,,,,,,,,,,,,,,,,,,,,,,941.128585500177,None,,,,,,,,,,,,,,,,,group,sing,yellow,15,20,143,928.8560742000118,None,928.8560742000118,None,4,10.479732799809426,928.8560742000118,None,939.3796486998908,None,939.8991833999753,None,939.8991833999753,None,f,1.2042612000368536,939.8991833999753,None,,,color24,001,2021_Nov_10_1824,ProdSingRedo,3.2.3,59.997216052100654,
,,,,16,0,16,0,,,,,,,,,,,,,,,,,,,,,,,,949.2977113998495,None,,,,,,,,,,,,,,,,,oxygen,new_aloud,red,16,135,209,941.6532665998675,None,941.6532665998675,None,4,4.762380899861455,941.6532665998675,None,946.4522286001593,None,946.9681446999311,None,946.9681446999311,None,n,2.3034875001758337,946.9681446999311,None,,,color24,001,2021_Nov_10_1824,ProdSingRedo,3.2.3,59.997216052100654,
,,,,17,0,17,0,,,,,,,,,,,,,,,,,,,,,,,,953.9140427000821,None,,,,,,,,,,,,,,,,,tennis,new_aloud,red,17,137,323,949.8186566000804,None,949.8186566000804,None,1,2.028825100045651,949.8186566000804,None,951.8899427000433,None,952.4154393998906,None,952.4154393998906,None,n,1.472259999718517,952.4154393998906,None,,,color24,001,2021_Nov_10_1824,ProdSingRedo,3.2.3,59.997216052100654,
,,,,18,0,18,0,,,,,,,,,,,,,,,,,,,,,,,,959.7477488000877,None,,,,,,,,,,,,,,,,,owner,new_sing,yellow,18,105,208,954.4386515002698,None,954.4386515002698,None,3,3.8492212002165616,954.4386515002698,None,958.328894500155,None,958.8511824999005,None,958.8511824999005,None,n,0.8603678001090884,958.8511824999005,None,,,color24,001,2021_Nov_10_1824,ProdSingRedo,3.2.3,59.997216052100654,
,,,,19,0,19,0,,,,,,,,,,,,,,,,,,,,,,,,971.7390677998774,None,,,,,,,,,,,,,,,,,expansion,aloud,red,19,56,123,960.2754198000766,None,960.2754198000766,None,4,9.13208770006895,960.2754198000766,None,969.4488943000324,None,969.9706522002816,None,969.9706522002816,None,n,1.7340986002236605,969.9706522002816,None,,,color24,001,2021_Nov_10_1824,ProdSingRedo,3.2.3,59.997216052100654,
,,,,20,0,20,0,,,,,,,,,,,,,,,,,,,,,,,,977.201583399903,None,,,,,,,,,,,,,,,,,primary,new_silent,blue,20,162,234,972.2567806001753,None,972.2567806001753,None,2,3.431142400018871,972.2567806001753,None,975.7327850000001,None,976.2546709002927,None,976.2546709002927,None,n,0.9129594000987709,976.2546709002927,None,,,color24,001,2021_Nov_10_1824,ProdSingRedo,3.2.3,59.997216052100654,
,,,,21,0,21,0,,,,,,,,,,,,,,,,,,,,,,,,981.8334202002734,None,,,,,,,,,,,,,,,,,society,aloud,red,21,40,293,977.7256944999099,None,977.7256944999099,None,6,2.514353099744767,977.7256944999099,None,980.2815022999421,None,980.8003873000853,None,980.8003873000853,None,r,1.007305100094527,980.8003873000853,None,,,color24,001,2021_Nov_10_1824,ProdSingRedo,3.2.3,59.997216052100654,
,,,,22,0,22,0,,,,,,,,,,,,,,,,,,,,,,,,990.5048187999055,None,,,,,,,,,,,,,,,,,colonel,new_sing,yellow,22,94,55,982.3542857002467,None,982.3542857002467,None,4,4.94932259991765,982.3542857002467,None,987.3454114999622,None,987.8597749001347,None,987.8597749001347,None,f,2.612650599796325,987.8597749001347,None,,,color24,001,2021_Nov_10_1824,ProdSingRedo,3.2.3,59.997216052100654,
,,,,23,0,23,0,,,,,,,,,,,,,,,,,,,,,,,,1000.0173301999457,None,,,,,,,,,,,,,,,,,rapid,aloud,red,23,42,252,991.0272539998405,None,991.0272539998405,None,3,6.380437400192022,991.0272539998405,None,997.4490024000406,None,997.9687502002344,None,997.9687502002344,None,n,2.022868299856782,997.9687502002344,None,,,color24,001,2021_Nov_10_1824,ProdSingRedo,3.2.3,59.997216052100654,
,,,,24,0,24,0,,,,,,,,,,,,,,,,,,,,,,,,1003.517677300144,None,,,,,,,,,,,,,,,,,permit,new_aloud,red,24,120,218,1000.5386852999218,None,1000.5386852999218,None,2,2.108917599543929,1000.5386852999218,None,1002.6993398000486,None,1003.2187537001446,None,1003.2187537001446,None,n,0.26876179967075586,1003.2187537001446,None,,,color24,001,2021_Nov_10_1824,ProdSingRedo,3.2.3,59.997216052100654,
,,,,25,0,25,0,,,,,,,,,,,,,,,,,,,,,,,,1023.8015978001058,None,,,,,,,,,,,,,,,,,height,new_silent,blue,25,175,152,1004.0426624002866,None,1004.0426624002866,None,4,17.532914499752223,1004.0426624002866,None,1021.617650500033,None,1022.1404284001328,None,1022.1404284001328,None,n,1.6351250000298023,1022.1404284001328,None,,,color24,001,2021_Nov_10_1824,ProdSingRedo,3.2.3,59.997216052100654,
,,,,26,0,26,0,,,,,,,,,,,,,,,,,,,,,,,,1029.9174620001577,None,,,,,,,,,,,,,,,,,charter,sing,yellow,26,5,47,1024.3286501001567,None,1024.3286501001567,None,4,3.2550682998262346,1024.3286501001567,None,1027.633653699886,None,1028.1588532002643,None,1028.1588532002643,None,n,1.7283944999799132,1028.1588532002643,None,,,color24,001,2021_Nov_10_1824,ProdSingRedo,3.2.3,59.997216052100654,
,,,,27,0,27,0,,,,,,,,,,,,,,,,,,,,,,,,1035.3548230002634,None,,,,,,,,,,,,,,,,,dream,new_sing,yellow,27,98,104,1030.448616700247,None,1030.448616700247,None,2,3.2466838001273572,1030.448616700247,None,1033.7492030998692,None,1034.2731126002036,None,1034.2731126002036,None,n,1.0464057000353932,1034.2731126002036,None,,,color24,001,2021_Nov_10_1824,ProdSingRedo,3.2.3,59.997216052100654,
,,,,28,0,28,0,,,,,,,,,,,,,,,,,,,,,,,,1042.254608400166,None,,,,,,,,,,,,,,,,,little,new_sing,yellow,28,110,174,1035.8748488998972,None,1035.8748488998972,None,1,2.2850484997034073,1035.8748488998972,None,1038.1939798002131,None,1038.7071046000347,None,1038.7071046000347,None,n,3.508659299928695,1038.7071046000347,None,,,color24,001,2021_Nov_10_1824,ProdSingRedo,3.2.3,59.997216052100654,
,,,,29,0,29,0,,,,,,,,,,,,,,,,,,,,,,,,1045.819720600266,None,,,,,,,,,,,,,,,,,bicycle,new_sing,yellow,29,108,21,1042.7807439998724,None,1042.7807439998724,None,1,1.9469629996456206,1042.7807439998724,None,1044.7714420002885,None,1045.2955466001295,None,1045.2955466001295,None,n,0.488096300046891,1045.2955466001295,None,,,color24,001,2021_Nov_10_1824,ProdSingRedo,3.2.3,59.997216052100654,
,,,,30,0,30,0,,,,,,,,,,,,,,,,,,,,,,,,1056.3720315000974,None,,,,,,,,,,,,,,,,,message,new_silent,blue,30,178,189,1046.346643799916,None,1046.346643799916,None,3,5.629524200223386,1046.346643799916,None,1052.0198968001641,None,1052.5420389999636,None,1052.5420389999636,None,n,3.7936233999207616,1052.5420389999636,None,,,color24,001,2021_Nov_10_1824,ProdSingRedo,3.2.3,59.997216052100654,
,,,,31,0,31,0,,,,,,,,,,,,,,,,,,,,,,,,1067.5715390001424,None,,,,,,,,,,,,,,,,,prime,aloud,red,31,48,235,1056.8919299999252,None,1056.8919299999252,None,5,8.068192600272596,1056.8919299999252,None,1064.9994908999652,None,1065.518150900025,None,1065.518150900025,None,r,2.026229000184685,1065.518150900025,None,,,color24,001,2021_Nov_10_1824,ProdSingRedo,3.2.3,59.997216052100654,
,,,,32,0,32,0,,,,,,,,,,,,,,,,,,,,,,,,1073.954442600254,None,,,,,,,,,,,,,,,,,appeal,new_silent,blue,32,160,9,1068.0989226000383,None,1068.0989226000383,None,2,4.260681000072509,1068.0989226000383,None,1072.4091407000087,None,1072.9266663002782,None,1072.9266663002782,None,n,0.9930060002952814,1072.9266663002782,None,,,color24,001,2021_Nov_10_1824,ProdSingRedo,3.2.3,59.997216052100654,
,,,,33,0,33,0,,,,,,,,,,,,,,,,,,,,,,,,1079.4649956999347,None,,,,,,,,,,,,,,,,,husband,sing,yellow,33,12,156,1074.4849312999286,None,1074.4849312999286,None,6,2.2505724998191,1074.4849312999286,None,1076.7819693000056,None,1077.3131395000964,None,1077.3131395000964,None,r,2.1262728003785014,1077.3131395000964,None,,,color24,001,2021_Nov_10_1824,ProdSingRedo,3.2.3,59.997216052100654,
,,,,34,0,34,0,,,,,,,,,,,,,,,,,,,,,,,,1086.2058017998934,None,,,,,,,,,,,,,,,,,cousin,new_silent,blue,34,166,76,1079.9918356998824,None,1079.9918356998824,None,1,4.111490000039339,1079.9918356998824,None,1084.132607200183,None,1084.6600644001737,None,1084.6600644001737,None,n,1.5156260002404451,1084.6600644001737,None,,,color24,001,2021_Nov_10_1824,ProdSingRedo,3.2.3,59.997216052100654,
,,,,35,0,35,0,,,,,,,,,,,,,,,,,,,,,,,,1093.8905642000027,None,,,,,,,,,,,,,,,,,bright,silent,blue,35,81,29,1086.7310628001578,None,1086.7310628001578,None,3,4.884609000291675,1086.7310628001578,None,1091.6758648999967,None,1092.193760999944,None,1092.193760999944,None,n,1.6699870000593364,1092.193760999944,None,,,color24,001,2021_Nov_10_1824,ProdSingRedo,3.2.3,59.997216052100654,
,,,,36,0,36,0,,,,,,,,,,,,,,,,,,,,,,,,1102.0749150002375,None,,,,,,,,,,,,,,,,,plane,new_sing,yellow,36,114,223,1094.4131391001865,None,1094.4131391001865,None,5,5.202527200337499,1094.4131391001865,None,1099.6551561001688,None,1100.1667725001462,None,1100.1667725001462,None,f,1.8811369999311864,1100.1667725001462,None,,,color24,001,2021_Nov_10_1824,ProdSingRedo,3.2.3,59.997216052100654,
,,,,37,0,37,0,,,,,,,,,,,,,,,,,,,,,,,,1120.2282050000504,None,,,,,,,,,,,,,,,,,military,new_silent,blue,37,154,190,1102.6024193000048,None,1102.6024193000048,None,3,15.893325099721551,1102.6024193000048,None,1118.5380603000522,None,1119.068208700046,None,1119.068208700046,None,f,1.123394399881363,1119.068208700046,None,,,color24,001,2021_Nov_10_1824,ProdSingRedo,3.2.3,59.997216052100654,
,,,,38,0,38,0,,,,,,,,,,,,,,,,,,,,,,,,1133.8944148002192,None,,,,,,,,,,,,,,,,,running,new_aloud,red,38,145,268,1120.7512810998596,None,1120.7512810998596,None,5,10.632548799738288,1120.7512810998596,None,1131.4259430998936,None,1131.935107700061,None,1131.935107700061,None,f,1.9285303996875882,1131.935107700061,None,,,color24,001,2021_Nov_10_1824,ProdSingRedo,3.2.3,59.997216052100654,
,,,,39,0,39,0,,,,,,,,,,,,,,,,,,,,,,,,1140.176465100143,None,,,,,,,,,,,,,,,,,split,new_aloud,red,39,147,299,1134.419452200178,None,1134.419452200178,None,1,3.7241965997964144,1134.419452200178,None,1138.184553900268,None,1138.6939389999025,None,1138.6939389999025,None,n,1.4496896998025477,1138.6939389999025,None,,,color24,001,2021_Nov_10_1824,ProdSingRedo,3.2.3,59.997216052100654,
,,,,40,0,40,0,,,,,,,,,,,,,,,,,,,,,,,,1159.36258610012,None,,,,,,,,,,,,,,,,,count,new_aloud,red,40,131,72,1140.7011792999692,None,1140.7011792999692,None,4,16.546494000125676,1140.7011792999692,None,1157.2922061001882,None,1157.8143143001944,None,1157.8143143001944,None,r,1.5135932001285255,1157.8143143001944,None,,,color24,001,2021_Nov_10_1824,ProdSingRedo,3.2.3,59.997216052100654,
,,,,41,0,41,0,,,,,,,,,,,,,,,,,,,,,,,,1176.5463891001418,None,,,,,,,,,,,,,,,,,general,silent,blue,41,71,135,1159.8889697999693,None,1159.8889697999693,None,1,13.798622600268573,1159.8889697999693,None,1173.7293143998832,None,1174.2497637998313,None,1174.2497637998313,None,f,2.261873099952936,1174.2497637998313,None,,,color24,001,2021_Nov_10_1824,ProdSingRedo,3.2.3,59.997216052100654,
,,,,42,0,42,0,,,,,,,,,,,,,,,,,,,,,,,,1184.1297478000633,None,,,,,,,,,,,,,,,,,build,silent,blue,42,76,35,1177.070308700204,None,1177.070308700204,None,6,5.041310100350529,1177.070308700204,None,1182.1614916999824,None,1182.6815384998918,None,1182.6815384998918,None,f,1.4221872999332845,1182.6815384998918,None,,,color24,001,2021_Nov_10_1824,ProdSingRedo,3.2.3,59.997216052100654,
,,,,43,0,43,0,,,,,,,,,,,,,,,,,,,,,,,,1190.0793940001167,None,,,,,,,,,,,,,,,,,empty,aloud,red,43,33,112,1184.6528409002349,None,1184.6528409002349,None,3,3.4993545999750495,1184.6528409002349,None,1188.1929802000523,None,1188.716011099983,None,1188.716011099983,None,n,1.339669100008905,1188.716011099983,None,,,color24,001,2021_Nov_10_1824,ProdSingRedo,3.2.3,59.997216052100654,
,,,,44,0,44,0,,,,,,,,,,,,,,,,,,,,,,,,1195.9223321001045,None,,,,,,,,,,,,,,,,,present,new_sing,yellow,44,90,231,1190.598887800239,None,1190.598887800239,None,2,2.6086263000033796,1190.598887800239,None,1193.2576012001373,None,1193.7718048999086,None,1193.7718048999086,None,n,2.1236474001780152,1193.7718048999086,None,,,color24,001,2021_Nov_10_1824,ProdSingRedo,3.2.3,59.997216052100654,
,,,,45,0,45,0,,,,,,,,,,,,,,,,,,,,,,,,1212.1489758002572,None,,,,,,,,,,,,,,,,,generation,silent,blue,45,77,136,1196.4418734000064,None,1196.4418734000064,None,3,12.76594359986484,1196.4418734000064,None,1209.2668934999965,None,1209.7736014998518,None,1209.7736014998518,None,f,2.346293500158936,1209.7736014998518,None,,,color24,001,2021_Nov_10_1824,ProdSingRedo,3.2.3,59.997216052100654,
,,,,46,0,46,0,,,,,,,,,,,,,,,,,,,,,,,,1220.1041033002548,None,,,,,,,,,,,,,,,,,youth,new_silent,blue,46,152,359,1212.6730574001558,None,1212.6730574001558,None,2,4.3990994999185205,1212.6730574001558,None,1217.099632800091,None,1217.621331400238,None,1217.621331400238,None,n,2.45096019981429,1217.621331400238,None,,,color24,001,2021_Nov_10_1824,ProdSingRedo,3.2.3,59.997216052100654,
,,,,47,0,47,0,,,,,,,,,,,,,,,,,,,,,,,,1227.0660756998695,None,,,,,,,,,,,,,,,,,volume,new_silent,blue,47,170,349,1220.628866400104,None,1220.628866400104,None,3,5.0830951002426445,1220.628866400104,None,1225.7608244000003,None,1226.2879103999585,None,1226.2879103999585,None,n,0.7519282000139356,1226.2879103999585,None,,,color24,001,2021_Nov_10_1824,ProdSingRedo,3.2.3,59.997216052100654,
,,,,48,0,48,0,,,,,,,,,,,,,,,,,,,,,,,,1237.2165145999752,None,,,,,,,,,,,,,,,,,season,new_sing,yellow,48,93,277,1227.5914969001897,None,1227.5914969001897,None,4,8.191879800055176,1227.5914969001897,None,1235.8142488002777,None,1236.3387025999837,None,1236.3387025999837,None,f,0.8531029997393489,1236.3387025999837,None,,,color24,001,2021_Nov_10_1824,ProdSingRedo,3.2.3,59.997216052100654,
,,,,49,0,49,0,,,,,,,,,,,,,,,,,,,,,,,,1241.349675099831,None,,,,,,,,,,,,,,,,,shape,sing,yellow,49,23,282,1237.7428307998925,None,1237.7428307998925,None,3,1.9529261998832226,1237.7428307998925,None,1239.7493114001118,None,1240.2704107002355,None,1240.2704107002355,None,n,1.041351799853146,1240.2704107002355,None,,,color24,001,2021_Nov_10_1824,ProdSingRedo,3.2.3,59.997216052100654,
,,,,50,0,50,0,,,,,,,,,,,,,,,,,,,,,,,,1249.2023053001612,None,,,,,,,,,,,,,,,,,breath,silent,blue,50,78,27,1241.8869122001342,None,1241.8869122001342,None,3,5.2889161999337375,1241.8869122001342,None,1247.2178139998578,None,1247.7398251001723,None,1247.7398251001723,None,n,1.4278553002513945,1247.7398251001723,None,,,color24,001,2021_Nov_10_1824,ProdSingRedo,3.2.3,59.997216052100654,
,,,,51,0,51,0,,,,,,,,,,,,,,,,,,,,,,,,1263.550927199889,None,,,,,,,,,,,,,,,,,safety,new_silent,blue,51,171,270,1249.7254796000198,None,1249.7254796000198,None,4,11.946402600035071,1249.7254796000198,None,1261.7236264999956,None,1262.2387010999955,None,1262.2387010999955,None,n,1.2731778998859227,1262.2387010999955,None,,,color24,001,2021_Nov_10_1824,ProdSingRedo,3.2.3,59.997216052100654,
,,,,52,0,52,0,,,,,,,,,,,,,,,,,,,,,,,,1275.4025174998678,None,,,,,,,,,,,,,,,,,danger,silent,blue,52,75,85,1264.079415500164,None,1264.079415500164,None,5,9.224051799625158,1264.079415500164,None,1273.3394638001919,None,1273.8618073002435,None,1273.8618073002435,None,f,1.5058650998398662,1273.8618073002435,None,,,color24,001,2021_Nov_10_1824,ProdSingRedo,3.2.3,59.997216052100654,
,,,,53,0,53,0,,,,,,,,,,,,,,,,,,,,,,,,1279.5538865001872,None,,,,,,,,,,,,,,,,,salary,sing,yellow,53,29,271,1275.9340941999108,None,1275.9340941999108,None,6,2.0498333000577986,1275.9340941999108,None,1278.0459067001939,None,1278.5584960998967,None,1278.5584960998967,None,r,0.9692518003284931,1278.5584960998967,None,,,color24,001,2021_Nov_10_1824,ProdSingRedo,3.2.3,59.997216052100654,
,,,,54,0,54,0,,,,,,,,,,,,,,,,,,,,,,,,1284.95298000006,None,,,,,,,,,,,,,,,,,welcome,aloud,red,54,30,354,1280.0782723999582,None,1280.0782723999582,None,5,3.6175309997051954,1280.0782723999582,None,1283.735466199927,None,1284.2554665999487,None,1284.2554665999487,None,f,0.6723724999465048,1284.2554665999487,None,,,color24,001,2021_Nov_10_1824,ProdSingRedo,3.2.3,59.997216052100654,
,,,,55,0,55,0,,,,,,,,,,,,,,,,,,,,,,,,1289.6034502000548,None,,,,,,,,,,,,,,,,,brief,new_sing,yellow,55,115,28,1285.479107100051,None,1285.479107100051,None,2,2.6168102002702653,1285.479107100051,None,1288.137219300028,None,1288.6582218999974,None,1288.6582218999974,None,n,0.9096511001698673,1288.6582218999974,None,,,color24,001,2021_Nov_10_1824,ProdSingRedo,3.2.3,59.997216052100654,
,,,,56,0,56,0,,,,,,,,,,,,,,,,,,,,,,,,1300.4045275002718,None,,,,,,,,,,,,,,,,,provision,new_silent,blue,56,159,243,1290.1305495998822,None,1290.1305495998822,None,1,6.525253999978304,1290.1305495998822,None,1296.7022429001518,None,1297.2284141001292,None,1297.2284141001292,None,n,3.147621199954301,1297.2284141001292,None,,,color24,001,2021_Nov_10_1824,ProdSingRedo,3.2.3,59.997216052100654,
,,,,57,0,57,0,,,,,,,,,,,,,,,,,,,,,,,,1321.571616299916,None,,,,,,,,,,,,,,,,,mayor,new_silent,blue,57,151,183,1300.9308667001314,None,1300.9308667001314,None,3,18.94912280002609,1300.9308667001314,None,1319.9282773998566,None,1320.44735340029,None,1320.44735340029,None,n,1.0884802001528442,1320.44735340029,None,,,color24,001,2021_Nov_10_1824,ProdSingRedo,3.2.3,59.997216052100654,
,,,,58,0,58,0,,,,,,,,,,,,,,,,,,,,,,,,1330.257349499967,None,,,,,,,,,,,,,,,,,short,silent,blue,58,63,285,1322.0943415998481,None,1322.0943415998481,None,6,2.68144220020622,1322.0943415998481,None,1324.8192388000898,None,1325.329551700037,None,1325.329551700037,None,r,4.894293100107461,1325.329551700037,None,,,color24,001,2021_Nov_10_1824,ProdSingRedo,3.2.3,59.997216052100654,
,,,,59,0,59,0,,,,,,,,,,,,,,,,,,,,,,,,1336.813752700109,None,,,,,,,,,,,,,,,,,straight,new_aloud,red,59,141,307,1330.782154200133,None,1330.782154200133,None,1,4.3373874998651445,1330.782154200133,None,1335.1706070001237,None,1335.6810702001676,None,1335.6810702001676,None,f,1.1024008998647332,1335.6810702001676,None,,,color24,001,2021_Nov_10_1824,ProdSingRedo,3.2.3,59.997216052100654,
,,,,60,0,60,0,,,,,,,,,,,,,,,,,,,,,,,,1350.774653899949,None,,,,,,,,,,,,,,,,,profession,new_silent,blue,60,156,241,1337.3344101998955,None,1337.3344101998955,None,4,11.209534300025553,1337.3344101998955,None,1348.593450000044,None,1349.1131186001003,None,1349.1131186001003,None,f,1.630838599987328,1349.1131186001003,None,,,color24,001,2021_Nov_10_1824,ProdSingRedo,3.2.3,59.997216052100654,
,,,,61,0,61,0,,,,,,,,,,,,,,,,,,,,,,,,1361.6426488002762,None,,,,,,,,,,,,,,,,,figure,sing,yellow,61,22,128,1351.3001358001493,None,1351.3001358001493,None,4,8.875688999891281,1351.3001358001493,None,1360.2196577000432,None,1360.7451407001354,None,1360.7451407001354,None,f,0.8625659001991153,1360.7451407001354,None,,,color24,001,2021_Nov_10_1824,ProdSingRedo,3.2.3,59.997216052100654,
,,,,62,0,62,0,,,,,,,,,,,,,,,,,,,,,,,,1369.792270900216,None,,,,,,,,,,,,,,,,,thing,new_aloud,red,62,126,328,1362.16357279988,None,1362.16357279988,None,2,5.332025300245732,1362.16357279988,None,1367.5236271000467,None,1368.0432815002277,None,1368.0432815002277,None,n,1.7245216998271644,1368.0432815002277,None,,,color24,001,2021_Nov_10_1824,ProdSingRedo,3.2.3,59.997216052100654,
,,,,63,0,63,0,,,,,,,,,,,,,,,,,,,,,,,,1376.7779597002082,None,,,,,,,,,,,,,,,,,spoke,new_aloud,red,63,138,300,1370.3186810002662,None,1370.3186810002662,None,1,4.977128300350159,1370.3186810002662,None,1375.343828999903,None,1375.863573799841,None,1375.863573799841,None,f,0.8722852999344468,1375.863573799841,None,,,color24,001,2021_Nov_10_1824,ProdSingRedo,3.2.3,59.997216052100654,
,,,,64,0,64,0,,,,,,,,,,,,,,,,,,,,,,,,1387.5270088999532,None,,,,,,,,,,,,,,,,,style,sing,yellow,64,21,311,1377.3034961000085,None,1377.3034961000085,None,4,8.568002699874341,1377.3034961000085,None,1385.906143100001,None,1386.429607400205,None,1386.429607400205,None,f,1.0662297001108527,1386.429607400205,None,,,color24,001,2021_Nov_10_1824,ProdSingRedo,3.2.3,59.997216052100654,
,,,,65,0,65,0,,,,,,,,,,,,,,,,,,,,,,,,1403.0945398001932,None,,,,,,,,,,,,,,,,,background,aloud,red,65,36,16,1388.056510699913,None,1388.056510699913,None,4,13.271547200158238,1388.056510699913,None,1401.3782378998585,None,1401.9093924998306,None,1401.9093924998306,None,f,1.1544873001985252,1401.9093924998306,None,,,color24,001,2021_Nov_10_1824,ProdSingRedo,3.2.3,59.997216052100654,
,,,,66,0,66,0,,,,,,,,,,,,,,,,,,,,,,,,1410.4778716000728,None,,,,,,,,,,,,,,,,,mankind,new_sing,yellow,66,104,178,1403.6230442002416,None,1403.6230442002416,None,1,5.064889499917626,1403.6230442002416,None,1408.7268794002011,None,1409.2545149000362,None,1409.2545149000362,None,n,1.1853610998950899,1409.2545149000362,None,,,color24,001,2021_Nov_10_1824,ProdSingRedo,3.2.3,59.997216052100654,
,,,,67,0,67,0,,,,,,,,,,,,,,,,,,,,,,,,1423.3387481998652,None,,,,,,,,,,,,,,,,,suspect,new_aloud,red,67,142,318,1411.0041200001724,None,1411.0041200001724,None,3,8.715929300058633,1411.0041200001724,None,1419.7599760000594,None,1420.2860765000805,None,1420.2860765000805,None,n,3.0337494001723826,1420.2860765000805,None,,,color24,001,2021_Nov_10_1824,ProdSingRedo,3.2.3,59.997216052100654,
,,,,68,0,68,0,,,,,,,,,,,,,,,,,,,,,,,,1430.8459960999899,None,,,,,,,,,,,,,,,,,voice,new_sing,yellow,68,118,348,1423.8724875999615,None,1423.8724875999615,None,5,5.103449400048703,1423.8724875999615,None,1429.02605269989,None,1429.5478509999812,None,1429.5478509999812,None,f,1.2600565003231168,1429.5478509999812,None,,,color24,001,2021_Nov_10_1824,ProdSingRedo,3.2.3,59.997216052100654,
,,,,69,0,69,0,,,,,,,,,,,,,,,,,,,,,,,,1441.835542500019,None,,,,,,,,,,,,,,,,,candidate,new_sing,yellow,69,117,39,1431.375627900008,None,1431.375627900008,None,1,4.400600700173527,1431.375627900008,None,1435.8246201998554,None,1436.354137599934,None,1436.354137599934,None,n,5.445737099740654,1436.354137599934,None,,,color24,001,2021_Nov_10_1824,ProdSingRedo,3.2.3,59.997216052100654,
,,,,70,0,70,0,,,,,,,,,,,,,,,,,,,,,,,,1445.8055122001097,None,,,,,,,,,,,,,,,,,graduate,aloud,red,70,38,141,1442.3598012002185,None,1442.3598012002185,None,6,2.0880712997168303,1442.3598012002185,None,1444.493171500042,None,1445.019838000182,None,1445.019838000182,None,r,0.7636934998445213,1445.019838000182,None,,,color24,001,2021_Nov_10_1824,ProdSingRedo,3.2.3,59.997216052100654,
,,,,71,0,71,0,,,,,,,,,,,,,,,,,,,,,,,,1452.8150808000937,None,,,,,,,,,,,,,,,,,second,silent,blue,71,64,278,1446.3193206000142,None,1446.3193206000142,None,3,4.248278200160712,1446.3193206000142,None,1450.5919977999292,None,1451.1120703001507,None,1451.1120703001507,None,n,1.6637292997911572,1451.1120703001507,None,,,color24,001,2021_Nov_10_1824,ProdSingRedo,3.2.3,59.997216052100654,
,,,,72,0,72,0,,,,,,,,,,,,,,,,,,,,,,,,1458.6486451998353,None,,,,,,,,,,,,,,,,,native,aloud,red,72,51,199,1453.3449264001101,None,1453.3449264001101,None,5,3.2069350997917354,1453.3449264001101,None,1456.5999280000106,None,1457.1185400001705,None,1457.1185400001705,None,f,1.5053638997487724,1457.1185400001705,None,,,color24,001,2021_Nov_10_1824,ProdSingRedo,3.2.3,59.997216052100654,
,,,,73,0,73,0,,,,,,,,,,,,,,,,,,,,,,,,1464.6662317998707,None,,,,,,,,,,,,,,,,,object,aloud,red,73,41,204,1459.1760599999689,None,1459.1760599999689,None,4,3.7916736002080142,1459.1760599999689,None,1462.9929990000091,None,1463.5241354000755,None,1463.5241354000755,None,f,1.116096599958837,1463.5241354000755,None,,,color24,001,2021_Nov_10_1824,ProdSingRedo,3.2.3,59.997216052100654,
,,,,74,0,74,0,,,,,,,,,,,,,,,,,,,,,,,,1469.624064899981,None,,,,,,,,,,,,,,,,,right,new_aloud,red,74,133,265,1465.1917181001045,None,1465.1917181001045,None,1,2.83221590006724,1465.1917181001045,None,1468.0537378001027,None,1468.569653000217,None,1468.569653000217,None,n,1.0142620000988245,1468.569653000217,None,,,color24,001,2021_Nov_10_1824,ProdSingRedo,3.2.3,59.997216052100654,
,,,,75,0,75,0,,,,,,,,,,,,,,,,,,,,,,,,1473.8332887999713,None,,,,,,,,,,,,,,,,,mechanical,sing,yellow,75,25,185,1470.1512811998837,None,1470.1512811998837,None,1,2.0725828004069626,1470.1512811998837,None,1472.265510799829,None,1472.7909189001657,None,1472.7909189001657,None,n,1.0172903002239764,1472.7909189001657,None,,,color24,001,2021_Nov_10_1824,ProdSingRedo,3.2.3,59.997216052100654,
,,,,76,0,76,0,,,,,,,,,,,,,,,,,,,,,,,,1483.0004425002262,None,,,,,,,,,,,,,,,,,country,aloud,red,76,53,73,1474.3602944002487,None,1474.3602944002487,None,4,6.767642700113356,1474.3602944002487,None,1481.1775644002482,None,1481.7100149001926,None,1481.7100149001926,None,f,1.2578825000673532,1481.7100149001926,None,,,color24,001,2021_Nov_10_1824,ProdSingRedo,3.2.3,59.997216052100654,
,,,,77,0,77,0,,,,,,,,,,,,,,,,,,,,,,,,1489.4849046999589,None,,,,,,,,,,,,,,,,,carry,aloud,red,77,46,43,1483.5279542999342,None,1483.5279542999342,None,2,3.264156499877572,1483.5279542999342,None,1486.8359111999162,None,1487.355545700062,None,1487.355545700062,None,n,2.100854199845344,1487.355545700062,None,,,color24,001,2021_Nov_10_1824,ProdSingRedo,3.2.3,59.997216052100654,
,,,,78,0,78,0,,,,,,,,,,,,,,,,,,,,,,,,1496.4673303002492,None,,,,,,,,,,,,,,,,,personnel,sing,yellow,78,0,219,1490.0178843000904,None,1490.0178843000904,None,4,4.454085899982601,1490.0178843000904,None,1494.514843000099,None,1495.0344338002615,None,1495.0344338002615,None,f,1.405838499777019,1495.0344338002615,None,,,color24,001,2021_Nov_10_1824,ProdSingRedo,3.2.3,59.997216052100654,
,,,,79,0,79,0,,,,,,,,,,,,,,,,,,,,,,,,1500.2181885000318,None,,,,,,,,,,,,,,,,,childhood,aloud,red,79,55,49,1496.989613399841,None,1496.989613399841,None,6,1.650734799914062,1496.989613399841,None,1498.6809163000435,None,1499.2025016001426,None,1499.2025016001426,None,r,0.9894984001293778,1499.2025016001426,None,,,color24,001,2021_Nov_10_1824,ProdSingRedo,3.2.3,59.997216052100654,
,,,,80,0,80,0,,,,,,,,,,,,,,,,,,,,,,,,1506.750992000103,None,,,,,,,,,,,,,,,,,leader,aloud,red,80,34,168,1500.7439723000862,None,1500.7439723000862,None,1,3.2967310999520123,1500.7439723000862,None,1504.0861555999145,None,1504.6041760002263,None,1504.6041760002263,None,f,2.1077155000530183,1504.6041760002263,None,,,color24,001,2021_Nov_10_1824,ProdSingRedo,3.2.3,59.997216052100654,
,,,,81,0,81,0,,,,,,,,,,,,,,,,,,,,,,,,1513.002099300269,None,,,,,,,,,,,,,,,,,blind,sing,yellow,81,9,24,1507.2665670998394,None,1507.2665670998394,None,6,3.6936914999969304,1507.2665670998394,None,1510.9968008999713,None,1511.5236245999113,None,1511.5236245999113,None,r,1.452323299832642,1511.5236245999113,None,,,color24,001,2021_Nov_10_1824,ProdSingRedo,3.2.3,59.997216052100654,
,,,,82,0,82,0,,,,,,,,,,,,,,,,,,,,,,,,1520.902690200135,None,,,,,,,,,,,,,,,,,instrument,new_sing,yellow,82,96,163,1513.5304828998633,None,1513.5304828998633,None,3,5.285491100046784,1513.5304828998633,None,1518.8690952998586,None,1519.3895749002695,None,1519.3895749002695,None,f,1.4824266000650823,1519.3895749002695,None,,,color24,001,2021_Nov_10_1824,ProdSingRedo,3.2.3,59.997216052100654,
,,,,83,0,83,0,,,,,,,,,,,,,,,,,,,,,,,,1535.3614361998625,None,,,,,,,,,,,,,,,,,management,sing,yellow,83,8,177,1521.43289860012,None,1521.43289860012,None,3,12.543440999928862,1521.43289860012,None,1534.0272586001083,None,1534.5439952001907,None,1534.5439952001907,None,n,0.7916260999627411,1534.5439952001907,None,,,color24,001,2021_Nov_10_1824,ProdSingRedo,3.2.3,59.997216052100654,
,,,,84,0,84,0,,,,,,,,,,,,,,,,,,,,,,,,1540.9210141999647,None,,,,,,,,,,,,,,,,,display,silent,blue,84,84,98,1535.8662735000253,None,1535.8662735000253,None,3,3.5497198002412915,1535.8662735000253,None,1539.4764209999703,None,1539.9915089998394,None,1539.9915089998394,None,n,0.9046058999374509,1539.9915089998394,None,,,color24,001,2021_Nov_10_1824,ProdSingRedo,3.2.3,59.997216052100654,
,,,,85,0,85,0,,,,,,,,,,,,,,,,,,,,,,,,1548.0878607002087,None,,,,,,,,,,,,,,,,,balance,silent,blue,85,72,17,1541.4448259999044,None,1541.4448259999044,None,6,4.411151899956167,1541.4448259999044,None,1545.904156200122,None,1546.4244492002763,None,1546.4244492002763,None,r,1.6394960000179708,1546.4244492002763,None,,,color24,001,2021_Nov_10_1824,ProdSingRedo,3.2.3,59.997216052100654,
,,,,86,0,86,0,,,,,,,,,,,,,,,,,,,,,,,,1554.1876819999889,None,,,,,,,,,,,,,,,,,motion,aloud,red,86,47,194,1548.6091387001798,None,1548.6091387001798,None,4,4.054761900100857,1548.6091387001798,None,1552.6951206000522,None,1553.2044987999834,None,1553.2044987999834,None,f,0.9474371997639537,1553.2044987999834,None,,,color24,001,2021_Nov_10_1824,ProdSingRedo,3.2.3,59.997216052100654,
,,,,87,0,87,0,,,,,,,,,,,,,,,,,,,,,,,,1563.6475185998715,None,,,,,,,,,,,,,,,,,population,new_sing,yellow,87,103,227,1554.7188023002818,None,1554.7188023002818,None,1,7.11287650000304,1554.7188023002818,None,1561.868036000058,None,1562.3819690002128,None,1562.3819690002128,None,n,1.2417906001210213,1562.3819690002128,None,,,color24,001,2021_Nov_10_1824,ProdSingRedo,3.2.3,59.997216052100654,
,,,,88,0,88,0,,,,,,,,,,,,,,,,,,,,,,,,1572.5798573000357,None,,,,,,,,,,,,,,,,,write,silent,blue,88,87,358,1564.1630107001401,None,1564.1630107001401,None,4,4.604926300235093,1564.1630107001401,None,1568.8108040001243,None,1569.3236185000278,None,1569.3236185000278,None,f,3.2280330997891724,1569.3236185000278,None,,,color24,001,2021_Nov_10_1824,ProdSingRedo,3.2.3,59.997216052100654,
,,,,89,0,89,0,,,,,,,,,,,,,,,,,,,,,,,,1578.281248900108,None,,,,,,,,,,,,,,,,,incident,new_sing,yellow,89,91,158,1573.0942820999771,None,1573.0942820999771,None,1,3.57741570007056,1573.0942820999771,None,1576.6993149002083,None,1577.2136353002861,None,1577.2136353002861,None,n,1.0503127998672426,1577.2136353002861,None,,,color24,001,2021_Nov_10_1824,ProdSingRedo,3.2.3,59.997216052100654,
,,,,90,0,90,0,,,,,,,,,,,,,,,,,,,,,,,,1583.9477718002163,None,,,,,,,,,,,,,,,,,corner,new_silent,blue,90,164,69,1578.7874886998907,None,1578.7874886998907,None,3,3.0362730999477208,1578.7874886998907,None,1581.8498125001788,None,1582.3649646001868,None,1582.3649646001868,None,n,1.5629401998594403,1582.3649646001868,None,,,color24,001,2021_Nov_10_1824,ProdSingRedo,3.2.3,59.997216052100654,
,,,,91,0,91,0,,,,,,,,,,,,,,,,,,,,,,,,1592.7483109002933,None,,,,,,,,,,,,,,,,,appearance,new_sing,yellow,91,95,10,1584.4505139002576,None,1584.4505139002576,None,1,5.733130700420588,1584.4505139002576,None,1590.2192452000454,None,1590.7321894001216,None,1590.7321894001216,None,n,1.9957481999881566,1590.7321894001216,None,,,color24,001,2021_Nov_10_1824,ProdSingRedo,3.2.3,59.997216052100654,
,,,,92,0,92,0,,,,,,,,,,,,,,,,,,,,,,,,1601.414938800037,None,,,,,,,,,,,,,,,,,dozen,sing,yellow,92,14,102,1593.2502834000625,None,1593.2502834000625,None,3,6.341408399865031,1593.2502834000625,None,1599.6172964000143,None,1600.1316590998322,None,1600.1316590998322,None,n,1.2519712001085281,1600.1316590998322,None,,,color24,001,2021_Nov_10_1824,ProdSingRedo,3.2.3,59.997216052100654,
,,,,93,0,93,0,,,,,,,,,,,,,,,,,,,,,,,,1607.4002972999588,None,,,,,,,,,,,,,,,,,piece,new_aloud,red,93,130,221,1601.91535030026,None,1601.91535030026,None,4,3.972362100146711,1601.91535030026,None,1605.9217344000936,None,1606.4321341998875,None,1606.4321341998875,None,f,0.9435376999899745,1606.4321341998875,None,,,color24,001,2021_Nov_10_1824,ProdSingRedo,3.2.3,59.997216052100654,
,,,,94,0,94,0,,,,,,,,,,,,,,,,,,,,,,,,1612.8761120000854,None,,,,,,,,,,,,,,,,,pancakes,aloud,red,94,59,210,1607.9184475000948,None,1607.9184475000948,None,1,2.0252388999797404,1607.9184475000948,None,1609.9724276000634,None,1610.482385700103,None,1610.482385700103,None,n,2.366048399824649,1610.482385700103,None,,,color24,001,2021_Nov_10_1824,ProdSingRedo,3.2.3,59.997216052100654,
,,,,95,0,95,0,,,,,,,,,,,,,,,,,,,,,,,,1623.0342133999802,None,,,,,,,,,,,,,,,,,listen,sing,yellow,95,26,172,1613.3983014998958,None,1613.3983014998958,None,2,7.633539700414985,1613.3983014998958,None,1621.0520595000125,None,1621.5666844001971,None,1621.5666844001971,None,f,1.4491480998694897,1621.5666844001971,None,,,color24,001,2021_Nov_10_1824,ProdSingRedo,3.2.3,59.997216052100654,
,,,,96,0,96,0,,,,,,,,,,,,,,,,,,,,,,,,1632.9505940000527,None,,,,,,,,,,,,,,,,,citizen,new_sing,yellow,96,119,50,1623.538203000091,None,1623.538203000091,None,2,6.229452499654144,1623.538203000091,None,1629.7865304001607,None,1630.3002785001881,None,1630.3002785001881,None,f,2.6275023999623954,1630.3002785001881,None,,,color24,001,2021_Nov_10_1824,ProdSingRedo,3.2.3,59.997216052100654,
,,,,97,0,97,0,,,,,,,,,,,,,,,,,,,,,,,,1640.301427300088,None,,,,,,,,,,,,,,,,,distance,sing,yellow,97,13,100,1633.4544425001368,None,1633.4544425001368,None,4,4.657263800036162,1633.4544425001368,None,1638.1438609999605,None,1638.651185899973,None,1638.651185899973,None,f,1.6286945999599993,1638.651185899973,None,,,color24,001,2021_Nov_10_1824,ProdSingRedo,3.2.3,59.997216052100654,
,,,,98,0,98,0,,,,,,,,,,,,,,,,,,,,,,,,1670.6321237999946,None,,,,,,,,,,,,,,,,,music,new_aloud,red,98,143,196,1640.8032970000058,None,1640.8032970000058,None,4,22.97284789988771,1640.8032970000058,None,1663.8302480001003,None,1664.3485472002067,None,1664.3485472002067,None,f,6.251408900134265,1664.3485472002067,None,,,color24,001,2021_Nov_10_1824,ProdSingRedo,3.2.3,59.997216052100654,
,,,,99,0,99,0,,,,,,,,,,,,,,,,,,,,,,,,1680.364464700222,None,,,,,,,,,,,,,,,,,medicine,new_sing,yellow,99,102,186,1671.1518001998775,None,1671.1518001998775,None,5,7.93668879987672,1671.1518001998775,None,1679.125252299942,None,1679.6456937999465,None,1679.6456937999465,None,f,0.6826979001052678,1679.6456937999465,None,,,color24,001,2021_Nov_10_1824,ProdSingRedo,3.2.3,59.997216052100654,
,,,,100,0,100,0,,,,,,,,,,,,,,,,,,,,,,,,1686.7801047000103,None,,,,,,,,,,,,,,,,,religion,new_silent,blue,100,163,258,1680.8923022998497,None,1680.8923022998497,None,3,3.683476499747485,1680.8923022998497,None,1684.6120513998903,None,1685.1251082001254,None,1685.1251082001254,None,f,1.6191217000596225,1685.1251082001254,None,,,color24,001,2021_Nov_10_1824,ProdSingRedo,3.2.3,59.997216052100654,
,,,,101,0,101,0,,,,,,,,,,,,,,,,,,,,,,,,1692.4818883002736,None,,,,,,,,,,,,,,,,,equipment,aloud,red,101,45,116,1687.305565000046,None,1687.305565000046,None,5,3.222566199954599,1687.305565000046,None,1690.5779745001346,None,1691.1093355002813,None,1691.1093355002813,None,f,1.3388499999418855,1691.1093355002813,None,,,color24,001,2021_Nov_10_1824,ProdSingRedo,3.2.3,59.997216052100654,
,,,,102,0,102,0,,,,,,,,,,,,,,,,,,,,,,,,1697.014907100238,None,,,,,,,,,,,,,,,,,marriage,silent,blue,102,74,179,1692.9900811999105,None,1692.9900811999105,None,6,2.3540905001573265,1692.9900811999105,None,1695.4033213001676,None,1695.9221262000501,None,1695.9221262000501,None,r,1.0620347000658512,1695.9221262000501,None,,,color24,001,2021_Nov_10_1824,ProdSingRedo,3.2.3,59.997216052100654,
,,,,103,0,103,0,,,,,,,,,,,,,,,,,,,,,,,,1701.7242863001302,None,,,,,,,,,,,,,,,,,clean,silent,blue,103,70,51,1697.537875100039,None,1697.537875100039,None,3,2.4062353000044823,1697.537875100039,None,1699.993277899921,None,1700.5189295001328,None,1700.5189295001328,None,n,1.176950499881059,1700.5189295001328,None,,,color24,001,2021_Nov_10_1824,ProdSingRedo,3.2.3,59.997216052100654,
,,,,104,0,104,0,,,,,,,,,,,,,,,,,,,,,,,,1706.4321878999472,None,,,,,,,,,,,,,,,,,history,silent,blue,104,61,153,1702.2579141999595,None,1702.2579141999595,None,5,2.2464379998855293,1702.2579141999595,None,1704.5477356999181,None,1705.0656552002765,None,1705.0656552002765,None,f,1.342404999770224,1705.0656552002765,None,,,color24,001,2021_Nov_10_1824,ProdSingRedo,3.2.3,59.997216052100654,
,,,,105,0,105,0,,,,,,,,,,,,,,,,,,,,,,,,1714.702144099865,None,,,,,,,,,,,,,,,,,disease,silent,blue,105,80,97,1706.9604119001888,None,1706.9604119001888,None,6,4.823603500146419,1706.9604119001888,None,1711.8312947000377,None,1712.352891500108,None,1712.352891500108,None,r,2.319558300077915,1712.352891500108,None,,,color24,001,2021_Nov_10_1824,ProdSingRedo,3.2.3,59.997216052100654,
,,,,106,0,106,0,,,,,,,,,,,,,,,,,,,,,,,,1722.5916650998406,None,,,,,,,,,,,,,,,,,pressure,new_aloud,red,106,149,232,1715.208871500101,None,1715.208871500101,None,3,5.6392218000255525,1715.208871500101,None,1720.898650399875,None,1721.4235561001115,None,1721.4235561001115,None,f,1.1363077997229993,1721.4235561001115,None,,,color24,001,2021_Nov_10_1824,ProdSingRedo,3.2.3,59.997216052100654,
,,,,107,0,107,0,,,,,,,,,,,,,,,,,,,,,,,,1732.7508700001054,None,,,,,,,,,,,,,,,,,conference,silent,blue,107,79,66,1723.1139241000637,None,1723.1139241000637,None,4,7.91813169978559,1723.1139241000637,None,1731.0833306000568,None,1731.611891000066,None,1731.611891000066,None,f,1.108333199750632,1731.611891000066,None,,,color24,001,2021_Nov_10_1824,ProdSingRedo,3.2.3,59.997216052100654,
,,,,108,0,108,0,,,,,,,,,,,,,,,,,,,,,,,,1740.851164100226,None,,,,,,,,,,,,,,,,,discussion,new_sing,yellow,108,101,96,1733.2779338001274,None,1733.2779338001274,None,3,6.0501125999726355,1733.2779338001274,None,1739.3824237999506,None,1739.9091374999844,None,1739.9091374999844,None,f,0.9151467997580767,1739.9091374999844,None,,,color24,001,2021_Nov_10_1824,ProdSingRedo,3.2.3,59.997216052100654,
,,,,109,0,109,0,,,,,,,,,,,,,,,,,,,,,,,,1762.0850698002614,None,,,,,,,,,,,,,,,,,dispute,new_sing,yellow,109,106,99,1741.3846221999265,None,1741.3846221999265,None,2,18.495493799913675,1741.3846221999265,None,1759.93532030005,None,1760.4579902002588,None,1760.4579902002588,None,n,1.5900941998697817,1760.4579902002588,None,,,color24,001,2021_Nov_10_1824,ProdSingRedo,3.2.3,59.997216052100654,
,,,,110,0,110,0,,,,,,,,,,,,,,,,,,,,,,,,1768.7871842002496,None,,,,,,,,,,,,,,,,,reach,new_aloud,red,110,139,253,1762.6113454001024,None,1762.6113454001024,None,4,4.132534199859947,1762.6113454001024,None,1766.767618600279,None,1767.2907024002634,None,1767.2907024002634,None,f,1.4694734001532197,1767.2907024002634,None,,,color24,001,2021_Nov_10_1824,ProdSingRedo,3.2.3,59.997216052100654,
,,,,111,0,111,0,,,,,,,,,,,,,,,,,,,,,,,,1774.9701351001859,None,,,,,,,,,,,,,,,,,title,sing,yellow,111,27,331,1769.2971061002463,None,1769.2971061002463,None,5,2.8231866997666657,1769.2971061002463,None,1772.1643023998477,None,1772.6860869000666,None,1772.6860869000666,None,r,2.2581792999990284,1772.6860869000666,None,,,color24,001,2021_Nov_10_1824,ProdSingRedo,3.2.3,59.997216052100654,
,,,,112,0,112,0,,,,,,,,,,,,,,,,,,,,,,,,1782.9041444999166,None,,,,,,,,,,,,,,,,,smooth,silent,blue,112,60,292,1775.4817217001691,None,1775.4817217001691,None,6,5.710910699795932,1775.4817217001691,None,1781.2315719001926,None,1781.7535446998663,None,1781.7535446998663,None,r,1.1186812999658287,1781.7535446998663,None,,,color24,001,2021_Nov_10_1824,ProdSingRedo,3.2.3,59.997216052100654,
,,,,113,0,113,0,,,,,,,,,,,,,,,,,,,,,,,,1787.5046462998725,None,,,,,,,,,,,,,,,,,drink,silent,blue,113,82,105,1783.4308473002166,None,1783.4308473002166,None,6,3.1772161996923387,1783.4308473002166,None,1786.655514200218,None,1787.1709038000554,None,1787.1709038000554,None,r,0.29300349997356534,1787.1709038000554,None,,,color24,001,2021_Nov_10_1824,ProdSingRedo,3.2.3,59.997216052100654,
,,,,114,0,114,0,,,,,,,,,,,,,,,,,,,,,,,,1795.0048954999074,None,,,,,,,,,,,,,,,,,search,new_silent,blue,114,158,276,1788.0315100001171,None,1788.0315100001171,None,3,5.4085766999050975,1788.0315100001171,None,1793.4878907999955,None,1794.009933900088,None,1794.009933900088,None,n,0.966580200009048,1794.009933900088,None,,,color24,001,2021_Nov_10_1824,ProdSingRedo,3.2.3,59.997216052100654,
,,,,115,0,115,0,,,,,,,,,,,,,,,,,,,,,,,,1800.5715252002701,None,,,,,,,,,,,,,,,,,strain,sing,yellow,115,1,308,1795.53038250003,None,1795.53038250003,None,5,3.6055243997834623,1795.53038250003,None,1799.1747165000997,None,1799.6929243998602,None,1799.6929243998602,None,r,0.8434181003831327,1799.6929243998602,None,,,color24,001,2021_Nov_10_1824,ProdSingRedo,3.2.3,59.997216052100654,
,,,,116,0,116,0,,,,,,,,,,,,,,,,,,,,,,,,1807.5556282000616,None,,,,,,,,,,,,,,,,,machinery,new_silent,blue,116,165,175,1801.0968434000388,None,1801.0968434000388,None,4,4.670989899896085,1801.0968434000388,None,1805.8052640999667,None,1806.3345371000469,None,1806.3345371000469,None,f,1.1857004002667964,1806.3345371000469,None,,,color24,001,2021_Nov_10_1824,ProdSingRedo,3.2.3,59.997216052100654,
,,,,117,0,117,0,,,,,,,,,,,,,,,,,,,,,,,,1813.3632014999166,None,,,,,,,,,,,,,,,,,growth,sing,yellow,117,19,144,1808.081550899893,None,1808.081550899893,None,1,3.7585478997789323,1808.081550899893,None,1811.8956665000878,None,1812.4113207999617,None,1812.4113207999617,None,n,0.9244562000967562,1812.4113207999617,None,,,color24,001,2021_Nov_10_1824,ProdSingRedo,3.2.3,59.997216052100654,
,,,,118,0,118,0,,,,,,,,,,,,,,,,,,,,,,,,1817.423717400059,None,,,,,,,,,,,,,,,,,stranger,aloud,red,118,52,309,1813.8709522001445,None,1813.8709522001445,None,1,2.6252770996652544,1813.8709522001445,None,1816.541539200116,None,1817.0667480002157,None,1817.0667480002157,None,n,0.3253421997651458,1817.0667480002157,None,,,color24,001,2021_Nov_10_1824,ProdSingRedo,3.2.3,59.997216052100654,
,,,,119,0,119,0,,,,,,,,,,,,,,,,,,,,,,,,1835.648005399853,None,,,,,,,,,,,,,,,,,commercial,silent,blue,119,66,61,1817.9495315998793,None,1817.9495315998793,None,3,16.07459199987352,1817.9495315998793,None,1834.0689527001232,None,1834.597570199985,None,1834.597570199985,None,n,1.0262891999445856,1834.597570199985,None,,,color24,001,2021_Nov_10_1824,ProdSingRedo,3.2.3,59.997216052100654,
,,,,120,0,120,0,,,,,,,,,,,,,,,,,,,,,,,,1848.674786100164,None,,,,,,,,,,,,,,,,,captain,sing,yellow,120,16,41,1836.1725893998519,None,1836.1725893998519,None,4,3.3793107997626066,1836.1725893998519,None,1839.5883078998886,None,1840.1138075999916,None,1840.1138075999916,None,f,8.534493600018322,1840.1138075999916,None,,,color24,001,2021_Nov_10_1824,ProdSingRedo,3.2.3,59.997216052100654,
,,,,121,0,121,0,,,,,,,,,,,,,,,,,,,,,,,,1854.5019320002757,None,,,,,,,,,,,,,,,,,harmony,silent,blue,121,67,148,1849.1904887999408,None,1849.1904887999408,None,6,3.8977979999035597,1849.1904887999408,None,1853.1420666002668,None,1853.6679567000829,None,1853.6679567000829,None,r,0.8041794002056122,1853.6679567000829,None,,,color24,001,2021_Nov_10_1824,ProdSingRedo,3.2.3,59.997216052100654,
,,,,122,0,122,0,,,,,,,,,,,,,,,,,,,,,,,,1861.1419861000031,None,,,,,,,,,,,,,,,,,estate,new_aloud,red,122,144,119,1855.035849899985,None,1855.035849899985,None,1,1.6843489999882877,1855.035849899985,None,1856.773013399914,None,1857.3066006000154,None,1857.3066006000154,None,n,3.797561699990183,1857.3066006000154,None,,,color24,001,2021_Nov_10_1824,ProdSingRedo,3.2.3,59.997216052100654,
,,,,123,0,123,0,,,,,,,,,,,,,,,,,,,,,,,,1867.5950869000517,None,,,,,,,,,,,,,,,,,atmosphere,new_silent,blue,123,161,12,1861.6667384998873,None,1861.6667384998873,None,3,3.8611071999184787,1861.6667384998873,None,1865.5576630998403,None,1866.085268500261,None,1866.085268500261,None,n,1.4749139999039471,1866.085268500261,None,,,color24,001,2021_Nov_10_1824,ProdSingRedo,3.2.3,59.997216052100654,
,,,,124,0,124,0,,,,,,,,,,,,,,,,,,,,,,,,1873.2098365998827,None,,,,,,,,,,,,,,,,,evidence,aloud,red,124,49,120,1868.121352000162,None,1868.121352000162,None,4,3.2470201002433896,1868.121352000162,None,1871.3960772999562,None,1871.9134936002083,None,1871.9134936002083,None,f,1.2626095996238291,1871.9134936002083,None,,,color24,001,2021_Nov_10_1824,ProdSingRedo,3.2.3,59.997216052100654,
,,,,125,0,125,0,,,,,,,,,,,,,,,,,,,,,,,,1881.494956200011,None,,,,,,,,,,,,,,,,,rural,new_sing,yellow,125,116,269,1873.722055800259,None,1873.722055800259,None,1,2.566142199561,1873.722055800259,None,1876.328883400187,None,1876.8385760998353,None,1876.8385760998353,None,f,4.62573349988088,1876.8385760998353,None,,,color24,001,2021_Nov_10_1824,ProdSingRedo,3.2.3,59.997216052100654,
,,,,126,0,126,0,,,,,,,,,,,,,,,,,,,,,,,,1901.8780177999288,None,,,,,,,,,,,,,,,,,people,new_aloud,red,126,129,216,1882.015702900011,None,1882.015702900011,None,3,18.032650700304657,1882.015702900011,None,1900.0903725000098,None,1900.6134902001359,None,1900.6134902001359,None,f,1.234591200016439,1900.6134902001359,None,,,color24,001,2021_Nov_10_1824,ProdSingRedo,3.2.3,59.997216052100654,
,,,,127,0,127,0,,,,,,,,,,,,,,,,,,,,,,,,1908.5791712002829,None,,,,,,,,,,,,,,,,,production,aloud,red,127,57,240,1902.3935064002872,None,1902.3935064002872,None,2,2.9188770996406674,1902.3935064002872,None,1905.3704905002378,None,1905.8699941001832,None,1905.8699941001832,None,n,2.6824492001906037,1905.8699941001832,None,,,color24,001,2021_Nov_10_1824,ProdSingRedo,3.2.3,59.997216052100654,
,,,,128,0,128,0,,,,,,,,,,,,,,,,,,,,,,,,1913.646660900209,None,,,,,,,,,,,,,,,,,agency,new_silent,blue,128,173,4,1909.1130408998579,None,1909.1130408998579,None,4,2.9031072999350727,1909.1130408998579,None,1912.0608875998296,None,1912.585927600041,None,1912.585927600041,None,f,1.030292599927634,1912.585927600041,None,,,color24,001,2021_Nov_10_1824,ProdSingRedo,3.2.3,59.997216052100654,
,,,,129,0,129,0,,,,,,,,,,,,,,,,,,,,,,,,1920.995994800236,None,,,,,,,,,,,,,,,,,republic,new_aloud,red,129,122,260,1914.1683608000167,None,1914.1683608000167,None,2,3.023775599896908,1914.1683608000167,None,1917.2444470999762,None,1917.7643259000033,None,1917.7643259000033,None,n,3.1959461998194456,1917.7643259000033,None,,,color24,001,2021_Nov_10_1824,ProdSingRedo,3.2.3,59.997216052100654,
,,,,130,0,130,0,,,,,,,,,,,,,,,,,,,,,,,,1925.0846299002878,None,,,,,,,,,,,,,,,,,position,aloud,red,130,54,229,1921.5196767002344,None,1921.5196767002344,None,4,2.7924860999919474,1921.5196767002344,None,1924.3589093000628,None,1924.8801088999026,None,1924.8801088999026,None,f,0.17603119974955916,1924.8801088999026,None,,,color24,001,2021_Nov_10_1824,ProdSingRedo,3.2.3,59.997216052100654,
,,,,131,0,131,0,,,,,,,,,,,,,,,,,,,,,,,,1928.7808043998666,None,,,,,,,,,,,,,,,,,light,aloud,red,131,43,171,1925.5907987002283,None,1925.5907987002283,None,1,2.3374503003433347,1925.5907987002283,None,1927.9794955002144,None,1928.501360599883,None,1928.501360599883,None,n,0.2516534002497792,1928.501360599883,None,,,color24,001,2021_Nov_10_1824,ProdSingRedo,3.2.3,59.997216052100654,
,,,,132,0,132,0,,,,,,,,,,,,,,,,,,,,,,,,1931.680860800203,None,,,,,,,,,,,,,,,,,platform,new_sing,yellow,132,92,224,1929.3087964998558,None,1929.3087964998558,None,1,1.7635968998074532,1929.3087964998558,None,1931.1135364002548,None,1931.638230100274,None,1931.638230100274,None,n,0.009998900350183249,1931.638230100274,None,,,color24,001,2021_Nov_10_1824,ProdSingRedo,3.2.3,59.997216052100654,
,,,,133,0,133,0,,,,,,,,,,,,,,,,,,,,,,,,1953.4322903999127,None,,,,,,,,,,,,,,,,,problem,new_silent,blue,133,177,238,1932.2070066002198,None,1932.2070066002198,None,4,20.104954599868506,1932.2070066002198,None,1952.3593120002188,None,1952.8840280002914,None,1952.8840280002914,None,n,0.5242118001915514,1952.8840280002914,None,,,color24,001,2021_Nov_10_1824,ProdSingRedo,3.2.3,59.997216052100654,
,,,,134,0,134,0,,,,,,,,,,,,,,,,,,,,,,,,1956.948516199831,None,,,,,,,,,,,,,,,,,error,silent,blue,134,62,117,1953.9529093001038,None,1953.9529093001038,None,5,2.343357500154525,1953.9529093001038,None,1956.342417600099,None,1956.8622416001745,None,1956.8622416001745,None,f,0.050059800036251545,1956.8622416001745,None,,,color24,001,2021_Nov_10_1824,ProdSingRedo,3.2.3,59.997216052100654,
,,,,135,0,135,0,,,,,,,,,,,,,,,,,,,,,,,,1961.2135737002827,None,,,,,,,,,,,,,,,,,guard,new_silent,blue,135,172,145,1957.473609900102,None,1957.473609900102,None,4,3.1187901003286242,1957.473609900102,None,1960.6467877998948,None,1961.1689069001004,None,1961.1689069001004,None,f,0.0072837998159229755,1961.1689069001004,None,,,color24,001,2021_Nov_10_1824,ProdSingRedo,3.2.3,59.997216052100654,
,,,,136,0,136,0,,,,,,,,,,,,,,,,,,,,,,,,1966.940150800161,None,,,,,,,,,,,,,,,,,length,new_silent,blue,136,157,169,1961.7398871001787,None,1961.7398871001787,None,3,4.156426699832082,1961.7398871001787,None,1965.9436150998808,None,1966.4713081000373,None,1966.4713081000373,None,n,0.4487104001455009,1966.4713081000373,None,,,color24,001,2021_Nov_10_1824,ProdSingRedo,3.2.3,59.997216052100654,
,,,,137,0,137,0,,,,,,,,,,,,,,,,,,,,,,,,1975.883595299907,None,,,,,,,,,,,,,,,,,guide,sing,yellow,137,28,147,1967.4688118002377,None,1967.4688118002377,None,5,7.411535699851811,1967.4688118002377,None,1974.9298569001257,None,1975.4517878000624,None,1975.4517878000624,None,f,0.39658800000324845,1975.4517878000624,None,,,color24,001,2021_Nov_10_1824,ProdSingRedo,3.2.3,59.997216052100654,
,,,,138,0,138,0,,,,,,,,,,,,,,,,,,,,,,,,1982.3817929001525,None,,,,,,,,,,,,,,,,,crisis,new_silent,blue,138,168,79,1976.405707000289,None,1976.405707000289,None,5,4.978310000151396,1976.405707000289,None,1981.4229099000804,None,1981.9364895001054,None,1981.9364895001054,None,f,0.40751059958711267,1981.9364895001054,None,,,color24,001,2021_Nov_10_1824,ProdSingRedo,3.2.3,59.997216052100654,
,,,,139,0,139,0,,,,,,,,,,,,,,,,,,,,,,,,1989.439631599933,None,,,,,,,,,,,,,,,,,opening,sing,yellow,139,4,205,1982.9107734998688,None,1982.9107734998688,None,4,4.665580799803138,1982.9107734998688,None,1987.615820299834,None,1988.1370806000195,None,1988.1370806000195,None,f,1.2713302001357079,1988.1370806000195,None,,,color24,001,2021_Nov_10_1824,ProdSingRedo,3.2.3,59.997216052100654,
,,,,140,0,140,0,,,,,,,,,,,,,,,,,,,,,,,,1993.71843860019,None,,,,,,,,,,,,,,,,,stand,new_aloud,red,140,127,302,1989.9604210001417,None,1989.9604210001417,None,2,2.7838404001668096,1989.9604210001417,None,1992.7875676001422,None,1993.3034037998877,None,1993.3034037998877,None,n,0.3848934001289308,1993.3034037998877,None,,,color24,001,2021_Nov_10_1824,ProdSingRedo,3.2.3,59.997216052100654,
,,,,141,0,141,0,,,,,,,,,,,,,,,,,,,,,,,,2002.5522277001292,None,,,,,,,,,,,,,,,,,company,new_aloud,red,141,124,64,1994.2328274999745,None,1994.2328274999745,None,2,6.0874171000905335,1994.2328274999745,None,2000.3720574001782,None,2000.8933788998984,None,2000.8933788998984,None,n,1.62693540006876,2000.8933788998984,None,,,color24,001,2021_Nov_10_1824,ProdSingRedo,3.2.3,59.997216052100654,
,,,,142,0,142,0,,,,,,,,,,,,,,,,,,,,,,,,2022.102862900123,None,,,,,,,,,,,,,,,,,block,aloud,red,142,50,25,2003.078911300283,None,2003.078911300283,None,5,17.233334599994123,2003.078911300283,None,2020.3561040000059,None,2020.877812200226,None,2020.877812200226,None,f,1.186495800036937,2020.877812200226,None,,,color24,001,2021_Nov_10_1824,ProdSingRedo,3.2.3,59.997216052100654,
,,,,143,0,143,0,,,,,,,,,,,,,,,,,,,,,,,,2025.8936052001081,None,,,,,,,,,,,,,,,,,trash,aloud,red,143,44,337,2022.6279935999773,None,2022.6279935999773,None,6,1.4844239000231028,2022.6279935999773,None,2024.1510463999584,None,2024.675531100016,None,2024.675531100016,None,r,1.1727815000340343,2024.675531100016,None,,,color24,001,2021_Nov_10_1824,ProdSingRedo,3.2.3,59.997216052100654,
,,,,144,0,144,0,,,,,,,,,,,,,,,,,,,,,,,,2028.8198501998559,None,,,,,,,,,,,,,,,,,minor,silent,blue,144,73,191,2026.4089247998782,None,2026.4089247998782,None,6,1.5272998996078968,2026.4089247998782,None,2027.9801556998864,None,2028.5037994999439,None,2028.5037994999439,None,r,0.28044690005481243,2028.5037994999439,None,,,color24,001,2021_Nov_10_1824,ProdSingRedo,3.2.3,59.997216052100654,
,,,,145,0,145,0,,,,,,,,,,,,,,,,,,,,,,,,2034.7708331998438,None,,,,,,,,,,,,,,,,,literature,sing,yellow,145,24,173,2029.3526626001112,None,2029.3526626001112,None,1,3.751423599664122,2029.3526626001112,None,2033.1633222000673,None,2033.6774145001546,None,2033.6774145001546,None,n,1.0588644999079406,2033.6774145001546,None,,,color24,001,2021_Nov_10_1824,ProdSingRedo,3.2.3,59.997216052100654,
,,,,146,0,146,0,,,,,,,,,,,,,,,,,,,,,,,,2040.2226502001286,None,,,,,,,,,,,,,,,,,judge,sing,yellow,146,18,166,2035.3022567001171,None,2035.3022567001171,None,6,3.6422979002818465,2035.3022567001171,None,2038.9897861001082,None,2039.502523700241,None,2039.502523700241,None,r,0.689672399777919,2039.502523700241,None,,,color24,001,2021_Nov_10_1824,ProdSingRedo,3.2.3,59.997216052100654,
,,,,147,0,147,0,,,,,,,,,,,,,,,,,,,,,,,,2044.3558769999072,None,,,,,,,,,,,,,,,,,research,sing,yellow,147,10,261,2040.748616100289,None,2040.748616100289,None,5,2.731730700004846,2040.748616100289,None,2043.520273000002,None,2044.04984709993,None,2044.04984709993,None,r,0.2786920997314155,2044.04984709993,None,,,color24,001,2021_Nov_10_1824,ProdSingRedo,3.2.3,59.997216052100654,
,,,,148,0,148,0,,,,,,,,,,,,,,,,,,,,,,,,2047.967641999945,None,,,,,,,,,,,,,,,,,skill,aloud,red,148,32,289,2044.8802654002793,None,2044.8802654002793,None,4,2.384321799967438,2044.8802654002793,None,2047.319509500172,None,2047.8423668001778,None,2047.8423668001778,None,f,0.10224439995363355,2047.8423668001778,None,,,color24,001,2021_Nov_10_1824,ProdSingRedo,3.2.3,59.997216052100654,
,,,,149,0,149,0,,,,,,,,,,,,,,,,,,,,,,,,2052.4048847998492,None,,,,,,,,,,,,,,,,,contract,silent,blue,149,85,68,2048.4977620001882,None,2048.4977620001882,None,4,3.054588300175965,2048.4977620001882,None,2051.598821599968,None,2052.129506099969,None,2052.129506099969,None,f,0.23891919991001487,2052.129506099969,None,,,color24,001,2021_Nov_10_1824,ProdSingRedo,3.2.3,59.997216052100654,
,,,,150,0,150,0,,,,,,,,,,,,,,,,,,,,,,,,2056.3557585002854,None,,,,,,,,,,,,,,,,,foundation,new_aloud,red,150,121,132,2052.9362551998347,None,2052.9362551998347,None,2,2.672071600332856,2052.9362551998347,None,2055.6617379002273,None,2056.1714809001423,None,2056.1714809001423,None,n,0.15709850005805492,2056.1714809001423,None,,,color24,001,2021_Nov_10_1824,ProdSingRedo,3.2.3,59.997216052100654,
,,,,151,0,151,0,,,,,,,,,,,,,,,,,,,,,,,,2062.1394215002656,None,,,,,,,,,,,,,,,,,center,new_aloud,red,151,148,44,2056.8778380001895,None,2056.8778380001895,None,2,4.498425299767405,2056.8778380001895,None,2061.420263200067,None,2061.9386074999347,None,2061.9386074999347,None,n,0.16568699991330504,2061.9386074999347,None,,,color24,001,2021_Nov_10_1824,ProdSingRedo,3.2.3,59.997216052100654,
,,,,152,0,152,0,,,,,,,,,,,,,,,,,,,,,,,,2087.9409771999344,None,,,,,,,,,,,,,,,,,state,sing,yellow,152,7,303,2062.6621468001977,None,2062.6621468001977,None,3,24.435315599665046,2062.6621468001977,None,2087.138608300127,None,2087.644735299982,None,2087.644735299982,None,f,0.2592640002258122,2087.644735299982,None,,,color24,001,2021_Nov_10_1824,ProdSingRedo,3.2.3,59.997216052100654,
,,,,153,0,153,0,,,,,,,,,,,,,,,,,,,,,,,,2091.19150000019,None,,,,,,,,,,,,,,,,,union,aloud,red,153,58,344,2088.4543331000023,None,2088.4543331000023,None,5,2.050098500214517,2088.4543331000023,None,2090.5628487002105,None,2091.076761600096,None,2091.076761600096,None,f,0.08374379994347692,2091.076761600096,None,,,color24,001,2021_Nov_10_1824,ProdSingRedo,3.2.3,59.997216052100654,
,,,,154,0,154,0,,,,,,,,,,,,,,,,,,,,,,,,2094.414149200078,None,,,,,,,,,,,,,,,,,theme,new_silent,blue,154,150,326,2091.7121481001377,None,2091.7121481001377,None,2,1.8878165003843606,2091.7121481001377,None,2093.617629500106,None,2094.140568499919,None,2094.140568499919,None,n,0.24400699976831675,2094.140568499919,None,,,color24,001,2021_Nov_10_1824,ProdSingRedo,3.2.3,59.997216052100654,
,,,,155,0,155,0,,,,,,,,,,,,,,,,,,,,,,,,2097.7579228999093,None,,,,,,,,,,,,,,,,,still,new_aloud,red,155,136,304,2094.9230729001574,None,2094.9230729001574,None,1,2.053374399896711,2094.9230729001574,None,2097.016437199898,None,2097.5243100998923,None,2097.5243100998923,None,n,0.1960249999538064,2097.5243100998923,None,,,color24,001,2021_Nov_10_1824,ProdSingRedo,3.2.3,59.997216052100654,
,,,,156,0,156,0,,,,,,,,,,,,,,,,,,,,,,,,2102.091506900266,None,,,,,,,,,,,,,,,,,sweet,new_aloud,red,156,128,319,2098.284320999868,None,2098.284320999868,None,1,3.0680344998836517,2098.284320999868,None,2101.406389300246,None,2101.929793599993,None,2101.929793599993,None,n,0.12662799982354045,2101.929793599993,None,,,color24,001,2021_Nov_10_1824,ProdSingRedo,3.2.3,59.997216052100654,
,,,,157,0,157,0,,,,,,,,,,,,,,,,,,,,,,,,2111.3763327002525,None,,,,,,,,,,,,,,,,,nation,silent,blue,157,83,198,2102.6190355001017,None,2102.6190355001017,None,4,7.685373600106686,2102.6190355001017,None,2110.35972219985,None,2110.8720991001464,None,2110.8720991001464,None,f,0.48022270016372204,2110.8720991001464,None,,,color24,001,2021_Nov_10_1824,ProdSingRedo,3.2.3,59.997216052100654,
,,,,158,0,158,0,,,,,,,,,,,,,,,,,,,,,,,,2115.3595365998335,None,,,,,,,,,,,,,,,,,health,new_silent,blue,158,179,149,2111.9026315999217,None,2111.9026315999217,None,4,2.7853390998207033,2111.9026315999217,None,2114.723795400001,None,2115.247451300267,None,2115.247451300267,None,n,0.08094360027462244,2115.247451300267,None,,,color24,001,2021_Nov_10_1824,ProdSingRedo,3.2.3,59.997216052100654,
,,,,159,0,159,0,,,,,,,,,,,,,,,,,,,,,,,,2122.827187300194,None,,,,,,,,,,,,,,,,,afternoon,aloud,red,159,35,3,2115.883129300084,None,2115.883129300084,None,2,4.541256100405008,2115.883129300084,None,2120.4734801999293,None,2121.000381700229,None,2121.000381700229,None,n,1.791915699839592,2121.000381700229,None,,,color24,001,2021_Nov_10_1824,ProdSingRedo,3.2.3,59.997216052100654,
,,,,160,0,160,0,,,,,,,,,,,,,,,,,,,,,,,,2130.9326989999972,None,,,,,,,,,,,,,,,,,benefit,silent,blue,160,88,20,2123.352755300235,None,2123.352755300235,None,4,6.191636099945754,2123.352755300235,None,2129.5939186001197,None,2130.1174265998416,None,2130.1174265998416,None,f,0.7708442998118699,2130.1174265998416,None,,,color24,001,2021_Nov_10_1824,ProdSingRedo,3.2.3,59.997216052100654,
,,,,161,0,161,0,,,,,,,,,,,,,,,,,,,,,,,,2133.862393199932,None,,,,,,,,,,,,,,,,,murder,aloud,red,161,31,195,2131.4527453999035,None,2131.4527453999035,None,6,1.3876733002252877,2131.4527453999035,None,2132.8943930999376,None,2133.4170450000092,None,2133.4170450000092,None,r,0.40741389989852905,2133.4170450000092,None,,,color24,001,2021_Nov_10_1824,ProdSingRedo,3.2.3,59.997216052100654,
,,,,162,0,162,0,,,,,,,,,,,,,,,,,,,,,,,,2138.0711925001815,None,,,,,,,,,,,,,,,,,waste,silent,blue,162,89,350,2134.3856705999933,None,2134.3856705999933,None,6,2.550789199769497,2134.3856705999933,None,2136.9724254002795,None,2137.497708800249,None,2137.497708800249,None,r,0.53468899987638,2137.497708800249,None,,,color24,001,2021_Nov_10_1824,ProdSingRedo,3.2.3,59.997216052100654,
,,,,163,0,163,0,,,,,,,,,,,,,,,,,,,,,,,,2150.4122814000584,None,,,,,,,,,,,,,,,,,career,new_aloud,red,163,146,42,2138.6025749002583,None,2138.6025749002583,None,4,10.965871199965477,2138.6025749002583,None,2149.6122810002416,None,2150.1307215001434,None,2150.1307215001434,None,f,0.24574190005660057,2150.1307215001434,None,,,color24,001,2021_Nov_10_1824,ProdSingRedo,3.2.3,59.997216052100654,
,,,,164,0,164,0,,,,,,,,,,,,,,,,,,,,,,,,2154.9649312002584,None,,,,,,,,,,,,,,,,,touch,new_aloud,red,164,134,332,2150.940731599927,None,2150.940731599927,None,2,2.4276942000724375,2150.940731599927,None,2153.3972352999263,None,2153.9024380999617,None,2153.9024380999617,None,n,1.0339655000716448,2153.9024380999617,None,,,color24,001,2021_Nov_10_1824,ProdSingRedo,3.2.3,59.997216052100654,
,,,,165,0,165,0,,,,,,,,,,,,,,,,,,,,,,,,2159.320275799837,None,,,,,,,,,,,,,,,,,material,new_sing,yellow,165,109,182,2155.489086000249,None,2155.489086000249,None,1,3.063380000181496,2155.489086000249,None,2158.5809034002014,None,2159.087347100023,None,2159.087347100023,None,n,0.21674440009519458,2159.087347100023,None,,,color24,001,2021_Nov_10_1824,ProdSingRedo,3.2.3,59.997216052100654,
,,,,166,0,166,0,,,,,,,,,,,,,,,,,,,,,,,,2162.647086100187,None,,,,,,,,,,,,,,,,,whole,silent,blue,166,69,355,2159.834280699957,None,2159.834280699957,None,1,2.1183568998239934,2159.834280699957,None,2161.9923947001807,None,2162.5145872998983,None,2162.5145872998983,None,n,0.10178060038015246,2162.5145872998983,None,,,color24,001,2021_Nov_10_1824,ProdSingRedo,3.2.3,59.997216052100654,
,,,,167,0,167,0,,,,,,,,,,,,,,,,,,,,,,,,2167.1636326001026,None,,,,,,,,,,,,,,,,,capital,new_sing,yellow,167,111,40,2163.1761803999543,None,2163.1761803999543,None,4,3.0080787003971636,2163.1761803999543,None,2166.231927699875,None,2166.7552960002795,None,2166.7552960002795,None,f,0.3813640000298619,2166.7552960002795,None,,,color24,001,2021_Nov_10_1824,ProdSingRedo,3.2.3,59.997216052100654,
,,,,168,0,168,0,,,,,,,,,,,,,,,,,,,,,,,,2171.5637238998897,None,,,,,,,,,,,,,,,,,place,new_silent,blue,168,167,222,2167.6924842000008,None,2167.6924842000008,None,3,2.9640258997678757,2167.6924842000008,None,2170.694895300083,None,2171.2210341999307,None,2171.2210341999307,None,n,0.30732009978964925,2171.2210341999307,None,,,color24,001,2021_Nov_10_1824,ProdSingRedo,3.2.3,59.997216052100654,
,,,,169,0,169,0,,,,,,,,,,,,,,,,,,,,,,,,2175.164167900104,None,,,,,,,,,,,,,,,,,beginning,sing,yellow,169,3,19,2172.097528600134,None,2172.097528600134,None,1,2.31078980024904,2172.097528600134,None,2174.4540908001363,None,2174.9581740000285,None,2174.9581740000285,None,n,0.1785194999538362,2174.9581740000285,None,,,color24,001,2021_Nov_10_1824,ProdSingRedo,3.2.3,59.997216052100654,
,,,,170,0,170,0,,,,,,,,,,,,,,,,,,,,,,,,2190.915577100124,None,,,,,,,,,,,,,,,,,division,sing,yellow,170,11,101,2175.6906826002523,None,2175.6906826002523,None,2,11.525786799844354,2175.6906826002523,None,2187.259024000261,None,2187.789767399896,None,2187.789767399896,None,n,3.0905593996867537,2187.789767399896,None,,,color24,001,2021_Nov_10_1824,ProdSingRedo,3.2.3,59.997216052100654,
,,,,171,0,171,0,,,,,,,,,,,,,,,,,,,,,,,,2197.0829079998657,None,,,,,,,,,,,,,,,,,shock,new_aloud,red,171,132,284,2191.4403953002766,None,2191.4403953002766,None,4,4.535681500099599,2191.4403953002766,None,2196.0120772002265,None,2196.5359713998623,None,2196.5359713998623,None,f,0.5124456002376974,2196.5359713998623,None,,,color24,001,2021_Nov_10_1824,ProdSingRedo,3.2.3,59.997216052100654,
,,,,172,0,172,0,,,,,,,,,,,,,,,,,,,,,,,,2201.4524379000068,None,,,,,,,,,,,,,,,,,audience,new_sing,yellow,172,99,14,2197.605465900153,None,2197.605465900153,None,2,3.0510573000647128,2197.605465900153,None,2200.6980654001236,None,2201.220406200271,None,2201.220406200271,None,n,0.2041923999786377,2201.220406200271,None,,,color24,001,2021_Nov_10_1824,ProdSingRedo,3.2.3,59.997216052100654,
,,,,173,0,173,0,,,,,,,,,,,,,,,,,,,,,,,,2205.0498196999542,None,,,,,,,,,,,,,,,,,strength,new_aloud,red,173,123,310,2201.978325900156,None,2201.978325900156,None,4,2.094296300318092,2201.978325900156,None,2204.112185699865,None,2204.636372100096,None,2204.636372100096,None,f,0.38023060001432896,2204.636372100096,None,,,color24,001,2021_Nov_10_1824,ProdSingRedo,3.2.3,59.997216052100654,
,,,,174,0,174,0,,,,,,,,,,,,,,,,,,,,,,,,2215.85018090019,None,,,,,,,,,,,,,,,,,council,new_silent,blue,174,153,71,2205.5757446000353,None,2205.5757446000353,None,5,8.496997399721295,2205.5757446000353,None,2214.1094236001372,None,2214.6372898002155,None,2214.6372898002155,None,f,1.1790590002201498,2214.6372898002155,None,,,color24,001,2021_Nov_10_1824,ProdSingRedo,3.2.3,59.997216052100654,
,,,,175,0,175,0,,,,,,,,,,,,,,,,,,,,,,,,2220.191122500226,None,,,,,,,,,,,,,,,,,business,new_silent,blue,175,174,38,2216.37536610011,None,2216.37536610011,None,6,2.1371432999148965,2216.37536610011,None,2218.5642375000753,None,2219.086931299884,None,2219.086931299884,None,r,1.0891974000260234,2219.086931299884,None,,,color24,001,2021_Nov_10_1824,ProdSingRedo,3.2.3,59.997216052100654,
,,,,176,0,176,0,,,,,,,,,,,,,,,,,,,,,,,,2224.634757500142,None,,,,,,,,,,,,,,,,,phrase,new_silent,blue,176,169,220,2220.7013061000034,None,2220.7013061000034,None,2,2.5631943000480533,2220.7013061000034,None,2223.3128415001556,None,2223.840354499873,None,2223.840354499873,None,n,0.7600230998359621,2223.840354499873,None,,,color24,001,2021_Nov_10_1824,ProdSingRedo,3.2.3,59.997216052100654,
,,,,177,0,177,0,,,,,,,,,,,,,,,,,,,,,,,,2227.80083819991,None,,,,,,,,,,,,,,,,,payment,silent,blue,177,65,215,2225.1628990001045,None,2225.1628990001045,None,6,1.7415368999354541,2225.1628990001045,None,2226.9477217998356,None,2227.4770996998996,None,2227.4770996998996,None,r,0.2913636998273432,2227.4770996998996,None,,,color24,001,2021_Nov_10_1824,ProdSingRedo,3.2.3,59.997216052100654,
,,,,178,0,178,0,,,,,,,,,,,,,,,,,,,,,,,,2232.026725300122,None,,,,,,,,,,,,,,,,,working,new_sing,yellow,178,107,357,2228.326077800244,None,2228.326077800244,None,1,2.810394300147891,2228.326077800244,None,2231.190307599958,None,2231.7107489001937,None,2231.7107489001937,None,n,0.2976106000132859,2231.7107489001937,None,,,color24,001,2021_Nov_10_1824,ProdSingRedo,3.2.3,59.997216052100654,
,,,,179,0,179,0,,,,,,,,,,,,,,,,,,,,,,,,2247.9184262999333,None,,,,,,,,,,,,,,,,,turkey,new_silent,blue,179,176,342,2232.5487767001614,None,2232.5487767001614,None,3,12.323645500000566,2232.5487767001614,None,2244.9248799998313,None,2245.4449475002475,None,2245.4449475002475,None,n,2.435488499701023,2245.4449475002475,None,,,color24,001,2021_Nov_10_1824,ProdSingRedo,3.2.3,59.997216052100654,
,,,,,,,,,,,,,,,,,,,,,,,,,,,,,,,,,,,,,,,,,,,,,,,,,,,,,,,,,,,,,,,,,,,,,,,,,2248.429462400265,None,,,,,,,
