StudyLoop.thisRepN,StudyLoop.thisTrialN,StudyLoop.thisN,StudyLoop.thisIndex,TestLoop.thisRepN,TestLoop.thisTrialN,TestLoop.thisN,TestLoop.thisIndex,textCondition.started,textCondition.stopped,keyCondition.keys,keyCondition.rt,keyCondition.started,keyCondition.stopped,Condition,stim_colors,color_sing,color_aloud,color_silent,textWelcome.started,textWelcome.stopped,keyWelcome.keys,keyWelcome.rt,keyWelcome.started,keyWelcome.stopped,textAloud.started,textAloud.stopped,textSilent.started,textSilent.stopped,textSing.started,textSing.stopped,textBlank500.started,textBlank500.stopped,study_word,study_type,study_color,study_num,study_word_num,textStudy.started,textStudy.stopped,keyStudy.keys,keyStudy.started,keyStudy.stopped,textTestInstructions.started,textTestInstructions.stopped,key_resp_3.keys,key_resp_3.rt,key_resp_3.started,key_resp_3.stopped,testWord,testType,testColor,testN,test_num,test_word_num,textConf.started,textConf.stopped,textConfScale.started,textConfScale.stopped,keyConf.keys,keyConf.rt,keyConf.started,keyConf.stopped,textTestBlank.started,textTestBlank.stopped,textRKN.started,textRKN.stopped,textRKNScale.started,textRKNScale.stopped,keyRKN.keys,keyRKN.rt,keyRKN.started,keyRKN.stopped,textEnd.started,textEnd.stopped,participant,session,date,expName,psychopyVersion,frameRate,
,,,,,,,,44.25728570006322,None,y,1.6148016001097858,44.25728570006322,None,,,,,,,,,,,,,,,,,,,,,,,,,,,,,,,,,,,,,,,,,,,,,,,,,,,,,,,,,,,,,,color5,001,2019_Nov_21_1627,ProdSingRedo,3.2.3,60.0130588432306,
,,,,,,,,,,,,,,ColoredTest,"['red', 'yellow', 'blue']",red,yellow,blue,45.93554129998665,None,space,1447.4653240999905,45.93554129998665,None,,,,,,,,,,,,,,,,,,,,,,,,,,,,,,,,,,,,,,,,,,,,,,,,,,,color5,001,2019_Nov_21_1627,ProdSingRedo,3.2.3,60.0130588432306,
0,0,0,0,,,,,,,,,,,,,,,,,,,,,,45.93554129998665,None,45.93554129998665,None,45.93554129998665,None,1495.945623400039,None,display,aloud,yellow,43,98,1493.9469039000105,None,None,1493.9469039000105,None,,,,,,,,,,,,,,,,,,,,,,,,,,,,,,,,,color5,001,2019_Nov_21_1627,ProdSingRedo,3.2.3,60.0130588432306,
1,0,1,0,,,,,,,,,,,,,,,,,,,,,,,,,,,,1498.4634735999862,None,congress,sing,red,12,67,1496.4632285999833,None,None,1496.4632285999833,None,,,,,,,,,,,,,,,,,,,,,,,,,,,,,,,,,color5,001,2019_Nov_21_1627,ProdSingRedo,3.2.3,60.0130588432306,
2,0,2,0,,,,,,,,,,,,,,,,,,,,,,,,,,,,1500.9803849000018,None,literature,silent,blue,81,173,1498.978929099976,None,None,1498.978929099976,None,,,,,,,,,,,,,,,,,,,,,,,,,,,,,,,,,color5,001,2019_Nov_21_1627,ProdSingRedo,3.2.3,60.0130588432306,
3,0,3,0,,,,,,,,,,,,,,,,,,,,,,,,,,,,1503.4972704000538,None,distance,silent,blue,74,100,1501.496239900007,None,None,1501.496239900007,None,,,,,,,,,,,,,,,,,,,,,,,,,,,,,,,,,color5,001,2019_Nov_21_1627,ProdSingRedo,3.2.3,60.0130588432306,
4,0,4,0,,,,,,,,,,,,,,,,,,,,,,,,,,,,1506.014057100052,None,audience,silent,blue,82,14,1504.0107223000377,None,None,1504.0107223000377,None,,,,,,,,,,,,,,,,,,,,,,,,,,,,,,,,,color5,001,2019_Nov_21_1627,ProdSingRedo,3.2.3,60.0130588432306,
5,0,5,0,,,,,,,,,,,,,,,,,,,,,,,,,,,,1508.5308968999889,None,recall,aloud,yellow,41,255,1506.5275088000344,None,None,1506.5275088000344,None,,,,,,,,,,,,,,,,,,,,,,,,,,,,,,,,,color5,001,2019_Nov_21_1627,ProdSingRedo,3.2.3,60.0130588432306,
6,0,6,0,,,,,,,,,,,,,,,,,,,,,,,,,,,,1511.0476932000602,None,grade,sing,red,3,140,1509.0456290000584,None,None,1509.0456290000584,None,,,,,,,,,,,,,,,,,,,,,,,,,,,,,,,,,color5,001,2019_Nov_21_1627,ProdSingRedo,3.2.3,60.0130588432306,
7,0,7,0,,,,,,,,,,,,,,,,,,,,,,,,,,,,1513.5650705000153,None,crisis,silent,blue,64,79,1511.5589108000277,None,None,1511.5589108000277,None,,,,,,,,,,,,,,,,,,,,,,,,,,,,,,,,,color5,001,2019_Nov_21_1627,ProdSingRedo,3.2.3,60.0130588432306,
8,0,8,0,,,,,,,,,,,,,,,,,,,,,,,,,,,,1516.0813831000123,None,device,aloud,yellow,51,93,1514.0851503000595,None,None,1514.0851503000595,None,,,,,,,,,,,,,,,,,,,,,,,,,,,,,,,,,color5,001,2019_Nov_21_1627,ProdSingRedo,3.2.3,60.0130588432306,
9,0,9,0,,,,,,,,,,,,,,,,,,,,,,,,,,,,1518.5982643000316,None,period,sing,red,9,217,1516.590211700066,None,None,1516.590211700066,None,,,,,,,,,,,,,,,,,,,,,,,,,,,,,,,,,color5,001,2019_Nov_21_1627,ProdSingRedo,3.2.3,60.0130588432306,
10,0,10,0,,,,,,,,,,,,,,,,,,,,,,,,,,,,1521.115068300045,None,birth,silent,blue,86,22,1519.113473800011,None,None,1519.113473800011,None,,,,,,,,,,,,,,,,,,,,,,,,,,,,,,,,,color5,001,2019_Nov_21_1627,ProdSingRedo,3.2.3,60.0130588432306,
11,0,11,0,,,,,,,,,,,,,,,,,,,,,,,,,,,,1523.6319398999913,None,symbol,aloud,yellow,53,321,1521.6307995000388,None,None,1521.6307995000388,None,,,,,,,,,,,,,,,,,,,,,,,,,,,,,,,,,color5,001,2019_Nov_21_1627,ProdSingRedo,3.2.3,60.0130588432306,
12,0,12,0,,,,,,,,,,,,,,,,,,,,,,,,,,,,1526.148754700087,None,object,silent,blue,68,204,1524.1532601000508,None,None,1524.1532601000508,None,,,,,,,,,,,,,,,,,,,,,,,,,,,,,,,,,color5,001,2019_Nov_21_1627,ProdSingRedo,3.2.3,60.0130588432306,
13,0,13,0,,,,,,,,,,,,,,,,,,,,,,,,,,,,1528.6656017000787,None,budget,silent,blue,62,34,1526.6654145000502,None,None,1526.6654145000502,None,,,,,,,,,,,,,,,,,,,,,,,,,,,,,,,,,color5,001,2019_Nov_21_1627,ProdSingRedo,3.2.3,60.0130588432306,
14,0,14,0,,,,,,,,,,,,,,,,,,,,,,,,,,,,1531.182473200024,None,place,sing,red,17,222,1529.179556200048,None,None,1529.179556200048,None,,,,,,,,,,,,,,,,,,,,,,,,,,,,,,,,,color5,001,2019_Nov_21_1627,ProdSingRedo,3.2.3,60.0130588432306,
15,0,15,0,,,,,,,,,,,,,,,,,,,,,,,,,,,,1533.6992666000733,None,position,sing,red,22,229,1531.6920031000627,None,None,1531.6920031000627,None,,,,,,,,,,,,,,,,,,,,,,,,,,,,,,,,,color5,001,2019_Nov_21_1627,ProdSingRedo,3.2.3,60.0130588432306,
16,0,16,0,,,,,,,,,,,,,,,,,,,,,,,,,,,,1536.216070500086,None,hunger,sing,red,16,155,1534.2160458000144,None,None,1534.2160458000144,None,,,,,,,,,,,,,,,,,,,,,,,,,,,,,,,,,color5,001,2019_Nov_21_1627,ProdSingRedo,3.2.3,60.0130588432306,
17,0,17,0,,,,,,,,,,,,,,,,,,,,,,,,,,,,1538.7329523999942,None,bitter,sing,red,14,23,1536.728449700051,None,None,1536.728449700051,None,,,,,,,,,,,,,,,,,,,,,,,,,,,,,,,,,color5,001,2019_Nov_21_1627,ProdSingRedo,3.2.3,60.0130588432306,
18,0,18,0,,,,,,,,,,,,,,,,,,,,,,,,,,,,1541.249834700022,None,owner,aloud,yellow,38,208,1539.2435521000298,None,None,1539.2435521000298,None,,,,,,,,,,,,,,,,,,,,,,,,,,,,,,,,,color5,001,2019_Nov_21_1627,ProdSingRedo,3.2.3,60.0130588432306,
19,0,19,0,,,,,,,,,,,,,,,,,,,,,,,,,,,,1543.766630700091,None,individual,silent,blue,69,160,1541.7652740000049,None,None,1541.7652740000049,None,,,,,,,,,,,,,,,,,,,,,,,,,,,,,,,,,color5,001,2019_Nov_21_1627,ProdSingRedo,3.2.3,60.0130588432306,
20,0,20,0,,,,,,,,,,,,,,,,,,,,,,,,,,,,1546.283524999977,None,mankind,aloud,yellow,54,178,1544.2845482000848,None,None,1544.2845482000848,None,,,,,,,,,,,,,,,,,,,,,,,,,,,,,,,,,color5,001,2019_Nov_21_1627,ProdSingRedo,3.2.3,60.0130588432306,
21,0,21,0,,,,,,,,,,,,,,,,,,,,,,,,,,,,1548.800345399999,None,generation,sing,red,20,136,1546.8004634000827,None,None,1546.8004634000827,None,,,,,,,,,,,,,,,,,,,,,,,,,,,,,,,,,color5,001,2019_Nov_21_1627,ProdSingRedo,3.2.3,60.0130588432306,
22,0,22,0,,,,,,,,,,,,,,,,,,,,,,,,,,,,1551.3171158999903,None,second,aloud,yellow,32,278,1549.3103633000283,None,None,1549.3103633000283,None,,,,,,,,,,,,,,,,,,,,,,,,,,,,,,,,,color5,001,2019_Nov_21_1627,ProdSingRedo,3.2.3,60.0130588432306,
23,0,23,0,,,,,,,,,,,,,,,,,,,,,,,,,,,,1553.8340229000896,None,public,aloud,yellow,56,244,1551.8335625000764,None,None,1551.8335625000764,None,,,,,,,,,,,,,,,,,,,,,,,,,,,,,,,,,color5,001,2019_Nov_21_1627,ProdSingRedo,3.2.3,60.0130588432306,
24,0,24,0,,,,,,,,,,,,,,,,,,,,,,,,,,,,1556.3508150000125,None,hearing,sing,red,6,150,1554.349728900008,None,None,1554.349728900008,None,,,,,,,,,,,,,,,,,,,,,,,,,,,,,,,,,color5,001,2019_Nov_21_1627,ProdSingRedo,3.2.3,60.0130588432306,
25,0,25,0,,,,,,,,,,,,,,,,,,,,,,,,,,,,1558.8676661000354,None,estate,aloud,yellow,58,119,1556.8652252000757,None,None,1556.8652252000757,None,,,,,,,,,,,,,,,,,,,,,,,,,,,,,,,,,color5,001,2019_Nov_21_1627,ProdSingRedo,3.2.3,60.0130588432306,
26,0,26,0,,,,,,,,,,,,,,,,,,,,,,,,,,,,1561.3844901000848,None,passage,silent,blue,65,212,1559.3857970000245,None,None,1559.3857970000245,None,,,,,,,,,,,,,,,,,,,,,,,,,,,,,,,,,color5,001,2019_Nov_21_1627,ProdSingRedo,3.2.3,60.0130588432306,
27,0,27,0,,,,,,,,,,,,,,,,,,,,,,,,,,,,1563.9012665000046,None,tennis,sing,red,11,323,1561.8931160999928,None,None,1561.8931160999928,None,,,,,,,,,,,,,,,,,,,,,,,,,,,,,,,,,color5,001,2019_Nov_21_1627,ProdSingRedo,3.2.3,60.0130588432306,
28,0,28,0,,,,,,,,,,,,,,,,,,,,,,,,,,,,1566.4181478000246,None,century,silent,blue,63,45,1564.4157178000314,None,None,1564.4157178000314,None,,,,,,,,,,,,,,,,,,,,,,,,,,,,,,,,,color5,001,2019_Nov_21_1627,ProdSingRedo,3.2.3,60.0130588432306,
29,0,29,0,,,,,,,,,,,,,,,,,,,,,,,,,,,,1568.9349637000123,None,angle,sing,red,19,7,1566.9308412000537,None,None,1566.9308412000537,None,,,,,,,,,,,,,,,,,,,,,,,,,,,,,,,,,color5,001,2019_Nov_21_1627,ProdSingRedo,3.2.3,60.0130588432306,
30,0,30,0,,,,,,,,,,,,,,,,,,,,,,,,,,,,1571.4518901000265,None,benefit,aloud,yellow,57,20,1569.4514790000394,None,None,1569.4514790000394,None,,,,,,,,,,,,,,,,,,,,,,,,,,,,,,,,,color5,001,2019_Nov_21_1627,ProdSingRedo,3.2.3,60.0130588432306,
31,0,31,0,,,,,,,,,,,,,,,,,,,,,,,,,,,,1573.9686308000237,None,relation,aloud,yellow,37,257,1571.9661605000729,None,None,1571.9661605000729,None,,,,,,,,,,,,,,,,,,,,,,,,,,,,,,,,,color5,001,2019_Nov_21_1627,ProdSingRedo,3.2.3,60.0130588432306,
32,0,32,0,,,,,,,,,,,,,,,,,,,,,,,,,,,,1576.4856537000742,None,thick,sing,red,25,327,1574.4802479000064,None,None,1574.4802479000064,None,,,,,,,,,,,,,,,,,,,,,,,,,,,,,,,,,color5,001,2019_Nov_21_1627,ProdSingRedo,3.2.3,60.0130588432306,
33,0,33,0,,,,,,,,,,,,,,,,,,,,,,,,,,,,1579.0023540999973,None,interior,sing,red,13,164,1576.999381300062,None,None,1576.999381300062,None,,,,,,,,,,,,,,,,,,,,,,,,,,,,,,,,,color5,001,2019_Nov_21_1627,ProdSingRedo,3.2.3,60.0130588432306,
34,0,34,0,,,,,,,,,,,,,,,,,,,,,,,,,,,,1581.5191355000716,None,right,aloud,yellow,47,265,1579.5181937000016,None,None,1579.5181937000016,None,,,,,,,,,,,,,,,,,,,,,,,,,,,,,,,,,color5,001,2019_Nov_21_1627,ProdSingRedo,3.2.3,60.0130588432306,
35,0,35,0,,,,,,,,,,,,,,,,,,,,,,,,,,,,1584.035986999981,None,season,sing,red,0,277,1582.0317651000805,None,None,1582.0317651000805,None,,,,,,,,,,,,,,,,,,,,,,,,,,,,,,,,,color5,001,2019_Nov_21_1627,ProdSingRedo,3.2.3,60.0130588432306,
36,0,36,0,,,,,,,,,,,,,,,,,,,,,,,,,,,,1586.5528036000906,None,produce,sing,red,2,239,1584.5507025000406,None,None,1584.5507025000406,None,,,,,,,,,,,,,,,,,,,,,,,,,,,,,,,,,color5,001,2019_Nov_21_1627,ProdSingRedo,3.2.3,60.0130588432306,
37,0,37,0,,,,,,,,,,,,,,,,,,,,,,,,,,,,1589.0697911999887,None,defeat,silent,blue,85,88,1587.0633731000125,None,None,1587.0633731000125,None,,,,,,,,,,,,,,,,,,,,,,,,,,,,,,,,,color5,001,2019_Nov_21_1627,ProdSingRedo,3.2.3,60.0130588432306,
38,0,38,0,,,,,,,,,,,,,,,,,,,,,,,,,,,,1591.5865510000149,None,universal,aloud,yellow,33,345,1589.5864356000675,None,None,1589.5864356000675,None,,,,,,,,,,,,,,,,,,,,,,,,,,,,,,,,,color5,001,2019_Nov_21_1627,ProdSingRedo,3.2.3,60.0130588432306,
39,0,39,0,,,,,,,,,,,,,,,,,,,,,,,,,,,,1594.103489400004,None,committee,sing,red,8,62,1592.0973046000581,None,None,1592.0973046000581,None,,,,,,,,,,,,,,,,,,,,,,,,,,,,,,,,,color5,001,2019_Nov_21_1627,ProdSingRedo,3.2.3,60.0130588432306,
40,0,40,0,,,,,,,,,,,,,,,,,,,,,,,,,,,,1596.6202315000119,None,oxygen,silent,blue,67,209,1594.6191728999838,None,None,1594.6191728999838,None,,,,,,,,,,,,,,,,,,,,,,,,,,,,,,,,,color5,001,2019_Nov_21_1627,ProdSingRedo,3.2.3,60.0130588432306,
41,0,41,0,,,,,,,,,,,,,,,,,,,,,,,,,,,,1599.1370939000044,None,instrument,silent,blue,79,163,1597.136272600037,None,None,1597.136272600037,None,,,,,,,,,,,,,,,,,,,,,,,,,,,,,,,,,color5,001,2019_Nov_21_1627,ProdSingRedo,3.2.3,60.0130588432306,
42,0,42,0,,,,,,,,,,,,,,,,,,,,,,,,,,,,1601.6538956000004,None,taste,silent,blue,88,322,1599.6505201000255,None,None,1599.6505201000255,None,,,,,,,,,,,,,,,,,,,,,,,,,,,,,,,,,color5,001,2019_Nov_21_1627,ProdSingRedo,3.2.3,60.0130588432306,
43,0,43,0,,,,,,,,,,,,,,,,,,,,,,,,,,,,1604.1707373000681,None,route,silent,blue,84,267,1602.1663891000208,None,None,1602.1663891000208,None,,,,,,,,,,,,,,,,,,,,,,,,,,,,,,,,,color5,001,2019_Nov_21_1627,ProdSingRedo,3.2.3,60.0130588432306,
44,0,44,0,,,,,,,,,,,,,,,,,,,,,,,,,,,,1606.6876416000305,None,colonel,aloud,yellow,48,55,1604.6805544000817,None,None,1604.6805544000817,None,,,,,,,,,,,,,,,,,,,,,,,,,,,,,,,,,color5,001,2019_Nov_21_1627,ProdSingRedo,3.2.3,60.0130588432306,
45,0,45,0,,,,,,,,,,,,,,,,,,,,,,,,,,,,1609.2044689999893,None,smell,silent,blue,80,291,1607.1963999000145,None,None,1607.1963999000145,None,,,,,,,,,,,,,,,,,,,,,,,,,,,,,,,,,color5,001,2019_Nov_21_1627,ProdSingRedo,3.2.3,60.0130588432306,
46,0,46,0,,,,,,,,,,,,,,,,,,,,,,,,,,,,1611.7212185000535,None,alert,silent,blue,76,6,1609.7136730999919,None,None,1609.7136730999919,None,,,,,,,,,,,,,,,,,,,,,,,,,,,,,,,,,color5,001,2019_Nov_21_1627,ProdSingRedo,3.2.3,60.0130588432306,
47,0,47,0,,,,,,,,,,,,,,,,,,,,,,,,,,,,1614.2381467000814,None,group,sing,red,23,143,1612.2335900000762,None,None,1612.2335900000762,None,,,,,,,,,,,,,,,,,,,,,,,,,,,,,,,,,color5,001,2019_Nov_21_1627,ProdSingRedo,3.2.3,60.0130588432306,
48,0,48,0,,,,,,,,,,,,,,,,,,,,,,,,,,,,1616.7549867000198,None,level,sing,red,1,170,1614.7501488000853,None,None,1614.7501488000853,None,,,,,,,,,,,,,,,,,,,,,,,,,,,,,,,,,color5,001,2019_Nov_21_1627,ProdSingRedo,3.2.3,60.0130588432306,
49,0,49,0,,,,,,,,,,,,,,,,,,,,,,,,,,,,1619.2717778000515,None,employment,silent,blue,72,111,1617.268509500078,None,None,1617.268509500078,None,,,,,,,,,,,,,,,,,,,,,,,,,,,,,,,,,color5,001,2019_Nov_21_1627,ProdSingRedo,3.2.3,60.0130588432306,
50,0,50,0,,,,,,,,,,,,,,,,,,,,,,,,,,,,1621.788555099978,None,emergency,silent,blue,83,110,1619.7885110999923,None,None,1619.7885110999923,None,,,,,,,,,,,,,,,,,,,,,,,,,,,,,,,,,color5,001,2019_Nov_21_1627,ProdSingRedo,3.2.3,60.0130588432306,
51,0,51,0,,,,,,,,,,,,,,,,,,,,,,,,,,,,1624.3054848000174,None,chief,silent,blue,60,48,1622.2990518000443,None,None,1622.2990518000443,None,,,,,,,,,,,,,,,,,,,,,,,,,,,,,,,,,color5,001,2019_Nov_21_1627,ProdSingRedo,3.2.3,60.0130588432306,
52,0,52,0,,,,,,,,,,,,,,,,,,,,,,,,,,,,1626.822266699979,None,broad,aloud,yellow,59,31,1624.8209910000442,None,None,1624.8209910000442,None,,,,,,,,,,,,,,,,,,,,,,,,,,,,,,,,,color5,001,2019_Nov_21_1627,ProdSingRedo,3.2.3,60.0130588432306,
53,0,53,0,,,,,,,,,,,,,,,,,,,,,,,,,,,,1629.339058100013,None,count,silent,blue,71,72,1627.3337365000043,None,None,1627.3337365000043,None,,,,,,,,,,,,,,,,,,,,,,,,,,,,,,,,,color5,001,2019_Nov_21_1627,ProdSingRedo,3.2.3,60.0130588432306,
54,0,54,0,,,,,,,,,,,,,,,,,,,,,,,,,,,,1631.8559198000003,None,character,silent,blue,77,46,1629.85575290001,None,None,1629.85575290001,None,,,,,,,,,,,,,,,,,,,,,,,,,,,,,,,,,color5,001,2019_Nov_21_1627,ProdSingRedo,3.2.3,60.0130588432306,
55,0,55,0,,,,,,,,,,,,,,,,,,,,,,,,,,,,1634.3727339000907,None,trial,aloud,yellow,52,341,1632.368220900069,None,None,1632.368220900069,None,,,,,,,,,,,,,,,,,,,,,,,,,,,,,,,,,color5,001,2019_Nov_21_1627,ProdSingRedo,3.2.3,60.0130588432306,
56,0,56,0,,,,,,,,,,,,,,,,,,,,,,,,,,,,1636.889697500039,None,search,sing,red,26,276,1634.8865465000272,None,None,1634.8865465000272,None,,,,,,,,,,,,,,,,,,,,,,,,,,,,,,,,,color5,001,2019_Nov_21_1627,ProdSingRedo,3.2.3,60.0130588432306,
57,0,57,0,,,,,,,,,,,,,,,,,,,,,,,,,,,,1639.406393100042,None,notice,sing,red,21,201,1637.3990466999821,None,None,1637.3990466999821,None,,,,,,,,,,,,,,,,,,,,,,,,,,,,,,,,,color5,001,2019_Nov_21_1627,ProdSingRedo,3.2.3,60.0130588432306,
58,0,58,0,,,,,,,,,,,,,,,,,,,,,,,,,,,,1641.9231264999835,None,expansion,aloud,yellow,40,123,1639.9232069000136,None,None,1639.9232069000136,None,,,,,,,,,,,,,,,,,,,,,,,,,,,,,,,,,color5,001,2019_Nov_21_1627,ProdSingRedo,3.2.3,60.0130588432306,
59,0,59,0,,,,,,,,,,,,,,,,,,,,,,,,,,,,1644.4402246000245,None,message,aloud,yellow,39,189,1642.4375670000445,None,None,1642.4375670000445,None,,,,,,,,,,,,,,,,,,,,,,,,,,,,,,,,,color5,001,2019_Nov_21_1627,ProdSingRedo,3.2.3,60.0130588432306,
60,0,60,0,,,,,,,,,,,,,,,,,,,,,,,,,,,,1646.956983900047,None,drama,aloud,yellow,36,103,1644.9508467999985,None,None,1644.9508467999985,None,,,,,,,,,,,,,,,,,,,,,,,,,,,,,,,,,color5,001,2019_Nov_21_1627,ProdSingRedo,3.2.3,60.0130588432306,
61,0,61,0,,,,,,,,,,,,,,,,,,,,,,,,,,,,1649.4738080999814,None,brief,aloud,yellow,34,28,1647.4702255000593,None,None,1647.4702255000593,None,,,,,,,,,,,,,,,,,,,,,,,,,,,,,,,,,color5,001,2019_Nov_21_1627,ProdSingRedo,3.2.3,60.0130588432306,
62,0,62,0,,,,,,,,,,,,,,,,,,,,,,,,,,,,1651.9906381000765,None,graduate,sing,red,18,141,1649.9914110000245,None,None,1649.9914110000245,None,,,,,,,,,,,,,,,,,,,,,,,,,,,,,,,,,color5,001,2019_Nov_21_1627,ProdSingRedo,3.2.3,60.0130588432306,
63,0,63,0,,,,,,,,,,,,,,,,,,,,,,,,,,,,1654.5074948000256,None,sight,aloud,yellow,35,286,1652.5040955999866,None,None,1652.5040955999866,None,,,,,,,,,,,,,,,,,,,,,,,,,,,,,,,,,color5,001,2019_Nov_21_1627,ProdSingRedo,3.2.3,60.0130588432306,
64,0,64,0,,,,,,,,,,,,,,,,,,,,,,,,,,,,1657.0243356000865,None,union,aloud,yellow,55,344,1655.0190816000104,None,None,1655.0190816000104,None,,,,,,,,,,,,,,,,,,,,,,,,,,,,,,,,,color5,001,2019_Nov_21_1627,ProdSingRedo,3.2.3,60.0130588432306,
65,0,65,0,,,,,,,,,,,,,,,,,,,,,,,,,,,,1659.5411401999881,None,pattern,silent,blue,75,214,1657.5412426000694,None,None,1657.5412426000694,None,,,,,,,,,,,,,,,,,,,,,,,,,,,,,,,,,color5,001,2019_Nov_21_1627,ProdSingRedo,3.2.3,60.0130588432306,
66,0,66,0,,,,,,,,,,,,,,,,,,,,,,,,,,,,1662.0580149000743,None,disease,silent,blue,61,97,1660.0524255000055,None,None,1660.0524255000055,None,,,,,,,,,,,,,,,,,,,,,,,,,,,,,,,,,color5,001,2019_Nov_21_1627,ProdSingRedo,3.2.3,60.0130588432306,
67,0,67,0,,,,,,,,,,,,,,,,,,,,,,,,,,,,1664.5748214999912,None,novel,sing,red,28,202,1662.5695874000667,None,None,1662.5695874000667,None,,,,,,,,,,,,,,,,,,,,,,,,,,,,,,,,,color5,001,2019_Nov_21_1627,ProdSingRedo,3.2.3,60.0130588432306,
68,0,68,0,,,,,,,,,,,,,,,,,,,,,,,,,,,,1667.0916256000055,None,write,sing,red,15,358,1665.0861926000798,None,None,1665.0861926000798,None,,,,,,,,,,,,,,,,,,,,,,,,,,,,,,,,,color5,001,2019_Nov_21_1627,ProdSingRedo,3.2.3,60.0130588432306,
69,0,69,0,,,,,,,,,,,,,,,,,,,,,,,,,,,,1669.608527500066,None,property,silent,blue,66,242,1667.6059836000204,None,None,1667.6059836000204,None,,,,,,,,,,,,,,,,,,,,,,,,,,,,,,,,,color5,001,2019_Nov_21_1627,ProdSingRedo,3.2.3,60.0130588432306,
70,0,70,0,,,,,,,,,,,,,,,,,,,,,,,,,,,,1672.1253328000894,None,gesture,silent,blue,78,137,1670.1260862000054,None,None,1670.1260862000054,None,,,,,,,,,,,,,,,,,,,,,,,,,,,,,,,,,color5,001,2019_Nov_21_1627,ProdSingRedo,3.2.3,60.0130588432306,
71,0,71,0,,,,,,,,,,,,,,,,,,,,,,,,,,,,1674.6421774000628,None,salary,aloud,yellow,30,271,1672.6471374999965,None,None,1672.6471374999965,None,,,,,,,,,,,,,,,,,,,,,,,,,,,,,,,,,color5,001,2019_Nov_21_1627,ProdSingRedo,3.2.3,60.0130588432306,
72,0,72,0,,,,,,,,,,,,,,,,,,,,,,,,,,,,1677.1590411000652,None,spoke,aloud,yellow,49,300,1675.1570184000302,None,None,1675.1570184000302,None,,,,,,,,,,,,,,,,,,,,,,,,,,,,,,,,,color5,001,2019_Nov_21_1627,ProdSingRedo,3.2.3,60.0130588432306,
73,0,73,0,,,,,,,,,,,,,,,,,,,,,,,,,,,,1679.6758448000764,None,scale,aloud,yellow,50,272,1677.6713432000251,None,None,1677.6713432000251,None,,,,,,,,,,,,,,,,,,,,,,,,,,,,,,,,,color5,001,2019_Nov_21_1627,ProdSingRedo,3.2.3,60.0130588432306,
74,0,74,0,,,,,,,,,,,,,,,,,,,,,,,,,,,,1682.1926551000215,None,detective,aloud,yellow,42,92,1680.192707200069,None,None,1680.192707200069,None,,,,,,,,,,,,,,,,,,,,,,,,,,,,,,,,,color5,001,2019_Nov_21_1627,ProdSingRedo,3.2.3,60.0130588432306,
75,0,75,0,,,,,,,,,,,,,,,,,,,,,,,,,,,,1684.7095744999824,None,finance,sing,red,24,129,1682.704955000081,None,None,1682.704955000081,None,,,,,,,,,,,,,,,,,,,,,,,,,,,,,,,,,color5,001,2019_Nov_21_1627,ProdSingRedo,3.2.3,60.0130588432306,
76,0,76,0,,,,,,,,,,,,,,,,,,,,,,,,,,,,1687.2263770999853,None,review,sing,red,10,263,1685.2223321000347,None,None,1685.2223321000347,None,,,,,,,,,,,,,,,,,,,,,,,,,,,,,,,,,color5,001,2019_Nov_21_1627,ProdSingRedo,3.2.3,60.0130588432306,
77,0,77,0,,,,,,,,,,,,,,,,,,,,,,,,,,,,1689.7432509000646,None,thing,silent,blue,89,328,1687.7379631000804,None,None,1687.7379631000804,None,,,,,,,,,,,,,,,,,,,,,,,,,,,,,,,,,color5,001,2019_Nov_21_1627,ProdSingRedo,3.2.3,60.0130588432306,
78,0,78,0,,,,,,,,,,,,,,,,,,,,,,,,,,,,1692.2608057000907,None,course,sing,red,5,74,1690.2590344999917,None,None,1690.2590344999917,None,,,,,,,,,,,,,,,,,,,,,,,,,,,,,,,,,color5,001,2019_Nov_21_1627,ProdSingRedo,3.2.3,60.0130588432306,
79,0,79,0,,,,,,,,,,,,,,,,,,,,,,,,,,,,1694.776872800081,None,atmosphere,sing,red,4,12,1692.7743605000433,None,None,1692.7743605000433,None,,,,,,,,,,,,,,,,,,,,,,,,,,,,,,,,,color5,001,2019_Nov_21_1627,ProdSingRedo,3.2.3,60.0130588432306,
80,0,80,0,,,,,,,,,,,,,,,,,,,,,,,,,,,,1697.2936240000417,None,crime,aloud,yellow,31,78,1695.286611800082,None,None,1695.286611800082,None,,,,,,,,,,,,,,,,,,,,,,,,,,,,,,,,,color5,001,2019_Nov_21_1627,ProdSingRedo,3.2.3,60.0130588432306,
81,0,81,0,,,,,,,,,,,,,,,,,,,,,,,,,,,,1699.8105015000328,None,material,silent,blue,70,182,1697.8111197000835,None,None,1697.8111197000835,None,,,,,,,,,,,,,,,,,,,,,,,,,,,,,,,,,color5,001,2019_Nov_21_1627,ProdSingRedo,3.2.3,60.0130588432306,
82,0,82,0,,,,,,,,,,,,,,,,,,,,,,,,,,,,1702.3273923000088,None,light,sing,red,27,171,1700.321743000066,None,None,1700.321743000066,None,,,,,,,,,,,,,,,,,,,,,,,,,,,,,,,,,color5,001,2019_Nov_21_1627,ProdSingRedo,3.2.3,60.0130588432306,
83,0,83,0,,,,,,,,,,,,,,,,,,,,,,,,,,,,1704.8467649000231,None,strain,sing,red,7,308,1702.8395767000038,None,None,1702.8395767000038,None,,,,,,,,,,,,,,,,,,,,,,,,,,,,,,,,,color5,001,2019_Nov_21_1627,ProdSingRedo,3.2.3,60.0130588432306,
84,0,84,0,,,,,,,,,,,,,,,,,,,,,,,,,,,,1707.3611238000449,None,conference,aloud,yellow,45,66,1705.355740900035,None,None,1705.355740900035,None,,,,,,,,,,,,,,,,,,,,,,,,,,,,,,,,,color5,001,2019_Nov_21_1627,ProdSingRedo,3.2.3,60.0130588432306,
85,0,85,0,,,,,,,,,,,,,,,,,,,,,,,,,,,,1709.8779539000243,None,voice,sing,red,29,348,1707.8746963000158,None,None,1707.8746963000158,None,,,,,,,,,,,,,,,,,,,,,,,,,,,,,,,,,color5,001,2019_Nov_21_1627,ProdSingRedo,3.2.3,60.0130588432306,
86,0,86,0,,,,,,,,,,,,,,,,,,,,,,,,,,,,1712.394722500001,None,beauty,aloud,yellow,44,18,1710.397218600032,None,None,1710.397218600032,None,,,,,,,,,,,,,,,,,,,,,,,,,,,,,,,,,color5,001,2019_Nov_21_1627,ProdSingRedo,3.2.3,60.0130588432306,
87,0,87,0,,,,,,,,,,,,,,,,,,,,,,,,,,,,1714.911632000003,None,personnel,aloud,yellow,46,219,1712.9056273000315,None,None,1712.9056273000315,None,,,,,,,,,,,,,,,,,,,,,,,,,,,,,,,,,color5,001,2019_Nov_21_1627,ProdSingRedo,3.2.3,60.0130588432306,
88,0,88,0,,,,,,,,,,,,,,,,,,,,,,,,,,,,1717.4283724999987,None,subject,silent,blue,73,312,1715.426738500013,None,None,1715.426738500013,None,,,,,,,,,,,,,,,,,,,,,,,,,,,,,,,,,color5,001,2019_Nov_21_1627,ProdSingRedo,3.2.3,60.0130588432306,
89,0,89,0,,,,,,,,,,,,,,,,,,,,,,,,,,,,1719.9452810999937,None,cover,silent,blue,87,77,1717.9398496000795,None,None,1717.9398496000795,None,,,,,,,,,,,,,,,,,,,,,,,,,,,,,,,,,color5,001,2019_Nov_21_1627,ProdSingRedo,3.2.3,60.0130588432306,
,,,,,,,,,,,,,,,,,,,,,,,,,,,,,,,,,,,,,,,,,,,1720.4452632000903,None,k,37.459437300101854,1720.4452632000903,None,,,,,,,,,,,,,,,,,,,,,,,,,,,color5,001,2019_Nov_21_1627,ProdSingRedo,3.2.3,60.0130588432306,
,,,,0,0,0,0,,,,,,,,,,,,,,,,,,,,,,,,1767.2755677000387,None,,,,,,,,,,,,,,,,,individual,silent,blue,0,69,160,1758.4574174000882,None,1758.4574174000882,None,2,4.807427000021562,1758.4574174000882,None,1763.3107936000451,None,1763.8336537000723,None,1763.8336537000723,None,f,3.4071000000694767,1763.8336537000723,None,,,color5,001,2019_Nov_21_1627,ProdSingRedo,3.2.3,60.0130588432306,
,,,,1,0,1,0,,,,,,,,,,,,,,,,,,,,,,,,1773.4738650000654,None,,,,,,,,,,,,,,,,,right,aloud,yellow,1,47,265,1767.7992540000705,None,1767.7992540000705,None,6,3.3777154000708833,1767.7992540000705,None,1771.22203360009,None,1771.7428170000203,None,1771.7428170000203,None,r,1.7060559000819921,1771.7428170000203,None,,,color5,001,2019_Nov_21_1627,ProdSingRedo,3.2.3,60.0130588432306,
,,,,2,0,2,0,,,,,,,,,,,,,,,,,,,,,,,,1779.2088228000794,None,,,,,,,,,,,,,,,,,danger,new_silent,blue,2,172,85,1773.9962738000322,None,1773.9962738000322,None,6,2.868558199959807,1773.9962738000322,None,1776.9037382000824,None,1777.4311008000514,None,1777.4311008000514,None,r,1.7457035999977961,1777.4311008000514,None,,,color5,001,2019_Nov_21_1627,ProdSingRedo,3.2.3,60.0130588432306,
,,,,3,0,3,0,,,,,,,,,,,,,,,,,,,,,,,,1785.1248739000876,None,,,,,,,,,,,,,,,,,equipment,new_silent,blue,3,154,116,1779.7451183000812,None,1779.7451183000812,None,3,3.6316707000369206,1779.7451183000812,None,1783.4194182000356,None,1783.9491450000787,None,1783.9491450000787,None,f,1.1481460999930277,1783.9491450000787,None,,,color5,001,2019_Nov_21_1627,ProdSingRedo,3.2.3,60.0130588432306,
,,,,4,0,4,0,,,,,,,,,,,,,,,,,,,,,,,,1788.8607623000862,None,,,,,,,,,,,,,,,,,salary,aloud,yellow,4,30,271,1785.6544285999844,None,1785.6544285999844,None,6,1.7945815999992192,1785.6544285999844,None,1787.4921040000627,None,1788.014265500009,None,1788.014265500009,None,r,0.8186204000376165,1788.014265500009,None,,,color5,001,2019_Nov_21_1627,ProdSingRedo,3.2.3,60.0130588432306,
,,,,5,0,5,0,,,,,,,,,,,,,,,,,,,,,,,,1794.0916239999933,None,,,,,,,,,,,,,,,,,search,sing,red,5,26,276,1789.3823559000157,None,1789.3823559000157,None,6,3.1625229000346735,1789.3823559000157,None,1792.5893974000355,None,1793.1110290000215,None,1793.1110290000215,None,f,0.9540741000091657,1793.1110290000215,None,,,color5,001,2019_Nov_21_1627,ProdSingRedo,3.2.3,60.0130588432306,
,,,,6,0,6,0,,,,,,,,,,,,,,,,,,,,,,,,1800.892712000059,None,,,,,,,,,,,,,,,,,audience,silent,blue,6,82,14,1794.6179636000888,None,1794.6179636000888,None,2,2.047101499978453,1794.6179636000888,None,1796.704176899977,None,1797.2184527000645,None,1797.2184527000645,None,n,3.6467429999029264,1797.2184527000645,None,,,color5,001,2019_Nov_21_1627,ProdSingRedo,3.2.3,60.0130588432306,
,,,,7,0,7,0,,,,,,,,,,,,,,,,,,,,,,,,1806.1804536000127,None,,,,,,,,,,,,,,,,,weather,new_silent,blue,7,157,352,1801.4144556000829,None,1801.4144556000829,None,6,2.29839169990737,1801.4144556000829,None,1803.7606464000419,None,1804.2805345000234,None,1804.2805345000234,None,f,1.8722688999259844,1804.2805345000234,None,,,color5,001,2019_Nov_21_1627,ProdSingRedo,3.2.3,60.0130588432306,
,,,,8,0,8,0,,,,,,,,,,,,,,,,,,,,,,,,1810.776544500026,None,,,,,,,,,,,,,,,,,relation,aloud,yellow,8,37,257,1806.70055040007,None,1806.70055040007,None,6,2.620269300066866,1806.70055040007,None,1809.3744656000054,None,1809.8983596999897,None,1809.8983596999897,None,r,0.8544466000748798,1809.8983596999897,None,,,color5,001,2019_Nov_21_1627,ProdSingRedo,3.2.3,60.0130588432306,
,,,,9,0,9,0,,,,,,,,,,,,,,,,,,,,,,,,1814.4762116000056,None,,,,,,,,,,,,,,,,,property,silent,blue,9,66,242,1811.301324,None,1811.301324,None,4,1.3479736000299454,1811.301324,None,1812.6897658000235,None,1813.2124787999783,None,1813.2124787999783,None,f,1.228306100005284,1813.2124787999783,None,,,color5,001,2019_Nov_21_1627,ProdSingRedo,3.2.3,60.0130588432306,
,,,,10,0,10,0,,,,,,,,,,,,,,,,,,,,,,,,1818.5614746999927,None,,,,,,,,,,,,,,,,,beginning,new_sing,red,10,109,19,1815.0038067999994,None,1815.0038067999994,None,6,1.7570599000900984,1815.0038067999994,None,1816.8068139000097,None,1817.3366573000094,None,1817.3366573000094,None,r,1.2001254999777302,1817.3366573000094,None,,,color5,001,2019_Nov_21_1627,ProdSingRedo,3.2.3,60.0130588432306,
,,,,11,0,11,0,,,,,,,,,,,,,,,,,,,,,,,,1821.5433784000343,None,,,,,,,,,,,,,,,,,victory,new_silent,blue,11,169,346,1819.087791900034,None,1819.087791900034,None,6,1.0409497999353334,1819.087791900034,None,1820.176830900018,None,1820.6984179000137,None,1820.6984179000137,None,r,0.8064491000259295,1820.6984179000137,None,,,color5,001,2019_Nov_21_1627,ProdSingRedo,3.2.3,60.0130588432306,
,,,,12,0,12,0,,,,,,,,,,,,,,,,,,,,,,,,1824.1942106999923,None,,,,,,,,,,,,,,,,,pattern,silent,blue,12,75,214,1822.0705924000358,None,1822.0705924000358,None,4,1.1783982999622822,1822.0705924000358,None,1823.2921670000069,None,1823.8145034000045,None,1823.8145034000045,None,f,0.3462644999381155,1823.8145034000045,None,,,color5,001,2019_Nov_21_1627,ProdSingRedo,3.2.3,60.0130588432306,
,,,,13,0,13,0,,,,,,,,,,,,,,,,,,,,,,,,1826.9443915000884,None,,,,,,,,,,,,,,,,,quarter,new_silent,blue,13,151,246,1824.7197412999813,None,1824.7197412999813,None,4,1.3138642000267282,1824.7197412999813,None,1826.0770934000611,None,1826.5991643000161,None,1826.5991643000161,None,f,0.3216357999481261,1826.5991643000161,None,,,color5,001,2019_Nov_21_1627,ProdSingRedo,3.2.3,60.0130588432306,
,,,,14,0,14,0,,,,,,,,,,,,,,,,,,,,,,,,1830.629109300091,None,,,,,,,,,,,,,,,,,finance,sing,red,14,24,129,1827.4713275000686,None,1827.4713275000686,None,6,1.4734619000228122,1827.4713275000686,None,1828.9880976000568,None,1829.5167594000231,None,1829.5167594000231,None,r,1.0843235000502318,1829.5167594000231,None,,,color5,001,2019_Nov_21_1627,ProdSingRedo,3.2.3,60.0130588432306,
,,,,15,0,15,0,,,,,,,,,,,,,,,,,,,,,,,,1838.0945133999921,None,,,,,,,,,,,,,,,,,surface,new_aloud,yellow,15,121,316,1831.15647669998,None,1831.15647669998,None,4,5.876436399994418,1831.15647669998,None,1837.0786712000845,None,1837.6018199999817,None,1837.6018199999817,None,f,0.45498549996409565,1837.6018199999817,None,,,color5,001,2019_Nov_21_1627,ProdSingRedo,3.2.3,60.0130588432306,
,,,,16,0,16,0,,,,,,,,,,,,,,,,,,,,,,,,1840.8947283000452,None,,,,,,,,,,,,,,,,,season,sing,red,16,0,277,1838.6207669000141,None,1838.6207669000141,None,6,1.3320094000082463,1838.6207669000141,None,1839.9924509000266,None,1840.514606300043,None,1840.514606300043,None,r,0.34220239997375757,1840.514606300043,None,,,color5,001,2019_Nov_21_1627,ProdSingRedo,3.2.3,60.0130588432306,
,,,,17,0,17,0,,,,,,,,,,,,,,,,,,,,,,,,1843.5281571000814,None,,,,,,,,,,,,,,,,,pretty,new_sing,red,17,118,233,1841.4200522000901,None,1841.4200522000901,None,6,1.181275299983099,1841.4200522000901,None,1842.6371610000497,None,1843.1482745000394,None,1843.1482745000394,None,r,0.34066069999244064,1843.1482745000394,None,,,color5,001,2019_Nov_21_1627,ProdSingRedo,3.2.3,60.0130588432306,
,,,,18,0,18,0,,,,,,,,,,,,,,,,,,,,,,,,1846.0792360000778,None,,,,,,,,,,,,,,,,,scene,new_aloud,yellow,18,142,273,1844.0506426000502,None,1844.0506426000502,None,6,1.182129800086841,1844.0506426000502,None,1845.274424900068,None,1845.791928300052,None,1845.791928300052,None,r,0.2569400001084432,1845.791928300052,None,,,color5,001,2019_Nov_21_1627,ProdSingRedo,3.2.3,60.0130588432306,
,,,,19,0,19,0,,,,,,,,,,,,,,,,,,,,,,,,1848.6952261000406,None,,,,,,,,,,,,,,,,,cover,silent,blue,19,87,77,1846.6054296999937,None,1846.6054296999937,None,4,1.3073178000049666,1846.6054296999937,None,1847.9611901000608,None,1848.4797208000673,None,1848.4797208000673,None,f,0.17711149994283915,1848.4797208000673,None,,,color5,001,2019_Nov_21_1627,ProdSingRedo,3.2.3,60.0130588432306,
,,,,20,0,20,0,,,,,,,,,,,,,,,,,,,,,,,,1853.1295441000257,None,,,,,,,,,,,,,,,,,produce,sing,red,20,2,239,1849.2223167000338,None,1849.2223167000338,None,2,1.7704608999192715,1849.2223167000338,None,1851.0441421000287,None,1851.567230900051,None,1851.567230900051,None,n,1.537681599962525,1851.567230900051,None,,,color5,001,2019_Nov_21_1627,ProdSingRedo,3.2.3,60.0130588432306,
,,,,21,0,21,0,,,,,,,,,,,,,,,,,,,,,,,,1856.8800968000432,None,,,,,,,,,,,,,,,,,dance,new_sing,red,21,117,84,1853.6549019999802,None,1853.6549019999802,None,1,1.7219051000429317,1853.6549019999802,None,1855.4264027000172,None,1855.949015500024,None,1855.949015500024,None,n,0.8918253000592813,1855.949015500024,None,,,color5,001,2019_Nov_21_1627,ProdSingRedo,3.2.3,60.0130588432306,
,,,,22,0,22,0,,,,,,,,,,,,,,,,,,,,,,,,1861.1969139000867,None,,,,,,,,,,,,,,,,,reach,new_sing,red,22,95,253,1857.393708000076,None,1857.393708000076,None,3,2.151054700021632,1857.393708000076,None,1859.5882158000022,None,1860.1020701000234,None,1860.1020701000234,None,n,1.0672558000078425,1860.1020701000234,None,,,color5,001,2019_Nov_21_1627,ProdSingRedo,3.2.3,60.0130588432306,
,,,,23,0,23,0,,,,,,,,,,,,,,,,,,,,,,,,1865.0473084000405,None,,,,,,,,,,,,,,,,,citizen,new_sing,red,23,91,50,1861.7288130000234,None,1861.7288130000234,None,4,2.336149000097066,1861.7288130000234,None,1864.1105575000402,None,1864.6328994000796,None,1864.6328994000796,None,n,0.3759283000836149,1864.6328994000796,None,,,color5,001,2019_Nov_21_1627,ProdSingRedo,3.2.3,60.0130588432306,
,,,,24,0,24,0,,,,,,,,,,,,,,,,,,,,,,,,1868.0475150999846,None,,,,,,,,,,,,,,,,,break,new_sing,red,24,92,26,1865.5746456000488,None,1865.5746456000488,None,3,1.410183500032872,1865.5746456000488,None,1867.0248424999882,None,1867.5509102999931,None,1867.5509102999931,None,n,0.46610259998124093,1867.5509102999931,None,,,color5,001,2019_Nov_21_1627,ProdSingRedo,3.2.3,60.0130588432306,
,,,,25,0,25,0,,,,,,,,,,,,,,,,,,,,,,,,1872.0310072000138,None,,,,,,,,,,,,,,,,,strain,sing,red,25,7,308,1868.572604099987,None,1868.572604099987,None,4,1.7644076999276876,1868.572604099987,None,1870.3785855000606,None,1870.9021005000686,None,1870.9021005000686,None,f,1.0987124000675976,1870.9021005000686,None,,,color5,001,2019_Nov_21_1627,ProdSingRedo,3.2.3,60.0130588432306,
,,,,26,0,26,0,,,,,,,,,,,,,,,,,,,,,,,,1874.6468652000185,None,,,,,,,,,,,,,,,,,nation,new_aloud,yellow,26,134,198,1872.556150700082,None,1872.556150700082,None,6,1.124568200088106,1872.556150700082,None,1873.728523900034,None,1874.2500492000254,None,1874.2500492000254,None,r,0.3587747000856325,1874.2500492000254,None,,,color5,001,2019_Nov_21_1627,ProdSingRedo,3.2.3,60.0130588432306,
,,,,27,0,27,0,,,,,,,,,,,,,,,,,,,,,,,,1879.4147587000625,None,,,,,,,,,,,,,,,,,smell,silent,blue,27,80,291,1875.1682938000886,None,1875.1682938000886,None,4,3.3528483000118285,1875.1682938000886,None,1878.5580046999967,None,1879.0769091000548,None,1879.0769091000548,None,f,0.30788249999750406,1879.0769091000548,None,,,color5,001,2019_Nov_21_1627,ProdSingRedo,3.2.3,60.0130588432306,
,,,,28,0,28,0,,,,,,,,,,,,,,,,,,,,,,,,1882.1147017000476,None,,,,,,,,,,,,,,,,,atmosphere,sing,red,28,4,12,1879.9400066999951,None,1879.9400066999951,None,6,1.3007452000165358,1879.9400066999951,None,1881.2800019000424,None,1881.8003727000905,None,1881.8003727000905,None,r,0.28850439994130284,1881.8003727000905,None,,,color5,001,2019_Nov_21_1627,ProdSingRedo,3.2.3,60.0130588432306,
,,,,29,0,29,0,,,,,,,,,,,,,,,,,,,,,,,,1884.7148957999889,None,,,,,,,,,,,,,,,,,threat,new_aloud,yellow,29,145,329,1882.6416790999938,None,1882.6416790999938,None,4,1.3991669999668375,1882.6416790999938,None,1884.0824731000466,None,1884.6018561000237,None,1884.6018561000237,None,f,0.0789108999306336,1884.6018561000237,None,,,color5,001,2019_Nov_21_1627,ProdSingRedo,3.2.3,60.0130588432306,
,,,,30,0,30,0,,,,,,,,,,,,,,,,,,,,,,,,1887.0573851000518,None,,,,,,,,,,,,,,,,,conference,aloud,yellow,30,45,66,1885.2480801000493,None,1885.2480801000493,None,6,1.2007860000012442,1885.2480801000493,None,1886.4936323000584,None,1887.020590799977,None,1887.020590799977,None,r,0.02005649998318404,1887.020590799977,None,,,color5,001,2019_Nov_21_1627,ProdSingRedo,3.2.3,60.0130588432306,
,,,,31,0,31,0,,,,,,,,,,,,,,,,,,,,,,,,1889.8654581999872,None,,,,,,,,,,,,,,,,,defeat,silent,blue,31,85,88,1887.5775490000378,None,1887.5775490000378,None,6,1.6393278000177816,1887.5775490000378,None,1889.2587852000725,None,1889.7889256000053,None,1889.7889256000053,None,r,0.05181510001420975,1889.7889256000053,None,,,color5,001,2019_Nov_21_1627,ProdSingRedo,3.2.3,60.0130588432306,
,,,,32,0,32,0,,,,,,,,,,,,,,,,,,,,,,,,1892.4654743000865,None,,,,,,,,,,,,,,,,,title,new_aloud,yellow,32,126,331,1890.3861460000044,None,1890.3861460000044,None,4,1.1986303000012413,1890.3861460000044,None,1891.6249913000502,None,1892.147650900064,None,1892.147650900064,None,f,0.29315370006952435,1892.147650900064,None,,,color5,001,2019_Nov_21_1627,ProdSingRedo,3.2.3,60.0130588432306,
,,,,33,0,33,0,,,,,,,,,,,,,,,,,,,,,,,,1896.132385600009,None,,,,,,,,,,,,,,,,,tennis,sing,red,33,11,323,1892.9871646000538,None,1892.9871646000538,None,2,1.5816745000192896,1892.9871646000538,None,1894.609906500089,None,1895.1302804000443,None,1895.1302804000443,None,f,0.9667456999886781,1895.1302804000443,None,,,color5,001,2019_Nov_21_1627,ProdSingRedo,3.2.3,60.0130588432306,
,,,,34,0,34,0,,,,,,,,,,,,,,,,,,,,,,,,1899.515987400082,None,,,,,,,,,,,,,,,,,benefit,aloud,yellow,34,57,20,1896.6604133000365,None,1896.6604133000365,None,4,1.756417499971576,1896.6604133000365,None,1898.46307659999,None,1898.9885768999811,None,1898.9885768999811,None,n,0.4922260999446735,1898.9885768999811,None,,,color5,001,2019_Nov_21_1627,ProdSingRedo,3.2.3,60.0130588432306,
,,,,35,0,35,0,,,,,,,,,,,,,,,,,,,,,,,,1904.4329577999888,None,,,,,,,,,,,,,,,,,murder,new_sing,red,35,90,195,1900.0424114000052,None,1900.0424114000052,None,4,3.263031799928285,1900.0424114000052,None,1903.3481198999798,None,1903.8678084000712,None,1903.8678084000712,None,n,0.5330435000360012,1903.8678084000712,None,,,color5,001,2019_Nov_21_1627,ProdSingRedo,3.2.3,60.0130588432306,
,,,,36,0,36,0,,,,,,,,,,,,,,,,,,,,,,,,1906.9658825000515,None,,,,,,,,,,,,,,,,,owner,aloud,yellow,36,38,208,1904.9574613000732,None,1904.9574613000732,None,6,1.1235256000654772,1904.9574613000732,None,1906.1307353000157,None,1906.6506065999856,None,1906.6506065999856,None,r,0.2783338000299409,1906.6506065999856,None,,,color5,001,2019_Nov_21_1627,ProdSingRedo,3.2.3,60.0130588432306,
,,,,37,0,37,0,,,,,,,,,,,,,,,,,,,,,,,,1909.433307899977,None,,,,,,,,,,,,,,,,,reading,new_aloud,yellow,37,137,254,1907.4921639000531,None,1907.4921639000531,None,6,1.1888311000075191,1907.4921639000531,None,1908.7325466000475,None,1909.2565987000708,None,1909.2565987000708,None,r,0.15211790008470416,1909.2565987000708,None,,,color5,001,2019_Nov_21_1627,ProdSingRedo,3.2.3,60.0130588432306,
,,,,38,0,38,0,,,,,,,,,,,,,,,,,,,,,,,,1912.5494906000094,None,,,,,,,,,,,,,,,,,addition,new_silent,blue,38,167,2,1909.9586719999788,None,1909.9586719999788,None,4,1.4984821999678388,1909.9586719999788,None,1911.4979528000113,None,1912.0180242999922,None,1912.0180242999922,None,f,0.4948342000134289,1912.0180242999922,None,,,color5,001,2019_Nov_21_1627,ProdSingRedo,3.2.3,60.0130588432306,
,,,,39,0,39,0,,,,,,,,,,,,,,,,,,,,,,,,1914.81642310007,None,,,,,,,,,,,,,,,,,incident,new_sing,red,39,100,158,1913.0705445000203,None,1913.0705445000203,None,4,1.0102778000291437,1913.0705445000203,None,1914.1241820000578,None,1914.6335739999777,None,1914.6335739999777,None,f,0.1432673999806866,1914.6335739999777,None,,,color5,001,2019_Nov_21_1627,ProdSingRedo,3.2.3,60.0130588432306,
,,,,40,0,40,0,,,,,,,,,,,,,,,,,,,,,,,,1917.6610264000483,None,,,,,,,,,,,,,,,,,piece,new_aloud,yellow,40,129,221,1915.3376038999995,None,1915.3376038999995,None,6,1.3519713999703526,1915.3376038999995,None,1916.7267031000229,None,1917.2487539000576,None,1917.2487539000576,None,f,0.38372220005840063,1917.2487539000576,None,,,color5,001,2019_Nov_21_1627,ProdSingRedo,3.2.3,60.0130588432306,
,,,,41,0,41,0,,,,,,,,,,,,,,,,,,,,,,,,1919.8673372000922,None,,,,,,,,,,,,,,,,,direction,new_silent,blue,41,152,94,1918.1899056000402,None,1918.1899056000402,None,6,0.9789330000057817,1918.1899056000402,None,1919.2126387000317,None,1919.7329639000818,None,1919.7329639000818,None,f,0.09984169993549585,1919.7329639000818,None,,,color5,001,2019_Nov_21_1627,ProdSingRedo,3.2.3,60.0130588432306,
,,,,42,0,42,0,,,,,,,,,,,,,,,,,,,,,,,,1922.383569400059,None,,,,,,,,,,,,,,,,,estate,aloud,yellow,42,58,119,1920.3911845000694,None,1920.3911845000694,None,4,1.0097443999256939,1920.3911845000694,None,1921.4452012000838,None,1921.9722558000358,None,1921.9722558000358,None,n,0.3725722999079153,1921.9722558000358,None,,,color5,001,2019_Nov_21_1627,ProdSingRedo,3.2.3,60.0130588432306,
,,,,43,0,43,0,,,,,,,,,,,,,,,,,,,,,,,,1924.783741799998,None,,,,,,,,,,,,,,,,,quantity,new_silent,blue,43,171,245,1922.9112785999896,None,1922.9112785999896,None,4,1.0575950000202283,1922.9112785999896,None,1924.019135700073,None,1924.540827000048,None,1924.540827000048,None,n,0.2039939999813214,1924.540827000048,None,,,color5,001,2019_Nov_21_1627,ProdSingRedo,3.2.3,60.0130588432306,
,,,,44,0,44,0,,,,,,,,,,,,,,,,,,,,,,,,1927.1015165999997,None,,,,,,,,,,,,,,,,,gesture,silent,blue,44,78,137,1925.309850400081,None,1925.309850400081,None,3,1.0350600999081507,1925.309850400081,None,1926.400439799996,None,1926.9234975000145,None,1926.9234975000145,None,n,0.1412965999916196,1926.9234975000145,None,,,color5,001,2019_Nov_21_1627,ProdSingRedo,3.2.3,60.0130588432306,
,,,,45,0,45,0,,,,,,,,,,,,,,,,,,,,,,,,1930.884910200024,None,,,,,,,,,,,,,,,,,block,new_silent,blue,45,170,25,1927.6268312000902,None,1927.6268312000902,None,1,1.8941414000000805,1927.6268312000902,None,1929.566208400065,None,1930.0862636000384,None,1930.0862636000384,None,n,0.7710488999728113,1930.0862636000384,None,,,color5,001,2019_Nov_21_1627,ProdSingRedo,3.2.3,60.0130588432306,
,,,,46,0,46,0,,,,,,,,,,,,,,,,,,,,,,,,1933.4024081000825,None,,,,,,,,,,,,,,,,,accident,new_sing,red,46,112,0,1931.4054706000024,None,1931.4054706000024,None,6,1.3232945000054315,1931.4054706000024,None,1932.7807678000536,None,1933.3036520000314,None,1933.3036520000314,None,r,0.07342799997422844,1933.3036520000314,None,,,color5,001,2019_Nov_21_1627,ProdSingRedo,3.2.3,60.0130588432306,
,,,,47,0,47,0,,,,,,,,,,,,,,,,,,,,,,,,1935.7851559000555,None,,,,,,,,,,,,,,,,,symbol,aloud,yellow,47,53,321,1933.9267362999963,None,1933.9267362999963,None,6,1.18615950003732,1933.9267362999963,None,1935.1688758999808,None,1935.6903949000407,None,1935.6903949000407,None,r,0.06252150004729629,1935.6903949000407,None,,,color5,001,2019_Nov_21_1627,ProdSingRedo,3.2.3,60.0130588432306,
,,,,48,0,48,0,,,,,,,,,,,,,,,,,,,,,,,,1937.9186875000596,None,,,,,,,,,,,,,,,,,clean,new_aloud,yellow,48,132,51,1936.3107347000623,None,1936.3107347000623,None,6,0.9541916000889614,1936.3107347000623,None,1937.3152198999887,None,1937.8375775000313,None,1937.8375775000313,None,r,0.05121269996743649,1937.8375775000313,None,,,color5,001,2019_Nov_21_1627,ProdSingRedo,3.2.3,60.0130588432306,
,,,,49,0,49,0,,,,,,,,,,,,,,,,,,,,,,,,1940.285511800088,None,,,,,,,,,,,,,,,,,color,new_aloud,yellow,49,120,56,1938.4392272999976,None,1938.4392272999976,None,4,1.1696523999562487,1938.4392272999976,None,1939.6450779000297,None,1940.1685875999974,None,1940.1685875999974,None,f,0.08878589991945773,1940.1685875999974,None,,,color5,001,2019_Nov_21_1627,ProdSingRedo,3.2.3,60.0130588432306,
,,,,50,0,50,0,,,,,,,,,,,,,,,,,,,,,,,,1942.4022106999764,None,,,,,,,,,,,,,,,,,childhood,new_aloud,yellow,50,143,49,1940.815153200063,None,1940.815153200063,None,4,0.8576893000863492,1940.815153200063,None,1941.7143255000701,None,1942.2353885000339,None,1942.2353885000339,None,f,0.13343789998907596,1942.2353885000339,None,,,color5,001,2019_Nov_21_1627,ProdSingRedo,3.2.3,60.0130588432306,
,,,,51,0,51,0,,,,,,,,,,,,,,,,,,,,,,,,1944.7358211000683,None,,,,,,,,,,,,,,,,,passage,silent,blue,51,65,212,1942.9245015999768,None,1942.9245015999768,None,3,0.9804064000491053,1942.9245015999768,None,1943.9477206000593,None,1944.4765925999964,None,1944.4765925999964,None,f,0.2283068000106141,1944.4765925999964,None,,,color5,001,2019_Nov_21_1627,ProdSingRedo,3.2.3,60.0130588432306,
,,,,52,0,52,0,,,,,,,,,,,,,,,,,,,,,,,,1946.9530379000353,None,,,,,,,,,,,,,,,,,leader,new_aloud,yellow,52,131,168,1945.2604638000485,None,1945.2604638000485,None,3,0.8524209000170231,1945.2604638000485,None,1946.1638660000172,None,1946.6891447000671,None,1946.6891447000671,None,n,0.22390709992032498,1946.6891447000671,None,,,color5,001,2019_Nov_21_1627,ProdSingRedo,3.2.3,60.0130588432306,
,,,,53,0,53,0,,,,,,,,,,,,,,,,,,,,,,,,1949.8853864000412,None,,,,,,,,,,,,,,,,,music,new_aloud,yellow,53,135,196,1947.476928499993,None,1947.476928499993,None,6,1.3957126999739558,1947.476928499993,None,1948.9189038000768,None,1949.440617299988,None,1949.440617299988,None,r,0.4082367999944836,1949.440617299988,None,,,color5,001,2019_Nov_21_1627,ProdSingRedo,3.2.3,60.0130588432306,
,,,,54,0,54,0,,,,,,,,,,,,,,,,,,,,,,,,1952.1880646999925,None,,,,,,,,,,,,,,,,,light,sing,red,54,27,171,1950.4117941000732,None,1950.4117941000732,None,5,1.0450147000374272,1950.4117941000732,None,1951.499445100082,None,1952.023026400013,None,1952.023026400013,None,r,0.12979809998068959,1952.023026400013,None,,,color5,001,2019_Nov_21_1627,ProdSingRedo,3.2.3,60.0130588432306,
,,,,55,0,55,0,,,,,,,,,,,,,,,,,,,,,,,,1954.553055300028,None,,,,,,,,,,,,,,,,,notice,sing,red,55,21,201,1952.70789160009,None,1952.70789160009,None,5,0.8929219000274315,1952.70789160009,None,1953.6481837000465,None,1954.1695559000364,None,1954.1695559000364,None,r,0.3513096000533551,1954.1695559000364,None,,,color5,001,2019_Nov_21_1627,ProdSingRedo,3.2.3,60.0130588432306,
,,,,56,0,56,0,,,,,,,,,,,,,,,,,,,,,,,,1956.8867265000008,None,,,,,,,,,,,,,,,,,cross,new_sing,red,56,116,80,1955.0748908000533,None,1955.0748908000533,None,5,1.0620079999789596,1955.0748908000533,None,1956.1795014999807,None,1956.7011496999767,None,1956.7011496999767,None,n,0.15564330003689975,1956.7011496999767,None,,,color5,001,2019_Nov_21_1627,ProdSingRedo,3.2.3,60.0130588432306,
,,,,57,0,57,0,,,,,,,,,,,,,,,,,,,,,,,,1958.9887986000394,None,,,,,,,,,,,,,,,,,brief,aloud,yellow,57,34,28,1957.4107909000013,None,1957.4107909000013,None,4,0.8540776000590995,1957.4107909000013,None,1958.3175535000628,None,1958.8426249000477,None,1958.8426249000477,None,n,0.11018389998935163,1958.8426249000477,None,,,color5,001,2019_Nov_21_1627,ProdSingRedo,3.2.3,60.0130588432306,
,,,,58,0,58,0,,,,,,,,,,,,,,,,,,,,,,,,1962.8216752000153,None,,,,,,,,,,,,,,,,,error,new_silent,blue,58,155,117,1959.5103061000118,None,1959.5103061000118,None,4,2.5706221000291407,1959.5103061000118,None,1962.13129150006,None,1962.6511737999972,None,1962.6511737999972,None,f,0.13357800000812858,1962.6511737999972,None,,,color5,001,2019_Nov_21_1627,ProdSingRedo,3.2.3,60.0130588432306,
,,,,59,0,59,0,,,,,,,,,,,,,,,,,,,,,,,,1965.7029692999786,None,,,,,,,,,,,,,,,,,novel,sing,red,59,28,202,1963.3452135000844,None,1963.3452135000844,None,4,1.0956087000668049,1963.3452135000844,None,1964.4848817000166,None,1965.0065805000486,None,1965.0065805000486,None,n,0.6582920000655577,1965.0065805000486,None,,,color5,001,2019_Nov_21_1627,ProdSingRedo,3.2.3,60.0130588432306,
,,,,60,0,60,0,,,,,,,,,,,,,,,,,,,,,,,,1968.2534325000597,None,,,,,,,,,,,,,,,,,place,sing,red,60,17,222,1966.2302236000542,None,1966.2302236000542,None,5,1.2826013000449166,1966.2302236000542,None,1967.550742099993,None,1968.0721111000748,None,1968.0721111000748,None,f,0.14485100004822016,1968.0721111000748,None,,,color5,001,2019_Nov_21_1627,ProdSingRedo,3.2.3,60.0130588432306,
,,,,61,0,61,0,,,,,,,,,,,,,,,,,,,,,,,,1970.2704478000524,None,,,,,,,,,,,,,,,,,thing,silent,blue,61,89,328,1968.7786585000576,None,1968.7786585000576,None,5,0.8146288000280038,1968.7786585000576,None,1969.6292259000475,None,1970.139639000059,None,1970.139639000059,None,f,0.09327640000265092,1970.139639000059,None,,,color5,001,2019_Nov_21_1627,ProdSingRedo,3.2.3,60.0130588432306,
,,,,62,0,62,0,,,,,,,,,,,,,,,,,,,,,,,,1972.6535200000508,None,,,,,,,,,,,,,,,,,match,new_silent,blue,62,159,181,1970.7933694000822,None,1970.7933694000822,None,5,1.11961179994978,1970.7933694000822,None,1971.9519722000696,None,1972.4738268000074,None,1972.4738268000074,None,f,0.14300180005375296,1972.4738268000074,None,,,color5,001,2019_Nov_21_1627,ProdSingRedo,3.2.3,60.0130588432306,
,,,,63,0,63,0,,,,,,,,,,,,,,,,,,,,,,,,1976.7884985000128,None,,,,,,,,,,,,,,,,,object,silent,blue,63,68,204,1973.1800424000248,None,1973.1800424000248,None,4,2.1088384999893606,1973.1800424000248,None,1975.336640900001,None,1975.8561980000231,None,1975.8561980000231,None,f,0.9048416999867186,1975.8561980000231,None,,,color5,001,2019_Nov_21_1627,ProdSingRedo,3.2.3,60.0130588432306,
,,,,64,0,64,0,,,,,,,,,,,,,,,,,,,,,,,,1979.6041173000121,None,,,,,,,,,,,,,,,,,sight,aloud,yellow,64,35,286,1977.31386200001,None,1977.31386200001,None,6,1.5189826999558136,1977.31386200001,None,1978.8863240000792,None,1979.4081690000603,None,1979.4081690000603,None,r,0.16064719995483756,1979.4081690000603,None,,,color5,001,2019_Nov_21_1627,ProdSingRedo,3.2.3,60.0130588432306,
,,,,65,0,65,0,,,,,,,,,,,,,,,,,,,,,,,,1982.404306099983,None,,,,,,,,,,,,,,,,,budget,silent,blue,65,62,34,1980.1280198000604,None,1980.1280198000604,None,4,1.5528892000438645,1980.1280198000604,None,1981.7161253000377,None,1982.2476034000283,None,1982.2476034000283,None,r,0.12126659997738898,1982.2476034000283,None,,,color5,001,2019_Nov_21_1627,ProdSingRedo,3.2.3,60.0130588432306,
,,,,66,0,66,0,,,,,,,,,,,,,,,,,,,,,,,,1984.9388516000472,None,,,,,,,,,,,,,,,,,voice,sing,red,66,29,348,1982.9283890000079,None,1982.9283890000079,None,6,1.1045118999900296,1982.9283890000079,None,1984.0816744000185,None,1984.6064556000056,None,1984.6064556000056,None,r,0.3065019999630749,1984.6064556000056,None,,,color5,001,2019_Nov_21_1627,ProdSingRedo,3.2.3,60.0130588432306,
,,,,67,0,67,0,,,,,,,,,,,,,,,,,,,,,,,,1988.755401500035,None,,,,,,,,,,,,,,,,,breath,new_sing,red,67,94,27,1985.4672703000251,None,1985.4672703000251,None,5,1.5495966000016779,1985.4672703000251,None,1987.0755477000494,None,1987.5919429999776,None,1987.5919429999776,None,r,1.1288909999420866,1987.5919429999776,None,,,color5,001,2019_Nov_21_1627,ProdSingRedo,3.2.3,60.0130588432306,
,,,,68,0,68,0,,,,,,,,,,,,,,,,,,,,,,,,1991.3881815000204,None,,,,,,,,,,,,,,,,,captain,new_aloud,yellow,68,128,41,1989.2857857000781,None,1989.2857857000781,None,4,1.2911147000268102,1989.2857857000781,None,1990.6216643999796,None,1991.1443306000438,None,1991.1443306000438,None,f,0.20858939993195236,1991.1443306000438,None,,,color5,001,2019_Nov_21_1627,ProdSingRedo,3.2.3,60.0130588432306,
,,,,69,0,69,0,,,,,,,,,,,,,,,,,,,,,,,,1994.2718110000715,None,,,,,,,,,,,,,,,,,scale,aloud,yellow,69,50,272,1991.9136319999816,None,1991.9136319999816,None,6,1.6952325999736786,1991.9136319999816,None,1993.6535454000114,None,1994.1760549000464,None,1994.1760549000464,None,r,0.05683679995127022,1994.1760549000464,None,,,color5,001,2019_Nov_21_1627,ProdSingRedo,3.2.3,60.0130588432306,
,,,,70,0,70,0,,,,,,,,,,,,,,,,,,,,,,,,1996.1726370999822,None,,,,,,,,,,,,,,,,,solution,new_aloud,yellow,70,146,294,1994.8066935000243,None,1994.8066935000243,None,6,0.7140785999363288,1994.8066935000243,None,1995.5702991000144,None,1996.0928667000262,None,1996.0928667000262,None,r,0.05231970001477748,1996.0928667000262,None,,,color5,001,2019_Nov_21_1627,ProdSingRedo,3.2.3,60.0130588432306,
,,,,71,0,71,0,,,,,,,,,,,,,,,,,,,,,,,,1999.2888423000695,None,,,,,,,,,,,,,,,,,recall,aloud,yellow,71,41,255,1996.6818235000828,None,1996.6818235000828,None,4,1.7591404999839142,1996.6818235000828,None,1998.4912254000083,None,1999.0105049000122,None,1999.0105049000122,None,f,0.2463546999497339,1999.0105049000122,None,,,color5,001,2019_Nov_21_1627,ProdSingRedo,3.2.3,60.0130588432306,
,,,,72,0,72,0,,,,,,,,,,,,,,,,,,,,,,,,2002.0565305000637,None,,,,,,,,,,,,,,,,,youth,new_sing,red,72,93,359,1999.8161972999806,None,1999.8161972999806,None,1,1.248785899952054,1999.8161972999806,None,2001.1001325000543,None,2001.6265249000862,None,2001.6265249000862,None,n,0.3984235000098124,2001.6265249000862,None,,,color5,001,2019_Nov_21_1627,ProdSingRedo,3.2.3,60.0130588432306,
,,,,73,0,73,0,,,,,,,,,,,,,,,,,,,,,,,,2004.7565208000597,None,,,,,,,,,,,,,,,,,school,new_aloud,yellow,73,133,274,2002.5780228000367,None,2002.5780228000367,None,3,1.3987868999829516,2002.5780228000367,None,2004.0187295000069,None,2004.537231000024,None,2004.537231000024,None,f,0.18355650000739843,2004.537231000024,None,,,color5,001,2019_Nov_21_1627,ProdSingRedo,3.2.3,60.0130588432306,
,,,,74,0,74,0,,,,,,,,,,,,,,,,,,,,,,,,2007.139959400054,None,,,,,,,,,,,,,,,,,stranger,new_sing,red,74,107,309,2005.285063300049,None,2005.285063300049,None,3,1.1238608000567183,2005.285063300049,None,2006.4578860000474,None,2006.9798955000006,None,2006.9798955000006,None,f,0.12493139994330704,2006.9798955000006,None,,,color5,001,2019_Nov_21_1627,ProdSingRedo,3.2.3,60.0130588432306,
,,,,75,0,75,0,,,,,,,,,,,,,,,,,,,,,,,,2009.7450219000457,None,,,,,,,,,,,,,,,,,commercial,new_silent,blue,75,153,61,2007.66936420009,None,2007.66936420009,None,6,1.3634859999874607,2007.66936420009,None,2009.0716122000013,None,2009.5958662000485,None,2009.5958662000485,None,r,0.10895690007600933,2009.5958662000485,None,,,color5,001,2019_Nov_21_1627,ProdSingRedo,3.2.3,60.0130588432306,
,,,,76,0,76,0,,,,,,,,,,,,,,,,,,,,,,,,2012.5069708999945,None,,,,,,,,,,,,,,,,,hunger,sing,red,76,16,155,2010.2674586999929,None,2010.2674586999929,None,4,0.957466599997133,2010.2674586999929,None,2011.2733626000118,None,2011.7984719000524,None,2011.7984719000524,None,f,0.674380199983716,2011.7984719000524,None,,,color5,001,2019_Nov_21_1627,ProdSingRedo,3.2.3,60.0130588432306,
,,,,77,0,77,0,,,,,,,,,,,,,,,,,,,,,,,,2015.573189000017,None,,,,,,,,,,,,,,,,,measure,new_aloud,yellow,77,140,184,2013.0329282000894,None,2013.0329282000894,None,2,1.4161354000680149,2013.0329282000894,None,2014.4911681000376,None,2015.0127524000127,None,2015.0127524000127,None,n,0.5241292000282556,2015.0127524000127,None,,,color5,001,2019_Nov_21_1627,ProdSingRedo,3.2.3,60.0130588432306,
,,,,78,0,78,0,,,,,,,,,,,,,,,,,,,,,,,,2021.4742856000084,None,,,,,,,,,,,,,,,,,bicycle,new_silent,blue,78,150,21,2016.0978957000189,None,2016.0978957000189,None,4,4.639005200006068,2016.0978957000189,None,2020.793655800051,None,2021.3130178999854,None,2021.3130178999854,None,f,0.12785789999179542,2021.3130178999854,None,,,color5,001,2019_Nov_21_1627,ProdSingRedo,3.2.3,60.0130588432306,
,,,,79,0,79,0,,,,,,,,,,,,,,,,,,,,,,,,2023.7736976000015,None,,,,,,,,,,,,,,,,,weight,new_sing,red,79,119,353,2021.9994006999768,None,2021.9994006999768,None,6,1.0414466999936849,2021.9994006999768,None,2023.0851741000079,None,2023.6125145000406,None,2023.6125145000406,None,r,0.12436730007175356,2023.6125145000406,None,,,color5,001,2019_Nov_21_1627,ProdSingRedo,3.2.3,60.0130588432306,
,,,,80,0,80,0,,,,,,,,,,,,,,,,,,,,,,,,2025.8714065999957,None,,,,,,,,,,,,,,,,,shock,new_silent,blue,80,174,284,2024.299901899998,None,2024.299901899998,None,3,0.9490618000272661,2024.299901899998,None,2025.2882101000287,None,2025.8088090000674,None,2025.8088090000674,None,f,0.03999790002126247,2025.8088090000674,None,,,color5,001,2019_Nov_21_1627,ProdSingRedo,3.2.3,60.0130588432306,
,,,,81,0,81,0,,,,,,,,,,,,,,,,,,,,,,,,2028.2748013000237,None,,,,,,,,,,,,,,,,,distance,silent,blue,81,74,100,2026.4036615000805,None,2026.4036615000805,None,2,0.9971967999590561,2026.4036615000805,None,2027.4413128000451,None,2027.9627386999782,None,2027.9627386999782,None,n,0.28620940004475415,2027.9627386999782,None,,,color5,001,2019_Nov_21_1627,ProdSingRedo,3.2.3,60.0130588432306,
,,,,82,0,82,0,,,,,,,,,,,,,,,,,,,,,,,,2030.5409465000266,None,,,,,,,,,,,,,,,,,century,silent,blue,82,63,45,2028.801856999984,None,2028.801856999984,None,4,1.079229800030589,2028.801856999984,None,2029.9220489000436,None,2030.4482280000811,None,2030.4482280000811,None,f,0.056642299983650446,2030.4482280000811,None,,,color5,001,2019_Nov_21_1627,ProdSingRedo,3.2.3,60.0130588432306,
,,,,83,0,83,0,,,,,,,,,,,,,,,,,,,,,,,,2033.2417352000484,None,,,,,,,,,,,,,,,,,beauty,aloud,yellow,83,44,18,2031.0659122000216,None,2031.0659122000216,None,6,1.2229492999613285,2031.0659122000216,None,2032.343562800088,None,2032.8636188000673,None,2032.8636188000673,None,r,0.3533909999532625,2032.8636188000673,None,,,color5,001,2019_Nov_21_1627,ProdSingRedo,3.2.3,60.0130588432306,
,,,,84,0,84,0,,,,,,,,,,,,,,,,,,,,,,,,2035.508492700057,None,,,,,,,,,,,,,,,,,period,sing,red,84,9,217,2033.762164200074,None,2033.762164200074,None,6,1.0867381999269128,2033.762164200074,None,2034.8860375999939,None,2035.4076296000276,None,2035.4076296000276,None,r,0.06530839996412396,2035.4076296000276,None,,,color5,001,2019_Nov_21_1627,ProdSingRedo,3.2.3,60.0130588432306,
,,,,85,0,85,0,,,,,,,,,,,,,,,,,,,,,,,,2037.4093146000523,None,,,,,,,,,,,,,,,,,region,new_aloud,yellow,85,122,256,2036.0369358999887,None,2036.0369358999887,None,6,0.660472400020808,2036.0369358999887,None,2036.7354682000587,None,2037.2624671000522,None,2037.2624671000522,None,r,0.10652570007368922,2037.2624671000522,None,,,color5,001,2019_Nov_21_1627,ProdSingRedo,3.2.3,60.0130588432306,
,,,,86,0,86,0,,,,,,,,,,,,,,,,,,,,,,,,2040.208301100065,None,,,,,,,,,,,,,,,,,disease,silent,blue,86,61,97,2037.9328614000697,None,2037.9328614000697,None,3,1.5645547000458464,2037.9328614000697,None,2039.541065700003,None,2040.0599447999848,None,2040.0599447999848,None,f,0.10906460008118302,2040.0599447999848,None,,,color5,001,2019_Nov_21_1627,ProdSingRedo,3.2.3,60.0130588432306,
,,,,87,0,87,0,,,,,,,,,,,,,,,,,,,,,,,,2041.9916334000882,None,,,,,,,,,,,,,,,,,guide,new_silent,blue,87,158,147,2040.734376700013,None,2040.734376700013,None,3,0.6104909999994561,2040.734376700013,None,2041.3846473000012,None,2041.8940632999875,None,2041.8940632999875,None,f,0.05882300005760044,2041.8940632999875,None,,,color5,001,2019_Nov_21_1627,ProdSingRedo,3.2.3,60.0130588432306,
,,,,88,0,88,0,,,,,,,,,,,,,,,,,,,,,,,,2044.675846200087,None,,,,,,,,,,,,,,,,,permit,new_silent,blue,88,164,218,2042.514898500056,None,2042.514898500056,None,3,0.7259188999887556,2042.514898500056,None,2043.2875383000355,None,2043.8081771000288,None,2043.8081771000288,None,n,0.8326550000347197,2043.8081771000288,None,,,color5,001,2019_Nov_21_1627,ProdSingRedo,3.2.3,60.0130588432306,
,,,,89,0,89,0,,,,,,,,,,,,,,,,,,,,,,,,2047.3253515000688,None,,,,,,,,,,,,,,,,,power,new_aloud,yellow,89,123,230,2045.1998410000233,None,2045.1998410000233,None,6,1.0572016999358311,2045.1998410000233,None,2046.3057401999831,None,2046.830269100028,None,2046.830269100028,None,r,0.45864140009507537,2046.830269100028,None,,,color5,001,2019_Nov_21_1627,ProdSingRedo,3.2.3,60.0130588432306,
,,,,90,0,90,0,,,,,,,,,,,,,,,,,,,,,,,,2049.859573900001,None,,,,,,,,,,,,,,,,,course,sing,red,90,5,74,2047.8515303999884,None,2047.8515303999884,None,3,1.2373340000631288,2047.8515303999884,None,2049.14036379999,None,2049.662454299978,None,2049.662454299978,None,f,0.16237699997145683,2049.662454299978,None,,,color5,001,2019_Nov_21_1627,ProdSingRedo,3.2.3,60.0130588432306,
,,,,91,0,91,0,,,,,,,,,,,,,,,,,,,,,,,,2052.310756299994,None,,,,,,,,,,,,,,,,,dream,new_silent,blue,91,166,104,2050.3822536000516,None,2050.3822536000516,None,6,1.1226175000192598,2050.3822536000516,None,2051.552703800029,None,2052.079362599994,None,2052.079362599994,None,r,0.20159609999973327,2052.079362599994,None,,,color5,001,2019_Nov_21_1627,ProdSingRedo,3.2.3,60.0130588432306,
,,,,92,0,92,0,,,,,,,,,,,,,,,,,,,,,,,,2055.559214400011,None,,,,,,,,,,,,,,,,,broad,aloud,yellow,92,59,31,2052.840184000088,None,2052.840184000088,None,3,1.1287106999661773,2052.840184000088,None,2054.009470000048,None,2054.531670300057,None,2054.531670300057,None,f,0.9892331999726593,2054.531670300057,None,,,color5,001,2019_Nov_21_1627,ProdSingRedo,3.2.3,60.0130588432306,
,,,,93,0,93,0,,,,,,,,,,,,,,,,,,,,,,,,2058.5260692000156,None,,,,,,,,,,,,,,,,,employment,silent,blue,93,72,111,2056.0873242000816,None,2056.0873242000816,None,3,1.529628899996169,2056.0873242000816,None,2057.6602535999846,None,2058.1808135000756,None,2058.1808135000756,None,n,0.30827299994416535,2058.1808135000756,None,,,color5,001,2019_Nov_21_1627,ProdSingRedo,3.2.3,60.0130588432306,
,,,,94,0,94,0,,,,,,,,,,,,,,,,,,,,,,,,2061.0436352000106,None,,,,,,,,,,,,,,,,,mankind,aloud,yellow,94,54,178,2059.057606699993,None,2059.057606699993,None,6,0.9594021999510005,2059.057606699993,None,2060.0625106000807,None,2060.586732099997,None,2060.586732099997,None,r,0.42218180000782013,2060.586732099997,None,,,color5,001,2019_Nov_21_1627,ProdSingRedo,3.2.3,60.0130588432306,
,,,,95,0,95,0,,,,,,,,,,,,,,,,,,,,,,,,2063.5103679000167,None,,,,,,,,,,,,,,,,,frank,new_sing,red,95,102,133,2061.5724735000404,None,2061.5724735000404,None,5,1.0772414000239223,2061.5724735000404,None,2062.6884730000747,None,2063.2179338000715,None,2063.2179338000715,None,r,0.25494290003553033,2063.2179338000715,None,,,color5,001,2019_Nov_21_1627,ProdSingRedo,3.2.3,60.0130588432306,
,,,,96,0,96,0,,,,,,,,,,,,,,,,,,,,,,,,2065.7939807000803,None,,,,,,,,,,,,,,,,,substance,new_sing,red,96,110,313,2064.044216200011,None,2064.044216200011,None,6,0.9889750999864191,2064.044216200011,None,2065.0818908000365,None,2065.6047506000614,None,2065.6047506000614,None,r,0.15612610010430217,2065.6047506000614,None,,,color5,001,2019_Nov_21_1627,ProdSingRedo,3.2.3,60.0130588432306,
,,,,97,0,97,0,,,,,,,,,,,,,,,,,,,,,,,,2068.528564200038,None,,,,,,,,,,,,,,,,,quick,new_sing,red,97,106,248,2066.316152299987,None,2066.316152299987,None,3,1.164683400071226,2066.316152299987,None,2067.523054099991,None,2068.049283600063,None,2068.049283600063,None,f,0.44781049992889166,2068.049283600063,None,,,color5,001,2019_Nov_21_1627,ProdSingRedo,3.2.3,60.0130588432306,
,,,,98,0,98,0,,,,,,,,,,,,,,,,,,,,,,,,2073.1445329000708,None,,,,,,,,,,,,,,,,,harmony,new_sing,red,98,115,148,2069.054601400043,None,2069.054601400043,None,4,1.002286700066179,2069.054601400043,None,2070.109858300071,None,2070.63278720004,None,2070.63278720004,None,r,2.480094700003974,2070.63278720004,None,,,color5,001,2019_Nov_21_1627,ProdSingRedo,3.2.3,60.0130588432306,
,,,,99,0,99,0,,,,,,,,,,,,,,,,,,,,,,,,2076.1478855999885,None,,,,,,,,,,,,,,,,,industry,new_silent,blue,99,178,161,2073.6717048999853,None,2073.6717048999853,None,6,1.4891487000277266,2073.6717048999853,None,2075.212162300013,None,2075.732031700085,None,2075.732031700085,None,r,0.3730148999020457,2075.732031700085,None,,,color5,001,2019_Nov_21_1627,ProdSingRedo,3.2.3,60.0130588432306,
,,,,100,0,100,0,,,,,,,,,,,,,,,,,,,,,,,,2078.695168700069,None,,,,,,,,,,,,,,,,,question,new_aloud,yellow,100,144,247,2076.672543700086,None,2076.672543700086,None,3,1.1202638000249863,2076.672543700086,None,2077.8388240999775,None,2078.366636299994,None,2078.366636299994,None,f,0.29042760003358126,2078.366636299994,None,,,color5,001,2019_Nov_21_1627,ProdSingRedo,3.2.3,60.0130588432306,
,,,,101,0,101,0,,,,,,,,,,,,,,,,,,,,,,,,2081.2284418999916,None,,,,,,,,,,,,,,,,,institute,new_sing,red,101,105,162,2079.218227699981,None,2079.218227699981,None,4,1.1586405000416562,2079.218227699981,None,2080.428204900003,None,2080.9484201000305,None,2080.9484201000305,None,f,0.2527464999584481,2080.9484201000305,None,,,color5,001,2019_Nov_21_1627,ProdSingRedo,3.2.3,60.0130588432306,
,,,,102,0,102,0,,,,,,,,,,,,,,,,,,,,,,,,2083.811795299989,None,,,,,,,,,,,,,,,,,instrument,silent,blue,102,79,163,2081.758804799989,None,2081.758804799989,None,6,1.250076900003478,2081.758804799989,None,2083.0557890000055,None,2083.5828468999825,None,2083.5828468999825,None,r,0.19394979998469353,2083.5828468999825,None,,,color5,001,2019_Nov_21_1627,ProdSingRedo,3.2.3,60.0130588432306,
,,,,103,0,103,0,,,,,,,,,,,,,,,,,,,,,,,,2086.2446340000024,None,,,,,,,,,,,,,,,,,device,aloud,yellow,103,51,93,2084.3397757000057,None,2084.3397757000057,None,6,1.085128300008364,2084.3397757000057,None,2085.4763625999913,None,2085.99901889998,None,2085.99901889998,None,r,0.20988890004809946,2085.99901889998,None,,,color5,001,2019_Nov_21_1627,ProdSingRedo,3.2.3,60.0130588432306,
,,,,104,0,104,0,,,,,,,,,,,,,,,,,,,,,,,,2088.562152800034,None,,,,,,,,,,,,,,,,,group,sing,red,104,23,143,2086.771019499982,None,2086.771019499982,None,6,1.1180509000550956,2086.771019499982,None,2087.942448600079,None,2088.4680271000834,None,2088.4680271000834,None,r,0.06087749998550862,2088.4680271000834,None,,,color5,001,2019_Nov_21_1627,ProdSingRedo,3.2.3,60.0130588432306,
,,,,105,0,105,0,,,,,,,,,,,,,,,,,,,,,,,,2091.4783635999775,None,,,,,,,,,,,,,,,,,contract,new_sing,red,105,108,68,2089.0890434000175,None,2089.0890434000175,None,5,1.6238711000187322,2089.0890434000175,None,2090.7604431000073,None,2091.283630000078,None,2091.283630000078,None,f,0.15730940003413707,2091.283630000078,None,,,color5,001,2019_Nov_21_1627,ProdSingRedo,3.2.3,60.0130588432306,
,,,,106,0,106,0,,,,,,,,,,,,,,,,,,,,,,,,2093.6291952000465,None,,,,,,,,,,,,,,,,,expansion,aloud,yellow,106,40,123,2092.013245100039,None,2092.013245100039,None,6,0.9397039000177756,2092.013245100039,None,2092.9882071000757,None,2093.5012833999936,None,2093.5012833999936,None,r,0.10014070000033826,2093.5012833999936,None,,,color5,001,2019_Nov_21_1627,ProdSingRedo,3.2.3,60.0130588432306,
,,,,107,0,107,0,,,,,,,,,,,,,,,,,,,,,,,,2096.229724899982,None,,,,,,,,,,,,,,,,,grade,sing,red,107,3,140,2094.153272100026,None,2094.153272100026,None,3,0.9755545000080019,2094.153272100026,None,2095.1782711000415,None,2095.7013750000624,None,2095.7013750000624,None,f,0.5000316000077873,2095.7013750000624,None,,,color5,001,2019_Nov_21_1627,ProdSingRedo,3.2.3,60.0130588432306,
,,,,108,0,108,0,,,,,,,,,,,,,,,,,,,,,,,,2098.3991696999874,None,,,,,,,,,,,,,,,,,sweet,new_sing,red,108,114,319,2096.755002400023,None,2096.755002400023,None,1,0.9259475999278948,2096.755002400023,None,2097.723703399999,None,2098.2498144999845,None,2098.2498144999845,None,n,0.11935759999323636,2098.2498144999845,None,,,color5,001,2019_Nov_21_1627,ProdSingRedo,3.2.3,60.0130588432306,
,,,,109,0,109,0,,,,,,,,,,,,,,,,,,,,,,,,2101.629015500075,None,,,,,,,,,,,,,,,,,court,new_silent,blue,109,177,75,2098.922631600057,None,2098.922631600057,None,4,1.6306180000538006,2098.922631600057,None,2100.594247800065,None,2101.1131198999938,None,2101.1131198999938,None,f,0.4797932000365108,2101.1131198999938,None,,,color5,001,2019_Nov_21_1627,ProdSingRedo,3.2.3,60.0130588432306,
,,,,110,0,110,0,,,,,,,,,,,,,,,,,,,,,,,,2103.8292302000336,None,,,,,,,,,,,,,,,,,display,aloud,yellow,110,43,98,2102.1543820999796,None,2102.1543820999796,None,6,0.9986307999351993,2102.1543820999796,None,2103.1933503000764,None,2103.7157790000783,None,2103.7157790000783,None,r,0.07714860001578927,2103.7157790000783,None,,,color5,001,2019_Nov_21_1627,ProdSingRedo,3.2.3,60.0130588432306,
,,,,111,0,111,0,,,,,,,,,,,,,,,,,,,,,,,,2106.2621338000754,None,,,,,,,,,,,,,,,,,detective,aloud,yellow,111,42,92,2104.3537848000415,None,2104.3537848000415,None,6,1.2631012999918312,2104.3537848000415,None,2105.6632374000037,None,2106.1827359000454,None,2106.1827359000454,None,r,0.042102100094780326,2106.1827359000454,None,,,color5,001,2019_Nov_21_1627,ProdSingRedo,3.2.3,60.0130588432306,
,,,,112,0,112,0,,,,,,,,,,,,,,,,,,,,,,,,2108.696849500062,None,,,,,,,,,,,,,,,,,subject,silent,blue,112,73,312,2106.788327599992,None,2106.788327599992,None,5,1.1969641000032425,2106.788327599992,None,2108.024551199982,None,2108.5512155999895,None,2108.5512155999895,None,f,0.11373480001930147,2108.5512155999895,None,,,color5,001,2019_Nov_21_1627,ProdSingRedo,3.2.3,60.0130588432306,
,,,,113,0,113,0,,,,,,,,,,,,,,,,,,,,,,,,2110.9303556000814,None,,,,,,,,,,,,,,,,,profession,new_silent,blue,113,161,241,2109.224604899995,None,2109.224604899995,None,3,0.9762639999389648,2109.224604899995,None,2110.2469264999963,None,2110.7694556000642,None,2110.7694556000642,None,f,0.12740809994284064,2110.7694556000642,None,,,color5,001,2019_Nov_21_1627,ProdSingRedo,3.2.3,60.0130588432306,
,,,,114,0,114,0,,,,,,,,,,,,,,,,,,,,,,,,2113.2807887999807,None,,,,,,,,,,,,,,,,,emergency,silent,blue,114,83,110,2111.458225200069,None,2111.458225200069,None,3,0.9906796000432223,2111.458225200069,None,2112.4930938000325,None,2113.0191031000577,None,2113.0191031000577,None,f,0.22181769995950162,2113.0191031000577,None,,,color5,001,2019_Nov_21_1627,ProdSingRedo,3.2.3,60.0130588432306,
,,,,115,0,115,0,,,,,,,,,,,,,,,,,,,,,,,,2115.5999075000873,None,,,,,,,,,,,,,,,,,universal,aloud,yellow,115,33,345,2113.8115181000903,None,2113.8115181000903,None,6,1.1013367999112234,2113.8115181000903,None,2114.9725416,None,2115.4859146000817,None,2115.4859146000817,None,r,0.07497799990233034,2115.4859146000817,None,,,color5,001,2019_Nov_21_1627,ProdSingRedo,3.2.3,60.0130588432306,
,,,,116,0,116,0,,,,,,,,,,,,,,,,,,,,,,,,2117.5731055000797,None,,,,,,,,,,,,,,,,,charter,new_aloud,yellow,116,148,47,2116.123764500022,None,2116.123764500022,None,6,0.8211922000627965,2116.123764500022,None,2116.989633499994,None,2117.504455300048,None,2117.504455300048,None,r,0.04855790000874549,2117.504455300048,None,,,color5,001,2019_Nov_21_1627,ProdSingRedo,3.2.3,60.0130588432306,
,,,,117,0,117,0,,,,,,,,,,,,,,,,,,,,,,,,2120.063661399996,None,,,,,,,,,,,,,,,,,oxygen,silent,blue,117,67,209,2118.08876110008,None,2118.08876110008,None,5,0.9361745999194682,2118.08876110008,None,2119.077858200064,None,2119.6012742000166,None,2119.6012742000166,None,f,0.42368400003761053,2119.6012742000166,None,,,color5,001,2019_Nov_21_1627,ProdSingRedo,3.2.3,60.0130588432306,
,,,,118,0,118,0,,,,,,,,,,,,,,,,,,,,,,,,2122.5078262999887,None,,,,,,,,,,,,,,,,,entrance,new_silent,blue,118,175,115,2120.5914209000766,None,2120.5914209000766,None,6,1.305437000002712,2120.5914209000766,None,2121.946552700014,None,2122.4676901000785,None,2122.4676901000785,None,r,0.02122080000117421,2122.4676901000785,None,,,color5,001,2019_Nov_21_1627,ProdSingRedo,3.2.3,60.0130588432306,
,,,,119,0,119,0,,,,,,,,,,,,,,,,,,,,,,,,2125.1805533000734,None,,,,,,,,,,,,,,,,,fight,new_aloud,yellow,119,124,127,2123.0398287000135,None,2123.0398287000135,None,3,1.4811915000900626,2123.0398287000135,None,2124.5643306000857,None,2125.0834414000856,None,2125.0834414000856,None,f,0.061530300066806376,2125.0834414000856,None,,,color5,001,2019_Nov_21_1627,ProdSingRedo,3.2.3,60.0130588432306,
,,,,120,0,120,0,,,,,,,,,,,,,,,,,,,,,,,,2127.3975437000627,None,,,,,,,,,,,,,,,,,enemy,new_sing,red,120,98,113,2125.7081512000877,None,2125.7081512000877,None,3,1.0129263999406248,2125.7081512000877,None,2126.7600509000476,None,2127.283011600026,None,2127.283011600026,None,f,0.07788889994844794,2127.283011600026,None,,,color5,001,2019_Nov_21_1627,ProdSingRedo,3.2.3,60.0130588432306,
,,,,121,0,121,0,,,,,,,,,,,,,,,,,,,,,,,,2130.180580400047,None,,,,,,,,,,,,,,,,,level,sing,red,121,1,170,2127.922680800082,None,2127.922680800082,None,6,1.5904044000199065,2127.922680800082,None,2129.5563678999897,None,2130.0707313000457,None,2130.0707313000457,None,r,0.07417670008726418,2130.0707313000457,None,,,color5,001,2019_Nov_21_1627,ProdSingRedo,3.2.3,60.0130588432306,
,,,,122,0,122,0,,,,,,,,,,,,,,,,,,,,,,,,2133.0478977999883,None,,,,,,,,,,,,,,,,,colonel,aloud,yellow,122,48,55,2130.70468309999,None,2130.70468309999,None,6,0.9761927999788895,2130.70468309999,None,2131.7269623000175,None,2132.2472630999982,None,2132.2472630999982,None,r,0.7617533999728039,2132.2472630999982,None,,,color5,001,2019_Nov_21_1627,ProdSingRedo,3.2.3,60.0130588432306,
,,,,123,0,123,0,,,,,,,,,,,,,,,,,,,,,,,,2135.2482219000813,None,,,,,,,,,,,,,,,,,spoke,aloud,yellow,123,49,300,2133.575068300008,None,2133.575068300008,None,6,0.9938009999459609,2133.575068300008,None,2134.6135276000714,None,2135.1332741000224,None,2135.1332741000224,None,r,0.08370910002849996,2135.1332741000224,None,,,color5,001,2019_Nov_21_1627,ProdSingRedo,3.2.3,60.0130588432306,
,,,,124,0,124,0,,,,,,,,,,,,,,,,,,,,,,,,2137.7648879000917,None,,,,,,,,,,,,,,,,,rural,new_sing,red,124,101,269,2135.775878400076,None,2135.775878400076,None,6,1.3370903000468388,2135.775878400076,None,2137.1655767000047,None,2137.6844515000703,None,2137.6844515000703,None,r,0.04433430009521544,2137.6844515000703,None,,,color5,001,2019_Nov_21_1627,ProdSingRedo,3.2.3,60.0130588432306,
,,,,125,0,125,0,,,,,,,,,,,,,,,,,,,,,,,,2140.382571700029,None,,,,,,,,,,,,,,,,,personnel,aloud,yellow,125,46,219,2138.286982699996,None,2138.286982699996,None,6,1.393895799992606,2138.286982699996,None,2139.7276217000326,None,2140.2489690000657,None,2140.2489690000657,None,r,0.10388750000856817,2140.2489690000657,None,,,color5,001,2019_Nov_21_1627,ProdSingRedo,3.2.3,60.0130588432306,
,,,,126,0,126,0,,,,,,,,,,,,,,,,,,,,,,,,2143.4988886000356,None,,,,,,,,,,,,,,,,,congress,sing,red,126,12,67,2140.9088726000628,None,2140.9088726000628,None,4,1.9483260000124574,2140.9088726000628,None,2142.898195400019,None,2143.4187642000616,None,2143.4187642000616,None,f,0.04610020003747195,2143.4187642000616,None,,,color5,001,2019_Nov_21_1627,ProdSingRedo,3.2.3,60.0130588432306,
,,,,127,0,127,0,,,,,,,,,,,,,,,,,,,,,,,,2145.498652899987,None,,,,,,,,,,,,,,,,,public,aloud,yellow,127,56,244,2144.0266127000796,None,2144.0266127000796,None,4,0.8382621000055224,2144.0266127000796,None,2144.9132773000747,None,2145.439124000026,None,2145.439124000026,None,f,0.025561199989169836,2145.439124000026,None,,,color5,001,2019_Nov_21_1627,ProdSingRedo,3.2.3,60.0130588432306,
,,,,128,0,128,0,,,,,,,,,,,,,,,,,,,,,,,,2147.9162351000123,None,,,,,,,,,,,,,,,,,corner,new_silent,blue,128,162,69,2146.0197304000612,None,2146.0197304000612,None,2,1.2856939000776038,2146.0197304000612,None,2147.3415254000574,None,2147.8492176000727,None,2147.8492176000727,None,n,0.039974500075913966,2147.8492176000727,None,,,color5,001,2019_Nov_21_1627,ProdSingRedo,3.2.3,60.0130588432306,
,,,,129,0,129,0,,,,,,,,,,,,,,,,,,,,,,,,2150.316346100066,None,,,,,,,,,,,,,,,,,republic,new_sing,red,129,99,260,2148.445947500062,None,2148.445947500062,None,5,1.1791920999530703,2148.445947500062,None,2149.6602693999885,None,2150.189263200038,None,2150.189263200038,None,r,0.09173630003351718,2150.189263200038,None,,,color5,001,2019_Nov_21_1627,ProdSingRedo,3.2.3,60.0130588432306,
,,,,130,0,130,0,,,,,,,,,,,,,,,,,,,,,,,,2153.2832673999947,None,,,,,,,,,,,,,,,,,write,sing,red,130,15,358,2150.83973170002,None,2150.83973170002,None,4,1.3531943999696523,2150.83973170002,None,2152.232241800055,None,2152.752228300087,None,2152.752228300087,None,r,0.4967222000705078,2152.752228300087,None,,,color5,001,2019_Nov_21_1627,ProdSingRedo,3.2.3,60.0130588432306,
,,,,131,0,131,0,,,,,,,,,,,,,,,,,,,,,,,,2156.1328471000306,None,,,,,,,,,,,,,,,,,engineer,new_aloud,yellow,131,139,114,2153.809738300042,None,2153.809738300042,None,2,1.1672729999991134,2153.809738300042,None,2155.0265032000607,None,2155.554549099994,None,2155.554549099994,None,n,0.5423479999881238,2155.554549099994,None,,,color5,001,2019_Nov_21_1627,ProdSingRedo,3.2.3,60.0130588432306,
,,,,132,0,132,0,,,,,,,,,,,,,,,,,,,,,,,,2159.1505619999953,None,,,,,,,,,,,,,,,,,government,new_aloud,yellow,132,130,139,2156.664282300044,None,2156.664282300044,None,6,1.760684599983506,2156.664282300044,None,2158.468420600053,None,2158.9909525000257,None,2158.9909525000257,None,r,0.1299525999929756,2158.9909525000257,None,,,color5,001,2019_Nov_21_1627,ProdSingRedo,3.2.3,60.0130588432306,
,,,,133,0,133,0,,,,,,,,,,,,,,,,,,,,,,,,2161.783293000073,None,,,,,,,,,,,,,,,,,treatment,new_sing,red,133,111,339,2159.6797609999776,None,2159.6797609999776,None,4,1.3371343999169767,2159.6797609999776,None,2161.066841699998,None,2161.589182400028,None,2161.589182400028,None,f,0.15592669998295605,2161.589182400028,None,,,color5,001,2019_Nov_21_1627,ProdSingRedo,3.2.3,60.0130588432306,
,,,,134,0,134,0,,,,,,,,,,,,,,,,,,,,,,,,2163.983891800046,None,,,,,,,,,,,,,,,,,review,sing,red,134,10,263,2162.311449800036,None,2162.311449800036,None,6,1.057373599964194,2162.311449800036,None,2163.417676800047,None,2163.939904100029,None,2163.939904100029,None,r,0.013048699940554798,2163.939904100029,None,,,color5,001,2019_Nov_21_1627,ProdSingRedo,3.2.3,60.0130588432306,
,,,,135,0,135,0,,,,,,,,,,,,,,,,,,,,,,,,2166.084151600022,None,,,,,,,,,,,,,,,,,testimony,new_silent,blue,135,168,325,2164.504847700009,None,2164.504847700009,None,6,0.9360986999236047,2164.504847700009,None,2165.481795000029,None,2166.001917100046,None,2166.001917100046,None,r,0.04693249997217208,2166.001917100046,None,,,color5,001,2019_Nov_21_1627,ProdSingRedo,3.2.3,60.0130588432306,
,,,,136,0,136,0,,,,,,,,,,,,,,,,,,,,,,,,2168.226250000065,None,,,,,,,,,,,,,,,,,route,silent,blue,136,84,267,2166.6050781999948,None,2166.6050781999948,None,3,1.019886799971573,2166.6050781999948,None,2167.660203000065,None,2168.188000000082,None,2168.188000000082,None,f,0.012710799928754568,2168.188000000082,None,,,color5,001,2019_Nov_21_1627,ProdSingRedo,3.2.3,60.0130588432306,
,,,,137,0,137,0,,,,,,,,,,,,,,,,,,,,,,,,2170.6058570999885,None,,,,,,,,,,,,,,,,,literature,silent,blue,137,81,173,2168.7508619000437,None,2168.7508619000437,None,3,1.2421740000136197,2168.7508619000437,None,2170.028998300084,None,2170.5594016000396,None,2170.5594016000396,None,f,0.017324899905361235,2170.5594016000396,None,,,color5,001,2019_Nov_21_1627,ProdSingRedo,3.2.3,60.0130588432306,
,,,,138,0,138,0,,,,,,,,,,,,,,,,,,,,,,,,2173.1845815000124,None,,,,,,,,,,,,,,,,,bright,new_sing,red,138,103,29,2171.1296204000246,None,2171.1296204000246,None,4,1.4393397000385448,2171.1296204000246,None,2172.6192986000096,None,2173.1410484000808,None,2173.1410484000808,None,f,0.019898500060662627,2173.1410484000808,None,,,color5,001,2019_Nov_21_1627,ProdSingRedo,3.2.3,60.0130588432306,
,,,,139,0,139,0,,,,,,,,,,,,,,,,,,,,,,,,2175.2945328999776,None,,,,,,,,,,,,,,,,,military,new_aloud,yellow,139,136,190,2173.7132288999856,None,2173.7132288999856,None,6,0.975716800079681,2173.7132288999856,None,2174.7334703999804,None,2175.2576752000023,None,2175.2576752000023,None,r,0.007148199947550893,2175.2576752000023,None,,,color5,001,2019_Nov_21_1627,ProdSingRedo,3.2.3,60.0130588432306,
,,,,140,0,140,0,,,,,,,,,,,,,,,,,,,,,,,,2177.756909699994,None,,,,,,,,,,,,,,,,,union,aloud,yellow,140,55,344,2175.826103700092,None,2175.826103700092,None,6,0.8709479999961331,2175.826103700092,None,2176.7467610000167,None,2177.269509500009,None,2177.269509500009,None,r,0.44330629997421056,2177.269509500009,None,,,color5,001,2019_Nov_21_1627,ProdSingRedo,3.2.3,60.0130588432306,
,,,,141,0,141,0,,,,,,,,,,,,,,,,,,,,,,,,2180.418406700017,None,,,,,,,,,,,,,,,,,crisis,silent,blue,141,64,79,2178.2755571000744,None,2178.2755571000744,None,4,1.5656139999628067,2178.2755571000744,None,2179.8794112000614,None,2180.399076599977,None,2180.399076599977,None,f,0.0017632000381127,2180.399076599977,None,,,color5,001,2019_Nov_21_1627,ProdSingRedo,3.2.3,60.0130588432306,
,,,,142,0,142,0,,,,,,,,,,,,,,,,,,,,,,,,2182.8518795000855,None,,,,,,,,,,,,,,,,,generation,sing,red,142,20,136,2180.943018799997,None,2180.943018799997,None,6,1.025867099990137,2180.943018799997,None,2182.0190312000923,None,2182.5420124999946,None,2182.5420124999946,None,r,0.27488269994501024,2182.5420124999946,None,,,color5,001,2019_Nov_21_1627,ProdSingRedo,3.2.3,60.0130588432306,
,,,,143,0,143,0,,,,,,,,,,,,,,,,,,,,,,,,2185.4679192000767,None,,,,,,,,,,,,,,,,,cousin,new_aloud,yellow,143,147,76,2183.3789412000915,None,2183.3789412000915,None,3,1.4059412999777123,2183.3789412000915,None,2184.8332967000315,None,2185.352069100016,None,2185.352069100016,None,f,0.08109390002209693,2185.352069100016,None,,,color5,001,2019_Nov_21_1627,ProdSingRedo,3.2.3,60.0130588432306,
,,,,144,0,144,0,,,,,,,,,,,,,,,,,,,,,,,,2188.5225773000857,None,,,,,,,,,,,,,,,,,express,new_silent,blue,144,173,124,2185.9974711000687,None,2185.9974711000687,None,4,1.6514092000434175,2185.9974711000687,None,2187.6927539000753,None,2188.202381900046,None,2188.202381900046,None,f,0.28652040008455515,2188.202381900046,None,,,color5,001,2019_Nov_21_1627,ProdSingRedo,3.2.3,60.0130588432306,
,,,,145,0,145,0,,,,,,,,,,,,,,,,,,,,,,,,2190.8517948000226,None,,,,,,,,,,,,,,,,,guard,new_silent,blue,145,176,145,2189.0410181999905,None,2189.0410181999905,None,3,0.887928600073792,2189.0410181999905,None,2189.976666499977,None,2190.488749900018,None,2190.488749900018,None,n,0.32822100003249943,2190.488749900018,None,,,color5,001,2019_Nov_21_1627,ProdSingRedo,3.2.3,60.0130588432306,
,,,,146,0,146,0,,,,,,,,,,,,,,,,,,,,,,,,2194.420003400068,None,,,,,,,,,,,,,,,,,finish,new_silent,blue,146,179,130,2191.3776637000265,None,2191.3776637000265,None,5,1.4792757999384776,2191.3776637000265,None,2192.9025787999853,None,2193.4226654000813,None,2193.4226654000813,None,f,0.9704311999958009,2193.4226654000813,None,,,color5,001,2019_Nov_21_1627,ProdSingRedo,3.2.3,60.0130588432306,
,,,,147,0,147,0,,,,,,,,,,,,,,,,,,,,,,,,2196.6526569999987,None,,,,,,,,,,,,,,,,,position,sing,red,147,22,229,2194.941127900034,None,2194.941127900034,None,6,0.9638814000645652,2194.941127900034,None,2195.943848100025,None,2196.453586400021,None,2196.453586400021,None,r,0.16361709998454899,2196.453586400021,None,,,color5,001,2019_Nov_21_1627,ProdSingRedo,3.2.3,60.0130588432306,
,,,,148,0,148,0,,,,,,,,,,,,,,,,,,,,,,,,2198.569519300014,None,,,,,,,,,,,,,,,,,health,new_sing,red,148,96,149,2197.174688900006,None,2197.174688900006,None,6,0.7143243999453261,2197.174688900006,None,2197.935038800002,None,2198.4544519999763,None,2198.4544519999763,None,r,0.08249119995161891,2198.4544519999763,None,,,color5,001,2019_Nov_21_1627,ProdSingRedo,3.2.3,60.0130588432306,
,,,,149,0,149,0,,,,,,,,,,,,,,,,,,,,,,,,2201.285795600037,None,,,,,,,,,,,,,,,,,bitter,sing,red,149,14,23,2199.0925172000425,None,2199.0925172000425,None,4,1.460438499925658,2199.0925172000425,None,2200.5968053999823,None,2201.1236154000508,None,2201.1236154000508,None,f,0.12535720004234463,2201.1236154000508,None,,,color5,001,2019_Nov_21_1627,ProdSingRedo,3.2.3,60.0130588432306,
,,,,150,0,150,0,,,,,,,,,,,,,,,,,,,,,,,,2203.5035511000315,None,,,,,,,,,,,,,,,,,thick,sing,red,150,25,327,2201.812002800056,None,2201.812002800056,None,6,0.981004000059329,2201.812002800056,None,2202.8323713000864,None,2203.3512375000864,None,2203.3512375000864,None,r,0.12191549991257489,2203.3512375000864,None,,,color5,001,2019_Nov_21_1627,ProdSingRedo,3.2.3,60.0130588432306,
,,,,151,0,151,0,,,,,,,,,,,,,,,,,,,,,,,,2205.5868588000303,None,,,,,,,,,,,,,,,,,short,new_silent,blue,151,156,285,2204.0237010000274,None,2204.0237010000274,None,6,0.9213412998942658,2204.0237010000274,None,2204.9770819999976,None,2205.487940300023,None,2205.487940300023,None,r,0.07316070003435016,2205.487940300023,None,,,color5,001,2019_Nov_21_1627,ProdSingRedo,3.2.3,60.0130588432306,
,,,,152,0,152,0,,,,,,,,,,,,,,,,,,,,,,,,2207.603675500024,None,,,,,,,,,,,,,,,,,judge,new_silent,blue,152,165,166,2206.1129499999806,None,2206.1129499999806,None,6,0.5679430000018328,2206.1129499999806,None,2206.7373027000576,None,2207.2576717999764,None,2207.2576717999764,None,r,0.3112587999785319,2207.2576717999764,None,,,color5,001,2019_Nov_21_1627,ProdSingRedo,3.2.3,60.0130588432306,
,,,,153,0,153,0,,,,,,,,,,,,,,,,,,,,,,,,2210.4206265000394,None,,,,,,,,,,,,,,,,,second,aloud,yellow,153,32,278,2208.128437999985,None,2208.128437999985,None,6,0.856425300007686,2208.128437999985,None,2209.031219700002,None,2209.5536404000595,None,2209.5536404000595,None,r,0.8314291998976842,2209.5536404000595,None,,,color5,001,2019_Nov_21_1627,ProdSingRedo,3.2.3,60.0130588432306,
,,,,154,0,154,0,,,,,,,,,,,,,,,,,,,,,,,,2212.387237600051,None,,,,,,,,,,,,,,,,,character,silent,blue,154,77,46,2210.945273600053,None,2210.945273600053,None,6,0.7038070999551564,2210.945273600053,None,2211.7050828000065,None,2212.2302034000168,None,2212.2302034000168,None,r,0.12273629999253899,2212.2302034000168,None,,,color5,001,2019_Nov_21_1627,ProdSingRedo,3.2.3,60.0130588432306,
,,,,155,0,155,0,,,,,,,,,,,,,,,,,,,,,,,,2215.2200253000483,None,,,,,,,,,,,,,,,,,crime,aloud,yellow,155,31,78,2212.9078962000785,None,2212.9078962000785,None,4,1.3410663000540808,2212.9078962000785,None,2214.2961898000212,None,2214.8049446999794,None,2214.8049446999794,None,f,0.3801984000019729,2214.8049446999794,None,,,color5,001,2019_Nov_21_1627,ProdSingRedo,3.2.3,60.0130588432306,
,,,,156,0,156,0,,,,,,,,,,,,,,,,,,,,,,,,2217.556232300005,None,,,,,,,,,,,,,,,,,angle,sing,red,156,19,7,2215.7465983000584,None,2215.7465983000584,None,6,0.8147249000612646,2215.7465983000584,None,2216.60330279998,None,2217.123101299978,None,2217.123101299978,None,r,0.3977959998883307,2217.123101299978,None,,,color5,001,2019_Nov_21_1627,ProdSingRedo,3.2.3,60.0130588432306,
,,,,157,0,157,0,,,,,,,,,,,,,,,,,,,,,,,,2219.387797100004,None,,,,,,,,,,,,,,,,,growth,new_sing,red,157,104,144,2218.0813988000154,None,2218.0813988000154,None,6,0.4155534999445081,2218.0813988000154,None,2218.536660499987,None,2219.045075000031,None,2219.045075000031,None,r,0.31602350005414337,2219.045075000031,None,,,color5,001,2019_Nov_21_1627,ProdSingRedo,3.2.3,60.0130588432306,
,,,,158,0,158,0,,,,,,,,,,,,,,,,,,,,,,,,2221.5545858000405,None,,,,,,,,,,,,,,,,,science,new_silent,blue,158,160,275,2219.9091509000864,None,2219.9091509000864,None,6,0.8357715000165626,2219.9091509000864,None,2220.781706699985,None,2221.3041708000237,None,2221.3041708000237,None,r,0.2167377999285236,2221.3041708000237,None,,,color5,001,2019_Nov_21_1627,ProdSingRedo,3.2.3,60.0130588432306,
,,,,159,0,159,0,,,,,,,,,,,,,,,,,,,,,,,,2223.771188499988,None,,,,,,,,,,,,,,,,,drama,aloud,yellow,159,36,103,2222.076689700014,None,2222.076689700014,None,6,0.9167718000244349,2222.076689700014,None,2223.0333884999854,None,2223.5584025999997,None,2223.5584025999997,None,r,0.18663839995861053,2223.5584025999997,None,,,color5,001,2019_Nov_21_1627,ProdSingRedo,3.2.3,60.0130588432306,
,,,,160,0,160,0,,,,,,,,,,,,,,,,,,,,,,,,2225.4208565000445,None,,,,,,,,,,,,,,,,,count,silent,blue,160,71,72,2224.2933216000674,None,2224.2933216000674,None,4,0.4276012000627816,2224.2933216000674,None,2224.769023700035,None,2225.29086920002,None,2225.29086920002,None,f,0.09399729990400374,2225.29086920002,None,,,color5,001,2019_Nov_21_1627,ProdSingRedo,3.2.3,60.0130588432306,
,,,,161,0,161,0,,,,,,,,,,,,,,,,,,,,,,,,2227.1049324000487,None,,,,,,,,,,,,,,,,,taste,silent,blue,161,88,322,2225.944571000058,None,2225.944571000058,None,4,0.3684488000581041,2225.944571000058,None,2226.35264669999,None,2226.8733688000357,None,2226.8733688000357,None,f,0.1996070999884978,2226.8733688000357,None,,,color5,001,2019_Nov_21_1627,ProdSingRedo,3.2.3,60.0130588432306,
,,,,162,0,162,0,,,,,,,,,,,,,,,,,,,,,,,,2229.7050490999827,None,,,,,,,,,,,,,,,,,chief,silent,blue,162,60,48,2227.6249090000056,None,2227.6249090000056,None,6,1.448093399987556,2227.6249090000056,None,2229.1194491999922,None,2229.6401014000876,None,2229.6401014000876,None,r,0.0408612999599427,2229.6401014000876,None,,,color5,001,2019_Nov_21_1627,ProdSingRedo,3.2.3,60.0130588432306,
,,,,163,0,163,0,,,,,,,,,,,,,,,,,,,,,,,,2232.330664500012,None,,,,,,,,,,,,,,,,,primary,new_sing,red,163,97,234,2230.2318797000917,None,2230.2318797000917,None,3,1.4970990000292659,2230.2318797000917,None,2231.766216100077,None,2232.294184700004,None,2232.294184700004,None,f,0.010678499937057495,2232.294184700004,None,,,color5,001,2019_Nov_21_1627,ProdSingRedo,3.2.3,60.0130588432306,
,,,,164,0,164,0,,,,,,,,,,,,,,,,,,,,,,,,2235.0556177999824,None,,,,,,,,,,,,,,,,,interior,sing,red,164,13,164,2232.84650330001,None,2232.84650330001,None,6,1.3545932000270113,2232.84650330001,None,2234.248963500024,None,2234.772987800068,None,2234.772987800068,None,r,0.2521588000236079,2234.772987800068,None,,,color5,001,2019_Nov_21_1627,ProdSingRedo,3.2.3,60.0130588432306,
,,,,165,0,165,0,,,,,,,,,,,,,,,,,,,,,,,,2237.9577280000085,None,,,,,,,,,,,,,,,,,fashion,new_sing,red,165,113,125,2235.5856630000053,None,2235.5856630000053,None,4,1.5672365000937134,2235.5856630000053,None,2237.201780000003,None,2237.723939000047,None,2237.723939000047,None,f,0.20537969993893057,2237.723939000047,None,,,color5,001,2019_Nov_21_1627,ProdSingRedo,3.2.3,60.0130588432306,
,,,,166,0,166,0,,,,,,,,,,,,,,,,,,,,,,,,2240.539164600079,None,,,,,,,,,,,,,,,,,resistance,new_aloud,yellow,166,127,262,2238.4816024000756,None,2238.4816024000756,None,6,1.2554295998997986,2238.4816024000756,None,2239.789966100012,None,2240.311769800028,None,2240.311769800028,None,r,0.1931750999065116,2240.311769800028,None,,,color5,001,2019_Nov_21_1627,ProdSingRedo,3.2.3,60.0130588432306,
,,,,167,0,167,0,,,,,,,,,,,,,,,,,,,,,,,,2242.6060135000153,None,,,,,,,,,,,,,,,,,trial,aloud,yellow,167,52,341,2241.061976200086,None,2241.061976200086,None,6,0.7789304000325501,2241.061976200086,None,2241.888202800066,None,2242.408636600012,None,2242.408636600012,None,r,0.1682831000071019,2242.408636600012,None,,,color5,001,2019_Nov_21_1627,ProdSingRedo,3.2.3,60.0130588432306,
,,,,168,0,168,0,,,,,,,,,,,,,,,,,,,,,,,,2244.988759799977,None,,,,,,,,,,,,,,,,,birth,silent,blue,168,86,22,2243.1295222000917,None,2243.1295222000917,None,3,1.0796502000885084,2243.1295222000917,None,2244.2530973000685,None,2244.7749514000025,None,2244.7749514000025,None,f,0.17797560000326484,2244.7749514000025,None,,,color5,001,2019_Nov_21_1627,ProdSingRedo,3.2.3,60.0130588432306,
,,,,169,0,169,0,,,,,,,,,,,,,,,,,,,,,,,,2247.672981300042,None,,,,,,,,,,,,,,,,,hearing,sing,red,169,6,150,2245.518720800057,None,2245.518720800057,None,6,1.16232400003355,2245.518720800057,None,2246.722497800016,None,2247.2458554999903,None,2247.2458554999903,None,r,0.3952148000244051,2247.2458554999903,None,,,color5,001,2019_Nov_21_1627,ProdSingRedo,3.2.3,60.0130588432306,
,,,,170,0,170,0,,,,,,,,,,,,,,,,,,,,,,,,2249.9724166999804,None,,,,,,,,,,,,,,,,,member,new_aloud,yellow,170,138,188,2248.19841130008,None,2248.19841130008,None,5,1.002612299984321,2248.19841130008,None,2249.252214099979,None,2249.777769600041,None,2249.777769600041,None,f,0.1591472999425605,2249.777769600041,None,,,color5,001,2019_Nov_21_1627,ProdSingRedo,3.2.3,60.0130588432306,
,,,,171,0,171,0,,,,,,,,,,,,,,,,,,,,,,,,2253.457180300029,None,,,,,,,,,,,,,,,,,blind,new_silent,blue,171,163,24,2250.499715300044,None,2250.499715300044,None,6,1.0371801999863237,2250.499715300044,None,2251.5870884000324,None,2252.108377100085,None,2252.108377100085,None,f,1.3166250999784097,2252.108377100085,None,,,color5,001,2019_Nov_21_1627,ProdSingRedo,3.2.3,60.0130588432306,
,,,,172,0,172,0,,,,,,,,,,,,,,,,,,,,,,,,2256.5402462000493,None,,,,,,,,,,,,,,,,,alert,silent,blue,172,76,6,2253.9815344000235,None,2253.9815344000235,None,3,1.8594523998908699,2253.9815344000235,None,2255.8834895000327,None,2256.407539000036,None,2256.407539000036,None,f,0.09758000005967915,2256.407539000036,None,,,color5,001,2019_Nov_21_1627,ProdSingRedo,3.2.3,60.0130588432306,
,,,,173,0,173,0,,,,,,,,,,,,,,,,,,,,,,,,2259.340374900028,None,,,,,,,,,,,,,,,,,goose,new_aloud,yellow,173,141,138,2257.0649958000286,None,2257.0649958000286,None,1,1.5679845999693498,2257.0649958000286,None,2258.670807000017,None,2259.193249600008,None,2259.193249600008,None,n,0.12001050007529557,2259.193249600008,None,,,color5,001,2019_Nov_21_1627,ProdSingRedo,3.2.3,60.0130588432306,
,,,,174,0,174,0,,,,,,,,,,,,,,,,,,,,,,,,2261.5826909000752,None,,,,,,,,,,,,,,,,,background,new_aloud,yellow,174,149,16,2259.872348300065,None,2259.872348300065,None,6,1.104712100001052,2259.872348300065,None,2261.030816500075,None,2261.5527355000377,None,2261.5527355000377,None,r,0.008008699980564415,2261.5527355000377,None,,,color5,001,2019_Nov_21_1627,ProdSingRedo,3.2.3,60.0130588432306,
,,,,175,0,175,0,,,,,,,,,,,,,,,,,,,,,,,,2264.490451700054,None,,,,,,,,,,,,,,,,,material,silent,blue,175,70,182,2262.0967358000344,None,2262.0967358000344,None,3,1.2483750999672338,2262.0967358000344,None,2263.3860674999887,None,2263.9160999000305,None,2263.9160999000305,None,n,0.5489571000216529,2263.9160999000305,None,,,color5,001,2019_Nov_21_1627,ProdSingRedo,3.2.3,60.0130588432306,
,,,,176,0,176,0,,,,,,,,,,,,,,,,,,,,,,,,2267.6069978000596,None,,,,,,,,,,,,,,,,,committee,sing,red,176,8,62,2265.01345139998,None,2265.01345139998,None,3,1.7396035999991,2265.01345139998,None,2266.80211030005,None,2267.326227999991,None,2267.326227999991,None,f,0.24278199998661876,2267.326227999991,None,,,color5,001,2019_Nov_21_1627,ProdSingRedo,3.2.3,60.0130588432306,
,,,,177,0,177,0,,,,,,,,,,,,,,,,,,,,,,,,2269.957949300064,None,,,,,,,,,,,,,,,,,graduate,sing,red,177,18,141,2268.137068500044,None,2268.137068500044,None,6,1.071905400021933,2268.137068500044,None,2269.262076299987,None,2269.779091299977,None,2269.779091299977,None,r,0.14996840001549572,2269.779091299977,None,,,color5,001,2019_Nov_21_1627,ProdSingRedo,3.2.3,60.0130588432306,
,,,,178,0,178,0,,,,,,,,,,,,,,,,,,,,,,,,2272.4073728000512,None,,,,,,,,,,,,,,,,,message,aloud,yellow,178,39,189,2270.4844105000375,None,2270.4844105000375,None,6,0.8293421999551356,2270.4844105000375,None,2271.357833100017,None,2271.8751416000305,None,2271.8751416000305,None,r,0.49388969992287457,2271.8751416000305,None,,,color5,001,2019_Nov_21_1627,ProdSingRedo,3.2.3,60.0130588432306,
,,,,179,0,179,0,,,,,,,,,,,,,,,,,,,,,,,,2274.9904512000503,None,,,,,,,,,,,,,,,,,edition,new_aloud,yellow,179,125,107,2272.929593799985,None,2272.929593799985,None,6,1.32732209993992,2272.929593799985,None,2274.3007489000447,None,2274.825719500077,None,2274.825719500077,None,r,0.12723930005449802,2274.825719500077,None,,,color5,001,2019_Nov_21_1627,ProdSingRedo,3.2.3,60.0130588432306,
,,,,,,,,,,,,,,,,,,,,,,,,,,,,,,,,,,,,,,,,,,,,,,,,,,,,,,,,,,,,,,,,,,,,,,,,,2275.5003314000787,None,,,,,,,
