StudyLoop.thisRepN,StudyLoop.thisTrialN,StudyLoop.thisN,StudyLoop.thisIndex,TestLoop.thisRepN,TestLoop.thisTrialN,TestLoop.thisN,TestLoop.thisIndex,textCondition.started,textCondition.stopped,keyCondition.keys,keyCondition.rt,keyCondition.started,keyCondition.stopped,Condition,stim_colors,color_sing,color_aloud,color_silent,textWelcome.started,textWelcome.stopped,keyWelcome.keys,keyWelcome.rt,keyWelcome.started,keyWelcome.stopped,textAloud.started,textAloud.stopped,textSilent.started,textSilent.stopped,textSing.started,textSing.stopped,textBlank500.started,textBlank500.stopped,study_word,study_type,study_color,study_num,study_word_num,textStudy.started,textStudy.stopped,keyStudy.keys,keyStudy.started,keyStudy.stopped,textTestInstructions.started,textTestInstructions.stopped,key_resp_3.keys,key_resp_3.rt,key_resp_3.started,key_resp_3.stopped,testWord,testType,testColor,testN,test_num,test_word_num,textConf.started,textConf.stopped,textConfScale.started,textConfScale.stopped,keyConf.keys,keyConf.rt,keyConf.started,keyConf.stopped,textTestBlank.started,textTestBlank.stopped,textRKN.started,textRKN.stopped,textRKNScale.started,textRKNScale.stopped,keyRKN.keys,keyRKN.rt,keyRKN.started,keyRKN.stopped,textEnd.started,textEnd.stopped,participant,session,date,expName,psychopyVersion,frameRate,
,,,,,,,,18.99377440009266,None,n,0.4783251998014748,18.99377440009266,None,,,,,,,,,,,,,,,,,,,,,,,,,,,,,,,,,,,,,,,,,,,,,,,,,,,,,,,,,,,,,,NC 26,001,2021_Nov_15_1419,ProdSingRedo,3.2.3,59.944311798791546,
,,,,,,,,,,,,,,NeutralTest,"['red', 'yellow', 'blue']",red,yellow,blue,19.51970240008086,None,space,761.8965970999561,19.51970240008086,None,,,,,,,,,,,,,,,,,,,,,,,,,,,,,,,,,,,,,,,,,,,,,,,,,,,NC 26,001,2021_Nov_15_1419,ProdSingRedo,3.2.3,59.944311798791546,
0,0,0,0,,,,,,,,,,,,,,,,,,,,,,19.51970240008086,None,19.51970240008086,None,19.51970240008086,None,783.9550625998527,None,match,sing,red,22,181,781.9499021000229,None,None,781.9499021000229,None,,,,,,,,,,,,,,,,,,,,,,,,,,,,,,,,,NC 26,001,2021_Nov_15_1419,ProdSingRedo,3.2.3,59.944311798791546,
1,0,1,0,,,,,,,,,,,,,,,,,,,,,,,,,,,,786.4743102998473,None,provision,silent,blue,75,243,784.4706843998283,None,None,784.4706843998283,None,,,,,,,,,,,,,,,,,,,,,,,,,,,,,,,,,NC 26,001,2021_Nov_15_1419,ProdSingRedo,3.2.3,59.944311798791546,
2,0,2,0,,,,,,,,,,,,,,,,,,,,,,,,,,,,788.9934390000999,None,sound,aloud,yellow,33,295,786.9847732000053,None,None,786.9847732000053,None,,,,,,,,,,,,,,,,,,,,,,,,,,,,,,,,,NC 26,001,2021_Nov_15_1419,ProdSingRedo,3.2.3,59.944311798791546,
3,0,3,0,,,,,,,,,,,,,,,,,,,,,,,,,,,,791.5125866001472,None,afternoon,silent,blue,67,3,789.5043497001752,None,None,789.5043497001752,None,,,,,,,,,,,,,,,,,,,,,,,,,,,,,,,,,NC 26,001,2021_Nov_15_1419,ProdSingRedo,3.2.3,59.944311798791546,
4,0,4,0,,,,,,,,,,,,,,,,,,,,,,,,,,,,794.0315815000795,None,point,silent,blue,89,226,792.019783699885,None,None,792.019783699885,None,,,,,,,,,,,,,,,,,,,,,,,,,,,,,,,,,NC 26,001,2021_Nov_15_1419,ProdSingRedo,3.2.3,59.944311798791546,
5,0,5,0,,,,,,,,,,,,,,,,,,,,,,,,,,,,796.5508560999297,None,answer,sing,red,19,8,794.5416236999445,None,None,794.5416236999445,None,,,,,,,,,,,,,,,,,,,,,,,,,,,,,,,,,NC 26,001,2021_Nov_15_1419,ProdSingRedo,3.2.3,59.944311798791546,
6,0,6,0,,,,,,,,,,,,,,,,,,,,,,,,,,,,799.0534793999977,None,enemy,silent,blue,60,113,797.0512832999229,None,None,797.0512832999229,None,,,,,,,,,,,,,,,,,,,,,,,,,,,,,,,,,NC 26,001,2021_Nov_15_1419,ProdSingRedo,3.2.3,59.944311798791546,
7,0,7,0,,,,,,,,,,,,,,,,,,,,,,,,,,,,801.5726526998915,None,error,sing,red,5,117,799.5610400000587,None,None,799.5610400000587,None,,,,,,,,,,,,,,,,,,,,,,,,,,,,,,,,,NC 26,001,2021_Nov_15_1419,ProdSingRedo,3.2.3,59.944311798791546,
8,0,8,0,,,,,,,,,,,,,,,,,,,,,,,,,,,,804.0918450998142,None,sight,sing,red,4,286,802.083014999982,None,None,802.083014999982,None,,,,,,,,,,,,,,,,,,,,,,,,,,,,,,,,,NC 26,001,2021_Nov_15_1419,ProdSingRedo,3.2.3,59.944311798791546,
9,0,9,0,,,,,,,,,,,,,,,,,,,,,,,,,,,,806.6110848002136,None,crime,aloud,yellow,58,78,804.5989959002472,None,None,804.5989959002472,None,,,,,,,,,,,,,,,,,,,,,,,,,,,,,,,,,NC 26,001,2021_Nov_15_1419,ProdSingRedo,3.2.3,59.944311798791546,
10,0,10,0,,,,,,,,,,,,,,,,,,,,,,,,,,,,809.1302777999081,None,listen,sing,red,8,172,807.1191866998561,None,None,807.1191866998561,None,,,,,,,,,,,,,,,,,,,,,,,,,,,,,,,,,NC 26,001,2021_Nov_15_1419,ProdSingRedo,3.2.3,59.944311798791546,
11,0,11,0,,,,,,,,,,,,,,,,,,,,,,,,,,,,811.6494273999706,None,blind,aloud,yellow,44,24,809.6484926999547,None,None,809.6484926999547,None,,,,,,,,,,,,,,,,,,,,,,,,,,,,,,,,,NC 26,001,2021_Nov_15_1419,ProdSingRedo,3.2.3,59.944311798791546,
12,0,12,0,,,,,,,,,,,,,,,,,,,,,,,,,,,,814.1686086999252,None,track,sing,red,12,334,812.168216300197,None,None,812.168216300197,None,,,,,,,,,,,,,,,,,,,,,,,,,,,,,,,,,NC 26,001,2021_Nov_15_1419,ProdSingRedo,3.2.3,59.944311798791546,
13,0,13,0,,,,,,,,,,,,,,,,,,,,,,,,,,,,816.6878133001737,None,debate,aloud,yellow,41,87,814.6862681000493,None,None,814.6862681000493,None,,,,,,,,,,,,,,,,,,,,,,,,,,,,,,,,,NC 26,001,2021_Nov_15_1419,ProdSingRedo,3.2.3,59.944311798791546,
14,0,14,0,,,,,,,,,,,,,,,,,,,,,,,,,,,,819.2069568000734,None,distance,silent,blue,61,100,817.1996765001677,None,None,817.1996765001677,None,,,,,,,,,,,,,,,,,,,,,,,,,,,,,,,,,NC 26,001,2021_Nov_15_1419,ProdSingRedo,3.2.3,59.944311798791546,
15,0,15,0,,,,,,,,,,,,,,,,,,,,,,,,,,,,821.7261855001561,None,little,sing,red,2,174,819.7137513998896,None,None,819.7137513998896,None,,,,,,,,,,,,,,,,,,,,,,,,,,,,,,,,,NC 26,001,2021_Nov_15_1419,ProdSingRedo,3.2.3,59.944311798791546,
16,0,16,0,,,,,,,,,,,,,,,,,,,,,,,,,,,,824.2453378001228,None,split,aloud,yellow,48,299,822.2325971000828,None,None,822.2325971000828,None,,,,,,,,,,,,,,,,,,,,,,,,,,,,,,,,,NC 26,001,2021_Nov_15_1419,ProdSingRedo,3.2.3,59.944311798791546,
17,0,17,0,,,,,,,,,,,,,,,,,,,,,,,,,,,,826.7645184001885,None,estate,aloud,yellow,53,119,824.7570576998405,None,None,824.7570576998405,None,,,,,,,,,,,,,,,,,,,,,,,,,,,,,,,,,NC 26,001,2021_Nov_15_1419,ProdSingRedo,3.2.3,59.944311798791546,
18,0,18,0,,,,,,,,,,,,,,,,,,,,,,,,,,,,829.2836994999088,None,month,silent,blue,69,193,827.2722324002534,None,None,827.2722324002534,None,,,,,,,,,,,,,,,,,,,,,,,,,,,,,,,,,NC 26,001,2021_Nov_15_1419,ProdSingRedo,3.2.3,59.944311798791546,
19,0,19,0,,,,,,,,,,,,,,,,,,,,,,,,,,,,831.8029056000523,None,quantity,aloud,yellow,42,245,829.8017143998295,None,None,829.8017143998295,None,,,,,,,,,,,,,,,,,,,,,,,,,,,,,,,,,NC 26,001,2021_Nov_15_1419,ProdSingRedo,3.2.3,59.944311798791546,
20,0,20,0,,,,,,,,,,,,,,,,,,,,,,,,,,,,834.3220712998882,None,notice,sing,red,7,201,832.3107463000342,None,None,832.3107463000342,None,,,,,,,,,,,,,,,,,,,,,,,,,,,,,,,,,NC 26,001,2021_Nov_15_1419,ProdSingRedo,3.2.3,59.944311798791546,
21,0,21,0,,,,,,,,,,,,,,,,,,,,,,,,,,,,836.8413061001338,None,breath,sing,red,10,27,834.8366890000179,None,None,834.8366890000179,None,,,,,,,,,,,,,,,,,,,,,,,,,,,,,,,,,NC 26,001,2021_Nov_15_1419,ProdSingRedo,3.2.3,59.944311798791546,
22,0,22,0,,,,,,,,,,,,,,,,,,,,,,,,,,,,839.3604199998081,None,force,sing,red,0,131,837.3500919002108,None,None,837.3500919002108,None,,,,,,,,,,,,,,,,,,,,,,,,,,,,,,,,,NC 26,001,2021_Nov_15_1419,ProdSingRedo,3.2.3,59.944311798791546,
23,0,23,0,,,,,,,,,,,,,,,,,,,,,,,,,,,,841.8796005998738,None,period,sing,red,13,217,839.8686965000816,None,None,839.8686965000816,None,,,,,,,,,,,,,,,,,,,,,,,,,,,,,,,,,NC 26,001,2021_Nov_15_1419,ProdSingRedo,3.2.3,59.944311798791546,
24,0,24,0,,,,,,,,,,,,,,,,,,,,,,,,,,,,844.3988573998213,None,balance,silent,blue,81,17,842.3962428001687,None,None,842.3962428001687,None,,,,,,,,,,,,,,,,,,,,,,,,,,,,,,,,,NC 26,001,2021_Nov_15_1419,ProdSingRedo,3.2.3,59.944311798791546,
25,0,25,0,,,,,,,,,,,,,,,,,,,,,,,,,,,,846.917995300144,None,crisis,aloud,yellow,38,79,844.9060558001511,None,None,844.9060558001511,None,,,,,,,,,,,,,,,,,,,,,,,,,,,,,,,,,NC 26,001,2021_Nov_15_1419,ProdSingRedo,3.2.3,59.944311798791546,
26,0,26,0,,,,,,,,,,,,,,,,,,,,,,,,,,,,849.437207700219,None,heavy,silent,blue,77,151,847.4306788002141,None,None,847.4306788002141,None,,,,,,,,,,,,,,,,,,,,,,,,,,,,,,,,,NC 26,001,2021_Nov_15_1419,ProdSingRedo,3.2.3,59.944311798791546,
27,0,27,0,,,,,,,,,,,,,,,,,,,,,,,,,,,,851.9563660002314,None,candidate,silent,blue,84,39,849.9525041999295,None,None,849.9525041999295,None,,,,,,,,,,,,,,,,,,,,,,,,,,,,,,,,,NC 26,001,2021_Nov_15_1419,ProdSingRedo,3.2.3,59.944311798791546,
28,0,28,0,,,,,,,,,,,,,,,,,,,,,,,,,,,,854.4755604001693,None,sunset,sing,red,15,315,852.4682391001843,None,None,852.4682391001843,None,,,,,,,,,,,,,,,,,,,,,,,,,,,,,,,,,NC 26,001,2021_Nov_15_1419,ProdSingRedo,3.2.3,59.944311798791546,
29,0,29,0,,,,,,,,,,,,,,,,,,,,,,,,,,,,856.9947337000631,None,agency,sing,red,1,4,854.9879160998389,None,None,854.9879160998389,None,,,,,,,,,,,,,,,,,,,,,,,,,,,,,,,,,NC 26,001,2021_Nov_15_1419,ProdSingRedo,3.2.3,59.944311798791546,
30,0,30,0,,,,,,,,,,,,,,,,,,,,,,,,,,,,859.5139240999706,None,appearance,aloud,yellow,32,10,857.512915099971,None,None,857.512915099971,None,,,,,,,,,,,,,,,,,,,,,,,,,,,,,,,,,NC 26,001,2021_Nov_15_1419,ProdSingRedo,3.2.3,59.944311798791546,
31,0,31,0,,,,,,,,,,,,,,,,,,,,,,,,,,,,862.0331783001311,None,solution,aloud,yellow,30,294,860.0308900000528,None,None,860.0308900000528,None,,,,,,,,,,,,,,,,,,,,,,,,,,,,,,,,,NC 26,001,2021_Nov_15_1419,ProdSingRedo,3.2.3,59.944311798791546,
32,0,32,0,,,,,,,,,,,,,,,,,,,,,,,,,,,,864.5522663001902,None,expansion,silent,blue,71,123,862.5470135998912,None,None,862.5470135998912,None,,,,,,,,,,,,,,,,,,,,,,,,,,,,,,,,,NC 26,001,2021_Nov_15_1419,ProdSingRedo,3.2.3,59.944311798791546,
33,0,33,0,,,,,,,,,,,,,,,,,,,,,,,,,,,,867.0714997001924,None,suggestion,sing,red,26,314,865.0660929000005,None,None,865.0660929000005,None,,,,,,,,,,,,,,,,,,,,,,,,,,,,,,,,,NC 26,001,2021_Nov_15_1419,ProdSingRedo,3.2.3,59.944311798791546,
34,0,34,0,,,,,,,,,,,,,,,,,,,,,,,,,,,,869.5740688000806,None,crowd,silent,blue,66,81,867.5723291002214,None,None,867.5723291002214,None,,,,,,,,,,,,,,,,,,,,,,,,,,,,,,,,,NC 26,001,2021_Nov_15_1419,ProdSingRedo,3.2.3,59.944311798791546,
35,0,35,0,,,,,,,,,,,,,,,,,,,,,,,,,,,,872.093192699831,None,drove,aloud,yellow,39,106,870.0868889000267,None,None,870.0868889000267,None,,,,,,,,,,,,,,,,,,,,,,,,,,,,,,,,,NC 26,001,2021_Nov_15_1419,ProdSingRedo,3.2.3,59.944311798791546,
36,0,36,0,,,,,,,,,,,,,,,,,,,,,,,,,,,,874.612352500204,None,throw,aloud,yellow,56,330,872.603035800159,None,None,872.603035800159,None,,,,,,,,,,,,,,,,,,,,,,,,,,,,,,,,,NC 26,001,2021_Nov_15_1419,ProdSingRedo,3.2.3,59.944311798791546,
37,0,37,0,,,,,,,,,,,,,,,,,,,,,,,,,,,,877.1316161998548,None,edition,silent,blue,73,107,875.1195391998626,None,None,875.1195391998626,None,,,,,,,,,,,,,,,,,,,,,,,,,,,,,,,,,NC 26,001,2021_Nov_15_1419,ProdSingRedo,3.2.3,59.944311798791546,
38,0,38,0,,,,,,,,,,,,,,,,,,,,,,,,,,,,879.6506408001296,None,comfort,aloud,yellow,49,59,877.6433140002191,None,None,877.6433140002191,None,,,,,,,,,,,,,,,,,,,,,,,,,,,,,,,,,NC 26,001,2021_Nov_15_1419,ProdSingRedo,3.2.3,59.944311798791546,
39,0,39,0,,,,,,,,,,,,,,,,,,,,,,,,,,,,882.169899799861,None,fellow,sing,red,21,126,880.1616409001872,None,None,880.1616409001872,None,,,,,,,,,,,,,,,,,,,,,,,,,,,,,,,,,NC 26,001,2021_Nov_15_1419,ProdSingRedo,3.2.3,59.944311798791546,
40,0,40,0,,,,,,,,,,,,,,,,,,,,,,,,,,,,884.6891434998251,None,equipment,aloud,yellow,57,116,882.692695400212,None,None,882.692695400212,None,,,,,,,,,,,,,,,,,,,,,,,,,,,,,,,,,NC 26,001,2021_Nov_15_1419,ProdSingRedo,3.2.3,59.944311798791546,
41,0,41,0,,,,,,,,,,,,,,,,,,,,,,,,,,,,887.2082849000581,None,quiet,aloud,yellow,46,249,885.2027297001332,None,None,885.2027297001332,None,,,,,,,,,,,,,,,,,,,,,,,,,,,,,,,,,NC 26,001,2021_Nov_15_1419,ProdSingRedo,3.2.3,59.944311798791546,
42,0,42,0,,,,,,,,,,,,,,,,,,,,,,,,,,,,889.7274557999335,None,attack,silent,blue,78,13,887.7249835999683,None,None,887.7249835999683,None,,,,,,,,,,,,,,,,,,,,,,,,,,,,,,,,,NC 26,001,2021_Nov_15_1419,ProdSingRedo,3.2.3,59.944311798791546,
43,0,43,0,,,,,,,,,,,,,,,,,,,,,,,,,,,,892.246575600002,None,voice,sing,red,18,348,890.2362319999374,None,None,890.2362319999374,None,,,,,,,,,,,,,,,,,,,,,,,,,,,,,,,,,NC 26,001,2021_Nov_15_1419,ProdSingRedo,3.2.3,59.944311798791546,
44,0,44,0,,,,,,,,,,,,,,,,,,,,,,,,,,,,894.7658048998564,None,quick,sing,red,16,248,892.7630356000736,None,None,892.7630356000736,None,,,,,,,,,,,,,,,,,,,,,,,,,,,,,,,,,NC 26,001,2021_Nov_15_1419,ProdSingRedo,3.2.3,59.944311798791546,
45,0,45,0,,,,,,,,,,,,,,,,,,,,,,,,,,,,897.2850771998055,None,silence,silent,blue,88,288,895.2740417998284,None,None,895.2740417998284,None,,,,,,,,,,,,,,,,,,,,,,,,,,,,,,,,,NC 26,001,2021_Nov_15_1419,ProdSingRedo,3.2.3,59.944311798791546,
46,0,46,0,,,,,,,,,,,,,,,,,,,,,,,,,,,,899.8043296001852,None,object,silent,blue,86,204,897.8055829000659,None,None,897.8055829000659,None,,,,,,,,,,,,,,,,,,,,,,,,,,,,,,,,,NC 26,001,2021_Nov_15_1419,ProdSingRedo,3.2.3,59.944311798791546,
47,0,47,0,,,,,,,,,,,,,,,,,,,,,,,,,,,,902.3234362001531,None,strain,aloud,yellow,35,308,900.3155712001026,None,None,900.3155712001026,None,,,,,,,,,,,,,,,,,,,,,,,,,,,,,,,,,NC 26,001,2021_Nov_15_1419,ProdSingRedo,3.2.3,59.944311798791546,
48,0,48,0,,,,,,,,,,,,,,,,,,,,,,,,,,,,904.8425929998048,None,search,aloud,yellow,59,276,902.8362676999532,None,None,902.8362676999532,None,,,,,,,,,,,,,,,,,,,,,,,,,,,,,,,,,NC 26,001,2021_Nov_15_1419,ProdSingRedo,3.2.3,59.944311798791546,
49,0,49,0,,,,,,,,,,,,,,,,,,,,,,,,,,,,907.3616825002246,None,evidence,silent,blue,87,120,905.3563426001929,None,None,905.3563426001929,None,,,,,,,,,,,,,,,,,,,,,,,,,,,,,,,,,NC 26,001,2021_Nov_15_1419,ProdSingRedo,3.2.3,59.944311798791546,
50,0,50,0,,,,,,,,,,,,,,,,,,,,,,,,,,,,909.8809424000792,None,atmosphere,sing,red,27,12,907.8726456002332,None,None,907.8726456002332,None,,,,,,,,,,,,,,,,,,,,,,,,,,,,,,,,,NC 26,001,2021_Nov_15_1419,ProdSingRedo,3.2.3,59.944311798791546,
51,0,51,0,,,,,,,,,,,,,,,,,,,,,,,,,,,,912.4002022999339,None,audience,silent,blue,64,14,910.3931791000068,None,None,910.3931791000068,None,,,,,,,,,,,,,,,,,,,,,,,,,,,,,,,,,NC 26,001,2021_Nov_15_1419,ProdSingRedo,3.2.3,59.944311798791546,
52,0,52,0,,,,,,,,,,,,,,,,,,,,,,,,,,,,914.9193039000966,None,order,aloud,yellow,43,207,912.9061004002579,None,None,912.9061004002579,None,,,,,,,,,,,,,,,,,,,,,,,,,,,,,,,,,NC 26,001,2021_Nov_15_1419,ProdSingRedo,3.2.3,59.944311798791546,
53,0,53,0,,,,,,,,,,,,,,,,,,,,,,,,,,,,917.4385480000637,None,budget,aloud,yellow,51,34,915.43492709985,None,None,915.43492709985,None,,,,,,,,,,,,,,,,,,,,,,,,,,,,,,,,,NC 26,001,2021_Nov_15_1419,ProdSingRedo,3.2.3,59.944311798791546,
54,0,54,0,,,,,,,,,,,,,,,,,,,,,,,,,,,,919.9577008001506,None,discovery,sing,red,20,95,917.9540630001575,None,None,917.9540630001575,None,,,,,,,,,,,,,,,,,,,,,,,,,,,,,,,,,NC 26,001,2021_Nov_15_1419,ProdSingRedo,3.2.3,59.944311798791546,
55,0,55,0,,,,,,,,,,,,,,,,,,,,,,,,,,,,922.476703800261,None,dream,sing,red,25,104,920.4685618998483,None,None,920.4685618998483,None,,,,,,,,,,,,,,,,,,,,,,,,,,,,,,,,,NC 26,001,2021_Nov_15_1419,ProdSingRedo,3.2.3,59.944311798791546,
56,0,56,0,,,,,,,,,,,,,,,,,,,,,,,,,,,,924.9961335002445,None,pancakes,aloud,yellow,31,210,922.9807442999445,None,None,922.9807442999445,None,,,,,,,,,,,,,,,,,,,,,,,,,,,,,,,,,NC 26,001,2021_Nov_15_1419,ProdSingRedo,3.2.3,59.944311798791546,
57,0,57,0,,,,,,,,,,,,,,,,,,,,,,,,,,,,927.5152851999737,None,individual,sing,red,23,160,925.5107136000879,None,None,925.5107136000879,None,,,,,,,,,,,,,,,,,,,,,,,,,,,,,,,,,NC 26,001,2021_Nov_15_1419,ProdSingRedo,3.2.3,59.944311798791546,
58,0,58,0,,,,,,,,,,,,,,,,,,,,,,,,,,,,930.0343940001912,None,division,silent,blue,63,101,928.0290037002414,None,None,928.0290037002414,None,,,,,,,,,,,,,,,,,,,,,,,,,,,,,,,,,NC 26,001,2021_Nov_15_1419,ProdSingRedo,3.2.3,59.944311798791546,
59,0,59,0,,,,,,,,,,,,,,,,,,,,,,,,,,,,932.5536819999106,None,public,sing,red,28,244,930.5501219001599,None,None,930.5501219001599,None,,,,,,,,,,,,,,,,,,,,,,,,,,,,,,,,,NC 26,001,2021_Nov_15_1419,ProdSingRedo,3.2.3,59.944311798791546,
60,0,60,0,,,,,,,,,,,,,,,,,,,,,,,,,,,,935.0561143001541,None,turkey,aloud,yellow,50,342,933.0566503000446,None,None,933.0566503000446,None,,,,,,,,,,,,,,,,,,,,,,,,,,,,,,,,,NC 26,001,2021_Nov_15_1419,ProdSingRedo,3.2.3,59.944311798791546,
61,0,61,0,,,,,,,,,,,,,,,,,,,,,,,,,,,,937.5753354998305,None,degree,sing,red,29,89,935.5698540001176,None,None,935.5698540001176,None,,,,,,,,,,,,,,,,,,,,,,,,,,,,,,,,,NC 26,001,2021_Nov_15_1419,ProdSingRedo,3.2.3,59.944311798791546,
62,0,62,0,,,,,,,,,,,,,,,,,,,,,,,,,,,,940.0945319999009,None,south,silent,blue,62,296,938.0861927000806,None,None,938.0861927000806,None,,,,,,,,,,,,,,,,,,,,,,,,,,,,,,,,,NC 26,001,2021_Nov_15_1419,ProdSingRedo,3.2.3,59.944311798791546,
63,0,63,0,,,,,,,,,,,,,,,,,,,,,,,,,,,,942.6136700999923,None,beauty,aloud,yellow,36,18,940.6103354999796,None,None,940.6103354999796,None,,,,,,,,,,,,,,,,,,,,,,,,,,,,,,,,,NC 26,001,2021_Nov_15_1419,ProdSingRedo,3.2.3,59.944311798791546,
64,0,64,0,,,,,,,,,,,,,,,,,,,,,,,,,,,,945.1328547000885,None,dozen,silent,blue,72,102,943.1298799999058,None,None,943.1298799999058,None,,,,,,,,,,,,,,,,,,,,,,,,,,,,,,,,,NC 26,001,2021_Nov_15_1419,ProdSingRedo,3.2.3,59.944311798791546,
65,0,65,0,,,,,,,,,,,,,,,,,,,,,,,,,,,,947.6520378999412,None,smell,sing,red,24,291,945.6411314001307,None,None,945.6411314001307,None,,,,,,,,,,,,,,,,,,,,,,,,,,,,,,,,,NC 26,001,2021_Nov_15_1419,ProdSingRedo,3.2.3,59.944311798791546,
66,0,66,0,,,,,,,,,,,,,,,,,,,,,,,,,,,,950.1713159000501,None,detective,aloud,yellow,52,92,948.1671716999263,None,None,948.1671716999263,None,,,,,,,,,,,,,,,,,,,,,,,,,,,,,,,,,NC 26,001,2021_Nov_15_1419,ProdSingRedo,3.2.3,59.944311798791546,
67,0,67,0,,,,,,,,,,,,,,,,,,,,,,,,,,,,952.6904159002006,None,graduate,aloud,yellow,54,141,950.6878726999275,None,None,950.6878726999275,None,,,,,,,,,,,,,,,,,,,,,,,,,,,,,,,,,NC 26,001,2021_Nov_15_1419,ProdSingRedo,3.2.3,59.944311798791546,
68,0,68,0,,,,,,,,,,,,,,,,,,,,,,,,,,,,955.2099470999092,None,comedy,silent,blue,68,58,953.2033303999342,None,None,953.2033303999342,None,,,,,,,,,,,,,,,,,,,,,,,,,,,,,,,,,NC 26,001,2021_Nov_15_1419,ProdSingRedo,3.2.3,59.944311798791546,
69,0,69,0,,,,,,,,,,,,,,,,,,,,,,,,,,,,957.7288203998469,None,defeat,aloud,yellow,47,88,955.7224961002357,None,None,955.7224961002357,None,,,,,,,,,,,,,,,,,,,,,,,,,,,,,,,,,NC 26,001,2021_Nov_15_1419,ProdSingRedo,3.2.3,59.944311798791546,
70,0,70,0,,,,,,,,,,,,,,,,,,,,,,,,,,,,960.2479746998288,None,mankind,aloud,yellow,55,178,958.2453838000074,None,None,958.2453838000074,None,,,,,,,,,,,,,,,,,,,,,,,,,,,,,,,,,NC 26,001,2021_Nov_15_1419,ProdSingRedo,3.2.3,59.944311798791546,
71,0,71,0,,,,,,,,,,,,,,,,,,,,,,,,,,,,962.7671651998535,None,produce,aloud,yellow,37,239,960.754000400193,None,None,960.754000400193,None,,,,,,,,,,,,,,,,,,,,,,,,,,,,,,,,,NC 26,001,2021_Nov_15_1419,ProdSingRedo,3.2.3,59.944311798791546,
72,0,72,0,,,,,,,,,,,,,,,,,,,,,,,,,,,,965.2863937001675,None,rough,aloud,yellow,45,266,963.2799450000748,None,None,963.2799450000748,None,,,,,,,,,,,,,,,,,,,,,,,,,,,,,,,,,NC 26,001,2021_Nov_15_1419,ProdSingRedo,3.2.3,59.944311798791546,
73,0,73,0,,,,,,,,,,,,,,,,,,,,,,,,,,,,967.8055682000704,None,worker,silent,blue,85,356,965.8014779998921,None,None,965.8014779998921,None,,,,,,,,,,,,,,,,,,,,,,,,,,,,,,,,,NC 26,001,2021_Nov_15_1419,ProdSingRedo,3.2.3,59.944311798791546,
74,0,74,0,,,,,,,,,,,,,,,,,,,,,,,,,,,,970.3247225000523,None,reading,sing,red,11,254,968.3184083998203,None,None,968.3184083998203,None,,,,,,,,,,,,,,,,,,,,,,,,,,,,,,,,,NC 26,001,2021_Nov_15_1419,ProdSingRedo,3.2.3,59.944311798791546,
75,0,75,0,,,,,,,,,,,,,,,,,,,,,,,,,,,,972.8438996998593,None,stranger,sing,red,3,309,970.8410358000547,None,None,970.8410358000547,None,,,,,,,,,,,,,,,,,,,,,,,,,,,,,,,,,NC 26,001,2021_Nov_15_1419,ProdSingRedo,3.2.3,59.944311798791546,
76,0,76,0,,,,,,,,,,,,,,,,,,,,,,,,,,,,975.3631608001888,None,contract,silent,blue,82,68,973.3567178002559,None,None,973.3567178002559,None,,,,,,,,,,,,,,,,,,,,,,,,,,,,,,,,,NC 26,001,2021_Nov_15_1419,ProdSingRedo,3.2.3,59.944311798791546,
77,0,77,0,,,,,,,,,,,,,,,,,,,,,,,,,,,,977.8822924001142,None,childhood,silent,blue,83,49,975.87142329989,None,None,975.87142329989,None,,,,,,,,,,,,,,,,,,,,,,,,,,,,,,,,,NC 26,001,2021_Nov_15_1419,ProdSingRedo,3.2.3,59.944311798791546,
78,0,78,0,,,,,,,,,,,,,,,,,,,,,,,,,,,,980.401496199891,None,incident,sing,red,6,158,978.3905227999203,None,None,978.3905227999203,None,,,,,,,,,,,,,,,,,,,,,,,,,,,,,,,,,NC 26,001,2021_Nov_15_1419,ProdSingRedo,3.2.3,59.944311798791546,
79,0,79,0,,,,,,,,,,,,,,,,,,,,,,,,,,,,982.9206794998609,None,colonel,silent,blue,79,55,980.9105845000595,None,None,980.9105845000595,None,,,,,,,,,,,,,,,,,,,,,,,,,,,,,,,,,NC 26,001,2021_Nov_15_1419,ProdSingRedo,3.2.3,59.944311798791546,
80,0,80,0,,,,,,,,,,,,,,,,,,,,,,,,,,,,985.4397100000642,None,shear,sing,red,17,283,983.4315443001688,None,None,983.4315443001688,None,,,,,,,,,,,,,,,,,,,,,,,,,,,,,,,,,NC 26,001,2021_Nov_15_1419,ProdSingRedo,3.2.3,59.944311798791546,
81,0,81,0,,,,,,,,,,,,,,,,,,,,,,,,,,,,987.9589966000058,None,display,silent,blue,76,98,985.952823900152,None,None,985.952823900152,None,,,,,,,,,,,,,,,,,,,,,,,,,,,,,,,,,NC 26,001,2021_Nov_15_1419,ProdSingRedo,3.2.3,59.944311798791546,
82,0,82,0,,,,,,,,,,,,,,,,,,,,,,,,,,,,990.4782365001738,None,minute,silent,blue,70,192,988.4684609998949,None,None,988.4684609998949,None,,,,,,,,,,,,,,,,,,,,,,,,,,,,,,,,,NC 26,001,2021_Nov_15_1419,ProdSingRedo,3.2.3,59.944311798791546,
83,0,83,0,,,,,,,,,,,,,,,,,,,,,,,,,,,,992.9807084999047,None,broad,sing,red,9,31,990.9786307001486,None,None,990.9786307001486,None,,,,,,,,,,,,,,,,,,,,,,,,,,,,,,,,,NC 26,001,2021_Nov_15_1419,ProdSingRedo,3.2.3,59.944311798791546,
84,0,84,0,,,,,,,,,,,,,,,,,,,,,,,,,,,,995.4998730998486,None,second,silent,blue,74,278,993.4888320001774,None,None,993.4888320001774,None,,,,,,,,,,,,,,,,,,,,,,,,,,,,,,,,,NC 26,001,2021_Nov_15_1419,ProdSingRedo,3.2.3,59.944311798791546,
85,0,85,0,,,,,,,,,,,,,,,,,,,,,,,,,,,,998.0190555001609,None,waste,silent,blue,65,350,996.0094554000534,None,None,996.0094554000534,None,,,,,,,,,,,,,,,,,,,,,,,,,,,,,,,,,NC 26,001,2021_Nov_15_1419,ProdSingRedo,3.2.3,59.944311798791546,
86,0,86,0,,,,,,,,,,,,,,,,,,,,,,,,,,,,1000.5382484002039,None,majority,aloud,yellow,40,176,998.5347568998113,None,None,998.5347568998113,None,,,,,,,,,,,,,,,,,,,,,,,,,,,,,,,,,NC 26,001,2021_Nov_15_1419,ProdSingRedo,3.2.3,59.944311798791546,
87,0,87,0,,,,,,,,,,,,,,,,,,,,,,,,,,,,1003.0574448998086,None,drama,sing,red,14,103,1001.0503815999255,None,None,1001.0503815999255,None,,,,,,,,,,,,,,,,,,,,,,,,,,,,,,,,,NC 26,001,2021_Nov_15_1419,ProdSingRedo,3.2.3,59.944311798791546,
88,0,88,0,,,,,,,,,,,,,,,,,,,,,,,,,,,,1005.5766429998912,None,committee,aloud,yellow,34,62,1003.5665291999467,None,None,1003.5665291999467,None,,,,,,,,,,,,,,,,,,,,,,,,,,,,,,,,,NC 26,001,2021_Nov_15_1419,ProdSingRedo,3.2.3,59.944311798791546,
89,0,89,0,,,,,,,,,,,,,,,,,,,,,,,,,,,,1008.0958079001866,None,tennis,silent,blue,80,323,1006.0849144998938,None,None,1006.0849144998938,None,,,,,,,,,,,,,,,,,,,,,,,,,,,,,,,,,NC 26,001,2021_Nov_15_1419,ProdSingRedo,3.2.3,59.944311798791546,
,,,,,,,,,,,,,,,,,,,,,,,,,,,,,,,,,,,,,,,,,,,1008.5966234002262,None,k,151.90024330001324,1008.5966234002262,None,,,,,,,,,,,,,,,,,,,,,,,,,,,NC 26,001,2021_Nov_15_1419,ProdSingRedo,3.2.3,59.944311798791546,
,,,,0,0,0,0,,,,,,,,,,,,,,,,,,,,,,,,1170.8416703999974,None,,,,,,,,,,,,,,,,,audience,silent,white,0,64,14,1161.0327786002308,None,1161.0327786002308,None,1,6.96010070014745,1161.0327786002308,None,1168.0447891000658,None,1168.5689297998324,None,1168.5689297998324,None,n,2.255655199754983,1168.5689297998324,None,,,NC 26,001,2021_Nov_15_1419,ProdSingRedo,3.2.3,59.944311798791546,
,,,,1,0,1,0,,,,,,,,,,,,,,,,,,,,,,,,1184.3129461002536,None,,,,,,,,,,,,,,,,,burden,new_c,white,1,167,36,1171.3430284000933,None,1171.3430284000933,None,3,11.113876100163907,1171.3430284000933,None,1182.5093777999282,None,1183.0335772000253,None,1183.0335772000253,None,f,1.2472914000973105,1183.0335772000253,None,,,NC 26,001,2021_Nov_15_1419,ProdSingRedo,3.2.3,59.944311798791546,
,,,,2,0,2,0,,,,,,,,,,,,,,,,,,,,,,,,1189.2337818001397,None,,,,,,,,,,,,,,,,,sight,sing,white,2,4,286,1184.8388641001657,None,1184.8388641001657,None,6,2.8100502998568118,1184.8388641001657,None,1187.6972301998176,None,1188.2191818002611,None,1188.2191818002611,None,r,0.9816481000743806,1188.2191818002611,None,,,NC 26,001,2021_Nov_15_1419,ProdSingRedo,3.2.3,59.944311798791546,
,,,,3,0,3,0,,,,,,,,,,,,,,,,,,,,,,,,1197.4423187999055,None,,,,,,,,,,,,,,,,,sunset,sing,white,3,15,315,1189.7598001002334,None,1189.7598001002334,None,2,4.721064699813724,1189.7598001002334,None,1194.5212833001278,None,1195.042700999882,None,1195.042700999882,None,n,2.3741282001137733,1195.042700999882,None,,,NC 26,001,2021_Nov_15_1419,ProdSingRedo,3.2.3,59.944311798791546,
,,,,4,0,4,0,,,,,,,,,,,,,,,,,,,,,,,,1202.5795777998865,None,,,,,,,,,,,,,,,,,subject,new_c,white,4,171,312,1197.972965599969,None,1197.972965599969,None,5,3.0515292999334633,1197.972965599969,None,1201.0550703001209,None,1201.5557436002418,None,1201.5557436002418,None,f,0.9971381998620927,1201.5557436002418,None,,,NC 26,001,2021_Nov_15_1419,ProdSingRedo,3.2.3,59.944311798791546,
,,,,5,0,5,0,,,,,,,,,,,,,,,,,,,,,,,,1207.8514000000432,None,,,,,,,,,,,,,,,,,clean,new_c,white,5,152,51,1203.1051254002377,None,1203.1051254002377,None,1,3.0237059998326004,1203.1051254002377,None,1206.1643534000032,None,1206.6691986001097,None,1206.6691986001097,None,n,1.147590400185436,1206.6691986001097,None,,,NC 26,001,2021_Nov_15_1419,ProdSingRedo,3.2.3,59.944311798791546,
,,,,6,0,6,0,,,,,,,,,,,,,,,,,,,,,,,,1214.475792599842,None,,,,,,,,,,,,,,,,,answer,sing,white,6,19,8,1208.3778388998471,None,1208.3778388998471,None,3,4.654983999673277,1208.3778388998471,None,1213.0740589001216,None,1213.5978362997994,None,1213.5978362997994,None,f,0.8430894003249705,1213.5978362997994,None,,,NC 26,001,2021_Nov_15_1419,ProdSingRedo,3.2.3,59.944311798791546,
,,,,7,0,7,0,,,,,,,,,,,,,,,,,,,,,,,,1219.2137792999856,None,,,,,,,,,,,,,,,,,incident,sing,white,7,6,158,1214.9986640000716,None,1214.9986640000716,None,6,2.658152099698782,1214.9986640000716,None,1217.6917592999525,None,1218.211792500224,None,1218.211792500224,None,r,0.9651565002277493,1218.211792500224,None,,,NC 26,001,2021_Nov_15_1419,ProdSingRedo,3.2.3,59.944311798791546,
,,,,8,0,8,0,,,,,,,,,,,,,,,,,,,,,,,,1223.6367584001273,None,,,,,,,,,,,,,,,,,contract,silent,white,8,82,68,1219.7390475999564,None,1219.7390475999564,None,5,2.9339248999021947,1219.7390475999564,None,1222.7133527002297,None,1223.2404081001878,None,1223.2404081001878,None,f,0.36860920023173094,1223.2404081001878,None,,,NC 26,001,2021_Nov_15_1419,ProdSingRedo,3.2.3,59.944311798791546,
,,,,9,0,9,0,,,,,,,,,,,,,,,,,,,,,,,,1227.3725478998385,None,,,,,,,,,,,,,,,,,minor,new_a,white,9,110,191,1224.1612241999246,None,1224.1612241999246,None,1,1.6318147997371852,1224.1612241999246,None,1225.8307038000785,None,1226.3389113000594,None,1226.3389113000594,None,n,1.0065201995894313,1226.3389113000594,None,,,NC 26,001,2021_Nov_15_1419,ProdSingRedo,3.2.3,59.944311798791546,
,,,,10,0,10,0,,,,,,,,,,,,,,,,,,,,,,,,1231.502285799943,None,,,,,,,,,,,,,,,,,spoke,new_b,white,10,134,300,1227.901794299949,None,1227.901794299949,None,1,1.9470628001727164,1227.901794299949,None,1229.8921044999734,None,1230.4096607998945,None,1230.4096607998945,None,n,1.0708949998952448,1230.4096607998945,None,,,NC 26,001,2021_Nov_15_1419,ProdSingRedo,3.2.3,59.944311798791546,
,,,,11,0,11,0,,,,,,,,,,,,,,,,,,,,,,,,1241.1579335001297,None,,,,,,,,,,,,,,,,,attack,silent,white,11,78,13,1232.0313213001937,None,1232.0313213001937,None,4,7.649627499748021,1232.0313213001937,None,1239.7379314000718,None,1240.259507900104,None,1240.259507900104,None,f,0.8692961996421218,1240.259507900104,None,,,NC 26,001,2021_Nov_15_1419,ProdSingRedo,3.2.3,59.944311798791546,
,,,,12,0,12,0,,,,,,,,,,,,,,,,,,,,,,,,1246.0002556000836,None,,,,,,,,,,,,,,,,,corner,new_b,white,12,139,69,1241.6750487000681,None,1241.6750487000681,None,1,2.8698071003891528,1241.6750487000681,None,1244.59145539999,None,1245.114026799798,None,1245.114026799798,None,n,0.8544840002432466,1245.114026799798,None,,,NC 26,001,2021_Nov_15_1419,ProdSingRedo,3.2.3,59.944311798791546,
,,,,13,0,13,0,,,,,,,,,,,,,,,,,,,,,,,,1252.2465360998176,None,,,,,,,,,,,,,,,,,listen,sing,white,13,8,172,1246.5158637999557,None,1246.5158637999557,None,3,4.4048993000760674,1246.5158637999557,None,1250.9574453001842,None,1251.4770092000253,None,1251.4770092000253,None,f,0.7399363997392356,1251.4770092000253,None,,,NC 26,001,2021_Nov_15_1419,ProdSingRedo,3.2.3,59.944311798791546,
,,,,14,0,14,0,,,,,,,,,,,,,,,,,,,,,,,,1256.6669899998233,None,,,,,,,,,,,,,,,,,drove,aloud,white,14,39,106,1252.7712516998872,None,1252.7712516998872,None,6,2.4936925997026265,1252.7712516998872,None,1255.3134682998061,None,1255.8208777001128,None,1255.8208777001128,None,r,0.8121047001332045,1255.8208777001128,None,,,NC 26,001,2021_Nov_15_1419,ProdSingRedo,3.2.3,59.944311798791546,
,,,,15,0,15,0,,,,,,,,,,,,,,,,,,,,,,,,1262.4577864999883,None,,,,,,,,,,,,,,,,,blind,aloud,white,15,44,24,1257.1914157001302,None,1257.1914157001302,None,4,3.617091199848801,1257.1914157001302,None,1260.8382811998017,None,1261.348872399889,None,1261.348872399889,None,f,1.0760992001742125,1261.348872399889,None,,,NC 26,001,2021_Nov_15_1419,ProdSingRedo,3.2.3,59.944311798791546,
,,,,16,0,16,0,,,,,,,,,,,,,,,,,,,,,,,,1268.6138936001807,None,,,,,,,,,,,,,,,,,surprise,new_c,white,16,159,317,1262.9895990998484,None,1262.9895990998484,None,3,4.715234799776226,1262.9895990998484,None,1267.7415959001519,None,1268.2484061000869,None,1268.2484061000869,None,f,0.33670330001041293,1268.2484061000869,None,,,NC 26,001,2021_Nov_15_1419,ProdSingRedo,3.2.3,59.944311798791546,
,,,,17,0,17,0,,,,,,,,,,,,,,,,,,,,,,,,1276.7210564999841,None,,,,,,,,,,,,,,,,,skill,new_a,white,17,115,289,1269.138878799975,None,1269.138878799975,None,2,6.006109300069511,1269.138878799975,None,1275.1848971000873,None,1275.7049557999708,None,1275.7049557999708,None,n,0.9919404997490346,1275.7049557999708,None,,,NC 26,001,2021_Nov_15_1419,ProdSingRedo,3.2.3,59.944311798791546,
,,,,18,0,18,0,,,,,,,,,,,,,,,,,,,,,,,,1285.2295575002208,None,,,,,,,,,,,,,,,,,crowd,silent,white,18,66,81,1277.2479889998212,None,1277.2479889998212,None,1,6.68095859978348,1277.2479889998212,None,1283.9726860998198,None,1284.4811638002284,None,1284.4811638002284,None,n,0.7198573998175561,1284.4811638002284,None,,,NC 26,001,2021_Nov_15_1419,ProdSingRedo,3.2.3,59.944311798791546,
,,,,19,0,19,0,,,,,,,,,,,,,,,,,,,,,,,,1288.299441399984,None,,,,,,,,,,,,,,,,,beauty,aloud,white,19,36,18,1285.7612069002353,None,1285.7612069002353,None,6,1.6397710996679962,1285.7612069002353,None,1287.4508588998578,None,1287.9706712001935,None,1287.9706712001935,None,r,0.30234079994261265,1287.9706712001935,None,,,NC 26,001,2021_Nov_15_1419,ProdSingRedo,3.2.3,59.944311798791546,
,,,,20,0,20,0,,,,,,,,,,,,,,,,,,,,,,,,1291.2620937000029,None,,,,,,,,,,,,,,,,,goose,new_b,white,20,122,138,1288.8262022999115,None,1288.8262022999115,None,1,1.526668599806726,1288.8262022999115,None,1290.3946773000062,None,1290.8950152001344,None,1290.8950152001344,None,n,0.34560290025547147,1290.8950152001344,None,,,NC 26,001,2021_Nov_15_1419,ProdSingRedo,3.2.3,59.944311798791546,
,,,,21,0,21,0,,,,,,,,,,,,,,,,,,,,,,,,1297.1093633002602,None,,,,,,,,,,,,,,,,,raise,new_a,white,21,112,250,1291.779149999842,None,1291.779149999842,None,1,4.301861800253391,1291.779149999842,None,1296.1219496000558,None,1296.642416200135,None,1296.642416200135,None,n,0.43861429998651147,1296.642416200135,None,,,NC 26,001,2021_Nov_15_1419,ProdSingRedo,3.2.3,59.944311798791546,
,,,,22,0,22,0,,,,,,,,,,,,,,,,,,,,,,,,1302.3308464000002,None,,,,,,,,,,,,,,,,,estate,aloud,white,22,53,119,1297.6310339001939,None,1297.6310339001939,None,3,2.8898565000854433,1297.6310339001939,None,1300.558246999979,None,1301.0646009999327,None,1301.0646009999327,None,f,1.232466499786824,1301.0646009999327,None,,,NC 26,001,2021_Nov_15_1419,ProdSingRedo,3.2.3,59.944311798791546,
,,,,23,0,23,0,,,,,,,,,,,,,,,,,,,,,,,,1305.2994778999127,None,,,,,,,,,,,,,,,,,career,new_b,white,23,141,42,1302.856643400155,None,1302.856643400155,None,1,1.5203546001575887,1302.856643400155,None,1304.41518120002,None,1304.9377939002588,None,1304.9377939002588,None,n,0.33527159970253706,1304.9377939002588,None,,,NC 26,001,2021_Nov_15_1419,ProdSingRedo,3.2.3,59.944311798791546,
,,,,24,0,24,0,,,,,,,,,,,,,,,,,,,,,,,,1314.5280324998312,None,,,,,,,,,,,,,,,,,power,new_b,white,24,135,230,1305.829129899852,None,1305.829129899852,None,1,7.635939999949187,1305.829129899852,None,1313.5107805998996,None,1314.0286988001317,None,1314.0286988001317,None,n,0.4683354003354907,1314.0286988001317,None,,,NC 26,001,2021_Nov_15_1419,ProdSingRedo,3.2.3,59.944311798791546,
,,,,25,0,25,0,,,,,,,,,,,,,,,,,,,,,,,,1324.9348332998343,None,,,,,,,,,,,,,,,,,colonel,silent,white,25,79,55,1315.0485093998723,None,1315.0485093998723,None,3,9.032477600034326,1315.0485093998723,None,1324.1299368999898,None,1324.6365249999799,None,1324.6365249999799,None,f,0.268219199962914,1324.6365249999799,None,,,NC 26,001,2021_Nov_15_1419,ProdSingRedo,3.2.3,59.944311798791546,
,,,,26,0,26,0,,,,,,,,,,,,,,,,,,,,,,,,1328.5246152002364,None,,,,,,,,,,,,,,,,,rough,aloud,white,26,45,266,1325.4584619998932,None,1325.4584619998932,None,5,1.7506053997203708,1325.4584619998932,None,1327.2549749999307,None,1327.7747288001701,None,1327.7747288001701,None,f,0.7143256003037095,1327.7747288001701,None,,,NC 26,001,2021_Nov_15_1419,ProdSingRedo,3.2.3,59.944311798791546,
,,,,27,0,27,0,,,,,,,,,,,,,,,,,,,,,,,,1334.978741100058,None,,,,,,,,,,,,,,,,,committee,aloud,white,27,34,62,1329.0476981000975,None,1329.0476981000975,None,2,4.785222699865699,1329.0476981000975,None,1333.8744052001275,None,1334.3946104999632,None,1334.3946104999632,None,n,0.5503158997744322,1334.3946104999632,None,,,NC 26,001,2021_Nov_15_1419,ProdSingRedo,3.2.3,59.944311798791546,
,,,,28,0,28,0,,,,,,,,,,,,,,,,,,,,,,,,1338.9829229000024,None,,,,,,,,,,,,,,,,,appearance,aloud,white,28,32,10,1335.5090720998123,None,1335.5090720998123,None,6,2.8360573002137244,1335.5090720998123,None,1338.3973155999556,None,1338.9245409001596,None,1338.9245409001596,None,r,0.028398199938237667,1338.9245409001596,None,,,NC 26,001,2021_Nov_15_1419,ProdSingRedo,3.2.3,59.944311798791546,
,,,,29,0,29,0,,,,,,,,,,,,,,,,,,,,,,,,1341.8705115001649,None,,,,,,,,,,,,,,,,,weather,new_a,white,29,99,352,1339.5054835001938,None,1339.5054835001938,None,1,1.455438300035894,1339.5054835001938,None,1341.005481199827,None,1341.5231759999879,None,1341.5231759999879,None,n,0.31789870001375675,1341.5231759999879,None,,,NC 26,001,2021_Nov_15_1419,ProdSingRedo,3.2.3,59.944311798791546,
,,,,30,0,30,0,,,,,,,,,,,,,,,,,,,,,,,,1344.7721754000522,None,,,,,,,,,,,,,,,,,quiet,aloud,white,30,46,249,1342.398097500205,None,1342.398097500205,None,6,1.5389593001455069,1342.398097500205,None,1343.9873965000734,None,1344.5085801999085,None,1344.5085801999085,None,r,0.22851039981469512,1344.5085801999085,None,,,NC 26,001,2021_Nov_15_1419,ProdSingRedo,3.2.3,59.944311798791546,
,,,,31,0,31,0,,,,,,,,,,,,,,,,,,,,,,,,1350.3447386999615,None,,,,,,,,,,,,,,,,,notice,sing,white,31,7,201,1345.2954402002506,None,1345.2954402002506,None,4,3.6419764002785087,1345.2954402002506,None,1348.971009099856,None,1349.4773729001172,None,1349.4773729001172,None,f,0.835608399938792,1349.4773729001172,None,,,NC 26,001,2021_Nov_15_1419,ProdSingRedo,3.2.3,59.944311798791546,
,,,,32,0,32,0,,,,,,,,,,,,,,,,,,,,,,,,1357.3526555001736,None,,,,,,,,,,,,,,,,,quick,sing,white,32,16,248,1350.8632362000644,None,1350.8632362000644,None,2,4.19392290012911,1350.8632362000644,None,1355.100665499922,None,1355.6208128998987,None,1355.6208128998987,None,f,1.7001936002634466,1355.6208128998987,None,,,NC 26,001,2021_Nov_15_1419,ProdSingRedo,3.2.3,59.944311798791546,
,,,,33,0,33,0,,,,,,,,,,,,,,,,,,,,,,,,1360.9051391999237,None,,,,,,,,,,,,,,,,,detective,aloud,white,33,52,92,1357.8835248001851,None,1357.8835248001851,None,6,1.5497506000101566,1357.8835248001851,None,1359.483031600248,None,1360.008631600067,None,1360.008631600067,None,r,0.8722743997350335,1360.008631600067,None,,,NC 26,001,2021_Nov_15_1419,ProdSingRedo,3.2.3,59.944311798791546,
,,,,34,0,34,0,,,,,,,,,,,,,,,,,,,,,,,,1364.2424205001444,None,,,,,,,,,,,,,,,,,enemy,silent,white,34,60,113,1361.4281385000795,None,1361.4281385000795,None,1,1.9169105999171734,1361.4281385000795,None,1363.3881596000865,None,1363.9089742000215,None,1363.9089742000215,None,n,0.30804039957001805,1363.9089742000215,None,,,NC 26,001,2021_Nov_15_1419,ProdSingRedo,3.2.3,59.944311798791546,
,,,,35,0,35,0,,,,,,,,,,,,,,,,,,,,,,,,1367.6963440999389,None,,,,,,,,,,,,,,,,,trial,new_b,white,35,133,341,1364.7686797999777,None,1364.7686797999777,None,1,2.0563127999193966,1364.7686797999777,None,1366.8754638000391,None,1367.397674200125,None,1367.397674200125,None,n,0.2752715996466577,1367.397674200125,None,,,NC 26,001,2021_Nov_15_1419,ProdSingRedo,3.2.3,59.944311798791546,
,,,,36,0,36,0,,,,,,,,,,,,,,,,,,,,,,,,1371.443259799853,None,,,,,,,,,,,,,,,,,second,silent,white,36,74,278,1368.2192756999284,None,1368.2192756999284,None,1,2.4373640003614128,1368.2192756999284,None,1370.6747885001823,None,1371.1861944999546,None,1371.1861944999546,None,n,0.23847300000488758,1371.1861944999546,None,,,NC 26,001,2021_Nov_15_1419,ProdSingRedo,3.2.3,59.944311798791546,
,,,,37,0,37,0,,,,,,,,,,,,,,,,,,,,,,,,1374.9028215999715,None,,,,,,,,,,,,,,,,,right,new_c,white,37,179,265,1371.947125500068,None,1371.947125500068,None,1,2.0779762999154627,1371.947125500068,None,1374.067613599822,None,1374.5880696000531,None,1374.5880696000531,None,n,0.2850354998372495,1374.5880696000531,None,,,NC 26,001,2021_Nov_15_1419,ProdSingRedo,3.2.3,59.944311798791546,
,,,,38,0,38,0,,,,,,,,,,,,,,,,,,,,,,,,1377.6894680000842,None,,,,,,,,,,,,,,,,,produce,aloud,white,38,37,239,1375.4293088000268,None,1375.4293088000268,None,6,1.4275971003808081,1375.4293088000268,None,1376.9034882998094,None,1377.408677100204,None,1377.408677100204,None,r,0.2562790000811219,1377.408677100204,None,,,NC 26,001,2021_Nov_15_1419,ProdSingRedo,3.2.3,59.944311798791546,
,,,,39,0,39,0,,,,,,,,,,,,,,,,,,,,,,,,1384.3471222999506,None,,,,,,,,,,,,,,,,,finish,new_b,white,39,137,130,1378.214638700243,None,1378.214638700243,None,2,5.210347400046885,1378.214638700243,None,1383.4738234998658,None,1383.9801103002392,None,1383.9801103002392,None,n,0.3328688000328839,1383.9801103002392,None,,,NC 26,001,2021_Nov_15_1419,ProdSingRedo,3.2.3,59.944311798791546,
,,,,40,0,40,0,,,,,,,,,,,,,,,,,,,,,,,,1387.798985000234,None,,,,,,,,,,,,,,,,,search,aloud,white,40,59,276,1384.8722399999388,None,1384.8722399999388,None,1,1.928867899812758,1384.8722399999388,None,1386.8478753999807,None,1387.36827909993,None,1387.36827909993,None,n,0.3929965002462268,1387.36827909993,None,,,NC 26,001,2021_Nov_15_1419,ProdSingRedo,3.2.3,59.944311798791546,
,,,,41,0,41,0,,,,,,,,,,,,,,,,,,,,,,,,1394.2565739001147,None,,,,,,,,,,,,,,,,,service,new_c,white,41,156,280,1388.3277529999614,None,1388.3277529999614,None,3,3.9214373999275267,1388.3277529999614,None,1392.3026312999427,None,1392.8259903998114,None,1392.8259903998114,None,f,1.3992803003638983,1392.8259903998114,None,,,NC 26,001,2021_Nov_15_1419,ProdSingRedo,3.2.3,59.944311798791546,
,,,,42,0,42,0,,,,,,,,,,,,,,,,,,,,,,,,1402.8306171000004,None,,,,,,,,,,,,,,,,,worker,silent,white,42,85,356,1394.785241600126,None,1394.785241600126,None,2,4.632014099974185,1394.785241600126,None,1399.4629605999216,None,1399.9825063999742,None,1399.9825063999742,None,f,2.810688199941069,1399.9825063999742,None,,,NC 26,001,2021_Nov_15_1419,ProdSingRedo,3.2.3,59.944311798791546,
,,,,43,0,43,0,,,,,,,,,,,,,,,,,,,,,,,,1406.0336728999391,None,,,,,,,,,,,,,,,,,partner,new_c,white,43,168,211,1403.3581865997985,None,1403.3581865997985,None,5,1.8269675998017192,1403.3581865997985,None,1405.2309643002227,None,1405.7525785998441,None,1405.7525785998441,None,f,0.24849050026386976,1405.7525785998441,None,,,NC 26,001,2021_Nov_15_1419,ProdSingRedo,3.2.3,59.944311798791546,
,,,,44,0,44,0,,,,,,,,,,,,,,,,,,,,,,,,1410.5980020998977,None,,,,,,,,,,,,,,,,,express,new_a,white,44,117,124,1406.553028699942,None,1406.553028699942,None,1,3.4240244003012776,1406.553028699942,None,1410.0164255001582,None,1410.536949899979,None,1410.536949899979,None,n,0.031925799790769815,1410.536949899979,None,,,NC 26,001,2021_Nov_15_1419,ProdSingRedo,3.2.3,59.944311798791546,
,,,,45,0,45,0,,,,,,,,,,,,,,,,,,,,,,,,1413.2913923999295,None,,,,,,,,,,,,,,,,,comedy,silent,white,45,68,58,1411.0989001002163,None,1411.0989001002163,None,1,1.3100850000046194,1411.0989001002163,None,1412.4538417002186,None,1412.958821900189,None,1412.958821900189,None,n,0.3063110001385212,1412.958821900189,None,,,NC 26,001,2021_Nov_15_1419,ProdSingRedo,3.2.3,59.944311798791546,
,,,,46,0,46,0,,,,,,,,,,,,,,,,,,,,,,,,1416.561480899807,None,,,,,,,,,,,,,,,,,quantity,aloud,white,46,42,245,1413.8170576002449,None,1413.8170576002449,None,6,1.9280463000759482,1413.8170576002449,None,1415.8008472002111,None,1416.3160890000872,None,1416.3160890000872,None,r,0.2129973997361958,1416.3160890000872,None,,,NC 26,001,2021_Nov_15_1419,ProdSingRedo,3.2.3,59.944311798791546,
,,,,47,0,47,0,,,,,,,,,,,,,,,,,,,,,,,,1419.4474531998858,None,,,,,,,,,,,,,,,,,stranger,sing,white,47,3,309,1417.0862520001829,None,1417.0862520001829,None,6,1.5547417998313904,1417.0862520001829,None,1418.6829431001097,None,1419.207009300124,None,1419.207009300124,None,r,0.20205889968201518,1419.207009300124,None,,,NC 26,001,2021_Nov_15_1419,ProdSingRedo,3.2.3,59.944311798791546,
,,,,48,0,48,0,,,,,,,,,,,,,,,,,,,,,,,,1423.3009266001172,None,,,,,,,,,,,,,,,,,majority,aloud,white,48,40,176,1419.9793059998192,None,1419.9793059998192,None,1,2.4296002998016775,1419.9793059998192,None,1422.4525439999998,None,1422.9742661998607,None,1422.9742661998607,None,n,0.29884850000962615,1422.9742661998607,None,,,NC 26,001,2021_Nov_15_1419,ProdSingRedo,3.2.3,59.944311798791546,
,,,,49,0,49,0,,,,,,,,,,,,,,,,,,,,,,,,1426.0880384999327,None,,,,,,,,,,,,,,,,,mankind,aloud,white,49,55,178,1423.8300137999468,None,1423.8300137999468,None,6,1.4190485002472997,1423.8300137999468,None,1425.3056155000813,None,1425.8271069000475,None,1425.8271069000475,None,r,0.23795450013130903,1425.8271069000475,None,,,NC 26,001,2021_Nov_15_1419,ProdSingRedo,3.2.3,59.944311798791546,
,,,,50,0,50,0,,,,,,,,,,,,,,,,,,,,,,,,1429.4416248998605,None,,,,,,,,,,,,,,,,,strain,aloud,white,50,35,308,1426.6137860999443,None,1426.6137860999443,None,1,1.9712387002073228,1426.6137860999443,None,1428.6322333998978,None,1429.1456726999022,None,1429.1456726999022,None,n,0.2633564001880586,1429.1456726999022,None,,,NC 26,001,2021_Nov_15_1419,ProdSingRedo,3.2.3,59.944311798791546,
,,,,51,0,51,0,,,,,,,,,,,,,,,,,,,,,,,,1435.0724884001538,None,,,,,,,,,,,,,,,,,division,silent,white,51,63,101,1429.968189300038,None,1429.968189300038,None,3,3.696899500209838,1429.968189300038,None,1433.7060409002006,None,1434.20494830003,None,1434.20494830003,None,f,0.8519406002014875,1434.20494830003,None,,,NC 26,001,2021_Nov_15_1419,ProdSingRedo,3.2.3,59.944311798791546,
,,,,52,0,52,0,,,,,,,,,,,,,,,,,,,,,,,,1439.3656545998529,None,,,,,,,,,,,,,,,,,travel,new_a,white,52,103,338,1435.5894981999882,None,1435.5894981999882,None,3,2.763623900245875,1435.5894981999882,None,1438.3982998998836,None,1438.9184993002564,None,1438.9184993002564,None,f,0.4267326998524368,1438.9184993002564,None,,,NC 26,001,2021_Nov_15_1419,ProdSingRedo,3.2.3,59.944311798791546,
,,,,53,0,53,0,,,,,,,,,,,,,,,,,,,,,,,,1444.905798799824,None,,,,,,,,,,,,,,,,,broke,new_b,white,53,148,32,1439.8929046001285,None,1439.8929046001285,None,1,4.340401200111955,1439.8929046001285,None,1444.2721003000624,None,1444.7938252999447,None,1444.7938252999447,None,n,0.07919370010495186,1444.7938252999447,None,,,NC 26,001,2021_Nov_15_1419,ProdSingRedo,3.2.3,59.944311798791546,
,,,,54,0,54,0,,,,,,,,,,,,,,,,,,,,,,,,1449.84410390025,None,,,,,,,,,,,,,,,,,direction,new_b,white,54,124,94,1445.4289549002424,None,1445.4289549002424,None,3,3.564341399818659,1445.4289549002424,None,1449.0363203999586,None,1449.5458299000748,None,1449.5458299000748,None,f,0.27130639972165227,1449.5458299000748,None,,,NC 26,001,2021_Nov_15_1419,ProdSingRedo,3.2.3,59.944311798791546,
,,,,55,0,55,0,,,,,,,,,,,,,,,,,,,,,,,,1452.8647825000808,None,,,,,,,,,,,,,,,,,plane,new_c,white,55,150,223,1450.3679344002157,None,1450.3679344002157,None,1,1.7210098002105951,1450.3679344002157,None,1452.127643799875,None,1452.6495687002316,None,1452.6495687002316,None,n,0.19198330026119947,1452.6495687002316,None,,,NC 26,001,2021_Nov_15_1419,ProdSingRedo,3.2.3,59.944311798791546,
,,,,56,0,56,0,,,,,,,,,,,,,,,,,,,,,,,,1457.2182835000567,None,,,,,,,,,,,,,,,,,public,sing,white,56,28,244,1453.3936052001081,None,1453.3936052001081,None,5,2.9753779997117817,1453.3936052001081,None,1456.4015394998714,None,1456.9206297001801,None,1456.9206297001801,None,f,0.26464950013905764,1456.9206297001801,None,,,NC 26,001,2021_Nov_15_1419,ProdSingRedo,3.2.3,59.944311798791546,
,,,,57,0,57,0,,,,,,,,,,,,,,,,,,,,,,,,1465.9610749999993,None,,,,,,,,,,,,,,,,,display,silent,white,57,76,98,1457.7479155999608,None,1457.7479155999608,None,3,7.501208400353789,1457.7479155999608,None,1465.2913049999624,None,1465.8141315001994,None,1465.8141315001994,None,f,0.12325590010732412,1465.8141315001994,None,,,NC 26,001,2021_Nov_15_1419,ProdSingRedo,3.2.3,59.944311798791546,
,,,,58,0,58,0,,,,,,,,,,,,,,,,,,,,,,,,1470.7543355999514,None,,,,,,,,,,,,,,,,,dream,sing,white,58,25,104,1466.4857671000063,None,1466.4857671000063,None,6,1.5713369003497064,1466.4857671000063,None,1468.0966843999922,None,1468.6143804001622,None,1468.6143804001622,None,f,2.1068303999491036,1468.6143804001622,None,,,NC 26,001,2021_Nov_15_1419,ProdSingRedo,3.2.3,59.944311798791546,
,,,,59,0,59,0,,,,,,,,,,,,,,,,,,,,,,,,1473.570050000213,None,,,,,,,,,,,,,,,,,voice,sing,white,59,18,348,1471.2592989001423,None,1471.2592989001423,None,6,1.6779769002459943,1471.2592989001423,None,1472.9833427001722,None,1473.5038004000671,None,1473.5038004000671,None,r,0.033233100082725286,1473.5038004000671,None,,,NC 26,001,2021_Nov_15_1419,ProdSingRedo,3.2.3,59.944311798791546,
,,,,60,0,60,0,,,,,,,,,,,,,,,,,,,,,,,,1476.7869795002043,None,,,,,,,,,,,,,,,,,match,sing,white,60,22,181,1474.0947360000573,None,1474.0947360000573,None,4,2.0343240001238883,1474.0947360000573,None,1476.1691799000837,None,1476.6942476001568,None,1476.6942476001568,None,f,0.05871660029515624,1476.6942476001568,None,,,NC 26,001,2021_Nov_15_1419,ProdSingRedo,3.2.3,59.944311798791546,
,,,,61,0,61,0,,,,,,,,,,,,,,,,,,,,,,,,1479.2400442999788,None,,,,,,,,,,,,,,,,,drama,sing,white,61,14,103,1477.3134051002562,None,1477.3134051002562,None,6,1.2796529000625014,1477.3134051002562,None,1478.6371122999117,None,1479.1439904002473,None,1479.1439904002473,None,r,0.06508939992636442,1479.1439904002473,None,,,NC 26,001,2021_Nov_15_1419,ProdSingRedo,3.2.3,59.944311798791546,
,,,,62,0,62,0,,,,,,,,,,,,,,,,,,,,,,,,1487.3480460001156,None,,,,,,,,,,,,,,,,,straight,new_b,white,62,129,307,1479.7723942999728,None,1479.7723942999728,None,1,5.092763500288129,1479.7723942999728,None,1484.9153803000227,None,1485.4470310001634,None,1485.4470310001634,None,n,1.866130799986422,1485.4470310001634,None,,,NC 26,001,2021_Nov_15_1419,ProdSingRedo,3.2.3,59.944311798791546,
,,,,63,0,63,0,,,,,,,,,,,,,,,,,,,,,,,,1490.38509840006,None,,,,,,,,,,,,,,,,,track,sing,white,63,12,334,1487.877206900157,None,1487.877206900157,None,6,1.7318812999874353,1487.877206900157,None,1489.6500899000093,None,1490.1730916001834,None,1490.1730916001834,None,r,0.1879059001803398,1490.1730916001834,None,,,NC 26,001,2021_Nov_15_1419,ProdSingRedo,3.2.3,59.944311798791546,
,,,,64,0,64,0,,,,,,,,,,,,,,,,,,,,,,,,1495.489758099895,None,,,,,,,,,,,,,,,,,alert,new_b,white,64,130,6,1490.9100913000293,None,1490.9100913000293,None,2,3.8830308001488447,1490.9100913000293,None,1494.8378196000122,None,1495.3577156998217,None,1495.3577156998217,None,n,0.1073896000161767,1495.3577156998217,None,,,NC 26,001,2021_Nov_15_1419,ProdSingRedo,3.2.3,59.944311798791546,
,,,,65,0,65,0,,,,,,,,,,,,,,,,,,,,,,,,1501.5724125998095,None,,,,,,,,,,,,,,,,,silence,silent,white,65,88,288,1496.0106072998606,None,1496.0106072998606,None,5,4.814070499967784,1496.0106072998606,None,1500.8623832999729,None,1501.3721243999898,None,1501.3721243999898,None,f,0.18061150005087256,1501.3721243999898,None,,,NC 26,001,2021_Nov_15_1419,ProdSingRedo,3.2.3,59.944311798791546,
,,,,66,0,66,0,,,,,,,,,,,,,,,,,,,,,,,,1507.8071047998965,None,,,,,,,,,,,,,,,,,build,new_a,white,66,116,35,1502.0893446002156,None,1502.0893446002156,None,1,3.351893600076437,1502.0893446002156,None,1505.4841244998388,None,1506.0027658999898,None,1506.0027658999898,None,n,1.7662927000783384,1506.0027658999898,None,,,NC 26,001,2021_Nov_15_1419,ProdSingRedo,3.2.3,59.944311798791546,
,,,,67,0,67,0,,,,,,,,,,,,,,,,,,,,,,,,1510.7886772002093,None,,,,,,,,,,,,,,,,,region,new_b,white,67,136,256,1508.3312174999155,None,1508.3312174999155,None,1,1.5578565001487732,1508.3312174999155,None,1509.932688199915,None,1510.4571814998053,None,1510.4571814998053,None,n,0.2959945001639426,1510.4571814998053,None,,,NC 26,001,2021_Nov_15_1419,ProdSingRedo,3.2.3,59.944311798791546,
,,,,68,0,68,0,,,,,,,,,,,,,,,,,,,,,,,,1513.4587340001017,None,,,,,,,,,,,,,,,,,suggestion,sing,white,68,26,314,1511.3148421999067,None,1511.3148421999067,None,6,1.430292199831456,1511.3148421999067,None,1512.7857180000283,None,1513.317399499938,None,1513.317399499938,None,r,0.11567050032317638,1513.317399499938,None,,,NC 26,001,2021_Nov_15_1419,ProdSingRedo,3.2.3,59.944311798791546,
,,,,69,0,69,0,,,,,,,,,,,,,,,,,,,,,,,,1519.4974036002532,None,,,,,,,,,,,,,,,,,south,silent,white,69,62,296,1513.9845401002094,None,1513.9845401002094,None,2,4.7045133002102375,1513.9845401002094,None,1518.732398299966,None,1519.248359600082,None,1519.248359600082,None,n,0.21675030002370477,1519.248359600082,None,,,NC 26,001,2021_Nov_15_1419,ProdSingRedo,3.2.3,59.944311798791546,
,,,,70,0,70,0,,,,,,,,,,,,,,,,,,,,,,,,1522.7668810002506,None,,,,,,,,,,,,,,,,,childhood,silent,white,70,83,49,1520.0206194999628,None,1520.0206194999628,None,1,1.948501800186932,1520.0206194999628,None,1522.0167013001628,None,1522.5336571000516,None,1522.5336571000516,None,n,0.2035317998379469,1522.5336571000516,None,,,NC 26,001,2021_Nov_15_1419,ProdSingRedo,3.2.3,59.944311798791546,
,,,,71,0,71,0,,,,,,,,,,,,,,,,,,,,,,,,1528.0376979000866,None,,,,,,,,,,,,,,,,,budget,aloud,white,71,51,34,1523.294248700142,None,1523.294248700142,None,4,3.8028004998341203,1523.294248700142,None,1527.1418733000755,None,1527.6596650998108,None,1527.6596650998108,None,f,0.34948379965499043,1527.6596650998108,None,,,NC 26,001,2021_Nov_15_1419,ProdSingRedo,3.2.3,59.944311798791546,
,,,,72,0,72,0,,,,,,,,,,,,,,,,,,,,,,,,1532.1930109998211,None,,,,,,,,,,,,,,,,,agency,sing,white,72,1,4,1528.5621178001165,None,1528.5621178001165,None,5,2.726757299620658,1528.5621178001165,None,1531.320199499838,None,1531.8294016001746,None,1531.8294016001746,None,f,0.3396761999465525,1531.8294016001746,None,,,NC 26,001,2021_Nov_15_1419,ProdSingRedo,3.2.3,59.944311798791546,
,,,,73,0,73,0,,,,,,,,,,,,,,,,,,,,,,,,1539.9194118999876,None,,,,,,,,,,,,,,,,,court,new_a,white,73,94,75,1532.716695100069,None,1532.716695100069,None,5,5.796402200125158,1532.716695100069,None,1538.5644368999638,None,1539.0858435002156,None,1539.0858435002156,None,f,0.8033140003681183,1539.0858435002156,None,,,NC 26,001,2021_Nov_15_1419,ProdSingRedo,3.2.3,59.944311798791546,
,,,,74,0,74,0,,,,,,,,,,,,,,,,,,,,,,,,1547.658392299898,None,,,,,,,,,,,,,,,,,guard,new_b,white,74,131,145,1540.4414933002554,None,1540.4414933002554,None,2,5.495778700336814,1540.4414933002554,None,1545.9909475999884,None,1546.4914767001756,None,1546.4914767001756,None,n,1.1417688000947237,1546.4914767001756,None,,,NC 26,001,2021_Nov_15_1419,ProdSingRedo,3.2.3,59.944311798791546,
,,,,75,0,75,0,,,,,,,,,,,,,,,,,,,,,,,,1550.9717204999179,None,,,,,,,,,,,,,,,,,heavy,silent,white,75,77,151,1548.1845618002117,None,1548.1845618002117,None,1,2.184762999881059,1548.1845618002117,None,1550.4063888001256,None,1550.931811099872,None,1550.931811099872,None,n,0.013114800211042166,1550.931811099872,None,,,NC 26,001,2021_Nov_15_1419,ProdSingRedo,3.2.3,59.944311798791546,
,,,,76,0,76,0,,,,,,,,,,,,,,,,,,,,,,,,1556.6335205999203,None,,,,,,,,,,,,,,,,,resistance,new_c,white,76,170,262,1551.4918558998033,None,1551.4918558998033,None,1,3.7892456999979913,1551.4918558998033,None,1555.3284939001314,None,1555.8557044002227,None,1555.8557044002227,None,n,0.7456459999084473,1555.8557044002227,None,,,NC 26,001,2021_Nov_15_1419,ProdSingRedo,3.2.3,59.944311798791546,
,,,,77,0,77,0,,,,,,,,,,,,,,,,,,,,,,,,1561.6488268999383,None,,,,,,,,,,,,,,,,,throw,aloud,white,77,56,330,1557.1592852999456,None,1557.1592852999456,None,1,2.7938342997804284,1557.1592852999456,None,1559.999206200242,None,1560.5228249002248,None,1560.5228249002248,None,n,1.101948999799788,1560.5228249002248,None,,,NC 26,001,2021_Nov_15_1419,ProdSingRedo,3.2.3,59.944311798791546,
,,,,78,0,78,0,,,,,,,,,,,,,,,,,,,,,,,,1564.3737042001449,None,,,,,,,,,,,,,,,,,minute,silent,white,78,70,192,1562.1498254002072,None,1562.1498254002072,None,6,1.4994051000103354,1562.1498254002072,None,1563.680690600071,None,1564.1886247000657,None,1564.1886247000657,None,f,0.16444880003109574,1564.1886247000657,None,,,NC 26,001,2021_Nov_15_1419,ProdSingRedo,3.2.3,59.944311798791546,
,,,,79,0,79,0,,,,,,,,,,,,,,,,,,,,,,,,1567.2957199001685,None,,,,,,,,,,,,,,,,,motion,new_b,white,79,120,194,1564.8952194000594,None,1564.8952194000594,None,1,1.7060113004408777,1564.8952194000594,None,1566.6367345000617,None,1567.1454642000608,None,1567.1454642000608,None,n,0.1276351003907621,1567.1454642000608,None,,,NC 26,001,2021_Nov_15_1419,ProdSingRedo,3.2.3,59.944311798791546,
,,,,80,0,80,0,,,,,,,,,,,,,,,,,,,,,,,,1570.7143172998913,None,,,,,,,,,,,,,,,,,discovery,sing,white,80,20,95,1567.8243531999178,None,1567.8243531999178,None,4,1.8329983996227384,1567.8243531999178,None,1569.6948048998602,None,1570.2318712002598,None,1570.2318712002598,None,f,0.4493316998705268,1570.2318712002598,None,,,NC 26,001,2021_Nov_15_1419,ProdSingRedo,3.2.3,59.944311798791546,
,,,,81,0,81,0,,,,,,,,,,,,,,,,,,,,,,,,1573.3519311002456,None,,,,,,,,,,,,,,,,,evidence,silent,white,81,87,120,1571.2427222002298,None,1571.2427222002298,None,6,1.3503915998153389,1571.2427222002298,None,1572.6320291999727,None,1573.1634920998476,None,1573.1634920998476,None,f,0.15770470025017858,1573.1634920998476,None,,,NC 26,001,2021_Nov_15_1419,ProdSingRedo,3.2.3,59.944311798791546,
,,,,82,0,82,0,,,,,,,,,,,,,,,,,,,,,,,,1577.1548525001854,None,,,,,,,,,,,,,,,,,signal,new_b,white,82,128,287,1573.8789536999539,None,1573.8789536999539,None,3,2.3541641999036074,1573.8789536999539,None,1576.2969166999683,None,1576.8078042999841,None,1576.8078042999841,None,f,0.31353330006822944,1576.8078042999841,None,,,NC 26,001,2021_Nov_15_1419,ProdSingRedo,3.2.3,59.944311798791546,
,,,,83,0,83,0,,,,,,,,,,,,,,,,,,,,,,,,1580.2585132000968,None,,,,,,,,,,,,,,,,,turkey,aloud,white,83,50,342,1577.6862459001131,None,1577.6862459001131,None,6,1.634717300068587,1577.6862459001131,None,1579.362859299872,None,1579.8841484999284,None,1579.8841484999284,None,r,0.34902550000697374,1579.8841484999284,None,,,NC 26,001,2021_Nov_15_1419,ProdSingRedo,3.2.3,59.944311798791546,
,,,,84,0,84,0,,,,,,,,,,,,,,,,,,,,,,,,1583.8813288002275,None,,,,,,,,,,,,,,,,,chief,new_a,white,84,95,48,1580.7828906998038,None,1580.7828906998038,None,4,2.4263824997469783,1580.7828906998038,None,1583.2540528001264,None,1583.763851299882,None,1583.763851299882,None,f,0.08534639980643988,1583.763851299882,None,,,NC 26,001,2021_Nov_15_1419,ProdSingRedo,3.2.3,59.944311798791546,
,,,,85,0,85,0,,,,,,,,,,,,,,,,,,,,,,,,1587.765622800216,None,,,,,,,,,,,,,,,,,comfort,aloud,white,85,49,59,1584.4049320002086,None,1584.4049320002086,None,2,1.9806301998905838,1584.4049320002086,None,1586.4296226999722,None,1586.933768699877,None,1586.933768699877,None,f,0.7957936003804207,1586.933768699877,None,,,NC 26,001,2021_Nov_15_1419,ProdSingRedo,3.2.3,59.944311798791546,
,,,,86,0,86,0,,,,,,,,,,,,,,,,,,,,,,,,1591.2452990999445,None,,,,,,,,,,,,,,,,,breath,sing,white,86,10,27,1588.2928896998055,None,1588.2928896998055,None,4,2.1483482997864485,1588.2928896998055,None,1590.4827721002512,None,1590.995149999857,None,1590.995149999857,None,f,0.221658100374043,1590.995149999857,None,,,NC 26,001,2021_Nov_15_1419,ProdSingRedo,3.2.3,59.944311798791546,
,,,,87,0,87,0,,,,,,,,,,,,,,,,,,,,,,,,1596.4573587998748,None,,,,,,,,,,,,,,,,,error,sing,white,87,5,117,1591.7574025001377,None,1591.7574025001377,None,6,2.9479396999813616,1591.7574025001377,None,1594.754974800162,None,1595.2526783999056,None,1595.2526783999056,None,f,1.180515999905765,1595.2526783999056,None,,,NC 26,001,2021_Nov_15_1419,ProdSingRedo,3.2.3,59.944311798791546,
,,,,88,0,88,0,,,,,,,,,,,,,,,,,,,,,,,,1599.3612971999682,None,,,,,,,,,,,,,,,,,distance,silent,white,88,61,100,1596.984044100158,None,1596.984044100158,None,5,1.4891316997818649,1596.984044100158,None,1598.5219168001786,None,1599.0545756001957,None,1599.0545756001957,None,f,0.2746674004010856,1599.0545756001957,None,,,NC 26,001,2021_Nov_15_1419,ProdSingRedo,3.2.3,59.944311798791546,
,,,,89,0,89,0,,,,,,,,,,,,,,,,,,,,,,,,1601.748435200192,None,,,,,,,,,,,,,,,,,clear,new_c,white,89,177,52,1599.8860638998449,None,1599.8860638998449,None,1,1.1791118998080492,1599.8860638998449,None,1601.1069240998477,None,1601.6320358999074,None,1601.6320358999074,None,n,0.08115580026060343,1601.6320358999074,None,,,NC 26,001,2021_Nov_15_1419,ProdSingRedo,3.2.3,59.944311798791546,
,,,,90,0,90,0,,,,,,,,,,,,,,,,,,,,,,,,1604.4005366000347,None,,,,,,,,,,,,,,,,,solution,aloud,white,90,30,294,1602.2718528998084,None,1602.2718528998084,None,6,1.4732882999815047,1602.2718528998084,None,1603.7962350999005,None,1604.302035199944,None,1604.302035199944,None,f,0.05916940001770854,1604.302035199944,None,,,NC 26,001,2021_Nov_15_1419,ProdSingRedo,3.2.3,59.944311798791546,
,,,,91,0,91,0,,,,,,,,,,,,,,,,,,,,,,,,1607.3572471002117,None,,,,,,,,,,,,,,,,,territory,new_b,white,91,121,324,1604.9275682000443,None,1604.9275682000443,None,4,1.385561200324446,1604.9275682000443,None,1606.3695002999157,None,1606.8861345998012,None,1606.8861345998012,None,f,0.43508660001680255,1606.8861345998012,None,,,NC 26,001,2021_Nov_15_1419,ProdSingRedo,3.2.3,59.944311798791546,
,,,,92,0,92,0,,,,,,,,,,,,,,,,,,,,,,,,1609.9212524998002,None,,,,,,,,,,,,,,,,,phrase,new_a,white,92,104,220,1607.8799529001117,None,1607.8799529001117,None,1,1.2332911998964846,1607.8799529001117,None,1609.1482020001858,None,1609.6719889999367,None,1609.6719889999367,None,n,0.21770690008997917,1609.6719889999367,None,,,NC 26,001,2021_Nov_15_1419,ProdSingRedo,3.2.3,59.944311798791546,
,,,,93,0,93,0,,,,,,,,,,,,,,,,,,,,,,,,1613.5896311001852,None,,,,,,,,,,,,,,,,,angle,new_b,white,93,145,7,1610.4520630999468,None,1610.4520630999468,None,4,2.4693019003607333,1610.4520630999468,None,1612.9802737999707,None,1613.4947231998667,None,1613.4947231998667,None,f,0.05856100004166365,1613.4947231998667,None,,,NC 26,001,2021_Nov_15_1419,ProdSingRedo,3.2.3,59.944311798791546,
,,,,94,0,94,0,,,,,,,,,,,,,,,,,,,,,,,,1616.0929469000548,None,,,,,,,,,,,,,,,,,dance,new_c,white,94,169,84,1614.1150418999605,None,1614.1150418999605,None,1,1.3182492000050843,1614.1150418999605,None,1615.4714130000211,None,1615.9963838001713,None,1615.9963838001713,None,n,0.06087119970470667,1615.9963838001713,None,,,NC 26,001,2021_Nov_15_1419,ProdSingRedo,3.2.3,59.944311798791546,
,,,,95,0,95,0,,,,,,,,,,,,,,,,,,,,,,,,1619.0309597002342,None,,,,,,,,,,,,,,,,,rapid,new_a,white,95,118,252,1616.61904710019,None,1616.61904710019,None,1,1.7501347996294498,1616.61904710019,None,1618.4085742998868,None,1618.9324703002349,None,1618.9324703002349,None,n,0.06872160034254193,1618.9324703002349,None,,,NC 26,001,2021_Nov_15_1419,ProdSingRedo,3.2.3,59.944311798791546,
,,,,96,0,96,0,,,,,,,,,,,,,,,,,,,,,,,,1623.4766934001818,None,,,,,,,,,,,,,,,,,afternoon,silent,white,96,67,3,1619.5533054000698,None,1619.5533054000698,None,4,3.2398203001357615,1619.5533054000698,None,1622.8266245000996,None,1623.337970400229,None,1623.337970400229,None,f,0.08722710004076362,1623.337970400229,None,,,NC 26,001,2021_Nov_15_1419,ProdSingRedo,3.2.3,59.944311798791546,
,,,,97,0,97,0,,,,,,,,,,,,,,,,,,,,,,,,1627.4882185999304,None,,,,,,,,,,,,,,,,,prime,new_c,white,97,155,235,1623.992605399806,None,1623.992605399806,None,5,1.5042892000637949,1623.992605399806,None,1625.5199990998954,None,1626.0301009998657,None,1626.0301009998657,None,f,1.4350434001535177,1626.0301009998657,None,,,NC 26,001,2021_Nov_15_1419,ProdSingRedo,3.2.3,59.944311798791546,
,,,,98,0,98,0,,,,,,,,,,,,,,,,,,,,,,,,1630.3912051999941,None,,,,,,,,,,,,,,,,,charter,new_a,white,98,100,47,1628.0128220999613,None,1628.0128220999613,None,1,1.7243837001733482,1628.0128220999613,None,1629.7851650998928,None,1630.296805900056,None,1630.296805900056,None,n,0.07237070007249713,1630.296805900056,None,,,NC 26,001,2021_Nov_15_1419,ProdSingRedo,3.2.3,59.944311798791546,
,,,,99,0,99,0,,,,,,,,,,,,,,,,,,,,,,,,1635.1460612998344,None,,,,,,,,,,,,,,,,,narrow,new_b,white,99,143,197,1630.9172168001533,None,1630.9172168001533,None,1,1.5720643000677228,1630.9172168001533,None,1632.5422493000515,None,1633.0646998002194,None,1633.0646998002194,None,n,2.0564605998806655,1633.0646998002194,None,,,NC 26,001,2021_Nov_15_1419,ProdSingRedo,3.2.3,59.944311798791546,
,,,,100,0,100,0,,,,,,,,,,,,,,,,,,,,,,,,1637.7496437001973,None,,,,,,,,,,,,,,,,,passage,new_b,white,100,142,212,1635.67573599983,None,1635.67573599983,None,1,1.2935462999157608,1635.67573599983,None,1637.01297050016,None,1637.536478499882,None,1637.536478499882,None,n,0.18476480012759566,1637.536478499882,None,,,NC 26,001,2021_Nov_15_1419,ProdSingRedo,3.2.3,59.944311798791546,
,,,,101,0,101,0,,,,,,,,,,,,,,,,,,,,,,,,1640.8194313999265,None,,,,,,,,,,,,,,,,,collection,new_c,white,101,166,54,1638.2710227998905,None,1638.2710227998905,None,3,1.7705095000565052,1638.2710227998905,None,1640.0800927001983,None,1640.5847228001803,None,1640.5847228001803,None,f,0.2007086998783052,1640.5847228001803,None,,,NC 26,001,2021_Nov_15_1419,ProdSingRedo,3.2.3,59.944311798791546,
,,,,102,0,102,0,,,,,,,,,,,,,,,,,,,,,,,,1643.5555285001174,None,,,,,,,,,,,,,,,,,vision,new_b,white,102,123,347,1641.3447596998885,None,1641.3447596998885,None,6,1.4565329002216458,1641.3447596998885,None,1642.849730399903,None,1643.356761300005,None,1643.356761300005,None,f,0.17258379980921745,1643.356761300005,None,,,NC 26,001,2021_Nov_15_1419,ProdSingRedo,3.2.3,59.944311798791546,
,,,,103,0,103,0,,,,,,,,,,,,,,,,,,,,,,,,1646.990434399806,None,,,,,,,,,,,,,,,,,candidate,silent,white,103,84,39,1644.085405100137,None,1644.085405100137,None,6,2.283848199993372,1644.085405100137,None,1646.427064300049,None,1646.947443000041,None,1646.947443000041,None,r,0.013730099890381098,1646.947443000041,None,,,NC 26,001,2021_Nov_15_1419,ProdSingRedo,3.2.3,59.944311798791546,
,,,,104,0,104,0,,,,,,,,,,,,,,,,,,,,,,,,1651.2219837000594,None,,,,,,,,,,,,,,,,,shear,sing,white,104,17,283,1647.5125111998059,None,1647.5125111998059,None,3,3.112749199848622,1647.5125111998059,None,1650.6762590999715,None,1651.172038800083,None,1651.172038800083,None,f,0.020794200245290995,1651.172038800083,None,,,NC 26,001,2021_Nov_15_1419,ProdSingRedo,3.2.3,59.944311798791546,
,,,,105,0,105,0,,,,,,,,,,,,,,,,,,,,,,,,1654.0718775000423,None,,,,,,,,,,,,,,,,,center,new_a,white,105,91,44,1651.7343382001854,None,1651.7343382001854,None,1,1.2428150000050664,1651.7343382001854,None,1653.0263196998276,None,1653.5450912998058,None,1653.5450912998058,None,n,0.49604649981483817,1653.5450912998058,None,,,NC 26,001,2021_Nov_15_1419,ProdSingRedo,3.2.3,59.944311798791546,
,,,,106,0,106,0,,,,,,,,,,,,,,,,,,,,,,,,1658.5204472001642,None,,,,,,,,,,,,,,,,,broad,sing,white,106,9,31,1654.5913305999711,None,1654.5913305999711,None,6,3.257942599710077,1654.5913305999711,None,1657.896867599804,None,1658.4099520002492,None,1658.4099520002492,None,r,0.08744570007547736,1658.4099520002492,None,,,NC 26,001,2021_Nov_15_1419,ProdSingRedo,3.2.3,59.944311798791546,
,,,,107,0,107,0,,,,,,,,,,,,,,,,,,,,,,,,1662.3559097000398,None,,,,,,,,,,,,,,,,,write,new_a,white,107,102,358,1659.0442567002028,None,1659.0442567002028,None,1,2.645194800104946,1659.0442567002028,None,1661.7378282002173,None,1662.2580777998082,None,1662.2580777998082,None,n,0.06316150026395917,1662.2580777998082,None,,,NC 26,001,2021_Nov_15_1419,ProdSingRedo,3.2.3,59.944311798791546,
,,,,108,0,108,0,,,,,,,,,,,,,,,,,,,,,,,,1665.9114723000675,None,,,,,,,,,,,,,,,,,interview,new_c,white,108,176,165,1662.8861346999183,None,1662.8861346999183,None,4,2.307133900001645,1662.8861346999183,None,1665.2419333001599,None,1665.7652544002049,None,1665.7652544002049,None,f,0.11595040000975132,1665.7652544002049,None,,,NC 26,001,2021_Nov_15_1419,ProdSingRedo,3.2.3,59.944311798791546,
,,,,109,0,109,0,,,,,,,,,,,,,,,,,,,,,,,,1669.1231765002012,None,,,,,,,,,,,,,,,,,science,new_c,white,109,151,275,1666.4350336999632,None,1666.4350336999632,None,1,2.0861689997836947,1666.4350336999632,None,1668.5584252998233,None,1669.0778878000565,None,1669.0778878000565,None,n,0.02729610027745366,1669.0778878000565,None,,,NC 26,001,2021_Nov_15_1419,ProdSingRedo,3.2.3,59.944311798791546,
,,,,110,0,110,0,,,,,,,,,,,,,,,,,,,,,,,,1672.2168578002602,None,,,,,,,,,,,,,,,,,waste,silent,white,110,65,350,1669.6393571002409,None,1669.6393571002409,None,5,1.481893700081855,1669.6393571002409,None,1671.1583707001992,None,1671.6685231998563,None,1671.6685231998563,None,f,0.525021499954164,1671.6685231998563,None,,,NC 26,001,2021_Nov_15_1419,ProdSingRedo,3.2.3,59.944311798791546,
,,,,111,0,111,0,,,,,,,,,,,,,,,,,,,,,,,,1680.3070204998367,None,,,,,,,,,,,,,,,,,tennis,silent,white,111,80,323,1672.7386893001385,None,1672.7386893001385,None,1,2.0945990001782775,1672.7386893001385,None,1674.8790998002514,None,1675.3861189000309,None,1675.3861189000309,None,n,4.88713170029223,1675.3861189000309,None,,,NC 26,001,2021_Nov_15_1419,ProdSingRedo,3.2.3,59.944311798791546,
,,,,112,0,112,0,,,,,,,,,,,,,,,,,,,,,,,,1682.835018800106,None,,,,,,,,,,,,,,,,,education,new_c,white,112,153,108,1680.8264812999405,None,1680.8264812999405,None,1,1.4068239000625908,1680.8264812999405,None,1682.2786023998633,None,1682.801338300109,None,1682.801338300109,None,n,0.007819400168955326,1682.801338300109,None,,,NC 26,001,2021_Nov_15_1419,ProdSingRedo,3.2.3,59.944311798791546,
,,,,113,0,113,0,,,,,,,,,,,,,,,,,,,,,,,,1685.8131864001043,None,,,,,,,,,,,,,,,,,break,new_a,white,113,101,26,1683.35785140004,None,1683.35785140004,None,4,1.8034636997617781,1683.35785140004,None,1685.2136475001462,None,1685.7343586999923,None,1685.7343586999923,None,f,0.05100419977679849,1685.7343586999923,None,,,NC 26,001,2021_Nov_15_1419,ProdSingRedo,3.2.3,59.944311798791546,
,,,,114,0,114,0,,,,,,,,,,,,,,,,,,,,,,,,1690.1008386001922,None,,,,,,,,,,,,,,,,,taste,new_c,white,114,157,322,1686.3361459998414,None,1686.3361459998414,None,2,2.6331648998893797,1686.3361459998414,None,1689.004908000119,None,1689.5154781998135,None,1689.5154781998135,None,n,0.5497316000983119,1689.5154781998135,None,,,NC 26,001,2021_Nov_15_1419,ProdSingRedo,3.2.3,59.944311798791546,
,,,,115,0,115,0,,,,,,,,,,,,,,,,,,,,,,,,1693.4046622002497,None,,,,,,,,,,,,,,,,,touch,new_c,white,115,163,332,1690.6128118000925,None,1690.6128118000925,None,1,1.7563763996586204,1690.6128118000925,None,1692.4160301000811,None,1692.922653700225,None,1692.922653700225,None,n,0.45457750000059605,1692.922653700225,None,,,NC 26,001,2021_Nov_15_1419,ProdSingRedo,3.2.3,59.944311798791546,
,,,,116,0,116,0,,,,,,,,,,,,,,,,,,,,,,,,1696.1728543001227,None,,,,,,,,,,,,,,,,,expansion,silent,white,116,71,123,1693.9310317998752,None,1693.9310317998752,None,1,1.1103805997408926,1693.9310317998752,None,1695.0898082000203,None,1695.6141242999583,None,1695.6141242999583,None,n,0.5230572000145912,1695.6141242999583,None,,,NC 26,001,2021_Nov_15_1419,ProdSingRedo,3.2.3,59.944311798791546,
,,,,117,0,117,0,,,,,,,,,,,,,,,,,,,,,,,,1698.836223400198,None,,,,,,,,,,,,,,,,,individual,sing,white,117,23,160,1696.7045255000703,None,1696.7045255000703,None,6,1.5048555000685155,1696.7045255000703,None,1698.2619862998836,None,1698.7814696999267,None,1698.7814696999267,None,f,0.03557890001684427,1698.7814696999267,None,,,NC 26,001,2021_Nov_15_1419,ProdSingRedo,3.2.3,59.944311798791546,
,,,,118,0,118,0,,,,,,,,,,,,,,,,,,,,,,,,1702.1306103998795,None,,,,,,,,,,,,,,,,,point,silent,white,118,89,226,1699.3490066998638,None,1699.3490066998638,None,3,1.9404354002326727,1699.3490066998638,None,1701.3232291000895,None,1701.8290710002184,None,1701.8290710002184,None,n,0.2761329999193549,1701.8290710002184,None,,,NC 26,001,2021_Nov_15_1419,ProdSingRedo,3.2.3,59.944311798791546,
,,,,119,0,119,0,,,,,,,,,,,,,,,,,,,,,,,,1704.58240630012,None,,,,,,,,,,,,,,,,,murder,new_b,white,119,126,195,1702.6565152998082,None,1702.6565152998082,None,1,1.2087090997956693,1702.6565152998082,None,1703.9118019999005,None,1704.4176105000079,None,1704.4176105000079,None,n,0.12768029980361462,1704.4176105000079,None,,,NC 26,001,2021_Nov_15_1419,ProdSingRedo,3.2.3,59.944311798791546,
,,,,120,0,120,0,,,,,,,,,,,,,,,,,,,,,,,,1707.101476999931,None,,,,,,,,,,,,,,,,,sound,aloud,white,120,33,295,1705.1073750001378,None,1705.1073750001378,None,1,1.2458544997498393,1705.1073750001378,None,1706.398067700211,None,1706.902817999944,None,1706.902817999944,None,n,0.1624725996516645,1706.902817999944,None,,,NC 26,001,2021_Nov_15_1419,ProdSingRedo,3.2.3,59.944311798791546,
,,,,121,0,121,0,,,,,,,,,,,,,,,,,,,,,,,,1709.6538883000612,None,,,,,,,,,,,,,,,,,order,aloud,white,121,43,207,1707.6232830001973,None,1707.6232830001973,None,3,1.4099965002387762,1707.6232830001973,None,1709.0813541002572,None,1709.603483799845,None,1709.603483799845,None,f,0.0218214001506567,1709.603483799845,None,,,NC 26,001,2021_Nov_15_1419,ProdSingRedo,3.2.3,59.944311798791546,
,,,,122,0,122,0,,,,,,,,,,,,,,,,,,,,,,,,1712.3909546001814,None,,,,,,,,,,,,,,,,,pancakes,aloud,white,122,31,210,1710.1838989998214,None,1710.1838989998214,None,5,1.5214347001165152,1710.1838989998214,None,1711.752093099989,None,1712.2656053001992,None,1712.2656053001992,None,f,0.09567439975216985,1712.2656053001992,None,,,NC 26,001,2021_Nov_15_1419,ProdSingRedo,3.2.3,59.944311798791546,
,,,,123,0,123,0,,,,,,,,,,,,,,,,,,,,,,,,1715.6528639001772,None,,,,,,,,,,,,,,,,,defeat,aloud,white,123,47,88,1712.9155120002106,None,1712.9155120002106,None,1,1.629792199935764,1712.9155120002106,None,1714.591601099819,None,1715.1193285998888,None,1715.1193285998888,None,n,0.5137087996117771,1715.1193285998888,None,,,NC 26,001,2021_Nov_15_1419,ProdSingRedo,3.2.3,59.944311798791546,
,,,,124,0,124,0,,,,,,,,,,,,,,,,,,,,,,,,1718.0279077999294,None,,,,,,,,,,,,,,,,,column,new_c,white,124,160,57,1716.1739992001094,None,1716.1739992001094,None,1,1.0757209002040327,1716.1739992001094,None,1717.29095519986,None,1717.8173960000277,None,1717.8173960000277,None,n,0.1761043998412788,1717.8173960000277,None,,,NC 26,001,2021_Nov_15_1419,ProdSingRedo,3.2.3,59.944311798791546,
,,,,125,0,125,0,,,,,,,,,,,,,,,,,,,,,,,,1720.4138805000111,None,,,,,,,,,,,,,,,,,crisis,aloud,white,125,38,79,1718.5487089999951,None,1718.5487089999951,None,1,1.1166388001292944,1718.5487089999951,None,1719.7093970002607,None,1720.2319747000001,None,1720.2319747000001,None,n,0.1452633999288082,1720.2319747000001,None,,,NC 26,001,2021_Nov_15_1419,ProdSingRedo,3.2.3,59.944311798791546,
,,,,126,0,126,0,,,,,,,,,,,,,,,,,,,,,,,,1724.8186878999695,None,,,,,,,,,,,,,,,,,beginning,new_a,white,126,107,19,1720.9477095999755,None,1720.9477095999755,None,1,3.141614700201899,1720.9477095999755,None,1724.134316300042,None,1724.641040199902,None,1724.641040199902,None,n,0.14438569964841008,1724.641040199902,None,,,NC 26,001,2021_Nov_15_1419,ProdSingRedo,3.2.3,59.944311798791546,
,,,,127,0,127,0,,,,,,,,,,,,,,,,,,,,,,,,1730.6580258002505,None,,,,,,,,,,,,,,,,,health,new_a,white,127,108,149,1725.3521163999103,None,1725.3521163999103,None,3,4.673188699875027,1725.3521163999103,None,1730.0714210001752,None,1730.5969484001398,None,1730.5969484001398,None,f,0.028272800147533417,1730.5969484001398,None,,,NC 26,001,2021_Nov_15_1419,ProdSingRedo,3.2.3,59.944311798791546,
,,,,128,0,128,0,,,,,,,,,,,,,,,,,,,,,,,,1733.2276679999195,None,,,,,,,,,,,,,,,,,atmosphere,sing,white,128,27,12,1731.2002948001027,None,1731.2002948001027,None,5,1.392983399797231,1731.2002948001027,None,1732.6418612999842,None,1733.1466017998755,None,1733.1466017998755,None,f,0.04674150003120303,1733.1466017998755,None,,,NC 26,001,2021_Nov_15_1419,ProdSingRedo,3.2.3,59.944311798791546,
,,,,129,0,129,0,,,,,,,,,,,,,,,,,,,,,,,,1735.6632520002313,None,,,,,,,,,,,,,,,,,month,silent,white,129,69,193,1733.7512598000467,None,1733.7512598000467,None,1,1.2340338001959026,1733.7512598000467,None,1735.0209070001729,None,1735.5298346001655,None,1735.5298346001655,None,n,0.11144099989905953,1735.5298346001655,None,,,NC 26,001,2021_Nov_15_1419,ProdSingRedo,3.2.3,59.944311798791546,
,,,,130,0,130,0,,,,,,,,,,,,,,,,,,,,,,,,1739.0665674000047,None,,,,,,,,,,,,,,,,,crime,aloud,white,130,58,78,1736.186890500132,None,1736.186890500132,None,5,2.2462582997977734,1736.186890500132,None,1738.4732878999785,None,1738.9798904000781,None,1738.9798904000781,None,f,0.061540800146758556,1738.9798904000781,None,,,NC 26,001,2021_Nov_15_1419,ProdSingRedo,3.2.3,59.944311798791546,
,,,,131,0,131,0,,,,,,,,,,,,,,,,,,,,,,,,1741.6798634999432,None,,,,,,,,,,,,,,,,,fellow,sing,white,131,21,126,1739.5937890000641,None,1739.5937890000641,None,5,1.4471084997057915,1739.5937890000641,None,1741.0616187001579,None,1741.5625263000838,None,1741.5625263000838,None,f,0.08661539992317557,1741.5625263000838,None,,,NC 26,001,2021_Nov_15_1419,ProdSingRedo,3.2.3,59.944311798791546,
,,,,132,0,132,0,,,,,,,,,,,,,,,,,,,,,,,,1744.3878640998155,None,,,,,,,,,,,,,,,,,little,sing,white,132,2,174,1742.189247299917,None,1742.189247299917,None,6,1.5720195998437703,1742.189247299917,None,1743.8010848998092,None,1744.318883600179,None,1744.318883600179,None,f,0.03443549992516637,1744.318883600179,None,,,NC 26,001,2021_Nov_15_1419,ProdSingRedo,3.2.3,59.944311798791546,
,,,,133,0,133,0,,,,,,,,,,,,,,,,,,,,,,,,1746.8074337998405,None,,,,,,,,,,,,,,,,,force,sing,white,133,0,131,1744.912787800189,None,1744.912787800189,None,3,1.2005671998485923,1744.912787800189,None,1746.1526211998425,None,1746.675897500012,None,1746.675897500012,None,f,0.10144710028544068,1746.675897500012,None,,,NC 26,001,2021_Nov_15_1419,ProdSingRedo,3.2.3,59.944311798791546,
,,,,134,0,134,0,,,,,,,,,,,,,,,,,,,,,,,,1749.0697555001825,None,,,,,,,,,,,,,,,,,council,new_a,white,134,97,71,1747.335539500229,None,1747.335539500229,None,1,1.1298021003603935,1747.335539500229,None,1748.5165936998092,None,1749.0291582001373,None,1749.0291582001373,None,n,0.01237259991466999,1749.0291582001373,None,,,NC 26,001,2021_Nov_15_1419,ProdSingRedo,3.2.3,59.944311798791546,
,,,,135,0,135,0,,,,,,,,,,,,,,,,,,,,,,,,1751.3570270999335,None,,,,,,,,,,,,,,,,,medicine,new_c,white,135,164,186,1749.5817338000052,None,1749.5817338000052,None,1,1.1075170999392867,1749.5817338000052,None,1750.723698799964,None,1751.2491341000423,None,1751.2491341000423,None,n,0.07975320005789399,1751.2491341000423,None,,,NC 26,001,2021_Nov_15_1419,ProdSingRedo,3.2.3,59.944311798791546,
,,,,136,0,136,0,,,,,,,,,,,,,,,,,,,,,,,,1753.607841799967,None,,,,,,,,,,,,,,,,,thick,new_a,white,136,106,327,1751.8907237001695,None,1751.8907237001695,None,1,1.1023134998977184,1751.8907237001695,None,1753.0275413999334,None,1753.5475818999112,None,1753.5475818999112,None,n,0.037350500002503395,1753.5475818999112,None,,,NC 26,001,2021_Nov_15_1419,ProdSingRedo,3.2.3,59.944311798791546,
,,,,137,0,137,0,,,,,,,,,,,,,,,,,,,,,,,,1755.7826535999775,None,,,,,,,,,,,,,,,,,guest,new_c,white,137,172,146,1754.10838040011,None,1754.10838040011,None,1,1.0369358998723328,1754.10838040011,None,1755.1958073000424,None,1755.718548799865,None,1755.718548799865,None,n,0.026713700033724308,1755.718548799865,None,,,NC 26,001,2021_Nov_15_1419,ProdSingRedo,3.2.3,59.944311798791546,
,,,,138,0,138,0,,,,,,,,,,,,,,,,,,,,,,,,1759.8376938002184,None,,,,,,,,,,,,,,,,,tough,new_a,white,138,93,333,1756.3092208998278,None,1756.3092208998278,None,4,1.7241148999892175,1756.3092208998278,None,1758.0855541001074,None,1758.5921932999045,None,1758.5921932999045,None,f,1.2090826998464763,1758.5921932999045,None,,,NC 26,001,2021_Nov_15_1419,ProdSingRedo,3.2.3,59.944311798791546,
,,,,139,0,139,0,,,,,,,,,,,,,,,,,,,,,,,,1763.42561510019,None,,,,,,,,,,,,,,,,,conference,new_b,white,139,125,66,1760.3651592000388,None,1760.3651592000388,None,1,1.228142799809575,1760.3651592000388,None,1761.6346628000028,None,1762.160733900033,None,1762.160733900033,None,n,1.2328802002593875,1762.160733900033,None,,,NC 26,001,2021_Nov_15_1419,ProdSingRedo,3.2.3,59.944311798791546,
,,,,140,0,140,0,,,,,,,,,,,,,,,,,,,,,,,,1766.343548799865,None,,,,,,,,,,,,,,,,,emergency,new_b,white,140,147,110,1763.9556561000645,None,1763.9556561000645,None,1,1.109639700036496,1763.9556561000645,None,1765.1106304000132,None,1765.6336286999285,None,1765.6336286999285,None,n,0.6876145997084677,1765.6336286999285,None,,,NC 26,001,2021_Nov_15_1419,ProdSingRedo,3.2.3,59.944311798791546,
,,,,141,0,141,0,,,,,,,,,,,,,,,,,,,,,,,,1768.6133563998155,None,,,,,,,,,,,,,,,,,block,new_c,white,141,154,25,1766.8685555998236,None,1766.8685555998236,None,1,1.1168074002489448,1766.8685555998236,None,1768.0237012999132,None,1768.5297858002596,None,1768.5297858002596,None,n,0.05535000003874302,1768.5297858002596,None,,,NC 26,001,2021_Nov_15_1419,ProdSingRedo,3.2.3,59.944311798791546,
,,,,142,0,142,0,,,,,,,,,,,,,,,,,,,,,,,,1772.2180063999258,None,,,,,,,,,,,,,,,,,meeting,new_a,white,142,114,187,1769.138948999811,None,1769.138948999811,None,1,2.16608119988814,1769.138948999811,None,1771.3271726001985,None,1771.8502553999424,None,1771.8502553999424,None,n,0.33511210000142455,1771.8502553999424,None,,,NC 26,001,2021_Nov_15_1419,ProdSingRedo,3.2.3,59.944311798791546,
,,,,143,0,143,0,,,,,,,,,,,,,,,,,,,,,,,,1776.3717670999467,None,,,,,,,,,,,,,,,,,suspect,new_c,white,143,162,318,1772.7442088001408,None,1772.7442088001408,None,1,2.593074500095099,1772.7442088001408,None,1775.3903843001463,None,1775.9061843999662,None,1775.9061843999662,None,n,0.4392603999003768,1775.9061843999662,None,,,NC 26,001,2021_Nov_15_1419,ProdSingRedo,3.2.3,59.944311798791546,
,,,,144,0,144,0,,,,,,,,,,,,,,,,,,,,,,,,1780.5083153001033,None,,,,,,,,,,,,,,,,,profession,new_c,white,144,178,241,1776.8986352998763,None,1776.8986352998763,None,3,1.7909691999666393,1776.8986352998763,None,1778.7357347998768,None,1779.2591216000728,None,1779.2591216000728,None,f,1.2143131997436285,1779.2591216000728,None,,,NC 26,001,2021_Nov_15_1419,ProdSingRedo,3.2.3,59.944311798791546,
,,,,145,0,145,0,,,,,,,,,,,,,,,,,,,,,,,,1782.810415700078,None,,,,,,,,,,,,,,,,,union,new_a,white,145,105,344,1781.0327284000814,None,1781.0327284000814,None,1,1.1526101999916136,1781.0327284000814,None,1782.2274044002406,None,1782.746499300003,None,1782.746499300003,None,n,0.030730099882930517,1782.746499300003,None,,,NC 26,001,2021_Nov_15_1419,ProdSingRedo,3.2.3,59.944311798791546,
,,,,146,0,146,0,,,,,,,,,,,,,,,,,,,,,,,,1785.5631503001787,None,,,,,,,,,,,,,,,,,height,new_a,white,146,98,152,1783.3357422999106,None,1783.3357422999106,None,1,1.6175174000672996,1783.3357422999106,None,1784.995217599906,None,1785.5156612000428,None,1785.5156612000428,None,n,0.021829800214618444,1785.5156612000428,None,,,NC 26,001,2021_Nov_15_1419,ProdSingRedo,3.2.3,59.944311798791546,
,,,,147,0,147,0,,,,,,,,,,,,,,,,,,,,,,,,1788.4828073000535,None,,,,,,,,,,,,,,,,,split,aloud,white,147,48,299,1786.0820761998184,None,1786.0820761998184,None,1,0.9673081999644637,1786.0820761998184,None,1787.0942740999162,None,1787.624450000003,None,1787.624450000003,None,n,0.8252195999957621,1787.624450000003,None,,,NC 26,001,2021_Nov_15_1419,ProdSingRedo,3.2.3,59.944311798791546,
,,,,148,0,148,0,,,,,,,,,,,,,,,,,,,,,,,,1790.7849360001273,None,,,,,,,,,,,,,,,,,graduate,aloud,white,148,54,141,1789.0210072002374,None,1789.0210072002374,None,6,1.1003690999932587,1789.0210072002374,None,1790.164523600135,None,1790.6906694998033,None,1790.6906694998033,None,f,0.06261599995195866,1790.6906694998033,None,,,NC 26,001,2021_Nov_15_1419,ProdSingRedo,3.2.3,59.944311798791546,
,,,,149,0,149,0,,,,,,,,,,,,,,,,,,,,,,,,1793.7043856000528,None,,,,,,,,,,,,,,,,,dozen,silent,white,149,72,102,1791.3163628000766,None,1791.3163628000766,None,1,1.1647969000041485,1791.3163628000766,None,1792.5195586998016,None,1793.0393361998722,None,1793.0393361998722,None,n,0.6340748998336494,1793.0393361998722,None,,,NC 26,001,2021_Nov_15_1419,ProdSingRedo,3.2.3,59.944311798791546,
,,,,150,0,150,0,,,,,,,,,,,,,,,,,,,,,,,,1796.0402611000463,None,,,,,,,,,,,,,,,,,permit,new_b,white,150,149,218,1794.2283749999478,None,1794.2283749999478,None,1,1.0690911002457142,1794.2283749999478,None,1795.334993599914,None,1795.8570572999306,None,1795.8570572999306,None,n,0.15234829997643828,1795.8570572999306,None,,,NC 26,001,2021_Nov_15_1419,ProdSingRedo,3.2.3,59.944311798791546,
,,,,151,0,151,0,,,,,,,,,,,,,,,,,,,,,,,,1798.2267239000648,None,,,,,,,,,,,,,,,,,primary,new_b,white,151,144,234,1796.570687700063,None,1796.570687700063,None,1,0.9984857998788357,1796.570687700063,None,1797.604693800211,None,1798.1127221002243,None,1798.1127221002243,None,n,0.08848769962787628,1798.1127221002243,None,,,NC 26,001,2021_Nov_15_1419,ProdSingRedo,3.2.3,59.944311798791546,
,,,,152,0,152,0,,,,,,,,,,,,,,,,,,,,,,,,1800.6428843000904,None,,,,,,,,,,,,,,,,,owner,new_c,white,152,174,208,1798.751455300022,None,1798.751455300022,None,1,1.0978602999821305,1798.751455300022,None,1799.8880076999776,None,1800.4000601000153,None,1800.4000601000153,None,n,0.20925289997830987,1800.4000601000153,None,,,NC 26,001,2021_Nov_15_1419,ProdSingRedo,3.2.3,59.944311798791546,
,,,,153,0,153,0,,,,,,,,,,,,,,,,,,,,,,,,1805.0166231999174,None,,,,,,,,,,,,,,,,,balance,silent,white,153,81,17,1801.1550960000604,None,1801.1550960000604,None,3,2.966217199806124,1801.1550960000604,None,1804.176743300166,None,1804.6884318999946,None,1804.6884318999946,None,f,0.29690290009602904,1804.6884318999946,None,,,NC 26,001,2021_Nov_15_1419,ProdSingRedo,3.2.3,59.944311798791546,
,,,,154,0,154,0,,,,,,,,,,,,,,,,,,,,,,,,1807.5527216000482,None,,,,,,,,,,,,,,,,,group,new_a,white,154,111,143,1805.5440656999126,None,1805.5440656999126,None,1,1.113546899985522,1805.5440656999126,None,1806.6964358999394,None,1807.2206379999407,None,1807.2206379999407,None,n,0.3088053003884852,1807.2206379999407,None,,,NC 26,001,2021_Nov_15_1419,ProdSingRedo,3.2.3,59.944311798791546,
,,,,155,0,155,0,,,,,,,,,,,,,,,,,,,,,,,,1809.8195827999152,None,,,,,,,,,,,,,,,,,command,new_b,white,155,127,60,1808.0765813998878,None,1808.0765813998878,None,1,1.0128089003264904,1808.0765813998878,None,1809.1407805001363,None,1809.6564062000252,None,1809.6564062000252,None,n,0.12904109992086887,1809.6564062000252,None,,,NC 26,001,2021_Nov_15_1419,ProdSingRedo,3.2.3,59.944311798791546,
,,,,156,0,156,0,,,,,,,,,,,,,,,,,,,,,,,,1812.1058196998201,None,,,,,,,,,,,,,,,,,period,sing,white,156,13,217,1810.3434175001457,None,1810.3434175001457,None,6,1.121772799640894,1810.3434175001457,None,1811.4999563000165,None,1812.0038034999743,None,1812.0038034999743,None,r,0.06950870016589761,1812.0038034999743,None,,,NC 26,001,2021_Nov_15_1419,ProdSingRedo,3.2.3,59.944311798791546,
,,,,157,0,157,0,,,,,,,,,,,,,,,,,,,,,,,,1814.8688094001263,None,,,,,,,,,,,,,,,,,provision,silent,white,157,75,243,1812.6336737000383,None,1812.6336737000383,None,1,1.2716441000811756,1812.6336737000383,None,1813.9530282998458,None,1814.480026499834,None,1814.480026499834,None,n,0.36900389986112714,1814.480026499834,None,,,NC 26,001,2021_Nov_15_1419,ProdSingRedo,3.2.3,59.944311798791546,
,,,,158,0,158,0,,,,,,,,,,,,,,,,,,,,,,,,1817.871806600131,None,,,,,,,,,,,,,,,,,smell,sing,white,158,24,291,1815.3919557998888,None,1815.3919557998888,None,1,1.641317100264132,1815.3919557998888,None,1817.0662520001642,None,1817.5773622002453,None,1817.5773622002453,None,n,0.2718409998342395,1817.5773622002453,None,,,NC 26,001,2021_Nov_15_1419,ProdSingRedo,3.2.3,59.944311798791546,
,,,,159,0,159,0,,,,,,,,,,,,,,,,,,,,,,,,1821.4669786999002,None,,,,,,,,,,,,,,,,,title,new_b,white,159,140,331,1818.372504599858,None,1818.372504599858,None,3,2.4770030002109706,1818.372504599858,None,1820.8937770002522,None,1821.3990366002545,None,1821.3990366002545,None,f,0.03432050021365285,1821.3990366002545,None,,,NC 26,001,2021_Nov_15_1419,ProdSingRedo,3.2.3,59.944311798791546,
,,,,160,0,160,0,,,,,,,,,,,,,,,,,,,,,,,,1824.5518070999533,None,,,,,,,,,,,,,,,,,object,silent,white,160,86,204,1821.991522999946,None,1821.991522999946,None,3,1.8898400999605656,1821.991522999946,None,1823.940643900074,None,1824.4556602998637,None,1824.4556602998637,None,f,0.07379209995269775,1824.4556602998637,None,,,NC 26,001,2021_Nov_15_1419,ProdSingRedo,3.2.3,59.944311798791546,
,,,,161,0,161,0,,,,,,,,,,,,,,,,,,,,,,,,1826.9220496998169,None,,,,,,,,,,,,,,,,,rural,new_b,white,161,132,269,1825.0814459999092,None,1825.0814459999092,None,1,1.1438887999393046,1825.0814459999092,None,1826.2714305999689,None,1826.791656699963,None,1826.791656699963,None,n,0.1056315996684134,1826.791656699963,None,,,NC 26,001,2021_Nov_15_1419,ProdSingRedo,3.2.3,59.944311798791546,
,,,,162,0,162,0,,,,,,,,,,,,,,,,,,,,,,,,1829.311396600213,None,,,,,,,,,,,,,,,,,fashion,new_b,white,162,146,125,1827.4469111999497,None,1827.4469111999497,None,1,1.0104829999618232,1827.4469111999497,None,1828.5051867999136,None,1829.025392500218,None,1829.025392500218,None,n,0.24807210033759475,1829.025392500218,None,,,NC 26,001,2021_Nov_15_1419,ProdSingRedo,3.2.3,59.944311798791546,
,,,,163,0,163,0,,,,,,,,,,,,,,,,,,,,,,,,1831.7935812999494,None,,,,,,,,,,,,,,,,,shock,new_b,white,163,138,284,1829.8326416001655,None,1829.8326416001655,None,1,1.2003107001073658,1829.8326416001655,None,1831.0550879999064,None,1831.5689897998236,None,1831.5689897998236,None,n,0.19232459971681237,1831.5689897998236,None,,,NC 26,001,2021_Nov_15_1419,ProdSingRedo,3.2.3,59.944311798791546,
,,,,164,0,164,0,,,,,,,,,,,,,,,,,,,,,,,,1834.6446174001321,None,,,,,,,,,,,,,,,,,debate,aloud,white,164,41,87,1832.3211019998416,None,1832.3211019998416,None,3,1.7204721001908183,1832.3211019998416,None,1834.0957725998014,None,1834.6182026001625,None,1834.6182026001625,None,f,0.006943500135093927,1834.6182026001625,None,,,NC 26,001,2021_Nov_15_1419,ProdSingRedo,3.2.3,59.944311798791546,
,,,,165,0,165,0,,,,,,,,,,,,,,,,,,,,,,,,1837.6148795001209,None,,,,,,,,,,,,,,,,,school,new_a,white,165,119,274,1835.1684836000204,None,1835.1684836000204,None,5,1.8332858998328447,1835.1684836000204,None,1837.044426899869,None,1837.5628921999596,None,1837.5628921999596,None,f,0.01455910038203001,1837.5628921999596,None,,,NC 26,001,2021_Nov_15_1419,ProdSingRedo,3.2.3,59.944311798791546,
,,,,166,0,166,0,,,,,,,,,,,,,,,,,,,,,,,,1843.6429361999035,None,,,,,,,,,,,,,,,,,reading,sing,white,166,11,254,1838.1421155999415,None,1838.1421155999415,None,3,4.491290200036019,1838.1421155999415,None,1842.685866100248,None,1843.1910132002085,None,1843.1910132002085,None,f,0.4183910000137985,1843.1910132002085,None,,,NC 26,001,2021_Nov_15_1419,ProdSingRedo,3.2.3,59.944311798791546,
,,,,167,0,167,0,,,,,,,,,,,,,,,,,,,,,,,,1846.4904962000437,None,,,,,,,,,,,,,,,,,community,new_c,white,167,158,63,1844.1666354998015,None,1844.1666354998015,None,1,1.2426340002566576,1844.1666354998015,None,1845.4577728998847,None,1845.9790194998495,None,1845.9790194998495,None,n,0.4785982999019325,1845.9790194998495,None,,,NC 26,001,2021_Nov_15_1419,ProdSingRedo,3.2.3,59.944311798791546,
,,,,168,0,168,0,,,,,,,,,,,,,,,,,,,,,,,,1849.0039959000424,None,,,,,,,,,,,,,,,,,edition,silent,white,168,73,107,1847.0130167999305,None,1847.0130167999305,None,1,1.4045247002504766,1847.0130167999305,None,1848.4524350999855,None,1848.9600315000862,None,1848.9600315000862,None,n,0.01716999989002943,1848.9600315000862,None,,,NC 26,001,2021_Nov_15_1419,ProdSingRedo,3.2.3,59.944311798791546,
,,,,169,0,169,0,,,,,,,,,,,,,,,,,,,,,,,,1851.4818906998262,None,,,,,,,,,,,,,,,,,strength,new_a,white,169,96,310,1849.5210504001006,None,1849.5210504001006,None,1,1.2241595997475088,1849.5210504001006,None,1850.792271700222,None,1851.315632100217,None,1851.315632100217,None,n,0.13387540029361844,1851.315632100217,None,,,NC 26,001,2021_Nov_15_1419,ProdSingRedo,3.2.3,59.944311798791546,
,,,,170,0,170,0,,,,,,,,,,,,,,,,,,,,,,,,1853.6481039999053,None,,,,,,,,,,,,,,,,,under,new_c,white,170,173,343,1852.003636999987,None,1852.003636999987,None,1,0.9897098997607827,1852.003636999987,None,1853.0433673001826,None,1853.5495146000758,None,1853.5495146000758,None,n,0.05986330006271601,1853.5495146000758,None,,,NC 26,001,2021_Nov_15_1419,ProdSingRedo,3.2.3,59.944311798791546,
,,,,171,0,171,0,,,,,,,,,,,,,,,,,,,,,,,,1855.9172670999542,None,,,,,,,,,,,,,,,,,frank,new_a,white,171,92,133,1854.1777730998583,None,1854.1777730998583,None,1,1.0635862997733057,1854.1777730998583,None,1855.286410199944,None,1855.8033765000291,None,1855.8033765000291,None,n,0.08604060020297766,1855.8033765000291,None,,,NC 26,001,2021_Nov_15_1419,ProdSingRedo,3.2.3,59.944311798791546,
,,,,172,0,172,0,,,,,,,,,,,,,,,,,,,,,,,,1857.9824811001308,None,,,,,,,,,,,,,,,,,trail,new_a,white,172,109,336,1856.443491099868,None,1856.443491099868,None,1,0.9498597998172045,1856.443491099868,None,1857.433890500106,None,1857.9583829999901,None,1857.9583829999901,None,n,0.010721100028604269,1857.9583829999901,None,,,NC 26,001,2021_Nov_15_1419,ProdSingRedo,3.2.3,59.944311798791546,
,,,,173,0,173,0,,,,,,,,,,,,,,,,,,,,,,,,1860.2216554000042,None,,,,,,,,,,,,,,,,,place,new_c,white,173,175,222,1858.510029300116,None,1858.510029300116,None,1,1.05135009996593,1858.510029300116,None,1859.6055784001946,None,1860.1225393000059,None,1860.1225393000059,None,n,0.06282610027119517,1860.1225393000059,None,,,NC 26,001,2021_Nov_15_1419,ProdSingRedo,3.2.3,59.944311798791546,
,,,,174,0,174,0,,,,,,,,,,,,,,,,,,,,,,,,1862.6104517998174,None,,,,,,,,,,,,,,,,,story,new_c,white,174,161,306,1860.7458425001241,None,1860.7458425001241,None,1,1.2314728000201285,1860.7458425001241,None,1862.0158175998367,None,1862.5259382999502,None,1862.5259382999502,None,n,0.051358799915760756,1862.5259382999502,None,,,NC 26,001,2021_Nov_15_1419,ProdSingRedo,3.2.3,59.944311798791546,
,,,,175,0,175,0,,,,,,,,,,,,,,,,,,,,,,,,1865.7431088001467,None,,,,,,,,,,,,,,,,,color,new_a,white,175,90,56,1863.1274569998495,None,1863.1274569998495,None,1,1.5539108999073505,1863.1274569998495,None,1864.7201096001081,None,1865.2274688999169,None,1865.2274688999169,None,n,0.493913599755615,1865.2274688999169,None,,,NC 26,001,2021_Nov_15_1419,ProdSingRedo,3.2.3,59.944311798791546,
,,,,176,0,176,0,,,,,,,,,,,,,,,,,,,,,,,,1868.3794296002015,None,,,,,,,,,,,,,,,,,degree,sing,white,176,29,89,1866.2676838999614,None,1866.2676838999614,None,1,1.389706900343299,1866.2676838999614,None,1867.7105471999384,None,1868.232452900149,None,1868.232452900149,None,n,0.12114090006798506,1868.232452900149,None,,,NC 26,001,2021_Nov_15_1419,ProdSingRedo,3.2.3,59.944311798791546,
,,,,177,0,177,0,,,,,,,,,,,,,,,,,,,,,,,,1873.8673935998231,None,,,,,,,,,,,,,,,,,victory,new_c,white,177,165,346,1868.9064003000967,None,1868.9064003000967,None,3,3.183059699833393,1868.9064003000967,None,1872.1291204001755,None,1872.6564879999496,None,1872.6564879999496,None,f,1.1771378996782005,1872.6564879999496,None,,,NC 26,001,2021_Nov_15_1419,ProdSingRedo,3.2.3,59.944311798791546,
,,,,178,0,178,0,,,,,,,,,,,,,,,,,,,,,,,,1876.6879853000864,None,,,,,,,,,,,,,,,,,escape,new_a,white,178,113,118,1874.3947883001529,None,1874.3947883001529,None,3,1.5666791996918619,1874.3947883001529,None,1875.9971361998469,None,1876.5084016001783,None,1876.5084016001783,None,f,0.157103699631989,1876.5084016001783,None,,,NC 26,001,2021_Nov_15_1419,ProdSingRedo,3.2.3,59.944311798791546,
,,,,179,0,179,0,,,,,,,,,,,,,,,,,,,,,,,,1879.2166659999639,None,,,,,,,,,,,,,,,,,equipment,aloud,white,179,57,116,1877.2190017001703,None,1877.2190017001703,None,1,1.2540009999647737,1877.2190017001703,None,1878.5073970002122,None,1879.0483532999642,None,1879.0483532999642,None,n,0.15260970033705235,1879.0483532999642,None,,,NC 26,001,2021_Nov_15_1419,ProdSingRedo,3.2.3,59.944311798791546,
,,,,,,,,,,,,,,,,,,,,,,,,,,,,,,,,,,,,,,,,,,,,,,,,,,,,,,,,,,,,,,,,,,,,,,,,,1879.7175401002169,None,,,,,,,
