StudyLoop.thisRepN,StudyLoop.thisTrialN,StudyLoop.thisN,StudyLoop.thisIndex,TestLoop.thisRepN,TestLoop.thisTrialN,TestLoop.thisN,TestLoop.thisIndex,textCondition.started,textCondition.stopped,keyCondition.keys,keyCondition.rt,keyCondition.started,keyCondition.stopped,Condition,stim_colors,color_sing,color_aloud,color_silent,textWelcome.started,textWelcome.stopped,keyWelcome.keys,keyWelcome.rt,keyWelcome.started,keyWelcome.stopped,textAloud.started,textAloud.stopped,textSilent.started,textSilent.stopped,textSing.started,textSing.stopped,textBlank500.started,textBlank500.stopped,study_word,study_type,study_color,study_num,study_word_num,textStudy.started,textStudy.stopped,keyStudy.keys,keyStudy.started,keyStudy.stopped,textTestInstructions.started,textTestInstructions.stopped,key_resp_3.keys,key_resp_3.rt,key_resp_3.started,key_resp_3.stopped,testWord,testType,testColor,testN,test_num,test_word_num,textConf.started,textConf.stopped,textConfScale.started,textConfScale.stopped,keyConf.keys,keyConf.rt,keyConf.started,keyConf.stopped,textTestBlank.started,textTestBlank.stopped,textRKN.started,textRKN.stopped,textRKNScale.started,textRKNScale.stopped,keyRKN.keys,keyRKN.rt,keyRKN.started,keyRKN.stopped,textEnd.started,textEnd.stopped,participant,session,date,expName,psychopyVersion,frameRate,
,,,,,,,,30.821700899861753,None,n,4.0811908999457955,30.821700899861753,None,,,,,,,,,,,,,,,,,,,,,,,,,,,,,,,,,,,,,,,,,,,,,,,,,,,,,,,,,,,,,,NC 25,001,2021_Nov_15_1319,ProdSingRedo,3.2.3,59.90918969806171,
,,,,,,,,,,,,,,NeutralTest,"['blue', 'yellow', 'red']",blue,yellow,red,34.93973710015416,None,space,2463.7328453999944,34.93973710015416,None,,,,,,,,,,,,,,,,,,,,,,,,,,,,,,,,,,,,,,,,,,,,,,,,,,,NC 25,001,2021_Nov_15_1319,ProdSingRedo,3.2.3,59.90918969806171,
0,0,0,0,,,,,,,,,,,,,,,,,,,,,,34.93973710015416,None,34.93973710015416,None,34.93973710015416,None,2501.2188059999608,None,device,silent,red,61,93,2499.221516699996,None,None,2499.221516699996,None,,,,,,,,,,,,,,,,,,,,,,,,,,,,,,,,,NC 25,001,2021_Nov_15_1319,ProdSingRedo,3.2.3,59.90918969806171,
1,0,1,0,,,,,,,,,,,,,,,,,,,,,,,,,,,,2503.7380153001286,None,author,aloud,yellow,35,15,2501.7315235999413,None,None,2501.7315235999413,None,,,,,,,,,,,,,,,,,,,,,,,,,,,,,,,,,NC 25,001,2021_Nov_15_1319,ProdSingRedo,3.2.3,59.90918969806171,
2,0,2,0,,,,,,,,,,,,,,,,,,,,,,,,,,,,2506.2571717998944,None,drama,aloud,yellow,34,103,2504.250153000001,None,None,2504.250153000001,None,,,,,,,,,,,,,,,,,,,,,,,,,,,,,,,,,NC 25,001,2021_Nov_15_1319,ProdSingRedo,3.2.3,59.90918969806171,
3,0,3,0,,,,,,,,,,,,,,,,,,,,,,,,,,,,2508.7764142998494,None,bitter,aloud,yellow,40,23,2506.776695200242,None,None,2506.776695200242,None,,,,,,,,,,,,,,,,,,,,,,,,,,,,,,,,,NC 25,001,2021_Nov_15_1319,ProdSingRedo,3.2.3,59.90918969806171,
4,0,4,0,,,,,,,,,,,,,,,,,,,,,,,,,,,,2511.2955801999196,None,rapid,silent,red,89,252,2509.289342999924,None,None,2509.289342999924,None,,,,,,,,,,,,,,,,,,,,,,,,,,,,,,,,,NC 25,001,2021_Nov_15_1319,ProdSingRedo,3.2.3,59.90918969806171,
5,0,5,0,,,,,,,,,,,,,,,,,,,,,,,,,,,,2513.814724000171,None,level,aloud,yellow,32,170,2511.805865000002,None,None,2511.805865000002,None,,,,,,,,,,,,,,,,,,,,,,,,,,,,,,,,,NC 25,001,2021_Nov_15_1319,ProdSingRedo,3.2.3,59.90918969806171,
6,0,6,0,,,,,,,,,,,,,,,,,,,,,,,,,,,,2516.3339641001076,None,council,aloud,yellow,30,71,2514.3270483003,None,None,2514.3270483003,None,,,,,,,,,,,,,,,,,,,,,,,,,,,,,,,,,NC 25,001,2021_Nov_15_1319,ProdSingRedo,3.2.3,59.90918969806171,
7,0,7,0,,,,,,,,,,,,,,,,,,,,,,,,,,,,2518.853130800184,None,detective,aloud,yellow,43,92,2516.8488246002235,None,None,2516.8488246002235,None,,,,,,,,,,,,,,,,,,,,,,,,,,,,,,,,,NC 25,001,2021_Nov_15_1319,ProdSingRedo,3.2.3,59.90918969806171,
8,0,8,0,,,,,,,,,,,,,,,,,,,,,,,,,,,,2521.372280499898,None,congress,sing,blue,8,67,2519.366661900189,None,None,2519.366661900189,None,,,,,,,,,,,,,,,,,,,,,,,,,,,,,,,,,NC 25,001,2021_Nov_15_1319,ProdSingRedo,3.2.3,59.90918969806171,
9,0,9,0,,,,,,,,,,,,,,,,,,,,,,,,,,,,2523.891460100189,None,fellow,aloud,yellow,59,126,2521.8817545999773,None,None,2521.8817545999773,None,,,,,,,,,,,,,,,,,,,,,,,,,,,,,,,,,NC 25,001,2021_Nov_15_1319,ProdSingRedo,3.2.3,59.90918969806171,
10,0,10,0,,,,,,,,,,,,,,,,,,,,,,,,,,,,2526.410617900081,None,material,aloud,yellow,44,182,2524.405572200194,None,None,2524.405572200194,None,,,,,,,,,,,,,,,,,,,,,,,,,,,,,,,,,NC 25,001,2021_Nov_15_1319,ProdSingRedo,3.2.3,59.90918969806171,
11,0,11,0,,,,,,,,,,,,,,,,,,,,,,,,,,,,2528.9298367998563,None,alert,sing,blue,26,6,2526.920530800242,None,None,2526.920530800242,None,,,,,,,,,,,,,,,,,,,,,,,,,,,,,,,,,NC 25,001,2021_Nov_15_1319,ProdSingRedo,3.2.3,59.90918969806171,
12,0,12,0,,,,,,,,,,,,,,,,,,,,,,,,,,,,2531.4323885003105,None,center,sing,blue,2,44,2529.4302477003075,None,None,2529.4302477003075,None,,,,,,,,,,,,,,,,,,,,,,,,,,,,,,,,,NC 25,001,2021_Nov_15_1319,ProdSingRedo,3.2.3,59.90918969806171,
13,0,13,0,,,,,,,,,,,,,,,,,,,,,,,,,,,,2533.951599400025,None,block,aloud,yellow,53,25,2531.9498482001945,None,None,2531.9498482001945,None,,,,,,,,,,,,,,,,,,,,,,,,,,,,,,,,,NC 25,001,2021_Nov_15_1319,ProdSingRedo,3.2.3,59.90918969806171,
14,0,14,0,,,,,,,,,,,,,,,,,,,,,,,,,,,,2536.470794199966,None,management,silent,red,73,177,2534.468416800257,None,None,2534.468416800257,None,,,,,,,,,,,,,,,,,,,,,,,,,,,,,,,,,NC 25,001,2021_Nov_15_1319,ProdSingRedo,3.2.3,59.90918969806171,
15,0,15,0,,,,,,,,,,,,,,,,,,,,,,,,,,,,2538.989891000092,None,election,silent,red,75,109,2536.980186200235,None,None,2536.980186200235,None,,,,,,,,,,,,,,,,,,,,,,,,,,,,,,,,,NC 25,001,2021_Nov_15_1319,ProdSingRedo,3.2.3,59.90918969806171,
16,0,16,0,,,,,,,,,,,,,,,,,,,,,,,,,,,,2541.509127799887,None,column,sing,blue,29,57,2539.503082100302,None,None,2539.503082100302,None,,,,,,,,,,,,,,,,,,,,,,,,,,,,,,,,,NC 25,001,2021_Nov_15_1319,ProdSingRedo,3.2.3,59.90918969806171,
17,0,17,0,,,,,,,,,,,,,,,,,,,,,,,,,,,,2544.0282751000486,None,relation,aloud,yellow,52,257,2542.0246343002655,None,None,2542.0246343002655,None,,,,,,,,,,,,,,,,,,,,,,,,,,,,,,,,,NC 25,001,2021_Nov_15_1319,ProdSingRedo,3.2.3,59.90918969806171,
18,0,18,0,,,,,,,,,,,,,,,,,,,,,,,,,,,,2546.547499100212,None,review,silent,red,68,263,2544.5454885000363,None,None,2544.5454885000363,None,,,,,,,,,,,,,,,,,,,,,,,,,,,,,,,,,NC 25,001,2021_Nov_15_1319,ProdSingRedo,3.2.3,59.90918969806171,
19,0,19,0,,,,,,,,,,,,,,,,,,,,,,,,,,,,2549.066693600267,None,contract,aloud,yellow,41,68,2547.061504600104,None,None,2547.061504600104,None,,,,,,,,,,,,,,,,,,,,,,,,,,,,,,,,,NC 25,001,2021_Nov_15_1319,ProdSingRedo,3.2.3,59.90918969806171,
20,0,20,0,,,,,,,,,,,,,,,,,,,,,,,,,,,,2551.585833699908,None,comfort,silent,red,69,59,2549.5826813001186,None,None,2549.5826813001186,None,,,,,,,,,,,,,,,,,,,,,,,,,,,,,,,,,NC 25,001,2021_Nov_15_1319,ProdSingRedo,3.2.3,59.90918969806171,
21,0,21,0,,,,,,,,,,,,,,,,,,,,,,,,,,,,2554.106750200037,None,history,silent,red,85,153,2552.1053110999055,None,None,2552.1053110999055,None,,,,,,,,,,,,,,,,,,,,,,,,,,,,,,,,,NC 25,001,2021_Nov_15_1319,ProdSingRedo,3.2.3,59.90918969806171,
22,0,22,0,,,,,,,,,,,,,,,,,,,,,,,,,,,,2556.6239339001477,None,brief,sing,blue,14,28,2554.6121294000186,None,None,2554.6121294000186,None,,,,,,,,,,,,,,,,,,,,,,,,,,,,,,,,,NC 25,001,2021_Nov_15_1319,ProdSingRedo,3.2.3,59.90918969806171,
23,0,23,0,,,,,,,,,,,,,,,,,,,,,,,,,,,,2559.1433908999898,None,piece,sing,blue,20,221,2557.1382043003105,None,None,2557.1382043003105,None,,,,,,,,,,,,,,,,,,,,,,,,,,,,,,,,,NC 25,001,2021_Nov_15_1319,ProdSingRedo,3.2.3,59.90918969806171,
24,0,24,0,,,,,,,,,,,,,,,,,,,,,,,,,,,,2561.6459186999127,None,graduate,sing,blue,23,141,2559.6444188002497,None,None,2559.6444188002497,None,,,,,,,,,,,,,,,,,,,,,,,,,,,,,,,,,NC 25,001,2021_Nov_15_1319,ProdSingRedo,3.2.3,59.90918969806171,
25,0,25,0,,,,,,,,,,,,,,,,,,,,,,,,,,,,2564.165140100289,None,permit,sing,blue,12,218,2562.1573157999665,None,None,2562.1573157999665,None,,,,,,,,,,,,,,,,,,,,,,,,,,,,,,,,,NC 25,001,2021_Nov_15_1319,ProdSingRedo,3.2.3,59.90918969806171,
26,0,26,0,,,,,,,,,,,,,,,,,,,,,,,,,,,,2566.6844260999933,None,gesture,silent,red,83,137,2564.6808861000463,None,None,2564.6808861000463,None,,,,,,,,,,,,,,,,,,,,,,,,,,,,,,,,,NC 25,001,2021_Nov_15_1319,ProdSingRedo,3.2.3,59.90918969806171,
27,0,27,0,,,,,,,,,,,,,,,,,,,,,,,,,,,,2569.203481500037,None,write,sing,blue,28,358,2567.1953757000156,None,None,2567.1953757000156,None,,,,,,,,,,,,,,,,,,,,,,,,,,,,,,,,,NC 25,001,2021_Nov_15_1319,ProdSingRedo,3.2.3,59.90918969806171,
28,0,28,0,,,,,,,,,,,,,,,,,,,,,,,,,,,,2571.7226030998863,None,rural,sing,blue,11,269,2569.719472799916,None,None,2569.719472799916,None,,,,,,,,,,,,,,,,,,,,,,,,,,,,,,,,,NC 25,001,2021_Nov_15_1319,ProdSingRedo,3.2.3,59.90918969806171,
29,0,29,0,,,,,,,,,,,,,,,,,,,,,,,,,,,,2574.241815000307,None,primary,aloud,yellow,37,234,2572.2408119002357,None,None,2572.2408119002357,None,,,,,,,,,,,,,,,,,,,,,,,,,,,,,,,,,NC 25,001,2021_Nov_15_1319,ProdSingRedo,3.2.3,59.90918969806171,
30,0,30,0,,,,,,,,,,,,,,,,,,,,,,,,,,,,2576.761033200193,None,meeting,silent,red,87,187,2574.752909100149,None,None,2574.752909100149,None,,,,,,,,,,,,,,,,,,,,,,,,,,,,,,,,,NC 25,001,2021_Nov_15_1319,ProdSingRedo,3.2.3,59.90918969806171,
31,0,31,0,,,,,,,,,,,,,,,,,,,,,,,,,,,,2579.2802216000855,None,straight,aloud,yellow,38,307,2577.279451600276,None,None,2577.279451600276,None,,,,,,,,,,,,,,,,,,,,,,,,,,,,,,,,,NC 25,001,2021_Nov_15_1319,ProdSingRedo,3.2.3,59.90918969806171,
32,0,32,0,,,,,,,,,,,,,,,,,,,,,,,,,,,,2581.7990072001703,None,medicine,silent,red,67,186,2579.79154190002,None,None,2579.79154190002,None,,,,,,,,,,,,,,,,,,,,,,,,,,,,,,,,,NC 25,001,2021_Nov_15_1319,ProdSingRedo,3.2.3,59.90918969806171,
33,0,33,0,,,,,,,,,,,,,,,,,,,,,,,,,,,,2584.318455300294,None,testimony,silent,red,66,325,2582.3145495001227,None,None,2582.3145495001227,None,,,,,,,,,,,,,,,,,,,,,,,,,,,,,,,,,NC 25,001,2021_Nov_15_1319,ProdSingRedo,3.2.3,59.90918969806171,
34,0,34,0,,,,,,,,,,,,,,,,,,,,,,,,,,,,2586.8375556999817,None,broad,aloud,yellow,39,31,2584.836333299987,None,None,2584.836333299987,None,,,,,,,,,,,,,,,,,,,,,,,,,,,,,,,,,NC 25,001,2021_Nov_15_1319,ProdSingRedo,3.2.3,59.90918969806171,
35,0,35,0,,,,,,,,,,,,,,,,,,,,,,,,,,,,2589.3565993001685,None,subject,aloud,yellow,49,312,2587.358604399953,None,None,2587.358604399953,None,,,,,,,,,,,,,,,,,,,,,,,,,,,,,,,,,NC 25,001,2021_Nov_15_1319,ProdSingRedo,3.2.3,59.90918969806171,
36,0,36,0,,,,,,,,,,,,,,,,,,,,,,,,,,,,2591.8594939000905,None,season,sing,blue,6,277,2589.85723110009,None,None,2589.85723110009,None,,,,,,,,,,,,,,,,,,,,,,,,,,,,,,,,,NC 25,001,2021_Nov_15_1319,ProdSingRedo,3.2.3,59.90918969806171,
37,0,37,0,,,,,,,,,,,,,,,,,,,,,,,,,,,,2594.3786718999036,None,crowd,silent,red,84,81,2592.372255800292,None,None,2592.372255800292,None,,,,,,,,,,,,,,,,,,,,,,,,,,,,,,,,,NC 25,001,2021_Nov_15_1319,ProdSingRedo,3.2.3,59.90918969806171,
38,0,38,0,,,,,,,,,,,,,,,,,,,,,,,,,,,,2596.8978625000454,None,welcome,sing,blue,13,354,2594.8898865999654,None,None,2594.8898865999654,None,,,,,,,,,,,,,,,,,,,,,,,,,,,,,,,,,NC 25,001,2021_Nov_15_1319,ProdSingRedo,3.2.3,59.90918969806171,
39,0,39,0,,,,,,,,,,,,,,,,,,,,,,,,,,,,2599.416979299858,None,oxygen,silent,red,79,209,2597.4125204999,None,None,2597.4125204999,None,,,,,,,,,,,,,,,,,,,,,,,,,,,,,,,,,NC 25,001,2021_Nov_15_1319,ProdSingRedo,3.2.3,59.90918969806171,
40,0,40,0,,,,,,,,,,,,,,,,,,,,,,,,,,,,2601.9362041000277,None,carry,aloud,yellow,33,43,2599.930554300081,None,None,2599.930554300081,None,,,,,,,,,,,,,,,,,,,,,,,,,,,,,,,,,NC 25,001,2021_Nov_15_1319,ProdSingRedo,3.2.3,59.90918969806171,
41,0,41,0,,,,,,,,,,,,,,,,,,,,,,,,,,,,2604.4553677998483,None,universal,sing,blue,16,345,2602.4571390002966,None,None,2602.4571390002966,None,,,,,,,,,,,,,,,,,,,,,,,,,,,,,,,,,NC 25,001,2021_Nov_15_1319,ProdSingRedo,3.2.3,59.90918969806171,
42,0,42,0,,,,,,,,,,,,,,,,,,,,,,,,,,,,2606.9745395001955,None,goose,silent,red,64,138,2604.965592100285,None,None,2604.965592100285,None,,,,,,,,,,,,,,,,,,,,,,,,,,,,,,,,,NC 25,001,2021_Nov_15_1319,ProdSingRedo,3.2.3,59.90918969806171,
43,0,43,0,,,,,,,,,,,,,,,,,,,,,,,,,,,,2609.493714199867,None,expansion,sing,blue,1,123,2607.490223800298,None,None,2607.490223800298,None,,,,,,,,,,,,,,,,,,,,,,,,,,,,,,,,,NC 25,001,2021_Nov_15_1319,ProdSingRedo,3.2.3,59.90918969806171,
44,0,44,0,,,,,,,,,,,,,,,,,,,,,,,,,,,,2612.0128406002186,None,marriage,silent,red,74,179,2610.0131214000285,None,None,2610.0131214000285,None,,,,,,,,,,,,,,,,,,,,,,,,,,,,,,,,,NC 25,001,2021_Nov_15_1319,ProdSingRedo,3.2.3,59.90918969806171,
45,0,45,0,,,,,,,,,,,,,,,,,,,,,,,,,,,,2614.532131700311,None,finance,sing,blue,7,129,2612.5278032999486,None,None,2612.5278032999486,None,,,,,,,,,,,,,,,,,,,,,,,,,,,,,,,,,NC 25,001,2021_Nov_15_1319,ProdSingRedo,3.2.3,59.90918969806171,
46,0,46,0,,,,,,,,,,,,,,,,,,,,,,,,,,,,2617.0513301002793,None,service,sing,blue,9,280,2615.046388800256,None,None,2615.046388800256,None,,,,,,,,,,,,,,,,,,,,,,,,,,,,,,,,,NC 25,001,2021_Nov_15_1319,ProdSingRedo,3.2.3,59.90918969806171,
47,0,47,0,,,,,,,,,,,,,,,,,,,,,,,,,,,,2619.5701133999974,None,reading,sing,blue,22,254,2617.585820400156,None,None,2617.585820400156,None,,,,,,,,,,,,,,,,,,,,,,,,,,,,,,,,,NC 25,001,2021_Nov_15_1319,ProdSingRedo,3.2.3,59.90918969806171,
48,0,48,0,,,,,,,,,,,,,,,,,,,,,,,,,,,,2622.0729558002204,None,route,silent,red,70,267,2620.07091140002,None,None,2620.07091140002,None,,,,,,,,,,,,,,,,,,,,,,,,,,,,,,,,,NC 25,001,2021_Nov_15_1319,ProdSingRedo,3.2.3,59.90918969806171,
49,0,49,0,,,,,,,,,,,,,,,,,,,,,,,,,,,,2624.5921519999392,None,thing,sing,blue,24,328,2622.5861022002064,None,None,2622.5861022002064,None,,,,,,,,,,,,,,,,,,,,,,,,,,,,,,,,,NC 25,001,2021_Nov_15_1319,ProdSingRedo,3.2.3,59.90918969806171,
50,0,50,0,,,,,,,,,,,,,,,,,,,,,,,,,,,,2627.1113809002563,None,machinery,sing,blue,0,175,2625.1116197998635,None,None,2625.1116197998635,None,,,,,,,,,,,,,,,,,,,,,,,,,,,,,,,,,NC 25,001,2021_Nov_15_1319,ProdSingRedo,3.2.3,59.90918969806171,
51,0,51,0,,,,,,,,,,,,,,,,,,,,,,,,,,,,2629.630513300188,None,portion,silent,red,65,228,2627.6218342999928,None,None,2627.6218342999928,None,,,,,,,,,,,,,,,,,,,,,,,,,,,,,,,,,NC 25,001,2021_Nov_15_1319,ProdSingRedo,3.2.3,59.90918969806171,
52,0,52,0,,,,,,,,,,,,,,,,,,,,,,,,,,,,2632.149698500056,None,thick,sing,blue,5,327,2630.141538800206,None,None,2630.141538800206,None,,,,,,,,,,,,,,,,,,,,,,,,,,,,,,,,,NC 25,001,2021_Nov_15_1319,ProdSingRedo,3.2.3,59.90918969806171,
53,0,53,0,,,,,,,,,,,,,,,,,,,,,,,,,,,,2634.6688891001977,None,institute,aloud,yellow,51,162,2632.6638263999484,None,None,2632.6638263999484,None,,,,,,,,,,,,,,,,,,,,,,,,,,,,,,,,,NC 25,001,2021_Nov_15_1319,ProdSingRedo,3.2.3,59.90918969806171,
54,0,54,0,,,,,,,,,,,,,,,,,,,,,,,,,,,,2637.188139699865,None,cousin,sing,blue,27,76,2635.182358399965,None,None,2635.182358399965,None,,,,,,,,,,,,,,,,,,,,,,,,,,,,,,,,,NC 25,001,2021_Nov_15_1319,ProdSingRedo,3.2.3,59.90918969806171,
55,0,55,0,,,,,,,,,,,,,,,,,,,,,,,,,,,,2639.7072976999916,None,captain,silent,red,72,41,2637.70637240028,None,None,2637.70637240028,None,,,,,,,,,,,,,,,,,,,,,,,,,,,,,,,,,NC 25,001,2021_Nov_15_1319,ProdSingRedo,3.2.3,59.90918969806171,
56,0,56,0,,,,,,,,,,,,,,,,,,,,,,,,,,,,2642.2261120001785,None,audience,silent,red,78,14,2640.22068820009,None,None,2640.22068820009,None,,,,,,,,,,,,,,,,,,,,,,,,,,,,,,,,,NC 25,001,2021_Nov_15_1319,ProdSingRedo,3.2.3,59.90918969806171,
57,0,57,0,,,,,,,,,,,,,,,,,,,,,,,,,,,,2644.7456340002827,None,dance,silent,red,71,84,2642.7435866002925,None,None,2642.7435866002925,None,,,,,,,,,,,,,,,,,,,,,,,,,,,,,,,,,NC 25,001,2021_Nov_15_1319,ProdSingRedo,3.2.3,59.90918969806171,
58,0,58,0,,,,,,,,,,,,,,,,,,,,,,,,,,,,2647.2648125998676,None,citizen,sing,blue,4,50,2645.2689129998907,None,None,2645.2689129998907,None,,,,,,,,,,,,,,,,,,,,,,,,,,,,,,,,,NC 25,001,2021_Nov_15_1319,ProdSingRedo,3.2.3,59.90918969806171,
59,0,59,0,,,,,,,,,,,,,,,,,,,,,,,,,,,,2649.784045800101,None,report,aloud,yellow,55,259,2647.77321040025,None,None,2647.77321040025,None,,,,,,,,,,,,,,,,,,,,,,,,,,,,,,,,,NC 25,001,2021_Nov_15_1319,ProdSingRedo,3.2.3,59.90918969806171,
60,0,60,0,,,,,,,,,,,,,,,,,,,,,,,,,,,,2652.3031847001985,None,emergency,aloud,yellow,54,110,2650.299507100135,None,None,2650.299507100135,None,,,,,,,,,,,,,,,,,,,,,,,,,,,,,,,,,NC 25,001,2021_Nov_15_1319,ProdSingRedo,3.2.3,59.90918969806171,
61,0,61,0,,,,,,,,,,,,,,,,,,,,,,,,,,,,2654.8223689002916,None,safety,silent,red,81,270,2652.8198816999793,None,None,2652.8198816999793,None,,,,,,,,,,,,,,,,,,,,,,,,,,,,,,,,,NC 25,001,2021_Nov_15_1319,ProdSingRedo,3.2.3,59.90918969806171,
62,0,62,0,,,,,,,,,,,,,,,,,,,,,,,,,,,,2657.3415858000517,None,whole,sing,blue,15,355,2655.3319351002574,None,None,2655.3319351002574,None,,,,,,,,,,,,,,,,,,,,,,,,,,,,,,,,,NC 25,001,2021_Nov_15_1319,ProdSingRedo,3.2.3,59.90918969806171,
63,0,63,0,,,,,,,,,,,,,,,,,,,,,,,,,,,,2659.8607469000854,None,order,aloud,yellow,45,207,2657.8509974000044,None,None,2657.8509974000044,None,,,,,,,,,,,,,,,,,,,,,,,,,,,,,,,,,NC 25,001,2021_Nov_15_1319,ProdSingRedo,3.2.3,59.90918969806171,
64,0,64,0,,,,,,,,,,,,,,,,,,,,,,,,,,,,2662.3797863000073,None,sight,sing,blue,18,286,2660.3768597999588,None,None,2660.3768597999588,None,,,,,,,,,,,,,,,,,,,,,,,,,,,,,,,,,NC 25,001,2021_Nov_15_1319,ProdSingRedo,3.2.3,59.90918969806171,
65,0,65,0,,,,,,,,,,,,,,,,,,,,,,,,,,,,2664.899102100171,None,distance,aloud,yellow,46,100,2662.8941095001064,None,None,2662.8941095001064,None,,,,,,,,,,,,,,,,,,,,,,,,,,,,,,,,,NC 25,001,2021_Nov_15_1319,ProdSingRedo,3.2.3,59.90918969806171,
66,0,66,0,,,,,,,,,,,,,,,,,,,,,,,,,,,,2667.4015299999155,None,spoke,aloud,yellow,47,300,2665.4014038001187,None,None,2665.4014038001187,None,,,,,,,,,,,,,,,,,,,,,,,,,,,,,,,,,NC 25,001,2021_Nov_15_1319,ProdSingRedo,3.2.3,59.90918969806171,
67,0,67,0,,,,,,,,,,,,,,,,,,,,,,,,,,,,2669.9208519002423,None,commercial,aloud,yellow,57,61,2667.9192170999013,None,None,2667.9192170999013,None,,,,,,,,,,,,,,,,,,,,,,,,,,,,,,,,,NC 25,001,2021_Nov_15_1319,ProdSingRedo,3.2.3,59.90918969806171,
68,0,68,0,,,,,,,,,,,,,,,,,,,,,,,,,,,,2672.439986600075,None,household,sing,blue,17,154,2670.434576500207,None,None,2670.434576500207,None,,,,,,,,,,,,,,,,,,,,,,,,,,,,,,,,,NC 25,001,2021_Nov_15_1319,ProdSingRedo,3.2.3,59.90918969806171,
69,0,69,0,,,,,,,,,,,,,,,,,,,,,,,,,,,,2674.9591747000813,None,sleep,silent,red,62,290,2672.952437200118,None,None,2672.952437200118,None,,,,,,,,,,,,,,,,,,,,,,,,,,,,,,,,,NC 25,001,2021_Nov_15_1319,ProdSingRedo,3.2.3,59.90918969806171,
70,0,70,0,,,,,,,,,,,,,,,,,,,,,,,,,,,,2677.4805974001065,None,union,sing,blue,10,344,2675.4703057999723,None,None,2675.4703057999723,None,,,,,,,,,,,,,,,,,,,,,,,,,,,,,,,,,NC 25,001,2021_Nov_15_1319,ProdSingRedo,3.2.3,59.90918969806171,
71,0,71,0,,,,,,,,,,,,,,,,,,,,,,,,,,,,2679.9974366002716,None,minor,aloud,yellow,48,191,2677.987775700167,None,None,2677.987775700167,None,,,,,,,,,,,,,,,,,,,,,,,,,,,,,,,,,NC 25,001,2021_Nov_15_1319,ProdSingRedo,3.2.3,59.90918969806171,
72,0,72,0,,,,,,,,,,,,,,,,,,,,,,,,,,,,2682.5166902001947,None,guest,silent,red,77,146,2680.511099100113,None,None,2680.511099100113,None,,,,,,,,,,,,,,,,,,,,,,,,,,,,,,,,,NC 25,001,2021_Nov_15_1319,ProdSingRedo,3.2.3,59.90918969806171,
73,0,73,0,,,,,,,,,,,,,,,,,,,,,,,,,,,,2685.035898400005,None,trend,silent,red,60,340,2683.0231242999434,None,None,2683.0231242999434,None,,,,,,,,,,,,,,,,,,,,,,,,,,,,,,,,,NC 25,001,2021_Nov_15_1319,ProdSingRedo,3.2.3,59.90918969806171,
74,0,74,0,,,,,,,,,,,,,,,,,,,,,,,,,,,,2687.5551660000347,None,crisis,aloud,yellow,31,79,2685.555872700177,None,None,2685.555872700177,None,,,,,,,,,,,,,,,,,,,,,,,,,,,,,,,,,NC 25,001,2021_Nov_15_1319,ProdSingRedo,3.2.3,59.90918969806171,
75,0,75,0,,,,,,,,,,,,,,,,,,,,,,,,,,,,2690.074360100087,None,character,silent,red,88,46,2688.072383200284,None,None,2688.072383200284,None,,,,,,,,,,,,,,,,,,,,,,,,,,,,,,,,,NC 25,001,2021_Nov_15_1319,ProdSingRedo,3.2.3,59.90918969806171,
76,0,76,0,,,,,,,,,,,,,,,,,,,,,,,,,,,,2692.5935137001798,None,conference,aloud,yellow,42,66,2690.590487000067,None,None,2690.590487000067,None,,,,,,,,,,,,,,,,,,,,,,,,,,,,,,,,,NC 25,001,2021_Nov_15_1319,ProdSingRedo,3.2.3,59.90918969806171,
77,0,77,0,,,,,,,,,,,,,,,,,,,,,,,,,,,,2695.1126900999807,None,individual,sing,blue,21,160,2693.1126769999973,None,None,2693.1126769999973,None,,,,,,,,,,,,,,,,,,,,,,,,,,,,,,,,,NC 25,001,2021_Nov_15_1319,ProdSingRedo,3.2.3,59.90918969806171,
78,0,78,0,,,,,,,,,,,,,,,,,,,,,,,,,,,,2697.6318810000084,None,exchange,silent,red,63,121,2695.6406871001236,None,None,2695.6406871001236,None,,,,,,,,,,,,,,,,,,,,,,,,,,,,,,,,,NC 25,001,2021_Nov_15_1319,ProdSingRedo,3.2.3,59.90918969806171,
79,0,79,0,,,,,,,,,,,,,,,,,,,,,,,,,,,,2700.1510529001243,None,candidate,silent,red,82,39,2698.1479564001784,None,None,2698.1479564001784,None,,,,,,,,,,,,,,,,,,,,,,,,,,,,,,,,,NC 25,001,2021_Nov_15_1319,ProdSingRedo,3.2.3,59.90918969806171,
80,0,80,0,,,,,,,,,,,,,,,,,,,,,,,,,,,,2702.6702087000012,None,population,aloud,yellow,36,227,2700.6705196001567,None,None,2700.6705196001567,None,,,,,,,,,,,,,,,,,,,,,,,,,,,,,,,,,NC 25,001,2021_Nov_15_1319,ProdSingRedo,3.2.3,59.90918969806171,
81,0,81,0,,,,,,,,,,,,,,,,,,,,,,,,,,,,2705.18945039995,None,damage,sing,blue,19,83,2703.18539540004,None,None,2703.18539540004,None,,,,,,,,,,,,,,,,,,,,,,,,,,,,,,,,,NC 25,001,2021_Nov_15_1319,ProdSingRedo,3.2.3,59.90918969806171,
82,0,82,0,,,,,,,,,,,,,,,,,,,,,,,,,,,,2707.7086074999534,None,leader,sing,blue,3,168,2705.7024656999856,None,None,2705.7024656999856,None,,,,,,,,,,,,,,,,,,,,,,,,,,,,,,,,,NC 25,001,2021_Nov_15_1319,ProdSingRedo,3.2.3,59.90918969806171,
83,0,83,0,,,,,,,,,,,,,,,,,,,,,,,,,,,,2710.2275709998794,None,working,silent,red,80,357,2708.224770599976,None,None,2708.224770599976,None,,,,,,,,,,,,,,,,,,,,,,,,,,,,,,,,,NC 25,001,2021_Nov_15_1319,ProdSingRedo,3.2.3,59.90918969806171,
84,0,84,0,,,,,,,,,,,,,,,,,,,,,,,,,,,,2712.746945099905,None,tragedy,aloud,yellow,58,335,2710.743643499911,None,None,2710.743643499911,None,,,,,,,,,,,,,,,,,,,,,,,,,,,,,,,,,NC 25,001,2021_Nov_15_1319,ProdSingRedo,3.2.3,59.90918969806171,
85,0,85,0,,,,,,,,,,,,,,,,,,,,,,,,,,,,2715.2661764002405,None,article,aloud,yellow,50,11,2713.255360400304,None,None,2713.255360400304,None,,,,,,,,,,,,,,,,,,,,,,,,,,,,,,,,,NC 25,001,2021_Nov_15_1319,ProdSingRedo,3.2.3,59.90918969806171,
86,0,86,0,,,,,,,,,,,,,,,,,,,,,,,,,,,,2717.7853780002333,None,grade,aloud,yellow,56,140,2715.7783532999456,None,None,2715.7783532999456,None,,,,,,,,,,,,,,,,,,,,,,,,,,,,,,,,,NC 25,001,2021_Nov_15_1319,ProdSingRedo,3.2.3,59.90918969806171,
87,0,87,0,,,,,,,,,,,,,,,,,,,,,,,,,,,,2720.3044974002987,None,store,silent,red,86,305,2718.294705499895,None,None,2718.294705499895,None,,,,,,,,,,,,,,,,,,,,,,,,,,,,,,,,,NC 25,001,2021_Nov_15_1319,ProdSingRedo,3.2.3,59.90918969806171,
88,0,88,0,,,,,,,,,,,,,,,,,,,,,,,,,,,,2722.8236783002503,None,angle,sing,blue,25,7,2720.81850189995,None,None,2720.81850189995,None,,,,,,,,,,,,,,,,,,,,,,,,,,,,,,,,,NC 25,001,2021_Nov_15_1319,ProdSingRedo,3.2.3,59.90918969806171,
89,0,89,0,,,,,,,,,,,,,,,,,,,,,,,,,,,,2725.342910400126,None,skill,silent,red,76,289,2723.33617899986,None,None,2723.33617899986,None,,,,,,,,,,,,,,,,,,,,,,,,,,,,,,,,,NC 25,001,2021_Nov_15_1319,ProdSingRedo,3.2.3,59.90918969806171,
,,,,,,,,,,,,,,,,,,,,,,,,,,,,,,,,,,,,,,,,,,,2725.8436310999095,None,k,101.18123590014875,2725.8436310999095,None,,,,,,,,,,,,,,,,,,,,,,,,,,,NC 25,001,2021_Nov_15_1319,ProdSingRedo,3.2.3,59.90918969806171,
,,,,0,0,0,0,,,,,,,,,,,,,,,,,,,,,,,,2844.671095700003,None,,,,,,,,,,,,,,,,,tough,new_c,white,0,162,333,2827.5665080999024,None,2827.5665080999024,None,2,13.362323800101876,2827.5665080999024,None,2840.973975600209,None,2841.4974032999016,None,2841.4974032999016,None,f,3.1357247000560164,2841.4974032999016,None,,,NC 25,001,2021_Nov_15_1319,ProdSingRedo,3.2.3,59.90918969806171,
,,,,1,0,1,0,,,,,,,,,,,,,,,,,,,,,,,,2852.5777436001226,None,,,,,,,,,,,,,,,,,opening,new_c,white,1,152,205,2845.180061700288,None,2845.180061700288,None,3,4.852782600093633,2845.180061700288,None,2850.075306999963,None,2850.594125200063,None,2850.594125200063,None,f,1.9508008998818696,2850.594125200063,None,,,NC 25,001,2021_Nov_15_1319,ProdSingRedo,3.2.3,59.90918969806171,
,,,,2,0,2,0,,,,,,,,,,,,,,,,,,,,,,,,2857.465923700016,None,,,,,,,,,,,,,,,,,primary,aloud,white,2,37,234,2853.108937700279,None,2853.108937700279,None,6,2.72400279995054,2853.108937700279,None,2855.8805177002214,None,2856.407905800268,None,2856.407905800268,None,f,1.0329102999530733,2856.407905800268,None,,,NC 25,001,2021_Nov_15_1319,ProdSingRedo,3.2.3,59.90918969806171,
,,,,3,0,3,0,,,,,,,,,,,,,,,,,,,,,,,,2861.1018326003104,None,,,,,,,,,,,,,,,,,tragedy,aloud,white,3,58,335,2857.9962528999895,None,2857.9962528999895,None,6,1.5721980999223888,2857.9962528999895,None,2859.5974234002642,None,2860.110974499956,None,2860.110974499956,None,r,0.9623209997080266,2860.110974499956,None,,,NC 25,001,2021_Nov_15_1319,ProdSingRedo,3.2.3,59.90918969806171,
,,,,4,0,4,0,,,,,,,,,,,,,,,,,,,,,,,,2864.2561749001034,None,,,,,,,,,,,,,,,,,thick,sing,white,4,5,327,2861.630090500228,None,2861.630090500228,None,6,1.3549553998745978,2861.630090500228,None,2863.0366254001856,None,2863.555384099949,None,2863.555384099949,None,r,0.6696195001713932,2863.555384099949,None,,,NC 25,001,2021_Nov_15_1319,ProdSingRedo,3.2.3,59.90918969806171,
,,,,5,0,5,0,,,,,,,,,,,,,,,,,,,,,,,,2867.776210000273,None,,,,,,,,,,,,,,,,,whole,sing,white,5,15,355,2864.7825307999738,None,2864.7825307999738,None,6,1.5225047003477812,2864.7825307999738,None,2866.3607516000047,None,2866.8787432000972,None,2866.8787432000972,None,f,0.8662804998457432,2866.8787432000972,None,,,NC 25,001,2021_Nov_15_1319,ProdSingRedo,3.2.3,59.90918969806171,
,,,,6,0,6,0,,,,,,,,,,,,,,,,,,,,,,,,2872.480562900193,None,,,,,,,,,,,,,,,,,executive,new_a,white,6,109,122,2868.306414999999,None,2868.306414999999,None,4,2.494498200248927,2868.306414999999,None,2870.851445700042,None,2871.38273689989,None,2871.38273689989,None,f,1.0745810000225902,2871.38273689989,None,,,NC 25,001,2021_Nov_15_1319,ProdSingRedo,3.2.3,59.90918969806171,
,,,,7,0,7,0,,,,,,,,,,,,,,,,,,,,,,,,2877.2610877999105,None,,,,,,,,,,,,,,,,,charter,new_a,white,7,117,47,2873.0079439999536,None,2873.0079439999536,None,2,2.577017799951136,2873.0079439999536,None,2875.635327100288,None,2876.1531372000463,None,2876.1531372000463,None,n,1.0793180000036955,2876.1531372000463,None,,,NC 25,001,2021_Nov_15_1319,ProdSingRedo,3.2.3,59.90918969806171,
,,,,8,0,8,0,,,,,,,,,,,,,,,,,,,,,,,,2881.52116429992,None,,,,,,,,,,,,,,,,,character,silent,white,8,88,46,2877.763011300005,None,2877.763011300005,None,6,2.1415163003839552,2877.763011300005,None,2879.9318526000716,None,2880.4470176999457,None,2880.4470176999457,None,f,1.0418173000216484,2880.4470176999457,None,,,NC 25,001,2021_Nov_15_1319,ProdSingRedo,3.2.3,59.90918969806171,
,,,,9,0,9,0,,,,,,,,,,,,,,,,,,,,,,,,2886.227869000286,None,,,,,,,,,,,,,,,,,provision,new_a,white,9,94,243,2882.052622599993,None,2882.052622599993,None,5,2.6762876003049314,2882.052622599993,None,2884.7697959998623,None,2885.2818893999793,None,2885.2818893999793,None,f,0.919061899650842,2885.2818893999793,None,,,NC 25,001,2021_Nov_15_1319,ProdSingRedo,3.2.3,59.90918969806171,
,,,,10,0,10,0,,,,,,,,,,,,,,,,,,,,,,,,2891.0672887000255,None,,,,,,,,,,,,,,,,,write,sing,white,10,28,358,2886.7535902000964,None,2886.7535902000964,None,4,2.822907999623567,2886.7535902000964,None,2889.6101142000407,None,2890.124142299872,None,2890.124142299872,None,f,0.9168254001997411,2890.124142299872,None,,,NC 25,001,2021_Nov_15_1319,ProdSingRedo,3.2.3,59.90918969806171,
,,,,11,0,11,0,,,,,,,,,,,,,,,,,,,,,,,,2895.573536099866,None,,,,,,,,,,,,,,,,,damage,sing,white,11,19,83,2891.595646200236,None,2891.595646200236,None,5,2.3811765001155436,2891.595646200236,None,2894.026351999957,None,2894.5424844999798,None,2894.5424844999798,None,f,0.9945656997151673,2894.5424844999798,None,,,NC 25,001,2021_Nov_15_1319,ProdSingRedo,3.2.3,59.90918969806171,
,,,,12,0,12,0,,,,,,,,,,,,,,,,,,,,,,,,2900.7251364002004,None,,,,,,,,,,,,,,,,,income,new_c,white,12,173,159,2896.093043900095,None,2896.093043900095,None,2,3.139781200326979,2896.093043900095,None,2899.2689475999214,None,2899.790784300305,None,2899.790784300305,None,f,0.8983173999004066,2899.790784300305,None,,,NC 25,001,2021_Nov_15_1319,ProdSingRedo,3.2.3,59.90918969806171,
,,,,13,0,13,0,,,,,,,,,,,,,,,,,,,,,,,,2904.129349700175,None,,,,,,,,,,,,,,,,,audience,silent,white,13,78,14,2901.251862899866,None,2901.251862899866,None,5,1.7891132002696395,2901.251862899866,None,2903.0925747002475,None,2903.6164426999167,None,2903.6164426999167,None,r,0.48050379985943437,2903.6164426999167,None,,,NC 25,001,2021_Nov_15_1319,ProdSingRedo,3.2.3,59.90918969806171,
,,,,14,0,14,0,,,,,,,,,,,,,,,,,,,,,,,,2908.8651740001515,None,,,,,,,,,,,,,,,,,sight,sing,white,14,18,286,2904.657338500023,None,2904.657338500023,None,4,2.527634599711746,2904.657338500023,None,2907.229407399893,None,2907.741802799981,None,2907.741802799981,None,f,1.091240500099957,2907.741802799981,None,,,NC 25,001,2021_Nov_15_1319,ProdSingRedo,3.2.3,59.90918969806171,
,,,,15,0,15,0,,,,,,,,,,,,,,,,,,,,,,,,2913.120722600259,None,,,,,,,,,,,,,,,,,break,new_a,white,15,97,26,2909.3931448999792,None,2909.3931448999792,None,1,2.3678103000856936,2909.3931448999792,None,2911.8080247002654,None,2912.327350300271,None,2912.327350300271,None,f,0.7699229996651411,2912.327350300271,None,,,NC 25,001,2021_Nov_15_1319,ProdSingRedo,3.2.3,59.90918969806171,
,,,,16,0,16,0,,,,,,,,,,,,,,,,,,,,,,,,2917.2591074001975,None,,,,,,,,,,,,,,,,,spoke,aloud,white,16,47,300,2913.6499907001853,None,2913.6499907001853,None,6,2.406960300169885,2913.6499907001853,None,2916.1051922002807,None,2916.6019692001864,None,2916.6019692001864,None,f,0.6310600996948779,2916.6019692001864,None,,,NC 25,001,2021_Nov_15_1319,ProdSingRedo,3.2.3,59.90918969806171,
,,,,17,0,17,0,,,,,,,,,,,,,,,,,,,,,,,,2920.7387001002207,None,,,,,,,,,,,,,,,,,detective,aloud,white,17,43,92,2917.788267800119,None,2917.788267800119,None,6,1.9082515998743474,2917.788267800119,None,2919.7245620000176,None,2920.247792799957,None,2920.247792799957,None,r,0.46512189973145723,2920.247792799957,None,,,NC 25,001,2021_Nov_15_1319,ProdSingRedo,3.2.3,59.90918969806171,
,,,,18,0,18,0,,,,,,,,,,,,,,,,,,,,,,,,2926.189700299874,None,,,,,,,,,,,,,,,,,command,new_a,white,18,111,60,2921.263094500173,None,2921.263094500173,None,4,3.697954600211233,2921.263094500173,None,2925.0162050002255,None,2925.5366974999197,None,2925.5366974999197,None,f,0.6163671999238431,2925.5366974999197,None,,,NC 25,001,2021_Nov_15_1319,ProdSingRedo,3.2.3,59.90918969806171,
,,,,19,0,19,0,,,,,,,,,,,,,,,,,,,,,,,,2931.555503600277,None,,,,,,,,,,,,,,,,,range,new_a,white,19,119,251,2926.7159346002154,None,2926.7159346002154,None,3,3.1574415997602046,2926.7159346002154,None,2929.9218843001872,None,2930.443109800108,None,2930.443109800108,None,f,1.0857945997267962,2930.443109800108,None,,,NC 25,001,2021_Nov_15_1319,ProdSingRedo,3.2.3,59.90918969806171,
,,,,20,0,20,0,,,,,,,,,,,,,,,,,,,,,,,,2936.1612563002855,None,,,,,,,,,,,,,,,,,suspect,new_a,white,20,100,318,2932.085584499873,None,2932.085584499873,None,4,3.0753772002644837,2932.085584499873,None,2935.2091096001677,None,2935.7126819998957,None,2935.7126819998957,None,r,0.41631060000509024,2935.7126819998957,None,,,NC 25,001,2021_Nov_15_1319,ProdSingRedo,3.2.3,59.90918969806171,
,,,,21,0,21,0,,,,,,,,,,,,,,,,,,,,,,,,2940.114507799968,None,,,,,,,,,,,,,,,,,goose,silent,white,21,64,138,2936.6850807000883,None,2936.6850807000883,None,1,1.892033999785781,2936.6850807000883,None,2938.6214083000086,None,2939.1347652999684,None,2939.1347652999684,None,f,0.946223400067538,2939.1347652999684,None,,,NC 25,001,2021_Nov_15_1319,ProdSingRedo,3.2.3,59.90918969806171,
,,,,22,0,22,0,,,,,,,,,,,,,,,,,,,,,,,,2943.4271911000833,None,,,,,,,,,,,,,,,,,cousin,sing,white,22,27,76,2940.628065899946,None,2940.628065899946,None,6,1.7328611998818815,2940.628065899946,None,2942.404872099869,None,2942.9102497999556,None,2942.9102497999556,None,f,0.49826329993084073,2942.9102497999556,None,,,NC 25,001,2021_Nov_15_1319,ProdSingRedo,3.2.3,59.90918969806171,
,,,,23,0,23,0,,,,,,,,,,,,,,,,,,,,,,,,2947.1938474001363,None,,,,,,,,,,,,,,,,,broad,aloud,white,23,39,31,2943.9475561999716,None,2943.9475561999716,None,5,2.189542999956757,2943.9475561999716,None,2946.181624500081,None,2946.699593100231,None,2946.699593100231,None,f,0.46129299979656935,2946.699593100231,None,,,NC 25,001,2021_Nov_15_1319,ProdSingRedo,3.2.3,59.90918969806171,
,,,,24,0,24,0,,,,,,,,,,,,,,,,,,,,,,,,2951.544973200187,None,,,,,,,,,,,,,,,,,smell,new_b,white,24,139,291,2947.7144869002514,None,2947.7144869002514,None,2,1.8780605997890234,2947.7144869002514,None,2949.6199997998774,None,2950.1342346998863,None,2950.1342346998863,None,f,1.3787548998370767,2950.1342346998863,None,,,NC 25,001,2021_Nov_15_1319,ProdSingRedo,3.2.3,59.90918969806171,
,,,,25,0,25,0,,,,,,,,,,,,,,,,,,,,,,,,2957.0983171998523,None,,,,,,,,,,,,,,,,,short,new_a,white,25,118,285,2952.065930500161,None,2952.065930500161,None,2,3.407064899802208,2952.065930500161,None,2955.50407289993,None,2956.0138334999792,None,2956.0138334999792,None,f,1.0592360999435186,2956.0138334999792,None,,,NC 25,001,2021_Nov_15_1319,ProdSingRedo,3.2.3,59.90918969806171,
,,,,26,0,26,0,,,,,,,,,,,,,,,,,,,,,,,,2962.052527300082,None,,,,,,,,,,,,,,,,,portion,silent,white,26,65,228,2957.6202099001966,None,2957.6202099001966,None,4,3.1248608003370464,2957.6202099001966,None,2960.7809651000425,None,2961.300181500148,None,2961.300181500148,None,f,0.7169703999534249,2961.300181500148,None,,,NC 25,001,2021_Nov_15_1319,ProdSingRedo,3.2.3,59.90918969806171,
,,,,27,0,27,0,,,,,,,,,,,,,,,,,,,,,,,,2966.75679080002,None,,,,,,,,,,,,,,,,,alert,sing,white,27,26,6,2962.5782615002245,None,2962.5782615002245,None,4,2.8226268999278545,2962.5782615002245,None,2965.434124799911,None,2965.941349199973,None,2965.941349199973,None,f,0.7795090000145137,2965.941349199973,None,,,NC 25,001,2021_Nov_15_1319,ProdSingRedo,3.2.3,59.90918969806171,
,,,,28,0,28,0,,,,,,,,,,,,,,,,,,,,,,,,2972.514331600163,None,,,,,,,,,,,,,,,,,husband,new_a,white,28,110,156,2967.2892587999813,None,2967.2892587999813,None,2,3.663807200267911,2967.2892587999813,None,2971.0030891001225,None,2971.522908899933,None,2971.522908899933,None,f,0.957937499973923,2971.522908899933,None,,,NC 25,001,2021_Nov_15_1319,ProdSingRedo,3.2.3,59.90918969806171,
,,,,29,0,29,0,,,,,,,,,,,,,,,,,,,,,,,,2976.967797299847,None,,,,,,,,,,,,,,,,,universal,sing,white,29,16,345,2973.0482160001993,None,2973.0482160001993,None,6,2.920870200265199,2973.0482160001993,None,2976.0207389001735,None,2976.5396333001554,None,2976.5396333001554,None,r,0.39737269980832934,2976.5396333001554,None,,,NC 25,001,2021_Nov_15_1319,ProdSingRedo,3.2.3,59.90918969806171,
,,,,30,0,30,0,,,,,,,,,,,,,,,,,,,,,,,,2980.772838000208,None,,,,,,,,,,,,,,,,,style,new_b,white,30,123,311,2977.492823800072,None,2977.492823800072,None,1,2.0117345000617206,2977.492823800072,None,2979.529924800154,None,2980.0309464000165,None,2980.0309464000165,None,f,0.7140718000009656,2980.0309464000165,None,,,NC 25,001,2021_Nov_15_1319,ProdSingRedo,3.2.3,59.90918969806171,
,,,,31,0,31,0,,,,,,,,,,,,,,,,,,,,,,,,2987.0840707998723,None,,,,,,,,,,,,,,,,,music,new_a,white,31,108,196,2981.3017621999606,None,2981.3017621999606,None,2,3.6032719002105296,2981.3017621999606,None,2984.9563867002726,None,2985.4615992000327,None,2985.4615992000327,None,r,1.579415800049901,2985.4615992000327,None,,,NC 25,001,2021_Nov_15_1319,ProdSingRedo,3.2.3,59.90918969806171,
,,,,32,0,32,0,,,,,,,,,,,,,,,,,,,,,,,,2990.3711926001124,None,,,,,,,,,,,,,,,,,sleep,silent,white,32,62,290,2987.599863199983,None,2987.599863199983,None,3,1.5532399001531303,2987.599863199983,None,2989.18970380025,None,2989.6983214002103,None,2989.6983214002103,None,f,0.6385754998773336,2989.6983214002103,None,,,NC 25,001,2021_Nov_15_1319,ProdSingRedo,3.2.3,59.90918969806171,
,,,,33,0,33,0,,,,,,,,,,,,,,,,,,,,,,,,2993.7527227001265,None,,,,,,,,,,,,,,,,,machinery,sing,white,33,0,175,2990.8989431001246,None,2990.8989431001246,None,6,1.5822216998785734,2990.8989431001246,None,2992.5506481002085,None,2993.0568413999863,None,2993.0568413999863,None,f,0.6720409002155066,2993.0568413999863,None,,,NC 25,001,2021_Nov_15_1319,ProdSingRedo,3.2.3,59.90918969806171,
,,,,34,0,34,0,,,,,,,,,,,,,,,,,,,,,,,,2998.288916000165,None,,,,,,,,,,,,,,,,,report,aloud,white,34,55,259,2994.274593600072,None,2994.274593600072,None,6,2.4383876002393663,2994.274593600072,None,2996.752391899936,None,2997.271461599972,None,2997.271461599972,None,f,0.9934307001531124,2997.271461599972,None,,,NC 25,001,2021_Nov_15_1319,ProdSingRedo,3.2.3,59.90918969806171,
,,,,35,0,35,0,,,,,,,,,,,,,,,,,,,,,,,,3004.204977000132,None,,,,,,,,,,,,,,,,,household,sing,white,35,17,154,2998.8145488998853,None,2998.8145488998853,None,6,3.6504584001377225,2998.8145488998853,None,3002.510318899993,None,3003.033793800045,None,3003.033793800045,None,r,1.1509369001723826,3003.033793800045,None,,,NC 25,001,2021_Nov_15_1319,ProdSingRedo,3.2.3,59.90918969806171,
,,,,36,0,36,0,,,,,,,,,,,,,,,,,,,,,,,,3007.708335599862,None,,,,,,,,,,,,,,,,,emergency,aloud,white,36,54,110,3004.705490999855,None,3004.705490999855,None,6,2.0311058997176588,3004.705490999855,None,3006.763606400229,None,3007.287897299975,None,3007.287897299975,None,f,0.39295460004359484,3007.287897299975,None,,,NC 25,001,2021_Nov_15_1319,ProdSingRedo,3.2.3,59.90918969806171,
,,,,37,0,37,0,,,,,,,,,,,,,,,,,,,,,,,,3011.4031388000585,None,,,,,,,,,,,,,,,,,recall,new_c,white,37,170,255,3008.2255361001007,None,3008.2255361001007,None,1,1.6390086999163032,3008.2255361001007,None,3009.8936985000037,None,3010.4048637002707,None,3010.4048637002707,None,f,0.9722353001125157,3010.4048637002707,None,,,NC 25,001,2021_Nov_15_1319,ProdSingRedo,3.2.3,59.90918969806171,
,,,,38,0,38,0,,,,,,,,,,,,,,,,,,,,,,,,3015.1617852002382,None,,,,,,,,,,,,,,,,,engineer,new_a,white,38,99,114,3011.9316193000413,None,3011.9316193000413,None,2,1.613499500323087,3011.9316193000413,None,3013.5857255002484,None,3014.1081242002547,None,3014.1081242002547,None,f,1.0208331998437643,3014.1081242002547,None,,,NC 25,001,2021_Nov_15_1319,ProdSingRedo,3.2.3,59.90918969806171,
,,,,39,0,39,0,,,,,,,,,,,,,,,,,,,,,,,,3018.7923802002333,None,,,,,,,,,,,,,,,,,history,silent,white,39,85,153,3015.6809944999404,None,3015.6809944999404,None,2,1.8480203999206424,3015.6809944999404,None,3017.571862600278,None,3018.094562999904,None,3018.094562999904,None,f,0.6743820002302527,3018.094562999904,None,,,NC 25,001,2021_Nov_15_1319,ProdSingRedo,3.2.3,59.90918969806171,
,,,,40,0,40,0,,,,,,,,,,,,,,,,,,,,,,,,3024.3149780002423,None,,,,,,,,,,,,,,,,,medicine,silent,white,40,67,186,3019.31361570023,None,3019.31361570023,None,5,3.6394163998775184,3019.31361570023,None,3022.9934216002002,None,3023.514563899953,None,3023.514563899953,None,f,0.766503400169313,3023.514563899953,None,,,NC 25,001,2021_Nov_15_1319,ProdSingRedo,3.2.3,59.90918969806171,
,,,,41,0,41,0,,,,,,,,,,,,,,,,,,,,,,,,3027.2192672998644,None,,,,,,,,,,,,,,,,,crisis,aloud,white,41,31,79,3024.836182900239,None,3024.836182900239,None,6,1.4128545997664332,3024.836182900239,None,3026.2952454001643,None,3026.802197900135,None,3026.802197900135,None,f,0.39079290023073554,3026.802197900135,None,,,NC 25,001,2021_Nov_15_1319,ProdSingRedo,3.2.3,59.90918969806171,
,,,,42,0,42,0,,,,,,,,,,,,,,,,,,,,,,,,3030.454387499951,None,,,,,,,,,,,,,,,,,evidence,new_a,white,42,114,120,3027.742802700028,None,3027.742802700028,None,6,1.6902022999711335,3027.742802700028,None,3029.4842233001254,None,3030.0079485001042,None,3030.0079485001042,None,r,0.4091921001672745,3030.0079485001042,None,,,NC 25,001,2021_Nov_15_1319,ProdSingRedo,3.2.3,59.90918969806171,
,,,,43,0,43,0,,,,,,,,,,,,,,,,,,,,,,,,3035.4769903002307,None,,,,,,,,,,,,,,,,,rapid,silent,white,43,89,252,3030.9795691999607,None,3030.9795691999607,None,1,3.1655029002577066,3030.9795691999607,None,3034.1912483000197,None,3034.7121077002957,None,3034.7121077002957,None,f,0.7369451001286507,3034.7121077002957,None,,,NC 25,001,2021_Nov_15_1319,ProdSingRedo,3.2.3,59.90918969806171,
,,,,44,0,44,0,,,,,,,,,,,,,,,,,,,,,,,,3040.0908253998496,None,,,,,,,,,,,,,,,,,community,new_c,white,44,151,63,3036.0111493002623,None,3036.0111493002623,None,6,2.677811900153756,3036.0111493002623,None,3038.726799900178,None,3039.2625291002914,None,3039.2625291002914,None,f,0.8021384002640843,3039.2625291002914,None,,,NC 25,001,2021_Nov_15_1319,ProdSingRedo,3.2.3,59.90918969806171,
,,,,45,0,45,0,,,,,,,,,,,,,,,,,,,,,,,,3045.0419605001807,None,,,,,,,,,,,,,,,,,marriage,silent,white,45,74,179,3040.6024203002453,None,3040.6024203002453,None,2,2.6466844002716243,3040.6024203002453,None,3043.307328599971,None,3043.821864400059,None,3043.821864400059,None,f,1.1792317000217736,3043.821864400059,None,,,NC 25,001,2021_Nov_15_1319,ProdSingRedo,3.2.3,59.90918969806171,
,,,,46,0,46,0,,,,,,,,,,,,,,,,,,,,,,,,3048.237942799926,None,,,,,,,,,,,,,,,,,match,new_b,white,46,143,181,3045.562881700229,None,3045.562881700229,None,1,1.7581931999884546,3045.562881700229,None,3047.3644018000923,None,3047.873319100123,None,3047.873319100123,None,f,0.327751399949193,3047.873319100123,None,,,NC 25,001,2021_Nov_15_1319,ProdSingRedo,3.2.3,59.90918969806171,
,,,,47,0,47,0,,,,,,,,,,,,,,,,,,,,,,,,3052.160578600131,None,,,,,,,,,,,,,,,,,article,aloud,white,47,50,11,3048.7658510999754,None,3048.7658510999754,None,6,1.7472641998901963,3048.7658510999754,None,3050.551175700035,None,3051.0640853000805,None,3051.0640853000805,None,r,1.0728941997513175,3051.0640853000805,None,,,NC 25,001,2021_Nov_15_1319,ProdSingRedo,3.2.3,59.90918969806171,
,,,,48,0,48,0,,,,,,,,,,,,,,,,,,,,,,,,3055.413152600173,None,,,,,,,,,,,,,,,,,orchestra,new_b,white,48,125,206,3052.6864792001434,None,3052.6864792001434,None,2,1.7864962997846305,3052.6864792001434,None,3054.5065768999048,None,3055.017542100046,None,3055.017542100046,None,r,0.35968090035021305,3055.017542100046,None,,,NC 25,001,2021_Nov_15_1319,ProdSingRedo,3.2.3,59.90918969806171,
,,,,49,0,49,0,,,,,,,,,,,,,,,,,,,,,,,,3062.120542699937,None,,,,,,,,,,,,,,,,,story,new_c,white,49,177,306,3055.938894300256,None,3055.938894300256,None,4,4.990220499690622,3055.938894300256,None,3060.970747400075,None,3061.4880741001107,None,3061.4880741001107,None,f,0.609022700227797,3061.4880741001107,None,,,NC 25,001,2021_Nov_15_1319,ProdSingRedo,3.2.3,59.90918969806171,
,,,,50,0,50,0,,,,,,,,,,,,,,,,,,,,,,,,3066.129714000039,None,,,,,,,,,,,,,,,,,answer,new_c,white,50,176,8,3062.649821900297,None,3062.649821900297,None,2,2.2153235003352165,3062.649821900297,None,3064.910695000086,None,3065.428811899852,None,3065.428811899852,None,f,0.6602480001747608,3065.428811899852,None,,,NC 25,001,2021_Nov_15_1319,ProdSingRedo,3.2.3,59.90918969806171,
,,,,51,0,51,0,,,,,,,,,,,,,,,,,,,,,,,,3069.1203943998553,None,,,,,,,,,,,,,,,,,institute,aloud,white,51,51,162,3066.654952300247,None,3066.654952300247,None,6,1.4976817998103797,3066.654952300247,None,3068.1780842998996,None,3068.7017012001015,None,3068.7017012001015,None,f,0.403048999607563,3068.7017012001015,None,,,NC 25,001,2021_Nov_15_1319,ProdSingRedo,3.2.3,59.90918969806171,
,,,,52,0,52,0,,,,,,,,,,,,,,,,,,,,,,,,3071.989192100242,None,,,,,,,,,,,,,,,,,council,aloud,white,52,30,71,3069.624356499873,None,3069.624356499873,None,6,1.5046945000067353,3069.624356499873,None,3071.1807097001,None,3071.697772799991,None,3071.697772799991,None,f,0.27085840003564954,3071.697772799991,None,,,NC 25,001,2021_Nov_15_1319,ProdSingRedo,3.2.3,59.90918969806171,
,,,,53,0,53,0,,,,,,,,,,,,,,,,,,,,,,,,3075.849861700088,None,,,,,,,,,,,,,,,,,guard,new_c,white,53,168,145,3072.4903470003046,None,3072.4903470003046,None,2,1.542666600085795,3072.4903470003046,None,3074.0817485000007,None,3074.5995787000284,None,3074.5995787000284,None,f,1.2175229997374117,3074.5995787000284,None,,,NC 25,001,2021_Nov_15_1319,ProdSingRedo,3.2.3,59.90918969806171,
,,,,54,0,54,0,,,,,,,,,,,,,,,,,,,,,,,,3081.1718915998936,None,,,,,,,,,,,,,,,,,population,aloud,white,54,36,227,3076.375016000122,None,3076.375016000122,None,4,3.4661836000159383,3076.375016000122,None,3079.8914664001204,None,3080.417241900228,None,3080.417241900228,None,f,0.7198433997109532,3080.417241900228,None,,,NC 25,001,2021_Nov_15_1319,ProdSingRedo,3.2.3,59.90918969806171,
,,,,55,0,55,0,,,,,,,,,,,,,,,,,,,,,,,,3084.6106652999297,None,,,,,,,,,,,,,,,,,individual,sing,white,55,21,160,3081.7033587000333,None,3081.7033587000333,None,6,1.609849200118333,3081.7033587000333,None,3083.3640383998863,None,3083.8807828999124,None,3083.8807828999124,None,f,0.69632099987939,3083.8807828999124,None,,,NC 25,001,2021_Nov_15_1319,ProdSingRedo,3.2.3,59.90918969806171,
,,,,56,0,56,0,,,,,,,,,,,,,,,,,,,,,,,,3092.1665246002376,None,,,,,,,,,,,,,,,,,rural,sing,white,56,11,269,3085.1213269000873,None,3085.1213269000873,None,4,5.575723200105131,3085.1213269000873,None,3090.7502780999057,None,3091.2699317000806,None,3091.2699317000806,None,f,0.8591887000948191,3091.2699317000806,None,,,NC 25,001,2021_Nov_15_1319,ProdSingRedo,3.2.3,59.90918969806171,
,,,,57,0,57,0,,,,,,,,,,,,,,,,,,,,,,,,3096.353616700042,None,,,,,,,,,,,,,,,,,throw,new_a,white,57,113,330,3092.690336999949,None,3092.690336999949,None,1,2.118841400370002,3092.690336999949,None,3094.8492602002807,None,3095.355482700281,None,3095.355482700281,None,f,0.9655385999940336,3095.355482700281,None,,,NC 25,001,2021_Nov_15_1319,ProdSingRedo,3.2.3,59.90918969806171,
,,,,58,0,58,0,,,,,,,,,,,,,,,,,,,,,,,,3100.117416900117,None,,,,,,,,,,,,,,,,,beginning,new_b,white,58,147,19,3096.888481500093,None,3096.888481500093,None,1,1.7445149002596736,3096.888481500093,None,3098.6617875001393,None,3099.180812300183,None,3099.180812300183,None,r,0.9079091004095972,3099.180812300183,None,,,NC 25,001,2021_Nov_15_1319,ProdSingRedo,3.2.3,59.90918969806171,
,,,,59,0,59,0,,,,,,,,,,,,,,,,,,,,,,,,3105.939850300085,None,,,,,,,,,,,,,,,,,patient,new_b,white,59,132,213,3100.6365013001487,None,3100.6365013001487,None,5,3.868381300009787,3100.6365013001487,None,3104.546377700288,None,3105.0665146000683,None,3105.0665146000683,None,f,0.8305478999391198,3105.0665146000683,None,,,NC 25,001,2021_Nov_15_1319,ProdSingRedo,3.2.3,59.90918969806171,
,,,,60,0,60,0,,,,,,,,,,,,,,,,,,,,,,,,3109.5782798002474,None,,,,,,,,,,,,,,,,,contract,aloud,white,60,41,68,3106.4576500002295,None,3106.4576500002295,None,5,2.0234821997582912,3106.4576500002295,None,3108.5362475002185,None,3109.0596406999975,None,3109.0596406999975,None,f,0.4774547000415623,3109.0596406999975,None,,,NC 25,001,2021_Nov_15_1319,ProdSingRedo,3.2.3,59.90918969806171,
,,,,61,0,61,0,,,,,,,,,,,,,,,,,,,,,,,,3113.302884500008,None,,,,,,,,,,,,,,,,,working,silent,white,61,80,357,3110.1001554001123,None,3110.1001554001123,None,3,1.7170078000053763,3110.1001554001123,None,3111.864984900225,None,3112.3777228002436,None,3112.3777228002436,None,r,0.895357099827379,3112.3777228002436,None,,,NC 25,001,2021_Nov_15_1319,ProdSingRedo,3.2.3,59.90918969806171,
,,,,62,0,62,0,,,,,,,,,,,,,,,,,,,,,,,,3116.804533000104,None,,,,,,,,,,,,,,,,,shear,new_b,white,62,136,283,3113.8337711002678,None,3113.8337711002678,None,1,1.8232585000805557,3113.8337711002678,None,3115.702797499951,None,3116.228376199957,None,3116.228376199957,None,f,0.5484428000636399,3116.228376199957,None,,,NC 25,001,2021_Nov_15_1319,ProdSingRedo,3.2.3,59.90918969806171,
,,,,63,0,63,0,,,,,,,,,,,,,,,,,,,,,,,,3120.46220119996,None,,,,,,,,,,,,,,,,,expansion,sing,white,63,1,123,3117.339326799847,None,3117.339326799847,None,6,1.5576575002633035,3117.339326799847,None,3118.941374100279,None,3119.4482010998763,None,3119.4482010998763,None,f,0.9772288999520242,3119.4482010998763,None,,,NC 25,001,2021_Nov_15_1319,ProdSingRedo,3.2.3,59.90918969806171,
,,,,64,0,64,0,,,,,,,,,,,,,,,,,,,,,,,,3123.7322833002545,None,,,,,,,,,,,,,,,,,drama,aloud,white,64,34,103,3120.996961600147,None,3120.996961600147,None,6,1.7081957999616861,3120.996961600147,None,3122.746915699914,None,3123.2681653001346,None,3123.2681653001346,None,r,0.4369516996666789,3123.2681653001346,None,,,NC 25,001,2021_Nov_15_1319,ProdSingRedo,3.2.3,59.90918969806171,
,,,,65,0,65,0,,,,,,,,,,,,,,,,,,,,,,,,3127.4508595000952,None,,,,,,,,,,,,,,,,,resistance,new_a,white,65,102,262,3124.241466199979,None,3124.241466199979,None,5,2.0955585003830492,3124.241466199979,None,3126.3857968999073,None,3126.9092355999164,None,3126.9092355999164,None,f,0.5079556000418961,3126.9092355999164,None,,,NC 25,001,2021_Nov_15_1319,ProdSingRedo,3.2.3,59.90918969806171,
,,,,66,0,66,0,,,,,,,,,,,,,,,,,,,,,,,,3130.097526300233,None,,,,,,,,,,,,,,,,,congress,sing,white,66,8,67,3127.979560100008,None,3127.979560100008,None,6,1.205556099768728,3127.979560100008,None,3129.236314599868,None,3129.7471930002794,None,3129.7471930002794,None,r,0.32554539991542697,3129.7471930002794,None,,,NC 25,001,2021_Nov_15_1319,ProdSingRedo,3.2.3,59.90918969806171,
,,,,67,0,67,0,,,,,,,,,,,,,,,,,,,,,,,,3133.754186199978,None,,,,,,,,,,,,,,,,,mayor,new_b,white,67,122,183,3130.6030133999884,None,3130.6030133999884,None,1,1.261888399720192,3130.6030133999884,None,3131.9048737999983,None,3132.417785000056,None,3132.417785000056,None,f,1.3109375000931323,3132.417785000056,None,,,NC 25,001,2021_Nov_15_1319,ProdSingRedo,3.2.3,59.90918969806171,
,,,,68,0,68,0,,,,,,,,,,,,,,,,,,,,,,,,3137.3603194998577,None,,,,,,,,,,,,,,,,,attack,new_b,white,68,130,13,3134.2873657001182,None,3134.2873657001182,None,2,1.8098125997930765,3134.2873657001182,None,3136.1500285002403,None,3136.673605500255,None,3136.673605500255,None,f,0.6633759997785091,3136.673605500255,None,,,NC 25,001,2021_Nov_15_1319,ProdSingRedo,3.2.3,59.90918969806171,
,,,,69,0,69,0,,,,,,,,,,,,,,,,,,,,,,,,3142.733005300164,None,,,,,,,,,,,,,,,,,period,new_b,white,69,120,217,3137.882528600283,None,3137.882528600283,None,4,3.0146229001693428,3137.882528600283,None,3140.9442079002038,None,3141.463819600176,None,3141.463819600176,None,f,1.2333130999468267,3141.463819600176,None,,,NC 25,001,2021_Nov_15_1319,ProdSingRedo,3.2.3,59.90918969806171,
,,,,70,0,70,0,,,,,,,,,,,,,,,,,,,,,,,,3146.9221053998917,None,,,,,,,,,,,,,,,,,corner,new_b,white,70,127,69,3143.256683799904,None,3143.256683799904,None,2,2.4725111997686327,3143.256683799904,None,3145.7638893001713,None,3146.270097500179,None,3146.270097500179,None,f,0.6270673000253737,3146.270097500179,None,,,NC 25,001,2021_Nov_15_1319,ProdSingRedo,3.2.3,59.90918969806171,
,,,,71,0,71,0,,,,,,,,,,,,,,,,,,,,,,,,3153.520599100273,None,,,,,,,,,,,,,,,,,center,sing,white,71,2,44,3147.445780400187,None,3147.445780400187,None,5,5.091511699836701,3147.445780400187,None,3152.570456500165,None,3153.0799928000197,None,3153.0799928000197,None,f,0.4247804000042379,3153.0799928000197,None,,,NC 25,001,2021_Nov_15_1319,ProdSingRedo,3.2.3,59.90918969806171,
,,,,72,0,72,0,,,,,,,,,,,,,,,,,,,,,,,,3156.502432799898,None,,,,,,,,,,,,,,,,,angle,sing,white,72,25,7,3154.0402142000385,None,3154.0402142000385,None,6,1.4009182001464069,3154.0402142000385,None,3155.479195999913,None,3155.982831799891,None,3155.982831799891,None,f,0.4901307998225093,3155.982831799891,None,,,NC 25,001,2021_Nov_15_1319,ProdSingRedo,3.2.3,59.90918969806171,
,,,,73,0,73,0,,,,,,,,,,,,,,,,,,,,,,,,3160.6185620999895,None,,,,,,,,,,,,,,,,,republic,new_b,white,73,129,260,3157.02911530016,None,3157.02911530016,None,4,2.6756242997944355,3157.02911530016,None,3159.734114999883,None,3160.2556273001246,None,3160.2556273001246,None,r,0.33747270004823804,3160.2556273001246,None,,,NC 25,001,2021_Nov_15_1319,ProdSingRedo,3.2.3,59.90918969806171,
,,,,74,0,74,0,,,,,,,,,,,,,,,,,,,,,,,,3167.0754420002922,None,,,,,,,,,,,,,,,,,atmosphere,new_b,white,74,126,12,3161.149071400054,None,3161.149071400054,None,5,4.699923499953002,3161.149071400054,None,3165.889979999978,None,3166.410306100268,None,3166.410306100268,None,r,0.6388999000191689,3166.410306100268,None,,,NC 25,001,2021_Nov_15_1319,ProdSingRedo,3.2.3,59.90918969806171,
,,,,75,0,75,0,,,,,,,,,,,,,,,,,,,,,,,,3171.747621400282,None,,,,,,,,,,,,,,,,,safety,silent,white,75,81,270,3167.602303000167,None,3167.602303000167,None,6,3.0388658000156283,3167.602303000167,None,3170.6968844002113,None,3171.218659600243,None,3171.218659600243,None,f,0.4944033003412187,3171.218659600243,None,,,NC 25,001,2021_Nov_15_1319,ProdSingRedo,3.2.3,59.90918969806171,
,,,,76,0,76,0,,,,,,,,,,,,,,,,,,,,,,,,3175.76777809998,None,,,,,,,,,,,,,,,,,thing,sing,white,76,24,328,3172.2740755002014,None,3172.2740755002014,None,2,2.511029800400138,3172.2740755002014,None,3174.8292485000566,None,3175.3520483002067,None,3175.3520483002067,None,f,0.3771140999160707,3175.3520483002067,None,,,NC 25,001,2021_Nov_15_1319,ProdSingRedo,3.2.3,59.90918969806171,
,,,,77,0,77,0,,,,,,,,,,,,,,,,,,,,,,,,3180.4197466000915,None,,,,,,,,,,,,,,,,,captain,silent,white,77,72,41,3176.296115499921,None,3176.296115499921,None,3,2.928946999832988,3176.296115499921,None,3179.270977200009,None,3179.797084100079,None,3179.797084100079,None,r,0.5879403003491461,3179.797084100079,None,,,NC 25,001,2021_Nov_15_1319,ProdSingRedo,3.2.3,59.90918969806171,
,,,,78,0,78,0,,,,,,,,,,,,,,,,,,,,,,,,3185.2981724999845,None,,,,,,,,,,,,,,,,,watch,new_a,white,78,106,351,3180.9486752999946,None,3180.9486752999946,None,2,3.1084602000191808,3180.9486752999946,None,3184.1061157002114,None,3184.628539999947,None,3184.628539999947,None,f,0.6364070000126958,3184.628539999947,None,,,NC 25,001,2021_Nov_15_1319,ProdSingRedo,3.2.3,59.90918969806171,
,,,,79,0,79,0,,,,,,,,,,,,,,,,,,,,,,,,3191.1658085002564,None,,,,,,,,,,,,,,,,,dance,silent,white,79,71,84,3185.822526600212,None,3185.822526600212,None,3,4.034187299665064,3185.822526600212,None,3189.878143500071,None,3190.4019599002786,None,3190.4019599002786,None,f,0.7272276999428868,3190.4019599002786,None,,,NC 25,001,2021_Nov_15_1319,ProdSingRedo,3.2.3,59.90918969806171,
,,,,80,0,80,0,,,,,,,,,,,,,,,,,,,,,,,,3194.97549800016,None,,,,,,,,,,,,,,,,,notice,new_c,white,80,178,201,3191.6891002003103,None,3191.6891002003103,None,5,2.2480698004364967,3191.6891002003103,None,3193.9765583998524,None,3194.4784762002528,None,3194.4784762002528,None,f,0.4587703999131918,3194.4784762002528,None,,,NC 25,001,2021_Nov_15_1319,ProdSingRedo,3.2.3,59.90918969806171,
,,,,81,0,81,0,,,,,,,,,,,,,,,,,,,,,,,,3199.490074300207,None,,,,,,,,,,,,,,,,,strength,new_c,white,81,160,310,3195.4961967999116,None,3195.4961967999116,None,4,3.0009524999186397,3195.4961967999116,None,3198.53555840021,None,3199.0622608000413,None,3199.0622608000413,None,r,0.3949143998324871,3199.0622608000413,None,,,NC 25,001,2021_Nov_15_1319,ProdSingRedo,3.2.3,59.90918969806171,
,,,,82,0,82,0,,,,,,,,,,,,,,,,,,,,,,,,3202.6765900999308,None,,,,,,,,,,,,,,,,,waste,new_b,white,82,135,350,3200.01498680003,None,3200.01498680003,None,2,1.617959899827838,3200.01498680003,None,3201.663098100107,None,3202.1769596002996,None,3202.1769596002996,None,f,0.4643799001350999,3202.1769596002996,None,,,NC 25,001,2021_Nov_15_1319,ProdSingRedo,3.2.3,59.90918969806171,
,,,,83,0,83,0,,,,,,,,,,,,,,,,,,,,,,,,3207.8338874001056,None,,,,,,,,,,,,,,,,,piece,sing,white,83,20,221,3203.198984600138,None,3203.198984600138,None,5,3.562113800086081,3203.198984600138,None,3206.8102468000725,None,3207.3325343001634,None,3207.3325343001634,None,f,0.4768608999438584,3207.3325343001634,None,,,NC 25,001,2021_Nov_15_1319,ProdSingRedo,3.2.3,59.90918969806171,
,,,,84,0,84,0,,,,,,,,,,,,,,,,,,,,,,,,3212.921362800058,None,,,,,,,,,,,,,,,,,election,silent,white,84,75,109,3208.355067800265,None,3208.355067800265,None,1,2.910187399946153,3208.355067800265,None,3211.3147892002016,None,3211.835637500044,None,3211.835637500044,None,f,1.0535341002978384,3211.835637500044,None,,,NC 25,001,2021_Nov_15_1319,ProdSingRedo,3.2.3,59.90918969806171,
,,,,85,0,85,0,,,,,,,,,,,,,,,,,,,,,,,,3219.4531681002118,None,,,,,,,,,,,,,,,,,track,new_a,white,85,90,334,3213.4465689002536,None,3213.4465689002536,None,4,4.922702400013804,3213.4465689002536,None,3218.412855000235,None,3218.9329319000244,None,3218.9329319000244,None,f,0.49979900009930134,3218.9329319000244,None,,,NC 25,001,2021_Nov_15_1319,ProdSingRedo,3.2.3,59.90918969806171,
,,,,86,0,86,0,,,,,,,,,,,,,,,,,,,,,,,,3226.5388282998465,None,,,,,,,,,,,,,,,,,front,new_a,white,86,98,134,3219.9538683001883,None,3219.9538683001883,None,2,5.0553346001543105,3219.9538683001883,None,3225.0485069002025,None,3225.56885530008,None,3225.56885530008,None,f,0.9283342999406159,3225.56885530008,None,,,NC 25,001,2021_Nov_15_1319,ProdSingRedo,3.2.3,59.90918969806171,
,,,,87,0,87,0,,,,,,,,,,,,,,,,,,,,,,,,3237.116259200033,None,,,,,,,,,,,,,,,,,empty,new_b,white,87,133,112,3227.0597355999053,None,3227.0597355999053,None,2,7.365384199656546,3227.0597355999053,None,3234.4746182002127,None,3234.9931427002884,None,3234.9931427002884,None,f,2.088018899783492,3234.9931427002884,None,,,NC 25,001,2021_Nov_15_1319,ProdSingRedo,3.2.3,59.90918969806171,
,,,,88,0,88,0,,,,,,,,,,,,,,,,,,,,,,,,3241.8490050998516,None,,,,,,,,,,,,,,,,,commercial,aloud,white,88,57,61,3237.6465591001324,None,3237.6465591001324,None,6,3.258663899730891,3237.6465591001324,None,3240.957215100061,None,3241.469653900247,None,3241.469653900247,None,f,0.3474938999861479,3241.469653900247,None,,,NC 25,001,2021_Nov_15_1319,ProdSingRedo,3.2.3,59.90918969806171,
,,,,89,0,89,0,,,,,,,,,,,,,,,,,,,,,,,,3245.0854874001816,None,,,,,,,,,,,,,,,,,reading,sing,white,89,22,254,3242.381974800024,None,3242.381974800024,None,6,1.6751120002008975,3242.381974800024,None,3244.1038599000312,None,3244.611807799898,None,3244.611807799898,None,r,0.4457659996114671,3244.611807799898,None,,,NC 25,001,2021_Nov_15_1319,ProdSingRedo,3.2.3,59.90918969806171,
,,,,90,0,90,0,,,,,,,,,,,,,,,,,,,,,,,,3248.6061553000472,None,,,,,,,,,,,,,,,,,sunset,new_b,white,90,149,315,3245.612700600177,None,3245.612700600177,None,1,1.7485380000434816,3245.612700600177,None,3247.401901999954,None,3247.92569319997,None,3247.92569319997,None,r,0.6514627998694777,3247.92569319997,None,,,NC 25,001,2021_Nov_15_1319,ProdSingRedo,3.2.3,59.90918969806171,
,,,,91,0,91,0,,,,,,,,,,,,,,,,,,,,,,,,3252.129783899989,None,,,,,,,,,,,,,,,,,management,silent,white,91,73,177,3249.139916600194,None,3249.139916600194,None,6,2.061178300064057,3249.139916600194,None,3251.2439697999507,None,3251.7661679000594,None,3251.7661679000594,None,f,0.3310448001138866,3251.7661679000594,None,,,NC 25,001,2021_Nov_15_1319,ProdSingRedo,3.2.3,59.90918969806171,
,,,,92,0,92,0,,,,,,,,,,,,,,,,,,,,,,,,3256.196157900151,None,,,,,,,,,,,,,,,,,appearance,new_c,white,92,164,10,3252.6578250001185,None,3252.6578250001185,None,2,2.087381400167942,3252.6578250001185,None,3254.7996681998484,None,3255.301886000205,None,3255.301886000205,None,f,0.8594959997572005,3255.301886000205,None,,,NC 25,001,2021_Nov_15_1319,ProdSingRedo,3.2.3,59.90918969806171,
,,,,93,0,93,0,,,,,,,,,,,,,,,,,,,,,,,,3260.0609937999398,None,,,,,,,,,,,,,,,,,reach,new_b,white,93,142,253,3256.723742400296,None,3256.723742400296,None,2,2.3973038997501135,3256.723742400296,None,3259.1562339002267,None,3259.663121300284,None,3259.663121300284,None,f,0.3696541995741427,3259.663121300284,None,,,NC 25,001,2021_Nov_15_1319,ProdSingRedo,3.2.3,59.90918969806171,
,,,,94,0,94,0,,,,,,,,,,,,,,,,,,,,,,,,3266.291293399874,None,,,,,,,,,,,,,,,,,force,new_b,white,94,138,131,3260.5612284000963,None,3260.5612284000963,None,4,4.551620399579406,3260.5612284000963,None,3265.1334814000875,None,3265.6406057002023,None,3265.6406057002023,None,f,0.6166490996256471,3265.6406057002023,None,,,NC 25,001,2021_Nov_15_1319,ProdSingRedo,3.2.3,59.90918969806171,
,,,,95,0,95,0,,,,,,,,,,,,,,,,,,,,,,,,3269.444368999917,None,,,,,,,,,,,,,,,,,object,new_c,white,95,174,204,3266.8147467002273,None,3266.8147467002273,None,5,1.5704038999974728,3266.8147467002273,None,3268.425819199998,None,3268.947714699898,None,3268.947714699898,None,f,0.46957000019028783,3268.947714699898,None,,,NC 25,001,2021_Nov_15_1319,ProdSingRedo,3.2.3,59.90918969806171,
,,,,96,0,96,0,,,,,,,,,,,,,,,,,,,,,,,,3272.629176300019,None,,,,,,,,,,,,,,,,,grade,aloud,white,96,56,140,3269.9681359999813,None,3269.9681359999813,None,6,1.673129899892956,3269.9681359999813,None,3271.6956146000884,None,3272.2010456002317,None,3272.2010456002317,None,r,0.39222010038793087,3272.2010456002317,None,,,NC 25,001,2021_Nov_15_1319,ProdSingRedo,3.2.3,59.90918969806171,
,,,,97,0,97,0,,,,,,,,,,,,,,,,,,,,,,,,3276.1846015001647,None,,,,,,,,,,,,,,,,,growth,new_c,white,97,159,144,3273.1569288000464,None,3273.1569288000464,None,1,1.972400200087577,3273.1569288000464,None,3275.184374399949,None,3275.7064390000887,None,3275.7064390000887,None,f,0.45469010015949607,3275.7064390000887,None,,,NC 25,001,2021_Nov_15_1319,ProdSingRedo,3.2.3,59.90918969806171,
,,,,98,0,98,0,,,,,,,,,,,,,,,,,,,,,,,,3279.0876998999156,None,,,,,,,,,,,,,,,,,citizen,sing,white,98,4,50,3276.7096012001857,None,3276.7096012001857,None,6,1.387612999882549,3276.7096012001857,None,3278.1300379000604,None,3278.641427000053,None,3278.641427000053,None,r,0.41578139970079064,3278.641427000053,None,,,NC 25,001,2021_Nov_15_1319,ProdSingRedo,3.2.3,59.90918969806171,
,,,,99,0,99,0,,,,,,,,,,,,,,,,,,,,,,,,3282.053406599909,None,,,,,,,,,,,,,,,,,route,silent,white,99,70,267,3279.5967951999046,None,3279.5967951999046,None,2,1.5085615003481507,3279.5967951999046,None,3281.1521637002006,None,3281.6749733001925,None,3281.6749733001925,None,f,0.3501783995889127,3281.6749733001925,None,,,NC 25,001,2021_Nov_15_1319,ProdSingRedo,3.2.3,59.90918969806171,
,,,,100,0,100,0,,,,,,,,,,,,,,,,,,,,,,,,3285.4596454002894,None,,,,,,,,,,,,,,,,,review,silent,white,100,68,263,3282.5889489999972,None,3282.5889489999972,None,2,1.8443150003440678,3282.5889489999972,None,3284.4768060999922,None,3284.9967553000897,None,3284.9967553000897,None,f,0.43646019976586103,3284.9967553000897,None,,,NC 25,001,2021_Nov_15_1319,ProdSingRedo,3.2.3,59.90918969806171,
,,,,101,0,101,0,,,,,,,,,,,,,,,,,,,,,,,,3288.8965682000853,None,,,,,,,,,,,,,,,,,property,new_b,white,101,141,242,3285.9864238998853,None,3285.9864238998853,None,3,1.998832699842751,3285.9864238998853,None,3288.0239075999707,None,3288.5502559999004,None,3288.5502559999004,None,r,0.3150739003904164,3288.5502559999004,None,,,NC 25,001,2021_Nov_15_1319,ProdSingRedo,3.2.3,59.90918969806171,
,,,,102,0,102,0,,,,,,,,,,,,,,,,,,,,,,,,3291.7994523001835,None,,,,,,,,,,,,,,,,,express,new_a,white,102,96,124,3289.4169800998643,None,3289.4169800998643,None,5,1.5124293002299964,3289.4169800998643,None,3290.9765488998964,None,3291.4844666998833,None,3291.4844666998833,None,r,0.27671899972483516,3291.4844666998833,None,,,NC 25,001,2021_Nov_15_1319,ProdSingRedo,3.2.3,59.90918969806171,
,,,,103,0,103,0,,,,,,,,,,,,,,,,,,,,,,,,3294.6693913000636,None,,,,,,,,,,,,,,,,,equipment,new_c,white,103,167,116,3292.3385455999523,None,3292.3385455999523,None,5,1.4867916000075638,3292.3385455999523,None,3293.870365300216,None,3294.394116099924,None,3294.394116099924,None,r,0.23928549978882074,3294.394116099924,None,,,NC 25,001,2021_Nov_15_1319,ProdSingRedo,3.2.3,59.90918969806171,
,,,,104,0,104,0,,,,,,,,,,,,,,,,,,,,,,,,3298.3562354999594,None,,,,,,,,,,,,,,,,,material,aloud,white,104,44,182,3295.1998046999797,None,3295.1998046999797,None,4,2.1775214998051524,3295.1998046999797,None,3297.422967399936,None,3297.9473933000118,None,3297.9473933000118,None,f,0.38171220012009144,3297.9473933000118,None,,,NC 25,001,2021_Nov_15_1319,ProdSingRedo,3.2.3,59.90918969806171,
,,,,105,0,105,0,,,,,,,,,,,,,,,,,,,,,,,,3304.921931200195,None,,,,,,,,,,,,,,,,,store,silent,white,105,86,305,3298.88094690023,None,3298.88094690023,None,5,5.096200599800795,3298.88094690023,None,3304.026668699924,None,3304.555096299853,None,3304.555096299853,None,f,0.3497167997993529,3304.555096299853,None,,,NC 25,001,2021_Nov_15_1319,ProdSingRedo,3.2.3,59.90918969806171,
,,,,106,0,106,0,,,,,,,,,,,,,,,,,,,,,,,,3307.8154553999193,None,,,,,,,,,,,,,,,,,blind,new_c,white,106,156,24,3305.437057199888,None,3305.437057199888,None,2,1.420053499750793,3305.437057199888,None,3306.8985057002865,None,3307.4175359001383,None,3307.4175359001383,None,f,0.35987050039693713,3307.4175359001383,None,,,NC 25,001,2021_Nov_15_1319,ProdSingRedo,3.2.3,59.90918969806171,
,,,,107,0,107,0,,,,,,,,,,,,,,,,,,,,,,,,3310.9848461998627,None,,,,,,,,,,,,,,,,,still,new_a,white,107,116,304,3308.342138700187,None,3308.342138700187,None,3,1.7226690999232233,3308.342138700187,None,3310.096114200074,None,3310.618022700306,None,3310.618022700306,None,f,0.33515739999711514,3310.618022700306,None,,,NC 25,001,2021_Nov_15_1319,ProdSingRedo,3.2.3,59.90918969806171,
,,,,108,0,108,0,,,,,,,,,,,,,,,,,,,,,,,,3313.721236000303,None,,,,,,,,,,,,,,,,,health,new_c,white,108,166,149,3311.511726300232,None,3311.511726300232,None,5,1.377516500186175,3311.511726300232,None,3312.9316484001465,None,3313.441894700285,None,3313.441894700285,None,f,0.25510359974578023,3313.441894700285,None,,,NC 25,001,2021_Nov_15_1319,ProdSingRedo,3.2.3,59.90918969806171,
,,,,109,0,109,0,,,,,,,,,,,,,,,,,,,,,,,,3318.843171299901,None,,,,,,,,,,,,,,,,,relation,aloud,white,109,52,257,3314.2502068001777,None,3314.2502068001777,None,6,3.3430254999548197,3314.2502068001777,None,3317.639656000305,None,3318.164859400131,None,3318.164859400131,None,f,0.6443517999723554,3318.164859400131,None,,,NC 25,001,2021_Nov_15_1319,ProdSingRedo,3.2.3,59.90918969806171,
,,,,110,0,110,0,,,,,,,,,,,,,,,,,,,,,,,,3321.5721122999676,None,,,,,,,,,,,,,,,,,oxygen,silent,white,110,79,209,3319.373986300081,None,3319.373986300081,None,6,1.2113211997784674,3319.373986300081,None,3320.6357221999206,None,3321.160874000285,None,3321.160874000285,None,r,0.3839774997904897,3321.160874000285,None,,,NC 25,001,2021_Nov_15_1319,ProdSingRedo,3.2.3,59.90918969806171,
,,,,111,0,111,0,,,,,,,,,,,,,,,,,,,,,,,,3324.6250586002134,None,,,,,,,,,,,,,,,,,agreement,new_b,white,111,128,5,3322.1048626000993,None,3322.1048626000993,None,4,1.7043997999280691,3322.1048626000993,None,3323.8531398000196,None,3324.358387300279,None,3324.358387300279,None,f,0.25058860005810857,3324.358387300279,None,,,NC 25,001,2021_Nov_15_1319,ProdSingRedo,3.2.3,59.90918969806171,
,,,,112,0,112,0,,,,,,,,,,,,,,,,,,,,,,,,3327.3678836002946,None,,,,,,,,,,,,,,,,,finance,sing,white,112,7,129,3325.1257143002003,None,3325.1257143002003,None,5,1.3394969999790192,3325.1257143002003,None,3326.513915500138,None,3327.0412190998904,None,3327.0412190998904,None,r,0.3040018999017775,3327.0412190998904,None,,,NC 25,001,2021_Nov_15_1319,ProdSingRedo,3.2.3,59.90918969806171,
,,,,113,0,113,0,,,,,,,,,,,,,,,,,,,,,,,,3330.4058570000343,None,,,,,,,,,,,,,,,,,worker,new_c,white,113,158,356,3327.897336100228,None,3327.897336100228,None,1,1.5598602001555264,3327.897336100228,None,3329.506172500085,None,3330.024467400275,None,3330.024467400275,None,r,0.35280480002984405,3330.024467400275,None,,,NC 25,001,2021_Nov_15_1319,ProdSingRedo,3.2.3,59.90918969806171,
,,,,114,0,114,0,,,,,,,,,,,,,,,,,,,,,,,,3334.4915912002325,None,,,,,,,,,,,,,,,,,candidate,silent,white,114,82,39,3330.9368302999064,None,3330.9368302999064,None,4,2.2163732000626624,3330.9368302999064,None,3333.208777099848,None,3333.732447599992,None,3333.732447599992,None,f,0.7248506997711957,3333.732447599992,None,,,NC 25,001,2021_Nov_15_1319,ProdSingRedo,3.2.3,59.90918969806171,
,,,,115,0,115,0,,,,,,,,,,,,,,,,,,,,,,,,3338.596893900074,None,,,,,,,,,,,,,,,,,service,sing,white,115,9,280,3335.021247399971,None,3335.021247399971,None,5,2.1159109002910554,3335.021247399971,None,3337.178334200289,None,3337.7006900999695,None,3337.7006900999695,None,f,0.8686616001650691,3337.7006900999695,None,,,NC 25,001,2021_Nov_15_1319,ProdSingRedo,3.2.3,59.90918969806171,
,,,,116,0,116,0,,,,,,,,,,,,,,,,,,,,,,,,3341.783859100193,None,,,,,,,,,,,,,,,,,order,aloud,white,116,45,207,3339.1232612999156,None,3339.1232612999156,None,4,1.6858498002402484,3339.1232612999156,None,3340.8280135001987,None,3341.3465398000553,None,3341.3465398000553,None,r,0.40672199986875057,3341.3465398000553,None,,,NC 25,001,2021_Nov_15_1319,ProdSingRedo,3.2.3,59.90918969806171,
,,,,117,0,117,0,,,,,,,,,,,,,,,,,,,,,,,,3344.3692713002674,None,,,,,,,,,,,,,,,,,scale,new_a,white,117,101,272,3342.308303600177,None,3342.308303600177,None,5,1.1410167999565601,3342.308303600177,None,3343.5024350001477,None,3344.0225450000726,None,3344.0225450000726,None,f,0.322675499599427,3344.0225450000726,None,,,NC 25,001,2021_Nov_15_1319,ProdSingRedo,3.2.3,59.90918969806171,
,,,,118,0,118,0,,,,,,,,,,,,,,,,,,,,,,,,3353.2642335998826,None,,,,,,,,,,,,,,,,,group,new_a,white,118,104,143,3344.8955262000673,None,3344.8955262000673,None,6,7.297737299930304,3344.8955262000673,None,3352.2351623000577,None,3352.7558591999114,None,3352.7558591999114,None,f,0.46940190019086003,3352.7558591999114,None,,,NC 25,001,2021_Nov_15_1319,ProdSingRedo,3.2.3,59.90918969806171,
,,,,119,0,119,0,,,,,,,,,,,,,,,,,,,,,,,,3356.5144901000895,None,,,,,,,,,,,,,,,,,union,sing,white,119,10,344,3353.7885934999213,None,3353.7885934999213,None,2,1.5726119000464678,3353.7885934999213,None,3355.4098145999014,None,3355.917332999874,None,3355.917332999874,None,f,0.5638217004016042,3355.917332999874,None,,,NC 25,001,2021_Nov_15_1319,ProdSingRedo,3.2.3,59.90918969806171,
,,,,120,0,120,0,,,,,,,,,,,,,,,,,,,,,,,,3359.4882367001846,None,,,,,,,,,,,,,,,,,testimony,silent,white,120,66,325,3357.041957099922,None,3357.041957099922,None,6,1.527303900104016,3357.041957099922,None,3358.6132569001056,None,3359.136639300268,None,3359.136639300268,None,r,0.3126640999689698,3359.136639300268,None,,,NC 25,001,2021_Nov_15_1319,ProdSingRedo,3.2.3,59.90918969806171,
,,,,121,0,121,0,,,,,,,,,,,,,,,,,,,,,,,,3362.3696395000443,None,,,,,,,,,,,,,,,,,crowd,silent,white,121,84,81,3360.0118575999513,None,3360.0118575999513,None,3,1.453406599815935,3360.0118575999513,None,3361.5199422999285,None,3362.040951400064,None,3362.040951400064,None,f,0.2962560998275876,3362.040951400064,None,,,NC 25,001,2021_Nov_15_1319,ProdSingRedo,3.2.3,59.90918969806171,
,,,,122,0,122,0,,,,,,,,,,,,,,,,,,,,,,,,3365.8074648003094,None,,,,,,,,,,,,,,,,,permit,sing,white,122,12,218,3362.8908692002296,None,3362.8908692002296,None,3,1.9983511003665626,3362.8908692002296,None,3364.947896500118,None,3365.456016300246,None,3365.456016300246,None,r,0.32124749990180135,3365.456016300246,None,,,NC 25,001,2021_Nov_15_1319,ProdSingRedo,3.2.3,59.90918969806171,
,,,,123,0,123,0,,,,,,,,,,,,,,,,,,,,,,,,3368.6424620999023,None,,,,,,,,,,,,,,,,,degree,new_a,white,123,95,89,3366.337982799858,None,3366.337982799858,None,5,1.2632081001065671,3366.337982799858,None,3367.640105099883,None,3368.1563136000186,None,3368.1563136000186,None,f,0.46094699995592237,3368.1563136000186,None,,,NC 25,001,2021_Nov_15_1319,ProdSingRedo,3.2.3,59.90918969806171,
,,,,124,0,124,0,,,,,,,,,,,,,,,,,,,,,,,,3375.182695500087,None,,,,,,,,,,,,,,,,,interior,new_b,white,124,131,164,3369.1676864000037,None,3369.1676864000037,None,4,4.65751720033586,3369.1676864000037,None,3373.8566978001036,None,3374.3652156000026,None,3374.3652156000026,None,r,0.7801783001050353,3374.3652156000026,None,,,NC 25,001,2021_Nov_15_1319,ProdSingRedo,3.2.3,59.90918969806171,
,,,,125,0,125,0,,,,,,,,,,,,,,,,,,,,,,,,3377.618238899857,None,,,,,,,,,,,,,,,,,leader,sing,white,125,3,168,3375.7103190002963,None,3375.7103190002963,None,5,0.9469947000034153,3375.7103190002963,None,3376.7035365998745,None,3377.234714400023,None,3377.234714400023,None,r,0.3585684997960925,3377.234714400023,None,,,NC 25,001,2021_Nov_15_1319,ProdSingRedo,3.2.3,59.90918969806171,
,,,,126,0,126,0,,,,,,,,,,,,,,,,,,,,,,,,3380.6374595998786,None,,,,,,,,,,,,,,,,,sound,new_b,white,126,146,295,3378.1495258999057,None,3378.1495258999057,None,2,1.5476369000971317,3378.1495258999057,None,3379.7355785998516,None,3380.258381600026,None,3380.258381600026,None,r,0.3428420997224748,3380.258381600026,None,,,NC 25,001,2021_Nov_15_1319,ProdSingRedo,3.2.3,59.90918969806171,
,,,,127,0,127,0,,,,,,,,,,,,,,,,,,,,,,,,3384.7085504001006,None,,,,,,,,,,,,,,,,,science,new_b,white,127,134,275,3381.160530500114,None,3381.160530500114,None,2,1.9528220002539456,3381.160530500114,None,3383.1566193001345,None,3383.675248300191,None,3383.675248300191,None,r,1.005941600073129,3383.675248300191,None,,,NC 25,001,2021_Nov_15_1319,ProdSingRedo,3.2.3,59.90918969806171,
,,,,128,0,128,0,,,,,,,,,,,,,,,,,,,,,,,,3388.4939879998565,None,,,,,,,,,,,,,,,,,treatment,new_b,white,128,145,339,3385.222972600255,None,3385.222972600255,None,2,2.4982025995850563,3385.222972600255,None,3387.7655890001915,None,3388.2721521998756,None,3388.2721521998756,None,f,0.16921619977802038,3388.2721521998756,None,,,NC 25,001,2021_Nov_15_1319,ProdSingRedo,3.2.3,59.90918969806171,
,,,,129,0,129,0,,,,,,,,,,,,,,,,,,,,,,,,3391.8231349000707,None,,,,,,,,,,,,,,,,,gesture,silent,white,129,83,137,3389.0315061998554,None,3389.0315061998554,None,6,1.8498885999433696,3389.0315061998554,None,3390.925860899966,None,3391.440170099959,None,3391.440170099959,None,f,0.3450548001565039,3391.440170099959,None,,,NC 25,001,2021_Nov_15_1319,ProdSingRedo,3.2.3,59.90918969806171,
,,,,130,0,130,0,,,,,,,,,,,,,,,,,,,,,,,,3395.119471800048,None,,,,,,,,,,,,,,,,,distance,aloud,white,130,46,100,3392.354032299947,None,3392.354032299947,None,5,1.6074655000120401,3392.354032299947,None,3394.0026326002553,None,3394.5237552002072,None,3394.5237552002072,None,f,0.5576318996027112,3394.5237552002072,None,,,NC 25,001,2021_Nov_15_1319,ProdSingRedo,3.2.3,59.90918969806171,
,,,,131,0,131,0,,,,,,,,,,,,,,,,,,,,,,,,3399.1754374001175,None,,,,,,,,,,,,,,,,,pancakes,new_c,white,131,163,210,3395.6506495000795,None,3395.6506495000795,None,1,1.9188074003905058,3395.6506495000795,None,3397.6214282000437,None,3398.1477371002547,None,3398.1477371002547,None,f,0.9896045997738838,3398.1477371002547,None,,,NC 25,001,2021_Nov_15_1319,ProdSingRedo,3.2.3,59.90918969806171,
,,,,132,0,132,0,,,,,,,,,,,,,,,,,,,,,,,,3403.1448133001104,None,,,,,,,,,,,,,,,,,symbol,new_c,white,132,153,321,3399.686086700298,None,3399.686086700298,None,5,2.491169400047511,3399.686086700298,None,3402.2281768000685,None,3402.7484315000474,None,3402.7484315000474,None,f,0.36492849979549646,3402.7484315000474,None,,,NC 25,001,2021_Nov_15_1319,ProdSingRedo,3.2.3,59.90918969806171,
,,,,133,0,133,0,,,,,,,,,,,,,,,,,,,,,,,,3406.5143638001755,None,,,,,,,,,,,,,,,,,level,aloud,white,133,32,170,3403.6698838998564,None,3403.6698838998564,None,4,1.9793770997785032,3403.6698838998564,None,3405.694076600019,None,3406.2014695000835,None,3406.2014695000835,None,f,0.28776879981160164,3406.2014695000835,None,,,NC 25,001,2021_Nov_15_1319,ProdSingRedo,3.2.3,59.90918969806171,
,,,,134,0,134,0,,,,,,,,,,,,,,,,,,,,,,,,3409.2008500001393,None,,,,,,,,,,,,,,,,,brief,sing,white,134,14,28,3407.0427308999933,None,3407.0427308999933,None,4,1.2626081998459995,3407.0427308999933,None,3408.3514120001346,None,3408.869943600148,None,3408.869943600148,None,f,0.2993872002698481,3408.869943600148,None,,,NC 25,001,2021_Nov_15_1319,ProdSingRedo,3.2.3,59.90918969806171,
,,,,135,0,135,0,,,,,,,,,,,,,,,,,,,,,,,,3412.2529541002586,None,,,,,,,,,,,,,,,,,conference,aloud,white,135,42,66,3409.7289483002387,None,3409.7289483002387,None,6,1.5682306000962853,3409.7289483002387,None,3411.3518023998477,None,3411.8566057998687,None,3411.8566057998687,None,f,0.360962700098753,3411.8566057998687,None,,,NC 25,001,2021_Nov_15_1319,ProdSingRedo,3.2.3,59.90918969806171,
,,,,136,0,136,0,,,,,,,,,,,,,,,,,,,,,,,,3414.6218123999424,None,,,,,,,,,,,,,,,,,carry,aloud,white,136,33,43,3412.7817796003073,None,3412.7817796003073,None,2,1.083430300001055,3412.7817796003073,None,3413.9083227002993,None,3414.4322408000007,None,3414.4322408000007,None,f,0.15311369998380542,3414.4322408000007,None,,,NC 25,001,2021_Nov_15_1319,ProdSingRedo,3.2.3,59.90918969806171,
,,,,137,0,137,0,,,,,,,,,,,,,,,,,,,,,,,,3417.341644400265,None,,,,,,,,,,,,,,,,,exchange,silent,white,137,63,121,3415.152739299927,None,3415.152739299927,None,2,1.4244137001223862,3415.152739299927,None,3416.616075700149,None,3417.133609100245,None,3417.133609100245,None,f,0.17165799997746944,3417.133609100245,None,,,NC 25,001,2021_Nov_15_1319,ProdSingRedo,3.2.3,59.90918969806171,
,,,,138,0,138,0,,,,,,,,,,,,,,,,,,,,,,,,3419.761803700123,None,,,,,,,,,,,,,,,,,author,aloud,white,138,35,15,3417.867196400184,None,3417.867196400184,None,5,1.230133700184524,3417.867196400184,None,3419.143626200035,None,3419.653538600076,None,3419.653538600076,None,f,0.08420399995520711,3419.653538600076,None,,,NC 25,001,2021_Nov_15_1319,ProdSingRedo,3.2.3,59.90918969806171,
,,,,139,0,139,0,,,,,,,,,,,,,,,,,,,,,,,,3422.130332000088,None,,,,,,,,,,,,,,,,,south,new_a,white,139,91,296,3420.289745100308,None,3420.289745100308,None,2,1.0955652999691665,3420.289745100308,None,3421.4289381001145,None,3421.9507432002574,None,3421.9507432002574,None,f,0.15445709973573685,3421.9507432002574,None,,,NC 25,001,2021_Nov_15_1319,ProdSingRedo,3.2.3,59.90918969806171,
,,,,140,0,140,0,,,,,,,,,,,,,,,,,,,,,,,,3426.9004969000816,None,,,,,,,,,,,,,,,,,speech,new_c,white,140,169,298,3422.6609236998484,None,3422.6609236998484,None,5,3.236585599835962,3422.6609236998484,None,3425.939947000239,None,3426.4504550001584,None,3426.4504550001584,None,f,0.41476819990202785,3426.4504550001584,None,,,NC 25,001,2021_Nov_15_1319,ProdSingRedo,3.2.3,59.90918969806171,
,,,,141,0,141,0,,,,,,,,,,,,,,,,,,,,,,,,3430.8207692001015,None,,,,,,,,,,,,,,,,,harmony,new_c,white,141,171,148,3427.4308128999546,None,3427.4308128999546,None,4,2.5301040997728705,3427.4308128999546,None,3429.985174899921,None,3430.5137439002283,None,3430.5137439002283,None,f,0.27156889997422695,3430.5137439002283,None,,,NC 25,001,2021_Nov_15_1319,ProdSingRedo,3.2.3,59.90918969806171,
,,,,142,0,142,0,,,,,,,,,,,,,,,,,,,,,,,,3434.0078620002605,None,,,,,,,,,,,,,,,,,dozen,new_b,white,142,148,102,3431.3516901000403,None,3431.3516901000403,None,4,1.7696818998083472,3431.3516901000403,None,3433.1742342999205,None,3433.6956559000537,None,3433.6956559000537,None,f,0.289856200106442,3433.6956559000537,None,,,NC 25,001,2021_Nov_15_1319,ProdSingRedo,3.2.3,59.90918969806171,
,,,,143,0,143,0,,,,,,,,,,,,,,,,,,,,,,,,3436.811278299894,None,,,,,,,,,,,,,,,,,broke,new_b,white,143,144,32,3434.5380951999687,None,3434.5380951999687,None,2,1.3993885000236332,3434.5380951999687,None,3435.977420399897,None,3436.496878699865,None,3436.496878699865,None,f,0.288474100176245,3436.496878699865,None,,,NC 25,001,2021_Nov_15_1319,ProdSingRedo,3.2.3,59.90918969806171,
,,,,144,0,144,0,,,,,,,,,,,,,,,,,,,,,,,,3439.6696871002205,None,,,,,,,,,,,,,,,,,fellow,aloud,white,144,59,126,3437.3344870000146,None,3437.3344870000146,None,2,1.2587683997116983,3437.3344870000146,None,3438.6456911000423,None,3439.148777199909,None,3439.148777199909,None,f,0.49276870023459196,3439.148777199909,None,,,NC 25,001,2021_Nov_15_1319,ProdSingRedo,3.2.3,59.90918969806171,
,,,,145,0,145,0,,,,,,,,,,,,,,,,,,,,,,,,3443.0503358999267,None,,,,,,,,,,,,,,,,,personnel,new_c,white,145,179,219,3440.1890104999766,None,3440.1890104999766,None,1,1.8923074998892844,3440.1890104999766,None,3442.131608699914,None,3442.652190499939,None,3442.652190499939,None,f,0.3649634998291731,3442.652190499939,None,,,NC 25,001,2021_Nov_15_1319,ProdSingRedo,3.2.3,59.90918969806171,
,,,,146,0,146,0,,,,,,,,,,,,,,,,,,,,,,,,3446.154473000206,None,,,,,,,,,,,,,,,,,search,new_c,white,146,155,276,3443.5761672002263,None,3443.5761672002263,None,4,1.8413033001124859,3443.5761672002263,None,3445.4708497999236,None,3445.9892897000536,None,3445.9892897000536,None,f,0.13995980005711317,3445.9892897000536,None,,,NC 25,001,2021_Nov_15_1319,ProdSingRedo,3.2.3,59.90918969806171,
,,,,147,0,147,0,,,,,,,,,,,,,,,,,,,,,,,,3448.5718495999463,None,,,,,,,,,,,,,,,,,point,new_a,white,147,115,226,3446.674863600172,None,3446.674863600172,None,4,1.2384357997216284,3446.674863600172,None,3447.9537867000327,None,3448.4704968002625,None,3448.4704968002625,None,f,0.0668911999091506,3448.4704968002625,None,,,NC 25,001,2021_Nov_15_1319,ProdSingRedo,3.2.3,59.90918969806171,
,,,,148,0,148,0,,,,,,,,,,,,,,,,,,,,,,,,3451.645079900045,None,,,,,,,,,,,,,,,,,right,new_a,white,148,93,265,3449.08625459997,None,3449.08625459997,None,2,1.6187884001992643,3449.08625459997,None,3450.736048700288,None,3451.2351981000975,None,3451.2351981000975,None,f,0.38192349998280406,3451.2351981000975,None,,,NC 25,001,2021_Nov_15_1319,ProdSingRedo,3.2.3,59.90918969806171,
,,,,149,0,149,0,,,,,,,,,,,,,,,,,,,,,,,,3455.078240199946,None,,,,,,,,,,,,,,,,,foundation,new_b,white,149,137,132,3452.1783606000245,None,3452.1783606000245,None,2,2.175105799920857,3452.1783606000245,None,3454.4015740002505,None,3454.9216896998696,None,3454.9216896998696,None,f,0.11954900017008185,3454.9216896998696,None,,,NC 25,001,2021_Nov_15_1319,ProdSingRedo,3.2.3,59.90918969806171,
,,,,150,0,150,0,,,,,,,,,,,,,,,,,,,,,,,,3458.2578825000674,None,,,,,,,,,,,,,,,,,block,aloud,white,150,53,25,3455.603944600094,None,3455.603944600094,None,3,1.6134961997158825,3455.603944600094,None,3457.267310400028,None,3457.785837400239,None,3457.785837400239,None,f,0.43941230000928044,3457.785837400239,None,,,NC 25,001,2021_Nov_15_1319,ProdSingRedo,3.2.3,59.90918969806171,
,,,,151,0,151,0,,,,,,,,,,,,,,,,,,,,,,,,3461.886544799898,None,,,,,,,,,,,,,,,,,meeting,silent,white,151,87,187,3458.775405900087,None,3458.775405900087,None,5,2.201724600046873,3458.775405900087,None,3461.010027000215,None,3461.520745499991,None,3461.520745499991,None,f,0.3366355998441577,3461.520745499991,None,,,NC 25,001,2021_Nov_15_1319,ProdSingRedo,3.2.3,59.90918969806171,
,,,,152,0,152,0,,,,,,,,,,,,,,,,,,,,,,,,3464.2920558000915,None,,,,,,,,,,,,,,,,,welcome,sing,white,152,13,354,3462.4116245000623,None,3462.4116245000623,None,5,0.8858809997327626,3462.4116245000623,None,3463.3361694002524,None,3463.856482199859,None,3463.856482199859,None,f,0.40090089989826083,3463.856482199859,None,,,NC 25,001,2021_Nov_15_1319,ProdSingRedo,3.2.3,59.90918969806171,
,,,,153,0,153,0,,,,,,,,,,,,,,,,,,,,,,,,3467.274625299964,None,,,,,,,,,,,,,,,,,comfort,silent,white,153,69,59,3464.8187135001644,None,3464.8187135001644,None,5,1.6545070996508002,3464.8187135001644,None,3466.5227677999064,None,3467.04366090009,None,3467.04366090009,None,f,0.1977670998312533,3467.04366090009,None,,,NC 25,001,2021_Nov_15_1319,ProdSingRedo,3.2.3,59.90918969806171,
,,,,154,0,154,0,,,,,,,,,,,,,,,,,,,,,,,,3470.3783791000023,None,,,,,,,,,,,,,,,,,partner,new_a,white,154,107,211,3467.8040510001592,None,3467.8040510001592,None,1,1.5731502999551594,3467.8040510001592,None,3469.4287240002304,None,3469.951792099979,None,3469.951792099979,None,f,0.4014340001158416,3469.951792099979,None,,,NC 25,001,2021_Nov_15_1319,ProdSingRedo,3.2.3,59.90918969806171,
,,,,155,0,155,0,,,,,,,,,,,,,,,,,,,,,,,,3473.465971000027,None,,,,,,,,,,,,,,,,,device,silent,white,155,61,93,3470.9029484000057,None,3470.9029484000057,None,2,1.690738799981773,3470.9029484000057,None,3472.646028399933,None,3473.1685935999267,None,3473.1685935999267,None,f,0.2728521996177733,3473.1685935999267,None,,,NC 25,001,2021_Nov_15_1319,ProdSingRedo,3.2.3,59.90918969806171,
,,,,156,0,156,0,,,,,,,,,,,,,,,,,,,,,,,,3476.8177582002245,None,,,,,,,,,,,,,,,,,guest,silent,white,156,77,146,3473.9924842999317,None,3473.9924842999317,None,6,1.849109800066799,3473.9924842999317,None,3475.880710700061,None,3476.4012402999215,None,3476.4012402999215,None,f,0.38409760035574436,3476.4012402999215,None,,,NC 25,001,2021_Nov_15_1319,ProdSingRedo,3.2.3,59.90918969806171,
,,,,157,0,157,0,,,,,,,,,,,,,,,,,,,,,,,,3480.337433299981,None,,,,,,,,,,,,,,,,,country,new_b,white,157,140,73,3477.3487315000966,None,3477.3487315000966,None,4,1.5885190996341407,3477.3487315000966,None,3478.9844253002666,None,3479.5108856000006,None,3479.5108856000006,None,r,0.8023735000751913,3479.5108856000006,None,,,NC 25,001,2021_Nov_15_1319,ProdSingRedo,3.2.3,59.90918969806171,
,,,,158,0,158,0,,,,,,,,,,,,,,,,,,,,,,,,3483.0798717001453,None,,,,,,,,,,,,,,,,,agency,new_c,white,158,150,4,3480.8644766998477,None,3480.8644766998477,None,5,1.2007919000461698,3480.8644766998477,None,3482.1021238001995,None,3482.629369900096,None,3482.629369900096,None,f,0.4120486001484096,3482.629369900096,None,,,NC 25,001,2021_Nov_15_1319,ProdSingRedo,3.2.3,59.90918969806171,
,,,,159,0,159,0,,,,,,,,,,,,,,,,,,,,,,,,3486.894098599907,None,,,,,,,,,,,,,,,,,straight,aloud,white,159,38,307,3483.604284599889,None,3483.604284599889,None,5,2.1331437001936138,3483.604284599889,None,3485.7783714998513,None,3486.304307700135,None,3486.304307700135,None,f,0.561160400044173,3486.304307700135,None,,,NC 25,001,2021_Nov_15_1319,ProdSingRedo,3.2.3,59.90918969806171,
,,,,160,0,160,0,,,,,,,,,,,,,,,,,,,,,,,,3489.4077081000432,None,,,,,,,,,,,,,,,,,subject,aloud,white,160,49,312,3487.4269616999663,None,3487.4269616999663,None,5,1.142192400060594,3487.4269616999663,None,3488.602225200273,None,3489.117690199986,None,3489.117690199986,None,f,0.2673959997482598,3489.117690199986,None,,,NC 25,001,2021_Nov_15_1319,ProdSingRedo,3.2.3,59.90918969806171,
,,,,161,0,161,0,,,,,,,,,,,,,,,,,,,,,,,,3492.9689474999905,None,,,,,,,,,,,,,,,,,place,new_a,white,161,103,222,3489.9070585998707,None,3489.9070585998707,None,2,1.7421977003104985,3489.9070585998707,None,3491.6938340999186,None,3492.200037200004,None,3492.200037200004,None,r,0.7453377000056207,3492.200037200004,None,,,NC 25,001,2021_Nov_15_1319,ProdSingRedo,3.2.3,59.90918969806171,
,,,,162,0,162,0,,,,,,,,,,,,,,,,,,,,,,,,3495.687607999891,None,,,,,,,,,,,,,,,,,benefit,new_a,white,162,92,20,3493.4955883999355,None,3493.4955883999355,None,4,1.1778706996701658,3493.4955883999355,None,3494.7228264999576,None,3495.240547699854,None,3495.240547699854,None,r,0.4167849002406001,3495.240547699854,None,,,NC 25,001,2021_Nov_15_1319,ProdSingRedo,3.2.3,59.90918969806171,
,,,,163,0,163,0,,,,,,,,,,,,,,,,,,,,,,,,3498.590228800196,None,,,,,,,,,,,,,,,,,graduate,sing,white,163,23,141,3496.218102199957,None,3496.218102199957,None,5,1.175560100004077,3496.218102199957,None,3497.437264600303,None,3497.96104370011,None,3497.96104370011,None,r,0.6005618995986879,3497.96104370011,None,,,NC 25,001,2021_Nov_15_1319,ProdSingRedo,3.2.3,59.90918969806171,
,,,,164,0,164,0,,,,,,,,,,,,,,,,,,,,,,,,3501.1750725000165,None,,,,,,,,,,,,,,,,,threat,new_c,white,164,161,329,3499.116393300239,None,3499.116393300239,None,2,1.1168408999219537,3499.116393300239,None,3500.271257400047,None,3500.7976049999706,None,3500.7976049999706,None,f,0.3477107002399862,3500.7976049999706,None,,,NC 25,001,2021_Nov_15_1319,ProdSingRedo,3.2.3,59.90918969806171,
,,,,165,0,165,0,,,,,,,,,,,,,,,,,,,,,,,,3505.0136045999825,None,,,,,,,,,,,,,,,,,nature,new_b,white,165,124,200,3501.701735700015,None,3501.701735700015,None,3,2.275724799837917,3501.701735700015,None,3504.0249259001575,None,3504.5509450002573,None,3504.5509450002573,None,f,0.43441749969497323,3504.5509450002573,None,,,NC 25,001,2021_Nov_15_1319,ProdSingRedo,3.2.3,59.90918969806171,
,,,,166,0,166,0,,,,,,,,,,,,,,,,,,,,,,,,3508.9664785000496,None,,,,,,,,,,,,,,,,,trend,silent,white,166,60,340,3505.5445691002533,None,3505.5445691002533,None,2,2.4487534002400935,3505.5445691002533,None,3508.027409600094,None,3508.548197600059,None,3508.548197600059,None,f,0.38136789994314313,3508.548197600059,None,,,NC 25,001,2021_Nov_15_1319,ProdSingRedo,3.2.3,59.90918969806171,
,,,,167,0,167,0,,,,,,,,,,,,,,,,,,,,,,,,3511.9538885001093,None,,,,,,,,,,,,,,,,,skill,silent,white,167,76,289,3509.4910530000925,None,3509.4910530000925,None,2,1.4302395996637642,3509.4910530000925,None,3510.9619463998824,None,3511.474284600001,None,3511.474284600001,None,f,0.44711449975147843,3511.474284600001,None,,,NC 25,001,2021_Nov_15_1319,ProdSingRedo,3.2.3,59.90918969806171,
,,,,168,0,168,0,,,,,,,,,,,,,,,,,,,,,,,,3514.6816376000643,None,,,,,,,,,,,,,,,,,accident,new_a,white,168,112,0,3512.4687939998694,None,3512.4687939998694,None,5,1.1804904001764953,3512.4687939998694,None,3513.697341099847,None,3514.205491399858,None,3514.205491399858,None,f,0.4438680997118354,3514.205491399858,None,,,NC 25,001,2021_Nov_15_1319,ProdSingRedo,3.2.3,59.90918969806171,
,,,,169,0,169,0,,,,,,,,,,,,,,,,,,,,,,,,3517.5238831001334,None,,,,,,,,,,,,,,,,,present,new_c,white,169,172,231,3515.1970359999686,None,3515.1970359999686,None,5,0.9403714998625219,3515.1970359999686,None,3516.1845161998644,None,3516.693551099859,None,3516.693551099859,None,f,0.7958930004388094,3516.693551099859,None,,,NC 25,001,2021_Nov_15_1319,ProdSingRedo,3.2.3,59.90918969806171,
,,,,170,0,170,0,,,,,,,,,,,,,,,,,,,,,,,,3522.782923700288,None,,,,,,,,,,,,,,,,,bitter,aloud,white,170,40,23,3518.0522223999724,None,3518.0522223999724,None,2,2.269379199948162,3518.0522223999724,None,3520.3607741002925,None,3520.8793905000202,None,3520.8793905000202,None,f,1.87396730016917,3520.8793905000202,None,,,NC 25,001,2021_Nov_15_1319,ProdSingRedo,3.2.3,59.90918969806171,
,,,,171,0,171,0,,,,,,,,,,,,,,,,,,,,,,,,3530.472354100086,None,,,,,,,,,,,,,,,,,school,new_a,white,171,105,274,3523.303252399899,None,3523.303252399899,None,5,4.058320200070739,3523.303252399899,None,3527.3937683003023,None,3527.9058035998605,None,3527.9058035998605,None,r,2.5435363999567926,3527.9058035998605,None,,,NC 25,001,2021_Nov_15_1319,ProdSingRedo,3.2.3,59.90918969806171,
,,,,172,0,172,0,,,,,,,,,,,,,,,,,,,,,,,,3533.8921802002005,None,,,,,,,,,,,,,,,,,minor,aloud,white,172,48,191,3530.99570350023,None,3530.99570350023,None,6,1.2616618000902236,3530.99570350023,None,3532.301942900289,None,3532.823486200068,None,3532.823486200068,None,f,1.0341105996631086,3532.823486200068,None,,,NC 25,001,2021_Nov_15_1319,ProdSingRedo,3.2.3,59.90918969806171,
,,,,173,0,173,0,,,,,,,,,,,,,,,,,,,,,,,,3537.3116172999144,None,,,,,,,,,,,,,,,,,count,new_c,white,173,165,72,3534.4154111999087,None,3534.4154111999087,None,5,1.9299972001463175,3534.4154111999087,None,3536.394163600169,None,3536.9156680000015,None,3536.9156680000015,None,f,0.3578216000460088,3536.9156680000015,None,,,NC 25,001,2021_Nov_15_1319,ProdSingRedo,3.2.3,59.90918969806171,
,,,,174,0,174,0,,,,,,,,,,,,,,,,,,,,,,,,3540.397375199944,None,,,,,,,,,,,,,,,,,column,sing,white,174,29,57,3537.84049959993,None,3537.84049959993,None,5,1.3849716000258923,3537.84049959993,None,3539.2738773999736,None,3539.7842239001766,None,3539.7842239001766,None,f,0.5851980997249484,3539.7842239001766,None,,,NC 25,001,2021_Nov_15_1319,ProdSingRedo,3.2.3,59.90918969806171,
,,,,175,0,175,0,,,,,,,,,,,,,,,,,,,,,,,,3543.082707699854,None,,,,,,,,,,,,,,,,,curve,new_c,white,175,157,82,3540.924438500311,None,3540.924438500311,None,2,1.2130130999721587,3540.924438500311,None,3542.184734399896,None,3542.7066835002042,None,3542.7066835002042,None,f,0.34277050010859966,3542.7066835002042,None,,,NC 25,001,2021_Nov_15_1319,ProdSingRedo,3.2.3,59.90918969806171,
,,,,176,0,176,0,,,,,,,,,,,,,,,,,,,,,,,,3545.7293866998516,None,,,,,,,,,,,,,,,,,crime,new_b,white,176,121,78,3543.6088435002603,None,3543.6088435002603,None,2,1.224530499894172,3543.6088435002603,None,3544.8792993999086,None,3545.3889283002354,None,3545.3889283002354,None,f,0.32403620006516576,3545.3889283002354,None,,,NC 25,001,2021_Nov_15_1319,ProdSingRedo,3.2.3,59.90918969806171,
,,,,177,0,177,0,,,,,,,,,,,,,,,,,,,,,,,,3548.3897836999968,None,,,,,,,,,,,,,,,,,direction,new_c,white,177,154,94,3546.248032500036,None,3546.248032500036,None,5,1.2893493003211915,3546.248032500036,None,3547.5827224999666,None,3548.0897309002466,None,3548.0897309002466,None,f,0.263839699793607,3548.0897309002466,None,,,NC 25,001,2021_Nov_15_1319,ProdSingRedo,3.2.3,59.90918969806171,
,,,,178,0,178,0,,,,,,,,,,,,,,,,,,,,,,,,3551.2921653999947,None,,,,,,,,,,,,,,,,,figure,new_c,white,178,175,128,3548.918925399892,None,3548.918925399892,None,5,1.1221021004021168,3548.918925399892,None,3550.072270500008,None,3550.5973136001267,None,3550.5973136001267,None,f,0.6601145998574793,3550.5973136001267,None,,,NC 25,001,2021_Nov_15_1319,ProdSingRedo,3.2.3,59.90918969806171,
,,,,179,0,179,0,,,,,,,,,,,,,,,,,,,,,,,,3554.0957018001936,None,,,,,,,,,,,,,,,,,season,sing,white,179,6,277,3551.8172754002735,None,3551.8172754002735,None,5,1.424292900133878,3551.8172754002735,None,3553.2930902000517,None,3553.815989200026,None,3553.815989200026,None,f,0.24936809996142983,3553.815989200026,None,,,NC 25,001,2021_Nov_15_1319,ProdSingRedo,3.2.3,59.90918969806171,
,,,,,,,,,,,,,,,,,,,,,,,,,,,,,,,,,,,,,,,,,,,,,,,,,,,,,,,,,,,,,,,,,,,,,,,,,3554.60579230031,None,,,,,,,
