StudyLoop.thisRepN,StudyLoop.thisTrialN,StudyLoop.thisN,StudyLoop.thisIndex,TestLoop.thisRepN,TestLoop.thisTrialN,TestLoop.thisN,TestLoop.thisIndex,keyCondition.keys,keyCondition.rt,Condition,stim_colors,color_sing,color_aloud,color_silent,keyWelcome.keys,keyWelcome.rt,study_word,study_type,study_color,study_num,study_word_num,keyStudy.keys,key_resp_3.keys,key_resp_3.rt,testWord,testType,testColor,testN,test_num,test_word_num,keyConf.keys,keyConf.rt,keyRKN.keys,keyRKN.rt,date,frameRate,expName,session,participant,
,,,,,,,,n,27.1160217,,,,,,,,,,,,,,,,,,,,,,,,,,2022_Jan_31_1054,60.0208032081,ProdSingRedo,001,NC 27,
,,,,,,,,,,NeutralTest,"['yellow', 'blue', 'red']",yellow,blue,red,space,442.2056832,,,,,,,,,,,,,,,,,,,2022_Jan_31_1054,60.0208032081,ProdSingRedo,001,NC 27,
0,0,0,0,,,,,,,,,,,,,,skill,aloud,blue,38,289,None,,,,,,,,,,,,,2022_Jan_31_1054,60.0208032081,ProdSingRedo,001,NC 27,
1,0,1,0,,,,,,,,,,,,,,attack,silent,red,88,13,None,,,,,,,,,,,,,2022_Jan_31_1054,60.0208032081,ProdSingRedo,001,NC 27,
2,0,2,0,,,,,,,,,,,,,,frank,aloud,blue,35,133,None,,,,,,,,,,,,,2022_Jan_31_1054,60.0208032081,ProdSingRedo,001,NC 27,
3,0,3,0,,,,,,,,,,,,,,material,silent,red,84,182,None,,,,,,,,,,,,,2022_Jan_31_1054,60.0208032081,ProdSingRedo,001,NC 27,
4,0,4,0,,,,,,,,,,,,,,principal,silent,red,74,236,None,,,,,,,,,,,,,2022_Jan_31_1054,60.0208032081,ProdSingRedo,001,NC 27,
5,0,5,0,,,,,,,,,,,,,,afternoon,aloud,blue,44,3,None,,,,,,,,,,,,,2022_Jan_31_1054,60.0208032081,ProdSingRedo,001,NC 27,
6,0,6,0,,,,,,,,,,,,,,relation,silent,red,81,257,None,,,,,,,,,,,,,2022_Jan_31_1054,60.0208032081,ProdSingRedo,001,NC 27,
7,0,7,0,,,,,,,,,,,,,,science,aloud,blue,54,275,None,,,,,,,,,,,,,2022_Jan_31_1054,60.0208032081,ProdSingRedo,001,NC 27,
8,0,8,0,,,,,,,,,,,,,,enemy,sing,yellow,0,113,None,,,,,,,,,,,,,2022_Jan_31_1054,60.0208032081,ProdSingRedo,001,NC 27,
9,0,9,0,,,,,,,,,,,,,,split,sing,yellow,17,299,None,,,,,,,,,,,,,2022_Jan_31_1054,60.0208032081,ProdSingRedo,001,NC 27,
10,0,10,0,,,,,,,,,,,,,,passage,sing,yellow,23,212,None,,,,,,,,,,,,,2022_Jan_31_1054,60.0208032081,ProdSingRedo,001,NC 27,
11,0,11,0,,,,,,,,,,,,,,report,silent,red,62,259,None,,,,,,,,,,,,,2022_Jan_31_1054,60.0208032081,ProdSingRedo,001,NC 27,
12,0,12,0,,,,,,,,,,,,,,medicine,aloud,blue,32,186,None,,,,,,,,,,,,,2022_Jan_31_1054,60.0208032081,ProdSingRedo,001,NC 27,
13,0,13,0,,,,,,,,,,,,,,native,sing,yellow,12,199,None,,,,,,,,,,,,,2022_Jan_31_1054,60.0208032081,ProdSingRedo,001,NC 27,
14,0,14,0,,,,,,,,,,,,,,clean,aloud,blue,59,51,None,,,,,,,,,,,,,2022_Jan_31_1054,60.0208032081,ProdSingRedo,001,NC 27,
15,0,15,0,,,,,,,,,,,,,,military,silent,red,85,190,None,,,,,,,,,,,,,2022_Jan_31_1054,60.0208032081,ProdSingRedo,001,NC 27,
16,0,16,0,,,,,,,,,,,,,,suggestion,aloud,blue,52,314,None,,,,,,,,,,,,,2022_Jan_31_1054,60.0208032081,ProdSingRedo,001,NC 27,
17,0,17,0,,,,,,,,,,,,,,personnel,aloud,blue,51,219,None,,,,,,,,,,,,,2022_Jan_31_1054,60.0208032081,ProdSingRedo,001,NC 27,
18,0,18,0,,,,,,,,,,,,,,degree,aloud,blue,30,89,None,,,,,,,,,,,,,2022_Jan_31_1054,60.0208032081,ProdSingRedo,001,NC 27,
19,0,19,0,,,,,,,,,,,,,,expansion,sing,yellow,5,123,None,,,,,,,,,,,,,2022_Jan_31_1054,60.0208032081,ProdSingRedo,001,NC 27,
20,0,20,0,,,,,,,,,,,,,,character,silent,red,69,46,None,,,,,,,,,,,,,2022_Jan_31_1054,60.0208032081,ProdSingRedo,001,NC 27,
21,0,21,0,,,,,,,,,,,,,,substance,aloud,blue,39,313,None,,,,,,,,,,,,,2022_Jan_31_1054,60.0208032081,ProdSingRedo,001,NC 27,
22,0,22,0,,,,,,,,,,,,,,guide,sing,yellow,4,147,None,,,,,,,,,,,,,2022_Jan_31_1054,60.0208032081,ProdSingRedo,001,NC 27,
23,0,23,0,,,,,,,,,,,,,,clear,silent,red,64,52,None,,,,,,,,,,,,,2022_Jan_31_1054,60.0208032081,ProdSingRedo,001,NC 27,
24,0,24,0,,,,,,,,,,,,,,problem,sing,yellow,26,238,None,,,,,,,,,,,,,2022_Jan_31_1054,60.0208032081,ProdSingRedo,001,NC 27,
25,0,25,0,,,,,,,,,,,,,,second,sing,yellow,8,278,None,,,,,,,,,,,,,2022_Jan_31_1054,60.0208032081,ProdSingRedo,001,NC 27,
26,0,26,0,,,,,,,,,,,,,,portion,silent,red,83,228,None,,,,,,,,,,,,,2022_Jan_31_1054,60.0208032081,ProdSingRedo,001,NC 27,
27,0,27,0,,,,,,,,,,,,,,colonel,silent,red,71,55,None,,,,,,,,,,,,,2022_Jan_31_1054,60.0208032081,ProdSingRedo,001,NC 27,
28,0,28,0,,,,,,,,,,,,,,evidence,silent,red,73,120,None,,,,,,,,,,,,,2022_Jan_31_1054,60.0208032081,ProdSingRedo,001,NC 27,
29,0,29,0,,,,,,,,,,,,,,junior,silent,red,63,167,None,,,,,,,,,,,,,2022_Jan_31_1054,60.0208032081,ProdSingRedo,001,NC 27,
30,0,30,0,,,,,,,,,,,,,,poetry,aloud,blue,36,225,None,,,,,,,,,,,,,2022_Jan_31_1054,60.0208032081,ProdSingRedo,001,NC 27,
31,0,31,0,,,,,,,,,,,,,,estate,aloud,blue,50,119,None,,,,,,,,,,,,,2022_Jan_31_1054,60.0208032081,ProdSingRedo,001,NC 27,
32,0,32,0,,,,,,,,,,,,,,crisis,silent,red,61,79,None,,,,,,,,,,,,,2022_Jan_31_1054,60.0208032081,ProdSingRedo,001,NC 27,
33,0,33,0,,,,,,,,,,,,,,comedy,silent,red,72,58,None,,,,,,,,,,,,,2022_Jan_31_1054,60.0208032081,ProdSingRedo,001,NC 27,
34,0,34,0,,,,,,,,,,,,,,revolution,sing,yellow,18,264,None,,,,,,,,,,,,,2022_Jan_31_1054,60.0208032081,ProdSingRedo,001,NC 27,
35,0,35,0,,,,,,,,,,,,,,patient,aloud,blue,45,213,None,,,,,,,,,,,,,2022_Jan_31_1054,60.0208032081,ProdSingRedo,001,NC 27,
36,0,36,0,,,,,,,,,,,,,,gesture,sing,yellow,15,137,None,,,,,,,,,,,,,2022_Jan_31_1054,60.0208032081,ProdSingRedo,001,NC 27,
37,0,37,0,,,,,,,,,,,,,,victory,silent,red,87,346,None,,,,,,,,,,,,,2022_Jan_31_1054,60.0208032081,ProdSingRedo,001,NC 27,
38,0,38,0,,,,,,,,,,,,,,range,silent,red,65,251,None,,,,,,,,,,,,,2022_Jan_31_1054,60.0208032081,ProdSingRedo,001,NC 27,
39,0,39,0,,,,,,,,,,,,,,broad,aloud,blue,37,31,None,,,,,,,,,,,,,2022_Jan_31_1054,60.0208032081,ProdSingRedo,001,NC 27,
40,0,40,0,,,,,,,,,,,,,,stand,silent,red,82,302,None,,,,,,,,,,,,,2022_Jan_31_1054,60.0208032081,ProdSingRedo,001,NC 27,
41,0,41,0,,,,,,,,,,,,,,raise,aloud,blue,43,250,None,,,,,,,,,,,,,2022_Jan_31_1054,60.0208032081,ProdSingRedo,001,NC 27,
42,0,42,0,,,,,,,,,,,,,,series,aloud,blue,47,279,None,,,,,,,,,,,,,2022_Jan_31_1054,60.0208032081,ProdSingRedo,001,NC 27,
43,0,43,0,,,,,,,,,,,,,,drama,silent,red,76,103,None,,,,,,,,,,,,,2022_Jan_31_1054,60.0208032081,ProdSingRedo,001,NC 27,
44,0,44,0,,,,,,,,,,,,,,master,silent,red,68,180,None,,,,,,,,,,,,,2022_Jan_31_1054,60.0208032081,ProdSingRedo,001,NC 27,
45,0,45,0,,,,,,,,,,,,,,thing,silent,red,86,328,None,,,,,,,,,,,,,2022_Jan_31_1054,60.0208032081,ProdSingRedo,001,NC 27,
46,0,46,0,,,,,,,,,,,,,,equipment,sing,yellow,9,116,None,,,,,,,,,,,,,2022_Jan_31_1054,60.0208032081,ProdSingRedo,001,NC 27,
47,0,47,0,,,,,,,,,,,,,,murder,silent,red,80,195,None,,,,,,,,,,,,,2022_Jan_31_1054,60.0208032081,ProdSingRedo,001,NC 27,
48,0,48,0,,,,,,,,,,,,,,rural,silent,red,79,269,None,,,,,,,,,,,,,2022_Jan_31_1054,60.0208032081,ProdSingRedo,001,NC 27,
49,0,49,0,,,,,,,,,,,,,,brilliant,aloud,blue,41,30,None,,,,,,,,,,,,,2022_Jan_31_1054,60.0208032081,ProdSingRedo,001,NC 27,
50,0,50,0,,,,,,,,,,,,,,addition,aloud,blue,33,2,None,,,,,,,,,,,,,2022_Jan_31_1054,60.0208032081,ProdSingRedo,001,NC 27,
51,0,51,0,,,,,,,,,,,,,,capital,aloud,blue,48,40,None,,,,,,,,,,,,,2022_Jan_31_1054,60.0208032081,ProdSingRedo,001,NC 27,
52,0,52,0,,,,,,,,,,,,,,quick,sing,yellow,21,248,None,,,,,,,,,,,,,2022_Jan_31_1054,60.0208032081,ProdSingRedo,001,NC 27,
53,0,53,0,,,,,,,,,,,,,,agency,sing,yellow,1,4,None,,,,,,,,,,,,,2022_Jan_31_1054,60.0208032081,ProdSingRedo,001,NC 27,
54,0,54,0,,,,,,,,,,,,,,member,aloud,blue,58,188,None,,,,,,,,,,,,,2022_Jan_31_1054,60.0208032081,ProdSingRedo,001,NC 27,
55,0,55,0,,,,,,,,,,,,,,entrance,sing,yellow,16,115,None,,,,,,,,,,,,,2022_Jan_31_1054,60.0208032081,ProdSingRedo,001,NC 27,
56,0,56,0,,,,,,,,,,,,,,school,silent,red,70,274,None,,,,,,,,,,,,,2022_Jan_31_1054,60.0208032081,ProdSingRedo,001,NC 27,
57,0,57,0,,,,,,,,,,,,,,private,sing,yellow,19,237,None,,,,,,,,,,,,,2022_Jan_31_1054,60.0208032081,ProdSingRedo,001,NC 27,
58,0,58,0,,,,,,,,,,,,,,group,silent,red,66,143,None,,,,,,,,,,,,,2022_Jan_31_1054,60.0208032081,ProdSingRedo,001,NC 27,
59,0,59,0,,,,,,,,,,,,,,number,sing,yellow,2,203,None,,,,,,,,,,,,,2022_Jan_31_1054,60.0208032081,ProdSingRedo,001,NC 27,
60,0,60,0,,,,,,,,,,,,,,conference,sing,yellow,22,66,None,,,,,,,,,,,,,2022_Jan_31_1054,60.0208032081,ProdSingRedo,001,NC 27,
61,0,61,0,,,,,,,,,,,,,,block,silent,red,60,25,None,,,,,,,,,,,,,2022_Jan_31_1054,60.0208032081,ProdSingRedo,001,NC 27,
62,0,62,0,,,,,,,,,,,,,,union,sing,yellow,10,344,None,,,,,,,,,,,,,2022_Jan_31_1054,60.0208032081,ProdSingRedo,001,NC 27,
63,0,63,0,,,,,,,,,,,,,,close,aloud,blue,53,53,None,,,,,,,,,,,,,2022_Jan_31_1054,60.0208032081,ProdSingRedo,001,NC 27,
64,0,64,0,,,,,,,,,,,,,,incident,aloud,blue,42,158,None,,,,,,,,,,,,,2022_Jan_31_1054,60.0208032081,ProdSingRedo,001,NC 27,
65,0,65,0,,,,,,,,,,,,,,council,sing,yellow,25,71,None,,,,,,,,,,,,,2022_Jan_31_1054,60.0208032081,ProdSingRedo,001,NC 27,
66,0,66,0,,,,,,,,,,,,,,education,aloud,blue,56,108,None,,,,,,,,,,,,,2022_Jan_31_1054,60.0208032081,ProdSingRedo,001,NC 27,
67,0,67,0,,,,,,,,,,,,,,provision,sing,yellow,6,243,None,,,,,,,,,,,,,2022_Jan_31_1054,60.0208032081,ProdSingRedo,001,NC 27,
68,0,68,0,,,,,,,,,,,,,,rough,silent,red,89,266,None,,,,,,,,,,,,,2022_Jan_31_1054,60.0208032081,ProdSingRedo,001,NC 27,
69,0,69,0,,,,,,,,,,,,,,still,sing,yellow,24,304,None,,,,,,,,,,,,,2022_Jan_31_1054,60.0208032081,ProdSingRedo,001,NC 27,
70,0,70,0,,,,,,,,,,,,,,service,aloud,blue,46,280,None,,,,,,,,,,,,,2022_Jan_31_1054,60.0208032081,ProdSingRedo,001,NC 27,
71,0,71,0,,,,,,,,,,,,,,symbol,sing,yellow,13,321,None,,,,,,,,,,,,,2022_Jan_31_1054,60.0208032081,ProdSingRedo,001,NC 27,
72,0,72,0,,,,,,,,,,,,,,bitter,sing,yellow,14,23,None,,,,,,,,,,,,,2022_Jan_31_1054,60.0208032081,ProdSingRedo,001,NC 27,
73,0,73,0,,,,,,,,,,,,,,finish,aloud,blue,55,130,None,,,,,,,,,,,,,2022_Jan_31_1054,60.0208032081,ProdSingRedo,001,NC 27,
74,0,74,0,,,,,,,,,,,,,,profession,silent,red,75,241,None,,,,,,,,,,,,,2022_Jan_31_1054,60.0208032081,ProdSingRedo,001,NC 27,
75,0,75,0,,,,,,,,,,,,,,silence,aloud,blue,57,288,None,,,,,,,,,,,,,2022_Jan_31_1054,60.0208032081,ProdSingRedo,001,NC 27,
76,0,76,0,,,,,,,,,,,,,,appeal,aloud,blue,34,9,None,,,,,,,,,,,,,2022_Jan_31_1054,60.0208032081,ProdSingRedo,001,NC 27,
77,0,77,0,,,,,,,,,,,,,,citizen,silent,red,78,50,None,,,,,,,,,,,,,2022_Jan_31_1054,60.0208032081,ProdSingRedo,001,NC 27,
78,0,78,0,,,,,,,,,,,,,,tough,aloud,blue,40,333,None,,,,,,,,,,,,,2022_Jan_31_1054,60.0208032081,ProdSingRedo,001,NC 27,
79,0,79,0,,,,,,,,,,,,,,style,silent,red,67,311,None,,,,,,,,,,,,,2022_Jan_31_1054,60.0208032081,ProdSingRedo,001,NC 27,
80,0,80,0,,,,,,,,,,,,,,instrument,aloud,blue,31,163,None,,,,,,,,,,,,,2022_Jan_31_1054,60.0208032081,ProdSingRedo,001,NC 27,
81,0,81,0,,,,,,,,,,,,,,rapid,sing,yellow,29,252,None,,,,,,,,,,,,,2022_Jan_31_1054,60.0208032081,ProdSingRedo,001,NC 27,
82,0,82,0,,,,,,,,,,,,,,election,sing,yellow,20,109,None,,,,,,,,,,,,,2022_Jan_31_1054,60.0208032081,ProdSingRedo,001,NC 27,
83,0,83,0,,,,,,,,,,,,,,salary,sing,yellow,7,271,None,,,,,,,,,,,,,2022_Jan_31_1054,60.0208032081,ProdSingRedo,001,NC 27,
84,0,84,0,,,,,,,,,,,,,,phrase,silent,red,77,220,None,,,,,,,,,,,,,2022_Jan_31_1054,60.0208032081,ProdSingRedo,001,NC 27,
85,0,85,0,,,,,,,,,,,,,,command,sing,yellow,28,60,None,,,,,,,,,,,,,2022_Jan_31_1054,60.0208032081,ProdSingRedo,001,NC 27,
86,0,86,0,,,,,,,,,,,,,,broke,sing,yellow,27,32,None,,,,,,,,,,,,,2022_Jan_31_1054,60.0208032081,ProdSingRedo,001,NC 27,
87,0,87,0,,,,,,,,,,,,,,message,sing,yellow,3,189,None,,,,,,,,,,,,,2022_Jan_31_1054,60.0208032081,ProdSingRedo,001,NC 27,
88,0,88,0,,,,,,,,,,,,,,count,sing,yellow,11,72,None,,,,,,,,,,,,,2022_Jan_31_1054,60.0208032081,ProdSingRedo,001,NC 27,
89,0,89,0,,,,,,,,,,,,,,concern,aloud,blue,49,65,None,,,,,,,,,,,,,2022_Jan_31_1054,60.0208032081,ProdSingRedo,001,NC 27,
,,,,,,,,,,,,,,,,,,,,,,,k,99.9736988,,,,,,,,,,,2022_Jan_31_1054,60.0208032081,ProdSingRedo,001,NC 27,
,,,,0,0,0,0,,,,,,,,,,,,,,,,,,concern,aloud,white,0,49,65,5,5.80864359997,f,3.7360647,2022_Jan_31_1054,60.0208032081,ProdSingRedo,001,NC 27,
,,,,1,0,1,0,,,,,,,,,,,,,,,,,,close,aloud,white,1,53,53,6,3.7388316,r,2.75472069997,2022_Jan_31_1054,60.0208032081,ProdSingRedo,001,NC 27,
,,,,2,0,2,0,,,,,,,,,,,,,,,,,,estate,aloud,white,2,50,119,2,2.96091940004,f,2.13351280004,2022_Jan_31_1054,60.0208032081,ProdSingRedo,001,NC 27,
,,,,3,0,3,0,,,,,,,,,,,,,,,,,,pressure,new_c,white,3,162,232,2,2.9277227,f,1.52704679995,2022_Jan_31_1054,60.0208032081,ProdSingRedo,001,NC 27,
,,,,4,0,4,0,,,,,,,,,,,,,,,,,,drama,silent,white,4,76,103,6,3.28463400004,r,1.33050669997,2022_Jan_31_1054,60.0208032081,ProdSingRedo,001,NC 27,
,,,,5,0,5,0,,,,,,,,,,,,,,,,,,story,new_c,white,5,155,306,3,2.62952229998,f,0.505865600018,2022_Jan_31_1054,60.0208032081,ProdSingRedo,001,NC 27,
,,,,6,0,6,0,,,,,,,,,,,,,,,,,,rural,silent,white,6,79,269,6,3.06895300001,r,1.16582960001,2022_Jan_31_1054,60.0208032081,ProdSingRedo,001,NC 27,
,,,,7,0,7,0,,,,,,,,,,,,,,,,,,harmony,new_c,white,7,164,148,1,2.13950410002,n,2.14869050001,2022_Jan_31_1054,60.0208032081,ProdSingRedo,001,NC 27,
,,,,8,0,8,0,,,,,,,,,,,,,,,,,,gesture,sing,white,8,15,137,5,3.47457289998,f,1.36294399999,2022_Jan_31_1054,60.0208032081,ProdSingRedo,001,NC 27,
,,,,9,0,9,0,,,,,,,,,,,,,,,,,,testimony,new_a,white,9,95,325,1,1.9486607,n,1.34651420004,2022_Jan_31_1054,60.0208032081,ProdSingRedo,001,NC 27,
,,,,10,0,10,0,,,,,,,,,,,,,,,,,,suggestion,aloud,white,10,52,314,6,2.6802679,r,0.433666699973,2022_Jan_31_1054,60.0208032081,ProdSingRedo,001,NC 27,
,,,,11,0,11,0,,,,,,,,,,,,,,,,,,turkey,new_a,white,11,100,342,1,1.77802560001,n,1.71601590002,2022_Jan_31_1054,60.0208032081,ProdSingRedo,001,NC 27,
,,,,12,0,12,0,,,,,,,,,,,,,,,,,,solution,new_c,white,12,153,294,5,2.69229969999,f,1.53425510001,2022_Jan_31_1054,60.0208032081,ProdSingRedo,001,NC 27,
,,,,13,0,13,0,,,,,,,,,,,,,,,,,,threat,new_b,white,13,126,329,1,1.78011699999,n,0.983424699982,2022_Jan_31_1054,60.0208032081,ProdSingRedo,001,NC 27,
,,,,14,0,14,0,,,,,,,,,,,,,,,,,,order,new_a,white,14,113,207,4,3.07058360003,f,0.307398999983,2022_Jan_31_1054,60.0208032081,ProdSingRedo,001,NC 27,
,,,,15,0,15,0,,,,,,,,,,,,,,,,,,service,aloud,white,15,46,280,5,2.24400920002,f,0.420680699986,2022_Jan_31_1054,60.0208032081,ProdSingRedo,001,NC 27,
,,,,16,0,16,0,,,,,,,,,,,,,,,,,,season,new_c,white,16,171,277,5,2.44560519996,f,0.866390199983,2022_Jan_31_1054,60.0208032081,ProdSingRedo,001,NC 27,
,,,,17,0,17,0,,,,,,,,,,,,,,,,,,finish,aloud,white,17,55,130,6,2.28074249998,r,0.320148499974,2022_Jan_31_1054,60.0208032081,ProdSingRedo,001,NC 27,
,,,,18,0,18,0,,,,,,,,,,,,,,,,,,passage,sing,white,18,23,212,5,2.48432509997,f,0.305284700007,2022_Jan_31_1054,60.0208032081,ProdSingRedo,001,NC 27,
,,,,19,0,19,0,,,,,,,,,,,,,,,,,,weather,new_b,white,19,141,352,1,1.70932009997,n,0.646803199954,2022_Jan_31_1054,60.0208032081,ProdSingRedo,001,NC 27,
,,,,20,0,20,0,,,,,,,,,,,,,,,,,,exchange,new_b,white,20,128,121,3,1.82314300002,f,0.14534420002,2022_Jan_31_1054,60.0208032081,ProdSingRedo,001,NC 27,
,,,,21,0,21,0,,,,,,,,,,,,,,,,,,brilliant,aloud,white,21,41,30,6,2.84514200001,r,2.1960457,2022_Jan_31_1054,60.0208032081,ProdSingRedo,001,NC 27,
,,,,22,0,22,0,,,,,,,,,,,,,,,,,,series,aloud,white,22,47,279,6,2.5894314,r,0.887557999988,2022_Jan_31_1054,60.0208032081,ProdSingRedo,001,NC 27,
,,,,23,0,23,0,,,,,,,,,,,,,,,,,,damage,new_a,white,23,99,83,4,2.6959693,f,1.2811278,2022_Jan_31_1054,60.0208032081,ProdSingRedo,001,NC 27,
,,,,24,0,24,0,,,,,,,,,,,,,,,,,,impact,new_b,white,24,135,157,1,1.94996499998,n,0.969405500044,2022_Jan_31_1054,60.0208032081,ProdSingRedo,001,NC 27,
,,,,25,0,25,0,,,,,,,,,,,,,,,,,,reach,new_b,white,25,144,253,1,1.63549270004,n,0.435742400005,2022_Jan_31_1054,60.0208032081,ProdSingRedo,001,NC 27,
,,,,26,0,26,0,,,,,,,,,,,,,,,,,,frank,aloud,white,26,35,133,1,1.31256650004,n,0.0974543999764,2022_Jan_31_1054,60.0208032081,ProdSingRedo,001,NC 27,
,,,,27,0,27,0,,,,,,,,,,,,,,,,,,signal,new_b,white,27,123,287,4,2.0611158,f,0.313781799981,2022_Jan_31_1054,60.0208032081,ProdSingRedo,001,NC 27,
,,,,28,0,28,0,,,,,,,,,,,,,,,,,,south,new_b,white,28,148,296,1,1.96886269999,n,1.75595179998,2022_Jan_31_1054,60.0208032081,ProdSingRedo,001,NC 27,
,,,,29,0,29,0,,,,,,,,,,,,,,,,,,crisis,silent,white,29,61,79,2,1.44966069999,f,0.508474999981,2022_Jan_31_1054,60.0208032081,ProdSingRedo,001,NC 27,
,,,,30,0,30,0,,,,,,,,,,,,,,,,,,commercial,new_c,white,30,176,61,1,1.48749010003,n,0.175719099992,2022_Jan_31_1054,60.0208032081,ProdSingRedo,001,NC 27,
,,,,31,0,31,0,,,,,,,,,,,,,,,,,,clear,silent,white,31,64,52,1,2.65033129998,n,0.0523913999787,2022_Jan_31_1054,60.0208032081,ProdSingRedo,001,NC 27,
,,,,32,0,32,0,,,,,,,,,,,,,,,,,,enemy,sing,white,32,0,113,6,2.0674998,r,1.18966469995,2022_Jan_31_1054,60.0208032081,ProdSingRedo,001,NC 27,
,,,,33,0,33,0,,,,,,,,,,,,,,,,,,sight,new_c,white,33,150,286,1,1.48256749997,n,0.235698200006,2022_Jan_31_1054,60.0208032081,ProdSingRedo,001,NC 27,
,,,,34,0,34,0,,,,,,,,,,,,,,,,,,court,new_b,white,34,120,75,2,1.74410980003,f,0.0183926000027,2022_Jan_31_1054,60.0208032081,ProdSingRedo,001,NC 27,
,,,,35,0,35,0,,,,,,,,,,,,,,,,,,management,new_c,white,35,174,177,1,1.9611978,n,2.28333140002,2022_Jan_31_1054,60.0208032081,ProdSingRedo,001,NC 27,
,,,,36,0,36,0,,,,,,,,,,,,,,,,,,crowd,new_b,white,36,146,81,1,1.6350681,n,0.0342258000164,2022_Jan_31_1054,60.0208032081,ProdSingRedo,001,NC 27,
,,,,37,0,37,0,,,,,,,,,,,,,,,,,,meeting,new_b,white,37,138,187,3,2.47350379999,f,1.39642439998,2022_Jan_31_1054,60.0208032081,ProdSingRedo,001,NC 27,
,,,,38,0,38,0,,,,,,,,,,,,,,,,,,colonel,silent,white,38,71,55,6,2.36064949998,r,0.166725800023,2022_Jan_31_1054,60.0208032081,ProdSingRedo,001,NC 27,
,,,,39,0,39,0,,,,,,,,,,,,,,,,,,quiet,new_c,white,39,170,249,3,2.16709880001,f,1.8170872,2022_Jan_31_1054,60.0208032081,ProdSingRedo,001,NC 27,
,,,,40,0,40,0,,,,,,,,,,,,,,,,,,patient,aloud,white,40,45,213,6,2.96702619997,r,1.03207090002,2022_Jan_31_1054,60.0208032081,ProdSingRedo,001,NC 27,
,,,,41,0,41,0,,,,,,,,,,,,,,,,,,style,silent,white,41,67,311,5,2.10066480003,f,0.316862799984,2022_Jan_31_1054,60.0208032081,ProdSingRedo,001,NC 27,
,,,,42,0,42,0,,,,,,,,,,,,,,,,,,school,silent,white,42,70,274,5,1.80062739999,f,0.299883500033,2022_Jan_31_1054,60.0208032081,ProdSingRedo,001,NC 27,
,,,,43,0,43,0,,,,,,,,,,,,,,,,,,addition,aloud,white,43,33,2,6,2.04786230001,r,0.434504000004,2022_Jan_31_1054,60.0208032081,ProdSingRedo,001,NC 27,
,,,,44,0,44,0,,,,,,,,,,,,,,,,,,income,new_c,white,44,168,159,4,3.36492289999,f,0.300372599973,2022_Jan_31_1054,60.0208032081,ProdSingRedo,001,NC 27,
,,,,45,0,45,0,,,,,,,,,,,,,,,,,,capital,aloud,white,45,48,40,6,1.94468840002,r,0.0521996000316,2022_Jan_31_1054,60.0208032081,ProdSingRedo,001,NC 27,
,,,,46,0,46,0,,,,,,,,,,,,,,,,,,thing,silent,white,46,86,328,4,2.8660944,f,0.886823100038,2022_Jan_31_1054,60.0208032081,ProdSingRedo,001,NC 27,
,,,,47,0,47,0,,,,,,,,,,,,,,,,,,medicine,aloud,white,47,32,186,6,1.9984792,r,0.855974700011,2022_Jan_31_1054,60.0208032081,ProdSingRedo,001,NC 27,
,,,,48,0,48,0,,,,,,,,,,,,,,,,,,broke,sing,white,48,27,32,5,1.95796279999,f,0.0995741999941,2022_Jan_31_1054,60.0208032081,ProdSingRedo,001,NC 27,
,,,,49,0,49,0,,,,,,,,,,,,,,,,,,murder,silent,white,49,80,195,6,2.10350729997,r,0.31587619998,2022_Jan_31_1054,60.0208032081,ProdSingRedo,001,NC 27,
,,,,50,0,50,0,,,,,,,,,,,,,,,,,,individual,new_c,white,50,157,160,5,2.61719259998,f,0.0948523000116,2022_Jan_31_1054,60.0208032081,ProdSingRedo,001,NC 27,
,,,,51,0,51,0,,,,,,,,,,,,,,,,,,session,new_b,white,51,140,281,6,1.89669559995,r,0.387032600003,2022_Jan_31_1054,60.0208032081,ProdSingRedo,001,NC 27,
,,,,52,0,52,0,,,,,,,,,,,,,,,,,,husband,new_a,white,52,101,156,1,1.5351941,n,0.000689800013788,2022_Jan_31_1054,60.0208032081,ProdSingRedo,001,NC 27,
,,,,53,0,53,0,,,,,,,,,,,,,,,,,,subject,new_c,white,53,178,312,3,2.35384460003,f,0.16773039999,2022_Jan_31_1054,60.0208032081,ProdSingRedo,001,NC 27,
,,,,54,0,54,0,,,,,,,,,,,,,,,,,,smell,new_a,white,54,108,291,1,1.48329449998,n,0.0407002000138,2022_Jan_31_1054,60.0208032081,ProdSingRedo,001,NC 27,
,,,,55,0,55,0,,,,,,,,,,,,,,,,,,dream,new_b,white,55,127,104,3,3.40249010001,f,1.2875561,2022_Jan_31_1054,60.0208032081,ProdSingRedo,001,NC 27,
,,,,56,0,56,0,,,,,,,,,,,,,,,,,,sweet,new_a,white,56,98,319,1,1.57760779996,n,1.45317540003,2022_Jan_31_1054,60.0208032081,ProdSingRedo,001,NC 27,
,,,,57,0,57,0,,,,,,,,,,,,,,,,,,judge,new_a,white,57,116,166,6,6.30703830003,r,0.133216999995,2022_Jan_31_1054,60.0208032081,ProdSingRedo,001,NC 27,
,,,,58,0,58,0,,,,,,,,,,,,,,,,,,captain,new_b,white,58,142,41,3,1.69219169999,f,0.0165717999917,2022_Jan_31_1054,60.0208032081,ProdSingRedo,001,NC 27,
,,,,59,0,59,0,,,,,,,,,,,,,,,,,,material,silent,white,59,84,182,6,3.15865130001,r,0.759596000018,2022_Jan_31_1054,60.0208032081,ProdSingRedo,001,NC 27,
,,,,60,0,60,0,,,,,,,,,,,,,,,,,,shock,new_c,white,60,156,284,3,1.49897989997,f,0.582678799983,2022_Jan_31_1054,60.0208032081,ProdSingRedo,001,NC 27,
,,,,61,0,61,0,,,,,,,,,,,,,,,,,,guest,new_b,white,61,125,146,3,1.91647739999,f,0.915119300014,2022_Jan_31_1054,60.0208032081,ProdSingRedo,001,NC 27,
,,,,62,0,62,0,,,,,,,,,,,,,,,,,,waste,new_a,white,62,91,350,1,1.59780609998,n,0.12554639997,2022_Jan_31_1054,60.0208032081,ProdSingRedo,001,NC 27,
,,,,63,0,63,0,,,,,,,,,,,,,,,,,,cousin,new_a,white,63,109,76,2,3.02987899998,f,0.28255449998,2022_Jan_31_1054,60.0208032081,ProdSingRedo,001,NC 27,
,,,,64,0,64,0,,,,,,,,,,,,,,,,,,tennis,new_c,white,64,179,323,3,2.67443990003,f,0.000901199993677,2022_Jan_31_1054,60.0208032081,ProdSingRedo,001,NC 27,
,,,,65,0,65,0,,,,,,,,,,,,,,,,,,finance,new_c,white,65,154,129,1,2.17709189997,n,0.0282357999822,2022_Jan_31_1054,60.0208032081,ProdSingRedo,001,NC 27,
,,,,66,0,66,0,,,,,,,,,,,,,,,,,,sleep,new_a,white,66,97,290,2,2.20160299999,f,0.775166300009,2022_Jan_31_1054,60.0208032081,ProdSingRedo,001,NC 27,
,,,,67,0,67,0,,,,,,,,,,,,,,,,,,second,sing,white,67,8,278,3,1.72950130003,f,0.154943200003,2022_Jan_31_1054,60.0208032081,ProdSingRedo,001,NC 27,
,,,,68,0,68,0,,,,,,,,,,,,,,,,,,community,new_b,white,68,145,63,1,2.35155600001,n,0.058138500026,2022_Jan_31_1054,60.0208032081,ProdSingRedo,001,NC 27,
,,,,69,0,69,0,,,,,,,,,,,,,,,,,,generation,new_a,white,69,96,136,1,4.01245030004,n,0.0810109999729,2022_Jan_31_1054,60.0208032081,ProdSingRedo,001,NC 27,
,,,,70,0,70,0,,,,,,,,,,,,,,,,,,degree,aloud,white,70,30,89,6,1.34624430002,r,0.131136500044,2022_Jan_31_1054,60.0208032081,ProdSingRedo,001,NC 27,
,,,,71,0,71,0,,,,,,,,,,,,,,,,,,principal,silent,white,71,74,236,6,2.00699640001,r,0.277023999952,2022_Jan_31_1054,60.0208032081,ProdSingRedo,001,NC 27,
,,,,72,0,72,0,,,,,,,,,,,,,,,,,,trail,new_c,white,72,167,336,1,1.39832069998,n,0.220544300042,2022_Jan_31_1054,60.0208032081,ProdSingRedo,001,NC 27,
,,,,73,0,73,0,,,,,,,,,,,,,,,,,,guide,sing,white,73,4,147,6,2.26981289999,r,0.323238299985,2022_Jan_31_1054,60.0208032081,ProdSingRedo,001,NC 27,
,,,,74,0,74,0,,,,,,,,,,,,,,,,,,instrument,aloud,white,74,31,163,6,1.67406559997,r,0.360971099988,2022_Jan_31_1054,60.0208032081,ProdSingRedo,001,NC 27,
,,,,75,0,75,0,,,,,,,,,,,,,,,,,,appearance,new_b,white,75,139,10,3,1.32428389997,f,0.20679560001,2022_Jan_31_1054,60.0208032081,ProdSingRedo,001,NC 27,
,,,,76,0,76,0,,,,,,,,,,,,,,,,,,group,silent,white,76,66,143,4,1.89636660001,f,0.105900400027,2022_Jan_31_1054,60.0208032081,ProdSingRedo,001,NC 27,
,,,,77,0,77,0,,,,,,,,,,,,,,,,,,empty,new_c,white,77,173,112,5,2.189878,f,0.088661799964,2022_Jan_31_1054,60.0208032081,ProdSingRedo,001,NC 27,
,,,,78,0,78,0,,,,,,,,,,,,,,,,,,rapid,sing,white,78,29,252,2,1.42486969999,f,0.117417000001,2022_Jan_31_1054,60.0208032081,ProdSingRedo,001,NC 27,
,,,,79,0,79,0,,,,,,,,,,,,,,,,,,corner,new_c,white,79,172,69,1,2.64848549996,n,0.605916300032,2022_Jan_31_1054,60.0208032081,ProdSingRedo,001,NC 27,
,,,,80,0,80,0,,,,,,,,,,,,,,,,,,track,new_a,white,80,112,334,2,1.85092890001,f,0.136162900017,2022_Jan_31_1054,60.0208032081,ProdSingRedo,001,NC 27,
,,,,81,0,81,0,,,,,,,,,,,,,,,,,,force,new_a,white,81,115,131,2,1.70566400001,f,0.250832999998,2022_Jan_31_1054,60.0208032081,ProdSingRedo,001,NC 27,
,,,,82,0,82,0,,,,,,,,,,,,,,,,,,piece,new_b,white,82,136,221,3,2.4023819,f,1.1568927,2022_Jan_31_1054,60.0208032081,ProdSingRedo,001,NC 27,
,,,,83,0,83,0,,,,,,,,,,,,,,,,,,victory,silent,white,83,87,346,4,1.80163079995,f,0.518274599977,2022_Jan_31_1054,60.0208032081,ProdSingRedo,001,NC 27,
,,,,84,0,84,0,,,,,,,,,,,,,,,,,,phrase,silent,white,84,77,220,4,6.26996830001,r,0.832078800013,2022_Jan_31_1054,60.0208032081,ProdSingRedo,001,NC 27,
,,,,85,0,85,0,,,,,,,,,,,,,,,,,,afternoon,aloud,white,85,44,3,3,1.63212989998,f,0.2506651,2022_Jan_31_1054,60.0208032081,ProdSingRedo,001,NC 27,
,,,,86,0,86,0,,,,,,,,,,,,,,,,,,pancakes,new_c,white,86,159,210,1,1.25397950003,n,0.0284285999951,2022_Jan_31_1054,60.0208032081,ProdSingRedo,001,NC 27,
,,,,87,0,87,0,,,,,,,,,,,,,,,,,,range,silent,white,87,65,251,6,1.53589390003,r,0.115766500006,2022_Jan_31_1054,60.0208032081,ProdSingRedo,001,NC 27,
,,,,88,0,88,0,,,,,,,,,,,,,,,,,,fashion,new_a,white,88,106,125,1,1.49809860002,n,0.147498799954,2022_Jan_31_1054,60.0208032081,ProdSingRedo,001,NC 27,
,,,,89,0,89,0,,,,,,,,,,,,,,,,,,revolution,sing,white,89,18,264,3,3.6768826,f,0.223223000008,2022_Jan_31_1054,60.0208032081,ProdSingRedo,001,NC 27,
,,,,90,0,90,0,,,,,,,,,,,,,,,,,,height,new_a,white,90,107,152,3,1.6760715,f,0.11973809998,2022_Jan_31_1054,60.0208032081,ProdSingRedo,001,NC 27,
,,,,91,0,91,0,,,,,,,,,,,,,,,,,,speech,new_c,white,91,161,298,6,1.57160649996,r,0.303934300027,2022_Jan_31_1054,60.0208032081,ProdSingRedo,001,NC 27,
,,,,92,0,92,0,,,,,,,,,,,,,,,,,,council,sing,white,92,25,71,3,2.66655680002,f,2.23624930001,2022_Jan_31_1054,60.0208032081,ProdSingRedo,001,NC 27,
,,,,93,0,93,0,,,,,,,,,,,,,,,,,,smooth,new_a,white,93,118,292,4,1.54945279995,f,0.135101700027,2022_Jan_31_1054,60.0208032081,ProdSingRedo,001,NC 27,
,,,,94,0,94,0,,,,,,,,,,,,,,,,,,mankind,new_b,white,94,121,178,1,1.31143190002,n,1.27615299996,2022_Jan_31_1054,60.0208032081,ProdSingRedo,001,NC 27,
,,,,95,0,95,0,,,,,,,,,,,,,,,,,,store,new_c,white,95,160,305,5,1.53686560004,f,0.425614300009,2022_Jan_31_1054,60.0208032081,ProdSingRedo,001,NC 27,
,,,,96,0,96,0,,,,,,,,,,,,,,,,,,goose,new_c,white,96,177,138,1,2.44780329999,n,0.0901012999821,2022_Jan_31_1054,60.0208032081,ProdSingRedo,001,NC 27,
,,,,97,0,97,0,,,,,,,,,,,,,,,,,,month,new_a,white,97,103,193,1,1.50069969997,n,0.0212587999995,2022_Jan_31_1054,60.0208032081,ProdSingRedo,001,NC 27,
,,,,98,0,98,0,,,,,,,,,,,,,,,,,,beginning,new_c,white,98,163,19,6,1.47495130001,r,0.35734430002,2022_Jan_31_1054,60.0208032081,ProdSingRedo,001,NC 27,
,,,,99,0,99,0,,,,,,,,,,,,,,,,,,count,sing,white,99,11,72,2,2.18284690002,f,0.537731399992,2022_Jan_31_1054,60.0208032081,ProdSingRedo,001,NC 27,
,,,,100,0,100,0,,,,,,,,,,,,,,,,,,point,new_a,white,100,90,226,4,1.86550240003,f,0.0861335999798,2022_Jan_31_1054,60.0208032081,ProdSingRedo,001,NC 27,
,,,,101,0,101,0,,,,,,,,,,,,,,,,,,message,sing,white,101,3,189,6,1.9126102,r,0.315023800009,2022_Jan_31_1054,60.0208032081,ProdSingRedo,001,NC 27,
,,,,102,0,102,0,,,,,,,,,,,,,,,,,,appeal,aloud,white,102,34,9,3,2.42686919996,f,0.181075200031,2022_Jan_31_1054,60.0208032081,ProdSingRedo,001,NC 27,
,,,,103,0,103,0,,,,,,,,,,,,,,,,,,election,sing,white,103,20,109,6,1.66068959999,r,0.289263999963,2022_Jan_31_1054,60.0208032081,ProdSingRedo,001,NC 27,
,,,,104,0,104,0,,,,,,,,,,,,,,,,,,clean,aloud,white,104,59,51,2,1.35321839998,n,3.35201980005,2022_Jan_31_1054,60.0208032081,ProdSingRedo,001,NC 27,
,,,,105,0,105,0,,,,,,,,,,,,,,,,,,command,sing,white,105,28,60,5,2.01094780001,f,0.465502799954,2022_Jan_31_1054,60.0208032081,ProdSingRedo,001,NC 27,
,,,,106,0,106,0,,,,,,,,,,,,,,,,,,citizen,silent,white,106,78,50,5,4.26552760002,f,0.334782799997,2022_Jan_31_1054,60.0208032081,ProdSingRedo,001,NC 27,
,,,,107,0,107,0,,,,,,,,,,,,,,,,,,household,new_b,white,107,134,154,3,2.03619329998,f,0.928230799967,2022_Jan_31_1054,60.0208032081,ProdSingRedo,001,NC 27,
,,,,108,0,108,0,,,,,,,,,,,,,,,,,,conference,sing,white,108,22,66,3,1.921172,f,0.145221000013,2022_Jan_31_1054,60.0208032081,ProdSingRedo,001,NC 27,
,,,,109,0,109,0,,,,,,,,,,,,,,,,,,straight,new_b,white,109,131,307,2,2.06677869998,f,0.329495100013,2022_Jan_31_1054,60.0208032081,ProdSingRedo,001,NC 27,
,,,,110,0,110,0,,,,,,,,,,,,,,,,,,platform,new_c,white,110,158,224,2,4.92313100002,f,0.327456800034,2022_Jan_31_1054,60.0208032081,ProdSingRedo,001,NC 27,
,,,,111,0,111,0,,,,,,,,,,,,,,,,,,territory,new_c,white,111,151,324,2,1.73828529997,f,0.600320699974,2022_Jan_31_1054,60.0208032081,ProdSingRedo,001,NC 27,
,,,,112,0,112,0,,,,,,,,,,,,,,,,,,dispute,new_c,white,112,165,99,4,1.79807210003,f,0.200966399978,2022_Jan_31_1054,60.0208032081,ProdSingRedo,001,NC 27,
,,,,113,0,113,0,,,,,,,,,,,,,,,,,,youth,new_a,white,113,104,359,4,1.52841929998,f,0.219587199972,2022_Jan_31_1054,60.0208032081,ProdSingRedo,001,NC 27,
,,,,114,0,114,0,,,,,,,,,,,,,,,,,,expansion,sing,white,114,5,123,6,1.46639950003,r,0.25221159996,2022_Jan_31_1054,60.0208032081,ProdSingRedo,001,NC 27,
,,,,115,0,115,0,,,,,,,,,,,,,,,,,,company,new_c,white,115,169,64,6,2.15507710003,r,0.734509900038,2022_Jan_31_1054,60.0208032081,ProdSingRedo,001,NC 27,
,,,,116,0,116,0,,,,,,,,,,,,,,,,,,quick,sing,white,116,21,248,3,1.64798199997,f,0.376023599994,2022_Jan_31_1054,60.0208032081,ProdSingRedo,001,NC 27,
,,,,117,0,117,0,,,,,,,,,,,,,,,,,,report,silent,white,117,62,259,3,2.46880979999,f,0.139066100004,2022_Jan_31_1054,60.0208032081,ProdSingRedo,001,NC 27,
,,,,118,0,118,0,,,,,,,,,,,,,,,,,,block,silent,white,118,60,25,4,1.39596150001,f,0.302886499965,2022_Jan_31_1054,60.0208032081,ProdSingRedo,001,NC 27,
,,,,119,0,119,0,,,,,,,,,,,,,,,,,,number,sing,white,119,2,203,5,1.66022839997,f,0.154035399959,2022_Jan_31_1054,60.0208032081,ProdSingRedo,001,NC 27,
,,,,120,0,120,0,,,,,,,,,,,,,,,,,,provision,sing,white,120,6,243,2,1.97928810003,f,0.0784366999869,2022_Jan_31_1054,60.0208032081,ProdSingRedo,001,NC 27,
,,,,121,0,121,0,,,,,,,,,,,,,,,,,,course,new_a,white,121,117,74,6,2.30182620004,f,0.402134099975,2022_Jan_31_1054,60.0208032081,ProdSingRedo,001,NC 27,
,,,,122,0,122,0,,,,,,,,,,,,,,,,,,audience,new_b,white,122,130,14,6,1.51242019999,f,0.250770899991,2022_Jan_31_1054,60.0208032081,ProdSingRedo,001,NC 27,
,,,,123,0,123,0,,,,,,,,,,,,,,,,,,curve,new_b,white,123,143,82,1,1.54621100001,n,0.284762299969,2022_Jan_31_1054,60.0208032081,ProdSingRedo,001,NC 27,
,,,,124,0,124,0,,,,,,,,,,,,,,,,,,education,aloud,white,124,56,108,4,2.32919010002,f,0.79654239997,2022_Jan_31_1054,60.0208032081,ProdSingRedo,001,NC 27,
,,,,125,0,125,0,,,,,,,,,,,,,,,,,,rough,silent,white,125,89,266,3,1.95314200001,f,0.222197499999,2022_Jan_31_1054,60.0208032081,ProdSingRedo,001,NC 27,
,,,,126,0,126,0,,,,,,,,,,,,,,,,,,incident,aloud,white,126,42,158,6,2.82765669998,r,0.199949600035,2022_Jan_31_1054,60.0208032081,ProdSingRedo,001,NC 27,
,,,,127,0,127,0,,,,,,,,,,,,,,,,,,swift,new_b,white,127,132,320,2,1.32316230005,f,0.0469552000286,2022_Jan_31_1054,60.0208032081,ProdSingRedo,001,NC 27,
,,,,128,0,128,0,,,,,,,,,,,,,,,,,,dozen,new_b,white,128,124,102,4,2.4972708,f,0.802056299988,2022_Jan_31_1054,60.0208032081,ProdSingRedo,001,NC 27,
,,,,129,0,129,0,,,,,,,,,,,,,,,,,,symbol,sing,white,129,13,321,5,2.66518199997,f,0.653370000015,2022_Jan_31_1054,60.0208032081,ProdSingRedo,001,NC 27,
,,,,130,0,130,0,,,,,,,,,,,,,,,,,,native,sing,white,130,12,199,6,1.55798099999,r,0.183355699992,2022_Jan_31_1054,60.0208032081,ProdSingRedo,001,NC 27,
,,,,131,0,131,0,,,,,,,,,,,,,,,,,,government,new_b,white,131,122,139,3,3.48165999999,f,0.398498199997,2022_Jan_31_1054,60.0208032081,ProdSingRedo,001,NC 27,
,,,,132,0,132,0,,,,,,,,,,,,,,,,,,member,aloud,white,132,58,188,6,1.39356559998,r,0.6001254,2022_Jan_31_1054,60.0208032081,ProdSingRedo,001,NC 27,
,,,,133,0,133,0,,,,,,,,,,,,,,,,,,science,aloud,white,133,54,275,6,1.84860620002,r,0.319727600028,2022_Jan_31_1054,60.0208032081,ProdSingRedo,001,NC 27,
,,,,134,0,134,0,,,,,,,,,,,,,,,,,,article,new_c,white,134,152,11,3,1.54608149995,f,0.303024500026,2022_Jan_31_1054,60.0208032081,ProdSingRedo,001,NC 27,
,,,,135,0,135,0,,,,,,,,,,,,,,,,,,silence,aloud,white,135,57,288,6,1.69673009997,r,0.132982500014,2022_Jan_31_1054,60.0208032081,ProdSingRedo,001,NC 27,
,,,,136,0,136,0,,,,,,,,,,,,,,,,,,profession,silent,white,136,75,241,3,3.44202630001,f,0.560002500017,2022_Jan_31_1054,60.0208032081,ProdSingRedo,001,NC 27,
,,,,137,0,137,0,,,,,,,,,,,,,,,,,,equipment,sing,white,137,9,116,5,1.74257090001,f,0.149542100029,2022_Jan_31_1054,60.0208032081,ProdSingRedo,001,NC 27,
,,,,138,0,138,0,,,,,,,,,,,,,,,,,,evidence,silent,white,138,73,120,6,1.99828100001,r,0.31839879998,2022_Jan_31_1054,60.0208032081,ProdSingRedo,001,NC 27,
,,,,139,0,139,0,,,,,,,,,,,,,,,,,,attack,silent,white,139,88,13,4,1.78002110001,f,0.268900000025,2022_Jan_31_1054,60.0208032081,ProdSingRedo,001,NC 27,
,,,,140,0,140,0,,,,,,,,,,,,,,,,,,personnel,aloud,white,140,51,219,6,1.70200360002,r,1.46450320003,2022_Jan_31_1054,60.0208032081,ProdSingRedo,001,NC 27,
,,,,141,0,141,0,,,,,,,,,,,,,,,,,,minor,new_c,white,141,166,191,1,1.55147380003,n,0.123870699957,2022_Jan_31_1054,60.0208032081,ProdSingRedo,001,NC 27,
,,,,142,0,142,0,,,,,,,,,,,,,,,,,,broad,aloud,white,142,37,31,3,1.86265800003,f,0.000289800052997,2022_Jan_31_1054,60.0208032081,ProdSingRedo,001,NC 27,
,,,,143,0,143,0,,,,,,,,,,,,,,,,,,problem,sing,white,143,26,238,4,2.4131371,f,1.82052279997,2022_Jan_31_1054,60.0208032081,ProdSingRedo,001,NC 27,
,,,,144,0,144,0,,,,,,,,,,,,,,,,,,running,new_a,white,144,102,268,3,2.37430339999,f,0.264402100001,2022_Jan_31_1054,60.0208032081,ProdSingRedo,001,NC 27,
,,,,145,0,145,0,,,,,,,,,,,,,,,,,,salary,sing,white,145,7,271,5,1.75467659999,f,0.238358900009,2022_Jan_31_1054,60.0208032081,ProdSingRedo,001,NC 27,
,,,,146,0,146,0,,,,,,,,,,,,,,,,,,raise,aloud,white,146,43,250,2,2.3326578,f,0.142286300019,2022_Jan_31_1054,60.0208032081,ProdSingRedo,001,NC 27,
,,,,147,0,147,0,,,,,,,,,,,,,,,,,,portion,silent,white,147,83,228,6,1.22663479997,r,0.270147999981,2022_Jan_31_1054,60.0208032081,ProdSingRedo,001,NC 27,
,,,,148,0,148,0,,,,,,,,,,,,,,,,,,agency,sing,white,148,1,4,6,1.67804779997,r,0.32013930002,2022_Jan_31_1054,60.0208032081,ProdSingRedo,001,NC 27,
,,,,149,0,149,0,,,,,,,,,,,,,,,,,,union,sing,white,149,10,344,6,1.81586909998,r,0.339745400008,2022_Jan_31_1054,60.0208032081,ProdSingRedo,001,NC 27,
,,,,150,0,150,0,,,,,,,,,,,,,,,,,,theme,new_a,white,150,114,326,2,1.3876669,f,1.1402123,2022_Jan_31_1054,60.0208032081,ProdSingRedo,001,NC 27,
,,,,151,0,151,0,,,,,,,,,,,,,,,,,,master,silent,white,151,68,180,1,1.87417979998,n,0.403784400027,2022_Jan_31_1054,60.0208032081,ProdSingRedo,001,NC 27,
,,,,152,0,152,0,,,,,,,,,,,,,,,,,,dance,new_c,white,152,175,84,4,1.43156069994,f,0.3020884,2022_Jan_31_1054,60.0208032081,ProdSingRedo,001,NC 27,
,,,,153,0,153,0,,,,,,,,,,,,,,,,,,benefit,new_a,white,153,105,20,6,1.79253449995,f,0.595067499962,2022_Jan_31_1054,60.0208032081,ProdSingRedo,001,NC 27,
,,,,154,0,154,0,,,,,,,,,,,,,,,,,,skill,aloud,white,154,38,289,6,1.20271889999,f,0.333450000035,2022_Jan_31_1054,60.0208032081,ProdSingRedo,001,NC 27,
,,,,155,0,155,0,,,,,,,,,,,,,,,,,,cover,new_a,white,155,93,77,4,1.25986300001,f,0.487294899998,2022_Jan_31_1054,60.0208032081,ProdSingRedo,001,NC 27,
,,,,156,0,156,0,,,,,,,,,,,,,,,,,,vision,new_b,white,156,137,347,5,1.53752140002,f,0.41512379999,2022_Jan_31_1054,60.0208032081,ProdSingRedo,001,NC 27,
,,,,157,0,157,0,,,,,,,,,,,,,,,,,,substance,aloud,white,157,39,313,6,1.80581199995,r,0.494922999991,2022_Jan_31_1054,60.0208032081,ProdSingRedo,001,NC 27,
,,,,158,0,158,0,,,,,,,,,,,,,,,,,,touch,new_a,white,158,92,332,2,1.61083369999,f,0.288089599984,2022_Jan_31_1054,60.0208032081,ProdSingRedo,001,NC 27,
,,,,159,0,159,0,,,,,,,,,,,,,,,,,,military,silent,white,159,85,190,6,1.64590820001,r,0.350031599985,2022_Jan_31_1054,60.0208032081,ProdSingRedo,001,NC 27,
,,,,160,0,160,0,,,,,,,,,,,,,,,,,,character,silent,white,160,69,46,4,1.44131339999,f,0.314469199977,2022_Jan_31_1054,60.0208032081,ProdSingRedo,001,NC 27,
,,,,161,0,161,0,,,,,,,,,,,,,,,,,,junior,silent,white,161,63,167,6,2.40814869996,f,0.263751299994,2022_Jan_31_1054,60.0208032081,ProdSingRedo,001,NC 27,
,,,,162,0,162,0,,,,,,,,,,,,,,,,,,leader,new_b,white,162,149,168,3,1.40871629998,f,0.115174999984,2022_Jan_31_1054,60.0208032081,ProdSingRedo,001,NC 27,
,,,,163,0,163,0,,,,,,,,,,,,,,,,,,prime,new_a,white,163,111,235,4,2.22022999998,f,0.371656999981,2022_Jan_31_1054,60.0208032081,ProdSingRedo,001,NC 27,
,,,,164,0,164,0,,,,,,,,,,,,,,,,,,comedy,silent,white,164,72,58,5,1.69933540002,f,0.353568199964,2022_Jan_31_1054,60.0208032081,ProdSingRedo,001,NC 27,
,,,,165,0,165,0,,,,,,,,,,,,,,,,,,defeat,new_b,white,165,147,88,4,1.4460467,f,0.546989299997,2022_Jan_31_1054,60.0208032081,ProdSingRedo,001,NC 27,
,,,,166,0,166,0,,,,,,,,,,,,,,,,,,still,sing,white,166,24,304,6,1.48569150001,r,0.273737700016,2022_Jan_31_1054,60.0208032081,ProdSingRedo,001,NC 27,
,,,,167,0,167,0,,,,,,,,,,,,,,,,,,guard,new_a,white,167,94,145,4,2.48415480001,f,0.968724400038,2022_Jan_31_1054,60.0208032081,ProdSingRedo,001,NC 27,
,,,,168,0,168,0,,,,,,,,,,,,,,,,,,private,sing,white,168,19,237,6,1.47779139999,r,0.332037099986,2022_Jan_31_1054,60.0208032081,ProdSingRedo,001,NC 27,
,,,,169,0,169,0,,,,,,,,,,,,,,,,,,notice,new_b,white,169,133,201,5,1.60092110001,f,0.405369699991,2022_Jan_31_1054,60.0208032081,ProdSingRedo,001,NC 27,
,,,,170,0,170,0,,,,,,,,,,,,,,,,,,history,new_a,white,170,119,153,6,1.27259219997,f,0.983067900001,2022_Jan_31_1054,60.0208032081,ProdSingRedo,001,NC 27,
,,,,171,0,171,0,,,,,,,,,,,,,,,,,,poetry,aloud,white,171,36,225,6,1.56067390001,r,0.288075799996,2022_Jan_31_1054,60.0208032081,ProdSingRedo,001,NC 27,
,,,,172,0,172,0,,,,,,,,,,,,,,,,,,stand,silent,white,172,82,302,4,1.25079780002,f,0.299860299972,2022_Jan_31_1054,60.0208032081,ProdSingRedo,001,NC 27,
,,,,173,0,173,0,,,,,,,,,,,,,,,,,,tough,aloud,white,173,40,333,6,1.54746219999,f,1.03314909997,2022_Jan_31_1054,60.0208032081,ProdSingRedo,001,NC 27,
,,,,174,0,174,0,,,,,,,,,,,,,,,,,,relation,silent,white,174,81,257,4,3.61769109999,f,0.326387399982,2022_Jan_31_1054,60.0208032081,ProdSingRedo,001,NC 27,
,,,,175,0,175,0,,,,,,,,,,,,,,,,,,bitter,sing,white,175,14,23,6,1.28191200003,f,0.949639599945,2022_Jan_31_1054,60.0208032081,ProdSingRedo,001,NC 27,
,,,,176,0,176,0,,,,,,,,,,,,,,,,,,throw,new_a,white,176,110,330,5,2.21359189996,f,0.806942900002,2022_Jan_31_1054,60.0208032081,ProdSingRedo,001,NC 27,
,,,,177,0,177,0,,,,,,,,,,,,,,,,,,split,sing,white,177,17,299,6,1.33319899999,r,0.322843800008,2022_Jan_31_1054,60.0208032081,ProdSingRedo,001,NC 27,
,,,,178,0,178,0,,,,,,,,,,,,,,,,,,entrance,sing,white,178,16,115,4,1.3407761,f,0.304636400018,2022_Jan_31_1054,60.0208032081,ProdSingRedo,001,NC 27,
,,,,179,0,179,0,,,,,,,,,,,,,,,,,,staff,new_b,white,179,129,301,5,3.24697730003,f,0.322661599959,2022_Jan_31_1054,60.0208032081,ProdSingRedo,001,NC 27,
