StudyLoop.thisRepN,StudyLoop.thisTrialN,StudyLoop.thisN,StudyLoop.thisIndex,TestLoop.thisRepN,TestLoop.thisTrialN,TestLoop.thisN,TestLoop.thisIndex,textCondition.started,textCondition.stopped,keyCondition.keys,keyCondition.rt,keyCondition.started,keyCondition.stopped,Condition,stim_colors,color_sing,color_aloud,color_silent,textWelcome.started,textWelcome.stopped,keyWelcome.keys,keyWelcome.rt,keyWelcome.started,keyWelcome.stopped,textAloud.started,textAloud.stopped,textSilent.started,textSilent.stopped,textSing.started,textSing.stopped,textBlank500.started,textBlank500.stopped,study_word,study_type,study_color,study_num,study_word_num,textStudy.started,textStudy.stopped,keyStudy.keys,keyStudy.started,keyStudy.stopped,textTestInstructions.started,textTestInstructions.stopped,key_resp_3.keys,key_resp_3.rt,key_resp_3.started,key_resp_3.stopped,testWord,testType,testColor,testN,test_num,test_word_num,textConf.started,textConf.stopped,textConfScale.started,textConfScale.stopped,keyConf.keys,keyConf.rt,keyConf.started,keyConf.stopped,textTestBlank.started,textTestBlank.stopped,textRKN.started,textRKN.stopped,textRKNScale.started,textRKNScale.stopped,keyRKN.keys,keyRKN.rt,keyRKN.started,keyRKN.stopped,textEnd.started,textEnd.stopped,participant,session,date,expName,psychopyVersion,frameRate,
,,,,,,,,45.1346937995404,None,n,4.0655617993324995,45.1346937995404,None,,,,,,,,,,,,,,,,,,,,,,,,,,,,,,,,,,,,,,,,,,,,,,,,,,,,,,,,,,,,,,NC 35,001,2022_Apr_12_0832,ProdSingRedo,3.2.3,59.93410842787095,
,,,,,,,,,,,,,,NeutralTest,"['yellow', 'red', 'blue']",yellow,red,blue,49.25479600019753,None,space,486.98504040017724,49.25479600019753,None,,,,,,,,,,,,,,,,,,,,,,,,,,,,,,,,,,,,,,,,,,,,,,,,,,,NC 35,001,2022_Apr_12_0832,ProdSingRedo,3.2.3,59.93410842787095,
0,0,0,0,,,,,,,,,,,,,,,,,,,,,,49.25479600019753,None,49.25479600019753,None,49.25479600019753,None,538.7855373993516,None,population,silent,blue,77,227,536.7895695995539,None,None,536.7895695995539,None,,,,,,,,,,,,,,,,,,,,,,,,,,,,,,,,,NC 35,001,2022_Apr_12_0832,ProdSingRedo,3.2.3,59.93410842787095,
1,0,1,0,,,,,,,,,,,,,,,,,,,,,,,,,,,,541.3046278990805,None,month,sing,yellow,29,193,539.2927388995886,None,None,539.2927388995886,None,,,,,,,,,,,,,,,,,,,,,,,,,,,,,,,,,NC 35,001,2022_Apr_12_0832,ProdSingRedo,3.2.3,59.93410842787095,
2,0,2,0,,,,,,,,,,,,,,,,,,,,,,,,,,,,543.8239200990647,None,danger,aloud,red,53,85,541.8194782994688,None,None,541.8194782994688,None,,,,,,,,,,,,,,,,,,,,,,,,,,,,,,,,,NC 35,001,2022_Apr_12_0832,ProdSingRedo,3.2.3,59.93410842787095,
3,0,3,0,,,,,,,,,,,,,,,,,,,,,,,,,,,,546.342940300703,None,estate,sing,yellow,13,119,544.3363728001714,None,None,544.3363728001714,None,,,,,,,,,,,,,,,,,,,,,,,,,,,,,,,,,NC 35,001,2022_Apr_12_0832,ProdSingRedo,3.2.3,59.93410842787095,
4,0,4,0,,,,,,,,,,,,,,,,,,,,,,,,,,,,548.8455269001424,None,engineer,aloud,red,42,114,546.843514399603,None,None,546.843514399603,None,,,,,,,,,,,,,,,,,,,,,,,,,,,,,,,,,NC 35,001,2022_Apr_12_0832,ProdSingRedo,3.2.3,59.93410842787095,
5,0,5,0,,,,,,,,,,,,,,,,,,,,,,,,,,,,551.3647971004248,None,individual,silent,blue,78,160,549.3712300993502,None,None,549.3712300993502,None,,,,,,,,,,,,,,,,,,,,,,,,,,,,,,,,,NC 35,001,2022_Apr_12_0832,ProdSingRedo,3.2.3,59.93410842787095,
6,0,6,0,,,,,,,,,,,,,,,,,,,,,,,,,,,,553.8839810993522,None,benefit,silent,blue,70,20,551.8881429992616,None,None,551.8881429992616,None,,,,,,,,,,,,,,,,,,,,,,,,,,,,,,,,,NC 35,001,2022_Apr_12_0832,ProdSingRedo,3.2.3,59.93410842787095,
7,0,7,0,,,,,,,,,,,,,,,,,,,,,,,,,,,,556.4027639999986,None,property,sing,yellow,11,242,554.4005932994187,None,None,554.4005932994187,None,,,,,,,,,,,,,,,,,,,,,,,,,,,,,,,,,NC 35,001,2022_Apr_12_0832,ProdSingRedo,3.2.3,59.93410842787095,
8,0,8,0,,,,,,,,,,,,,,,,,,,,,,,,,,,,558.9056205004454,None,salary,sing,yellow,23,271,556.9034100994468,None,None,556.9034100994468,None,,,,,,,,,,,,,,,,,,,,,,,,,,,,,,,,,NC 35,001,2022_Apr_12_0832,ProdSingRedo,3.2.3,59.93410842787095,
9,0,9,0,,,,,,,,,,,,,,,,,,,,,,,,,,,,561.4248457998037,None,state,silent,blue,73,303,559.4210177008063,None,None,559.4210177008063,None,,,,,,,,,,,,,,,,,,,,,,,,,,,,,,,,,NC 35,001,2022_Apr_12_0832,ProdSingRedo,3.2.3,59.93410842787095,
10,0,10,0,,,,,,,,,,,,,,,,,,,,,,,,,,,,563.9436792992055,None,detective,aloud,red,45,92,561.9365501999855,None,None,561.9365501999855,None,,,,,,,,,,,,,,,,,,,,,,,,,,,,,,,,,NC 35,001,2022_Apr_12_0832,ProdSingRedo,3.2.3,59.93410842787095,
11,0,11,0,,,,,,,,,,,,,,,,,,,,,,,,,,,,566.463139500469,None,pattern,aloud,red,58,214,564.4551634993404,None,None,564.4551634993404,None,,,,,,,,,,,,,,,,,,,,,,,,,,,,,,,,,NC 35,001,2022_Apr_12_0832,ProdSingRedo,3.2.3,59.93410842787095,
12,0,12,0,,,,,,,,,,,,,,,,,,,,,,,,,,,,568.9823947995901,None,season,aloud,red,41,277,566.9770969003439,None,None,566.9770969003439,None,,,,,,,,,,,,,,,,,,,,,,,,,,,,,,,,,NC 35,001,2022_Apr_12_0832,ProdSingRedo,3.2.3,59.93410842787095,
13,0,13,0,,,,,,,,,,,,,,,,,,,,,,,,,,,,571.5015402007848,None,finance,aloud,red,37,129,569.4960283003747,None,None,569.4960283003747,None,,,,,,,,,,,,,,,,,,,,,,,,,,,,,,,,,NC 35,001,2022_Apr_12_0832,ProdSingRedo,3.2.3,59.93410842787095,
14,0,14,0,,,,,,,,,,,,,,,,,,,,,,,,,,,,574.0207429993898,None,foundation,aloud,red,47,132,572.0196314007044,None,None,572.0196314007044,None,,,,,,,,,,,,,,,,,,,,,,,,,,,,,,,,,NC 35,001,2022_Apr_12_0832,ProdSingRedo,3.2.3,59.93410842787095,
15,0,15,0,,,,,,,,,,,,,,,,,,,,,,,,,,,,576.5399159006774,None,report,aloud,red,55,259,574.5298350993544,None,None,574.5298350993544,None,,,,,,,,,,,,,,,,,,,,,,,,,,,,,,,,,NC 35,001,2022_Apr_12_0832,ProdSingRedo,3.2.3,59.93410842787095,
16,0,16,0,,,,,,,,,,,,,,,,,,,,,,,,,,,,579.0590627007186,None,surface,silent,blue,82,316,577.0546492002904,None,None,577.0546492002904,None,,,,,,,,,,,,,,,,,,,,,,,,,,,,,,,,,NC 35,001,2022_Apr_12_0832,ProdSingRedo,3.2.3,59.93410842787095,
17,0,17,0,,,,,,,,,,,,,,,,,,,,,,,,,,,,581.5781855005771,None,passage,aloud,red,48,212,579.5729255992919,None,None,579.5729255992919,None,,,,,,,,,,,,,,,,,,,,,,,,,,,,,,,,,NC 35,001,2022_Apr_12_0832,ProdSingRedo,3.2.3,59.93410842787095,
18,0,18,0,,,,,,,,,,,,,,,,,,,,,,,,,,,,584.0974323991686,None,store,sing,yellow,22,305,582.0866349991411,None,None,582.0866349991411,None,,,,,,,,,,,,,,,,,,,,,,,,,,,,,,,,,NC 35,001,2022_Apr_12_0832,ProdSingRedo,3.2.3,59.93410842787095,
19,0,19,0,,,,,,,,,,,,,,,,,,,,,,,,,,,,586.6165309995413,None,collection,sing,yellow,26,54,584.6079296991229,None,None,584.6079296991229,None,,,,,,,,,,,,,,,,,,,,,,,,,,,,,,,,,NC 35,001,2022_Apr_12_0832,ProdSingRedo,3.2.3,59.93410842787095,
20,0,20,0,,,,,,,,,,,,,,,,,,,,,,,,,,,,589.1358189992607,None,space,sing,yellow,5,297,587.1279809996486,None,None,587.1279809996486,None,,,,,,,,,,,,,,,,,,,,,,,,,,,,,,,,,NC 35,001,2022_Apr_12_0832,ProdSingRedo,3.2.3,59.93410842787095,
21,0,21,0,,,,,,,,,,,,,,,,,,,,,,,,,,,,591.6549510993063,None,direction,aloud,red,36,94,589.6456474997103,None,None,589.6456474997103,None,,,,,,,,,,,,,,,,,,,,,,,,,,,,,,,,,NC 35,001,2022_Apr_12_0832,ProdSingRedo,3.2.3,59.93410842787095,
22,0,22,0,,,,,,,,,,,,,,,,,,,,,,,,,,,,594.1741220001131,None,territory,sing,yellow,4,324,592.1666218992323,None,None,592.1666218992323,None,,,,,,,,,,,,,,,,,,,,,,,,,,,,,,,,,NC 35,001,2022_Apr_12_0832,ProdSingRedo,3.2.3,59.93410842787095,
23,0,23,0,,,,,,,,,,,,,,,,,,,,,,,,,,,,596.6931350994855,None,corner,sing,yellow,19,69,594.6832094993442,None,None,594.6832094993442,None,,,,,,,,,,,,,,,,,,,,,,,,,,,,,,,,,NC 35,001,2022_Apr_12_0832,ProdSingRedo,3.2.3,59.93410842787095,
24,0,24,0,,,,,,,,,,,,,,,,,,,,,,,,,,,,599.2124859001487,None,waste,sing,yellow,20,350,597.2072378005832,None,None,597.2072378005832,None,,,,,,,,,,,,,,,,,,,,,,,,,,,,,,,,,NC 35,001,2022_Apr_12_0832,ProdSingRedo,3.2.3,59.93410842787095,
25,0,25,0,,,,,,,,,,,,,,,,,,,,,,,,,,,,601.7316458001733,None,revolution,silent,blue,60,264,599.728157799691,None,None,599.728157799691,None,,,,,,,,,,,,,,,,,,,,,,,,,,,,,,,,,NC 35,001,2022_Apr_12_0832,ProdSingRedo,3.2.3,59.93410842787095,
26,0,26,0,,,,,,,,,,,,,,,,,,,,,,,,,,,,604.2507837992162,None,exchange,aloud,red,40,121,602.2472789995372,None,None,602.2472789995372,None,,,,,,,,,,,,,,,,,,,,,,,,,,,,,,,,,NC 35,001,2022_Apr_12_0832,ProdSingRedo,3.2.3,59.93410842787095,
27,0,27,0,,,,,,,,,,,,,,,,,,,,,,,,,,,,606.7700514998287,None,under,aloud,red,46,343,604.759784700349,None,None,604.759784700349,None,,,,,,,,,,,,,,,,,,,,,,,,,,,,,,,,,NC 35,001,2022_Apr_12_0832,ProdSingRedo,3.2.3,59.93410842787095,
28,0,28,0,,,,,,,,,,,,,,,,,,,,,,,,,,,,609.2891949005425,None,religion,aloud,red,38,258,607.2835272997618,None,None,607.2835272997618,None,,,,,,,,,,,,,,,,,,,,,,,,,,,,,,,,,NC 35,001,2022_Apr_12_0832,ProdSingRedo,3.2.3,59.93410842787095,
29,0,29,0,,,,,,,,,,,,,,,,,,,,,,,,,,,,611.8083916008472,None,curve,silent,blue,76,82,609.803823499009,None,None,609.803823499009,None,,,,,,,,,,,,,,,,,,,,,,,,,,,,,,,,,NC 35,001,2022_Apr_12_0832,ProdSingRedo,3.2.3,59.93410842787095,
30,0,30,0,,,,,,,,,,,,,,,,,,,,,,,,,,,,614.3275425005704,None,candidate,sing,yellow,14,39,612.3208751995116,None,None,612.3208751995116,None,,,,,,,,,,,,,,,,,,,,,,,,,,,,,,,,,NC 35,001,2022_Apr_12_0832,ProdSingRedo,3.2.3,59.93410842787095,
31,0,31,0,,,,,,,,,,,,,,,,,,,,,,,,,,,,616.8467852007598,None,guide,silent,blue,79,147,614.8386524990201,None,None,614.8386524990201,None,,,,,,,,,,,,,,,,,,,,,,,,,,,,,,,,,NC 35,001,2022_Apr_12_0832,ProdSingRedo,3.2.3,59.93410842787095,
32,0,32,0,,,,,,,,,,,,,,,,,,,,,,,,,,,,619.3492344990373,None,victory,aloud,red,50,346,617.3484320007265,None,None,617.3484320007265,None,,,,,,,,,,,,,,,,,,,,,,,,,,,,,,,,,NC 35,001,2022_Apr_12_0832,ProdSingRedo,3.2.3,59.93410842787095,
33,0,33,0,,,,,,,,,,,,,,,,,,,,,,,,,,,,621.8684068992734,None,route,silent,blue,65,267,619.8643849994987,None,None,619.8643849994987,None,,,,,,,,,,,,,,,,,,,,,,,,,,,,,,,,,NC 35,001,2022_Apr_12_0832,ProdSingRedo,3.2.3,59.93410842787095,
34,0,34,0,,,,,,,,,,,,,,,,,,,,,,,,,,,,624.3874050993472,None,bucket,silent,blue,89,33,622.3905648998916,None,None,622.3905648998916,None,,,,,,,,,,,,,,,,,,,,,,,,,,,,,,,,,NC 35,001,2022_Apr_12_0832,ProdSingRedo,3.2.3,59.93410842787095,
35,0,35,0,,,,,,,,,,,,,,,,,,,,,,,,,,,,626.9065470006317,None,oxygen,aloud,red,34,209,624.9042029008269,None,None,624.9042029008269,None,,,,,,,,,,,,,,,,,,,,,,,,,,,,,,,,,NC 35,001,2022_Apr_12_0832,ProdSingRedo,3.2.3,59.93410842787095,
36,0,36,0,,,,,,,,,,,,,,,,,,,,,,,,,,,,629.4259437005967,None,finish,silent,blue,87,130,627.4186645001173,None,None,627.4186645001173,None,,,,,,,,,,,,,,,,,,,,,,,,,,,,,,,,,NC 35,001,2022_Apr_12_0832,ProdSingRedo,3.2.3,59.93410842787095,
37,0,37,0,,,,,,,,,,,,,,,,,,,,,,,,,,,,631.945145599544,None,capital,sing,yellow,12,40,629.9401117991656,None,None,629.9401117991656,None,,,,,,,,,,,,,,,,,,,,,,,,,,,,,,,,,NC 35,001,2022_Apr_12_0832,ProdSingRedo,3.2.3,59.93410842787095,
38,0,38,0,,,,,,,,,,,,,,,,,,,,,,,,,,,,634.4642635006458,None,frank,aloud,red,30,133,632.4619059991091,None,None,632.4619059991091,None,,,,,,,,,,,,,,,,,,,,,,,,,,,,,,,,,NC 35,001,2022_Apr_12_0832,ProdSingRedo,3.2.3,59.93410842787095,
39,0,39,0,,,,,,,,,,,,,,,,,,,,,,,,,,,,636.9834394007921,None,defeat,aloud,red,39,88,634.9858567994088,None,None,634.9858567994088,None,,,,,,,,,,,,,,,,,,,,,,,,,,,,,,,,,NC 35,001,2022_Apr_12_0832,ProdSingRedo,3.2.3,59.93410842787095,
40,0,40,0,,,,,,,,,,,,,,,,,,,,,,,,,,,,639.5026361998171,None,atmosphere,aloud,red,49,12,637.4956385996193,None,None,637.4956385996193,None,,,,,,,,,,,,,,,,,,,,,,,,,,,,,,,,,NC 35,001,2022_Apr_12_0832,ProdSingRedo,3.2.3,59.93410842787095,
41,0,41,0,,,,,,,,,,,,,,,,,,,,,,,,,,,,642.0218365006149,None,phrase,aloud,red,59,220,640.0155519992113,None,None,640.0155519992113,None,,,,,,,,,,,,,,,,,,,,,,,,,,,,,,,,,NC 35,001,2022_Apr_12_0832,ProdSingRedo,3.2.3,59.93410842787095,
42,0,42,0,,,,,,,,,,,,,,,,,,,,,,,,,,,,644.5410345997661,None,reading,silent,blue,88,254,642.5378654003143,None,None,642.5378654003143,None,,,,,,,,,,,,,,,,,,,,,,,,,,,,,,,,,NC 35,001,2022_Apr_12_0832,ProdSingRedo,3.2.3,59.93410842787095,
43,0,43,0,,,,,,,,,,,,,,,,,,,,,,,,,,,,647.0605226997286,None,sleep,sing,yellow,6,290,645.050027500838,None,None,645.050027500838,None,,,,,,,,,,,,,,,,,,,,,,,,,,,,,,,,,NC 35,001,2022_Apr_12_0832,ProdSingRedo,3.2.3,59.93410842787095,
44,0,44,0,,,,,,,,,,,,,,,,,,,,,,,,,,,,649.5793596003205,None,native,sing,yellow,0,199,647.573438199237,None,None,647.573438199237,None,,,,,,,,,,,,,,,,,,,,,,,,,,,,,,,,,NC 35,001,2022_Apr_12_0832,ProdSingRedo,3.2.3,59.93410842787095,
45,0,45,0,,,,,,,,,,,,,,,,,,,,,,,,,,,,652.098488599062,None,edition,silent,blue,69,107,650.088974500075,None,None,650.088974500075,None,,,,,,,,,,,,,,,,,,,,,,,,,,,,,,,,,NC 35,001,2022_Apr_12_0832,ProdSingRedo,3.2.3,59.93410842787095,
46,0,46,0,,,,,,,,,,,,,,,,,,,,,,,,,,,,654.6177932992578,None,company,silent,blue,84,64,652.6135325003415,None,None,652.6135325003415,None,,,,,,,,,,,,,,,,,,,,,,,,,,,,,,,,,NC 35,001,2022_Apr_12_0832,ProdSingRedo,3.2.3,59.93410842787095,
47,0,47,0,,,,,,,,,,,,,,,,,,,,,,,,,,,,657.1369525007904,None,primary,sing,yellow,27,234,655.1322147008032,None,None,655.1322147008032,None,,,,,,,,,,,,,,,,,,,,,,,,,,,,,,,,,NC 35,001,2022_Apr_12_0832,ProdSingRedo,3.2.3,59.93410842787095,
48,0,48,0,,,,,,,,,,,,,,,,,,,,,,,,,,,,659.6560546997935,None,carry,aloud,red,51,43,657.6480935998261,None,None,657.6480935998261,None,,,,,,,,,,,,,,,,,,,,,,,,,,,,,,,,,NC 35,001,2022_Apr_12_0832,ProdSingRedo,3.2.3,59.93410842787095,
49,0,49,0,,,,,,,,,,,,,,,,,,,,,,,,,,,,662.1752802003175,None,childhood,silent,blue,81,49,660.1660539004952,None,None,660.1660539004952,None,,,,,,,,,,,,,,,,,,,,,,,,,,,,,,,,,NC 35,001,2022_Apr_12_0832,ProdSingRedo,3.2.3,59.93410842787095,
50,0,50,0,,,,,,,,,,,,,,,,,,,,,,,,,,,,664.6944730002433,None,murder,sing,yellow,8,195,662.6881063990295,None,None,662.6881063990295,None,,,,,,,,,,,,,,,,,,,,,,,,,,,,,,,,,NC 35,001,2022_Apr_12_0832,ProdSingRedo,3.2.3,59.93410842787095,
51,0,51,0,,,,,,,,,,,,,,,,,,,,,,,,,,,,667.1969472002238,None,executive,aloud,red,54,122,665.1945185996592,None,None,665.1945185996592,None,,,,,,,,,,,,,,,,,,,,,,,,,,,,,,,,,NC 35,001,2022_Apr_12_0832,ProdSingRedo,3.2.3,59.93410842787095,
52,0,52,0,,,,,,,,,,,,,,,,,,,,,,,,,,,,669.7160567995161,None,throw,silent,blue,68,330,667.7091444004327,None,None,667.7091444004327,None,,,,,,,,,,,,,,,,,,,,,,,,,,,,,,,,,NC 35,001,2022_Apr_12_0832,ProdSingRedo,3.2.3,59.93410842787095,
53,0,53,0,,,,,,,,,,,,,,,,,,,,,,,,,,,,672.2353077996522,None,point,aloud,red,31,226,670.2253270000219,None,None,670.2253270000219,None,,,,,,,,,,,,,,,,,,,,,,,,,,,,,,,,,NC 35,001,2022_Apr_12_0832,ProdSingRedo,3.2.3,59.93410842787095,
54,0,54,0,,,,,,,,,,,,,,,,,,,,,,,,,,,,674.7544254008681,None,guest,sing,yellow,25,146,672.7482206001878,None,None,672.7482206001878,None,,,,,,,,,,,,,,,,,,,,,,,,,,,,,,,,,NC 35,001,2022_Apr_12_0832,ProdSingRedo,3.2.3,59.93410842787095,
55,0,55,0,,,,,,,,,,,,,,,,,,,,,,,,,,,,677.2736568991095,None,turkey,aloud,red,57,342,675.2760706990957,None,None,675.2760706990957,None,,,,,,,,,,,,,,,,,,,,,,,,,,,,,,,,,NC 35,001,2022_Apr_12_0832,ProdSingRedo,3.2.3,59.93410842787095,
56,0,56,0,,,,,,,,,,,,,,,,,,,,,,,,,,,,679.7926444001496,None,prime,sing,yellow,15,235,677.7829165998846,None,None,677.7829165998846,None,,,,,,,,,,,,,,,,,,,,,,,,,,,,,,,,,NC 35,001,2022_Apr_12_0832,ProdSingRedo,3.2.3,59.93410842787095,
57,0,57,0,,,,,,,,,,,,,,,,,,,,,,,,,,,,682.3120025005192,None,trial,silent,blue,64,341,680.3032274004072,None,None,680.3032274004072,None,,,,,,,,,,,,,,,,,,,,,,,,,,,,,,,,,NC 35,001,2022_Apr_12_0832,ProdSingRedo,3.2.3,59.93410842787095,
58,0,58,0,,,,,,,,,,,,,,,,,,,,,,,,,,,,684.8312120996416,None,still,silent,blue,61,304,682.8222202006727,None,None,682.8222202006727,None,,,,,,,,,,,,,,,,,,,,,,,,,,,,,,,,,NC 35,001,2022_Apr_12_0832,ProdSingRedo,3.2.3,59.93410842787095,
59,0,59,0,,,,,,,,,,,,,,,,,,,,,,,,,,,,687.350364299491,None,display,silent,blue,63,98,685.3468229006976,None,None,685.3468229006976,None,,,,,,,,,,,,,,,,,,,,,,,,,,,,,,,,,NC 35,001,2022_Apr_12_0832,ProdSingRedo,3.2.3,59.93410842787095,
60,0,60,0,,,,,,,,,,,,,,,,,,,,,,,,,,,,689.8693457990885,None,region,sing,yellow,3,256,687.8610459994525,None,None,687.8610459994525,None,,,,,,,,,,,,,,,,,,,,,,,,,,,,,,,,,NC 35,001,2022_Apr_12_0832,ProdSingRedo,3.2.3,59.93410842787095,
61,0,61,0,,,,,,,,,,,,,,,,,,,,,,,,,,,,692.3887565992773,None,science,sing,yellow,28,275,690.3780268002301,None,None,690.3780268002301,None,,,,,,,,,,,,,,,,,,,,,,,,,,,,,,,,,NC 35,001,2022_Apr_12_0832,ProdSingRedo,3.2.3,59.93410842787095,
62,0,62,0,,,,,,,,,,,,,,,,,,,,,,,,,,,,694.9078592006117,None,stand,sing,yellow,10,302,692.900337299332,None,None,692.900337299332,None,,,,,,,,,,,,,,,,,,,,,,,,,,,,,,,,,NC 35,001,2022_Apr_12_0832,ProdSingRedo,3.2.3,59.93410842787095,
63,0,63,0,,,,,,,,,,,,,,,,,,,,,,,,,,,,697.4104198999703,None,smooth,silent,blue,86,292,695.4083073996007,None,None,695.4083073996007,None,,,,,,,,,,,,,,,,,,,,,,,,,,,,,,,,,NC 35,001,2022_Apr_12_0832,ProdSingRedo,3.2.3,59.93410842787095,
64,0,64,0,,,,,,,,,,,,,,,,,,,,,,,,,,,,699.929581200704,None,department,sing,yellow,21,90,697.9274439997971,None,None,697.9274439997971,None,,,,,,,,,,,,,,,,,,,,,,,,,,,,,,,,,NC 35,001,2022_Apr_12_0832,ProdSingRedo,3.2.3,59.93410842787095,
65,0,65,0,,,,,,,,,,,,,,,,,,,,,,,,,,,,702.4487817008048,None,rough,sing,yellow,2,266,700.4410328995436,None,None,700.4410328995436,None,,,,,,,,,,,,,,,,,,,,,,,,,,,,,,,,,NC 35,001,2022_Apr_12_0832,ProdSingRedo,3.2.3,59.93410842787095,
66,0,66,0,,,,,,,,,,,,,,,,,,,,,,,,,,,,704.9679535999894,None,story,sing,yellow,9,306,702.9598941002041,None,None,702.9598941002041,None,,,,,,,,,,,,,,,,,,,,,,,,,,,,,,,,,NC 35,001,2022_Apr_12_0832,ProdSingRedo,3.2.3,59.93410842787095,
67,0,67,0,,,,,,,,,,,,,,,,,,,,,,,,,,,,707.4870992004871,None,produce,aloud,red,43,239,705.481797799468,None,None,705.481797799468,None,,,,,,,,,,,,,,,,,,,,,,,,,,,,,,,,,NC 35,001,2022_Apr_12_0832,ProdSingRedo,3.2.3,59.93410842787095,
68,0,68,0,,,,,,,,,,,,,,,,,,,,,,,,,,,,709.9895978998393,None,skill,aloud,red,56,289,707.9877799004316,None,None,707.9877799004316,None,,,,,,,,,,,,,,,,,,,,,,,,,,,,,,,,,NC 35,001,2022_Apr_12_0832,ProdSingRedo,3.2.3,59.93410842787095,
69,0,69,0,,,,,,,,,,,,,,,,,,,,,,,,,,,,712.5089752990752,None,personnel,silent,blue,85,219,710.5018490999937,None,None,710.5018490999937,None,,,,,,,,,,,,,,,,,,,,,,,,,,,,,,,,,NC 35,001,2022_Apr_12_0832,ProdSingRedo,3.2.3,59.93410842787095,
70,0,70,0,,,,,,,,,,,,,,,,,,,,,,,,,,,,715.0279798991978,None,military,sing,yellow,16,190,713.0256206002086,None,None,713.0256206002086,None,,,,,,,,,,,,,,,,,,,,,,,,,,,,,,,,,NC 35,001,2022_Apr_12_0832,ProdSingRedo,3.2.3,59.93410842787095,
71,0,71,0,,,,,,,,,,,,,,,,,,,,,,,,,,,,717.5471841003746,None,quantity,sing,yellow,7,245,715.5427752994001,None,None,715.5427752994001,None,,,,,,,,,,,,,,,,,,,,,,,,,,,,,,,,,NC 35,001,2022_Apr_12_0832,ProdSingRedo,3.2.3,59.93410842787095,
72,0,72,0,,,,,,,,,,,,,,,,,,,,,,,,,,,,720.0662673991174,None,hunger,silent,blue,72,155,718.0603128001094,None,None,718.0603128001094,None,,,,,,,,,,,,,,,,,,,,,,,,,,,,,,,,,NC 35,001,2022_Apr_12_0832,ProdSingRedo,3.2.3,59.93410842787095,
73,0,73,0,,,,,,,,,,,,,,,,,,,,,,,,,,,,722.585478099063,None,dispute,sing,yellow,17,99,720.5802689995617,None,None,720.5802689995617,None,,,,,,,,,,,,,,,,,,,,,,,,,,,,,,,,,NC 35,001,2022_Apr_12_0832,ProdSingRedo,3.2.3,59.93410842787095,
74,0,74,0,,,,,,,,,,,,,,,,,,,,,,,,,,,,725.1041986998171,None,length,aloud,red,52,169,723.0995697993785,None,None,723.0995697993785,None,,,,,,,,,,,,,,,,,,,,,,,,,,,,,,,,,NC 35,001,2022_Apr_12_0832,ProdSingRedo,3.2.3,59.93410842787095,
75,0,75,0,,,,,,,,,,,,,,,,,,,,,,,,,,,,727.607116099447,None,error,sing,yellow,1,117,725.6048233993351,None,None,725.6048233993351,None,,,,,,,,,,,,,,,,,,,,,,,,,,,,,,,,,NC 35,001,2022_Apr_12_0832,ProdSingRedo,3.2.3,59.93410842787095,
76,0,76,0,,,,,,,,,,,,,,,,,,,,,,,,,,,,730.1263420004398,None,raise,silent,blue,83,250,728.1180748995394,None,None,728.1180748995394,None,,,,,,,,,,,,,,,,,,,,,,,,,,,,,,,,,NC 35,001,2022_Apr_12_0832,ProdSingRedo,3.2.3,59.93410842787095,
77,0,77,0,,,,,,,,,,,,,,,,,,,,,,,,,,,,732.6455568000674,None,front,silent,blue,67,134,730.6382424999028,None,None,730.6382424999028,None,,,,,,,,,,,,,,,,,,,,,,,,,,,,,,,,,NC 35,001,2022_Apr_12_0832,ProdSingRedo,3.2.3,59.93410842787095,
78,0,78,0,,,,,,,,,,,,,,,,,,,,,,,,,,,,735.1647271998227,None,article,aloud,red,44,11,733.1575214006007,None,None,733.1575214006007,None,,,,,,,,,,,,,,,,,,,,,,,,,,,,,,,,,NC 35,001,2022_Apr_12_0832,ProdSingRedo,3.2.3,59.93410842787095,
79,0,79,0,,,,,,,,,,,,,,,,,,,,,,,,,,,,737.6839316003025,None,crime,silent,blue,71,78,735.6742096003145,None,None,735.6742096003145,None,,,,,,,,,,,,,,,,,,,,,,,,,,,,,,,,,NC 35,001,2022_Apr_12_0832,ProdSingRedo,3.2.3,59.93410842787095,
80,0,80,0,,,,,,,,,,,,,,,,,,,,,,,,,,,,740.2031063996255,None,measure,sing,yellow,24,184,738.1998024005443,None,None,738.1998024005443,None,,,,,,,,,,,,,,,,,,,,,,,,,,,,,,,,,NC 35,001,2022_Apr_12_0832,ProdSingRedo,3.2.3,59.93410842787095,
81,0,81,0,,,,,,,,,,,,,,,,,,,,,,,,,,,,742.7054964993149,None,distance,sing,yellow,18,100,740.7032197993249,None,None,740.7032197993249,None,,,,,,,,,,,,,,,,,,,,,,,,,,,,,,,,,NC 35,001,2022_Apr_12_0832,ProdSingRedo,3.2.3,59.93410842787095,
82,0,82,0,,,,,,,,,,,,,,,,,,,,,,,,,,,,745.2247577998787,None,broke,silent,blue,75,32,743.2205138001591,None,None,743.2205138001591,None,,,,,,,,,,,,,,,,,,,,,,,,,,,,,,,,,NC 35,001,2022_Apr_12_0832,ProdSingRedo,3.2.3,59.93410842787095,
83,0,83,0,,,,,,,,,,,,,,,,,,,,,,,,,,,,747.743825700134,None,budget,silent,blue,62,34,745.7426465991884,None,None,745.7426465991884,None,,,,,,,,,,,,,,,,,,,,,,,,,,,,,,,,,NC 35,001,2022_Apr_12_0832,ProdSingRedo,3.2.3,59.93410842787095,
84,0,84,0,,,,,,,,,,,,,,,,,,,,,,,,,,,,750.2630902007222,None,generation,aloud,red,33,136,748.2594511006027,None,None,748.2594511006027,None,,,,,,,,,,,,,,,,,,,,,,,,,,,,,,,,,NC 35,001,2022_Apr_12_0832,ProdSingRedo,3.2.3,59.93410842787095,
85,0,85,0,,,,,,,,,,,,,,,,,,,,,,,,,,,,752.7822415996343,None,bitter,aloud,red,32,23,750.7731943000108,None,None,750.7731943000108,None,,,,,,,,,,,,,,,,,,,,,,,,,,,,,,,,,NC 35,001,2022_Apr_12_0832,ProdSingRedo,3.2.3,59.93410842787095,
86,0,86,0,,,,,,,,,,,,,,,,,,,,,,,,,,,,755.3011057991534,None,evidence,silent,blue,66,120,753.2950273994356,None,None,753.2950273994356,None,,,,,,,,,,,,,,,,,,,,,,,,,,,,,,,,,NC 35,001,2022_Apr_12_0832,ProdSingRedo,3.2.3,59.93410842787095,
87,0,87,0,,,,,,,,,,,,,,,,,,,,,,,,,,,,757.8038605991751,None,brief,silent,blue,80,28,755.8017484992743,None,None,755.8017484992743,None,,,,,,,,,,,,,,,,,,,,,,,,,,,,,,,,,NC 35,001,2022_Apr_12_0832,ProdSingRedo,3.2.3,59.93410842787095,
88,0,88,0,,,,,,,,,,,,,,,,,,,,,,,,,,,,760.323011700064,None,fashion,silent,blue,74,125,758.3168446999043,None,None,758.3168446999043,None,,,,,,,,,,,,,,,,,,,,,,,,,,,,,,,,,NC 35,001,2022_Apr_12_0832,ProdSingRedo,3.2.3,59.93410842787095,
89,0,89,0,,,,,,,,,,,,,,,,,,,,,,,,,,,,762.8422909993678,None,majority,aloud,red,35,176,760.8454487994313,None,None,760.8454487994313,None,,,,,,,,,,,,,,,,,,,,,,,,,,,,,,,,,NC 35,001,2022_Apr_12_0832,ProdSingRedo,3.2.3,59.93410842787095,
,,,,,,,,,,,,,,,,,,,,,,,,,,,,,,,,,,,,,,,,,,,763.3428962994367,None,k,139.76817560009658,763.3428962994367,None,,,,,,,,,,,,,,,,,,,,,,,,,,,NC 35,001,2022_Apr_12_0832,ProdSingRedo,3.2.3,59.93410842787095,
,,,,0,0,0,0,,,,,,,,,,,,,,,,,,,,,,,,915.1213055998087,None,,,,,,,,,,,,,,,,,collection,sing,white,0,26,54,903.6592334993184,None,903.6592334993184,None,6,8.099746799096465,903.6592334993184,None,911.8002051003277,None,912.3202052004635,None,912.3202052004635,None,r,2.7748261000961065,912.3202052004635,None,,,NC 35,001,2022_Apr_12_0832,ProdSingRedo,3.2.3,59.93410842787095,
,,,,1,0,1,0,,,,,,,,,,,,,,,,,,,,,,,,919.3049717005342,None,,,,,,,,,,,,,,,,,defeat,aloud,white,1,39,88,915.6465352997184,None,915.6465352997184,None,6,3.024676699191332,915.6465352997184,None,918.7194510996342,None,919.2429601997137,None,919.2429601997137,None,r,0.02767309918999672,919.2429601997137,None,,,NC 35,001,2022_Apr_12_0832,ProdSingRedo,3.2.3,59.93410842787095,
,,,,2,0,2,0,,,,,,,,,,,,,,,,,,,,,,,,925.6760961990803,None,,,,,,,,,,,,,,,,,research,new_a,white,2,108,261,919.8318704999983,None,919.8318704999983,None,1,3.22307120077312,919.8318704999983,None,923.1099196001887,None,923.6296560000628,None,923.6296560000628,None,n,2.016873801127076,923.6296560000628,None,,,NC 35,001,2022_Apr_12_0832,ProdSingRedo,3.2.3,59.93410842787095,
,,,,3,0,3,0,,,,,,,,,,,,,,,,,,,,,,,,928.8990854993463,None,,,,,,,,,,,,,,,,,conference,new_a,white,3,113,66,926.2071607001126,None,926.2071607001126,None,1,1.9037891998887062,926.2071607001126,None,928.1616377998143,None,928.687547499314,None,928.687547499314,None,n,0.1834929995238781,928.687547499314,None,,,NC 35,001,2022_Apr_12_0832,ProdSingRedo,3.2.3,59.93410842787095,
,,,,4,0,4,0,,,,,,,,,,,,,,,,,,,,,,,,932.0108816996217,None,,,,,,,,,,,,,,,,,crowd,new_c,white,4,167,81,929.4238169007003,None,929.4238169007003,None,1,1.7747168000787497,929.4238169007003,None,931.229222599417,None,931.7517862990499,None,931.7517862990499,None,n,0.23071799986064434,931.7517862990499,None,,,NC 35,001,2022_Apr_12_0832,ProdSingRedo,3.2.3,59.93410842787095,
,,,,5,0,5,0,,,,,,,,,,,,,,,,,,,,,,,,936.2049582991749,None,,,,,,,,,,,,,,,,,guest,sing,white,5,25,146,932.5266283992678,None,932.5266283992678,None,6,2.432465799152851,932.5266283992678,None,935.008333100006,None,935.5145488996059,None,935.5145488996059,None,r,0.6682684998959303,935.5145488996059,None,,,NC 35,001,2022_Apr_12_0832,ProdSingRedo,3.2.3,59.93410842787095,
,,,,6,0,6,0,,,,,,,,,,,,,,,,,,,,,,,,939.8623114004731,None,,,,,,,,,,,,,,,,,range,new_b,white,6,133,251,936.7333070002496,None,936.7333070002496,None,6,2.2496456000953913,936.7333070002496,None,939.0313664991409,None,939.5474787000567,None,939.5474787000567,None,r,0.2834401987493038,939.5474787000567,None,,,NC 35,001,2022_Apr_12_0832,ProdSingRedo,3.2.3,59.93410842787095,
,,,,7,0,7,0,,,,,,,,,,,,,,,,,,,,,,,,942.9132349006832,None,,,,,,,,,,,,,,,,,material,new_b,white,7,143,182,940.3902704995126,None,940.3902704995126,None,1,1.6885059997439384,940.3902704995126,None,942.1398256998509,None,942.6492295991629,None,942.6492295991629,None,n,0.2298160009086132,942.6492295991629,None,,,NC 35,001,2022_Apr_12_0832,ProdSingRedo,3.2.3,59.93410842787095,
,,,,8,0,8,0,,,,,,,,,,,,,,,,,,,,,,,,949.2525213006884,None,,,,,,,,,,,,,,,,,group,new_a,white,8,104,143,943.4455051999539,None,943.4455051999539,None,2,4.137392301112413,943.4455051999539,None,947.6306774001569,None,948.1539287008345,None,948.1539287008345,None,f,1.0690417997539043,948.1539287008345,None,,,NC 35,001,2022_Apr_12_0832,ProdSingRedo,3.2.3,59.93410842787095,
,,,,9,0,9,0,,,,,,,,,,,,,,,,,,,,,,,,953.5572887994349,None,,,,,,,,,,,,,,,,,produce,aloud,white,9,43,239,949.7798340991139,None,949.7798340991139,None,6,2.2351422999054193,949.7798340991139,None,952.0492033008486,None,952.5627472996712,None,952.5627472996712,None,r,0.9642603006213903,952.5627472996712,None,,,NC 35,001,2022_Apr_12_0832,ProdSingRedo,3.2.3,59.93410842787095,
,,,,10,0,10,0,,,,,,,,,,,,,,,,,,,,,,,,958.5278393998742,None,,,,,,,,,,,,,,,,,stand,sing,white,10,10,302,954.0815063994378,None,954.0815063994378,None,5,3.3734852001070976,954.0815063994378,None,957.5123571995646,None,958.0295695997775,None,958.0295695997775,None,f,0.47334069944918156,958.0295695997775,None,,,NC 35,001,2022_Apr_12_0832,ProdSingRedo,3.2.3,59.93410842787095,
,,,,11,0,11,0,,,,,,,,,,,,,,,,,,,,,,,,962.6165680997074,None,,,,,,,,,,,,,,,,,block,new_c,white,11,161,25,959.0525171998888,None,959.0525171998888,None,1,1.8903501015156507,959.0525171998888,None,960.992267800495,None,961.5160623993725,None,961.5160623993725,None,n,1.0668282993137836,961.5160623993725,None,,,NC 35,001,2022_Apr_12_0832,ProdSingRedo,3.2.3,59.93410842787095,
,,,,12,0,12,0,,,,,,,,,,,,,,,,,,,,,,,,965.9347846005112,None,,,,,,,,,,,,,,,,,cross,new_b,white,12,131,80,963.1370765995234,None,963.1370765995234,None,1,1.8858902007341385,963.1370765995234,None,965.0649178996682,None,965.5777605995536,None,965.5777605995536,None,n,0.3331049010157585,965.5777605995536,None,,,NC 35,001,2022_Apr_12_0832,ProdSingRedo,3.2.3,59.93410842787095,
,,,,13,0,13,0,,,,,,,,,,,,,,,,,,,,,,,,970.1071374006569,None,,,,,,,,,,,,,,,,,department,sing,white,13,21,90,966.4574618004262,None,966.4574618004262,None,6,1.933432100340724,966.4574618004262,None,968.4401642996818,None,968.9570468999445,None,968.9570468999445,None,r,1.1218870002776384,968.9570468999445,None,,,NC 35,001,2022_Apr_12_0832,ProdSingRedo,3.2.3,59.93410842787095,
,,,,14,0,14,0,,,,,,,,,,,,,,,,,,,,,,,,973.2256166003644,None,,,,,,,,,,,,,,,,,broad,new_c,white,14,178,31,970.6358294002712,None,970.6358294002712,None,1,1.6430320013314486,970.6358294002712,None,972.3285041004419,None,972.8472339008003,None,972.8472339008003,None,n,0.34369900077581406,972.8472339008003,None,,,NC 35,001,2022_Apr_12_0832,ProdSingRedo,3.2.3,59.93410842787095,
,,,,15,0,15,0,,,,,,,,,,,,,,,,,,,,,,,,976.6468065995723,None,,,,,,,,,,,,,,,,,candidate,sing,white,15,14,39,973.7568449992687,None,973.7568449992687,None,6,1.6823299992829561,973.7568449992687,None,975.4870772995055,None,976.0014110002667,None,976.0014110002667,None,r,0.6134262010455132,976.0014110002667,None,,,NC 35,001,2022_Apr_12_0832,ProdSingRedo,3.2.3,59.93410842787095,
,,,,16,0,16,0,,,,,,,,,,,,,,,,,,,,,,,,984.7730638999492,None,,,,,,,,,,,,,,,,,production,new_c,white,16,156,240,977.1763253007084,None,977.1763253007084,None,2,6.030678199604154,977.1763253007084,None,983.2584595996886,None,983.7759613990784,None,983.7759613990784,None,f,0.966983400285244,983.7759613990784,None,,,NC 35,001,2022_Apr_12_0832,ProdSingRedo,3.2.3,59.93410842787095,
,,,,17,0,17,0,,,,,,,,,,,,,,,,,,,,,,,,987.849711900577,None,,,,,,,,,,,,,,,,,search,new_a,white,17,118,276,985.3001505006105,None,985.3001505006105,None,1,1.6262440998107195,985.3001505006105,None,986.9505029991269,None,987.4661122001708,None,987.4661122001708,None,n,0.36435949988663197,987.4661122001708,None,,,NC 35,001,2022_Apr_12_0832,ProdSingRedo,3.2.3,59.93410842787095,
,,,,18,0,18,0,,,,,,,,,,,,,,,,,,,,,,,,990.5102832000703,None,,,,,,,,,,,,,,,,,smooth,silent,white,18,86,292,988.363486899063,None,988.363486899063,None,1,1.4195127002894878,988.363486899063,None,989.8224375005811,None,990.3409326002002,None,990.3409326002002,None,n,0.1378823984414339,990.3409326002002,None,,,NC 35,001,2022_Apr_12_0832,ProdSingRedo,3.2.3,59.93410842787095,
,,,,19,0,19,0,,,,,,,,,,,,,,,,,,,,,,,,993.313317399472,None,,,,,,,,,,,,,,,,,incident,new_a,white,19,117,158,991.0342053007334,None,991.0342053007334,None,1,1.4525319002568722,991.0342053007334,None,992.5243487004191,None,993.0460678003728,None,993.0460678003728,None,n,0.23277599923312664,993.0460678003728,None,,,NC 35,001,2022_Apr_12_0832,ProdSingRedo,3.2.3,59.93410842787095,
,,,,20,0,20,0,,,,,,,,,,,,,,,,,,,,,,,,997.2840532008559,None,,,,,,,,,,,,,,,,,region,sing,white,20,3,256,993.840504899621,None,993.840504899621,None,6,1.6778645999729633,993.840504899621,None,995.5434106998146,None,996.0583954006433,None,996.0583954006433,None,r,1.1886438988149166,996.0583954006433,None,,,NC 35,001,2022_Apr_12_0832,ProdSingRedo,3.2.3,59.93410842787095,
,,,,21,0,21,0,,,,,,,,,,,,,,,,,,,,,,,,1000.1541702002287,None,,,,,,,,,,,,,,,,,trail,new_b,white,21,148,336,997.8105568997562,None,997.8105568997562,None,1,1.5562395006418228,997.8105568997562,None,999.4124813005328,None,999.9265844002366,None,999.9265844002366,None,n,0.19214989989995956,999.9265844002366,None,,,NC 35,001,2022_Apr_12_0832,ProdSingRedo,3.2.3,59.93410842787095,
,,,,22,0,22,0,,,,,,,,,,,,,,,,,,,,,,,,1007.2946761008352,None,,,,,,,,,,,,,,,,,account,new_b,white,22,136,1,1000.6822596006095,None,1000.6822596006095,None,1,5.908514698967338,1000.6822596006095,None,1006.6419875007123,None,1007.1638338007033,None,1007.1638338007033,None,n,0.09897620044648647,1007.1638338007033,None,,,NC 35,001,2022_Apr_12_0832,ProdSingRedo,3.2.3,59.93410842787095,
,,,,23,0,23,0,,,,,,,,,,,,,,,,,,,,,,,,1010.4308863002807,None,,,,,,,,,,,,,,,,,territory,sing,white,23,4,324,1007.8193471003324,None,1007.8193471003324,None,6,1.8675461001694202,1007.8193471003324,None,1009.7282229997218,None,1010.2501423005015,None,1010.2501423005015,None,r,0.14861540123820305,1010.2501423005015,None,,,NC 35,001,2022_Apr_12_0832,ProdSingRedo,3.2.3,59.93410842787095,
,,,,24,0,24,0,,,,,,,,,,,,,,,,,,,,,,,,1016.7698833998293,None,,,,,,,,,,,,,,,,,interior,new_a,white,24,96,164,1010.9529617000371,None,1010.9529617000371,None,4,4.2055159993469715,1010.9529617000371,None,1015.1778753008693,None,1015.6864130999893,None,1015.6864130999893,None,f,1.0563373006880283,1015.6864130999893,None,,,NC 35,001,2022_Apr_12_0832,ProdSingRedo,3.2.3,59.93410842787095,
,,,,25,0,25,0,,,,,,,,,,,,,,,,,,,,,,,,1020.2570126000792,None,,,,,,,,,,,,,,,,,discovery,new_a,white,25,115,95,1017.2958183996379,None,1017.2958183996379,None,1,1.6389886997640133,1017.2958183996379,None,1018.9891290999949,None,1019.4936494994909,None,1019.4936494994909,None,n,0.7370375003665686,1019.4936494994909,None,,,NC 35,001,2022_Apr_12_0832,ProdSingRedo,3.2.3,59.93410842787095,
,,,,26,0,26,0,,,,,,,,,,,,,,,,,,,,,,,,1023.0078551005572,None,,,,,,,,,,,,,,,,,youth,new_b,white,26,121,359,1020.7854788005352,None,1020.7854788005352,None,1,1.5413870997726917,1020.7854788005352,None,1022.3806090001017,None,1022.899427799508,None,1022.899427799508,None,n,0.08357510156929493,1022.899427799508,None,,,NC 35,001,2022_Apr_12_0832,ProdSingRedo,3.2.3,59.93410842787095,
,,,,27,0,27,0,,,,,,,,,,,,,,,,,,,,,,,,1025.9045512992889,None,,,,,,,,,,,,,,,,,generation,aloud,white,27,33,136,1023.5338853001595,None,1023.5338853001595,None,6,1.60044189915061,1023.5338853001595,None,1025.1722606997937,None,1025.6708113998175,None,1025.6708113998175,None,r,0.2156032994389534,1025.6708113998175,None,,,NC 35,001,2022_Apr_12_0832,ProdSingRedo,3.2.3,59.93410842787095,
,,,,28,0,28,0,,,,,,,,,,,,,,,,,,,,,,,,1030.0259805992246,None,,,,,,,,,,,,,,,,,direction,aloud,white,28,36,94,1026.4185150004923,None,1026.4185150004923,None,2,2.6201884001493454,1026.4185150004923,None,1029.081442400813,None,1029.5981871001422,None,1029.5981871001422,None,f,0.40035879984498024,1029.5981871001422,None,,,NC 35,001,2022_Apr_12_0832,ProdSingRedo,3.2.3,59.93410842787095,
,,,,29,0,29,0,,,,,,,,,,,,,,,,,,,,,,,,1033.38510710001,None,,,,,,,,,,,,,,,,,emergency,new_c,white,29,158,110,1030.5468426998705,None,1030.5468426998705,None,1,2.1639058999717236,1030.5468426998705,None,1032.7515654992312,None,1033.2757702991366,None,1033.2757702991366,None,n,0.08298309892416,1033.2757702991366,None,,,NC 35,001,2022_Apr_12_0832,ProdSingRedo,3.2.3,59.93410842787095,
,,,,30,0,30,0,,,,,,,,,,,,,,,,,,,,,,,,1037.9742536991835,None,,,,,,,,,,,,,,,,,report,aloud,white,30,55,259,1033.9059950001538,None,1033.9059950001538,None,3,3.260852200910449,1033.9059950001538,None,1037.2022239007056,None,1037.7209245990962,None,1037.7209245990962,None,f,0.221738301217556,1037.7209245990962,None,,,NC 35,001,2022_Apr_12_0832,ProdSingRedo,3.2.3,59.93410842787095,
,,,,31,0,31,0,,,,,,,,,,,,,,,,,,,,,,,,1041.0607853997499,None,,,,,,,,,,,,,,,,,display,silent,white,31,63,98,1038.5048652999103,None,1038.5048652999103,None,1,1.7981343995779753,1038.5048652999103,None,1040.3376941997558,None,1040.8644187990576,None,1040.8644187990576,None,n,0.15839030034840107,1040.8644187990576,None,,,NC 35,001,2022_Apr_12_0832,ProdSingRedo,3.2.3,59.93410842787095,
,,,,32,0,32,0,,,,,,,,,,,,,,,,,,,,,,,,1047.01648700051,None,,,,,,,,,,,,,,,,,community,new_c,white,32,176,63,1041.5921237003058,None,1041.5921237003058,None,5,3.9587078001350164,1041.5921237003058,None,1045.6049025002867,None,1046.119045600295,None,1046.119045600295,None,f,0.8637389987707138,1046.119045600295,None,,,NC 35,001,2022_Apr_12_0832,ProdSingRedo,3.2.3,59.93410842787095,
,,,,33,0,33,0,,,,,,,,,,,,,,,,,,,,,,,,1050.0862789992243,None,,,,,,,,,,,,,,,,,weight,new_c,white,33,157,353,1047.5456881001592,None,1047.5456881001592,None,1,1.7086651008576155,1047.5456881001592,None,1049.3097169008106,None,1049.8235913999379,None,1049.8235913999379,None,n,0.23908269964158535,1049.8235913999379,None,,,NC 35,001,2022_Apr_12_0832,ProdSingRedo,3.2.3,59.93410842787095,
,,,,34,0,34,0,,,,,,,,,,,,,,,,,,,,,,,,1054.1897369995713,None,,,,,,,,,,,,,,,,,atmosphere,aloud,white,34,49,12,1050.6122903004289,None,1050.6122903004289,None,6,2.3623031992465258,1050.6122903004289,None,1053.0207752995193,None,1053.5432204995304,None,1053.5432204995304,None,r,0.6157647985965014,1053.5432204995304,None,,,NC 35,001,2022_Apr_12_0832,ProdSingRedo,3.2.3,59.93410842787095,
,,,,35,0,35,0,,,,,,,,,,,,,,,,,,,,,,,,1058.994323099032,None,,,,,,,,,,,,,,,,,company,silent,white,35,84,64,1054.7213483992964,None,1054.7213483992964,None,4,2.677684700116515,1054.7213483992964,None,1057.4399039000273,None,1057.9668735992163,None,1057.9668735992163,None,f,0.9920416995882988,1057.9668735992163,None,,,NC 35,001,2022_Apr_12_0832,ProdSingRedo,3.2.3,59.93410842787095,
,,,,36,0,36,0,,,,,,,,,,,,,,,,,,,,,,,,1062.4980223998427,None,,,,,,,,,,,,,,,,,strength,new_c,white,36,154,310,1059.5220737997442,None,1059.5220737997442,None,1,2.140639800578356,1059.5220737997442,None,1061.7164587005973,None,1062.2333598993719,None,1062.2333598993719,None,n,0.2293992005288601,1062.2333598993719,None,,,NC 35,001,2022_Apr_12_0832,ProdSingRedo,3.2.3,59.93410842787095,
,,,,37,0,37,0,,,,,,,,,,,,,,,,,,,,,,,,1066.0366584006697,None,,,,,,,,,,,,,,,,,trial,silent,white,37,64,341,1063.0291115008295,None,1063.0291115008295,None,4,2.289529299363494,1063.0291115008295,None,1065.3691901993006,None,1065.8899319004267,None,1065.8899319004267,None,f,0.11672330088913441,1065.8899319004267,None,,,NC 35,001,2022_Apr_12_0832,ProdSingRedo,3.2.3,59.93410842787095,
,,,,38,0,38,0,,,,,,,,,,,,,,,,,,,,,,,,1070.7745195999742,None,,,,,,,,,,,,,,,,,interview,new_b,white,38,126,165,1066.5653930008411,None,1066.5653930008411,None,1,3.281222799792886,1066.5653930008411,None,1069.8915535993874,None,1070.4135055001825,None,1070.4135055001825,None,n,0.321340199559927,1070.4135055001825,None,,,NC 35,001,2022_Apr_12_0832,ProdSingRedo,3.2.3,59.93410842787095,
,,,,39,0,39,0,,,,,,,,,,,,,,,,,,,,,,,,1075.2122857999057,None,,,,,,,,,,,,,,,,,prime,sing,white,39,15,235,1071.2976719997823,None,1071.2976719997823,None,6,1.828974798321724,1071.2976719997823,None,1073.1705024000257,None,1073.691393200308,None,1073.691393200308,None,r,1.4834295995533466,1073.691393200308,None,,,NC 35,001,2022_Apr_12_0832,ProdSingRedo,3.2.3,59.93410842787095,
,,,,40,0,40,0,,,,,,,,,,,,,,,,,,,,,,,,1078.0540574006736,None,,,,,,,,,,,,,,,,,mankind,new_b,white,40,129,178,1075.7379842996597,None,1075.7379842996597,None,1,1.5647197999060154,1075.7379842996597,None,1077.3493632003665,None,1077.8675532005727,None,1077.8675532005727,None,n,0.14710469916462898,1077.8675532005727,None,,,NC 35,001,2022_Apr_12_0832,ProdSingRedo,3.2.3,59.93410842787095,
,,,,41,0,41,0,,,,,,,,,,,,,,,,,,,,,,,,1081.034220699221,None,,,,,,,,,,,,,,,,,music,new_a,white,41,93,196,1078.5755054000765,None,1078.5755054000765,None,1,1.6475575007498264,1078.5755054000765,None,1080.2687876001,None,1080.7905841991305,None,1080.7905841991305,None,n,0.20811220072209835,1080.7905841991305,None,,,NC 35,001,2022_Apr_12_0832,ProdSingRedo,3.2.3,59.93410842787095,
,,,,42,0,42,0,,,,,,,,,,,,,,,,,,,,,,,,1085.0362078994513,None,,,,,,,,,,,,,,,,,passage,aloud,white,42,48,212,1081.5553268995136,None,1081.5553268995136,None,5,1.9952980000525713,1081.5553268995136,None,1083.6164746005088,None,1084.1247908994555,None,1084.1247908994555,None,f,0.8739742003381252,1084.1247908994555,None,,,NC 35,001,2022_Apr_12_0832,ProdSingRedo,3.2.3,59.93410842787095,
,,,,43,0,43,0,,,,,,,,,,,,,,,,,,,,,,,,1087.8828125,None,,,,,,,,,,,,,,,,,ground,new_b,white,43,145,142,1085.5494868997484,None,1085.5494868997484,None,1,1.6651723999530077,1085.5494868997484,None,1087.2528921999037,None,1087.777578100562,None,1087.777578100562,None,n,0.07689779996871948,1087.777578100562,None,,,NC 35,001,2022_Apr_12_0832,ProdSingRedo,3.2.3,59.93410842787095,
,,,,44,0,44,0,,,,,,,,,,,,,,,,,,,,,,,,1098.4189276993275,None,,,,,,,,,,,,,,,,,budget,silent,white,44,62,34,1088.404790699482,None,1088.404790699482,None,2,5.249516900628805,1088.404790699482,None,1093.6921487990767,None,1094.2074490003288,None,1094.2074490003288,None,f,4.183286100625992,1094.2074490003288,None,,,NC 35,001,2022_Apr_12_0832,ProdSingRedo,3.2.3,59.93410842787095,
,,,,45,0,45,0,,,,,,,,,,,,,,,,,,,,,,,,1101.187427200377,None,,,,,,,,,,,,,,,,,route,silent,white,45,65,267,1098.9451586008072,None,1098.9451586008072,None,1,1.5816101990640163,1098.9451586008072,None,1100.5681554991752,None,1101.0885538998991,None,1101.0885538998991,None,n,0.06210299953818321,1101.0885538998991,None,,,NC 35,001,2022_Apr_12_0832,ProdSingRedo,3.2.3,59.93410842787095,
,,,,46,0,46,0,,,,,,,,,,,,,,,,,,,,,,,,1105.4347609002143,None,,,,,,,,,,,,,,,,,detective,aloud,white,46,45,92,1101.7133101001382,None,1101.7133101001382,None,4,2.5333965998142958,1101.7133101001382,None,1104.288551799953,None,1104.810997799039,None,1104.810997799039,None,f,0.595533799380064,1104.810997799039,None,,,NC 35,001,2022_Apr_12_0832,ProdSingRedo,3.2.3,59.93410842787095,
,,,,47,0,47,0,,,,,,,,,,,,,,,,,,,,,,,,1108.310062199831,None,,,,,,,,,,,,,,,,,device,new_c,white,47,166,93,1105.9528467990458,None,1105.9528467990458,None,1,1.7096584998071194,1105.9528467990458,None,1107.7077700998634,None,1108.2302778996527,None,1108.2302778996527,None,n,0.048294899985194206,1108.2302778996527,None,,,NC 35,001,2022_Apr_12_0832,ProdSingRedo,3.2.3,59.93410842787095,
,,,,48,0,48,0,,,,,,,,,,,,,,,,,,,,,,,,1113.5489799007773,None,,,,,,,,,,,,,,,,,danger,aloud,white,48,53,85,1108.8262530006468,None,1108.8262530006468,None,3,3.3963114991784096,1108.8262530006468,None,1112.264801999554,None,1112.7689203005284,None,1112.7689203005284,None,f,0.7417355999350548,1112.7689203005284,None,,,NC 35,001,2022_Apr_12_0832,ProdSingRedo,3.2.3,59.93410842787095,
,,,,49,0,49,0,,,,,,,,,,,,,,,,,,,,,,,,1117.3033640999347,None,,,,,,,,,,,,,,,,,season,aloud,white,49,41,277,1114.0730808004737,None,1114.0730808004737,None,1,2.5893390011042356,1114.0730808004737,None,1116.7016311995685,None,1117.2309700995684,None,1117.2309700995684,None,n,0.0396552998572588,1117.2309700995684,None,,,NC 35,001,2022_Apr_12_0832,ProdSingRedo,3.2.3,59.93410842787095,
,,,,50,0,50,0,,,,,,,,,,,,,,,,,,,,,,,,1121.1414362993091,None,,,,,,,,,,,,,,,,,rough,sing,white,50,2,266,1117.829105200246,None,1117.829105200246,None,6,2.5694062002003193,1117.829105200246,None,1120.434657100588,None,1120.9522782992572,None,1120.9522782992572,None,r,0.15836570039391518,1120.9522782992572,None,,,NC 35,001,2022_Apr_12_0832,ProdSingRedo,3.2.3,59.93410842787095,
,,,,51,0,51,0,,,,,,,,,,,,,,,,,,,,,,,,1124.2390556000173,None,,,,,,,,,,,,,,,,,article,aloud,white,51,44,11,1121.664319500327,None,1121.664319500327,None,1,1.9502952005714178,1121.664319500327,None,1123.65966629982,None,1124.1778864003718,None,1124.1778864003718,None,n,0.03660769946873188,1124.1778864003718,None,,,NC 35,001,2022_Apr_12_0832,ProdSingRedo,3.2.3,59.93410842787095,
,,,,52,0,52,0,,,,,,,,,,,,,,,,,,,,,,,,1127.4136152993888,None,,,,,,,,,,,,,,,,,estate,sing,white,52,13,119,1124.76633580029,None,1124.76633580029,None,6,1.8643827997148037,1124.76633580029,None,1126.6737891007215,None,1127.2000355999917,None,1127.2000355999917,None,f,0.18258089944720268,1127.2000355999917,None,,,NC 35,001,2022_Apr_12_0832,ProdSingRedo,3.2.3,59.93410842787095,
,,,,53,0,53,0,,,,,,,,,,,,,,,,,,,,,,,,1130.5497580002993,None,,,,,,,,,,,,,,,,,corner,sing,white,53,19,69,1127.935394199565,None,1127.935394199565,None,1,1.951207099482417,1127.935394199565,None,1129.9258683994412,None,1130.4316384997219,None,1130.4316384997219,None,n,0.08707679994404316,1130.4316384997219,None,,,NC 35,001,2022_Apr_12_0832,ProdSingRedo,3.2.3,59.93410842787095,
,,,,54,0,54,0,,,,,,,,,,,,,,,,,,,,,,,,1133.3681808002293,None,,,,,,,,,,,,,,,,,military,sing,white,54,16,190,1131.0804210994393,None,1131.0804210994393,None,6,1.4783517010509968,1131.0804210994393,None,1132.6074289996177,None,1133.1231686994433,None,1133.1231686994433,None,r,0.21143030002713203,1133.1231686994433,None,,,NC 35,001,2022_Apr_12_0832,ProdSingRedo,3.2.3,59.93410842787095,
,,,,55,0,55,0,,,,,,,,,,,,,,,,,,,,,,,,1140.9269207008183,None,,,,,,,,,,,,,,,,,court,new_b,white,55,138,75,1133.8961957003921,None,1133.8961957003921,None,1,4.718522800132632,1133.8961957003921,None,1138.656214300543,None,1139.1763570997864,None,1139.1763570997864,None,n,1.7182877995073795,1139.1763570997864,None,,,NC 35,001,2022_Apr_12_0832,ProdSingRedo,3.2.3,59.93410842787095,
,,,,56,0,56,0,,,,,,,,,,,,,,,,,,,,,,,,1143.8806682992727,None,,,,,,,,,,,,,,,,,still,silent,white,56,61,304,1141.4489632993937,None,1141.4489632993937,None,1,1.6854630000889301,1141.4489632993937,None,1143.175426999107,None,1143.6956971995533,None,1143.6956971995533,None,n,0.1509275995194912,1143.6956971995533,None,,,NC 35,001,2022_Apr_12_0832,ProdSingRedo,3.2.3,59.93410842787095,
,,,,57,0,57,0,,,,,,,,,,,,,,,,,,,,,,,,1146.6974091995507,None,,,,,,,,,,,,,,,,,science,sing,white,57,28,275,1144.402260599658,None,1144.402260599658,None,6,1.612178198993206,1144.402260599658,None,1146.060653500259,None,1146.5805201996118,None,1146.5805201996118,None,r,0.08188300020992756,1146.5805201996118,None,,,NC 35,001,2022_Apr_12_0832,ProdSingRedo,3.2.3,59.93410842787095,
,,,,58,0,58,0,,,,,,,,,,,,,,,,,,,,,,,,1150.335312699899,None,,,,,,,,,,,,,,,,,distance,sing,white,58,18,100,1147.2216056995094,None,1147.2216056995094,None,6,2.4728038012981415,1147.2216056995094,None,1149.7355643007904,None,1150.2534104008228,None,1150.2534104008228,None,r,0.04884699918329716,1150.2534104008228,None,,,NC 35,001,2022_Apr_12_0832,ProdSingRedo,3.2.3,59.93410842787095,
,,,,59,0,59,0,,,,,,,,,,,,,,,,,,,,,,,,1155.2076455000788,None,,,,,,,,,,,,,,,,,nature,new_a,white,59,94,200,1150.8624862004071,None,1150.8624862004071,None,1,1.5600520987063646,1150.8624862004071,None,1152.4700851999223,None,1152.9954353999346,None,1152.9954353999346,None,n,2.1790378000587225,1152.9954353999346,None,,,NC 35,001,2022_Apr_12_0832,ProdSingRedo,3.2.3,59.93410842787095,
,,,,60,0,60,0,,,,,,,,,,,,,,,,,,,,,,,,1158.4611235000193,None,,,,,,,,,,,,,,,,,property,sing,white,60,11,242,1155.7332556005567,None,1155.7332556005567,None,6,1.7534267995506525,1155.7332556005567,None,1157.5251007005572,None,1158.0455791000277,None,1158.0455791000277,None,r,0.38496469892561436,1158.0455791000277,None,,,NC 35,001,2022_Apr_12_0832,ProdSingRedo,3.2.3,59.93410842787095,
,,,,61,0,61,0,,,,,,,,,,,,,,,,,,,,,,,,1161.5134372003376,None,,,,,,,,,,,,,,,,,trend,new_b,white,61,130,340,1158.981577400118,None,1158.981577400118,None,1,1.8330464996397495,1158.981577400118,None,1160.8596563003957,None,1161.3788469005376,None,1161.3788469005376,None,n,0.09958380088210106,1161.3788469005376,None,,,NC 35,001,2022_Apr_12_0832,ProdSingRedo,3.2.3,59.93410842787095,
,,,,62,0,62,0,,,,,,,,,,,,,,,,,,,,,,,,1164.5337770991027,None,,,,,,,,,,,,,,,,,household,new_a,white,62,101,154,1162.0406915992498,None,1162.0406915992498,None,1,1.8139750007539988,1162.0406915992498,None,1163.9010683000088,None,1164.4215111993253,None,1164.4215111993253,None,n,0.08125329948961735,1164.4215111993253,None,,,NC 35,001,2022_Apr_12_0832,ProdSingRedo,3.2.3,59.93410842787095,
,,,,63,0,63,0,,,,,,,,,,,,,,,,,,,,,,,,1169.2091543991119,None,,,,,,,,,,,,,,,,,childhood,silent,white,63,81,49,1165.0566077996045,None,1165.0566077996045,None,1,2.0459531005471945,1165.0566077996045,None,1167.14805050008,None,1167.6707154996693,None,1167.6707154996693,None,n,1.4959933012723923,1167.6707154996693,None,,,NC 35,001,2022_Apr_12_0832,ProdSingRedo,3.2.3,59.93410842787095,
,,,,64,0,64,0,,,,,,,,,,,,,,,,,,,,,,,,1172.5572228003293,None,,,,,,,,,,,,,,,,,instrument,new_b,white,64,128,163,1169.7358024008572,None,1169.7358024008572,None,1,2.126520300284028,1169.7358024008572,None,1171.9102861005813,None,1172.4171801004559,None,1172.4171801004559,None,n,0.10922360047698021,1172.4171801004559,None,,,NC 35,001,2022_Apr_12_0832,ProdSingRedo,3.2.3,59.93410842787095,
,,,,65,0,65,0,,,,,,,,,,,,,,,,,,,,,,,,1183.235859600827,None,,,,,,,,,,,,,,,,,meeting,new_a,white,65,92,187,1173.0812592003495,None,1173.0812592003495,None,1,9.541234700009227,1173.0812592003495,None,1182.6670727990568,None,1183.1731985993683,None,1183.1731985993683,None,n,0.03317459858953953,1183.1731985993683,None,,,NC 35,001,2022_Apr_12_0832,ProdSingRedo,3.2.3,59.93410842787095,
,,,,66,0,66,0,,,,,,,,,,,,,,,,,,,,,,,,1188.9261818993837,None,,,,,,,,,,,,,,,,,evidence,silent,white,66,66,120,1183.7615591008216,None,1183.7615591008216,None,5,3.5488665010780096,1183.7615591008216,None,1187.3568441998214,None,1187.8767360001802,None,1187.8767360001802,None,f,1.0257371999323368,1187.8767360001802,None,,,NC 35,001,2022_Apr_12_0832,ProdSingRedo,3.2.3,59.93410842787095,
,,,,67,0,67,0,,,,,,,,,,,,,,,,,,,,,,,,1191.8436360992491,None,,,,,,,,,,,,,,,,,safety,new_b,white,67,144,270,1189.4537224005908,None,1189.4537224005908,None,1,1.7527808006852865,1189.4537224005908,None,1191.2586253993213,None,1191.7831587996334,None,1191.7831587996334,None,n,0.023207800462841988,1191.7831587996334,None,,,NC 35,001,2022_Apr_12_0832,ProdSingRedo,3.2.3,59.93410842787095,
,,,,68,0,68,0,,,,,,,,,,,,,,,,,,,,,,,,1197.1831717006862,None,,,,,,,,,,,,,,,,,hunger,silent,white,68,72,155,1192.37831380032,None,1192.37831380032,None,3,3.2842005006968975,1192.37831380032,None,1195.7172221001238,None,1196.2361002992839,None,1196.2361002992839,None,f,0.9144233986735344,1196.2361002992839,None,,,NC 35,001,2022_Apr_12_0832,ProdSingRedo,3.2.3,59.93410842787095,
,,,,69,0,69,0,,,,,,,,,,,,,,,,,,,,,,,,1202.8750384990126,None,,,,,,,,,,,,,,,,,revolution,silent,white,69,60,264,1197.7110619004816,None,1197.7110619004816,None,6,3.5838629007339478,1197.7110619004816,None,1201.3402752000839,None,1201.8627599999309,None,1201.8627599999309,None,r,0.9836071003228426,1201.8627599999309,None,,,NC 35,001,2022_Apr_12_0832,ProdSingRedo,3.2.3,59.93410842787095,
,,,,70,0,70,0,,,,,,,,,,,,,,,,,,,,,,,,1205.733532199636,None,,,,,,,,,,,,,,,,,citizen,new_b,white,70,134,50,1203.4143928997219,None,1203.4143928997219,None,1,1.6002393998205662,1203.4143928997219,None,1205.0626785997301,None,1205.5668276008219,None,1205.5668276008219,None,n,0.1512473002076149,1205.5668276008219,None,,,NC 35,001,2022_Apr_12_0832,ProdSingRedo,3.2.3,59.93410842787095,
,,,,71,0,71,0,,,,,,,,,,,,,,,,,,,,,,,,1211.29691429995,None,,,,,,,,,,,,,,,,,debate,new_b,white,71,127,87,1206.256213100627,None,1206.256213100627,None,5,4.04616430029273,1206.256213100627,None,1210.342962699011,None,1210.8721749000251,None,1210.8721749000251,None,f,0.39015029929578304,1210.8721749000251,None,,,NC 35,001,2022_Apr_12_0832,ProdSingRedo,3.2.3,59.93410842787095,
,,,,72,0,72,0,,,,,,,,,,,,,,,,,,,,,,,,1215.3832550998777,None,,,,,,,,,,,,,,,,,century,new_a,white,72,107,45,1211.816116899252,None,1211.816116899252,None,1,2.502250500023365,1211.816116899252,None,1214.3641665000468,None,1214.881469199434,None,1214.881469199434,None,n,0.4690365996211767,1214.881469199434,None,,,NC 35,001,2022_Apr_12_0832,ProdSingRedo,3.2.3,59.93410842787095,
,,,,73,0,73,0,,,,,,,,,,,,,,,,,,,,,,,,1218.8888542000204,None,,,,,,,,,,,,,,,,,education,new_c,white,73,152,108,1215.914679100737,None,1215.914679100737,None,1,2.299743600189686,1215.914679100737,None,1218.2575362008065,None,1218.7735767997801,None,1218.7735767997801,None,n,0.08891580067574978,1218.7735767997801,None,,,NC 35,001,2022_Apr_12_0832,ProdSingRedo,3.2.3,59.93410842787095,
,,,,74,0,74,0,,,,,,,,,,,,,,,,,,,,,,,,1221.624827299267,None,,,,,,,,,,,,,,,,,travel,new_b,white,74,140,338,1219.413977600634,None,1219.413977600634,None,1,1.5764003992080688,1219.413977600634,None,1221.04318960011,None,1221.5592109002173,None,1221.5592109002173,None,n,0.031203798949718475,1221.5592109002173,None,,,NC 35,001,2022_Apr_12_0832,ProdSingRedo,3.2.3,59.93410842787095,
,,,,75,0,75,0,,,,,,,,,,,,,,,,,,,,,,,,1224.794967699796,None,,,,,,,,,,,,,,,,,month,sing,white,75,29,193,1222.146314099431,None,1222.146314099431,None,1,1.988060800358653,1222.146314099431,None,1224.169606499374,None,1224.6705775000155,None,1224.6705775000155,None,n,0.0959108006209135,1224.6705775000155,None,,,NC 35,001,2022_Apr_12_0832,ProdSingRedo,3.2.3,59.93410842787095,
,,,,76,0,76,0,,,,,,,,,,,,,,,,,,,,,,,,1228.364304099232,None,,,,,,,,,,,,,,,,,quantity,sing,white,76,7,245,1225.3319268003106,None,1225.3319268003106,None,6,2.0664678011089563,1225.3319268003106,None,1227.4520477000624,None,1227.9716953001916,None,1227.9716953001916,None,r,0.35483330115675926,1227.9716953001916,None,,,NC 35,001,2022_Apr_12_0832,ProdSingRedo,3.2.3,59.93410842787095,
,,,,77,0,77,0,,,,,,,,,,,,,,,,,,,,,,,,1234.4790387991816,None,,,,,,,,,,,,,,,,,crime,silent,white,77,71,78,1228.8851236999035,None,1228.8851236999035,None,1,4.977138999849558,1228.8851236999035,None,1233.9122845996171,None,1234.4185971003026,None,1234.4185971003026,None,n,0.03551449999213219,1234.4185971003026,None,,,NC 35,001,2022_Apr_12_0832,ProdSingRedo,3.2.3,59.93410842787095,
,,,,78,0,78,0,,,,,,,,,,,,,,,,,,,,,,,,1240.2963709998876,None,,,,,,,,,,,,,,,,,edition,silent,white,78,69,107,1234.9930980000645,None,1234.9930980000645,None,4,4.229398999363184,1234.9930980000645,None,1239.2735322993249,None,1239.7849701996893,None,1239.7849701996893,None,f,0.47749749943614006,1239.7849701996893,None,,,NC 35,001,2022_Apr_12_0832,ProdSingRedo,3.2.3,59.93410842787095,
,,,,79,0,79,0,,,,,,,,,,,,,,,,,,,,,,,,1243.6953468993306,None,,,,,,,,,,,,,,,,,primary,sing,white,79,27,234,1240.8204455003142,None,1240.8204455003142,None,6,1.8261284995824099,1240.8204455003142,None,1242.6928994990885,None,1243.2163405995816,None,1243.2163405995816,None,r,0.44610519893467426,1243.2163405995816,None,,,NC 35,001,2022_Apr_12_0832,ProdSingRedo,3.2.3,59.93410842787095,
,,,,80,0,80,0,,,,,,,,,,,,,,,,,,,,,,,,1247.8984193000942,None,,,,,,,,,,,,,,,,,worker,new_b,white,80,149,356,1244.2261593993753,None,1244.2261593993753,None,1,1.4201909992843866,1244.2261593993753,None,1245.694336200133,None,1246.2192394006997,None,1246.2192394006997,None,n,1.6430932004004717,1246.2192394006997,None,,,NC 35,001,2022_Apr_12_0832,ProdSingRedo,3.2.3,59.93410842787095,
,,,,81,0,81,0,,,,,,,,,,,,,,,,,,,,,,,,1250.385482300073,None,,,,,,,,,,,,,,,,,tennis,new_b,white,81,120,323,1248.4223222993314,None,1248.4223222993314,None,1,1.2639763988554478,1248.4223222993314,None,1249.7307347990572,None,1250.2506003994495,None,1250.2506003994495,None,n,0.09977050125598907,1250.2506003994495,None,,,NC 35,001,2022_Apr_12_0832,ProdSingRedo,3.2.3,59.93410842787095,
,,,,82,0,82,0,,,,,,,,,,,,,,,,,,,,,,,,1254.2311662007123,None,,,,,,,,,,,,,,,,,throw,silent,white,82,68,330,1250.9122298005968,None,1250.9122298005968,None,1,2.61406940035522,1250.9122298005968,None,1253.5701435990632,None,1254.091055199504,None,1254.091055199504,None,n,0.0994573999196291,1254.091055199504,None,,,NC 35,001,2022_Apr_12_0832,ProdSingRedo,3.2.3,59.93410842787095,
,,,,83,0,83,0,,,,,,,,,,,,,,,,,,,,,,,,1259.8121201004833,None,,,,,,,,,,,,,,,,,surface,silent,white,83,82,316,1254.7522126995027,None,1254.7522126995027,None,1,3.39853180013597,1254.7522126995027,None,1258.1925143990666,None,1258.716166999191,None,1258.716166999191,None,n,1.0664197001606226,1258.716166999191,None,,,NC 35,001,2022_Apr_12_0832,ProdSingRedo,3.2.3,59.93410842787095,
,,,,84,0,84,0,,,,,,,,,,,,,,,,,,,,,,,,1267.5701461005956,None,,,,,,,,,,,,,,,,,population,silent,white,84,77,227,1260.3316763993353,None,1260.3316763993353,None,3,5.4821717999875546,1260.3316763993353,None,1265.849421100691,None,1266.377693200484,None,1266.377693200484,None,f,1.1566250994801521,1266.377693200484,None,,,NC 35,001,2022_Apr_12_0832,ProdSingRedo,3.2.3,59.93410842787095,
,,,,85,0,85,0,,,,,,,,,,,,,,,,,,,,,,,,1271.2230654992163,None,,,,,,,,,,,,,,,,,harmony,new_b,white,85,137,148,1268.0952426996082,None,1268.0952426996082,None,1,2.2389650009572506,1268.0952426996082,None,1270.3911233004183,None,1270.9120141007006,None,1270.9120141007006,None,n,0.2862398009747267,1270.9120141007006,None,,,NC 35,001,2022_Apr_12_0832,ProdSingRedo,3.2.3,59.93410842787095,
,,,,86,0,86,0,,,,,,,,,,,,,,,,,,,,,,,,1273.7583341002464,None,,,,,,,,,,,,,,,,,bright,new_c,white,86,168,29,1271.749829499051,None,1271.749829499051,None,1,1.2644392997026443,1271.749829499051,None,1273.0606500003487,None,1273.578397700563,None,1273.578397700563,None,n,0.1558787003159523,1273.578397700563,None,,,NC 35,001,2022_Apr_12_0832,ProdSingRedo,3.2.3,59.93410842787095,
,,,,87,0,87,0,,,,,,,,,,,,,,,,,,,,,,,,1276.4463798999786,None,,,,,,,,,,,,,,,,,agreement,new_b,white,87,135,5,1274.2850330993533,None,1274.2850330993533,None,1,1.4890251997858286,1274.2850330993533,None,1275.8255969006568,None,1276.3479925002903,None,1276.3479925002903,None,n,0.06624919921159744,1276.3479925002903,None,,,NC 35,001,2022_Apr_12_0832,ProdSingRedo,3.2.3,59.93410842787095,
,,,,88,0,88,0,,,,,,,,,,,,,,,,,,,,,,,,1279.6327619999647,None,,,,,,,,,,,,,,,,,exchange,aloud,white,88,40,121,1276.974521400407,None,1276.974521400407,None,1,2.0157146994024515,1276.974521400407,None,1279.034664399922,None,1279.5520240999758,None,1279.5520240999758,None,n,0.0542502012103796,1279.5520240999758,None,,,NC 35,001,2022_Apr_12_0832,ProdSingRedo,3.2.3,59.93410842787095,
,,,,89,0,89,0,,,,,,,,,,,,,,,,,,,,,,,,1283.6683837994933,None,,,,,,,,,,,,,,,,,pattern,aloud,white,89,58,214,1280.157637199387,None,1280.157637199387,None,4,2.4886693004518747,1280.157637199387,None,1282.701582800597,None,1283.2233396004885,None,1283.2233396004885,None,f,0.41489649936556816,1283.2233396004885,None,,,NC 35,001,2022_Apr_12_0832,ProdSingRedo,3.2.3,59.93410842787095,
,,,,90,0,90,0,,,,,,,,,,,,,,,,,,,,,,,,1286.3049052990973,None,,,,,,,,,,,,,,,,,sound,new_a,white,90,109,295,1284.1926974002272,None,1284.1926974002272,None,1,1.4374136999249458,1284.1926974002272,None,1285.6697703991085,None,1286.1742879990488,None,1286.1742879990488,None,n,0.09611530043184757,1286.1742879990488,None,,,NC 35,001,2022_Apr_12_0832,ProdSingRedo,3.2.3,59.93410842787095,
,,,,91,0,91,0,,,,,,,,,,,,,,,,,,,,,,,,1290.242458699271,None,,,,,,,,,,,,,,,,,personnel,silent,white,91,85,219,1286.8274504002184,None,1286.8274504002184,None,6,2.4588964991271496,1286.8274504002184,None,1289.3319659996778,None,1289.8440029006451,None,1289.8440029006451,None,r,0.37011819891631603,1289.8440029006451,None,,,NC 35,001,2022_Apr_12_0832,ProdSingRedo,3.2.3,59.93410842787095,
,,,,92,0,92,0,,,,,,,,,,,,,,,,,,,,,,,,1293.430037299171,None,,,,,,,,,,,,,,,,,individual,silent,white,92,78,160,1290.7755794990808,None,1290.7755794990808,None,6,1.2547242995351553,1290.7755794990808,None,1292.074771700427,None,1292.6010139994323,None,1292.6010139994323,None,r,0.8052936997264624,1292.6010139994323,None,,,NC 35,001,2022_Apr_12_0832,ProdSingRedo,3.2.3,59.93410842787095,
,,,,93,0,93,0,,,,,,,,,,,,,,,,,,,,,,,,1296.4669808000326,None,,,,,,,,,,,,,,,,,background,new_a,white,93,112,16,1293.958202900365,None,1293.958202900365,None,1,1.663562100380659,1293.958202900365,None,1295.6466189008206,None,1296.1725798994303,None,1296.1725798994303,None,n,0.2662911992520094,1296.1725798994303,None,,,NC 35,001,2022_Apr_12_0832,ProdSingRedo,3.2.3,59.93410842787095,
,,,,94,0,94,0,,,,,,,,,,,,,,,,,,,,,,,,1299.2173156999052,None,,,,,,,,,,,,,,,,,reading,silent,white,94,88,254,1296.9948638994247,None,1296.9948638994247,None,1,1.467383399605751,1296.9948638994247,None,1298.511938199401,None,1299.0402870997787,None,1299.0402870997787,None,n,0.1420764997601509,1299.0402870997787,None,,,NC 35,001,2022_Apr_12_0832,ProdSingRedo,3.2.3,59.93410842787095,
,,,,95,0,95,0,,,,,,,,,,,,,,,,,,,,,,,,1302.654863299802,None,,,,,,,,,,,,,,,,,engineer,aloud,white,95,42,114,1299.734518000856,None,1299.734518000856,None,5,1.9677684996277094,1299.734518000856,None,1301.7509262990206,None,1302.2747978996485,None,1302.2747978996485,None,f,0.35530050098896027,1302.2747978996485,None,,,NC 35,001,2022_Apr_12_0832,ProdSingRedo,3.2.3,59.93410842787095,
,,,,96,0,96,0,,,,,,,,,,,,,,,,,,,,,,,,1306.626982100308,None,,,,,,,,,,,,,,,,,carry,aloud,white,96,51,43,1303.1846756003797,None,1303.1846756003797,None,4,2.5256141014397144,1303.1846756003797,None,1305.7702868003398,None,1306.278309699148,None,1306.278309699148,None,f,0.3199298996478319,1306.278309699148,None,,,NC 35,001,2022_Apr_12_0832,ProdSingRedo,3.2.3,59.93410842787095,
,,,,97,0,97,0,,,,,,,,,,,,,,,,,,,,,,,,1309.2263414002955,None,,,,,,,,,,,,,,,,,expansion,new_a,white,97,91,123,1307.15321129933,None,1307.15321129933,None,1,1.3890708982944489,1307.15321129933,None,1308.5899887997657,None,1309.1157105006278,None,1309.1157105006278,None,n,0.07457249984145164,1309.1157105006278,None,,,NC 35,001,2022_Apr_12_0832,ProdSingRedo,3.2.3,59.93410842787095,
,,,,98,0,98,0,,,,,,,,,,,,,,,,,,,,,,,,1312.9657112006098,None,,,,,,,,,,,,,,,,,frank,aloud,white,98,30,133,1309.7568308003247,None,1309.7568308003247,None,6,2.137168399989605,1309.7568308003247,None,1311.933914700523,None,1312.4542867001146,None,1312.4542867001146,None,r,0.4719017017632723,1312.4542867001146,None,,,NC 35,001,2022_Apr_12_0832,ProdSingRedo,3.2.3,59.93410842787095,
,,,,99,0,99,0,,,,,,,,,,,,,,,,,,,,,,,,1316.135018499568,None,,,,,,,,,,,,,,,,,guide,silent,white,99,79,147,1313.4921173006296,None,1313.4921173006296,None,1,1.737984400242567,1313.4921173006296,None,1315.2787916995585,None,1315.8020367007703,None,1315.8020367007703,None,n,0.3001316003501415,1315.8020367007703,None,,,NC 35,001,2022_Apr_12_0832,ProdSingRedo,3.2.3,59.93410842787095,
,,,,100,0,100,0,,,,,,,,,,,,,,,,,,,,,,,,1318.554039599374,None,,,,,,,,,,,,,,,,,cousin,new_c,white,100,165,76,1316.6610301993787,None,1316.6610301993787,None,1,1.2011171001940966,1316.6610301993787,None,1317.9045858997852,None,1318.423114400357,None,1318.423114400357,None,n,0.10299890115857124,1318.423114400357,None,,,NC 35,001,2022_Apr_12_0832,ProdSingRedo,3.2.3,59.93410842787095,
,,,,101,0,101,0,,,,,,,,,,,,,,,,,,,,,,,,1321.3051036000252,None,,,,,,,,,,,,,,,,,sleep,sing,white,101,6,290,1319.0756767001003,None,1319.0756767001003,None,1,1.2985706012696028,1319.0756767001003,None,1320.4130201004446,None,1320.9276077002287,None,1320.9276077002287,None,n,0.34266179986298084,1320.9276077002287,None,,,NC 35,001,2022_Apr_12_0832,ProdSingRedo,3.2.3,59.93410842787095,
,,,,102,0,102,0,,,,,,,,,,,,,,,,,,,,,,,,1324.5600528996438,None,,,,,,,,,,,,,,,,,pretty,new_c,white,102,177,233,1321.8336337991059,None,1321.8336337991059,None,1,1.8764837998896837,1321.8336337991059,None,1323.7641365006566,None,1324.2773129995912,None,1324.2773129995912,None,n,0.24880089983344078,1324.2773129995912,None,,,NC 35,001,2022_Apr_12_0832,ProdSingRedo,3.2.3,59.93410842787095,
,,,,103,0,103,0,,,,,,,,,,,,,,,,,,,,,,,,1328.648320099339,None,,,,,,,,,,,,,,,,,message,new_c,white,103,163,189,1325.08206759952,None,1325.08206759952,None,3,2.5402796007692814,1325.08206759952,None,1327.663838300854,None,1328.180783700198,None,1328.180783700198,None,f,0.44130370020866394,1328.180783700198,None,,,NC 35,001,2022_Apr_12_0832,ProdSingRedo,3.2.3,59.93410842787095,
,,,,104,0,104,0,,,,,,,,,,,,,,,,,,,,,,,,1331.9512633997947,None,,,,,,,,,,,,,,,,,smell,new_a,white,104,100,291,1329.1700078006834,None,1329.1700078006834,None,3,1.884204600006342,1329.1700078006834,None,1331.092025399208,None,1331.6022609006613,None,1331.6022609006613,None,f,0.32390129938721657,1331.6022609006613,None,,,NC 35,001,2022_Apr_12_0832,ProdSingRedo,3.2.3,59.93410842787095,
,,,,105,0,105,0,,,,,,,,,,,,,,,,,,,,,,,,1334.603764500469,None,,,,,,,,,,,,,,,,,mechanical,new_a,white,105,105,185,1332.4786827005446,None,1332.4786827005446,None,1,1.2234459016472101,1332.4786827005446,None,1333.75505230017,None,1334.2725568991154,None,1334.2725568991154,None,n,0.29365660063922405,1334.2725568991154,None,,,NC 35,001,2022_Apr_12_0832,ProdSingRedo,3.2.3,59.93410842787095,
,,,,106,0,106,0,,,,,,,,,,,,,,,,,,,,,,,,1337.5562856998295,None,,,,,,,,,,,,,,,,,medicine,new_b,white,106,142,186,1335.1279997006059,None,1335.1279997006059,None,1,1.5344647001475096,1335.1279997006059,None,1336.704853599891,None,1337.2218405008316,None,1337.2218405008316,None,n,0.3042858000844717,1337.2218405008316,None,,,NC 35,001,2022_Apr_12_0832,ProdSingRedo,3.2.3,59.93410842787095,
,,,,107,0,107,0,,,,,,,,,,,,,,,,,,,,,,,,1340.0342194996774,None,,,,,,,,,,,,,,,,,clear,new_a,white,107,114,52,1338.0809151995927,None,1338.0809151995927,None,1,1.3333577997982502,1338.0809151995927,None,1339.4568284004927,None,1339.9831345006824,None,1339.9831345006824,None,n,0.022761400789022446,1339.9831345006824,None,,,NC 35,001,2022_Apr_12_0832,ProdSingRedo,3.2.3,59.93410842787095,
,,,,108,0,108,0,,,,,,,,,,,,,,,,,,,,,,,,1343.9125404004008,None,,,,,,,,,,,,,,,,,dispute,sing,white,108,17,99,1340.5513482000679,None,1340.5513482000679,None,6,2.4069499000906944,1340.5513482000679,None,1343.0049418993294,None,1343.516688099131,None,1343.516688099131,None,r,0.3696807995438576,1343.516688099131,None,,,NC 35,001,2022_Apr_12_0832,ProdSingRedo,3.2.3,59.93410842787095,
,,,,109,0,109,0,,,,,,,,,,,,,,,,,,,,,,,,1347.7508342992514,None,,,,,,,,,,,,,,,,,character,new_c,white,109,172,46,1344.442505799234,None,1344.442505799234,None,1,2.4995444007217884,1344.442505799234,None,1346.9858927000314,None,1347.5048764999956,None,1347.5048764999956,None,n,0.21323319897055626,1347.5048764999956,None,,,NC 35,001,2022_Apr_12_0832,ProdSingRedo,3.2.3,59.93410842787095,
,,,,110,0,110,0,,,,,,,,,,,,,,,,,,,,,,,,1356.4210040997714,None,,,,,,,,,,,,,,,,,capital,sing,white,110,12,40,1348.2778089996427,None,1348.2778089996427,None,3,7.439826298505068,1348.2778089996427,None,1355.758496599272,None,1356.281169500202,None,1356.281169500202,None,f,0.11679469980299473,1356.281169500202,None,,,NC 35,001,2022_Apr_12_0832,ProdSingRedo,3.2.3,59.93410842787095,
,,,,111,0,111,0,,,,,,,,,,,,,,,,,,,,,,,,1360.665484400466,None,,,,,,,,,,,,,,,,,foundation,aloud,white,111,47,132,1356.938010700047,None,1356.938010700047,None,5,2.8281527999788523,1356.938010700047,None,1359.8095685001463,None,1360.3448479995131,None,1360.3448479995131,None,f,0.28510970063507557,1360.3448479995131,None,,,NC 35,001,2022_Apr_12_0832,ProdSingRedo,3.2.3,59.93410842787095,
,,,,112,0,112,0,,,,,,,,,,,,,,,,,,,,,,,,1366.752431500703,None,,,,,,,,,,,,,,,,,state,silent,white,112,73,303,1361.1888050008565,None,1361.1888050008565,None,2,3.1133597008883953,1361.1888050008565,None,1364.352065699175,None,1364.8685890007764,None,1364.8685890007764,None,f,1.8575199004262686,1364.8685890007764,None,,,NC 35,001,2022_Apr_12_0832,ProdSingRedo,3.2.3,59.93410842787095,
,,,,113,0,113,0,,,,,,,,,,,,,,,,,,,,,,,,1369.1967229992151,None,,,,,,,,,,,,,,,,,curve,silent,white,113,76,82,1367.2768938001245,None,1367.2768938001245,None,1,1.2973066996783018,1367.2768938001245,None,1368.6205598991364,None,1369.1415609996766,None,1369.1415609996766,None,n,0.024260999634861946,1369.1415609996766,None,,,NC 35,001,2022_Apr_12_0832,ProdSingRedo,3.2.3,59.93410842787095,
,,,,114,0,114,0,,,,,,,,,,,,,,,,,,,,,,,,1378.3303983006626,None,,,,,,,,,,,,,,,,,touch,new_c,white,114,155,332,1369.715271499008,None,1369.715271499008,None,5,7.698838399723172,1369.715271499008,None,1377.4612511005253,None,1377.9816590007395,None,1377.9816590007395,None,f,0.32047729939222336,1377.9816590007395,None,,,NC 35,001,2022_Apr_12_0832,ProdSingRedo,3.2.3,59.93410842787095,
,,,,115,0,115,0,,,,,,,,,,,,,,,,,,,,,,,,1380.8817104008049,None,,,,,,,,,,,,,,,,,thick,new_c,white,115,169,327,1378.8507006000727,None,1378.8507006000727,None,1,1.3393313996493816,1378.8507006000727,None,1380.2288327999413,None,1380.7517179995775,None,1380.7517179995775,None,n,0.10238469950854778,1380.7517179995775,None,,,NC 35,001,2022_Apr_12_0832,ProdSingRedo,3.2.3,59.93410842787095,
,,,,116,0,116,0,,,,,,,,,,,,,,,,,,,,,,,,1383.800548600033,None,,,,,,,,,,,,,,,,,front,silent,white,116,67,134,1381.4059047996998,None,1381.4059047996998,None,1,1.5283643994480371,1381.4059047996998,None,1382.9830003008246,None,1383.5007889997214,None,1383.5007889997214,None,n,0.26533539965748787,1383.5007889997214,None,,,NC 35,001,2022_Apr_12_0832,ProdSingRedo,3.2.3,59.93410842787095,
,,,,117,0,117,0,,,,,,,,,,,,,,,,,,,,,,,,1388.9898796007037,None,,,,,,,,,,,,,,,,,marriage,new_a,white,117,116,179,1384.3330228999257,None,1384.3330228999257,None,1,3.9129802994430065,1384.3330228999257,None,1388.296906100586,None,1388.8186415005475,None,1388.8186415005475,None,n,0.13935419917106628,1388.8186415005475,None,,,NC 35,001,2022_Apr_12_0832,ProdSingRedo,3.2.3,59.93410842787095,
,,,,118,0,118,0,,,,,,,,,,,,,,,,,,,,,,,,1392.1609342005104,None,,,,,,,,,,,,,,,,,second,new_c,white,118,174,278,1389.5117415003479,None,1389.5117415003479,None,1,1.942459998652339,1389.5117415003479,None,1391.4902178999037,None,1392.0086484998465,None,1392.0086484998465,None,n,0.12566090002655983,1392.0086484998465,None,,,NC 35,001,2022_Apr_12_0832,ProdSingRedo,3.2.3,59.93410842787095,
,,,,119,0,119,0,,,,,,,,,,,,,,,,,,,,,,,,1395.4306492991745,None,,,,,,,,,,,,,,,,,watch,new_b,white,119,123,351,1392.684897100553,None,1392.684897100553,None,1,2.0811612997204065,1392.684897100553,None,1394.811017099768,None,1395.332454400137,None,1395.332454400137,None,n,0.07368360087275505,1395.332454400137,None,,,NC 35,001,2022_Apr_12_0832,ProdSingRedo,3.2.3,59.93410842787095,
,,,,120,0,120,0,,,,,,,,,,,,,,,,,,,,,,,,1402.1214086003602,None,,,,,,,,,,,,,,,,,whole,new_c,white,120,151,355,1395.9555955007672,None,1395.9555955007672,None,1,5.570428499951959,1395.9555955007672,None,1401.5630159005523,None,1402.0730808991939,None,1402.0730808991939,None,n,0.021046699956059456,1402.0730808991939,None,,,NC 35,001,2022_Apr_12_0832,ProdSingRedo,3.2.3,59.93410842787095,
,,,,121,0,121,0,,,,,,,,,,,,,,,,,,,,,,,,1405.727372199297,None,,,,,,,,,,,,,,,,,store,sing,white,121,22,305,1402.641283199191,None,1402.641283199191,None,6,2.0689859986305237,1402.641283199191,None,1404.7519492991269,None,1405.2707812990993,None,1405.2707812990993,None,r,0.4232922997325659,1405.2707812990993,None,,,NC 35,001,2022_Apr_12_0832,ProdSingRedo,3.2.3,59.93410842787095,
,,,,122,0,122,0,,,,,,,,,,,,,,,,,,,,,,,,1409.4941099993885,None,,,,,,,,,,,,,,,,,partner,new_b,white,122,124,211,1406.2534178998321,None,1406.2534178998321,None,1,2.392586501315236,1406.2534178998321,None,1408.695569500327,None,1409.2159812003374,None,1409.2159812003374,None,n,0.24600189924240112,1409.2159812003374,None,,,NC 35,001,2022_Apr_12_0832,ProdSingRedo,3.2.3,59.93410842787095,
,,,,123,0,123,0,,,,,,,,,,,,,,,,,,,,,,,,1412.6307471003383,None,,,,,,,,,,,,,,,,,victory,aloud,white,123,50,346,1410.0205435995013,None,1410.0205435995013,None,6,1.6013472992926836,1410.0205435995013,None,1411.6662610005587,None,1412.181742200628,None,1412.181742200628,None,r,0.4241927992552519,1412.181742200628,None,,,NC 35,001,2022_Apr_12_0832,ProdSingRedo,3.2.3,59.93410842787095,
,,,,124,0,124,0,,,,,,,,,,,,,,,,,,,,,,,,1415.5429426003247,None,,,,,,,,,,,,,,,,,couch,new_a,white,124,98,70,1413.157250000164,None,1413.157250000164,None,1,1.6648468989878893,1413.157250000164,None,1414.8684519995004,None,1415.3760394006968,None,1415.3760394006968,None,n,0.1495929006487131,1415.3760394006968,None,,,NC 35,001,2022_Apr_12_0832,ProdSingRedo,3.2.3,59.93410842787095,
,,,,125,0,125,0,,,,,,,,,,,,,,,,,,,,,,,,1418.9539368990809,None,,,,,,,,,,,,,,,,,voice,new_c,white,125,175,348,1416.06089139916,None,1416.06089139916,None,1,2.208689399063587,1416.06089139916,None,1418.2963714003563,None,1418.8043911997229,None,1418.8043911997229,None,n,0.12155559845268726,1418.8043911997229,None,,,NC 35,001,2022_Apr_12_0832,ProdSingRedo,3.2.3,59.93410842787095,
,,,,126,0,126,0,,,,,,,,,,,,,,,,,,,,,,,,1421.9738549999893,None,,,,,,,,,,,,,,,,,notice,new_c,white,126,179,201,1419.4763887003064,None,1419.4763887003064,None,1,1.841575801372528,1419.4763887003064,None,1421.3654479999095,None,1421.8815387003124,None,1421.8815387003124,None,n,0.06054140068590641,1421.8815387003124,None,,,NC 35,001,2022_Apr_12_0832,ProdSingRedo,3.2.3,59.93410842787095,
,,,,127,0,127,0,,,,,,,,,,,,,,,,,,,,,,,,1426.2606869004667,None,,,,,,,,,,,,,,,,,alert,new_c,white,127,170,6,1422.4964540991932,None,1422.4964540991932,None,1,2.661779599264264,1422.4964540991932,None,1425.2047314997762,None,1425.729361699894,None,1425.729361699894,None,n,0.4927041996270418,1425.729361699894,None,,,NC 35,001,2022_Apr_12_0832,ProdSingRedo,3.2.3,59.93410842787095,
,,,,128,0,128,0,,,,,,,,,,,,,,,,,,,,,,,,1429.1262076999992,None,,,,,,,,,,,,,,,,,sight,new_b,white,128,132,286,1426.790627900511,None,1426.790627900511,None,1,1.7513686008751392,1426.790627900511,None,1428.5900219008327,None,1429.0987797006965,None,1429.0987797006965,None,n,0.010950999334454536,1429.0987797006965,None,,,NC 35,001,2022_Apr_12_0832,ProdSingRedo,3.2.3,59.93410842787095,
,,,,129,0,129,0,,,,,,,,,,,,,,,,,,,,,,,,1432.617953300476,None,,,,,,,,,,,,,,,,,turkey,aloud,white,129,57,342,1429.6608367990702,None,1429.6608367990702,None,6,2.0651864986866713,1429.6608367990702,None,1431.7671959996223,None,1432.274791199714,None,1432.274791199714,None,r,0.31516579911112785,1432.274791199714,None,,,NC 35,001,2022_Apr_12_0832,ProdSingRedo,3.2.3,59.93410842787095,
,,,,130,0,130,0,,,,,,,,,,,,,,,,,,,,,,,,1435.4391354992986,None,,,,,,,,,,,,,,,,,bucket,silent,white,130,89,33,1433.1459477003664,None,1433.1459477003664,None,1,1.5240336004644632,1433.1459477003664,None,1434.7162308003753,None,1435.2447464000434,None,1435.2447464000434,None,n,0.16119959950447083,1435.2447464000434,None,,,NC 35,001,2022_Apr_12_0832,ProdSingRedo,3.2.3,59.93410842787095,
,,,,131,0,131,0,,,,,,,,,,,,,,,,,,,,,,,,1438.7231951002032,None,,,,,,,,,,,,,,,,,enemy,new_b,white,131,147,113,1435.963318200782,None,1435.963318200782,None,1,1.970661200582981,1435.963318200782,None,1437.9721173997968,None,1438.489957999438,None,1438.489957999438,None,n,0.1959786992520094,1438.489957999438,None,,,NC 35,001,2022_Apr_12_0832,ProdSingRedo,3.2.3,59.93410842787095,
,,,,132,0,132,0,,,,,,,,,,,,,,,,,,,,,,,,1443.5282457005233,None,,,,,,,,,,,,,,,,,broke,silent,white,132,75,32,1439.2505690995604,None,1439.2505690995604,None,6,3.395441699773073,1439.2505690995604,None,1442.6915997006,None,1443.2152765002102,None,1443.2152765002102,None,r,0.28697289898991585,1443.2152765002102,None,,,NC 35,001,2022_Apr_12_0832,ProdSingRedo,3.2.3,59.93410842787095,
,,,,133,0,133,0,,,,,,,,,,,,,,,,,,,,,,,,1446.21348330006,None,,,,,,,,,,,,,,,,,government,new_c,white,133,160,139,1444.0588624998927,None,1444.0588624998927,None,1,1.4746301006525755,1444.0588624998927,None,1445.5610249005258,None,1446.082533299923,None,1446.082533299923,None,n,0.1073318999260664,1446.082533299923,None,,,NC 35,001,2022_Apr_12_0832,ProdSingRedo,3.2.3,59.93410842787095,
,,,,134,0,134,0,,,,,,,,,,,,,,,,,,,,,,,,1450.1361369993538,None,,,,,,,,,,,,,,,,,answer,new_c,white,134,159,8,1446.7413461003453,None,1446.7413461003453,None,1,2.7445845007896423,1446.7413461003453,None,1449.537846500054,None,1450.056528199464,None,1450.056528199464,None,n,0.04540509916841984,1450.056528199464,None,,,NC 35,001,2022_Apr_12_0832,ProdSingRedo,3.2.3,59.93410842787095,
,,,,135,0,135,0,,,,,,,,,,,,,,,,,,,,,,,,1453.1873154006898,None,,,,,,,,,,,,,,,,,course,new_a,white,135,119,74,1450.6622163001448,None,1450.6622163001448,None,1,1.8317374009639025,1450.6622163001448,None,1452.5367456004024,None,1453.0598566997796,None,1453.0598566997796,None,n,0.08998710103332996,1453.0598566997796,None,,,NC 35,001,2022_Apr_12_0832,ProdSingRedo,3.2.3,59.93410842787095,
,,,,136,0,136,0,,,,,,,,,,,,,,,,,,,,,,,,1456.235319500789,None,,,,,,,,,,,,,,,,,blind,new_a,white,136,90,24,1453.7127831000835,None,1453.7127831000835,None,1,1.9011109005659819,1453.7127831000835,None,1455.650840299204,None,1456.1595606002957,None,1456.1595606002957,None,n,0.0460962001234293,1456.1595606002957,None,,,NC 35,001,2022_Apr_12_0832,ProdSingRedo,3.2.3,59.93410842787095,
,,,,137,0,137,0,,,,,,,,,,,,,,,,,,,,,,,,1459.5464377999306,None,,,,,,,,,,,,,,,,,level,new_a,white,137,103,170,1456.761690799147,None,1456.761690799147,None,1,1.4284811988472939,1456.761690799147,None,1458.2368768993765,None,1458.7510704007,None,1458.7510704007,None,n,0.7668289989233017,1458.7510704007,None,,,NC 35,001,2022_Apr_12_0832,ProdSingRedo,3.2.3,59.93410842787095,
,,,,138,0,138,0,,,,,,,,,,,,,,,,,,,,,,,,1463.5486002005637,None,,,,,,,,,,,,,,,,,benefit,silent,white,138,70,20,1460.0771421995014,None,1460.0771421995014,None,4,2.56875759921968,1460.0771421995014,None,1462.6988315992057,None,1463.220983600244,None,1463.220983600244,None,f,0.304874399676919,1463.220983600244,None,,,NC 35,001,2022_Apr_12_0832,ProdSingRedo,3.2.3,59.93410842787095,
,,,,139,0,139,0,,,,,,,,,,,,,,,,,,,,,,,,1466.300452299416,None,,,,,,,,,,,,,,,,,novel,new_c,white,139,150,202,1464.076148999855,None,1464.076148999855,None,1,1.4656662996858358,1464.076148999855,None,1465.5893012993038,None,1466.1013831999153,None,1466.1013831999153,None,n,0.17649370059370995,1466.1013831999153,None,,,NC 35,001,2022_Apr_12_0832,ProdSingRedo,3.2.3,59.93410842787095,
,,,,140,0,140,0,,,,,,,,,,,,,,,,,,,,,,,,1470.7393916007131,None,,,,,,,,,,,,,,,,,religion,aloud,white,140,38,258,1466.8294140007347,None,1466.8294140007347,None,5,2.9926181007176638,1466.8294140007347,None,1469.8704096004367,None,1470.3938711993396,None,1470.3938711993396,None,f,0.3081767000257969,1470.3938711993396,None,,,NC 35,001,2022_Apr_12_0832,ProdSingRedo,3.2.3,59.93410842787095,
,,,,141,0,141,0,,,,,,,,,,,,,,,,,,,,,,,,1474.4909371994436,None,,,,,,,,,,,,,,,,,people,new_a,white,141,99,216,1471.261446999386,None,1471.261446999386,None,1,2.5203930996358395,1471.261446999386,None,1473.8204158004373,None,1474.3406229000539,None,1474.3406229000539,None,n,0.1132350992411375,1474.3406229000539,None,,,NC 35,001,2022_Apr_12_0832,ProdSingRedo,3.2.3,59.93410842787095,
,,,,142,0,142,0,,,,,,,,,,,,,,,,,,,,,,,,1478.2120328992605,None,,,,,,,,,,,,,,,,,question,new_b,white,142,139,247,1475.0233191996813,None,1475.0233191996813,None,4,2.5265826992690563,1475.0233191996813,None,1477.5999193992466,None,1478.1203683000058,None,1478.1203683000058,None,f,0.06143430061638355,1478.1203683000058,None,,,NC 35,001,2022_Apr_12_0832,ProdSingRedo,3.2.3,59.93410842787095,
,,,,143,0,143,0,,,,,,,,,,,,,,,,,,,,,,,,1481.8161111995578,None,,,,,,,,,,,,,,,,,beginning,new_a,white,143,102,19,1478.7299584001303,None,1478.7299584001303,None,4,2.0277901999652386,1478.7299584001303,None,1480.805775500834,None,1481.3234874997288,None,1481.3234874997288,None,f,0.4583144001662731,1481.3234874997288,None,,,NC 35,001,2022_Apr_12_0832,ProdSingRedo,3.2.3,59.93410842787095,
,,,,144,0,144,0,,,,,,,,,,,,,,,,,,,,,,,,1484.853823600337,None,,,,,,,,,,,,,,,,,contract,new_c,white,144,164,68,1482.3447072990239,None,1482.3447072990239,None,1,1.8370606992393732,1482.3447072990239,None,1484.2351166997105,None,1484.755465099588,None,1484.755465099588,None,n,0.07452709972858429,1484.755465099588,None,,,NC 35,001,2022_Apr_12_0832,ProdSingRedo,3.2.3,59.93410842787095,
,,,,145,0,145,0,,,,,,,,,,,,,,,,,,,,,,,,1488.789789699018,None,,,,,,,,,,,,,,,,,finish,silent,white,145,87,130,1485.3767220005393,None,1485.3767220005393,None,6,2.413249298930168,1485.3767220005393,None,1487.8376893997192,None,1488.3582783993334,None,1488.3582783993334,None,r,0.40743899904191494,1488.3582783993334,None,,,NC 35,001,2022_Apr_12_0832,ProdSingRedo,3.2.3,59.93410842787095,
,,,,146,0,146,0,,,,,,,,,,,,,,,,,,,,,,,,1491.4591508004814,None,,,,,,,,,,,,,,,,,scene,new_a,white,146,97,273,1489.314664999023,None,1489.314664999023,None,1,1.4350992999970913,1489.314664999023,None,1490.7880534995347,None,1491.3083961997181,None,1491.3083961997181,None,n,0.11349780112504959,1491.3083961997181,None,,,NC 35,001,2022_Apr_12_0832,ProdSingRedo,3.2.3,59.93410842787095,
,,,,147,0,147,0,,,,,,,,,,,,,,,,,,,,,,,,1494.3786027990282,None,,,,,,,,,,,,,,,,,executive,aloud,white,147,54,122,1491.986384300515,None,1491.986384300515,None,6,1.451756900176406,1491.986384300515,None,1493.478696199134,None,1494.0023081991822,None,1494.0023081991822,None,r,0.3395358007401228,1494.0023081991822,None,,,NC 35,001,2022_Apr_12_0832,ProdSingRedo,3.2.3,59.93410842787095,
,,,,148,0,148,0,,,,,,,,,,,,,,,,,,,,,,,,1497.1983054000884,None,,,,,,,,,,,,,,,,,bitter,aloud,white,148,32,23,1494.9039878007025,None,1494.9039878007025,None,6,1.5418069008737803,1494.9039878007025,None,1496.4937440995127,None,1497.0155746992677,None,1497.0155746992677,None,r,0.15822370164096355,1497.0155746992677,None,,,NC 35,001,2022_Apr_12_0832,ProdSingRedo,3.2.3,59.93410842787095,
,,,,149,0,149,0,,,,,,,,,,,,,,,,,,,,,,,,1499.81817759946,None,,,,,,,,,,,,,,,,,running,new_c,white,149,153,268,1497.7268876992166,None,1497.7268876992166,None,1,1.4070767983794212,1497.7268876992166,None,1499.1850348003209,None,1499.7064603995532,None,1499.7064603995532,None,n,0.08333859965205193,1499.7064603995532,None,,,NC 35,001,2022_Apr_12_0832,ProdSingRedo,3.2.3,59.93410842787095,
,,,,150,0,150,0,,,,,,,,,,,,,,,,,,,,,,,,1502.3039554990828,None,,,,,,,,,,,,,,,,,shape,new_c,white,150,171,282,1500.3458504006267,None,1500.3458504006267,None,1,1.3321528006345034,1500.3458504006267,None,1501.7176236007363,None,1502.223533399403,None,1502.223533399403,None,n,0.046293601393699646,1502.223533399403,None,,,NC 35,001,2022_Apr_12_0832,ProdSingRedo,3.2.3,59.93410842787095,
,,,,151,0,151,0,,,,,,,,,,,,,,,,,,,,,,,,1505.9496100004762,None,,,,,,,,,,,,,,,,,phrase,aloud,white,151,59,220,1502.8306658007205,None,1502.8306658007205,None,6,2.3906642012298107,1502.8306658007205,None,1505.2510994002223,None,1505.7660134006292,None,1505.7660134006292,None,r,0.1594545003026724,1505.7660134006292,None,,,NC 35,001,2022_Apr_12_0832,ProdSingRedo,3.2.3,59.93410842787095,
,,,,152,0,152,0,,,,,,,,,,,,,,,,,,,,,,,,1512.7469164002687,None,,,,,,,,,,,,,,,,,tough,new_a,white,152,106,333,1506.4666891992092,None,1506.4666891992092,None,1,5.595220699906349,1506.4666891992092,None,1512.117026200518,None,1512.634619800374,None,1512.634619800374,None,n,0.07517420127987862,1512.634619800374,None,,,NC 35,001,2022_Apr_12_0832,ProdSingRedo,3.2.3,59.93410842787095,
,,,,153,0,153,0,,,,,,,,,,,,,,,,,,,,,,,,1515.115576699376,None,,,,,,,,,,,,,,,,,under,aloud,white,153,46,343,1513.2713820990175,None,1513.2713820990175,None,1,1.2064421996474266,1513.2713820990175,None,1514.529847400263,None,1515.0515644997358,None,1515.0515644997358,None,n,0.034726399928331375,1515.0515644997358,None,,,NC 35,001,2022_Apr_12_0832,ProdSingRedo,3.2.3,59.93410842787095,
,,,,154,0,154,0,,,,,,,,,,,,,,,,,,,,,,,,1519.6892809998244,None,,,,,,,,,,,,,,,,,close,new_b,white,154,141,53,1515.6378111001104,None,1515.6378111001104,None,3,3.272011499851942,1515.6378111001104,None,1518.9477571006864,None,1519.468838699162,None,1519.468838699162,None,f,0.1932296995073557,1519.468838699162,None,,,NC 35,001,2022_Apr_12_0832,ProdSingRedo,3.2.3,59.93410842787095,
,,,,155,0,155,0,,,,,,,,,,,,,,,,,,,,,,,,1522.5408415999264,None,,,,,,,,,,,,,,,,,error,sing,white,155,1,117,1520.2086539994925,None,1520.2086539994925,None,6,1.4291111007332802,1520.2086539994925,None,1521.6809032000601,None,1522.1913467999548,None,1522.1913467999548,None,r,0.3104892000555992,1522.1913467999548,None,,,NC 35,001,2022_Apr_12_0832,ProdSingRedo,3.2.3,59.93410842787095,
,,,,156,0,156,0,,,,,,,,,,,,,,,,,,,,,,,,1525.2585403006524,None,,,,,,,,,,,,,,,,,owner,new_c,white,156,162,208,1523.0642705000937,None,1523.0642705000937,None,1,1.509611800312996,1523.0642705000937,None,1524.620032100007,None,1525.1292579006404,None,1525.1292579006404,None,n,0.09245110116899014,1525.1292579006404,None,,,NC 35,001,2022_Apr_12_0832,ProdSingRedo,3.2.3,59.93410842787095,
,,,,157,0,157,0,,,,,,,,,,,,,,,,,,,,,,,,1528.3960963003337,None,,,,,,,,,,,,,,,,,majority,aloud,white,157,35,176,1525.7894969005138,None,1525.7894969005138,None,6,1.720320500433445,1525.7894969005138,None,1527.56740700081,None,1528.0896859001368,None,1528.0896859001368,None,r,0.28399050049483776,1528.0896859001368,None,,,NC 35,001,2022_Apr_12_0832,ProdSingRedo,3.2.3,59.93410842787095,
,,,,158,0,158,0,,,,,,,,,,,,,,,,,,,,,,,,1533.7106862999499,None,,,,,,,,,,,,,,,,,raise,silent,white,158,83,250,1528.9224674999714,None,1528.9224674999714,None,1,4.20300479978323,1528.9224674999714,None,1533.1595882996917,None,1533.672329299152,None,1533.672329299152,None,n,0.013130800798535347,1533.672329299152,None,,,NC 35,001,2022_Apr_12_0832,ProdSingRedo,3.2.3,59.93410842787095,
,,,,159,0,159,0,,,,,,,,,,,,,,,,,,,,,,,,1536.7717953007668,None,,,,,,,,,,,,,,,,,institute,new_c,white,159,173,162,1534.2282667998224,None,1534.2282667998224,None,1,1.209061000496149,1534.2282667998224,None,1535.4669144991785,None,1535.9886866994202,None,1535.9886866994202,None,n,0.7533052992075682,1535.9886866994202,None,,,NC 35,001,2022_Apr_12_0832,ProdSingRedo,3.2.3,59.93410842787095,
,,,,160,0,160,0,,,,,,,,,,,,,,,,,,,,,,,,1540.500831399113,None,,,,,,,,,,,,,,,,,salary,sing,white,160,23,271,1537.3053566999733,None,1537.3053566999733,None,6,1.8681503012776375,1537.3053566999733,None,1539.2142194006592,None,1539.733497099951,None,1539.733497099951,None,r,0.7519375011324883,1539.733497099951,None,,,NC 35,001,2022_Apr_12_0832,ProdSingRedo,3.2.3,59.93410842787095,
,,,,161,0,161,0,,,,,,,,,,,,,,,,,,,,,,,,1543.4776876997203,None,,,,,,,,,,,,,,,,,principal,new_b,white,161,125,236,1541.0072082001716,None,1541.0072082001716,None,1,1.5185943003743887,1541.0072082001716,None,1542.577400099486,None,1543.0809761993587,None,1543.0809761993587,None,n,0.37285830080509186,1543.0809761993587,None,,,NC 35,001,2022_Apr_12_0832,ProdSingRedo,3.2.3,59.93410842787095,
,,,,162,0,162,0,,,,,,,,,,,,,,,,,,,,,,,,1546.5159657001495,None,,,,,,,,,,,,,,,,,murder,sing,white,162,8,195,1544.0020519997925,None,1544.0020519997925,None,6,1.435573698952794,1544.0020519997925,None,1545.4736892003566,None,1545.9858657997102,None,1545.9858657997102,None,r,0.5000024996697903,1545.9858657997102,None,,,NC 35,001,2022_Apr_12_0832,ProdSingRedo,3.2.3,59.93410842787095,
,,,,163,0,163,0,,,,,,,,,,,,,,,,,,,,,,,,1551.4887083992362,None,,,,,,,,,,,,,,,,,brief,silent,white,163,80,28,1547.0370423998684,None,1547.0370423998684,None,4,3.5446448009461164,1547.0370423998684,None,1550.630413800478,None,1551.1393270008266,None,1551.1393270008266,None,f,0.32223659940063953,1551.1393270008266,None,,,NC 35,001,2022_Apr_12_0832,ProdSingRedo,3.2.3,59.93410842787095,
,,,,164,0,164,0,,,,,,,,,,,,,,,,,,,,,,,,1555.976291500032,None,,,,,,,,,,,,,,,,,fashion,silent,white,164,74,125,1552.0114849004894,None,1552.0114849004894,None,4,3.0901797004044056,1552.0114849004894,None,1555.153810299933,None,1555.6751715000719,None,1555.6751715000719,None,f,0.26647070050239563,1555.6751715000719,None,,,NC 35,001,2022_Apr_12_0832,ProdSingRedo,3.2.3,59.93410842787095,
,,,,165,0,165,0,,,,,,,,,,,,,,,,,,,,,,,,1562.4169002994895,None,,,,,,,,,,,,,,,,,count,new_a,white,165,111,72,1556.5022062007338,None,1556.5022062007338,None,3,5.0557188000530005,1556.5022062007338,None,1561.6122767999768,None,1562.1312795002013,None,1562.1312795002013,None,f,0.25053200125694275,1562.1312795002013,None,,,NC 35,001,2022_Apr_12_0832,ProdSingRedo,3.2.3,59.93410842787095,
,,,,166,0,166,0,,,,,,,,,,,,,,,,,,,,,,,,1565.408802099526,None,,,,,,,,,,,,,,,,,native,sing,white,166,0,199,1562.9428917001933,None,1562.9428917001933,None,6,1.5907976999878883,1562.9428917001933,None,1564.5866317991167,None,1565.1010912004858,None,1565.1010912004858,None,r,0.2801837008446455,1565.1010912004858,None,,,NC 35,001,2022_Apr_12_0832,ProdSingRedo,3.2.3,59.93410842787095,
,,,,167,0,167,0,,,,,,,,,,,,,,,,,,,,,,,,1568.4198502004147,None,,,,,,,,,,,,,,,,,space,sing,white,167,5,297,1565.9095812998712,None,1565.9095812998712,None,6,1.6240937002003193,1565.9095812998712,None,1567.588151799515,None,1568.104762699455,None,1568.104762699455,None,r,0.2769088000059128,1568.104762699455,None,,,NC 35,001,2022_Apr_12_0832,ProdSingRedo,3.2.3,59.93410842787095,
,,,,168,0,168,0,,,,,,,,,,,,,,,,,,,,,,,,1571.2234126999974,None,,,,,,,,,,,,,,,,,finance,aloud,white,168,37,129,1568.9489855002612,None,1568.9489855002612,None,6,1.3766456991434097,1568.9489855002612,None,1570.370063599199,None,1570.8945144992322,None,1570.8945144992322,None,r,0.29537680000066757,1570.8945144992322,None,,,NC 35,001,2022_Apr_12_0832,ProdSingRedo,3.2.3,59.93410842787095,
,,,,169,0,169,0,,,,,,,,,,,,,,,,,,,,,,,,1574.1613547001034,None,,,,,,,,,,,,,,,,,crisis,new_a,white,169,95,79,1571.7462926004082,None,1571.7462926004082,None,1,1.5073231011629105,1571.7462926004082,None,1573.3026537001133,None,1573.8251521997154,None,1573.8251521997154,None,n,0.3005018997937441,1573.8251521997154,None,,,NC 35,001,2022_Apr_12_0832,ProdSingRedo,3.2.3,59.93410842787095,
,,,,170,0,170,0,,,,,,,,,,,,,,,,,,,,,,,,1578.7139860000461,None,,,,,,,,,,,,,,,,,story,sing,white,170,9,306,1574.6850113999099,None,1574.6850113999099,None,4,3.1446461006999016,1574.6850113999099,None,1577.8732700999826,None,1578.3814515993,None,1578.3814515993,None,f,0.304313100874424,1578.3814515993,None,,,NC 35,001,2022_Apr_12_0832,ProdSingRedo,3.2.3,59.93410842787095,
,,,,171,0,171,0,,,,,,,,,,,,,,,,,,,,,,,,1581.487329699099,None,,,,,,,,,,,,,,,,,oxygen,aloud,white,171,34,209,1579.2467049993575,None,1579.2467049993575,None,6,1.3511817995458841,1579.2467049993575,None,1580.6445278991014,None,1581.1533755995333,None,1581.1533755995333,None,r,0.3002853002399206,1581.1533755995333,None,,,NC 35,001,2022_Apr_12_0832,ProdSingRedo,3.2.3,59.93410842787095,
,,,,172,0,172,0,,,,,,,,,,,,,,,,,,,,,,,,1586.3536472003907,None,,,,,,,,,,,,,,,,,length,aloud,white,172,52,169,1582.0087995994836,None,1582.0087995994836,None,3,3.396537998691201,1582.0087995994836,None,1585.431508699432,None,1585.9559889994562,None,1585.9559889994562,None,f,0.3617670014500618,1585.9559889994562,None,,,NC 35,001,2022_Apr_12_0832,ProdSingRedo,3.2.3,59.93410842787095,
,,,,173,0,173,0,,,,,,,,,,,,,,,,,,,,,,,,1589.408449999988,None,,,,,,,,,,,,,,,,,waste,sing,white,173,20,350,1586.8771265000105,None,1586.8771265000105,None,6,1.6887763999402523,1586.8771265000105,None,1588.6033586990088,None,1589.108033400029,None,1589.108033400029,None,r,0.2655485011637211,1589.108033400029,None,,,NC 35,001,2022_Apr_12_0832,ProdSingRedo,3.2.3,59.93410842787095,
,,,,174,0,174,0,,,,,,,,,,,,,,,,,,,,,,,,1592.6425237003714,None,,,,,,,,,,,,,,,,,measure,sing,white,174,24,184,1589.9327799007297,None,1589.9327799007297,None,6,1.8333841003477573,1589.9327799007297,None,1591.811812300235,None,1592.3327379003167,None,1592.3327379003167,None,r,0.2729051001369953,1592.3327379003167,None,,,NC 35,001,2022_Apr_12_0832,ProdSingRedo,3.2.3,59.93410842787095,
,,,,175,0,175,0,,,,,,,,,,,,,,,,,,,,,,,,1595.3218517005444,None,,,,,,,,,,,,,,,,,orchestra,new_b,white,175,146,206,1593.168221000582,None,1593.168221000582,None,1,1.3253239002078772,1593.168221000582,None,1594.545030400157,None,1595.0626221001148,None,1595.0626221001148,None,n,0.2386757005006075,1595.0626221001148,None,,,NC 35,001,2022_Apr_12_0832,ProdSingRedo,3.2.3,59.93410842787095,
,,,,176,0,176,0,,,,,,,,,,,,,,,,,,,,,,,,1599.7191042006016,None,,,,,,,,,,,,,,,,,skill,aloud,white,176,56,289,1595.8227257002145,None,1595.8227257002145,None,4,3.062914600595832,1595.8227257002145,None,1598.928856600076,None,1599.4364145006984,None,1599.4364145006984,None,f,0.25751289911568165,1599.4364145006984,None,,,NC 35,001,2022_Apr_12_0832,ProdSingRedo,3.2.3,59.93410842787095,
,,,,177,0,177,0,,,,,,,,,,,,,,,,,,,,,,,,1602.5883709993213,None,,,,,,,,,,,,,,,,,series,new_b,white,177,122,279,1600.240665499121,None,1600.240665499121,None,1,1.4846097994595766,1600.240665499121,None,1601.7495790999383,None,1602.2683045007288,None,1602.2683045007288,None,n,0.28931290097534657,1602.2683045007288,None,,,NC 35,001,2022_Apr_12_0832,ProdSingRedo,3.2.3,59.93410842787095,
,,,,178,0,178,0,,,,,,,,,,,,,,,,,,,,,,,,1605.1066851001233,None,,,,,,,,,,,,,,,,,drink,new_a,white,178,110,105,1603.0967385992408,None,1603.0967385992408,None,1,1.292899500578642,1603.0967385992408,None,1604.4366893004626,None,1604.957489900291,None,1604.957489900291,None,n,0.12025959976017475,1604.957489900291,None,,,NC 35,001,2022_Apr_12_0832,ProdSingRedo,3.2.3,59.93410842787095,
,,,,179,0,179,0,,,,,,,,,,,,,,,,,,,,,,,,1608.3936056997627,None,,,,,,,,,,,,,,,,,point,aloud,white,179,31,226,1605.6305149998516,None,1605.6305149998516,None,6,1.8310745004564524,1605.6305149998516,None,1607.5047178007662,None,1608.0254743993282,None,1608.0254743993282,None,r,0.3405201006680727,1608.0254743993282,None,,,NC 35,001,2022_Apr_12_0832,ProdSingRedo,3.2.3,59.93410842787095,
,,,,,,,,,,,,,,,,,,,,,,,,,,,,,,,,,,,,,,,,,,,,,,,,,,,,,,,,,,,,,,,,,,,,,,,,,1608.9030788000673,None,,,,,,,
