StudyLoop.thisRepN,StudyLoop.thisTrialN,StudyLoop.thisN,StudyLoop.thisIndex,TestLoop.thisRepN,TestLoop.thisTrialN,TestLoop.thisN,TestLoop.thisIndex,textCondition.started,textCondition.stopped,keyCondition.keys,keyCondition.rt,keyCondition.started,keyCondition.stopped,Condition,stim_colors,color_sing,color_aloud,color_silent,textWelcome.started,textWelcome.stopped,keyWelcome.keys,keyWelcome.rt,keyWelcome.started,keyWelcome.stopped,textAloud.started,textAloud.stopped,textSilent.started,textSilent.stopped,textSing.started,textSing.stopped,textBlank500.started,textBlank500.stopped,study_word,study_type,study_color,study_num,study_word_num,textStudy.started,textStudy.stopped,keyStudy.keys,keyStudy.started,keyStudy.stopped,textTestInstructions.started,textTestInstructions.stopped,key_resp_3.keys,key_resp_3.rt,key_resp_3.started,key_resp_3.stopped,testWord,testType,testColor,testN,test_num,test_word_num,textConf.started,textConf.stopped,textConfScale.started,textConfScale.stopped,keyConf.keys,keyConf.rt,keyConf.started,keyConf.stopped,textTestBlank.started,textTestBlank.stopped,textRKN.started,textRKN.stopped,textRKNScale.started,textRKNScale.stopped,keyRKN.keys,keyRKN.rt,keyRKN.started,keyRKN.stopped,textEnd.started,textEnd.stopped,participant,session,date,expName,psychopyVersion,frameRate,
,,,,,,,,59.72462620027363,None,n,1.9417256992310286,59.72462620027363,None,,,,,,,,,,,,,,,,,,,,,,,,,,,,,,,,,,,,,,,,,,,,,,,,,,,,,,,,,,,,,,NC 33,001,2022_Apr_05_1547,ProdSingRedo,3.2.3,60.07990624027698,
,,,,,,,,,,,,,,NeutralTest,"['red', 'yellow', 'blue']",red,yellow,blue,61.72967670112848,None,space,718.0954181011766,61.72967670112848,None,,,,,,,,,,,,,,,,,,,,,,,,,,,,,,,,,,,,,,,,,,,,,,,,,,,NC 33,001,2022_Apr_05_1547,ProdSingRedo,3.2.3,60.07990624027698,
0,0,0,0,,,,,,,,,,,,,,,,,,,,,,61.72967670112848,None,61.72967670112848,None,61.72967670112848,None,782.373003501445,None,mankind,silent,blue,78,178,780.3789597004652,None,None,780.3789597004652,None,,,,,,,,,,,,,,,,,,,,,,,,,,,,,,,,,NC 33,001,2022_Apr_05_1547,ProdSingRedo,3.2.3,60.07990624027698,
1,0,1,0,,,,,,,,,,,,,,,,,,,,,,,,,,,,784.8898122012615,None,force,sing,red,19,131,782.8864334002137,None,None,782.8864334002137,None,,,,,,,,,,,,,,,,,,,,,,,,,,,,,,,,,NC 33,001,2022_Apr_05_1547,ProdSingRedo,3.2.3,60.07990624027698,
2,0,2,0,,,,,,,,,,,,,,,,,,,,,,,,,,,,787.4067538008094,None,community,silent,blue,76,63,785.4140646010637,None,None,785.4140646010637,None,,,,,,,,,,,,,,,,,,,,,,,,,,,,,,,,,NC 33,001,2022_Apr_05_1547,ProdSingRedo,3.2.3,60.07990624027698,
3,0,3,0,,,,,,,,,,,,,,,,,,,,,,,,,,,,789.9351246003062,None,payment,aloud,yellow,31,215,787.9113921001554,None,None,787.9113921001554,None,,,,,,,,,,,,,,,,,,,,,,,,,,,,,,,,,NC 33,001,2022_Apr_05_1547,ProdSingRedo,3.2.3,60.07990624027698,
4,0,4,0,,,,,,,,,,,,,,,,,,,,,,,,,,,,792.4404166005552,None,question,sing,red,9,247,790.4455882012844,None,None,790.4455882012844,None,,,,,,,,,,,,,,,,,,,,,,,,,,,,,,,,,NC 33,001,2022_Apr_05_1547,ProdSingRedo,3.2.3,60.07990624027698,
5,0,5,0,,,,,,,,,,,,,,,,,,,,,,,,,,,,794.9572292007506,None,husband,aloud,yellow,44,156,792.9656203016639,None,None,792.9656203016639,None,,,,,,,,,,,,,,,,,,,,,,,,,,,,,,,,,NC 33,001,2022_Apr_05_1547,ProdSingRedo,3.2.3,60.07990624027698,
6,0,6,0,,,,,,,,,,,,,,,,,,,,,,,,,,,,797.4741654004902,None,comedy,aloud,yellow,30,58,795.4715046007186,None,None,795.4715046007186,None,,,,,,,,,,,,,,,,,,,,,,,,,,,,,,,,,NC 33,001,2022_Apr_05_1547,ProdSingRedo,3.2.3,60.07990624027698,
7,0,7,0,,,,,,,,,,,,,,,,,,,,,,,,,,,,799.9907379001379,None,phrase,sing,red,4,220,797.9891221001744,None,None,797.9891221001744,None,,,,,,,,,,,,,,,,,,,,,,,,,,,,,,,,,NC 33,001,2022_Apr_05_1547,ProdSingRedo,3.2.3,60.07990624027698,
8,0,8,0,,,,,,,,,,,,,,,,,,,,,,,,,,,,802.5062521006912,None,under,silent,blue,66,343,800.5016772001982,None,None,800.5016772001982,None,,,,,,,,,,,,,,,,,,,,,,,,,,,,,,,,,NC 33,001,2022_Apr_05_1547,ProdSingRedo,3.2.3,60.07990624027698,
9,0,9,0,,,,,,,,,,,,,,,,,,,,,,,,,,,,805.0249327998608,None,education,aloud,yellow,42,108,803.0089156012982,None,None,803.0089156012982,None,,,,,,,,,,,,,,,,,,,,,,,,,,,,,,,,,NC 33,001,2022_Apr_05_1547,ProdSingRedo,3.2.3,60.07990624027698,
10,0,10,0,,,,,,,,,,,,,,,,,,,,,,,,,,,,807.5413100998849,None,majority,aloud,yellow,51,176,805.5522760003805,None,None,805.5522760003805,None,,,,,,,,,,,,,,,,,,,,,,,,,,,,,,,,,NC 33,001,2022_Apr_05_1547,ProdSingRedo,3.2.3,60.07990624027698,
11,0,11,0,,,,,,,,,,,,,,,,,,,,,,,,,,,,810.0582127012312,None,volume,aloud,yellow,59,349,808.0625139009207,None,None,808.0625139009207,None,,,,,,,,,,,,,,,,,,,,,,,,,,,,,,,,,NC 33,001,2022_Apr_05_1547,ProdSingRedo,3.2.3,60.07990624027698,
12,0,12,0,,,,,,,,,,,,,,,,,,,,,,,,,,,,812.5749395005405,None,command,silent,blue,69,60,810.5718406010419,None,None,810.5718406010419,None,,,,,,,,,,,,,,,,,,,,,,,,,,,,,,,,,NC 33,001,2022_Apr_05_1547,ProdSingRedo,3.2.3,60.07990624027698,
13,0,13,0,,,,,,,,,,,,,,,,,,,,,,,,,,,,815.0917863007635,None,discussion,aloud,yellow,52,96,813.0908420011401,None,None,813.0908420011401,None,,,,,,,,,,,,,,,,,,,,,,,,,,,,,,,,,NC 33,001,2022_Apr_05_1547,ProdSingRedo,3.2.3,60.07990624027698,
14,0,14,0,,,,,,,,,,,,,,,,,,,,,,,,,,,,817.6085970010608,None,running,silent,blue,77,268,815.6112251002342,None,None,815.6112251002342,None,,,,,,,,,,,,,,,,,,,,,,,,,,,,,,,,,NC 33,001,2022_Apr_05_1547,ProdSingRedo,3.2.3,60.07990624027698,
15,0,15,0,,,,,,,,,,,,,,,,,,,,,,,,,,,,820.1257093008608,None,swift,sing,red,21,320,818.1242942009121,None,None,818.1242942009121,None,,,,,,,,,,,,,,,,,,,,,,,,,,,,,,,,,NC 33,001,2022_Apr_05_1547,ProdSingRedo,3.2.3,60.07990624027698,
16,0,16,0,,,,,,,,,,,,,,,,,,,,,,,,,,,,822.6415108013898,None,quiet,silent,blue,62,249,820.6421913001686,None,None,820.6421913001686,None,,,,,,,,,,,,,,,,,,,,,,,,,,,,,,,,,NC 33,001,2022_Apr_05_1547,ProdSingRedo,3.2.3,60.07990624027698,
17,0,17,0,,,,,,,,,,,,,,,,,,,,,,,,,,,,825.1592808999121,None,debate,aloud,yellow,46,87,823.1601808015257,None,None,823.1601808015257,None,,,,,,,,,,,,,,,,,,,,,,,,,,,,,,,,,NC 33,001,2022_Apr_05_1547,ProdSingRedo,3.2.3,60.07990624027698,
18,0,18,0,,,,,,,,,,,,,,,,,,,,,,,,,,,,827.6759579014033,None,burden,aloud,yellow,40,36,825.6727724000812,None,None,825.6727724000812,None,,,,,,,,,,,,,,,,,,,,,,,,,,,,,,,,,NC 33,001,2022_Apr_05_1547,ProdSingRedo,3.2.3,60.07990624027698,
19,0,19,0,,,,,,,,,,,,,,,,,,,,,,,,,,,,830.1929277013987,None,drama,sing,red,23,103,828.1896696016192,None,None,828.1896696016192,None,,,,,,,,,,,,,,,,,,,,,,,,,,,,,,,,,NC 33,001,2022_Apr_05_1547,ProdSingRedo,3.2.3,60.07990624027698,
20,0,20,0,,,,,,,,,,,,,,,,,,,,,,,,,,,,832.7085853014141,None,account,silent,blue,89,1,830.708623001352,None,None,830.708623001352,None,,,,,,,,,,,,,,,,,,,,,,,,,,,,,,,,,NC 33,001,2022_Apr_05_1547,ProdSingRedo,3.2.3,60.07990624027698,
21,0,21,0,,,,,,,,,,,,,,,,,,,,,,,,,,,,835.2265793010592,None,report,aloud,yellow,34,259,833.2191805001348,None,None,833.2191805001348,None,,,,,,,,,,,,,,,,,,,,,,,,,,,,,,,,,NC 33,001,2022_Apr_05_1547,ProdSingRedo,3.2.3,60.07990624027698,
22,0,22,0,,,,,,,,,,,,,,,,,,,,,,,,,,,,837.7433289010078,None,guard,aloud,yellow,36,145,835.739077700302,None,None,835.739077700302,None,,,,,,,,,,,,,,,,,,,,,,,,,,,,,,,,,NC 33,001,2022_Apr_05_1547,ProdSingRedo,3.2.3,60.07990624027698,
23,0,23,0,,,,,,,,,,,,,,,,,,,,,,,,,,,,840.2600941006094,None,smooth,sing,red,7,292,838.2520574014634,None,None,838.2520574014634,None,,,,,,,,,,,,,,,,,,,,,,,,,,,,,,,,,NC 33,001,2022_Apr_05_1547,ProdSingRedo,3.2.3,60.07990624027698,
24,0,24,0,,,,,,,,,,,,,,,,,,,,,,,,,,,,842.7770345006138,None,impact,aloud,yellow,39,157,840.7762667015195,None,None,840.7762667015195,None,,,,,,,,,,,,,,,,,,,,,,,,,,,,,,,,,NC 33,001,2022_Apr_05_1547,ProdSingRedo,3.2.3,60.07990624027698,
25,0,25,0,,,,,,,,,,,,,,,,,,,,,,,,,,,,845.2938191015273,None,sight,sing,red,25,286,843.2910863999277,None,None,843.2910863999277,None,,,,,,,,,,,,,,,,,,,,,,,,,,,,,,,,,NC 33,001,2022_Apr_05_1547,ProdSingRedo,3.2.3,60.07990624027698,
26,0,26,0,,,,,,,,,,,,,,,,,,,,,,,,,,,,847.810709901154,None,agreement,sing,red,14,5,845.8060493003577,None,None,845.8060493003577,None,,,,,,,,,,,,,,,,,,,,,,,,,,,,,,,,,NC 33,001,2022_Apr_05_1547,ProdSingRedo,3.2.3,60.07990624027698,
27,0,27,0,,,,,,,,,,,,,,,,,,,,,,,,,,,,850.3274732008576,None,working,silent,blue,63,357,848.3239357005805,None,None,848.3239357005805,None,,,,,,,,,,,,,,,,,,,,,,,,,,,,,,,,,NC 33,001,2022_Apr_05_1547,ProdSingRedo,3.2.3,60.07990624027698,
28,0,28,0,,,,,,,,,,,,,,,,,,,,,,,,,,,,852.8444723002613,None,length,silent,blue,67,169,850.8402511011809,None,None,850.8402511011809,None,,,,,,,,,,,,,,,,,,,,,,,,,,,,,,,,,NC 33,001,2022_Apr_05_1547,ProdSingRedo,3.2.3,60.07990624027698,
29,0,29,0,,,,,,,,,,,,,,,,,,,,,,,,,,,,855.3610430005938,None,career,sing,red,18,42,853.3577105011791,None,None,853.3577105011791,None,,,,,,,,,,,,,,,,,,,,,,,,,,,,,,,,,NC 33,001,2022_Apr_05_1547,ProdSingRedo,3.2.3,60.07990624027698,
30,0,30,0,,,,,,,,,,,,,,,,,,,,,,,,,,,,857.8779467009008,None,discovery,aloud,yellow,38,95,855.8799374010414,None,None,855.8799374010414,None,,,,,,,,,,,,,,,,,,,,,,,,,,,,,,,,,NC 33,001,2022_Apr_05_1547,ProdSingRedo,3.2.3,60.07990624027698,
31,0,31,0,,,,,,,,,,,,,,,,,,,,,,,,,,,,860.3947908002883,None,design,aloud,yellow,41,91,858.3964761998504,None,None,858.3964761998504,None,,,,,,,,,,,,,,,,,,,,,,,,,,,,,,,,,NC 33,001,2022_Apr_05_1547,ProdSingRedo,3.2.3,60.07990624027698,
32,0,32,0,,,,,,,,,,,,,,,,,,,,,,,,,,,,862.9107845015824,None,empty,aloud,yellow,35,112,860.9073293004185,None,None,860.9073293004185,None,,,,,,,,,,,,,,,,,,,,,,,,,,,,,,,,,NC 33,001,2022_Apr_05_1547,ProdSingRedo,3.2.3,60.07990624027698,
33,0,33,0,,,,,,,,,,,,,,,,,,,,,,,,,,,,865.4284778013825,None,country,aloud,yellow,32,73,863.4317509010434,None,None,863.4317509010434,None,,,,,,,,,,,,,,,,,,,,,,,,,,,,,,,,,NC 33,001,2022_Apr_05_1547,ProdSingRedo,3.2.3,60.07990624027698,
34,0,34,0,,,,,,,,,,,,,,,,,,,,,,,,,,,,867.9453285001218,None,south,aloud,yellow,54,296,865.9448936004192,None,None,865.9448936004192,None,,,,,,,,,,,,,,,,,,,,,,,,,,,,,,,,,NC 33,001,2022_Apr_05_1547,ProdSingRedo,3.2.3,60.07990624027698,
35,0,35,0,,,,,,,,,,,,,,,,,,,,,,,,,,,,870.4625574015081,None,match,sing,red,11,181,868.4562955014408,None,None,868.4562955014408,None,,,,,,,,,,,,,,,,,,,,,,,,,,,,,,,,,NC 33,001,2022_Apr_05_1547,ProdSingRedo,3.2.3,60.07990624027698,
36,0,36,0,,,,,,,,,,,,,,,,,,,,,,,,,,,,872.979109801352,None,cousin,silent,blue,60,76,870.9740789011121,None,None,870.9740789011121,None,,,,,,,,,,,,,,,,,,,,,,,,,,,,,,,,,NC 33,001,2022_Apr_05_1547,ProdSingRedo,3.2.3,60.07990624027698,
37,0,37,0,,,,,,,,,,,,,,,,,,,,,,,,,,,,875.4949430003762,None,collection,silent,blue,81,54,873.4901751000434,None,None,873.4901751000434,None,,,,,,,,,,,,,,,,,,,,,,,,,,,,,,,,,NC 33,001,2022_Apr_05_1547,ProdSingRedo,3.2.3,60.07990624027698,
38,0,38,0,,,,,,,,,,,,,,,,,,,,,,,,,,,,878.0127461012453,None,danger,aloud,yellow,47,85,876.0113359000534,None,None,876.0113359000534,None,,,,,,,,,,,,,,,,,,,,,,,,,,,,,,,,,NC 33,001,2022_Apr_05_1547,ProdSingRedo,3.2.3,60.07990624027698,
39,0,39,0,,,,,,,,,,,,,,,,,,,,,,,,,,,,880.5294120013714,None,material,silent,blue,75,182,878.5199545007199,None,None,878.5199545007199,None,,,,,,,,,,,,,,,,,,,,,,,,,,,,,,,,,NC 33,001,2022_Apr_05_1547,ProdSingRedo,3.2.3,60.07990624027698,
40,0,40,0,,,,,,,,,,,,,,,,,,,,,,,,,,,,883.046279700473,None,evidence,sing,red,10,120,881.0433061998338,None,None,881.0433061998338,None,,,,,,,,,,,,,,,,,,,,,,,,,,,,,,,,,NC 33,001,2022_Apr_05_1547,ProdSingRedo,3.2.3,60.07990624027698,
41,0,41,0,,,,,,,,,,,,,,,,,,,,,,,,,,,,885.5630630999804,None,quantity,sing,red,20,245,883.562877099961,None,None,883.562877099961,None,,,,,,,,,,,,,,,,,,,,,,,,,,,,,,,,,NC 33,001,2022_Apr_05_1547,ProdSingRedo,3.2.3,60.07990624027698,
42,0,42,0,,,,,,,,,,,,,,,,,,,,,,,,,,,,888.0799248013645,None,worker,aloud,yellow,50,356,886.0790533013642,None,None,886.0790533013642,None,,,,,,,,,,,,,,,,,,,,,,,,,,,,,,,,,NC 33,001,2022_Apr_05_1547,ProdSingRedo,3.2.3,60.07990624027698,
43,0,43,0,,,,,,,,,,,,,,,,,,,,,,,,,,,,890.60098240152,None,shear,aloud,yellow,37,283,888.594038201496,None,None,888.594038201496,None,,,,,,,,,,,,,,,,,,,,,,,,,,,,,,,,,NC 33,001,2022_Apr_05_1547,ProdSingRedo,3.2.3,60.07990624027698,
44,0,44,0,,,,,,,,,,,,,,,,,,,,,,,,,,,,893.1129427999258,None,background,silent,blue,73,16,891.1203645002097,None,None,891.1203645002097,None,,,,,,,,,,,,,,,,,,,,,,,,,,,,,,,,,NC 33,001,2022_Apr_05_1547,ProdSingRedo,3.2.3,60.07990624027698,
45,0,45,0,,,,,,,,,,,,,,,,,,,,,,,,,,,,895.6307108011097,None,pretty,silent,blue,71,233,893.6287543009967,None,None,893.6287543009967,None,,,,,,,,,,,,,,,,,,,,,,,,,,,,,,,,,NC 33,001,2022_Apr_05_1547,ProdSingRedo,3.2.3,60.07990624027698,
46,0,46,0,,,,,,,,,,,,,,,,,,,,,,,,,,,,898.1472670007497,None,series,sing,red,2,279,896.1395776998252,None,None,896.1395776998252,None,,,,,,,,,,,,,,,,,,,,,,,,,,,,,,,,,NC 33,001,2022_Apr_05_1547,ProdSingRedo,3.2.3,60.07990624027698,
47,0,47,0,,,,,,,,,,,,,,,,,,,,,,,,,,,,900.6641097012907,None,drink,silent,blue,88,105,898.6591868009418,None,None,898.6591868009418,None,,,,,,,,,,,,,,,,,,,,,,,,,,,,,,,,,NC 33,001,2022_Apr_05_1547,ProdSingRedo,3.2.3,60.07990624027698,
48,0,48,0,,,,,,,,,,,,,,,,,,,,,,,,,,,,903.1809321008623,None,century,sing,red,6,45,901.1802943013608,None,None,901.1802943013608,None,,,,,,,,,,,,,,,,,,,,,,,,,,,,,,,,,NC 33,001,2022_Apr_05_1547,ProdSingRedo,3.2.3,60.07990624027698,
49,0,49,0,,,,,,,,,,,,,,,,,,,,,,,,,,,,905.6976768001914,None,grade,sing,red,1,140,903.6970808003098,None,None,903.6970808003098,None,,,,,,,,,,,,,,,,,,,,,,,,,,,,,,,,,NC 33,001,2022_Apr_05_1547,ProdSingRedo,3.2.3,60.07990624027698,
50,0,50,0,,,,,,,,,,,,,,,,,,,,,,,,,,,,908.214697200805,None,motion,aloud,yellow,56,194,906.207558201626,None,None,906.207558201626,None,,,,,,,,,,,,,,,,,,,,,,,,,,,,,,,,,NC 33,001,2022_Apr_05_1547,ProdSingRedo,3.2.3,60.07990624027698,
51,0,51,0,,,,,,,,,,,,,,,,,,,,,,,,,,,,910.7314318008721,None,stranger,aloud,yellow,58,309,908.7313331998885,None,None,908.7313331998885,None,,,,,,,,,,,,,,,,,,,,,,,,,,,,,,,,,NC 33,001,2022_Apr_05_1547,ProdSingRedo,3.2.3,60.07990624027698,
52,0,52,0,,,,,,,,,,,,,,,,,,,,,,,,,,,,913.2479181010276,None,candidate,sing,red,26,39,911.2519483007491,None,None,911.2519483007491,None,,,,,,,,,,,,,,,,,,,,,,,,,,,,,,,,,NC 33,001,2022_Apr_05_1547,ProdSingRedo,3.2.3,60.07990624027698,
53,0,53,0,,,,,,,,,,,,,,,,,,,,,,,,,,,,915.7649989016354,None,guide,aloud,yellow,53,147,913.7633217014372,None,None,913.7633217014372,None,,,,,,,,,,,,,,,,,,,,,,,,,,,,,,,,,NC 33,001,2022_Apr_05_1547,ProdSingRedo,3.2.3,60.07990624027698,
54,0,54,0,,,,,,,,,,,,,,,,,,,,,,,,,,,,918.2813349012285,None,number,silent,blue,86,203,916.2771481014788,None,None,916.2771481014788,None,,,,,,,,,,,,,,,,,,,,,,,,,,,,,,,,,NC 33,001,2022_Apr_05_1547,ProdSingRedo,3.2.3,60.07990624027698,
55,0,55,0,,,,,,,,,,,,,,,,,,,,,,,,,,,,920.7987985014915,None,pancakes,silent,blue,85,210,918.79728930071,None,None,918.79728930071,None,,,,,,,,,,,,,,,,,,,,,,,,,,,,,,,,,NC 33,001,2022_Apr_05_1547,ProdSingRedo,3.2.3,60.07990624027698,
56,0,56,0,,,,,,,,,,,,,,,,,,,,,,,,,,,,923.3153448011726,None,staff,aloud,yellow,48,301,921.3092164006084,None,None,921.3092164006084,None,,,,,,,,,,,,,,,,,,,,,,,,,,,,,,,,,NC 33,001,2022_Apr_05_1547,ProdSingRedo,3.2.3,60.07990624027698,
57,0,57,0,,,,,,,,,,,,,,,,,,,,,,,,,,,,925.8324485998601,None,orchestra,silent,blue,83,206,923.8296808004379,None,None,923.8296808004379,None,,,,,,,,,,,,,,,,,,,,,,,,,,,,,,,,,NC 33,001,2022_Apr_05_1547,ProdSingRedo,3.2.3,60.07990624027698,
58,0,58,0,,,,,,,,,,,,,,,,,,,,,,,,,,,,928.3492712005973,None,touch,sing,red,3,332,926.346340900287,None,None,926.346340900287,None,,,,,,,,,,,,,,,,,,,,,,,,,,,,,,,,,NC 33,001,2022_Apr_05_1547,ProdSingRedo,3.2.3,60.07990624027698,
59,0,59,0,,,,,,,,,,,,,,,,,,,,,,,,,,,,930.8660356998444,None,production,silent,blue,61,240,928.8667384013534,None,None,928.8667384013534,None,,,,,,,,,,,,,,,,,,,,,,,,,,,,,,,,,NC 33,001,2022_Apr_05_1547,ProdSingRedo,3.2.3,60.07990624027698,
60,0,60,0,,,,,,,,,,,,,,,,,,,,,,,,,,,,933.3820109013468,None,object,sing,red,0,204,931.3784539010376,None,None,931.3784539010376,None,,,,,,,,,,,,,,,,,,,,,,,,,,,,,,,,,NC 33,001,2022_Apr_05_1547,ProdSingRedo,3.2.3,60.07990624027698,
61,0,61,0,,,,,,,,,,,,,,,,,,,,,,,,,,,,935.8996979016811,None,addition,sing,red,22,2,933.8964959010482,None,None,933.8964959010482,None,,,,,,,,,,,,,,,,,,,,,,,,,,,,,,,,,NC 33,001,2022_Apr_05_1547,ProdSingRedo,3.2.3,60.07990624027698,
62,0,62,0,,,,,,,,,,,,,,,,,,,,,,,,,,,,938.4168646000326,None,track,sing,red,5,334,936.4140303004533,None,None,936.4140303004533,None,,,,,,,,,,,,,,,,,,,,,,,,,,,,,,,,,NC 33,001,2022_Apr_05_1547,ProdSingRedo,3.2.3,60.07990624027698,
63,0,63,0,,,,,,,,,,,,,,,,,,,,,,,,,,,,940.9334831014276,None,message,silent,blue,70,189,938.9320733007044,None,None,938.9320733007044,None,,,,,,,,,,,,,,,,,,,,,,,,,,,,,,,,,NC 33,001,2022_Apr_05_1547,ProdSingRedo,3.2.3,60.07990624027698,
64,0,64,0,,,,,,,,,,,,,,,,,,,,,,,,,,,,943.4500464014709,None,fashion,silent,blue,87,125,941.4434364009649,None,None,941.4434364009649,None,,,,,,,,,,,,,,,,,,,,,,,,,,,,,,,,,NC 33,001,2022_Apr_05_1547,ProdSingRedo,3.2.3,60.07990624027698,
65,0,65,0,,,,,,,,,,,,,,,,,,,,,,,,,,,,945.967119500041,None,incident,sing,red,15,158,943.9599465001374,None,None,943.9599465001374,None,,,,,,,,,,,,,,,,,,,,,,,,,,,,,,,,,NC 33,001,2022_Apr_05_1547,ProdSingRedo,3.2.3,60.07990624027698,
66,0,66,0,,,,,,,,,,,,,,,,,,,,,,,,,,,,948.486001200974,None,bicycle,silent,blue,72,21,946.4811791013926,None,None,946.4811791013926,None,,,,,,,,,,,,,,,,,,,,,,,,,,,,,,,,,NC 33,001,2022_Apr_05_1547,ProdSingRedo,3.2.3,60.07990624027698,
67,0,67,0,,,,,,,,,,,,,,,,,,,,,,,,,,,,951.0006960015744,None,owner,sing,red,17,208,948.9970366004854,None,None,948.9970366004854,None,,,,,,,,,,,,,,,,,,,,,,,,,,,,,,,,,NC 33,001,2022_Apr_05_1547,ProdSingRedo,3.2.3,60.07990624027698,
68,0,68,0,,,,,,,,,,,,,,,,,,,,,,,,,,,,953.5194144006819,None,course,sing,red,16,74,951.5175951998681,None,None,951.5175951998681,None,,,,,,,,,,,,,,,,,,,,,,,,,,,,,,,,,NC 33,001,2022_Apr_05_1547,ProdSingRedo,3.2.3,60.07990624027698,
69,0,69,0,,,,,,,,,,,,,,,,,,,,,,,,,,,,956.0343868006021,None,watch,silent,blue,64,351,954.0282153002918,None,None,954.0282153002918,None,,,,,,,,,,,,,,,,,,,,,,,,,,,,,,,,,NC 33,001,2022_Apr_05_1547,ProdSingRedo,3.2.3,60.07990624027698,
70,0,70,0,,,,,,,,,,,,,,,,,,,,,,,,,,,,958.5541642010212,None,company,silent,blue,82,64,956.5508945006877,None,None,956.5508945006877,None,,,,,,,,,,,,,,,,,,,,,,,,,,,,,,,,,NC 33,001,2022_Apr_05_1547,ProdSingRedo,3.2.3,60.07990624027698,
71,0,71,0,,,,,,,,,,,,,,,,,,,,,,,,,,,,961.0679928008467,None,figure,aloud,yellow,43,128,959.0666898004711,None,None,959.0666898004711,None,,,,,,,,,,,,,,,,,,,,,,,,,,,,,,,,,NC 33,001,2022_Apr_05_1547,ProdSingRedo,3.2.3,60.07990624027698,
72,0,72,0,,,,,,,,,,,,,,,,,,,,,,,,,,,,963.5887471009046,None,emergency,silent,blue,65,110,961.5869484003633,None,None,961.5869484003633,None,,,,,,,,,,,,,,,,,,,,,,,,,,,,,,,,,NC 33,001,2022_Apr_05_1547,ProdSingRedo,3.2.3,60.07990624027698,
73,0,73,0,,,,,,,,,,,,,,,,,,,,,,,,,,,,966.1017829012126,None,order,sing,red,13,207,964.0940476004034,None,None,964.0940476004034,None,,,,,,,,,,,,,,,,,,,,,,,,,,,,,,,,,NC 33,001,2022_Apr_05_1547,ProdSingRedo,3.2.3,60.07990624027698,
74,0,74,0,,,,,,,,,,,,,,,,,,,,,,,,,,,,968.6209101006389,None,death,sing,red,24,86,966.6152097005397,None,None,966.6152097005397,None,,,,,,,,,,,,,,,,,,,,,,,,,,,,,,,,,NC 33,001,2022_Apr_05_1547,ProdSingRedo,3.2.3,60.07990624027698,
75,0,75,0,,,,,,,,,,,,,,,,,,,,,,,,,,,,971.1355528011918,None,heavy,silent,blue,68,151,969.1322001013905,None,None,969.1322001013905,None,,,,,,,,,,,,,,,,,,,,,,,,,,,,,,,,,NC 33,001,2022_Apr_05_1547,ProdSingRedo,3.2.3,60.07990624027698,
76,0,76,0,,,,,,,,,,,,,,,,,,,,,,,,,,,,973.651647400111,None,partner,aloud,yellow,55,211,971.6487637013197,None,None,971.6487637013197,None,,,,,,,,,,,,,,,,,,,,,,,,,,,,,,,,,NC 33,001,2022_Apr_05_1547,ProdSingRedo,3.2.3,60.07990624027698,
77,0,77,0,,,,,,,,,,,,,,,,,,,,,,,,,,,,976.1524348016828,None,interior,silent,blue,80,164,974.1520177014172,None,None,974.1520177014172,None,,,,,,,,,,,,,,,,,,,,,,,,,,,,,,,,,NC 33,001,2022_Apr_05_1547,ProdSingRedo,3.2.3,60.07990624027698,
78,0,78,0,,,,,,,,,,,,,,,,,,,,,,,,,,,,978.6691970005631,None,spoke,aloud,yellow,49,300,976.664955701679,None,None,976.664955701679,None,,,,,,,,,,,,,,,,,,,,,,,,,,,,,,,,,NC 33,001,2022_Apr_05_1547,ProdSingRedo,3.2.3,60.07990624027698,
79,0,79,0,,,,,,,,,,,,,,,,,,,,,,,,,,,,981.1861666012555,None,portion,sing,red,28,228,979.1837507002056,None,None,979.1837507002056,None,,,,,,,,,,,,,,,,,,,,,,,,,,,,,,,,,NC 33,001,2022_Apr_05_1547,ProdSingRedo,3.2.3,60.07990624027698,
80,0,80,0,,,,,,,,,,,,,,,,,,,,,,,,,,,,983.7029194999486,None,property,silent,blue,84,242,981.6983949001878,None,None,981.6983949001878,None,,,,,,,,,,,,,,,,,,,,,,,,,,,,,,,,,NC 33,001,2022_Apr_05_1547,ProdSingRedo,3.2.3,60.07990624027698,
81,0,81,0,,,,,,,,,,,,,,,,,,,,,,,,,,,,986.220028700307,None,commercial,sing,red,27,61,984.2177722007036,None,None,984.2177722007036,None,,,,,,,,,,,,,,,,,,,,,,,,,,,,,,,,,NC 33,001,2022_Apr_05_1547,ProdSingRedo,3.2.3,60.07990624027698,
82,0,82,0,,,,,,,,,,,,,,,,,,,,,,,,,,,,988.7365335002542,None,edition,sing,red,8,107,986.72933810018,None,None,986.72933810018,None,,,,,,,,,,,,,,,,,,,,,,,,,,,,,,,,,NC 33,001,2022_Apr_05_1547,ProdSingRedo,3.2.3,60.07990624027698,
83,0,83,0,,,,,,,,,,,,,,,,,,,,,,,,,,,,991.253360601142,None,silence,silent,blue,74,288,989.24734570086,None,None,989.24734570086,None,,,,,,,,,,,,,,,,,,,,,,,,,,,,,,,,,NC 33,001,2022_Apr_05_1547,ProdSingRedo,3.2.3,60.07990624027698,
84,0,84,0,,,,,,,,,,,,,,,,,,,,,,,,,,,,993.7694096006453,None,sweet,sing,red,29,319,991.7679535001516,None,None,991.7679535001516,None,,,,,,,,,,,,,,,,,,,,,,,,,,,,,,,,,NC 33,001,2022_Apr_05_1547,ProdSingRedo,3.2.3,60.07990624027698,
85,0,85,0,,,,,,,,,,,,,,,,,,,,,,,,,,,,996.2870573010296,None,review,silent,blue,79,263,994.2865991014987,None,None,994.2865991014987,None,,,,,,,,,,,,,,,,,,,,,,,,,,,,,,,,,NC 33,001,2022_Apr_05_1547,ProdSingRedo,3.2.3,60.07990624027698,
86,0,86,0,,,,,,,,,,,,,,,,,,,,,,,,,,,,998.804933000356,None,estate,aloud,yellow,45,119,996.7882951013744,None,None,996.7882951013744,None,,,,,,,,,,,,,,,,,,,,,,,,,,,,,,,,,NC 33,001,2022_Apr_05_1547,ProdSingRedo,3.2.3,60.07990624027698,
87,0,87,0,,,,,,,,,,,,,,,,,,,,,,,,,,,,1001.3207440003753,None,industry,sing,red,12,161,999.3221169002354,None,None,999.3221169002354,None,,,,,,,,,,,,,,,,,,,,,,,,,,,,,,,,,NC 33,001,2022_Apr_05_1547,ProdSingRedo,3.2.3,60.07990624027698,
88,0,88,0,,,,,,,,,,,,,,,,,,,,,,,,,,,,1003.8374830000103,None,trial,aloud,yellow,33,341,1001.8344188015908,None,None,1001.8344188015908,None,,,,,,,,,,,,,,,,,,,,,,,,,,,,,,,,,NC 33,001,2022_Apr_05_1547,ProdSingRedo,3.2.3,60.07990624027698,
89,0,89,0,,,,,,,,,,,,,,,,,,,,,,,,,,,,1006.354469800368,None,novel,aloud,yellow,57,202,1004.3502398002893,None,None,1004.3502398002893,None,,,,,,,,,,,,,,,,,,,,,,,,,,,,,,,,,NC 33,001,2022_Apr_05_1547,ProdSingRedo,3.2.3,60.07990624027698,
,,,,,,,,,,,,,,,,,,,,,,,,,,,,,,,,,,,,,,,,,,,1006.8543590009212,None,k,111.33868909999728,1006.8543590009212,None,,,,,,,,,,,,,,,,,,,,,,,,,,,NC 33,001,2022_Apr_05_1547,ProdSingRedo,3.2.3,60.07990624027698,
,,,,0,0,0,0,,,,,,,,,,,,,,,,,,,,,,,,1131.9396475013345,None,,,,,,,,,,,,,,,,,husband,aloud,white,0,44,156,1118.7377167008817,None,1118.7377167008817,None,6,6.566605599597096,1118.7377167008817,None,1125.3519552014768,None,1125.8808778002858,None,1125.8808778002858,None,f,6.031787199899554,1125.8808778002858,None,,,NC 33,001,2022_Apr_05_1547,ProdSingRedo,3.2.3,60.07990624027698,
,,,,1,0,1,0,,,,,,,,,,,,,,,,,,,,,,,,1140.2887584008276,None,,,,,,,,,,,,,,,,,afternoon,new_c,white,1,154,3,1132.446191901341,None,1132.446191901341,None,1,2.4902410991489887,1132.446191901341,None,1134.9811719004065,None,1135.5072486009449,None,1135.5072486009449,None,n,4.74100930057466,1135.5072486009449,None,,,NC 33,001,2022_Apr_05_1547,ProdSingRedo,3.2.3,60.07990624027698,
,,,,2,0,2,0,,,,,,,,,,,,,,,,,,,,,,,,1147.672809701413,None,,,,,,,,,,,,,,,,,reach,new_c,white,2,179,253,1140.8164847008884,None,1140.8164847008884,None,2,2.9916982986032963,1140.8164847008884,None,1143.8547860011458,None,1144.3744643013924,None,1144.3744643013924,None,f,3.2577996011823416,1144.3744643013924,None,,,NC 33,001,2022_Apr_05_1547,ProdSingRedo,3.2.3,60.07990624027698,
,,,,3,0,3,0,,,,,,,,,,,,,,,,,,,,,,,,1154.4600522015244,None,,,,,,,,,,,,,,,,,novel,aloud,white,3,57,202,1148.1977467015386,None,1148.1977467015386,None,5,4.514666000381112,1148.1977467015386,None,1152.7612190004438,None,1153.2735399007797,None,1153.2735399007797,None,r,1.1427874993532896,1153.2735399007797,None,,,NC 33,001,2022_Apr_05_1547,ProdSingRedo,3.2.3,60.07990624027698,
,,,,4,0,4,0,,,,,,,,,,,,,,,,,,,,,,,,1165.6381015013903,None,,,,,,,,,,,,,,,,,business,new_b,white,4,130,38,1154.9839316010475,None,1154.9839316010475,None,5,7.712304700165987,1154.9839316010475,None,1162.721755200997,None,1163.2463397998363,None,1163.2463397998363,None,r,2.369946800172329,1163.2463397998363,None,,,NC 33,001,2022_Apr_05_1547,ProdSingRedo,3.2.3,60.07990624027698,
,,,,5,0,5,0,,,,,,,,,,,,,,,,,,,,,,,,1177.2262761015445,None,,,,,,,,,,,,,,,,,surprise,new_b,white,5,141,317,1166.168631400913,None,1166.168631400913,None,3,6.47960539907217,1166.168631400913,None,1172.6915399003774,None,1173.2020379006863,None,1173.2020379006863,None,r,3.9901267997920513,1173.2020379006863,None,,,NC 33,001,2022_Apr_05_1547,ProdSingRedo,3.2.3,60.07990624027698,
,,,,6,0,6,0,,,,,,,,,,,,,,,,,,,,,,,,1184.424418700859,None,,,,,,,,,,,,,,,,,frank,new_a,white,6,99,133,1177.7524657007307,None,1177.7524657007307,None,1,4.943905800580978,1177.7524657007307,None,1182.7360358014703,None,1183.2637255005538,None,1183.2637255005538,None,n,1.1284031011164188,1183.2637255005538,None,,,NC 33,001,2022_Apr_05_1547,ProdSingRedo,3.2.3,60.07990624027698,
,,,,7,0,7,0,,,,,,,,,,,,,,,,,,,,,,,,1190.1596483010799,None,,,,,,,,,,,,,,,,,impact,aloud,white,7,39,157,1184.9504769016057,None,1184.9504769016057,None,5,3.609697999432683,1184.9504769016057,None,1188.6085446998477,None,1189.1291303001344,None,1189.1291303001344,None,r,0.9989454001188278,1189.1291303001344,None,,,NC 33,001,2022_Apr_05_1547,ProdSingRedo,3.2.3,60.07990624027698,
,,,,8,0,8,0,,,,,,,,,,,,,,,,,,,,,,,,1196.3077394012362,None,,,,,,,,,,,,,,,,,touch,sing,white,8,3,332,1190.6830675005913,None,1190.6830675005913,None,4,3.7250220011919737,1190.6830675005913,None,1194.4590380005538,None,1194.9757291004062,None,1194.9757291004062,None,f,1.2963616009801626,1194.9757291004062,None,,,NC 33,001,2022_Apr_05_1547,ProdSingRedo,3.2.3,60.07990624027698,
,,,,9,0,9,0,,,,,,,,,,,,,,,,,,,,,,,,1203.2972584012896,None,,,,,,,,,,,,,,,,,emergency,silent,white,9,65,110,1196.829973001033,None,1196.829973001033,None,4,3.8421644996851683,1196.829973001033,None,1200.7295890003443,None,1201.2481310013682,None,1201.2481310013682,None,n,2.016388900578022,1201.2481310013682,None,,,NC 33,001,2022_Apr_05_1547,ProdSingRedo,3.2.3,60.07990624027698,
,,,,10,0,10,0,,,,,,,,,,,,,,,,,,,,,,,,1211.2600592002273,None,,,,,,,,,,,,,,,,,route,new_a,white,10,100,267,1203.8231594003737,None,1203.8231594003737,None,1,5.2968876995146275,1203.8231594003737,None,1209.1686448007822,None,1209.696414301172,None,1209.696414301172,None,n,1.5359605997800827,1209.696414301172,None,,,NC 33,001,2022_Apr_05_1547,ProdSingRedo,3.2.3,60.07990624027698,
,,,,11,0,11,0,,,,,,,,,,,,,,,,,,,,,,,,1217.5096383001655,None,,,,,,,,,,,,,,,,,employment,new_c,white,11,161,111,1211.7945393007249,None,1211.7945393007249,None,3,3.429500898346305,1211.7945393007249,None,1215.295637300238,None,1215.816678000614,None,1215.816678000614,None,f,1.6633040998131037,1215.816678000614,None,,,NC 33,001,2022_Apr_05_1547,ProdSingRedo,3.2.3,60.07990624027698,
,,,,12,0,12,0,,,,,,,,,,,,,,,,,,,,,,,,1223.5282995011657,None,,,,,,,,,,,,,,,,,vision,new_a,white,12,102,347,1218.031919401139,None,1218.031919401139,None,3,2.392211601138115,1218.031919401139,None,1220.4714375007898,None,1220.9964717011899,None,1220.9964717011899,None,n,2.499574899673462,1220.9964717011899,None,,,NC 33,001,2022_Apr_05_1547,ProdSingRedo,3.2.3,60.07990624027698,
,,,,13,0,13,0,,,,,,,,,,,,,,,,,,,,,,,,1229.593780901283,None,,,,,,,,,,,,,,,,,debate,aloud,white,13,46,87,1224.0494515001774,None,1224.0494515001774,None,5,2.6708079986274242,1224.0494515001774,None,1226.7632977012545,None,1227.2811388000846,None,1227.2811388000846,None,r,2.278905499726534,1227.2811388000846,None,,,NC 33,001,2022_Apr_05_1547,ProdSingRedo,3.2.3,60.07990624027698,
,,,,14,0,14,0,,,,,,,,,,,,,,,,,,,,,,,,1237.3506324011832,None,,,,,,,,,,,,,,,,,stand,new_c,white,14,170,302,1230.1274323016405,None,1230.1274323016405,None,3,5.064557598903775,1230.1274323016405,None,1235.2371370010078,None,1235.7659697998315,None,1235.7659697998315,None,f,1.554152401164174,1235.7659697998315,None,,,NC 33,001,2022_Apr_05_1547,ProdSingRedo,3.2.3,60.07990624027698,
,,,,15,0,15,0,,,,,,,,,,,,,,,,,,,,,,,,1242.3988937009126,None,,,,,,,,,,,,,,,,,gesture,new_a,white,15,94,137,1237.874769501388,None,1237.874769501388,None,4,2.613196600228548,1237.874769501388,None,1240.5427950005978,None,1241.0663849003613,None,1241.0663849003613,None,n,1.302029399201274,1241.0663849003613,None,,,NC 33,001,2022_Apr_05_1547,ProdSingRedo,3.2.3,60.07990624027698,
,,,,16,0,16,0,,,,,,,,,,,,,,,,,,,,,,,,1247.4119100011885,None,,,,,,,,,,,,,,,,,finish,new_a,white,16,117,130,1242.921055400744,None,1242.921055400744,None,1,2.6069664005190134,1242.921055400744,None,1245.5778896007687,None,1246.0957332998514,None,1246.0957332998514,None,n,1.2804572004824877,1246.0957332998514,None,,,NC 33,001,2022_Apr_05_1547,ProdSingRedo,3.2.3,60.07990624027698,
,,,,17,0,17,0,,,,,,,,,,,,,,,,,,,,,,,,1253.627642000094,None,,,,,,,,,,,,,,,,,empty,aloud,white,17,35,112,1247.9369837008417,None,1247.9369837008417,None,5,3.903101598843932,1247.9369837008417,None,1251.8879192005843,None,1252.4025132004172,None,1252.4025132004172,None,r,1.1974238995462656,1252.4025132004172,None,,,NC 33,001,2022_Apr_05_1547,ProdSingRedo,3.2.3,60.07990624027698,
,,,,18,0,18,0,,,,,,,,,,,,,,,,,,,,,,,,1258.6809184011072,None,,,,,,,,,,,,,,,,,partner,aloud,white,18,55,211,1254.1597096007317,None,1254.1597096007317,None,4,1.8322927001863718,1254.1597096007317,None,1256.0435482002795,None,1256.5640323013067,None,1256.5640323013067,None,f,2.0840289015322924,1256.5640323013067,None,,,NC 33,001,2022_Apr_05_1547,ProdSingRedo,3.2.3,60.07990624027698,
,,,,19,0,19,0,,,,,,,,,,,,,,,,,,,,,,,,1264.3053371999413,None,,,,,,,,,,,,,,,,,drama,sing,white,19,23,103,1259.2042693998665,None,1259.2042693998665,None,6,1.9398313984274864,1259.2042693998665,None,1261.1885325014591,None,1261.701997200027,None,1261.701997200027,None,f,2.5857133008539677,1261.701997200027,None,,,NC 33,001,2022_Apr_05_1547,ProdSingRedo,3.2.3,60.07990624027698,
,,,,20,0,20,0,,,,,,,,,,,,,,,,,,,,,,,,1269.162891201675,None,,,,,,,,,,,,,,,,,union,new_c,white,20,158,344,1264.8236218001693,None,1264.8236218001693,None,3,1.8565196003764868,1264.8236218001693,None,1266.7279132008553,None,1267.2498562000692,None,1267.2498562000692,None,f,1.8781205005943775,1267.2498562000692,None,,,NC 33,001,2022_Apr_05_1547,ProdSingRedo,3.2.3,60.07990624027698,
,,,,21,0,21,0,,,,,,,,,,,,,,,,,,,,,,,,1277.101198701188,None,,,,,,,,,,,,,,,,,design,aloud,white,21,41,91,1269.6901513002813,None,1269.6901513002813,None,6,5.917482599616051,1269.6901513002813,None,1275.6447357013822,None,1276.1679821014404,None,1276.1679821014404,None,r,0.8961452003568411,1276.1679821014404,None,,,NC 33,001,2022_Apr_05_1547,ProdSingRedo,3.2.3,60.07990624027698,
,,,,22,0,22,0,,,,,,,,,,,,,,,,,,,,,,,,1283.4487805999815,None,,,,,,,,,,,,,,,,,notice,new_b,white,22,139,201,1277.6227816008031,None,1277.6227816008031,None,3,3.8333833999931812,1277.6227816008031,None,1281.4923455007374,None,1282.0145431011915,None,1282.0145431011915,None,r,1.4014838989824057,1282.0145431011915,None,,,NC 33,001,2022_Apr_05_1547,ProdSingRedo,3.2.3,60.07990624027698,
,,,,23,0,23,0,,,,,,,,,,,,,,,,,,,,,,,,1287.5811132006347,None,,,,,,,,,,,,,,,,,rapid,new_c,white,23,156,252,1283.973798301071,None,1283.973798301071,None,2,2.1624521985650063,1283.973798301071,None,1286.176577201113,None,1286.7014271002263,None,1286.7014271002263,None,n,0.8425555992871523,1286.7014271002263,None,,,NC 33,001,2022_Apr_05_1547,ProdSingRedo,3.2.3,60.07990624027698,
,,,,24,0,24,0,,,,,,,,,,,,,,,,,,,,,,,,1292.5319616012275,None,,,,,,,,,,,,,,,,,scale,new_b,white,24,147,272,1288.108987800777,None,1288.108987800777,None,3,2.4190018996596336,1288.108987800777,None,1290.583039501682,None,1291.100923500955,None,1291.100923500955,None,f,1.4035212993621826,1291.100923500955,None,,,NC 33,001,2022_Apr_05_1547,ProdSingRedo,3.2.3,60.07990624027698,
,,,,25,0,25,0,,,,,,,,,,,,,,,,,,,,,,,,1297.6831702012569,None,,,,,,,,,,,,,,,,,bicycle,silent,white,25,72,21,1293.060026600957,None,1293.060026600957,None,3,3.107718199491501,1293.060026600957,None,1296.200875800103,None,1296.721079800278,None,1296.721079800278,None,n,0.9269543997943401,1296.721079800278,None,,,NC 33,001,2022_Apr_05_1547,ProdSingRedo,3.2.3,60.07990624027698,
,,,,26,0,26,0,,,,,,,,,,,,,,,,,,,,,,,,1303.4151244014502,None,,,,,,,,,,,,,,,,,commercial,sing,white,26,27,61,1298.2061139009893,None,1298.2061139009893,None,5,3.6339651998132467,1298.2061139009893,None,1301.8845073003322,None,1302.4031507000327,None,1302.4031507000327,None,f,0.9728194996714592,1302.4031507000327,None,,,NC 33,001,2022_Apr_05_1547,ProdSingRedo,3.2.3,60.07990624027698,
,,,,27,0,27,0,,,,,,,,,,,,,,,,,,,,,,,,1309.866717301309,None,,,,,,,,,,,,,,,,,general,new_c,white,27,153,135,1303.9396848008037,None,1303.9396848008037,None,5,1.668291399255395,1303.9396848008037,None,1305.6459138002247,None,1306.1717239003628,None,1306.1717239003628,None,n,3.6601612009108067,1306.1717239003628,None,,,NC 33,001,2022_Apr_05_1547,ProdSingRedo,3.2.3,60.07990624027698,
,,,,28,0,28,0,,,,,,,,,,,,,,,,,,,,,,,,1315.299933200702,None,,,,,,,,,,,,,,,,,owner,sing,white,28,17,208,1310.388665901497,None,1310.388665901497,None,6,3.2272379007190466,1310.388665901497,None,1313.6570147015154,None,1314.1694869007915,None,1314.1694869007915,None,r,1.103073999285698,1314.1694869007915,None,,,NC 33,001,2022_Apr_05_1547,ProdSingRedo,3.2.3,60.07990624027698,
,,,,29,0,29,0,,,,,,,,,,,,,,,,,,,,,,,,1318.3354711998254,None,,,,,,,,,,,,,,,,,sweet,sing,white,29,29,319,1315.8261688016355,None,1315.8261688016355,None,6,1.6697576008737087,1315.8261688016355,None,1317.5483623016626,None,1318.0661386009306,None,1318.0661386009306,None,r,0.23772249929606915,1318.0661386009306,None,,,NC 33,001,2022_Apr_05_1547,ProdSingRedo,3.2.3,60.07990624027698,
,,,,30,0,30,0,,,,,,,,,,,,,,,,,,,,,,,,1323.1837995015085,None,,,,,,,,,,,,,,,,,figure,aloud,white,30,43,128,1318.866014700383,None,1318.866014700383,None,3,3.0700544007122517,1318.866014700383,None,1321.9865664001554,None,1322.5030949003994,None,1322.5030949003994,None,n,0.6567538995295763,1322.5030949003994,None,,,NC 33,001,2022_Apr_05_1547,ProdSingRedo,3.2.3,60.07990624027698,
,,,,31,0,31,0,,,,,,,,,,,,,,,,,,,,,,,,1327.9675267003477,None,,,,,,,,,,,,,,,,,burden,aloud,white,31,40,36,1323.7079468015581,None,1323.7079468015581,None,5,1.6598639003932476,1323.7079468015581,None,1325.4145447015762,None,1325.9396321009845,None,1325.9396321009845,None,f,1.9881596006453037,1325.9396321009845,None,,,NC 33,001,2022_Apr_05_1547,ProdSingRedo,3.2.3,60.07990624027698,
,,,,32,0,32,0,,,,,,,,,,,,,,,,,,,,,,,,1333.1687750015408,None,,,,,,,,,,,,,,,,,suspect,new_a,white,32,118,318,1328.4939521010965,None,1328.4939521010965,None,3,2.865864399820566,1328.4939521010965,None,1331.4114248007536,None,1331.9200784005225,None,1331.9200784005225,None,n,1.2237988989800215,1331.9200784005225,None,,,NC 33,001,2022_Apr_05_1547,ProdSingRedo,3.2.3,60.07990624027698,
,,,,33,0,33,0,,,,,,,,,,,,,,,,,,,,,,,,1339.5846893005073,None,,,,,,,,,,,,,,,,,series,sing,white,33,2,279,1333.6900463998318,None,1333.6900463998318,None,4,4.46987490169704,1333.6900463998318,None,1338.1961536016315,None,1338.7159177009016,None,1338.7159177009016,None,f,0.8359777014702559,1338.7159177009016,None,,,NC 33,001,2022_Apr_05_1547,ProdSingRedo,3.2.3,60.07990624027698,
,,,,34,0,34,0,,,,,,,,,,,,,,,,,,,,,,,,1343.6428232006729,None,,,,,,,,,,,,,,,,,angle,new_a,white,34,106,7,1340.1109372004867,None,1340.1109372004867,None,4,2.0968474000692368,1340.1109372004867,None,1342.2365885004401,None,1342.7425044011325,None,1342.7425044011325,None,f,0.8813506998121738,1342.7425044011325,None,,,NC 33,001,2022_Apr_05_1547,ProdSingRedo,3.2.3,60.07990624027698,
,,,,35,0,35,0,,,,,,,,,,,,,,,,,,,,,,,,1348.9356008004397,None,,,,,,,,,,,,,,,,,orchestra,silent,white,35,83,206,1344.1636403016746,None,1344.1636403016746,None,6,2.572281900793314,1344.1636403016746,None,1346.777678700164,None,1347.290283901617,None,1347.290283901617,None,r,1.605512199923396,1347.290283901617,None,,,NC 33,001,2022_Apr_05_1547,ProdSingRedo,3.2.3,60.07990624027698,
,,,,36,0,36,0,,,,,,,,,,,,,,,,,,,,,,,,1353.7356711998582,None,,,,,,,,,,,,,,,,,evidence,sing,white,36,10,120,1349.4629258010536,None,1349.4629258010536,None,6,3.432915899902582,1349.4629258010536,None,1352.9501374009997,None,1353.4737132005394,None,1353.4737132005394,None,r,0.23828070051968098,1353.4737132005394,None,,,NC 33,001,2022_Apr_05_1547,ProdSingRedo,3.2.3,60.07990624027698,
,,,,37,0,37,0,,,,,,,,,,,,,,,,,,,,,,,,1358.1036393009126,None,,,,,,,,,,,,,,,,,period,new_b,white,37,125,217,1354.259733300656,None,1354.259733300656,None,3,2.148819399997592,1354.259733300656,None,1356.4480146002024,None,1356.96850220114,None,1356.96850220114,None,f,1.095345200970769,1356.96850220114,None,,,NC 33,001,2022_Apr_05_1547,ProdSingRedo,3.2.3,60.07990624027698,
,,,,38,0,38,0,,,,,,,,,,,,,,,,,,,,,,,,1361.5029083006084,None,,,,,,,,,,,,,,,,,south,aloud,white,38,54,296,1358.6274380013347,None,1358.6274380013347,None,6,1.8044735994189978,1358.6274380013347,None,1360.48237680085,None,1361.0067052002996,None,1361.0067052002996,None,r,0.4571262989193201,1361.0067052002996,None,,,NC 33,001,2022_Apr_05_1547,ProdSingRedo,3.2.3,60.07990624027698,
,,,,39,0,39,0,,,,,,,,,,,,,,,,,,,,,,,,1368.1869820002466,None,,,,,,,,,,,,,,,,,damage,new_b,white,39,121,83,1362.03467570059,None,1362.03467570059,None,6,4.477206600829959,1362.03467570059,None,1366.5550000015646,None,1367.077111300081,None,1367.077111300081,None,f,1.0827779993414879,1367.077111300081,None,,,NC 33,001,2022_Apr_05_1547,ProdSingRedo,3.2.3,60.07990624027698,
,,,,40,0,40,0,,,,,,,,,,,,,,,,,,,,,,,,1375.030181299895,None,,,,,,,,,,,,,,,,,colonel,new_b,white,40,120,55,1368.7067084014416,None,1368.7067084014416,None,3,3.844751000404358,1368.7067084014416,None,1372.5807650014758,None,1373.1055878009647,None,1373.1055878009647,None,n,1.8940414991229773,1373.1055878009647,None,,,NC 33,001,2022_Apr_05_1547,ProdSingRedo,3.2.3,60.07990624027698,
,,,,41,0,41,0,,,,,,,,,,,,,,,,,,,,,,,,1379.5038987006992,None,,,,,,,,,,,,,,,,,force,sing,white,41,19,131,1375.5627471003681,None,1375.5627471003681,None,2,3.1251391004770994,1375.5627471003681,None,1378.7330603003502,None,1379.2571525014937,None,1379.2571525014937,None,n,0.21464489959180355,1379.2571525014937,None,,,NC 33,001,2022_Apr_05_1547,ProdSingRedo,3.2.3,60.07990624027698,
,,,,42,0,42,0,,,,,,,,,,,,,,,,,,,,,,,,1388.5058697015047,None,,,,,,,,,,,,,,,,,object,sing,white,42,0,204,1380.0331796016544,None,1380.0331796016544,None,4,2.086650401353836,1380.0331796016544,None,1382.1695584002882,None,1382.6902860011905,None,1382.6902860011905,None,f,5.7894814014434814,1382.6902860011905,None,,,NC 33,001,2022_Apr_05_1547,ProdSingRedo,3.2.3,60.07990624027698,
,,,,43,0,43,0,,,,,,,,,,,,,,,,,,,,,,,,1395.1415037009865,None,,,,,,,,,,,,,,,,,spoke,aloud,white,43,49,300,1389.0331647004932,None,1389.0331647004932,None,6,0.0063882991671562195,1389.0331647004932,None,1389.0744243003428,None,1389.5912496000528,None,1389.5912496000528,None,r,5.5123846009373665,1389.5912496000528,None,,,NC 33,001,2022_Apr_05_1547,ProdSingRedo,3.2.3,60.07990624027698,
,,,,44,0,44,0,,,,,,,,,,,,,,,,,,,,,,,,1398.773596201092,None,,,,,,,,,,,,,,,,,agreement,sing,white,44,14,5,1395.6665873005986,None,1395.6665873005986,None,1,2.0291722007095814,1395.6665873005986,None,1397.7382653001696,None,1398.2585637010634,None,1398.2585637010634,None,n,0.48605780117213726,1398.2585637010634,None,,,NC 33,001,2022_Apr_05_1547,ProdSingRedo,3.2.3,60.07990624027698,
,,,,45,0,45,0,,,,,,,,,,,,,,,,,,,,,,,,1403.6740586999804,None,,,,,,,,,,,,,,,,,state,new_a,white,45,115,303,1399.299304401502,None,1399.299304401502,None,2,2.748319098725915,1399.299304401502,None,1402.0878206007183,None,1402.5962378010154,None,1402.5962378010154,None,f,1.0435653999447823,1402.5962378010154,None,,,NC 33,001,2022_Apr_05_1547,ProdSingRedo,3.2.3,60.07990624027698,
,,,,46,0,46,0,,,,,,,,,,,,,,,,,,,,,,,,1407.7573052998632,None,,,,,,,,,,,,,,,,,captain,new_a,white,46,92,41,1404.2015305012465,None,1404.2015305012465,None,1,2.542270999401808,1404.2015305012465,None,1406.7829808015376,None,1407.3104217015207,None,1407.3104217015207,None,n,0.4179877005517483,1407.3104217015207,None,,,NC 33,001,2022_Apr_05_1547,ProdSingRedo,3.2.3,60.07990624027698,
,,,,47,0,47,0,,,,,,,,,,,,,,,,,,,,,,,,1411.2106468006968,None,,,,,,,,,,,,,,,,,election,new_b,white,47,131,109,1408.2815946005285,None,1408.2815946005285,None,1,1.7180728986859322,1408.2815946005285,None,1410.0501713007689,None,1410.573752200231,None,1410.573752200231,None,n,0.6020514015108347,1410.573752200231,None,,,NC 33,001,2022_Apr_05_1547,ProdSingRedo,3.2.3,60.07990624027698,
,,,,48,0,48,0,,,,,,,,,,,,,,,,,,,,,,,,1415.7242496013641,None,,,,,,,,,,,,,,,,,command,silent,white,48,69,60,1411.7336038015783,None,1411.7336038015783,None,6,2.090070901438594,1411.7336038015783,None,1413.874701101333,None,1414.3927626013756,None,1414.3927626013756,None,f,1.2950247004628181,1414.3927626013756,None,,,NC 33,001,2022_Apr_05_1547,ProdSingRedo,3.2.3,60.07990624027698,
,,,,49,0,49,0,,,,,,,,,,,,,,,,,,,,,,,,1424.808175900951,None,,,,,,,,,,,,,,,,,school,new_c,white,49,172,274,1416.247365001589,None,1416.247365001589,None,3,6.304355099797249,1416.247365001589,None,1422.602351700887,None,1423.1216889005154,None,1423.1216889005154,None,n,1.6539628002792597,1423.1216889005154,None,,,NC 33,001,2022_Apr_05_1547,ProdSingRedo,3.2.3,60.07990624027698,
,,,,50,0,50,0,,,,,,,,,,,,,,,,,,,,,,,,1431.1239893008024,None,,,,,,,,,,,,,,,,,guard,aloud,white,50,36,145,1425.3332981001586,None,1425.3332981001586,None,5,4.058341398835182,1425.3332981001586,None,1429.4318606015295,None,1429.949291901663,None,1429.949291901663,None,f,1.1383174993097782,1429.949291901663,None,,,NC 33,001,2022_Apr_05_1547,ProdSingRedo,3.2.3,60.07990624027698,
,,,,51,0,51,0,,,,,,,,,,,,,,,,,,,,,,,,1439.4593262001872,None,,,,,,,,,,,,,,,,,brief,new_a,white,51,93,28,1431.6465936005116,None,1431.6465936005116,None,4,4.928976299241185,1431.6465936005116,None,1436.6220258008689,None,1437.1466470006853,None,1437.1466470006853,None,f,2.2769510000944138,1437.1466470006853,None,,,NC 33,001,2022_Apr_05_1547,ProdSingRedo,3.2.3,60.07990624027698,
,,,,52,0,52,0,,,,,,,,,,,,,,,,,,,,,,,,1443.1064445003867,None,,,,,,,,,,,,,,,,,primary,new_b,white,52,138,234,1439.9840299002826,None,1439.9840299002826,None,1,1.62362439930439,1439.9840299002826,None,1441.6597974002361,None,1442.1778853014112,None,1442.1778853014112,None,n,0.901799401268363,1442.1778853014112,None,,,NC 33,001,2022_Apr_05_1547,ProdSingRedo,3.2.3,60.07990624027698,
,,,,53,0,53,0,,,,,,,,,,,,,,,,,,,,,,,,1445.4751309007406,None,,,,,,,,,,,,,,,,,recall,new_c,white,53,174,255,1443.6357810012996,None,1443.6357810012996,None,1,0.923870000988245,1443.6357810012996,None,1444.6076685003936,None,1445.1284737009555,None,1445.1284737009555,None,n,0.3110971003770828,1445.1284737009555,None,,,NC 33,001,2022_Apr_05_1547,ProdSingRedo,3.2.3,60.07990624027698,
,,,,54,0,54,0,,,,,,,,,,,,,,,,,,,,,,,,1453.5776076000184,None,,,,,,,,,,,,,,,,,account,silent,white,54,89,1,1446.0031658001244,None,1446.0031658001244,None,5,5.236565800383687,1446.0031658001244,None,1451.2919077016413,None,1451.8136185016483,None,1451.8136185016483,None,f,1.7300572004169226,1451.8136185016483,None,,,NC 33,001,2022_Apr_05_1547,ProdSingRedo,3.2.3,60.07990624027698,
,,,,55,0,55,0,,,,,,,,,,,,,,,,,,,,,,,,1457.2625283002853,None,,,,,,,,,,,,,,,,,story,new_a,white,55,104,306,1454.1018298007548,None,1454.1018298007548,None,3,1.4738670997321606,1454.1018298007548,None,1455.6170781999826,None,1456.1275503002107,None,1456.1275503002107,None,f,1.0962071008980274,1456.1275503002107,None,,,NC 33,001,2022_Apr_05_1547,ProdSingRedo,3.2.3,60.07990624027698,
,,,,56,0,56,0,,,,,,,,,,,,,,,,,,,,,,,,1462.316839300096,None,,,,,,,,,,,,,,,,,enemy,new_c,white,56,165,113,1457.7846857011318,None,1457.7846857011318,None,4,3.0634061004966497,1457.7846857011318,None,1460.8896747007966,None,1461.414095601067,None,1461.414095601067,None,r,0.873131800442934,1461.414095601067,None,,,NC 33,001,2022_Apr_05_1547,ProdSingRedo,3.2.3,60.07990624027698,
,,,,57,0,57,0,,,,,,,,,,,,,,,,,,,,,,,,1470.876679500565,None,,,,,,,,,,,,,,,,,character,new_b,white,57,132,46,1462.8184579014778,None,1462.8184579014778,None,2,3.397402400150895,1462.8184579014778,None,1466.2661961000413,None,1466.7836119011045,None,1466.7836119011045,None,n,4.063960699364543,1466.7836119011045,None,,,NC 33,001,2022_Apr_05_1547,ProdSingRedo,3.2.3,60.07990624027698,
,,,,58,0,58,0,,,,,,,,,,,,,,,,,,,,,,,,1475.5959646012634,None,,,,,,,,,,,,,,,,,couch,new_c,white,58,173,70,1471.4035750012845,None,1471.4035750012845,None,4,2.1881246995180845,1471.4035750012845,None,1473.6408951003104,None,1474.1643008999527,None,1474.1643008999527,None,n,1.3952036015689373,1474.1643008999527,None,,,NC 33,001,2022_Apr_05_1547,ProdSingRedo,3.2.3,60.07990624027698,
,,,,59,0,59,0,,,,,,,,,,,,,,,,,,,,,,,,1481.4787530004978,None,,,,,,,,,,,,,,,,,sight,sing,white,59,25,286,1476.1183743998408,None,1476.1183743998408,None,6,2.873115800321102,1476.1183743998408,None,1479.0419623013586,None,1479.5642122011632,None,1479.5642122011632,None,r,1.8832734003663063,1479.5642122011632,None,,,NC 33,001,2022_Apr_05_1547,ProdSingRedo,3.2.3,60.07990624027698,
,,,,60,0,60,0,,,,,,,,,,,,,,,,,,,,,,,,1486.6631574016064,None,,,,,,,,,,,,,,,,,under,silent,white,60,66,343,1482.0021363999695,None,1482.0021363999695,None,2,2.9495953992009163,1482.0021363999695,None,1484.9878828004003,None,1485.5122116003186,None,1485.5122116003186,None,n,1.1113094985485077,1485.5122116003186,None,,,NC 33,001,2022_Apr_05_1547,ProdSingRedo,3.2.3,60.07990624027698,
,,,,61,0,61,0,,,,,,,,,,,,,,,,,,,,,,,,1494.1124664004892,None,,,,,,,,,,,,,,,,,property,silent,white,61,84,242,1487.1875456012785,None,1487.1875456012785,None,3,4.49996729940176,1487.1875456012785,None,1491.7289008013904,None,1492.2371727004647,None,1492.2371727004647,None,f,1.8504034001380205,1492.2371727004647,None,,,NC 33,001,2022_Apr_05_1547,ProdSingRedo,3.2.3,60.07990624027698,
,,,,62,0,62,0,,,,,,,,,,,,,,,,,,,,,,,,1498.379409801215,None,,,,,,,,,,,,,,,,,track,sing,white,62,5,334,1494.6404387000948,None,1494.6404387000948,None,6,2.5510762985795736,1494.6404387000948,None,1497.244128299877,None,1497.7635515015572,None,1497.7635515015572,None,r,0.5882998984307051,1497.7635515015572,None,,,NC 33,001,2022_Apr_05_1547,ProdSingRedo,3.2.3,60.07990624027698,
,,,,63,0,63,0,,,,,,,,,,,,,,,,,,,,,,,,1503.7319674007595,None,,,,,,,,,,,,,,,,,drink,silent,white,63,88,105,1498.9038746003062,None,1498.9038746003062,None,3,3.6155692003667355,1498.9038746003062,None,1502.559647500515,None,1503.0811622012407,None,1503.0811622012407,None,f,0.6143583003431559,1503.0811622012407,None,,,NC 33,001,2022_Apr_05_1547,ProdSingRedo,3.2.3,60.07990624027698,
,,,,64,0,64,0,,,,,,,,,,,,,,,,,,,,,,,,1509.4621757008135,None,,,,,,,,,,,,,,,,,display,new_a,white,64,116,98,1504.2423820011318,None,1504.2423820011318,None,4,1.5491864997893572,1504.2423820011318,None,1505.8420943003148,None,1506.367022400722,None,1506.367022400722,None,n,3.0646426994353533,1506.367022400722,None,,,NC 33,001,2022_Apr_05_1547,ProdSingRedo,3.2.3,60.07990624027698,
,,,,65,0,65,0,,,,,,,,,,,,,,,,,,,,,,,,1516.1887907013297,None,,,,,,,,,,,,,,,,,solution,new_c,white,65,160,294,1509.9905872009695,None,1509.9905872009695,None,1,5.584932200610638,1509.9905872009695,None,1515.62103350088,None,1516.1353722009808,None,1516.1353722009808,None,n,0.024006498977541924,1516.1353722009808,None,,,NC 33,001,2022_Apr_05_1547,ProdSingRedo,3.2.3,60.07990624027698,
,,,,66,0,66,0,,,,,,,,,,,,,,,,,,,,,,,,1519.6466998010874,None,,,,,,,,,,,,,,,,,guide,aloud,white,66,53,147,1516.7059169001877,None,1516.7059169001877,None,6,1.7735872007906437,1516.7059169001877,None,1518.524230601266,None,1519.050218200311,None,1519.050218200311,None,r,0.5572954993695021,1519.050218200311,None,,,NC 33,001,2022_Apr_05_1547,ProdSingRedo,3.2.3,60.07990624027698,
,,,,67,0,67,0,,,,,,,,,,,,,,,,,,,,,,,,1523.53104750067,None,,,,,,,,,,,,,,,,,discussion,aloud,white,67,52,96,1520.172233801335,None,1520.172233801335,None,6,2.2189003992825747,1520.172233801335,None,1522.42262759991,None,1522.9389658998698,None,1522.9389658998698,None,r,0.5564772989600897,1522.9389658998698,None,,,NC 33,001,2022_Apr_05_1547,ProdSingRedo,3.2.3,60.07990624027698,
,,,,68,0,68,0,,,,,,,,,,,,,,,,,,,,,,,,1527.8298155013472,None,,,,,,,,,,,,,,,,,sound,new_b,white,68,137,295,1524.0562979001552,None,1524.0562979001552,None,3,2.2160025015473366,1524.0562979001552,None,1526.3154499009252,None,1526.82830350101,None,1526.82830350101,None,n,0.9632681999355555,1526.82830350101,None,,,NC 33,001,2022_Apr_05_1547,ProdSingRedo,3.2.3,60.07990624027698,
,,,,69,0,69,0,,,,,,,,,,,,,,,,,,,,,,,,1532.614761300385,None,,,,,,,,,,,,,,,,,grade,sing,white,69,1,140,1528.364949600771,None,1528.364949600771,None,5,1.6265746988356113,1528.364949600771,None,1530.0439459010959,None,1530.5677372012287,None,1530.5677372012287,None,f,2.0076908003538847,1530.5677372012287,None,,,NC 33,001,2022_Apr_05_1547,ProdSingRedo,3.2.3,60.07990624027698,
,,,,70,0,70,0,,,,,,,,,,,,,,,,,,,,,,,,1539.514384901151,None,,,,,,,,,,,,,,,,,count,new_b,white,70,127,72,1533.1365673001856,None,1533.1365673001856,None,2,1.9591223001480103,1533.1365673001856,None,1535.1442161016166,None,1535.6685509998351,None,1535.6685509998351,None,n,3.8108319994062185,1535.6685509998351,None,,,NC 33,001,2022_Apr_05_1547,ProdSingRedo,3.2.3,60.07990624027698,
,,,,71,0,71,0,,,,,,,,,,,,,,,,,,,,,,,,1548.474100900814,None,,,,,,,,,,,,,,,,,worker,aloud,white,71,50,356,1540.0428158007562,None,1540.0428158007562,None,3,6.452545000240207,1540.0428158007562,None,1546.5471609998494,None,1547.0696363002062,None,1547.0696363002062,None,f,1.3776204008609056,1547.0696363002062,None,,,NC 33,001,2022_Apr_05_1547,ProdSingRedo,3.2.3,60.07990624027698,
,,,,72,0,72,0,,,,,,,,,,,,,,,,,,,,,,,,1551.4152869004756,None,,,,,,,,,,,,,,,,,background,silent,white,72,73,16,1548.9997688010335,None,1548.9997688010335,None,1,1.7676986996084452,1548.9997688010335,None,1550.8128606006503,None,1551.3429844006896,None,1551.3429844006896,None,n,0.04046490043401718,1551.3429844006896,None,,,NC 33,001,2022_Apr_05_1547,ProdSingRedo,3.2.3,60.07990624027698,
,,,,73,0,73,0,,,,,,,,,,,,,,,,,,,,,,,,1556.5143180005252,None,,,,,,,,,,,,,,,,,republic,new_a,white,73,111,260,1551.943589501083,None,1551.943589501083,None,1,3.6237965002655983,1551.943589501083,None,1555.6215633004904,None,1556.140762500465,None,1556.140762500465,None,n,0.3473175000399351,1556.140762500465,None,,,NC 33,001,2022_Apr_05_1547,ProdSingRedo,3.2.3,60.07990624027698,
,,,,74,0,74,0,,,,,,,,,,,,,,,,,,,,,,,,1559.9670077003539,None,,,,,,,,,,,,,,,,,estate,aloud,white,74,45,119,1557.0401960015297,None,1557.0401960015297,None,6,1.7511675003916025,1557.0401960015297,None,1558.8330882005394,None,1559.353005701676,None,1559.353005701676,None,r,0.5825123991817236,1559.353005701676,None,,,NC 33,001,2022_Apr_05_1547,ProdSingRedo,3.2.3,60.07990624027698,
,,,,75,0,75,0,,,,,,,,,,,,,,,,,,,,,,,,1564.535184700042,None,,,,,,,,,,,,,,,,,motion,aloud,white,75,56,194,1560.4884687010199,None,1560.4884687010199,None,4,2.4950095005333424,1560.4884687010199,None,1563.0279582999647,None,1563.5502598006278,None,1563.5502598006278,None,f,0.9451302997767925,1563.5502598006278,None,,,NC 33,001,2022_Apr_05_1547,ProdSingRedo,3.2.3,60.07990624027698,
,,,,76,0,76,0,,,,,,,,,,,,,,,,,,,,,,,,1567.9324521012604,None,,,,,,,,,,,,,,,,,addition,sing,white,76,22,2,1565.0557916015387,None,1565.0557916015387,None,6,1.8075644001364708,1565.0557916015387,None,1566.9132457002997,None,1567.4367048013955,None,1567.4367048013955,None,r,0.4586752001196146,1567.4367048013955,None,,,NC 33,001,2022_Apr_05_1547,ProdSingRedo,3.2.3,60.07990624027698,
,,,,77,0,77,0,,,,,,,,,,,,,,,,,,,,,,,,1576.5512142013758,None,,,,,,,,,,,,,,,,,public,new_b,white,77,128,244,1568.4684695005417,None,1568.4684695005417,None,3,2.762934699654579,1568.4684695005417,None,1571.283706901595,None,1571.8041599001735,None,1571.8041599001735,None,f,4.715446600690484,1571.8041599001735,None,,,NC 33,001,2022_Apr_05_1547,ProdSingRedo,3.2.3,60.07990624027698,
,,,,78,0,78,0,,,,,,,,,,,,,,,,,,,,,,,,1581.2380201015621,None,,,,,,,,,,,,,,,,,company,silent,white,78,82,64,1577.065764900297,None,1577.065764900297,None,3,2.693708099424839,1577.065764900297,None,1579.7967349998653,None,1580.3236501011997,None,1580.3236501011997,None,f,0.884052000939846,1580.3236501011997,None,,,NC 33,001,2022_Apr_05_1547,ProdSingRedo,3.2.3,60.07990624027698,
,,,,79,0,79,0,,,,,,,,,,,,,,,,,,,,,,,,1585.9173278007656,None,,,,,,,,,,,,,,,,,question,sing,white,79,9,247,1581.7685256004333,None,1581.7685256004333,None,2,2.7748428005725145,1581.7685256004333,None,1584.5839384011924,None,1585.105998300016,None,1585.105998300016,None,n,0.7734235003590584,1585.105998300016,None,,,NC 33,001,2022_Apr_05_1547,ProdSingRedo,3.2.3,60.07990624027698,
,,,,80,0,80,0,,,,,,,,,,,,,,,,,,,,,,,,1589.6721582002938,None,,,,,,,,,,,,,,,,,trial,aloud,white,80,33,341,1586.442822901532,None,1586.442822901532,None,6,1.452122200280428,1586.442822901532,None,1587.9274761006236,None,1588.4415031000972,None,1588.4415031000972,None,r,1.1899691000580788,1588.4415031000972,None,,,NC 33,001,2022_Apr_05_1547,ProdSingRedo,3.2.3,60.07990624027698,
,,,,81,0,81,0,,,,,,,,,,,,,,,,,,,,,,,,1593.4326406009495,None,,,,,,,,,,,,,,,,,education,aloud,white,81,42,108,1590.1985251009464,None,1590.1985251009464,None,3,1.2256131004542112,1590.1985251009464,None,1591.4635396003723,None,1591.9917106013745,None,1591.9917106013745,None,f,1.4077921994030476,1591.9917106013745,None,,,NC 33,001,2022_Apr_05_1547,ProdSingRedo,3.2.3,60.07990624027698,
,,,,82,0,82,0,,,,,,,,,,,,,,,,,,,,,,,,1599.602845299989,None,,,,,,,,,,,,,,,,,pancakes,silent,white,82,85,210,1593.9651292003691,None,1593.9651292003691,None,1,1.466244600713253,1593.9651292003691,None,1595.479701500386,None,1596.0097412001342,None,1596.0097412001342,None,r,3.557540200650692,1596.0097412001342,None,,,NC 33,001,2022_Apr_05_1547,ProdSingRedo,3.2.3,60.07990624027698,
,,,,83,0,83,0,,,,,,,,,,,,,,,,,,,,,,,,1605.0690222010016,None,,,,,,,,,,,,,,,,,discovery,aloud,white,83,38,95,1600.1307247001678,None,1600.1307247001678,None,5,3.292747100815177,1600.1307247001678,None,1603.4578199014068,None,1603.974597800523,None,1603.974597800523,None,f,1.0646582003682852,1603.974597800523,None,,,NC 33,001,2022_Apr_05_1547,ProdSingRedo,3.2.3,60.07990624027698,
,,,,84,0,84,0,,,,,,,,,,,,,,,,,,,,,,,,1608.5039997007698,None,,,,,,,,,,,,,,,,,number,silent,white,84,86,203,1605.5999152008444,None,1605.5999152008444,None,3,1.4792916998267174,1605.5999152008444,None,1607.136120101437,None,1607.6478114016354,None,1607.6478114016354,None,n,0.8235297985374928,1607.6478114016354,None,,,NC 33,001,2022_Apr_05_1547,ProdSingRedo,3.2.3,60.07990624027698,
,,,,85,0,85,0,,,,,,,,,,,,,,,,,,,,,,,,1611.8701646011323,None,,,,,,,,,,,,,,,,,quantity,sing,white,85,20,245,1609.0396210011095,None,1609.0396210011095,None,6,1.6477618999779224,1609.0396210011095,None,1610.7387673016638,None,1611.2603997010738,None,1611.2603997010738,None,r,0.578880300745368,1611.2603997010738,None,,,NC 33,001,2022_Apr_05_1547,ProdSingRedo,3.2.3,60.07990624027698,
,,,,86,0,86,0,,,,,,,,,,,,,,,,,,,,,,,,1618.2697810009122,None,,,,,,,,,,,,,,,,,crisis,new_a,white,86,91,79,1612.3782753013074,None,1612.3782753013074,None,1,3.845073601230979,1612.3782753013074,None,1616.2701361998916,None,1616.7858520001173,None,1616.7858520001173,None,n,1.4454593993723392,1616.7858520001173,None,,,NC 33,001,2022_Apr_05_1547,ProdSingRedo,3.2.3,60.07990624027698,
,,,,87,0,87,0,,,,,,,,,,,,,,,,,,,,,,,,1621.9372923001647,None,,,,,,,,,,,,,,,,,music,new_c,white,87,171,196,1618.7972732000053,None,1618.7972732000053,None,5,1.9219917990267277,1618.7972732000053,None,1620.7653611004353,None,1621.291089599952,None,1621.291089599952,None,f,0.6122214011847973,1621.291089599952,None,,,NC 33,001,2022_Apr_05_1547,ProdSingRedo,3.2.3,60.07990624027698,
,,,,88,0,88,0,,,,,,,,,,,,,,,,,,,,,,,,1624.6522301007062,None,,,,,,,,,,,,,,,,,industry,sing,white,88,12,161,1622.4677751008421,None,1622.4677751008421,None,5,1.5474932994693518,1622.4677751008421,None,1624.0662090014666,None,1624.5956845004112,None,1624.5956845004112,None,f,0.019460199400782585,1624.5956845004112,None,,,NC 33,001,2022_Apr_05_1547,ProdSingRedo,3.2.3,60.07990624027698,
,,,,89,0,89,0,,,,,,,,,,,,,,,,,,,,,,,,1629.0883832015097,None,,,,,,,,,,,,,,,,,report,aloud,white,89,34,259,1625.1744154002517,None,1625.1744154002517,None,4,2.056682601571083,1625.1744154002517,None,1627.2686785999686,None,1627.7843364998698,None,1627.7843364998698,None,n,1.2789941001683474,1627.7843364998698,None,,,NC 33,001,2022_Apr_05_1547,ProdSingRedo,3.2.3,60.07990624027698,
,,,,90,0,90,0,,,,,,,,,,,,,,,,,,,,,,,,1632.092346901074,None,,,,,,,,,,,,,,,,,cousin,silent,white,90,60,76,1629.6136333998293,None,1629.6136333998293,None,1,1.6976801995187998,1629.6136333998293,None,1631.3552677016705,None,1631.879077900201,None,1631.879077900201,None,n,0.18426420167088509,1631.879077900201,None,,,NC 33,001,2022_Apr_05_1547,ProdSingRedo,3.2.3,60.07990624027698,
,,,,91,0,91,0,,,,,,,,,,,,,,,,,,,,,,,,1636.2370121013373,None,,,,,,,,,,,,,,,,,community,silent,white,91,76,63,1632.6142680998892,None,1632.6142680998892,None,3,2.201061200350523,1632.6142680998892,None,1634.866953600198,None,1635.394948201254,None,1635.394948201254,None,r,0.8043673988431692,1635.394948201254,None,,,NC 33,001,2022_Apr_05_1547,ProdSingRedo,3.2.3,60.07990624027698,
,,,,92,0,92,0,,,,,,,,,,,,,,,,,,,,,,,,1640.8547690007836,None,,,,,,,,,,,,,,,,,household,new_b,white,92,149,154,1636.7671282999218,None,1636.7671282999218,None,2,2.7840746995061636,1636.7671282999218,None,1639.6028838008642,None,1640.1282238010317,None,1640.1282238010317,None,n,0.6870456002652645,1640.1282238010317,None,,,NC 33,001,2022_Apr_05_1547,ProdSingRedo,3.2.3,60.07990624027698,
,,,,93,0,93,0,,,,,,,,,,,,,,,,,,,,,,,,1651.3710724003613,None,,,,,,,,,,,,,,,,,shape,new_b,white,93,144,282,1641.3766478002071,None,1641.3766478002071,None,2,8.262517699971795,1641.3766478002071,None,1649.6943386010826,None,1650.207931401208,None,1650.207931401208,None,n,1.1272008009254932,1650.207931401208,None,,,NC 33,001,2022_Apr_05_1547,ProdSingRedo,3.2.3,60.07990624027698,
,,,,94,0,94,0,,,,,,,,,,,,,,,,,,,,,,,,1655.2390628010035,None,,,,,,,,,,,,,,,,,smooth,sing,white,94,7,292,1651.8944070003927,None,1651.8944070003927,None,6,2.3288180995732546,1651.8944070003927,None,1654.2684873007238,None,1654.786856399849,None,1654.786856399849,None,r,0.4123657997697592,1654.786856399849,None,,,NC 33,001,2022_Apr_05_1547,ProdSingRedo,3.2.3,60.07990624027698,
,,,,95,0,95,0,,,,,,,,,,,,,,,,,,,,,,,,1658.830037901178,None,,,,,,,,,,,,,,,,,childhood,new_b,white,95,146,49,1655.7620541006327,None,1655.7620541006327,None,1,1.5656740982085466,1655.7620541006327,None,1657.3649272006005,None,1657.8909873999655,None,1657.8909873999655,None,n,0.900492599233985,1657.8909873999655,None,,,NC 33,001,2022_Apr_05_1547,ProdSingRedo,3.2.3,60.07990624027698,
,,,,96,0,96,0,,,,,,,,,,,,,,,,,,,,,,,,1663.615892700851,None,,,,,,,,,,,,,,,,,majority,aloud,white,96,51,176,1659.3487426005304,None,1659.3487426005304,None,5,2.2184823993593454,1659.3487426005304,None,1661.622436400503,None,1662.1497114002705,None,1662.1497114002705,None,r,1.433398999273777,1662.1497114002705,None,,,NC 33,001,2022_Apr_05_1547,ProdSingRedo,3.2.3,60.07990624027698,
,,,,97,0,97,0,,,,,,,,,,,,,,,,,,,,,,,,1667.8410633001477,None,,,,,,,,,,,,,,,,,cross,new_c,white,97,168,80,1664.1432381998748,None,1664.1432381998748,None,3,2.2640323005616665,1664.1432381998748,None,1666.4509338010103,None,1666.9737494010478,None,1666.9737494010478,None,n,0.8414933998137712,1666.9737494010478,None,,,NC 33,001,2022_Apr_05_1547,ProdSingRedo,3.2.3,60.07990624027698,
,,,,98,0,98,0,,,,,,,,,,,,,,,,,,,,,,,,1671.393192499876,None,,,,,,,,,,,,,,,,,stranger,aloud,white,98,58,309,1668.3698146007955,None,1668.3698146007955,None,4,1.4134456012398005,1668.3698146007955,None,1669.844490500167,None,1670.3654786013067,None,1670.3654786013067,None,f,0.9857427012175322,1670.3654786013067,None,,,NC 33,001,2022_Apr_05_1547,ProdSingRedo,3.2.3,60.07990624027698,
,,,,99,0,99,0,,,,,,,,,,,,,,,,,,,,,,,,1677.2746165003628,None,,,,,,,,,,,,,,,,,medicine,new_a,white,99,98,186,1671.911497199908,None,1671.911497199908,None,1,1.823624899610877,1671.911497199908,None,1673.778365701437,None,1674.2909393012524,None,1674.2909393012524,None,n,2.956375600770116,1674.2909393012524,None,,,NC 33,001,2022_Apr_05_1547,ProdSingRedo,3.2.3,60.07990624027698,
,,,,100,0,100,0,,,,,,,,,,,,,,,,,,,,,,,,1681.791906800121,None,,,,,,,,,,,,,,,,,heavy,silent,white,100,68,151,1677.7997261006385,None,1677.7997261006385,None,2,2.975465999916196,1677.7997261006385,None,1680.822443101555,None,1681.3446894008666,None,1681.3446894008666,None,f,0.422393299639225,1681.3446894008666,None,,,NC 33,001,2022_Apr_05_1547,ProdSingRedo,3.2.3,60.07990624027698,
,,,,101,0,101,0,,,,,,,,,,,,,,,,,,,,,,,,1685.4735778998584,None,,,,,,,,,,,,,,,,,pretty,silent,white,101,71,233,1682.317379301414,None,1682.317379301414,None,1,2.153711000457406,1682.317379301414,None,1684.5211805012077,None,1685.0498955007643,None,1685.0498955007643,None,n,0.3975643999874592,1685.0498955007643,None,,,NC 33,001,2022_Apr_05_1547,ProdSingRedo,3.2.3,60.07990624027698,
,,,,102,0,102,0,,,,,,,,,,,,,,,,,,,,,,,,1689.24242070131,None,,,,,,,,,,,,,,,,,length,silent,white,102,67,169,1686.0013968013227,None,1686.0013968013227,None,5,2.421652300283313,1686.0013968013227,None,1688.472442900762,None,1688.9950349014252,None,1688.9950349014252,None,f,0.21217199973762035,1688.9950349014252,None,,,NC 33,001,2022_Apr_05_1547,ProdSingRedo,3.2.3,60.07990624027698,
,,,,103,0,103,0,,,,,,,,,,,,,,,,,,,,,,,,1695.5419518016279,None,,,,,,,,,,,,,,,,,interior,silent,white,103,80,164,1689.7635609004647,None,1689.7635609004647,None,3,4.043663799762726,1689.7635609004647,None,1693.8510636016726,None,1694.3734070006758,None,1694.3734070006758,None,n,1.129729300737381,1694.3734070006758,None,,,NC 33,001,2022_Apr_05_1547,ProdSingRedo,3.2.3,60.07990624027698,
,,,,104,0,104,0,,,,,,,,,,,,,,,,,,,,,,,,1700.9938110001385,None,,,,,,,,,,,,,,,,,trash,new_b,white,104,140,337,1696.0510622002184,None,1696.0510622002184,None,3,2.21261839941144,1696.0510622002184,None,1698.3069176003337,None,1698.8339985013008,None,1698.8339985013008,None,f,2.1335210986435413,1698.8339985013008,None,,,NC 33,001,2022_Apr_05_1547,ProdSingRedo,3.2.3,60.07990624027698,
,,,,105,0,105,0,,,,,,,,,,,,,,,,,,,,,,,,1707.5433491002768,None,,,,,,,,,,,,,,,,,welcome,new_b,white,105,122,354,1701.5188076011837,None,1701.5188076011837,None,3,3.5683628004044294,1701.5188076011837,None,1705.1401335000992,None,1705.6603510007262,None,1705.6603510007262,None,f,1.8508374001830816,1705.6603510007262,None,,,NC 33,001,2022_Apr_05_1547,ProdSingRedo,3.2.3,60.07990624027698,
,,,,106,0,106,0,,,,,,,,,,,,,,,,,,,,,,,,1712.2101206015795,None,,,,,,,,,,,,,,,,,review,silent,white,106,79,263,1708.0663844998926,None,1708.0663844998926,None,4,2.260395700111985,1708.0663844998926,None,1710.3527147006243,None,1710.8750983010978,None,1710.8750983010978,None,f,1.30819440074265,1710.8750983010978,None,,,NC 33,001,2022_Apr_05_1547,ProdSingRedo,3.2.3,60.07990624027698,
,,,,107,0,107,0,,,,,,,,,,,,,,,,,,,,,,,,1718.5520205013454,None,,,,,,,,,,,,,,,,,chief,new_b,white,107,129,48,1712.7347853016108,None,1712.7347853016108,None,2,2.5678805001080036,1712.7347853016108,None,1715.3367950003594,None,1715.8497045002878,None,1715.8497045002878,None,r,2.685088999569416,1715.8497045002878,None,,,NC 33,001,2022_Apr_05_1547,ProdSingRedo,3.2.3,60.07990624027698,
,,,,108,0,108,0,,,,,,,,,,,,,,,,,,,,,,,,1723.6833437010646,None,,,,,,,,,,,,,,,,,theme,new_b,white,108,134,326,1719.0663766004145,None,1719.0663766004145,None,5,2.3170742988586426,1719.0663766004145,None,1721.4233293998986,None,1721.9421568010002,None,1721.9421568010002,None,n,1.712524501606822,1721.9421568010002,None,,,NC 33,001,2022_Apr_05_1547,ProdSingRedo,3.2.3,60.07990624027698,
,,,,109,0,109,0,,,,,,,,,,,,,,,,,,,,,,,,1728.2419870011508,None,,,,,,,,,,,,,,,,,phrase,sing,white,109,4,220,1724.208874201402,None,1724.208874201402,None,1,3.1502018999308348,1724.208874201402,None,1727.409353401512,None,1727.9322875011712,None,1727.9322875011712,None,n,0.2745832987129688,1727.9322875011712,None,,,NC 33,001,2022_Apr_05_1547,ProdSingRedo,3.2.3,60.07990624027698,
,,,,110,0,110,0,,,,,,,,,,,,,,,,,,,,,,,,1736.3285664003342,None,,,,,,,,,,,,,,,,,fashion,silent,white,110,87,125,1728.7593352012336,None,1728.7593352012336,None,4,2.8396377991884947,1728.7593352012336,None,1731.620253900066,None,1732.1369027011096,None,1732.1369027011096,None,f,4.15822010114789,1732.1369027011096,None,,,NC 33,001,2022_Apr_05_1547,ProdSingRedo,3.2.3,60.07990624027698,
,,,,111,0,111,0,,,,,,,,,,,,,,,,,,,,,,,,1743.112130600959,None,,,,,,,,,,,,,,,,,symbol,new_c,white,111,169,321,1736.8557476010174,None,1736.8557476010174,None,2,4.887108899652958,1736.8557476010174,None,1741.7760874014348,None,1742.2866274006665,None,1742.2866274006665,None,n,0.7925471998751163,1742.2866274006665,None,,,NC 33,001,2022_Apr_05_1547,ProdSingRedo,3.2.3,60.07990624027698,
,,,,112,0,112,0,,,,,,,,,,,,,,,,,,,,,,,,1752.1355927009135,None,,,,,,,,,,,,,,,,,bucket,new_a,white,112,103,33,1743.6456522010267,None,1743.6456522010267,None,4,6.4333689995110035,1743.6456522010267,None,1750.1314373016357,None,1750.6510310005397,None,1750.6510310005397,None,f,1.467740399762988,1750.6510310005397,None,,,NC 33,001,2022_Apr_05_1547,ProdSingRedo,3.2.3,60.07990624027698,
,,,,113,0,113,0,,,,,,,,,,,,,,,,,,,,,,,,1761.4622185006738,None,,,,,,,,,,,,,,,,,platform,new_a,white,113,107,224,1752.6443775016814,None,1752.6443775016814,None,3,5.858714999631047,1752.6443775016814,None,1758.5498633012176,None,1759.067410601303,None,1759.067410601303,None,f,2.3715326003730297,1759.067410601303,None,,,NC 33,001,2022_Apr_05_1547,ProdSingRedo,3.2.3,60.07990624027698,
,,,,114,0,114,0,,,,,,,,,,,,,,,,,,,,,,,,1767.3365309014916,None,,,,,,,,,,,,,,,,,government,new_b,white,114,148,139,1761.9962403010577,None,1761.9962403010577,None,3,2.314869800582528,1761.9962403010577,None,1764.3680982012302,None,1764.8888974003494,None,1764.8888974003494,None,n,2.4217924997210503,1764.8888974003494,None,,,NC 33,001,2022_Apr_05_1547,ProdSingRedo,3.2.3,60.07990624027698,
,,,,115,0,115,0,,,,,,,,,,,,,,,,,,,,,,,,1770.9697527009994,None,,,,,,,,,,,,,,,,,junior,new_a,white,115,109,167,1767.839858001098,None,1767.839858001098,None,1,2.255119599401951,1767.839858001098,None,1770.1391104012728,None,1770.6700670011342,None,1770.6700670011342,None,n,0.2656535003334284,1770.6700670011342,None,,,NC 33,001,2022_Apr_05_1547,ProdSingRedo,3.2.3,60.07990624027698,
,,,,116,0,116,0,,,,,,,,,,,,,,,,,,,,,,,,1774.9310619011521,None,,,,,,,,,,,,,,,,,dance,new_a,white,116,97,84,1771.471951501444,None,1771.471951501444,None,3,1.8067956995218992,1771.471951501444,None,1773.3054510001093,None,1773.8203779011965,None,1773.8203779011965,None,r,1.0746039003133774,1773.8203779011965,None,,,NC 33,001,2022_Apr_05_1547,ProdSingRedo,3.2.3,60.07990624027698,
,,,,117,0,117,0,,,,,,,,,,,,,,,,,,,,,,,,1778.8701308015734,None,,,,,,,,,,,,,,,,,shear,aloud,white,117,37,283,1775.459491699934,None,1775.459491699934,None,6,2.219228198751807,1775.459491699934,None,1777.7075261007994,None,1778.2206728998572,None,1778.2206728998572,None,r,0.6179403010755777,1778.2206728998572,None,,,NC 33,001,2022_Apr_05_1547,ProdSingRedo,3.2.3,60.07990624027698,
,,,,118,0,118,0,,,,,,,,,,,,,,,,,,,,,,,,1782.0731179006398,None,,,,,,,,,,,,,,,,,incident,sing,white,118,15,158,1779.3731545004994,None,1779.3731545004994,None,6,1.3855348993092775,1779.3731545004994,None,1780.7885970007628,None,1781.3035842012614,None,1781.3035842012614,None,r,0.7430764008313417,1781.3035842012614,None,,,NC 33,001,2022_Apr_05_1547,ProdSingRedo,3.2.3,60.07990624027698,
,,,,119,0,119,0,,,,,,,,,,,,,,,,,,,,,,,,1788.2542084008455,None,,,,,,,,,,,,,,,,,health,new_c,white,119,151,149,1782.587192600593,None,1782.587192600593,None,3,2.6513959988951683,1782.587192600593,None,1785.2564738001674,None,1785.7705431003124,None,1785.7705431003124,None,n,2.4680499993264675,1785.7705431003124,None,,,NC 33,001,2022_Apr_05_1547,ProdSingRedo,3.2.3,60.07990624027698,
,,,,120,0,120,0,,,,,,,,,,,,,,,,,,,,,,,,1798.0715570002794,None,,,,,,,,,,,,,,,,,turkey,new_c,white,120,159,342,1788.7562273014337,None,1788.7562273014337,None,5,6.874367900192738,1788.7562273014337,None,1795.6681049000472,None,1796.1730193998665,None,1796.1730193998665,None,f,1.8737368006259203,1796.1730193998665,None,,,NC 33,001,2022_Apr_05_1547,ProdSingRedo,3.2.3,60.07990624027698,
,,,,121,0,121,0,,,,,,,,,,,,,,,,,,,,,,,,1802.666678700596,None,,,,,,,,,,,,,,,,,equipment,new_a,white,121,96,116,1798.5959711000323,None,1798.5959711000323,None,3,2.642860099673271,1798.5959711000323,None,1801.2684611007571,None,1801.7749787010252,None,1801.7749787010252,None,n,0.8558952994644642,1801.7749787010252,None,,,NC 33,001,2022_Apr_05_1547,ProdSingRedo,3.2.3,60.07990624027698,
,,,,122,0,122,0,,,,,,,,,,,,,,,,,,,,,,,,1809.9222385007888,None,,,,,,,,,,,,,,,,,straight,new_b,white,122,123,307,1803.1928639002144,None,1803.1928639002144,None,4,4.798242200165987,1803.1928639002144,None,1808.0286493003368,None,1808.5556481014937,None,1808.5556481014937,None,f,1.3471236992627382,1808.5556481014937,None,,,NC 33,001,2022_Apr_05_1547,ProdSingRedo,3.2.3,60.07990624027698,
,,,,123,0,123,0,,,,,,,,,,,,,,,,,,,,,,,,1814.0829796008766,None,,,,,,,,,,,,,,,,,shock,new_a,white,123,90,284,1810.4359661005437,None,1810.4359661005437,None,1,1.7229746989905834,1810.4359661005437,None,1812.2132438011467,None,1812.7328159008175,None,1812.7328159008175,None,n,1.3140497989952564,1812.7328159008175,None,,,NC 33,001,2022_Apr_05_1547,ProdSingRedo,3.2.3,60.07990624027698,
,,,,124,0,124,0,,,,,,,,,,,,,,,,,,,,,,,,1821.6730214003474,None,,,,,,,,,,,,,,,,,sleep,new_b,white,124,124,290,1814.597776800394,None,1814.597776800394,None,3,4.9452571999281645,1814.597776800394,None,1819.594767300412,None,1820.1065763011575,None,1820.1065763011575,None,f,1.53996179997921,1820.1065763011575,None,,,NC 33,001,2022_Apr_05_1547,ProdSingRedo,3.2.3,60.07990624027698,
,,,,125,0,125,0,,,,,,,,,,,,,,,,,,,,,,,,1834.2015813011676,None,,,,,,,,,,,,,,,,,career,sing,white,125,18,42,1822.181964499876,None,1822.181964499876,None,3,8.31267699971795,1822.181964499876,None,1830.5356785003096,None,1831.0403575003147,None,1831.0403575003147,None,f,3.1264556013047695,1831.0403575003147,None,,,NC 33,001,2022_Apr_05_1547,ProdSingRedo,3.2.3,60.07990624027698,
,,,,126,0,126,0,,,,,,,,,,,,,,,,,,,,,,,,1840.268932301551,None,,,,,,,,,,,,,,,,,message,silent,white,126,70,189,1834.7278596013784,None,1834.7278596013784,None,2,3.0149419996887445,1834.7278596013784,None,1837.7809939011931,None,1838.3043701015413,None,1838.3043701015413,None,f,1.926537798717618,1838.3043701015413,None,,,NC 33,001,2022_Apr_05_1547,ProdSingRedo,3.2.3,60.07990624027698,
,,,,127,0,127,0,,,,,,,,,,,,,,,,,,,,,,,,1845.1762583013624,None,,,,,,,,,,,,,,,,,running,silent,white,127,77,268,1840.7960925009102,None,1840.7960925009102,None,2,2.1706902999430895,1840.7960925009102,None,1843.0117105003446,None,1843.539302000776,None,1843.539302000776,None,f,1.6114087998867035,1843.539302000776,None,,,NC 33,001,2022_Apr_05_1547,ProdSingRedo,3.2.3,60.07990624027698,
,,,,128,0,128,0,,,,,,,,,,,,,,,,,,,,,,,,1847.9724488016218,None,,,,,,,,,,,,,,,,,danger,aloud,white,128,47,85,1845.69842380099,None,1845.69842380099,None,6,1.6283838991075754,1845.69842380099,None,1847.3733582012355,None,1847.892915301025,None,1847.892915301025,None,r,0.04967539943754673,1847.892915301025,None,,,NC 33,001,2022_Apr_05_1547,ProdSingRedo,3.2.3,60.07990624027698,
,,,,129,0,129,0,,,,,,,,,,,,,,,,,,,,,,,,1850.835929401219,None,,,,,,,,,,,,,,,,,comfort,new_a,white,129,114,59,1848.4931855015457,None,1848.4931855015457,None,4,1.32167929969728,1848.4931855015457,None,1849.8669798001647,None,1850.3916375003755,None,1850.3916375003755,None,r,0.4155362006276846,1850.3916375003755,None,,,NC 33,001,2022_Apr_05_1547,ProdSingRedo,3.2.3,60.07990624027698,
,,,,130,0,130,0,,,,,,,,,,,,,,,,,,,,,,,,1854.3861047010869,None,,,,,,,,,,,,,,,,,candidate,sing,white,130,26,39,1851.3658487014472,None,1851.3658487014472,None,4,1.7126083988696337,1851.3658487014472,None,1853.1161421015859,None,1853.6429333016276,None,1853.6429333016276,None,r,0.7159930001944304,1853.6429333016276,None,,,NC 33,001,2022_Apr_05_1547,ProdSingRedo,3.2.3,60.07990624027698,
,,,,131,0,131,0,,,,,,,,,,,,,,,,,,,,,,,,1859.9867003001273,None,,,,,,,,,,,,,,,,,mayor,new_c,white,131,150,183,1854.9120107013732,None,1854.9120107013732,None,2,2.71890340000391,1854.9120107013732,None,1857.6816822011024,None,1858.2118769008666,None,1858.2118769008666,None,f,1.7473081015050411,1858.2118769008666,None,,,NC 33,001,2022_Apr_05_1547,ProdSingRedo,3.2.3,60.07990624027698,
,,,,132,0,132,0,,,,,,,,,,,,,,,,,,,,,,,,1864.536814700812,None,,,,,,,,,,,,,,,,,audience,new_c,white,132,175,14,1860.5143760014325,None,1860.5143760014325,None,3,1.692484200000763,1860.5143760014325,None,1862.2509030010551,None,1862.7718448005617,None,1862.7718448005617,None,f,1.7390720006078482,1862.7718448005617,None,,,NC 33,001,2022_Apr_05_1547,ProdSingRedo,3.2.3,60.07990624027698,
,,,,133,0,133,0,,,,,,,,,,,,,,,,,,,,,,,,1868.371186900884,None,,,,,,,,,,,,,,,,,department,new_c,white,133,167,90,1865.0646180007607,None,1865.0646180007607,None,1,1.9106524009257555,1865.0646180007607,None,1867.0209078006446,None,1867.541474301368,None,1867.541474301368,None,n,0.7933236993849277,1867.541474301368,None,,,NC 33,001,2022_Apr_05_1547,ProdSingRedo,3.2.3,60.07990624027698,
,,,,134,0,134,0,,,,,,,,,,,,,,,,,,,,,,,,1872.0021763015538,None,,,,,,,,,,,,,,,,,congress,new_b,white,134,142,67,1868.8941977005452,None,1868.8941977005452,None,1,1.8648878000676632,1868.8941977005452,None,1870.8040661010891,None,1871.321467101574,None,1871.321467101574,None,n,0.6452734004706144,1871.321467101574,None,,,NC 33,001,2022_Apr_05_1547,ProdSingRedo,3.2.3,60.07990624027698,
,,,,135,0,135,0,,,,,,,,,,,,,,,,,,,,,,,,1879.4224453009665,None,,,,,,,,,,,,,,,,,sunset,new_c,white,135,152,315,1872.531314600259,None,1872.531314600259,None,2,3.2282630000263453,1872.531314600259,None,1875.797719400376,None,1876.3230204004794,None,1876.3230204004794,None,f,3.0597429014742374,1876.3230204004794,None,,,NC 33,001,2022_Apr_05_1547,ProdSingRedo,3.2.3,60.07990624027698,
,,,,136,0,136,0,,,,,,,,,,,,,,,,,,,,,,,,1886.8224596008658,None,,,,,,,,,,,,,,,,,little,new_c,white,136,177,174,1879.9426918011159,None,1879.9426918011159,None,2,5.016663700342178,1879.9426918011159,None,1885.0010083001107,None,1885.5213389005512,None,1885.5213389005512,None,n,1.2693137992173433,1885.5213389005512,None,,,NC 33,001,2022_Apr_05_1547,ProdSingRedo,3.2.3,60.07990624027698,
,,,,137,0,137,0,,,,,,,,,,,,,,,,,,,,,,,,1896.9403610005975,None,,,,,,,,,,,,,,,,,working,silent,white,137,63,357,1887.34990600124,None,1887.34990600124,None,4,6.312482498586178,1887.34990600124,None,1893.6929590012878,None,1894.2177569009364,None,1894.2177569009364,None,f,2.685053599998355,1894.2177569009364,None,,,NC 33,001,2022_Apr_05_1547,ProdSingRedo,3.2.3,60.07990624027698,
,,,,138,0,138,0,,,,,,,,,,,,,,,,,,,,,,,,1908.3732273001224,None,,,,,,,,,,,,,,,,,graduate,new_b,white,138,126,141,1897.4752841014415,None,1897.4752841014415,None,3,8.8996338006109,1897.4752841014415,None,1906.422597400844,None,1906.9468151014298,None,1906.9468151014298,None,f,1.3958279006183147,1906.9468151014298,None,,,NC 33,001,2022_Apr_05_1547,ProdSingRedo,3.2.3,60.07990624027698,
,,,,139,0,139,0,,,,,,,,,,,,,,,,,,,,,,,,1912.9958306010813,None,,,,,,,,,,,,,,,,,produce,new_c,white,139,166,239,1908.8891219999641,None,1908.8891219999641,None,5,2.229567999020219,1908.8891219999641,None,1911.1737788002938,None,1911.6945953015238,None,1911.6945953015238,None,r,1.2797953002154827,1911.6945953015238,None,,,NC 33,001,2022_Apr_05_1547,ProdSingRedo,3.2.3,60.07990624027698,
,,,,140,0,140,0,,,,,,,,,,,,,,,,,,,,,,,,1916.040618101135,None,,,,,,,,,,,,,,,,,edition,sing,white,140,8,107,1913.5127891004086,None,1913.5127891004086,None,5,1.8379595000296831,1913.5127891004086,None,1915.395602600649,None,1915.9069797005504,None,1915.9069797005504,None,r,0.09980119951069355,1915.9069797005504,None,,,NC 33,001,2022_Apr_05_1547,ProdSingRedo,3.2.3,60.07990624027698,
,,,,141,0,141,0,,,,,,,,,,,,,,,,,,,,,,,,1919.8055068012327,None,,,,,,,,,,,,,,,,,exchange,new_c,white,141,155,121,1916.567762101069,None,1916.567762101069,None,3,1.7113975007086992,1916.567762101069,None,1918.3251734003425,None,1918.8463732004166,None,1918.8463732004166,None,f,0.9202454015612602,1918.8463732004166,None,,,NC 33,001,2022_Apr_05_1547,ProdSingRedo,3.2.3,60.07990624027698,
,,,,142,0,142,0,,,,,,,,,,,,,,,,,,,,,,,,1922.5069862008095,None,,,,,,,,,,,,,,,,,division,new_c,white,142,162,101,1920.3333136010915,None,1920.3333136010915,None,6,1.5618090983480215,1920.3333136010915,None,1921.9348352998495,None,1922.4617158006877,None,1922.4617158006877,None,r,0.009051499888300896,1922.4617158006877,None,,,NC 33,001,2022_Apr_05_1547,ProdSingRedo,3.2.3,60.07990624027698,
,,,,143,0,143,0,,,,,,,,,,,,,,,,,,,,,,,,1926.3069972004741,None,,,,,,,,,,,,,,,,,treatment,new_b,white,143,136,339,1923.0343520008028,None,1923.0343520008028,None,2,2.276368498802185,1923.0343520008028,None,1925.354593001306,None,1925.8855809010565,None,1925.8855809010565,None,n,0.3852427005767822,1925.8855809010565,None,,,NC 33,001,2022_Apr_05_1547,ProdSingRedo,3.2.3,60.07990624027698,
,,,,144,0,144,0,,,,,,,,,,,,,,,,,,,,,,,,1929.939646601677,None,,,,,,,,,,,,,,,,,country,aloud,white,144,32,73,1926.8350042011589,None,1926.8350042011589,None,6,1.4036883004009724,1926.8350042011589,None,1928.2913774009794,None,1928.812472300604,None,1928.812472300604,None,r,1.0902043003588915,1928.812472300604,None,,,NC 33,001,2022_Apr_05_1547,ProdSingRedo,3.2.3,60.07990624027698,
,,,,145,0,145,0,,,,,,,,,,,,,,,,,,,,,,,,1932.8093648012727,None,,,,,,,,,,,,,,,,,order,sing,white,145,13,207,1930.4618448000401,None,1930.4618448000401,None,4,1.456912599503994,1930.4618448000401,None,1931.9668765999377,None,1932.4898230005056,None,1932.4898230005056,None,f,0.2929924987256527,1932.4898230005056,None,,,NC 33,001,2022_Apr_05_1547,ProdSingRedo,3.2.3,60.07990624027698,
,,,,146,0,146,0,,,,,,,,,,,,,,,,,,,,,,,,1936.4248850010335,None,,,,,,,,,,,,,,,,,pattern,new_a,white,146,110,214,1933.3343426007777,None,1933.3343426007777,None,1,2.3683313988149166,1933.3343426007777,None,1935.7567097004503,None,1936.2758818008006,None,1936.2758818008006,None,n,0.11491720005869865,1936.2758818008006,None,,,NC 33,001,2022_Apr_05_1547,ProdSingRedo,3.2.3,60.07990624027698,
,,,,147,0,147,0,,,,,,,,,,,,,,,,,,,,,,,,1939.8443796001375,None,,,,,,,,,,,,,,,,,dispute,new_b,white,147,133,99,1936.9519106000662,None,1936.9519106000662,None,1,1.646323399618268,1936.9519106000662,None,1938.620569800958,None,1939.1339094005525,None,1939.1339094005525,None,n,0.6727368999272585,1939.1339094005525,None,,,NC 33,001,2022_Apr_05_1547,ProdSingRedo,3.2.3,60.07990624027698,
,,,,148,0,148,0,,,,,,,,,,,,,,,,,,,,,,,,1943.115332601592,None,,,,,,,,,,,,,,,,,death,sing,white,148,24,86,1940.3674236014485,None,1940.3674236014485,None,6,2.022819399833679,1940.3674236014485,None,1942.4206316005439,None,1942.9313737004995,None,1942.9313737004995,None,r,0.16336589865386486,1942.9313737004995,None,,,NC 33,001,2022_Apr_05_1547,ProdSingRedo,3.2.3,60.07990624027698,
,,,,149,0,149,0,,,,,,,,,,,,,,,,,,,,,,,,1945.5414670016617,None,,,,,,,,,,,,,,,,,agency,new_a,white,149,119,4,1943.6350993998349,None,1943.6350993998349,None,3,1.259486399590969,1943.6350993998349,None,1944.940733300522,None,1945.462516600266,None,1945.462516600266,None,n,0.04018249921500683,1945.462516600266,None,,,NC 33,001,2022_Apr_05_1547,ProdSingRedo,3.2.3,60.07990624027698,
,,,,150,0,150,0,,,,,,,,,,,,,,,,,,,,,,,,1949.1757546011358,None,,,,,,,,,,,,,,,,,volume,aloud,white,150,59,349,1946.0703054014593,None,1946.0703054014593,None,6,1.864284299314022,1946.0703054014593,None,1947.9918940998614,None,1948.5135706998408,None,1948.5135706998408,None,r,0.6290466003119946,1948.5135706998408,None,,,NC 33,001,2022_Apr_05_1547,ProdSingRedo,3.2.3,60.07990624027698,
,,,,151,0,151,0,,,,,,,,,,,,,,,,,,,,,,,,1954.2559902016073,None,,,,,,,,,,,,,,,,,hearing,new_c,white,151,176,150,1949.7024185005575,None,1949.7024185005575,None,3,2.0804248992353678,1949.7024185005575,None,1951.8283472005278,None,1952.3472536001354,None,1952.3472536001354,None,f,1.87532339990139,1952.3472536001354,None,,,NC 33,001,2022_Apr_05_1547,ProdSingRedo,3.2.3,60.07990624027698,
,,,,152,0,152,0,,,,,,,,,,,,,,,,,,,,,,,,1958.709133900702,None,,,,,,,,,,,,,,,,,match,sing,white,152,11,181,1954.7853562012315,None,1954.7853562012315,None,6,1.7973542995750904,1954.7853562012315,None,1956.613680800423,None,1957.1261783000082,None,1957.1261783000082,None,r,1.5444684997200966,1957.1261783000082,None,,,NC 33,001,2022_Apr_05_1547,ProdSingRedo,3.2.3,60.07990624027698,
,,,,153,0,153,0,,,,,,,,,,,,,,,,,,,,,,,,1962.7525647003204,None,,,,,,,,,,,,,,,,,quiet,silent,white,153,62,249,1959.2358977999538,None,1959.2358977999538,None,3,1.5629118997603655,1959.2358977999538,None,1960.8405777998269,None,1961.3655503001064,None,1961.3655503001064,None,f,1.3531119991093874,1961.3655503001064,None,,,NC 33,001,2022_Apr_05_1547,ProdSingRedo,3.2.3,60.07990624027698,
,,,,154,0,154,0,,,,,,,,,,,,,,,,,,,,,,,,1968.676593599841,None,,,,,,,,,,,,,,,,,blind,new_c,white,154,164,24,1963.2833108007908,None,1963.2833108007908,None,2,3.2033159006386995,1963.2833108007908,None,1966.5393560007215,None,1967.061456700787,None,1967.061456700787,None,n,1.5772289000451565,1967.061456700787,None,,,NC 33,001,2022_Apr_05_1547,ProdSingRedo,3.2.3,60.07990624027698,
,,,,155,0,155,0,,,,,,,,,,,,,,,,,,,,,,,,1976.0107744000852,None,,,,,,,,,,,,,,,,,region,new_c,white,155,157,256,1969.202398000285,None,1969.202398000285,None,6,4.636200500652194,1969.202398000285,None,1973.89776349999,None,1974.4076248016208,None,1974.4076248016208,None,r,1.5670219007879496,1974.4076248016208,None,,,NC 33,001,2022_Apr_05_1547,ProdSingRedo,3.2.3,60.07990624027698,
,,,,156,0,156,0,,,,,,,,,,,,,,,,,,,,,,,,1979.0434592012316,None,,,,,,,,,,,,,,,,,power,new_b,white,156,143,230,1976.5364028010517,None,1976.5364028010517,None,3,1.3983411006629467,1976.5364028010517,None,1977.9727303013206,None,1978.4897586014122,None,1978.4897586014122,None,n,0.5168059002608061,1978.4897586014122,None,,,NC 33,001,2022_Apr_05_1547,ProdSingRedo,3.2.3,60.07990624027698,
,,,,157,0,157,0,,,,,,,,,,,,,,,,,,,,,,,,1981.9292184002697,None,,,,,,,,,,,,,,,,,payment,aloud,white,157,31,215,1979.5781613010913,None,1979.5781613010913,None,1,1.7084707003086805,1979.5781613010913,None,1981.344513900578,None,1981.8691608998924,None,1981.8691608998924,None,n,0.03350540064275265,1981.8691608998924,None,,,NC 33,001,2022_Apr_05_1547,ProdSingRedo,3.2.3,60.07990624027698,
,,,,158,0,158,0,,,,,,,,,,,,,,,,,,,,,,,,1985.360549800098,None,,,,,,,,,,,,,,,,,speech,new_a,white,158,113,298,1982.4495289009064,None,1982.4495289009064,None,2,1.5335959009826183,1982.4495289009064,None,1984.023340800777,None,1984.5474814008921,None,1984.5474814008921,None,n,0.7791028004139662,1984.5474814008921,None,,,NC 33,001,2022_Apr_05_1547,ProdSingRedo,3.2.3,60.07990624027698,
,,,,159,0,159,0,,,,,,,,,,,,,,,,,,,,,,,,1988.196186600253,None,,,,,,,,,,,,,,,,,fellow,new_b,white,159,145,126,1985.8867928013206,None,1985.8867928013206,None,3,1.623760299757123,1985.8867928013206,None,1987.5551665015519,None,1988.0801633000374,None,1988.0801633000374,None,n,0.08723120018839836,1988.0801633000374,None,,,NC 33,001,2022_Apr_05_1547,ProdSingRedo,3.2.3,60.07990624027698,
,,,,160,0,160,0,,,,,,,,,,,,,,,,,,,,,,,,1992.1615669000894,None,,,,,,,,,,,,,,,,,attack,new_a,white,160,105,13,1988.7173622008413,None,1988.7173622008413,None,4,1.9452676009386778,1988.7173622008413,None,1990.712375599891,None,1991.235078400001,None,1991.235078400001,None,f,0.8914100993424654,1991.235078400001,None,,,NC 33,001,2022_Apr_05_1547,ProdSingRedo,3.2.3,60.07990624027698,
,,,,161,0,161,0,,,,,,,,,,,,,,,,,,,,,,,,1996.0154228005558,None,,,,,,,,,,,,,,,,,mankind,silent,white,161,78,178,1992.6912898011506,None,1992.6912898011506,None,5,2.219427701085806,1992.6912898011506,None,1994.9573639016598,None,1995.483490601182,None,1995.483490601182,None,f,0.49097670055925846,1995.483490601182,None,,,NC 33,001,2022_Apr_05_1547,ProdSingRedo,3.2.3,60.07990624027698,
,,,,162,0,162,0,,,,,,,,,,,,,,,,,,,,,,,,2001.2286237999797,None,,,,,,,,,,,,,,,,,capital,new_a,white,162,95,40,1996.5401108004153,None,1996.5401108004153,None,4,3.298481799662113,1996.5401108004153,None,1999.8958625998348,None,2000.4190023001283,None,2000.4190023001283,None,f,0.7716474998742342,2000.4190023001283,None,,,NC 33,001,2022_Apr_05_1547,ProdSingRedo,3.2.3,60.07990624027698,
,,,,163,0,163,0,,,,,,,,,,,,,,,,,,,,,,,,2004.2284826003015,None,,,,,,,,,,,,,,,,,silence,silent,white,163,74,288,2001.7515217009932,None,2001.7515217009932,None,1,1.7352808006107807,2001.7515217009932,None,2003.524690201506,None,2004.0431155003607,None,2004.0431155003607,None,n,0.15529940091073513,2004.0431155003607,None,,,NC 33,001,2022_Apr_05_1547,ProdSingRedo,3.2.3,60.07990624027698,
,,,,164,0,164,0,,,,,,,,,,,,,,,,,,,,,,,,2006.9966297000647,None,,,,,,,,,,,,,,,,,watch,silent,white,164,64,351,2004.7539592012763,None,2004.7539592012763,None,1,1.2205096986144781,2004.7539592012763,None,2006.0238714013249,None,2006.5498854015023,None,2006.5498854015023,None,n,0.41662910021841526,2006.5498854015023,None,,,NC 33,001,2022_Apr_05_1547,ProdSingRedo,3.2.3,60.07990624027698,
,,,,165,0,165,0,,,,,,,,,,,,,,,,,,,,,,,,2010.696885900572,None,,,,,,,,,,,,,,,,,production,silent,white,165,61,240,2007.522818800062,None,2007.522818800062,None,4,2.035870200023055,2007.522818800062,None,2009.6125154010952,None,2010.133166000247,None,2010.133166000247,None,f,0.5375105999410152,2010.133166000247,None,,,NC 33,001,2022_Apr_05_1547,ProdSingRedo,3.2.3,60.07990624027698,
,,,,166,0,166,0,,,,,,,,,,,,,,,,,,,,,,,,2015.262735100463,None,,,,,,,,,,,,,,,,,collection,silent,white,166,81,54,2011.2172954007983,None,2011.2172954007983,None,6,3.1091510988771915,2011.2172954007983,None,2014.3688198011369,None,2014.872151600197,None,2014.872151600197,None,r,0.3584118001163006,2014.872151600197,None,,,NC 33,001,2022_Apr_05_1547,ProdSingRedo,3.2.3,60.07990624027698,
,,,,167,0,167,0,,,,,,,,,,,,,,,,,,,,,,,,2026.44764639996,None,,,,,,,,,,,,,,,,,piece,new_a,white,167,101,221,2015.7836554013193,None,2015.7836554013193,None,4,8.958837199956179,2015.7836554013193,None,2024.7900522015989,None,2025.3097915016115,None,2025.3097915016115,None,f,1.1047322005033493,2025.3097915016115,None,,,NC 33,001,2022_Apr_05_1547,ProdSingRedo,3.2.3,60.07990624027698,
,,,,168,0,168,0,,,,,,,,,,,,,,,,,,,,,,,,2029.2814212013036,None,,,,,,,,,,,,,,,,,century,sing,white,168,6,45,2026.975122300908,None,2026.975122300908,None,6,1.3993333987891674,2026.975122300908,None,2028.4327746015042,None,2028.9531252011657,None,2028.9531252011657,None,r,0.29340939968824387,2028.9531252011657,None,,,NC 33,001,2022_Apr_05_1547,ProdSingRedo,3.2.3,60.07990624027698,
,,,,169,0,169,0,,,,,,,,,,,,,,,,,,,,,,,,2033.0043549016118,None,,,,,,,,,,,,,,,,,raise,new_c,white,169,163,250,2029.807117100805,None,2029.807117100805,None,4,1.9432877004146576,2029.807117100805,None,2031.7926391009241,None,2032.3060416001827,None,2032.3060416001827,None,r,0.668113199993968,2032.3060416001827,None,,,NC 33,001,2022_Apr_05_1547,ProdSingRedo,3.2.3,60.07990624027698,
,,,,170,0,170,0,,,,,,,,,,,,,,,,,,,,,,,,2035.8976707998663,None,,,,,,,,,,,,,,,,,staff,aloud,white,170,48,301,2033.5225889012218,None,2033.5225889012218,None,6,1.5719785001128912,2033.5225889012218,None,2035.1438114009798,None,2035.663454901427,None,2035.663454901427,None,r,0.19898569956421852,2035.663454901427,None,,,NC 33,001,2022_Apr_05_1547,ProdSingRedo,3.2.3,60.07990624027698,
,,,,171,0,171,0,,,,,,,,,,,,,,,,,,,,,,,,2039.2657695002854,None,,,,,,,,,,,,,,,,,mechanical,new_c,white,171,178,185,2036.4117508009076,None,2036.4117508009076,None,2,1.91473220102489,2036.4117508009076,None,2038.3753772005439,None,2038.902157600969,None,2038.902157600969,None,n,0.3366087004542351,2038.902157600969,None,,,NC 33,001,2022_Apr_05_1547,ProdSingRedo,3.2.3,60.07990624027698,
,,,,172,0,172,0,,,,,,,,,,,,,,,,,,,,,,,,2042.8983910009265,None,,,,,,,,,,,,,,,,,meeting,new_a,white,172,112,187,2039.7901473008096,None,2039.7901473008096,None,6,1.8243453986942768,2039.7901473008096,None,2041.6633048001677,None,2042.173776300624,None,2042.173776300624,None,f,0.6887047998607159,2042.173776300624,None,,,NC 33,001,2022_Apr_05_1547,ProdSingRedo,3.2.3,60.07990624027698,
,,,,173,0,173,0,,,,,,,,,,,,,,,,,,,,,,,,2045.713204300031,None,,,,,,,,,,,,,,,,,material,silent,white,173,75,182,2043.4275495000184,None,2043.4275495000184,None,3,1.4028646014630795,2043.4275495000184,None,2044.8782909009606,None,2045.4029114004225,None,2045.4029114004225,None,n,0.2754938993602991,2045.4029114004225,None,,,NC 33,001,2022_Apr_05_1547,ProdSingRedo,3.2.3,60.07990624027698,
,,,,174,0,174,0,,,,,,,,,,,,,,,,,,,,,,,,2049.615517200902,None,,,,,,,,,,,,,,,,,course,sing,white,174,16,74,2046.2348379008472,None,2046.2348379008472,None,5,2.467578100040555,2046.2348379008472,None,2048.746972899884,None,2049.2704719007015,None,2049.2704719007015,None,r,0.31198730133473873,2049.2704719007015,None,,,NC 33,001,2022_Apr_05_1547,ProdSingRedo,3.2.3,60.07990624027698,
,,,,175,0,175,0,,,,,,,,,,,,,,,,,,,,,,,,2052.0404582004994,None,,,,,,,,,,,,,,,,,management,new_b,white,175,135,177,2050.145922301337,None,2050.145922301337,None,3,1.2691024001687765,2050.145922301337,None,2051.468373199925,None,2051.9865738004446,None,2051.9865738004446,None,n,0.027708400040864944,2051.9865738004446,None,,,NC 33,001,2022_Apr_05_1547,ProdSingRedo,3.2.3,60.07990624027698,
,,,,176,0,176,0,,,,,,,,,,,,,,,,,,,,,,,,2055.28267659992,None,,,,,,,,,,,,,,,,,swift,sing,white,176,21,320,2052.5755468010902,None,2052.5755468010902,None,6,2.0149674005806446,2052.5755468010902,None,2054.627486500889,None,2055.1533787008375,None,2055.1533787008375,None,r,0.10131440125405788,2055.1533787008375,None,,,NC 33,001,2022_Apr_05_1547,ProdSingRedo,3.2.3,60.07990624027698,
,,,,177,0,177,0,,,,,,,,,,,,,,,,,,,,,,,,2057.808092901483,None,,,,,,,,,,,,,,,,,comedy,aloud,white,177,30,58,2055.808254601434,None,2055.808254601434,None,6,1.2463429998606443,2055.808254601434,None,2057.0852883011103,None,2057.601881701499,None,2057.601881701499,None,r,0.18823779933154583,2057.601881701499,None,,,NC 33,001,2022_Apr_05_1547,ProdSingRedo,3.2.3,60.07990624027698,
,,,,178,0,178,0,,,,,,,,,,,,,,,,,,,,,,,,2063.0565991010517,None,,,,,,,,,,,,,,,,,institute,new_a,white,178,108,162,2058.3429910000414,None,2058.3429910000414,None,4,2.2634900007396936,2058.3429910000414,None,2060.65295150131,None,2061.1724984999746,None,2061.1724984999746,None,f,1.8658101987093687,2061.1724984999746,None,,,NC 33,001,2022_Apr_05_1547,ProdSingRedo,3.2.3,60.07990624027698,
,,,,179,0,179,0,,,,,,,,,,,,,,,,,,,,,,,,2068.4989893008024,None,,,,,,,,,,,,,,,,,portion,sing,white,179,28,228,2063.5714976005256,None,2063.5714976005256,None,3,2.786830998957157,2063.5714976005256,None,2066.3939808011055,None,2066.9181352015585,None,2066.9181352015585,None,f,1.5524126999080181,2066.9181352015585,None,,,NC 33,001,2022_Apr_05_1547,ProdSingRedo,3.2.3,60.07990624027698,
,,,,,,,,,,,,,,,,,,,,,,,,,,,,,,,,,,,,,,,,,,,,,,,,,,,,,,,,,,,,,,,,,,,,,,,,,2069.008416701108,None,,,,,,,
