StudyLoop.thisRepN,StudyLoop.thisTrialN,StudyLoop.thisN,StudyLoop.thisIndex,TestLoop.thisRepN,TestLoop.thisTrialN,TestLoop.thisN,TestLoop.thisIndex,keyCondition.keys,keyCondition.rt,Condition,stim_colors,color_sing,color_aloud,color_silent,keyWelcome.keys,keyWelcome.rt,study_word,study_type,study_color,study_num,study_word_num,keyStudy.keys,key_resp_3.keys,key_resp_3.rt,testWord,testType,testColor,testN,test_num,test_word_num,keyConf.keys,keyConf.rt,keyRKN.keys,keyRKN.rt,date,frameRate,expName,session,participant,
,,,,,,,,n,3.55345360001,,,,,,,,,,,,,,,,,,,,,,,,,,2022_Mar_28_0955,59.8777655258,ProdSingRedo,001,NC 32,
,,,,,,,,,,NeutralTest,"['blue', 'red', 'yellow']",blue,red,yellow,space,260.8870596,,,,,,,,,,,,,,,,,,,2022_Mar_28_0955,59.8777655258,ProdSingRedo,001,NC 32,
0,0,0,0,,,,,,,,,,,,,,pancakes,sing,blue,2,210,None,,,,,,,,,,,,,2022_Mar_28_0955,59.8777655258,ProdSingRedo,001,NC 32,
1,0,1,0,,,,,,,,,,,,,,ground,aloud,red,54,142,None,,,,,,,,,,,,,2022_Mar_28_0955,59.8777655258,ProdSingRedo,001,NC 32,
2,0,2,0,,,,,,,,,,,,,,election,aloud,red,41,109,None,,,,,,,,,,,,,2022_Mar_28_0955,59.8777655258,ProdSingRedo,001,NC 32,
3,0,3,0,,,,,,,,,,,,,,worker,sing,blue,14,356,None,,,,,,,,,,,,,2022_Mar_28_0955,59.8777655258,ProdSingRedo,001,NC 32,
4,0,4,0,,,,,,,,,,,,,,space,silent,yellow,80,297,None,,,,,,,,,,,,,2022_Mar_28_0955,59.8777655258,ProdSingRedo,001,NC 32,
5,0,5,0,,,,,,,,,,,,,,harmony,silent,yellow,76,148,None,,,,,,,,,,,,,2022_Mar_28_0955,59.8777655258,ProdSingRedo,001,NC 32,
6,0,6,0,,,,,,,,,,,,,,reach,aloud,red,51,253,None,,,,,,,,,,,,,2022_Mar_28_0955,59.8777655258,ProdSingRedo,001,NC 32,
7,0,7,0,,,,,,,,,,,,,,answer,aloud,red,50,8,None,,,,,,,,,,,,,2022_Mar_28_0955,59.8777655258,ProdSingRedo,001,NC 32,
8,0,8,0,,,,,,,,,,,,,,rural,silent,yellow,87,269,None,,,,,,,,,,,,,2022_Mar_28_0955,59.8777655258,ProdSingRedo,001,NC 32,
9,0,9,0,,,,,,,,,,,,,,threat,silent,yellow,66,329,None,,,,,,,,,,,,,2022_Mar_28_0955,59.8777655258,ProdSingRedo,001,NC 32,
10,0,10,0,,,,,,,,,,,,,,turkey,aloud,red,52,342,None,,,,,,,,,,,,,2022_Mar_28_0955,59.8777655258,ProdSingRedo,001,NC 32,
11,0,11,0,,,,,,,,,,,,,,escape,aloud,red,34,118,None,,,,,,,,,,,,,2022_Mar_28_0955,59.8777655258,ProdSingRedo,001,NC 32,
12,0,12,0,,,,,,,,,,,,,,capital,sing,blue,16,40,None,,,,,,,,,,,,,2022_Mar_28_0955,59.8777655258,ProdSingRedo,001,NC 32,
13,0,13,0,,,,,,,,,,,,,,division,aloud,red,44,101,None,,,,,,,,,,,,,2022_Mar_28_0955,59.8777655258,ProdSingRedo,001,NC 32,
14,0,14,0,,,,,,,,,,,,,,surface,aloud,red,46,316,None,,,,,,,,,,,,,2022_Mar_28_0955,59.8777655258,ProdSingRedo,001,NC 32,
15,0,15,0,,,,,,,,,,,,,,employment,sing,blue,10,111,None,,,,,,,,,,,,,2022_Mar_28_0955,59.8777655258,ProdSingRedo,001,NC 32,
16,0,16,0,,,,,,,,,,,,,,heavy,aloud,red,58,151,None,,,,,,,,,,,,,2022_Mar_28_0955,59.8777655258,ProdSingRedo,001,NC 32,
17,0,17,0,,,,,,,,,,,,,,foundation,sing,blue,19,132,None,,,,,,,,,,,,,2022_Mar_28_0955,59.8777655258,ProdSingRedo,001,NC 32,
18,0,18,0,,,,,,,,,,,,,,substance,silent,yellow,61,313,None,,,,,,,,,,,,,2022_Mar_28_0955,59.8777655258,ProdSingRedo,001,NC 32,
19,0,19,0,,,,,,,,,,,,,,minor,aloud,red,36,191,None,,,,,,,,,,,,,2022_Mar_28_0955,59.8777655258,ProdSingRedo,001,NC 32,
20,0,20,0,,,,,,,,,,,,,,minute,silent,yellow,78,192,None,,,,,,,,,,,,,2022_Mar_28_0955,59.8777655258,ProdSingRedo,001,NC 32,
21,0,21,0,,,,,,,,,,,,,,marriage,silent,yellow,88,179,None,,,,,,,,,,,,,2022_Mar_28_0955,59.8777655258,ProdSingRedo,001,NC 32,
22,0,22,0,,,,,,,,,,,,,,youth,silent,yellow,79,359,None,,,,,,,,,,,,,2022_Mar_28_0955,59.8777655258,ProdSingRedo,001,NC 32,
23,0,23,0,,,,,,,,,,,,,,sound,sing,blue,1,295,None,,,,,,,,,,,,,2022_Mar_28_0955,59.8777655258,ProdSingRedo,001,NC 32,
24,0,24,0,,,,,,,,,,,,,,recall,silent,yellow,77,255,None,,,,,,,,,,,,,2022_Mar_28_0955,59.8777655258,ProdSingRedo,001,NC 32,
25,0,25,0,,,,,,,,,,,,,,dispute,sing,blue,12,99,None,,,,,,,,,,,,,2022_Mar_28_0955,59.8777655258,ProdSingRedo,001,NC 32,
26,0,26,0,,,,,,,,,,,,,,cross,aloud,red,35,80,None,,,,,,,,,,,,,2022_Mar_28_0955,59.8777655258,ProdSingRedo,001,NC 32,
27,0,27,0,,,,,,,,,,,,,,drama,sing,blue,11,103,None,,,,,,,,,,,,,2022_Mar_28_0955,59.8777655258,ProdSingRedo,001,NC 32,
28,0,28,0,,,,,,,,,,,,,,religion,silent,yellow,81,258,None,,,,,,,,,,,,,2022_Mar_28_0955,59.8777655258,ProdSingRedo,001,NC 32,
29,0,29,0,,,,,,,,,,,,,,prime,sing,blue,29,235,None,,,,,,,,,,,,,2022_Mar_28_0955,59.8777655258,ProdSingRedo,001,NC 32,
30,0,30,0,,,,,,,,,,,,,,appeal,sing,blue,5,9,None,,,,,,,,,,,,,2022_Mar_28_0955,59.8777655258,ProdSingRedo,001,NC 32,
31,0,31,0,,,,,,,,,,,,,,message,silent,yellow,69,189,None,,,,,,,,,,,,,2022_Mar_28_0955,59.8777655258,ProdSingRedo,001,NC 32,
32,0,32,0,,,,,,,,,,,,,,judge,aloud,red,30,166,None,,,,,,,,,,,,,2022_Mar_28_0955,59.8777655258,ProdSingRedo,001,NC 32,
33,0,33,0,,,,,,,,,,,,,,science,silent,yellow,74,275,None,,,,,,,,,,,,,2022_Mar_28_0955,59.8777655258,ProdSingRedo,001,NC 32,
34,0,34,0,,,,,,,,,,,,,,novel,silent,yellow,72,202,None,,,,,,,,,,,,,2022_Mar_28_0955,59.8777655258,ProdSingRedo,001,NC 32,
35,0,35,0,,,,,,,,,,,,,,colonel,sing,blue,6,55,None,,,,,,,,,,,,,2022_Mar_28_0955,59.8777655258,ProdSingRedo,001,NC 32,
36,0,36,0,,,,,,,,,,,,,,master,sing,blue,24,180,None,,,,,,,,,,,,,2022_Mar_28_0955,59.8777655258,ProdSingRedo,001,NC 32,
37,0,37,0,,,,,,,,,,,,,,light,sing,blue,22,171,None,,,,,,,,,,,,,2022_Mar_28_0955,59.8777655258,ProdSingRedo,001,NC 32,
38,0,38,0,,,,,,,,,,,,,,short,aloud,red,53,285,None,,,,,,,,,,,,,2022_Mar_28_0955,59.8777655258,ProdSingRedo,001,NC 32,
39,0,39,0,,,,,,,,,,,,,,title,silent,yellow,75,331,None,,,,,,,,,,,,,2022_Mar_28_0955,59.8777655258,ProdSingRedo,001,NC 32,
40,0,40,0,,,,,,,,,,,,,,guide,aloud,red,39,147,None,,,,,,,,,,,,,2022_Mar_28_0955,59.8777655258,ProdSingRedo,001,NC 32,
41,0,41,0,,,,,,,,,,,,,,fashion,sing,blue,21,125,None,,,,,,,,,,,,,2022_Mar_28_0955,59.8777655258,ProdSingRedo,001,NC 32,
42,0,42,0,,,,,,,,,,,,,,fellow,aloud,red,48,126,None,,,,,,,,,,,,,2022_Mar_28_0955,59.8777655258,ProdSingRedo,001,NC 32,
43,0,43,0,,,,,,,,,,,,,,thing,sing,blue,15,328,None,,,,,,,,,,,,,2022_Mar_28_0955,59.8777655258,ProdSingRedo,001,NC 32,
44,0,44,0,,,,,,,,,,,,,,angle,sing,blue,26,7,None,,,,,,,,,,,,,2022_Mar_28_0955,59.8777655258,ProdSingRedo,001,NC 32,
45,0,45,0,,,,,,,,,,,,,,express,aloud,red,59,124,None,,,,,,,,,,,,,2022_Mar_28_0955,59.8777655258,ProdSingRedo,001,NC 32,
46,0,46,0,,,,,,,,,,,,,,scale,aloud,red,31,272,None,,,,,,,,,,,,,2022_Mar_28_0955,59.8777655258,ProdSingRedo,001,NC 32,
47,0,47,0,,,,,,,,,,,,,,cousin,aloud,red,32,76,None,,,,,,,,,,,,,2022_Mar_28_0955,59.8777655258,ProdSingRedo,001,NC 32,
48,0,48,0,,,,,,,,,,,,,,story,aloud,red,55,306,None,,,,,,,,,,,,,2022_Mar_28_0955,59.8777655258,ProdSingRedo,001,NC 32,
49,0,49,0,,,,,,,,,,,,,,bright,aloud,red,56,29,None,,,,,,,,,,,,,2022_Mar_28_0955,59.8777655258,ProdSingRedo,001,NC 32,
50,0,50,0,,,,,,,,,,,,,,company,sing,blue,20,64,None,,,,,,,,,,,,,2022_Mar_28_0955,59.8777655258,ProdSingRedo,001,NC 32,
51,0,51,0,,,,,,,,,,,,,,period,silent,yellow,60,217,None,,,,,,,,,,,,,2022_Mar_28_0955,59.8777655258,ProdSingRedo,001,NC 32,
52,0,52,0,,,,,,,,,,,,,,solution,sing,blue,9,294,None,,,,,,,,,,,,,2022_Mar_28_0955,59.8777655258,ProdSingRedo,001,NC 32,
53,0,53,0,,,,,,,,,,,,,,century,sing,blue,8,45,None,,,,,,,,,,,,,2022_Mar_28_0955,59.8777655258,ProdSingRedo,001,NC 32,
54,0,54,0,,,,,,,,,,,,,,clean,sing,blue,7,51,None,,,,,,,,,,,,,2022_Mar_28_0955,59.8777655258,ProdSingRedo,001,NC 32,
55,0,55,0,,,,,,,,,,,,,,childhood,silent,yellow,68,49,None,,,,,,,,,,,,,2022_Mar_28_0955,59.8777655258,ProdSingRedo,001,NC 32,
56,0,56,0,,,,,,,,,,,,,,session,sing,blue,3,281,None,,,,,,,,,,,,,2022_Mar_28_0955,59.8777655258,ProdSingRedo,001,NC 32,
57,0,57,0,,,,,,,,,,,,,,suggestion,silent,yellow,70,314,None,,,,,,,,,,,,,2022_Mar_28_0955,59.8777655258,ProdSingRedo,001,NC 32,
58,0,58,0,,,,,,,,,,,,,,death,silent,yellow,71,86,None,,,,,,,,,,,,,2022_Mar_28_0955,59.8777655258,ProdSingRedo,001,NC 32,
59,0,59,0,,,,,,,,,,,,,,dozen,sing,blue,25,102,None,,,,,,,,,,,,,2022_Mar_28_0955,59.8777655258,ProdSingRedo,001,NC 32,
60,0,60,0,,,,,,,,,,,,,,defeat,aloud,red,38,88,None,,,,,,,,,,,,,2022_Mar_28_0955,59.8777655258,ProdSingRedo,001,NC 32,
61,0,61,0,,,,,,,,,,,,,,concern,silent,yellow,89,65,None,,,,,,,,,,,,,2022_Mar_28_0955,59.8777655258,ProdSingRedo,001,NC 32,
62,0,62,0,,,,,,,,,,,,,,dream,aloud,red,45,104,None,,,,,,,,,,,,,2022_Mar_28_0955,59.8777655258,ProdSingRedo,001,NC 32,
63,0,63,0,,,,,,,,,,,,,,pretty,sing,blue,27,233,None,,,,,,,,,,,,,2022_Mar_28_0955,59.8777655258,ProdSingRedo,001,NC 32,
64,0,64,0,,,,,,,,,,,,,,still,aloud,red,49,304,None,,,,,,,,,,,,,2022_Mar_28_0955,59.8777655258,ProdSingRedo,001,NC 32,
65,0,65,0,,,,,,,,,,,,,,order,sing,blue,17,207,None,,,,,,,,,,,,,2022_Mar_28_0955,59.8777655258,ProdSingRedo,001,NC 32,
66,0,66,0,,,,,,,,,,,,,,evidence,silent,yellow,73,120,None,,,,,,,,,,,,,2022_Mar_28_0955,59.8777655258,ProdSingRedo,001,NC 32,
67,0,67,0,,,,,,,,,,,,,,quiet,aloud,red,42,249,None,,,,,,,,,,,,,2022_Mar_28_0955,59.8777655258,ProdSingRedo,001,NC 32,
68,0,68,0,,,,,,,,,,,,,,author,silent,yellow,83,15,None,,,,,,,,,,,,,2022_Mar_28_0955,59.8777655258,ProdSingRedo,001,NC 32,
69,0,69,0,,,,,,,,,,,,,,incident,silent,yellow,62,158,None,,,,,,,,,,,,,2022_Mar_28_0955,59.8777655258,ProdSingRedo,001,NC 32,
70,0,70,0,,,,,,,,,,,,,,sleep,aloud,red,57,290,None,,,,,,,,,,,,,2022_Mar_28_0955,59.8777655258,ProdSingRedo,001,NC 32,
71,0,71,0,,,,,,,,,,,,,,crowd,aloud,red,43,81,None,,,,,,,,,,,,,2022_Mar_28_0955,59.8777655258,ProdSingRedo,001,NC 32,
72,0,72,0,,,,,,,,,,,,,,bucket,silent,yellow,85,33,None,,,,,,,,,,,,,2022_Mar_28_0955,59.8777655258,ProdSingRedo,001,NC 32,
73,0,73,0,,,,,,,,,,,,,,personnel,sing,blue,18,219,None,,,,,,,,,,,,,2022_Mar_28_0955,59.8777655258,ProdSingRedo,001,NC 32,
74,0,74,0,,,,,,,,,,,,,,speech,sing,blue,13,298,None,,,,,,,,,,,,,2022_Mar_28_0955,59.8777655258,ProdSingRedo,001,NC 32,
75,0,75,0,,,,,,,,,,,,,,character,aloud,red,33,46,None,,,,,,,,,,,,,2022_Mar_28_0955,59.8777655258,ProdSingRedo,001,NC 32,
76,0,76,0,,,,,,,,,,,,,,impact,aloud,red,47,157,None,,,,,,,,,,,,,2022_Mar_28_0955,59.8777655258,ProdSingRedo,001,NC 32,
77,0,77,0,,,,,,,,,,,,,,music,silent,yellow,67,196,None,,,,,,,,,,,,,2022_Mar_28_0955,59.8777655258,ProdSingRedo,001,NC 32,
78,0,78,0,,,,,,,,,,,,,,generation,sing,blue,28,136,None,,,,,,,,,,,,,2022_Mar_28_0955,59.8777655258,ProdSingRedo,001,NC 32,
79,0,79,0,,,,,,,,,,,,,,shock,silent,yellow,64,284,None,,,,,,,,,,,,,2022_Mar_28_0955,59.8777655258,ProdSingRedo,001,NC 32,
80,0,80,0,,,,,,,,,,,,,,committee,silent,yellow,84,62,None,,,,,,,,,,,,,2022_Mar_28_0955,59.8777655258,ProdSingRedo,001,NC 32,
81,0,81,0,,,,,,,,,,,,,,spoke,silent,yellow,63,300,None,,,,,,,,,,,,,2022_Mar_28_0955,59.8777655258,ProdSingRedo,001,NC 32,
82,0,82,0,,,,,,,,,,,,,,discovery,silent,yellow,82,95,None,,,,,,,,,,,,,2022_Mar_28_0955,59.8777655258,ProdSingRedo,001,NC 32,
83,0,83,0,,,,,,,,,,,,,,place,sing,blue,0,222,None,,,,,,,,,,,,,2022_Mar_28_0955,59.8777655258,ProdSingRedo,001,NC 32,
84,0,84,0,,,,,,,,,,,,,,bicycle,aloud,red,37,21,None,,,,,,,,,,,,,2022_Mar_28_0955,59.8777655258,ProdSingRedo,001,NC 32,
85,0,85,0,,,,,,,,,,,,,,season,silent,yellow,65,277,None,,,,,,,,,,,,,2022_Mar_28_0955,59.8777655258,ProdSingRedo,001,NC 32,
86,0,86,0,,,,,,,,,,,,,,safety,sing,blue,4,270,None,,,,,,,,,,,,,2022_Mar_28_0955,59.8777655258,ProdSingRedo,001,NC 32,
87,0,87,0,,,,,,,,,,,,,,community,silent,yellow,86,63,None,,,,,,,,,,,,,2022_Mar_28_0955,59.8777655258,ProdSingRedo,001,NC 32,
88,0,88,0,,,,,,,,,,,,,,service,sing,blue,23,280,None,,,,,,,,,,,,,2022_Mar_28_0955,59.8777655258,ProdSingRedo,001,NC 32,
89,0,89,0,,,,,,,,,,,,,,alert,aloud,red,40,6,None,,,,,,,,,,,,,2022_Mar_28_0955,59.8777655258,ProdSingRedo,001,NC 32,
,,,,,,,,,,,,,,,,,,,,,,,k,109.0582615,,,,,,,,,,,2022_Mar_28_0955,59.8777655258,ProdSingRedo,001,NC 32,
,,,,0,0,0,0,,,,,,,,,,,,,,,,,,pattern,new_a,white,0,100,214,1,26.4520862,n,17.0301487,2022_Mar_28_0955,59.8777655258,ProdSingRedo,001,NC 32,
,,,,1,0,1,0,,,,,,,,,,,,,,,,,,debate,new_a,white,1,97,87,2,4.45116609999,n,2.2117783,2022_Mar_28_0955,59.8777655258,ProdSingRedo,001,NC 32,
,,,,2,0,2,0,,,,,,,,,,,,,,,,,,science,silent,white,2,74,275,6,5.08400060001,r,2.0864574,2022_Mar_28_0955,59.8777655258,ProdSingRedo,001,NC 32,
,,,,3,0,3,0,,,,,,,,,,,,,,,,,,agreement,new_b,white,3,121,5,4,4.46228789998,f,0.969928400009,2022_Mar_28_0955,59.8777655258,ProdSingRedo,001,NC 32,
,,,,4,0,4,0,,,,,,,,,,,,,,,,,,short,aloud,white,4,53,285,5,3.63319989998,f,0.92373889999,2022_Mar_28_0955,59.8777655258,ProdSingRedo,001,NC 32,
,,,,5,0,5,0,,,,,,,,,,,,,,,,,,nature,new_c,white,5,160,200,1,1.8995617,n,0.9002798,2022_Mar_28_0955,59.8777655258,ProdSingRedo,001,NC 32,
,,,,6,0,6,0,,,,,,,,,,,,,,,,,,prime,sing,white,6,29,235,1,2.55300859999,n,0.379464900005,2022_Mar_28_0955,59.8777655258,ProdSingRedo,001,NC 32,
,,,,7,0,7,0,,,,,,,,,,,,,,,,,,poetry,new_c,white,7,152,225,3,3.80090499998,n,1.03323119998,2022_Mar_28_0955,59.8777655258,ProdSingRedo,001,NC 32,
,,,,8,0,8,0,,,,,,,,,,,,,,,,,,brilliant,new_a,white,8,91,30,1,2.4194284,n,0.249513799994,2022_Mar_28_0955,59.8777655258,ProdSingRedo,001,NC 32,
,,,,9,0,9,0,,,,,,,,,,,,,,,,,,author,silent,white,9,83,15,2,3.95086360001,n,0.633434099989,2022_Mar_28_0955,59.8777655258,ProdSingRedo,001,NC 32,
,,,,10,0,10,0,,,,,,,,,,,,,,,,,,community,silent,white,10,86,63,5,3.1609584,f,0.308723900001,2022_Mar_28_0955,59.8777655258,ProdSingRedo,001,NC 32,
,,,,11,0,11,0,,,,,,,,,,,,,,,,,,watch,new_b,white,11,125,351,1,4.31617110001,n,0.887332399987,2022_Mar_28_0955,59.8777655258,ProdSingRedo,001,NC 32,
,,,,12,0,12,0,,,,,,,,,,,,,,,,,,breath,new_b,white,12,131,27,1,2.61285219999,n,0.467179600004,2022_Mar_28_0955,59.8777655258,ProdSingRedo,001,NC 32,
,,,,13,0,13,0,,,,,,,,,,,,,,,,,,capital,sing,white,13,16,40,2,2.63728559998,n,0.268546300009,2022_Mar_28_0955,59.8777655258,ProdSingRedo,001,NC 32,
,,,,14,0,14,0,,,,,,,,,,,,,,,,,,payment,new_a,white,14,117,215,3,2.71803330001,n,0.451480399992,2022_Mar_28_0955,59.8777655258,ProdSingRedo,001,NC 32,
,,,,15,0,15,0,,,,,,,,,,,,,,,,,,dispute,sing,white,15,12,99,1,1.15051499999,n,0.317251499975,2022_Mar_28_0955,59.8777655258,ProdSingRedo,001,NC 32,
,,,,16,0,16,0,,,,,,,,,,,,,,,,,,foundation,sing,white,16,19,132,1,1.83457000001,n,0.328811099986,2022_Mar_28_0955,59.8777655258,ProdSingRedo,001,NC 32,
,,,,17,0,17,0,,,,,,,,,,,,,,,,,,suggestion,silent,white,17,70,314,1,1.20751410001,n,1.35134009999,2022_Mar_28_0955,59.8777655258,ProdSingRedo,001,NC 32,
,,,,18,0,18,0,,,,,,,,,,,,,,,,,,oxygen,new_c,white,18,176,209,1,1.21225500002,n,0.284610800009,2022_Mar_28_0955,59.8777655258,ProdSingRedo,001,NC 32,
,,,,19,0,19,0,,,,,,,,,,,,,,,,,,provision,new_c,white,19,174,243,1,2.55922990001,n,0.221210599993,2022_Mar_28_0955,59.8777655258,ProdSingRedo,001,NC 32,
,,,,20,0,20,0,,,,,,,,,,,,,,,,,,weather,new_c,white,20,162,352,1,1.7271279,n,0.369578100013,2022_Mar_28_0955,59.8777655258,ProdSingRedo,001,NC 32,
,,,,21,0,21,0,,,,,,,,,,,,,,,,,,appeal,sing,white,21,5,9,5,2.22738569998,f,0.314457200002,2022_Mar_28_0955,59.8777655258,ProdSingRedo,001,NC 32,
,,,,22,0,22,0,,,,,,,,,,,,,,,,,,clear,new_b,white,22,148,52,3,2.10765580001,n,0.469924799982,2022_Mar_28_0955,59.8777655258,ProdSingRedo,001,NC 32,
,,,,23,0,23,0,,,,,,,,,,,,,,,,,,still,aloud,white,23,49,304,4,2.85086619999,f,0.24113390001,2022_Mar_28_0955,59.8777655258,ProdSingRedo,001,NC 32,
,,,,24,0,24,0,,,,,,,,,,,,,,,,,,place,sing,white,24,0,222,6,1.61753009999,r,2.37055999998,2022_Mar_28_0955,59.8777655258,ProdSingRedo,001,NC 32,
,,,,25,0,25,0,,,,,,,,,,,,,,,,,,shock,silent,white,25,64,284,3,1.99498250001,n,0.666278899997,2022_Mar_28_0955,59.8777655258,ProdSingRedo,001,NC 32,
,,,,26,0,26,0,,,,,,,,,,,,,,,,,,clean,sing,white,26,7,51,3,1.4334105,n,0.253599899996,2022_Mar_28_0955,59.8777655258,ProdSingRedo,001,NC 32,
,,,,27,0,27,0,,,,,,,,,,,,,,,,,,concern,silent,white,27,89,65,1,1.39931109999,n,0.219388099998,2022_Mar_28_0955,59.8777655258,ProdSingRedo,001,NC 32,
,,,,28,0,28,0,,,,,,,,,,,,,,,,,,comedy,new_c,white,28,158,58,2,2.4284765,n,0.255054700014,2022_Mar_28_0955,59.8777655258,ProdSingRedo,001,NC 32,
,,,,29,0,29,0,,,,,,,,,,,,,,,,,,scale,aloud,white,29,31,272,6,1.73571010001,r,4.3845095,2022_Mar_28_0955,59.8777655258,ProdSingRedo,001,NC 32,
,,,,30,0,30,0,,,,,,,,,,,,,,,,,,division,aloud,white,30,44,101,6,2.39104459999,f,0.287338399998,2022_Mar_28_0955,59.8777655258,ProdSingRedo,001,NC 32,
,,,,31,0,31,0,,,,,,,,,,,,,,,,,,escape,aloud,white,31,34,118,4,2.68244229999,f,0.582106799993,2022_Mar_28_0955,59.8777655258,ProdSingRedo,001,NC 32,
,,,,32,0,32,0,,,,,,,,,,,,,,,,,,colonel,sing,white,32,6,55,6,1.58619160001,r,0.3227204,2022_Mar_28_0955,59.8777655258,ProdSingRedo,001,NC 32,
,,,,33,0,33,0,,,,,,,,,,,,,,,,,,build,new_b,white,33,143,35,5,3.63182939999,f,0.182983700011,2022_Mar_28_0955,59.8777655258,ProdSingRedo,001,NC 32,
,,,,34,0,34,0,,,,,,,,,,,,,,,,,,gesture,new_b,white,34,127,137,1,1.59432439998,n,0.783531299996,2022_Mar_28_0955,59.8777655258,ProdSingRedo,001,NC 32,
,,,,35,0,35,0,,,,,,,,,,,,,,,,,,union,new_c,white,35,157,344,1,1.17221980001,n,0.252533499995,2022_Mar_28_0955,59.8777655258,ProdSingRedo,001,NC 32,
,,,,36,0,36,0,,,,,,,,,,,,,,,,,,season,silent,white,36,65,277,4,1.74794999999,f,0.0968960000027,2022_Mar_28_0955,59.8777655258,ProdSingRedo,001,NC 32,
,,,,37,0,37,0,,,,,,,,,,,,,,,,,,answer,aloud,white,37,50,8,3,1.49015669999,n,0.396233599982,2022_Mar_28_0955,59.8777655258,ProdSingRedo,001,NC 32,
,,,,38,0,38,0,,,,,,,,,,,,,,,,,,smell,new_b,white,38,145,291,1,0.827954699984,n,0.254427699983,2022_Mar_28_0955,59.8777655258,ProdSingRedo,001,NC 32,
,,,,39,0,39,0,,,,,,,,,,,,,,,,,,relation,new_a,white,39,106,257,1,1.44586579999,n,0.246736300003,2022_Mar_28_0955,59.8777655258,ProdSingRedo,001,NC 32,
,,,,40,0,40,0,,,,,,,,,,,,,,,,,,burden,new_a,white,40,94,36,1,0.720656299993,n,0.297755100008,2022_Mar_28_0955,59.8777655258,ProdSingRedo,001,NC 32,
,,,,41,0,41,0,,,,,,,,,,,,,,,,,,symbol,new_a,white,41,118,321,1,2.14447930001,n,0.167078999977,2022_Mar_28_0955,59.8777655258,ProdSingRedo,001,NC 32,
,,,,42,0,42,0,,,,,,,,,,,,,,,,,,harmony,silent,white,42,76,148,6,2.13110599999,r,0.3403024,2022_Mar_28_0955,59.8777655258,ProdSingRedo,001,NC 32,
,,,,43,0,43,0,,,,,,,,,,,,,,,,,,personnel,sing,white,43,18,219,6,1.52682129998,r,0.935435299994,2022_Mar_28_0955,59.8777655258,ProdSingRedo,001,NC 32,
,,,,44,0,44,0,,,,,,,,,,,,,,,,,,device,new_b,white,44,136,93,3,1.59883179999,n,0.494187100005,2022_Mar_28_0955,59.8777655258,ProdSingRedo,001,NC 32,
,,,,45,0,45,0,,,,,,,,,,,,,,,,,,religion,silent,white,45,81,258,1,1.4795012,n,0.2325748,2022_Mar_28_0955,59.8777655258,ProdSingRedo,001,NC 32,
,,,,46,0,46,0,,,,,,,,,,,,,,,,,,rural,silent,white,46,87,269,1,0.913326800015,n,0.215199700004,2022_Mar_28_0955,59.8777655258,ProdSingRedo,001,NC 32,
,,,,47,0,47,0,,,,,,,,,,,,,,,,,,bicycle,aloud,white,47,37,21,5,2.88918690002,f,0.131460400007,2022_Mar_28_0955,59.8777655258,ProdSingRedo,001,NC 32,
,,,,48,0,48,0,,,,,,,,,,,,,,,,,,treatment,new_a,white,48,112,339,2,2.37155400001,n,0.145385000011,2022_Mar_28_0955,59.8777655258,ProdSingRedo,001,NC 32,
,,,,49,0,49,0,,,,,,,,,,,,,,,,,,heavy,aloud,white,49,58,151,1,1.2140911,n,0.230829500011,2022_Mar_28_0955,59.8777655258,ProdSingRedo,001,NC 32,
,,,,50,0,50,0,,,,,,,,,,,,,,,,,,color,new_a,white,50,90,56,4,2.9846536,f,0.274551300012,2022_Mar_28_0955,59.8777655258,ProdSingRedo,001,NC 32,
,,,,51,0,51,0,,,,,,,,,,,,,,,,,,research,new_a,white,51,98,261,3,5.34246449999,n,0.414291699999,2022_Mar_28_0955,59.8777655258,ProdSingRedo,001,NC 32,
,,,,52,0,52,0,,,,,,,,,,,,,,,,,,youth,silent,white,52,79,359,2,1.94038089999,n,0.0958261000051,2022_Mar_28_0955,59.8777655258,ProdSingRedo,001,NC 32,
,,,,53,0,53,0,,,,,,,,,,,,,,,,,,couch,new_b,white,53,140,70,1,1.61862369999,n,0.251632500003,2022_Mar_28_0955,59.8777655258,ProdSingRedo,001,NC 32,
,,,,54,0,54,0,,,,,,,,,,,,,,,,,,republic,new_a,white,54,113,260,1,1.02811530003,n,0.344996700005,2022_Mar_28_0955,59.8777655258,ProdSingRedo,001,NC 32,
,,,,55,0,55,0,,,,,,,,,,,,,,,,,,position,new_a,white,55,95,229,3,2.8136318,n,0.250403100014,2022_Mar_28_0955,59.8777655258,ProdSingRedo,001,NC 32,
,,,,56,0,56,0,,,,,,,,,,,,,,,,,,equipment,new_a,white,56,110,116,2,4.72375450001,n,0.180519000016,2022_Mar_28_0955,59.8777655258,ProdSingRedo,001,NC 32,
,,,,57,0,57,0,,,,,,,,,,,,,,,,,,death,silent,white,57,71,86,1,1.13529140002,n,0.0981275999802,2022_Mar_28_0955,59.8777655258,ProdSingRedo,001,NC 32,
,,,,58,0,58,0,,,,,,,,,,,,,,,,,,childhood,silent,white,58,68,49,1,1.01663570001,n,0.116026299977,2022_Mar_28_0955,59.8777655258,ProdSingRedo,001,NC 32,
,,,,59,0,59,0,,,,,,,,,,,,,,,,,,trend,new_b,white,59,142,340,4,5.71663460002,f,0.457540499978,2022_Mar_28_0955,59.8777655258,ProdSingRedo,001,NC 32,
,,,,60,0,60,0,,,,,,,,,,,,,,,,,,mayor,new_a,white,60,102,183,1,1.62940020004,n,0.0782703000004,2022_Mar_28_0955,59.8777655258,ProdSingRedo,001,NC 32,
,,,,61,0,61,0,,,,,,,,,,,,,,,,,,discovery,silent,white,61,82,95,5,1.62717359996,f,0.0753672000137,2022_Mar_28_0955,59.8777655258,ProdSingRedo,001,NC 32,
,,,,62,0,62,0,,,,,,,,,,,,,,,,,,background,new_a,white,62,111,16,4,1.85508020001,f,0.124372099992,2022_Mar_28_0955,59.8777655258,ProdSingRedo,001,NC 32,
,,,,63,0,63,0,,,,,,,,,,,,,,,,,,evidence,silent,white,63,73,120,5,1.42860879999,f,0.247278700001,2022_Mar_28_0955,59.8777655258,ProdSingRedo,001,NC 32,
,,,,64,0,64,0,,,,,,,,,,,,,,,,,,interview,new_c,white,64,172,165,1,1.37695559999,n,0.0218688999885,2022_Mar_28_0955,59.8777655258,ProdSingRedo,001,NC 32,
,,,,65,0,65,0,,,,,,,,,,,,,,,,,,drama,sing,white,65,11,103,6,2.04577070003,r,0.866112500022,2022_Mar_28_0955,59.8777655258,ProdSingRedo,001,NC 32,
,,,,66,0,66,0,,,,,,,,,,,,,,,,,,substance,silent,white,66,61,313,2,1.35084309999,n,0.188380899956,2022_Mar_28_0955,59.8777655258,ProdSingRedo,001,NC 32,
,,,,67,0,67,0,,,,,,,,,,,,,,,,,,region,new_c,white,67,169,256,1,2.6963221,n,0.169691000017,2022_Mar_28_0955,59.8777655258,ProdSingRedo,001,NC 32,
,,,,68,0,68,0,,,,,,,,,,,,,,,,,,novel,silent,white,68,72,202,5,1.52911559999,r,0.355865300051,2022_Mar_28_0955,59.8777655258,ProdSingRedo,001,NC 32,
,,,,69,0,69,0,,,,,,,,,,,,,,,,,,owner,new_b,white,69,137,208,4,4.09779229999,f,0.156705300033,2022_Mar_28_0955,59.8777655258,ProdSingRedo,001,NC 32,
,,,,70,0,70,0,,,,,,,,,,,,,,,,,,sleep,aloud,white,70,57,290,4,5.28853409999,f,0.407417299983,2022_Mar_28_0955,59.8777655258,ProdSingRedo,001,NC 32,
,,,,71,0,71,0,,,,,,,,,,,,,,,,,,reach,aloud,white,71,51,253,5,1.85999030003,f,0.234534099989,2022_Mar_28_0955,59.8777655258,ProdSingRedo,001,NC 32,
,,,,72,0,72,0,,,,,,,,,,,,,,,,,,cousin,aloud,white,72,32,76,2,1.83115680004,n,0.163595899998,2022_Mar_28_0955,59.8777655258,ProdSingRedo,001,NC 32,
,,,,73,0,73,0,,,,,,,,,,,,,,,,,,order,sing,white,73,17,207,1,7.23837769998,n,0.491449599969,2022_Mar_28_0955,59.8777655258,ProdSingRedo,001,NC 32,
,,,,74,0,74,0,,,,,,,,,,,,,,,,,,election,aloud,white,74,41,109,1,1.4125865,n,0.0340210000286,2022_Mar_28_0955,59.8777655258,ProdSingRedo,001,NC 32,
,,,,75,0,75,0,,,,,,,,,,,,,,,,,,measure,new_c,white,75,177,184,1,1.02652249997,n,0.093718899996,2022_Mar_28_0955,59.8777655258,ProdSingRedo,001,NC 32,
,,,,76,0,76,0,,,,,,,,,,,,,,,,,,threat,silent,white,76,66,329,2,2.47786049999,n,0.101915599953,2022_Mar_28_0955,59.8777655258,ProdSingRedo,001,NC 32,
,,,,77,0,77,0,,,,,,,,,,,,,,,,,,shear,new_a,white,77,104,283,1,0.98013109999,n,0.161952400056,2022_Mar_28_0955,59.8777655258,ProdSingRedo,001,NC 32,
,,,,78,0,78,0,,,,,,,,,,,,,,,,,,instrument,new_c,white,78,173,163,2,1.76191180001,n,0.409517200023,2022_Mar_28_0955,59.8777655258,ProdSingRedo,001,NC 32,
,,,,79,0,79,0,,,,,,,,,,,,,,,,,,captain,new_c,white,79,156,41,1,1.80334819999,n,0.334936500003,2022_Mar_28_0955,59.8777655258,ProdSingRedo,001,NC 32,
,,,,80,0,80,0,,,,,,,,,,,,,,,,,,generation,sing,white,80,28,136,5,1.67113589996,f,0.95841729996,2022_Mar_28_0955,59.8777655258,ProdSingRedo,001,NC 32,
,,,,81,0,81,0,,,,,,,,,,,,,,,,,,goose,new_a,white,81,93,138,1,1.36264960002,n,0.120858299953,2022_Mar_28_0955,59.8777655258,ProdSingRedo,001,NC 32,
,,,,82,0,82,0,,,,,,,,,,,,,,,,,,brief,new_c,white,82,170,28,3,1.31333530002,n,0.266753199976,2022_Mar_28_0955,59.8777655258,ProdSingRedo,001,NC 32,
,,,,83,0,83,0,,,,,,,,,,,,,,,,,,strength,new_b,white,83,147,310,6,1.73214129999,r,0.296424500004,2022_Mar_28_0955,59.8777655258,ProdSingRedo,001,NC 32,
,,,,84,0,84,0,,,,,,,,,,,,,,,,,,entrance,new_a,white,84,119,115,2,7.31329260004,n,0.245053699997,2022_Mar_28_0955,59.8777655258,ProdSingRedo,001,NC 32,
,,,,85,0,85,0,,,,,,,,,,,,,,,,,,minute,silent,white,85,78,192,2,2.2441827,n,1.38723679999,2022_Mar_28_0955,59.8777655258,ProdSingRedo,001,NC 32,
,,,,86,0,86,0,,,,,,,,,,,,,,,,,,signal,new_b,white,86,124,287,4,3.97071950004,f,0.268436099985,2022_Mar_28_0955,59.8777655258,ProdSingRedo,001,NC 32,
,,,,87,0,87,0,,,,,,,,,,,,,,,,,,message,silent,white,87,69,189,4,5.70551559998,f,0.247892100015,2022_Mar_28_0955,59.8777655258,ProdSingRedo,001,NC 32,
,,,,88,0,88,0,,,,,,,,,,,,,,,,,,service,sing,white,88,23,280,2,3.14188110002,n,0.165497199981,2022_Mar_28_0955,59.8777655258,ProdSingRedo,001,NC 32,
,,,,89,0,89,0,,,,,,,,,,,,,,,,,,company,sing,white,89,20,64,2,1.218291,n,0.159257499967,2022_Mar_28_0955,59.8777655258,ProdSingRedo,001,NC 32,
,,,,90,0,90,0,,,,,,,,,,,,,,,,,,sunset,new_c,white,90,165,315,1,0.943326700013,n,0.0340066999779,2022_Mar_28_0955,59.8777655258,ProdSingRedo,001,NC 32,
,,,,91,0,91,0,,,,,,,,,,,,,,,,,,victory,new_c,white,91,150,346,1,1.51326469996,n,0.00085350003792,2022_Mar_28_0955,59.8777655258,ProdSingRedo,001,NC 32,
,,,,92,0,92,0,,,,,,,,,,,,,,,,,,cross,aloud,white,92,35,80,2,1.33376129996,n,0.342355899978,2022_Mar_28_0955,59.8777655258,ProdSingRedo,001,NC 32,
,,,,93,0,93,0,,,,,,,,,,,,,,,,,,title,silent,white,93,75,331,1,1.52666849998,n,0.320744400029,2022_Mar_28_0955,59.8777655258,ProdSingRedo,001,NC 32,
,,,,94,0,94,0,,,,,,,,,,,,,,,,,,cover,new_b,white,94,133,77,1,2.06483220001,n,0.48171610001,2022_Mar_28_0955,59.8777655258,ProdSingRedo,001,NC 32,
,,,,95,0,95,0,,,,,,,,,,,,,,,,,,express,aloud,white,95,59,124,2,4.41389349999,n,0.256751500012,2022_Mar_28_0955,59.8777655258,ProdSingRedo,001,NC 32,
,,,,96,0,96,0,,,,,,,,,,,,,,,,,,pancakes,sing,white,96,2,210,1,1.07561979996,n,0.415550299978,2022_Mar_28_0955,59.8777655258,ProdSingRedo,001,NC 32,
,,,,97,0,97,0,,,,,,,,,,,,,,,,,,government,new_a,white,97,96,139,1,1.28461660002,n,0.323813300056,2022_Mar_28_0955,59.8777655258,ProdSingRedo,001,NC 32,
,,,,98,0,98,0,,,,,,,,,,,,,,,,,,interior,new_b,white,98,123,164,1,1.48465090001,n,0.103171400027,2022_Mar_28_0955,59.8777655258,ProdSingRedo,001,NC 32,
,,,,99,0,99,0,,,,,,,,,,,,,,,,,,judge,aloud,white,99,30,166,6,2.3059559,r,0.296940199973,2022_Mar_28_0955,59.8777655258,ProdSingRedo,001,NC 32,
,,,,100,0,100,0,,,,,,,,,,,,,,,,,,member,new_a,white,100,105,188,2,0.946465599991,n,0.0358608000097,2022_Mar_28_0955,59.8777655258,ProdSingRedo,001,NC 32,
,,,,101,0,101,0,,,,,,,,,,,,,,,,,,pretty,sing,white,101,27,233,6,1.74890609999,r,1.03735300002,2022_Mar_28_0955,59.8777655258,ProdSingRedo,001,NC 32,
,,,,102,0,102,0,,,,,,,,,,,,,,,,,,alert,aloud,white,102,40,6,6,1.35093229997,r,0.503732999961,2022_Mar_28_0955,59.8777655258,ProdSingRedo,001,NC 32,
,,,,103,0,103,0,,,,,,,,,,,,,,,,,,executive,new_c,white,103,171,122,2,2.49060279998,n,0.73003200005,2022_Mar_28_0955,59.8777655258,ProdSingRedo,001,NC 32,
,,,,104,0,104,0,,,,,,,,,,,,,,,,,,master,sing,white,104,24,180,2,2.3787608,n,0.0498773000436,2022_Mar_28_0955,59.8777655258,ProdSingRedo,001,NC 32,
,,,,105,0,105,0,,,,,,,,,,,,,,,,,,graduate,new_c,white,105,166,141,1,1.33724719996,n,0.0458700000308,2022_Mar_28_0955,59.8777655258,ProdSingRedo,001,NC 32,
,,,,106,0,106,0,,,,,,,,,,,,,,,,,,leader,new_b,white,106,132,168,1,1.53319769999,n,0.099392700009,2022_Mar_28_0955,59.8777655258,ProdSingRedo,001,NC 32,
,,,,107,0,107,0,,,,,,,,,,,,,,,,,,figure,new_c,white,107,164,128,4,2.21387370001,f,0.23170579999,2022_Mar_28_0955,59.8777655258,ProdSingRedo,001,NC 32,
,,,,108,0,108,0,,,,,,,,,,,,,,,,,,style,new_c,white,108,168,311,2,2.72045839997,n,0.203975600016,2022_Mar_28_0955,59.8777655258,ProdSingRedo,001,NC 32,
,,,,109,0,109,0,,,,,,,,,,,,,,,,,,travel,new_c,white,109,153,338,1,3.51166049996,n,0.347348399984,2022_Mar_28_0955,59.8777655258,ProdSingRedo,001,NC 32,
,,,,110,0,110,0,,,,,,,,,,,,,,,,,,space,silent,white,110,80,297,2,3.0015435,n,0.236093999993,2022_Mar_28_0955,59.8777655258,ProdSingRedo,001,NC 32,
,,,,111,0,111,0,,,,,,,,,,,,,,,,,,recall,silent,white,111,77,255,1,1.19269360002,n,0.355277499999,2022_Mar_28_0955,59.8777655258,ProdSingRedo,001,NC 32,
,,,,112,0,112,0,,,,,,,,,,,,,,,,,,minor,aloud,white,112,36,191,4,3.31723270001,f,0.25340560003,2022_Mar_28_0955,59.8777655258,ProdSingRedo,001,NC 32,
,,,,113,0,113,0,,,,,,,,,,,,,,,,,,degree,new_b,white,113,149,89,1,1.88122809998,n,0.536844799994,2022_Mar_28_0955,59.8777655258,ProdSingRedo,001,NC 32,
,,,,114,0,114,0,,,,,,,,,,,,,,,,,,majority,new_c,white,114,161,176,2,2.07433750003,n,0.434056800033,2022_Mar_28_0955,59.8777655258,ProdSingRedo,001,NC 32,
,,,,115,0,115,0,,,,,,,,,,,,,,,,,,ground,aloud,white,115,54,142,2,9.89630700002,n,0.251652300009,2022_Mar_28_0955,59.8777655258,ProdSingRedo,001,NC 32,
,,,,116,0,116,0,,,,,,,,,,,,,,,,,,quiet,aloud,white,116,42,249,6,1.26694759994,r,0.563729799993,2022_Mar_28_0955,59.8777655258,ProdSingRedo,001,NC 32,
,,,,117,0,117,0,,,,,,,,,,,,,,,,,,weight,new_b,white,117,126,353,2,1.63052210002,n,0.0998892000061,2022_Mar_28_0955,59.8777655258,ProdSingRedo,001,NC 32,
,,,,118,0,118,0,,,,,,,,,,,,,,,,,,piece,new_a,white,118,101,221,2,1.46909980004,n,0.109236599994,2022_Mar_28_0955,59.8777655258,ProdSingRedo,001,NC 32,
,,,,119,0,119,0,,,,,,,,,,,,,,,,,,crowd,aloud,white,119,43,81,1,3.7630493,n,0.0379599999869,2022_Mar_28_0955,59.8777655258,ProdSingRedo,001,NC 32,
,,,,120,0,120,0,,,,,,,,,,,,,,,,,,light,sing,white,120,22,171,2,3.99931520002,n,0.450585500046,2022_Mar_28_0955,59.8777655258,ProdSingRedo,001,NC 32,
,,,,121,0,121,0,,,,,,,,,,,,,,,,,,right,new_c,white,121,179,265,2,2.58237660001,n,0.233503300056,2022_Mar_28_0955,59.8777655258,ProdSingRedo,001,NC 32,
,,,,122,0,122,0,,,,,,,,,,,,,,,,,,spoke,silent,white,122,63,300,1,1.51731810003,n,0.138339099998,2022_Mar_28_0955,59.8777655258,ProdSingRedo,001,NC 32,
,,,,123,0,123,0,,,,,,,,,,,,,,,,,,sound,sing,white,123,1,295,1,2.71167599998,n,0.436781500001,2022_Mar_28_0955,59.8777655258,ProdSingRedo,001,NC 32,
,,,,124,0,124,0,,,,,,,,,,,,,,,,,,turkey,aloud,white,124,52,342,4,14.6759174,f,0.280279300001,2022_Mar_28_0955,59.8777655258,ProdSingRedo,001,NC 32,
,,,,125,0,125,0,,,,,,,,,,,,,,,,,,block,new_a,white,125,92,25,1,0.864769800042,n,0.0653126999969,2022_Mar_28_0955,59.8777655258,ProdSingRedo,001,NC 32,
,,,,126,0,126,0,,,,,,,,,,,,,,,,,,school,new_a,white,126,99,274,1,1.12696209998,n,0.189279100043,2022_Mar_28_0955,59.8777655258,ProdSingRedo,001,NC 32,
,,,,127,0,127,0,,,,,,,,,,,,,,,,,,speech,sing,white,127,13,298,6,1.61034019996,r,0.137022699986,2022_Mar_28_0955,59.8777655258,ProdSingRedo,001,NC 32,
,,,,128,0,128,0,,,,,,,,,,,,,,,,,,department,new_c,white,128,151,90,3,1.86066900002,f,0.151918699965,2022_Mar_28_0955,59.8777655258,ProdSingRedo,001,NC 32,
,,,,129,0,129,0,,,,,,,,,,,,,,,,,,guide,aloud,white,129,39,147,2,1.49921799998,n,0.500498799956,2022_Mar_28_0955,59.8777655258,ProdSingRedo,001,NC 32,
,,,,130,0,130,0,,,,,,,,,,,,,,,,,,object,new_b,white,130,139,204,1,1.04345480003,n,0.371119200019,2022_Mar_28_0955,59.8777655258,ProdSingRedo,001,NC 32,
,,,,131,0,131,0,,,,,,,,,,,,,,,,,,stranger,new_c,white,131,175,309,2,4.44220489997,n,0.4945725,2022_Mar_28_0955,59.8777655258,ProdSingRedo,001,NC 32,
,,,,132,0,132,0,,,,,,,,,,,,,,,,,,bucket,silent,white,132,85,33,1,1.28080919996,n,3.39690280001,2022_Mar_28_0955,59.8777655258,ProdSingRedo,001,NC 32,
,,,,133,0,133,0,,,,,,,,,,,,,,,,,,search,new_b,white,133,138,276,1,2.75695720001,n,0.117195500003,2022_Mar_28_0955,59.8777655258,ProdSingRedo,001,NC 32,
,,,,134,0,134,0,,,,,,,,,,,,,,,,,,century,sing,white,134,8,45,6,1.87318190001,r,0.381515700021,2022_Mar_28_0955,59.8777655258,ProdSingRedo,001,NC 32,
,,,,135,0,135,0,,,,,,,,,,,,,,,,,,marriage,silent,white,135,88,179,3,3.32726250001,n,0.540548999968,2022_Mar_28_0955,59.8777655258,ProdSingRedo,001,NC 32,
,,,,136,0,136,0,,,,,,,,,,,,,,,,,,portion,new_c,white,136,155,228,1,1.24727240001,n,0.307198699971,2022_Mar_28_0955,59.8777655258,ProdSingRedo,001,NC 32,
,,,,137,0,137,0,,,,,,,,,,,,,,,,,,throw,new_b,white,137,134,330,2,2.81344950001,n,0.305046900001,2022_Mar_28_0955,59.8777655258,ProdSingRedo,001,NC 32,
,,,,138,0,138,0,,,,,,,,,,,,,,,,,,period,silent,white,138,60,217,5,2.24937069998,f,0.459800700017,2022_Mar_28_0955,59.8777655258,ProdSingRedo,001,NC 32,
,,,,139,0,139,0,,,,,,,,,,,,,,,,,,fellow,aloud,white,139,48,126,1,1.44547909999,n,0.416295599949,2022_Mar_28_0955,59.8777655258,ProdSingRedo,001,NC 32,
,,,,140,0,140,0,,,,,,,,,,,,,,,,,,fashion,sing,white,140,21,125,5,2.67939609999,f,0.19716609997,2022_Mar_28_0955,59.8777655258,ProdSingRedo,001,NC 32,
,,,,141,0,141,0,,,,,,,,,,,,,,,,,,session,sing,white,141,3,281,5,1.6681983,f,0.0375245999894,2022_Mar_28_0955,59.8777655258,ProdSingRedo,001,NC 32,
,,,,142,0,142,0,,,,,,,,,,,,,,,,,,tragedy,new_a,white,142,114,335,1,1.04737799999,n,0.02307320002,2022_Mar_28_0955,59.8777655258,ProdSingRedo,001,NC 32,
,,,,143,0,143,0,,,,,,,,,,,,,,,,,,story,aloud,white,143,55,306,2,1.51695019996,n,0.507149099954,2022_Mar_28_0955,59.8777655258,ProdSingRedo,001,NC 32,
,,,,144,0,144,0,,,,,,,,,,,,,,,,,,surface,aloud,white,144,46,316,2,1.4605929,n,0.783091699996,2022_Mar_28_0955,59.8777655258,ProdSingRedo,001,NC 32,
,,,,145,0,145,0,,,,,,,,,,,,,,,,,,impact,aloud,white,145,47,157,3,3.03654459998,f,0.642394200026,2022_Mar_28_0955,59.8777655258,ProdSingRedo,001,NC 32,
,,,,146,0,146,0,,,,,,,,,,,,,,,,,,incident,silent,white,146,62,158,1,1.27306809998,n,0.271819799964,2022_Mar_28_0955,59.8777655258,ProdSingRedo,001,NC 32,
,,,,147,0,147,0,,,,,,,,,,,,,,,,,,defeat,aloud,white,147,38,88,6,2.83624019998,r,1.10290410003,2022_Mar_28_0955,59.8777655258,ProdSingRedo,001,NC 32,
,,,,148,0,148,0,,,,,,,,,,,,,,,,,,drove,new_a,white,148,115,106,1,4.58333500003,n,1.03496809996,2022_Mar_28_0955,59.8777655258,ProdSingRedo,001,NC 32,
,,,,149,0,149,0,,,,,,,,,,,,,,,,,,character,aloud,white,149,33,46,5,2.04480029998,f,0.291182700021,2022_Mar_28_0955,59.8777655258,ProdSingRedo,001,NC 32,
,,,,150,0,150,0,,,,,,,,,,,,,,,,,,worker,sing,white,150,14,356,2,4.01785529999,n,0.248820100038,2022_Mar_28_0955,59.8777655258,ProdSingRedo,001,NC 32,
,,,,151,0,151,0,,,,,,,,,,,,,,,,,,plane,new_b,white,151,122,223,4,5.0322513,f,0.417507100035,2022_Mar_28_0955,59.8777655258,ProdSingRedo,001,NC 32,
,,,,152,0,152,0,,,,,,,,,,,,,,,,,,benefit,new_c,white,152,163,20,1,8.42220910004,n,0.765214600018,2022_Mar_28_0955,59.8777655258,ProdSingRedo,001,NC 32,
,,,,153,0,153,0,,,,,,,,,,,,,,,,,,population,new_b,white,153,144,227,2,1.35255720001,n,0.374127300049,2022_Mar_28_0955,59.8777655258,ProdSingRedo,001,NC 32,
,,,,154,0,154,0,,,,,,,,,,,,,,,,,,bright,aloud,white,154,56,29,2,2.10350740002,n,0.0177487000474,2022_Mar_28_0955,59.8777655258,ProdSingRedo,001,NC 32,
,,,,155,0,155,0,,,,,,,,,,,,,,,,,,design,new_a,white,155,116,91,1,1.04882789997,n,0.283161300002,2022_Mar_28_0955,59.8777655258,ProdSingRedo,001,NC 32,
,,,,156,0,156,0,,,,,,,,,,,,,,,,,,dozen,sing,white,156,25,102,1,1.04691629997,n,0.230674000049,2022_Mar_28_0955,59.8777655258,ProdSingRedo,001,NC 32,
,,,,157,0,157,0,,,,,,,,,,,,,,,,,,finance,new_b,white,157,120,129,2,1.12628040003,n,0.249229700014,2022_Mar_28_0955,59.8777655258,ProdSingRedo,001,NC 32,
,,,,158,0,158,0,,,,,,,,,,,,,,,,,,employment,sing,white,158,10,111,5,1.91230300005,f,0.325761799992,2022_Mar_28_0955,59.8777655258,ProdSingRedo,001,NC 32,
,,,,159,0,159,0,,,,,,,,,,,,,,,,,,safety,sing,white,159,4,270,1,0.898099699989,n,0.2982357,2022_Mar_28_0955,59.8777655258,ProdSingRedo,001,NC 32,
,,,,160,0,160,0,,,,,,,,,,,,,,,,,,thing,sing,white,160,15,328,1,1.69814960001,n,0.620131600008,2022_Mar_28_0955,59.8777655258,ProdSingRedo,001,NC 32,
,,,,161,0,161,0,,,,,,,,,,,,,,,,,,solution,sing,white,161,9,294,4,2.73191259999,f,0.0349098999868,2022_Mar_28_0955,59.8777655258,ProdSingRedo,001,NC 32,
,,,,162,0,162,0,,,,,,,,,,,,,,,,,,universal,new_a,white,162,107,345,2,1.7240859,n,0.666917999974,2022_Mar_28_0955,59.8777655258,ProdSingRedo,001,NC 32,
,,,,163,0,163,0,,,,,,,,,,,,,,,,,,direction,new_b,white,163,135,94,1,0.979577399965,n,0.278202499961,2022_Mar_28_0955,59.8777655258,ProdSingRedo,001,NC 32,
,,,,164,0,164,0,,,,,,,,,,,,,,,,,,music,silent,white,164,67,196,3,3.22173009999,f,0.0500141999801,2022_Mar_28_0955,59.8777655258,ProdSingRedo,001,NC 32,
,,,,165,0,165,0,,,,,,,,,,,,,,,,,,beginning,new_c,white,165,167,19,1,1.62732630002,n,0.711803100014,2022_Mar_28_0955,59.8777655258,ProdSingRedo,001,NC 32,
,,,,166,0,166,0,,,,,,,,,,,,,,,,,,review,new_a,white,166,109,263,2,3.2224194,n,0.405204300012,2022_Mar_28_0955,59.8777655258,ProdSingRedo,001,NC 32,
,,,,167,0,167,0,,,,,,,,,,,,,,,,,,power,new_b,white,167,130,230,5,2.38209860004,f,0.683537400037,2022_Mar_28_0955,59.8777655258,ProdSingRedo,001,NC 32,
,,,,168,0,168,0,,,,,,,,,,,,,,,,,,group,new_c,white,168,159,143,2,5.38273509999,n,0.903341599973,2022_Mar_28_0955,59.8777655258,ProdSingRedo,001,NC 32,
,,,,169,0,169,0,,,,,,,,,,,,,,,,,,point,new_c,white,169,178,226,5,2.45405569999,f,0.287835000025,2022_Mar_28_0955,59.8777655258,ProdSingRedo,001,NC 32,
,,,,170,0,170,0,,,,,,,,,,,,,,,,,,court,new_a,white,170,103,75,3,5.18833999999,n,0.735715299961,2022_Mar_28_0955,59.8777655258,ProdSingRedo,001,NC 32,
,,,,171,0,171,0,,,,,,,,,,,,,,,,,,exchange,new_b,white,171,128,121,1,3.75100559997,n,0.271232699975,2022_Mar_28_0955,59.8777655258,ProdSingRedo,001,NC 32,
,,,,172,0,172,0,,,,,,,,,,,,,,,,,,angle,sing,white,172,26,7,6,1.61692589999,r,0.303440999996,2022_Mar_28_0955,59.8777655258,ProdSingRedo,001,NC 32,
,,,,173,0,173,0,,,,,,,,,,,,,,,,,,surprise,new_a,white,173,108,317,5,1.81387360004,f,0.0778875999968,2022_Mar_28_0955,59.8777655258,ProdSingRedo,001,NC 32,
,,,,174,0,174,0,,,,,,,,,,,,,,,,,,addition,new_c,white,174,154,2,1,1.09477759997,n,0.312696199981,2022_Mar_28_0955,59.8777655258,ProdSingRedo,001,NC 32,
,,,,175,0,175,0,,,,,,,,,,,,,,,,,,store,new_b,white,175,146,305,1,0.949450900021,n,0.287346300029,2022_Mar_28_0955,59.8777655258,ProdSingRedo,001,NC 32,
,,,,176,0,176,0,,,,,,,,,,,,,,,,,,committee,silent,white,176,84,62,1,1.68453309999,n,0.24638929998,2022_Mar_28_0955,59.8777655258,ProdSingRedo,001,NC 32,
,,,,177,0,177,0,,,,,,,,,,,,,,,,,,column,new_b,white,177,141,57,1,1.32561260002,n,0.480223299994,2022_Mar_28_0955,59.8777655258,ProdSingRedo,001,NC 32,
,,,,178,0,178,0,,,,,,,,,,,,,,,,,,dream,aloud,white,178,45,104,1,1.09953599999,n,0.59232440003,2022_Mar_28_0955,59.8777655258,ProdSingRedo,001,NC 32,
,,,,179,0,179,0,,,,,,,,,,,,,,,,,,skill,new_b,white,179,129,289,2,2.1977512,f,0.410865000042,2022_Mar_28_0955,59.8777655258,ProdSingRedo,001,NC 32,
