StudyLoop.thisRepN,StudyLoop.thisTrialN,StudyLoop.thisN,StudyLoop.thisIndex,TestLoop.thisRepN,TestLoop.thisTrialN,TestLoop.thisN,TestLoop.thisIndex,keyCondition.keys,keyCondition.rt,Condition,stim_colors,color_sing,color_aloud,color_silent,keyWelcome.keys,keyWelcome.rt,study_word,study_type,study_color,study_num,study_word_num,keyStudy.keys,key_resp_3.keys,key_resp_3.rt,testWord,testType,testColor,testN,test_num,test_word_num,keyConf.keys,keyConf.rt,keyRKN.keys,keyRKN.rt,date,frameRate,expName,session,participant,
,,,,,,,,n,3.14434080001,,,,,,,,,,,,,,,,,,,,,,,,,,2022_May_02_1129,60.0007440009,ProdSingRedo,001,NC 47,
,,,,,,,,,,NeutralTest,"['red', 'blue', 'yellow']",red,blue,yellow,space,875.8906423,,,,,,,,,,,,,,,,,,,2022_May_02_1129,60.0007440009,ProdSingRedo,001,NC 47,
0,0,0,0,,,,,,,,,,,,,,attack,silent,yellow,70,13,None,,,,,,,,,,,,,2022_May_02_1129,60.0007440009,ProdSingRedo,001,NC 47,
1,0,1,0,,,,,,,,,,,,,,corner,silent,yellow,89,69,None,,,,,,,,,,,,,2022_May_02_1129,60.0007440009,ProdSingRedo,001,NC 47,
2,0,2,0,,,,,,,,,,,,,,company,aloud,blue,55,64,None,,,,,,,,,,,,,2022_May_02_1129,60.0007440009,ProdSingRedo,001,NC 47,
3,0,3,0,,,,,,,,,,,,,,surface,sing,red,14,316,None,,,,,,,,,,,,,2022_May_02_1129,60.0007440009,ProdSingRedo,001,NC 47,
4,0,4,0,,,,,,,,,,,,,,strength,silent,yellow,80,310,None,,,,,,,,,,,,,2022_May_02_1129,60.0007440009,ProdSingRedo,001,NC 47,
5,0,5,0,,,,,,,,,,,,,,relation,silent,yellow,84,257,None,,,,,,,,,,,,,2022_May_02_1129,60.0007440009,ProdSingRedo,001,NC 47,
6,0,6,0,,,,,,,,,,,,,,sunset,sing,red,8,315,None,,,,,,,,,,,,,2022_May_02_1129,60.0007440009,ProdSingRedo,001,NC 47,
7,0,7,0,,,,,,,,,,,,,,pressure,aloud,blue,51,232,None,,,,,,,,,,,,,2022_May_02_1129,60.0007440009,ProdSingRedo,001,NC 47,
8,0,8,0,,,,,,,,,,,,,,bureau,aloud,blue,47,37,None,,,,,,,,,,,,,2022_May_02_1129,60.0007440009,ProdSingRedo,001,NC 47,
9,0,9,0,,,,,,,,,,,,,,fellow,silent,yellow,78,126,None,,,,,,,,,,,,,2022_May_02_1129,60.0007440009,ProdSingRedo,001,NC 47,
10,0,10,0,,,,,,,,,,,,,,error,aloud,blue,36,117,None,,,,,,,,,,,,,2022_May_02_1129,60.0007440009,ProdSingRedo,001,NC 47,
11,0,11,0,,,,,,,,,,,,,,problem,aloud,blue,34,238,None,,,,,,,,,,,,,2022_May_02_1129,60.0007440009,ProdSingRedo,001,NC 47,
12,0,12,0,,,,,,,,,,,,,,conference,sing,red,11,66,None,,,,,,,,,,,,,2022_May_02_1129,60.0007440009,ProdSingRedo,001,NC 47,
13,0,13,0,,,,,,,,,,,,,,committee,aloud,blue,35,62,None,,,,,,,,,,,,,2022_May_02_1129,60.0007440009,ProdSingRedo,001,NC 47,
14,0,14,0,,,,,,,,,,,,,,bicycle,silent,yellow,64,21,None,,,,,,,,,,,,,2022_May_02_1129,60.0007440009,ProdSingRedo,001,NC 47,
15,0,15,0,,,,,,,,,,,,,,thing,sing,red,12,328,None,,,,,,,,,,,,,2022_May_02_1129,60.0007440009,ProdSingRedo,001,NC 47,
16,0,16,0,,,,,,,,,,,,,,notice,aloud,blue,48,201,None,,,,,,,,,,,,,2022_May_02_1129,60.0007440009,ProdSingRedo,001,NC 47,
17,0,17,0,,,,,,,,,,,,,,personnel,aloud,blue,38,219,None,,,,,,,,,,,,,2022_May_02_1129,60.0007440009,ProdSingRedo,001,NC 47,
18,0,18,0,,,,,,,,,,,,,,running,sing,red,22,268,None,,,,,,,,,,,,,2022_May_02_1129,60.0007440009,ProdSingRedo,001,NC 47,
19,0,19,0,,,,,,,,,,,,,,concern,sing,red,6,65,None,,,,,,,,,,,,,2022_May_02_1129,60.0007440009,ProdSingRedo,001,NC 47,
20,0,20,0,,,,,,,,,,,,,,employment,sing,red,17,111,None,,,,,,,,,,,,,2022_May_02_1129,60.0007440009,ProdSingRedo,001,NC 47,
21,0,21,0,,,,,,,,,,,,,,public,silent,yellow,82,244,None,,,,,,,,,,,,,2022_May_02_1129,60.0007440009,ProdSingRedo,001,NC 47,
22,0,22,0,,,,,,,,,,,,,,raise,silent,yellow,72,250,None,,,,,,,,,,,,,2022_May_02_1129,60.0007440009,ProdSingRedo,001,NC 47,
23,0,23,0,,,,,,,,,,,,,,space,aloud,blue,43,297,None,,,,,,,,,,,,,2022_May_02_1129,60.0007440009,ProdSingRedo,001,NC 47,
24,0,24,0,,,,,,,,,,,,,,territory,silent,yellow,67,324,None,,,,,,,,,,,,,2022_May_02_1129,60.0007440009,ProdSingRedo,001,NC 47,
25,0,25,0,,,,,,,,,,,,,,waste,silent,yellow,79,350,None,,,,,,,,,,,,,2022_May_02_1129,60.0007440009,ProdSingRedo,001,NC 47,
26,0,26,0,,,,,,,,,,,,,,broke,sing,red,28,32,None,,,,,,,,,,,,,2022_May_02_1129,60.0007440009,ProdSingRedo,001,NC 47,
27,0,27,0,,,,,,,,,,,,,,government,aloud,blue,40,139,None,,,,,,,,,,,,,2022_May_02_1129,60.0007440009,ProdSingRedo,001,NC 47,
28,0,28,0,,,,,,,,,,,,,,council,sing,red,24,71,None,,,,,,,,,,,,,2022_May_02_1129,60.0007440009,ProdSingRedo,001,NC 47,
29,0,29,0,,,,,,,,,,,,,,commercial,silent,yellow,74,61,None,,,,,,,,,,,,,2022_May_02_1129,60.0007440009,ProdSingRedo,001,NC 47,
30,0,30,0,,,,,,,,,,,,,,bright,sing,red,9,29,None,,,,,,,,,,,,,2022_May_02_1129,60.0007440009,ProdSingRedo,001,NC 47,
31,0,31,0,,,,,,,,,,,,,,trash,sing,red,29,337,None,,,,,,,,,,,,,2022_May_02_1129,60.0007440009,ProdSingRedo,001,NC 47,
32,0,32,0,,,,,,,,,,,,,,nature,aloud,blue,45,200,None,,,,,,,,,,,,,2022_May_02_1129,60.0007440009,ProdSingRedo,001,NC 47,
33,0,33,0,,,,,,,,,,,,,,shock,silent,yellow,69,284,None,,,,,,,,,,,,,2022_May_02_1129,60.0007440009,ProdSingRedo,001,NC 47,
34,0,34,0,,,,,,,,,,,,,,quiet,aloud,blue,33,249,None,,,,,,,,,,,,,2022_May_02_1129,60.0007440009,ProdSingRedo,001,NC 47,
35,0,35,0,,,,,,,,,,,,,,throw,silent,yellow,87,330,None,,,,,,,,,,,,,2022_May_02_1129,60.0007440009,ProdSingRedo,001,NC 47,
36,0,36,0,,,,,,,,,,,,,,distance,sing,red,27,100,None,,,,,,,,,,,,,2022_May_02_1129,60.0007440009,ProdSingRedo,001,NC 47,
37,0,37,0,,,,,,,,,,,,,,permit,silent,yellow,68,218,None,,,,,,,,,,,,,2022_May_02_1129,60.0007440009,ProdSingRedo,001,NC 47,
38,0,38,0,,,,,,,,,,,,,,business,sing,red,18,38,None,,,,,,,,,,,,,2022_May_02_1129,60.0007440009,ProdSingRedo,001,NC 47,
39,0,39,0,,,,,,,,,,,,,,trial,aloud,blue,50,341,None,,,,,,,,,,,,,2022_May_02_1129,60.0007440009,ProdSingRedo,001,NC 47,
40,0,40,0,,,,,,,,,,,,,,property,silent,yellow,66,242,None,,,,,,,,,,,,,2022_May_02_1129,60.0007440009,ProdSingRedo,001,NC 47,
41,0,41,0,,,,,,,,,,,,,,service,aloud,blue,41,280,None,,,,,,,,,,,,,2022_May_02_1129,60.0007440009,ProdSingRedo,001,NC 47,
42,0,42,0,,,,,,,,,,,,,,south,sing,red,15,296,None,,,,,,,,,,,,,2022_May_02_1129,60.0007440009,ProdSingRedo,001,NC 47,
43,0,43,0,,,,,,,,,,,,,,goose,sing,red,23,138,None,,,,,,,,,,,,,2022_May_02_1129,60.0007440009,ProdSingRedo,001,NC 47,
44,0,44,0,,,,,,,,,,,,,,guest,sing,red,0,146,None,,,,,,,,,,,,,2022_May_02_1129,60.0007440009,ProdSingRedo,001,NC 47,
45,0,45,0,,,,,,,,,,,,,,whole,sing,red,10,355,None,,,,,,,,,,,,,2022_May_02_1129,60.0007440009,ProdSingRedo,001,NC 47,
46,0,46,0,,,,,,,,,,,,,,drove,silent,yellow,63,106,None,,,,,,,,,,,,,2022_May_02_1129,60.0007440009,ProdSingRedo,001,NC 47,
47,0,47,0,,,,,,,,,,,,,,center,silent,yellow,61,44,None,,,,,,,,,,,,,2022_May_02_1129,60.0007440009,ProdSingRedo,001,NC 47,
48,0,48,0,,,,,,,,,,,,,,sleep,sing,red,20,290,None,,,,,,,,,,,,,2022_May_02_1129,60.0007440009,ProdSingRedo,001,NC 47,
49,0,49,0,,,,,,,,,,,,,,rural,silent,yellow,77,269,None,,,,,,,,,,,,,2022_May_02_1129,60.0007440009,ProdSingRedo,001,NC 47,
50,0,50,0,,,,,,,,,,,,,,breath,sing,red,1,27,None,,,,,,,,,,,,,2022_May_02_1129,60.0007440009,ProdSingRedo,001,NC 47,
51,0,51,0,,,,,,,,,,,,,,private,silent,yellow,73,237,None,,,,,,,,,,,,,2022_May_02_1129,60.0007440009,ProdSingRedo,001,NC 47,
52,0,52,0,,,,,,,,,,,,,,command,aloud,blue,37,60,None,,,,,,,,,,,,,2022_May_02_1129,60.0007440009,ProdSingRedo,001,NC 47,
53,0,53,0,,,,,,,,,,,,,,broad,silent,yellow,86,31,None,,,,,,,,,,,,,2022_May_02_1129,60.0007440009,ProdSingRedo,001,NC 47,
54,0,54,0,,,,,,,,,,,,,,income,sing,red,7,159,None,,,,,,,,,,,,,2022_May_02_1129,60.0007440009,ProdSingRedo,001,NC 47,
55,0,55,0,,,,,,,,,,,,,,taste,aloud,blue,52,322,None,,,,,,,,,,,,,2022_May_02_1129,60.0007440009,ProdSingRedo,001,NC 47,
56,0,56,0,,,,,,,,,,,,,,primary,silent,yellow,88,234,None,,,,,,,,,,,,,2022_May_02_1129,60.0007440009,ProdSingRedo,001,NC 47,
57,0,57,0,,,,,,,,,,,,,,burden,sing,red,26,36,None,,,,,,,,,,,,,2022_May_02_1129,60.0007440009,ProdSingRedo,001,NC 47,
58,0,58,0,,,,,,,,,,,,,,society,aloud,blue,42,293,None,,,,,,,,,,,,,2022_May_02_1129,60.0007440009,ProdSingRedo,001,NC 47,
59,0,59,0,,,,,,,,,,,,,,suspect,silent,yellow,71,318,None,,,,,,,,,,,,,2022_May_02_1129,60.0007440009,ProdSingRedo,001,NC 47,
60,0,60,0,,,,,,,,,,,,,,budget,aloud,blue,56,34,None,,,,,,,,,,,,,2022_May_02_1129,60.0007440009,ProdSingRedo,001,NC 47,
61,0,61,0,,,,,,,,,,,,,,reading,silent,yellow,65,254,None,,,,,,,,,,,,,2022_May_02_1129,60.0007440009,ProdSingRedo,001,NC 47,
62,0,62,0,,,,,,,,,,,,,,husband,aloud,blue,30,156,None,,,,,,,,,,,,,2022_May_02_1129,60.0007440009,ProdSingRedo,001,NC 47,
63,0,63,0,,,,,,,,,,,,,,congress,sing,red,3,67,None,,,,,,,,,,,,,2022_May_02_1129,60.0007440009,ProdSingRedo,001,NC 47,
64,0,64,0,,,,,,,,,,,,,,community,sing,red,19,63,None,,,,,,,,,,,,,2022_May_02_1129,60.0007440009,ProdSingRedo,001,NC 47,
65,0,65,0,,,,,,,,,,,,,,break,sing,red,21,26,None,,,,,,,,,,,,,2022_May_02_1129,60.0007440009,ProdSingRedo,001,NC 47,
66,0,66,0,,,,,,,,,,,,,,salary,sing,red,4,271,None,,,,,,,,,,,,,2022_May_02_1129,60.0007440009,ProdSingRedo,001,NC 47,
67,0,67,0,,,,,,,,,,,,,,little,silent,yellow,62,174,None,,,,,,,,,,,,,2022_May_02_1129,60.0007440009,ProdSingRedo,001,NC 47,
68,0,68,0,,,,,,,,,,,,,,charter,aloud,blue,59,47,None,,,,,,,,,,,,,2022_May_02_1129,60.0007440009,ProdSingRedo,001,NC 47,
69,0,69,0,,,,,,,,,,,,,,express,aloud,blue,54,124,None,,,,,,,,,,,,,2022_May_02_1129,60.0007440009,ProdSingRedo,001,NC 47,
70,0,70,0,,,,,,,,,,,,,,weather,sing,red,25,352,None,,,,,,,,,,,,,2022_May_02_1129,60.0007440009,ProdSingRedo,001,NC 47,
71,0,71,0,,,,,,,,,,,,,,testimony,silent,yellow,81,325,None,,,,,,,,,,,,,2022_May_02_1129,60.0007440009,ProdSingRedo,001,NC 47,
72,0,72,0,,,,,,,,,,,,,,appeal,silent,yellow,85,9,None,,,,,,,,,,,,,2022_May_02_1129,60.0007440009,ProdSingRedo,001,NC 47,
73,0,73,0,,,,,,,,,,,,,,addition,sing,red,16,2,None,,,,,,,,,,,,,2022_May_02_1129,60.0007440009,ProdSingRedo,001,NC 47,
74,0,74,0,,,,,,,,,,,,,,silence,silent,yellow,60,288,None,,,,,,,,,,,,,2022_May_02_1129,60.0007440009,ProdSingRedo,001,NC 47,
75,0,75,0,,,,,,,,,,,,,,emergency,aloud,blue,58,110,None,,,,,,,,,,,,,2022_May_02_1129,60.0007440009,ProdSingRedo,001,NC 47,
76,0,76,0,,,,,,,,,,,,,,school,aloud,blue,57,274,None,,,,,,,,,,,,,2022_May_02_1129,60.0007440009,ProdSingRedo,001,NC 47,
77,0,77,0,,,,,,,,,,,,,,contract,aloud,blue,39,68,None,,,,,,,,,,,,,2022_May_02_1129,60.0007440009,ProdSingRedo,001,NC 47,
78,0,78,0,,,,,,,,,,,,,,engineer,aloud,blue,49,114,None,,,,,,,,,,,,,2022_May_02_1129,60.0007440009,ProdSingRedo,001,NC 47,
79,0,79,0,,,,,,,,,,,,,,republic,sing,red,2,260,None,,,,,,,,,,,,,2022_May_02_1129,60.0007440009,ProdSingRedo,001,NC 47,
80,0,80,0,,,,,,,,,,,,,,production,sing,red,5,240,None,,,,,,,,,,,,,2022_May_02_1129,60.0007440009,ProdSingRedo,001,NC 47,
81,0,81,0,,,,,,,,,,,,,,election,aloud,blue,44,109,None,,,,,,,,,,,,,2022_May_02_1129,60.0007440009,ProdSingRedo,001,NC 47,
82,0,82,0,,,,,,,,,,,,,,order,silent,yellow,76,207,None,,,,,,,,,,,,,2022_May_02_1129,60.0007440009,ProdSingRedo,001,NC 47,
83,0,83,0,,,,,,,,,,,,,,range,aloud,blue,31,251,None,,,,,,,,,,,,,2022_May_02_1129,60.0007440009,ProdSingRedo,001,NC 47,
84,0,84,0,,,,,,,,,,,,,,junior,aloud,blue,53,167,None,,,,,,,,,,,,,2022_May_02_1129,60.0007440009,ProdSingRedo,001,NC 47,
85,0,85,0,,,,,,,,,,,,,,finance,silent,yellow,75,129,None,,,,,,,,,,,,,2022_May_02_1129,60.0007440009,ProdSingRedo,001,NC 47,
86,0,86,0,,,,,,,,,,,,,,cross,aloud,blue,32,80,None,,,,,,,,,,,,,2022_May_02_1129,60.0007440009,ProdSingRedo,001,NC 47,
87,0,87,0,,,,,,,,,,,,,,style,silent,yellow,83,311,None,,,,,,,,,,,,,2022_May_02_1129,60.0007440009,ProdSingRedo,001,NC 47,
88,0,88,0,,,,,,,,,,,,,,nation,sing,red,13,198,None,,,,,,,,,,,,,2022_May_02_1129,60.0007440009,ProdSingRedo,001,NC 47,
89,0,89,0,,,,,,,,,,,,,,partner,aloud,blue,46,211,None,,,,,,,,,,,,,2022_May_02_1129,60.0007440009,ProdSingRedo,001,NC 47,
,,,,,,,,,,,,,,,,,,,,,,,k,119.3428143,,,,,,,,,,,2022_May_02_1129,60.0007440009,ProdSingRedo,001,NC 47,
,,,,0,0,0,0,,,,,,,,,,,,,,,,,,sleep,sing,white,0,20,290,1,4.60703039996,n,5.25543010002,2022_May_02_1129,60.0007440009,ProdSingRedo,001,NC 47,
,,,,1,0,1,0,,,,,,,,,,,,,,,,,,escape,new_a,white,1,109,118,1,1.35799479997,n,1.22850839997,2022_May_02_1129,60.0007440009,ProdSingRedo,001,NC 47,
,,,,2,0,2,0,,,,,,,,,,,,,,,,,,pancakes,new_b,white,2,146,210,1,0.980001899996,n,1.19143420004,2022_May_02_1129,60.0007440009,ProdSingRedo,001,NC 47,
,,,,3,0,3,0,,,,,,,,,,,,,,,,,,government,aloud,white,3,40,139,6,2.53064899996,f,6.38725529995,2022_May_02_1129,60.0007440009,ProdSingRedo,001,NC 47,
,,,,4,0,4,0,,,,,,,,,,,,,,,,,,industry,new_b,white,4,138,161,1,2.98764100001,n,0.764313700027,2022_May_02_1129,60.0007440009,ProdSingRedo,001,NC 47,
,,,,5,0,5,0,,,,,,,,,,,,,,,,,,watch,new_c,white,5,170,351,1,1.8484281,n,0.346400400042,2022_May_02_1129,60.0007440009,ProdSingRedo,001,NC 47,
,,,,6,0,6,0,,,,,,,,,,,,,,,,,,service,aloud,white,6,41,280,1,0.965265999956,n,0.264085499977,2022_May_02_1129,60.0007440009,ProdSingRedo,001,NC 47,
,,,,7,0,7,0,,,,,,,,,,,,,,,,,,problem,aloud,white,7,34,238,6,3.24221719999,r,2.29564879998,2022_May_02_1129,60.0007440009,ProdSingRedo,001,NC 47,
,,,,8,0,8,0,,,,,,,,,,,,,,,,,,rough,new_c,white,8,160,266,1,1.3468386,n,0.982029600011,2022_May_02_1129,60.0007440009,ProdSingRedo,001,NC 47,
,,,,9,0,9,0,,,,,,,,,,,,,,,,,,husband,aloud,white,9,30,156,6,2.17741080001,r,1.2918145,2022_May_02_1129,60.0007440009,ProdSingRedo,001,NC 47,
,,,,10,0,10,0,,,,,,,,,,,,,,,,,,article,new_a,white,10,108,11,1,1.1297936,n,0.384251800017,2022_May_02_1129,60.0007440009,ProdSingRedo,001,NC 47,
,,,,11,0,11,0,,,,,,,,,,,,,,,,,,personnel,aloud,white,11,38,219,6,1.66052809998,n,1.9365145,2022_May_02_1129,60.0007440009,ProdSingRedo,001,NC 47,
,,,,12,0,12,0,,,,,,,,,,,,,,,,,,instrument,new_c,white,12,168,163,1,2.73410970002,n,0.0212886999943,2022_May_02_1129,60.0007440009,ProdSingRedo,001,NC 47,
,,,,13,0,13,0,,,,,,,,,,,,,,,,,,broad,silent,white,13,86,31,1,1.05780470005,n,0.200612699962,2022_May_02_1129,60.0007440009,ProdSingRedo,001,NC 47,
,,,,14,0,14,0,,,,,,,,,,,,,,,,,,question,new_c,white,14,150,247,1,0.939582699968,n,0.746526199975,2022_May_02_1129,60.0007440009,ProdSingRedo,001,NC 47,
,,,,15,0,15,0,,,,,,,,,,,,,,,,,,sight,new_a,white,15,91,286,1,0.86145799997,n,0.249467699963,2022_May_02_1129,60.0007440009,ProdSingRedo,001,NC 47,
,,,,16,0,16,0,,,,,,,,,,,,,,,,,,scene,new_b,white,16,131,273,1,0.754372099997,n,0.539008099993,2022_May_02_1129,60.0007440009,ProdSingRedo,001,NC 47,
,,,,17,0,17,0,,,,,,,,,,,,,,,,,,junior,aloud,white,17,53,167,6,1.6096878,r,0.753715800005,2022_May_02_1129,60.0007440009,ProdSingRedo,001,NC 47,
,,,,18,0,18,0,,,,,,,,,,,,,,,,,,heavy,new_c,white,18,163,151,1,2.27290679998,n,0.298332799983,2022_May_02_1129,60.0007440009,ProdSingRedo,001,NC 47,
,,,,19,0,19,0,,,,,,,,,,,,,,,,,,style,silent,white,19,83,311,1,0.884083800018,n,0.0336676000152,2022_May_02_1129,60.0007440009,ProdSingRedo,001,NC 47,
,,,,20,0,20,0,,,,,,,,,,,,,,,,,,minor,new_c,white,20,179,191,1,1.26349320001,n,0.288834200008,2022_May_02_1129,60.0007440009,ProdSingRedo,001,NC 47,
,,,,21,0,21,0,,,,,,,,,,,,,,,,,,council,sing,white,21,24,71,1,1.17762069998,n,0.301030699979,2022_May_02_1129,60.0007440009,ProdSingRedo,001,NC 47,
,,,,22,0,22,0,,,,,,,,,,,,,,,,,,owner,new_c,white,22,161,208,1,0.85240969999,n,0.331674999965,2022_May_02_1129,60.0007440009,ProdSingRedo,001,NC 47,
,,,,23,0,23,0,,,,,,,,,,,,,,,,,,goose,sing,white,23,23,138,6,1.68122279999,r,1.67303380003,2022_May_02_1129,60.0007440009,ProdSingRedo,001,NC 47,
,,,,24,0,24,0,,,,,,,,,,,,,,,,,,waste,silent,white,24,79,350,1,1.8270248,n,0.635322799964,2022_May_02_1129,60.0007440009,ProdSingRedo,001,NC 47,
,,,,25,0,25,0,,,,,,,,,,,,,,,,,,period,new_b,white,25,140,217,1,1.13217150001,n,0.0429480000166,2022_May_02_1129,60.0007440009,ProdSingRedo,001,NC 47,
,,,,26,0,26,0,,,,,,,,,,,,,,,,,,testimony,silent,white,26,81,325,1,4.24696349999,n,0.283655799984,2022_May_02_1129,60.0007440009,ProdSingRedo,001,NC 47,
,,,,27,0,27,0,,,,,,,,,,,,,,,,,,science,new_b,white,27,125,275,1,1.00213349995,n,0.585657000018,2022_May_02_1129,60.0007440009,ProdSingRedo,001,NC 47,
,,,,28,0,28,0,,,,,,,,,,,,,,,,,,trial,aloud,white,28,50,341,1,1.54081039998,n,1.35032490001,2022_May_02_1129,60.0007440009,ProdSingRedo,001,NC 47,
,,,,29,0,29,0,,,,,,,,,,,,,,,,,,taste,aloud,white,29,52,322,1,0.729048699955,n,0.39854980004,2022_May_02_1129,60.0007440009,ProdSingRedo,001,NC 47,
,,,,30,0,30,0,,,,,,,,,,,,,,,,,,trend,new_a,white,30,100,340,1,1.27975459996,n,0.00120749999769,2022_May_02_1129,60.0007440009,ProdSingRedo,001,NC 47,
,,,,31,0,31,0,,,,,,,,,,,,,,,,,,threat,new_b,white,31,143,329,1,0.676442499971,n,0.0484470000374,2022_May_02_1129,60.0007440009,ProdSingRedo,001,NC 47,
,,,,32,0,32,0,,,,,,,,,,,,,,,,,,contract,aloud,white,32,39,68,6,1.47798209998,n,0.484772199998,2022_May_02_1129,60.0007440009,ProdSingRedo,001,NC 47,
,,,,33,0,33,0,,,,,,,,,,,,,,,,,,appeal,silent,white,33,85,9,1,1.64188919996,n,0.583906899963,2022_May_02_1129,60.0007440009,ProdSingRedo,001,NC 47,
,,,,34,0,34,0,,,,,,,,,,,,,,,,,,minute,new_c,white,34,154,192,1,1.2059917,n,0.133139199985,2022_May_02_1129,60.0007440009,ProdSingRedo,001,NC 47,
,,,,35,0,35,0,,,,,,,,,,,,,,,,,,sunset,sing,white,35,8,315,6,1.77515890001,r,1.49770150002,2022_May_02_1129,60.0007440009,ProdSingRedo,001,NC 47,
,,,,36,0,36,0,,,,,,,,,,,,,,,,,,thick,new_c,white,36,173,327,1,4.59913430002,n,0.15265189996,2022_May_02_1129,60.0007440009,ProdSingRedo,001,NC 47,
,,,,37,0,37,0,,,,,,,,,,,,,,,,,,charter,aloud,white,37,59,47,6,1.42704470002,r,0.614475600014,2022_May_02_1129,60.0007440009,ProdSingRedo,001,NC 47,
,,,,38,0,38,0,,,,,,,,,,,,,,,,,,finance,silent,white,38,75,129,6,2.0382904,r,0.6718673,2022_May_02_1129,60.0007440009,ProdSingRedo,001,NC 47,
,,,,39,0,39,0,,,,,,,,,,,,,,,,,,mechanical,new_b,white,39,127,185,1,1.5329778,n,0.13201880001,2022_May_02_1129,60.0007440009,ProdSingRedo,001,NC 47,
,,,,40,0,40,0,,,,,,,,,,,,,,,,,,short,new_c,white,40,174,285,1,0.884750300029,n,0.252229799982,2022_May_02_1129,60.0007440009,ProdSingRedo,001,NC 47,
,,,,41,0,41,0,,,,,,,,,,,,,,,,,,range,aloud,white,41,31,251,6,2.59347279998,r,0.30003470002,2022_May_02_1129,60.0007440009,ProdSingRedo,001,NC 47,
,,,,42,0,42,0,,,,,,,,,,,,,,,,,,suspect,silent,white,42,71,318,1,1.17048109998,n,0.580699600047,2022_May_02_1129,60.0007440009,ProdSingRedo,001,NC 47,
,,,,43,0,43,0,,,,,,,,,,,,,,,,,,empty,new_c,white,43,157,112,1,1.48436289997,n,0.435787399998,2022_May_02_1129,60.0007440009,ProdSingRedo,001,NC 47,
,,,,44,0,44,0,,,,,,,,,,,,,,,,,,election,aloud,white,44,44,109,6,1.47958019999,r,0.281565600017,2022_May_02_1129,60.0007440009,ProdSingRedo,001,NC 47,
,,,,45,0,45,0,,,,,,,,,,,,,,,,,,crime,new_a,white,45,113,78,6,2.44679459999,r,0.271811499959,2022_May_02_1129,60.0007440009,ProdSingRedo,001,NC 47,
,,,,46,0,46,0,,,,,,,,,,,,,,,,,,school,aloud,white,46,57,274,1,2.04889440001,n,0.788088899979,2022_May_02_1129,60.0007440009,ProdSingRedo,001,NC 47,
,,,,47,0,47,0,,,,,,,,,,,,,,,,,,carry,new_b,white,47,130,43,1,1.08928850002,n,0.267332200019,2022_May_02_1129,60.0007440009,ProdSingRedo,001,NC 47,
,,,,48,0,48,0,,,,,,,,,,,,,,,,,,figure,new_c,white,48,164,128,1,1.83237460005,n,0.25084189995,2022_May_02_1129,60.0007440009,ProdSingRedo,001,NC 47,
,,,,49,0,49,0,,,,,,,,,,,,,,,,,,debate,new_a,white,49,93,87,1,0.840079299989,n,0.234066399978,2022_May_02_1129,60.0007440009,ProdSingRedo,001,NC 47,
,,,,50,0,50,0,,,,,,,,,,,,,,,,,,pattern,new_b,white,50,128,214,1,1.20632450003,n,0.265443800017,2022_May_02_1129,60.0007440009,ProdSingRedo,001,NC 47,
,,,,51,0,51,0,,,,,,,,,,,,,,,,,,listen,new_a,white,51,111,172,1,0.977295500052,n,0.218739100033,2022_May_02_1129,60.0007440009,ProdSingRedo,001,NC 47,
,,,,52,0,52,0,,,,,,,,,,,,,,,,,,scale,new_b,white,52,132,272,1,1.24474309996,n,0.0686854999512,2022_May_02_1129,60.0007440009,ProdSingRedo,001,NC 47,
,,,,53,0,53,0,,,,,,,,,,,,,,,,,,shock,silent,white,53,69,284,1,1.04337760003,n,0.0850947999861,2022_May_02_1129,60.0007440009,ProdSingRedo,001,NC 47,
,,,,54,0,54,0,,,,,,,,,,,,,,,,,,produce,new_a,white,54,92,239,1,0.974633299978,n,0.264801500016,2022_May_02_1129,60.0007440009,ProdSingRedo,001,NC 47,
,,,,55,0,55,0,,,,,,,,,,,,,,,,,,throw,silent,white,55,87,330,1,0.847983499989,n,0.188698199985,2022_May_02_1129,60.0007440009,ProdSingRedo,001,NC 47,
,,,,56,0,56,0,,,,,,,,,,,,,,,,,,south,sing,white,56,15,296,6,1.31757660001,r,0.384527999966,2022_May_02_1129,60.0007440009,ProdSingRedo,001,NC 47,
,,,,57,0,57,0,,,,,,,,,,,,,,,,,,weather,sing,white,57,25,352,6,1.82285979996,r,0.932691499998,2022_May_02_1129,60.0007440009,ProdSingRedo,001,NC 47,
,,,,58,0,58,0,,,,,,,,,,,,,,,,,,production,sing,white,58,5,240,6,1.39115380001,r,0.167166200001,2022_May_02_1129,60.0007440009,ProdSingRedo,001,NC 47,
,,,,59,0,59,0,,,,,,,,,,,,,,,,,,bucket,new_c,white,59,152,33,1,1.32732759998,n,0.411744199984,2022_May_02_1129,60.0007440009,ProdSingRedo,001,NC 47,
,,,,60,0,60,0,,,,,,,,,,,,,,,,,,rural,silent,white,60,77,269,1,1.17775850004,n,0.508386500005,2022_May_02_1129,60.0007440009,ProdSingRedo,001,NC 47,
,,,,61,0,61,0,,,,,,,,,,,,,,,,,,report,new_b,white,61,120,259,1,0.762218199961,n,0.336312400002,2022_May_02_1129,60.0007440009,ProdSingRedo,001,NC 47,
,,,,62,0,62,0,,,,,,,,,,,,,,,,,,display,new_a,white,62,96,98,1,0.874857799965,n,0.113435000007,2022_May_02_1129,60.0007440009,ProdSingRedo,001,NC 47,
,,,,63,0,63,0,,,,,,,,,,,,,,,,,,quiet,aloud,white,63,33,249,6,1.29345329996,r,0.6659201,2022_May_02_1129,60.0007440009,ProdSingRedo,001,NC 47,
,,,,64,0,64,0,,,,,,,,,,,,,,,,,,frank,new_a,white,64,114,133,1,0.811253099993,n,0.178810300014,2022_May_02_1129,60.0007440009,ProdSingRedo,001,NC 47,
,,,,65,0,65,0,,,,,,,,,,,,,,,,,,nation,sing,white,65,13,198,6,1.32843930001,r,0.0994531000033,2022_May_02_1129,60.0007440009,ProdSingRedo,001,NC 47,
,,,,66,0,66,0,,,,,,,,,,,,,,,,,,partner,aloud,white,66,46,211,6,1.19367210002,r,0.000250200042501,2022_May_02_1129,60.0007440009,ProdSingRedo,001,NC 47,
,,,,67,0,67,0,,,,,,,,,,,,,,,,,,territory,silent,white,67,67,324,6,1.70421729999,r,0.0636433999753,2022_May_02_1129,60.0007440009,ProdSingRedo,001,NC 47,
,,,,68,0,68,0,,,,,,,,,,,,,,,,,,bicycle,silent,white,68,64,21,1,0.854821899964,n,0.307628799987,2022_May_02_1129,60.0007440009,ProdSingRedo,001,NC 47,
,,,,69,0,69,0,,,,,,,,,,,,,,,,,,candidate,new_b,white,69,133,39,1,1.0697238,n,0.343848899996,2022_May_02_1129,60.0007440009,ProdSingRedo,001,NC 47,
,,,,70,0,70,0,,,,,,,,,,,,,,,,,,emergency,aloud,white,70,58,110,6,1.3349668,r,0.543220600055,2022_May_02_1129,60.0007440009,ProdSingRedo,001,NC 47,
,,,,71,0,71,0,,,,,,,,,,,,,,,,,,distance,sing,white,71,27,100,1,3.51453449996,n,0.000271300028544,2022_May_02_1129,60.0007440009,ProdSingRedo,001,NC 47,
,,,,72,0,72,0,,,,,,,,,,,,,,,,,,private,silent,white,72,73,237,1,1.78872139996,n,0.261384199956,2022_May_02_1129,60.0007440009,ProdSingRedo,001,NC 47,
,,,,73,0,73,0,,,,,,,,,,,,,,,,,,bureau,aloud,white,73,47,37,6,1.63933859998,r,0.779663000023,2022_May_02_1129,60.0007440009,ProdSingRedo,001,NC 47,
,,,,74,0,74,0,,,,,,,,,,,,,,,,,,concern,sing,white,74,6,65,6,1.53018599999,r,0.356091899972,2022_May_02_1129,60.0007440009,ProdSingRedo,001,NC 47,
,,,,75,0,75,0,,,,,,,,,,,,,,,,,,center,silent,white,75,61,44,6,1.699968,f,0.902281599992,2022_May_02_1129,60.0007440009,ProdSingRedo,001,NC 47,
,,,,76,0,76,0,,,,,,,,,,,,,,,,,,order,silent,white,76,76,207,6,1.562102,f,0.867277399986,2022_May_02_1129,60.0007440009,ProdSingRedo,001,NC 47,
,,,,77,0,77,0,,,,,,,,,,,,,,,,,,state,new_b,white,77,145,303,1,1.35982389998,n,0.215634599968,2022_May_02_1129,60.0007440009,ProdSingRedo,001,NC 47,
,,,,78,0,78,0,,,,,,,,,,,,,,,,,,commercial,silent,white,78,74,61,6,1.2881302,f,0.728105499991,2022_May_02_1129,60.0007440009,ProdSingRedo,001,NC 47,
,,,,79,0,79,0,,,,,,,,,,,,,,,,,,author,new_c,white,79,156,15,1,1.22868669999,f,1.75004160003,2022_May_02_1129,60.0007440009,ProdSingRedo,001,NC 47,
,,,,80,0,80,0,,,,,,,,,,,,,,,,,,smooth,new_c,white,80,171,292,1,1.86383539997,n,0.30564409995,2022_May_02_1129,60.0007440009,ProdSingRedo,001,NC 47,
,,,,81,0,81,0,,,,,,,,,,,,,,,,,,employment,sing,white,81,17,111,6,1.35886360001,r,12.0595907,2022_May_02_1129,60.0007440009,ProdSingRedo,001,NC 47,
,,,,82,0,82,0,,,,,,,,,,,,,,,,,,general,new_a,white,82,103,135,1,1.07154940005,n,0.461247300031,2022_May_02_1129,60.0007440009,ProdSingRedo,001,NC 47,
,,,,83,0,83,0,,,,,,,,,,,,,,,,,,place,new_a,white,83,98,222,1,0.843691200018,n,0.139388799958,2022_May_02_1129,60.0007440009,ProdSingRedo,001,NC 47,
,,,,84,0,84,0,,,,,,,,,,,,,,,,,,relation,silent,white,84,84,257,1,0.922496200015,n,0.284599600011,2022_May_02_1129,60.0007440009,ProdSingRedo,001,NC 47,
,,,,85,0,85,0,,,,,,,,,,,,,,,,,,foundation,new_a,white,85,117,132,1,0.678868099989,n,0.305308199953,2022_May_02_1129,60.0007440009,ProdSingRedo,001,NC 47,
,,,,86,0,86,0,,,,,,,,,,,,,,,,,,pressure,aloud,white,86,51,232,1,0.662759600033,n,0.815297900001,2022_May_02_1129,60.0007440009,ProdSingRedo,001,NC 47,
,,,,87,0,87,0,,,,,,,,,,,,,,,,,,level,new_c,white,87,162,170,1,0.825043399993,n,0.460198900022,2022_May_02_1129,60.0007440009,ProdSingRedo,001,NC 47,
,,,,88,0,88,0,,,,,,,,,,,,,,,,,,dozen,new_a,white,88,118,102,1,2.2349019,n,1.10742090002,2022_May_02_1129,60.0007440009,ProdSingRedo,001,NC 47,
,,,,89,0,89,0,,,,,,,,,,,,,,,,,,health,new_c,white,89,166,149,1,0.840390200028,n,0.213788199995,2022_May_02_1129,60.0007440009,ProdSingRedo,001,NC 47,
,,,,90,0,90,0,,,,,,,,,,,,,,,,,,shear,new_b,white,90,148,283,1,0.67301790003,n,0.315536500013,2022_May_02_1129,60.0007440009,ProdSingRedo,001,NC 47,
,,,,91,0,91,0,,,,,,,,,,,,,,,,,,position,new_c,white,91,172,229,1,0.879380400002,n,0.0671454000403,2022_May_02_1129,60.0007440009,ProdSingRedo,001,NC 47,
,,,,92,0,92,0,,,,,,,,,,,,,,,,,,republic,sing,white,92,2,260,6,1.40841779998,r,0.263313199976,2022_May_02_1129,60.0007440009,ProdSingRedo,001,NC 47,
,,,,93,0,93,0,,,,,,,,,,,,,,,,,,symbol,new_a,white,93,101,321,4,2.92549250001,f,1.66736109997,2022_May_02_1129,60.0007440009,ProdSingRedo,001,NC 47,
,,,,94,0,94,0,,,,,,,,,,,,,,,,,,interior,new_a,white,94,116,164,1,1.34291860001,n,0.588573400048,2022_May_02_1129,60.0007440009,ProdSingRedo,001,NC 47,
,,,,95,0,95,0,,,,,,,,,,,,,,,,,,property,silent,white,95,66,242,1,1.00727459998,n,0.517413199996,2022_May_02_1129,60.0007440009,ProdSingRedo,001,NC 47,
,,,,96,0,96,0,,,,,,,,,,,,,,,,,,store,new_a,white,96,90,305,1,6.95997739997,n,0.406039400026,2022_May_02_1129,60.0007440009,ProdSingRedo,001,NC 47,
,,,,97,0,97,0,,,,,,,,,,,,,,,,,,permit,silent,white,97,68,218,1,0.868343200011,n,0.270153600024,2022_May_02_1129,60.0007440009,ProdSingRedo,001,NC 47,
,,,,98,0,98,0,,,,,,,,,,,,,,,,,,oxygen,new_c,white,98,176,209,1,0.686133299954,n,0.347115300014,2022_May_02_1129,60.0007440009,ProdSingRedo,001,NC 47,
,,,,99,0,99,0,,,,,,,,,,,,,,,,,,breath,sing,white,99,1,27,6,1.3393619,r,0.613473000005,2022_May_02_1129,60.0007440009,ProdSingRedo,001,NC 47,
,,,,100,0,100,0,,,,,,,,,,,,,,,,,,fight,new_c,white,100,159,127,1,0.678471899999,n,0.385138699959,2022_May_02_1129,60.0007440009,ProdSingRedo,001,NC 47,
,,,,101,0,101,0,,,,,,,,,,,,,,,,,,novel,new_c,white,101,169,202,1,0.609110300022,n,0.266174899996,2022_May_02_1129,60.0007440009,ProdSingRedo,001,NC 47,
,,,,102,0,102,0,,,,,,,,,,,,,,,,,,business,sing,white,102,18,38,6,1.49421099998,f,0.746204400028,2022_May_02_1129,60.0007440009,ProdSingRedo,001,NC 47,
,,,,103,0,103,0,,,,,,,,,,,,,,,,,,reading,silent,white,103,65,254,1,0.738668099977,n,0.710691999993,2022_May_02_1129,60.0007440009,ProdSingRedo,001,NC 47,
,,,,104,0,104,0,,,,,,,,,,,,,,,,,,break,sing,white,104,21,26,6,1.65817820001,r,0.317096300016,2022_May_02_1129,60.0007440009,ProdSingRedo,001,NC 47,
,,,,105,0,105,0,,,,,,,,,,,,,,,,,,surface,sing,white,105,14,316,1,0.810992099985,n,0.21134390001,2022_May_02_1129,60.0007440009,ProdSingRedo,001,NC 47,
,,,,106,0,106,0,,,,,,,,,,,,,,,,,,notice,aloud,white,106,48,201,1,1.09918980004,n,0.322103099956,2022_May_02_1129,60.0007440009,ProdSingRedo,001,NC 47,
,,,,107,0,107,0,,,,,,,,,,,,,,,,,,trash,sing,white,107,29,337,6,1.5621482,r,0.717941700015,2022_May_02_1129,60.0007440009,ProdSingRedo,001,NC 47,
,,,,108,0,108,0,,,,,,,,,,,,,,,,,,fellow,silent,white,108,78,126,1,1.06916340004,n,0.997824700025,2022_May_02_1129,60.0007440009,ProdSingRedo,001,NC 47,
,,,,109,0,109,0,,,,,,,,,,,,,,,,,,material,new_c,white,109,155,182,1,9.00397319999,n,0.303326499998,2022_May_02_1129,60.0007440009,ProdSingRedo,001,NC 47,
,,,,110,0,110,0,,,,,,,,,,,,,,,,,,little,silent,white,110,62,174,1,1.91873800004,n,0.154838200018,2022_May_02_1129,60.0007440009,ProdSingRedo,001,NC 47,
,,,,111,0,111,0,,,,,,,,,,,,,,,,,,union,new_a,white,111,104,344,1,2.59573830001,n,2.63391739997,2022_May_02_1129,60.0007440009,ProdSingRedo,001,NC 47,
,,,,112,0,112,0,,,,,,,,,,,,,,,,,,bitter,new_b,white,112,136,23,1,0.998438300041,n,0.883575699991,2022_May_02_1129,60.0007440009,ProdSingRedo,001,NC 47,
,,,,113,0,113,0,,,,,,,,,,,,,,,,,,stand,new_a,white,113,119,302,1,0.761330599955,n,0.371838600026,2022_May_02_1129,60.0007440009,ProdSingRedo,001,NC 47,
,,,,114,0,114,0,,,,,,,,,,,,,,,,,,division,new_b,white,114,126,101,1,0.731642500032,n,0.233208800026,2022_May_02_1129,60.0007440009,ProdSingRedo,001,NC 47,
,,,,115,0,115,0,,,,,,,,,,,,,,,,,,company,aloud,white,115,55,64,6,1.21223129996,r,0.302169999981,2022_May_02_1129,60.0007440009,ProdSingRedo,001,NC 47,
,,,,116,0,116,0,,,,,,,,,,,,,,,,,,match,new_b,white,116,129,181,1,1.00255050004,n,0.402893599996,2022_May_02_1129,60.0007440009,ProdSingRedo,001,NC 47,
,,,,117,0,117,0,,,,,,,,,,,,,,,,,,public,silent,white,117,82,244,1,1.29056769999,n,0.512105200032,2022_May_02_1129,60.0007440009,ProdSingRedo,001,NC 47,
,,,,118,0,118,0,,,,,,,,,,,,,,,,,,captain,new_b,white,118,137,41,1,0.629690200032,n,0.282750400016,2022_May_02_1129,60.0007440009,ProdSingRedo,001,NC 47,
,,,,119,0,119,0,,,,,,,,,,,,,,,,,,still,new_b,white,119,139,304,1,0.697049000009,n,0.220417600009,2022_May_02_1129,60.0007440009,ProdSingRedo,001,NC 47,
,,,,120,0,120,0,,,,,,,,,,,,,,,,,,title,new_b,white,120,124,331,1,0.696817899996,n,0.232601600001,2022_May_02_1129,60.0007440009,ProdSingRedo,001,NC 47,
,,,,121,0,121,0,,,,,,,,,,,,,,,,,,society,aloud,white,121,42,293,1,1.14138380002,n,0.180346499954,2022_May_02_1129,60.0007440009,ProdSingRedo,001,NC 47,
,,,,122,0,122,0,,,,,,,,,,,,,,,,,,congress,sing,white,122,3,67,1,0.672206100018,n,0.244311100047,2022_May_02_1129,60.0007440009,ProdSingRedo,001,NC 47,
,,,,123,0,123,0,,,,,,,,,,,,,,,,,,grade,new_c,white,123,167,140,1,0.710602200008,n,0.66317070002,2022_May_02_1129,60.0007440009,ProdSingRedo,001,NC 47,
,,,,124,0,124,0,,,,,,,,,,,,,,,,,,attack,silent,white,124,70,13,3,3.2480277,r,1.83282030001,2022_May_02_1129,60.0007440009,ProdSingRedo,001,NC 47,
,,,,125,0,125,0,,,,,,,,,,,,,,,,,,payment,new_b,white,125,141,215,1,11.4625759,n,0.113065199985,2022_May_02_1129,60.0007440009,ProdSingRedo,001,NC 47,
,,,,126,0,126,0,,,,,,,,,,,,,,,,,,degree,new_c,white,126,151,89,1,0.862420499965,n,0.448745000002,2022_May_02_1129,60.0007440009,ProdSingRedo,001,NC 47,
,,,,127,0,127,0,,,,,,,,,,,,,,,,,,raise,silent,white,127,72,250,1,1.13049770001,n,0.585445199977,2022_May_02_1129,60.0007440009,ProdSingRedo,001,NC 47,
,,,,128,0,128,0,,,,,,,,,,,,,,,,,,spoke,new_a,white,128,112,300,1,0.70098090003,n,0.597779399948,2022_May_02_1129,60.0007440009,ProdSingRedo,001,NC 47,
,,,,129,0,129,0,,,,,,,,,,,,,,,,,,background,new_b,white,129,147,16,1,0.738249599992,n,0.306105400028,2022_May_02_1129,60.0007440009,ProdSingRedo,001,NC 47,
,,,,130,0,130,0,,,,,,,,,,,,,,,,,,country,new_b,white,130,122,73,1,1.43638730003,n,0.281079999986,2022_May_02_1129,60.0007440009,ProdSingRedo,001,NC 47,
,,,,131,0,131,0,,,,,,,,,,,,,,,,,,community,sing,white,131,19,63,6,1.65541800001,r,1.07855520002,2022_May_02_1129,60.0007440009,ProdSingRedo,001,NC 47,
,,,,132,0,132,0,,,,,,,,,,,,,,,,,,design,new_a,white,132,99,91,1,0.728858899965,n,0.330172999995,2022_May_02_1129,60.0007440009,ProdSingRedo,001,NC 47,
,,,,133,0,133,0,,,,,,,,,,,,,,,,,,skill,new_c,white,133,178,289,1,0.67915000004,n,0.337055299955,2022_May_02_1129,60.0007440009,ProdSingRedo,001,NC 47,
,,,,134,0,134,0,,,,,,,,,,,,,,,,,,universal,new_c,white,134,153,345,1,0.673266400001,n,0.265752399981,2022_May_02_1129,60.0007440009,ProdSingRedo,001,NC 47,
,,,,135,0,135,0,,,,,,,,,,,,,,,,,,turkey,new_a,white,135,106,342,1,0.647645800025,n,0.272246600012,2022_May_02_1129,60.0007440009,ProdSingRedo,001,NC 47,
,,,,136,0,136,0,,,,,,,,,,,,,,,,,,income,sing,white,136,7,159,1,0.633524299948,n,0.256378400023,2022_May_02_1129,60.0007440009,ProdSingRedo,001,NC 47,
,,,,137,0,137,0,,,,,,,,,,,,,,,,,,drove,silent,white,137,63,106,1,0.543442499998,n,0.199319100007,2022_May_02_1129,60.0007440009,ProdSingRedo,001,NC 47,
,,,,138,0,138,0,,,,,,,,,,,,,,,,,,corner,silent,white,138,89,69,6,1.49150290003,r,0.304450099997,2022_May_02_1129,60.0007440009,ProdSingRedo,001,NC 47,
,,,,139,0,139,0,,,,,,,,,,,,,,,,,,device,new_a,white,139,110,93,1,0.68114390003,n,0.295924799982,2022_May_02_1129,60.0007440009,ProdSingRedo,001,NC 47,
,,,,140,0,140,0,,,,,,,,,,,,,,,,,,angle,new_b,white,140,134,7,1,0.711023799959,n,0.263758199988,2022_May_02_1129,60.0007440009,ProdSingRedo,001,NC 47,
,,,,141,0,141,0,,,,,,,,,,,,,,,,,,track,new_a,white,141,102,334,1,0.929324900033,n,0.0768978000269,2022_May_02_1129,60.0007440009,ProdSingRedo,001,NC 47,
,,,,142,0,142,0,,,,,,,,,,,,,,,,,,bright,sing,white,142,9,29,1,0.626177300001,n,0.315810999949,2022_May_02_1129,60.0007440009,ProdSingRedo,001,NC 47,
,,,,143,0,143,0,,,,,,,,,,,,,,,,,,silence,silent,white,143,60,288,1,0.743517499999,n,0.504450100008,2022_May_02_1129,60.0007440009,ProdSingRedo,001,NC 47,
,,,,144,0,144,0,,,,,,,,,,,,,,,,,,danger,new_b,white,144,144,85,1,0.660456800018,n,0.195581200009,2022_May_02_1129,60.0007440009,ProdSingRedo,001,NC 47,
,,,,145,0,145,0,,,,,,,,,,,,,,,,,,crowd,new_c,white,145,175,81,1,0.697807500022,n,0.118582100025,2022_May_02_1129,60.0007440009,ProdSingRedo,001,NC 47,
,,,,146,0,146,0,,,,,,,,,,,,,,,,,,engineer,aloud,white,146,49,114,6,10.670728,r,0.881924699992,2022_May_02_1129,60.0007440009,ProdSingRedo,001,NC 47,
,,,,147,0,147,0,,,,,,,,,,,,,,,,,,committee,aloud,white,147,35,62,4,1.65941810003,f,0.448321100033,2022_May_02_1129,60.0007440009,ProdSingRedo,001,NC 47,
,,,,148,0,148,0,,,,,,,,,,,,,,,,,,nature,aloud,white,148,45,200,1,3.9754694,n,0.779222099984,2022_May_02_1129,60.0007440009,ProdSingRedo,001,NC 47,
,,,,149,0,149,0,,,,,,,,,,,,,,,,,,story,new_b,white,149,135,306,1,0.715928899997,n,0.252118200005,2022_May_02_1129,60.0007440009,ProdSingRedo,001,NC 47,
,,,,150,0,150,0,,,,,,,,,,,,,,,,,,budget,aloud,white,150,56,34,1,0.742996299989,n,0.146144099999,2022_May_02_1129,60.0007440009,ProdSingRedo,001,NC 47,
,,,,151,0,151,0,,,,,,,,,,,,,,,,,,addition,sing,white,151,16,2,6,1.47628599999,r,0.00071829999797,2022_May_02_1129,60.0007440009,ProdSingRedo,001,NC 47,
,,,,152,0,152,0,,,,,,,,,,,,,,,,,,native,new_c,white,152,165,199,1,1.20620720001,n,0.391483299958,2022_May_02_1129,60.0007440009,ProdSingRedo,001,NC 47,
,,,,153,0,153,0,,,,,,,,,,,,,,,,,,cross,aloud,white,153,32,80,1,0.76925740001,n,0.337857400009,2022_May_02_1129,60.0007440009,ProdSingRedo,001,NC 47,
,,,,154,0,154,0,,,,,,,,,,,,,,,,,,meeting,new_a,white,154,97,187,1,0.625044899993,n,0.29690690001,2022_May_02_1129,60.0007440009,ProdSingRedo,001,NC 47,
,,,,155,0,155,0,,,,,,,,,,,,,,,,,,thing,sing,white,155,12,328,1,0.598525200039,n,0.255165199982,2022_May_02_1129,60.0007440009,ProdSingRedo,001,NC 47,
,,,,156,0,156,0,,,,,,,,,,,,,,,,,,command,aloud,white,156,37,60,1,0.687239699997,n,0.299962399993,2022_May_02_1129,60.0007440009,ProdSingRedo,001,NC 47,
,,,,157,0,157,0,,,,,,,,,,,,,,,,,,accident,new_b,white,157,123,0,1,0.604130399995,n,0.54908820003,2022_May_02_1129,60.0007440009,ProdSingRedo,001,NC 47,
,,,,158,0,158,0,,,,,,,,,,,,,,,,,,strength,silent,white,158,80,310,1,0.588891900028,n,0.212954999995,2022_May_02_1129,60.0007440009,ProdSingRedo,001,NC 47,
,,,,159,0,159,0,,,,,,,,,,,,,,,,,,broke,sing,white,159,28,32,1,0.663023699948,n,0.285659899993,2022_May_02_1129,60.0007440009,ProdSingRedo,001,NC 47,
,,,,160,0,160,0,,,,,,,,,,,,,,,,,,conference,sing,white,160,11,66,6,1.47120480001,r,0.37641789997,2022_May_02_1129,60.0007440009,ProdSingRedo,001,NC 47,
,,,,161,0,161,0,,,,,,,,,,,,,,,,,,solution,new_b,white,161,142,294,1,1.15900590003,n,0.282423999975,2022_May_02_1129,60.0007440009,ProdSingRedo,001,NC 47,
,,,,162,0,162,0,,,,,,,,,,,,,,,,,,entrance,new_b,white,162,149,115,1,0.964856299979,n,0.161672600021,2022_May_02_1129,60.0007440009,ProdSingRedo,001,NC 47,
,,,,163,0,163,0,,,,,,,,,,,,,,,,,,error,aloud,white,163,36,117,1,0.715590600041,n,0.245614500018,2022_May_02_1129,60.0007440009,ProdSingRedo,001,NC 47,
,,,,164,0,164,0,,,,,,,,,,,,,,,,,,express,aloud,white,164,54,124,1,0.631533800042,n,0.318770900019,2022_May_02_1129,60.0007440009,ProdSingRedo,001,NC 47,
,,,,165,0,165,0,,,,,,,,,,,,,,,,,,colonel,new_a,white,165,94,55,1,0.615334499977,n,0.28646849998,2022_May_02_1129,60.0007440009,ProdSingRedo,001,NC 47,
,,,,166,0,166,0,,,,,,,,,,,,,,,,,,space,aloud,white,166,43,297,1,0.747015899979,n,0.314375699963,2022_May_02_1129,60.0007440009,ProdSingRedo,001,NC 47,
,,,,167,0,167,0,,,,,,,,,,,,,,,,,,salary,sing,white,167,4,271,1,0.743274100008,n,0.292059300002,2022_May_02_1129,60.0007440009,ProdSingRedo,001,NC 47,
,,,,168,0,168,0,,,,,,,,,,,,,,,,,,color,new_c,white,168,158,56,1,1.0562323,n,0.0397608000203,2022_May_02_1129,60.0007440009,ProdSingRedo,001,NC 47,
,,,,169,0,169,0,,,,,,,,,,,,,,,,,,hearing,new_b,white,169,121,150,1,0.858573300007,n,0.0421520000091,2022_May_02_1129,60.0007440009,ProdSingRedo,001,NC 47,
,,,,170,0,170,0,,,,,,,,,,,,,,,,,,season,new_c,white,170,177,277,1,0.785871900036,n,0.29850850004,2022_May_02_1129,60.0007440009,ProdSingRedo,001,NC 47,
,,,,171,0,171,0,,,,,,,,,,,,,,,,,,voice,new_a,white,171,95,348,1,0.893810499983,n,0.285921400005,2022_May_02_1129,60.0007440009,ProdSingRedo,001,NC 47,
,,,,172,0,172,0,,,,,,,,,,,,,,,,,,running,sing,white,172,22,268,1,0.595660999999,n,0.246276199992,2022_May_02_1129,60.0007440009,ProdSingRedo,001,NC 47,
,,,,173,0,173,0,,,,,,,,,,,,,,,,,,primary,silent,white,173,88,234,1,0.7682088,n,0.181787799986,2022_May_02_1129,60.0007440009,ProdSingRedo,001,NC 47,
,,,,174,0,174,0,,,,,,,,,,,,,,,,,,burden,sing,white,174,26,36,6,2.96766109997,r,0.414783800021,2022_May_02_1129,60.0007440009,ProdSingRedo,001,NC 47,
,,,,175,0,175,0,,,,,,,,,,,,,,,,,,harmony,new_a,white,175,105,148,1,0.725699300005,n,0.246348500019,2022_May_02_1129,60.0007440009,ProdSingRedo,001,NC 47,
,,,,176,0,176,0,,,,,,,,,,,,,,,,,,whole,sing,white,176,10,355,1,0.664417099964,n,0.353994400008,2022_May_02_1129,60.0007440009,ProdSingRedo,001,NC 47,
,,,,177,0,177,0,,,,,,,,,,,,,,,,,,guest,sing,white,177,0,146,1,0.730323299998,n,0.365723099967,2022_May_02_1129,60.0007440009,ProdSingRedo,001,NC 47,
,,,,178,0,178,0,,,,,,,,,,,,,,,,,,force,new_a,white,178,107,131,1,0.647005300038,n,0.305964300002,2022_May_02_1129,60.0007440009,ProdSingRedo,001,NC 47,
,,,,179,0,179,0,,,,,,,,,,,,,,,,,,worker,new_a,white,179,115,356,1,0.689766800031,n,0.231824799965,2022_May_02_1129,60.0007440009,ProdSingRedo,001,NC 47,
