StudyLoop.thisRepN,StudyLoop.thisTrialN,StudyLoop.thisN,StudyLoop.thisIndex,TestLoop.thisRepN,TestLoop.thisTrialN,TestLoop.thisN,TestLoop.thisIndex,keyCondition.keys,keyCondition.rt,Condition,stim_colors,color_sing,color_aloud,color_silent,keyWelcome.keys,keyWelcome.rt,study_word,study_type,study_color,study_num,study_word_num,keyStudy.keys,key_resp_3.keys,key_resp_3.rt,testWord,testType,testColor,testN,test_num,test_word_num,keyConf.keys,keyConf.rt,keyRKN.keys,keyRKN.rt,date,frameRate,expName,session,participant,
,,,,,,,,n,12.5975719,,,,,,,,,,,,,,,,,,,,,,,,,,2022_Feb_14_1330,59.9425869902,ProdSingRedo,001,"NC, 28",
,,,,,,,,,,NeutralTest,"['blue', 'yellow', 'red']",blue,yellow,red,space,356.8725968,,,,,,,,,,,,,,,,,,,2022_Feb_14_1330,59.9425869902,ProdSingRedo,001,"NC, 28",
0,0,0,0,,,,,,,,,,,,,,volume,aloud,yellow,35,349,None,,,,,,,,,,,,,2022_Feb_14_1330,59.9425869902,ProdSingRedo,001,"NC, 28",
1,0,1,0,,,,,,,,,,,,,,defeat,sing,blue,16,88,None,,,,,,,,,,,,,2022_Feb_14_1330,59.9425869902,ProdSingRedo,001,"NC, 28",
2,0,2,0,,,,,,,,,,,,,,relation,silent,red,67,257,None,,,,,,,,,,,,,2022_Feb_14_1330,59.9425869902,ProdSingRedo,001,"NC, 28",
3,0,3,0,,,,,,,,,,,,,,title,silent,red,68,331,None,,,,,,,,,,,,,2022_Feb_14_1330,59.9425869902,ProdSingRedo,001,"NC, 28",
4,0,4,0,,,,,,,,,,,,,,sound,sing,blue,17,295,None,,,,,,,,,,,,,2022_Feb_14_1330,59.9425869902,ProdSingRedo,001,"NC, 28",
5,0,5,0,,,,,,,,,,,,,,leader,aloud,yellow,44,168,None,,,,,,,,,,,,,2022_Feb_14_1330,59.9425869902,ProdSingRedo,001,"NC, 28",
6,0,6,0,,,,,,,,,,,,,,reach,silent,red,75,253,None,,,,,,,,,,,,,2022_Feb_14_1330,59.9425869902,ProdSingRedo,001,"NC, 28",
7,0,7,0,,,,,,,,,,,,,,reading,aloud,yellow,45,254,None,,,,,,,,,,,,,2022_Feb_14_1330,59.9425869902,ProdSingRedo,001,"NC, 28",
8,0,8,0,,,,,,,,,,,,,,dance,aloud,yellow,42,84,None,,,,,,,,,,,,,2022_Feb_14_1330,59.9425869902,ProdSingRedo,001,"NC, 28",
9,0,9,0,,,,,,,,,,,,,,beauty,sing,blue,15,18,None,,,,,,,,,,,,,2022_Feb_14_1330,59.9425869902,ProdSingRedo,001,"NC, 28",
10,0,10,0,,,,,,,,,,,,,,literature,sing,blue,8,173,None,,,,,,,,,,,,,2022_Feb_14_1330,59.9425869902,ProdSingRedo,001,"NC, 28",
11,0,11,0,,,,,,,,,,,,,,sleep,aloud,yellow,51,290,None,,,,,,,,,,,,,2022_Feb_14_1330,59.9425869902,ProdSingRedo,001,"NC, 28",
12,0,12,0,,,,,,,,,,,,,,skill,silent,red,62,289,None,,,,,,,,,,,,,2022_Feb_14_1330,59.9425869902,ProdSingRedo,001,"NC, 28",
13,0,13,0,,,,,,,,,,,,,,alert,aloud,yellow,47,6,None,,,,,,,,,,,,,2022_Feb_14_1330,59.9425869902,ProdSingRedo,001,"NC, 28",
14,0,14,0,,,,,,,,,,,,,,display,silent,red,84,98,None,,,,,,,,,,,,,2022_Feb_14_1330,59.9425869902,ProdSingRedo,001,"NC, 28",
15,0,15,0,,,,,,,,,,,,,,agency,sing,blue,5,4,None,,,,,,,,,,,,,2022_Feb_14_1330,59.9425869902,ProdSingRedo,001,"NC, 28",
16,0,16,0,,,,,,,,,,,,,,science,sing,blue,11,275,None,,,,,,,,,,,,,2022_Feb_14_1330,59.9425869902,ProdSingRedo,001,"NC, 28",
17,0,17,0,,,,,,,,,,,,,,military,aloud,yellow,43,190,None,,,,,,,,,,,,,2022_Feb_14_1330,59.9425869902,ProdSingRedo,001,"NC, 28",
18,0,18,0,,,,,,,,,,,,,,question,aloud,yellow,36,247,None,,,,,,,,,,,,,2022_Feb_14_1330,59.9425869902,ProdSingRedo,001,"NC, 28",
19,0,19,0,,,,,,,,,,,,,,universal,sing,blue,19,345,None,,,,,,,,,,,,,2022_Feb_14_1330,59.9425869902,ProdSingRedo,001,"NC, 28",
20,0,20,0,,,,,,,,,,,,,,property,aloud,yellow,50,242,None,,,,,,,,,,,,,2022_Feb_14_1330,59.9425869902,ProdSingRedo,001,"NC, 28",
21,0,21,0,,,,,,,,,,,,,,thick,silent,red,86,327,None,,,,,,,,,,,,,2022_Feb_14_1330,59.9425869902,ProdSingRedo,001,"NC, 28",
22,0,22,0,,,,,,,,,,,,,,solution,aloud,yellow,30,294,None,,,,,,,,,,,,,2022_Feb_14_1330,59.9425869902,ProdSingRedo,001,"NC, 28",
23,0,23,0,,,,,,,,,,,,,,motion,sing,blue,24,194,None,,,,,,,,,,,,,2022_Feb_14_1330,59.9425869902,ProdSingRedo,001,"NC, 28",
24,0,24,0,,,,,,,,,,,,,,thing,silent,red,73,328,None,,,,,,,,,,,,,2022_Feb_14_1330,59.9425869902,ProdSingRedo,001,"NC, 28",
25,0,25,0,,,,,,,,,,,,,,swift,silent,red,79,320,None,,,,,,,,,,,,,2022_Feb_14_1330,59.9425869902,ProdSingRedo,001,"NC, 28",
26,0,26,0,,,,,,,,,,,,,,comfort,silent,red,70,59,None,,,,,,,,,,,,,2022_Feb_14_1330,59.9425869902,ProdSingRedo,001,"NC, 28",
27,0,27,0,,,,,,,,,,,,,,committee,silent,red,89,62,None,,,,,,,,,,,,,2022_Feb_14_1330,59.9425869902,ProdSingRedo,001,"NC, 28",
28,0,28,0,,,,,,,,,,,,,,impact,silent,red,69,157,None,,,,,,,,,,,,,2022_Feb_14_1330,59.9425869902,ProdSingRedo,001,"NC, 28",
29,0,29,0,,,,,,,,,,,,,,group,aloud,yellow,53,143,None,,,,,,,,,,,,,2022_Feb_14_1330,59.9425869902,ProdSingRedo,001,"NC, 28",
30,0,30,0,,,,,,,,,,,,,,engineer,silent,red,80,114,None,,,,,,,,,,,,,2022_Feb_14_1330,59.9425869902,ProdSingRedo,001,"NC, 28",
31,0,31,0,,,,,,,,,,,,,,route,aloud,yellow,52,267,None,,,,,,,,,,,,,2022_Feb_14_1330,59.9425869902,ProdSingRedo,001,"NC, 28",
32,0,32,0,,,,,,,,,,,,,,smell,sing,blue,23,291,None,,,,,,,,,,,,,2022_Feb_14_1330,59.9425869902,ProdSingRedo,001,"NC, 28",
33,0,33,0,,,,,,,,,,,,,,income,silent,red,85,159,None,,,,,,,,,,,,,2022_Feb_14_1330,59.9425869902,ProdSingRedo,001,"NC, 28",
34,0,34,0,,,,,,,,,,,,,,interior,silent,red,76,164,None,,,,,,,,,,,,,2022_Feb_14_1330,59.9425869902,ProdSingRedo,001,"NC, 28",
35,0,35,0,,,,,,,,,,,,,,hearing,aloud,yellow,33,150,None,,,,,,,,,,,,,2022_Feb_14_1330,59.9425869902,ProdSingRedo,001,"NC, 28",
36,0,36,0,,,,,,,,,,,,,,spoke,aloud,yellow,40,300,None,,,,,,,,,,,,,2022_Feb_14_1330,59.9425869902,ProdSingRedo,001,"NC, 28",
37,0,37,0,,,,,,,,,,,,,,country,aloud,yellow,54,73,None,,,,,,,,,,,,,2022_Feb_14_1330,59.9425869902,ProdSingRedo,001,"NC, 28",
38,0,38,0,,,,,,,,,,,,,,theme,aloud,yellow,37,326,None,,,,,,,,,,,,,2022_Feb_14_1330,59.9425869902,ProdSingRedo,001,"NC, 28",
39,0,39,0,,,,,,,,,,,,,,travel,silent,red,64,338,None,,,,,,,,,,,,,2022_Feb_14_1330,59.9425869902,ProdSingRedo,001,"NC, 28",
40,0,40,0,,,,,,,,,,,,,,pattern,silent,red,81,214,None,,,,,,,,,,,,,2022_Feb_14_1330,59.9425869902,ProdSingRedo,001,"NC, 28",
41,0,41,0,,,,,,,,,,,,,,discovery,sing,blue,18,95,None,,,,,,,,,,,,,2022_Feb_14_1330,59.9425869902,ProdSingRedo,001,"NC, 28",
42,0,42,0,,,,,,,,,,,,,,command,aloud,yellow,58,60,None,,,,,,,,,,,,,2022_Feb_14_1330,59.9425869902,ProdSingRedo,001,"NC, 28",
43,0,43,0,,,,,,,,,,,,,,count,silent,red,87,72,None,,,,,,,,,,,,,2022_Feb_14_1330,59.9425869902,ProdSingRedo,001,"NC, 28",
44,0,44,0,,,,,,,,,,,,,,colonel,sing,blue,27,55,None,,,,,,,,,,,,,2022_Feb_14_1330,59.9425869902,ProdSingRedo,001,"NC, 28",
45,0,45,0,,,,,,,,,,,,,,goose,sing,blue,26,138,None,,,,,,,,,,,,,2022_Feb_14_1330,59.9425869902,ProdSingRedo,001,"NC, 28",
46,0,46,0,,,,,,,,,,,,,,charter,silent,red,74,47,None,,,,,,,,,,,,,2022_Feb_14_1330,59.9425869902,ProdSingRedo,001,"NC, 28",
47,0,47,0,,,,,,,,,,,,,,music,sing,blue,20,196,None,,,,,,,,,,,,,2022_Feb_14_1330,59.9425869902,ProdSingRedo,001,"NC, 28",
48,0,48,0,,,,,,,,,,,,,,guide,sing,blue,29,147,None,,,,,,,,,,,,,2022_Feb_14_1330,59.9425869902,ProdSingRedo,001,"NC, 28",
49,0,49,0,,,,,,,,,,,,,,article,aloud,yellow,49,11,None,,,,,,,,,,,,,2022_Feb_14_1330,59.9425869902,ProdSingRedo,001,"NC, 28",
50,0,50,0,,,,,,,,,,,,,,raise,silent,red,72,250,None,,,,,,,,,,,,,2022_Feb_14_1330,59.9425869902,ProdSingRedo,001,"NC, 28",
51,0,51,0,,,,,,,,,,,,,,division,silent,red,78,101,None,,,,,,,,,,,,,2022_Feb_14_1330,59.9425869902,ProdSingRedo,001,"NC, 28",
52,0,52,0,,,,,,,,,,,,,,narrow,sing,blue,12,197,None,,,,,,,,,,,,,2022_Feb_14_1330,59.9425869902,ProdSingRedo,001,"NC, 28",
53,0,53,0,,,,,,,,,,,,,,republic,sing,blue,1,260,None,,,,,,,,,,,,,2022_Feb_14_1330,59.9425869902,ProdSingRedo,001,"NC, 28",
54,0,54,0,,,,,,,,,,,,,,agreement,silent,red,88,5,None,,,,,,,,,,,,,2022_Feb_14_1330,59.9425869902,ProdSingRedo,001,"NC, 28",
55,0,55,0,,,,,,,,,,,,,,rapid,silent,red,66,252,None,,,,,,,,,,,,,2022_Feb_14_1330,59.9425869902,ProdSingRedo,001,"NC, 28",
56,0,56,0,,,,,,,,,,,,,,crime,sing,blue,25,78,None,,,,,,,,,,,,,2022_Feb_14_1330,59.9425869902,ProdSingRedo,001,"NC, 28",
57,0,57,0,,,,,,,,,,,,,,direction,sing,blue,2,94,None,,,,,,,,,,,,,2022_Feb_14_1330,59.9425869902,ProdSingRedo,001,"NC, 28",
58,0,58,0,,,,,,,,,,,,,,taste,sing,blue,9,322,None,,,,,,,,,,,,,2022_Feb_14_1330,59.9425869902,ProdSingRedo,001,"NC, 28",
59,0,59,0,,,,,,,,,,,,,,brief,aloud,yellow,57,28,None,,,,,,,,,,,,,2022_Feb_14_1330,59.9425869902,ProdSingRedo,001,"NC, 28",
60,0,60,0,,,,,,,,,,,,,,youth,aloud,yellow,39,359,None,,,,,,,,,,,,,2022_Feb_14_1330,59.9425869902,ProdSingRedo,001,"NC, 28",
61,0,61,0,,,,,,,,,,,,,,present,silent,red,83,231,None,,,,,,,,,,,,,2022_Feb_14_1330,59.9425869902,ProdSingRedo,001,"NC, 28",
62,0,62,0,,,,,,,,,,,,,,union,sing,blue,14,344,None,,,,,,,,,,,,,2022_Feb_14_1330,59.9425869902,ProdSingRedo,001,"NC, 28",
63,0,63,0,,,,,,,,,,,,,,escape,sing,blue,3,118,None,,,,,,,,,,,,,2022_Feb_14_1330,59.9425869902,ProdSingRedo,001,"NC, 28",
64,0,64,0,,,,,,,,,,,,,,touch,silent,red,65,332,None,,,,,,,,,,,,,2022_Feb_14_1330,59.9425869902,ProdSingRedo,001,"NC, 28",
65,0,65,0,,,,,,,,,,,,,,length,silent,red,77,169,None,,,,,,,,,,,,,2022_Feb_14_1330,59.9425869902,ProdSingRedo,001,"NC, 28",
66,0,66,0,,,,,,,,,,,,,,month,aloud,yellow,55,193,None,,,,,,,,,,,,,2022_Feb_14_1330,59.9425869902,ProdSingRedo,001,"NC, 28",
67,0,67,0,,,,,,,,,,,,,,sunset,silent,red,61,315,None,,,,,,,,,,,,,2022_Feb_14_1330,59.9425869902,ProdSingRedo,001,"NC, 28",
68,0,68,0,,,,,,,,,,,,,,build,aloud,yellow,59,35,None,,,,,,,,,,,,,2022_Feb_14_1330,59.9425869902,ProdSingRedo,001,"NC, 28",
69,0,69,0,,,,,,,,,,,,,,nature,aloud,yellow,56,200,None,,,,,,,,,,,,,2022_Feb_14_1330,59.9425869902,ProdSingRedo,001,"NC, 28",
70,0,70,0,,,,,,,,,,,,,,power,silent,red,71,230,None,,,,,,,,,,,,,2022_Feb_14_1330,59.9425869902,ProdSingRedo,001,"NC, 28",
71,0,71,0,,,,,,,,,,,,,,partner,aloud,yellow,34,211,None,,,,,,,,,,,,,2022_Feb_14_1330,59.9425869902,ProdSingRedo,001,"NC, 28",
72,0,72,0,,,,,,,,,,,,,,notice,sing,blue,13,201,None,,,,,,,,,,,,,2022_Feb_14_1330,59.9425869902,ProdSingRedo,001,"NC, 28",
73,0,73,0,,,,,,,,,,,,,,break,silent,red,63,26,None,,,,,,,,,,,,,2022_Feb_14_1330,59.9425869902,ProdSingRedo,001,"NC, 28",
74,0,74,0,,,,,,,,,,,,,,murder,aloud,yellow,38,195,None,,,,,,,,,,,,,2022_Feb_14_1330,59.9425869902,ProdSingRedo,001,"NC, 28",
75,0,75,0,,,,,,,,,,,,,,council,aloud,yellow,31,71,None,,,,,,,,,,,,,2022_Feb_14_1330,59.9425869902,ProdSingRedo,001,"NC, 28",
76,0,76,0,,,,,,,,,,,,,,bright,aloud,yellow,32,29,None,,,,,,,,,,,,,2022_Feb_14_1330,59.9425869902,ProdSingRedo,001,"NC, 28",
77,0,77,0,,,,,,,,,,,,,,appeal,aloud,yellow,41,9,None,,,,,,,,,,,,,2022_Feb_14_1330,59.9425869902,ProdSingRedo,001,"NC, 28",
78,0,78,0,,,,,,,,,,,,,,treatment,sing,blue,21,339,None,,,,,,,,,,,,,2022_Feb_14_1330,59.9425869902,ProdSingRedo,001,"NC, 28",
79,0,79,0,,,,,,,,,,,,,,track,sing,blue,6,334,None,,,,,,,,,,,,,2022_Feb_14_1330,59.9425869902,ProdSingRedo,001,"NC, 28",
80,0,80,0,,,,,,,,,,,,,,empty,sing,blue,4,112,None,,,,,,,,,,,,,2022_Feb_14_1330,59.9425869902,ProdSingRedo,001,"NC, 28",
81,0,81,0,,,,,,,,,,,,,,story,sing,blue,0,306,None,,,,,,,,,,,,,2022_Feb_14_1330,59.9425869902,ProdSingRedo,001,"NC, 28",
82,0,82,0,,,,,,,,,,,,,,block,aloud,yellow,46,25,None,,,,,,,,,,,,,2022_Feb_14_1330,59.9425869902,ProdSingRedo,001,"NC, 28",
83,0,83,0,,,,,,,,,,,,,,pancakes,sing,blue,22,210,None,,,,,,,,,,,,,2022_Feb_14_1330,59.9425869902,ProdSingRedo,001,"NC, 28",
84,0,84,0,,,,,,,,,,,,,,color,aloud,yellow,48,56,None,,,,,,,,,,,,,2022_Feb_14_1330,59.9425869902,ProdSingRedo,001,"NC, 28",
85,0,85,0,,,,,,,,,,,,,,turkey,silent,red,60,342,None,,,,,,,,,,,,,2022_Feb_14_1330,59.9425869902,ProdSingRedo,001,"NC, 28",
86,0,86,0,,,,,,,,,,,,,,meeting,sing,blue,7,187,None,,,,,,,,,,,,,2022_Feb_14_1330,59.9425869902,ProdSingRedo,001,"NC, 28",
87,0,87,0,,,,,,,,,,,,,,series,silent,red,82,279,None,,,,,,,,,,,,,2022_Feb_14_1330,59.9425869902,ProdSingRedo,001,"NC, 28",
88,0,88,0,,,,,,,,,,,,,,season,sing,blue,10,277,None,,,,,,,,,,,,,2022_Feb_14_1330,59.9425869902,ProdSingRedo,001,"NC, 28",
89,0,89,0,,,,,,,,,,,,,,executive,sing,blue,28,122,None,,,,,,,,,,,,,2022_Feb_14_1330,59.9425869902,ProdSingRedo,001,"NC, 28",
,,,,,,,,,,,,,,,,,,,,,,,k,190.0139474,,,,,,,,,,,2022_Feb_14_1330,59.9425869902,ProdSingRedo,001,"NC, 28",
,,,,0,0,0,0,,,,,,,,,,,,,,,,,,worker,new_b,white,0,131,356,2,4.3998262,n,3.6196534,2022_Feb_14_1330,59.9425869902,ProdSingRedo,001,"NC, 28",
,,,,1,0,1,0,,,,,,,,,,,,,,,,,,growth,new_b,white,1,137,144,1,2.4687514,f,2.7061003,2022_Feb_14_1330,59.9425869902,ProdSingRedo,001,"NC, 28",
,,,,2,0,2,0,,,,,,,,,,,,,,,,,,close,new_b,white,2,129,53,3,3.3680009,n,2.5172776,2022_Feb_14_1330,59.9425869902,ProdSingRedo,001,"NC, 28",
,,,,3,0,3,0,,,,,,,,,,,,,,,,,,straight,new_a,white,3,118,307,6,3.2987441,r,1.5820808,2022_Feb_14_1330,59.9425869902,ProdSingRedo,001,"NC, 28",
,,,,4,0,4,0,,,,,,,,,,,,,,,,,,length,silent,white,4,77,169,1,2.3795467,f,1.3678994,2022_Feb_14_1330,59.9425869902,ProdSingRedo,001,"NC, 28",
,,,,5,0,5,0,,,,,,,,,,,,,,,,,,quiet,new_a,white,5,108,249,1,2.754867,n,1.6499282,2022_Feb_14_1330,59.9425869902,ProdSingRedo,001,"NC, 28",
,,,,6,0,6,0,,,,,,,,,,,,,,,,,,sound,sing,white,6,17,295,3,6.2439433,f,1.088647,2022_Feb_14_1330,59.9425869902,ProdSingRedo,001,"NC, 28",
,,,,7,0,7,0,,,,,,,,,,,,,,,,,,motion,sing,white,7,24,194,6,2.4756045,r,1.1459801,2022_Feb_14_1330,59.9425869902,ProdSingRedo,001,"NC, 28",
,,,,8,0,8,0,,,,,,,,,,,,,,,,,,charter,silent,white,8,74,47,1,5.2622605,n,1.1638433,2022_Feb_14_1330,59.9425869902,ProdSingRedo,001,"NC, 28",
,,,,9,0,9,0,,,,,,,,,,,,,,,,,,poetry,new_a,white,9,99,225,3,3.7142345,f,1.3336734,2022_Feb_14_1330,59.9425869902,ProdSingRedo,001,"NC, 28",
,,,,10,0,10,0,,,,,,,,,,,,,,,,,,solution,aloud,white,10,30,294,6,2.1559012,r,1.0239894,2022_Feb_14_1330,59.9425869902,ProdSingRedo,001,"NC, 28",
,,,,11,0,11,0,,,,,,,,,,,,,,,,,,reading,aloud,white,11,45,254,6,2.440327,r,1.0173087,2022_Feb_14_1330,59.9425869902,ProdSingRedo,001,"NC, 28",
,,,,12,0,12,0,,,,,,,,,,,,,,,,,,threat,new_c,white,12,154,329,1,1.9933319,n,2.1431422,2022_Feb_14_1330,59.9425869902,ProdSingRedo,001,"NC, 28",
,,,,13,0,13,0,,,,,,,,,,,,,,,,,,thing,silent,white,13,73,328,2,3.8922132,f,2.1450847,2022_Feb_14_1330,59.9425869902,ProdSingRedo,001,"NC, 28",
,,,,14,0,14,0,,,,,,,,,,,,,,,,,,dispute,new_c,white,14,175,99,1,3.9293093,f,2.4161265,2022_Feb_14_1330,59.9425869902,ProdSingRedo,001,"NC, 28",
,,,,15,0,15,0,,,,,,,,,,,,,,,,,,quick,new_c,white,15,164,248,1,2.6083886,n,1.5785334,2022_Feb_14_1330,59.9425869902,ProdSingRedo,001,"NC, 28",
,,,,16,0,16,0,,,,,,,,,,,,,,,,,,raise,silent,white,16,72,250,6,3.5235387,r,0.6409164,2022_Feb_14_1330,59.9425869902,ProdSingRedo,001,"NC, 28",
,,,,17,0,17,0,,,,,,,,,,,,,,,,,,track,sing,white,17,6,334,2,2.3232355,f,1.3995731,2022_Feb_14_1330,59.9425869902,ProdSingRedo,001,"NC, 28",
,,,,18,0,18,0,,,,,,,,,,,,,,,,,,bright,aloud,white,18,32,29,6,2.4293997,r,0.8603834,2022_Feb_14_1330,59.9425869902,ProdSingRedo,001,"NC, 28",
,,,,19,0,19,0,,,,,,,,,,,,,,,,,,generation,new_c,white,19,157,136,1,2.0308746,n,2.3519717,2022_Feb_14_1330,59.9425869902,ProdSingRedo,001,"NC, 28",
,,,,20,0,20,0,,,,,,,,,,,,,,,,,,corner,new_a,white,20,115,69,1,2.9606319,n,1.6033796,2022_Feb_14_1330,59.9425869902,ProdSingRedo,001,"NC, 28",
,,,,21,0,21,0,,,,,,,,,,,,,,,,,,bicycle,new_a,white,21,102,21,1,2.9443794,n,1.9230484,2022_Feb_14_1330,59.9425869902,ProdSingRedo,001,"NC, 28",
,,,,22,0,22,0,,,,,,,,,,,,,,,,,,hearing,aloud,white,22,33,150,6,1.9832782,r,0.7313378,2022_Feb_14_1330,59.9425869902,ProdSingRedo,001,"NC, 28",
,,,,23,0,23,0,,,,,,,,,,,,,,,,,,pattern,silent,white,23,81,214,3,2.5931638,f,1.6918769,2022_Feb_14_1330,59.9425869902,ProdSingRedo,001,"NC, 28",
,,,,24,0,24,0,,,,,,,,,,,,,,,,,,leader,aloud,white,24,44,168,1,3.219381,n,1.1812922,2022_Feb_14_1330,59.9425869902,ProdSingRedo,001,"NC, 28",
,,,,25,0,25,0,,,,,,,,,,,,,,,,,,fight,new_b,white,25,130,127,2,2.4719473,f,1.4320759,2022_Feb_14_1330,59.9425869902,ProdSingRedo,001,"NC, 28",
,,,,26,0,26,0,,,,,,,,,,,,,,,,,,couch,new_b,white,26,138,70,1,3.5875977,n,1.1399718,2022_Feb_14_1330,59.9425869902,ProdSingRedo,001,"NC, 28",
,,,,27,0,27,0,,,,,,,,,,,,,,,,,,answer,new_c,white,27,159,8,1,2.5627997,n,1.2411888,2022_Feb_14_1330,59.9425869902,ProdSingRedo,001,"NC, 28",
,,,,28,0,28,0,,,,,,,,,,,,,,,,,,object,new_c,white,28,153,204,1,2.8469882,f,1.3695628,2022_Feb_14_1330,59.9425869902,ProdSingRedo,001,"NC, 28",
,,,,29,0,29,0,,,,,,,,,,,,,,,,,,principal,new_a,white,29,113,236,1,2.5444901,f,1.5336117,2022_Feb_14_1330,59.9425869902,ProdSingRedo,001,"NC, 28",
,,,,30,0,30,0,,,,,,,,,,,,,,,,,,congress,new_c,white,30,179,67,1,2.140909,n,0.9019915,2022_Feb_14_1330,59.9425869902,ProdSingRedo,001,"NC, 28",
,,,,31,0,31,0,,,,,,,,,,,,,,,,,,debate,new_c,white,31,176,87,1,2.1060265,n,0.9738611,2022_Feb_14_1330,59.9425869902,ProdSingRedo,001,"NC, 28",
,,,,32,0,32,0,,,,,,,,,,,,,,,,,,count,silent,white,32,87,72,6,2.4921084,r,0.3228828,2022_Feb_14_1330,59.9425869902,ProdSingRedo,001,"NC, 28",
,,,,33,0,33,0,,,,,,,,,,,,,,,,,,relation,silent,white,33,67,257,6,4.361036,r,0.3651337,2022_Feb_14_1330,59.9425869902,ProdSingRedo,001,"NC, 28",
,,,,34,0,34,0,,,,,,,,,,,,,,,,,,command,aloud,white,34,58,60,2,2.1817136,n,3.0033683,2022_Feb_14_1330,59.9425869902,ProdSingRedo,001,"NC, 28",
,,,,35,0,35,0,,,,,,,,,,,,,,,,,,present,silent,white,35,83,231,1,4.0592807,n,1.0912707,2022_Feb_14_1330,59.9425869902,ProdSingRedo,001,"NC, 28",
,,,,36,0,36,0,,,,,,,,,,,,,,,,,,division,silent,white,36,78,101,1,4.5182251,n,1.7313591,2022_Feb_14_1330,59.9425869902,ProdSingRedo,001,"NC, 28",
,,,,37,0,37,0,,,,,,,,,,,,,,,,,,court,new_a,white,37,103,75,3,3.6647238,r,1.1976151,2022_Feb_14_1330,59.9425869902,ProdSingRedo,001,"NC, 28",
,,,,38,0,38,0,,,,,,,,,,,,,,,,,,account,new_b,white,38,141,1,1,2.0214711,r,1.0303508,2022_Feb_14_1330,59.9425869902,ProdSingRedo,001,"NC, 28",
,,,,39,0,39,0,,,,,,,,,,,,,,,,,,tragedy,new_a,white,39,100,335,6,2.7205654,r,1.7096222,2022_Feb_14_1330,59.9425869902,ProdSingRedo,001,"NC, 28",
,,,,40,0,40,0,,,,,,,,,,,,,,,,,,employment,new_a,white,40,109,111,6,3.2400294,r,0.6212295,2022_Feb_14_1330,59.9425869902,ProdSingRedo,001,"NC, 28",
,,,,41,0,41,0,,,,,,,,,,,,,,,,,,reach,silent,white,41,75,253,2,4.4671215,f,0.8753015,2022_Feb_14_1330,59.9425869902,ProdSingRedo,001,"NC, 28",
,,,,42,0,42,0,,,,,,,,,,,,,,,,,,trash,new_b,white,42,122,337,6,2.4812473,r,0.3907587,2022_Feb_14_1330,59.9425869902,ProdSingRedo,001,"NC, 28",
,,,,43,0,43,0,,,,,,,,,,,,,,,,,,color,aloud,white,43,48,56,6,1.8319383,r,0.5472782,2022_Feb_14_1330,59.9425869902,ProdSingRedo,001,"NC, 28",
,,,,44,0,44,0,,,,,,,,,,,,,,,,,,travel,silent,white,44,64,338,6,2.3620932,f,1.09339,2022_Feb_14_1330,59.9425869902,ProdSingRedo,001,"NC, 28",
,,,,45,0,45,0,,,,,,,,,,,,,,,,,,impact,silent,white,45,69,157,3,4.3979472,n,1.0446095,2022_Feb_14_1330,59.9425869902,ProdSingRedo,001,"NC, 28",
,,,,46,0,46,0,,,,,,,,,,,,,,,,,,staff,new_b,white,46,128,301,1,2.1367305,n,1.263376,2022_Feb_14_1330,59.9425869902,ProdSingRedo,001,"NC, 28",
,,,,47,0,47,0,,,,,,,,,,,,,,,,,,direction,sing,white,47,2,94,1,4.1455505,n,0.8932493,2022_Feb_14_1330,59.9425869902,ProdSingRedo,001,"NC, 28",
,,,,48,0,48,0,,,,,,,,,,,,,,,,,,rapid,silent,white,48,66,252,1,3.226057,n,0.9881014,2022_Feb_14_1330,59.9425869902,ProdSingRedo,001,"NC, 28",
,,,,49,0,49,0,,,,,,,,,,,,,,,,,,volume,aloud,white,49,35,349,3,4.0781168,r,1.214827,2022_Feb_14_1330,59.9425869902,ProdSingRedo,001,"NC, 28",
,,,,50,0,50,0,,,,,,,,,,,,,,,,,,discovery,sing,white,50,18,95,1,5.7430364,r,1.4719605,2022_Feb_14_1330,59.9425869902,ProdSingRedo,001,"NC, 28",
,,,,51,0,51,0,,,,,,,,,,,,,,,,,,distance,new_c,white,51,158,100,4,4.5394287,r,1.7610097,2022_Feb_14_1330,59.9425869902,ProdSingRedo,001,"NC, 28",
,,,,52,0,52,0,,,,,,,,,,,,,,,,,,heavy,new_b,white,52,125,151,1,2.9348391,n,1.4650576,2022_Feb_14_1330,59.9425869902,ProdSingRedo,001,"NC, 28",
,,,,53,0,53,0,,,,,,,,,,,,,,,,,,skill,silent,white,53,62,289,6,2.1295998,r,0.8256163,2022_Feb_14_1330,59.9425869902,ProdSingRedo,001,"NC, 28",
,,,,54,0,54,0,,,,,,,,,,,,,,,,,,finish,new_c,white,54,171,130,4,2.3633175,f,1.3603818,2022_Feb_14_1330,59.9425869902,ProdSingRedo,001,"NC, 28",
,,,,55,0,55,0,,,,,,,,,,,,,,,,,,captain,new_c,white,55,165,41,3,2.9027387,n,1.0117812,2022_Feb_14_1330,59.9425869902,ProdSingRedo,001,"NC, 28",
,,,,56,0,56,0,,,,,,,,,,,,,,,,,,turkey,silent,white,56,60,342,1,1.9482397,n,1.3978136,2022_Feb_14_1330,59.9425869902,ProdSingRedo,001,"NC, 28",
,,,,57,0,57,0,,,,,,,,,,,,,,,,,,sunset,silent,white,57,61,315,2,2.158263,f,1.0801396,2022_Feb_14_1330,59.9425869902,ProdSingRedo,001,"NC, 28",
,,,,58,0,58,0,,,,,,,,,,,,,,,,,,childhood,new_c,white,58,160,49,1,3.0068395,n,1.0448363,2022_Feb_14_1330,59.9425869902,ProdSingRedo,001,"NC, 28",
,,,,59,0,59,0,,,,,,,,,,,,,,,,,,equipment,new_a,white,59,114,116,1,2.6035377,n,1.1221372,2022_Feb_14_1330,59.9425869902,ProdSingRedo,001,"NC, 28",
,,,,60,0,60,0,,,,,,,,,,,,,,,,,,medicine,new_c,white,60,172,186,2,2.4247002,n,1.0667071,2022_Feb_14_1330,59.9425869902,ProdSingRedo,001,"NC, 28",
,,,,61,0,61,0,,,,,,,,,,,,,,,,,,general,new_b,white,61,143,135,1,2.7087192,n,1.2984178,2022_Feb_14_1330,59.9425869902,ProdSingRedo,001,"NC, 28",
,,,,62,0,62,0,,,,,,,,,,,,,,,,,,pretty,new_b,white,62,133,233,3,2.0776513,n,1.3853494,2022_Feb_14_1330,59.9425869902,ProdSingRedo,001,"NC, 28",
,,,,63,0,63,0,,,,,,,,,,,,,,,,,,novel,new_b,white,63,139,202,3,4.5139776,n,1.3602429,2022_Feb_14_1330,59.9425869902,ProdSingRedo,001,"NC, 28",
,,,,64,0,64,0,,,,,,,,,,,,,,,,,,crowd,new_c,white,64,168,81,4,2.1860494,n,1.3764793,2022_Feb_14_1330,59.9425869902,ProdSingRedo,001,"NC, 28",
,,,,65,0,65,0,,,,,,,,,,,,,,,,,,executive,sing,white,65,28,122,3,5.6659231,n,0.8700842,2022_Feb_14_1330,59.9425869902,ProdSingRedo,001,"NC, 28",
,,,,66,0,66,0,,,,,,,,,,,,,,,,,,region,new_c,white,66,161,256,2,3.2333894,f,1.0259112,2022_Feb_14_1330,59.9425869902,ProdSingRedo,001,"NC, 28",
,,,,67,0,67,0,,,,,,,,,,,,,,,,,,universal,sing,white,67,19,345,3,4.557655,f,1.055281,2022_Feb_14_1330,59.9425869902,ProdSingRedo,001,"NC, 28",
,,,,68,0,68,0,,,,,,,,,,,,,,,,,,piece,new_a,white,68,104,221,4,2.4608427,r,0.9793823,2022_Feb_14_1330,59.9425869902,ProdSingRedo,001,"NC, 28",
,,,,69,0,69,0,,,,,,,,,,,,,,,,,,degree,new_a,white,69,101,89,2,7.418099,n,1.1214608,2022_Feb_14_1330,59.9425869902,ProdSingRedo,001,"NC, 28",
,,,,70,0,70,0,,,,,,,,,,,,,,,,,,error,new_c,white,70,152,117,1,2.4602923,n,1.0152446,2022_Feb_14_1330,59.9425869902,ProdSingRedo,001,"NC, 28",
,,,,71,0,71,0,,,,,,,,,,,,,,,,,,quarter,new_c,white,71,177,246,3,3.3565655,f,0.8584612,2022_Feb_14_1330,59.9425869902,ProdSingRedo,001,"NC, 28",
,,,,72,0,72,0,,,,,,,,,,,,,,,,,,route,aloud,white,72,52,267,6,2.0765868,r,1.0146406,2022_Feb_14_1330,59.9425869902,ProdSingRedo,001,"NC, 28",
,,,,73,0,73,0,,,,,,,,,,,,,,,,,,health,new_b,white,73,145,149,4,2.9299933,f,0.8262231,2022_Feb_14_1330,59.9425869902,ProdSingRedo,001,"NC, 28",
,,,,74,0,74,0,,,,,,,,,,,,,,,,,,signal,new_a,white,74,94,287,4,4.0708617,f,1.376713,2022_Feb_14_1330,59.9425869902,ProdSingRedo,001,"NC, 28",
,,,,75,0,75,0,,,,,,,,,,,,,,,,,,silence,new_b,white,75,142,288,6,3.1810738,n,1.5111915,2022_Feb_14_1330,59.9425869902,ProdSingRedo,001,"NC, 28",
,,,,76,0,76,0,,,,,,,,,,,,,,,,,,story,sing,white,76,0,306,4,2.0176949,f,1.5705297,2022_Feb_14_1330,59.9425869902,ProdSingRedo,001,"NC, 28",
,,,,77,0,77,0,,,,,,,,,,,,,,,,,,profession,new_c,white,77,167,241,3,3.0528258,f,1.4025158,2022_Feb_14_1330,59.9425869902,ProdSingRedo,001,"NC, 28",
,,,,78,0,78,0,,,,,,,,,,,,,,,,,,country,aloud,white,78,54,73,6,1.7031903,r,0.4374984,2022_Feb_14_1330,59.9425869902,ProdSingRedo,001,"NC, 28",
,,,,79,0,79,0,,,,,,,,,,,,,,,,,,science,sing,white,79,11,275,6,2.1680379,r,0.4839705,2022_Feb_14_1330,59.9425869902,ProdSingRedo,001,"NC, 28",
,,,,80,0,80,0,,,,,,,,,,,,,,,,,,union,sing,white,80,14,344,3,3.0893547,n,2.1724269,2022_Feb_14_1330,59.9425869902,ProdSingRedo,001,"NC, 28",
,,,,81,0,81,0,,,,,,,,,,,,,,,,,,minor,new_a,white,81,116,191,1,2.7806546,n,0.9793344,2022_Feb_14_1330,59.9425869902,ProdSingRedo,001,"NC, 28",
,,,,82,0,82,0,,,,,,,,,,,,,,,,,,measure,new_a,white,82,105,184,1,2.2159898,f,1.1178129,2022_Feb_14_1330,59.9425869902,ProdSingRedo,001,"NC, 28",
,,,,83,0,83,0,,,,,,,,,,,,,,,,,,alert,aloud,white,83,47,6,6,2.9649107,r,0.57364,2022_Feb_14_1330,59.9425869902,ProdSingRedo,001,"NC, 28",
,,,,84,0,84,0,,,,,,,,,,,,,,,,,,dance,aloud,white,84,42,84,6,1.9310971,r,0.4735485,2022_Feb_14_1330,59.9425869902,ProdSingRedo,001,"NC, 28",
,,,,85,0,85,0,,,,,,,,,,,,,,,,,,tough,new_c,white,85,156,333,2,2.374804,n,0.9719705,2022_Feb_14_1330,59.9425869902,ProdSingRedo,001,"NC, 28",
,,,,86,0,86,0,,,,,,,,,,,,,,,,,,patient,new_a,white,86,93,213,1,7.4846628,f,1.707879,2022_Feb_14_1330,59.9425869902,ProdSingRedo,001,"NC, 28",
,,,,87,0,87,0,,,,,,,,,,,,,,,,,,harmony,new_b,white,87,148,148,5,3.3270622,n,1.1244913,2022_Feb_14_1330,59.9425869902,ProdSingRedo,001,"NC, 28",
,,,,88,0,88,0,,,,,,,,,,,,,,,,,,display,silent,white,88,84,98,2,3.8186349,f,1.3119481,2022_Feb_14_1330,59.9425869902,ProdSingRedo,001,"NC, 28",
,,,,89,0,89,0,,,,,,,,,,,,,,,,,,brief,aloud,white,89,57,28,6,1.8090534,r,0.4951432,2022_Feb_14_1330,59.9425869902,ProdSingRedo,001,"NC, 28",
,,,,90,0,90,0,,,,,,,,,,,,,,,,,,level,new_a,white,90,91,170,6,2.1916311,r,0.3686498,2022_Feb_14_1330,59.9425869902,ProdSingRedo,001,"NC, 28",
,,,,91,0,91,0,,,,,,,,,,,,,,,,,,break,silent,white,91,63,26,3,2.2688182,f,0.6592653,2022_Feb_14_1330,59.9425869902,ProdSingRedo,001,"NC, 28",
,,,,92,0,92,0,,,,,,,,,,,,,,,,,,touch,silent,white,92,65,332,5,2.5526448,r,1.0759826,2022_Feb_14_1330,59.9425869902,ProdSingRedo,001,"NC, 28",
,,,,93,0,93,0,,,,,,,,,,,,,,,,,,minute,new_c,white,93,155,192,4,2.9308864,r,1.6480054,2022_Feb_14_1330,59.9425869902,ProdSingRedo,001,"NC, 28",
,,,,94,0,94,0,,,,,,,,,,,,,,,,,,engineer,silent,white,94,80,114,6,1.9601033,r,0.819683,2022_Feb_14_1330,59.9425869902,ProdSingRedo,001,"NC, 28",
,,,,95,0,95,0,,,,,,,,,,,,,,,,,,interior,silent,white,95,76,164,1,2.563926,n,0.9946988,2022_Feb_14_1330,59.9425869902,ProdSingRedo,001,"NC, 28",
,,,,96,0,96,0,,,,,,,,,,,,,,,,,,block,aloud,white,96,46,25,6,3.181819,r,0.5147597,2022_Feb_14_1330,59.9425869902,ProdSingRedo,001,"NC, 28",
,,,,97,0,97,0,,,,,,,,,,,,,,,,,,music,sing,white,97,20,196,6,1.8650327,r,0.678259,2022_Feb_14_1330,59.9425869902,ProdSingRedo,001,"NC, 28",
,,,,98,0,98,0,,,,,,,,,,,,,,,,,,partner,aloud,white,98,34,211,5,2.7816624,f,0.9433998,2022_Feb_14_1330,59.9425869902,ProdSingRedo,001,"NC, 28",
,,,,99,0,99,0,,,,,,,,,,,,,,,,,,comfort,silent,white,99,70,59,4,2.9371542,f,1.0381966,2022_Feb_14_1330,59.9425869902,ProdSingRedo,001,"NC, 28",
,,,,100,0,100,0,,,,,,,,,,,,,,,,,,problem,new_c,white,100,170,238,3,2.9215427,n,0.8112743,2022_Feb_14_1330,59.9425869902,ProdSingRedo,001,"NC, 28",
,,,,101,0,101,0,,,,,,,,,,,,,,,,,,defeat,sing,white,101,16,88,4,2.2479252,f,0.6196356,2022_Feb_14_1330,59.9425869902,ProdSingRedo,001,"NC, 28",
,,,,102,0,102,0,,,,,,,,,,,,,,,,,,narrow,sing,white,102,12,197,2,1.8341789,n,0.9569046,2022_Feb_14_1330,59.9425869902,ProdSingRedo,001,"NC, 28",
,,,,103,0,103,0,,,,,,,,,,,,,,,,,,thick,silent,white,103,86,327,6,1.9092982,r,0.9442689,2022_Feb_14_1330,59.9425869902,ProdSingRedo,001,"NC, 28",
,,,,104,0,104,0,,,,,,,,,,,,,,,,,,agreement,silent,white,104,88,5,6,1.8203187,r,0.6680946,2022_Feb_14_1330,59.9425869902,ProdSingRedo,001,"NC, 28",
,,,,105,0,105,0,,,,,,,,,,,,,,,,,,member,new_b,white,105,120,188,2,3.5778753,n,0.7765704,2022_Feb_14_1330,59.9425869902,ProdSingRedo,001,"NC, 28",
,,,,106,0,106,0,,,,,,,,,,,,,,,,,,master,new_a,white,106,90,180,1,3.5188636,f,1.5691698,2022_Feb_14_1330,59.9425869902,ProdSingRedo,001,"NC, 28",
,,,,107,0,107,0,,,,,,,,,,,,,,,,,,build,aloud,white,107,59,35,6,1.8043717,r,0.3260985,2022_Feb_14_1330,59.9425869902,ProdSingRedo,001,"NC, 28",
,,,,108,0,108,0,,,,,,,,,,,,,,,,,,escape,sing,white,108,3,118,6,1.1603111,r,0.2928851,2022_Feb_14_1330,59.9425869902,ProdSingRedo,001,"NC, 28",
,,,,109,0,109,0,,,,,,,,,,,,,,,,,,private,new_a,white,109,111,237,3,1.5941812,n,0.6151627,2022_Feb_14_1330,59.9425869902,ProdSingRedo,001,"NC, 28",
,,,,110,0,110,0,,,,,,,,,,,,,,,,,,article,aloud,white,110,49,11,3,4.4193433,n,1.0181125,2022_Feb_14_1330,59.9425869902,ProdSingRedo,001,"NC, 28",
,,,,111,0,111,0,,,,,,,,,,,,,,,,,,murder,aloud,white,111,38,195,6,2.2253516,r,0.3135073,2022_Feb_14_1330,59.9425869902,ProdSingRedo,001,"NC, 28",
,,,,112,0,112,0,,,,,,,,,,,,,,,,,,beauty,sing,white,112,15,18,6,1.5752573,r,0.2733491,2022_Feb_14_1330,59.9425869902,ProdSingRedo,001,"NC, 28",
,,,,113,0,113,0,,,,,,,,,,,,,,,,,,power,silent,white,113,71,230,4,2.0245697,n,1.3293947,2022_Feb_14_1330,59.9425869902,ProdSingRedo,001,"NC, 28",
,,,,114,0,114,0,,,,,,,,,,,,,,,,,,committee,silent,white,114,89,62,6,1.5318347,r,0.4693771,2022_Feb_14_1330,59.9425869902,ProdSingRedo,001,"NC, 28",
,,,,115,0,115,0,,,,,,,,,,,,,,,,,,election,new_a,white,115,97,109,3,2.2423844,n,0.8653798,2022_Feb_14_1330,59.9425869902,ProdSingRedo,001,"NC, 28",
,,,,116,0,116,0,,,,,,,,,,,,,,,,,,pressure,new_b,white,116,144,232,5,1.995604,r,1.1555142,2022_Feb_14_1330,59.9425869902,ProdSingRedo,001,"NC, 28",
,,,,117,0,117,0,,,,,,,,,,,,,,,,,,question,aloud,white,117,36,247,3,5.2281128,f,1.4722826,2022_Feb_14_1330,59.9425869902,ProdSingRedo,001,"NC, 28",
,,,,118,0,118,0,,,,,,,,,,,,,,,,,,youth,aloud,white,118,39,359,6,1.7727247,r,0.2920696,2022_Feb_14_1330,59.9425869902,ProdSingRedo,001,"NC, 28",
,,,,119,0,119,0,,,,,,,,,,,,,,,,,,taste,sing,white,119,9,322,6,2.9101527,r,0.977608,2022_Feb_14_1330,59.9425869902,ProdSingRedo,001,"NC, 28",
,,,,120,0,120,0,,,,,,,,,,,,,,,,,,treatment,sing,white,120,21,339,6,1.7464634,r,0.4889667,2022_Feb_14_1330,59.9425869902,ProdSingRedo,001,"NC, 28",
,,,,121,0,121,0,,,,,,,,,,,,,,,,,,smell,sing,white,121,23,291,4,2.3139963,f,0.5471871,2022_Feb_14_1330,59.9425869902,ProdSingRedo,001,"NC, 28",
,,,,122,0,122,0,,,,,,,,,,,,,,,,,,guide,sing,white,122,29,147,3,2.4240936,n,0.5630533,2022_Feb_14_1330,59.9425869902,ProdSingRedo,001,"NC, 28",
,,,,123,0,123,0,,,,,,,,,,,,,,,,,,subject,new_b,white,123,135,312,3,4.4011529,f,0.6319333,2022_Feb_14_1330,59.9425869902,ProdSingRedo,001,"NC, 28",
,,,,124,0,124,0,,,,,,,,,,,,,,,,,,front,new_a,white,124,110,134,1,1.6289382,n,2.1395257,2022_Feb_14_1330,59.9425869902,ProdSingRedo,001,"NC, 28",
,,,,125,0,125,0,,,,,,,,,,,,,,,,,,permit,new_a,white,125,95,218,2,2.8476464,f,0.4982113,2022_Feb_14_1330,59.9425869902,ProdSingRedo,001,"NC, 28",
,,,,126,0,126,0,,,,,,,,,,,,,,,,,,appeal,aloud,white,126,41,9,6,2.2385888,r,0.5224923,2022_Feb_14_1330,59.9425869902,ProdSingRedo,001,"NC, 28",
,,,,127,0,127,0,,,,,,,,,,,,,,,,,,write,new_c,white,127,162,358,3,2.1800412,n,0.4819608,2022_Feb_14_1330,59.9425869902,ProdSingRedo,001,"NC, 28",
,,,,128,0,128,0,,,,,,,,,,,,,,,,,,sleep,aloud,white,128,51,290,6,1.8043142,r,0.4008803,2022_Feb_14_1330,59.9425869902,ProdSingRedo,001,"NC, 28",
,,,,129,0,129,0,,,,,,,,,,,,,,,,,,surprise,new_c,white,129,150,317,3,3.7026326,n,0.4718554,2022_Feb_14_1330,59.9425869902,ProdSingRedo,001,"NC, 28",
,,,,130,0,130,0,,,,,,,,,,,,,,,,,,provision,new_a,white,130,106,243,4,2.7673785,f,1.0678621,2022_Feb_14_1330,59.9425869902,ProdSingRedo,001,"NC, 28",
,,,,131,0,131,0,,,,,,,,,,,,,,,,,,council,aloud,white,131,31,71,6,2.6451308,r,0.933858,2022_Feb_14_1330,59.9425869902,ProdSingRedo,001,"NC, 28",
,,,,132,0,132,0,,,,,,,,,,,,,,,,,,month,aloud,white,132,55,193,6,1.5866067,r,0.4424627,2022_Feb_14_1330,59.9425869902,ProdSingRedo,001,"NC, 28",
,,,,133,0,133,0,,,,,,,,,,,,,,,,,,people,new_a,white,133,98,216,4,2.6147846,n,0.6598469,2022_Feb_14_1330,59.9425869902,ProdSingRedo,001,"NC, 28",
,,,,134,0,134,0,,,,,,,,,,,,,,,,,,breath,new_a,white,134,92,27,5,2.3867391,n,1.0611143,2022_Feb_14_1330,59.9425869902,ProdSingRedo,001,"NC, 28",
,,,,135,0,135,0,,,,,,,,,,,,,,,,,,military,aloud,white,135,43,190,6,2.7480167,f,1.2071568,2022_Feb_14_1330,59.9425869902,ProdSingRedo,001,"NC, 28",
,,,,136,0,136,0,,,,,,,,,,,,,,,,,,group,aloud,white,136,53,143,6,1.944289,r,0.4039993,2022_Feb_14_1330,59.9425869902,ProdSingRedo,001,"NC, 28",
,,,,137,0,137,0,,,,,,,,,,,,,,,,,,dream,new_a,white,137,117,104,3,1.8959804,n,0.6270308,2022_Feb_14_1330,59.9425869902,ProdSingRedo,001,"NC, 28",
,,,,138,0,138,0,,,,,,,,,,,,,,,,,,trail,new_b,white,138,127,336,4,2.1574175,f,1.8913538,2022_Feb_14_1330,59.9425869902,ProdSingRedo,001,"NC, 28",
,,,,139,0,139,0,,,,,,,,,,,,,,,,,,title,silent,white,139,68,331,1,1.9302791,n,1.1804634,2022_Feb_14_1330,59.9425869902,ProdSingRedo,001,"NC, 28",
,,,,140,0,140,0,,,,,,,,,,,,,,,,,,bureau,new_a,white,140,112,37,1,1.7828322,n,0.7256973,2022_Feb_14_1330,59.9425869902,ProdSingRedo,001,"NC, 28",
,,,,141,0,141,0,,,,,,,,,,,,,,,,,,curve,new_c,white,141,169,82,1,1.9060486,n,0.5605763,2022_Feb_14_1330,59.9425869902,ProdSingRedo,001,"NC, 28",
,,,,142,0,142,0,,,,,,,,,,,,,,,,,,character,new_b,white,142,146,46,3,1.7921362,f,0.6241108,2022_Feb_14_1330,59.9425869902,ProdSingRedo,001,"NC, 28",
,,,,143,0,143,0,,,,,,,,,,,,,,,,,,contract,new_b,white,143,134,68,5,1.7613845,f,1.2092748,2022_Feb_14_1330,59.9425869902,ProdSingRedo,001,"NC, 28",
,,,,144,0,144,0,,,,,,,,,,,,,,,,,,notice,sing,white,144,13,201,6,1.9812928,r,0.3873631,2022_Feb_14_1330,59.9425869902,ProdSingRedo,001,"NC, 28",
,,,,145,0,145,0,,,,,,,,,,,,,,,,,,property,aloud,white,145,50,242,4,3.262398,f,1.0759145,2022_Feb_14_1330,59.9425869902,ProdSingRedo,001,"NC, 28",
,,,,146,0,146,0,,,,,,,,,,,,,,,,,,rural,new_b,white,146,147,269,3,1.8307414,n,0.3596227,2022_Feb_14_1330,59.9425869902,ProdSingRedo,001,"NC, 28",
,,,,147,0,147,0,,,,,,,,,,,,,,,,,,expansion,new_c,white,147,166,123,5,1.8816403,f,1.1169918,2022_Feb_14_1330,59.9425869902,ProdSingRedo,001,"NC, 28",
,,,,148,0,148,0,,,,,,,,,,,,,,,,,,series,silent,white,148,82,279,2,1.5311081,n,0.6468031,2022_Feb_14_1330,59.9425869902,ProdSingRedo,001,"NC, 28",
,,,,149,0,149,0,,,,,,,,,,,,,,,,,,south,new_c,white,149,173,296,1,1.4755699,n,0.6196104,2022_Feb_14_1330,59.9425869902,ProdSingRedo,001,"NC, 28",
,,,,150,0,150,0,,,,,,,,,,,,,,,,,,benefit,new_b,white,150,126,20,1,1.8298581,f,1.0531341,2022_Feb_14_1330,59.9425869902,ProdSingRedo,001,"NC, 28",
,,,,151,0,151,0,,,,,,,,,,,,,,,,,,republic,sing,white,151,1,260,6,2.3213108,r,0.3831821,2022_Feb_14_1330,59.9425869902,ProdSingRedo,001,"NC, 28",
,,,,152,0,152,0,,,,,,,,,,,,,,,,,,crime,sing,white,152,25,78,3,1.6800178,f,1.0183128,2022_Feb_14_1330,59.9425869902,ProdSingRedo,001,"NC, 28",
,,,,153,0,153,0,,,,,,,,,,,,,,,,,,swift,silent,white,153,79,320,1,1.5551036,n,0.6153654,2022_Feb_14_1330,59.9425869902,ProdSingRedo,001,"NC, 28",
,,,,154,0,154,0,,,,,,,,,,,,,,,,,,meeting,sing,white,154,7,187,2,2.0578833,n,0.5090981,2022_Feb_14_1330,59.9425869902,ProdSingRedo,001,"NC, 28",
,,,,155,0,155,0,,,,,,,,,,,,,,,,,,listen,new_b,white,155,149,172,4,1.6987956,n,1.7160409,2022_Feb_14_1330,59.9425869902,ProdSingRedo,001,"NC, 28",
,,,,156,0,156,0,,,,,,,,,,,,,,,,,,nature,aloud,white,156,56,200,4,1.6222614,n,0.8149787,2022_Feb_14_1330,59.9425869902,ProdSingRedo,001,"NC, 28",
,,,,157,0,157,0,,,,,,,,,,,,,,,,,,salary,new_a,white,157,119,271,3,1.5378579,n,0.8643596,2022_Feb_14_1330,59.9425869902,ProdSingRedo,001,"NC, 28",
,,,,158,0,158,0,,,,,,,,,,,,,,,,,,opening,new_b,white,158,124,205,4,3.0888466,n,1.0405235,2022_Feb_14_1330,59.9425869902,ProdSingRedo,001,"NC, 28",
,,,,159,0,159,0,,,,,,,,,,,,,,,,,,pancakes,sing,white,159,22,210,1,3.9221877,n,0.8871086,2022_Feb_14_1330,59.9425869902,ProdSingRedo,001,"NC, 28",
,,,,160,0,160,0,,,,,,,,,,,,,,,,,,agency,sing,white,160,5,4,1,3.4883911,n,1.4787884,2022_Feb_14_1330,59.9425869902,ProdSingRedo,001,"NC, 28",
,,,,161,0,161,0,,,,,,,,,,,,,,,,,,empty,sing,white,161,4,112,1,1.6043365,n,2.012763,2022_Feb_14_1330,59.9425869902,ProdSingRedo,001,"NC, 28",
,,,,162,0,162,0,,,,,,,,,,,,,,,,,,bucket,new_b,white,162,123,33,2,1.3683046,f,0.7443616,2022_Feb_14_1330,59.9425869902,ProdSingRedo,001,"NC, 28",
,,,,163,0,163,0,,,,,,,,,,,,,,,,,,literature,sing,white,163,8,173,6,1.5323936,r,0.6639441,2022_Feb_14_1330,59.9425869902,ProdSingRedo,001,"NC, 28",
,,,,164,0,164,0,,,,,,,,,,,,,,,,,,income,silent,white,164,85,159,4,2.1835044,f,0.6242027,2022_Feb_14_1330,59.9425869902,ProdSingRedo,001,"NC, 28",
,,,,165,0,165,0,,,,,,,,,,,,,,,,,,sight,new_b,white,165,140,286,6,2.0360418,r,0.376207,2022_Feb_14_1330,59.9425869902,ProdSingRedo,001,"NC, 28",
,,,,166,0,166,0,,,,,,,,,,,,,,,,,,goose,sing,white,166,26,138,6,1.2561704,r,0.2972441,2022_Feb_14_1330,59.9425869902,ProdSingRedo,001,"NC, 28",
,,,,167,0,167,0,,,,,,,,,,,,,,,,,,service,new_b,white,167,132,280,3,1.8312168,f,0.1934803,2022_Feb_14_1330,59.9425869902,ProdSingRedo,001,"NC, 28",
,,,,168,0,168,0,,,,,,,,,,,,,,,,,,theme,aloud,white,168,37,326,6,1.6634507,r,0.2688257,2022_Feb_14_1330,59.9425869902,ProdSingRedo,001,"NC, 28",
,,,,169,0,169,0,,,,,,,,,,,,,,,,,,oxygen,new_b,white,169,121,209,1,1.3972057,n,0.3202995,2022_Feb_14_1330,59.9425869902,ProdSingRedo,001,"NC, 28",
,,,,170,0,170,0,,,,,,,,,,,,,,,,,,production,new_c,white,170,151,240,6,1.7356096,r,0.2422789,2022_Feb_14_1330,59.9425869902,ProdSingRedo,001,"NC, 28",
,,,,171,0,171,0,,,,,,,,,,,,,,,,,,brilliant,new_c,white,171,174,30,2,2.0942304,n,0.7360326,2022_Feb_14_1330,59.9425869902,ProdSingRedo,001,"NC, 28",
,,,,172,0,172,0,,,,,,,,,,,,,,,,,,colonel,sing,white,172,27,55,5,2.8709511,n,1.0270709,2022_Feb_14_1330,59.9425869902,ProdSingRedo,001,"NC, 28",
,,,,173,0,173,0,,,,,,,,,,,,,,,,,,spoke,aloud,white,173,40,300,6,2.8462289,r,2.009853,2022_Feb_14_1330,59.9425869902,ProdSingRedo,001,"NC, 28",
,,,,174,0,174,0,,,,,,,,,,,,,,,,,,safety,new_a,white,174,96,270,4,1.6086899,r,1.8267649,2022_Feb_14_1330,59.9425869902,ProdSingRedo,001,"NC, 28",
,,,,175,0,175,0,,,,,,,,,,,,,,,,,,tennis,new_b,white,175,136,323,1,2.3960622,n,1.5166793,2022_Feb_14_1330,59.9425869902,ProdSingRedo,001,"NC, 28",
,,,,176,0,176,0,,,,,,,,,,,,,,,,,,season,sing,white,176,10,277,3,1.7969891,n,1.2375526,2022_Feb_14_1330,59.9425869902,ProdSingRedo,001,"NC, 28",
,,,,177,0,177,0,,,,,,,,,,,,,,,,,,business,new_a,white,177,107,38,5,3.8452305,f,0.9669386,2022_Feb_14_1330,59.9425869902,ProdSingRedo,001,"NC, 28",
,,,,178,0,178,0,,,,,,,,,,,,,,,,,,community,new_c,white,178,163,63,6,2.9137787,r,0.4782007,2022_Feb_14_1330,59.9425869902,ProdSingRedo,001,"NC, 28",
,,,,179,0,179,0,,,,,,,,,,,,,,,,,,welcome,new_c,white,179,178,354,2,2.2062499,f,0.963902,2022_Feb_14_1330,59.9425869902,ProdSingRedo,001,"NC, 28",
