StudyLoop.thisRepN,StudyLoop.thisTrialN,StudyLoop.thisN,StudyLoop.thisIndex,TestLoop.thisRepN,TestLoop.thisTrialN,TestLoop.thisN,TestLoop.thisIndex,keyCondition.keys,keyCondition.rt,Condition,stim_colors,color_sing,color_aloud,color_silent,keyWelcome.keys,keyWelcome.rt,study_word,study_type,study_color,study_num,study_word_num,keyStudy.keys,key_resp_3.keys,key_resp_3.rt,testWord,testType,testColor,testN,test_num,test_word_num,keyConf.keys,keyConf.rt,keyRKN.keys,keyRKN.rt,date,frameRate,expName,session,participant,
,,,,,,,,n,10.5242313,,,,,,,,,,,,,,,,,,,,,,,,,,2022_Feb_21_1047,59.9316299965,ProdSingRedo,001,"NC, 30",
,,,,,,,,,,NeutralTest,"['yellow', 'red', 'blue']",yellow,red,blue,space,260.661079,,,,,,,,,,,,,,,,,,,2022_Feb_21_1047,59.9316299965,ProdSingRedo,001,"NC, 30",
0,0,0,0,,,,,,,,,,,,,,agency,sing,yellow,1,4,None,,,,,,,,,,,,,2022_Feb_21_1047,59.9316299965,ProdSingRedo,001,"NC, 30",
1,0,1,0,,,,,,,,,,,,,,range,sing,yellow,5,251,None,,,,,,,,,,,,,2022_Feb_21_1047,59.9316299965,ProdSingRedo,001,"NC, 30",
2,0,2,0,,,,,,,,,,,,,,ground,aloud,red,42,142,None,,,,,,,,,,,,,2022_Feb_21_1047,59.9316299965,ProdSingRedo,001,"NC, 30",
3,0,3,0,,,,,,,,,,,,,,benefit,silent,blue,65,20,None,,,,,,,,,,,,,2022_Feb_21_1047,59.9316299965,ProdSingRedo,001,"NC, 30",
4,0,4,0,,,,,,,,,,,,,,voice,sing,yellow,0,348,None,,,,,,,,,,,,,2022_Feb_21_1047,59.9316299965,ProdSingRedo,001,"NC, 30",
5,0,5,0,,,,,,,,,,,,,,plane,silent,blue,82,223,None,,,,,,,,,,,,,2022_Feb_21_1047,59.9316299965,ProdSingRedo,001,"NC, 30",
6,0,6,0,,,,,,,,,,,,,,afternoon,aloud,red,51,3,None,,,,,,,,,,,,,2022_Feb_21_1047,59.9316299965,ProdSingRedo,001,"NC, 30",
7,0,7,0,,,,,,,,,,,,,,permit,aloud,red,43,218,None,,,,,,,,,,,,,2022_Feb_21_1047,59.9316299965,ProdSingRedo,001,"NC, 30",
8,0,8,0,,,,,,,,,,,,,,republic,aloud,red,38,260,None,,,,,,,,,,,,,2022_Feb_21_1047,59.9316299965,ProdSingRedo,001,"NC, 30",
9,0,9,0,,,,,,,,,,,,,,piece,sing,yellow,10,221,None,,,,,,,,,,,,,2022_Feb_21_1047,59.9316299965,ProdSingRedo,001,"NC, 30",
10,0,10,0,,,,,,,,,,,,,,broad,aloud,red,56,31,None,,,,,,,,,,,,,2022_Feb_21_1047,59.9316299965,ProdSingRedo,001,"NC, 30",
11,0,11,0,,,,,,,,,,,,,,edition,silent,blue,79,107,None,,,,,,,,,,,,,2022_Feb_21_1047,59.9316299965,ProdSingRedo,001,"NC, 30",
12,0,12,0,,,,,,,,,,,,,,colonel,silent,blue,89,55,None,,,,,,,,,,,,,2022_Feb_21_1047,59.9316299965,ProdSingRedo,001,"NC, 30",
13,0,13,0,,,,,,,,,,,,,,attack,sing,yellow,26,13,None,,,,,,,,,,,,,2022_Feb_21_1047,59.9316299965,ProdSingRedo,001,"NC, 30",
14,0,14,0,,,,,,,,,,,,,,youth,aloud,red,35,359,None,,,,,,,,,,,,,2022_Feb_21_1047,59.9316299965,ProdSingRedo,001,"NC, 30",
15,0,15,0,,,,,,,,,,,,,,goose,sing,yellow,6,138,None,,,,,,,,,,,,,2022_Feb_21_1047,59.9316299965,ProdSingRedo,001,"NC, 30",
16,0,16,0,,,,,,,,,,,,,,majority,silent,blue,80,176,None,,,,,,,,,,,,,2022_Feb_21_1047,59.9316299965,ProdSingRedo,001,"NC, 30",
17,0,17,0,,,,,,,,,,,,,,throw,sing,yellow,7,330,None,,,,,,,,,,,,,2022_Feb_21_1047,59.9316299965,ProdSingRedo,001,"NC, 30",
18,0,18,0,,,,,,,,,,,,,,sunset,aloud,red,33,315,None,,,,,,,,,,,,,2022_Feb_21_1047,59.9316299965,ProdSingRedo,001,"NC, 30",
19,0,19,0,,,,,,,,,,,,,,suspect,aloud,red,57,318,None,,,,,,,,,,,,,2022_Feb_21_1047,59.9316299965,ProdSingRedo,001,"NC, 30",
20,0,20,0,,,,,,,,,,,,,,quantity,aloud,red,30,245,None,,,,,,,,,,,,,2022_Feb_21_1047,59.9316299965,ProdSingRedo,001,"NC, 30",
21,0,21,0,,,,,,,,,,,,,,primary,silent,blue,88,234,None,,,,,,,,,,,,,2022_Feb_21_1047,59.9316299965,ProdSingRedo,001,"NC, 30",
22,0,22,0,,,,,,,,,,,,,,music,sing,yellow,27,196,None,,,,,,,,,,,,,2022_Feb_21_1047,59.9316299965,ProdSingRedo,001,"NC, 30",
23,0,23,0,,,,,,,,,,,,,,relation,aloud,red,54,257,None,,,,,,,,,,,,,2022_Feb_21_1047,59.9316299965,ProdSingRedo,001,"NC, 30",
24,0,24,0,,,,,,,,,,,,,,running,aloud,red,40,268,None,,,,,,,,,,,,,2022_Feb_21_1047,59.9316299965,ProdSingRedo,001,"NC, 30",
25,0,25,0,,,,,,,,,,,,,,angle,aloud,red,47,7,None,,,,,,,,,,,,,2022_Feb_21_1047,59.9316299965,ProdSingRedo,001,"NC, 30",
26,0,26,0,,,,,,,,,,,,,,drink,aloud,red,44,105,None,,,,,,,,,,,,,2022_Feb_21_1047,59.9316299965,ProdSingRedo,001,"NC, 30",
27,0,27,0,,,,,,,,,,,,,,story,aloud,red,59,306,None,,,,,,,,,,,,,2022_Feb_21_1047,59.9316299965,ProdSingRedo,001,"NC, 30",
28,0,28,0,,,,,,,,,,,,,,threat,aloud,red,34,329,None,,,,,,,,,,,,,2022_Feb_21_1047,59.9316299965,ProdSingRedo,001,"NC, 30",
29,0,29,0,,,,,,,,,,,,,,bucket,silent,blue,73,33,None,,,,,,,,,,,,,2022_Feb_21_1047,59.9316299965,ProdSingRedo,001,"NC, 30",
30,0,30,0,,,,,,,,,,,,,,stand,silent,blue,67,302,None,,,,,,,,,,,,,2022_Feb_21_1047,59.9316299965,ProdSingRedo,001,"NC, 30",
31,0,31,0,,,,,,,,,,,,,,detective,aloud,red,41,92,None,,,,,,,,,,,,,2022_Feb_21_1047,59.9316299965,ProdSingRedo,001,"NC, 30",
32,0,32,0,,,,,,,,,,,,,,skill,sing,yellow,15,289,None,,,,,,,,,,,,,2022_Feb_21_1047,59.9316299965,ProdSingRedo,001,"NC, 30",
33,0,33,0,,,,,,,,,,,,,,power,silent,blue,72,230,None,,,,,,,,,,,,,2022_Feb_21_1047,59.9316299965,ProdSingRedo,001,"NC, 30",
34,0,34,0,,,,,,,,,,,,,,profession,aloud,red,49,241,None,,,,,,,,,,,,,2022_Feb_21_1047,59.9316299965,ProdSingRedo,001,"NC, 30",
35,0,35,0,,,,,,,,,,,,,,material,sing,yellow,22,182,None,,,,,,,,,,,,,2022_Feb_21_1047,59.9316299965,ProdSingRedo,001,"NC, 30",
36,0,36,0,,,,,,,,,,,,,,comedy,sing,yellow,25,58,None,,,,,,,,,,,,,2022_Feb_21_1047,59.9316299965,ProdSingRedo,001,"NC, 30",
37,0,37,0,,,,,,,,,,,,,,minor,aloud,red,53,191,None,,,,,,,,,,,,,2022_Feb_21_1047,59.9316299965,ProdSingRedo,001,"NC, 30",
38,0,38,0,,,,,,,,,,,,,,capital,sing,yellow,4,40,None,,,,,,,,,,,,,2022_Feb_21_1047,59.9316299965,ProdSingRedo,001,"NC, 30",
39,0,39,0,,,,,,,,,,,,,,century,silent,blue,86,45,None,,,,,,,,,,,,,2022_Feb_21_1047,59.9316299965,ProdSingRedo,001,"NC, 30",
40,0,40,0,,,,,,,,,,,,,,community,aloud,red,50,63,None,,,,,,,,,,,,,2022_Feb_21_1047,59.9316299965,ProdSingRedo,001,"NC, 30",
41,0,41,0,,,,,,,,,,,,,,evidence,aloud,red,48,120,None,,,,,,,,,,,,,2022_Feb_21_1047,59.9316299965,ProdSingRedo,001,"NC, 30",
42,0,42,0,,,,,,,,,,,,,,touch,sing,yellow,2,332,None,,,,,,,,,,,,,2022_Feb_21_1047,59.9316299965,ProdSingRedo,001,"NC, 30",
43,0,43,0,,,,,,,,,,,,,,match,aloud,red,58,181,None,,,,,,,,,,,,,2022_Feb_21_1047,59.9316299965,ProdSingRedo,001,"NC, 30",
44,0,44,0,,,,,,,,,,,,,,state,sing,yellow,8,303,None,,,,,,,,,,,,,2022_Feb_21_1047,59.9316299965,ProdSingRedo,001,"NC, 30",
45,0,45,0,,,,,,,,,,,,,,executive,sing,yellow,20,122,None,,,,,,,,,,,,,2022_Feb_21_1047,59.9316299965,ProdSingRedo,001,"NC, 30",
46,0,46,0,,,,,,,,,,,,,,corner,aloud,red,55,69,None,,,,,,,,,,,,,2022_Feb_21_1047,59.9316299965,ProdSingRedo,001,"NC, 30",
47,0,47,0,,,,,,,,,,,,,,brilliant,aloud,red,46,30,None,,,,,,,,,,,,,2022_Feb_21_1047,59.9316299965,ProdSingRedo,001,"NC, 30",
48,0,48,0,,,,,,,,,,,,,,question,silent,blue,62,247,None,,,,,,,,,,,,,2022_Feb_21_1047,59.9316299965,ProdSingRedo,001,"NC, 30",
49,0,49,0,,,,,,,,,,,,,,estate,silent,blue,75,119,None,,,,,,,,,,,,,2022_Feb_21_1047,59.9316299965,ProdSingRedo,001,"NC, 30",
50,0,50,0,,,,,,,,,,,,,,hearing,silent,blue,68,150,None,,,,,,,,,,,,,2022_Feb_21_1047,59.9316299965,ProdSingRedo,001,"NC, 30",
51,0,51,0,,,,,,,,,,,,,,opening,sing,yellow,23,205,None,,,,,,,,,,,,,2022_Feb_21_1047,59.9316299965,ProdSingRedo,001,"NC, 30",
52,0,52,0,,,,,,,,,,,,,,silence,sing,yellow,14,288,None,,,,,,,,,,,,,2022_Feb_21_1047,59.9316299965,ProdSingRedo,001,"NC, 30",
53,0,53,0,,,,,,,,,,,,,,instrument,aloud,red,39,163,None,,,,,,,,,,,,,2022_Feb_21_1047,59.9316299965,ProdSingRedo,001,"NC, 30",
54,0,54,0,,,,,,,,,,,,,,murder,aloud,red,37,195,None,,,,,,,,,,,,,2022_Feb_21_1047,59.9316299965,ProdSingRedo,001,"NC, 30",
55,0,55,0,,,,,,,,,,,,,,religion,silent,blue,70,258,None,,,,,,,,,,,,,2022_Feb_21_1047,59.9316299965,ProdSingRedo,001,"NC, 30",
56,0,56,0,,,,,,,,,,,,,,track,silent,blue,60,334,None,,,,,,,,,,,,,2022_Feb_21_1047,59.9316299965,ProdSingRedo,001,"NC, 30",
57,0,57,0,,,,,,,,,,,,,,direction,sing,yellow,24,94,None,,,,,,,,,,,,,2022_Feb_21_1047,59.9316299965,ProdSingRedo,001,"NC, 30",
58,0,58,0,,,,,,,,,,,,,,subject,sing,yellow,12,312,None,,,,,,,,,,,,,2022_Feb_21_1047,59.9316299965,ProdSingRedo,001,"NC, 30",
59,0,59,0,,,,,,,,,,,,,,course,silent,blue,66,74,None,,,,,,,,,,,,,2022_Feb_21_1047,59.9316299965,ProdSingRedo,001,"NC, 30",
60,0,60,0,,,,,,,,,,,,,,victory,sing,yellow,9,346,None,,,,,,,,,,,,,2022_Feb_21_1047,59.9316299965,ProdSingRedo,001,"NC, 30",
61,0,61,0,,,,,,,,,,,,,,nation,silent,blue,78,198,None,,,,,,,,,,,,,2022_Feb_21_1047,59.9316299965,ProdSingRedo,001,"NC, 30",
62,0,62,0,,,,,,,,,,,,,,escape,sing,yellow,28,118,None,,,,,,,,,,,,,2022_Feb_21_1047,59.9316299965,ProdSingRedo,001,"NC, 30",
63,0,63,0,,,,,,,,,,,,,,pressure,silent,blue,76,232,None,,,,,,,,,,,,,2022_Feb_21_1047,59.9316299965,ProdSingRedo,001,"NC, 30",
64,0,64,0,,,,,,,,,,,,,,conference,sing,yellow,3,66,None,,,,,,,,,,,,,2022_Feb_21_1047,59.9316299965,ProdSingRedo,001,"NC, 30",
65,0,65,0,,,,,,,,,,,,,,rapid,silent,blue,61,252,None,,,,,,,,,,,,,2022_Feb_21_1047,59.9316299965,ProdSingRedo,001,"NC, 30",
66,0,66,0,,,,,,,,,,,,,,novel,sing,yellow,29,202,None,,,,,,,,,,,,,2022_Feb_21_1047,59.9316299965,ProdSingRedo,001,"NC, 30",
67,0,67,0,,,,,,,,,,,,,,impact,silent,blue,64,157,None,,,,,,,,,,,,,2022_Feb_21_1047,59.9316299965,ProdSingRedo,001,"NC, 30",
68,0,68,0,,,,,,,,,,,,,,general,aloud,red,36,135,None,,,,,,,,,,,,,2022_Feb_21_1047,59.9316299965,ProdSingRedo,001,"NC, 30",
69,0,69,0,,,,,,,,,,,,,,platform,aloud,red,32,224,None,,,,,,,,,,,,,2022_Feb_21_1047,59.9316299965,ProdSingRedo,001,"NC, 30",
70,0,70,0,,,,,,,,,,,,,,column,sing,yellow,18,57,None,,,,,,,,,,,,,2022_Feb_21_1047,59.9316299965,ProdSingRedo,001,"NC, 30",
71,0,71,0,,,,,,,,,,,,,,management,silent,blue,87,177,None,,,,,,,,,,,,,2022_Feb_21_1047,59.9316299965,ProdSingRedo,001,"NC, 30",
72,0,72,0,,,,,,,,,,,,,,style,silent,blue,84,311,None,,,,,,,,,,,,,2022_Feb_21_1047,59.9316299965,ProdSingRedo,001,"NC, 30",
73,0,73,0,,,,,,,,,,,,,,weather,sing,yellow,17,352,None,,,,,,,,,,,,,2022_Feb_21_1047,59.9316299965,ProdSingRedo,001,"NC, 30",
74,0,74,0,,,,,,,,,,,,,,phrase,sing,yellow,19,220,None,,,,,,,,,,,,,2022_Feb_21_1047,59.9316299965,ProdSingRedo,001,"NC, 30",
75,0,75,0,,,,,,,,,,,,,,emergency,silent,blue,71,110,None,,,,,,,,,,,,,2022_Feb_21_1047,59.9316299965,ProdSingRedo,001,"NC, 30",
76,0,76,0,,,,,,,,,,,,,,command,silent,blue,83,60,None,,,,,,,,,,,,,2022_Feb_21_1047,59.9316299965,ProdSingRedo,001,"NC, 30",
77,0,77,0,,,,,,,,,,,,,,addition,aloud,red,31,2,None,,,,,,,,,,,,,2022_Feb_21_1047,59.9316299965,ProdSingRedo,001,"NC, 30",
78,0,78,0,,,,,,,,,,,,,,division,sing,yellow,16,101,None,,,,,,,,,,,,,2022_Feb_21_1047,59.9316299965,ProdSingRedo,001,"NC, 30",
79,0,79,0,,,,,,,,,,,,,,contract,sing,yellow,11,68,None,,,,,,,,,,,,,2022_Feb_21_1047,59.9316299965,ProdSingRedo,001,"NC, 30",
80,0,80,0,,,,,,,,,,,,,,discussion,silent,blue,69,96,None,,,,,,,,,,,,,2022_Feb_21_1047,59.9316299965,ProdSingRedo,001,"NC, 30",
81,0,81,0,,,,,,,,,,,,,,month,aloud,red,52,193,None,,,,,,,,,,,,,2022_Feb_21_1047,59.9316299965,ProdSingRedo,001,"NC, 30",
82,0,82,0,,,,,,,,,,,,,,strength,silent,blue,63,310,None,,,,,,,,,,,,,2022_Feb_21_1047,59.9316299965,ProdSingRedo,001,"NC, 30",
83,0,83,0,,,,,,,,,,,,,,review,aloud,red,45,263,None,,,,,,,,,,,,,2022_Feb_21_1047,59.9316299965,ProdSingRedo,001,"NC, 30",
84,0,84,0,,,,,,,,,,,,,,substance,silent,blue,77,313,None,,,,,,,,,,,,,2022_Feb_21_1047,59.9316299965,ProdSingRedo,001,"NC, 30",
85,0,85,0,,,,,,,,,,,,,,turkey,silent,blue,85,342,None,,,,,,,,,,,,,2022_Feb_21_1047,59.9316299965,ProdSingRedo,001,"NC, 30",
86,0,86,0,,,,,,,,,,,,,,south,sing,yellow,13,296,None,,,,,,,,,,,,,2022_Feb_21_1047,59.9316299965,ProdSingRedo,001,"NC, 30",
87,0,87,0,,,,,,,,,,,,,,travel,silent,blue,81,338,None,,,,,,,,,,,,,2022_Feb_21_1047,59.9316299965,ProdSingRedo,001,"NC, 30",
88,0,88,0,,,,,,,,,,,,,,nature,silent,blue,74,200,None,,,,,,,,,,,,,2022_Feb_21_1047,59.9316299965,ProdSingRedo,001,"NC, 30",
89,0,89,0,,,,,,,,,,,,,,taste,sing,yellow,21,322,None,,,,,,,,,,,,,2022_Feb_21_1047,59.9316299965,ProdSingRedo,001,"NC, 30",
,,,,,,,,,,,,,,,,,,,,,,,k,121.5251595,,,,,,,,,,,2022_Feb_21_1047,59.9316299965,ProdSingRedo,001,"NC, 30",
,,,,0,0,0,0,,,,,,,,,,,,,,,,,,music,sing,white,0,27,196,1,2.5365335,r,4.6411833,2022_Feb_21_1047,59.9316299965,ProdSingRedo,001,"NC, 30",
,,,,1,0,1,0,,,,,,,,,,,,,,,,,,track,silent,white,1,60,334,1,1.7246709,n,3.6759491,2022_Feb_21_1047,59.9316299965,ProdSingRedo,001,"NC, 30",
,,,,2,0,2,0,,,,,,,,,,,,,,,,,,graduate,new_a,white,2,109,141,1,1.9174991,n,1.0661603,2022_Feb_21_1047,59.9316299965,ProdSingRedo,001,"NC, 30",
,,,,3,0,3,0,,,,,,,,,,,,,,,,,,rapid,silent,white,3,61,252,1,1.8232872,n,0.597547,2022_Feb_21_1047,59.9316299965,ProdSingRedo,001,"NC, 30",
,,,,4,0,4,0,,,,,,,,,,,,,,,,,,estate,silent,white,4,75,119,1,1.1986001,n,0.7280245,2022_Feb_21_1047,59.9316299965,ProdSingRedo,001,"NC, 30",
,,,,5,0,5,0,,,,,,,,,,,,,,,,,,contract,sing,white,5,11,68,6,4.4710182,f,2.8729131,2022_Feb_21_1047,59.9316299965,ProdSingRedo,001,"NC, 30",
,,,,6,0,6,0,,,,,,,,,,,,,,,,,,career,new_c,white,6,178,42,1,3.1315928,n,0.6275945,2022_Feb_21_1047,59.9316299965,ProdSingRedo,001,"NC, 30",
,,,,7,0,7,0,,,,,,,,,,,,,,,,,,interview,new_c,white,7,169,165,1,0.9754904,n,0.4492379,2022_Feb_21_1047,59.9316299965,ProdSingRedo,001,"NC, 30",
,,,,8,0,8,0,,,,,,,,,,,,,,,,,,stranger,new_a,white,8,93,309,1,1.091044,n,0.4367323,2022_Feb_21_1047,59.9316299965,ProdSingRedo,001,"NC, 30",
,,,,9,0,9,0,,,,,,,,,,,,,,,,,,corner,aloud,white,9,55,69,1,2.0261125,n,0.6114506,2022_Feb_21_1047,59.9316299965,ProdSingRedo,001,"NC, 30",
,,,,10,0,10,0,,,,,,,,,,,,,,,,,,death,new_c,white,10,158,86,1,0.9896828,n,0.6601402,2022_Feb_21_1047,59.9316299965,ProdSingRedo,001,"NC, 30",
,,,,11,0,11,0,,,,,,,,,,,,,,,,,,trail,new_a,white,11,102,336,1,1.375813,n,1.3304268,2022_Feb_21_1047,59.9316299965,ProdSingRedo,001,"NC, 30",
,,,,12,0,12,0,,,,,,,,,,,,,,,,,,strain,new_a,white,12,116,308,1,3.3271115,n,0.3536608,2022_Feb_21_1047,59.9316299965,ProdSingRedo,001,"NC, 30",
,,,,13,0,13,0,,,,,,,,,,,,,,,,,,force,new_b,white,13,122,131,1,0.8974427,n,0.4507516,2022_Feb_21_1047,59.9316299965,ProdSingRedo,001,"NC, 30",
,,,,14,0,14,0,,,,,,,,,,,,,,,,,,bureau,new_b,white,14,148,37,1,0.8219147,n,0.309128,2022_Feb_21_1047,59.9316299965,ProdSingRedo,001,"NC, 30",
,,,,15,0,15,0,,,,,,,,,,,,,,,,,,attack,sing,white,15,26,13,1,1.1392803,n,0.8036174,2022_Feb_21_1047,59.9316299965,ProdSingRedo,001,"NC, 30",
,,,,16,0,16,0,,,,,,,,,,,,,,,,,,guest,new_b,white,16,133,146,1,0.9445057,n,0.3140304,2022_Feb_21_1047,59.9316299965,ProdSingRedo,001,"NC, 30",
,,,,17,0,17,0,,,,,,,,,,,,,,,,,,quantity,aloud,white,17,30,245,6,2.2042022,r,4.0562709,2022_Feb_21_1047,59.9316299965,ProdSingRedo,001,"NC, 30",
,,,,18,0,18,0,,,,,,,,,,,,,,,,,,stand,silent,white,18,67,302,1,1.7437428,n,0.3079584,2022_Feb_21_1047,59.9316299965,ProdSingRedo,001,"NC, 30",
,,,,19,0,19,0,,,,,,,,,,,,,,,,,,build,new_a,white,19,113,35,1,1.0699247,n,0.2966459,2022_Feb_21_1047,59.9316299965,ProdSingRedo,001,"NC, 30",
,,,,20,0,20,0,,,,,,,,,,,,,,,,,,instrument,aloud,white,20,39,163,6,2.2576724,f,1.4700678,2022_Feb_21_1047,59.9316299965,ProdSingRedo,001,"NC, 30",
,,,,21,0,21,0,,,,,,,,,,,,,,,,,,volume,new_c,white,21,172,349,1,1.2964641,n,0.3609061,2022_Feb_21_1047,59.9316299965,ProdSingRedo,001,"NC, 30",
,,,,22,0,22,0,,,,,,,,,,,,,,,,,,south,sing,white,22,13,296,5,3.1426535,f,1.0903864,2022_Feb_21_1047,59.9316299965,ProdSingRedo,001,"NC, 30",
,,,,23,0,23,0,,,,,,,,,,,,,,,,,,staff,new_c,white,23,157,301,1,1.2492673,n,0.2581012,2022_Feb_21_1047,59.9316299965,ProdSingRedo,001,"NC, 30",
,,,,24,0,24,0,,,,,,,,,,,,,,,,,,union,new_a,white,24,101,344,1,0.7972781,n,0.2657953,2022_Feb_21_1047,59.9316299965,ProdSingRedo,001,"NC, 30",
,,,,25,0,25,0,,,,,,,,,,,,,,,,,,taste,sing,white,25,21,322,6,1.92339,f,0.8670016,2022_Feb_21_1047,59.9316299965,ProdSingRedo,001,"NC, 30",
,,,,26,0,26,0,,,,,,,,,,,,,,,,,,skill,sing,white,26,15,289,4,3.3053248,n,1.0099137,2022_Feb_21_1047,59.9316299965,ProdSingRedo,001,"NC, 30",
,,,,27,0,27,0,,,,,,,,,,,,,,,,,,power,silent,white,27,72,230,1,1.4738693,n,0.3225548,2022_Feb_21_1047,59.9316299965,ProdSingRedo,001,"NC, 30",
,,,,28,0,28,0,,,,,,,,,,,,,,,,,,community,aloud,white,28,50,63,6,1.7958878,f,0.8079273,2022_Feb_21_1047,59.9316299965,ProdSingRedo,001,"NC, 30",
,,,,29,0,29,0,,,,,,,,,,,,,,,,,,victory,sing,white,29,9,346,6,2.4379419,r,0.8762005,2022_Feb_21_1047,59.9316299965,ProdSingRedo,001,"NC, 30",
,,,,30,0,30,0,,,,,,,,,,,,,,,,,,conference,sing,white,30,3,66,6,2.1800952,r,3.1892674,2022_Feb_21_1047,59.9316299965,ProdSingRedo,001,"NC, 30",
,,,,31,0,31,0,,,,,,,,,,,,,,,,,,suspect,aloud,white,31,57,318,6,1.7771842,f,0.8894706,2022_Feb_21_1047,59.9316299965,ProdSingRedo,001,"NC, 30",
,,,,32,0,32,0,,,,,,,,,,,,,,,,,,emergency,silent,white,32,71,110,1,1.4570717,n,0.3243515,2022_Feb_21_1047,59.9316299965,ProdSingRedo,001,"NC, 30",
,,,,33,0,33,0,,,,,,,,,,,,,,,,,,majority,silent,white,33,80,176,1,1.8348254,n,0.2231784,2022_Feb_21_1047,59.9316299965,ProdSingRedo,001,"NC, 30",
,,,,34,0,34,0,,,,,,,,,,,,,,,,,,primary,silent,white,34,88,234,1,1.0887144,n,0.2954008,2022_Feb_21_1047,59.9316299965,ProdSingRedo,001,"NC, 30",
,,,,35,0,35,0,,,,,,,,,,,,,,,,,,expansion,new_b,white,35,149,123,1,1.0227843,n,0.5356479,2022_Feb_21_1047,59.9316299965,ProdSingRedo,001,"NC, 30",
,,,,36,0,36,0,,,,,,,,,,,,,,,,,,light,new_a,white,36,90,171,1,1.1141436,n,0.4073164,2022_Feb_21_1047,59.9316299965,ProdSingRedo,001,"NC, 30",
,,,,37,0,37,0,,,,,,,,,,,,,,,,,,meeting,new_b,white,37,142,187,1,0.7681705,n,0.2736889,2022_Feb_21_1047,59.9316299965,ProdSingRedo,001,"NC, 30",
,,,,38,0,38,0,,,,,,,,,,,,,,,,,,heavy,new_a,white,38,94,151,1,1.0447072,n,0.2779791,2022_Feb_21_1047,59.9316299965,ProdSingRedo,001,"NC, 30",
,,,,39,0,39,0,,,,,,,,,,,,,,,,,,trial,new_b,white,39,121,341,1,2.0145678,n,0.1724218,2022_Feb_21_1047,59.9316299965,ProdSingRedo,001,"NC, 30",
,,,,40,0,40,0,,,,,,,,,,,,,,,,,,nature,silent,white,40,74,200,1,0.7214325,n,0.5901582,2022_Feb_21_1047,59.9316299965,ProdSingRedo,001,"NC, 30",
,,,,41,0,41,0,,,,,,,,,,,,,,,,,,empty,new_b,white,41,139,112,1,0.9261951,n,0.3131596,2022_Feb_21_1047,59.9316299965,ProdSingRedo,001,"NC, 30",
,,,,42,0,42,0,,,,,,,,,,,,,,,,,,science,new_b,white,42,134,275,1,0.7678807,n,0.2758337,2022_Feb_21_1047,59.9316299965,ProdSingRedo,001,"NC, 30",
,,,,43,0,43,0,,,,,,,,,,,,,,,,,,addition,aloud,white,43,31,2,6,1.8202641,f,0.7579487,2022_Feb_21_1047,59.9316299965,ProdSingRedo,001,"NC, 30",
,,,,44,0,44,0,,,,,,,,,,,,,,,,,,budget,new_a,white,44,115,34,1,1.1063352,n,0.4407805,2022_Feb_21_1047,59.9316299965,ProdSingRedo,001,"NC, 30",
,,,,45,0,45,0,,,,,,,,,,,,,,,,,,problem,new_c,white,45,170,238,1,0.7106877,n,0.3095132,2022_Feb_21_1047,59.9316299965,ProdSingRedo,001,"NC, 30",
,,,,46,0,46,0,,,,,,,,,,,,,,,,,,mayor,new_c,white,46,156,183,1,0.6684446,n,0.3121925,2022_Feb_21_1047,59.9316299965,ProdSingRedo,001,"NC, 30",
,,,,47,0,47,0,,,,,,,,,,,,,,,,,,resistance,new_b,white,47,138,262,1,1.4920956,n,0.3247841,2022_Feb_21_1047,59.9316299965,ProdSingRedo,001,"NC, 30",
,,,,48,0,48,0,,,,,,,,,,,,,,,,,,school,new_c,white,48,168,274,1,1.3418303,n,0.3474171,2022_Feb_21_1047,59.9316299965,ProdSingRedo,001,"NC, 30",
,,,,49,0,49,0,,,,,,,,,,,,,,,,,,government,new_b,white,49,145,139,1,0.9745689,n,2.6242397,2022_Feb_21_1047,59.9316299965,ProdSingRedo,001,"NC, 30",
,,,,50,0,50,0,,,,,,,,,,,,,,,,,,phrase,sing,white,50,19,220,1,1.2271165,n,0.2674259,2022_Feb_21_1047,59.9316299965,ProdSingRedo,001,"NC, 30",
,,,,51,0,51,0,,,,,,,,,,,,,,,,,,platform,aloud,white,51,32,224,4,3.4729494,n,1.660608,2022_Feb_21_1047,59.9316299965,ProdSingRedo,001,"NC, 30",
,,,,52,0,52,0,,,,,,,,,,,,,,,,,,nation,silent,white,52,78,198,1,1.3340555,n,0.3006436,2022_Feb_21_1047,59.9316299965,ProdSingRedo,001,"NC, 30",
,,,,53,0,53,0,,,,,,,,,,,,,,,,,,sunset,aloud,white,53,33,315,4,4.7669956,n,0.2822763,2022_Feb_21_1047,59.9316299965,ProdSingRedo,001,"NC, 30",
,,,,54,0,54,0,,,,,,,,,,,,,,,,,,capital,sing,white,54,4,40,1,2.1655628,n,0.3501311,2022_Feb_21_1047,59.9316299965,ProdSingRedo,001,"NC, 30",
,,,,55,0,55,0,,,,,,,,,,,,,,,,,,hunger,new_c,white,55,166,155,1,0.950414,n,0.3809808,2022_Feb_21_1047,59.9316299965,ProdSingRedo,001,"NC, 30",
,,,,56,0,56,0,,,,,,,,,,,,,,,,,,comedy,sing,white,56,25,58,6,2.0505493,r,1.0544072,2022_Feb_21_1047,59.9316299965,ProdSingRedo,001,"NC, 30",
,,,,57,0,57,0,,,,,,,,,,,,,,,,,,danger,new_c,white,57,164,85,1,1.459976,n,0.2450246,2022_Feb_21_1047,59.9316299965,ProdSingRedo,001,"NC, 30",
,,,,58,0,58,0,,,,,,,,,,,,,,,,,,whole,new_a,white,58,117,355,1,0.6737702,n,0.2769336,2022_Feb_21_1047,59.9316299965,ProdSingRedo,001,"NC, 30",
,,,,59,0,59,0,,,,,,,,,,,,,,,,,,working,new_c,white,59,154,357,1,0.7746881,n,0.3654426,2022_Feb_21_1047,59.9316299965,ProdSingRedo,001,"NC, 30",
,,,,60,0,60,0,,,,,,,,,,,,,,,,,,colonel,silent,white,60,89,55,1,0.7936897,n,0.2921727,2022_Feb_21_1047,59.9316299965,ProdSingRedo,001,"NC, 30",
,,,,61,0,61,0,,,,,,,,,,,,,,,,,,dozen,new_a,white,61,114,102,1,0.8106062,n,0.242096,2022_Feb_21_1047,59.9316299965,ProdSingRedo,001,"NC, 30",
,,,,62,0,62,0,,,,,,,,,,,,,,,,,,search,new_a,white,62,97,276,1,0.7303953,n,0.226423,2022_Feb_21_1047,59.9316299965,ProdSingRedo,001,"NC, 30",
,,,,63,0,63,0,,,,,,,,,,,,,,,,,,defeat,new_c,white,63,175,88,1,0.5470451,n,0.2311469,2022_Feb_21_1047,59.9316299965,ProdSingRedo,001,"NC, 30",
,,,,64,0,64,0,,,,,,,,,,,,,,,,,,mankind,new_a,white,64,99,178,1,0.5869053,n,0.3423396,2022_Feb_21_1047,59.9316299965,ProdSingRedo,001,"NC, 30",
,,,,65,0,65,0,,,,,,,,,,,,,,,,,,republic,aloud,white,65,38,260,6,1.9838184,f,0.8739382,2022_Feb_21_1047,59.9316299965,ProdSingRedo,001,"NC, 30",
,,,,66,0,66,0,,,,,,,,,,,,,,,,,,column,sing,white,66,18,57,6,1.5400819,f,1.0126278,2022_Feb_21_1047,59.9316299965,ProdSingRedo,001,"NC, 30",
,,,,67,0,67,0,,,,,,,,,,,,,,,,,,relation,aloud,white,67,54,257,6,1.4159476,r,3.1434012,2022_Feb_21_1047,59.9316299965,ProdSingRedo,001,"NC, 30",
,,,,68,0,68,0,,,,,,,,,,,,,,,,,,accident,new_c,white,68,153,0,3,4.9143244,n,0.2706796,2022_Feb_21_1047,59.9316299965,ProdSingRedo,001,"NC, 30",
,,,,69,0,69,0,,,,,,,,,,,,,,,,,,command,silent,white,69,83,60,1,1.2793692,n,0.30639,2022_Feb_21_1047,59.9316299965,ProdSingRedo,001,"NC, 30",
,,,,70,0,70,0,,,,,,,,,,,,,,,,,,century,silent,white,70,86,45,1,1.3612353,n,0.1946661,2022_Feb_21_1047,59.9316299965,ProdSingRedo,001,"NC, 30",
,,,,71,0,71,0,,,,,,,,,,,,,,,,,,direction,sing,white,71,24,94,1,1.5076983,n,0.1870249,2022_Feb_21_1047,59.9316299965,ProdSingRedo,001,"NC, 30",
,,,,72,0,72,0,,,,,,,,,,,,,,,,,,division,sing,white,72,16,101,1,2.6614521,n,0.4897291,2022_Feb_21_1047,59.9316299965,ProdSingRedo,001,"NC, 30",
,,,,73,0,73,0,,,,,,,,,,,,,,,,,,medicine,new_c,white,73,176,186,1,0.7040079,n,0.2650974,2022_Feb_21_1047,59.9316299965,ProdSingRedo,001,"NC, 30",
,,,,74,0,74,0,,,,,,,,,,,,,,,,,,business,new_b,white,74,135,38,1,1.9728724,n,0.7202486,2022_Feb_21_1047,59.9316299965,ProdSingRedo,001,"NC, 30",
,,,,75,0,75,0,,,,,,,,,,,,,,,,,,style,silent,white,75,84,311,1,0.7391103,n,0.2661455,2022_Feb_21_1047,59.9316299965,ProdSingRedo,001,"NC, 30",
,,,,76,0,76,0,,,,,,,,,,,,,,,,,,evidence,aloud,white,76,48,120,5,2.2141555,f,0.8705659,2022_Feb_21_1047,59.9316299965,ProdSingRedo,001,"NC, 30",
,,,,77,0,77,0,,,,,,,,,,,,,,,,,,beauty,new_c,white,77,155,18,1,1.7634547,n,0.1259337,2022_Feb_21_1047,59.9316299965,ProdSingRedo,001,"NC, 30",
,,,,78,0,78,0,,,,,,,,,,,,,,,,,,hearing,silent,white,78,68,150,1,0.7916382,n,0.1948996,2022_Feb_21_1047,59.9316299965,ProdSingRedo,001,"NC, 30",
,,,,79,0,79,0,,,,,,,,,,,,,,,,,,pressure,silent,white,79,76,232,1,1.2040899,n,0.1304969,2022_Feb_21_1047,59.9316299965,ProdSingRedo,001,"NC, 30",
,,,,80,0,80,0,,,,,,,,,,,,,,,,,,center,new_a,white,80,100,44,1,0.8258189,n,0.12725,2022_Feb_21_1047,59.9316299965,ProdSingRedo,001,"NC, 30",
,,,,81,0,81,0,,,,,,,,,,,,,,,,,,piece,sing,white,81,10,221,1,0.6991846,n,0.2633825,2022_Feb_21_1047,59.9316299965,ProdSingRedo,001,"NC, 30",
,,,,82,0,82,0,,,,,,,,,,,,,,,,,,escape,sing,white,82,28,118,1,1.2965989,n,0.0437008000001,2022_Feb_21_1047,59.9316299965,ProdSingRedo,001,"NC, 30",
,,,,83,0,83,0,,,,,,,,,,,,,,,,,,course,silent,white,83,66,74,1,1.0471748,n,0.2767494,2022_Feb_21_1047,59.9316299965,ProdSingRedo,001,"NC, 30",
,,,,84,0,84,0,,,,,,,,,,,,,,,,,,touch,sing,white,84,2,332,1,1.0954157,n,0.3133944,2022_Feb_21_1047,59.9316299965,ProdSingRedo,001,"NC, 30",
,,,,85,0,85,0,,,,,,,,,,,,,,,,,,notice,new_b,white,85,127,201,1,1.3302574,n,0.2756358,2022_Feb_21_1047,59.9316299965,ProdSingRedo,001,"NC, 30",
,,,,86,0,86,0,,,,,,,,,,,,,,,,,,childhood,new_a,white,86,92,49,1,1.1793384,n,0.212048,2022_Feb_21_1047,59.9316299965,ProdSingRedo,001,"NC, 30",
,,,,87,0,87,0,,,,,,,,,,,,,,,,,,goose,sing,white,87,6,138,6,1.9240956,r,1.4473319,2022_Feb_21_1047,59.9316299965,ProdSingRedo,001,"NC, 30",
,,,,88,0,88,0,,,,,,,,,,,,,,,,,,income,new_c,white,88,151,159,1,0.9309999,n,0.4130378,2022_Feb_21_1047,59.9316299965,ProdSingRedo,001,"NC, 30",
,,,,89,0,89,0,,,,,,,,,,,,,,,,,,minor,aloud,white,89,53,191,6,1.6001217,f,0.8000245,2022_Feb_21_1047,59.9316299965,ProdSingRedo,001,"NC, 30",
,,,,90,0,90,0,,,,,,,,,,,,,,,,,,signal,new_a,white,90,111,287,1,1.4996202,n,0.2910201,2022_Feb_21_1047,59.9316299965,ProdSingRedo,001,"NC, 30",
,,,,91,0,91,0,,,,,,,,,,,,,,,,,,drove,new_a,white,91,112,106,1,0.8080862,n,0.3325106,2022_Feb_21_1047,59.9316299965,ProdSingRedo,001,"NC, 30",
,,,,92,0,92,0,,,,,,,,,,,,,,,,,,threat,aloud,white,92,34,329,1,1.5138481,n,0.1108514,2022_Feb_21_1047,59.9316299965,ProdSingRedo,001,"NC, 30",
,,,,93,0,93,0,,,,,,,,,,,,,,,,,,bright,new_c,white,93,173,29,1,1.6085483,n,0.1334845,2022_Feb_21_1047,59.9316299965,ProdSingRedo,001,"NC, 30",
,,,,94,0,94,0,,,,,,,,,,,,,,,,,,still,new_c,white,94,177,304,1,1.3968228,n,0.2615428,2022_Feb_21_1047,59.9316299965,ProdSingRedo,001,"NC, 30",
,,,,95,0,95,0,,,,,,,,,,,,,,,,,,subject,sing,white,95,12,312,1,1.3086044,n,0.2911629,2022_Feb_21_1047,59.9316299965,ProdSingRedo,001,"NC, 30",
,,,,96,0,96,0,,,,,,,,,,,,,,,,,,sight,new_c,white,96,162,286,3,4.2229777,n,0.0437658999999,2022_Feb_21_1047,59.9316299965,ProdSingRedo,001,"NC, 30",
,,,,97,0,97,0,,,,,,,,,,,,,,,,,,broad,aloud,white,97,56,31,6,1.9521446,r,1.8078572,2022_Feb_21_1047,59.9316299965,ProdSingRedo,001,"NC, 30",
,,,,98,0,98,0,,,,,,,,,,,,,,,,,,height,new_c,white,98,150,152,1,0.7811771,n,0.2612419,2022_Feb_21_1047,59.9316299965,ProdSingRedo,001,"NC, 30",
,,,,99,0,99,0,,,,,,,,,,,,,,,,,,minute,new_b,white,99,129,192,1,0.7386528,n,0.22373,2022_Feb_21_1047,59.9316299965,ProdSingRedo,001,"NC, 30",
,,,,100,0,100,0,,,,,,,,,,,,,,,,,,travel,silent,white,100,81,338,1,1.1188817,n,0.1353814,2022_Feb_21_1047,59.9316299965,ProdSingRedo,001,"NC, 30",
,,,,101,0,101,0,,,,,,,,,,,,,,,,,,agency,sing,white,101,1,4,1,1.7128354,n,0.0894443999998,2022_Feb_21_1047,59.9316299965,ProdSingRedo,001,"NC, 30",
,,,,102,0,102,0,,,,,,,,,,,,,,,,,,profession,aloud,white,102,49,241,6,1.5545765,r,1.0404212,2022_Feb_21_1047,59.9316299965,ProdSingRedo,001,"NC, 30",
,,,,103,0,103,0,,,,,,,,,,,,,,,,,,afternoon,aloud,white,103,51,3,1,0.7796901,n,0.2900041,2022_Feb_21_1047,59.9316299965,ProdSingRedo,001,"NC, 30",
,,,,104,0,104,0,,,,,,,,,,,,,,,,,,waste,new_c,white,104,160,350,1,0.9603563,n,0.2780548,2022_Feb_21_1047,59.9316299965,ProdSingRedo,001,"NC, 30",
,,,,105,0,105,0,,,,,,,,,,,,,,,,,,match,aloud,white,105,58,181,1,1.0742134,n,0.1468183,2022_Feb_21_1047,59.9316299965,ProdSingRedo,001,"NC, 30",
,,,,106,0,106,0,,,,,,,,,,,,,,,,,,range,sing,white,106,5,251,1,0.7824796,n,0.2583645,2022_Feb_21_1047,59.9316299965,ProdSingRedo,001,"NC, 30",
,,,,107,0,107,0,,,,,,,,,,,,,,,,,,education,new_a,white,107,107,108,1,0.7794344,n,0.2820031,2022_Feb_21_1047,59.9316299965,ProdSingRedo,001,"NC, 30",
,,,,108,0,108,0,,,,,,,,,,,,,,,,,,produce,new_c,white,108,152,239,1,1.1424997,n,0.2583498,2022_Feb_21_1047,59.9316299965,ProdSingRedo,001,"NC, 30",
,,,,109,0,109,0,,,,,,,,,,,,,,,,,,general,aloud,white,109,36,135,1,0.8375502,n,0.2750694,2022_Feb_21_1047,59.9316299965,ProdSingRedo,001,"NC, 30",
,,,,110,0,110,0,,,,,,,,,,,,,,,,,,swift,new_b,white,110,126,320,1,0.6070858,n,0.1609772,2022_Feb_21_1047,59.9316299965,ProdSingRedo,001,"NC, 30",
,,,,111,0,111,0,,,,,,,,,,,,,,,,,,count,new_c,white,111,179,72,1,1.1922668,n,0.1987273,2022_Feb_21_1047,59.9316299965,ProdSingRedo,001,"NC, 30",
,,,,112,0,112,0,,,,,,,,,,,,,,,,,,story,aloud,white,112,59,306,4,3.426843,n,1.3161457,2022_Feb_21_1047,59.9316299965,ProdSingRedo,001,"NC, 30",
,,,,113,0,113,0,,,,,,,,,,,,,,,,,,month,aloud,white,113,52,193,1,0.8495946,n,0.250063,2022_Feb_21_1047,59.9316299965,ProdSingRedo,001,"NC, 30",
,,,,114,0,114,0,,,,,,,,,,,,,,,,,,tough,new_a,white,114,110,333,1,0.8478466,n,0.1257467,2022_Feb_21_1047,59.9316299965,ProdSingRedo,001,"NC, 30",
,,,,115,0,115,0,,,,,,,,,,,,,,,,,,silence,sing,white,115,14,288,1,1.1243079,n,0.0227394000001,2022_Feb_21_1047,59.9316299965,ProdSingRedo,001,"NC, 30",
,,,,116,0,116,0,,,,,,,,,,,,,,,,,,leader,new_c,white,116,161,168,1,1.3089539,n,0.4408535,2022_Feb_21_1047,59.9316299965,ProdSingRedo,001,"NC, 30",
,,,,117,0,117,0,,,,,,,,,,,,,,,,,,voice,sing,white,117,0,348,4,4.5972991,n,0.2407604,2022_Feb_21_1047,59.9316299965,ProdSingRedo,001,"NC, 30",
,,,,118,0,118,0,,,,,,,,,,,,,,,,,,executive,sing,white,118,20,122,6,1.5410341,f,0.9055919,2022_Feb_21_1047,59.9316299965,ProdSingRedo,001,"NC, 30",
,,,,119,0,119,0,,,,,,,,,,,,,,,,,,tragedy,new_a,white,119,95,335,1,1.0598807,n,0.2723752,2022_Feb_21_1047,59.9316299965,ProdSingRedo,001,"NC, 30",
,,,,120,0,120,0,,,,,,,,,,,,,,,,,,revolution,new_b,white,120,141,264,1,3.4226593,n,0.5240679,2022_Feb_21_1047,59.9316299965,ProdSingRedo,001,"NC, 30",
,,,,121,0,121,0,,,,,,,,,,,,,,,,,,running,aloud,white,121,40,268,1,0.7145752,n,0.3249007,2022_Feb_21_1047,59.9316299965,ProdSingRedo,001,"NC, 30",
,,,,122,0,122,0,,,,,,,,,,,,,,,,,,ground,aloud,white,122,42,142,1,1.2051899,n,0.173051,2022_Feb_21_1047,59.9316299965,ProdSingRedo,001,"NC, 30",
,,,,123,0,123,0,,,,,,,,,,,,,,,,,,native,new_c,white,123,174,199,1,1.3947639,n,0.4112846,2022_Feb_21_1047,59.9316299965,ProdSingRedo,001,"NC, 30",
,,,,124,0,124,0,,,,,,,,,,,,,,,,,,drink,aloud,white,124,44,105,1,0.9266247,n,0.345174,2022_Feb_21_1047,59.9316299965,ProdSingRedo,001,"NC, 30",
,,,,125,0,125,0,,,,,,,,,,,,,,,,,,carry,new_c,white,125,163,43,1,0.7281453,n,0.3006702,2022_Feb_21_1047,59.9316299965,ProdSingRedo,001,"NC, 30",
,,,,126,0,126,0,,,,,,,,,,,,,,,,,,state,sing,white,126,8,303,1,1.3105532,n,0.1271903,2022_Feb_21_1047,59.9316299965,ProdSingRedo,001,"NC, 30",
,,,,127,0,127,0,,,,,,,,,,,,,,,,,,novel,sing,white,127,29,202,6,2.0923214,f,0.2617876,2022_Feb_21_1047,59.9316299965,ProdSingRedo,001,"NC, 30",
,,,,128,0,128,0,,,,,,,,,,,,,,,,,,surprise,new_c,white,128,167,317,1,1.3652365,n,0.3048212,2022_Feb_21_1047,59.9316299965,ProdSingRedo,001,"NC, 30",
,,,,129,0,129,0,,,,,,,,,,,,,,,,,,discovery,new_b,white,129,140,95,1,1.3127451,n,0.0986447999999,2022_Feb_21_1047,59.9316299965,ProdSingRedo,001,"NC, 30",
,,,,130,0,130,0,,,,,,,,,,,,,,,,,,management,silent,white,130,87,177,1,0.6939948,n,0.1558028,2022_Feb_21_1047,59.9316299965,ProdSingRedo,001,"NC, 30",
,,,,131,0,131,0,,,,,,,,,,,,,,,,,,clean,new_b,white,131,131,51,1,0.6590386,n,1.0512571,2022_Feb_21_1047,59.9316299965,ProdSingRedo,001,"NC, 30",
,,,,132,0,132,0,,,,,,,,,,,,,,,,,,substance,silent,white,132,77,313,6,1.4878146,f,0.3242437,2022_Feb_21_1047,59.9316299965,ProdSingRedo,001,"NC, 30",
,,,,133,0,133,0,,,,,,,,,,,,,,,,,,permit,aloud,white,133,43,218,6,1.2380275,r,1.3469526,2022_Feb_21_1047,59.9316299965,ProdSingRedo,001,"NC, 30",
,,,,134,0,134,0,,,,,,,,,,,,,,,,,,measure,new_a,white,134,91,184,1,1.2136615,n,0.1760955,2022_Feb_21_1047,59.9316299965,ProdSingRedo,001,"NC, 30",
,,,,135,0,135,0,,,,,,,,,,,,,,,,,,universal,new_a,white,135,118,345,1,0.6177718,n,0.2435551,2022_Feb_21_1047,59.9316299965,ProdSingRedo,001,"NC, 30",
,,,,136,0,136,0,,,,,,,,,,,,,,,,,,turkey,silent,white,136,85,342,1,0.5823015,n,0.3062867,2022_Feb_21_1047,59.9316299965,ProdSingRedo,001,"NC, 30",
,,,,137,0,137,0,,,,,,,,,,,,,,,,,,prime,new_b,white,137,120,235,6,2.0989873,f,0.7974441,2022_Feb_21_1047,59.9316299965,ProdSingRedo,001,"NC, 30",
,,,,138,0,138,0,,,,,,,,,,,,,,,,,,public,new_c,white,138,171,244,6,2.1468605,f,0.8102773,2022_Feb_21_1047,59.9316299965,ProdSingRedo,001,"NC, 30",
,,,,139,0,139,0,,,,,,,,,,,,,,,,,,bucket,silent,white,139,73,33,1,1.1017142,n,0.2638994,2022_Feb_21_1047,59.9316299965,ProdSingRedo,001,"NC, 30",
,,,,140,0,140,0,,,,,,,,,,,,,,,,,,period,new_c,white,140,165,217,1,0.7063403,n,0.2165413,2022_Feb_21_1047,59.9316299965,ProdSingRedo,001,"NC, 30",
,,,,141,0,141,0,,,,,,,,,,,,,,,,,,religion,silent,white,141,70,258,6,2.6791245,r,1.2782367,2022_Feb_21_1047,59.9316299965,ProdSingRedo,001,"NC, 30",
,,,,142,0,142,0,,,,,,,,,,,,,,,,,,throw,sing,white,142,7,330,1,1.1773197,n,0.1435328,2022_Feb_21_1047,59.9316299965,ProdSingRedo,001,"NC, 30",
,,,,143,0,143,0,,,,,,,,,,,,,,,,,,level,new_a,white,143,108,170,1,0.7462657,n,0.2928437,2022_Feb_21_1047,59.9316299965,ProdSingRedo,001,"NC, 30",
,,,,144,0,144,0,,,,,,,,,,,,,,,,,,sound,new_a,white,144,119,295,1,0.9243271,n,0.2234566,2022_Feb_21_1047,59.9316299965,ProdSingRedo,001,"NC, 30",
,,,,145,0,145,0,,,,,,,,,,,,,,,,,,weather,sing,white,145,17,352,6,1.9961988,r,1.2393519,2022_Feb_21_1047,59.9316299965,ProdSingRedo,001,"NC, 30",
,,,,146,0,146,0,,,,,,,,,,,,,,,,,,audience,new_b,white,146,136,14,1,0.7888981,n,0.2896189,2022_Feb_21_1047,59.9316299965,ProdSingRedo,001,"NC, 30",
,,,,147,0,147,0,,,,,,,,,,,,,,,,,,watch,new_b,white,147,128,351,1,0.7487407,n,0.2294886,2022_Feb_21_1047,59.9316299965,ProdSingRedo,001,"NC, 30",
,,,,148,0,148,0,,,,,,,,,,,,,,,,,,shock,new_b,white,148,130,284,1,0.745395,n,0.2107674,2022_Feb_21_1047,59.9316299965,ProdSingRedo,001,"NC, 30",
,,,,149,0,149,0,,,,,,,,,,,,,,,,,,damage,new_a,white,149,103,83,1,1.2848758,n,0.1091254,2022_Feb_21_1047,59.9316299965,ProdSingRedo,001,"NC, 30",
,,,,150,0,150,0,,,,,,,,,,,,,,,,,,production,new_c,white,150,159,240,1,1.6073705,n,0.1361239,2022_Feb_21_1047,59.9316299965,ProdSingRedo,001,"NC, 30",
,,,,151,0,151,0,,,,,,,,,,,,,,,,,,fight,new_a,white,151,98,127,1,1.0644413,n,0.2278238,2022_Feb_21_1047,59.9316299965,ProdSingRedo,001,"NC, 30",
,,,,152,0,152,0,,,,,,,,,,,,,,,,,,impact,silent,white,152,64,157,1,1.242483,n,0.3282715,2022_Feb_21_1047,59.9316299965,ProdSingRedo,001,"NC, 30",
,,,,153,0,153,0,,,,,,,,,,,,,,,,,,department,new_b,white,153,147,90,1,3.2700042,n,0.000448000000006,2022_Feb_21_1047,59.9316299965,ProdSingRedo,001,"NC, 30",
,,,,154,0,154,0,,,,,,,,,,,,,,,,,,discussion,silent,white,154,69,96,1,1.9087831,n,0.1210388,2022_Feb_21_1047,59.9316299965,ProdSingRedo,001,"NC, 30",
,,,,155,0,155,0,,,,,,,,,,,,,,,,,,research,new_b,white,155,132,261,1,0.9902235,n,0.2773398,2022_Feb_21_1047,59.9316299965,ProdSingRedo,001,"NC, 30",
,,,,156,0,156,0,,,,,,,,,,,,,,,,,,foundation,new_b,white,156,144,132,1,1.5889629,n,0.2985713,2022_Feb_21_1047,59.9316299965,ProdSingRedo,001,"NC, 30",
,,,,157,0,157,0,,,,,,,,,,,,,,,,,,distance,new_a,white,157,96,100,1,1.3919388,n,0.0549151,2022_Feb_21_1047,59.9316299965,ProdSingRedo,001,"NC, 30",
,,,,158,0,158,0,,,,,,,,,,,,,,,,,,master,new_a,white,158,105,180,1,1.9592189,n,0.1583656,2022_Feb_21_1047,59.9316299965,ProdSingRedo,001,"NC, 30",
,,,,159,0,159,0,,,,,,,,,,,,,,,,,,angle,aloud,white,159,47,7,6,1.6541412,f,0.3313887,2022_Feb_21_1047,59.9316299965,ProdSingRedo,001,"NC, 30",
,,,,160,0,160,0,,,,,,,,,,,,,,,,,,plane,silent,white,160,82,223,1,0.8227466,n,0.345048,2022_Feb_21_1047,59.9316299965,ProdSingRedo,001,"NC, 30",
,,,,161,0,161,0,,,,,,,,,,,,,,,,,,youth,aloud,white,161,35,359,1,0.7639237,n,0.3624782,2022_Feb_21_1047,59.9316299965,ProdSingRedo,001,"NC, 30",
,,,,162,0,162,0,,,,,,,,,,,,,,,,,,quarter,new_b,white,162,124,246,1,1.1464359,n,0.3029474,2022_Feb_21_1047,59.9316299965,ProdSingRedo,001,"NC, 30",
,,,,163,0,163,0,,,,,,,,,,,,,,,,,,benefit,silent,white,163,65,20,1,1.2114316,n,0.1261231,2022_Feb_21_1047,59.9316299965,ProdSingRedo,001,"NC, 30",
,,,,164,0,164,0,,,,,,,,,,,,,,,,,,spoke,new_b,white,164,125,300,1,0.847593,n,0.3294543,2022_Feb_21_1047,59.9316299965,ProdSingRedo,001,"NC, 30",
,,,,165,0,165,0,,,,,,,,,,,,,,,,,,murder,aloud,white,165,37,195,6,1.46793,r,0.8643448,2022_Feb_21_1047,59.9316299965,ProdSingRedo,001,"NC, 30",
,,,,166,0,166,0,,,,,,,,,,,,,,,,,,title,new_a,white,166,106,331,1,0.845207,n,0.2640495,2022_Feb_21_1047,59.9316299965,ProdSingRedo,001,"NC, 30",
,,,,167,0,167,0,,,,,,,,,,,,,,,,,,edition,silent,white,167,79,107,6,1.9098262,f,0.311923,2022_Feb_21_1047,59.9316299965,ProdSingRedo,001,"NC, 30",
,,,,168,0,168,0,,,,,,,,,,,,,,,,,,detective,aloud,white,168,41,92,4,3.7203592,n,0.9901165,2022_Feb_21_1047,59.9316299965,ProdSingRedo,001,"NC, 30",
,,,,169,0,169,0,,,,,,,,,,,,,,,,,,poetry,new_b,white,169,137,225,1,1.8082823,n,0.2566885,2022_Feb_21_1047,59.9316299965,ProdSingRedo,001,"NC, 30",
,,,,170,0,170,0,,,,,,,,,,,,,,,,,,opening,sing,white,170,23,205,1,0.5609192,f,4.3786267,2022_Feb_21_1047,59.9316299965,ProdSingRedo,001,"NC, 30",
,,,,171,0,171,0,,,,,,,,,,,,,,,,,,question,silent,white,171,62,247,1,2.3185296,n,0.1977785,2022_Feb_21_1047,59.9316299965,ProdSingRedo,001,"NC, 30",
,,,,172,0,172,0,,,,,,,,,,,,,,,,,,brilliant,aloud,white,172,46,30,1,0.9031855,n,0.1922972,2022_Feb_21_1047,59.9316299965,ProdSingRedo,001,"NC, 30",
,,,,173,0,173,0,,,,,,,,,,,,,,,,,,review,aloud,white,173,45,263,1,2.5237954,n,0.1685541,2022_Feb_21_1047,59.9316299965,ProdSingRedo,001,"NC, 30",
,,,,174,0,174,0,,,,,,,,,,,,,,,,,,strength,silent,white,174,63,310,1,0.7290453,n,0.3277564,2022_Feb_21_1047,59.9316299965,ProdSingRedo,001,"NC, 30",
,,,,175,0,175,0,,,,,,,,,,,,,,,,,,material,sing,white,175,22,182,1,1.8033074,n,0.122428,2022_Feb_21_1047,59.9316299965,ProdSingRedo,001,"NC, 30",
,,,,176,0,176,0,,,,,,,,,,,,,,,,,,scene,new_b,white,176,143,273,1,1.0490006,n,0.1424492,2022_Feb_21_1047,59.9316299965,ProdSingRedo,001,"NC, 30",
,,,,177,0,177,0,,,,,,,,,,,,,,,,,,provision,new_b,white,177,123,243,1,0.9784499,n,0.4236324,2022_Feb_21_1047,59.9316299965,ProdSingRedo,001,"NC, 30",
,,,,178,0,178,0,,,,,,,,,,,,,,,,,,treatment,new_b,white,178,146,339,1,0.8024393,n,0.2077409,2022_Feb_21_1047,59.9316299965,ProdSingRedo,001,"NC, 30",
,,,,179,0,179,0,,,,,,,,,,,,,,,,,,author,new_a,white,179,104,15,1,0.6749067,n,0.1442839,2022_Feb_21_1047,59.9316299965,ProdSingRedo,001,"NC, 30",
