StudyLoop.thisRepN,StudyLoop.thisTrialN,StudyLoop.thisN,StudyLoop.thisIndex,TestLoop.thisRepN,TestLoop.thisTrialN,TestLoop.thisN,TestLoop.thisIndex,keyCondition.keys,keyCondition.rt,Condition,stim_colors,color_sing,color_aloud,color_silent,keyWelcome.keys,keyWelcome.rt,study_word,study_type,study_color,study_num,study_word_num,keyStudy.keys,key_resp_3.keys,key_resp_3.rt,testWord,testType,testColor,testN,test_num,test_word_num,keyConf.keys,keyConf.rt,keyRKN.keys,keyRKN.rt,date,frameRate,expName,session,participant,
,,,,,,,,n,6.00396090001,,,,,,,,,,,,,,,,,,,,,,,,,,2019_Dec_05_1512,59.999124076,ProdSingRedo,001,nc10,
,,,,,,,,,,NeutralTest,"['blue', 'red', 'yellow']",blue,red,yellow,space,660.64306,,,,,,,,,,,,,,,,,,,2019_Dec_05_1512,59.999124076,ProdSingRedo,001,nc10,
0,0,0,0,,,,,,,,,,,,,,religion,aloud,red,39,258,None,,,,,,,,,,,,,2019_Dec_05_1512,59.999124076,ProdSingRedo,001,nc10,
1,0,1,0,,,,,,,,,,,,,,period,silent,yellow,60,217,None,,,,,,,,,,,,,2019_Dec_05_1512,59.999124076,ProdSingRedo,001,nc10,
2,0,2,0,,,,,,,,,,,,,,charter,sing,blue,2,47,None,,,,,,,,,,,,,2019_Dec_05_1512,59.999124076,ProdSingRedo,001,nc10,
3,0,3,0,,,,,,,,,,,,,,group,silent,yellow,84,143,None,,,,,,,,,,,,,2019_Dec_05_1512,59.999124076,ProdSingRedo,001,nc10,
4,0,4,0,,,,,,,,,,,,,,relation,silent,yellow,68,257,None,,,,,,,,,,,,,2019_Dec_05_1512,59.999124076,ProdSingRedo,001,nc10,
5,0,5,0,,,,,,,,,,,,,,trail,aloud,red,37,336,None,,,,,,,,,,,,,2019_Dec_05_1512,59.999124076,ProdSingRedo,001,nc10,
6,0,6,0,,,,,,,,,,,,,,background,aloud,red,32,16,None,,,,,,,,,,,,,2019_Dec_05_1512,59.999124076,ProdSingRedo,001,nc10,
7,0,7,0,,,,,,,,,,,,,,cover,silent,yellow,80,77,None,,,,,,,,,,,,,2019_Dec_05_1512,59.999124076,ProdSingRedo,001,nc10,
8,0,8,0,,,,,,,,,,,,,,engineer,aloud,red,36,114,None,,,,,,,,,,,,,2019_Dec_05_1512,59.999124076,ProdSingRedo,001,nc10,
9,0,9,0,,,,,,,,,,,,,,breath,sing,blue,29,27,None,,,,,,,,,,,,,2019_Dec_05_1512,59.999124076,ProdSingRedo,001,nc10,
10,0,10,0,,,,,,,,,,,,,,instrument,aloud,red,56,163,None,,,,,,,,,,,,,2019_Dec_05_1512,59.999124076,ProdSingRedo,001,nc10,
11,0,11,0,,,,,,,,,,,,,,mankind,silent,yellow,75,178,None,,,,,,,,,,,,,2019_Dec_05_1512,59.999124076,ProdSingRedo,001,nc10,
12,0,12,0,,,,,,,,,,,,,,capital,aloud,red,54,40,None,,,,,,,,,,,,,2019_Dec_05_1512,59.999124076,ProdSingRedo,001,nc10,
13,0,13,0,,,,,,,,,,,,,,search,sing,blue,0,276,None,,,,,,,,,,,,,2019_Dec_05_1512,59.999124076,ProdSingRedo,001,nc10,
14,0,14,0,,,,,,,,,,,,,,stranger,silent,yellow,82,309,None,,,,,,,,,,,,,2019_Dec_05_1512,59.999124076,ProdSingRedo,001,nc10,
15,0,15,0,,,,,,,,,,,,,,addition,aloud,red,50,2,None,,,,,,,,,,,,,2019_Dec_05_1512,59.999124076,ProdSingRedo,001,nc10,
16,0,16,0,,,,,,,,,,,,,,century,aloud,red,49,45,None,,,,,,,,,,,,,2019_Dec_05_1512,59.999124076,ProdSingRedo,001,nc10,
17,0,17,0,,,,,,,,,,,,,,poetry,silent,yellow,66,225,None,,,,,,,,,,,,,2019_Dec_05_1512,59.999124076,ProdSingRedo,001,nc10,
18,0,18,0,,,,,,,,,,,,,,dozen,sing,blue,4,102,None,,,,,,,,,,,,,2019_Dec_05_1512,59.999124076,ProdSingRedo,001,nc10,
19,0,19,0,,,,,,,,,,,,,,detective,sing,blue,7,92,None,,,,,,,,,,,,,2019_Dec_05_1512,59.999124076,ProdSingRedo,001,nc10,
20,0,20,0,,,,,,,,,,,,,,disease,aloud,red,40,97,None,,,,,,,,,,,,,2019_Dec_05_1512,59.999124076,ProdSingRedo,001,nc10,
21,0,21,0,,,,,,,,,,,,,,object,aloud,red,48,204,None,,,,,,,,,,,,,2019_Dec_05_1512,59.999124076,ProdSingRedo,001,nc10,
22,0,22,0,,,,,,,,,,,,,,profession,sing,blue,21,241,None,,,,,,,,,,,,,2019_Dec_05_1512,59.999124076,ProdSingRedo,001,nc10,
23,0,23,0,,,,,,,,,,,,,,season,sing,blue,8,277,None,,,,,,,,,,,,,2019_Dec_05_1512,59.999124076,ProdSingRedo,001,nc10,
24,0,24,0,,,,,,,,,,,,,,agency,aloud,red,42,4,None,,,,,,,,,,,,,2019_Dec_05_1512,59.999124076,ProdSingRedo,001,nc10,
25,0,25,0,,,,,,,,,,,,,,broad,silent,yellow,72,31,None,,,,,,,,,,,,,2019_Dec_05_1512,59.999124076,ProdSingRedo,001,nc10,
26,0,26,0,,,,,,,,,,,,,,guard,silent,yellow,61,145,None,,,,,,,,,,,,,2019_Dec_05_1512,59.999124076,ProdSingRedo,001,nc10,
27,0,27,0,,,,,,,,,,,,,,thing,aloud,red,45,328,None,,,,,,,,,,,,,2019_Dec_05_1512,59.999124076,ProdSingRedo,001,nc10,
28,0,28,0,,,,,,,,,,,,,,gesture,silent,yellow,62,137,None,,,,,,,,,,,,,2019_Dec_05_1512,59.999124076,ProdSingRedo,001,nc10,
29,0,29,0,,,,,,,,,,,,,,problem,aloud,red,57,238,None,,,,,,,,,,,,,2019_Dec_05_1512,59.999124076,ProdSingRedo,001,nc10,
30,0,30,0,,,,,,,,,,,,,,carry,silent,yellow,78,43,None,,,,,,,,,,,,,2019_Dec_05_1512,59.999124076,ProdSingRedo,001,nc10,
31,0,31,0,,,,,,,,,,,,,,contract,silent,yellow,88,68,None,,,,,,,,,,,,,2019_Dec_05_1512,59.999124076,ProdSingRedo,001,nc10,
32,0,32,0,,,,,,,,,,,,,,general,sing,blue,6,135,None,,,,,,,,,,,,,2019_Dec_05_1512,59.999124076,ProdSingRedo,001,nc10,
33,0,33,0,,,,,,,,,,,,,,count,sing,blue,18,72,None,,,,,,,,,,,,,2019_Dec_05_1512,59.999124076,ProdSingRedo,001,nc10,
34,0,34,0,,,,,,,,,,,,,,novel,silent,yellow,74,202,None,,,,,,,,,,,,,2019_Dec_05_1512,59.999124076,ProdSingRedo,001,nc10,
35,0,35,0,,,,,,,,,,,,,,youth,sing,blue,9,359,None,,,,,,,,,,,,,2019_Dec_05_1512,59.999124076,ProdSingRedo,001,nc10,
36,0,36,0,,,,,,,,,,,,,,marriage,silent,yellow,64,179,None,,,,,,,,,,,,,2019_Dec_05_1512,59.999124076,ProdSingRedo,001,nc10,
37,0,37,0,,,,,,,,,,,,,,individual,aloud,red,30,160,None,,,,,,,,,,,,,2019_Dec_05_1512,59.999124076,ProdSingRedo,001,nc10,
38,0,38,0,,,,,,,,,,,,,,finance,sing,blue,13,129,None,,,,,,,,,,,,,2019_Dec_05_1512,59.999124076,ProdSingRedo,001,nc10,
39,0,39,0,,,,,,,,,,,,,,grade,aloud,red,58,140,None,,,,,,,,,,,,,2019_Dec_05_1512,59.999124076,ProdSingRedo,001,nc10,
40,0,40,0,,,,,,,,,,,,,,suspect,sing,blue,23,318,None,,,,,,,,,,,,,2019_Dec_05_1512,59.999124076,ProdSingRedo,001,nc10,
41,0,41,0,,,,,,,,,,,,,,husband,silent,yellow,83,156,None,,,,,,,,,,,,,2019_Dec_05_1512,59.999124076,ProdSingRedo,001,nc10,
42,0,42,0,,,,,,,,,,,,,,platform,sing,blue,14,224,None,,,,,,,,,,,,,2019_Dec_05_1512,59.999124076,ProdSingRedo,001,nc10,
43,0,43,0,,,,,,,,,,,,,,commercial,sing,blue,28,61,None,,,,,,,,,,,,,2019_Dec_05_1512,59.999124076,ProdSingRedo,001,nc10,
44,0,44,0,,,,,,,,,,,,,,tough,aloud,red,46,333,None,,,,,,,,,,,,,2019_Dec_05_1512,59.999124076,ProdSingRedo,001,nc10,
45,0,45,0,,,,,,,,,,,,,,quick,silent,yellow,70,248,None,,,,,,,,,,,,,2019_Dec_05_1512,59.999124076,ProdSingRedo,001,nc10,
46,0,46,0,,,,,,,,,,,,,,crime,aloud,red,51,78,None,,,,,,,,,,,,,2019_Dec_05_1512,59.999124076,ProdSingRedo,001,nc10,
47,0,47,0,,,,,,,,,,,,,,sight,silent,yellow,76,286,None,,,,,,,,,,,,,2019_Dec_05_1512,59.999124076,ProdSingRedo,001,nc10,
48,0,48,0,,,,,,,,,,,,,,order,sing,blue,26,207,None,,,,,,,,,,,,,2019_Dec_05_1512,59.999124076,ProdSingRedo,001,nc10,
49,0,49,0,,,,,,,,,,,,,,write,aloud,red,59,358,None,,,,,,,,,,,,,2019_Dec_05_1512,59.999124076,ProdSingRedo,001,nc10,
50,0,50,0,,,,,,,,,,,,,,signal,silent,yellow,87,287,None,,,,,,,,,,,,,2019_Dec_05_1512,59.999124076,ProdSingRedo,001,nc10,
51,0,51,0,,,,,,,,,,,,,,clean,aloud,red,44,51,None,,,,,,,,,,,,,2019_Dec_05_1512,59.999124076,ProdSingRedo,001,nc10,
52,0,52,0,,,,,,,,,,,,,,hunger,aloud,red,34,155,None,,,,,,,,,,,,,2019_Dec_05_1512,59.999124076,ProdSingRedo,001,nc10,
53,0,53,0,,,,,,,,,,,,,,literature,aloud,red,53,173,None,,,,,,,,,,,,,2019_Dec_05_1512,59.999124076,ProdSingRedo,001,nc10,
54,0,54,0,,,,,,,,,,,,,,fight,silent,yellow,77,127,None,,,,,,,,,,,,,2019_Dec_05_1512,59.999124076,ProdSingRedo,001,nc10,
55,0,55,0,,,,,,,,,,,,,,voice,sing,blue,15,348,None,,,,,,,,,,,,,2019_Dec_05_1512,59.999124076,ProdSingRedo,001,nc10,
56,0,56,0,,,,,,,,,,,,,,point,silent,yellow,73,226,None,,,,,,,,,,,,,2019_Dec_05_1512,59.999124076,ProdSingRedo,001,nc10,
57,0,57,0,,,,,,,,,,,,,,salary,sing,blue,27,271,None,,,,,,,,,,,,,2019_Dec_05_1512,59.999124076,ProdSingRedo,001,nc10,
58,0,58,0,,,,,,,,,,,,,,native,silent,yellow,81,199,None,,,,,,,,,,,,,2019_Dec_05_1512,59.999124076,ProdSingRedo,001,nc10,
59,0,59,0,,,,,,,,,,,,,,nature,silent,yellow,63,200,None,,,,,,,,,,,,,2019_Dec_05_1512,59.999124076,ProdSingRedo,001,nc10,
60,0,60,0,,,,,,,,,,,,,,tragedy,aloud,red,31,335,None,,,,,,,,,,,,,2019_Dec_05_1512,59.999124076,ProdSingRedo,001,nc10,
61,0,61,0,,,,,,,,,,,,,,comfort,silent,yellow,69,59,None,,,,,,,,,,,,,2019_Dec_05_1512,59.999124076,ProdSingRedo,001,nc10,
62,0,62,0,,,,,,,,,,,,,,tennis,sing,blue,19,323,None,,,,,,,,,,,,,2019_Dec_05_1512,59.999124076,ProdSingRedo,001,nc10,
63,0,63,0,,,,,,,,,,,,,,title,aloud,red,43,331,None,,,,,,,,,,,,,2019_Dec_05_1512,59.999124076,ProdSingRedo,001,nc10,
64,0,64,0,,,,,,,,,,,,,,material,silent,yellow,89,182,None,,,,,,,,,,,,,2019_Dec_05_1512,59.999124076,ProdSingRedo,001,nc10,
65,0,65,0,,,,,,,,,,,,,,master,sing,blue,25,180,None,,,,,,,,,,,,,2019_Dec_05_1512,59.999124076,ProdSingRedo,001,nc10,
66,0,66,0,,,,,,,,,,,,,,comedy,sing,blue,10,58,None,,,,,,,,,,,,,2019_Dec_05_1512,59.999124076,ProdSingRedo,001,nc10,
67,0,67,0,,,,,,,,,,,,,,sunset,silent,yellow,71,315,None,,,,,,,,,,,,,2019_Dec_05_1512,59.999124076,ProdSingRedo,001,nc10,
68,0,68,0,,,,,,,,,,,,,,debate,sing,blue,12,87,None,,,,,,,,,,,,,2019_Dec_05_1512,59.999124076,ProdSingRedo,001,nc10,
69,0,69,0,,,,,,,,,,,,,,drink,silent,yellow,67,105,None,,,,,,,,,,,,,2019_Dec_05_1512,59.999124076,ProdSingRedo,001,nc10,
70,0,70,0,,,,,,,,,,,,,,impact,sing,blue,20,157,None,,,,,,,,,,,,,2019_Dec_05_1512,59.999124076,ProdSingRedo,001,nc10,
71,0,71,0,,,,,,,,,,,,,,committee,aloud,red,38,62,None,,,,,,,,,,,,,2019_Dec_05_1512,59.999124076,ProdSingRedo,001,nc10,
72,0,72,0,,,,,,,,,,,,,,concern,silent,yellow,65,65,None,,,,,,,,,,,,,2019_Dec_05_1512,59.999124076,ProdSingRedo,001,nc10,
73,0,73,0,,,,,,,,,,,,,,subject,sing,blue,16,312,None,,,,,,,,,,,,,2019_Dec_05_1512,59.999124076,ProdSingRedo,001,nc10,
74,0,74,0,,,,,,,,,,,,,,science,aloud,red,41,275,None,,,,,,,,,,,,,2019_Dec_05_1512,59.999124076,ProdSingRedo,001,nc10,
75,0,75,0,,,,,,,,,,,,,,owner,aloud,red,52,208,None,,,,,,,,,,,,,2019_Dec_05_1512,59.999124076,ProdSingRedo,001,nc10,
76,0,76,0,,,,,,,,,,,,,,degree,aloud,red,55,89,None,,,,,,,,,,,,,2019_Dec_05_1512,59.999124076,ProdSingRedo,001,nc10,
77,0,77,0,,,,,,,,,,,,,,frank,sing,blue,3,133,None,,,,,,,,,,,,,2019_Dec_05_1512,59.999124076,ProdSingRedo,001,nc10,
78,0,78,0,,,,,,,,,,,,,,express,sing,blue,1,124,None,,,,,,,,,,,,,2019_Dec_05_1512,59.999124076,ProdSingRedo,001,nc10,
79,0,79,0,,,,,,,,,,,,,,member,sing,blue,22,188,None,,,,,,,,,,,,,2019_Dec_05_1512,59.999124076,ProdSingRedo,001,nc10,
80,0,80,0,,,,,,,,,,,,,,front,sing,blue,11,134,None,,,,,,,,,,,,,2019_Dec_05_1512,59.999124076,ProdSingRedo,001,nc10,
81,0,81,0,,,,,,,,,,,,,,incident,aloud,red,33,158,None,,,,,,,,,,,,,2019_Dec_05_1512,59.999124076,ProdSingRedo,001,nc10,
82,0,82,0,,,,,,,,,,,,,,bicycle,sing,blue,17,21,None,,,,,,,,,,,,,2019_Dec_05_1512,59.999124076,ProdSingRedo,001,nc10,
83,0,83,0,,,,,,,,,,,,,,space,silent,yellow,86,297,None,,,,,,,,,,,,,2019_Dec_05_1512,59.999124076,ProdSingRedo,001,nc10,
84,0,84,0,,,,,,,,,,,,,,hearing,silent,yellow,79,150,None,,,,,,,,,,,,,2019_Dec_05_1512,59.999124076,ProdSingRedo,001,nc10,
85,0,85,0,,,,,,,,,,,,,,column,aloud,red,47,57,None,,,,,,,,,,,,,2019_Dec_05_1512,59.999124076,ProdSingRedo,001,nc10,
86,0,86,0,,,,,,,,,,,,,,command,sing,blue,5,60,None,,,,,,,,,,,,,2019_Dec_05_1512,59.999124076,ProdSingRedo,001,nc10,
87,0,87,0,,,,,,,,,,,,,,crisis,silent,yellow,85,79,None,,,,,,,,,,,,,2019_Dec_05_1512,59.999124076,ProdSingRedo,001,nc10,
88,0,88,0,,,,,,,,,,,,,,estate,sing,blue,24,119,None,,,,,,,,,,,,,2019_Dec_05_1512,59.999124076,ProdSingRedo,001,nc10,
89,0,89,0,,,,,,,,,,,,,,power,aloud,red,35,230,None,,,,,,,,,,,,,2019_Dec_05_1512,59.999124076,ProdSingRedo,001,nc10,
,,,,,,,,,,,,,,,,,,,,,,,k,77.5569259,,,,,,,,,,,2019_Dec_05_1512,59.999124076,ProdSingRedo,001,nc10,
,,,,0,0,0,0,,,,,,,,,,,,,,,,,,general,sing,white,0,6,135,2,18.7957640002,n,6.17358549987,2019_Dec_05_1512,59.999124076,ProdSingRedo,001,nc10,
,,,,1,0,1,0,,,,,,,,,,,,,,,,,,vision,new_a,white,1,101,347,1,2.85978010017,n,3.29688599985,2019_Dec_05_1512,59.999124076,ProdSingRedo,001,nc10,
,,,,2,0,2,0,,,,,,,,,,,,,,,,,,subject,sing,white,2,16,312,5,5.39895260008,r,3.46027449984,2019_Dec_05_1512,59.999124076,ProdSingRedo,001,nc10,
,,,,3,0,3,0,,,,,,,,,,,,,,,,,,signal,silent,white,3,87,287,4,3.03699759999,f,1.68254339998,2019_Dec_05_1512,59.999124076,ProdSingRedo,001,nc10,
,,,,4,0,4,0,,,,,,,,,,,,,,,,,,production,new_b,white,4,132,240,2,4.40048640012,n,1.95640660007,2019_Dec_05_1512,59.999124076,ProdSingRedo,001,nc10,
,,,,5,0,5,0,,,,,,,,,,,,,,,,,,childhood,new_a,white,5,105,49,1,1.9929651001,n,0.79927009996,2019_Dec_05_1512,59.999124076,ProdSingRedo,001,nc10,
,,,,6,0,6,0,,,,,,,,,,,,,,,,,,machinery,new_a,white,6,98,175,1,1.93824250018,f,2.92323049996,2019_Dec_05_1512,59.999124076,ProdSingRedo,001,nc10,
,,,,7,0,7,0,,,,,,,,,,,,,,,,,,sight,silent,white,7,76,286,5,5.5983056,f,1.91896609985,2019_Dec_05_1512,59.999124076,ProdSingRedo,001,nc10,
,,,,8,0,8,0,,,,,,,,,,,,,,,,,,express,sing,white,8,1,124,5,3.85725839995,f,0.587174399989,2019_Dec_05_1512,59.999124076,ProdSingRedo,001,nc10,
,,,,9,0,9,0,,,,,,,,,,,,,,,,,,little,new_a,white,9,96,174,1,3.13250990002,n,1.6175522001,2019_Dec_05_1512,59.999124076,ProdSingRedo,001,nc10,
,,,,10,0,10,0,,,,,,,,,,,,,,,,,,master,sing,white,10,25,180,6,2.0236674,r,1.53153809998,2019_Dec_05_1512,59.999124076,ProdSingRedo,001,nc10,
,,,,11,0,11,0,,,,,,,,,,,,,,,,,,produce,new_b,white,11,122,239,3,2.55619759997,f,2.0481131,2019_Dec_05_1512,59.999124076,ProdSingRedo,001,nc10,
,,,,12,0,12,0,,,,,,,,,,,,,,,,,,relation,silent,white,12,68,257,5,3.10874040006,f,2.38388730003,2019_Dec_05_1512,59.999124076,ProdSingRedo,001,nc10,
,,,,13,0,13,0,,,,,,,,,,,,,,,,,,discussion,new_c,white,13,175,96,4,3.635702,f,1.93827879988,2019_Dec_05_1512,59.999124076,ProdSingRedo,001,nc10,
,,,,14,0,14,0,,,,,,,,,,,,,,,,,,safety,new_b,white,14,127,270,3,3.03730179998,n,1.11309670005,2019_Dec_05_1512,59.999124076,ProdSingRedo,001,nc10,
,,,,15,0,15,0,,,,,,,,,,,,,,,,,,incident,aloud,white,15,33,158,5,13.0102281999,f,0.580661199987,2019_Dec_05_1512,59.999124076,ProdSingRedo,001,nc10,
,,,,16,0,16,0,,,,,,,,,,,,,,,,,,carry,silent,white,16,78,43,6,5.01906610001,r,1.72751559992,2019_Dec_05_1512,59.999124076,ProdSingRedo,001,nc10,
,,,,17,0,17,0,,,,,,,,,,,,,,,,,,frank,sing,white,17,3,133,6,2.1256571,r,0.859103499912,2019_Dec_05_1512,59.999124076,ProdSingRedo,001,nc10,
,,,,18,0,18,0,,,,,,,,,,,,,,,,,,count,sing,white,18,18,72,2,3.71377580008,n,1.71678710007,2019_Dec_05_1512,59.999124076,ProdSingRedo,001,nc10,
,,,,19,0,19,0,,,,,,,,,,,,,,,,,,pressure,new_c,white,19,153,232,3,3.01798660005,f,1.9070621999,2019_Dec_05_1512,59.999124076,ProdSingRedo,001,nc10,
,,,,20,0,20,0,,,,,,,,,,,,,,,,,,individual,aloud,white,20,30,160,5,5.46996969986,f,1.20868869987,2019_Dec_05_1512,59.999124076,ProdSingRedo,001,nc10,
,,,,21,0,21,0,,,,,,,,,,,,,,,,,,agency,aloud,white,21,42,4,6,3.20755359996,r,2.39281460014,2019_Dec_05_1512,59.999124076,ProdSingRedo,001,nc10,
,,,,22,0,22,0,,,,,,,,,,,,,,,,,,committee,aloud,white,22,38,62,4,6.52603910002,f,0.762521199882,2019_Dec_05_1512,59.999124076,ProdSingRedo,001,nc10,
,,,,23,0,23,0,,,,,,,,,,,,,,,,,,strength,new_b,white,23,142,310,3,3.17111440003,f,0.407963400008,2019_Dec_05_1512,59.999124076,ProdSingRedo,001,nc10,
,,,,24,0,24,0,,,,,,,,,,,,,,,,,,engineer,aloud,white,24,36,114,6,1.92452580016,r,0.940016299952,2019_Dec_05_1512,59.999124076,ProdSingRedo,001,nc10,
,,,,25,0,25,0,,,,,,,,,,,,,,,,,,rural,new_b,white,25,125,269,1,2.24469830003,n,0.381973600015,2019_Dec_05_1512,59.999124076,ProdSingRedo,001,nc10,
,,,,26,0,26,0,,,,,,,,,,,,,,,,,,estate,sing,white,26,24,119,5,2.17593530007,f,1.20218759985,2019_Dec_05_1512,59.999124076,ProdSingRedo,001,nc10,
,,,,27,0,27,0,,,,,,,,,,,,,,,,,,quick,silent,white,27,70,248,5,3.01095209992,r,1.25340849999,2019_Dec_05_1512,59.999124076,ProdSingRedo,001,nc10,
,,,,28,0,28,0,,,,,,,,,,,,,,,,,,stand,new_b,white,28,148,302,3,6.35806380003,n,0.432759500109,2019_Dec_05_1512,59.999124076,ProdSingRedo,001,nc10,
,,,,29,0,29,0,,,,,,,,,,,,,,,,,,husband,silent,white,29,83,156,6,2.12607639981,r,1.44806029997,2019_Dec_05_1512,59.999124076,ProdSingRedo,001,nc10,
,,,,30,0,30,0,,,,,,,,,,,,,,,,,,clear,new_a,white,30,108,52,2,2.43458410003,f,0.88610220002,2019_Dec_05_1512,59.999124076,ProdSingRedo,001,nc10,
,,,,31,0,31,0,,,,,,,,,,,,,,,,,,force,new_c,white,31,179,131,3,2.634724,f,0.238328499952,2019_Dec_05_1512,59.999124076,ProdSingRedo,001,nc10,
,,,,32,0,32,0,,,,,,,,,,,,,,,,,,substance,new_c,white,32,171,313,5,2.27551099984,f,0.309294400038,2019_Dec_05_1512,59.999124076,ProdSingRedo,001,nc10,
,,,,33,0,33,0,,,,,,,,,,,,,,,,,,guard,silent,white,33,61,145,1,5.2963548,n,0.368929899996,2019_Dec_05_1512,59.999124076,ProdSingRedo,001,nc10,
,,,,34,0,34,0,,,,,,,,,,,,,,,,,,platform,sing,white,34,14,224,2,1.97899829992,n,0.429598700022,2019_Dec_05_1512,59.999124076,ProdSingRedo,001,nc10,
,,,,35,0,35,0,,,,,,,,,,,,,,,,,,tough,aloud,white,35,46,333,6,1.74865199998,r,2.31485259999,2019_Dec_05_1512,59.999124076,ProdSingRedo,001,nc10,
,,,,36,0,36,0,,,,,,,,,,,,,,,,,,impact,sing,white,36,20,157,4,2.59565140004,f,0.546816000016,2019_Dec_05_1512,59.999124076,ProdSingRedo,001,nc10,
,,,,37,0,37,0,,,,,,,,,,,,,,,,,,curve,new_c,white,37,178,82,5,2.59056639997,f,0.492626500083,2019_Dec_05_1512,59.999124076,ProdSingRedo,001,nc10,
,,,,38,0,38,0,,,,,,,,,,,,,,,,,,problem,aloud,white,38,57,238,2,5.3779306002,n,1.29336179979,2019_Dec_05_1512,59.999124076,ProdSingRedo,001,nc10,
,,,,39,0,39,0,,,,,,,,,,,,,,,,,,attack,new_b,white,39,121,13,1,1.69424350001,n,0.475690799998,2019_Dec_05_1512,59.999124076,ProdSingRedo,001,nc10,
,,,,40,0,40,0,,,,,,,,,,,,,,,,,,surprise,new_a,white,40,114,317,3,1.92039830005,n,0.862502200063,2019_Dec_05_1512,59.999124076,ProdSingRedo,001,nc10,
,,,,41,0,41,0,,,,,,,,,,,,,,,,,,object,aloud,white,41,48,204,5,13.2132358002,f,1.25231719995,2019_Dec_05_1512,59.999124076,ProdSingRedo,001,nc10,
,,,,42,0,42,0,,,,,,,,,,,,,,,,,,judge,new_c,white,42,167,166,2,2.89008529996,n,0.835388899781,2019_Dec_05_1512,59.999124076,ProdSingRedo,001,nc10,
,,,,43,0,43,0,,,,,,,,,,,,,,,,,,quantity,new_b,white,43,147,245,2,2.64442660008,f,1.21477909992,2019_Dec_05_1512,59.999124076,ProdSingRedo,001,nc10,
,,,,44,0,44,0,,,,,,,,,,,,,,,,,,disease,aloud,white,44,40,97,5,3.14135810011,f,0.995311999926,2019_Dec_05_1512,59.999124076,ProdSingRedo,001,nc10,
,,,,45,0,45,0,,,,,,,,,,,,,,,,,,hunger,aloud,white,45,34,155,2,2.25487010018,n,0.447020699969,2019_Dec_05_1512,59.999124076,ProdSingRedo,001,nc10,
,,,,46,0,46,0,,,,,,,,,,,,,,,,,,season,sing,white,46,8,277,1,9.47482819995,n,2.83168499987,2019_Dec_05_1512,59.999124076,ProdSingRedo,001,nc10,
,,,,47,0,47,0,,,,,,,,,,,,,,,,,,rapid,new_c,white,47,174,252,2,3.72608099994,n,0.37123379996,2019_Dec_05_1512,59.999124076,ProdSingRedo,001,nc10,
,,,,48,0,48,0,,,,,,,,,,,,,,,,,,addition,aloud,white,48,50,2,3,2.45255200006,f,0.234140800079,2019_Dec_05_1512,59.999124076,ProdSingRedo,001,nc10,
,,,,49,0,49,0,,,,,,,,,,,,,,,,,,write,aloud,white,49,59,358,6,2.32639960013,r,0.501531600021,2019_Dec_05_1512,59.999124076,ProdSingRedo,001,nc10,
,,,,50,0,50,0,,,,,,,,,,,,,,,,,,afternoon,new_b,white,50,126,3,2,4.8484482998,n,1.1966426,2019_Dec_05_1512,59.999124076,ProdSingRedo,001,nc10,
,,,,51,0,51,0,,,,,,,,,,,,,,,,,,grade,aloud,white,51,58,140,1,1.67697639996,n,0.281558600022,2019_Dec_05_1512,59.999124076,ProdSingRedo,001,nc10,
,,,,52,0,52,0,,,,,,,,,,,,,,,,,,cover,silent,white,52,80,77,3,5.4266915,f,5.36610709992,2019_Dec_05_1512,59.999124076,ProdSingRedo,001,nc10,
,,,,53,0,53,0,,,,,,,,,,,,,,,,,,atmosphere,new_c,white,53,170,12,1,2.40028539998,n,0.287612099899,2019_Dec_05_1512,59.999124076,ProdSingRedo,001,nc10,
,,,,54,0,54,0,,,,,,,,,,,,,,,,,,direction,new_a,white,54,102,94,1,8.77387270005,n,1.11448920006,2019_Dec_05_1512,59.999124076,ProdSingRedo,001,nc10,
,,,,55,0,55,0,,,,,,,,,,,,,,,,,,breath,sing,white,55,29,27,3,8.58798080008,f,0.296888899989,2019_Dec_05_1512,59.999124076,ProdSingRedo,001,nc10,
,,,,56,0,56,0,,,,,,,,,,,,,,,,,,beginning,new_a,white,56,118,19,2,1.81374859996,n,0.277502899989,2019_Dec_05_1512,59.999124076,ProdSingRedo,001,nc10,
,,,,57,0,57,0,,,,,,,,,,,,,,,,,,owner,aloud,white,57,52,208,2,2.42755979998,n,0.795751200058,2019_Dec_05_1512,59.999124076,ProdSingRedo,001,nc10,
,,,,58,0,58,0,,,,,,,,,,,,,,,,,,alert,new_a,white,58,110,6,5,3.5925417,f,0.218749900116,2019_Dec_05_1512,59.999124076,ProdSingRedo,001,nc10,
,,,,59,0,59,0,,,,,,,,,,,,,,,,,,weight,new_a,white,59,117,353,4,2.89362010011,f,0.25388199999,2019_Dec_05_1512,59.999124076,ProdSingRedo,001,nc10,
,,,,60,0,60,0,,,,,,,,,,,,,,,,,,space,silent,white,60,86,297,2,2.69540259987,n,2.63968209992,2019_Dec_05_1512,59.999124076,ProdSingRedo,001,nc10,
,,,,61,0,61,0,,,,,,,,,,,,,,,,,,clean,aloud,white,61,44,51,5,1.99507710012,f,0.275715600001,2019_Dec_05_1512,59.999124076,ProdSingRedo,001,nc10,
,,,,62,0,62,0,,,,,,,,,,,,,,,,,,interior,new_b,white,62,120,164,2,2.27689180011,n,1.49056389998,2019_Dec_05_1512,59.999124076,ProdSingRedo,001,nc10,
,,,,63,0,63,0,,,,,,,,,,,,,,,,,,gesture,silent,white,63,62,137,4,5.78854719992,f,0.62437500013,2019_Dec_05_1512,59.999124076,ProdSingRedo,001,nc10,
,,,,64,0,64,0,,,,,,,,,,,,,,,,,,hearing,silent,white,64,79,150,2,1.8450034,f,0.325906999875,2019_Dec_05_1512,59.999124076,ProdSingRedo,001,nc10,
,,,,65,0,65,0,,,,,,,,,,,,,,,,,,youth,sing,white,65,9,359,5,7.44221000001,f,0.365562600084,2019_Dec_05_1512,59.999124076,ProdSingRedo,001,nc10,
,,,,66,0,66,0,,,,,,,,,,,,,,,,,,height,new_a,white,66,113,152,2,3.06485690014,n,0.451956399949,2019_Dec_05_1512,59.999124076,ProdSingRedo,001,nc10,
,,,,67,0,67,0,,,,,,,,,,,,,,,,,,burden,new_c,white,67,164,36,3,1.94787969999,n,6.40248230007,2019_Dec_05_1512,59.999124076,ProdSingRedo,001,nc10,
,,,,68,0,68,0,,,,,,,,,,,,,,,,,,science,aloud,white,68,41,275,6,2.02978369989,r,1.76868580002,2019_Dec_05_1512,59.999124076,ProdSingRedo,001,nc10,
,,,,69,0,69,0,,,,,,,,,,,,,,,,,,comfort,silent,white,69,69,59,3,3.50740839983,f,0.831368600018,2019_Dec_05_1512,59.999124076,ProdSingRedo,001,nc10,
,,,,70,0,70,0,,,,,,,,,,,,,,,,,,treatment,new_c,white,70,173,339,3,2.15828149999,n,0.308647600003,2019_Dec_05_1512,59.999124076,ProdSingRedo,001,nc10,
,,,,71,0,71,0,,,,,,,,,,,,,,,,,,audience,new_c,white,71,162,14,4,8.8920661998,f,1.21403719997,2019_Dec_05_1512,59.999124076,ProdSingRedo,001,nc10,
,,,,72,0,72,0,,,,,,,,,,,,,,,,,,command,sing,white,72,5,60,4,9.52890189993,f,0.82981860009,2019_Dec_05_1512,59.999124076,ProdSingRedo,001,nc10,
,,,,73,0,73,0,,,,,,,,,,,,,,,,,,smooth,new_a,white,73,104,292,1,2.31248680013,n,0.217195400037,2019_Dec_05_1512,59.999124076,ProdSingRedo,001,nc10,
,,,,74,0,74,0,,,,,,,,,,,,,,,,,,broad,silent,white,74,72,31,2,6.36844640016,n,0.265748399775,2019_Dec_05_1512,59.999124076,ProdSingRedo,001,nc10,
,,,,75,0,75,0,,,,,,,,,,,,,,,,,,trail,aloud,white,75,37,336,5,2.45343889995,f,0.600868500071,2019_Dec_05_1512,59.999124076,ProdSingRedo,001,nc10,
,,,,76,0,76,0,,,,,,,,,,,,,,,,,,religion,aloud,white,76,39,258,5,2.71176909981,f,0.293171100086,2019_Dec_05_1512,59.999124076,ProdSingRedo,001,nc10,
,,,,77,0,77,0,,,,,,,,,,,,,,,,,,tennis,sing,white,77,19,323,4,2.84119169996,f,0.254227200057,2019_Dec_05_1512,59.999124076,ProdSingRedo,001,nc10,
,,,,78,0,78,0,,,,,,,,,,,,,,,,,,native,silent,white,78,81,199,5,3.36254070001,f,0.173046799842,2019_Dec_05_1512,59.999124076,ProdSingRedo,001,nc10,
,,,,79,0,79,0,,,,,,,,,,,,,,,,,,beauty,new_c,white,79,172,18,4,7.04728209996,f,0.529332499951,2019_Dec_05_1512,59.999124076,ProdSingRedo,001,nc10,
,,,,80,0,80,0,,,,,,,,,,,,,,,,,,detective,sing,white,80,7,92,5,2.28057019995,f,0.843067799928,2019_Dec_05_1512,59.999124076,ProdSingRedo,001,nc10,
,,,,81,0,81,0,,,,,,,,,,,,,,,,,,waste,new_a,white,81,111,350,4,3.18284259993,f,0.365892700152,2019_Dec_05_1512,59.999124076,ProdSingRedo,001,nc10,
,,,,82,0,82,0,,,,,,,,,,,,,,,,,,minute,new_b,white,82,146,192,1,2.29828860005,n,0.759498599917,2019_Dec_05_1512,59.999124076,ProdSingRedo,001,nc10,
,,,,83,0,83,0,,,,,,,,,,,,,,,,,,title,aloud,white,83,43,331,5,4.11362609989,f,0.187371500069,2019_Dec_05_1512,59.999124076,ProdSingRedo,001,nc10,
,,,,84,0,84,0,,,,,,,,,,,,,,,,,,second,new_b,white,84,138,278,3,2.0156731999,f,0.335601599887,2019_Dec_05_1512,59.999124076,ProdSingRedo,001,nc10,
,,,,85,0,85,0,,,,,,,,,,,,,,,,,,accident,new_c,white,85,151,0,4,2.9850298001,f,0.258500399999,2019_Dec_05_1512,59.999124076,ProdSingRedo,001,nc10,
,,,,86,0,86,0,,,,,,,,,,,,,,,,,,degree,aloud,white,86,55,89,4,2.29150790023,f,0.217284600018,2019_Dec_05_1512,59.999124076,ProdSingRedo,001,nc10,
,,,,87,0,87,0,,,,,,,,,,,,,,,,,,silence,new_b,white,87,133,288,6,14.5421840001,r,1.11713010003,2019_Dec_05_1512,59.999124076,ProdSingRedo,001,nc10,
,,,,88,0,88,0,,,,,,,,,,,,,,,,,,republic,new_b,white,88,128,260,2,4.65827280004,n,0.326296200044,2019_Dec_05_1512,59.999124076,ProdSingRedo,001,nc10,
,,,,89,0,89,0,,,,,,,,,,,,,,,,,,poetry,silent,white,89,66,225,5,1.59491929994,f,1.98091419996,2019_Dec_05_1512,59.999124076,ProdSingRedo,001,nc10,
,,,,90,0,90,0,,,,,,,,,,,,,,,,,,personnel,new_c,white,90,152,219,1,1.74120349996,n,0.252539099893,2019_Dec_05_1512,59.999124076,ProdSingRedo,001,nc10,
,,,,91,0,91,0,,,,,,,,,,,,,,,,,,error,new_c,white,91,166,117,5,1.59860130004,f,0.737802099902,2019_Dec_05_1512,59.999124076,ProdSingRedo,001,nc10,
,,,,92,0,92,0,,,,,,,,,,,,,,,,,,front,sing,white,92,11,134,4,2.67825390003,f,0.22262799996,2019_Dec_05_1512,59.999124076,ProdSingRedo,001,nc10,
,,,,93,0,93,0,,,,,,,,,,,,,,,,,,nation,new_a,white,93,103,198,1,1.6484205001,n,0.218988400185,2019_Dec_05_1512,59.999124076,ProdSingRedo,001,nc10,
,,,,94,0,94,0,,,,,,,,,,,,,,,,,,concern,silent,white,94,65,65,3,1.81243270007,n,3.36737120012,2019_Dec_05_1512,59.999124076,ProdSingRedo,001,nc10,
,,,,95,0,95,0,,,,,,,,,,,,,,,,,,throw,new_a,white,95,112,330,1,1.51839310001,n,0.751712099882,2019_Dec_05_1512,59.999124076,ProdSingRedo,001,nc10,
,,,,96,0,96,0,,,,,,,,,,,,,,,,,,stranger,silent,white,96,82,309,5,2.10293149995,f,0.0229432000779,2019_Dec_05_1512,59.999124076,ProdSingRedo,001,nc10,
,,,,97,0,97,0,,,,,,,,,,,,,,,,,,crowd,new_a,white,97,119,81,3,2.59285999998,n,0.649722000118,2019_Dec_05_1512,59.999124076,ProdSingRedo,001,nc10,
,,,,98,0,98,0,,,,,,,,,,,,,,,,,,recall,new_a,white,98,100,255,1,2.58128429996,n,0.207449299982,2019_Dec_05_1512,59.999124076,ProdSingRedo,001,nc10,
,,,,99,0,99,0,,,,,,,,,,,,,,,,,,department,new_a,white,99,116,90,1,1.61303210002,n,0.57918040012,2019_Dec_05_1512,59.999124076,ProdSingRedo,001,nc10,
,,,,100,0,100,0,,,,,,,,,,,,,,,,,,provision,new_a,white,100,109,243,2,4.75261120009,n,1.77909189998,2019_Dec_05_1512,59.999124076,ProdSingRedo,001,nc10,
,,,,101,0,101,0,,,,,,,,,,,,,,,,,,career,new_c,white,101,154,42,3,6.08507369994,n,0.93646649993,2019_Dec_05_1512,59.999124076,ProdSingRedo,001,nc10,
,,,,102,0,102,0,,,,,,,,,,,,,,,,,,candidate,new_a,white,102,90,39,3,2.70215080003,f,0.122201499995,2019_Dec_05_1512,59.999124076,ProdSingRedo,001,nc10,
,,,,103,0,103,0,,,,,,,,,,,,,,,,,,reach,new_a,white,103,95,253,2,1.92703069979,n,0.270438600099,2019_Dec_05_1512,59.999124076,ProdSingRedo,001,nc10,
,,,,104,0,104,0,,,,,,,,,,,,,,,,,,literature,aloud,white,104,53,173,6,5.98892450007,r,2.53568460001,2019_Dec_05_1512,59.999124076,ProdSingRedo,001,nc10,
,,,,105,0,105,0,,,,,,,,,,,,,,,,,,quiet,new_c,white,105,150,249,3,2.63903740002,f,0.897835300071,2019_Dec_05_1512,59.999124076,ProdSingRedo,001,nc10,
,,,,106,0,106,0,,,,,,,,,,,,,,,,,,measure,new_a,white,106,92,184,5,1.99693639996,f,1.09871469997,2019_Dec_05_1512,59.999124076,ProdSingRedo,001,nc10,
,,,,107,0,107,0,,,,,,,,,,,,,,,,,,property,new_b,white,107,145,242,2,1.82748840004,n,0.165808299789,2019_Dec_05_1512,59.999124076,ProdSingRedo,001,nc10,
,,,,108,0,108,0,,,,,,,,,,,,,,,,,,salary,sing,white,108,27,271,6,1.61093370011,f,0.204286700115,2019_Dec_05_1512,59.999124076,ProdSingRedo,001,nc10,
,,,,109,0,109,0,,,,,,,,,,,,,,,,,,research,new_b,white,109,144,261,3,4.90202079993,n,0.693771099905,2019_Dec_05_1512,59.999124076,ProdSingRedo,001,nc10,
,,,,110,0,110,0,,,,,,,,,,,,,,,,,,character,new_b,white,110,135,46,2,2.54823750001,n,0.681031599874,2019_Dec_05_1512,59.999124076,ProdSingRedo,001,nc10,
,,,,111,0,111,0,,,,,,,,,,,,,,,,,,prime,new_b,white,111,149,235,2,2.56729859998,n,0.275719299912,2019_Dec_05_1512,59.999124076,ProdSingRedo,001,nc10,
,,,,112,0,112,0,,,,,,,,,,,,,,,,,,power,aloud,white,112,35,230,3,8.20959619991,n,1.09585650009,2019_Dec_05_1512,59.999124076,ProdSingRedo,001,nc10,
,,,,113,0,113,0,,,,,,,,,,,,,,,,,,minor,new_a,white,113,99,191,2,1.2799087998,n,0.279146500165,2019_Dec_05_1512,59.999124076,ProdSingRedo,001,nc10,
,,,,114,0,114,0,,,,,,,,,,,,,,,,,,close,new_a,white,114,94,53,2,2.04822489992,n,0.271017699968,2019_Dec_05_1512,59.999124076,ProdSingRedo,001,nc10,
,,,,115,0,115,0,,,,,,,,,,,,,,,,,,history,new_a,white,115,115,153,4,2.217558,f,0.6352607999,2019_Dec_05_1512,59.999124076,ProdSingRedo,001,nc10,
,,,,116,0,116,0,,,,,,,,,,,,,,,,,,harmony,new_c,white,116,158,148,1,1.30325260013,n,0.171535700094,2019_Dec_05_1512,59.999124076,ProdSingRedo,001,nc10,
,,,,117,0,117,0,,,,,,,,,,,,,,,,,,appearance,new_b,white,117,129,10,1,1.28095359984,n,0.243349700002,2019_Dec_05_1512,59.999124076,ProdSingRedo,001,nc10,
,,,,118,0,118,0,,,,,,,,,,,,,,,,,,century,aloud,white,118,49,45,5,2.17219710001,f,0.12633969984,2019_Dec_05_1512,59.999124076,ProdSingRedo,001,nc10,
,,,,119,0,119,0,,,,,,,,,,,,,,,,,,comedy,sing,white,119,10,58,4,1.53640340012,f,0.164484699955,2019_Dec_05_1512,59.999124076,ProdSingRedo,001,nc10,
,,,,120,0,120,0,,,,,,,,,,,,,,,,,,center,new_c,white,120,159,44,1,1.1430732999,n,0.253145799972,2019_Dec_05_1512,59.999124076,ProdSingRedo,001,nc10,
,,,,121,0,121,0,,,,,,,,,,,,,,,,,,business,new_b,white,121,136,38,1,1.6662167001,n,0.797369599808,2019_Dec_05_1512,59.999124076,ProdSingRedo,001,nc10,
,,,,122,0,122,0,,,,,,,,,,,,,,,,,,column,aloud,white,122,47,57,2,1.42483839998,n,0.232113400009,2019_Dec_05_1512,59.999124076,ProdSingRedo,001,nc10,
,,,,123,0,123,0,,,,,,,,,,,,,,,,,,tragedy,aloud,white,123,31,335,4,1.73137689987,f,0.174803300062,2019_Dec_05_1512,59.999124076,ProdSingRedo,001,nc10,
,,,,124,0,124,0,,,,,,,,,,,,,,,,,,sunset,silent,white,124,71,315,1,1.27096769982,n,0.185377100017,2019_Dec_05_1512,59.999124076,ProdSingRedo,001,nc10,
,,,,125,0,125,0,,,,,,,,,,,,,,,,,,defeat,new_b,white,125,143,88,1,1.42125870008,n,0.0868667999748,2019_Dec_05_1512,59.999124076,ProdSingRedo,001,nc10,
,,,,126,0,126,0,,,,,,,,,,,,,,,,,,account,new_a,white,126,91,1,3,1.79957060004,n,0.428414199967,2019_Dec_05_1512,59.999124076,ProdSingRedo,001,nc10,
,,,,127,0,127,0,,,,,,,,,,,,,,,,,,point,silent,white,127,73,226,2,3.0069871,n,0.167019899935,2019_Dec_05_1512,59.999124076,ProdSingRedo,001,nc10,
,,,,128,0,128,0,,,,,,,,,,,,,,,,,,crime,aloud,white,128,51,78,2,2.02014459996,n,0.887888999889,2019_Dec_05_1512,59.999124076,ProdSingRedo,001,nc10,
,,,,129,0,129,0,,,,,,,,,,,,,,,,,,notice,new_a,white,129,107,201,1,5.83088709996,n,0.668698600028,2019_Dec_05_1512,59.999124076,ProdSingRedo,001,nc10,
,,,,130,0,130,0,,,,,,,,,,,,,,,,,,capital,aloud,white,130,54,40,5,6.17286270019,f,0.282556900056,2019_Dec_05_1512,59.999124076,ProdSingRedo,001,nc10,
,,,,131,0,131,0,,,,,,,,,,,,,,,,,,government,new_c,white,131,156,139,2,1.57027129992,n,0.263443699805,2019_Dec_05_1512,59.999124076,ProdSingRedo,001,nc10,
,,,,132,0,132,0,,,,,,,,,,,,,,,,,,member,sing,white,132,22,188,2,1.6306125999,n,0.569675999926,2019_Dec_05_1512,59.999124076,ProdSingRedo,001,nc10,
,,,,133,0,133,0,,,,,,,,,,,,,,,,,,touch,new_c,white,133,165,332,3,1.34965729993,f,0.23243730003,2019_Dec_05_1512,59.999124076,ProdSingRedo,001,nc10,
,,,,134,0,134,0,,,,,,,,,,,,,,,,,,match,new_b,white,134,134,181,2,2.69252169994,f,0.100305499975,2019_Dec_05_1512,59.999124076,ProdSingRedo,001,nc10,
,,,,135,0,135,0,,,,,,,,,,,,,,,,,,debate,sing,white,135,12,87,4,1.95786610013,f,0.333052499918,2019_Dec_05_1512,59.999124076,ProdSingRedo,001,nc10,
,,,,136,0,136,0,,,,,,,,,,,,,,,,,,display,new_b,white,136,141,98,1,9.02983620018,n,0.268185900059,2019_Dec_05_1512,59.999124076,ProdSingRedo,001,nc10,
,,,,137,0,137,0,,,,,,,,,,,,,,,,,,quarter,new_b,white,137,130,246,1,1.14168570004,n,0.15077539999,2019_Dec_05_1512,59.999124076,ProdSingRedo,001,nc10,
,,,,138,0,138,0,,,,,,,,,,,,,,,,,,nature,silent,white,138,63,200,1,2.32791560004,n,0.070098800119,2019_Dec_05_1512,59.999124076,ProdSingRedo,001,nc10,
,,,,139,0,139,0,,,,,,,,,,,,,,,,,,thing,aloud,white,139,45,328,2,1.88155960012,n,0.0992406001315,2019_Dec_05_1512,59.999124076,ProdSingRedo,001,nc10,
,,,,140,0,140,0,,,,,,,,,,,,,,,,,,suspect,sing,white,140,23,318,5,1.73304339987,f,0.395059699891,2019_Dec_05_1512,59.999124076,ProdSingRedo,001,nc10,
,,,,141,0,141,0,,,,,,,,,,,,,,,,,,trial,new_b,white,141,139,341,5,1.45057039987,f,0.201491900021,2019_Dec_05_1512,59.999124076,ProdSingRedo,001,nc10,
,,,,142,0,142,0,,,,,,,,,,,,,,,,,,conference,new_c,white,142,177,66,3,4.04035899998,f,0.114264100092,2019_Dec_05_1512,59.999124076,ProdSingRedo,001,nc10,
,,,,143,0,143,0,,,,,,,,,,,,,,,,,,contract,silent,white,143,88,68,2,1.22052279999,f,0.125671999995,2019_Dec_05_1512,59.999124076,ProdSingRedo,001,nc10,
,,,,144,0,144,0,,,,,,,,,,,,,,,,,,running,new_b,white,144,131,268,1,1.41727650003,n,0.196059199981,2019_Dec_05_1512,59.999124076,ProdSingRedo,001,nc10,
,,,,145,0,145,0,,,,,,,,,,,,,,,,,,drove,new_c,white,145,163,106,1,1.14954179991,n,0.155376299983,2019_Dec_05_1512,59.999124076,ProdSingRedo,001,nc10,
,,,,146,0,146,0,,,,,,,,,,,,,,,,,,marriage,silent,white,146,64,179,1,1.18830320006,n,0.491585300071,2019_Dec_05_1512,59.999124076,ProdSingRedo,001,nc10,
,,,,147,0,147,0,,,,,,,,,,,,,,,,,,fight,silent,white,147,77,127,2,1.21116709989,n,0.165355999954,2019_Dec_05_1512,59.999124076,ProdSingRedo,001,nc10,
,,,,148,0,148,0,,,,,,,,,,,,,,,,,,budget,new_c,white,148,168,34,2,2.26211439981,n,0.233931399882,2019_Dec_05_1512,59.999124076,ProdSingRedo,001,nc10,
,,,,149,0,149,0,,,,,,,,,,,,,,,,,,background,aloud,white,149,32,16,4,3.21258509997,f,0.361873700051,2019_Dec_05_1512,59.999124076,ProdSingRedo,001,nc10,
,,,,150,0,150,0,,,,,,,,,,,,,,,,,,people,new_c,white,150,155,216,1,2.61688139988,n,0.543564500054,2019_Dec_05_1512,59.999124076,ProdSingRedo,001,nc10,
,,,,151,0,151,0,,,,,,,,,,,,,,,,,,search,sing,white,151,0,276,3,1.83333449997,f,0.766430499963,2019_Dec_05_1512,59.999124076,ProdSingRedo,001,nc10,
,,,,152,0,152,0,,,,,,,,,,,,,,,,,,dozen,sing,white,152,4,102,4,1.89213380008,f,0.155674400041,2019_Dec_05_1512,59.999124076,ProdSingRedo,001,nc10,
,,,,153,0,153,0,,,,,,,,,,,,,,,,,,drink,silent,white,153,67,105,5,1.72140939999,f,0.364695800003,2019_Dec_05_1512,59.999124076,ProdSingRedo,001,nc10,
,,,,154,0,154,0,,,,,,,,,,,,,,,,,,group,silent,white,154,84,143,3,1.46028569993,f,0.211799100041,2019_Dec_05_1512,59.999124076,ProdSingRedo,001,nc10,
,,,,155,0,155,0,,,,,,,,,,,,,,,,,,material,silent,white,155,89,182,1,1.30944269989,n,0.143909699982,2019_Dec_05_1512,59.999124076,ProdSingRedo,001,nc10,
,,,,156,0,156,0,,,,,,,,,,,,,,,,,,mankind,silent,white,156,75,178,2,1.74603069993,n,0.280099200085,2019_Dec_05_1512,59.999124076,ProdSingRedo,001,nc10,
,,,,157,0,157,0,,,,,,,,,,,,,,,,,,union,new_a,white,157,97,344,2,1.80215810006,n,0.23739210004,2019_Dec_05_1512,59.999124076,ProdSingRedo,001,nc10,
,,,,158,0,158,0,,,,,,,,,,,,,,,,,,order,sing,white,158,26,207,4,1.69208419998,f,0.133837000001,2019_Dec_05_1512,59.999124076,ProdSingRedo,001,nc10,
,,,,159,0,159,0,,,,,,,,,,,,,,,,,,reading,new_b,white,159,123,254,1,2.34003209998,n,0.188968299888,2019_Dec_05_1512,59.999124076,ProdSingRedo,001,nc10,
,,,,160,0,160,0,,,,,,,,,,,,,,,,,,dispute,new_a,white,160,106,99,1,1.31407109997,n,0.197002000175,2019_Dec_05_1512,59.999124076,ProdSingRedo,001,nc10,
,,,,161,0,161,0,,,,,,,,,,,,,,,,,,bicycle,sing,white,161,17,21,6,1.74886779999,r,0.912317099981,2019_Dec_05_1512,59.999124076,ProdSingRedo,001,nc10,
,,,,162,0,162,0,,,,,,,,,,,,,,,,,,crisis,silent,white,162,85,79,4,3.74935319996,n,0.218803199939,2019_Dec_05_1512,59.999124076,ProdSingRedo,001,nc10,
,,,,163,0,163,0,,,,,,,,,,,,,,,,,,trash,new_c,white,163,160,337,2,3.4738866,n,0.251266999869,2019_Dec_05_1512,59.999124076,ProdSingRedo,001,nc10,
,,,,164,0,164,0,,,,,,,,,,,,,,,,,,period,silent,white,164,60,217,4,1.56663849996,f,0.0521548998076,2019_Dec_05_1512,59.999124076,ProdSingRedo,001,nc10,
,,,,165,0,165,0,,,,,,,,,,,,,,,,,,drama,new_c,white,165,157,103,1,1.27611009986,n,1.33543329989,2019_Dec_05_1512,59.999124076,ProdSingRedo,001,nc10,
,,,,166,0,166,0,,,,,,,,,,,,,,,,,,employment,new_b,white,166,124,111,4,3.04061639984,f,0.428388,2019_Dec_05_1512,59.999124076,ProdSingRedo,001,nc10,
,,,,167,0,167,0,,,,,,,,,,,,,,,,,,finance,sing,white,167,13,129,2,1.47383200005,n,0.228604400065,2019_Dec_05_1512,59.999124076,ProdSingRedo,001,nc10,
,,,,168,0,168,0,,,,,,,,,,,,,,,,,,shear,new_b,white,168,137,283,2,1.92914190004,n,0.314751900034,2019_Dec_05_1512,59.999124076,ProdSingRedo,001,nc10,
,,,,169,0,169,0,,,,,,,,,,,,,,,,,,commercial,sing,white,169,28,61,1,2.86349359993,r,7.82261619996,2019_Dec_05_1512,59.999124076,ProdSingRedo,001,nc10,
,,,,170,0,170,0,,,,,,,,,,,,,,,,,,watch,new_b,white,170,140,351,2,7.43176249997,n,1.48263929994,2019_Dec_05_1512,59.999124076,ProdSingRedo,001,nc10,
,,,,171,0,171,0,,,,,,,,,,,,,,,,,,voice,sing,white,171,15,348,2,3.05311400001,n,0.314795099897,2019_Dec_05_1512,59.999124076,ProdSingRedo,001,nc10,
,,,,172,0,172,0,,,,,,,,,,,,,,,,,,profession,sing,white,172,21,241,4,1.92769279983,f,0.0926703999285,2019_Dec_05_1512,59.999124076,ProdSingRedo,001,nc10,
,,,,173,0,173,0,,,,,,,,,,,,,,,,,,edition,new_c,white,173,161,107,2,1.85309009999,n,0.23512550001,2019_Dec_05_1512,59.999124076,ProdSingRedo,001,nc10,
,,,,174,0,174,0,,,,,,,,,,,,,,,,,,novel,silent,white,174,74,202,5,2.61182320002,f,0.14929319988,2019_Dec_05_1512,59.999124076,ProdSingRedo,001,nc10,
,,,,175,0,175,0,,,,,,,,,,,,,,,,,,brilliant,new_c,white,175,169,30,1,1.23340109992,n,0.102557000006,2019_Dec_05_1512,59.999124076,ProdSingRedo,001,nc10,
,,,,176,0,176,0,,,,,,,,,,,,,,,,,,charter,sing,white,176,2,47,4,1.95991530013,f,0.140905099921,2019_Dec_05_1512,59.999124076,ProdSingRedo,001,nc10,
,,,,177,0,177,0,,,,,,,,,,,,,,,,,,turkey,new_c,white,177,176,342,1,1.38564840006,n,0.0973598000128,2019_Dec_05_1512,59.999124076,ProdSingRedo,001,nc10,
,,,,178,0,178,0,,,,,,,,,,,,,,,,,,split,new_a,white,178,93,299,2,2.08418560005,n,0.189804600086,2019_Dec_05_1512,59.999124076,ProdSingRedo,001,nc10,
,,,,179,0,179,0,,,,,,,,,,,,,,,,,,instrument,aloud,white,179,56,163,2,3.21931750001,n,0.263248299947,2019_Dec_05_1512,59.999124076,ProdSingRedo,001,nc10,
