StudyLoop.thisRepN,StudyLoop.thisTrialN,StudyLoop.thisN,StudyLoop.thisIndex,TestLoop.thisRepN,TestLoop.thisTrialN,TestLoop.thisN,TestLoop.thisIndex,keyCondition.keys,keyCondition.rt,Condition,stim_colors,color_sing,color_aloud,color_silent,keyWelcome.keys,keyWelcome.rt,study_word,study_type,study_color,study_num,study_word_num,keyStudy.keys,key_resp_3.keys,key_resp_3.rt,testWord,testType,testColor,testN,test_num,test_word_num,keyConf.keys,keyConf.rt,keyRKN.keys,keyRKN.rt,date,frameRate,expName,session,participant,
,,,,,,,,n,1.38207950001,,,,,,,,,,,,,,,,,,,,,,,,,,2019_Dec_05_1627,59.97422312,ProdSingRedo,001,nc12,
,,,,,,,,,,NeutralTest,"['red', 'yellow', 'blue']",red,yellow,blue,space,237.7724803,,,,,,,,,,,,,,,,,,,2019_Dec_05_1627,59.97422312,ProdSingRedo,001,nc12,
0,0,0,0,,,,,,,,,,,,,,patient,silent,blue,82,213,None,,,,,,,,,,,,,2019_Dec_05_1627,59.97422312,ProdSingRedo,001,nc12,
1,0,1,0,,,,,,,,,,,,,,under,silent,blue,73,343,None,,,,,,,,,,,,,2019_Dec_05_1627,59.97422312,ProdSingRedo,001,nc12,
2,0,2,0,,,,,,,,,,,,,,column,sing,red,15,57,None,,,,,,,,,,,,,2019_Dec_05_1627,59.97422312,ProdSingRedo,001,nc12,
3,0,3,0,,,,,,,,,,,,,,benefit,silent,blue,72,20,None,,,,,,,,,,,,,2019_Dec_05_1627,59.97422312,ProdSingRedo,001,nc12,
4,0,4,0,,,,,,,,,,,,,,empty,sing,red,4,112,None,,,,,,,,,,,,,2019_Dec_05_1627,59.97422312,ProdSingRedo,001,nc12,
5,0,5,0,,,,,,,,,,,,,,mayor,silent,blue,87,183,None,,,,,,,,,,,,,2019_Dec_05_1627,59.97422312,ProdSingRedo,001,nc12,
6,0,6,0,,,,,,,,,,,,,,raise,silent,blue,88,250,None,,,,,,,,,,,,,2019_Dec_05_1627,59.97422312,ProdSingRedo,001,nc12,
7,0,7,0,,,,,,,,,,,,,,trash,silent,blue,78,337,None,,,,,,,,,,,,,2019_Dec_05_1627,59.97422312,ProdSingRedo,001,nc12,
8,0,8,0,,,,,,,,,,,,,,stand,sing,red,23,302,None,,,,,,,,,,,,,2019_Dec_05_1627,59.97422312,ProdSingRedo,001,nc12,
9,0,9,0,,,,,,,,,,,,,,message,silent,blue,64,189,None,,,,,,,,,,,,,2019_Dec_05_1627,59.97422312,ProdSingRedo,001,nc12,
10,0,10,0,,,,,,,,,,,,,,heavy,aloud,yellow,33,151,None,,,,,,,,,,,,,2019_Dec_05_1627,59.97422312,ProdSingRedo,001,nc12,
11,0,11,0,,,,,,,,,,,,,,speech,sing,red,24,298,None,,,,,,,,,,,,,2019_Dec_05_1627,59.97422312,ProdSingRedo,001,nc12,
12,0,12,0,,,,,,,,,,,,,,century,silent,blue,71,45,None,,,,,,,,,,,,,2019_Dec_05_1627,59.97422312,ProdSingRedo,001,nc12,
13,0,13,0,,,,,,,,,,,,,,vision,aloud,yellow,35,347,None,,,,,,,,,,,,,2019_Dec_05_1627,59.97422312,ProdSingRedo,001,nc12,
14,0,14,0,,,,,,,,,,,,,,trail,sing,red,5,336,None,,,,,,,,,,,,,2019_Dec_05_1627,59.97422312,ProdSingRedo,001,nc12,
15,0,15,0,,,,,,,,,,,,,,business,aloud,yellow,47,38,None,,,,,,,,,,,,,2019_Dec_05_1627,59.97422312,ProdSingRedo,001,nc12,
16,0,16,0,,,,,,,,,,,,,,education,aloud,yellow,36,108,None,,,,,,,,,,,,,2019_Dec_05_1627,59.97422312,ProdSingRedo,001,nc12,
17,0,17,0,,,,,,,,,,,,,,dream,sing,red,17,104,None,,,,,,,,,,,,,2019_Dec_05_1627,59.97422312,ProdSingRedo,001,nc12,
18,0,18,0,,,,,,,,,,,,,,principal,sing,red,28,236,None,,,,,,,,,,,,,2019_Dec_05_1627,59.97422312,ProdSingRedo,001,nc12,
19,0,19,0,,,,,,,,,,,,,,tennis,aloud,yellow,56,323,None,,,,,,,,,,,,,2019_Dec_05_1627,59.97422312,ProdSingRedo,001,nc12,
20,0,20,0,,,,,,,,,,,,,,congress,sing,red,10,67,None,,,,,,,,,,,,,2019_Dec_05_1627,59.97422312,ProdSingRedo,001,nc12,
21,0,21,0,,,,,,,,,,,,,,orchestra,silent,blue,61,206,None,,,,,,,,,,,,,2019_Dec_05_1627,59.97422312,ProdSingRedo,001,nc12,
22,0,22,0,,,,,,,,,,,,,,curve,silent,blue,81,82,None,,,,,,,,,,,,,2019_Dec_05_1627,59.97422312,ProdSingRedo,001,nc12,
23,0,23,0,,,,,,,,,,,,,,victory,aloud,yellow,32,346,None,,,,,,,,,,,,,2019_Dec_05_1627,59.97422312,ProdSingRedo,001,nc12,
24,0,24,0,,,,,,,,,,,,,,grade,aloud,yellow,37,140,None,,,,,,,,,,,,,2019_Dec_05_1627,59.97422312,ProdSingRedo,001,nc12,
25,0,25,0,,,,,,,,,,,,,,instrument,sing,red,0,163,None,,,,,,,,,,,,,2019_Dec_05_1627,59.97422312,ProdSingRedo,001,nc12,
26,0,26,0,,,,,,,,,,,,,,thing,sing,red,25,328,None,,,,,,,,,,,,,2019_Dec_05_1627,59.97422312,ProdSingRedo,001,nc12,
27,0,27,0,,,,,,,,,,,,,,produce,aloud,yellow,44,239,None,,,,,,,,,,,,,2019_Dec_05_1627,59.97422312,ProdSingRedo,001,nc12,
28,0,28,0,,,,,,,,,,,,,,evidence,sing,red,22,120,None,,,,,,,,,,,,,2019_Dec_05_1627,59.97422312,ProdSingRedo,001,nc12,
29,0,29,0,,,,,,,,,,,,,,sleep,sing,red,21,290,None,,,,,,,,,,,,,2019_Dec_05_1627,59.97422312,ProdSingRedo,001,nc12,
30,0,30,0,,,,,,,,,,,,,,partner,silent,blue,77,211,None,,,,,,,,,,,,,2019_Dec_05_1627,59.97422312,ProdSingRedo,001,nc12,
31,0,31,0,,,,,,,,,,,,,,portion,aloud,yellow,38,228,None,,,,,,,,,,,,,2019_Dec_05_1627,59.97422312,ProdSingRedo,001,nc12,
32,0,32,0,,,,,,,,,,,,,,executive,silent,blue,84,122,None,,,,,,,,,,,,,2019_Dec_05_1627,59.97422312,ProdSingRedo,001,nc12,
33,0,33,0,,,,,,,,,,,,,,notice,silent,blue,75,201,None,,,,,,,,,,,,,2019_Dec_05_1627,59.97422312,ProdSingRedo,001,nc12,
34,0,34,0,,,,,,,,,,,,,,number,aloud,yellow,51,203,None,,,,,,,,,,,,,2019_Dec_05_1627,59.97422312,ProdSingRedo,001,nc12,
35,0,35,0,,,,,,,,,,,,,,error,aloud,yellow,58,117,None,,,,,,,,,,,,,2019_Dec_05_1627,59.97422312,ProdSingRedo,001,nc12,
36,0,36,0,,,,,,,,,,,,,,concern,sing,red,6,65,None,,,,,,,,,,,,,2019_Dec_05_1627,59.97422312,ProdSingRedo,001,nc12,
37,0,37,0,,,,,,,,,,,,,,store,aloud,yellow,50,305,None,,,,,,,,,,,,,2019_Dec_05_1627,59.97422312,ProdSingRedo,001,nc12,
38,0,38,0,,,,,,,,,,,,,,primary,sing,red,16,234,None,,,,,,,,,,,,,2019_Dec_05_1627,59.97422312,ProdSingRedo,001,nc12,
39,0,39,0,,,,,,,,,,,,,,substance,sing,red,29,313,None,,,,,,,,,,,,,2019_Dec_05_1627,59.97422312,ProdSingRedo,001,nc12,
40,0,40,0,,,,,,,,,,,,,,appeal,aloud,yellow,49,9,None,,,,,,,,,,,,,2019_Dec_05_1627,59.97422312,ProdSingRedo,001,nc12,
41,0,41,0,,,,,,,,,,,,,,ground,sing,red,26,142,None,,,,,,,,,,,,,2019_Dec_05_1627,59.97422312,ProdSingRedo,001,nc12,
42,0,42,0,,,,,,,,,,,,,,music,sing,red,13,196,None,,,,,,,,,,,,,2019_Dec_05_1627,59.97422312,ProdSingRedo,001,nc12,
43,0,43,0,,,,,,,,,,,,,,conference,silent,blue,74,66,None,,,,,,,,,,,,,2019_Dec_05_1627,59.97422312,ProdSingRedo,001,nc12,
44,0,44,0,,,,,,,,,,,,,,pattern,silent,blue,86,214,None,,,,,,,,,,,,,2019_Dec_05_1627,59.97422312,ProdSingRedo,001,nc12,
45,0,45,0,,,,,,,,,,,,,,relation,silent,blue,65,257,None,,,,,,,,,,,,,2019_Dec_05_1627,59.97422312,ProdSingRedo,001,nc12,
46,0,46,0,,,,,,,,,,,,,,interview,sing,red,12,165,None,,,,,,,,,,,,,2019_Dec_05_1627,59.97422312,ProdSingRedo,001,nc12,
47,0,47,0,,,,,,,,,,,,,,cover,sing,red,9,77,None,,,,,,,,,,,,,2019_Dec_05_1627,59.97422312,ProdSingRedo,001,nc12,
48,0,48,0,,,,,,,,,,,,,,route,aloud,yellow,45,267,None,,,,,,,,,,,,,2019_Dec_05_1627,59.97422312,ProdSingRedo,001,nc12,
49,0,49,0,,,,,,,,,,,,,,author,aloud,yellow,40,15,None,,,,,,,,,,,,,2019_Dec_05_1627,59.97422312,ProdSingRedo,001,nc12,
50,0,50,0,,,,,,,,,,,,,,broke,silent,blue,60,32,None,,,,,,,,,,,,,2019_Dec_05_1627,59.97422312,ProdSingRedo,001,nc12,
51,0,51,0,,,,,,,,,,,,,,region,sing,red,11,256,None,,,,,,,,,,,,,2019_Dec_05_1627,59.97422312,ProdSingRedo,001,nc12,
52,0,52,0,,,,,,,,,,,,,,testimony,aloud,yellow,34,325,None,,,,,,,,,,,,,2019_Dec_05_1627,59.97422312,ProdSingRedo,001,nc12,
53,0,53,0,,,,,,,,,,,,,,angle,sing,red,19,7,None,,,,,,,,,,,,,2019_Dec_05_1627,59.97422312,ProdSingRedo,001,nc12,
54,0,54,0,,,,,,,,,,,,,,division,aloud,yellow,43,101,None,,,,,,,,,,,,,2019_Dec_05_1627,59.97422312,ProdSingRedo,001,nc12,
55,0,55,0,,,,,,,,,,,,,,damage,aloud,yellow,53,83,None,,,,,,,,,,,,,2019_Dec_05_1627,59.97422312,ProdSingRedo,001,nc12,
56,0,56,0,,,,,,,,,,,,,,passage,sing,red,7,212,None,,,,,,,,,,,,,2019_Dec_05_1627,59.97422312,ProdSingRedo,001,nc12,
57,0,57,0,,,,,,,,,,,,,,dispute,silent,blue,66,99,None,,,,,,,,,,,,,2019_Dec_05_1627,59.97422312,ProdSingRedo,001,nc12,
58,0,58,0,,,,,,,,,,,,,,short,aloud,yellow,46,285,None,,,,,,,,,,,,,2019_Dec_05_1627,59.97422312,ProdSingRedo,001,nc12,
59,0,59,0,,,,,,,,,,,,,,throw,sing,red,20,330,None,,,,,,,,,,,,,2019_Dec_05_1627,59.97422312,ProdSingRedo,001,nc12,
60,0,60,0,,,,,,,,,,,,,,shock,silent,blue,70,284,None,,,,,,,,,,,,,2019_Dec_05_1627,59.97422312,ProdSingRedo,001,nc12,
61,0,61,0,,,,,,,,,,,,,,discovery,silent,blue,69,95,None,,,,,,,,,,,,,2019_Dec_05_1627,59.97422312,ProdSingRedo,001,nc12,
62,0,62,0,,,,,,,,,,,,,,question,silent,blue,80,247,None,,,,,,,,,,,,,2019_Dec_05_1627,59.97422312,ProdSingRedo,001,nc12,
63,0,63,0,,,,,,,,,,,,,,quarter,aloud,yellow,48,246,None,,,,,,,,,,,,,2019_Dec_05_1627,59.97422312,ProdSingRedo,001,nc12,
64,0,64,0,,,,,,,,,,,,,,length,aloud,yellow,55,169,None,,,,,,,,,,,,,2019_Dec_05_1627,59.97422312,ProdSingRedo,001,nc12,
65,0,65,0,,,,,,,,,,,,,,detective,sing,red,3,92,None,,,,,,,,,,,,,2019_Dec_05_1627,59.97422312,ProdSingRedo,001,nc12,
66,0,66,0,,,,,,,,,,,,,,exchange,silent,blue,63,121,None,,,,,,,,,,,,,2019_Dec_05_1627,59.97422312,ProdSingRedo,001,nc12,
67,0,67,0,,,,,,,,,,,,,,theme,sing,red,14,326,None,,,,,,,,,,,,,2019_Dec_05_1627,59.97422312,ProdSingRedo,001,nc12,
68,0,68,0,,,,,,,,,,,,,,watch,silent,blue,76,351,None,,,,,,,,,,,,,2019_Dec_05_1627,59.97422312,ProdSingRedo,001,nc12,
69,0,69,0,,,,,,,,,,,,,,scene,aloud,yellow,39,273,None,,,,,,,,,,,,,2019_Dec_05_1627,59.97422312,ProdSingRedo,001,nc12,
70,0,70,0,,,,,,,,,,,,,,tough,silent,blue,85,333,None,,,,,,,,,,,,,2019_Dec_05_1627,59.97422312,ProdSingRedo,001,nc12,
71,0,71,0,,,,,,,,,,,,,,build,silent,blue,79,35,None,,,,,,,,,,,,,2019_Dec_05_1627,59.97422312,ProdSingRedo,001,nc12,
72,0,72,0,,,,,,,,,,,,,,salary,aloud,yellow,41,271,None,,,,,,,,,,,,,2019_Dec_05_1627,59.97422312,ProdSingRedo,001,nc12,
73,0,73,0,,,,,,,,,,,,,,match,silent,blue,89,181,None,,,,,,,,,,,,,2019_Dec_05_1627,59.97422312,ProdSingRedo,001,nc12,
74,0,74,0,,,,,,,,,,,,,,alert,sing,red,1,6,None,,,,,,,,,,,,,2019_Dec_05_1627,59.97422312,ProdSingRedo,001,nc12,
75,0,75,0,,,,,,,,,,,,,,measure,aloud,yellow,59,184,None,,,,,,,,,,,,,2019_Dec_05_1627,59.97422312,ProdSingRedo,001,nc12,
76,0,76,0,,,,,,,,,,,,,,silence,silent,blue,67,288,None,,,,,,,,,,,,,2019_Dec_05_1627,59.97422312,ProdSingRedo,001,nc12,
77,0,77,0,,,,,,,,,,,,,,committee,aloud,yellow,57,62,None,,,,,,,,,,,,,2019_Dec_05_1627,59.97422312,ProdSingRedo,001,nc12,
78,0,78,0,,,,,,,,,,,,,,majority,aloud,yellow,54,176,None,,,,,,,,,,,,,2019_Dec_05_1627,59.97422312,ProdSingRedo,001,nc12,
79,0,79,0,,,,,,,,,,,,,,title,aloud,yellow,52,331,None,,,,,,,,,,,,,2019_Dec_05_1627,59.97422312,ProdSingRedo,001,nc12,
80,0,80,0,,,,,,,,,,,,,,management,aloud,yellow,31,177,None,,,,,,,,,,,,,2019_Dec_05_1627,59.97422312,ProdSingRedo,001,nc12,
81,0,81,0,,,,,,,,,,,,,,skill,sing,red,2,289,None,,,,,,,,,,,,,2019_Dec_05_1627,59.97422312,ProdSingRedo,001,nc12,
82,0,82,0,,,,,,,,,,,,,,travel,aloud,yellow,30,338,None,,,,,,,,,,,,,2019_Dec_05_1627,59.97422312,ProdSingRedo,001,nc12,
83,0,83,0,,,,,,,,,,,,,,captain,silent,blue,68,41,None,,,,,,,,,,,,,2019_Dec_05_1627,59.97422312,ProdSingRedo,001,nc12,
84,0,84,0,,,,,,,,,,,,,,write,silent,blue,62,358,None,,,,,,,,,,,,,2019_Dec_05_1627,59.97422312,ProdSingRedo,001,nc12,
85,0,85,0,,,,,,,,,,,,,,front,silent,blue,83,134,None,,,,,,,,,,,,,2019_Dec_05_1627,59.97422312,ProdSingRedo,001,nc12,
86,0,86,0,,,,,,,,,,,,,,threat,sing,red,18,329,None,,,,,,,,,,,,,2019_Dec_05_1627,59.97422312,ProdSingRedo,001,nc12,
87,0,87,0,,,,,,,,,,,,,,series,sing,red,8,279,None,,,,,,,,,,,,,2019_Dec_05_1627,59.97422312,ProdSingRedo,001,nc12,
88,0,88,0,,,,,,,,,,,,,,budget,aloud,yellow,42,34,None,,,,,,,,,,,,,2019_Dec_05_1627,59.97422312,ProdSingRedo,001,nc12,
89,0,89,0,,,,,,,,,,,,,,member,sing,red,27,188,None,,,,,,,,,,,,,2019_Dec_05_1627,59.97422312,ProdSingRedo,001,nc12,
,,,,,,,,,,,,,,,,,,,,,,,k,56.9705789001,,,,,,,,,,,2019_Dec_05_1627,59.97422312,ProdSingRedo,001,nc12,
,,,,0,0,0,0,,,,,,,,,,,,,,,,,,election,new_a,white,0,113,109,6,5.90111389989,r,4.64118150016,2019_Dec_05_1627,59.97422312,ProdSingRedo,001,nc12,
,,,,1,0,1,0,,,,,,,,,,,,,,,,,,question,silent,white,1,80,247,6,6.00863009994,f,1.54474509996,2019_Dec_05_1627,59.97422312,ProdSingRedo,001,nc12,
,,,,2,0,2,0,,,,,,,,,,,,,,,,,,rural,new_b,white,2,124,269,1,2.03671899997,n,1.29425750021,2019_Dec_05_1627,59.97422312,ProdSingRedo,001,nc12,
,,,,3,0,3,0,,,,,,,,,,,,,,,,,,light,new_a,white,3,97,171,6,2.72342479997,r,1.05144369998,2019_Dec_05_1627,59.97422312,ProdSingRedo,001,nc12,
,,,,4,0,4,0,,,,,,,,,,,,,,,,,,relation,silent,white,4,65,257,1,2.19457040005,n,1.59627009998,2019_Dec_05_1627,59.97422312,ProdSingRedo,001,nc12,
,,,,5,0,5,0,,,,,,,,,,,,,,,,,,debate,new_c,white,5,167,87,6,2.26299489988,f,0.967232599854,2019_Dec_05_1627,59.97422312,ProdSingRedo,001,nc12,
,,,,6,0,6,0,,,,,,,,,,,,,,,,,,scene,aloud,white,6,39,273,6,1.8521718001,f,1.4033168999,2019_Dec_05_1627,59.97422312,ProdSingRedo,001,nc12,
,,,,7,0,7,0,,,,,,,,,,,,,,,,,,appeal,aloud,white,7,49,9,1,1.59390980005,n,1.10214009997,2019_Dec_05_1627,59.97422312,ProdSingRedo,001,nc12,
,,,,8,0,8,0,,,,,,,,,,,,,,,,,,character,new_b,white,8,128,46,4,3.62195189996,f,1.60905189998,2019_Dec_05_1627,59.97422312,ProdSingRedo,001,nc12,
,,,,9,0,9,0,,,,,,,,,,,,,,,,,,evidence,sing,white,9,22,120,6,3.19875950017,r,0.701412599999,2019_Dec_05_1627,59.97422312,ProdSingRedo,001,nc12,
,,,,10,0,10,0,,,,,,,,,,,,,,,,,,detective,sing,white,10,3,92,6,1.87777719996,r,0.682295999955,2019_Dec_05_1627,59.97422312,ProdSingRedo,001,nc12,
,,,,11,0,11,0,,,,,,,,,,,,,,,,,,mayor,silent,white,11,87,183,5,2.24359229999,f,0.801184699871,2019_Dec_05_1627,59.97422312,ProdSingRedo,001,nc12,
,,,,12,0,12,0,,,,,,,,,,,,,,,,,,listen,new_b,white,12,138,172,4,3.21103610005,f,0.13927870011,2019_Dec_05_1627,59.97422312,ProdSingRedo,001,nc12,
,,,,13,0,13,0,,,,,,,,,,,,,,,,,,course,new_a,white,13,117,74,3,4.97010239982,n,1.91614939994,2019_Dec_05_1627,59.97422312,ProdSingRedo,001,nc12,
,,,,14,0,14,0,,,,,,,,,,,,,,,,,,route,aloud,white,14,45,267,6,3.16436950001,r,0.101019000169,2019_Dec_05_1627,59.97422312,ProdSingRedo,001,nc12,
,,,,15,0,15,0,,,,,,,,,,,,,,,,,,budget,aloud,white,15,42,34,5,2.13457829994,f,0.767740800045,2019_Dec_05_1627,59.97422312,ProdSingRedo,001,nc12,
,,,,16,0,16,0,,,,,,,,,,,,,,,,,,worker,new_b,white,16,148,356,2,3.09616079996,n,1.00092069991,2019_Dec_05_1627,59.97422312,ProdSingRedo,001,nc12,
,,,,17,0,17,0,,,,,,,,,,,,,,,,,,track,new_c,white,17,166,334,2,2.62250629999,n,1.25061929994,2019_Dec_05_1627,59.97422312,ProdSingRedo,001,nc12,
,,,,18,0,18,0,,,,,,,,,,,,,,,,,,tennis,aloud,white,18,56,323,5,2.76207430009,f,0.585822399938,2019_Dec_05_1627,59.97422312,ProdSingRedo,001,nc12,
,,,,19,0,19,0,,,,,,,,,,,,,,,,,,measure,aloud,white,19,59,184,6,2.45415350003,r,0.661414599977,2019_Dec_05_1627,59.97422312,ProdSingRedo,001,nc12,
,,,,20,0,20,0,,,,,,,,,,,,,,,,,,grade,aloud,white,20,37,140,5,3.04413160007,f,0.6486362,2019_Dec_05_1627,59.97422312,ProdSingRedo,001,nc12,
,,,,21,0,21,0,,,,,,,,,,,,,,,,,,committee,aloud,white,21,57,62,5,5.07532859989,r,1.16177420015,2019_Dec_05_1627,59.97422312,ProdSingRedo,001,nc12,
,,,,22,0,22,0,,,,,,,,,,,,,,,,,,literature,new_c,white,22,164,173,1,1.18380929995,n,1.24532169988,2019_Dec_05_1627,59.97422312,ProdSingRedo,001,nc12,
,,,,23,0,23,0,,,,,,,,,,,,,,,,,,pattern,silent,white,23,86,214,1,1.27434080001,n,0.998487999896,2019_Dec_05_1627,59.97422312,ProdSingRedo,001,nc12,
,,,,24,0,24,0,,,,,,,,,,,,,,,,,,notice,silent,white,24,75,201,2,3.97675799998,n,0.00145859993063,2019_Dec_05_1627,59.97422312,ProdSingRedo,001,nc12,
,,,,25,0,25,0,,,,,,,,,,,,,,,,,,couch,new_a,white,25,114,70,2,3.39609010005,n,0.347513299901,2019_Dec_05_1627,59.97422312,ProdSingRedo,001,nc12,
,,,,26,0,26,0,,,,,,,,,,,,,,,,,,escape,new_b,white,26,127,118,2,2.57806100021,n,1.65665620007,2019_Dec_05_1627,59.97422312,ProdSingRedo,001,nc12,
,,,,27,0,27,0,,,,,,,,,,,,,,,,,,comedy,new_b,white,27,125,58,3,2.1938753,n,1.00379250012,2019_Dec_05_1627,59.97422312,ProdSingRedo,001,nc12,
,,,,28,0,28,0,,,,,,,,,,,,,,,,,,throw,sing,white,28,20,330,3,2.77444549999,f,0.36572510004,2019_Dec_05_1627,59.97422312,ProdSingRedo,001,nc12,
,,,,29,0,29,0,,,,,,,,,,,,,,,,,,finish,new_a,white,29,105,130,2,2.49687230005,n,0.68154749996,2019_Dec_05_1627,59.97422312,ProdSingRedo,001,nc12,
,,,,30,0,30,0,,,,,,,,,,,,,,,,,,exchange,silent,white,30,63,121,4,3.35484079993,f,1.39700659993,2019_Dec_05_1627,59.97422312,ProdSingRedo,001,nc12,
,,,,31,0,31,0,,,,,,,,,,,,,,,,,,staff,new_a,white,31,108,301,2,3.14225580008,n,0.000735600013286,2019_Dec_05_1627,59.97422312,ProdSingRedo,001,nc12,
,,,,32,0,32,0,,,,,,,,,,,,,,,,,,breath,new_b,white,32,140,27,2,1.04992230004,n,0.443922499893,2019_Dec_05_1627,59.97422312,ProdSingRedo,001,nc12,
,,,,33,0,33,0,,,,,,,,,,,,,,,,,,company,new_c,white,33,170,64,3,2.37215239997,f,0.878745999886,2019_Dec_05_1627,59.97422312,ProdSingRedo,001,nc12,
,,,,34,0,34,0,,,,,,,,,,,,,,,,,,sight,new_c,white,34,160,286,1,2.3259995,n,1.12069680006,2019_Dec_05_1627,59.97422312,ProdSingRedo,001,nc12,
,,,,35,0,35,0,,,,,,,,,,,,,,,,,,alert,sing,white,35,1,6,4,1.98380040005,f,0.131080500083,2019_Dec_05_1627,59.97422312,ProdSingRedo,001,nc12,
,,,,36,0,36,0,,,,,,,,,,,,,,,,,,store,aloud,white,36,50,305,2,2.19642330008,n,0.618738099933,2019_Dec_05_1627,59.97422312,ProdSingRedo,001,nc12,
,,,,37,0,37,0,,,,,,,,,,,,,,,,,,title,aloud,white,37,52,331,6,1.84884910006,f,1.78292050003,2019_Dec_05_1627,59.97422312,ProdSingRedo,001,nc12,
,,,,38,0,38,0,,,,,,,,,,,,,,,,,,heavy,aloud,white,38,33,151,4,2.02586030005,f,0.34797620005,2019_Dec_05_1627,59.97422312,ProdSingRedo,001,nc12,
,,,,39,0,39,0,,,,,,,,,,,,,,,,,,salary,aloud,white,39,41,271,6,4.76109250006,r,0.0154582001269,2019_Dec_05_1627,59.97422312,ProdSingRedo,001,nc12,
,,,,40,0,40,0,,,,,,,,,,,,,,,,,,break,new_c,white,40,155,26,3,2.19557589991,n,0.482600100106,2019_Dec_05_1627,59.97422312,ProdSingRedo,001,nc12,
,,,,41,0,41,0,,,,,,,,,,,,,,,,,,degree,new_b,white,41,146,89,2,1.77307470003,n,0.826664900174,2019_Dec_05_1627,59.97422312,ProdSingRedo,001,nc12,
,,,,42,0,42,0,,,,,,,,,,,,,,,,,,damage,aloud,white,42,53,83,6,2.32180210017,r,1.08191439998,2019_Dec_05_1627,59.97422312,ProdSingRedo,001,nc12,
,,,,43,0,43,0,,,,,,,,,,,,,,,,,,crime,new_c,white,43,163,78,6,2.21839210019,f,0.451527799945,2019_Dec_05_1627,59.97422312,ProdSingRedo,001,nc12,
,,,,44,0,44,0,,,,,,,,,,,,,,,,,,entrance,new_b,white,44,143,115,1,1.90527109988,n,0.825632099994,2019_Dec_05_1627,59.97422312,ProdSingRedo,001,nc12,
,,,,45,0,45,0,,,,,,,,,,,,,,,,,,empty,sing,white,45,4,112,4,1.94663340016,f,1.15365650016,2019_Dec_05_1627,59.97422312,ProdSingRedo,001,nc12,
,,,,46,0,46,0,,,,,,,,,,,,,,,,,,management,aloud,white,46,31,177,6,2.88051349996,f,1.97925970005,2019_Dec_05_1627,59.97422312,ProdSingRedo,001,nc12,
,,,,47,0,47,0,,,,,,,,,,,,,,,,,,trash,silent,white,47,78,337,3,1.84062960022,f,0.753270599991,2019_Dec_05_1627,59.97422312,ProdSingRedo,001,nc12,
,,,,48,0,48,0,,,,,,,,,,,,,,,,,,series,sing,white,48,8,279,6,2.31539270002,r,0.533690799959,2019_Dec_05_1627,59.97422312,ProdSingRedo,001,nc12,
,,,,49,0,49,0,,,,,,,,,,,,,,,,,,object,new_a,white,49,111,204,2,1.89415459987,n,1.02872569999,2019_Dec_05_1627,59.97422312,ProdSingRedo,001,nc12,
,,,,50,0,50,0,,,,,,,,,,,,,,,,,,victory,aloud,white,50,32,346,6,2.28442260018,r,0.468862199923,2019_Dec_05_1627,59.97422312,ProdSingRedo,001,nc12,
,,,,51,0,51,0,,,,,,,,,,,,,,,,,,welcome,new_b,white,51,132,354,2,1.52955909981,n,0.161403700011,2019_Dec_05_1627,59.97422312,ProdSingRedo,001,nc12,
,,,,52,0,52,0,,,,,,,,,,,,,,,,,,testimony,aloud,white,52,34,325,6,3.55683610006,f,0.912953400053,2019_Dec_05_1627,59.97422312,ProdSingRedo,001,nc12,
,,,,53,0,53,0,,,,,,,,,,,,,,,,,,silence,silent,white,53,67,288,2,3.36829110002,n,0.745927599957,2019_Dec_05_1627,59.97422312,ProdSingRedo,001,nc12,
,,,,54,0,54,0,,,,,,,,,,,,,,,,,,error,aloud,white,54,58,117,4,2.83451909991,f,1.03606369998,2019_Dec_05_1627,59.97422312,ProdSingRedo,001,nc12,
,,,,55,0,55,0,,,,,,,,,,,,,,,,,,vision,aloud,white,55,35,347,6,3.1252584001,r,0.564338400029,2019_Dec_05_1627,59.97422312,ProdSingRedo,001,nc12,
,,,,56,0,56,0,,,,,,,,,,,,,,,,,,chief,new_b,white,56,139,48,6,2.82518499997,r,0.800206500106,2019_Dec_05_1627,59.97422312,ProdSingRedo,001,nc12,
,,,,57,0,57,0,,,,,,,,,,,,,,,,,,pretty,new_a,white,57,99,233,2,1.4425752,n,0.769093499985,2019_Dec_05_1627,59.97422312,ProdSingRedo,001,nc12,
,,,,58,0,58,0,,,,,,,,,,,,,,,,,,order,new_a,white,58,109,207,6,2.33057130012,r,0.773357500089,2019_Dec_05_1627,59.97422312,ProdSingRedo,001,nc12,
,,,,59,0,59,0,,,,,,,,,,,,,,,,,,point,new_b,white,59,130,226,3,4.58153550001,n,0.541629099986,2019_Dec_05_1627,59.97422312,ProdSingRedo,001,nc12,
,,,,60,0,60,0,,,,,,,,,,,,,,,,,,comfort,new_a,white,60,96,59,1,2.74192170007,n,0.764806499938,2019_Dec_05_1627,59.97422312,ProdSingRedo,001,nc12,
,,,,61,0,61,0,,,,,,,,,,,,,,,,,,length,aloud,white,61,55,169,6,2.73997050012,r,0.417729299981,2019_Dec_05_1627,59.97422312,ProdSingRedo,001,nc12,
,,,,62,0,62,0,,,,,,,,,,,,,,,,,,youth,new_a,white,62,94,359,3,1.71204180014,n,0.765444700141,2019_Dec_05_1627,59.97422312,ProdSingRedo,001,nc12,
,,,,63,0,63,0,,,,,,,,,,,,,,,,,,review,new_a,white,63,110,263,3,1.69318890013,n,0.311182699865,2019_Dec_05_1627,59.97422312,ProdSingRedo,001,nc12,
,,,,64,0,64,0,,,,,,,,,,,,,,,,,,write,silent,white,64,62,358,6,1.76473119995,r,1.08067090018,2019_Dec_05_1627,59.97422312,ProdSingRedo,001,nc12,
,,,,65,0,65,0,,,,,,,,,,,,,,,,,,danger,new_c,white,65,175,85,5,6.43662540009,n,1.06806030008,2019_Dec_05_1627,59.97422312,ProdSingRedo,001,nc12,
,,,,66,0,66,0,,,,,,,,,,,,,,,,,,thick,new_c,white,66,178,327,3,2.29494390008,n,0.180783199845,2019_Dec_05_1627,59.97422312,ProdSingRedo,001,nc12,
,,,,67,0,67,0,,,,,,,,,,,,,,,,,,union,new_b,white,67,121,344,3,1.79656240018,n,0.168845799984,2019_Dec_05_1627,59.97422312,ProdSingRedo,001,nc12,
,,,,68,0,68,0,,,,,,,,,,,,,,,,,,touch,new_a,white,68,93,332,1,1.72510110005,n,0.428406300023,2019_Dec_05_1627,59.97422312,ProdSingRedo,001,nc12,
,,,,69,0,69,0,,,,,,,,,,,,,,,,,,interior,new_c,white,69,171,164,1,5.32442760002,n,0.145668399986,2019_Dec_05_1627,59.97422312,ProdSingRedo,001,nc12,
,,,,70,0,70,0,,,,,,,,,,,,,,,,,,number,aloud,white,70,51,203,6,1.97473390005,f,0.357862399891,2019_Dec_05_1627,59.97422312,ProdSingRedo,001,nc12,
,,,,71,0,71,0,,,,,,,,,,,,,,,,,,build,silent,white,71,79,35,4,2.14055230003,n,0.918753399979,2019_Dec_05_1627,59.97422312,ProdSingRedo,001,nc12,
,,,,72,0,72,0,,,,,,,,,,,,,,,,,,tough,silent,white,72,85,333,2,8.19646700006,n,0.81821190007,2019_Dec_05_1627,59.97422312,ProdSingRedo,001,nc12,
,,,,73,0,73,0,,,,,,,,,,,,,,,,,,clean,new_b,white,73,126,51,4,3.4411828001,f,1.18487949995,2019_Dec_05_1627,59.97422312,ProdSingRedo,001,nc12,
,,,,74,0,74,0,,,,,,,,,,,,,,,,,,threat,sing,white,74,18,329,4,3.67637779983,f,0.628240900114,2019_Dec_05_1627,59.97422312,ProdSingRedo,001,nc12,
,,,,75,0,75,0,,,,,,,,,,,,,,,,,,travel,aloud,white,75,30,338,2,2.15749959997,n,2.02753229998,2019_Dec_05_1627,59.97422312,ProdSingRedo,001,nc12,
,,,,76,0,76,0,,,,,,,,,,,,,,,,,,benefit,silent,white,76,72,20,3,2.96148109995,f,1.26724730013,2019_Dec_05_1627,59.97422312,ProdSingRedo,001,nc12,
,,,,77,0,77,0,,,,,,,,,,,,,,,,,,express,new_a,white,77,115,124,3,2.6449976,n,0.765254599974,2019_Dec_05_1627,59.97422312,ProdSingRedo,001,nc12,
,,,,78,0,78,0,,,,,,,,,,,,,,,,,,stand,sing,white,78,23,302,6,2.17685649986,r,0.449866800103,2019_Dec_05_1627,59.97422312,ProdSingRedo,001,nc12,
,,,,79,0,79,0,,,,,,,,,,,,,,,,,,growth,new_c,white,79,152,144,4,2.39331379998,n,0.790971499868,2019_Dec_05_1627,59.97422312,ProdSingRedo,001,nc12,
,,,,80,0,80,0,,,,,,,,,,,,,,,,,,thing,sing,white,80,25,328,5,4.37613059999,f,0.266365699936,2019_Dec_05_1627,59.97422312,ProdSingRedo,001,nc12,
,,,,81,0,81,0,,,,,,,,,,,,,,,,,,skill,sing,white,81,2,289,4,3.01019170019,f,0.89594940003,2019_Dec_05_1627,59.97422312,ProdSingRedo,001,nc12,
,,,,82,0,82,0,,,,,,,,,,,,,,,,,,atmosphere,new_a,white,82,107,12,6,4.36712140008,f,0.62781179999,2019_Dec_05_1627,59.97422312,ProdSingRedo,001,nc12,
,,,,83,0,83,0,,,,,,,,,,,,,,,,,,treatment,new_c,white,83,168,339,1,1.48912739987,n,1.26031689998,2019_Dec_05_1627,59.97422312,ProdSingRedo,001,nc12,
,,,,84,0,84,0,,,,,,,,,,,,,,,,,,force,new_b,white,84,145,131,5,3.59703360009,n,1.3882114999,2019_Dec_05_1627,59.97422312,ProdSingRedo,001,nc12,
,,,,85,0,85,0,,,,,,,,,,,,,,,,,,bureau,new_a,white,85,98,37,1,1.54232740006,n,1.16222380009,2019_Dec_05_1627,59.97422312,ProdSingRedo,001,nc12,
,,,,86,0,86,0,,,,,,,,,,,,,,,,,,contract,new_b,white,86,133,68,5,2.59311720007,n,0.978543599835,2019_Dec_05_1627,59.97422312,ProdSingRedo,001,nc12,
,,,,87,0,87,0,,,,,,,,,,,,,,,,,,clear,new_b,white,87,137,52,5,6.54462049995,n,0.750754200155,2019_Dec_05_1627,59.97422312,ProdSingRedo,001,nc12,
,,,,88,0,88,0,,,,,,,,,,,,,,,,,,recall,new_a,white,88,119,255,1,3.67588809994,n,0.709532599896,2019_Dec_05_1627,59.97422312,ProdSingRedo,001,nc12,
,,,,89,0,89,0,,,,,,,,,,,,,,,,,,place,new_c,white,89,150,222,5,3.71479190001,n,0.818514500046,2019_Dec_05_1627,59.97422312,ProdSingRedo,001,nc12,
,,,,90,0,90,0,,,,,,,,,,,,,,,,,,charter,new_b,white,90,149,47,1,1.40869530011,n,0.89651510003,2019_Dec_05_1627,59.97422312,ProdSingRedo,001,nc12,
,,,,91,0,91,0,,,,,,,,,,,,,,,,,,ground,sing,white,91,26,142,2,4.70899239997,f,1.01919439994,2019_Dec_05_1627,59.97422312,ProdSingRedo,001,nc12,
,,,,92,0,92,0,,,,,,,,,,,,,,,,,,concern,sing,white,92,6,65,1,3.77107710019,n,1.25412980001,2019_Dec_05_1627,59.97422312,ProdSingRedo,001,nc12,
,,,,93,0,93,0,,,,,,,,,,,,,,,,,,pancakes,new_c,white,93,157,210,1,1.01181059983,n,0.786272799829,2019_Dec_05_1627,59.97422312,ProdSingRedo,001,nc12,
,,,,94,0,94,0,,,,,,,,,,,,,,,,,,sweet,new_a,white,94,104,319,6,2.59501899988,r,0.565006999997,2019_Dec_05_1627,59.97422312,ProdSingRedo,001,nc12,
,,,,95,0,95,0,,,,,,,,,,,,,,,,,,private,new_b,white,95,135,237,1,2.77700509992,n,1.48049569991,2019_Dec_05_1627,59.97422312,ProdSingRedo,001,nc12,
,,,,96,0,96,0,,,,,,,,,,,,,,,,,,congress,sing,white,96,10,67,5,3.29079940007,f,1.02936069993,2019_Dec_05_1627,59.97422312,ProdSingRedo,001,nc12,
,,,,97,0,97,0,,,,,,,,,,,,,,,,,,husband,new_c,white,97,159,156,1,4.22231239988,n,1.33069790015,2019_Dec_05_1627,59.97422312,ProdSingRedo,001,nc12,
,,,,98,0,98,0,,,,,,,,,,,,,,,,,,substance,sing,white,98,29,313,2,10.2823756,n,0.954171499936,2019_Dec_05_1627,59.97422312,ProdSingRedo,001,nc12,
,,,,99,0,99,0,,,,,,,,,,,,,,,,,,balance,new_c,white,99,174,17,3,2.39177499991,n,0.158246099949,2019_Dec_05_1627,59.97422312,ProdSingRedo,001,nc12,
,,,,100,0,100,0,,,,,,,,,,,,,,,,,,story,new_c,white,100,165,306,1,1.1765689,n,0.770966500044,2019_Dec_05_1627,59.97422312,ProdSingRedo,001,nc12,
,,,,101,0,101,0,,,,,,,,,,,,,,,,,,career,new_c,white,101,179,42,6,1.49167230004,f,0.860384699889,2019_Dec_05_1627,59.97422312,ProdSingRedo,001,nc12,
,,,,102,0,102,0,,,,,,,,,,,,,,,,,,sleep,sing,white,102,21,290,6,4.06501140003,f,0.204354000045,2019_Dec_05_1627,59.97422312,ProdSingRedo,001,nc12,
,,,,103,0,103,0,,,,,,,,,,,,,,,,,,watch,silent,white,103,76,351,1,1.09181170003,n,0.758028300013,2019_Dec_05_1627,59.97422312,ProdSingRedo,001,nc12,
,,,,104,0,104,0,,,,,,,,,,,,,,,,,,production,new_c,white,104,176,240,6,2.07146620005,f,0.508353499928,2019_Dec_05_1627,59.97422312,ProdSingRedo,001,nc12,
,,,,105,0,105,0,,,,,,,,,,,,,,,,,,health,new_c,white,105,161,149,4,1.75547230011,f,0.565926200012,2019_Dec_05_1627,59.97422312,ProdSingRedo,001,nc12,
,,,,106,0,106,0,,,,,,,,,,,,,,,,,,smell,new_a,white,106,116,291,4,1.93281339994,f,0.359788900008,2019_Dec_05_1627,59.97422312,ProdSingRedo,001,nc12,
,,,,107,0,107,0,,,,,,,,,,,,,,,,,,crowd,new_a,white,107,106,81,2,1.65483890008,n,0.657982699806,2019_Dec_05_1627,59.97422312,ProdSingRedo,001,nc12,
,,,,108,0,108,0,,,,,,,,,,,,,,,,,,education,aloud,white,108,36,108,6,2.25140570011,r,0.221243700013,2019_Dec_05_1627,59.97422312,ProdSingRedo,001,nc12,
,,,,109,0,109,0,,,,,,,,,,,,,,,,,,defeat,new_a,white,109,112,88,3,1.50235810014,f,0.324200799922,2019_Dec_05_1627,59.97422312,ProdSingRedo,001,nc12,
,,,,110,0,110,0,,,,,,,,,,,,,,,,,,discovery,silent,white,110,69,95,3,5.12100749998,f,0.909422900062,2019_Dec_05_1627,59.97422312,ProdSingRedo,001,nc12,
,,,,111,0,111,0,,,,,,,,,,,,,,,,,,patient,silent,white,111,82,213,5,2.42473850003,f,0.693619699916,2019_Dec_05_1627,59.97422312,ProdSingRedo,001,nc12,
,,,,112,0,112,0,,,,,,,,,,,,,,,,,,straight,new_b,white,112,131,307,1,1.61491009989,n,0.11505890009,2019_Dec_05_1627,59.97422312,ProdSingRedo,001,nc12,
,,,,113,0,113,0,,,,,,,,,,,,,,,,,,partner,silent,white,113,77,211,5,3.52628079988,f,0.549406900071,2019_Dec_05_1627,59.97422312,ProdSingRedo,001,nc12,
,,,,114,0,114,0,,,,,,,,,,,,,,,,,,graduate,new_c,white,114,172,141,2,3.4852897001,n,1.07337090001,2019_Dec_05_1627,59.97422312,ProdSingRedo,001,nc12,
,,,,115,0,115,0,,,,,,,,,,,,,,,,,,general,new_b,white,115,144,135,6,3.54203819996,f,0.373257100116,2019_Dec_05_1627,59.97422312,ProdSingRedo,001,nc12,
,,,,116,0,116,0,,,,,,,,,,,,,,,,,,passage,sing,white,116,7,212,2,1.82736770017,n,1.62750870013,2019_Dec_05_1627,59.97422312,ProdSingRedo,001,nc12,
,,,,117,0,117,0,,,,,,,,,,,,,,,,,,curve,silent,white,117,81,82,2,2.00528519996,n,1.14458499989,2019_Dec_05_1627,59.97422312,ProdSingRedo,001,nc12,
,,,,118,0,118,0,,,,,,,,,,,,,,,,,,captain,silent,white,118,68,41,5,1.95240769978,f,1.17293639993,2019_Dec_05_1627,59.97422312,ProdSingRedo,001,nc12,
,,,,119,0,119,0,,,,,,,,,,,,,,,,,,speech,sing,white,119,24,298,6,1.9583399999,r,0.637836799957,2019_Dec_05_1627,59.97422312,ProdSingRedo,001,nc12,
,,,,120,0,120,0,,,,,,,,,,,,,,,,,,dispute,silent,white,120,66,99,3,1.58284299984,n,1.30904809991,2019_Dec_05_1627,59.97422312,ProdSingRedo,001,nc12,
,,,,121,0,121,0,,,,,,,,,,,,,,,,,,problem,new_b,white,121,136,238,3,6.07217699988,n,0.330867300043,2019_Dec_05_1627,59.97422312,ProdSingRedo,001,nc12,
,,,,122,0,122,0,,,,,,,,,,,,,,,,,,author,aloud,white,122,40,15,2,6.22517889994,n,0.134812299861,2019_Dec_05_1627,59.97422312,ProdSingRedo,001,nc12,
,,,,123,0,123,0,,,,,,,,,,,,,,,,,,majority,aloud,white,123,54,176,6,2.0840723,r,1.37485299981,2019_Dec_05_1627,59.97422312,ProdSingRedo,001,nc12,
,,,,124,0,124,0,,,,,,,,,,,,,,,,,,principal,sing,white,124,28,236,6,1.01146610011,r,0.422619599849,2019_Dec_05_1627,59.97422312,ProdSingRedo,001,nc12,
,,,,125,0,125,0,,,,,,,,,,,,,,,,,,government,new_c,white,125,153,139,3,2.45086829993,n,0.106031700037,2019_Dec_05_1627,59.97422312,ProdSingRedo,001,nc12,
,,,,126,0,126,0,,,,,,,,,,,,,,,,,,style,new_b,white,126,147,311,3,1.69904950005,f,0.728713199962,2019_Dec_05_1627,59.97422312,ProdSingRedo,001,nc12,
,,,,127,0,127,0,,,,,,,,,,,,,,,,,,range,new_a,white,127,101,251,6,2.30091789993,r,0.565309799975,2019_Dec_05_1627,59.97422312,ProdSingRedo,001,nc12,
,,,,128,0,128,0,,,,,,,,,,,,,,,,,,broke,silent,white,128,60,32,1,1.71558790002,n,0.56490430003,2019_Dec_05_1627,59.97422312,ProdSingRedo,001,nc12,
,,,,129,0,129,0,,,,,,,,,,,,,,,,,,conference,silent,white,129,74,66,6,3.94200600008,f,0.607256000163,2019_Dec_05_1627,59.97422312,ProdSingRedo,001,nc12,
,,,,130,0,130,0,,,,,,,,,,,,,,,,,,safety,new_a,white,130,103,270,5,3.45759680006,f,0.595148500055,2019_Dec_05_1627,59.97422312,ProdSingRedo,001,nc12,
,,,,131,0,131,0,,,,,,,,,,,,,,,,,,beauty,new_b,white,131,129,18,1,1.24528559996,n,1.16179889999,2019_Dec_05_1627,59.97422312,ProdSingRedo,001,nc12,
,,,,132,0,132,0,,,,,,,,,,,,,,,,,,century,silent,white,132,71,45,2,3.32164940005,n,0.477934000082,2019_Dec_05_1627,59.97422312,ProdSingRedo,001,nc12,
,,,,133,0,133,0,,,,,,,,,,,,,,,,,,division,aloud,white,133,43,101,5,2.54297700012,f,0.930341899861,2019_Dec_05_1627,59.97422312,ProdSingRedo,001,nc12,
,,,,134,0,134,0,,,,,,,,,,,,,,,,,,citizen,new_c,white,134,177,50,4,2.15814349987,f,0.0956035999116,2019_Dec_05_1627,59.97422312,ProdSingRedo,001,nc12,
,,,,135,0,135,0,,,,,,,,,,,,,,,,,,cover,sing,white,135,9,77,3,1.99713229993,n,0.818499999819,2019_Dec_05_1627,59.97422312,ProdSingRedo,001,nc12,
,,,,136,0,136,0,,,,,,,,,,,,,,,,,,bright,new_c,white,136,162,29,6,2.73149339994,r,1.28632880002,2019_Dec_05_1627,59.97422312,ProdSingRedo,001,nc12,
,,,,137,0,137,0,,,,,,,,,,,,,,,,,,school,new_a,white,137,118,274,5,2.14656389994,r,0.423723799875,2019_Dec_05_1627,59.97422312,ProdSingRedo,001,nc12,
,,,,138,0,138,0,,,,,,,,,,,,,,,,,,raise,silent,white,138,88,250,1,2.74732730002,n,2.34395959997,2019_Dec_05_1627,59.97422312,ProdSingRedo,001,nc12,
,,,,139,0,139,0,,,,,,,,,,,,,,,,,,portion,aloud,white,139,38,228,6,2.5746367001,r,1.18649959983,2019_Dec_05_1627,59.97422312,ProdSingRedo,001,nc12,
,,,,140,0,140,0,,,,,,,,,,,,,,,,,,angle,sing,white,140,19,7,6,1.82826990006,r,0.0655638000462,2019_Dec_05_1627,59.97422312,ProdSingRedo,001,nc12,
,,,,141,0,141,0,,,,,,,,,,,,,,,,,,front,silent,white,141,83,134,3,3.13183520013,n,0.517368000001,2019_Dec_05_1627,59.97422312,ProdSingRedo,001,nc12,
,,,,142,0,142,0,,,,,,,,,,,,,,,,,,music,sing,white,142,13,196,3,3.24668950005,n,0.0130372000858,2019_Dec_05_1627,59.97422312,ProdSingRedo,001,nc12,
,,,,143,0,143,0,,,,,,,,,,,,,,,,,,orchestra,silent,white,143,61,206,1,1.07983279997,n,1.12806860008,2019_Dec_05_1627,59.97422312,ProdSingRedo,001,nc12,
,,,,144,0,144,0,,,,,,,,,,,,,,,,,,research,new_a,white,144,90,261,5,2.24741300009,r,1.02597440011,2019_Dec_05_1627,59.97422312,ProdSingRedo,001,nc12,
,,,,145,0,145,0,,,,,,,,,,,,,,,,,,bucket,new_c,white,145,158,33,2,2.60685630003,n,0.931913000066,2019_Dec_05_1627,59.97422312,ProdSingRedo,001,nc12,
,,,,146,0,146,0,,,,,,,,,,,,,,,,,,region,sing,white,146,11,256,6,6.02180520003,f,1.09348709998,2019_Dec_05_1627,59.97422312,ProdSingRedo,001,nc12,
,,,,147,0,147,0,,,,,,,,,,,,,,,,,,dozen,new_a,white,147,102,102,1,1.49268350005,n,0.403009000001,2019_Dec_05_1627,59.97422312,ProdSingRedo,001,nc12,
,,,,148,0,148,0,,,,,,,,,,,,,,,,,,group,new_b,white,148,141,143,5,2.12593410001,f,0.682367400033,2019_Dec_05_1627,59.97422312,ProdSingRedo,001,nc12,
,,,,149,0,149,0,,,,,,,,,,,,,,,,,,provision,new_b,white,149,120,243,2,3.30401850003,n,0.515405599959,2019_Dec_05_1627,59.97422312,ProdSingRedo,001,nc12,
,,,,150,0,150,0,,,,,,,,,,,,,,,,,,distance,new_c,white,150,154,100,6,3.71159209986,f,0.614705200074,2019_Dec_05_1627,59.97422312,ProdSingRedo,001,nc12,
,,,,151,0,151,0,,,,,,,,,,,,,,,,,,message,silent,white,151,64,189,2,1.75195500022,n,0.743582099909,2019_Dec_05_1627,59.97422312,ProdSingRedo,001,nc12,
,,,,152,0,152,0,,,,,,,,,,,,,,,,,,interview,sing,white,152,12,165,5,3.43273789994,f,0.405415999936,2019_Dec_05_1627,59.97422312,ProdSingRedo,001,nc12,
,,,,153,0,153,0,,,,,,,,,,,,,,,,,,poetry,new_b,white,153,142,225,1,9.11097560008,n,0.431330900174,2019_Dec_05_1627,59.97422312,ProdSingRedo,001,nc12,
,,,,154,0,154,0,,,,,,,,,,,,,,,,,,instrument,sing,white,154,0,163,5,4.33743970003,f,0.392331300071,2019_Dec_05_1627,59.97422312,ProdSingRedo,001,nc12,
,,,,155,0,155,0,,,,,,,,,,,,,,,,,,executive,silent,white,155,84,122,6,2.39660589979,r,0.322489300044,2019_Dec_05_1627,59.97422312,ProdSingRedo,001,nc12,
,,,,156,0,156,0,,,,,,,,,,,,,,,,,,birth,new_a,white,156,95,22,3,1.48338660016,n,0.440903699957,2019_Dec_05_1627,59.97422312,ProdSingRedo,001,nc12,
,,,,157,0,157,0,,,,,,,,,,,,,,,,,,business,aloud,white,157,47,38,6,3.30747290002,r,0.314727000194,2019_Dec_05_1627,59.97422312,ProdSingRedo,001,nc12,
,,,,158,0,158,0,,,,,,,,,,,,,,,,,,theme,sing,white,158,14,326,6,0.747413099976,r,0.799283799948,2019_Dec_05_1627,59.97422312,ProdSingRedo,001,nc12,
,,,,159,0,159,0,,,,,,,,,,,,,,,,,,state,new_c,white,159,173,303,4,2.95969929988,f,0.269526600139,2019_Dec_05_1627,59.97422312,ProdSingRedo,001,nc12,
,,,,160,0,160,0,,,,,,,,,,,,,,,,,,under,silent,white,160,73,343,3,1.72614399996,n,0.405269799987,2019_Dec_05_1627,59.97422312,ProdSingRedo,001,nc12,
,,,,161,0,161,0,,,,,,,,,,,,,,,,,,military,new_c,white,161,169,190,6,3.01931899996,f,0.598048199899,2019_Dec_05_1627,59.97422312,ProdSingRedo,001,nc12,
,,,,162,0,162,0,,,,,,,,,,,,,,,,,,column,sing,white,162,15,57,6,1.26322780014,r,0.915406899992,2019_Dec_05_1627,59.97422312,ProdSingRedo,001,nc12,
,,,,163,0,163,0,,,,,,,,,,,,,,,,,,universal,new_b,white,163,122,345,5,3.28240329982,f,0.41233530012,2019_Dec_05_1627,59.97422312,ProdSingRedo,001,nc12,
,,,,164,0,164,0,,,,,,,,,,,,,,,,,,short,aloud,white,164,46,285,6,3.36803810019,r,0.437872499926,2019_Dec_05_1627,59.97422312,ProdSingRedo,001,nc12,
,,,,165,0,165,0,,,,,,,,,,,,,,,,,,fellow,new_a,white,165,100,126,3,1.8605167002,f,1.06029459997,2019_Dec_05_1627,59.97422312,ProdSingRedo,001,nc12,
,,,,166,0,166,0,,,,,,,,,,,,,,,,,,trail,sing,white,166,5,336,5,3.32834029989,f,0.382796399994,2019_Dec_05_1627,59.97422312,ProdSingRedo,001,nc12,
,,,,167,0,167,0,,,,,,,,,,,,,,,,,,shock,silent,white,167,70,284,1,1.76195640001,n,0.400119800121,2019_Dec_05_1627,59.97422312,ProdSingRedo,001,nc12,
,,,,168,0,168,0,,,,,,,,,,,,,,,,,,shear,new_b,white,168,123,283,1,0.898195399903,n,0.42111580004,2019_Dec_05_1627,59.97422312,ProdSingRedo,001,nc12,
,,,,169,0,169,0,,,,,,,,,,,,,,,,,,dream,sing,white,169,17,104,6,1.69805140002,f,0.630359899951,2019_Dec_05_1627,59.97422312,ProdSingRedo,001,nc12,
,,,,170,0,170,0,,,,,,,,,,,,,,,,,,guest,new_c,white,170,151,146,3,1.77642389992,n,0.581437699962,2019_Dec_05_1627,59.97422312,ProdSingRedo,001,nc12,
,,,,171,0,171,0,,,,,,,,,,,,,,,,,,command,new_b,white,171,134,60,5,3.00713000004,f,0.814832099946,2019_Dec_05_1627,59.97422312,ProdSingRedo,001,nc12,
,,,,172,0,172,0,,,,,,,,,,,,,,,,,,match,silent,white,172,89,181,2,2.16503160005,n,0.933985600015,2019_Dec_05_1627,59.97422312,ProdSingRedo,001,nc12,
,,,,173,0,173,0,,,,,,,,,,,,,,,,,,member,sing,white,173,27,188,6,1.59436669992,r,0.817161800107,2019_Dec_05_1627,59.97422312,ProdSingRedo,001,nc12,
,,,,174,0,174,0,,,,,,,,,,,,,,,,,,fight,new_a,white,174,91,127,3,1.74374119984,f,0.685287299799,2019_Dec_05_1627,59.97422312,ProdSingRedo,001,nc12,
,,,,175,0,175,0,,,,,,,,,,,,,,,,,,produce,aloud,white,175,44,239,6,1.310084,r,1.51919679996,2019_Dec_05_1627,59.97422312,ProdSingRedo,001,nc12,
,,,,176,0,176,0,,,,,,,,,,,,,,,,,,quarter,aloud,white,176,48,246,6,0.956588499947,r,1.07626770018,2019_Dec_05_1627,59.97422312,ProdSingRedo,001,nc12,
,,,,177,0,177,0,,,,,,,,,,,,,,,,,,emergency,new_a,white,177,92,110,3,2.39885500004,f,0.295265799854,2019_Dec_05_1627,59.97422312,ProdSingRedo,001,nc12,
,,,,178,0,178,0,,,,,,,,,,,,,,,,,,primary,sing,white,178,16,234,4,1.90362,n,0.135655200109,2019_Dec_05_1627,59.97422312,ProdSingRedo,001,nc12,
,,,,179,0,179,0,,,,,,,,,,,,,,,,,,drink,new_c,white,179,156,105,1,1.19466509996,n,0.354256500024,2019_Dec_05_1627,59.97422312,ProdSingRedo,001,nc12,
