StudyLoop.thisRepN,StudyLoop.thisTrialN,StudyLoop.thisN,StudyLoop.thisIndex,TestLoop.thisRepN,TestLoop.thisTrialN,TestLoop.thisN,TestLoop.thisIndex,textCondition.started,textCondition.stopped,keyCondition.keys,keyCondition.rt,keyCondition.started,keyCondition.stopped,Condition,stim_colors,color_sing,color_aloud,color_silent,textWelcome.started,textWelcome.stopped,keyWelcome.keys,keyWelcome.rt,keyWelcome.started,keyWelcome.stopped,textAloud.started,textAloud.stopped,textSilent.started,textSilent.stopped,textSing.started,textSing.stopped,textBlank500.started,textBlank500.stopped,study_word,study_type,study_color,study_num,study_word_num,textStudy.started,textStudy.stopped,keyStudy.keys,keyStudy.started,keyStudy.stopped,textTestInstructions.started,textTestInstructions.stopped,key_resp_3.keys,key_resp_3.rt,key_resp_3.started,key_resp_3.stopped,testWord,testType,testColor,testN,test_num,test_word_num,textConf.started,textConf.stopped,textConfScale.started,textConfScale.stopped,keyConf.keys,keyConf.rt,keyConf.started,keyConf.stopped,textTestBlank.started,textTestBlank.stopped,textRKN.started,textRKN.stopped,textRKNScale.started,textRKNScale.stopped,keyRKN.keys,keyRKN.rt,keyRKN.started,keyRKN.stopped,textEnd.started,textEnd.stopped,participant,session,date,expName,psychopyVersion,frameRate,
,,,,,,,,135.80560954893008,None,n,0.7080266589764506,135.80560954893008,None,,,,,,,,,,,,,,,,,,,,,,,,,,,,,,,,,,,,,,,,,,,,,,,,,,,,,,,,,,,,,,NC11,001,2019_Dec_06_1112,ProdSingRedo,3.2.4,59.98328524748412,
,,,,,,,,,,,,,,NeutralTest,"['yellow', 'blue', 'red']",yellow,blue,red,136.57122761942446,None,space,4070.77405525255,136.57122761942446,None,,,,,,,,,,,,,,,,,,,,,,,,,,,,,,,,,,,,,,,,,,,,,,,,,,,NC11,001,2019_Dec_06_1112,ProdSingRedo,3.2.4,59.98328524748412,
0,0,0,0,,,,,,,,,,,,,,,,,,,,,,136.57122761942446,None,136.57122761942446,None,136.57122761942446,None,4209.886816300219,None,harmony,aloud,blue,42,148,4207.886156042339,None,None,4207.886156042339,None,,,,,,,,,,,,,,,,,,,,,,,,,,,,,,,,,NC11,001,2019_Dec_06_1112,ProdSingRedo,3.2.4,59.98328524748412,
1,0,1,0,,,,,,,,,,,,,,,,,,,,,,,,,,,,4212.404252023902,None,article,silent,red,61,11,4210.40346643189,None,None,4210.40346643189,None,,,,,,,,,,,,,,,,,,,,,,,,,,,,,,,,,NC11,001,2019_Dec_06_1112,ProdSingRedo,3.2.4,59.98328524748412,
2,0,2,0,,,,,,,,,,,,,,,,,,,,,,,,,,,,4214.92167188623,None,quiet,sing,yellow,21,249,4212.9209410308395,None,None,4212.9209410308395,None,,,,,,,,,,,,,,,,,,,,,,,,,,,,,,,,,NC11,001,2019_Dec_06_1112,ProdSingRedo,3.2.4,59.98328524748412,
3,0,3,0,,,,,,,,,,,,,,,,,,,,,,,,,,,,4217.439102944918,None,route,silent,red,74,267,4215.438466945197,None,None,4215.438466945197,None,,,,,,,,,,,,,,,,,,,,,,,,,,,,,,,,,NC11,001,2019_Dec_06_1112,ProdSingRedo,3.2.4,59.98328524748412,
4,0,4,0,,,,,,,,,,,,,,,,,,,,,,,,,,,,4219.956549553666,None,payment,sing,yellow,6,215,4217.955727263354,None,None,4217.955727263354,None,,,,,,,,,,,,,,,,,,,,,,,,,,,,,,,,,NC11,001,2019_Dec_06_1112,ProdSingRedo,3.2.4,59.98328524748412,
5,0,5,0,,,,,,,,,,,,,,,,,,,,,,,,,,,,4222.473981856136,None,theme,sing,yellow,8,326,4220.473330306122,None,None,4220.473330306122,None,,,,,,,,,,,,,,,,,,,,,,,,,,,,,,,,,NC11,001,2019_Dec_06_1112,ProdSingRedo,3.2.4,59.98328524748412,
6,0,6,0,,,,,,,,,,,,,,,,,,,,,,,,,,,,4224.991432818817,None,property,sing,yellow,7,242,4222.990789355012,None,None,4222.990789355012,None,,,,,,,,,,,,,,,,,,,,,,,,,,,,,,,,,NC11,001,2019_Dec_06_1112,ProdSingRedo,3.2.4,59.98328524748412,
7,0,7,0,,,,,,,,,,,,,,,,,,,,,,,,,,,,4227.50883806427,None,surface,silent,red,62,316,4225.508190868422,None,None,4225.508190868422,None,,,,,,,,,,,,,,,,,,,,,,,,,,,,,,,,,NC11,001,2019_Dec_06_1112,ProdSingRedo,3.2.4,59.98328524748412,
8,0,8,0,,,,,,,,,,,,,,,,,,,,,,,,,,,,4230.026304577012,None,point,silent,red,80,226,4228.025636232924,None,None,4228.025636232924,None,,,,,,,,,,,,,,,,,,,,,,,,,,,,,,,,,NC11,001,2019_Dec_06_1112,ProdSingRedo,3.2.4,59.98328524748412,
9,0,9,0,,,,,,,,,,,,,,,,,,,,,,,,,,,,4232.543771089753,None,broad,aloud,blue,59,31,4230.543285615277,None,None,4230.543285615277,None,,,,,,,,,,,,,,,,,,,,,,,,,,,,,,,,,NC11,001,2019_Dec_06_1112,ProdSingRedo,3.2.4,59.98328524748412,
10,0,10,0,,,,,,,,,,,,,,,,,,,,,,,,,,,,4235.0611486560665,None,number,sing,yellow,3,203,4233.060538469348,None,None,4233.060538469348,None,,,,,,,,,,,,,,,,,,,,,,,,,,,,,,,,,NC11,001,2019_Dec_06_1112,ProdSingRedo,3.2.4,59.98328524748412,
11,0,11,0,,,,,,,,,,,,,,,,,,,,,,,,,,,,4237.5786332068965,None,union,sing,yellow,17,344,4235.577953044791,None,None,4235.577953044791,None,,,,,,,,,,,,,,,,,,,,,,,,,,,,,,,,,NC11,001,2019_Dec_06_1112,ProdSingRedo,3.2.4,59.98328524748412,
12,0,12,0,,,,,,,,,,,,,,,,,,,,,,,,,,,,4240.096077016555,None,mayor,sing,yellow,15,183,4238.095260013593,None,None,4238.095260013593,None,,,,,,,,,,,,,,,,,,,,,,,,,,,,,,,,,NC11,001,2019_Dec_06_1112,ProdSingRedo,3.2.4,59.98328524748412,
13,0,13,0,,,,,,,,,,,,,,,,,,,,,,,,,,,,4242.613503410248,None,safety,aloud,blue,31,270,4240.612683607964,None,None,4240.612683607964,None,,,,,,,,,,,,,,,,,,,,,,,,,,,,,,,,,NC11,001,2019_Dec_06_1112,ProdSingRedo,3.2.4,59.98328524748412,
14,0,14,0,,,,,,,,,,,,,,,,,,,,,,,,,,,,4245.1309238947,None,childhood,silent,red,84,49,4243.130283851875,None,None,4243.130283851875,None,,,,,,,,,,,,,,,,,,,,,,,,,,,,,,,,,NC11,001,2019_Dec_06_1112,ProdSingRedo,3.2.4,59.98328524748412,
15,0,15,0,,,,,,,,,,,,,,,,,,,,,,,,,,,,4247.648374857381,None,orchestra,aloud,blue,53,206,4245.647579002427,None,None,4245.647579002427,None,,,,,,,,,,,,,,,,,,,,,,,,,,,,,,,,,NC11,001,2019_Dec_06_1112,ProdSingRedo,3.2.4,59.98328524748412,
16,0,16,0,,,,,,,,,,,,,,,,,,,,,,,,,,,,4250.165773882531,None,military,silent,red,88,190,4248.165007572854,None,None,4248.165007572854,None,,,,,,,,,,,,,,,,,,,,,,,,,,,,,,,,,NC11,001,2019_Dec_06_1112,ProdSingRedo,3.2.4,59.98328524748412,
17,0,17,0,,,,,,,,,,,,,,,,,,,,,,,,,,,,4252.683247237466,None,committee,sing,yellow,1,62,4250.682639539009,None,None,4250.682639539009,None,,,,,,,,,,,,,,,,,,,,,,,,,,,,,,,,,NC11,001,2019_Dec_06_1112,ProdSingRedo,3.2.4,59.98328524748412,
18,0,18,0,,,,,,,,,,,,,,,,,,,,,,,,,,,,4255.200695090229,None,beauty,sing,yellow,22,18,4253.200037009316,None,None,4253.200037009316,None,,,,,,,,,,,,,,,,,,,,,,,,,,,,,,,,,NC11,001,2019_Dec_06_1112,ProdSingRedo,3.2.4,59.98328524748412,
19,0,19,0,,,,,,,,,,,,,,,,,,,,,,,,,,,,4257.718115885742,None,course,silent,red,64,74,4255.7174870390445,None,None,4255.7174870390445,None,,,,,,,,,,,,,,,,,,,,,,,,,,,,,,,,,NC11,001,2019_Dec_06_1112,ProdSingRedo,3.2.4,59.98328524748412,
20,0,20,0,,,,,,,,,,,,,,,,,,,,,,,,,,,,4260.235560628353,None,corner,silent,red,73,69,4258.234912188491,None,None,4258.234912188491,None,,,,,,,,,,,,,,,,,,,,,,,,,,,,,,,,,NC11,001,2019_Dec_06_1112,ProdSingRedo,3.2.4,59.98328524748412,
21,0,21,0,,,,,,,,,,,,,,,,,,,,,,,,,,,,4262.753006926039,None,benefit,sing,yellow,14,20,4260.752350400202,None,None,4260.752350400202,None,,,,,,,,,,,,,,,,,,,,,,,,,,,,,,,,,NC11,001,2019_Dec_06_1112,ProdSingRedo,3.2.4,59.98328524748412,
22,0,22,0,,,,,,,,,,,,,,,,,,,,,,,,,,,,4265.27034126292,None,revolution,aloud,blue,50,264,4263.273004375864,None,None,4263.273004375864,None,,,,,,,,,,,,,,,,,,,,,,,,,,,,,,,,,NC11,001,2019_Dec_06_1112,ProdSingRedo,3.2.4,59.98328524748412,
23,0,23,0,,,,,,,,,,,,,,,,,,,,,,,,,,,,4267.787887392333,None,throw,silent,red,89,330,4265.787224646192,None,None,4265.787224646192,None,,,,,,,,,,,,,,,,,,,,,,,,,,,,,,,,,NC11,001,2019_Dec_06_1112,ProdSingRedo,3.2.4,59.98328524748412,
24,0,24,0,,,,,,,,,,,,,,,,,,,,,,,,,,,,4270.305321249878,None,company,aloud,blue,51,64,4268.304519796744,None,None,4268.304519796744,None,,,,,,,,,,,,,,,,,,,,,,,,,,,,,,,,,NC11,001,2019_Dec_06_1112,ProdSingRedo,3.2.4,59.98328524748412,
25,0,25,0,,,,,,,,,,,,,,,,,,,,,,,,,,,,4272.822767236503,None,weight,aloud,blue,46,353,4270.822078366298,None,None,4270.822078366298,None,,,,,,,,,,,,,,,,,,,,,,,,,,,,,,,,,NC11,001,2019_Dec_06_1112,ProdSingRedo,3.2.4,59.98328524748412,
26,0,26,0,,,,,,,,,,,,,,,,,,,,,,,,,,,,4275.340215400094,None,murder,sing,yellow,20,195,4273.339552032296,None,None,4273.339552032296,None,,,,,,,,,,,,,,,,,,,,,,,,,,,,,,,,,NC11,001,2019_Dec_06_1112,ProdSingRedo,3.2.4,59.98328524748412,
27,0,27,0,,,,,,,,,,,,,,,,,,,,,,,,,,,,4277.857592344284,None,frank,silent,red,86,133,4275.85688139312,None,None,4275.85688139312,None,,,,,,,,,,,,,,,,,,,,,,,,,,,,,,,,,NC11,001,2019_Dec_06_1112,ProdSingRedo,3.2.4,59.98328524748412,
28,0,28,0,,,,,,,,,,,,,,,,,,,,,,,,,,,,4280.3750731633045,None,member,aloud,blue,41,188,4278.37427730835,None,None,4278.37427730835,None,,,,,,,,,,,,,,,,,,,,,,,,,,,,,,,,,NC11,001,2019_Dec_06_1112,ProdSingRedo,3.2.4,59.98328524748412,
29,0,29,0,,,,,,,,,,,,,,,,,,,,,,,,,,,,4282.892515728949,None,platform,sing,yellow,10,224,4280.891861069016,None,None,4280.891861069016,None,,,,,,,,,,,,,,,,,,,,,,,,,,,,,,,,,NC11,001,2019_Dec_06_1112,ProdSingRedo,3.2.4,59.98328524748412,
30,0,30,0,,,,,,,,,,,,,,,,,,,,,,,,,,,,4285.409929060377,None,escape,aloud,blue,58,118,4283.409293371486,None,None,4283.409293371486,None,,,,,,,,,,,,,,,,,,,,,,,,,,,,,,,,,NC11,001,2019_Dec_06_1112,ProdSingRedo,3.2.4,59.98328524748412,
31,0,31,0,,,,,,,,,,,,,,,,,,,,,,,,,,,,4287.92741081235,None,republic,aloud,blue,52,260,4285.926725052064,None,None,4285.926725052064,None,,,,,,,,,,,,,,,,,,,,,,,,,,,,,,,,,NC11,001,2019_Dec_06_1112,ProdSingRedo,3.2.4,59.98328524748412,
32,0,32,0,,,,,,,,,,,,,,,,,,,,,,,,,,,,4290.444842181867,None,minor,aloud,blue,34,191,4288.444179435959,None,None,4288.444179435959,None,,,,,,,,,,,,,,,,,,,,,,,,,,,,,,,,,NC11,001,2019_Dec_06_1112,ProdSingRedo,3.2.4,59.98328524748412,
33,0,33,0,,,,,,,,,,,,,,,,,,,,,,,,,,,,4292.962270441465,None,volume,sing,yellow,2,349,4290.961598365335,None,None,4290.961598365335,None,,,,,,,,,,,,,,,,,,,,,,,,,,,,,,,,,NC11,001,2019_Dec_06_1112,ProdSingRedo,3.2.4,59.98328524748412,
34,0,34,0,,,,,,,,,,,,,,,,,,,,,,,,,,,,4295.479696213035,None,design,silent,red,68,91,4293.4790586582385,None,None,4293.4790586582385,None,,,,,,,,,,,,,,,,,,,,,,,,,,,,,,,,,NC11,001,2019_Dec_06_1112,ProdSingRedo,3.2.4,59.98328524748412,
35,0,35,0,,,,,,,,,,,,,,,,,,,,,,,,,,,,4297.9971397116315,None,emergency,silent,red,60,110,4295.996458616573,None,None,4295.996458616573,None,,,,,,,,,,,,,,,,,,,,,,,,,,,,,,,,,NC11,001,2019_Dec_06_1112,ProdSingRedo,3.2.4,59.98328524748412,
36,0,36,0,,,,,,,,,,,,,,,,,,,,,,,,,,,,4300.51455957396,None,staff,aloud,blue,54,301,4298.513913622126,None,None,4298.513913622126,None,,,,,,,,,,,,,,,,,,,,,,,,,,,,,,,,,NC11,001,2019_Dec_06_1112,ProdSingRedo,3.2.4,59.98328524748412,
37,0,37,0,,,,,,,,,,,,,,,,,,,,,,,,,,,,4303.032013024669,None,guard,silent,red,69,145,4301.0313801351,None,None,4301.0313801351,None,,,,,,,,,,,,,,,,,,,,,,,,,,,,,,,,,NC11,001,2019_Dec_06_1112,ProdSingRedo,3.2.4,59.98328524748412,
38,0,38,0,,,,,,,,,,,,,,,,,,,,,,,,,,,,4305.549482647562,None,count,sing,yellow,18,72,4303.548806217499,None,None,4303.548806217499,None,,,,,,,,,,,,,,,,,,,,,,,,,,,,,,,,,NC11,001,2019_Dec_06_1112,ProdSingRedo,3.2.4,59.98328524748412,
39,0,39,0,,,,,,,,,,,,,,,,,,,,,,,,,,,,4308.066909663146,None,science,aloud,blue,39,275,4306.0662540702615,None,None,4306.0662540702615,None,,,,,,,,,,,,,,,,,,,,,,,,,,,,,,,,,NC11,001,2019_Dec_06_1112,ProdSingRedo,3.2.4,59.98328524748412,
40,0,40,0,,,,,,,,,,,,,,,,,,,,,,,,,,,,4310.584357204847,None,position,silent,red,82,229,4308.58355419687,None,None,4308.58355419687,None,,,,,,,,,,,,,,,,,,,,,,,,,,,,,,,,,NC11,001,2019_Dec_06_1112,ProdSingRedo,3.2.4,59.98328524748412,
41,0,41,0,,,,,,,,,,,,,,,,,,,,,,,,,,,,4313.1017764452845,None,region,sing,yellow,26,256,4311.101117431419,None,None,4311.101117431419,None,,,,,,,,,,,,,,,,,,,,,,,,,,,,,,,,,NC11,001,2019_Dec_06_1112,ProdSingRedo,3.2.4,59.98328524748412,
42,0,42,0,,,,,,,,,,,,,,,,,,,,,,,,,,,,4315.619222431909,None,speech,silent,red,75,298,4313.618541647913,None,None,4313.618541647913,None,,,,,,,,,,,,,,,,,,,,,,,,,,,,,,,,,NC11,001,2019_Dec_06_1112,ProdSingRedo,3.2.4,59.98328524748412,
43,0,43,0,,,,,,,,,,,,,,,,,,,,,,,,,,,,4318.13665162446,None,block,silent,red,76,25,4316.135997275589,None,None,4316.135997275589,None,,,,,,,,,,,,,,,,,,,,,,,,,,,,,,,,,NC11,001,2019_Dec_06_1112,ProdSingRedo,3.2.4,59.98328524748412,
44,0,44,0,,,,,,,,,,,,,,,,,,,,,,,,,,,,4320.654034477659,None,school,aloud,blue,37,274,4318.653369865846,None,None,4318.653369865846,None,,,,,,,,,,,,,,,,,,,,,,,,,,,,,,,,,NC11,001,2019_Dec_06_1112,ProdSingRedo,3.2.4,59.98328524748412,
45,0,45,0,,,,,,,,,,,,,,,,,,,,,,,,,,,,4323.171502545476,None,working,sing,yellow,16,357,4321.170875564916,None,None,4321.170875564916,None,,,,,,,,,,,,,,,,,,,,,,,,,,,,,,,,,NC11,001,2019_Dec_06_1112,ProdSingRedo,3.2.4,59.98328524748412,
46,0,46,0,,,,,,,,,,,,,,,,,,,,,,,,,,,,4325.688974967459,None,pressure,silent,red,78,232,4323.68831533147,None,None,4323.68831533147,None,,,,,,,,,,,,,,,,,,,,,,,,,,,,,,,,,NC11,001,2019_Dec_06_1112,ProdSingRedo,3.2.4,59.98328524748412,
47,0,47,0,,,,,,,,,,,,,,,,,,,,,,,,,,,,4328.206369949738,None,series,sing,yellow,29,279,4326.205733638955,None,None,4326.205733638955,None,,,,,,,,,,,,,,,,,,,,,,,,,,,,,,,,,NC11,001,2019_Dec_06_1112,ProdSingRedo,3.2.4,59.98328524748412,
48,0,48,0,,,,,,,,,,,,,,,,,,,,,,,,,,,,4330.723828376504,None,author,sing,yellow,0,15,4328.723191443598,None,None,4328.723191443598,None,,,,,,,,,,,,,,,,,,,,,,,,,,,,,,,,,NC11,001,2019_Dec_06_1112,ProdSingRedo,3.2.4,59.98328524748412,
49,0,49,0,,,,,,,,,,,,,,,,,,,,,,,,,,,,4333.241335319588,None,people,aloud,blue,35,216,4331.240501522319,None,None,4331.240501522319,None,,,,,,,,,,,,,,,,,,,,,,,,,,,,,,,,,NC11,001,2019_Dec_06_1112,ProdSingRedo,3.2.4,59.98328524748412,
50,0,50,0,,,,,,,,,,,,,,,,,,,,,,,,,,,,4335.758706354769,None,leader,sing,yellow,27,168,4333.758062890964,None,None,4333.758062890964,None,,,,,,,,,,,,,,,,,,,,,,,,,,,,,,,,,NC11,001,2019_Dec_06_1112,ProdSingRedo,3.2.4,59.98328524748412,
51,0,51,0,,,,,,,,,,,,,,,,,,,,,,,,,,,,4338.2761856187135,None,nation,sing,yellow,9,198,4336.275528470753,None,None,4336.275528470753,None,,,,,,,,,,,,,,,,,,,,,,,,,,,,,,,,,NC11,001,2019_Dec_06_1112,ProdSingRedo,3.2.4,59.98328524748412,
52,0,52,0,,,,,,,,,,,,,,,,,,,,,,,,,,,,4340.793603615137,None,crowd,sing,yellow,11,81,4338.792953931261,None,None,4338.792953931261,None,,,,,,,,,,,,,,,,,,,,,,,,,,,,,,,,,NC11,001,2019_Dec_06_1112,ProdSingRedo,3.2.4,59.98328524748412,
53,0,53,0,,,,,,,,,,,,,,,,,,,,,,,,,,,,4343.3110412047245,None,suspect,sing,yellow,12,318,4341.310317813186,None,None,4341.310317813186,None,,,,,,,,,,,,,,,,,,,,,,,,,,,,,,,,,NC11,001,2019_Dec_06_1112,ProdSingRedo,3.2.4,59.98328524748412,
54,0,54,0,,,,,,,,,,,,,,,,,,,,,,,,,,,,4345.82848128234,None,poetry,sing,yellow,23,225,4343.827697867528,None,None,4343.827697867528,None,,,,,,,,,,,,,,,,,,,,,,,,,,,,,,,,,NC11,001,2019_Dec_06_1112,ProdSingRedo,3.2.4,59.98328524748412,
55,0,55,0,,,,,,,,,,,,,,,,,,,,,,,,,,,,4348.345922915032,None,piece,sing,yellow,5,221,4346.345230001723,None,None,4346.345230001723,None,,,,,,,,,,,,,,,,,,,,,,,,,,,,,,,,,NC11,001,2019_Dec_06_1112,ProdSingRedo,3.2.4,59.98328524748412,
56,0,56,0,,,,,,,,,,,,,,,,,,,,,,,,,,,,4350.863305146107,None,stand,sing,yellow,4,302,4348.86267629941,None,None,4348.86267629941,None,,,,,,,,,,,,,,,,,,,,,,,,,,,,,,,,,NC11,001,2019_Dec_06_1112,ProdSingRedo,3.2.4,59.98328524748412,
57,0,57,0,,,,,,,,,,,,,,,,,,,,,,,,,,,,4353.3807893861085,None,curve,aloud,blue,33,82,4351.380143434275,None,None,4351.380143434275,None,,,,,,,,,,,,,,,,,,,,,,,,,,,,,,,,,NC11,001,2019_Dec_06_1112,ProdSingRedo,3.2.4,59.98328524748412,
58,0,58,0,,,,,,,,,,,,,,,,,,,,,,,,,,,,4355.898216090631,None,raise,silent,red,65,250,4353.89757449273,None,None,4353.89757449273,None,,,,,,,,,,,,,,,,,,,,,,,,,,,,,,,,,NC11,001,2019_Dec_06_1112,ProdSingRedo,3.2.4,59.98328524748412,
59,0,59,0,,,,,,,,,,,,,,,,,,,,,,,,,,,,4358.415667986264,None,foundation,sing,yellow,24,132,4356.415022656554,None,None,4356.415022656554,None,,,,,,,,,,,,,,,,,,,,,,,,,,,,,,,,,NC11,001,2019_Dec_06_1112,ProdSingRedo,3.2.4,59.98328524748412,
60,0,60,0,,,,,,,,,,,,,,,,,,,,,,,,,,,,4360.933117083041,None,angle,aloud,blue,57,7,4358.932458380004,None,None,4358.932458380004,None,,,,,,,,,,,,,,,,,,,,,,,,,,,,,,,,,NC11,001,2019_Dec_06_1112,ProdSingRedo,3.2.4,59.98328524748412,
61,0,61,0,,,,,,,,,,,,,,,,,,,,,,,,,,,,4363.4505332135595,None,shear,silent,red,81,283,4361.449889749754,None,None,4361.449889749754,None,,,,,,,,,,,,,,,,,,,,,,,,,,,,,,,,,NC11,001,2019_Dec_06_1112,ProdSingRedo,3.2.4,59.98328524748412,
62,0,62,0,,,,,,,,,,,,,,,,,,,,,,,,,,,,4365.967999415239,None,master,aloud,blue,45,180,4363.967219110578,None,None,4363.967219110578,None,,,,,,,,,,,,,,,,,,,,,,,,,,,,,,,,,NC11,001,2019_Dec_06_1112,ProdSingRedo,3.2.4,59.98328524748412,
63,0,63,0,,,,,,,,,,,,,,,,,,,,,,,,,,,,4368.485438248841,None,mankind,silent,red,83,178,4366.484615958761,None,None,4366.484615958761,None,,,,,,,,,,,,,,,,,,,,,,,,,,,,,,,,,NC11,001,2019_Dec_06_1112,ProdSingRedo,3.2.4,59.98328524748412,
64,0,64,0,,,,,,,,,,,,,,,,,,,,,,,,,,,,4371.002848159289,None,tragedy,aloud,blue,55,335,4369.002043596236,None,None,4369.002043596236,None,,,,,,,,,,,,,,,,,,,,,,,,,,,,,,,,,NC11,001,2019_Dec_06_1112,ProdSingRedo,3.2.4,59.98328524748412,
65,0,65,0,,,,,,,,,,,,,,,,,,,,,,,,,,,,4373.520278595854,None,whole,silent,red,63,355,4371.519642907195,None,None,4371.519642907195,None,,,,,,,,,,,,,,,,,,,,,,,,,,,,,,,,,NC11,001,2019_Dec_06_1112,ProdSingRedo,3.2.4,59.98328524748412,
66,0,66,0,,,,,,,,,,,,,,,,,,,,,,,,,,,,4376.0377488406375,None,atmosphere,aloud,blue,47,12,4374.036976933014,None,None,4374.036976933014,None,,,,,,,,,,,,,,,,,,,,,,,,,,,,,,,,,NC11,001,2019_Dec_06_1112,ProdSingRedo,3.2.4,59.98328524748412,
67,0,67,0,,,,,,,,,,,,,,,,,,,,,,,,,,,,4378.555153153138,None,bicycle,aloud,blue,38,21,4376.554544210434,None,None,4376.554544210434,None,,,,,,,,,,,,,,,,,,,,,,,,,,,,,,,,,NC11,001,2019_Dec_06_1112,ProdSingRedo,3.2.4,59.98328524748412,
68,0,68,0,,,,,,,,,,,,,,,,,,,,,,,,,,,,4381.0726199769415,None,drink,silent,red,72,105,4379.071961584967,None,None,4379.071961584967,None,,,,,,,,,,,,,,,,,,,,,,,,,,,,,,,,,NC11,001,2019_Dec_06_1112,ProdSingRedo,3.2.4,59.98328524748412,
69,0,69,0,,,,,,,,,,,,,,,,,,,,,,,,,,,,4383.590070939623,None,comedy,aloud,blue,56,58,4381.589404772734,None,None,4381.589404772734,None,,,,,,,,,,,,,,,,,,,,,,,,,,,,,,,,,NC11,001,2019_Dec_06_1112,ProdSingRedo,3.2.4,59.98328524748412,
70,0,70,0,,,,,,,,,,,,,,,,,,,,,,,,,,,,4386.107478983933,None,edition,silent,red,77,107,4384.106843295274,None,None,4384.106843295274,None,,,,,,,,,,,,,,,,,,,,,,,,,,,,,,,,,NC11,001,2019_Dec_06_1112,ProdSingRedo,3.2.4,59.98328524748412,
71,0,71,0,,,,,,,,,,,,,,,,,,,,,,,,,,,,4388.624943319708,None,ground,silent,red,85,142,4386.624266889645,None,None,4386.624266889645,None,,,,,,,,,,,,,,,,,,,,,,,,,,,,,,,,,NC11,001,2019_Dec_06_1112,ProdSingRedo,3.2.4,59.98328524748412,
72,0,72,0,,,,,,,,,,,,,,,,,,,,,,,,,,,,4391.142366914311,None,answer,aloud,blue,48,8,4389.141708833398,None,None,4389.141708833398,None,,,,,,,,,,,,,,,,,,,,,,,,,,,,,,,,,NC11,001,2019_Dec_06_1112,ProdSingRedo,3.2.4,59.98328524748412,
73,0,73,0,,,,,,,,,,,,,,,,,,,,,,,,,,,,4393.659812900936,None,career,sing,yellow,19,42,4391.659094174625,None,None,4391.659094174625,None,,,,,,,,,,,,,,,,,,,,,,,,,,,,,,,,,NC11,001,2019_Dec_06_1112,ProdSingRedo,3.2.4,59.98328524748412,
74,0,74,0,,,,,,,,,,,,,,,,,,,,,,,,,,,,4396.177274126792,None,write,silent,red,79,358,4394.1765970746055,None,None,4394.1765970746055,None,,,,,,,,,,,,,,,,,,,,,,,,,,,,,,,,,NC11,001,2019_Dec_06_1112,ProdSingRedo,3.2.4,59.98328524748412,
75,0,75,0,,,,,,,,,,,,,,,,,,,,,,,,,,,,4398.6946908792015,None,provision,sing,yellow,28,243,4396.69384992891,None,None,4396.69384992891,None,,,,,,,,,,,,,,,,,,,,,,,,,,,,,,,,,NC11,001,2019_Dec_06_1112,ProdSingRedo,3.2.4,59.98328524748412,
76,0,76,0,,,,,,,,,,,,,,,,,,,,,,,,,,,,4401.2120920815505,None,colonel,silent,red,67,55,4399.211342254886,None,None,4399.211342254886,None,,,,,,,,,,,,,,,,,,,,,,,,,,,,,,,,,NC11,001,2019_Dec_06_1112,ProdSingRedo,3.2.4,59.98328524748412,
77,0,77,0,,,,,,,,,,,,,,,,,,,,,,,,,,,,4403.729565125424,None,symbol,aloud,blue,44,321,4401.7288737671915,None,None,4401.7288737671915,None,,,,,,,,,,,,,,,,,,,,,,,,,,,,,,,,,NC11,001,2019_Dec_06_1112,ProdSingRedo,3.2.4,59.98328524748412,
78,0,78,0,,,,,,,,,,,,,,,,,,,,,,,,,,,,4406.2469834329095,None,height,aloud,blue,43,152,4404.246329705929,None,None,4404.246329705929,None,,,,,,,,,,,,,,,,,,,,,,,,,,,,,,,,,NC11,001,2019_Dec_06_1112,ProdSingRedo,3.2.4,59.98328524748412,
79,0,79,0,,,,,,,,,,,,,,,,,,,,,,,,,,,,4408.764419467421,None,permit,aloud,blue,30,218,4406.763780979672,None,None,4406.763780979672,None,,,,,,,,,,,,,,,,,,,,,,,,,,,,,,,,,NC11,001,2019_Dec_06_1112,ProdSingRedo,3.2.4,59.98328524748412,
80,0,80,0,,,,,,,,,,,,,,,,,,,,,,,,,,,,4411.281879760325,None,health,silent,red,87,149,4409.28120022011,None,None,4409.28120022011,None,,,,,,,,,,,,,,,,,,,,,,,,,,,,,,,,,NC11,001,2019_Dec_06_1112,ProdSingRedo,3.2.4,59.98328524748412,
81,0,81,0,,,,,,,,,,,,,,,,,,,,,,,,,,,,4413.799300866667,None,under,silent,red,66,343,4411.7986620680895,None,None,4411.7986620680895,None,,,,,,,,,,,,,,,,,,,,,,,,,,,,,,,,,NC11,001,2019_Dec_06_1112,ProdSingRedo,3.2.4,59.98328524748412,
82,0,82,0,,,,,,,,,,,,,,,,,,,,,,,,,,,,4416.316749963444,None,message,aloud,blue,36,189,4414.316075710347,None,None,4414.316075710347,None,,,,,,,,,,,,,,,,,,,,,,,,,,,,,,,,,NC11,001,2019_Dec_06_1112,ProdSingRedo,3.2.4,59.98328524748412,
83,0,83,0,,,,,,,,,,,,,,,,,,,,,,,,,,,,4418.834179777885,None,discovery,silent,red,70,95,4416.833479711786,None,None,4416.833479711786,None,,,,,,,,,,,,,,,,,,,,,,,,,,,,,,,,,NC11,001,2019_Dec_06_1112,ProdSingRedo,3.2.4,59.98328524748412,
84,0,84,0,,,,,,,,,,,,,,,,,,,,,,,,,,,,4421.35163478367,None,personnel,aloud,blue,32,219,4419.350944358623,None,None,4419.350944358623,None,,,,,,,,,,,,,,,,,,,,,,,,,,,,,,,,,NC11,001,2019_Dec_06_1112,ProdSingRedo,3.2.4,59.98328524748412,
85,0,85,0,,,,,,,,,,,,,,,,,,,,,,,,,,,,4423.869048737222,None,plane,aloud,blue,40,223,4421.868416780373,None,None,4421.868416780373,None,,,,,,,,,,,,,,,,,,,,,,,,,,,,,,,,,NC11,001,2019_Dec_06_1112,ProdSingRedo,3.2.4,59.98328524748412,
86,0,86,0,,,,,,,,,,,,,,,,,,,,,,,,,,,,4426.386506852927,None,store,sing,yellow,13,305,4424.385856236098,None,None,4424.385856236098,None,,,,,,,,,,,,,,,,,,,,,,,,,,,,,,,,,NC11,001,2019_Dec_06_1112,ProdSingRedo,3.2.4,59.98328524748412,
87,0,87,0,,,,,,,,,,,,,,,,,,,,,,,,,,,,4428.903902146267,None,straight,aloud,blue,49,307,4426.903175022686,None,None,4426.903175022686,None,,,,,,,,,,,,,,,,,,,,,,,,,,,,,,,,,NC11,001,2019_Dec_06_1112,ProdSingRedo,3.2.4,59.98328524748412,
88,0,88,0,,,,,,,,,,,,,,,,,,,,,,,,,,,,4431.421386075206,None,religion,sing,yellow,25,258,4429.420662994729,None,None,4429.420662994729,None,,,,,,,,,,,,,,,,,,,,,,,,,,,,,,,,,NC11,001,2019_Dec_06_1112,ProdSingRedo,3.2.4,59.98328524748412,
89,0,89,0,,,,,,,,,,,,,,,,,,,,,,,,,,,,4433.938811224652,None,machinery,silent,red,71,175,4431.93801847985,None,None,4431.93801847985,None,,,,,,,,,,,,,,,,,,,,,,,,,,,,,,,,,NC11,001,2019_Dec_06_1112,ProdSingRedo,3.2.4,59.98328524748412,
,,,,,,,,,,,,,,,,,,,,,,,,,,,,,,,,,,,,,,,,,,,4434.438957706792,None,k,136.61983479559422,4434.438957706792,None,,,,,,,,,,,,,,,,,,,,,,,,,,,NC11,001,2019_Dec_06_1112,ProdSingRedo,3.2.4,59.98328524748412,
,,,,0,0,0,0,,,,,,,,,,,,,,,,,,,,,,,,4580.283519986551,None,,,,,,,,,,,,,,,,,fashion,new_b,white,0,126,125,4571.59893295099,None,4571.59893295099,None,6,5.219390995102003,4571.59893295099,None,4576.865885532461,None,4577.382758652791,None,4577.382758652791,None,n,2.867511452641338,4577.382758652791,None,,,NC11,001,2019_Dec_06_1112,ProdSingRedo,3.2.4,59.98328524748412,
,,,,1,0,1,0,,,,,,,,,,,,,,,,,,,,,,,,4584.968413359486,None,,,,,,,,,,,,,,,,,speech,silent,white,1,75,298,4580.800489828689,None,4580.800489828689,None,5,2.233622461790219,4580.800489828689,None,4583.068677400472,None,4583.584641771857,None,4583.584641771857,None,f,1.3452688769903034,4583.584641771857,None,,,NC11,001,2019_Dec_06_1112,ProdSingRedo,3.2.4,59.98328524748412,
,,,,2,0,2,0,,,,,,,,,,,,,,,,,,,,,,,,4590.820185917197,None,,,,,,,,,,,,,,,,,block,silent,white,2,76,25,4585.485325355083,None,4585.485325355083,None,3,3.452292553614825,4585.485325355083,None,4588.98900451255,None,4589.503075191053,None,4589.503075191053,None,f,1.2746921854559332,4589.503075191053,None,,,NC11,001,2019_Dec_06_1112,ProdSingRedo,3.2.4,59.98328524748412,
,,,,3,0,3,0,,,,,,,,,,,,,,,,,,,,,,,,4596.621994084679,None,,,,,,,,,,,,,,,,,election,new_c,white,3,151,109,4591.337050329428,None,4591.337050329428,None,5,2.8483114130795,4591.337050329428,None,4594.225334871793,None,4594.73807508219,None,4594.73807508219,None,n,1.847107522888109,4594.73807508219,None,,,NC11,001,2019_Dec_06_1112,ProdSingRedo,3.2.4,59.98328524748412,
,,,,4,0,4,0,,,,,,,,,,,,,,,,,,,,,,,,4601.723544431385,None,,,,,,,,,,,,,,,,,passage,new_c,white,4,173,212,4597.138657900505,None,4597.138657900505,None,6,2.3343977904878557,4597.138657900505,None,4599.5076587432995,None,4600.022907809587,None,4600.022907809587,None,r,1.6659101017285138,4600.022907809587,None,,,NC11,001,2019_Dec_06_1112,ProdSingRedo,3.2.4,59.98328524748412,
,,,,5,0,5,0,,,,,,,,,,,,,,,,,,,,,,,,4605.85812882334,None,,,,,,,,,,,,,,,,,suspect,sing,white,5,12,318,4602.240216333186,None,4602.240216333186,None,6,2.1445181174203753,4602.240216333186,None,4604.427011174383,None,4604.941166756442,None,4604.941166756442,None,r,0.883636612445116,4604.941166756442,None,,,NC11,001,2019_Dec_06_1112,ProdSingRedo,3.2.4,59.98328524748412,
,,,,6,0,6,0,,,,,,,,,,,,,,,,,,,,,,,,4609.092475609621,None,,,,,,,,,,,,,,,,,school,aloud,white,6,37,274,4606.374835246475,None,4606.374835246475,None,6,1.6976799224503338,4606.374835246475,None,4608.108807585901,None,4608.625658625271,None,4608.625658625271,None,r,0.43076621647924185,4608.625658625271,None,,,NC11,001,2019_Dec_06_1112,ProdSingRedo,3.2.4,59.98328524748412,
,,,,7,0,7,0,,,,,,,,,,,,,,,,,,,,,,,,4612.910305995261,None,,,,,,,,,,,,,,,,,platform,sing,white,7,10,224,4609.609328203835,None,4609.609328203835,None,6,1.6309972910676152,4609.609328203835,None,4611.2799185796175,None,4611.793296344811,None,4611.793296344811,None,r,1.0789131089113653,4611.793296344811,None,,,NC11,001,2019_Dec_06_1112,ProdSingRedo,3.2.4,59.98328524748412,
,,,,8,0,8,0,,,,,,,,,,,,,,,,,,,,,,,,4616.444718713872,None,,,,,,,,,,,,,,,,,position,silent,white,8,82,229,4613.414851294132,None,4613.414851294132,None,5,1.7051837868057191,4613.414851294132,None,4615.164255569223,None,4615.677837663097,None,4615.677837663097,None,f,0.7224593441933393,4615.677837663097,None,,,NC11,001,2019_Dec_06_1112,ProdSingRedo,3.2.4,59.98328524748412,
,,,,9,0,9,0,,,,,,,,,,,,,,,,,,,,,,,,4620.9627823513,None,,,,,,,,,,,,,,,,,native,new_c,white,9,161,199,4616.963189453352,None,4616.963189453352,None,1,1.8606690904125571,4616.963189453352,None,4618.864927023184,None,4619.378900979878,None,4619.378900979878,None,n,1.5488842790946364,4619.378900979878,None,,,NC11,001,2019_Dec_06_1112,ProdSingRedo,3.2.4,59.98328524748412,
,,,,10,0,10,0,,,,,,,,,,,,,,,,,,,,,,,,4624.530546959722,None,,,,,,,,,,,,,,,,,minor,aloud,white,10,34,191,4621.479612242198,None,4621.479612242198,None,6,1.4959246253129095,4621.479612242198,None,4623.015856142854,None,4623.530233780388,None,4623.530233780388,None,r,0.9652669487986714,4623.530233780388,None,,,NC11,001,2019_Dec_06_1112,ProdSingRedo,3.2.4,59.98328524748412,
,,,,11,0,11,0,,,,,,,,,,,,,,,,,,,,,,,,4630.0989024727605,None,,,,,,,,,,,,,,,,,dance,new_c,white,11,150,84,4625.047382759862,None,4625.047382759862,None,3,3.6080502953846008,4625.047382759862,None,4628.698466447415,None,4629.215270836372,None,4629.215270836372,None,f,0.8478915595915169,4629.215270836372,None,,,NC11,001,2019_Dec_06_1112,ProdSingRedo,3.2.4,59.98328524748412,
,,,,12,0,12,0,,,,,,,,,,,,,,,,,,,,,,,,4635.58388759126,None,,,,,,,,,,,,,,,,,curve,aloud,white,12,33,82,4630.615670163417,None,4630.615670163417,None,6,3.5914107374846935,4630.615670163417,None,4634.251293614274,None,4634.767006384907,None,4634.767006384907,None,r,0.7757499043364078,4634.767006384907,None,,,NC11,001,2019_Dec_06_1112,ProdSingRedo,3.2.4,59.98328524748412,
,,,,13,0,13,0,,,,,,,,,,,,,,,,,,,,,,,,4639.485117605422,None,,,,,,,,,,,,,,,,,congress,new_c,white,13,158,67,4636.100611741655,None,4636.100611741655,None,3,2.0262364675290883,4636.100611741655,None,4638.172084430931,None,4638.684848588426,None,4638.684848588426,None,f,0.7617261873092502,4638.684848588426,None,,,NC11,001,2019_Dec_06_1112,ProdSingRedo,3.2.4,59.98328524748412,
,,,,14,0,14,0,,,,,,,,,,,,,,,,,,,,,,,,4643.219605275895,None,,,,,,,,,,,,,,,,,guard,silent,white,14,69,145,4640.001781421248,None,4640.001781421248,None,6,2.1645979827735573,4640.001781421248,None,4642.204728479497,None,4642.719445731724,None,4642.719445731724,None,r,0.45523308077827096,4642.719445731724,None,,,NC11,001,2019_Dec_06_1112,ProdSingRedo,3.2.4,59.98328524748412,
,,,,15,0,15,0,,,,,,,,,,,,,,,,,,,,,,,,4646.987420266727,None,,,,,,,,,,,,,,,,,oxygen,new_b,white,15,127,209,4643.737750395667,None,4643.737750395667,None,1,1.9085989033337682,4643.737750395667,None,4645.703588344855,None,4646.203820352675,None,4646.203820352675,None,n,0.7463147779926658,4646.203820352675,None,,,NC11,001,2019_Dec_06_1112,ProdSingRedo,3.2.4,59.98328524748412,
,,,,16,0,16,0,,,,,,,,,,,,,,,,,,,,,,,,4650.838613427244,None,,,,,,,,,,,,,,,,,entrance,new_a,white,16,114,115,4647.5041064748075,None,4647.5041064748075,None,1,1.9261105116456747,4647.5041064748075,None,4649.474871944869,None,4649.988329637563,None,4649.988329637563,None,n,0.809505786281079,4649.988329637563,None,,,NC11,001,2019_Dec_06_1112,ProdSingRedo,3.2.4,59.98328524748412,
,,,,17,0,17,0,,,,,,,,,,,,,,,,,,,,,,,,4654.289679076755,None,,,,,,,,,,,,,,,,,brilliant,new_a,white,17,117,30,4651.3566954135895,None,4651.3566954135895,None,1,1.3053271588869393,4651.3566954135895,None,4652.722516257549,None,4653.222686687019,None,4653.222686687019,None,n,1.0232256539165974,4653.222686687019,None,,,NC11,001,2019_Dec_06_1112,ProdSingRedo,3.2.4,59.98328524748412,
,,,,18,0,18,0,,,,,,,,,,,,,,,,,,,,,,,,4657.50731042074,None,,,,,,,,,,,,,,,,,quarter,new_c,white,18,159,246,4654.806736310478,None,4654.806736310478,None,1,1.3910154537297785,4654.806736310478,None,4656.241579456488,None,4656.75709007564,None,4656.75709007564,None,n,0.7043002292048186,4656.75709007564,None,,,NC11,001,2019_Dec_06_1112,ProdSingRedo,3.2.4,59.98328524748412,
,,,,19,0,19,0,,,,,,,,,,,,,,,,,,,,,,,,4660.558253224241,None,,,,,,,,,,,,,,,,,impact,new_a,white,19,90,157,4658.024132847786,None,4658.024132847786,None,6,1.2611595410853624,4658.024132847786,None,4659.325145471375,None,4659.841360510793,None,4659.841360510793,None,f,0.6839255334343761,4659.841360510793,None,,,NC11,001,2019_Dec_06_1112,ProdSingRedo,3.2.4,59.98328524748412,
,,,,20,0,20,0,,,,,,,,,,,,,,,,,,,,,,,,4663.342430047691,None,,,,,,,,,,,,,,,,,leader,sing,white,20,27,168,4661.075087469304,None,4661.075087469304,None,6,1.2421703608706594,4661.075087469304,None,4662.3586155420635,None,4662.875600001309,None,4662.875600001309,None,r,0.4257124285213649,4662.875600001309,None,,,NC11,001,2019_Dec_06_1112,ProdSingRedo,3.2.4,59.98328524748412,
,,,,21,0,21,0,,,,,,,,,,,,,,,,,,,,,,,,4666.410041332245,None,,,,,,,,,,,,,,,,,quiet,sing,white,21,21,249,4663.859143934911,None,4663.859143934911,None,6,1.145897412672639,4663.859143934911,None,4665.048705141759,None,4665.559625366703,None,4665.559625366703,None,r,0.8133342249784619,4665.559625366703,None,,,NC11,001,2019_Dec_06_1112,ProdSingRedo,3.2.4,59.98328524748412,
,,,,22,0,22,0,,,,,,,,,,,,,,,,,,,,,,,,4669.494307102403,None,,,,,,,,,,,,,,,,,match,new_c,white,22,169,181,4666.926862515276,None,4666.926862515276,None,3,1.6698548551648855,4666.926862515276,None,4668.646306691924,None,4669.160888658138,None,4669.160888658138,None,f,0.29207908152602613,4669.160888658138,None,,,NC11,001,2019_Dec_06_1112,ProdSingRedo,3.2.4,59.98328524748412,
,,,,23,0,23,0,,,,,,,,,,,,,,,,,,,,,,,,4672.5619174537715,None,,,,,,,,,,,,,,,,,health,silent,white,23,87,149,4670.011131395353,None,4670.011131395353,None,1,1.5134971900843084,4670.011131395353,None,4671.562618764117,None,4672.078462155769,None,4672.078462155769,None,n,0.4460930333007127,4672.078462155769,None,,,NC11,001,2019_Dec_06_1112,ProdSingRedo,3.2.4,59.98328524748412,
,,,,24,0,24,0,,,,,,,,,,,,,,,,,,,,,,,,4675.62954895338,None,,,,,,,,,,,,,,,,,public,new_a,white,24,104,244,4673.079509300413,None,4673.079509300413,None,6,1.1329556729178876,4673.079509300413,None,4674.262347880984,None,4674.762618453009,None,4674.762618453009,None,r,0.8176736405584961,4674.762618453009,None,,,NC11,001,2019_Dec_06_1112,ProdSingRedo,3.2.4,59.98328524748412,
,,,,25,0,25,0,,,,,,,,,,,,,,,,,,,,,,,,4679.4973060977645,None,,,,,,,,,,,,,,,,,orchestra,aloud,white,25,53,206,4676.1463449450675,None,4676.1463449450675,None,3,2.474210131680593,4676.1463449450675,None,4678.667733197333,None,4679.18051321595,None,4679.18051321595,None,f,0.27192892972379923,4679.18051321595,None,,,NC11,001,2019_Dec_06_1112,ProdSingRedo,3.2.4,59.98328524748412,
,,,,26,0,26,0,,,,,,,,,,,,,,,,,,,,,,,,4682.19817161723,None,,,,,,,,,,,,,,,,,design,silent,white,26,68,91,4680.014171132119,None,4680.014171132119,None,6,1.2618736024014652,4680.014171132119,None,4681.3145359379705,None,4681.831442335388,None,4681.831442335388,None,r,0.3326387614943087,4681.831442335388,None,,,NC11,001,2019_Dec_06_1112,ProdSingRedo,3.2.4,59.98328524748412,
,,,,27,0,27,0,,,,,,,,,,,,,,,,,,,,,,,,4684.732322161086,None,,,,,,,,,,,,,,,,,music,new_c,white,27,178,196,4682.715052512707,None,4682.715052512707,None,6,1.0169661100953817,4682.715052512707,None,4683.767582050292,None,4684.282196982764,None,4684.282196982764,None,r,0.4016315182670951,4684.282196982764,None,,,NC11,001,2019_Dec_06_1112,ProdSingRedo,3.2.4,59.98328524748412,
,,,,28,0,28,0,,,,,,,,,,,,,,,,,,,,,,,,4687.316448913189,None,,,,,,,,,,,,,,,,,watch,new_c,white,28,176,351,4685.249143966008,None,4685.249143966008,None,3,1.2747864192351699,4685.249143966008,None,4686.566158281406,None,4687.083027669927,None,4687.083027669927,None,n,0.2005367900710553,4687.083027669927,None,,,NC11,001,2019_Dec_06_1112,ProdSingRedo,3.2.4,59.98328524748412,
,,,,29,0,29,0,,,,,,,,,,,,,,,,,,,,,,,,4690.234021477867,None,,,,,,,,,,,,,,,,,worker,new_a,white,29,102,356,4687.8334100472275,None,4687.8334100472275,None,3,1.5461502578109503,4687.8334100472275,None,4689.419591280632,None,4689.9339337751735,None,4689.9339337751735,None,f,0.26148111768998206,4689.9339337751735,None,,,NC11,001,2019_Dec_06_1112,ProdSingRedo,3.2.4,59.98328524748412,
,,,,30,0,30,0,,,,,,,,,,,,,,,,,,,,,,,,4692.984860717552,None,,,,,,,,,,,,,,,,,scale,new_c,white,30,160,272,4690.750826799776,None,4690.750826799776,None,3,1.332523379707709,4690.750826799776,None,4692.1178051943425,None,4692.634692931781,None,4692.634692931781,None,f,0.3045397009700537,4692.634692931781,None,,,NC11,001,2019_Dec_06_1112,ProdSingRedo,3.2.4,59.98328524748412,
,,,,31,0,31,0,,,,,,,,,,,,,,,,,,,,,,,,4695.652335783001,None,,,,,,,,,,,,,,,,,count,sing,white,31,18,72,4693.501657331362,None,4693.501657331362,None,6,1.157744424417615,4693.501657331362,None,4694.704532547854,None,4695.218875664286,None,4695.218875664286,None,r,0.400611741701141,4695.218875664286,None,,,NC11,001,2019_Dec_06_1112,ProdSingRedo,3.2.4,59.98328524748412,
,,,,32,0,32,0,,,,,,,,,,,,,,,,,,,,,,,,4699.620216706302,None,,,,,,,,,,,,,,,,,prime,new_c,white,32,157,235,4696.169167851098,None,4696.169167851098,None,2,2.1937998575158417,4696.169167851098,None,4698.403153563617,None,4698.919999004807,None,4698.919999004807,None,n,0.6590145579539239,4698.919999004807,None,,,NC11,001,2019_Dec_06_1112,ProdSingRedo,3.2.4,59.98328524748412,
,,,,33,0,33,0,,,,,,,,,,,,,,,,,,,,,,,,4702.55446925899,None,,,,,,,,,,,,,,,,,foundation,sing,white,33,24,132,4700.137044420466,None,4700.137044420466,None,2,1.465679959859699,4700.137044420466,None,4701.641492997762,None,4702.154301006813,None,4702.154301006813,None,n,0.3604271304793656,4702.154301006813,None,,,NC11,001,2019_Dec_06_1112,ProdSingRedo,3.2.4,59.98328524748412,
,,,,34,0,34,0,,,,,,,,,,,,,,,,,,,,,,,,4705.605383761227,None,,,,,,,,,,,,,,,,,subject,new_c,white,34,170,312,4703.077341303229,None,4703.077341303229,None,6,1.669425361091271,4703.077341303229,None,4704.805100127123,None,4705.30515113147,None,4705.30515113147,None,r,0.25756964134052396,4705.30515113147,None,,,NC11,001,2019_Dec_06_1112,ProdSingRedo,3.2.4,59.98328524748412,
,,,,35,0,35,0,,,,,,,,,,,,,,,,,,,,,,,,4708.072805956239,None,,,,,,,,,,,,,,,,,tragedy,aloud,white,35,55,335,4706.122151451884,None,4706.122151451884,None,6,1.2482669395394623,4706.122151451884,None,4707.4105296058115,None,4707.922620132333,None,4707.922620132333,None,r,0.10370092769153416,4707.922620132333,None,,,NC11,001,2019_Dec_06_1112,ProdSingRedo,3.2.4,59.98328524748412,
,,,,36,0,36,0,,,,,,,,,,,,,,,,,,,,,,,,4710.890343688661,None,,,,,,,,,,,,,,,,,shear,silent,white,36,81,283,4708.589618742233,None,4708.589618742233,None,1,1.6525612596888095,4708.589618742233,None,4710.290672729025,None,4710.806982935406,None,4710.806982935406,None,n,0.03526673116721213,4710.806982935406,None,,,NC11,001,2019_Dec_06_1112,ProdSingRedo,3.2.4,59.98328524748412,
,,,,37,0,37,0,,,,,,,,,,,,,,,,,,,,,,,,4714.924899468431,None,,,,,,,,,,,,,,,,,rural,new_c,white,37,156,269,4711.407171091763,None,4711.407171091763,None,1,2.714836988132447,4711.407171091763,None,4714.1600735208485,None,4714.67484706454,None,4714.67484706454,None,n,0.2151734926737845,4714.67484706454,None,,,NC11,001,2019_Dec_06_1112,ProdSingRedo,3.2.4,59.98328524748412,
,,,,38,0,38,0,,,,,,,,,,,,,,,,,,,,,,,,4718.209248276195,None,,,,,,,,,,,,,,,,,present,new_a,white,38,116,231,4715.441739311675,None,4715.441739311675,None,4,1.2162427187431604,4715.441739311675,None,4716.695488600293,None,4717.208872585557,None,4717.208872585557,None,f,0.960900787031278,4717.208872585557,None,,,NC11,001,2019_Dec_06_1112,ProdSingRedo,3.2.4,59.98328524748412,
,,,,39,0,39,0,,,,,,,,,,,,,,,,,,,,,,,,4721.376867957646,None,,,,,,,,,,,,,,,,,division,new_a,white,39,95,101,4718.725931063294,None,4718.725931063294,None,4,1.4676616666838527,4718.725931063294,None,4720.229284601286,None,4720.743411571253,None,4720.743411571253,None,f,0.5860960187856108,4720.743411571253,None,,,NC11,001,2019_Dec_06_1112,ProdSingRedo,3.2.4,59.98328524748412,
,,,,40,0,40,0,,,,,,,,,,,,,,,,,,,,,,,,4724.944612662075,None,,,,,,,,,,,,,,,,,comedy,aloud,white,40,56,58,4721.893526175525,None,4721.893526175525,None,6,1.0599083786364645,4721.893526175525,None,4723.010500682751,None,4723.510864866432,None,4723.510864866432,None,r,1.3864328344352543,4723.510864866432,None,,,NC11,001,2019_Dec_06_1112,ProdSingRedo,3.2.4,59.98328524748412,
,,,,41,0,41,0,,,,,,,,,,,,,,,,,,,,,,,,4728.012220836477,None,,,,,,,,,,,,,,,,,stand,sing,white,41,4,302,4725.461450328352,None,4725.461450328352,None,3,1.5717476152349263,4725.461450328352,None,4727.080437020399,None,4727.595458744094,None,4727.595458744094,None,f,0.37388700037263334,4727.595458744094,None,,,NC11,001,2019_Dec_06_1112,ProdSingRedo,3.2.4,59.98328524748412,
,,,,42,0,42,0,,,,,,,,,,,,,,,,,,,,,,,,4731.263269691961,None,,,,,,,,,,,,,,,,,defeat,new_b,white,42,143,88,4728.528939388692,None,4728.528939388692,None,1,1.8083162023685873,4728.528939388692,None,4730.382411885308,None,4730.8964511523955,None,4730.8964511523955,None,n,0.32047079550102353,4730.8964511523955,None,,,NC11,001,2019_Dec_06_1112,ProdSingRedo,3.2.4,59.98328524748412,
,,,,43,0,43,0,,,,,,,,,,,,,,,,,,,,,,,,4734.747613212559,None,,,,,,,,,,,,,,,,,strain,new_c,white,43,153,308,4731.780097405892,None,4731.780097405892,None,2,1.9570428032893687,4731.780097405892,None,4733.780941466335,None,4734.297489278251,None,4734.297489278251,None,n,0.40742300380952656,4734.297489278251,None,,,NC11,001,2019_Dec_06_1112,ProdSingRedo,3.2.4,59.98328524748412,
,,,,44,0,44,0,,,,,,,,,,,,,,,,,,,,,,,,4737.481821291847,None,,,,,,,,,,,,,,,,,discovery,silent,white,44,70,95,4735.264419156592,None,4735.264419156592,None,6,1.0084530431777239,4735.264419156592,None,4736.320862658322,None,4736.831626759842,None,4736.831626759842,None,f,0.609222152037546,4736.831626759842,None,,,NC11,001,2019_Dec_06_1112,ProdSingRedo,3.2.4,59.98328524748412,
,,,,45,0,45,0,,,,,,,,,,,,,,,,,,,,,,,,4742.750117092393,None,,,,,,,,,,,,,,,,,state,new_b,white,45,137,303,4737.998649627902,None,4737.998649627902,None,1,3.513696853769943,4737.998649627902,None,4741.549984916346,None,4742.066552321427,None,4742.066552321427,None,f,0.6376347029581666,4742.066552321427,None,,,NC11,001,2019_Dec_06_1112,ProdSingRedo,3.2.4,59.98328524748412,
,,,,46,0,46,0,,,,,,,,,,,,,,,,,,,,,,,,4745.267536954954,None,,,,,,,,,,,,,,,,,account,new_c,white,46,168,1,4743.266929878388,None,4743.266929878388,None,4,1.2693998587783426,4743.266929878388,None,4744.5839665858075,None,4745.100821979111,None,4745.100821979111,None,f,0.12358828261494637,4745.100821979111,None,,,NC11,001,2019_Dec_06_1112,ProdSingRedo,3.2.4,59.98328524748412,
,,,,47,0,47,0,,,,,,,,,,,,,,,,,,,,,,,,4750.369108138606,None,,,,,,,,,,,,,,,,,harmony,aloud,white,47,42,148,4745.784221918788,None,4745.784221918788,None,6,1.6317309455480427,4745.784221918788,None,4747.457453637384,None,4747.968227069126,None,4747.968227069126,None,r,2.367634298512712,4747.968227069126,None,,,NC11,001,2019_Dec_06_1112,ProdSingRedo,3.2.4,59.98328524748412,
,,,,48,0,48,0,,,,,,,,,,,,,,,,,,,,,,,,4753.453362401575,None,,,,,,,,,,,,,,,,,point,silent,white,48,80,226,4750.88594580465,None,4750.88594580465,None,6,1.322021452942863,4750.88594580465,None,4752.256670844508,None,4752.7698442810215,None,4752.7698442810215,None,r,0.6457646149210632,4752.7698442810215,None,,,NC11,001,2019_Dec_06_1112,ProdSingRedo,3.2.4,59.98328524748412,
,,,,49,0,49,0,,,,,,,,,,,,,,,,,,,,,,,,4756.2209058876615,None,,,,,,,,,,,,,,,,,income,new_b,white,49,141,159,4753.970074733952,None,4753.970074733952,None,2,1.5974569339305162,4753.970074733952,None,4755.606146649923,None,4756.12087292131,None,4756.12087292131,None,n,0.06256900355219841,4756.12087292131,None,,,NC11,001,2019_Dec_06_1112,ProdSingRedo,3.2.4,59.98328524748412,
,,,,50,0,50,0,,,,,,,,,,,,,,,,,,,,,,,,4758.688303513452,None,,,,,,,,,,,,,,,,,weight,aloud,white,50,46,353,4756.737701879349,None,4756.737701879349,None,6,1.0935936630703509,4756.737701879349,None,4757.872604737757,None,4758.388261839049,None,4758.388261839049,None,r,0.266946361400187,4758.388261839049,None,,,NC11,001,2019_Dec_06_1112,ProdSingRedo,3.2.4,59.98328524748412,
,,,,51,0,51,0,,,,,,,,,,,,,,,,,,,,,,,,4760.855637072818,None,,,,,,,,,,,,,,,,,volume,sing,white,51,2,349,4759.205158595694,None,4759.205158595694,None,6,0.8980388194322586,4759.205158595694,None,4760.140120233409,None,4760.655485303607,None,4760.655485303607,None,r,0.15963967284187675,4760.655485303607,None,,,NC11,001,2019_Dec_06_1112,ProdSingRedo,3.2.4,59.98328524748412,
,,,,52,0,52,0,,,,,,,,,,,,,,,,,,,,,,,,4763.706531981938,None,,,,,,,,,,,,,,,,,answer,aloud,white,52,48,8,4761.372327634832,None,4761.372327634832,None,6,0.8026920361444354,4761.372327634832,None,4762.222651854623,None,4762.739561362425,None,4762.739561362425,None,r,0.9237105066422373,4762.739561362425,None,,,NC11,001,2019_Dec_06_1112,ProdSingRedo,3.2.4,59.98328524748412,
,,,,53,0,53,0,,,,,,,,,,,,,,,,,,,,,,,,4765.773827288067,None,,,,,,,,,,,,,,,,,surface,silent,white,53,62,316,4764.2231976636685,None,4764.2231976636685,None,6,0.9038558069150895,4764.2231976636685,None,4765.176999200834,None,4765.690466534579,None,4765.690466534579,None,r,0.044508787570521235,4765.690466534579,None,,,NC11,001,2019_Dec_06_1112,ProdSingRedo,3.2.4,59.98328524748412,
,,,,54,0,54,0,,,,,,,,,,,,,,,,,,,,,,,,4768.84143888345,None,,,,,,,,,,,,,,,,,treatment,new_b,white,54,136,339,4766.290731197456,None,4766.290731197456,None,3,1.6600274925585836,4766.290731197456,None,4767.995285204612,None,4768.508006443968,None,4768.508006443968,None,n,0.29856970021501184,4768.508006443968,None,,,NC11,001,2019_Dec_06_1112,ProdSingRedo,3.2.4,59.98328524748412,
,,,,55,0,55,0,,,,,,,,,,,,,,,,,,,,,,,,4773.542884422233,None,,,,,,,,,,,,,,,,,session,new_a,white,55,118,281,4769.35811389517,None,4769.35811389517,None,1,2.848366149235517,4769.35811389517,None,4772.24233830208,None,4772.759283263935,None,4772.759283263935,None,n,0.7510967496782541,4772.759283263935,None,,,NC11,001,2019_Dec_06_1112,ProdSingRedo,3.2.4,59.98328524748412,
,,,,56,0,56,0,,,,,,,,,,,,,,,,,,,,,,,,4777.110629748553,None,,,,,,,,,,,,,,,,,chief,new_b,white,56,120,48,4774.059696897166,None,4774.059696897166,None,3,1.7067832718603313,4774.059696897166,None,4775.810063102283,None,4776.327065910678,None,4776.327065910678,None,n,0.7510961275547743,4776.327065910678,None,,,NC11,001,2019_Dec_06_1112,ProdSingRedo,3.2.4,59.98328524748412,
,,,,57,0,57,0,,,,,,,,,,,,,,,,,,,,,,,,4779.828159394907,None,,,,,,,,,,,,,,,,,crowd,sing,white,57,11,81,4777.627455596579,None,4777.627455596579,None,6,0.9466211150866002,4777.627455596579,None,4778.613289440516,None,4779.127931119176,None,4779.127931119176,None,r,0.6621236482169479,4779.127931119176,None,,,NC11,001,2019_Dec_06_1112,ProdSingRedo,3.2.4,59.98328524748412,
,,,,58,0,58,0,,,,,,,,,,,,,,,,,,,,,,,,4782.612318180269,None,,,,,,,,,,,,,,,,,pretty,new_a,white,58,96,233,4780.344965649769,None,4780.344965649769,None,1,1.5411129530984908,4780.344965649769,None,4781.930622533429,None,4782.44548751181,None,4782.44548751181,None,n,0.12832236010581255,4782.44548751181,None,,,NC11,001,2019_Dec_06_1112,ProdSingRedo,3.2.4,59.98328524748412,
,,,,59,0,59,0,,,,,,,,,,,,,,,,,,,,,,,,4785.879996019183,None,,,,,,,,,,,,,,,,,number,sing,white,59,3,203,4783.1290155842435,None,4783.1290155842435,None,1,1.0526977898553014,4783.1290155842435,None,4784.246080593206,None,4784.746159898816,None,4784.746159898816,None,f,1.0916551854461432,4784.746159898816,None,,,NC11,001,2019_Dec_06_1112,ProdSingRedo,3.2.4,59.98328524748412,
,,,,60,0,60,0,,,,,,,,,,,,,,,,,,,,,,,,4788.347412927076,None,,,,,,,,,,,,,,,,,union,sing,white,60,17,344,4786.396682849154,None,4786.396682849154,None,6,1.1527876693289727,4786.396682849154,None,4787.597535306588,None,4788.097158371704,None,4788.097158371704,None,r,0.20426695188507438,4788.097158371704,None,,,NC11,001,2019_Dec_06_1112,ProdSingRedo,3.2.4,59.98328524748412,
,,,,61,0,61,0,,,,,,,,,,,,,,,,,,,,,,,,4790.648167418782,None,,,,,,,,,,,,,,,,,member,aloud,white,61,41,188,4788.864185904851,None,4788.864185904851,None,6,0.9414202230982482,4788.864185904851,None,4789.850526682334,None,4790.364717096789,None,4790.364717096789,None,r,0.2408156346064061,4790.364717096789,None,,,NC11,001,2019_Dec_06_1112,ProdSingRedo,3.2.4,59.98328524748412,
,,,,62,0,62,0,,,,,,,,,,,,,,,,,,,,,,,,4792.732104770374,None,,,,,,,,,,,,,,,,,symbol,aloud,white,62,44,321,4791.165642639622,None,4791.165642639622,None,6,0.887588829966262,4791.165642639622,None,4792.102593759308,None,4792.615384663222,None,4792.615384663222,None,r,0.07783952890895307,4792.615384663222,None,,,NC11,001,2019_Dec_06_1112,ProdSingRedo,3.2.4,59.98328524748412,
,,,,63,0,63,0,,,,,,,,,,,,,,,,,,,,,,,,4795.332899692468,None,,,,,,,,,,,,,,,,,article,silent,white,63,61,11,4793.2489365276415,None,4793.2489365276415,None,2,1.412150860996917,4793.2489365276415,None,4794.702511654701,None,4795.216024705907,None,4795.216024705907,None,n,0.06897502951323986,4795.216024705907,None,,,NC11,001,2019_Dec_06_1112,ProdSingRedo,3.2.4,59.98328524748412,
,,,,64,0,64,0,,,,,,,,,,,,,,,,,,,,,,,,4797.633562127361,None,,,,,,,,,,,,,,,,,religion,sing,white,64,25,258,4795.849574704422,None,4795.849574704422,None,6,0.9397171745076776,4795.849574704422,None,4796.835096923867,None,4797.350050848909,None,4797.350050848909,None,r,0.24689697427675128,4797.350050848909,None,,,NC11,001,2019_Dec_06_1112,ProdSingRedo,3.2.4,59.98328524748412,
,,,,65,0,65,0,,,,,,,,,,,,,,,,,,,,,,,,4800.317747347988,None,,,,,,,,,,,,,,,,,edition,silent,white,65,77,107,4798.150288454723,None,4798.150288454723,None,6,1.0544960051774979,4798.150288454723,None,4799.254254978383,None,4799.767550016986,None,4799.767550016986,None,r,0.5091512436047196,4799.767550016986,None,,,NC11,001,2019_Dec_06_1112,ProdSingRedo,3.2.4,59.98328524748412,
,,,,66,0,66,0,,,,,,,,,,,,,,,,,,,,,,,,4803.168641324155,None,,,,,,,,,,,,,,,,,course,silent,white,66,64,74,4800.834594344022,None,4800.834594344022,None,2,1.394004185916856,4800.834594344022,None,4802.268558286596,None,4802.785149949836,None,4802.785149949836,None,f,0.3396991363260895,4802.785149949836,None,,,NC11,001,2019_Dec_06_1112,ProdSingRedo,3.2.4,59.98328524748412,
,,,,67,0,67,0,,,,,,,,,,,,,,,,,,,,,,,,4806.286249653902,None,,,,,,,,,,,,,,,,,clean,new_b,white,67,121,51,4803.685460641049,None,4803.685460641049,None,3,1.5590686725918204,4803.685460641049,None,4805.288051912561,None,4805.802755480632,None,4805.802755480632,None,n,0.44972678436897695,4805.802755480632,None,,,NC11,001,2019_Dec_06_1112,ProdSingRedo,3.2.4,59.98328524748412,
,,,,68,0,68,0,,,,,,,,,,,,,,,,,,,,,,,,4808.553571395343,None,,,,,,,,,,,,,,,,,staff,aloud,white,68,54,301,4806.802923421841,None,4806.802923421841,None,6,1.0334570086561143,4806.802923421841,None,4807.872324213618,None,4808.386906490894,None,4808.386906490894,None,r,0.12146444758400321,4808.386906490894,None,,,NC11,001,2019_Dec_06_1112,ProdSingRedo,3.2.4,59.98328524748412,
,,,,69,0,69,0,,,,,,,,,,,,,,,,,,,,,,,,4811.187822081847,None,,,,,,,,,,,,,,,,,build,new_c,white,69,171,35,4809.070428032428,None,4809.070428032428,None,1,1.413721733726561,4809.070428032428,None,4810.522320015123,None,4811.03770934348,None,4811.03770934348,None,n,0.11038561165332794,4811.03770934348,None,,,NC11,001,2019_Dec_06_1112,ProdSingRedo,3.2.4,59.98328524748412,
,,,,70,0,70,0,,,,,,,,,,,,,,,,,,,,,,,,4814.005284551531,None,,,,,,,,,,,,,,,,,service,new_b,white,70,140,280,4811.705941699445,None,4811.705941699445,None,1,1.034048535162583,4811.705941699445,None,4812.804853502428,None,4813.304898286704,None,4813.304898286704,None,n,0.6670660972595215,4813.304898286704,None,,,NC11,001,2019_Dec_06_1112,ProdSingRedo,3.2.4,59.98328524748412,
,,,,71,0,71,0,,,,,,,,,,,,,,,,,,,,,,,,4816.606055526296,None,,,,,,,,,,,,,,,,,corner,silent,white,71,73,69,4814.522085830336,None,4814.522085830336,None,2,1.0899782609194517,4814.522085830336,None,4815.657954039983,None,4816.172615311807,None,4816.172615311807,None,n,0.39134760410524905,4816.172615311807,None,,,NC11,001,2019_Dec_06_1112,ProdSingRedo,3.2.4,59.98328524748412,
,,,,72,0,72,0,,,,,,,,,,,,,,,,,,,,,,,,4820.840727620991,None,,,,,,,,,,,,,,,,,instrument,new_a,white,72,105,163,4817.122919316636,None,4817.122919316636,None,2,2.2326001971960068,4817.122919316636,None,4819.394418130163,None,4819.90694748098,None,4819.90694748098,None,f,0.8889068579301238,4819.90694748098,None,,,NC11,001,2019_Dec_06_1112,ProdSingRedo,3.2.4,59.98328524748412,
,,,,73,0,73,0,,,,,,,,,,,,,,,,,,,,,,,,4823.508186203195,None,,,,,,,,,,,,,,,,,benefit,sing,white,73,14,20,4821.35754787107,None,4821.35754787107,None,6,1.5177796923089772,4821.35754787107,None,4822.925327718724,None,4823.441377616022,None,4823.441377616022,None,n,0.033874062821269035,4823.441377616022,None,,,NC11,001,2019_Dec_06_1112,ProdSingRedo,3.2.4,59.98328524748412,
,,,,74,0,74,0,,,,,,,,,,,,,,,,,,,,,,,,4828.843165879371,None,,,,,,,,,,,,,,,,,author,sing,white,74,0,15,4824.0252176239155,None,4824.0252176239155,None,6,3.6100665235426277,4824.0252176239155,None,4827.675942414906,None,4828.192978500389,None,4828.192978500389,None,f,0.6020156061276793,4828.192978500389,None,,,NC11,001,2019_Dec_06_1112,ProdSingRedo,3.2.4,59.98328524748412,
,,,,75,0,75,0,,,,,,,,,,,,,,,,,,,,,,,,4834.661618891405,None,,,,,,,,,,,,,,,,,republic,aloud,white,75,52,260,4829.359856752213,None,4829.359856752213,None,2,3.818849540082738,4829.359856752213,None,4833.230130216572,None,4833.7446372313425,None,4833.7446372313425,None,f,0.8820268644485623,4833.7446372313425,None,,,NC11,001,2019_Dec_06_1112,ProdSingRedo,3.2.4,59.98328524748412,
,,,,76,0,76,0,,,,,,,,,,,,,,,,,,,,,,,,4838.67951054452,None,,,,,,,,,,,,,,,,,touch,new_b,white,76,122,332,4835.178346773842,None,4835.178346773842,None,2,1.9281031035352498,4835.178346773842,None,4837.148357752245,None,4837.66254039132,None,4837.66254039132,None,f,0.9721970136743039,4837.66254039132,None,,,NC11,001,2019_Dec_06_1112,ProdSingRedo,3.2.4,59.98328524748412,
,,,,77,0,77,0,,,,,,,,,,,,,,,,,,,,,,,,4843.280904768035,None,,,,,,,,,,,,,,,,,strength,new_a,white,77,97,310,4839.196196441539,None,4839.196196441539,None,3,3.237928600050509,4839.196196441539,None,4842.483584363945,None,4842.997500474332,None,4842.997500474332,None,f,0.2446288343053311,4842.997500474332,None,,,NC11,001,2019_Dec_06_1112,ProdSingRedo,3.2.4,59.98328524748412,
,,,,78,0,78,0,,,,,,,,,,,,,,,,,,,,,,,,4845.6816850728355,None,,,,,,,,,,,,,,,,,opening,new_b,white,78,134,205,4843.797775089275,None,4843.797775089275,None,4,1.0361795229837298,4843.797775089275,None,4844.8854357609525,None,4845.398251855979,None,4845.398251855979,None,f,0.24373501352965832,4845.398251855979,None,,,NC11,001,2019_Dec_06_1112,ProdSingRedo,3.2.4,59.98328524748412,
,,,,79,0,79,0,,,,,,,,,,,,,,,,,,,,,,,,4848.265809647972,None,,,,,,,,,,,,,,,,,dozen,new_a,white,79,115,102,4846.203566885786,None,4846.203566885786,None,1,1.4142302225809544,4846.203566885786,None,4847.672288759379,None,4848.182446717517,None,4848.182446717517,None,n,0.03530809446237981,4848.182446717517,None,,,NC11,001,2019_Dec_06_1112,ProdSingRedo,3.2.4,59.98328524748412,
,,,,80,0,80,0,,,,,,,,,,,,,,,,,,,,,,,,4850.816585132154,None,,,,,,,,,,,,,,,,,narrow,new_a,white,80,113,197,4848.782613103744,None,4848.782613103744,None,1,0.8832033860962838,4848.782613103744,None,4849.702931507956,None,4850.216396353906,None,4850.216396353906,None,n,0.5531866853125393,4850.216396353906,None,,,NC11,001,2019_Dec_06_1112,ProdSingRedo,3.2.4,59.98328524748412,
,,,,81,0,81,0,,,,,,,,,,,,,,,,,,,,,,,,4853.834161739796,None,,,,,,,,,,,,,,,,,theme,sing,white,81,8,326,4851.33339543012,None,4851.33339543012,None,5,1.5083513455465436,4851.33339543012,None,4852.88582047075,None,4853.400738319615,None,4853.400738319615,None,f,0.38466789619997144,4853.400738319615,None,,,NC11,001,2019_Dec_06_1112,ProdSingRedo,3.2.4,59.98328524748412,
,,,,82,0,82,0,,,,,,,,,,,,,,,,,,,,,,,,4857.3685900087,None,,,,,,,,,,,,,,,,,conference,new_b,white,82,128,66,4854.350977013819,None,4854.350977013819,None,1,1.8263932126574218,4854.350977013819,None,4856.222704102984,None,4856.73504685238,None,4856.73504685238,None,n,0.5861445353366435,4856.73504685238,None,,,NC11,001,2019_Dec_06_1112,ProdSingRedo,3.2.4,59.98328524748412,
,,,,83,0,83,0,,,,,,,,,,,,,,,,,,,,,,,,4860.986348863691,None,,,,,,,,,,,,,,,,,device,new_a,white,83,108,93,4857.885257245507,None,4857.885257245507,None,2,1.819803073303774,4857.885257245507,None,4859.769333304372,None,4860.269476054469,None,4860.269476054469,None,n,0.675767631502822,4860.269476054469,None,,,NC11,001,2019_Dec_06_1112,ProdSingRedo,3.2.4,59.98328524748412,
,,,,84,0,84,0,,,,,,,,,,,,,,,,,,,,,,,,4864.170665016165,None,,,,,,,,,,,,,,,,,ground,silent,white,84,85,142,4861.503209854942,None,4861.503209854942,None,1,1.1457394235767424,4861.503209854942,None,4862.6868520656135,None,4863.203678224469,None,4863.203678224469,None,n,0.9253818329889327,4863.203678224469,None,,,NC11,001,2019_Dec_06_1112,ProdSingRedo,3.2.4,59.98328524748412,
,,,,85,0,85,0,,,,,,,,,,,,,,,,,,,,,,,,4866.53806108702,None,,,,,,,,,,,,,,,,,smell,new_b,white,85,139,291,4864.687338473275,None,4864.687338473275,None,1,1.209609661018476,4864.687338473275,None,4865.937811974203,None,4866.454730189871,None,4866.454730189871,None,n,0.042178135830909014,4866.454730189871,None,,,NC11,001,2019_Dec_06_1112,ProdSingRedo,3.2.4,59.98328524748412,
,,,,86,0,86,0,,,,,,,,,,,,,,,,,,,,,,,,4868.988780590938,None,,,,,,,,,,,,,,,,,testimony,new_a,white,86,110,325,4867.054920212366,None,4867.054920212366,None,2,1.3296904594171792,4867.054920212366,None,4868.438651991542,None,4868.93878914346,None,4868.93878914346,None,f,0.006051794392988086,4868.93878914346,None,,,NC11,001,2019_Dec_06_1112,ProdSingRedo,3.2.4,59.98328524748412,
,,,,87,0,87,0,,,,,,,,,,,,,,,,,,,,,,,,4871.472887438955,None,,,,,,,,,,,,,,,,,revolution,aloud,white,87,50,264,4869.507679269416,None,4869.507679269416,None,6,1.244726489065215,4869.507679269416,None,4870.8060191390105,None,4871.3061709082685,None,4871.3061709082685,None,r,0.11816346901468933,4871.3061709082685,None,,,NC11,001,2019_Dec_06_1112,ProdSingRedo,3.2.4,59.98328524748412,
,,,,88,0,88,0,,,,,,,,,,,,,,,,,,,,,,,,4874.107047001831,None,,,,,,,,,,,,,,,,,exchange,new_b,white,88,133,121,4871.9897440762725,None,4871.9897440762725,None,1,1.4587088427506387,4871.9897440762725,None,4873.493633160368,None,4874.007009059424,None,4874.007009059424,None,n,0.0574309341609478,4874.007009059424,None,,,NC11,001,2019_Dec_06_1112,ProdSingRedo,3.2.4,59.98328524748412,
,,,,89,0,89,0,,,,,,,,,,,,,,,,,,,,,,,,4876.957898370689,None,,,,,,,,,,,,,,,,,machinery,silent,white,89,71,175,4874.623714860529,None,4874.623714860529,None,2,1.2726936843246222,4874.623714860529,None,4875.944062188035,None,4876.457630908582,None,4876.457630908582,None,n,0.4624533108435571,4876.457630908582,None,,,NC11,001,2019_Dec_06_1112,ProdSingRedo,3.2.4,59.98328524748412,
,,,,90,0,90,0,,,,,,,,,,,,,,,,,,,,,,,,4880.142238159431,None,,,,,,,,,,,,,,,,,message,aloud,white,90,36,189,4877.474597018678,None,4877.474597018678,None,6,1.18970115785487,4877.474597018678,None,4878.711883398937,None,4879.2252760923,None,4879.2252760923,None,r,0.8705169791355729,4879.2252760923,None,,,NC11,001,2019_Dec_06_1112,ProdSingRedo,3.2.4,59.98328524748412,
,,,,91,0,91,0,,,,,,,,,,,,,,,,,,,,,,,,4882.376213608775,None,,,,,,,,,,,,,,,,,mayor,sing,white,91,15,183,4880.659906512592,None,4880.659906512592,None,6,1.0357938800007105,4880.659906512592,None,4881.749204300577,None,4882.259523979854,None,4882.259523979854,None,r,0.06821680604480207,4882.259523979854,None,,,NC11,001,2019_Dec_06_1112,ProdSingRedo,3.2.4,59.98328524748412,
,,,,92,0,92,0,,,,,,,,,,,,,,,,,,,,,,,,4884.576917096041,None,,,,,,,,,,,,,,,,,childhood,silent,white,92,84,49,4882.893026083708,None,4882.893026083708,None,6,0.9306495904456824,4882.893026083708,None,4883.861247554654,None,4884.376769059105,None,4884.376769059105,None,r,0.16685554874129593,4884.376769059105,None,,,NC11,001,2019_Dec_06_1112,ProdSingRedo,3.2.4,59.98328524748412,
,,,,93,0,93,0,,,,,,,,,,,,,,,,,,,,,,,,4887.827882602811,None,,,,,,,,,,,,,,,,,surprise,new_b,white,93,147,317,4885.0935432806145,None,4885.0935432806145,None,2,1.5459664554800838,4885.0935432806145,None,4886.679735710146,None,4887.194387340918,None,4887.194387340918,None,f,0.5893018308561295,4887.194387340918,None,,,NC11,001,2019_Dec_06_1112,ProdSingRedo,3.2.4,59.98328524748412,
,,,,94,0,94,0,,,,,,,,,,,,,,,,,,,,,,,,4890.778789330041,None,,,,,,,,,,,,,,,,,husband,new_a,white,94,111,156,4888.344769407297,None,4888.344769407297,None,1,1.4624884540680796,4888.344769407297,None,4889.86171965627,None,4890.362062691944,None,4890.362062691944,None,n,0.3734677692409605,4890.362062691944,None,,,NC11,001,2019_Dec_06_1112,ProdSingRedo,3.2.4,59.98328524748412,
,,,,95,0,95,0,,,,,,,,,,,,,,,,,,,,,,,,4893.779675997794,None,,,,,,,,,,,,,,,,,capital,new_c,white,95,166,40,4891.295513480436,None,4891.295513480436,None,2,1.2238582328427583,4891.295513480436,None,4892.563681769883,None,4893.079493439291,None,4893.079493439291,None,f,0.6635520819108933,4893.079493439291,None,,,NC11,001,2019_Dec_06_1112,ProdSingRedo,3.2.4,59.98328524748412,
,,,,96,0,96,0,,,,,,,,,,,,,,,,,,,,,,,,4896.180474651745,None,,,,,,,,,,,,,,,,,committee,sing,white,96,1,62,4894.296384286834,None,4894.296384286834,None,6,1.0785800255835056,4894.296384286834,None,4895.413513984298,None,4895.930407008855,None,4895.930407008855,None,f,0.21249140868894756,4895.930407008855,None,,,NC11,001,2019_Dec_06_1112,ProdSingRedo,3.2.4,59.98328524748412,
,,,,97,0,97,0,,,,,,,,,,,,,,,,,,,,,,,,4898.831290877424,None,,,,,,,,,,,,,,,,,birth,new_a,white,97,109,22,4896.697218706133,None,4896.697218706133,None,1,1.1738347520586103,4896.697218706133,None,4897.9309005695395,None,4898.431143151363,None,4898.431143151363,None,n,0.36759977717883885,4898.431143151363,None,,,NC11,001,2019_Dec_06_1112,ProdSingRedo,3.2.4,59.98328524748412,
,,,,98,0,98,0,,,,,,,,,,,,,,,,,,,,,,,,4901.01529322844,None,,,,,,,,,,,,,,,,,distance,new_b,white,98,135,100,4899.34812325635,None,4899.34812325635,None,1,0.9305345197208226,4899.34812325635,None,4900.318607269321,None,4900.831892977934,None,4900.831892977934,None,n,0.1347131470683962,4900.831892977934,None,,,NC11,001,2019_Dec_06_1112,ProdSingRedo,3.2.4,59.98328524748412,
,,,,99,0,99,0,,,,,,,,,,,,,,,,,,,,,,,,4903.38265073509,None,,,,,,,,,,,,,,,,,store,sing,white,99,13,305,4901.5319822356105,None,4901.5319822356105,None,1,0.9544736130628735,4901.5319822356105,None,4902.535629359772,None,4903.0492515729275,None,4903.0492515729275,None,f,0.28513222257606685,4903.0492515729275,None,,,NC11,001,2019_Dec_06_1112,ProdSingRedo,3.2.4,59.98328524748412,
,,,,100,0,100,0,,,,,,,,,,,,,,,,,,,,,,,,4905.633385789115,None,,,,,,,,,,,,,,,,,route,silent,white,100,74,267,4903.899374263361,None,4903.899374263361,None,2,1.1232859885785729,4903.899374263361,None,4905.068100180011,None,4905.583362308331,None,4905.583362308331,None,f,0.014969475101679564,4905.583362308331,None,,,NC11,001,2019_Dec_06_1112,ProdSingRedo,3.2.4,59.98328524748412,
,,,,101,0,101,0,,,,,,,,,,,,,,,,,,,,,,,,4908.067472266266,None,,,,,,,,,,,,,,,,,column,new_b,white,101,144,57,4906.150061111897,None,4906.150061111897,None,1,1.296090389834717,4906.150061111897,None,4907.485412435839,None,4908.000759156654,None,4908.000759156654,None,n,0.029357686871662736,4908.000759156654,None,,,NC11,001,2019_Dec_06_1112,ProdSingRedo,3.2.4,59.98328524748412,
,,,,102,0,102,0,,,,,,,,,,,,,,,,,,,,,,,,4910.451516602887,None,,,,,,,,,,,,,,,,,signal,new_c,white,102,167,287,4908.584179311525,None,4908.584179311525,None,1,1.2619031476788223,4908.584179311525,None,4909.8867351287045,None,4910.401519246399,None,4910.401519246399,None,n,0.004424008075147867,4910.401519246399,None,,,NC11,001,2019_Dec_06_1112,ProdSingRedo,3.2.4,59.98328524748412,
,,,,103,0,103,0,,,,,,,,,,,,,,,,,,,,,,,,4913.619157743407,None,,,,,,,,,,,,,,,,,raise,silent,white,103,65,250,4910.968358000973,None,4910.968358000973,None,1,1.4218258324544877,4910.968358000973,None,4912.437680420233,None,4912.95230623777,None,4912.95230623777,None,n,0.6217617660295218,4912.95230623777,None,,,NC11,001,2019_Dec_06_1112,ProdSingRedo,3.2.4,59.98328524748412,
,,,,104,0,104,0,,,,,,,,,,,,,,,,,,,,,,,,4921.321549973451,None,,,,,,,,,,,,,,,,,majority,new_a,white,104,94,176,4914.139462152496,None,4914.139462152496,None,1,5.226036803796887,4914.139462152496,None,4919.420834357152,None,4919.920922681689,None,4919.920922681689,None,n,1.3567448630928993,4919.920922681689,None,,,NC11,001,2019_Dec_06_1112,ProdSingRedo,3.2.4,59.98328524748412,
,,,,105,0,105,0,,,,,,,,,,,,,,,,,,,,,,,,4923.905616702046,None,,,,,,,,,,,,,,,,,right,new_a,white,105,99,265,4921.838351874147,None,4921.838351874147,None,2,1.17506507714279,4921.838351874147,None,4923.05889793206,None,4923.572214740794,None,4923.572214740794,None,n,0.28931178292259574,4923.572214740794,None,,,NC11,001,2019_Dec_06_1112,ProdSingRedo,3.2.4,59.98328524748412,
,,,,106,0,106,0,,,,,,,,,,,,,,,,,,,,,,,,4928.773813603912,None,,,,,,,,,,,,,,,,,character,new_a,white,106,103,46,4924.422339608427,None,4924.422339608427,None,6,2.5344478618353605,4924.422339608427,None,4926.990014026174,None,4927.5066246606875,None,4927.5066246606875,None,n,1.2182841377798468,4927.5066246606875,None,,,NC11,001,2019_Dec_06_1112,ProdSingRedo,3.2.4,59.98328524748412,
,,,,107,0,107,0,,,,,,,,,,,,,,,,,,,,,,,,4932.841728115454,None,,,,,,,,,,,,,,,,,mankind,silent,white,107,83,178,4929.291433129925,None,4929.291433129925,None,1,2.2251719064079225,4929.291433129925,None,4931.560677487403,None,4932.074707113439,None,4932.074707113439,None,n,0.7299286872148514,4932.074707113439,None,,,NC11,001,2019_Dec_06_1112,ProdSingRedo,3.2.4,59.98328524748412,
,,,,108,0,108,0,,,,,,,,,,,,,,,,,,,,,,,,4938.693487611134,None,,,,,,,,,,,,,,,,,frank,silent,white,108,86,133,4933.358476524008,None,4933.358476524008,None,2,3.84595246007666,4933.358476524008,None,4937.2595805821475,None,4937.759873857489,None,4937.759873857489,None,n,0.8925707761663944,4937.759873857489,None,,,NC11,001,2019_Dec_06_1112,ProdSingRedo,3.2.4,59.98328524748412,
,,,,109,0,109,0,,,,,,,,,,,,,,,,,,,,,,,,4941.927835330367,None,,,,,,,,,,,,,,,,,literature,new_c,white,109,152,173,4939.2102133166045,None,4939.2102133166045,None,6,1.4581512154545635,4939.2102133166045,None,4940.7106586718,None,4941.227590260562,None,4941.227590260562,None,n,0.6567859153728932,4941.227590260562,None,,,NC11,001,2019_Dec_06_1112,ProdSingRedo,3.2.4,59.98328524748412,
,,,,110,0,110,0,,,,,,,,,,,,,,,,,,,,,,,,4944.663070961367,None,,,,,,,,,,,,,,,,,bicycle,aloud,white,110,38,21,4942.446764176246,None,4942.446764176246,None,6,1.6291953437030315,4942.446764176246,None,4944.117081491975,None,4944.628670060774,None,4944.628670060774,None,r,0.015133684501051903,4944.628670060774,None,,,NC11,001,2019_Dec_06_1112,ProdSingRedo,3.2.4,59.98328524748412,
,,,,111,0,111,0,,,,,,,,,,,,,,,,,,,,,,,,4947.6295676133595,None,,,,,,,,,,,,,,,,,title,new_c,white,111,172,331,4945.178696962539,None,4945.178696962539,None,3,1.281134287826717,4945.178696962539,None,4946.497187605826,None,4947.012757937657,None,4947.012757937657,None,n,0.5830665451940149,4947.012757937657,None,,,NC11,001,2019_Dec_06_1112,ProdSingRedo,3.2.4,59.98328524748412,
,,,,112,0,112,0,,,,,,,,,,,,,,,,,,,,,,,,4950.0136576672085,None,,,,,,,,,,,,,,,,,throw,silent,white,112,89,330,4948.146295806859,None,4948.146295806859,None,1,1.2173346476629376,4948.146295806859,None,4949.399498975137,None,4949.913620657986,None,4949.913620657986,None,n,0.0660537846852094,4949.913620657986,None,,,NC11,001,2019_Dec_06_1112,ProdSingRedo,3.2.4,59.98328524748412,
,,,,113,0,113,0,,,,,,,,,,,,,,,,,,,,,,,,4952.847839311231,None,,,,,,,,,,,,,,,,,murder,sing,white,113,20,195,4950.530431888998,None,4950.530431888998,None,6,1.02528573339805,4950.530431888998,None,4951.597391312476,None,4952.114298643079,None,4952.114298643079,None,r,0.6894371169619262,4952.114298643079,None,,,NC11,001,2019_Dec_06_1112,ProdSingRedo,3.2.4,59.98328524748412,
,,,,114,0,114,0,,,,,,,,,,,,,,,,,,,,,,,,4956.01545526064,None,,,,,,,,,,,,,,,,,running,new_b,white,114,132,268,4953.364516500151,None,4953.364516500151,None,1,1.4867394824977964,4953.364516500151,None,4954.898321209475,None,4955.41531157773,None,4955.41531157773,None,n,0.5639464331325144,4955.41531157773,None,,,NC11,001,2019_Dec_06_1112,ProdSingRedo,3.2.4,59.98328524748412,
,,,,115,0,115,0,,,,,,,,,,,,,,,,,,,,,,,,4958.516229656525,None,,,,,,,,,,,,,,,,,background,new_a,white,115,112,16,4956.535251181107,None,4956.535251181107,None,2,1.1880951419007033,4956.535251181107,None,4957.770148130367,None,4958.282689299434,None,4958.282689299434,None,n,0.19243455724790692,4958.282689299434,None,,,NC11,001,2019_Dec_06_1112,ProdSingRedo,3.2.4,59.98328524748412,
,,,,116,0,116,0,,,,,,,,,,,,,,,,,,,,,,,,4961.400421719067,None,,,,,,,,,,,,,,,,,drink,silent,white,116,72,105,4959.032955672825,None,4959.032955672825,None,6,1.2260619951412082,4959.032955672825,None,4960.301099393284,None,4960.816920081619,None,4960.816920081619,None,r,0.5378744855988771,4960.816920081619,None,,,NC11,001,2019_Dec_06_1112,ProdSingRedo,3.2.4,59.98328524748412,
,,,,117,0,117,0,,,,,,,,,,,,,,,,,,,,,,,,4964.501400754554,None,,,,,,,,,,,,,,,,,career,sing,white,117,19,42,4961.91716110846,None,4961.91716110846,None,1,1.5816561495885253,4961.91716110846,None,4963.535791391972,None,4964.051294858102,None,4964.051294858102,None,f,0.41535791708156466,4964.051294858102,None,,,NC11,001,2019_Dec_06_1112,ProdSingRedo,3.2.4,59.98328524748412,
,,,,118,0,118,0,,,,,,,,,,,,,,,,,,,,,,,,4967.769927940797,None,,,,,,,,,,,,,,,,,trend,new_c,white,118,154,340,4965.018267032923,None,4965.018267032923,None,2,1.0566562274470925,4965.018267032923,None,4966.118367175572,None,4966.635392375989,None,4966.635392375989,None,n,1.1110365397762507,4966.635392375989,None,,,NC11,001,2019_Dec_06_1112,ProdSingRedo,3.2.4,59.98328524748412,
,,,,119,0,119,0,,,,,,,,,,,,,,,,,,,,,,,,4970.1531683362555,None,,,,,,,,,,,,,,,,,couch,new_b,white,119,131,70,4968.285925900564,None,4968.285925900564,None,2,1.028519535670057,4968.285925900564,None,4969.354954422684,None,4969.869728899328,None,4969.869728899328,None,n,0.24465184845030308,4969.869728899328,None,,,NC11,001,2019_Dec_06_1112,ProdSingRedo,3.2.4,59.98328524748412,
,,,,120,0,120,0,,,,,,,,,,,,,,,,,,,,,,,,4972.337176907342,None,,,,,,,,,,,,,,,,,working,sing,white,120,16,357,4970.671447498025,None,4970.671447498025,None,1,0.9867951520718634,4970.671447498025,None,4971.720299744047,None,4972.220454934286,None,4972.220454934286,None,n,0.07780065364204347,4972.220454934286,None,,,NC11,001,2019_Dec_06_1112,ProdSingRedo,3.2.4,59.98328524748412,
,,,,121,0,121,0,,,,,,,,,,,,,,,,,,,,,,,,4975.171334293205,None,,,,,,,,,,,,,,,,,science,aloud,white,121,39,275,4972.854492895072,None,4972.854492895072,None,2,1.3157317417208105,4972.854492895072,None,4974.207503553247,None,4974.721229329938,None,4974.721229329938,None,f,0.4168681444134563,4974.721229329938,None,,,NC11,001,2019_Dec_06_1112,ProdSingRedo,3.2.4,59.98328524748412,
,,,,122,0,122,0,,,,,,,,,,,,,,,,,,,,,,,,4978.47234784998,None,,,,,,,,,,,,,,,,,history,new_b,white,122,142,153,4975.688054089434,None,4975.688054089434,None,6,1.1858621451538056,4975.688054089434,None,4976.928388292668,None,4977.438698641956,None,4977.438698641956,None,r,0.9951206846162677,4977.438698641956,None,,,NC11,001,2019_Dec_06_1112,ProdSingRedo,3.2.4,59.98328524748412,
,,,,123,0,123,0,,,,,,,,,,,,,,,,,,,,,,,,4981.556679552421,None,,,,,,,,,,,,,,,,,range,new_c,white,123,175,251,4978.989034057828,None,4978.989034057828,None,3,1.1647438427899033,4978.989034057828,None,4980.18942125584,None,4980.7063786578365,None,4980.7063786578365,None,n,0.8153050467371941,4980.7063786578365,None,,,NC11,001,2019_Dec_06_1112,ProdSingRedo,3.2.4,59.98328524748412,
,,,,124,0,124,0,,,,,,,,,,,,,,,,,,,,,,,,4984.274168768432,None,,,,,,,,,,,,,,,,,nation,sing,white,124,9,198,4982.073317866074,None,4982.073317866074,None,6,1.0962875650729984,4982.073317866074,None,4983.2090790909715,None,4983.72399258567,None,4983.72399258567,None,r,0.5015183133073151,4983.72399258567,None,,,NC11,001,2019_Dec_06_1112,ProdSingRedo,3.2.4,59.98328524748412,
,,,,125,0,125,0,,,,,,,,,,,,,,,,,,,,,,,,4986.991627195384,None,,,,,,,,,,,,,,,,,profession,new_b,white,125,129,241,4984.790987774497,None,4984.790987774497,None,1,1.5783934241626412,4984.790987774497,None,4986.413098796038,None,4986.924965712009,None,4986.924965712009,None,n,0.028391402447596192,4986.924965712009,None,,,NC11,001,2019_Dec_06_1112,ProdSingRedo,3.2.4,59.98328524748412,
,,,,126,0,126,0,,,,,,,,,,,,,,,,,,,,,,,,4989.925884101773,None,,,,,,,,,,,,,,,,,property,sing,white,126,7,242,4987.508453043411,None,4987.508453043411,None,6,1.2288140547461808,4987.508453043411,None,4988.781914592488,None,4989.292338146595,None,4989.292338146595,None,r,0.5891261147335172,4989.292338146595,None,,,NC11,001,2019_Dec_06_1112,ProdSingRedo,3.2.4,59.98328524748412,
,,,,127,0,127,0,,,,,,,,,,,,,,,,,,,,,,,,4992.476670471253,None,,,,,,,,,,,,,,,,,industry,new_b,white,127,125,161,4990.442710260861,None,4990.442710260861,None,2,1.3425448078196496,4990.442710260861,None,4991.82859106618,None,4992.343269132078,None,4992.343269132078,None,n,0.0977573620621115,4992.343269132078,None,,,NC11,001,2019_Dec_06_1112,ProdSingRedo,3.2.4,59.98328524748412,
,,,,128,0,128,0,,,,,,,,,,,,,,,,,,,,,,,,4995.110821014969,None,,,,,,,,,,,,,,,,,judge,new_b,white,128,149,166,4992.993398975581,None,4992.993398975581,None,6,1.0315602053888142,4992.993398975581,None,4994.065820533084,None,4994.57733539422,None,4994.57733539422,None,r,0.49551099236123264,4994.57733539422,None,,,NC11,001,2019_Dec_06_1112,ProdSingRedo,3.2.4,59.98328524748412,
,,,,129,0,129,0,,,,,,,,,,,,,,,,,,,,,,,,4997.9661505064,None,,,,,,,,,,,,,,,,,safety,aloud,white,129,31,270,4995.6285108274315,None,4995.6285108274315,None,6,1.5243922236841172,4995.6285108274315,None,4997.197525665397,None,4997.711568664759,None,4997.711568664759,None,r,0.23316062334924936,4997.711568664759,None,,,NC11,001,2019_Dec_06_1112,ProdSingRedo,3.2.4,59.98328524748412,
,,,,130,0,130,0,,,,,,,,,,,,,,,,,,,,,,,,5001.362730724737,None,,,,,,,,,,,,,,,,,finish,new_c,white,130,155,130,4998.495142143685,None,4998.495142143685,None,1,1.7533232152927667,4998.495142143685,None,5000.2975306415465,None,5000.812562317122,None,5000.812562317122,None,n,0.5080953906290233,5000.812562317122,None,,,NC11,001,2019_Dec_06_1112,ProdSingRedo,3.2.4,59.98328524748412,
,,,,131,0,131,0,,,,,,,,,,,,,,,,,,,,,,,,5004.2969699043315,None,,,,,,,,,,,,,,,,,provision,sing,white,131,28,243,5001.881910238415,None,5001.881910238415,None,6,1.3984608494210988,5001.881910238415,None,5003.346571665723,None,5003.846675851615,None,5003.846675851615,None,r,0.40960375196300447,5003.846675851615,None,,,NC11,001,2019_Dec_06_1112,ProdSingRedo,3.2.4,59.98328524748412,
,,,,132,0,132,0,,,,,,,,,,,,,,,,,,,,,,,,5007.2145085695665,None,,,,,,,,,,,,,,,,,emergency,silent,white,132,60,110,5004.813736972865,None,5004.813736972865,None,4,1.426413427805528,5004.813736972865,None,5006.28510858654,None,5006.7975707608275,None,5006.7975707608275,None,n,0.3785162700805813,5006.7975707608275,None,,,NC11,001,2019_Dec_06_1112,ProdSingRedo,3.2.4,59.98328524748412,
,,,,133,0,133,0,,,,,,,,,,,,,,,,,,,,,,,,5009.848642319441,None,,,,,,,,,,,,,,,,,sleep,new_a,white,133,101,290,5007.731335661607,None,5007.731335661607,None,2,1.1890144646167755,5007.731335661607,None,5008.967096264474,None,5009.481887846254,None,5009.481887846254,None,n,0.326020942768082,5009.481887846254,None,,,NC11,001,2019_Dec_06_1112,ProdSingRedo,3.2.4,59.98328524748412,
,,,,134,0,134,0,,,,,,,,,,,,,,,,,,,,,,,,5012.5660789760295,None,,,,,,,,,,,,,,,,,pressure,silent,white,134,78,232,5010.365337235387,None,5010.365337235387,None,6,1.3227970926091075,5010.365337235387,None,5011.736199427163,None,5012.249279874144,None,5012.249279874144,None,r,0.2704435826744884,5012.249279874144,None,,,NC11,001,2019_Dec_06_1112,ProdSingRedo,3.2.4,59.98328524748412,
,,,,135,0,135,0,,,,,,,,,,,,,,,,,,,,,,,,5015.216969220201,None,,,,,,,,,,,,,,,,,series,sing,white,135,29,279,5013.082990660565,None,5013.082990660565,None,2,1.1806202006991953,5013.082990660565,None,5014.3018874730915,None,5014.816865967354,None,5014.816865967354,None,n,0.35882546845823526,5014.816865967354,None,,,NC11,001,2019_Dec_06_1112,ProdSingRedo,3.2.4,59.98328524748412,
,,,,136,0,136,0,,,,,,,,,,,,,,,,,,,,,,,,5017.450997850858,None,,,,,,,,,,,,,,,,,under,silent,white,136,66,343,5015.733645475935,None,5015.733645475935,None,1,1.106210405472666,5015.733645475935,None,5016.886224462884,None,5017.400977169396,None,5017.400977169396,None,n,0.006818415131419897,5017.400977169396,None,,,NC11,001,2019_Dec_06_1112,ProdSingRedo,3.2.4,59.98328524748412,
,,,,137,0,137,0,,,,,,,,,,,,,,,,,,,,,,,,5020.035081062699,None,,,,,,,,,,,,,,,,,hunger,new_c,white,137,163,155,5017.967814679956,None,5017.967814679956,None,2,1.3355503652710468,5017.967814679956,None,5019.354906839319,None,5019.868406517431,None,5019.868406517431,None,n,0.13090710039250553,5019.868406517431,None,,,NC11,001,2019_Dec_06_1112,ProdSingRedo,3.2.4,59.98328524748412,
,,,,138,0,138,0,,,,,,,,,,,,,,,,,,,,,,,,5023.31944448757,None,,,,,,,,,,,,,,,,,broad,aloud,white,138,59,31,5020.551956671057,None,5020.551956671057,None,4,1.3191888437140733,5020.551956671057,None,5021.924366410589,None,5022.435851726448,None,5022.435851726448,None,f,0.8432374098338187,5022.435851726448,None,,,NC11,001,2019_Dec_06_1112,ProdSingRedo,3.2.4,59.98328524748412,
,,,,139,0,139,0,,,,,,,,,,,,,,,,,,,,,,,,5025.836906646378,None,,,,,,,,,,,,,,,,,write,silent,white,139,79,358,5023.836157752899,None,5023.836157752899,None,6,1.3071135561913252,5023.836157752899,None,5025.186578072375,None,5025.703517436283,None,5025.703517436283,None,r,0.08738605654798448,5025.703517436283,None,,,NC11,001,2019_Dec_06_1112,ProdSingRedo,3.2.4,59.98328524748412,
,,,,140,0,140,0,,,,,,,,,,,,,,,,,,,,,,,,5028.27097446355,None,,,,,,,,,,,,,,,,,straight,aloud,white,140,49,307,5026.353575127199,None,5026.353575127199,None,6,1.0372471939772367,5026.353575127199,None,5027.437238796847,None,5027.954165409785,None,5027.954165409785,None,r,0.2766810453031212,5027.954165409785,None,,,NC11,001,2019_Dec_06_1112,ProdSingRedo,3.2.4,59.98328524748412,
,,,,141,0,141,0,,,,,,,,,,,,,,,,,,,,,,,,5030.688321862603,None,,,,,,,,,,,,,,,,,atmosphere,aloud,white,141,47,12,5028.787686173804,None,5028.787686173804,None,6,0.9950550629291683,5028.787686173804,None,5029.826151874848,None,5030.3381481678225,None,5030.3381481678225,None,r,0.3165972614660859,5030.3381481678225,None,,,NC11,001,2019_Dec_06_1112,ProdSingRedo,3.2.4,59.98328524748412,
,,,,142,0,142,0,,,,,,,,,,,,,,,,,,,,,,,,5033.906011363957,None,,,,,,,,,,,,,,,,,object,new_b,white,142,123,204,5031.206388298888,None,5031.206388298888,None,3,2.000130932079628,5031.206388298888,None,5033.2571883522905,None,5033.772623397876,None,5033.772623397876,None,f,0.09813336399383843,5033.772623397876,None,,,NC11,001,2019_Dec_06_1112,ProdSingRedo,3.2.4,59.98328524748412,
,,,,143,0,143,0,,,,,,,,,,,,,,,,,,,,,,,,5036.006686861161,None,,,,,,,,,,,,,,,,,whole,silent,white,143,63,355,5034.422729605343,None,5034.422729605343,None,6,0.9758945202920586,5034.422729605343,None,5035.440486905165,None,5035.956659648335,None,5035.956659648335,None,r,0.0017167329788208008,5035.956659648335,None,,,NC11,001,2019_Dec_06_1112,ProdSingRedo,3.2.4,59.98328524748412,
,,,,144,0,144,0,,,,,,,,,,,,,,,,,,,,,,,,5038.457419427112,None,,,,,,,,,,,,,,,,,permit,aloud,white,144,30,218,5036.523379600141,None,5036.523379600141,None,6,0.9469066155143082,5036.523379600141,None,5037.523729788838,None,5038.023966772482,None,5038.023966772482,None,r,0.3904957687482238,5038.023966772482,None,,,NC11,001,2019_Dec_06_1112,ProdSingRedo,3.2.4,59.98328524748412,
,,,,145,0,145,0,,,,,,,,,,,,,,,,,,,,,,,,5041.891814418603,None,,,,,,,,,,,,,,,,,smooth,new_b,white,145,138,292,5038.974122118205,None,5038.974122118205,None,4,1.831971350358799,5038.974122118205,None,5040.841622063657,None,5041.358340926934,None,5041.358340926934,None,f,0.49566338350996375,5041.358340926934,None,,,NC11,001,2019_Dec_06_1112,ProdSingRedo,3.2.4,59.98328524748412,
,,,,146,0,146,0,,,,,,,,,,,,,,,,,,,,,,,,5045.559608883457,None,,,,,,,,,,,,,,,,,detective,new_c,white,146,165,92,5042.409860328771,None,5042.409860328771,None,4,1.8519159296993166,5042.409860328771,None,5044.325824078405,None,5044.825853623683,None,5044.825853623683,None,f,0.7000115071423352,5044.825853623683,None,,,NC11,001,2019_Dec_06_1112,ProdSingRedo,3.2.4,59.98328524748412,
,,,,147,0,147,0,,,,,,,,,,,,,,,,,,,,,,,,5048.21042293217,None,,,,,,,,,,,,,,,,,angle,aloud,white,147,57,7,5046.076427889522,None,5046.076427889522,None,6,1.0734515972435474,5046.076427889522,None,5047.195732115069,None,5047.710265564965,None,5047.710265564965,None,f,0.45567501499317586,5047.710265564965,None,,,NC11,001,2019_Dec_06_1112,ProdSingRedo,3.2.4,59.98328524748412,
,,,,148,0,148,0,,,,,,,,,,,,,,,,,,,,,,,,5052.79514836357,None,,,,,,,,,,,,,,,,,master,aloud,white,148,45,180,5048.727097943891,None,5048.727097943891,None,6,3.0783243814948946,5048.727097943891,None,5051.847222593613,None,5052.3615554471035,None,5052.3615554471035,None,f,0.3877014128956944,5052.3615554471035,None,,,NC11,001,2019_Dec_06_1112,ProdSingRedo,3.2.4,59.98328524748412,
,,,,149,0,149,0,,,,,,,,,,,,,,,,,,,,,,,,5059.018838655204,None,,,,,,,,,,,,,,,,,plane,aloud,white,149,40,223,5053.311905480223,None,5053.311905480223,None,6,4.829057880677283,5053.311905480223,None,5058.18043950852,None,5058.696931961924,None,5058.696931961924,None,r,0.29217642545700073,5058.696931961924,None,,,NC11,001,2019_Dec_06_1112,ProdSingRedo,3.2.4,59.98328524748412,
,,,,150,0,150,0,,,,,,,,,,,,,,,,,,,,,,,,5061.314439527225,None,,,,,,,,,,,,,,,,,people,aloud,white,150,35,216,5059.530449616024,None,5059.530449616024,None,6,0.9143994078040123,5059.530449616024,None,5060.480824218364,None,5060.997667793417,None,5060.997667793417,None,r,0.271072740200907,5060.997667793417,None,,,NC11,001,2019_Dec_06_1112,ProdSingRedo,3.2.4,59.98328524748412,
,,,,151,0,151,0,,,,,,,,,,,,,,,,,,,,,,,,5067.18286936963,None,,,,,,,,,,,,,,,,,region,sing,white,151,26,256,5061.83127408335,None,5061.83127408335,None,3,2.7494136050809175,5061.83127408335,None,5064.619034586474,None,5065.132269601803,None,5065.132269601803,None,n,2.0083696946967393,5065.132269601803,None,,,NC11,001,2019_Dec_06_1112,ProdSingRedo,3.2.4,59.98328524748412,
,,,,152,0,152,0,,,,,,,,,,,,,,,,,,,,,,,,5069.917077759979,None,,,,,,,,,,,,,,,,,still,new_c,white,152,179,304,5067.699660074431,None,5067.699660074431,None,6,1.296684715198353,5067.699660074431,None,5069.036123231519,None,5069.550301516661,None,5069.550301516661,None,f,0.3261829752009362,5069.550301516661,None,,,NC11,001,2019_Dec_06_1112,ProdSingRedo,3.2.4,59.98328524748412,
,,,,153,0,153,0,,,,,,,,,,,,,,,,,,,,,,,,5074.351766337641,None,,,,,,,,,,,,,,,,,danger,new_b,white,153,124,85,5070.433869708562,None,5070.433869708562,None,6,2.69823661679402,5070.433869708562,None,5073.170732503757,None,5073.684854186606,None,5073.684854186606,None,r,0.6233677822165191,5073.684854186606,None,,,NC11,001,2019_Dec_06_1112,ProdSingRedo,3.2.4,59.98328524748412,
,,,,154,0,154,0,,,,,,,,,,,,,,,,,,,,,,,,5077.069247467676,None,,,,,,,,,,,,,,,,,medicine,new_b,white,154,145,186,5074.868594984757,None,5074.868594984757,None,6,1.1273100476246327,5074.868594984757,None,5076.038606896065,None,5076.552442145767,None,5076.552442145767,None,r,0.4834419251419604,5076.552442145767,None,,,NC11,001,2019_Dec_06_1112,ProdSingRedo,3.2.4,59.98328524748412,
,,,,155,0,155,0,,,,,,,,,,,,,,,,,,,,,,,,5080.1201943142805,None,,,,,,,,,,,,,,,,,payment,sing,white,155,6,215,5077.587402850622,None,5077.587402850622,None,4,1.776333655929193,5077.587402850622,None,5079.419811159372,None,5079.920201778412,None,5079.920201778412,None,n,0.1557235314976424,5079.920201778412,None,,,NC11,001,2019_Dec_06_1112,ProdSingRedo,3.2.4,59.98328524748412,
,,,,156,0,156,0,,,,,,,,,,,,,,,,,,,,,,,,5083.504570179153,None,,,,,,,,,,,,,,,,,agency,new_a,white,156,92,4,5080.6371538932435,None,5080.6371538932435,None,1,2.086274534231052,5080.6371538932435,None,5082.7759016735945,None,5083.287664714502,None,5083.287664714502,None,n,0.17976681049913168,5083.287664714502,None,,,NC11,001,2019_Dec_06_1112,ProdSingRedo,3.2.4,59.98328524748412,
,,,,157,0,157,0,,,,,,,,,,,,,,,,,,,,,,,,5085.788619802799,None,,,,,,,,,,,,,,,,,height,aloud,white,157,43,152,5084.021391362185,None,5084.021391362185,None,6,1.0938878713641316,5084.021391362185,None,5085.1549758818,None,5085.671885389369,None,5085.671885389369,None,r,0.08343974803574383,5085.671885389369,None,,,NC11,001,2019_Dec_06_1112,ProdSingRedo,3.2.4,59.98328524748412,
,,,,158,0,158,0,,,,,,,,,,,,,,,,,,,,,,,,5088.305766605074,None,,,,,,,,,,,,,,,,,growth,new_a,white,158,93,144,5086.305424502585,None,5086.305424502585,None,4,1.2900942647829652,5086.305424502585,None,5087.639091126854,None,5088.155954295071,None,5088.155954295071,None,n,0.12698007398284972,5088.155954295071,None,,,NC11,001,2019_Dec_06_1112,ProdSingRedo,3.2.4,59.98328524748412,
,,,,159,0,159,0,,,,,,,,,,,,,,,,,,,,,,,,5090.790119145066,None,,,,,,,,,,,,,,,,,poetry,sing,white,159,23,225,5088.8228300591,None,5088.8228300591,None,6,0.9565697687212378,5088.8228300591,None,5089.82774762786,None,5090.339852460427,None,5090.339852460427,None,r,0.4073751091491431,5090.339852460427,None,,,NC11,001,2019_Dec_06_1112,ProdSingRedo,3.2.4,59.98328524748412,
,,,,160,0,160,0,,,,,,,,,,,,,,,,,,,,,,,,5093.190862129442,None,,,,,,,,,,,,,,,,,tough,new_b,white,160,130,333,5091.306944993092,None,5091.306944993092,None,4,1.216054251184687,5091.306944993092,None,5092.558338749921,None,5093.074153840309,None,5093.074153840309,None,n,0.07298353873193264,5093.074153840309,None,,,NC11,001,2019_Dec_06_1112,ProdSingRedo,3.2.4,59.98328524748412,
,,,,161,0,161,0,,,,,,,,,,,,,,,,,,,,,,,,5096.441820483189,None,,,,,,,,,,,,,,,,,beauty,sing,white,161,22,18,5093.7089195468,None,5093.7089195468,None,1,1.781907128635794,5093.7089195468,None,5095.528822762892,None,5096.041577590397,None,5096.041577590397,None,n,0.3611203546170145,5096.041577590397,None,,,NC11,001,2019_Dec_06_1112,ProdSingRedo,3.2.4,59.98328524748412,
,,,,162,0,162,0,,,,,,,,,,,,,,,,,,,,,,,,5104.694378010929,None,,,,,,,,,,,,,,,,,military,silent,white,162,88,190,5096.958671211498,None,5096.958671211498,None,1,7.003570617642254,5096.958671211498,None,5104.015970902517,None,5104.527528682258,None,5104.527528682258,None,n,0.13065954251214862,5104.527528682258,None,,,NC11,001,2019_Dec_06_1112,ProdSingRedo,3.2.4,59.98328524748412,
,,,,163,0,163,0,,,,,,,,,,,,,,,,,,,,,,,,5108.562255202327,None,,,,,,,,,,,,,,,,,short,new_c,white,163,174,285,5105.21106763999,None,5105.21106763999,None,1,1.3751947653945535,5105.21106763999,None,5106.628303078003,None,5107.145123949973,None,5107.145123949973,None,n,1.368802112294361,5107.145123949973,None,,,NC11,001,2019_Dec_06_1112,ProdSingRedo,3.2.4,59.98328524748412,
,,,,164,0,164,0,,,,,,,,,,,,,,,,,,,,,,,,5111.146387241548,None,,,,,,,,,,,,,,,,,accident,new_b,white,164,148,0,5109.079060524236,None,5109.079060524236,None,4,1.290911267977208,5109.079060524236,None,5110.412783750799,None,5110.929662158247,None,5110.929662158247,None,n,0.17605904070660472,5110.929662158247,None,,,NC11,001,2019_Dec_06_1112,ProdSingRedo,3.2.4,59.98328524748412,
,,,,165,0,165,0,,,,,,,,,,,,,,,,,,,,,,,,5113.7805194361135,None,,,,,,,,,,,,,,,,,dispute,new_c,white,165,177,99,5111.663065674249,None,5111.663065674249,None,1,1.2825322430580854,5111.663065674249,None,5112.983917136444,None,5113.497107678326,None,5113.497107678326,None,n,0.248555549653247,5113.497107678326,None,,,NC11,001,2019_Dec_06_1112,ProdSingRedo,3.2.4,59.98328524748412,
,,,,166,0,166,0,,,,,,,,,,,,,,,,,,,,,,,,5116.431328197708,None,,,,,,,,,,,,,,,,,relation,new_a,white,166,107,257,5114.297356791096,None,5114.297356791096,None,3,1.352134564658627,5114.297356791096,None,5115.699932823423,None,5116.214617420454,None,5116.214617420454,None,n,0.17884126747958362,5116.214617420454,None,,,NC11,001,2019_Dec_06_1112,ProdSingRedo,3.2.4,59.98328524748412,
,,,,167,0,167,0,,,,,,,,,,,,,,,,,,,,,,,,5120.032446251018,None,,,,,,,,,,,,,,,,,country,new_a,white,167,98,73,5116.948098065332,None,5116.948098065332,None,6,2.1011189862620085,5116.948098065332,None,5119.083329031244,None,5119.598977113375,None,5119.598977113375,None,r,0.39417710341513157,5119.598977113375,None,,,NC11,001,2019_Dec_06_1112,ProdSingRedo,3.2.4,59.98328524748412,
,,,,168,0,168,0,,,,,,,,,,,,,,,,,,,,,,,,5122.399802513421,None,,,,,,,,,,,,,,,,,style,new_a,white,168,100,311,5120.549128415994,None,5120.549128415994,None,3,1.1800087701994926,5120.549128415994,None,5121.772698349552,None,5122.282992526656,None,5122.282992526656,None,n,0.07002870552241802,5122.282992526656,None,,,NC11,001,2019_Dec_06_1112,ProdSingRedo,3.2.4,59.98328524748412,
,,,,169,0,169,0,,,,,,,,,,,,,,,,,,,,,,,,5124.333743130788,None,,,,,,,,,,,,,,,,,mechanical,new_c,white,169,164,185,5122.91649463051,None,5122.91649463051,None,1,0.7325572788249701,5122.91649463051,None,5123.68751170137,None,5124.200288610067,None,5124.200288610067,None,n,0.09669715538620949,5124.200288610067,None,,,NC11,001,2019_Dec_06_1112,ProdSingRedo,3.2.4,59.98328524748412,
,,,,170,0,170,0,,,,,,,,,,,,,,,,,,,,,,,,5126.751158328261,None,,,,,,,,,,,,,,,,,listen,new_c,white,170,162,172,5124.850582351908,None,5124.850582351908,None,2,0.9182869370561093,5124.850582351908,None,5125.820213907398,None,5126.334363580449,None,5126.334363580449,None,f,0.37844505067914724,5126.334363580449,None,,,NC11,001,2019_Dec_06_1112,ProdSingRedo,3.2.4,59.98328524748412,
,,,,171,0,171,0,,,,,,,,,,,,,,,,,,,,,,,,5128.818469184218,None,,,,,,,,,,,,,,,,,escape,aloud,white,171,58,118,5127.267844225047,None,5127.267844225047,None,6,0.9007915009278804,5127.267844225047,None,5128.201451758854,None,5128.718433107948,None,5128.718433107948,None,r,0.06636354303918779,5128.718433107948,None,,,NC11,001,2019_Dec_06_1112,ProdSingRedo,3.2.4,59.98328524748412,
,,,,172,0,172,0,,,,,,,,,,,,,,,,,,,,,,,,5131.019135973416,None,,,,,,,,,,,,,,,,,production,new_a,white,172,91,240,5129.335157258436,None,5129.335157258436,None,1,1.0173732119146734,5129.335157258436,None,5130.387113929493,None,5130.902413378004,None,5130.902413378004,None,n,0.07433577696792781,5130.902413378004,None,,,NC11,001,2019_Dec_06_1112,ProdSingRedo,3.2.4,59.98328524748412,
,,,,173,0,173,0,,,,,,,,,,,,,,,,,,,,,,,,5133.519878024934,None,,,,,,,,,,,,,,,,,fight,new_a,white,173,119,127,5131.535951247206,None,5131.535951247206,None,1,1.0407540563028306,5131.535951247206,None,5132.621578274528,None,5133.136458181078,None,5133.136458181078,None,n,0.33586945361457765,5133.136458181078,None,,,NC11,001,2019_Dec_06_1112,ProdSingRedo,3.2.4,59.98328524748412,
,,,,174,0,174,0,,,,,,,,,,,,,,,,,,,,,,,,5135.903936356539,None,,,,,,,,,,,,,,,,,personnel,aloud,white,174,32,219,5134.036707915831,None,5134.036707915831,None,6,1.0035168142057955,5134.036707915831,None,5135.091180906864,None,5135.60380729055,None,5135.60380729055,None,r,0.26047409209422767,5135.60380729055,None,,,NC11,001,2019_Dec_06_1112,ProdSingRedo,3.2.4,59.98328524748412,
,,,,175,0,175,0,,,,,,,,,,,,,,,,,,,,,,,,5139.538434911985,None,,,,,,,,,,,,,,,,,colonel,silent,white,175,67,55,5136.420667970786,None,5136.420667970786,None,5,2.1953912563622,5136.420667970786,None,5138.657349762507,None,5139.171553860884,None,5139.171553860884,None,f,0.33258620207197964,5139.171553860884,None,,,NC11,001,2019_Dec_06_1112,ProdSingRedo,3.2.4,59.98328524748412,
,,,,176,0,176,0,,,,,,,,,,,,,,,,,,,,,,,,5142.089192358078,None,,,,,,,,,,,,,,,,,piece,sing,white,176,5,221,5140.055251429789,None,5140.055251429789,None,3,1.1125878193415701,5140.055251429789,None,5141.207530921325,None,5141.722425756045,None,5141.722425756045,None,n,0.33345980755984783,5141.722425756045,None,,,NC11,001,2019_Dec_06_1112,ProdSingRedo,3.2.4,59.98328524748412,
,,,,177,0,177,0,,,,,,,,,,,,,,,,,,,,,,,,5144.2898681662045,None,,,,,,,,,,,,,,,,,company,aloud,white,177,51,64,5142.606440236326,None,5142.606440236326,None,4,0.9453441395889968,5142.606440236326,None,5143.591406072723,None,5144.106447389349,None,5144.106447389349,None,f,0.1493946339469403,5144.106447389349,None,,,NC11,001,2019_Dec_06_1112,ProdSingRedo,3.2.4,59.98328524748412,
,,,,178,0,178,0,,,,,,,,,,,,,,,,,,,,,,,,5146.540546306642,None,,,,,,,,,,,,,,,,,waste,new_b,white,178,146,350,5144.80665171775,None,5144.80665171775,None,1,0.8489455466624349,5144.80665171775,None,5145.6902121347375,None,5146.207121642306,None,5146.207121642306,None,n,0.2887942751403898,5146.207121642306,None,,,NC11,001,2019_Dec_06_1112,ProdSingRedo,3.2.4,59.98328524748412,
,,,,179,0,179,0,,,,,,,,,,,,,,,,,,,,,,,,5148.741245128913,None,,,,,,,,,,,,,,,,,incident,new_a,white,179,106,158,5147.057318662293,None,5147.057318662293,None,2,0.8942091367207468,5147.057318662293,None,5147.994097486837,None,5148.507721565897,None,5148.507721565897,None,n,0.19577410025522113,5148.507721565897,None,,,NC11,001,2019_Dec_06_1112,ProdSingRedo,3.2.4,59.98328524748412,
,,,,,,,,,,,,,,,,,,,,,,,,,,,,,,,,,,,,,,,,,,,,,,,,,,,,,,,,,,,,,,,,,,,,,,,,,5149.2414264432155,None,,,,,,,
