StudyLoop.thisRepN,StudyLoop.thisTrialN,StudyLoop.thisN,StudyLoop.thisIndex,TestLoop.thisRepN,TestLoop.thisTrialN,TestLoop.thisN,TestLoop.thisIndex,textCondition.started,textCondition.stopped,keyCondition.keys,keyCondition.rt,keyCondition.started,keyCondition.stopped,Condition,stim_colors,color_sing,color_aloud,color_silent,textWelcome.started,textWelcome.stopped,keyWelcome.keys,keyWelcome.rt,keyWelcome.started,keyWelcome.stopped,textAloud.started,textAloud.stopped,textSilent.started,textSilent.stopped,textSing.started,textSing.stopped,textBlank500.started,textBlank500.stopped,study_word,study_type,study_color,study_num,study_word_num,textStudy.started,textStudy.stopped,keyStudy.keys,keyStudy.started,keyStudy.stopped,textTestInstructions.started,textTestInstructions.stopped,key_resp_3.keys,key_resp_3.rt,key_resp_3.started,key_resp_3.stopped,testWord,testType,testColor,testN,test_num,test_word_num,textConf.started,textConf.stopped,textConfScale.started,textConfScale.stopped,keyConf.keys,keyConf.rt,keyConf.started,keyConf.stopped,textTestBlank.started,textTestBlank.stopped,textRKN.started,textRKN.stopped,textRKNScale.started,textRKNScale.stopped,keyRKN.keys,keyRKN.rt,keyRKN.started,keyRKN.stopped,textEnd.started,textEnd.stopped,participant,session,date,expName,psychopyVersion,frameRate
,,,,,,,,31.3595707,None,n,3.914839,31.3595707,None,,,,,,,,,,,,,,,,,,,,,,,,,,,,,,,,,,,,,,,,,,,,,,,,,,,,,,,,,,,,,,NC14b,1,2021_Nov_11_1113,ProdSingRedo,3.2.3,59.72263601
,,,,,,,,,,,,,,NeutralTest,"['red', 'yellow', 'blue']",red,yellow,blue,35.3247814,None,space,1153.90277,35.3247814,None,,,,,,,,,,,,,,,,,,,,,,,,,,,,,,,,,,,,,,,,,,,,,,,,,,,NC14b,1,2021_Nov_11_1113,ProdSingRedo,3.2.3,59.72263601
0,0,0,0,,,,,,,,,,,,,,,,,,,,,,35.3247814,None,35.3247814,None,35.3247814,None,1191.78178,None,quiet,sing,red,1,249,1189.778825,None,None,1189.778825,None,,,,,,,,,,,,,,,,,,,,,,,,,,,,,,,,,NC14b,1,2021_Nov_11_1113,ProdSingRedo,3.2.3,59.72263601
1,0,1,0,,,,,,,,,,,,,,,,,,,,,,,,,,,,1194.299288,None,evidence,aloud,yellow,38,120,1192.298001,None,None,1192.298001,None,,,,,,,,,,,,,,,,,,,,,,,,,,,,,,,,,NC14b,1,2021_Nov_11_1113,ProdSingRedo,3.2.3,59.72263601
2,0,2,0,,,,,,,,,,,,,,,,,,,,,,,,,,,,1196.815907,None,threat,sing,red,9,329,1194.812236,None,None,1194.812236,None,,,,,,,,,,,,,,,,,,,,,,,,,,,,,,,,,NC14b,1,2021_Nov_11_1113,ProdSingRedo,3.2.3,59.72263601
3,0,3,0,,,,,,,,,,,,,,,,,,,,,,,,,,,,1199.332915,None,article,silent,blue,65,11,1197.329272,None,None,1197.329272,None,,,,,,,,,,,,,,,,,,,,,,,,,,,,,,,,,NC14b,1,2021_Nov_11_1113,ProdSingRedo,3.2.3,59.72263601
4,0,4,0,,,,,,,,,,,,,,,,,,,,,,,,,,,,1201.849572,None,bicycle,aloud,yellow,58,21,1199.858445,None,None,1199.858445,None,,,,,,,,,,,,,,,,,,,,,,,,,,,,,,,,,NC14b,1,2021_Nov_11_1113,ProdSingRedo,3.2.3,59.72263601
5,0,5,0,,,,,,,,,,,,,,,,,,,,,,,,,,,,1204.366043,None,background,sing,red,17,16,1202.37561,None,None,1202.37561,None,,,,,,,,,,,,,,,,,,,,,,,,,,,,,,,,,NC14b,1,2021_Nov_11_1113,ProdSingRedo,3.2.3,59.72263601
6,0,6,0,,,,,,,,,,,,,,,,,,,,,,,,,,,,1206.882432,None,primary,silent,blue,67,234,1204.88,None,None,1204.88,None,,,,,,,,,,,,,,,,,,,,,,,,,,,,,,,,,NC14b,1,2021_Nov_11_1113,ProdSingRedo,3.2.3,59.72263601
7,0,7,0,,,,,,,,,,,,,,,,,,,,,,,,,,,,1209.39957,None,attack,silent,blue,69,13,1207.402065,None,None,1207.402065,None,,,,,,,,,,,,,,,,,,,,,,,,,,,,,,,,,NC14b,1,2021_Nov_11_1113,ProdSingRedo,3.2.3,59.72263601
8,0,8,0,,,,,,,,,,,,,,,,,,,,,,,,,,,,1211.917053,None,damage,aloud,yellow,51,83,1209.913312,None,None,1209.913312,None,,,,,,,,,,,,,,,,,,,,,,,,,,,,,,,,,NC14b,1,2021_Nov_11_1113,ProdSingRedo,3.2.3,59.72263601
9,0,9,0,,,,,,,,,,,,,,,,,,,,,,,,,,,,1214.433091,None,production,sing,red,8,240,1212.431341,None,None,1212.431341,None,,,,,,,,,,,,,,,,,,,,,,,,,,,,,,,,,NC14b,1,2021_Nov_11_1113,ProdSingRedo,3.2.3,59.72263601
10,0,10,0,,,,,,,,,,,,,,,,,,,,,,,,,,,,1216.950679,None,territory,silent,blue,68,324,1214.949091,None,None,1214.949091,None,,,,,,,,,,,,,,,,,,,,,,,,,,,,,,,,,NC14b,1,2021_Nov_11_1113,ProdSingRedo,3.2.3,59.72263601
11,0,11,0,,,,,,,,,,,,,,,,,,,,,,,,,,,,1219.467628,None,brief,aloud,yellow,39,28,1217.457241,None,None,1217.457241,None,,,,,,,,,,,,,,,,,,,,,,,,,,,,,,,,,NC14b,1,2021_Nov_11_1113,ProdSingRedo,3.2.3,59.72263601
12,0,12,0,,,,,,,,,,,,,,,,,,,,,,,,,,,,1221.984264,None,owner,silent,blue,62,208,1219.980908,None,None,1219.980908,None,,,,,,,,,,,,,,,,,,,,,,,,,,,,,,,,,NC14b,1,2021_Nov_11_1113,ProdSingRedo,3.2.3,59.72263601
13,0,13,0,,,,,,,,,,,,,,,,,,,,,,,,,,,,1224.501468,None,graduate,silent,blue,85,141,1222.500994,None,None,1222.500994,None,,,,,,,,,,,,,,,,,,,,,,,,,,,,,,,,,NC14b,1,2021_Nov_11_1113,ProdSingRedo,3.2.3,59.72263601
14,0,14,0,,,,,,,,,,,,,,,,,,,,,,,,,,,,1227.017943,None,population,aloud,yellow,55,227,1225.018011,None,None,1225.018011,None,,,,,,,,,,,,,,,,,,,,,,,,,,,,,,,,,NC14b,1,2021_Nov_11_1113,ProdSingRedo,3.2.3,59.72263601
15,0,15,0,,,,,,,,,,,,,,,,,,,,,,,,,,,,1229.533994,None,appeal,sing,red,3,9,1227.53638,None,None,1227.53638,None,,,,,,,,,,,,,,,,,,,,,,,,,,,,,,,,,NC14b,1,2021_Nov_11_1113,ProdSingRedo,3.2.3,59.72263601
16,0,16,0,,,,,,,,,,,,,,,,,,,,,,,,,,,,1232.051739,None,voice,silent,blue,73,348,1230.044747,None,None,1230.044747,None,,,,,,,,,,,,,,,,,,,,,,,,,,,,,,,,,NC14b,1,2021_Nov_11_1113,ProdSingRedo,3.2.3,59.72263601
17,0,17,0,,,,,,,,,,,,,,,,,,,,,,,,,,,,1234.568178,None,discussion,aloud,yellow,57,96,1232.554444,None,None,1232.554444,None,,,,,,,,,,,,,,,,,,,,,,,,,,,,,,,,,NC14b,1,2021_Nov_11_1113,ProdSingRedo,3.2.3,59.72263601
18,0,18,0,,,,,,,,,,,,,,,,,,,,,,,,,,,,1237.085266,None,solution,sing,red,14,294,1235.079656,None,None,1235.079656,None,,,,,,,,,,,,,,,,,,,,,,,,,,,,,,,,,NC14b,1,2021_Nov_11_1113,ProdSingRedo,3.2.3,59.72263601
19,0,19,0,,,,,,,,,,,,,,,,,,,,,,,,,,,,1239.602201,None,strain,aloud,yellow,37,308,1237.600996,None,None,1237.600996,None,,,,,,,,,,,,,,,,,,,,,,,,,,,,,,,,,NC14b,1,2021_Nov_11_1113,ProdSingRedo,3.2.3,59.72263601
20,0,20,0,,,,,,,,,,,,,,,,,,,,,,,,,,,,1242.118208,None,resistance,silent,blue,81,262,1240.116645,None,None,1240.116645,None,,,,,,,,,,,,,,,,,,,,,,,,,,,,,,,,,NC14b,1,2021_Nov_11_1113,ProdSingRedo,3.2.3,59.72263601
21,0,21,0,,,,,,,,,,,,,,,,,,,,,,,,,,,,1244.635273,None,bright,silent,blue,83,29,1242.624877,None,None,1242.624877,None,,,,,,,,,,,,,,,,,,,,,,,,,,,,,,,,,NC14b,1,2021_Nov_11_1113,ProdSingRedo,3.2.3,59.72263601
22,0,22,0,,,,,,,,,,,,,,,,,,,,,,,,,,,,1247.152577,None,thick,silent,blue,88,327,1245.148751,None,None,1245.148751,None,,,,,,,,,,,,,,,,,,,,,,,,,,,,,,,,,NC14b,1,2021_Nov_11_1113,ProdSingRedo,3.2.3,59.72263601
23,0,23,0,,,,,,,,,,,,,,,,,,,,,,,,,,,,1249.669084,None,generation,silent,blue,70,136,1247.671044,None,None,1247.671044,None,,,,,,,,,,,,,,,,,,,,,,,,,,,,,,,,,NC14b,1,2021_Nov_11_1113,ProdSingRedo,3.2.3,59.72263601
24,0,24,0,,,,,,,,,,,,,,,,,,,,,,,,,,,,1252.185516,None,crime,sing,red,10,78,1250.178571,None,None,1250.178571,None,,,,,,,,,,,,,,,,,,,,,,,,,,,,,,,,,NC14b,1,2021_Nov_11_1113,ProdSingRedo,3.2.3,59.72263601
25,0,25,0,,,,,,,,,,,,,,,,,,,,,,,,,,,,1254.702157,None,reach,silent,blue,66,253,1252.701863,None,None,1252.701863,None,,,,,,,,,,,,,,,,,,,,,,,,,,,,,,,,,NC14b,1,2021_Nov_11_1113,ProdSingRedo,3.2.3,59.72263601
26,0,26,0,,,,,,,,,,,,,,,,,,,,,,,,,,,,1257.219215,None,audience,aloud,yellow,45,14,1255.2107,None,None,1255.2107,None,,,,,,,,,,,,,,,,,,,,,,,,,,,,,,,,,NC14b,1,2021_Nov_11_1113,ProdSingRedo,3.2.3,59.72263601
27,0,27,0,,,,,,,,,,,,,,,,,,,,,,,,,,,,1259.73693,None,empty,silent,blue,87,112,1257.731381,None,None,1257.731381,None,,,,,,,,,,,,,,,,,,,,,,,,,,,,,,,,,NC14b,1,2021_Nov_11_1113,ProdSingRedo,3.2.3,59.72263601
28,0,28,0,,,,,,,,,,,,,,,,,,,,,,,,,,,,1262.255903,None,sound,silent,blue,63,295,1260.252133,None,None,1260.252133,None,,,,,,,,,,,,,,,,,,,,,,,,,,,,,,,,,NC14b,1,2021_Nov_11_1113,ProdSingRedo,3.2.3,59.72263601
29,0,29,0,,,,,,,,,,,,,,,,,,,,,,,,,,,,1264.75394,None,murder,aloud,yellow,32,195,1262.752563,None,None,1262.752563,None,,,,,,,,,,,,,,,,,,,,,,,,,,,,,,,,,NC14b,1,2021_Nov_11_1113,ProdSingRedo,3.2.3,59.72263601
30,0,30,0,,,,,,,,,,,,,,,,,,,,,,,,,,,,1267.270864,None,congress,silent,blue,72,67,1265.271842,None,None,1265.271842,None,,,,,,,,,,,,,,,,,,,,,,,,,,,,,,,,,NC14b,1,2021_Nov_11_1113,ProdSingRedo,3.2.3,59.72263601
31,0,31,0,,,,,,,,,,,,,,,,,,,,,,,,,,,,1269.787673,None,goose,aloud,yellow,48,138,1267.782529,None,None,1267.782529,None,,,,,,,,,,,,,,,,,,,,,,,,,,,,,,,,,NC14b,1,2021_Nov_11_1113,ProdSingRedo,3.2.3,59.72263601
32,0,32,0,,,,,,,,,,,,,,,,,,,,,,,,,,,,1272.304499,None,disease,aloud,yellow,56,97,1270.301369,None,None,1270.301369,None,,,,,,,,,,,,,,,,,,,,,,,,,,,,,,,,,NC14b,1,2021_Nov_11_1113,ProdSingRedo,3.2.3,59.72263601
33,0,33,0,,,,,,,,,,,,,,,,,,,,,,,,,,,,1274.820256,None,carry,silent,blue,89,43,1272.818312,None,None,1272.818312,None,,,,,,,,,,,,,,,,,,,,,,,,,,,,,,,,,NC14b,1,2021_Nov_11_1113,ProdSingRedo,3.2.3,59.72263601
34,0,34,0,,,,,,,,,,,,,,,,,,,,,,,,,,,,1277.337817,None,front,sing,red,13,134,1275.331483,None,None,1275.331483,None,,,,,,,,,,,,,,,,,,,,,,,,,,,,,,,,,NC14b,1,2021_Nov_11_1113,ProdSingRedo,3.2.3,59.72263601
35,0,35,0,,,,,,,,,,,,,,,,,,,,,,,,,,,,1279.855508,None,column,sing,red,24,57,1277.854234,None,None,1277.854234,None,,,,,,,,,,,,,,,,,,,,,,,,,,,,,,,,,NC14b,1,2021_Nov_11_1113,ProdSingRedo,3.2.3,59.72263601
36,0,36,0,,,,,,,,,,,,,,,,,,,,,,,,,,,,1282.371805,None,course,silent,blue,80,74,1280.359248,None,None,1280.359248,None,,,,,,,,,,,,,,,,,,,,,,,,,,,,,,,,,NC14b,1,2021_Nov_11_1113,ProdSingRedo,3.2.3,59.72263601
37,0,37,0,,,,,,,,,,,,,,,,,,,,,,,,,,,,1284.888656,None,plane,aloud,yellow,43,223,1282.884767,None,None,1282.884767,None,,,,,,,,,,,,,,,,,,,,,,,,,,,,,,,,,NC14b,1,2021_Nov_11_1113,ProdSingRedo,3.2.3,59.72263601
38,0,38,0,,,,,,,,,,,,,,,,,,,,,,,,,,,,1287.405545,None,quarter,sing,red,20,246,1285.404186,None,None,1285.404186,None,,,,,,,,,,,,,,,,,,,,,,,,,,,,,,,,,NC14b,1,2021_Nov_11_1113,ProdSingRedo,3.2.3,59.72263601
39,0,39,0,,,,,,,,,,,,,,,,,,,,,,,,,,,,1289.922245,None,dozen,sing,red,15,102,1287.930533,None,None,1287.930533,None,,,,,,,,,,,,,,,,,,,,,,,,,,,,,,,,,NC14b,1,2021_Nov_11_1113,ProdSingRedo,3.2.3,59.72263601
40,0,40,0,,,,,,,,,,,,,,,,,,,,,,,,,,,,1292.440232,None,staff,sing,red,25,301,1290.4338,None,None,1290.4338,None,,,,,,,,,,,,,,,,,,,,,,,,,,,,,,,,,NC14b,1,2021_Nov_11_1113,ProdSingRedo,3.2.3,59.72263601
41,0,41,0,,,,,,,,,,,,,,,,,,,,,,,,,,,,1294.940095,None,fellow,aloud,yellow,31,126,1292.938974,None,None,1292.938974,None,,,,,,,,,,,,,,,,,,,,,,,,,,,,,,,,,NC14b,1,2021_Nov_11_1113,ProdSingRedo,3.2.3,59.72263601
42,0,42,0,,,,,,,,,,,,,,,,,,,,,,,,,,,,1297.456099,None,history,silent,blue,71,153,1295.455023,None,None,1295.455023,None,,,,,,,,,,,,,,,,,,,,,,,,,,,,,,,,,NC14b,1,2021_Nov_11_1113,ProdSingRedo,3.2.3,59.72263601
43,0,43,0,,,,,,,,,,,,,,,,,,,,,,,,,,,,1299.973177,None,employment,silent,blue,75,111,1297.958987,None,None,1297.958987,None,,,,,,,,,,,,,,,,,,,,,,,,,,,,,,,,,NC14b,1,2021_Nov_11_1113,ProdSingRedo,3.2.3,59.72263601
44,0,44,0,,,,,,,,,,,,,,,,,,,,,,,,,,,,1302.489452,None,weight,aloud,yellow,35,353,1300.484209,None,None,1300.484209,None,,,,,,,,,,,,,,,,,,,,,,,,,,,,,,,,,NC14b,1,2021_Nov_11_1113,ProdSingRedo,3.2.3,59.72263601
45,0,45,0,,,,,,,,,,,,,,,,,,,,,,,,,,,,1305.006645,None,edition,aloud,yellow,40,107,1302.999851,None,None,1302.999851,None,,,,,,,,,,,,,,,,,,,,,,,,,,,,,,,,,NC14b,1,2021_Nov_11_1113,ProdSingRedo,3.2.3,59.72263601
46,0,46,0,,,,,,,,,,,,,,,,,,,,,,,,,,,,1307.523447,None,grade,silent,blue,79,140,1305.521791,None,None,1305.521791,None,,,,,,,,,,,,,,,,,,,,,,,,,,,,,,,,,NC14b,1,2021_Nov_11_1113,ProdSingRedo,3.2.3,59.72263601
47,0,47,0,,,,,,,,,,,,,,,,,,,,,,,,,,,,1310.040401,None,education,sing,red,18,108,1308.041739,None,None,1308.041739,None,,,,,,,,,,,,,,,,,,,,,,,,,,,,,,,,,NC14b,1,2021_Nov_11_1113,ProdSingRedo,3.2.3,59.72263601
48,0,48,0,,,,,,,,,,,,,,,,,,,,,,,,,,,,1312.55723,None,instrument,sing,red,23,163,1310.554678,None,None,1310.554678,None,,,,,,,,,,,,,,,,,,,,,,,,,,,,,,,,,NC14b,1,2021_Nov_11_1113,ProdSingRedo,3.2.3,59.72263601
49,0,49,0,,,,,,,,,,,,,,,,,,,,,,,,,,,,1315.072903,None,scene,silent,blue,74,273,1313.067902,None,None,1313.067902,None,,,,,,,,,,,,,,,,,,,,,,,,,,,,,,,,,NC14b,1,2021_Nov_11_1113,ProdSingRedo,3.2.3,59.72263601
50,0,50,0,,,,,,,,,,,,,,,,,,,,,,,,,,,,1317.590325,None,commercial,sing,red,11,61,1315.583382,None,None,1315.583382,None,,,,,,,,,,,,,,,,,,,,,,,,,,,,,,,,,NC14b,1,2021_Nov_11_1113,ProdSingRedo,3.2.3,59.72263601
51,0,51,0,,,,,,,,,,,,,,,,,,,,,,,,,,,,1320.106992,None,detective,aloud,yellow,36,92,1318.121036,None,None,1318.121036,None,,,,,,,,,,,,,,,,,,,,,,,,,,,,,,,,,NC14b,1,2021_Nov_11_1113,ProdSingRedo,3.2.3,59.72263601
52,0,52,0,,,,,,,,,,,,,,,,,,,,,,,,,,,,1322.623153,None,region,silent,blue,86,256,1320.612292,None,None,1320.612292,None,,,,,,,,,,,,,,,,,,,,,,,,,,,,,,,,,NC14b,1,2021_Nov_11_1113,ProdSingRedo,3.2.3,59.72263601
53,0,53,0,,,,,,,,,,,,,,,,,,,,,,,,,,,,1325.125315,None,guide,aloud,yellow,46,147,1323.123186,None,None,1323.123186,None,,,,,,,,,,,,,,,,,,,,,,,,,,,,,,,,,NC14b,1,2021_Nov_11_1113,ProdSingRedo,3.2.3,59.72263601
54,0,54,0,,,,,,,,,,,,,,,,,,,,,,,,,,,,1327.641486,None,capital,sing,red,26,40,1325.643076,None,None,1325.643076,None,,,,,,,,,,,,,,,,,,,,,,,,,,,,,,,,,NC14b,1,2021_Nov_11_1113,ProdSingRedo,3.2.3,59.72263601
55,0,55,0,,,,,,,,,,,,,,,,,,,,,,,,,,,,1330.158446,None,estate,sing,red,12,119,1328.156592,None,None,1328.156592,None,,,,,,,,,,,,,,,,,,,,,,,,,,,,,,,,,NC14b,1,2021_Nov_11_1113,ProdSingRedo,3.2.3,59.72263601
56,0,56,0,,,,,,,,,,,,,,,,,,,,,,,,,,,,1332.67529,None,executive,aloud,yellow,52,122,1330.676611,None,None,1330.676611,None,,,,,,,,,,,,,,,,,,,,,,,,,,,,,,,,,NC14b,1,2021_Nov_11_1113,ProdSingRedo,3.2.3,59.72263601
57,0,57,0,,,,,,,,,,,,,,,,,,,,,,,,,,,,1335.192023,None,afternoon,aloud,yellow,49,3,1333.197935,None,None,1333.197935,None,,,,,,,,,,,,,,,,,,,,,,,,,,,,,,,,,NC14b,1,2021_Nov_11_1113,ProdSingRedo,3.2.3,59.72263601
58,0,58,0,,,,,,,,,,,,,,,,,,,,,,,,,,,,1337.70914,None,institute,aloud,yellow,44,162,1335.705229,None,None,1335.705229,None,,,,,,,,,,,,,,,,,,,,,,,,,,,,,,,,,NC14b,1,2021_Nov_11_1113,ProdSingRedo,3.2.3,59.72263601
59,0,59,0,,,,,,,,,,,,,,,,,,,,,,,,,,,,1340.225752,None,agreement,aloud,yellow,33,5,1338.222364,None,None,1338.222364,None,,,,,,,,,,,,,,,,,,,,,,,,,,,,,,,,,NC14b,1,2021_Nov_11_1113,ProdSingRedo,3.2.3,59.72263601
60,0,60,0,,,,,,,,,,,,,,,,,,,,,,,,,,,,1342.742094,None,series,silent,blue,61,279,1340.726859,None,None,1340.726859,None,,,,,,,,,,,,,,,,,,,,,,,,,,,,,,,,,NC14b,1,2021_Nov_11_1113,ProdSingRedo,3.2.3,59.72263601
61,0,61,0,,,,,,,,,,,,,,,,,,,,,,,,,,,,1345.259359,None,account,silent,blue,76,1,1343.259501,None,None,1343.259501,None,,,,,,,,,,,,,,,,,,,,,,,,,,,,,,,,,NC14b,1,2021_Nov_11_1113,ProdSingRedo,3.2.3,59.72263601
62,0,62,0,,,,,,,,,,,,,,,,,,,,,,,,,,,,1347.776262,None,trash,aloud,yellow,42,337,1345.774961,None,None,1345.774961,None,,,,,,,,,,,,,,,,,,,,,,,,,,,,,,,,,NC14b,1,2021_Nov_11_1113,ProdSingRedo,3.2.3,59.72263601
63,0,63,0,,,,,,,,,,,,,,,,,,,,,,,,,,,,1350.29302,None,election,aloud,yellow,59,109,1348.287883,None,None,1348.287883,None,,,,,,,,,,,,,,,,,,,,,,,,,,,,,,,,,NC14b,1,2021_Nov_11_1113,ProdSingRedo,3.2.3,59.72263601
64,0,64,0,,,,,,,,,,,,,,,,,,,,,,,,,,,,1352.808779,None,minor,sing,red,29,191,1350.805038,None,None,1350.805038,None,,,,,,,,,,,,,,,,,,,,,,,,,,,,,,,,,NC14b,1,2021_Nov_11_1113,ProdSingRedo,3.2.3,59.72263601
65,0,65,0,,,,,,,,,,,,,,,,,,,,,,,,,,,,1355.326818,None,novel,sing,red,7,202,1353.311104,None,None,1353.311104,None,,,,,,,,,,,,,,,,,,,,,,,,,,,,,,,,,NC14b,1,2021_Nov_11_1113,ProdSingRedo,3.2.3,59.72263601
66,0,66,0,,,,,,,,,,,,,,,,,,,,,,,,,,,,1357.843693,None,nature,sing,red,27,200,1355.844711,None,None,1355.844711,None,,,,,,,,,,,,,,,,,,,,,,,,,,,,,,,,,NC14b,1,2021_Nov_11_1113,ProdSingRedo,3.2.3,59.72263601
67,0,67,0,,,,,,,,,,,,,,,,,,,,,,,,,,,,1360.36048,None,medicine,sing,red,0,186,1358.344845,None,None,1358.344845,None,,,,,,,,,,,,,,,,,,,,,,,,,,,,,,,,,NC14b,1,2021_Nov_11_1113,ProdSingRedo,3.2.3,59.72263601
68,0,68,0,,,,,,,,,,,,,,,,,,,,,,,,,,,,1362.877416,None,personnel,sing,red,22,219,1360.869439,None,None,1360.869439,None,,,,,,,,,,,,,,,,,,,,,,,,,,,,,,,,,NC14b,1,2021_Nov_11_1113,ProdSingRedo,3.2.3,59.72263601
69,0,69,0,,,,,,,,,,,,,,,,,,,,,,,,,,,,1365.394193,None,level,sing,red,5,170,1363.392942,None,None,1363.392942,None,,,,,,,,,,,,,,,,,,,,,,,,,,,,,,,,,NC14b,1,2021_Nov_11_1113,ProdSingRedo,3.2.3,59.72263601
70,0,70,0,,,,,,,,,,,,,,,,,,,,,,,,,,,,1367.910899,None,vision,aloud,yellow,34,347,1365.907595,None,None,1365.907595,None,,,,,,,,,,,,,,,,,,,,,,,,,,,,,,,,,NC14b,1,2021_Nov_11_1113,ProdSingRedo,3.2.3,59.72263601
71,0,71,0,,,,,,,,,,,,,,,,,,,,,,,,,,,,1370.427977,None,mayor,sing,red,28,183,1368.429203,None,None,1368.429203,None,,,,,,,,,,,,,,,,,,,,,,,,,,,,,,,,,NC14b,1,2021_Nov_11_1113,ProdSingRedo,3.2.3,59.72263601
72,0,72,0,,,,,,,,,,,,,,,,,,,,,,,,,,,,1372.944645,None,colonel,aloud,yellow,30,55,1370.937606,None,None,1370.937606,None,,,,,,,,,,,,,,,,,,,,,,,,,,,,,,,,,NC14b,1,2021_Nov_11_1113,ProdSingRedo,3.2.3,59.72263601
73,0,73,0,,,,,,,,,,,,,,,,,,,,,,,,,,,,1375.460633,None,engineer,silent,blue,60,114,1373.458825,None,None,1373.458825,None,,,,,,,,,,,,,,,,,,,,,,,,,,,,,,,,,NC14b,1,2021_Nov_11_1113,ProdSingRedo,3.2.3,59.72263601
74,0,74,0,,,,,,,,,,,,,,,,,,,,,,,,,,,,1377.978344,None,answer,sing,red,2,8,1375.979979,None,None,1375.979979,None,,,,,,,,,,,,,,,,,,,,,,,,,,,,,,,,,NC14b,1,2021_Nov_11_1113,ProdSingRedo,3.2.3,59.72263601
75,0,75,0,,,,,,,,,,,,,,,,,,,,,,,,,,,,1380.495177,None,rough,sing,red,4,266,1378.492658,None,None,1378.492658,None,,,,,,,,,,,,,,,,,,,,,,,,,,,,,,,,,NC14b,1,2021_Nov_11_1113,ProdSingRedo,3.2.3,59.72263601
76,0,76,0,,,,,,,,,,,,,,,,,,,,,,,,,,,,1383.010857,None,working,silent,blue,84,357,1380.99615,None,None,1380.99615,None,,,,,,,,,,,,,,,,,,,,,,,,,,,,,,,,,NC14b,1,2021_Nov_11_1113,ProdSingRedo,3.2.3,59.72263601
77,0,77,0,,,,,,,,,,,,,,,,,,,,,,,,,,,,1385.512241,None,design,sing,red,21,91,1383.512778,None,None,1383.512778,None,,,,,,,,,,,,,,,,,,,,,,,,,,,,,,,,,NC14b,1,2021_Nov_11_1113,ProdSingRedo,3.2.3,59.72263601
78,0,78,0,,,,,,,,,,,,,,,,,,,,,,,,,,,,1388.028967,None,skill,silent,blue,78,289,1386.030288,None,None,1386.030288,None,,,,,,,,,,,,,,,,,,,,,,,,,,,,,,,,,NC14b,1,2021_Nov_11_1113,ProdSingRedo,3.2.3,59.72263601
79,0,79,0,,,,,,,,,,,,,,,,,,,,,,,,,,,,1390.545884,None,country,aloud,yellow,53,73,1388.546382,None,None,1388.546382,None,,,,,,,,,,,,,,,,,,,,,,,,,,,,,,,,,NC14b,1,2021_Nov_11_1113,ProdSingRedo,3.2.3,59.72263601
80,0,80,0,,,,,,,,,,,,,,,,,,,,,,,,,,,,1393.061935,None,platform,silent,blue,82,224,1391.062714,None,None,1391.062714,None,,,,,,,,,,,,,,,,,,,,,,,,,,,,,,,,,NC14b,1,2021_Nov_11_1113,ProdSingRedo,3.2.3,59.72263601
81,0,81,0,,,,,,,,,,,,,,,,,,,,,,,,,,,,1395.57945,None,profession,aloud,yellow,50,241,1393.573755,None,None,1393.573755,None,,,,,,,,,,,,,,,,,,,,,,,,,,,,,,,,,NC14b,1,2021_Nov_11_1113,ProdSingRedo,3.2.3,59.72263601
82,0,82,0,,,,,,,,,,,,,,,,,,,,,,,,,,,,1398.096326,None,raise,sing,red,19,250,1396.085143,None,None,1396.085143,None,,,,,,,,,,,,,,,,,,,,,,,,,,,,,,,,,NC14b,1,2021_Nov_11_1113,ProdSingRedo,3.2.3,59.72263601
83,0,83,0,,,,,,,,,,,,,,,,,,,,,,,,,,,,1400.613241,None,subject,aloud,yellow,41,312,1398.61442,None,None,1398.61442,None,,,,,,,,,,,,,,,,,,,,,,,,,,,,,,,,,NC14b,1,2021_Nov_11_1113,ProdSingRedo,3.2.3,59.72263601
84,0,84,0,,,,,,,,,,,,,,,,,,,,,,,,,,,,1403.129556,None,leader,aloud,yellow,47,168,1401.127564,None,None,1401.127564,None,,,,,,,,,,,,,,,,,,,,,,,,,,,,,,,,,NC14b,1,2021_Nov_11_1113,ProdSingRedo,3.2.3,59.72263601
85,0,85,0,,,,,,,,,,,,,,,,,,,,,,,,,,,,1405.646775,None,defeat,silent,blue,64,88,1403.646681,None,None,1403.646681,None,,,,,,,,,,,,,,,,,,,,,,,,,,,,,,,,,NC14b,1,2021_Nov_11_1113,ProdSingRedo,3.2.3,59.72263601
86,0,86,0,,,,,,,,,,,,,,,,,,,,,,,,,,,,1408.165394,None,impact,silent,blue,77,157,1406.161303,None,None,1406.161303,None,,,,,,,,,,,,,,,,,,,,,,,,,,,,,,,,,NC14b,1,2021_Nov_11_1113,ProdSingRedo,3.2.3,59.72263601
87,0,87,0,,,,,,,,,,,,,,,,,,,,,,,,,,,,1410.680438,None,patient,sing,red,16,213,1408.676677,None,None,1408.676677,None,,,,,,,,,,,,,,,,,,,,,,,,,,,,,,,,,NC14b,1,2021_Nov_11_1113,ProdSingRedo,3.2.3,59.72263601
88,0,88,0,,,,,,,,,,,,,,,,,,,,,,,,,,,,1413.196067,None,substance,aloud,yellow,54,313,1411.208748,None,None,1411.208748,None,,,,,,,,,,,,,,,,,,,,,,,,,,,,,,,,,NC14b,1,2021_Nov_11_1113,ProdSingRedo,3.2.3,59.72263601
89,0,89,0,,,,,,,,,,,,,,,,,,,,,,,,,,,,1415.714454,None,short,sing,red,6,285,1413.706076,None,None,1413.706076,None,,,,,,,,,,,,,,,,,,,,,,,,,,,,,,,,,NC14b,1,2021_Nov_11_1113,ProdSingRedo,3.2.3,59.72263601
,,,,,,,,,,,,,,,,,,,,,,,,,,,,,,,,,,,,,,,,,,,1416.21417,None,k,185.4573759,1416.21417,None,,,,,,,,,,,,,,,,,,,,,,,,,,,NC14b,1,2021_Nov_11_1113,ProdSingRedo,3.2.3,59.72263601
,,,,0,0,0,0,,,,,,,,,,,,,,,,,,,,,,,,1612.032259,None,,,,,,,,,,,,,,,,,level,sing,white,0,5,170,1602.200071,None,1602.200071,None,6,6.0193975,1602.200071,None,1608.255173,None,1608.77314,None,1608.77314,None,f,3.2383253,1608.77314,None,,,NC14b,1,2021_Nov_11_1113,ProdSingRedo,3.2.3,59.72263601
,,,,1,0,1,0,,,,,,,,,,,,,,,,,,,,,,,,1618.236889,None,,,,,,,,,,,,,,,,,cover,new_a,white,1,106,77,1612.546788,None,1612.546788,None,4,3.776744,1612.546788,None,1616.367921,None,1616.888207,None,1616.888207,None,n,1.3235547,1616.888207,None,,,NC14b,1,2021_Nov_11_1113,ProdSingRedo,3.2.3,59.72263601
,,,,2,0,2,0,,,,,,,,,,,,,,,,,,,,,,,,1626.907291,None,,,,,,,,,,,,,,,,,education,sing,white,2,18,108,1618.769223,None,1618.769223,None,6,3.7700207,1618.769223,None,1622.573836,None,1623.079864,None,1623.079864,None,r,3.7877245,1623.079864,None,,,NC14b,1,2021_Nov_11_1113,ProdSingRedo,3.2.3,59.72263601
,,,,3,0,3,0,,,,,,,,,,,,,,,,,,,,,,,,1633.93816,None,,,,,,,,,,,,,,,,,testimony,new_c,white,3,167,325,1627.426248,None,1627.426248,None,3,3.3773928,1627.426248,None,1630.846066,None,1631.355556,None,1631.355556,None,r,2.5442716,1631.355556,None,,,NC14b,1,2021_Nov_11_1113,ProdSingRedo,3.2.3,59.72263601
,,,,4,0,4,0,,,,,,,,,,,,,,,,,,,,,,,,1639.452293,None,,,,,,,,,,,,,,,,,whole,new_a,white,4,105,355,1634.46565,None,1634.46565,None,1,2.0821234,1634.46565,None,1636.59538,None,1637.097713,None,1637.097713,None,n,2.3219688,1637.097713,None,,,NC14b,1,2021_Nov_11_1113,ProdSingRedo,3.2.3,59.72263601
,,,,5,0,5,0,,,,,,,,,,,,,,,,,,,,,,,,1646.398267,None,,,,,,,,,,,,,,,,,light,new_a,white,5,116,171,1639.967178,None,1639.967178,None,4,4.1005507,1639.967178,None,1644.118604,None,1644.641236,None,1644.641236,None,n,1.7303887,1644.641236,None,,,NC14b,1,2021_Nov_11_1113,ProdSingRedo,3.2.3,59.72263601
,,,,6,0,6,0,,,,,,,,,,,,,,,,,,,,,,,,1655.998228,None,,,,,,,,,,,,,,,,,literature,new_c,white,6,165,173,1646.928221,None,1646.928221,None,3,6.691217,1646.928221,None,1653.658815,None,1654.17848,None,1654.17848,None,r,1.8012205,1654.17848,None,,,NC14b,1,2021_Nov_11_1113,ProdSingRedo,3.2.3,59.72263601
,,,,7,0,7,0,,,,,,,,,,,,,,,,,,,,,,,,1661.790612,None,,,,,,,,,,,,,,,,,account,silent,white,7,76,1,1656.537747,None,1656.537747,None,5,2.9859986,1656.537747,None,1659.575323,None,1660.094495,None,1660.094495,None,f,1.6692362,1660.094495,None,,,NC14b,1,2021_Nov_11_1113,ProdSingRedo,3.2.3,59.72263601
,,,,8,0,8,0,,,,,,,,,,,,,,,,,,,,,,,,1669.599935,None,,,,,,,,,,,,,,,,,management,new_c,white,8,152,177,1662.314323,None,1662.314323,None,5,5.521379,1662.314323,None,1667.888588,None,1668.397819,None,1668.397819,None,r,1.1817949,1668.397819,None,,,NC14b,1,2021_Nov_11_1113,ProdSingRedo,3.2.3,59.72263601
,,,,9,0,9,0,,,,,,,,,,,,,,,,,,,,,,,,1674.757823,None,,,,,,,,,,,,,,,,,religion,new_a,white,9,94,258,1670.133995,None,1670.133995,None,6,1.7335036,1670.133995,None,1671.916879,None,1672.445931,None,1672.445931,None,f,2.2860278,1672.445931,None,,,NC14b,1,2021_Nov_11_1113,ProdSingRedo,3.2.3,59.72263601
,,,,10,0,10,0,,,,,,,,,,,,,,,,,,,,,,,,1681.049758,None,,,,,,,,,,,,,,,,,minor,sing,white,10,29,191,1675.277839,None,1675.277839,None,3,3.6537877,1675.277839,None,1678.956581,None,1679.46697,None,1679.46697,None,f,1.5604242,1679.46697,None,,,NC14b,1,2021_Nov_11_1113,ProdSingRedo,3.2.3,59.72263601
,,,,11,0,11,0,,,,,,,,,,,,,,,,,,,,,,,,1684.892515,None,,,,,,,,,,,,,,,,,portion,new_c,white,11,159,228,1681.570456,None,1681.570456,None,1,1.5770837,1681.570456,None,1683.170339,None,1683.68151,None,1683.68151,None,n,1.1703025,1683.68151,None,,,NC14b,1,2021_Nov_11_1113,ProdSingRedo,3.2.3,59.72263601
,,,,12,0,12,0,,,,,,,,,,,,,,,,,,,,,,,,1689.293894,None,,,,,,,,,,,,,,,,,capital,sing,white,12,26,40,1685.419467,None,1685.419467,None,6,2.144752,1685.419467,None,1687.60776,None,1688.134743,None,1688.134743,None,n,1.1330091,1688.134743,None,,,NC14b,1,2021_Nov_11_1113,ProdSingRedo,3.2.3,59.72263601
,,,,13,0,13,0,,,,,,,,,,,,,,,,,,,,,,,,1696.924574,None,,,,,,,,,,,,,,,,,color,new_c,white,13,156,56,1689.81658,None,1689.81658,None,2,5.4509859,1689.81658,None,1695.302641,None,1695.823259,None,1695.823259,None,n,1.0683903,1695.823259,None,,,NC14b,1,2021_Nov_11_1113,ProdSingRedo,3.2.3,59.72263601
,,,,14,0,14,0,,,,,,,,,,,,,,,,,,,,,,,,1700.950344,None,,,,,,,,,,,,,,,,,shock,new_a,white,14,91,284,1697.442523,None,1697.442523,None,1,1.3772168,1697.442523,None,1698.873954,None,1699.392425,None,1699.392425,None,f,1.5311096,1699.392425,None,,,NC14b,1,2021_Nov_11_1113,ProdSingRedo,3.2.3,59.72263601
,,,,15,0,15,0,,,,,,,,,,,,,,,,,,,,,,,,1705.825107,None,,,,,,,,,,,,,,,,,appeal,sing,white,15,3,9,1701.451609,None,1701.451609,None,5,2.5602968,1701.451609,None,1704.055026,None,1704.566519,None,1704.566519,None,n,1.2212422,1704.566519,None,,,NC14b,1,2021_Nov_11_1113,ProdSingRedo,3.2.3,59.72263601
,,,,16,0,16,0,,,,,,,,,,,,,,,,,,,,,,,,1709.459998,None,,,,,,,,,,,,,,,,,theme,new_c,white,16,154,326,1706.347587,None,1706.347587,None,3,1.5843461,1706.347587,None,1707.969909,None,1708.489671,None,1708.489671,None,n,0.9381049,1708.489671,None,,,NC14b,1,2021_Nov_11_1113,ProdSingRedo,3.2.3,59.72263601
,,,,17,0,17,0,,,,,,,,,,,,,,,,,,,,,,,,1714.592452,None,,,,,,,,,,,,,,,,,income,new_b,white,17,122,159,1709.980245,None,1709.980245,None,5,3.26319,1709.980245,None,1713.274165,None,1713.789549,None,1713.789549,None,n,0.7662673,1713.789549,None,,,NC14b,1,2021_Nov_11_1113,ProdSingRedo,3.2.3,59.72263601
,,,,18,0,18,0,,,,,,,,,,,,,,,,,,,,,,,,1719.741281,None,,,,,,,,,,,,,,,,,trend,new_c,white,18,158,340,1715.112826,None,1715.112826,None,2,2.4508506,1715.112826,None,1717.602212,None,1718.111146,None,1718.111146,None,f,1.6047472,1718.111146,None,,,NC14b,1,2021_Nov_11_1113,ProdSingRedo,3.2.3,59.72263601
,,,,19,0,19,0,,,,,,,,,,,,,,,,,,,,,,,,1724.377316,None,,,,,,,,,,,,,,,,,attack,silent,white,19,69,13,1720.25892,None,1720.25892,None,4,2.6574456,1720.25892,None,1722.96188,None,1723.489198,None,1723.489198,None,r,0.8584674,1723.489198,None,,,NC14b,1,2021_Nov_11_1113,ProdSingRedo,3.2.3,59.72263601
,,,,20,0,20,0,,,,,,,,,,,,,,,,,,,,,,,,1730.211758,None,,,,,,,,,,,,,,,,,school,new_b,white,20,127,274,1724.901838,None,1724.901838,None,5,3.7019703,1724.901838,None,1728.639598,None,1729.15992,None,1729.15992,None,f,1.01988,1729.15992,None,,,NC14b,1,2021_Nov_11_1113,ProdSingRedo,3.2.3,59.72263601
,,,,21,0,21,0,,,,,,,,,,,,,,,,,,,,,,,,1733.928288,None,,,,,,,,,,,,,,,,,staff,sing,white,21,25,301,1730.739685,None,1730.739685,None,2,2.4959366,1730.739685,None,1733.26815,None,1733.771318,None,1733.771318,None,f,0.1292594,1733.771318,None,,,NC14b,1,2021_Nov_11_1113,ProdSingRedo,3.2.3,59.72263601
,,,,22,0,22,0,,,,,,,,,,,,,,,,,,,,,,,,1737.192685,None,,,,,,,,,,,,,,,,,phrase,new_b,white,22,147,220,1734.454215,None,1734.454215,None,1,1.485312,1734.454215,None,1735.979981,None,1736.497178,None,1736.497178,None,n,0.6585956,1736.497178,None,,,NC14b,1,2021_Nov_11_1113,ProdSingRedo,3.2.3,59.72263601
,,,,23,0,23,0,,,,,,,,,,,,,,,,,,,,,,,,1742.278412,None,,,,,,,,,,,,,,,,,impact,silent,white,23,77,157,1737.721956,None,1737.721956,None,6,2.8415927,1737.721956,None,1740.597974,None,1741.103708,None,1741.103708,None,f,1.1483327,1741.103708,None,,,NC14b,1,2021_Nov_11_1113,ProdSingRedo,3.2.3,59.72263601
,,,,24,0,24,0,,,,,,,,,,,,,,,,,,,,,,,,1746.399515,None,,,,,,,,,,,,,,,,,discussion,aloud,white,24,57,96,1742.787314,None,1742.787314,None,3,2.2084871,1742.787314,None,1745.046286,None,1745.564098,None,1745.564098,None,r,0.7915738,1745.564098,None,,,NC14b,1,2021_Nov_11_1113,ProdSingRedo,3.2.3,59.72263601
,,,,25,0,25,0,,,,,,,,,,,,,,,,,,,,,,,,1751.004834,None,,,,,,,,,,,,,,,,,substance,aloud,white,25,54,313,1746.912673,None,1746.912673,None,4,2.8032362,1746.912673,None,1749.764086,None,1750.288416,None,1750.288416,None,f,0.6991634,1750.288416,None,,,NC14b,1,2021_Nov_11_1113,ProdSingRedo,3.2.3,59.72263601
,,,,26,0,26,0,,,,,,,,,,,,,,,,,,,,,,,,1755.012542,None,,,,,,,,,,,,,,,,,generation,silent,white,26,70,136,1751.538087,None,1751.538087,None,4,2.5937034,1751.538087,None,1754.183706,None,1754.703095,None,1754.703095,None,f,0.2766855,1754.703095,None,,,NC14b,1,2021_Nov_11_1113,ProdSingRedo,3.2.3,59.72263601
,,,,27,0,27,0,,,,,,,,,,,,,,,,,,,,,,,,1758.593837,None,,,,,,,,,,,,,,,,,travel,new_b,white,27,136,338,1755.545424,None,1755.545424,None,2,1.3142652,1755.545424,None,1756.907069,None,1757.437709,None,1757.437709,None,f,1.1259031,1757.437709,None,,,NC14b,1,2021_Nov_11_1113,ProdSingRedo,3.2.3,59.72263601
,,,,28,0,28,0,,,,,,,,,,,,,,,,,,,,,,,,1762.15539,None,,,,,,,,,,,,,,,,,quiet,sing,white,28,1,249,1759.112967,None,1759.112967,None,3,1.7387668,1759.112967,None,1760.882818,None,1761.398692,None,1761.398692,None,r,0.7249642,1761.398692,None,,,NC14b,1,2021_Nov_11_1113,ProdSingRedo,3.2.3,59.72263601
,,,,29,0,29,0,,,,,,,,,,,,,,,,,,,,,,,,1766.534524,None,,,,,,,,,,,,,,,,,owner,silent,white,29,62,208,1762.673635,None,1762.673635,None,5,2.0899778,1762.673635,None,1764.790577,None,1765.303541,None,1765.303541,None,f,1.1882661,1765.303541,None,,,NC14b,1,2021_Nov_11_1113,ProdSingRedo,3.2.3,59.72263601
,,,,30,0,30,0,,,,,,,,,,,,,,,,,,,,,,,,1770.516968,None,,,,,,,,,,,,,,,,,sound,silent,white,30,63,295,1767.057524,None,1767.057524,None,4,2.3784904,1767.057524,None,1769.468024,None,1769.981167,None,1769.981167,None,f,0.4947128,1769.981167,None,,,NC14b,1,2021_Nov_11_1113,ProdSingRedo,3.2.3,59.72263601
,,,,31,0,31,0,,,,,,,,,,,,,,,,,,,,,,,,1774.130439,None,,,,,,,,,,,,,,,,,weight,aloud,white,31,35,353,1771.041988,None,1771.041988,None,3,2.1134071,1771.041988,None,1773.189153,None,1773.699406,None,1773.699406,None,f,0.4004435,1773.699406,None,,,NC14b,1,2021_Nov_11_1113,ProdSingRedo,3.2.3,59.72263601
,,,,32,0,32,0,,,,,,,,,,,,,,,,,,,,,,,,1779.840025,None,,,,,,,,,,,,,,,,,estate,sing,white,32,12,119,1774.663782,None,1774.663782,None,6,2.3728121,1774.663782,None,1777.072503,None,1777.585662,None,1777.585662,None,n,2.2258315,1777.585662,None,,,NC14b,1,2021_Nov_11_1113,ProdSingRedo,3.2.3,59.72263601
,,,,33,0,33,0,,,,,,,,,,,,,,,,,,,,,,,,1784.681148,None,,,,,,,,,,,,,,,,,nation,new_b,white,33,125,198,1780.349749,None,1780.349749,None,3,2.0382948,1780.349749,None,1782.430273,None,1782.959518,None,1782.959518,None,n,1.6922066,1782.959518,None,,,NC14b,1,2021_Nov_11_1113,ProdSingRedo,3.2.3,59.72263601
,,,,34,0,34,0,,,,,,,,,,,,,,,,,,,,,,,,1789.330504,None,,,,,,,,,,,,,,,,,personnel,sing,white,34,22,219,1785.206203,None,1785.206203,None,6,2.4616054,1785.206203,None,1787.710572,None,1788.232873,None,1788.232873,None,n,1.0667347,1788.232873,None,,,NC14b,1,2021_Nov_11_1113,ProdSingRedo,3.2.3,59.72263601
,,,,35,0,35,0,,,,,,,,,,,,,,,,,,,,,,,,1792.248687,None,,,,,,,,,,,,,,,,,goose,aloud,white,35,48,138,1789.857336,None,1789.857336,None,6,1.4505116,1789.857336,None,1791.339679,None,1791.844891,None,1791.844891,None,f,0.3752254,1791.844891,None,,,NC14b,1,2021_Nov_11_1113,ProdSingRedo,3.2.3,59.72263601
,,,,36,0,36,0,,,,,,,,,,,,,,,,,,,,,,,,1795.527189,None,,,,,,,,,,,,,,,,,court,new_b,white,36,138,75,1792.776512,None,1792.776512,None,4,1.6992114,1792.776512,None,1794.529501,None,1795.044119,None,1795.044119,None,f,0.4636376,1795.044119,None,,,NC14b,1,2021_Nov_11_1113,ProdSingRedo,3.2.3,59.72263601
,,,,37,0,37,0,,,,,,,,,,,,,,,,,,,,,,,,1798.781642,None,,,,,,,,,,,,,,,,,hearing,new_b,white,37,130,150,1796.049046,None,1796.049046,None,3,1.794661,1796.049046,None,1797.893989,None,1798.420364,None,1798.420364,None,f,0.3273791,1798.420364,None,,,NC14b,1,2021_Nov_11_1113,ProdSingRedo,3.2.3,59.72263601
,,,,38,0,38,0,,,,,,,,,,,,,,,,,,,,,,,,1801.663389,None,,,,,,,,,,,,,,,,,broad,new_a,white,38,92,31,1799.312652,None,1799.312652,None,4,1.5632251,1799.312652,None,1800.933103,None,1801.453918,None,1801.453918,None,f,0.1817926,1801.453918,None,,,NC14b,1,2021_Nov_11_1113,ProdSingRedo,3.2.3,59.72263601
,,,,39,0,39,0,,,,,,,,,,,,,,,,,,,,,,,,1804.234901,None,,,,,,,,,,,,,,,,,south,new_c,white,39,175,296,1802.192555,None,1802.192555,None,1,1.2274225,1802.192555,None,1803.456561,None,1803.961351,None,1803.961351,None,f,0.2423555,1803.961351,None,,,NC14b,1,2021_Nov_11_1113,ProdSingRedo,3.2.3,59.72263601
,,,,40,0,40,0,,,,,,,,,,,,,,,,,,,,,,,,1806.732195,None,,,,,,,,,,,,,,,,,second,new_c,white,40,168,278,1804.755967,None,1804.755967,None,2,1.0397693,1804.755967,None,1805.83778,None,1806.350661,None,1806.350661,None,f,0.3573446,1806.350661,None,,,NC14b,1,2021_Nov_11_1113,ProdSingRedo,3.2.3,59.72263601
,,,,41,0,41,0,,,,,,,,,,,,,,,,,,,,,,,,1810.226125,None,,,,,,,,,,,,,,,,,dozen,sing,white,41,15,102,1807.258496,None,1807.258496,None,3,1.9855371,1807.258496,None,1809.290195,None,1809.805344,None,1809.805344,None,f,0.3983079,1809.805344,None,,,NC14b,1,2021_Nov_11_1113,ProdSingRedo,3.2.3,59.72263601
,,,,42,0,42,0,,,,,,,,,,,,,,,,,,,,,,,,1814.262427,None,,,,,,,,,,,,,,,,,detective,aloud,white,42,36,92,1810.756997,None,1810.756997,None,4,2.7990177,1810.756997,None,1813.599703,None,1814.119068,None,1814.119068,None,f,0.1166391,1814.119068,None,,,NC14b,1,2021_Nov_11_1113,ProdSingRedo,3.2.3,59.72263601
,,,,43,0,43,0,,,,,,,,,,,,,,,,,,,,,,,,1817.000616,None,,,,,,,,,,,,,,,,,century,new_b,white,43,121,45,1814.797522,None,1814.797522,None,1,1.2944604,1814.797522,None,1816.128699,None,1816.65892,None,1816.65892,None,f,0.3048989,1816.65892,None,,,NC14b,1,2021_Nov_11_1113,ProdSingRedo,3.2.3,59.72263601
,,,,44,0,44,0,,,,,,,,,,,,,,,,,,,,,,,,1819.859455,None,,,,,,,,,,,,,,,,,device,new_c,white,44,155,93,1817.527176,None,1817.527176,None,2,1.3565449,1817.527176,None,1818.921629,None,1819.437242,None,1819.437242,None,f,0.3903658,1819.437242,None,,,NC14b,1,2021_Nov_11_1113,ProdSingRedo,3.2.3,59.72263601
,,,,45,0,45,0,,,,,,,,,,,,,,,,,,,,,,,,1824.52862,None,,,,,,,,,,,,,,,,,empty,silent,white,45,87,112,1820.387477,None,1820.387477,None,4,2.9281331,1820.387477,None,1823.349844,None,1823.864784,None,1823.864784,None,f,0.6429745,1823.864784,None,,,NC14b,1,2021_Nov_11_1113,ProdSingRedo,3.2.3,59.72263601
,,,,46,0,46,0,,,,,,,,,,,,,,,,,,,,,,,,1827.509007,None,,,,,,,,,,,,,,,,,sweet,new_a,white,46,95,319,1825.050301,None,1825.050301,None,5,1.7291373,1825.050301,None,1826.811549,None,1827.339312,None,1827.339312,None,f,0.1522337,1827.339312,None,,,NC14b,1,2021_Nov_11_1113,ProdSingRedo,3.2.3,59.72263601
,,,,47,0,47,0,,,,,,,,,,,,,,,,,,,,,,,,1831.093385,None,,,,,,,,,,,,,,,,,answer,sing,white,47,2,8,1828.026433,None,1828.026433,None,6,2.4574974,1828.026433,None,1830.535007,None,1831.058457,None,1831.058457,None,f,0.0170115,1831.058457,None,,,NC14b,1,2021_Nov_11_1113,ProdSingRedo,3.2.3,59.72263601
,,,,48,0,48,0,,,,,,,,,,,,,,,,,,,,,,,,1833.867906,None,,,,,,,,,,,,,,,,,grade,silent,white,48,79,140,1831.60673,None,1831.60673,None,4,1.572812,1831.60673,None,1833.21106,None,1833.732807,None,1833.732807,None,f,0.1110081,1833.732807,None,,,NC14b,1,2021_Nov_11_1113,ProdSingRedo,3.2.3,59.72263601
,,,,49,0,49,0,,,,,,,,,,,,,,,,,,,,,,,,1837.667527,None,,,,,,,,,,,,,,,,,solution,sing,white,49,14,294,1834.391838,None,1834.391838,None,3,2.067703,1834.391838,None,1836.490219,None,1837.002891,None,1837.002891,None,f,0.624902,1837.002891,None,,,NC14b,1,2021_Nov_11_1113,ProdSingRedo,3.2.3,59.72263601
,,,,50,0,50,0,,,,,,,,,,,,,,,,,,,,,,,,1840.719172,None,,,,,,,,,,,,,,,,,hunger,new_c,white,50,160,155,1838.197526,None,1838.197526,None,1,1.5742202,1838.197526,None,1839.818923,None,1840.337597,None,1840.337597,None,f,0.3461751,1840.337597,None,,,NC14b,1,2021_Nov_11_1113,ProdSingRedo,3.2.3,59.72263601
,,,,51,0,51,0,,,,,,,,,,,,,,,,,,,,,,,,1843.610735,None,,,,,,,,,,,,,,,,,nature,sing,white,51,27,200,1841.247413,None,1841.247413,None,5,1.7324431,1841.247413,None,1843.035616,None,1843.560733,None,1843.560733,None,f,0.027008,1843.560733,None,,,NC14b,1,2021_Nov_11_1113,ProdSingRedo,3.2.3,59.72263601
,,,,52,0,52,0,,,,,,,,,,,,,,,,,,,,,,,,1845.955371,None,,,,,,,,,,,,,,,,,crowd,new_c,white,52,157,81,1844.126286,None,1844.126286,None,2,1.1173344,1844.126286,None,1845.281802,None,1845.805066,None,1845.805066,None,f,0.1106914,1845.805066,None,,,NC14b,1,2021_Nov_11_1113,ProdSingRedo,3.2.3,59.72263601
,,,,53,0,53,0,,,,,,,,,,,,,,,,,,,,,,,,1848.434841,None,,,,,,,,,,,,,,,,,command,new_c,white,53,169,60,1846.478496,None,1846.478496,None,3,1.1655768,1846.478496,None,1847.684867,None,1848.206447,None,1848.206447,None,n,0.1973668,1848.206447,None,,,NC14b,1,2021_Nov_11_1113,ProdSingRedo,3.2.3,59.72263601
,,,,54,0,54,0,,,,,,,,,,,,,,,,,,,,,,,,1854.819164,None,,,,,,,,,,,,,,,,,touch,new_c,white,54,170,332,1848.961679,None,1848.961679,None,5,3.2661724,1848.961679,None,1852.268717,None,1852.786419,None,1852.786419,None,r,1.9933108,1852.786419,None,,,NC14b,1,2021_Nov_11_1113,ProdSingRedo,3.2.3,59.72263601
,,,,55,0,55,0,,,,,,,,,,,,,,,,,,,,,,,,1858.119022,None,,,,,,,,,,,,,,,,,rapid,new_c,white,55,163,252,1855.343197,None,1855.343197,None,3,2.116472,1855.343197,None,1857.4838,None,1858.004171,None,1858.004171,None,r,0.0796928,1858.004171,None,,,NC14b,1,2021_Nov_11_1113,ProdSingRedo,3.2.3,59.72263601
,,,,56,0,56,0,,,,,,,,,,,,,,,,,,,,,,,,1863.863942,None,,,,,,,,,,,,,,,,,reach,silent,white,56,66,253,1858.64847,None,1858.64847,None,4,4.0112124,1858.64847,None,1862.680347,None,1863.193574,None,1863.193574,None,n,0.6421108,1863.193574,None,,,NC14b,1,2021_Nov_11_1113,ProdSingRedo,3.2.3,59.72263601
,,,,57,0,57,0,,,,,,,,,,,,,,,,,,,,,,,,1869.386348,None,,,,,,,,,,,,,,,,,patient,sing,white,57,16,213,1864.394584,None,1864.394584,None,5,2.801284,1864.394584,None,1867.236521,None,1867.754099,None,1867.754099,None,r,1.5939012,1867.754099,None,,,NC14b,1,2021_Nov_11_1113,ProdSingRedo,3.2.3,59.72263601
,,,,58,0,58,0,,,,,,,,,,,,,,,,,,,,,,,,1875.787415,None,,,,,,,,,,,,,,,,,defeat,silent,white,58,64,88,1869.914801,None,1869.914801,None,2,1.9209951,1869.914801,None,1871.888767,None,1872.396477,None,1872.396477,None,f,3.359484,1872.396477,None,,,NC14b,1,2021_Nov_11_1113,ProdSingRedo,3.2.3,59.72263601
,,,,59,0,59,0,,,,,,,,,,,,,,,,,,,,,,,,1880.088355,None,,,,,,,,,,,,,,,,,stranger,new_a,white,59,96,309,1876.316749,None,1876.316749,None,5,1.8470289,1876.316749,None,1878.203878,None,1878.727934,None,1878.727934,None,f,1.3239615,1878.727934,None,,,NC14b,1,2021_Nov_11_1113,ProdSingRedo,3.2.3,59.72263601
,,,,60,0,60,0,,,,,,,,,,,,,,,,,,,,,,,,1882.838136,None,,,,,,,,,,,,,,,,,threat,sing,white,60,9,329,1880.61424,None,1880.61424,None,6,1.269586,1880.61424,None,1881.936783,None,1882.456086,None,1882.456086,None,f,0.3558931,1882.456086,None,,,NC14b,1,2021_Nov_11_1113,ProdSingRedo,3.2.3,59.72263601
,,,,61,0,61,0,,,,,,,,,,,,,,,,,,,,,,,,1885.954828,None,,,,,,,,,,,,,,,,,material,new_a,white,61,104,182,1883.367808,None,1883.367808,None,2,1.7720779,1883.367808,None,1885.176503,None,1885.688736,None,1885.688736,None,f,0.2351507,1885.688736,None,,,NC14b,1,2021_Nov_11_1113,ProdSingRedo,3.2.3,59.72263601
,,,,62,0,62,0,,,,,,,,,,,,,,,,,,,,,,,,1888.789411,None,,,,,,,,,,,,,,,,,novel,sing,white,62,7,202,1886.477006,None,1886.477006,None,6,1.1988985,1886.477006,None,1887.720571,None,1888.239962,None,1888.239962,None,n,0.5238601,1888.239962,None,,,NC14b,1,2021_Nov_11_1113,ProdSingRedo,3.2.3,59.72263601
,,,,63,0,63,0,,,,,,,,,,,,,,,,,,,,,,,,1892.762057,None,,,,,,,,,,,,,,,,,platform,silent,white,63,82,224,1889.318165,None,1889.318165,None,5,2.3654461,1889.318165,None,1891.730018,None,1892.24606,None,1892.24606,None,n,0.4935138,1892.24606,None,,,NC14b,1,2021_Nov_11_1113,ProdSingRedo,3.2.3,59.72263601
,,,,64,0,64,0,,,,,,,,,,,,,,,,,,,,,,,,1896.62223,None,,,,,,,,,,,,,,,,,thick,silent,white,64,88,327,1893.264745,None,1893.264745,None,6,1.9871611,1893.264745,None,1895.288674,None,1895.804218,None,1895.804218,None,n,0.7835924,1895.804218,None,,,NC14b,1,2021_Nov_11_1113,ProdSingRedo,3.2.3,59.72263601
,,,,65,0,65,0,,,,,,,,,,,,,,,,,,,,,,,,1899.622597,None,,,,,,,,,,,,,,,,,medicine,sing,white,65,0,186,1897.144505,None,1897.144505,None,4,1.6432473,1897.144505,None,1898.832362,None,1899.355864,None,1899.355864,None,n,0.2402831,1899.355864,None,,,NC14b,1,2021_Nov_11_1113,ProdSingRedo,3.2.3,59.72263601
,,,,66,0,66,0,,,,,,,,,,,,,,,,,,,,,,,,1902.080825,None,,,,,,,,,,,,,,,,,column,sing,white,66,24,57,1900.150653,None,1900.150653,None,6,1.1811894,1900.150653,None,1901.377667,None,1901.890836,None,1901.890836,None,n,0.1608419,1901.890836,None,,,NC14b,1,2021_Nov_11_1113,ProdSingRedo,3.2.3,59.72263601
,,,,67,0,67,0,,,,,,,,,,,,,,,,,,,,,,,,1904.456711,None,,,,,,,,,,,,,,,,,bright,silent,white,67,83,29,1902.61361,None,1902.61361,None,1,1.1101047,1902.61361,None,1903.758922,None,1904.278267,None,1904.278267,None,n,0.1500528,1904.278267,None,,,NC14b,1,2021_Nov_11_1113,ProdSingRedo,3.2.3,59.72263601
,,,,68,0,68,0,,,,,,,,,,,,,,,,,,,,,,,,1907.120944,None,,,,,,,,,,,,,,,,,business,new_a,white,68,119,38,1904.988967,None,1904.988967,None,4,1.5108341,1904.988967,None,1906.549928,None,1907.068213,None,1907.068213,None,n,0.0236795,1907.068213,None,,,NC14b,1,2021_Nov_11_1113,ProdSingRedo,3.2.3,59.72263601
,,,,69,0,69,0,,,,,,,,,,,,,,,,,,,,,,,,1909.872521,None,,,,,,,,,,,,,,,,,executive,aloud,white,69,52,122,1907.656002,None,1907.656002,None,6,1.4598711,1907.656002,None,1909.156302,None,1909.684258,None,1909.684258,None,n,0.1516834,1909.684258,None,,,NC14b,1,2021_Nov_11_1113,ProdSingRedo,3.2.3,59.72263601
,,,,70,0,70,0,,,,,,,,,,,,,,,,,,,,,,,,1912.549343,None,,,,,,,,,,,,,,,,,institute,aloud,white,70,44,162,1910.407214,None,1910.407214,None,6,1.4525988,1910.407214,None,1911.909495,None,1912.426327,None,1912.426327,None,n,0.1053799,1912.426327,None,,,NC14b,1,2021_Nov_11_1113,ProdSingRedo,3.2.3,59.72263601
,,,,71,0,71,0,,,,,,,,,,,,,,,,,,,,,,,,1915.999321,None,,,,,,,,,,,,,,,,,quick,new_a,white,71,112,248,1913.084418,None,1913.084418,None,3,1.5914821,1913.084418,None,1914.724424,None,1915.242652,None,1915.242652,None,n,0.7370661,1915.242652,None,,,NC14b,1,2021_Nov_11_1113,ProdSingRedo,3.2.3,59.72263601
,,,,72,0,72,0,,,,,,,,,,,,,,,,,,,,,,,,1918.724644,None,,,,,,,,,,,,,,,,,evidence,aloud,white,72,38,120,1916.532817,None,1916.532817,None,6,1.2710099,1916.532817,None,1917.853098,None,1918.379383,None,1918.379383,None,n,0.3205124,1918.379383,None,,,NC14b,1,2021_Nov_11_1113,ProdSingRedo,3.2.3,59.72263601
,,,,73,0,73,0,,,,,,,,,,,,,,,,,,,,,,,,1921.670759,None,,,,,,,,,,,,,,,,,harmony,new_b,white,73,134,148,1919.253972,None,1919.253972,None,4,1.5817088,1919.253972,None,1920.878447,None,1921.389931,None,1921.389931,None,n,0.2459607,1921.389931,None,,,NC14b,1,2021_Nov_11_1113,ProdSingRedo,3.2.3,59.72263601
,,,,74,0,74,0,,,,,,,,,,,,,,,,,,,,,,,,1924.440124,None,,,,,,,,,,,,,,,,,guest,new_a,white,74,107,146,1922.192635,None,1922.192635,None,4,1.4271255,1922.192635,None,1923.658452,None,1924.173548,None,1924.173548,None,n,0.2300869,1924.173548,None,,,NC14b,1,2021_Nov_11_1113,ProdSingRedo,3.2.3,59.72263601
,,,,75,0,75,0,,,,,,,,,,,,,,,,,,,,,,,,1927.807342,None,,,,,,,,,,,,,,,,,quarter,sing,white,75,20,246,1924.953841,None,1924.953841,None,6,1.698121,1924.953841,None,1926.702623,None,1927.22952,None,1927.22952,None,n,0.5422802,1927.22952,None,,,NC14b,1,2021_Nov_11_1113,ProdSingRedo,3.2.3,59.72263601
,,,,76,0,76,0,,,,,,,,,,,,,,,,,,,,,,,,1932.158568,None,,,,,,,,,,,,,,,,,benefit,new_a,white,76,102,20,1928.331234,None,1928.331234,None,4,3.1525365,1928.331234,None,1931.521314,None,1932.033656,None,1932.033656,None,n,0.0982856,1932.033656,None,,,NC14b,1,2021_Nov_11_1113,ProdSingRedo,3.2.3,59.72263601
,,,,77,0,77,0,,,,,,,,,,,,,,,,,,,,,,,,1935.956612,None,,,,,,,,,,,,,,,,,background,sing,white,77,17,16,1932.695151,None,1932.695151,None,6,2.6446892,1932.695151,None,1935.386437,None,1935.905028,None,1935.905028,None,n,0.0187255,1935.905028,None,,,NC14b,1,2021_Nov_11_1113,ProdSingRedo,3.2.3,59.72263601
,,,,78,0,78,0,,,,,,,,,,,,,,,,,,,,,,,,1938.726125,None,,,,,,,,,,,,,,,,,damage,aloud,white,78,51,83,1936.484028,None,1936.484028,None,1,1.1920013,1936.484028,None,1937.72982,None,1938.255782,None,1938.255782,None,n,0.4361335,1938.255782,None,,,NC14b,1,2021_Nov_11_1113,ProdSingRedo,3.2.3,59.72263601
,,,,79,0,79,0,,,,,,,,,,,,,,,,,,,,,,,,1942.809768,None,,,,,,,,,,,,,,,,,produce,new_c,white,79,173,239,1939.253183,None,1939.253183,None,3,2.1507621,1939.253183,None,1941.461328,None,1941.977975,None,1941.977975,None,n,0.8018848,1941.977975,None,,,NC14b,1,2021_Nov_11_1113,ProdSingRedo,3.2.3,59.72263601
,,,,80,0,80,0,,,,,,,,,,,,,,,,,,,,,,,,1945.401507,None,,,,,,,,,,,,,,,,,rough,sing,white,80,4,266,1943.334567,None,1943.334567,None,3,1.1815067,1943.334567,None,1944.555329,None,1945.07431,None,1945.07431,None,n,0.2973626,1945.07431,None,,,NC14b,1,2021_Nov_11_1113,ProdSingRedo,3.2.3,59.72263601
,,,,81,0,81,0,,,,,,,,,,,,,,,,,,,,,,,,1947.832811,None,,,,,,,,,,,,,,,,,angle,new_c,white,81,176,7,1945.937127,None,1945.937127,None,3,1.2745007,1945.937127,None,1947.248894,None,1947.749775,None,1947.749775,None,n,0.0537598,1947.749775,None,,,NC14b,1,2021_Nov_11_1113,ProdSingRedo,3.2.3,59.72263601
,,,,82,0,82,0,,,,,,,,,,,,,,,,,,,,,,,,1950.38481,None,,,,,,,,,,,,,,,,,edition,aloud,white,82,40,107,1948.352457,None,1948.352457,None,6,1.3553493,1948.352457,None,1949.758327,None,1950.276007,None,1950.276007,None,n,0.0881301,1950.276007,None,,,NC14b,1,2021_Nov_11_1113,ProdSingRedo,3.2.3,59.72263601
,,,,83,0,83,0,,,,,,,,,,,,,,,,,,,,,,,,1952.89949,None,,,,,,,,,,,,,,,,,minute,new_c,white,83,177,192,1950.903103,None,1950.903103,None,3,1.3969265,1950.903103,None,1952.343205,None,1952.849659,None,1952.849659,None,n,0.0338714,1952.849659,None,,,NC14b,1,2021_Nov_11_1113,ProdSingRedo,3.2.3,59.72263601
,,,,84,0,84,0,,,,,,,,,,,,,,,,,,,,,,,,1956.692887,None,,,,,,,,,,,,,,,,,mayor,sing,white,84,28,183,1953.405908,None,1953.405908,None,6,2.229958,1953.405908,None,1955.667294,None,1956.176563,None,1956.176563,None,n,0.483455,1956.176563,None,,,NC14b,1,2021_Nov_11_1113,ProdSingRedo,3.2.3,59.72263601
,,,,85,0,85,0,,,,,,,,,,,,,,,,,,,,,,,,1960.480727,None,,,,,,,,,,,,,,,,,course,silent,white,85,80,74,1957.215708,None,1957.215708,None,4,2.1803457,1957.215708,None,1959.442039,None,1959.963068,None,1959.963068,None,n,0.489004,1959.963068,None,,,NC14b,1,2021_Nov_11_1113,ProdSingRedo,3.2.3,59.72263601
,,,,86,0,86,0,,,,,,,,,,,,,,,,,,,,,,,,1964.343584,None,,,,,,,,,,,,,,,,,pressure,new_b,white,86,139,232,1961.008066,None,1961.008066,None,2,2.4998387,1961.008066,None,1963.552329,None,1964.065743,None,1964.065743,None,n,0.2504093,1964.065743,None,,,NC14b,1,2021_Nov_11_1113,ProdSingRedo,3.2.3,59.72263601
,,,,87,0,87,0,,,,,,,,,,,,,,,,,,,,,,,,1966.595132,None,,,,,,,,,,,,,,,,,trash,aloud,white,87,42,337,1964.86566,None,1964.86566,None,2,1.0182251,1964.86566,None,1965.912773,None,1966.436934,None,1966.436934,None,n,0.1268664,1966.436934,None,,,NC14b,1,2021_Nov_11_1113,ProdSingRedo,3.2.3,59.72263601
,,,,88,0,88,0,,,,,,,,,,,,,,,,,,,,,,,,1970.060582,None,,,,,,,,,,,,,,,,,production,sing,white,88,8,240,1967.119068,None,1967.119068,None,5,1.908785,1967.119068,None,1969.065529,None,1969.57759,None,1969.57759,None,n,0.4503195,1969.57759,None,,,NC14b,1,2021_Nov_11_1113,ProdSingRedo,3.2.3,59.72263601
,,,,89,0,89,0,,,,,,,,,,,,,,,,,,,,,,,,1973.361037,None,,,,,,,,,,,,,,,,,sleep,new_b,white,89,149,290,1970.586056,None,1970.586056,None,1,2.0577945,1970.586056,None,1972.688356,None,1973.204236,None,1973.204236,None,n,0.1275878,1973.204236,None,,,NC14b,1,2021_Nov_11_1113,ProdSingRedo,3.2.3,59.72263601
,,,,90,0,90,0,,,,,,,,,,,,,,,,,,,,,,,,1977.010023,None,,,,,,,,,,,,,,,,,audience,aloud,white,90,45,14,1973.888128,None,1973.888128,None,6,2.2997371,1973.888128,None,1976.243657,None,1976.765808,None,1976.765808,None,n,0.2061149,1976.765808,None,,,NC14b,1,2021_Nov_11_1113,ProdSingRedo,3.2.3,59.72263601
,,,,91,0,91,0,,,,,,,,,,,,,,,,,,,,,,,,1979.74242,None,,,,,,,,,,,,,,,,,engineer,silent,white,91,60,114,1977.538461,None,1977.538461,None,4,1.4334341,1977.538461,None,1979.029851,None,1979.549202,None,1979.549202,None,n,0.1586718,1979.549202,None,,,NC14b,1,2021_Nov_11_1113,ProdSingRedo,3.2.3,59.72263601
,,,,92,0,92,0,,,,,,,,,,,,,,,,,,,,,,,,1982.395619,None,,,,,,,,,,,,,,,,,subject,aloud,white,92,41,312,1980.273354,None,1980.273354,None,6,1.4273103,1980.273354,None,1981.747851,None,1982.267844,None,1982.267844,None,n,0.0963374,1982.267844,None,,,NC14b,1,2021_Nov_11_1113,ProdSingRedo,3.2.3,59.72263601
,,,,93,0,93,0,,,,,,,,,,,,,,,,,,,,,,,,1985.954005,None,,,,,,,,,,,,,,,,,graduate,silent,white,93,85,141,1982.909016,None,1982.909016,None,3,1.8707616,1982.909016,None,1984.816001,None,1985.339516,None,1985.339516,None,n,0.5842232,1985.339516,None,,,NC14b,1,2021_Nov_11_1113,ProdSingRedo,3.2.3,59.72263601
,,,,94,0,94,0,,,,,,,,,,,,,,,,,,,,,,,,1988.699414,None,,,,,,,,,,,,,,,,,safety,new_b,white,94,142,270,1986.475808,None,1986.475808,None,2,1.2479703,1986.475808,None,1987.766517,None,1988.288133,None,1988.288133,None,n,0.3717286,1988.288133,None,,,NC14b,1,2021_Nov_11_1113,ProdSingRedo,3.2.3,59.72263601
,,,,95,0,95,0,,,,,,,,,,,,,,,,,,,,,,,,1993.497366,None,,,,,,,,,,,,,,,,,resistance,silent,white,95,81,262,1989.222116,None,1989.222116,None,1,3.589629,1989.222116,None,1992.845536,None,1993.362838,None,1993.362838,None,n,0.1057713,1993.362838,None,,,NC14b,1,2021_Nov_11_1113,ProdSingRedo,3.2.3,59.72263601
,,,,96,0,96,0,,,,,,,,,,,,,,,,,,,,,,,,1997.178832,None,,,,,,,,,,,,,,,,,employment,silent,white,96,75,111,1994.027154,None,1994.027154,None,1,1.9368759,1994.027154,None,1996.00941,None,1996.538012,None,1996.538012,None,n,0.609956,1996.538012,None,,,NC14b,1,2021_Nov_11_1113,ProdSingRedo,3.2.3,59.72263601
,,,,97,0,97,0,,,,,,,,,,,,,,,,,,,,,,,,2000.459482,None,,,,,,,,,,,,,,,,,primary,silent,white,97,67,234,1997.708641,None,1997.708641,None,2,1.8950681,1997.708641,None,1999.633036,None,2000.14896,None,2000.14896,None,n,0.2788063,2000.14896,None,,,NC14b,1,2021_Nov_11_1113,ProdSingRedo,3.2.3,59.72263601
,,,,98,0,98,0,,,,,,,,,,,,,,,,,,,,,,,,2006.689428,None,,,,,,,,,,,,,,,,,oxygen,new_a,white,98,113,209,2000.986983,None,2000.986983,None,1,4.5929137,2000.986983,None,2005.628607,None,2006.151016,None,2006.151016,None,r,0.5171828,2006.151016,None,,,NC14b,1,2021_Nov_11_1113,ProdSingRedo,3.2.3,59.72263601
,,,,99,0,99,0,,,,,,,,,,,,,,,,,,,,,,,,2010.49692,None,,,,,,,,,,,,,,,,,scene,silent,white,99,74,273,2007.219192,None,2007.219192,None,2,2.2567107,2007.219192,None,2009.52317,None,2010.04263,None,2010.04263,None,f,0.4172419,2010.04263,None,,,NC14b,1,2021_Nov_11_1113,ProdSingRedo,3.2.3,59.72263601
,,,,100,0,100,0,,,,,,,,,,,,,,,,,,,,,,,,2015.803981,None,,,,,,,,,,,,,,,,,region,silent,white,100,86,256,2011.014069,None,2011.014069,None,6,3.8300663,2011.014069,None,2014.884157,None,2015.400109,None,2015.400109,None,f,0.3874253,2015.400109,None,,,NC14b,1,2021_Nov_11_1113,ProdSingRedo,3.2.3,59.72263601
,,,,101,0,101,0,,,,,,,,,,,,,,,,,,,,,,,,2019.680059,None,,,,,,,,,,,,,,,,,problem,new_c,white,101,166,238,2016.306698,None,2016.306698,None,4,2.4732479,2016.306698,None,2018.828956,None,2019.351669,None,2019.351669,None,r,0.2922139,2019.351669,None,,,NC14b,1,2021_Nov_11_1113,ProdSingRedo,3.2.3,59.72263601
,,,,102,0,102,0,,,,,,,,,,,,,,,,,,,,,,,,2022.646358,None,,,,,,,,,,,,,,,,,meeting,new_a,white,102,114,187,2020.208543,None,2020.208543,None,1,1.0514027,2020.208543,None,2021.313631,None,2021.831026,None,2021.831026,None,n,0.7891663,2021.831026,None,,,NC14b,1,2021_Nov_11_1113,ProdSingRedo,3.2.3,59.72263601
,,,,103,0,103,0,,,,,,,,,,,,,,,,,,,,,,,,2026.997891,None,,,,,,,,,,,,,,,,,strain,aloud,white,103,37,308,2023.174059,None,2023.174059,None,2,1.9019157,2023.174059,None,2025.131023,None,2025.657773,None,2025.657773,None,f,1.3062207,2025.657773,None,,,NC14b,1,2021_Nov_11_1113,ProdSingRedo,3.2.3,59.72263601
,,,,104,0,104,0,,,,,,,,,,,,,,,,,,,,,,,,2030.41958,None,,,,,,,,,,,,,,,,,series,silent,white,104,61,279,2027.519088,None,2027.519088,None,6,1.9485756,2027.519088,None,2029.497037,None,2030.010265,None,2030.010265,None,r,0.3778974,2030.010265,None,,,NC14b,1,2021_Nov_11_1113,ProdSingRedo,3.2.3,59.72263601
,,,,105,0,105,0,,,,,,,,,,,,,,,,,,,,,,,,2033.181743,None,,,,,,,,,,,,,,,,,finish,new_c,white,105,151,130,2030.941647,None,2030.941647,None,1,1.4061355,2030.941647,None,2032.384068,None,2032.899722,None,2032.899722,None,n,0.2483179,2032.899722,None,,,NC14b,1,2021_Nov_11_1113,ProdSingRedo,3.2.3,59.72263601
,,,,106,0,106,0,,,,,,,,,,,,,,,,,,,,,,,,2036.300234,None,,,,,,,,,,,,,,,,,prime,new_b,white,106,145,235,2033.706552,None,2033.706552,None,1,1.4173698,2033.706552,None,2035.166935,None,2035.680725,None,2035.680725,None,f,0.5792061,2035.680725,None,,,NC14b,1,2021_Nov_11_1113,ProdSingRedo,3.2.3,59.72263601
,,,,107,0,107,0,,,,,,,,,,,,,,,,,,,,,,,,2042.154515,None,,,,,,,,,,,,,,,,,front,sing,white,107,13,134,2036.83038,None,2036.83038,None,3,3.9257425,2036.83038,None,2040.800692,None,2041.317122,None,2041.317122,None,r,0.8069447,2041.317122,None,,,NC14b,1,2021_Nov_11_1113,ProdSingRedo,3.2.3,59.72263601
,,,,108,0,108,0,,,,,,,,,,,,,,,,,,,,,,,,2045.219453,None,,,,,,,,,,,,,,,,,career,new_b,white,108,120,42,2042.658847,None,2042.658847,None,6,1.5529584,2042.658847,None,2044.250177,None,2044.77523,None,2044.77523,None,r,0.4129358,2044.77523,None,,,NC14b,1,2021_Nov_11_1113,ProdSingRedo,3.2.3,59.72263601
,,,,109,0,109,0,,,,,,,,,,,,,,,,,,,,,,,,2047.907518,None,,,,,,,,,,,,,,,,,heavy,new_a,white,109,117,151,2045.741974,None,2045.741974,None,2,1.5098951,2045.741974,None,2047.288052,None,2047.806908,None,2047.806908,None,r,0.0768481,2047.806908,None,,,NC14b,1,2021_Nov_11_1113,ProdSingRedo,3.2.3,59.72263601
,,,,110,0,110,0,,,,,,,,,,,,,,,,,,,,,,,,2051.537901,None,,,,,,,,,,,,,,,,,silence,new_b,white,110,140,288,2048.421797,None,2048.421797,None,6,2.3741189,2048.421797,None,2050.846469,None,2051.366243,None,2051.366243,None,f,0.1418245,2051.366243,None,,,NC14b,1,2021_Nov_11_1113,ProdSingRedo,3.2.3,59.72263601
,,,,111,0,111,0,,,,,,,,,,,,,,,,,,,,,,,,2054.282682,None,,,,,,,,,,,,,,,,,private,new_c,white,111,150,237,2052.06659,None,2052.06659,None,1,1.2651187,2052.06659,None,2053.364294,None,2053.876226,None,2053.876226,None,f,0.3757414,2053.876226,None,,,NC14b,1,2021_Nov_11_1113,ProdSingRedo,3.2.3,59.72263601
,,,,112,0,112,0,,,,,,,,,,,,,,,,,,,,,,,,2057.595103,None,,,,,,,,,,,,,,,,,sight,new_c,white,112,178,286,2054.804984,None,2054.804984,None,2,1.2389925,2054.804984,None,2056.093689,None,2056.61807,None,2056.61807,None,f,0.9541815,2056.61807,None,,,NC14b,1,2021_Nov_11_1113,ProdSingRedo,3.2.3,59.72263601
,,,,113,0,113,0,,,,,,,,,,,,,,,,,,,,,,,,2061.06546,None,,,,,,,,,,,,,,,,,agreement,aloud,white,113,33,5,2058.113117,None,2058.113117,None,3,1.9787686,2058.113117,None,2060.124064,None,2060.635577,None,2060.635577,None,f,0.4005586,2060.635577,None,,,NC14b,1,2021_Nov_11_1113,ProdSingRedo,3.2.3,59.72263601
,,,,114,0,114,0,,,,,,,,,,,,,,,,,,,,,,,,2064.485469,None,,,,,,,,,,,,,,,,,interior,new_a,white,114,103,164,2061.587751,None,2061.587751,None,1,1.272175,2061.587751,None,2062.90327,None,2063.415015,None,2063.415015,None,n,1.0289476,2063.415015,None,,,NC14b,1,2021_Nov_11_1113,ProdSingRedo,3.2.3,59.72263601
,,,,115,0,115,0,,,,,,,,,,,,,,,,,,,,,,,,2067.268208,None,,,,,,,,,,,,,,,,,household,new_b,white,115,131,154,2065.013973,None,2065.013973,None,1,1.3899883,2065.013973,None,2066.44594,None,2066.972896,None,2066.972896,None,n,0.2634511,2066.972896,None,,,NC14b,1,2021_Nov_11_1113,ProdSingRedo,3.2.3,59.72263601
,,,,116,0,116,0,,,,,,,,,,,,,,,,,,,,,,,,2072.925902,None,,,,,,,,,,,,,,,,,colonel,aloud,white,116,30,55,2067.789034,None,2067.789034,None,6,2.4310251,2067.789034,None,2070.265505,None,2070.78322,None,2070.78322,None,n,2.1164149,2070.78322,None,,,NC14b,1,2021_Nov_11_1113,ProdSingRedo,3.2.3,59.72263601
,,,,117,0,117,0,,,,,,,,,,,,,,,,,,,,,,,,2076.468823,None,,,,,,,,,,,,,,,,,blind,new_b,white,117,148,24,2073.427311,None,2073.427311,None,2,1.1765423,2073.427311,None,2074.634022,None,2075.146651,None,2075.146651,None,r,1.2893725,2075.146651,None,,,NC14b,1,2021_Nov_11_1113,ProdSingRedo,3.2.3,59.72263601
,,,,118,0,118,0,,,,,,,,,,,,,,,,,,,,,,,,2080.106185,None,,,,,,,,,,,,,,,,,plane,aloud,white,118,43,223,2076.994337,None,2076.994337,None,6,1.4338883,2076.994337,None,2078.480829,None,2078.991746,None,2078.991746,None,r,1.0761995,2078.991746,None,,,NC14b,1,2021_Nov_11_1113,ProdSingRedo,3.2.3,59.72263601
,,,,119,0,119,0,,,,,,,,,,,,,,,,,,,,,,,,2083.520188,None,,,,,,,,,,,,,,,,,election,aloud,white,119,59,109,2080.616999,None,2080.616999,None,4,1.8348232,2080.616999,None,2082.487447,None,2083.002218,None,2083.002218,None,r,0.4817156,2083.002218,None,,,NC14b,1,2021_Nov_11_1113,ProdSingRedo,3.2.3,59.72263601
,,,,120,0,120,0,,,,,,,,,,,,,,,,,,,,,,,,2088.796563,None,,,,,,,,,,,,,,,,,motion,new_b,white,120,128,194,2084.040879,None,2084.040879,None,3,1.5150782,2084.040879,None,2085.597573,None,2086.116389,None,2086.116389,None,n,2.6475536,2086.116389,None,,,NC14b,1,2021_Nov_11_1113,ProdSingRedo,3.2.3,59.72263601
,,,,121,0,121,0,,,,,,,,,,,,,,,,,,,,,,,,2092.135668,None,,,,,,,,,,,,,,,,,population,aloud,white,121,55,227,2089.332705,None,2089.332705,None,6,1.6073058,2089.332705,None,2090.975771,None,2091.492293,None,2091.492293,None,r,0.6075795,2091.492293,None,,,NC14b,1,2021_Nov_11_1113,ProdSingRedo,3.2.3,59.72263601
,,,,122,0,122,0,,,,,,,,,,,,,,,,,,,,,,,,2095.285647,None,,,,,,,,,,,,,,,,,close,new_a,white,122,110,53,2092.658226,None,2092.658226,None,1,1.8501628,2092.658226,None,2094.556456,None,2095.067856,None,2095.067856,None,n,0.1921127,2095.067856,None,,,NC14b,1,2021_Nov_11_1113,ProdSingRedo,3.2.3,59.72263601
,,,,123,0,123,0,,,,,,,,,,,,,,,,,,,,,,,,2099.378467,None,,,,,,,,,,,,,,,,,raise,sing,white,123,19,250,2095.797815,None,2095.797815,None,6,2.4141605,2095.797815,None,2098.245182,None,2098.779332,None,2098.779332,None,r,0.5763814,2098.779332,None,,,NC14b,1,2021_Nov_11_1113,ProdSingRedo,3.2.3,59.72263601
,,,,124,0,124,0,,,,,,,,,,,,,,,,,,,,,,,,2102.402413,None,,,,,,,,,,,,,,,,,mechanical,new_a,white,124,111,185,2099.895156,None,2099.895156,None,2,1.3328741,2099.895156,None,2101.263385,None,2101.784784,None,2101.784784,None,n,0.579411,2101.784784,None,,,NC14b,1,2021_Nov_11_1113,ProdSingRedo,3.2.3,59.72263601
,,,,125,0,125,0,,,,,,,,,,,,,,,,,,,,,,,,2106.369537,None,,,,,,,,,,,,,,,,,brief,aloud,white,125,39,28,2102.912791,None,2102.912791,None,5,2.5150258,2102.912791,None,2105.452922,None,2105.962817,None,2105.962817,None,n,0.3771232,2105.962817,None,,,NC14b,1,2021_Nov_11_1113,ProdSingRedo,3.2.3,59.72263601
,,,,126,0,126,0,,,,,,,,,,,,,,,,,,,,,,,,2109.486601,None,,,,,,,,,,,,,,,,,country,aloud,white,126,53,73,2106.902609,None,2106.902609,None,6,1.5334458,2106.902609,None,2108.480783,None,2109.010266,None,2109.010266,None,f,0.449865,2109.010266,None,,,NC14b,1,2021_Nov_11_1113,ProdSingRedo,3.2.3,59.72263601
,,,,127,0,127,0,,,,,,,,,,,,,,,,,,,,,,,,2114.733011,None,,,,,,,,,,,,,,,,,corner,new_a,white,127,99,69,2110.009424,None,2110.009424,None,4,3.8987184,2110.009424,None,2113.936194,None,2114.445332,None,2114.445332,None,f,0.2545542,2114.445332,None,,,NC14b,1,2021_Nov_11_1113,ProdSingRedo,3.2.3,59.72263601
,,,,128,0,128,0,,,,,,,,,,,,,,,,,,,,,,,,2117.202421,None,,,,,,,,,,,,,,,,,history,silent,white,128,71,153,2115.254325,None,2115.254325,None,4,1.1014736,2115.254325,None,2116.395397,None,2116.905551,None,2116.905551,None,f,0.2745005,2116.905551,None,,,NC14b,1,2021_Nov_11_1113,ProdSingRedo,3.2.3,59.72263601
,,,,129,0,129,0,,,,,,,,,,,,,,,,,,,,,,,,2119.654802,None,,,,,,,,,,,,,,,,,guard,new_a,white,129,93,145,2117.72888,None,2117.72888,None,4,1.1314064,2117.72888,None,2118.902394,None,2119.421475,None,2119.421475,None,f,0.1985311,2119.421475,None,,,NC14b,1,2021_Nov_11_1113,ProdSingRedo,3.2.3,59.72263601
,,,,130,0,130,0,,,,,,,,,,,,,,,,,,,,,,,,2122.947385,None,,,,,,,,,,,,,,,,,youth,new_b,white,130,146,359,2120.182978,None,2120.182978,None,3,2.1008782,2120.182978,None,2122.325102,None,2122.839117,None,2122.839117,None,f,0.0767644,2122.839117,None,,,NC14b,1,2021_Nov_11_1113,ProdSingRedo,3.2.3,59.72263601
,,,,131,0,131,0,,,,,,,,,,,,,,,,,,,,,,,,2125.345782,None,,,,,,,,,,,,,,,,,review,new_c,white,131,172,263,2123.484405,None,2123.484405,None,4,1.2555882,2123.484405,None,2124.782451,None,2125.295848,None,2125.295848,None,f,0.0199913,2125.295848,None,,,NC14b,1,2021_Nov_11_1113,ProdSingRedo,3.2.3,59.72263601
,,,,132,0,132,0,,,,,,,,,,,,,,,,,,,,,,,,2127.805469,None,,,,,,,,,,,,,,,,,drama,new_c,white,132,164,103,2125.864417,None,2125.864417,None,2,1.2755947,2125.864417,None,2127.179167,None,2127.680122,None,2127.680122,None,f,0.1000115,2127.680122,None,,,NC14b,1,2021_Nov_11_1113,ProdSingRedo,3.2.3,59.72263601
,,,,133,0,133,0,,,,,,,,,,,,,,,,,,,,,,,,2130.571827,None,,,,,,,,,,,,,,,,,birth,new_a,white,133,98,22,2128.33095,None,2128.33095,None,1,1.1688684,2128.33095,None,2129.539471,None,2130.05957,None,2130.05957,None,f,0.4725547,2130.05957,None,,,NC14b,1,2021_Nov_11_1113,ProdSingRedo,3.2.3,59.72263601
,,,,134,0,134,0,,,,,,,,,,,,,,,,,,,,,,,,2133.062511,None,,,,,,,,,,,,,,,,,article,silent,white,134,65,11,2131.098129,None,2131.098129,None,6,1.2176493,2131.098129,None,2132.35464,None,2132.861772,None,2132.861772,None,n,0.1821857,2132.861772,None,,,NC14b,1,2021_Nov_11_1113,ProdSingRedo,3.2.3,59.72263601
,,,,135,0,135,0,,,,,,,,,,,,,,,,,,,,,,,,2135.80604,None,,,,,,,,,,,,,,,,,property,new_c,white,135,179,242,2133.57765,None,2133.57765,None,5,1.6184922,2133.57765,None,2135.236595,None,2135.759733,None,2135.759733,None,r,0.0207025,2135.759733,None,,,NC14b,1,2021_Nov_11_1113,ProdSingRedo,3.2.3,59.72263601
,,,,136,0,136,0,,,,,,,,,,,,,,,,,,,,,,,,2138.607126,None,,,,,,,,,,,,,,,,,message,new_a,white,136,100,189,2136.331352,None,2136.331352,None,3,1.1523829,2136.331352,None,2137.521358,None,2138.043134,None,2138.043134,None,f,0.5372015,2138.043134,None,,,NC14b,1,2021_Nov_11_1113,ProdSingRedo,3.2.3,59.72263601
,,,,137,0,137,0,,,,,,,,,,,,,,,,,,,,,,,,2142.296094,None,,,,,,,,,,,,,,,,,passage,new_c,white,137,162,212,2139.134855,None,2139.134855,None,2,2.1813556,2139.134855,None,2141.37725,None,2141.883537,None,2141.883537,None,f,0.3843512,2141.883537,None,,,NC14b,1,2021_Nov_11_1113,ProdSingRedo,3.2.3,59.72263601
,,,,138,0,138,0,,,,,,,,,,,,,,,,,,,,,,,,2144.991201,None,,,,,,,,,,,,,,,,,republic,new_b,white,138,126,260,2142.798287,None,2142.798287,None,1,1.0694683,2142.798287,None,2143.902691,None,2144.430443,None,2144.430443,None,n,0.5176531,2144.430443,None,,,NC14b,1,2021_Nov_11_1113,ProdSingRedo,3.2.3,59.72263601
,,,,139,0,139,0,,,,,,,,,,,,,,,,,,,,,,,,2148.752283,None,,,,,,,,,,,,,,,,,vision,aloud,white,139,34,347,2145.514704,None,2145.514704,None,6,1.0573524,2145.514704,None,2146.613353,None,2147.132501,None,2147.132501,None,r,1.5913191,2147.132501,None,,,NC14b,1,2021_Nov_11_1113,ProdSingRedo,3.2.3,59.72263601
,,,,140,0,140,0,,,,,,,,,,,,,,,,,,,,,,,,2152.023717,None,,,,,,,,,,,,,,,,,drove,new_b,white,140,124,106,2149.275802,None,2149.275802,None,3,1.1922915,2149.275802,None,2150.521174,None,2151.042635,None,2151.042635,None,n,0.9453476,2151.042635,None,,,NC14b,1,2021_Nov_11_1113,ProdSingRedo,3.2.3,59.72263601
,,,,141,0,141,0,,,,,,,,,,,,,,,,,,,,,,,,2155.705853,None,,,,,,,,,,,,,,,,,crime,sing,white,141,10,78,2152.543294,None,2152.543294,None,5,2.1648195,2152.543294,None,2154.751538,None,2155.269588,None,2155.269588,None,r,0.3983812,2155.269588,None,,,NC14b,1,2021_Nov_11_1113,ProdSingRedo,3.2.3,59.72263601
,,,,142,0,142,0,,,,,,,,,,,,,,,,,,,,,,,,2158.586044,None,,,,,,,,,,,,,,,,,territory,silent,white,142,68,324,2156.234708,None,2156.234708,None,5,1.665273,2156.234708,None,2157.939398,None,2158.458103,None,2158.458103,None,f,0.0978472,2158.458103,None,,,NC14b,1,2021_Nov_11_1113,ProdSingRedo,3.2.3,59.72263601
,,,,143,0,143,0,,,,,,,,,,,,,,,,,,,,,,,,2161.598749,None,,,,,,,,,,,,,,,,,master,new_b,white,143,135,180,2159.116671,None,2159.116671,None,4,1.7594364,2159.116671,None,2160.917107,None,2161.444977,None,2161.444977,None,f,0.1350144,2161.444977,None,,,NC14b,1,2021_Nov_11_1113,ProdSingRedo,3.2.3,59.72263601
,,,,144,0,144,0,,,,,,,,,,,,,,,,,,,,,,,,2163.840732,None,,,,,,,,,,,,,,,,,principal,new_b,white,144,133,236,2162.116781,None,2162.116781,None,4,1.0793659,2162.116781,None,2163.21616,None,2163.738567,None,2163.738567,None,f,0.0737315,2163.738567,None,,,NC14b,1,2021_Nov_11_1113,ProdSingRedo,3.2.3,59.72263601
,,,,145,0,145,0,,,,,,,,,,,,,,,,,,,,,,,,2166.463849,None,,,,,,,,,,,,,,,,,fellow,aloud,white,145,31,126,2164.363196,None,2164.363196,None,1,1.3209383,2164.363196,None,2165.738849,None,2166.263084,None,2166.263084,None,f,0.164894,2166.263084,None,,,NC14b,1,2021_Nov_11_1113,ProdSingRedo,3.2.3,59.72263601
,,,,146,0,146,0,,,,,,,,,,,,,,,,,,,,,,,,2168.740464,None,,,,,,,,,,,,,,,,,short,sing,white,146,6,285,2166.979138,None,2166.979138,None,1,0.9852142,2166.979138,None,2168.009181,None,2168.523478,None,2168.523478,None,f,0.1847762,2168.523478,None,,,NC14b,1,2021_Nov_11_1113,ProdSingRedo,3.2.3,59.72263601
,,,,147,0,147,0,,,,,,,,,,,,,,,,,,,,,,,,2171.517135,None,,,,,,,,,,,,,,,,,instrument,sing,white,147,23,163,2169.268198,None,2169.268198,None,6,1.3358078,2169.268198,None,2170.661762,None,2171.168598,None,2171.168598,None,f,0.3151708,2171.168598,None,,,NC14b,1,2021_Nov_11_1113,ProdSingRedo,3.2.3,59.72263601
,,,,148,0,148,0,,,,,,,,,,,,,,,,,,,,,,,,2174.316525,None,,,,,,,,,,,,,,,,,notice,new_a,white,148,90,201,2172.043866,None,2172.043866,None,5,1.4962677,2172.043866,None,2173.58025,None,2174.091538,None,2174.091538,None,f,0.2002834,2174.091538,None,,,NC14b,1,2021_Nov_11_1113,ProdSingRedo,3.2.3,59.72263601
,,,,149,0,149,0,,,,,,,,,,,,,,,,,,,,,,,,2178.173948,None,,,,,,,,,,,,,,,,,spoke,new_a,white,149,118,300,2174.834862,None,2174.834862,None,3,1.0011922,2174.834862,None,2175.889213,None,2176.416232,None,2176.416232,None,r,1.731889,2176.416232,None,,,NC14b,1,2021_Nov_11_1113,ProdSingRedo,3.2.3,59.72263601
,,,,150,0,150,0,,,,,,,,,,,,,,,,,,,,,,,,2181.659893,None,,,,,,,,,,,,,,,,,route,new_b,white,150,132,267,2178.702551,None,2178.702551,None,6,1.3413618,2178.702551,None,2180.075309,None,2180.583585,None,2180.583585,None,r,1.0444946,2180.583585,None,,,NC14b,1,2021_Nov_11_1113,ProdSingRedo,3.2.3,59.72263601
,,,,151,0,151,0,,,,,,,,,,,,,,,,,,,,,,,,2184.639972,None,,,,,,,,,,,,,,,,,volume,new_c,white,151,161,349,2182.189497,None,2182.189497,None,4,1.3271296,2182.189497,None,2183.559163,None,2184.079368,None,2184.079368,None,r,0.5324726,2184.079368,None,,,NC14b,1,2021_Nov_11_1113,ProdSingRedo,3.2.3,59.72263601
,,,,152,0,152,0,,,,,,,,,,,,,,,,,,,,,,,,2186.975229,None,,,,,,,,,,,,,,,,,voice,silent,white,152,73,348,2185.166547,None,2185.166547,None,4,1.1893629,2185.166547,None,2186.397722,None,2186.911347,None,2186.911347,None,r,0.0206771,2186.911347,None,,,NC14b,1,2021_Nov_11_1113,ProdSingRedo,3.2.3,59.72263601
,,,,153,0,153,0,,,,,,,,,,,,,,,,,,,,,,,,2189.442403,None,,,,,,,,,,,,,,,,,opening,new_b,white,153,141,205,2187.497907,None,2187.497907,None,1,0.9701536,2187.497907,None,2188.510419,None,2189.022568,None,2189.022568,None,n,0.3894448,2189.022568,None,,,NC14b,1,2021_Nov_11_1113,ProdSingRedo,3.2.3,59.72263601
,,,,154,0,154,0,,,,,,,,,,,,,,,,,,,,,,,,2195.34268,None,,,,,,,,,,,,,,,,,leader,aloud,white,154,47,168,2189.973079,None,2189.973079,None,5,4.094779,2189.973079,None,2194.100094,None,2194.612055,None,2194.612055,None,n,0.6959292,2194.612055,None,,,NC14b,1,2021_Nov_11_1113,ProdSingRedo,3.2.3,59.72263601
,,,,155,0,155,0,,,,,,,,,,,,,,,,,,,,,,,,2197.92724,None,,,,,,,,,,,,,,,,,bicycle,aloud,white,155,58,21,2195.872281,None,2195.872281,None,1,0.947787,2195.872281,None,2196.877049,None,2197.396515,None,2197.396515,None,n,0.49552,2197.396515,None,,,NC14b,1,2021_Nov_11_1113,ProdSingRedo,3.2.3,59.72263601
,,,,156,0,156,0,,,,,,,,,,,,,,,,,,,,,,,,2202.543827,None,,,,,,,,,,,,,,,,,afternoon,aloud,white,156,49,3,2198.453398,None,2198.453398,None,6,1.7984782,2198.453398,None,2200.293981,None,2200.817809,None,2200.817809,None,r,1.6986344,2200.817809,None,,,NC14b,1,2021_Nov_11_1113,ProdSingRedo,3.2.3,59.72263601
,,,,157,0,157,0,,,,,,,,,,,,,,,,,,,,,,,,2205.220095,None,,,,,,,,,,,,,,,,,fight,new_c,white,157,174,127,2203.068344,None,2203.068344,None,3,1.4645322,2203.068344,None,2204.572349,None,2205.087698,None,2205.087698,None,f,0.1080179,2205.087698,None,,,NC14b,1,2021_Nov_11_1113,ProdSingRedo,3.2.3,59.72263601
,,,,158,0,158,0,,,,,,,,,,,,,,,,,,,,,,,,2207.918038,None,,,,,,,,,,,,,,,,,distance,new_b,white,158,137,100,2205.758566,None,2205.758566,None,3,1.4053021,2205.758566,None,2207.198652,None,2207.701452,None,2207.701452,None,f,0.1903641,2207.701452,None,,,NC14b,1,2021_Nov_11_1113,ProdSingRedo,3.2.3,59.72263601
,,,,159,0,159,0,,,,,,,,,,,,,,,,,,,,,,,,2210.376307,None,,,,,,,,,,,,,,,,,range,new_b,white,159,143,251,2208.437401,None,2208.437401,None,5,1.0952375,2208.437401,None,2209.57475,None,2210.09861,None,2210.09861,None,f,0.2414876,2210.09861,None,,,NC14b,1,2021_Nov_11_1113,ProdSingRedo,3.2.3,59.72263601
,,,,160,0,160,0,,,,,,,,,,,,,,,,,,,,,,,,2212.760852,None,,,,,,,,,,,,,,,,,guide,aloud,white,160,46,147,2210.898628,None,2210.898628,None,1,0.993557,2210.898628,None,2211.939465,None,2212.462282,None,2212.462282,None,f,0.2617821,2212.462282,None,,,NC14b,1,2021_Nov_11_1113,ProdSingRedo,3.2.3,59.72263601
,,,,161,0,161,0,,,,,,,,,,,,,,,,,,,,,,,,2215.267882,None,,,,,,,,,,,,,,,,,working,silent,white,161,84,357,2213.290159,None,2213.290159,None,2,1.1784486,2213.290159,None,2214.519551,None,2215.044481,None,2215.044481,None,f,0.1992744,2215.044481,None,,,NC14b,1,2021_Nov_11_1113,ProdSingRedo,3.2.3,59.72263601
,,,,162,0,162,0,,,,,,,,,,,,,,,,,,,,,,,,2217.445243,None,,,,,,,,,,,,,,,,,measure,new_b,white,162,129,184,2215.784781,None,2215.784781,None,4,1.0352767,2215.784781,None,2216.861194,None,2217.384312,None,2217.384312,None,n,0.0360068,2217.384312,None,,,NC14b,1,2021_Nov_11_1113,ProdSingRedo,3.2.3,59.72263601
,,,,163,0,163,0,,,,,,,,,,,,,,,,,,,,,,,,2219.577729,None,,,,,,,,,,,,,,,,,object,new_a,white,163,108,204,2217.971056,None,2217.971056,None,5,0.9769955,2217.971056,None,2218.992029,None,2219.515477,None,2219.515477,None,n,0.032523,2219.515477,None,,,NC14b,1,2021_Nov_11_1113,ProdSingRedo,3.2.3,59.72263601
,,,,164,0,164,0,,,,,,,,,,,,,,,,,,,,,,,,2222.734993,None,,,,,,,,,,,,,,,,,emergency,new_a,white,164,115,110,2220.104485,None,2220.104485,None,4,2.0434528,2220.104485,None,2222.186715,None,2222.688612,None,2222.688612,None,n,0.0191434,2222.688612,None,,,NC14b,1,2021_Nov_11_1113,ProdSingRedo,3.2.3,59.72263601
,,,,165,0,165,0,,,,,,,,,,,,,,,,,,,,,,,,2225.412821,None,,,,,,,,,,,,,,,,,disease,aloud,white,165,56,97,2223.235588,None,2223.235588,None,6,1.2082947,2223.235588,None,2224.481982,None,2225.004962,None,2225.004962,None,f,0.367164,2225.004962,None,,,NC14b,1,2021_Nov_11_1113,ProdSingRedo,3.2.3,59.72263601
,,,,166,0,166,0,,,,,,,,,,,,,,,,,,,,,,,,2229.754139,None,,,,,,,,,,,,,,,,,design,sing,white,166,21,91,2225.944642,None,2225.944642,None,6,2.9155036,2225.944642,None,2228.913054,None,2229.429773,None,2229.429773,None,f,0.2941112,2229.429773,None,,,NC14b,1,2021_Nov_11_1113,ProdSingRedo,3.2.3,59.72263601
,,,,167,0,167,0,,,,,,,,,,,,,,,,,,,,,,,,2232.128258,None,,,,,,,,,,,,,,,,,growth,new_c,white,167,171,144,2230.290145,None,2230.290145,None,6,1.049959,2230.290145,None,2231.389152,None,2231.917601,None,2231.917601,None,f,0.1829557,2231.917601,None,,,NC14b,1,2021_Nov_11_1113,ProdSingRedo,3.2.3,59.72263601
,,,,168,0,168,0,,,,,,,,,,,,,,,,,,,,,,,,2235.728588,None,,,,,,,,,,,,,,,,,citizen,new_a,white,168,101,50,2232.657412,None,2232.657412,None,4,2.3147958,2232.657412,None,2235.037354,None,2235.550312,None,2235.550312,None,f,0.1418181,2235.550312,None,,,NC14b,1,2021_Nov_11_1113,ProdSingRedo,3.2.3,59.72263601
,,,,169,0,169,0,,,,,,,,,,,,,,,,,,,,,,,,2238.379216,None,,,,,,,,,,,,,,,,,commercial,sing,white,169,11,61,2236.268403,None,2236.268403,None,6,1.3519487,2236.268403,None,2237.657163,None,2238.187777,None,2238.187777,None,f,0.1523327,2238.187777,None,,,NC14b,1,2021_Nov_11_1113,ProdSingRedo,3.2.3,59.72263601
,,,,170,0,170,0,,,,,,,,,,,,,,,,,,,,,,,,2241.004768,None,,,,,,,,,,,,,,,,,murder,aloud,white,170,32,195,2238.905788,None,2238.905788,None,6,1.3463576,2238.905788,None,2240.293579,None,2240.816423,None,2240.816423,None,f,0.1554539,2240.816423,None,,,NC14b,1,2021_Nov_11_1113,ProdSingRedo,3.2.3,59.72263601
,,,,171,0,171,0,,,,,,,,,,,,,,,,,,,,,,,,2243.831707,None,,,,,,,,,,,,,,,,,carry,silent,white,171,89,43,2241.522125,None,2241.522125,None,1,1.0658714,2241.522125,None,2242.629727,None,2243.147399,None,2243.147399,None,n,0.6488152,2243.147399,None,,,NC14b,1,2021_Nov_11_1113,ProdSingRedo,3.2.3,59.72263601
,,,,172,0,172,0,,,,,,,,,,,,,,,,,,,,,,,,2249.17658,None,,,,,,,,,,,,,,,,,profession,aloud,white,172,50,241,2244.36455,None,2244.36455,None,4,3.5757782,2244.36455,None,2247.996392,None,2248.51544,None,2248.51544,None,n,0.6326109,2248.51544,None,,,NC14b,1,2021_Nov_11_1113,ProdSingRedo,3.2.3,59.72263601
,,,,173,0,173,0,,,,,,,,,,,,,,,,,,,,,,,,2251.98048,None,,,,,,,,,,,,,,,,,permit,new_b,white,173,144,218,2249.705328,None,2249.705328,None,1,1.6587509,2249.705328,None,2251.401004,None,2251.912841,None,2251.912841,None,n,0.0272212,2251.912841,None,,,NC14b,1,2021_Nov_11_1113,ProdSingRedo,3.2.3,59.72263601
,,,,174,0,174,0,,,,,,,,,,,,,,,,,,,,,,,,2254.597357,None,,,,,,,,,,,,,,,,,ground,new_b,white,174,123,142,2252.512471,None,2252.512471,None,2,1.0035844,2252.512471,None,2253.551917,None,2254.065799,None,2254.065799,None,f,0.5062964,2254.065799,None,,,NC14b,1,2021_Nov_11_1113,ProdSingRedo,3.2.3,59.72263601
,,,,175,0,175,0,,,,,,,,,,,,,,,,,,,,,,,,2258.205946,None,,,,,,,,,,,,,,,,,break,new_c,white,175,153,26,2255.127442,None,2255.127442,None,4,1.5167513,2255.127442,None,2256.697999,None,2257.216744,None,2257.216744,None,f,0.963108,2257.216744,None,,,NC14b,1,2021_Nov_11_1113,ProdSingRedo,3.2.3,59.72263601
,,,,176,0,176,0,,,,,,,,,,,,,,,,,,,,,,,,2261.384334,None,,,,,,,,,,,,,,,,,orchestra,new_a,white,176,97,206,2258.726054,None,2258.726054,None,1,1.0220299,2258.726054,None,2259.795728,None,2260.316561,None,2260.316561,None,n,1.0395146,2260.316561,None,,,NC14b,1,2021_Nov_11_1113,ProdSingRedo,3.2.3,59.72263601
,,,,177,0,177,0,,,,,,,,,,,,,,,,,,,,,,,,2265.247405,None,,,,,,,,,,,,,,,,,charter,new_a,white,177,109,47,2261.911236,None,2261.911236,None,5,2.4126809,2261.911236,None,2264.365158,None,2264.884286,None,2264.884286,None,n,0.3362888,2264.884286,None,,,NC14b,1,2021_Nov_11_1113,ProdSingRedo,3.2.3,59.72263601
,,,,178,0,178,0,,,,,,,,,,,,,,,,,,,,,,,,2268.938897,None,,,,,,,,,,,,,,,,,congress,silent,white,178,72,67,2265.775125,None,2265.775125,None,3,2.2527941,2265.775125,None,2268.06844,None,2268.573183,None,2268.573183,None,n,0.3426362,2268.573183,None,,,NC14b,1,2021_Nov_11_1113,ProdSingRedo,3.2.3,59.72263601
,,,,179,0,179,0,,,,,,,,,,,,,,,,,,,,,,,,2271.757774,None,,,,,,,,,,,,,,,,,skill,silent,white,179,78,289,2269.450897,None,2269.450897,None,6,1.3771666,2269.450897,None,2270.876842,None,2271.38857,None,2271.38857,None,n,0.3434074,2271.38857,None,,,NC14b,1,2021_Nov_11_1113,ProdSingRedo,3.2.3,59.72263601
,,,,,,,,,,,,,,,,,,,,,,,,,,,,,,,,,,,,,,,,,,,,,,,,,,,,,,,,,,,,,,,,,,,,,,,,,2272.2734,None,,,,,,
