StudyLoop.thisRepN,StudyLoop.thisTrialN,StudyLoop.thisN,StudyLoop.thisIndex,TestLoop.thisRepN,TestLoop.thisTrialN,TestLoop.thisN,TestLoop.thisIndex,textCondition.started,textCondition.stopped,keyCondition.keys,keyCondition.rt,keyCondition.started,keyCondition.stopped,Condition,stim_colors,color_sing,color_aloud,color_silent,textWelcome.started,textWelcome.stopped,keyWelcome.keys,keyWelcome.rt,keyWelcome.started,keyWelcome.stopped,textAloud.started,textAloud.stopped,textSilent.started,textSilent.stopped,textSing.started,textSing.stopped,textBlank500.started,textBlank500.stopped,study_word,study_type,study_color,study_num,study_word_num,textStudy.started,textStudy.stopped,keyStudy.keys,keyStudy.started,keyStudy.stopped,textTestInstructions.started,textTestInstructions.stopped,key_resp_3.keys,key_resp_3.rt,key_resp_3.started,key_resp_3.stopped,testWord,testType,testColor,testN,test_num,test_word_num,textConf.started,textConf.stopped,textConfScale.started,textConfScale.stopped,keyConf.keys,keyConf.rt,keyConf.started,keyConf.stopped,textTestBlank.started,textTestBlank.stopped,textRKN.started,textRKN.stopped,textRKNScale.started,textRKNScale.stopped,keyRKN.keys,keyRKN.rt,keyRKN.started,keyRKN.stopped,textEnd.started,textEnd.stopped,participant,session,date,expName,psychopyVersion,frameRate
,,,,,,,,25.8908764,None,n,1.1156819,25.8908764,None,,,,,,,,,,,,,,,,,,,,,,,,,,,,,,,,,,,,,,,,,,,,,,,,,,,,,,,,,,,,,,NC14a,1,2020_Feb_06_1300,ProdSingRedo,3.2.4,59.98980173
,,,,,,,,,,,,,,NeutralTest,"['yellow', 'red', 'blue']",yellow,red,blue,27.143316,None,space,152.8218657,27.143316,None,,,,,,,,,,,,,,,,,,,,,,,,,,,,,,,,,,,,,,,,,,,,,,,,,,,NC14a,1,2020_Feb_06_1300,ProdSingRedo,3.2.4,59.98980173
0,0,0,0,,,,,,,,,,,,,,,,,,,,,,27.143316,None,27.143316,None,27.143316,None,182.5405155,None,reading,aloud,red,54,254,180.5318427,None,None,180.5318427,None,,,,,,,,,,,,,,,,,,,,,,,,,,,,,,,,,NC14a,1,2020_Feb_06_1300,ProdSingRedo,3.2.4,59.98980173
1,0,1,0,,,,,,,,,,,,,,,,,,,,,,,,,,,,185.0532629,None,strain,aloud,red,35,308,183.0579892,None,None,183.0579892,None,,,,,,,,,,,,,,,,,,,,,,,,,,,,,,,,,NC14a,1,2020_Feb_06_1300,ProdSingRedo,3.2.4,59.98980173
2,0,2,0,,,,,,,,,,,,,,,,,,,,,,,,,,,,187.5689723,None,atmosphere,aloud,red,47,12,185.5757162,None,None,185.5757162,None,,,,,,,,,,,,,,,,,,,,,,,,,,,,,,,,,NC14a,1,2020_Feb_06_1300,ProdSingRedo,3.2.4,59.98980173
3,0,3,0,,,,,,,,,,,,,,,,,,,,,,,,,,,,190.0846451,None,mayor,sing,yellow,13,183,188.0982366,None,None,188.0982366,None,,,,,,,,,,,,,,,,,,,,,,,,,,,,,,,,,NC14a,1,2020_Feb_06_1300,ProdSingRedo,3.2.4,59.98980173
4,0,4,0,,,,,,,,,,,,,,,,,,,,,,,,,,,,192.6003326,None,degree,aloud,red,48,89,190.6060678,None,None,190.6060678,None,,,,,,,,,,,,,,,,,,,,,,,,,,,,,,,,,NC14a,1,2020_Feb_06_1300,ProdSingRedo,3.2.4,59.98980173
5,0,5,0,,,,,,,,,,,,,,,,,,,,,,,,,,,,195.1160297,None,bright,aloud,red,56,29,193.129453,None,None,193.129453,None,,,,,,,,,,,,,,,,,,,,,,,,,,,,,,,,,NC14a,1,2020_Feb_06_1300,ProdSingRedo,3.2.4,59.98980173
6,0,6,0,,,,,,,,,,,,,,,,,,,,,,,,,,,,197.6317159,None,charter,sing,yellow,19,47,195.6374849,None,None,195.6374849,None,,,,,,,,,,,,,,,,,,,,,,,,,,,,,,,,,NC14a,1,2020_Feb_06_1300,ProdSingRedo,3.2.4,59.98980173
7,0,7,0,,,,,,,,,,,,,,,,,,,,,,,,,,,,200.1474551,None,capital,silent,blue,60,40,198.1532375,None,None,198.1532375,None,,,,,,,,,,,,,,,,,,,,,,,,,,,,,,,,,NC14a,1,2020_Feb_06_1300,ProdSingRedo,3.2.4,59.98980173
8,0,8,0,,,,,,,,,,,,,,,,,,,,,,,,,,,,202.6632233,None,nature,silent,blue,63,200,200.668097,None,None,200.668097,None,,,,,,,,,,,,,,,,,,,,,,,,,,,,,,,,,NC14a,1,2020_Feb_06_1300,ProdSingRedo,3.2.4,59.98980173
9,0,9,0,,,,,,,,,,,,,,,,,,,,,,,,,,,,205.178843,None,disease,silent,blue,79,97,203.1841535,None,None,203.1841535,None,,,,,,,,,,,,,,,,,,,,,,,,,,,,,,,,,NC14a,1,2020_Feb_06_1300,ProdSingRedo,3.2.4,59.98980173
10,0,10,0,,,,,,,,,,,,,,,,,,,,,,,,,,,,207.6945524,None,pretty,sing,yellow,9,233,205.7013657,None,None,205.7013657,None,,,,,,,,,,,,,,,,,,,,,,,,,,,,,,,,,NC14a,1,2020_Feb_06_1300,ProdSingRedo,3.2.4,59.98980173
11,0,11,0,,,,,,,,,,,,,,,,,,,,,,,,,,,,210.2109061,None,government,sing,yellow,14,139,208.2268606,None,None,208.2268606,None,,,,,,,,,,,,,,,,,,,,,,,,,,,,,,,,,NC14a,1,2020_Feb_06_1300,ProdSingRedo,3.2.4,59.98980173
12,0,12,0,,,,,,,,,,,,,,,,,,,,,,,,,,,,212.7259724,None,afternoon,aloud,red,31,3,210.733546,None,None,210.733546,None,,,,,,,,,,,,,,,,,,,,,,,,,,,,,,,,,NC14a,1,2020_Feb_06_1300,ProdSingRedo,3.2.4,59.98980173
13,0,13,0,,,,,,,,,,,,,,,,,,,,,,,,,,,,215.2416864,None,distance,silent,blue,71,100,213.2471558,None,None,213.2471558,None,,,,,,,,,,,,,,,,,,,,,,,,,,,,,,,,,NC14a,1,2020_Feb_06_1300,ProdSingRedo,3.2.4,59.98980173
14,0,14,0,,,,,,,,,,,,,,,,,,,,,,,,,,,,217.757393,None,health,sing,yellow,24,149,215.7631254,None,None,215.7631254,None,,,,,,,,,,,,,,,,,,,,,,,,,,,,,,,,,NC14a,1,2020_Feb_06_1300,ProdSingRedo,3.2.4,59.98980173
15,0,15,0,,,,,,,,,,,,,,,,,,,,,,,,,,,,220.2729243,None,angle,aloud,red,42,7,218.2768882,None,None,218.2768882,None,,,,,,,,,,,,,,,,,,,,,,,,,,,,,,,,,NC14a,1,2020_Feb_06_1300,ProdSingRedo,3.2.4,59.98980173
16,0,16,0,,,,,,,,,,,,,,,,,,,,,,,,,,,,222.7888352,None,throw,silent,blue,75,330,220.7927129,None,None,220.7927129,None,,,,,,,,,,,,,,,,,,,,,,,,,,,,,,,,,NC14a,1,2020_Feb_06_1300,ProdSingRedo,3.2.4,59.98980173
17,0,17,0,,,,,,,,,,,,,,,,,,,,,,,,,,,,225.3044324,None,payment,aloud,red,37,215,223.3132477,None,None,223.3132477,None,,,,,,,,,,,,,,,,,,,,,,,,,,,,,,,,,NC14a,1,2020_Feb_06_1300,ProdSingRedo,3.2.4,59.98980173
18,0,18,0,,,,,,,,,,,,,,,,,,,,,,,,,,,,227.8202032,None,season,aloud,red,51,277,225.8259632,None,None,225.8259632,None,,,,,,,,,,,,,,,,,,,,,,,,,,,,,,,,,NC14a,1,2020_Feb_06_1300,ProdSingRedo,3.2.4,59.98980173
19,0,19,0,,,,,,,,,,,,,,,,,,,,,,,,,,,,230.3358881,None,country,aloud,red,55,73,228.3407045,None,None,228.3407045,None,,,,,,,,,,,,,,,,,,,,,,,,,,,,,,,,,NC14a,1,2020_Feb_06_1300,ProdSingRedo,3.2.4,59.98980173
20,0,20,0,,,,,,,,,,,,,,,,,,,,,,,,,,,,232.8514352,None,nation,sing,yellow,26,198,230.8563213,None,None,230.8563213,None,,,,,,,,,,,,,,,,,,,,,,,,,,,,,,,,,NC14a,1,2020_Feb_06_1300,ProdSingRedo,3.2.4,59.98980173
21,0,21,0,,,,,,,,,,,,,,,,,,,,,,,,,,,,235.3673329,None,member,aloud,red,36,188,233.3724866,None,None,233.3724866,None,,,,,,,,,,,,,,,,,,,,,,,,,,,,,,,,,NC14a,1,2020_Feb_06_1300,ProdSingRedo,3.2.4,59.98980173
22,0,22,0,,,,,,,,,,,,,,,,,,,,,,,,,,,,237.8830457,None,income,aloud,red,34,159,235.8891105,None,None,235.8891105,None,,,,,,,,,,,,,,,,,,,,,,,,,,,,,,,,,NC14a,1,2020_Feb_06_1300,ProdSingRedo,3.2.4,59.98980173
23,0,23,0,,,,,,,,,,,,,,,,,,,,,,,,,,,,240.3987628,None,quiet,sing,yellow,16,249,238.4125094,None,None,238.4125094,None,,,,,,,,,,,,,,,,,,,,,,,,,,,,,,,,,NC14a,1,2020_Feb_06_1300,ProdSingRedo,3.2.4,59.98980173
24,0,24,0,,,,,,,,,,,,,,,,,,,,,,,,,,,,242.9137921,None,education,silent,blue,74,108,240.9220776,None,None,240.9220776,None,,,,,,,,,,,,,,,,,,,,,,,,,,,,,,,,,NC14a,1,2020_Feb_06_1300,ProdSingRedo,3.2.4,59.98980173
25,0,25,0,,,,,,,,,,,,,,,,,,,,,,,,,,,,245.4301349,None,smell,aloud,red,39,291,243.4337197,None,None,243.4337197,None,,,,,,,,,,,,,,,,,,,,,,,,,,,,,,,,,NC14a,1,2020_Feb_06_1300,ProdSingRedo,3.2.4,59.98980173
26,0,26,0,,,,,,,,,,,,,,,,,,,,,,,,,,,,247.9458302,None,testimony,aloud,red,41,325,245.9526679,None,None,245.9526679,None,,,,,,,,,,,,,,,,,,,,,,,,,,,,,,,,,NC14a,1,2020_Feb_06_1300,ProdSingRedo,3.2.4,59.98980173
27,0,27,0,,,,,,,,,,,,,,,,,,,,,,,,,,,,250.4615461,None,guide,sing,yellow,11,147,248.4653809,None,None,248.4653809,None,,,,,,,,,,,,,,,,,,,,,,,,,,,,,,,,,NC14a,1,2020_Feb_06_1300,ProdSingRedo,3.2.4,59.98980173
28,0,28,0,,,,,,,,,,,,,,,,,,,,,,,,,,,,252.9772356,None,impact,sing,yellow,6,157,250.9811256,None,None,250.9811256,None,,,,,,,,,,,,,,,,,,,,,,,,,,,,,,,,,NC14a,1,2020_Feb_06_1300,ProdSingRedo,3.2.4,59.98980173
29,0,29,0,,,,,,,,,,,,,,,,,,,,,,,,,,,,255.4929798,None,guard,silent,blue,76,145,253.4977504,None,None,253.4977504,None,,,,,,,,,,,,,,,,,,,,,,,,,,,,,,,,,NC14a,1,2020_Feb_06_1300,ProdSingRedo,3.2.4,59.98980173
30,0,30,0,,,,,,,,,,,,,,,,,,,,,,,,,,,,258.008676,None,pattern,silent,blue,65,214,256.0154953,None,None,256.0154953,None,,,,,,,,,,,,,,,,,,,,,,,,,,,,,,,,,NC14a,1,2020_Feb_06_1300,ProdSingRedo,3.2.4,59.98980173
31,0,31,0,,,,,,,,,,,,,,,,,,,,,,,,,,,,260.524099,None,taste,aloud,red,52,322,258.5301374,None,None,258.5301374,None,,,,,,,,,,,,,,,,,,,,,,,,,,,,,,,,,NC14a,1,2020_Feb_06_1300,ProdSingRedo,3.2.4,59.98980173
32,0,32,0,,,,,,,,,,,,,,,,,,,,,,,,,,,,263.0400333,None,weather,aloud,red,49,352,261.0459037,None,None,261.0459037,None,,,,,,,,,,,,,,,,,,,,,,,,,,,,,,,,,NC14a,1,2020_Feb_06_1300,ProdSingRedo,3.2.4,59.98980173
33,0,33,0,,,,,,,,,,,,,,,,,,,,,,,,,,,,265.5557806,None,oxygen,silent,blue,62,209,263.5603568,None,None,263.5603568,None,,,,,,,,,,,,,,,,,,,,,,,,,,,,,,,,,NC14a,1,2020_Feb_06_1300,ProdSingRedo,3.2.4,59.98980173
34,0,34,0,,,,,,,,,,,,,,,,,,,,,,,,,,,,268.0714585,None,chief,silent,blue,80,48,266.0764029,None,None,266.0764029,None,,,,,,,,,,,,,,,,,,,,,,,,,,,,,,,,,NC14a,1,2020_Feb_06_1300,ProdSingRedo,3.2.4,59.98980173
35,0,35,0,,,,,,,,,,,,,,,,,,,,,,,,,,,,270.5871591,None,tragedy,silent,blue,78,335,268.5930517,None,None,268.5930517,None,,,,,,,,,,,,,,,,,,,,,,,,,,,,,,,,,NC14a,1,2020_Feb_06_1300,ProdSingRedo,3.2.4,59.98980173
36,0,36,0,,,,,,,,,,,,,,,,,,,,,,,,,,,,273.1029014,None,death,sing,yellow,4,86,271.1067489,None,None,271.1067489,None,,,,,,,,,,,,,,,,,,,,,,,,,,,,,,,,,NC14a,1,2020_Feb_06_1300,ProdSingRedo,3.2.4,59.98980173
37,0,37,0,,,,,,,,,,,,,,,,,,,,,,,,,,,,275.6186375,None,story,silent,blue,77,306,273.6234329,None,None,273.6234329,None,,,,,,,,,,,,,,,,,,,,,,,,,,,,,,,,,NC14a,1,2020_Feb_06_1300,ProdSingRedo,3.2.4,59.98980173
38,0,38,0,,,,,,,,,,,,,,,,,,,,,,,,,,,,278.1342718,None,thick,aloud,red,33,327,276.1435081,None,None,276.1435081,None,,,,,,,,,,,,,,,,,,,,,,,,,,,,,,,,,NC14a,1,2020_Feb_06_1300,ProdSingRedo,3.2.4,59.98980173
39,0,39,0,,,,,,,,,,,,,,,,,,,,,,,,,,,,280.6500079,None,century,aloud,red,57,45,278.6558648,None,None,278.6558648,None,,,,,,,,,,,,,,,,,,,,,,,,,,,,,,,,,NC14a,1,2020_Feb_06_1300,ProdSingRedo,3.2.4,59.98980173
40,0,40,0,,,,,,,,,,,,,,,,,,,,,,,,,,,,283.1657391,None,answer,aloud,red,58,8,281.1705972,None,None,281.1705972,None,,,,,,,,,,,,,,,,,,,,,,,,,,,,,,,,,NC14a,1,2020_Feb_06_1300,ProdSingRedo,3.2.4,59.98980173
41,0,41,0,,,,,,,,,,,,,,,,,,,,,,,,,,,,285.6824649,None,opening,sing,yellow,17,205,283.6926178,None,None,283.6926178,None,,,,,,,,,,,,,,,,,,,,,,,,,,,,,,,,,NC14a,1,2020_Feb_06_1300,ProdSingRedo,3.2.4,59.98980173
42,0,42,0,,,,,,,,,,,,,,,,,,,,,,,,,,,,288.191013,None,threat,sing,yellow,28,329,286.2030393,None,None,286.2030393,None,,,,,,,,,,,,,,,,,,,,,,,,,,,,,,,,,NC14a,1,2020_Feb_06_1300,ProdSingRedo,3.2.4,59.98980173
43,0,43,0,,,,,,,,,,,,,,,,,,,,,,,,,,,,290.7117803,None,drink,sing,yellow,7,105,288.7167065,None,None,288.7167065,None,,,,,,,,,,,,,,,,,,,,,,,,,,,,,,,,,NC14a,1,2020_Feb_06_1300,ProdSingRedo,3.2.4,59.98980173
44,0,44,0,,,,,,,,,,,,,,,,,,,,,,,,,,,,293.2284981,None,household,aloud,red,30,154,291.23611,None,None,291.23611,None,,,,,,,,,,,,,,,,,,,,,,,,,,,,,,,,,NC14a,1,2020_Feb_06_1300,ProdSingRedo,3.2.4,59.98980173
45,0,45,0,,,,,,,,,,,,,,,,,,,,,,,,,,,,295.7452641,None,service,silent,blue,87,280,293.7501045,None,None,293.7501045,None,,,,,,,,,,,,,,,,,,,,,,,,,,,,,,,,,NC14a,1,2020_Feb_06_1300,ProdSingRedo,3.2.4,59.98980173
46,0,46,0,,,,,,,,,,,,,,,,,,,,,,,,,,,,298.259604,None,audience,sing,yellow,8,14,296.2666504,None,None,296.2666504,None,,,,,,,,,,,,,,,,,,,,,,,,,,,,,,,,,NC14a,1,2020_Feb_06_1300,ProdSingRedo,3.2.4,59.98980173
47,0,47,0,,,,,,,,,,,,,,,,,,,,,,,,,,,,300.7755809,None,business,silent,blue,61,38,298.7821247,None,None,298.7821247,None,,,,,,,,,,,,,,,,,,,,,,,,,,,,,,,,,NC14a,1,2020_Feb_06_1300,ProdSingRedo,3.2.4,59.98980173
48,0,48,0,,,,,,,,,,,,,,,,,,,,,,,,,,,,303.2913765,None,discussion,aloud,red,43,96,301.2990663,None,None,301.2990663,None,,,,,,,,,,,,,,,,,,,,,,,,,,,,,,,,,NC14a,1,2020_Feb_06_1300,ProdSingRedo,3.2.4,59.98980173
49,0,49,0,,,,,,,,,,,,,,,,,,,,,,,,,,,,305.8058414,None,travel,silent,blue,69,338,303.812887,None,None,303.812887,None,,,,,,,,,,,,,,,,,,,,,,,,,,,,,,,,,NC14a,1,2020_Feb_06_1300,ProdSingRedo,3.2.4,59.98980173
50,0,50,0,,,,,,,,,,,,,,,,,,,,,,,,,,,,308.322772,None,force,aloud,red,40,131,306.3284893,None,None,306.3284893,None,,,,,,,,,,,,,,,,,,,,,,,,,,,,,,,,,NC14a,1,2020_Feb_06_1300,ProdSingRedo,3.2.4,59.98980173
51,0,51,0,,,,,,,,,,,,,,,,,,,,,,,,,,,,310.8384883,None,tennis,silent,blue,85,323,308.8443831,None,None,308.8443831,None,,,,,,,,,,,,,,,,,,,,,,,,,,,,,,,,,NC14a,1,2020_Feb_06_1300,ProdSingRedo,3.2.4,59.98980173
52,0,52,0,,,,,,,,,,,,,,,,,,,,,,,,,,,,313.3542011,None,school,silent,blue,83,274,311.359974,None,None,311.359974,None,,,,,,,,,,,,,,,,,,,,,,,,,,,,,,,,,NC14a,1,2020_Feb_06_1300,ProdSingRedo,3.2.4,59.98980173
53,0,53,0,,,,,,,,,,,,,,,,,,,,,,,,,,,,315.8696226,None,concern,aloud,red,50,65,313.8767345,None,None,313.8767345,None,,,,,,,,,,,,,,,,,,,,,,,,,,,,,,,,,NC14a,1,2020_Feb_06_1300,ProdSingRedo,3.2.4,59.98980173
54,0,54,0,,,,,,,,,,,,,,,,,,,,,,,,,,,,318.3854251,None,prime,sing,yellow,20,235,316.3892778,None,None,316.3892778,None,,,,,,,,,,,,,,,,,,,,,,,,,,,,,,,,,NC14a,1,2020_Feb_06_1300,ProdSingRedo,3.2.4,59.98980173
55,0,55,0,,,,,,,,,,,,,,,,,,,,,,,,,,,,320.9012961,None,plane,silent,blue,66,223,318.905116,None,None,318.905116,None,,,,,,,,,,,,,,,,,,,,,,,,,,,,,,,,,NC14a,1,2020_Feb_06_1300,ProdSingRedo,3.2.4,59.98980173
56,0,56,0,,,,,,,,,,,,,,,,,,,,,,,,,,,,323.4170038,None,skill,silent,blue,88,289,321.4217367,None,None,321.4217367,None,,,,,,,,,,,,,,,,,,,,,,,,,,,,,,,,,NC14a,1,2020_Feb_06_1300,ProdSingRedo,3.2.4,59.98980173
57,0,57,0,,,,,,,,,,,,,,,,,,,,,,,,,,,,325.9327754,None,estate,aloud,red,32,119,323.9383738,None,None,323.9383738,None,,,,,,,,,,,,,,,,,,,,,,,,,,,,,,,,,NC14a,1,2020_Feb_06_1300,ProdSingRedo,3.2.4,59.98980173
58,0,58,0,,,,,,,,,,,,,,,,,,,,,,,,,,,,328.4483999,None,beginning,sing,yellow,22,19,326.455242,None,None,326.455242,None,,,,,,,,,,,,,,,,,,,,,,,,,,,,,,,,,NC14a,1,2020_Feb_06_1300,ProdSingRedo,3.2.4,59.98980173
59,0,59,0,,,,,,,,,,,,,,,,,,,,,,,,,,,,330.9641117,None,recall,sing,yellow,12,255,328.969993,None,None,328.969993,None,,,,,,,,,,,,,,,,,,,,,,,,,,,,,,,,,NC14a,1,2020_Feb_06_1300,ProdSingRedo,3.2.4,59.98980173
60,0,60,0,,,,,,,,,,,,,,,,,,,,,,,,,,,,333.4798358,None,revolution,silent,blue,82,264,331.4875694,None,None,331.4875694,None,,,,,,,,,,,,,,,,,,,,,,,,,,,,,,,,,NC14a,1,2020_Feb_06_1300,ProdSingRedo,3.2.4,59.98980173
61,0,61,0,,,,,,,,,,,,,,,,,,,,,,,,,,,,335.995521,None,universal,sing,yellow,25,345,334.0021362,None,None,334.0021362,None,,,,,,,,,,,,,,,,,,,,,,,,,,,,,,,,,NC14a,1,2020_Feb_06_1300,ProdSingRedo,3.2.4,59.98980173
62,0,62,0,,,,,,,,,,,,,,,,,,,,,,,,,,,,338.5112427,None,vision,silent,blue,86,347,336.5168829,None,None,336.5168829,None,,,,,,,,,,,,,,,,,,,,,,,,,,,,,,,,,NC14a,1,2020_Feb_06_1300,ProdSingRedo,3.2.4,59.98980173
63,0,63,0,,,,,,,,,,,,,,,,,,,,,,,,,,,,341.0266549,None,light,aloud,red,46,171,339.0317482,None,None,339.0317482,None,,,,,,,,,,,,,,,,,,,,,,,,,,,,,,,,,NC14a,1,2020_Feb_06_1300,ProdSingRedo,3.2.4,59.98980173
64,0,64,0,,,,,,,,,,,,,,,,,,,,,,,,,,,,343.5426496,None,election,sing,yellow,5,109,341.5492281,None,None,341.5492281,None,,,,,,,,,,,,,,,,,,,,,,,,,,,,,,,,,NC14a,1,2020_Feb_06_1300,ProdSingRedo,3.2.4,59.98980173
65,0,65,0,,,,,,,,,,,,,,,,,,,,,,,,,,,,346.0584115,None,research,silent,blue,68,261,344.0659592,None,None,344.0659592,None,,,,,,,,,,,,,,,,,,,,,,,,,,,,,,,,,NC14a,1,2020_Feb_06_1300,ProdSingRedo,3.2.4,59.98980173
66,0,66,0,,,,,,,,,,,,,,,,,,,,,,,,,,,,348.5738002,None,youth,sing,yellow,18,359,346.5779726,None,None,346.5779726,None,,,,,,,,,,,,,,,,,,,,,,,,,,,,,,,,,NC14a,1,2020_Feb_06_1300,ProdSingRedo,3.2.4,59.98980173
67,0,67,0,,,,,,,,,,,,,,,,,,,,,,,,,,,,351.0897812,None,profession,sing,yellow,23,241,349.0985672,None,None,349.0985672,None,,,,,,,,,,,,,,,,,,,,,,,,,,,,,,,,,NC14a,1,2020_Feb_06_1300,ProdSingRedo,3.2.4,59.98980173
68,0,68,0,,,,,,,,,,,,,,,,,,,,,,,,,,,,353.6054812,None,touch,silent,blue,73,332,351.6102989,None,None,351.6102989,None,,,,,,,,,,,,,,,,,,,,,,,,,,,,,,,,,NC14a,1,2020_Feb_06_1300,ProdSingRedo,3.2.4,59.98980173
69,0,69,0,,,,,,,,,,,,,,,,,,,,,,,,,,,,356.1211758,None,speech,silent,blue,67,298,354.1262342,None,None,354.1262342,None,,,,,,,,,,,,,,,,,,,,,,,,,,,,,,,,,NC14a,1,2020_Feb_06_1300,ProdSingRedo,3.2.4,59.98980173
70,0,70,0,,,,,,,,,,,,,,,,,,,,,,,,,,,,358.6368727,None,grade,aloud,red,38,140,356.6427764,None,None,356.6427764,None,,,,,,,,,,,,,,,,,,,,,,,,,,,,,,,,,NC14a,1,2020_Feb_06_1300,ProdSingRedo,3.2.4,59.98980173
71,0,71,0,,,,,,,,,,,,,,,,,,,,,,,,,,,,361.1526034,None,express,aloud,red,45,124,359.1584512,None,None,359.1584512,None,,,,,,,,,,,,,,,,,,,,,,,,,,,,,,,,,NC14a,1,2020_Feb_06_1300,ProdSingRedo,3.2.4,59.98980173
72,0,72,0,,,,,,,,,,,,,,,,,,,,,,,,,,,,363.6682994,None,equipment,aloud,red,44,116,361.6758924,None,None,361.6758924,None,,,,,,,,,,,,,,,,,,,,,,,,,,,,,,,,,NC14a,1,2020_Feb_06_1300,ProdSingRedo,3.2.4,59.98980173
73,0,73,0,,,,,,,,,,,,,,,,,,,,,,,,,,,,366.1828822,None,detective,silent,blue,84,92,364.1922777,None,None,364.1922777,None,,,,,,,,,,,,,,,,,,,,,,,,,,,,,,,,,NC14a,1,2020_Feb_06_1300,ProdSingRedo,3.2.4,59.98980173
74,0,74,0,,,,,,,,,,,,,,,,,,,,,,,,,,,,368.6997194,None,sunset,sing,yellow,27,315,366.7045775,None,None,366.7045775,None,,,,,,,,,,,,,,,,,,,,,,,,,,,,,,,,,NC14a,1,2020_Feb_06_1300,ProdSingRedo,3.2.4,59.98980173
75,0,75,0,,,,,,,,,,,,,,,,,,,,,,,,,,,,371.2153937,None,employment,sing,yellow,29,111,369.2243383,None,None,369.2243383,None,,,,,,,,,,,,,,,,,,,,,,,,,,,,,,,,,NC14a,1,2020_Feb_06_1300,ProdSingRedo,3.2.4,59.98980173
76,0,76,0,,,,,,,,,,,,,,,,,,,,,,,,,,,,373.731299,None,point,sing,yellow,10,226,371.7359668,None,None,371.7359668,None,,,,,,,,,,,,,,,,,,,,,,,,,,,,,,,,,NC14a,1,2020_Feb_06_1300,ProdSingRedo,3.2.4,59.98980173
77,0,77,0,,,,,,,,,,,,,,,,,,,,,,,,,,,,376.2467897,None,incident,sing,yellow,3,158,374.2536233,None,None,374.2536233,None,,,,,,,,,,,,,,,,,,,,,,,,,,,,,,,,,NC14a,1,2020_Feb_06_1300,ProdSingRedo,3.2.4,59.98980173
78,0,78,0,,,,,,,,,,,,,,,,,,,,,,,,,,,,378.7624241,None,society,silent,blue,72,293,376.7611945,None,None,376.7611945,None,,,,,,,,,,,,,,,,,,,,,,,,,,,,,,,,,NC14a,1,2020_Feb_06_1300,ProdSingRedo,3.2.4,59.98980173
79,0,79,0,,,,,,,,,,,,,,,,,,,,,,,,,,,,381.2782524,None,expansion,sing,yellow,21,123,379.2625157,None,None,379.2625157,None,,,,,,,,,,,,,,,,,,,,,,,,,,,,,,,,,NC14a,1,2020_Feb_06_1300,ProdSingRedo,3.2.4,59.98980173
80,0,80,0,,,,,,,,,,,,,,,,,,,,,,,,,,,,383.7939378,None,stand,sing,yellow,0,302,381.7988323,None,None,381.7988323,None,,,,,,,,,,,,,,,,,,,,,,,,,,,,,,,,,NC14a,1,2020_Feb_06_1300,ProdSingRedo,3.2.4,59.98980173
81,0,81,0,,,,,,,,,,,,,,,,,,,,,,,,,,,,386.3106148,None,report,aloud,red,59,259,384.3150629,None,None,384.3150629,None,,,,,,,,,,,,,,,,,,,,,,,,,,,,,,,,,NC14a,1,2020_Feb_06_1300,ProdSingRedo,3.2.4,59.98980173
82,0,82,0,,,,,,,,,,,,,,,,,,,,,,,,,,,,388.8253454,None,spoke,silent,blue,81,300,386.8312595,None,None,386.8312595,None,,,,,,,,,,,,,,,,,,,,,,,,,,,,,,,,,NC14a,1,2020_Feb_06_1300,ProdSingRedo,3.2.4,59.98980173
83,0,83,0,,,,,,,,,,,,,,,,,,,,,,,,,,,,391.3410476,None,height,sing,yellow,1,152,389.3478828,None,None,389.3478828,None,,,,,,,,,,,,,,,,,,,,,,,,,,,,,,,,,NC14a,1,2020_Feb_06_1300,ProdSingRedo,3.2.4,59.98980173
84,0,84,0,,,,,,,,,,,,,,,,,,,,,,,,,,,,393.8568175,None,medicine,silent,blue,89,186,391.8632652,None,None,391.8632652,None,,,,,,,,,,,,,,,,,,,,,,,,,,,,,,,,,NC14a,1,2020_Feb_06_1300,ProdSingRedo,3.2.4,59.98980173
85,0,85,0,,,,,,,,,,,,,,,,,,,,,,,,,,,,396.373423,None,thing,silent,blue,70,328,394.3774972,None,None,394.3774972,None,,,,,,,,,,,,,,,,,,,,,,,,,,,,,,,,,NC14a,1,2020_Feb_06_1300,ProdSingRedo,3.2.4,59.98980173
86,0,86,0,,,,,,,,,,,,,,,,,,,,,,,,,,,,398.8881889,None,suggestion,aloud,red,53,314,396.8970736,None,None,396.8970736,None,,,,,,,,,,,,,,,,,,,,,,,,,,,,,,,,,NC14a,1,2020_Feb_06_1300,ProdSingRedo,3.2.4,59.98980173
87,0,87,0,,,,,,,,,,,,,,,,,,,,,,,,,,,,401.40391,None,comedy,sing,yellow,15,58,399.4092926,None,None,399.4092926,None,,,,,,,,,,,,,,,,,,,,,,,,,,,,,,,,,NC14a,1,2020_Feb_06_1300,ProdSingRedo,3.2.4,59.98980173
88,0,88,0,,,,,,,,,,,,,,,,,,,,,,,,,,,,403.9195738,None,number,silent,blue,64,203,401.9255087,None,None,401.9255087,None,,,,,,,,,,,,,,,,,,,,,,,,,,,,,,,,,NC14a,1,2020_Feb_06_1300,ProdSingRedo,3.2.4,59.98980173
89,0,89,0,,,,,,,,,,,,,,,,,,,,,,,,,,,,406.4353272,None,device,sing,yellow,2,93,404.4411959,None,None,404.4411959,None,,,,,,,,,,,,,,,,,,,,,,,,,,,,,,,,,NC14a,1,2020_Feb_06_1300,ProdSingRedo,3.2.4,59.98980173
,,,,,,,,,,,,,,,,,,,,,,,,,,,,,,,,,,,,,,,,,,,406.9327424,None,k,139.4369629,406.9327424,None,,,,,,,,,,,,,,,,,,,,,,,,,,,NC14a,1,2020_Feb_06_1300,ProdSingRedo,3.2.4,59.98980173
,,,,0,0,0,0,,,,,,,,,,,,,,,,,,,,,,,,555.411623,None,,,,,,,,,,,,,,,,,weight,new_b,white,0,143,353,546.9393295,None,546.9393295,None,6,5.3835415,546.9393295,None,552.399828,None,552.9156339,None,552.9156339,None,n,2.4346314,552.9156339,None,,,NC14a,1,2020_Feb_06_1300,ProdSingRedo,3.2.4,59.98980173
,,,,1,0,1,0,,,,,,,,,,,,,,,,,,,,,,,,561.4379029,None,,,,,,,,,,,,,,,,,estate,aloud,white,1,32,119,555.9585786,None,555.9585786,None,6,3.0407997,555.9585786,None,559.0772606,None,559.5947998,None,559.5947998,None,r,1.7793114,559.5947998,None,,,NC14a,1,2020_Feb_06_1300,ProdSingRedo,3.2.4,59.98980173
,,,,2,0,2,0,,,,,,,,,,,,,,,,,,,,,,,,564.6702986,None,,,,,,,,,,,,,,,,,tragedy,silent,white,2,78,335,561.9776954,None,561.9776954,None,6,1.6161763,561.9776954,None,563.6628075,None,564.1951399,None,564.1951399,None,r,0.4266378,564.1951399,None,,,NC14a,1,2020_Feb_06_1300,ProdSingRedo,3.2.4,59.98980173
,,,,3,0,3,0,,,,,,,,,,,,,,,,,,,,,,,,570.4348667,None,,,,,,,,,,,,,,,,,century,aloud,white,3,57,45,565.2072341,None,565.2072341,None,6,3.1866112,565.2072341,None,568.4733085,None,568.9932578,None,568.9932578,None,r,1.3884448,568.9932578,None,,,NC14a,1,2020_Feb_06_1300,ProdSingRedo,3.2.4,59.98980173
,,,,4,0,4,0,,,,,,,,,,,,,,,,,,,,,,,,574.9341175,None,,,,,,,,,,,,,,,,,bureau,new_c,white,4,165,37,570.9716166,None,570.9716166,None,1,2.5175601,570.9716166,None,573.5703187,None,574.0912814,None,574.0912814,None,n,0.792072,574.0912814,None,,,NC14a,1,2020_Feb_06_1300,ProdSingRedo,3.2.4,59.98980173
,,,,5,0,5,0,,,,,,,,,,,,,,,,,,,,,,,,578.4800981,None,,,,,,,,,,,,,,,,,society,silent,white,5,72,293,575.4855974,None,575.4855974,None,6,1.793427,575.4855974,None,577.3591811,None,577.873173,None,577.873173,None,r,0.5501919,577.873173,None,,,NC14a,1,2020_Feb_06_1300,ProdSingRedo,3.2.4,59.98980173
,,,,6,0,6,0,,,,,,,,,,,,,,,,,,,,,,,,582.2623109,None,,,,,,,,,,,,,,,,,mayor,sing,white,6,13,183,579.0169362,None,579.0169362,None,6,1.4679276,579.0169362,None,580.5562609,None,581.0877053,None,581.0877053,None,r,1.1214676,581.0877053,None,,,NC14a,1,2020_Feb_06_1300,ProdSingRedo,3.2.4,59.98980173
,,,,7,0,7,0,,,,,,,,,,,,,,,,,,,,,,,,585.7773214,None,,,,,,,,,,,,,,,,,owner,new_b,white,7,147,208,582.7995668,None,582.7995668,None,6,1.7791459,582.7995668,None,584.6477585,None,585.1694495,None,585.1694495,None,r,0.5604731,585.1694495,None,,,NC14a,1,2020_Feb_06_1300,ProdSingRedo,3.2.4,59.98980173
,,,,8,0,8,0,,,,,,,,,,,,,,,,,,,,,,,,591.0743499,None,,,,,,,,,,,,,,,,,article,new_b,white,8,138,11,586.3155322,None,586.3155322,None,1,3.1431398,586.3155322,None,589.5313627,None,590.0528075,None,590.0528075,None,n,0.9635571,590.0528075,None,,,NC14a,1,2020_Feb_06_1300,ProdSingRedo,3.2.4,59.98980173
,,,,9,0,9,0,,,,,,,,,,,,,,,,,,,,,,,,594.4594929,None,,,,,,,,,,,,,,,,,household,aloud,white,9,30,154,591.6165186,None,591.6165186,None,6,1.4518259,591.6165186,None,593.1483322,None,593.66905,None,593.66905,None,r,0.7326509,593.66905,None,,,NC14a,1,2020_Feb_06_1300,ProdSingRedo,3.2.4,59.98980173
,,,,10,0,10,0,,,,,,,,,,,,,,,,,,,,,,,,599.6788393,None,,,,,,,,,,,,,,,,,smooth,new_b,white,10,125,292,595.0115059,None,595.0115059,None,1,2.2956488,595.0115059,None,597.3411307,None,597.8596414,None,597.8596414,None,n,1.7962336,597.8596414,None,,,NC14a,1,2020_Feb_06_1300,ProdSingRedo,3.2.4,59.98980173
,,,,11,0,11,0,,,,,,,,,,,,,,,,,,,,,,,,612.9352714,None,,,,,,,,,,,,,,,,,touch,silent,white,11,73,332,600.2013101,None,600.2013101,None,3,8.0981701,600.2013101,None,608.3761091,None,608.8929018,None,608.8929018,None,f,3.9916929,608.8929018,None,,,NC14a,1,2020_Feb_06_1300,ProdSingRedo,3.2.4,59.98980173
,,,,12,0,12,0,,,,,,,,,,,,,,,,,,,,,,,,616.9973767,None,,,,,,,,,,,,,,,,,speech,silent,white,12,67,298,613.4706455,None,613.4706455,None,6,1.6143848,613.4706455,None,615.1541195,None,615.6744393,None,615.6744393,None,r,1.2660686,615.6744393,None,,,NC14a,1,2020_Feb_06_1300,ProdSingRedo,3.2.4,59.98980173
,,,,13,0,13,0,,,,,,,,,,,,,,,,,,,,,,,,620.1140926,None,,,,,,,,,,,,,,,,,universal,sing,white,13,25,345,617.5387009,None,617.5387009,None,6,1.4718743,617.5387009,None,619.0904331,None,619.6090879,None,619.6090879,None,r,0.4574047,619.6090879,None,,,NC14a,1,2020_Feb_06_1300,ProdSingRedo,3.2.4,59.98980173
,,,,14,0,14,0,,,,,,,,,,,,,,,,,,,,,,,,623.3581878,None,,,,,,,,,,,,,,,,,thick,aloud,white,14,33,327,620.6515467,None,620.6515467,None,6,1.9157866,620.6515467,None,622.6524128,None,623.1705906,None,623.1705906,None,r,0.133262,623.1705906,None,,,NC14a,1,2020_Feb_06_1300,ProdSingRedo,3.2.4,59.98980173
,,,,15,0,15,0,,,,,,,,,,,,,,,,,,,,,,,,626.3948366,None,,,,,,,,,,,,,,,,,balance,new_c,white,15,159,17,623.9018438,None,623.9018438,None,6,1.5517063,623.9018438,None,625.5230821,None,626.0559137,None,626.0559137,None,r,0.2795973,626.0559137,None,,,NC14a,1,2020_Feb_06_1300,ProdSingRedo,3.2.4,59.98980173
,,,,16,0,16,0,,,,,,,,,,,,,,,,,,,,,,,,629.6452061,None,,,,,,,,,,,,,,,,,report,aloud,white,16,59,259,626.9337263,None,626.9337263,None,6,1.7035492,626.9337263,None,628.7041001,None,629.236001,None,629.236001,None,r,0.3576138,629.236001,None,,,NC14a,1,2020_Feb_06_1300,ProdSingRedo,3.2.4,59.98980173
,,,,17,0,17,0,,,,,,,,,,,,,,,,,,,,,,,,632.2934792,None,,,,,,,,,,,,,,,,,distance,silent,white,17,71,100,630.1821607,None,630.1821607,None,6,1.2503149,630.1821607,None,631.517945,None,632.0368209,None,632.0368209,None,r,0.1964633,632.0368209,None,,,NC14a,1,2020_Feb_06_1300,ProdSingRedo,3.2.4,59.98980173
,,,,18,0,18,0,,,,,,,,,,,,,,,,,,,,,,,,638.2763763,None,,,,,,,,,,,,,,,,,republic,new_c,white,18,173,260,632.8347047,None,632.8347047,None,1,2.9805071,632.8347047,None,635.8968581,None,636.4194051,None,636.4194051,None,n,1.7985285,636.4194051,None,,,NC14a,1,2020_Feb_06_1300,ProdSingRedo,3.2.4,59.98980173
,,,,19,0,19,0,,,,,,,,,,,,,,,,,,,,,,,,645.4672411,None,,,,,,,,,,,,,,,,,produce,new_c,white,19,154,239,638.8135041,None,638.8135041,None,3,5.4614073,638.8135041,None,644.3570547,None,644.8581642,None,644.8581642,None,f,0.5510393,644.8581642,None,,,NC14a,1,2020_Feb_06_1300,ProdSingRedo,3.2.4,59.98980173
,,,,20,0,20,0,,,,,,,,,,,,,,,,,,,,,,,,650.7053291,None,,,,,,,,,,,,,,,,,angle,aloud,white,20,42,7,646.0078515,None,646.0078515,None,3,3.1608957,646.0078515,None,649.2412823,None,649.7566445,None,649.7566445,None,f,0.8978605,649.7566445,None,,,NC14a,1,2020_Feb_06_1300,ProdSingRedo,3.2.4,59.98980173
,,,,21,0,21,0,,,,,,,,,,,,,,,,,,,,,,,,654.6022397,None,,,,,,,,,,,,,,,,,permit,new_c,white,21,166,218,651.2559871,None,651.2559871,None,6,2.4335043,651.2559871,None,653.7738965,None,654.2938767,None,654.2938767,None,r,0.2547338,654.2938767,None,,,NC14a,1,2020_Feb_06_1300,ProdSingRedo,3.2.4,59.98980173
,,,,22,0,22,0,,,,,,,,,,,,,,,,,,,,,,,,657.9477113,None,,,,,,,,,,,,,,,,,vision,silent,white,22,86,347,655.1396884,None,655.1396884,None,6,1.9960808,655.1396884,None,657.1997017,None,657.723976,None,657.723976,None,r,0.1766993,657.723976,None,,,NC14a,1,2020_Feb_06_1300,ProdSingRedo,3.2.4,59.98980173
,,,,23,0,23,0,,,,,,,,,,,,,,,,,,,,,,,,661.6323249,None,,,,,,,,,,,,,,,,,chief,silent,white,23,80,48,658.4872861,None,658.4872861,None,6,2.3829407,658.4872861,None,660.9482029,None,661.4736727,None,661.4736727,None,r,0.1091458,661.4736727,None,,,NC14a,1,2020_Feb_06_1300,ProdSingRedo,3.2.4,59.98980173
,,,,24,0,24,0,,,,,,,,,,,,,,,,,,,,,,,,664.8987416,None,,,,,,,,,,,,,,,,,guard,silent,white,24,76,145,662.1684839,None,662.1684839,None,6,1.9966237,662.1684839,None,664.2349917,None,664.754894,None,664.754894,None,r,0.0903546,664.754894,None,,,NC14a,1,2020_Feb_06_1300,ProdSingRedo,3.2.4,59.98980173
,,,,25,0,25,0,,,,,,,,,,,,,,,,,,,,,,,,671.2293075,None,,,,,,,,,,,,,,,,,reading,aloud,white,25,54,254,665.4356276,None,665.4356276,None,3,4.9477326,665.4356276,None,670.4662787,None,670.9876313,None,670.9876313,None,f,0.1904416,670.9876313,None,,,NC14a,1,2020_Feb_06_1300,ProdSingRedo,3.2.4,59.98980173
,,,,26,0,26,0,,,,,,,,,,,,,,,,,,,,,,,,673.8959651,None,,,,,,,,,,,,,,,,,trial,new_b,white,26,122,341,671.7665673,None,671.7665673,None,6,1.189047,671.7665673,None,673.031746,None,673.5478119,None,673.5478119,None,r,0.2965158,673.5478119,None,,,NC14a,1,2020_Feb_06_1300,ProdSingRedo,3.2.4,59.98980173
,,,,27,0,27,0,,,,,,,,,,,,,,,,,,,,,,,,679.3597947,None,,,,,,,,,,,,,,,,,volume,new_b,white,27,124,349,674.4456678,None,674.4456678,None,6,3.3044916,674.4456678,None,677.8188495,None,678.3514254,None,678.3514254,None,r,0.9492503,678.3514254,None,,,NC14a,1,2020_Feb_06_1300,ProdSingRedo,3.2.4,59.98980173
,,,,28,0,28,0,,,,,,,,,,,,,,,,,,,,,,,,682.3736803,None,,,,,,,,,,,,,,,,,symbol,new_b,white,28,141,321,679.883516,None,679.883516,None,6,1.6482634,679.883516,None,681.6134872,None,682.1322421,None,682.1322421,None,r,0.1796532,682.1322421,None,,,NC14a,1,2020_Feb_06_1300,ProdSingRedo,3.2.4,59.98980173
,,,,29,0,29,0,,,,,,,,,,,,,,,,,,,,,,,,688.2393652,None,,,,,,,,,,,,,,,,,smell,aloud,white,29,39,291,682.9110738,None,682.9110738,None,3,4.5732085,682.9110738,None,687.5580403,None,688.0790783,None,688.0790783,None,f,0.1104626,688.0790783,None,,,NC14a,1,2020_Feb_06_1300,ProdSingRedo,3.2.4,59.98980173
,,,,30,0,30,0,,,,,,,,,,,,,,,,,,,,,,,,691.0037934,None,,,,,,,,,,,,,,,,,youth,sing,white,30,18,359,688.7752808,None,688.7752808,None,6,1.3079042,688.7752808,None,690.1585745,None,690.6750525,None,690.6750525,None,r,0.2708958,690.6750525,None,,,NC14a,1,2020_Feb_06_1300,ProdSingRedo,3.2.4,59.98980173
,,,,31,0,31,0,,,,,,,,,,,,,,,,,,,,,,,,694.0540026,None,,,,,,,,,,,,,,,,,recall,sing,white,31,12,255,691.5412386,None,691.5412386,None,6,1.5710352,691.5412386,None,693.1923691,None,693.711272,None,693.711272,None,r,0.2862435,693.711272,None,,,NC14a,1,2020_Feb_06_1300,ProdSingRedo,3.2.4,59.98980173
,,,,32,0,32,0,,,,,,,,,,,,,,,,,,,,,,,,697.5536114,None,,,,,,,,,,,,,,,,,graduate,new_c,white,32,170,141,694.5919227,None,694.5919227,None,1,2.0744534,694.5919227,None,696.7428581,None,697.2618501,None,697.2618501,None,n,0.2282428,697.2618501,None,,,NC14a,1,2020_Feb_06_1300,ProdSingRedo,3.2.4,59.98980173
,,,,33,0,33,0,,,,,,,,,,,,,,,,,,,,,,,,701.0832006,None,,,,,,,,,,,,,,,,,staff,new_c,white,33,174,301,698.1042095,None,698.1042095,None,3,2.2477929,698.1042095,None,700.4215221,None,700.9407565,None,700.9407565,None,f,0.0790211,700.9407565,None,,,NC14a,1,2020_Feb_06_1300,ProdSingRedo,3.2.4,59.98980173
,,,,34,0,34,0,,,,,,,,,,,,,,,,,,,,,,,,706.5980804,None,,,,,,,,,,,,,,,,,point,sing,white,34,10,226,701.6201881,None,701.6201881,None,3,3.9650614,701.6201881,None,705.6682153,None,706.1890839,None,706.1890839,None,f,0.3501438,706.1890839,None,,,NC14a,1,2020_Feb_06_1300,ProdSingRedo,3.2.4,59.98980173
,,,,35,0,35,0,,,,,,,,,,,,,,,,,,,,,,,,710.2316659,None,,,,,,,,,,,,,,,,,relation,new_c,white,35,179,257,707.1367828,None,707.1367828,None,1,1.94987,707.1367828,None,709.1687852,None,709.6914428,None,709.6914428,None,n,0.4846682,709.6914428,None,,,NC14a,1,2020_Feb_06_1300,ProdSingRedo,3.2.4,59.98980173
,,,,36,0,36,0,,,,,,,,,,,,,,,,,,,,,,,,717.8263666,None,,,,,,,,,,,,,,,,,opening,sing,white,36,17,205,710.7684225,None,710.7684225,None,6,4.4382074,710.7684225,None,715.2834847,None,715.8047181,None,715.8047181,None,r,1.9660584,715.8047181,None,,,NC14a,1,2020_Feb_06_1300,ProdSingRedo,3.2.4,59.98980173
,,,,37,0,37,0,,,,,,,,,,,,,,,,,,,,,,,,722.2602611,None,,,,,,,,,,,,,,,,,principal,new_a,white,37,100,236,718.3671233,None,718.3671233,None,6,3.1891664,718.3671233,None,721.6342126,None,722.1534805,None,722.1534805,None,r,0.0508769,722.1534805,None,,,NC14a,1,2020_Feb_06_1300,ProdSingRedo,3.2.4,59.98980173
,,,,38,0,38,0,,,,,,,,,,,,,,,,,,,,,,,,727.6260571,None,,,,,,,,,,,,,,,,,signal,new_c,white,38,164,287,722.7960504,None,722.7960504,None,1,3.0256441,722.7960504,None,725.895862,None,726.4165335,None,726.4165335,None,n,1.1547774,726.4165335,None,,,NC14a,1,2020_Feb_06_1300,ProdSingRedo,3.2.4,59.98980173
,,,,39,0,39,0,,,,,,,,,,,,,,,,,,,,,,,,734.1886715,None,,,,,,,,,,,,,,,,,pressure,new_c,white,39,160,232,728.1779741,None,728.1779741,None,3,5.3055924,728.1779741,None,733.55172,None,734.0819081,None,734.0819081,None,f,0.0521395,734.0819081,None,,,NC14a,1,2020_Feb_06_1300,ProdSingRedo,3.2.4,59.98980173
,,,,40,0,40,0,,,,,,,,,,,,,,,,,,,,,,,,737.6402736,None,,,,,,,,,,,,,,,,,theme,new_b,white,40,145,326,734.7241166,None,734.7241166,None,6,2.1297563,734.7241166,None,736.9135198,None,737.4438492,None,737.4438492,None,r,0.1368884,737.4438492,None,,,NC14a,1,2020_Feb_06_1300,ProdSingRedo,3.2.4,59.98980173
,,,,41,0,41,0,,,,,,,,,,,,,,,,,,,,,,,,746.8655739,None,,,,,,,,,,,,,,,,,reach,new_b,white,41,142,253,738.1879336,None,738.1879336,None,2,7.9826109,738.1879336,None,746.2535418,None,746.7754881,None,746.7754881,None,f,0.0271599,746.7754881,None,,,NC14a,1,2020_Feb_06_1300,ProdSingRedo,3.2.4,59.98980173
,,,,42,0,42,0,,,,,,,,,,,,,,,,,,,,,,,,749.6304032,None,,,,,,,,,,,,,,,,,quiet,sing,white,42,16,249,747.4025111,None,747.4025111,None,6,1.533332,747.4025111,None,749.0182829,None,749.5457512,None,749.5457512,None,r,0.0229317,749.5457512,None,,,NC14a,1,2020_Feb_06_1300,ProdSingRedo,3.2.4,59.98980173
,,,,43,0,43,0,,,,,,,,,,,,,,,,,,,,,,,,753.3147338,None,,,,,,,,,,,,,,,,,raise,new_a,white,43,95,250,750.1682158,None,750.1682158,None,6,1.8220487,750.1682158,None,752.0699684,None,752.5893236,None,752.5893236,None,r,0.6699675,752.5893236,None,,,NC14a,1,2020_Feb_06_1300,ProdSingRedo,3.2.4,59.98980173
,,,,44,0,44,0,,,,,,,,,,,,,,,,,,,,,,,,756.3463325,None,,,,,,,,,,,,,,,,,school,silent,white,44,83,274,753.8518787,None,753.8518787,None,1,1.8068069,753.8518787,None,755.7227078,None,756.2531692,None,756.2531692,None,n,0.0397462,756.2531692,None,,,NC14a,1,2020_Feb_06_1300,ProdSingRedo,3.2.4,59.98980173
,,,,45,0,45,0,,,,,,,,,,,,,,,,,,,,,,,,759.161129,None,,,,,,,,,,,,,,,,,congress,new_a,white,45,103,67,756.883803,None,756.883803,None,6,1.5692642,756.883803,None,758.5172105,None,759.05012,None,759.05012,None,r,0.0565787,759.05012,None,,,NC14a,1,2020_Feb_06_1300,ProdSingRedo,3.2.4,59.98980173
,,,,46,0,46,0,,,,,,,,,,,,,,,,,,,,,,,,762.7778349,None,,,,,,,,,,,,,,,,,bright,aloud,white,46,56,29,759.6985111,None,759.6985111,None,6,1.8055965,759.6985111,None,761.5724356,None,762.1033072,None,762.1033072,None,r,0.6248865,762.1033072,None,,,NC14a,1,2020_Feb_06_1300,ProdSingRedo,3.2.4,59.98980173
,,,,47,0,47,0,,,,,,,,,,,,,,,,,,,,,,,,765.6107383,None,,,,,,,,,,,,,,,,,close,new_c,white,47,176,53,763.311754,None,763.311754,None,1,1.6002243,763.311754,None,764.9958065,None,765.5192621,None,765.5192621,None,n,0.0353544,765.5192621,None,,,NC14a,1,2020_Feb_06_1300,ProdSingRedo,3.2.4,59.98980173
,,,,48,0,48,0,,,,,,,,,,,,,,,,,,,,,,,,768.0061906,None,,,,,,,,,,,,,,,,,minute,new_a,white,48,112,192,766.1620907,None,766.1620907,None,1,1.1741268,766.1620907,None,767.4133742,None,767.9330242,None,767.9330242,None,n,0.0105387,767.9330242,None,,,NC14a,1,2020_Feb_06_1300,ProdSingRedo,3.2.4,59.98980173
,,,,49,0,49,0,,,,,,,,,,,,,,,,,,,,,,,,771.0749256,None,,,,,,,,,,,,,,,,,death,sing,white,49,4,86,768.544076,None,768.544076,None,6,1.2019579,768.544076,None,769.8283668,None,770.3512306,None,770.3512306,None,r,0.6691316,770.3512306,None,,,NC14a,1,2020_Feb_06_1300,ProdSingRedo,3.2.4,59.98980173
,,,,50,0,50,0,,,,,,,,,,,,,,,,,,,,,,,,773.7127382,None,,,,,,,,,,,,,,,,,beginning,sing,white,50,22,19,771.6122342,None,771.6122342,None,6,1.2501845,771.6122342,None,772.9063163,None,773.4214815,None,773.4214815,None,r,0.2647733,773.4214815,None,,,NC14a,1,2020_Feb_06_1300,ProdSingRedo,3.2.4,59.98980173
,,,,51,0,51,0,,,,,,,,,,,,,,,,,,,,,,,,776.8633267,None,,,,,,,,,,,,,,,,,profession,sing,white,51,23,241,774.2322036,None,774.2322036,None,6,1.2059732,774.2322036,None,775.4761082,None,775.9915497,None,775.9915497,None,r,0.8444489,775.9915497,None,,,NC14a,1,2020_Feb_06_1300,ProdSingRedo,3.2.4,59.98980173
,,,,52,0,52,0,,,,,,,,,,,,,,,,,,,,,,,,783.2853081,None,,,,,,,,,,,,,,,,,curve,new_a,white,52,104,82,777.3808827,None,777.3808827,None,1,4.7405607,777.3808827,None,782.1810878,None,782.7118468,None,782.7118468,None,n,0.5206752,782.7118468,None,,,NC14a,1,2020_Feb_06_1300,ProdSingRedo,3.2.4,59.98980173
,,,,53,0,53,0,,,,,,,,,,,,,,,,,,,,,,,,785.8657373,None,,,,,,,,,,,,,,,,,stand,sing,white,53,0,302,783.8219814,None,783.8219814,None,1,1.280964,783.8219814,None,785.1725475,None,785.6882019,None,785.6882019,None,n,0.1174546,785.6882019,None,,,NC14a,1,2020_Feb_06_1300,ProdSingRedo,3.2.4,59.98980173
,,,,54,0,54,0,,,,,,,,,,,,,,,,,,,,,,,,788.2520299,None,,,,,,,,,,,,,,,,,testimony,aloud,white,54,41,325,786.4147887,None,786.4147887,None,6,1.1186412,786.4147887,None,787.6081687,None,788.1273577,None,788.1273577,None,r,0.0741269,788.1273577,None,,,NC14a,1,2020_Feb_06_1300,ProdSingRedo,3.2.4,59.98980173
,,,,55,0,55,0,,,,,,,,,,,,,,,,,,,,,,,,790.6314066,None,,,,,,,,,,,,,,,,,leader,new_c,white,55,172,168,788.8031655,None,788.8031655,None,6,1.0429075,788.8031655,None,789.9180732,None,790.4404526,None,790.4404526,None,r,0.1285472,790.4404526,None,,,NC14a,1,2020_Feb_06_1300,ProdSingRedo,3.2.4,59.98980173
,,,,56,0,56,0,,,,,,,,,,,,,,,,,,,,,,,,792.8564459,None,,,,,,,,,,,,,,,,,election,sing,white,56,5,109,791.171335,None,791.171335,None,6,1.0262225,791.171335,None,792.2720957,None,792.7917348,None,792.7917348,None,r,0.0083075,792.7917348,None,,,NC14a,1,2020_Feb_06_1300,ProdSingRedo,3.2.4,59.98980173
,,,,57,0,57,0,,,,,,,,,,,,,,,,,,,,,,,,796.8623529,None,,,,,,,,,,,,,,,,,drink,sing,white,57,7,105,793.4006399,None,793.4006399,None,6,2.2239401,793.4006399,None,795.7004534,None,796.22103,None,796.22103,None,r,0.579075,796.22103,None,,,NC14a,1,2020_Feb_06_1300,ProdSingRedo,3.2.4,59.98980173
,,,,58,0,58,0,,,,,,,,,,,,,,,,,,,,,,,,799.4212055,None,,,,,,,,,,,,,,,,,season,aloud,white,58,51,277,797.4020556,None,797.4020556,None,6,1.1600545,797.4020556,None,798.6229086,None,799.1551023,None,799.1551023,None,r,0.2162496,799.1551023,None,,,NC14a,1,2020_Feb_06_1300,ProdSingRedo,3.2.4,59.98980173
,,,,59,0,59,0,,,,,,,,,,,,,,,,,,,,,,,,802.1621759,None,,,,,,,,,,,,,,,,,region,new_b,white,59,121,256,799.9657674,None,799.9657674,None,6,1.3697339,799.9657674,None,801.4091968,None,801.9366988,None,801.9366988,None,r,0.1756508,801.9366988,None,,,NC14a,1,2020_Feb_06_1300,ProdSingRedo,3.2.4,59.98980173
,,,,60,0,60,0,,,,,,,,,,,,,,,,,,,,,,,,804.7604355,None,,,,,,,,,,,,,,,,,business,silent,white,60,61,38,802.6977977,None,802.6977977,None,6,1.2979912,802.6977977,None,804.069751,None,804.5875573,None,804.5875573,None,r,0.1184975,804.5875573,None,,,NC14a,1,2020_Feb_06_1300,ProdSingRedo,3.2.4,59.98980173
,,,,61,0,61,0,,,,,,,,,,,,,,,,,,,,,,,,807.8117565,None,,,,,,,,,,,,,,,,,second,new_a,white,61,92,278,805.2989815,None,805.2989815,None,3,1.8047334,805.2989815,None,807.1806467,None,807.7021487,None,807.7021487,None,f,0.0542602,807.7021487,None,,,NC14a,1,2020_Feb_06_1300,ProdSingRedo,3.2.4,59.98980173
,,,,62,0,62,0,,,,,,,,,,,,,,,,,,,,,,,,813.2142258,None,,,,,,,,,,,,,,,,,oxygen,silent,white,62,62,209,808.3628909,None,808.3628909,None,2,4.1861127,808.3628909,None,812.6284581,None,813.1491124,None,813.1491124,None,f,0.0083142,813.1491124,None,,,NC14a,1,2020_Feb_06_1300,ProdSingRedo,3.2.4,59.98980173
,,,,63,0,63,0,,,,,,,,,,,,,,,,,,,,,,,,815.4479651,None,,,,,,,,,,,,,,,,,spoke,silent,white,63,81,300,813.757778,None,813.757778,None,2,1.0348263,813.757778,None,814.8618952,None,815.3819245,None,815.3819245,None,f,0.0161635,815.3819245,None,,,NC14a,1,2020_Feb_06_1300,ProdSingRedo,3.2.4,59.98980173
,,,,64,0,64,0,,,,,,,,,,,,,,,,,,,,,,,,820.6038516,None,,,,,,,,,,,,,,,,,waste,new_c,white,64,175,350,815.9878053,None,815.9878053,None,6,3.340429,815.9878053,None,819.4096821,None,819.9320384,None,819.9320384,None,r,0.6126736,819.9320384,None,,,NC14a,1,2020_Feb_06_1300,ProdSingRedo,3.2.4,59.98980173
,,,,65,0,65,0,,,,,,,,,,,,,,,,,,,,,,,,822.9865567,None,,,,,,,,,,,,,,,,,portion,new_c,white,65,156,228,821.1413908,None,821.1413908,None,6,1.1613051,821.1413908,None,822.3794732,None,822.896393,None,822.896393,None,r,0.0242013,822.896393,None,,,NC14a,1,2020_Feb_06_1300,ProdSingRedo,3.2.4,59.98980173
,,,,66,0,66,0,,,,,,,,,,,,,,,,,,,,,,,,825.8361536,None,,,,,,,,,,,,,,,,,science,new_a,white,66,115,275,823.5250647,None,823.5250647,None,6,1.1658133,823.5250647,None,824.7735922,None,825.2977368,None,825.2977368,None,r,0.4799056,825.2977368,None,,,NC14a,1,2020_Feb_06_1300,ProdSingRedo,3.2.4,59.98980173
,,,,67,0,67,0,,,,,,,,,,,,,,,,,,,,,,,,829.2522748,None,,,,,,,,,,,,,,,,,engineer,new_c,white,67,155,114,826.3758037,None,826.3758037,None,1,1.7122966,826.3758037,None,828.167972,None,828.6986155,None,828.6986155,None,n,0.5003114,828.6986155,None,,,NC14a,1,2020_Feb_06_1300,ProdSingRedo,3.2.4,59.98980173
,,,,68,0,68,0,,,,,,,,,,,,,,,,,,,,,,,,833.1659835,None,,,,,,,,,,,,,,,,,taste,aloud,white,68,52,322,829.787744,None,829.787744,None,6,2.1530637,829.787744,None,832.0110392,None,832.5431131,None,832.5431131,None,r,0.5652892,832.5431131,None,,,NC14a,1,2020_Feb_06_1300,ProdSingRedo,3.2.4,59.98980173
,,,,69,0,69,0,,,,,,,,,,,,,,,,,,,,,,,,835.9816817,None,,,,,,,,,,,,,,,,,plane,silent,white,69,66,223,833.7029372,None,833.7029372,None,6,1.2068844,833.7029372,None,834.9796972,None,835.5072204,None,835.5072204,None,r,0.4124998,835.5072204,None,,,NC14a,1,2020_Feb_06_1300,ProdSingRedo,3.2.4,59.98980173
,,,,70,0,70,0,,,,,,,,,,,,,,,,,,,,,,,,838.7485489,None,,,,,,,,,,,,,,,,,front,new_c,white,70,152,134,836.5192401,None,836.5192401,None,6,1.4062188,836.5192401,None,838.0037634,None,838.5179598,None,838.5179598,None,r,0.1734949,838.5179598,None,,,NC14a,1,2020_Feb_06_1300,ProdSingRedo,3.2.4,59.98980173
,,,,71,0,71,0,,,,,,,,,,,,,,,,,,,,,,,,841.2312735,None,,,,,,,,,,,,,,,,,light,aloud,white,71,46,171,839.2849819,None,839.2849819,None,6,1.1690429,839.2849819,None,840.5325323,None,841.0550749,None,841.0550749,None,r,0.1185972,841.0550749,None,,,NC14a,1,2020_Feb_06_1300,ProdSingRedo,3.2.4,59.98980173
,,,,72,0,72,0,,,,,,,,,,,,,,,,,,,,,,,,843.7290423,None,,,,,,,,,,,,,,,,,goose,new_a,white,72,93,138,841.7690042,None,841.7690042,None,1,1.2321933,841.7690042,None,843.079818,None,843.6051666,None,843.6051666,None,n,0.0630275,843.6051666,None,,,NC14a,1,2020_Feb_06_1300,ProdSingRedo,3.2.4,59.98980173
,,,,73,0,73,0,,,,,,,,,,,,,,,,,,,,,,,,846.7960815,None,,,,,,,,,,,,,,,,,author,new_b,white,73,135,15,844.2655647,None,844.2655647,None,6,1.2718543,844.2655647,None,845.6039404,None,846.1365233,None,846.1365233,None,r,0.6040365,846.1365233,None,,,NC14a,1,2020_Feb_06_1300,ProdSingRedo,3.2.4,59.98980173
,,,,74,0,74,0,,,,,,,,,,,,,,,,,,,,,,,,849.8281286,None,,,,,,,,,,,,,,,,,cover,new_c,white,74,161,77,847.3320019,None,847.3320019,None,6,1.731309,847.3320019,None,849.1322946,None,849.6469768,None,849.6469768,None,r,0.1231156,849.6469768,None,,,NC14a,1,2020_Feb_06_1300,ProdSingRedo,3.2.4,59.98980173
,,,,75,0,75,0,,,,,,,,,,,,,,,,,,,,,,,,852.7266155,None,,,,,,,,,,,,,,,,,swift,new_c,white,75,157,320,850.3632196,None,850.3632196,None,1,1.6680702,850.3632196,None,852.1131461,None,852.6350219,None,852.6350219,None,n,0.0248771,852.6350219,None,,,NC14a,1,2020_Feb_06_1300,ProdSingRedo,3.2.4,59.98980173
,,,,76,0,76,0,,,,,,,,,,,,,,,,,,,,,,,,856.2079883,None,,,,,,,,,,,,,,,,,conference,new_a,white,76,102,66,853.267343,None,853.267343,None,6,1.5084001,853.267343,None,854.8510962,None,855.3716323,None,855.3716323,None,r,0.7754658,855.3716323,None,,,NC14a,1,2020_Feb_06_1300,ProdSingRedo,3.2.4,59.98980173
,,,,77,0,77,0,,,,,,,,,,,,,,,,,,,,,,,,858.3730633,None,,,,,,,,,,,,,,,,,atmosphere,aloud,white,77,47,12,856.7486266,None,856.7486266,None,6,0.9395415,856.7486266,None,857.7665474,None,858.2844883,None,858.2844883,None,r,0.030509,858.2844883,None,,,NC14a,1,2020_Feb_06_1300,ProdSingRedo,3.2.4,59.98980173
,,,,78,0,78,0,,,,,,,,,,,,,,,,,,,,,,,,862.9230909,None,,,,,,,,,,,,,,,,,style,new_b,white,78,123,311,858.9102492,None,858.9102492,None,2,1.9310285,858.9102492,None,860.9099351,None,861.4317658,None,861.4317658,None,f,1.4386853,861.4317658,None,,,NC14a,1,2020_Feb_06_1300,ProdSingRedo,3.2.4,59.98980173
,,,,79,0,79,0,,,,,,,,,,,,,,,,,,,,,,,,866.7532165,None,,,,,,,,,,,,,,,,,nature,silent,white,79,63,200,863.4598705,None,863.4598705,None,1,2.5622756,863.4598705,None,866.0928972,None,866.6106779,None,866.6106779,None,n,0.0873886,866.6106779,None,,,NC14a,1,2020_Feb_06_1300,ProdSingRedo,3.2.4,59.98980173
,,,,80,0,80,0,,,,,,,,,,,,,,,,,,,,,,,,869.8023024,None,,,,,,,,,,,,,,,,,little,new_c,white,80,162,174,867.2975188,None,867.2975188,None,1,1.6920323,867.2975188,None,869.0619104,None,869.5939141,None,869.5939141,None,n,0.1592951,869.5939141,None,,,NC14a,1,2020_Feb_06_1300,ProdSingRedo,3.2.4,59.98980173
,,,,81,0,81,0,,,,,,,,,,,,,,,,,,,,,,,,875.4182336,None,,,,,,,,,,,,,,,,,orchestra,new_a,white,81,109,206,870.342315,None,870.342315,None,2,3.835154,870.342315,None,874.258494,None,874.780695,None,874.780695,None,f,0.579716,874.780695,None,,,NC14a,1,2020_Feb_06_1300,ProdSingRedo,3.2.4,59.98980173
,,,,82,0,82,0,,,,,,,,,,,,,,,,,,,,,,,,879.3333519,None,,,,,,,,,,,,,,,,,scene,new_a,white,82,111,273,875.9533545,None,875.9533545,None,2,2.6586234,875.9533545,None,878.6874108,None,879.2060859,None,879.2060859,None,f,0.0701116,879.2060859,None,,,NC14a,1,2020_Feb_06_1300,ProdSingRedo,3.2.4,59.98980173
,,,,83,0,83,0,,,,,,,,,,,,,,,,,,,,,,,,882.3780028,None,,,,,,,,,,,,,,,,,concern,aloud,white,83,50,65,879.8711261,None,879.8711261,None,6,1.8328482,879.8711261,None,881.7862386,None,882.3078293,None,882.3078293,None,f,0.0126429,882.3078293,None,,,NC14a,1,2020_Feb_06_1300,ProdSingRedo,3.2.4,59.98980173
,,,,84,0,84,0,,,,,,,,,,,,,,,,,,,,,,,,888.7780854,None,,,,,,,,,,,,,,,,,force,aloud,white,84,40,131,882.9216598,None,882.9216598,None,2,4.5681238,882.9216598,None,887.5644891,None,888.0880391,None,888.0880391,None,f,0.6316787,888.0880391,None,,,NC14a,1,2020_Feb_06_1300,ProdSingRedo,3.2.4,59.98980173
,,,,85,0,85,0,,,,,,,,,,,,,,,,,,,,,,,,895.3593131,None,,,,,,,,,,,,,,,,,court,new_b,white,85,128,75,889.3150193,None,889.3150193,None,6,2.5526921,889.3150193,None,891.9476227,None,892.4687165,None,892.4687165,None,r,2.8320173,892.4687165,None,,,NC14a,1,2020_Feb_06_1300,ProdSingRedo,3.2.4,59.98980173
,,,,86,0,86,0,,,,,,,,,,,,,,,,,,,,,,,,899.5740997,None,,,,,,,,,,,,,,,,,prime,sing,white,86,20,235,895.898067,None,895.898067,None,2,2.8419763,895.898067,None,898.8121909,None,899.3280093,None,899.3280093,None,f,0.1902992,899.3280093,None,,,NC14a,1,2020_Feb_06_1300,ProdSingRedo,3.2.4,59.98980173
,,,,87,0,87,0,,,,,,,,,,,,,,,,,,,,,,,,905.0737371,None,,,,,,,,,,,,,,,,,afternoon,aloud,white,87,31,3,900.1158918,None,900.1158918,None,2,3.5034197,900.1158918,None,903.6839314,None,904.2179661,None,904.2179661,None,f,0.7998787,904.2179661,None,,,NC14a,1,2020_Feb_06_1300,ProdSingRedo,3.2.4,59.98980173
,,,,88,0,88,0,,,,,,,,,,,,,,,,,,,,,,,,909.1367175,None,,,,,,,,,,,,,,,,,incident,sing,white,88,3,158,905.6122489,None,905.6122489,None,6,1.395992,905.6122489,None,907.0940096,None,907.6167244,None,907.6167244,None,r,1.4734611,907.6167244,None,,,NC14a,1,2020_Feb_06_1300,ProdSingRedo,3.2.4,59.98980173
,,,,89,0,89,0,,,,,,,,,,,,,,,,,,,,,,,,911.6850812,None,,,,,,,,,,,,,,,,,accident,new_a,white,89,117,0,909.6760411,None,909.6760411,None,6,1.1377444,909.6760411,None,910.8960263,None,911.4125831,None,911.4125831,None,r,0.2187751,911.4125831,None,,,NC14a,1,2020_Feb_06_1300,ProdSingRedo,3.2.4,59.98980173
,,,,90,0,90,0,,,,,,,,,,,,,,,,,,,,,,,,919.6510404,None,,,,,,,,,,,,,,,,,grade,aloud,white,90,38,140,912.2231808,None,912.2231808,None,3,6.6083379,912.2231808,None,918.8936287,None,919.4241312,None,919.4241312,None,f,0.1741383,919.4241312,None,,,NC14a,1,2020_Feb_06_1300,ProdSingRedo,3.2.4,59.98980173
,,,,91,0,91,0,,,,,,,,,,,,,,,,,,,,,,,,922.5668059,None,,,,,,,,,,,,,,,,,dozen,new_c,white,91,163,102,920.1976287,None,920.1976287,None,1,1.4786197,920.1976287,None,921.7429018,None,922.2751081,None,922.2751081,None,n,0.2307726,922.2751081,None,,,NC14a,1,2020_Feb_06_1300,ProdSingRedo,3.2.4,59.98980173
,,,,92,0,92,0,,,,,,,,,,,,,,,,,,,,,,,,926.2300529,None,,,,,,,,,,,,,,,,,instrument,new_b,white,92,148,163,923.105476,None,923.105476,None,6,1.7403878,923.105476,None,924.9225605,None,925.4427704,None,925.4427704,None,r,0.7283152,925.4427704,None,,,NC14a,1,2020_Feb_06_1300,ProdSingRedo,3.2.4,59.98980173
,,,,93,0,93,0,,,,,,,,,,,,,,,,,,,,,,,,928.8797088,None,,,,,,,,,,,,,,,,,payment,aloud,white,93,37,215,926.7682332,None,926.7682332,None,6,1.2433784,926.7682332,None,928.0866505,None,928.6070424,None,928.6070424,None,r,0.2185089,928.6070424,None,,,NC14a,1,2020_Feb_06_1300,ProdSingRedo,3.2.4,59.98980173
,,,,94,0,94,0,,,,,,,,,,,,,,,,,,,,,,,,931.9261022,None,,,,,,,,,,,,,,,,,ground,new_a,white,94,107,142,929.4165955,None,929.4165955,None,2,1.8477859,929.4165955,None,931.3169992,None,931.8537012,None,931.8537012,None,f,0.0233106,931.8537012,None,,,NC14a,1,2020_Feb_06_1300,ProdSingRedo,3.2.4,59.98980173
,,,,95,0,95,0,,,,,,,,,,,,,,,,,,,,,,,,935.5289516,None,,,,,,,,,,,,,,,,,charter,sing,white,95,19,47,932.466676,None,932.466676,None,6,2.3048903,932.466676,None,934.8493628,None,935.3690236,None,935.3690236,None,r,0.1090168,935.3690236,None,,,NC14a,1,2020_Feb_06_1300,ProdSingRedo,3.2.4,59.98980173
,,,,96,0,96,0,,,,,,,,,,,,,,,,,,,,,,,,938.5070063,None,,,,,,,,,,,,,,,,,guest,new_c,white,96,171,146,936.0658518,None,936.0658518,None,2,1.2818332,936.0658518,None,937.4297888,None,937.9513868,None,937.9513868,None,f,0.5036928,937.9513868,None,,,NC14a,1,2020_Feb_06_1300,ProdSingRedo,3.2.4,59.98980173
,,,,97,0,97,0,,,,,,,,,,,,,,,,,,,,,,,,942.3218768,None,,,,,,,,,,,,,,,,,production,new_b,white,97,140,240,939.0503672,None,939.0503672,None,6,2.5974768,939.0503672,None,941.7210769,None,942.2528299,None,942.2528299,None,r,0.0122836,942.2528299,None,,,NC14a,1,2020_Feb_06_1300,ProdSingRedo,3.2.4,59.98980173
,,,,98,0,98,0,,,,,,,,,,,,,,,,,,,,,,,,945.1889993,None,,,,,,,,,,,,,,,,,disease,silent,white,98,79,97,942.8645022,None,942.8645022,None,6,1.2103668,942.8645022,None,944.1457196,None,944.6708436,None,944.6708436,None,r,0.4572703,944.6708436,None,,,NC14a,1,2020_Feb_06_1300,ProdSingRedo,3.2.4,59.98980173
,,,,99,0,99,0,,,,,,,,,,,,,,,,,,,,,,,,947.5903593,None,,,,,,,,,,,,,,,,,device,sing,white,99,2,93,945.7287029,None,945.7287029,None,6,0.9408768,945.7287029,None,946.7327259,None,947.2654927,None,947.2654927,None,r,0.2676377,947.2654927,None,,,NC14a,1,2020_Feb_06_1300,ProdSingRedo,3.2.4,59.98980173
,,,,100,0,100,0,,,,,,,,,,,,,,,,,,,,,,,,951.8723926,None,,,,,,,,,,,,,,,,,motion,new_c,white,100,151,194,948.1275321,None,948.1275321,None,2,1.2840857,948.1275321,None,949.4702872,None,949.9968718,None,949.9968718,None,f,1.8182398,949.9968718,None,,,NC14a,1,2020_Feb_06_1300,ProdSingRedo,3.2.4,59.98980173
,,,,101,0,101,0,,,,,,,,,,,,,,,,,,,,,,,,956.5423863,None,,,,,,,,,,,,,,,,,military,new_a,white,101,116,190,952.4003995,None,952.4003995,None,2,2.856531,952.4003995,None,955.3025828,None,955.8299766,None,955.8299766,None,f,0.6863011,955.8299766,None,,,NC14a,1,2020_Feb_06_1300,ProdSingRedo,3.2.4,59.98980173
,,,,102,0,102,0,,,,,,,,,,,,,,,,,,,,,,,,959.0154566,None,,,,,,,,,,,,,,,,,weather,aloud,white,102,49,352,957.0908484,None,957.0908484,None,6,1.2588713,957.0908484,None,958.4245417,None,958.9445167,None,958.9445167,None,r,0.0146808,958.9445167,None,,,NC14a,1,2020_Feb_06_1300,ProdSingRedo,3.2.4,59.98980173
,,,,103,0,103,0,,,,,,,,,,,,,,,,,,,,,,,,961.5503422,None,,,,,,,,,,,,,,,,,master,new_a,white,103,106,180,959.5555875,None,959.5555875,None,6,1.2002979,959.5555875,None,960.8380812,None,961.3607141,None,961.3607141,None,r,0.1420134,961.3607141,None,,,NC14a,1,2020_Feb_06_1300,ProdSingRedo,3.2.4,59.98980173
,,,,104,0,104,0,,,,,,,,,,,,,,,,,,,,,,,,966.1319077,None,,,,,,,,,,,,,,,,,watch,new_b,white,104,131,351,962.0874987,None,962.0874987,None,6,2.9627539,962.0874987,None,965.1209142,None,965.6420888,None,965.6420888,None,r,0.4353591,965.6420888,None,,,NC14a,1,2020_Feb_06_1300,ProdSingRedo,3.2.4,59.98980173
,,,,105,0,105,0,,,,,,,,,,,,,,,,,,,,,,,,968.6142348,None,,,,,,,,,,,,,,,,,thing,silent,white,105,70,328,966.6687754,None,966.6687754,None,6,0.9811501,966.6687754,None,967.7187967,None,968.2387942,None,968.2387942,None,r,0.3284524,968.2387942,None,,,NC14a,1,2020_Feb_06_1300,ProdSingRedo,3.2.4,59.98980173
,,,,106,0,106,0,,,,,,,,,,,,,,,,,,,,,,,,970.8471552,None,,,,,,,,,,,,,,,,,guide,sing,white,106,11,147,969.1514257,None,969.1514257,None,6,0.7313818,969.1514257,None,969.950734,None,970.4723223,None,970.4723223,None,r,0.3154538,970.4723223,None,,,NC14a,1,2020_Feb_06_1300,ProdSingRedo,3.2.4,59.98980173
,,,,107,0,107,0,,,,,,,,,,,,,,,,,,,,,,,,973.9938579,None,,,,,,,,,,,,,,,,,shear,new_a,white,107,119,283,971.3835961,None,971.3835961,None,2,1.4001555,971.3835961,None,972.8597367,None,973.386872,None,973.386872,None,f,0.5500646,973.386872,None,,,NC14a,1,2020_Feb_06_1300,ProdSingRedo,3.2.4,59.98980173
,,,,108,0,108,0,,,,,,,,,,,,,,,,,,,,,,,,980.193363,None,,,,,,,,,,,,,,,,,fight,new_a,white,108,99,127,974.5336505,None,974.5336505,None,1,2.8126257,974.5336505,None,977.4154833,None,977.9360615,None,977.9360615,None,n,2.2061564,977.9360615,None,,,NC14a,1,2020_Feb_06_1300,ProdSingRedo,3.2.4,59.98980173
,,,,109,0,109,0,,,,,,,,,,,,,,,,,,,,,,,,982.858871,None,,,,,,,,,,,,,,,,,rough,new_c,white,109,178,266,980.7040736,None,980.7040736,None,1,1.0406294,980.7040736,None,981.8007108,None,982.3360413,None,982.3360413,None,n,0.4681242,982.3360413,None,,,NC14a,1,2020_Feb_06_1300,ProdSingRedo,3.2.4,59.98980173
,,,,110,0,110,0,,,,,,,,,,,,,,,,,,,,,,,,985.8911122,None,,,,,,,,,,,,,,,,,escape,new_c,white,110,150,118,983.3961713,None,983.3961713,None,6,1.6987618,983.3961713,None,985.160276,None,985.6831723,None,985.6831723,None,r,0.1561715,985.6831723,None,,,NC14a,1,2020_Feb_06_1300,ProdSingRedo,3.2.4,59.98980173
,,,,111,0,111,0,,,,,,,,,,,,,,,,,,,,,,,,988.6561228,None,,,,,,,,,,,,,,,,,session,new_c,white,111,169,281,986.4302267,None,986.4302267,None,6,1.4985306,986.4302267,None,988.0090868,None,988.5331077,None,988.5331077,None,r,0.0626191,988.5331077,None,,,NC14a,1,2020_Feb_06_1300,ProdSingRedo,3.2.4,59.98980173
,,,,112,0,112,0,,,,,,,,,,,,,,,,,,,,,,,,991.4383421,None,,,,,,,,,,,,,,,,,narrow,new_c,white,112,158,197,989.1949021,None,989.1949021,None,1,1.5175435,989.1949021,None,990.7930367,None,991.3154238,None,991.3154238,None,n,0.0636102,991.3154238,None,,,NC14a,1,2020_Feb_06_1300,ProdSingRedo,3.2.4,59.98980173
,,,,113,0,113,0,,,,,,,,,,,,,,,,,,,,,,,,993.7048824,None,,,,,,,,,,,,,,,,,stranger,new_a,white,113,108,309,991.9780211,None,991.9780211,None,1,1.016167,991.9780211,None,993.0780163,None,993.5975276,None,993.5975276,None,n,0.0570219,993.5975276,None,,,NC14a,1,2020_Feb_06_1300,ProdSingRedo,3.2.4,59.98980173
,,,,114,0,114,0,,,,,,,,,,,,,,,,,,,,,,,,995.7524659,None,,,,,,,,,,,,,,,,,subject,new_b,white,114,126,312,994.2545237,None,994.2545237,None,1,0.8312227,994.2545237,None,995.1595629,None,995.6803316,None,995.6803316,None,n,0.017236,995.6803316,None,,,NC14a,1,2020_Feb_06_1300,ProdSingRedo,3.2.4,59.98980173
,,,,115,0,115,0,,,,,,,,,,,,,,,,,,,,,,,,998.1367254,None,,,,,,,,,,,,,,,,,number,silent,white,115,64,203,996.2916013,None,996.2916013,None,1,0.9924499,996.2916013,None,997.3588934,None,997.8795225,None,997.8795225,None,n,0.1984115,997.8795225,None,,,NC14a,1,2020_Feb_06_1300,ProdSingRedo,3.2.4,59.98980173
,,,,116,0,116,0,,,,,,,,,,,,,,,,,,,,,,,,1000.584277,None,,,,,,,,,,,,,,,,,individual,new_b,white,116,137,160,998.6783268,None,998.6783268,None,6,1.2192263,998.6783268,None,999.9787343,None,1000.498182,None,1000.498182,None,r,0.028507,1000.498182,None,,,NC14a,1,2020_Feb_06_1300,ProdSingRedo,3.2.4,59.98980173
,,,,117,0,117,0,,,,,,,,,,,,,,,,,,,,,,,,1003.201385,None,,,,,,,,,,,,,,,,,treatment,new_a,white,117,114,339,1001.125648,None,1001.125648,None,6,0.9169684,1001.125648,None,1002.126125,None,1002.646424,None,1002.646424,None,r,0.5002407,1002.646424,None,,,NC14a,1,2020_Feb_06_1300,ProdSingRedo,3.2.4,59.98980173
,,,,118,0,118,0,,,,,,,,,,,,,,,,,,,,,,,,1005.553033,None,,,,,,,,,,,,,,,,,suggestion,aloud,white,118,53,314,1003.743356,None,1003.743356,None,6,0.8386012,1003.743356,None,1004.64163,None,1005.178701,None,1005.178701,None,r,0.3085897,1005.178701,None,,,NC14a,1,2020_Feb_06_1300,ProdSingRedo,3.2.4,59.98980173
,,,,119,0,119,0,,,,,,,,,,,,,,,,,,,,,,,,1008.269048,None,,,,,,,,,,,,,,,,,income,aloud,white,119,34,159,1006.098548,None,1006.098548,None,6,0.8967326,1006.098548,None,1007.072376,None,1007.593646,None,1007.593646,None,r,0.6129085,1007.593646,None,,,NC14a,1,2020_Feb_06_1300,ProdSingRedo,3.2.4,59.98980173
,,,,120,0,120,0,,,,,,,,,,,,,,,,,,,,,,,,1011.797274,None,,,,,,,,,,,,,,,,,partner,new_a,white,120,94,211,1008.821656,None,1008.821656,None,3,1.9541337,1008.821656,None,1010.853792,None,1011.376276,None,1011.376276,None,f,0.3734326,1011.376276,None,,,NC14a,1,2020_Feb_06_1300,ProdSingRedo,3.2.4,59.98980173
,,,,121,0,121,0,,,,,,,,,,,,,,,,,,,,,,,,1016.179856,None,,,,,,,,,,,,,,,,,shape,new_a,white,121,105,282,1012.334841,None,1012.334841,None,3,1.9199501,1012.334841,None,1014.326591,None,1014.854055,None,1014.854055,None,f,1.2670153,1014.854055,None,,,NC14a,1,2020_Feb_06_1300,ProdSingRedo,3.2.4,59.98980173
,,,,122,0,122,0,,,,,,,,,,,,,,,,,,,,,,,,1025.392689,None,,,,,,,,,,,,,,,,,impact,sing,white,122,6,157,1016.716579,None,1016.716579,None,3,7.5207639,1016.716579,None,1024.309423,None,1024.834973,None,1024.834973,None,f,0.5023846,1024.834973,None,,,NC14a,1,2020_Feb_06_1300,ProdSingRedo,3.2.4,59.98980173
,,,,123,0,123,0,,,,,,,,,,,,,,,,,,,,,,,,1030.523075,None,,,,,,,,,,,,,,,,,capital,silent,white,123,60,40,1025.928241,None,1025.928241,None,6,3.4587721,1025.928241,None,1029.44755,None,1029.98572,None,1029.98572,None,r,0.4752499,1029.98572,None,,,NC14a,1,2020_Feb_06_1300,ProdSingRedo,3.2.4,59.98980173
,,,,124,0,124,0,,,,,,,,,,,,,,,,,,,,,,,,1032.806723,None,,,,,,,,,,,,,,,,,comedy,sing,white,124,15,58,1031.062236,None,1031.062236,None,6,1.0021268,1031.062236,None,1032.144742,None,1032.665922,None,1032.665922,None,r,0.0867613,1032.665922,None,,,NC14a,1,2020_Feb_06_1300,ProdSingRedo,3.2.4,59.98980173
,,,,125,0,125,0,,,,,,,,,,,,,,,,,,,,,,,,1035.723725,None,,,,,,,,,,,,,,,,,command,new_a,white,125,113,60,1033.344959,None,1033.344959,None,6,1.6334701,1033.344959,None,1035.061817,None,1035.580619,None,1035.580619,None,r,0.0894631,1035.580619,None,,,NC14a,1,2020_Feb_06_1300,ProdSingRedo,3.2.4,59.98980173
,,,,126,0,126,0,,,,,,,,,,,,,,,,,,,,,,,,1039.586108,None,,,,,,,,,,,,,,,,,health,sing,white,126,24,149,1036.259154,None,1036.259154,None,6,2.122042,1036.259154,None,1038.445967,None,1038.984766,None,1038.984766,None,r,0.5409513,1038.984766,None,,,NC14a,1,2020_Feb_06_1300,ProdSingRedo,3.2.4,59.98980173
,,,,127,0,127,0,,,,,,,,,,,,,,,,,,,,,,,,1042.703766,None,,,,,,,,,,,,,,,,,attack,new_b,white,127,136,13,1040.124977,None,1040.124977,None,1,1.4327586,1040.124977,None,1041.63986,None,1042.161867,None,1042.161867,None,n,0.4921341,1042.161867,None,,,NC14a,1,2020_Feb_06_1300,ProdSingRedo,3.2.4,59.98980173
,,,,128,0,128,0,,,,,,,,,,,,,,,,,,,,,,,,1045.768522,None,,,,,,,,,,,,,,,,,background,new_c,white,128,177,16,1043.239199,None,1043.239199,None,1,1.6402232,1043.239199,None,1044.960015,None,1045.482053,None,1045.482053,None,n,0.2253782,1045.482053,None,,,NC14a,1,2020_Feb_06_1300,ProdSingRedo,3.2.4,59.98980173
,,,,129,0,129,0,,,,,,,,,,,,,,,,,,,,,,,,1052.843118,None,,,,,,,,,,,,,,,,,territory,new_a,white,129,118,324,1046.309549,None,1046.309549,None,3,5.8623417,1046.309549,None,1052.256618,None,1052.777262,None,1052.777262,None,f,0.0092613,1052.777262,None,,,NC14a,1,2020_Feb_06_1300,ProdSingRedo,3.2.4,59.98980173
,,,,130,0,130,0,,,,,,,,,,,,,,,,,,,,,,,,1055.832325,None,,,,,,,,,,,,,,,,,sunset,sing,white,130,27,315,1053.38754,None,1053.38754,None,1,1.6116275,1053.38754,None,1055.070193,None,1055.591802,None,1055.591802,None,n,0.1787496,1055.591802,None,,,NC14a,1,2020_Feb_06_1300,ProdSingRedo,3.2.4,59.98980173
,,,,131,0,131,0,,,,,,,,,,,,,,,,,,,,,,,,1058.429979,None,,,,,,,,,,,,,,,,,express,aloud,white,131,45,124,1056.369395,None,1056.369395,None,1,1.2067931,1056.369395,None,1057.652586,None,1058.173145,None,1058.173145,None,n,0.1963147,1058.173145,None,,,NC14a,1,2020_Feb_06_1300,ProdSingRedo,3.2.4,59.98980173
,,,,132,0,132,0,,,,,,,,,,,,,,,,,,,,,,,,1067.012614,None,,,,,,,,,,,,,,,,,medicine,silent,white,132,89,186,1058.968269,None,1058.968269,None,3,7.2774658,1058.968269,None,1066.290738,None,1066.802072,None,1066.802072,None,f,0.1610826,1066.802072,None,,,NC14a,1,2020_Feb_06_1300,ProdSingRedo,3.2.4,59.98980173
,,,,133,0,133,0,,,,,,,,,,,,,,,,,,,,,,,,1069.460559,None,,,,,,,,,,,,,,,,,institute,new_b,white,133,146,162,1067.56557,None,1067.56557,None,6,1.1780823,1067.56557,None,1068.799799,None,1069.319957,None,1069.319957,None,r,0.0809364,1069.319957,None,,,NC14a,1,2020_Feb_06_1300,ProdSingRedo,3.2.4,59.98980173
,,,,134,0,134,0,,,,,,,,,,,,,,,,,,,,,,,,1072.075157,None,,,,,,,,,,,,,,,,,member,aloud,white,134,36,188,1069.996867,None,1069.996867,None,6,0.9668296,1069.996867,None,1071.047071,None,1071.569229,None,1071.569229,None,r,0.4565284,1071.569229,None,,,NC14a,1,2020_Feb_06_1300,ProdSingRedo,3.2.4,59.98980173
,,,,135,0,135,0,,,,,,,,,,,,,,,,,,,,,,,,1074.592135,None,,,,,,,,,,,,,,,,,service,silent,white,135,87,280,1072.613808,None,1072.613808,None,6,1.1351384,1072.613808,None,1073.831025,None,1074.35017,None,1074.35017,None,r,0.1841839,1074.35017,None,,,NC14a,1,2020_Feb_06_1300,ProdSingRedo,3.2.4,59.98980173
,,,,136,0,136,0,,,,,,,,,,,,,,,,,,,,,,,,1077.46802,None,,,,,,,,,,,,,,,,,story,silent,white,136,77,306,1075.129071,None,1075.129071,None,6,1.1172478,1075.129071,None,1076.31106,None,1076.85047,None,1076.85047,None,r,0.563808,1076.85047,None,,,NC14a,1,2020_Feb_06_1300,ProdSingRedo,3.2.4,59.98980173
,,,,137,0,137,0,,,,,,,,,,,,,,,,,,,,,,,,1079.887477,None,,,,,,,,,,,,,,,,,contract,new_b,white,137,129,68,1078.011679,None,1078.011679,None,6,1.1815926,1078.011679,None,1079.278915,None,1079.799805,None,1079.799805,None,r,0.025975,1079.799805,None,,,NC14a,1,2020_Feb_06_1300,ProdSingRedo,3.2.4,59.98980173
,,,,138,0,138,0,,,,,,,,,,,,,,,,,,,,,,,,1086.002235,None,,,,,,,,,,,,,,,,,tennis,silent,white,138,85,323,1080.425616,None,1080.425616,None,6,4.6044808,1080.425616,None,1085.109249,None,1085.629189,None,1085.629189,None,r,0.3130954,1085.629189,None,,,NC14a,1,2020_Feb_06_1300,ProdSingRedo,3.2.4,59.98980173
,,,,139,0,139,0,,,,,,,,,,,,,,,,,,,,,,,,1088.958488,None,,,,,,,,,,,,,,,,,pretty,sing,white,139,9,233,1086.539582,None,1086.539582,None,3,1.775412,1086.539582,None,1088.389117,None,1088.911302,None,1088.911302,None,f,0.0020855,1088.911302,None,,,NC14a,1,2020_Feb_06_1300,ProdSingRedo,3.2.4,59.98980173
,,,,140,0,140,0,,,,,,,,,,,,,,,,,,,,,,,,1091.801656,None,,,,,,,,,,,,,,,,,detective,silent,white,140,84,92,1089.506667,None,1089.506667,None,6,1.0621312,1089.506667,None,1090.643617,None,1091.164287,None,1091.164287,None,r,0.5853821,1091.164287,None,,,NC14a,1,2020_Feb_06_1300,ProdSingRedo,3.2.4,59.98980173
,,,,141,0,141,0,,,,,,,,,,,,,,,,,,,,,,,,1094.500146,None,,,,,,,,,,,,,,,,,pattern,silent,white,141,65,214,1092.339096,None,1092.339096,None,6,1.3755512,1092.339096,None,1093.789373,None,1094.309204,None,1094.309204,None,r,0.1325558,1094.309204,None,,,NC14a,1,2020_Feb_06_1300,ProdSingRedo,3.2.4,59.98980173
,,,,142,0,142,0,,,,,,,,,,,,,,,,,,,,,,,,1096.867025,None,,,,,,,,,,,,,,,,,country,aloud,white,142,55,73,1095.041479,None,1095.041479,None,6,0.8520988,1095.041479,None,1095.972467,None,1096.492818,None,1096.492818,None,r,0.3201639,1096.492818,None,,,NC14a,1,2020_Feb_06_1300,ProdSingRedo,3.2.4,59.98980173
,,,,143,0,143,0,,,,,,,,,,,,,,,,,,,,,,,,1099.697185,None,,,,,,,,,,,,,,,,,audience,sing,white,143,8,14,1097.403928,None,1097.403928,None,6,1.1673683,1097.403928,None,1098.653329,None,1099.178228,None,1099.178228,None,r,0.4698894,1099.178228,None,,,NC14a,1,2020_Feb_06_1300,ProdSingRedo,3.2.4,59.98980173
,,,,144,0,144,0,,,,,,,,,,,,,,,,,,,,,,,,1103.599625,None,,,,,,,,,,,,,,,,,break,new_b,white,144,130,26,1100.235122,None,1100.235122,None,3,1.6127113,1100.235122,None,1101.91972,None,1102.438498,None,1102.438498,None,r,1.1040918,1102.438498,None,,,NC14a,1,2020_Feb_06_1300,ProdSingRedo,3.2.4,59.98980173
,,,,145,0,145,0,,,,,,,,,,,,,,,,,,,,,,,,1107.343657,None,,,,,,,,,,,,,,,,,equipment,aloud,white,145,44,116,1104.150783,None,1104.150783,None,6,2.0143635,1104.150783,None,1106.251642,None,1106.77445,None,1106.77445,None,r,0.5083547,1106.77445,None,,,NC14a,1,2020_Feb_06_1300,ProdSingRedo,3.2.4,59.98980173
,,,,146,0,146,0,,,,,,,,,,,,,,,,,,,,,,,,1109.843402,None,,,,,,,,,,,,,,,,,education,silent,white,146,74,108,1107.886103,None,1107.886103,None,6,1.246267,1107.886103,None,1109.218621,None,1109.740102,None,1109.740102,None,r,0.045852,1109.740102,None,,,NC14a,1,2020_Feb_06_1300,ProdSingRedo,3.2.4,59.98980173
,,,,147,0,147,0,,,,,,,,,,,,,,,,,,,,,,,,1117.69327,None,,,,,,,,,,,,,,,,,period,new_c,white,147,167,217,1110.381177,None,1110.381177,None,6,6.2644116,1110.381177,None,1116.730042,None,1117.246757,None,1117.246757,None,r,0.390297,1117.246757,None,,,NC14a,1,2020_Feb_06_1300,ProdSingRedo,3.2.4,59.98980173
,,,,148,0,148,0,,,,,,,,,,,,,,,,,,,,,,,,1123.123581,None,,,,,,,,,,,,,,,,,interior,new_b,white,148,120,164,1118.245778,None,1118.245778,None,3,4.0118419,1118.245778,None,1122.320319,None,1122.848987,None,1122.848987,None,f,0.2167677,1122.848987,None,,,NC14a,1,2020_Feb_06_1300,ProdSingRedo,3.2.4,59.98980173
,,,,149,0,149,0,,,,,,,,,,,,,,,,,,,,,,,,1126.620545,None,,,,,,,,,,,,,,,,,budget,new_b,white,149,149,34,1123.659053,None,1123.659053,None,3,1.2741493,1123.659053,None,1125.011643,None,1125.530774,None,1125.530774,None,f,1.0411657,1125.530774,None,,,NC14a,1,2020_Feb_06_1300,ProdSingRedo,3.2.4,59.98980173
,,,,150,0,150,0,,,,,,,,,,,,,,,,,,,,,,,,1131.104065,None,,,,,,,,,,,,,,,,,design,new_c,white,150,168,91,1127.158364,None,1127.158364,None,6,3.1490778,1127.158364,None,1130.391051,None,1130.911972,None,1130.911972,None,r,0.1365951,1130.911972,None,,,NC14a,1,2020_Feb_06_1300,ProdSingRedo,3.2.4,59.98980173
,,,,151,0,151,0,,,,,,,,,,,,,,,,,,,,,,,,1134.250468,None,,,,,,,,,,,,,,,,,research,silent,white,151,68,261,1131.641216,None,1131.641216,None,6,1.0289767,1131.641216,None,1132.730936,None,1133.261935,None,1133.261935,None,r,0.9304532,1133.261935,None,,,NC14a,1,2020_Feb_06_1300,ProdSingRedo,3.2.4,59.98980173
,,,,152,0,152,0,,,,,,,,,,,,,,,,,,,,,,,,1137.384716,None,,,,,,,,,,,,,,,,,space,new_b,white,152,127,297,1134.788882,None,1134.788882,None,6,1.8123474,1134.788882,None,1136.671931,None,1137.189743,None,1137.189743,None,f,0.1442976,1137.189743,None,,,NC14a,1,2020_Feb_06_1300,ProdSingRedo,3.2.4,59.98980173
,,,,153,0,153,0,,,,,,,,,,,,,,,,,,,,,,,,1143.633077,None,,,,,,,,,,,,,,,,,employment,sing,white,153,29,111,1137.928569,None,1137.928569,None,6,4.7682086,1137.928569,None,1142.75714,None,1143.293623,None,1143.293623,None,r,0.280269,1143.293623,None,,,NC14a,1,2020_Feb_06_1300,ProdSingRedo,3.2.4,59.98980173
,,,,154,0,154,0,,,,,,,,,,,,,,,,,,,,,,,,1147.364047,None,,,,,,,,,,,,,,,,,appearance,new_b,white,154,133,10,1144.18648,None,1144.18648,None,1,1.9984118,1144.18648,None,1146.271168,None,1146.793561,None,1146.793561,None,n,0.5081152,1146.793561,None,,,NC14a,1,2020_Feb_06_1300,ProdSingRedo,3.2.4,59.98980173
,,,,155,0,155,0,,,,,,,,,,,,,,,,,,,,,,,,1150.77939,None,,,,,,,,,,,,,,,,,revolution,silent,white,155,82,264,1147.904318,None,1147.904318,None,1,2.036053,1147.904318,None,1150.020834,None,1150.540653,None,1150.540653,None,n,0.176069,1150.540653,None,,,NC14a,1,2020_Feb_06_1300,ProdSingRedo,3.2.4,59.98980173
,,,,156,0,156,0,,,,,,,,,,,,,,,,,,,,,,,,1157.792195,None,,,,,,,,,,,,,,,,,height,sing,white,156,1,152,1151.316006,None,1151.316006,None,4,5.0253218,1151.316006,None,1156.426904,None,1156.952026,None,1156.952026,None,f,0.7893412,1156.952026,None,,,NC14a,1,2020_Feb_06_1300,ProdSingRedo,3.2.4,59.98980173
,,,,157,0,157,0,,,,,,,,,,,,,,,,,,,,,,,,1160.773323,None,,,,,,,,,,,,,,,,,travel,silent,white,157,69,338,1158.329991,None,1158.329991,None,6,1.1403033,1158.329991,None,1159.545919,None,1160.066512,None,1160.066512,None,r,0.6452029,1160.066512,None,,,NC14a,1,2020_Feb_06_1300,ProdSingRedo,3.2.4,59.98980173
,,,,158,0,158,0,,,,,,,,,,,,,,,,,,,,,,,,1163.4084,None,,,,,,,,,,,,,,,,,government,sing,white,158,14,139,1161.316649,None,1161.316649,None,6,1.0742549,1161.316649,None,1162.466175,None,1162.987454,None,1162.987454,None,r,0.3591041,1162.987454,None,,,NC14a,1,2020_Feb_06_1300,ProdSingRedo,3.2.4,59.98980173
,,,,159,0,159,0,,,,,,,,,,,,,,,,,,,,,,,,1167.104321,None,,,,,,,,,,,,,,,,,commercial,new_a,white,159,91,61,1163.947888,None,1163.947888,None,1,2.0312512,1163.947888,None,1166.069561,None,1166.585901,None,1166.585901,None,n,0.4616448,1166.585901,None,,,NC14a,1,2020_Feb_06_1300,ProdSingRedo,3.2.4,59.98980173
,,,,160,0,160,0,,,,,,,,,,,,,,,,,,,,,,,,1172.385405,None,,,,,,,,,,,,,,,,,sight,new_a,white,160,101,286,1167.642004,None,1167.642004,None,6,3.6980695,1167.642004,None,1171.400424,None,1171.927597,None,1171.927597,None,r,0.4071218,1171.927597,None,,,NC14a,1,2020_Feb_06_1300,ProdSingRedo,3.2.4,59.98980173
,,,,161,0,161,0,,,,,,,,,,,,,,,,,,,,,,,,1179.031614,None,,,,,,,,,,,,,,,,,carry,new_b,white,161,144,43,1172.924234,None,1172.924234,None,1,5.4447232,1172.924234,None,1178.425618,None,1178.960336,None,1178.960336,None,n,0.0107607,1178.960336,None,,,NC14a,1,2020_Feb_06_1300,ProdSingRedo,3.2.4,59.98980173
,,,,162,0,162,0,,,,,,,,,,,,,,,,,,,,,,,,1181.516635,None,,,,,,,,,,,,,,,,,skill,silent,white,162,88,289,1179.570713,None,1179.570713,None,1,0.8726438,1179.570713,None,1180.520215,None,1181.041007,None,1181.041007,None,n,0.4264778,1181.041007,None,,,NC14a,1,2020_Feb_06_1300,ProdSingRedo,3.2.4,59.98980173
,,,,163,0,163,0,,,,,,,,,,,,,,,,,,,,,,,,1184.230927,None,,,,,,,,,,,,,,,,,brief,new_b,white,163,134,28,1182.053116,None,1182.053116,None,1,1.3296622,1182.053116,None,1183.454864,None,1183.973094,None,1183.973094,None,n,0.1952059,1183.973094,None,,,NC14a,1,2020_Feb_06_1300,ProdSingRedo,3.2.4,59.98980173
,,,,164,0,164,0,,,,,,,,,,,,,,,,,,,,,,,,1188.597371,None,,,,,,,,,,,,,,,,,throw,silent,white,164,75,330,1184.768915,None,1184.768915,None,1,1.0433187,1184.768915,None,1185.885027,None,1186.407497,None,1186.407497,None,n,2.1354997,1186.407497,None,,,NC14a,1,2020_Feb_06_1300,ProdSingRedo,3.2.4,59.98980173
,,,,165,0,165,0,,,,,,,,,,,,,,,,,,,,,,,,1191.439449,None,,,,,,,,,,,,,,,,,strain,aloud,white,165,35,308,1189.135712,None,1189.135712,None,6,1.3150054,1189.135712,None,1190.5153,None,1191.054741,None,1191.054741,None,r,0.3363148,1191.054741,None,,,NC14a,1,2020_Feb_06_1300,ProdSingRedo,3.2.4,59.98980173
,,,,166,0,166,0,,,,,,,,,,,,,,,,,,,,,,,,1194.196803,None,,,,,,,,,,,,,,,,,expansion,sing,white,166,21,123,1191.98616,None,1191.98616,None,6,0.9529044,1191.98616,None,1193.006872,None,1193.541143,None,1193.541143,None,r,0.6031405,1193.541143,None,,,NC14a,1,2020_Feb_06_1300,ProdSingRedo,3.2.4,59.98980173
,,,,167,0,167,0,,,,,,,,,,,,,,,,,,,,,,,,1201.793532,None,,,,,,,,,,,,,,,,,public,new_b,white,167,132,244,1194.733579,None,1194.733579,None,3,3.629921,1194.733579,None,1198.435702,None,1198.96941,None,1198.96941,None,f,2.7720152,1198.96941,None,,,NC14a,1,2020_Feb_06_1300,ProdSingRedo,3.2.4,59.98980173
,,,,168,0,168,0,,,,,,,,,,,,,,,,,,,,,,,,1207.275178,None,,,,,,,,,,,,,,,,,threat,sing,white,168,28,329,1202.329449,None,1202.329449,None,1,3.7897246,1202.329449,None,1206.195861,None,1206.719695,None,1206.719695,None,n,0.5045741,1206.719695,None,,,NC14a,1,2020_Feb_06_1300,ProdSingRedo,3.2.4,59.98980173
,,,,169,0,169,0,,,,,,,,,,,,,,,,,,,,,,,,1209.636454,None,,,,,,,,,,,,,,,,,degree,aloud,white,169,48,89,1207.826675,None,1207.826675,None,6,1.1462535,1207.826675,None,1209.045873,None,1209.564373,None,1209.564373,None,r,0.0054456,1209.564373,None,,,NC14a,1,2020_Feb_06_1300,ProdSingRedo,3.2.4,59.98980173
,,,,170,0,170,0,,,,,,,,,,,,,,,,,,,,,,,,1213.873915,None,,,,,,,,,,,,,,,,,bucket,new_a,white,170,90,33,1210.177194,None,1210.177194,None,1,2.9913077,1210.177194,None,1213.242209,None,1213.75793,None,1213.75793,None,n,0.0572289,1213.75793,None,,,NC14a,1,2020_Feb_06_1300,ProdSingRedo,3.2.4,59.98980173
,,,,171,0,171,0,,,,,,,,,,,,,,,,,,,,,,,,1216.636057,None,,,,,,,,,,,,,,,,,nation,sing,white,171,26,198,1214.42416,None,1214.42416,None,1,1.5197892,1214.42416,None,1216.013677,None,1216.544567,None,1216.544567,None,n,0.0366112,1216.544567,None,,,NC14a,1,2020_Feb_06_1300,ProdSingRedo,3.2.4,59.98980173
,,,,172,0,172,0,,,,,,,,,,,,,,,,,,,,,,,,1219.253451,None,,,,,,,,,,,,,,,,,bitter,new_b,white,172,139,23,1217.174706,None,1217.174706,None,1,1.3930702,1217.174706,None,1218.627087,None,1219.161616,None,1219.161616,None,n,0.0392414,1219.161616,None,,,NC14a,1,2020_Feb_06_1300,ProdSingRedo,3.2.4,59.98980173
,,,,173,0,173,0,,,,,,,,,,,,,,,,,,,,,,,,1224.435236,None,,,,,,,,,,,,,,,,,answer,aloud,white,173,58,8,1219.789664,None,1219.789664,None,3,3.5951947,1219.789664,None,1223.449557,None,1223.974468,None,1223.974468,None,f,0.4047515,1223.974468,None,,,NC14a,1,2020_Feb_06_1300,ProdSingRedo,3.2.4,59.98980173
,,,,174,0,174,0,,,,,,,,,,,,,,,,,,,,,,,,1229.114924,None,,,,,,,,,,,,,,,,,defeat,new_a,white,174,110,88,1224.972128,None,1224.972128,None,3,3.1153358,1224.972128,None,1228.170295,None,1228.691288,None,1228.691288,None,f,0.3669992,1228.691288,None,,,NC14a,1,2020_Feb_06_1300,ProdSingRedo,3.2.4,59.98980173
,,,,175,0,175,0,,,,,,,,,,,,,,,,,,,,,,,,1231.816209,None,,,,,,,,,,,,,,,,,people,new_a,white,175,98,216,1229.651883,None,1229.651883,None,1,1.3963334,1229.651883,None,1231.120287,None,1231.639219,None,1231.639219,None,n,0.1120925,1231.639219,None,,,NC14a,1,2020_Feb_06_1300,ProdSingRedo,3.2.4,59.98980173
,,,,176,0,176,0,,,,,,,,,,,,,,,,,,,,,,,,1234.929295,None,,,,,,,,,,,,,,,,,solution,new_a,white,176,97,294,1232.369083,None,1232.369083,None,6,1.6414552,1232.369083,None,1234.087151,None,1234.607451,None,1234.607451,None,r,0.2654391,1234.607451,None,,,NC14a,1,2020_Feb_06_1300,ProdSingRedo,3.2.4,59.98980173
,,,,177,0,177,0,,,,,,,,,,,,,,,,,,,,,,,,1237.930227,None,,,,,,,,,,,,,,,,,resistance,new_a,white,177,96,262,1235.469481,None,1235.469481,None,6,1.3551205,1235.469481,None,1236.90609,None,1237.425247,None,1237.425247,None,r,0.4491662,1237.425247,None,,,NC14a,1,2020_Feb_06_1300,ProdSingRedo,3.2.4,59.98980173
,,,,178,0,178,0,,,,,,,,,,,,,,,,,,,,,,,,1240.710632,None,,,,,,,,,,,,,,,,,dispute,new_c,white,178,153,99,1238.481578,None,1238.481578,None,1,1.3625512,1238.481578,None,1239.915321,None,1240.436786,None,1240.436786,None,n,0.215677,1240.436786,None,,,NC14a,1,2020_Feb_06_1300,ProdSingRedo,3.2.4,59.98980173
,,,,179,0,179,0,,,,,,,,,,,,,,,,,,,,,,,,1244.224714,None,,,,,,,,,,,,,,,,,discussion,aloud,white,179,43,96,1241.250497,None,1241.250497,None,1,2.030344,1241.250497,None,1243.365572,None,1243.888739,None,1243.888739,None,n,0.2733928,1243.888739,None,,,NC14a,1,2020_Feb_06_1300,ProdSingRedo,3.2.4,59.98980173
,,,,,,,,,,,,,,,,,,,,,,,,,,,,,,,,,,,,,,,,,,,,,,,,,,,,,,,,,,,,,,,,,,,,,,,,,1244.733018,None,,,,,,
