StudyLoop.thisRepN,StudyLoop.thisTrialN,StudyLoop.thisN,StudyLoop.thisIndex,TestLoop.thisRepN,TestLoop.thisTrialN,TestLoop.thisN,TestLoop.thisIndex,textCondition.started,textCondition.stopped,keyCondition.keys,keyCondition.rt,keyCondition.started,keyCondition.stopped,Condition,stim_colors,color_sing,color_aloud,color_silent,textWelcome.started,textWelcome.stopped,keyWelcome.keys,keyWelcome.rt,keyWelcome.started,keyWelcome.stopped,textAloud.started,textAloud.stopped,textSilent.started,textSilent.stopped,textSing.started,textSing.stopped,textBlank500.started,textBlank500.stopped,study_word,study_type,study_color,study_num,study_word_num,textStudy.started,textStudy.stopped,keyStudy.keys,keyStudy.started,keyStudy.stopped,textTestInstructions.started,textTestInstructions.stopped,key_resp_3.keys,key_resp_3.rt,key_resp_3.started,key_resp_3.stopped,testWord,testType,testColor,testN,test_num,test_word_num,textConf.started,textConf.stopped,textConfScale.started,textConfScale.stopped,keyConf.keys,keyConf.rt,keyConf.started,keyConf.stopped,textTestBlank.started,textTestBlank.stopped,textRKN.started,textRKN.stopped,textRKNScale.started,textRKNScale.stopped,keyRKN.keys,keyRKN.rt,keyRKN.started,keyRKN.stopped,textEnd.started,textEnd.stopped,participant,session,date,expName,psychopyVersion,frameRate,
,,,,,,,,19.977838599996176,None,n,2.0396083000086946,19.977838599996176,None,,,,,,,,,,,,,,,,,,,,,,,,,,,,,,,,,,,,,,,,,,,,,,,,,,,,,,,,,,,,,,NC15,001,2020_Mar_10_1219,ProdSingRedo,3.2.3,59.95570472483677,
,,,,,,,,,,,,,,NeutralTest,"['yellow', 'blue', 'red']",yellow,blue,red,22.115786299997126,None,space,734.6521487999998,22.115786299997126,None,,,,,,,,,,,,,,,,,,,,,,,,,,,,,,,,,,,,,,,,,,,,,,,,,,,NC15,001,2020_Mar_10_1219,ProdSingRedo,3.2.3,59.95570472483677,
0,0,0,0,,,,,,,,,,,,,,,,,,,,,,22.115786299997126,None,22.115786299997126,None,22.115786299997126,None,759.3291218999948,None,sound,sing,yellow,10,295,757.320149399995,None,None,757.320149399995,None,,,,,,,,,,,,,,,,,,,,,,,,,,,,,,,,,NC15,001,2020_Mar_10_1219,ProdSingRedo,3.2.3,59.95570472483677,
1,0,1,0,,,,,,,,,,,,,,,,,,,,,,,,,,,,761.8462050999951,None,vision,aloud,blue,56,347,759.8482497999939,None,None,759.8482497999939,None,,,,,,,,,,,,,,,,,,,,,,,,,,,,,,,,,NC15,001,2020_Mar_10_1219,ProdSingRedo,3.2.3,59.95570472483677,
2,0,2,0,,,,,,,,,,,,,,,,,,,,,,,,,,,,764.3627521000017,None,working,silent,red,84,357,762.3688172999973,None,None,762.3688172999973,None,,,,,,,,,,,,,,,,,,,,,,,,,,,,,,,,,NC15,001,2020_Mar_10_1219,ProdSingRedo,3.2.3,59.95570472483677,
3,0,3,0,,,,,,,,,,,,,,,,,,,,,,,,,,,,766.879740599994,None,court,silent,red,81,75,764.8754000000044,None,None,764.8754000000044,None,,,,,,,,,,,,,,,,,,,,,,,,,,,,,,,,,NC15,001,2020_Mar_10_1219,ProdSingRedo,3.2.3,59.95570472483677,
4,0,4,0,,,,,,,,,,,,,,,,,,,,,,,,,,,,769.3963649999932,None,sweet,sing,yellow,13,319,767.3922402000026,None,None,767.3922402000026,None,,,,,,,,,,,,,,,,,,,,,,,,,,,,,,,,,NC15,001,2020_Mar_10_1219,ProdSingRedo,3.2.3,59.95570472483677,
5,0,5,0,,,,,,,,,,,,,,,,,,,,,,,,,,,,771.9136433999956,None,curve,aloud,blue,30,82,769.9092911000043,None,None,769.9092911000043,None,,,,,,,,,,,,,,,,,,,,,,,,,,,,,,,,,NC15,001,2020_Mar_10_1219,ProdSingRedo,3.2.3,59.95570472483677,
6,0,6,0,,,,,,,,,,,,,,,,,,,,,,,,,,,,774.4300180999999,None,story,silent,red,68,306,772.4317566999962,None,None,772.4317566999962,None,,,,,,,,,,,,,,,,,,,,,,,,,,,,,,,,,NC15,001,2020_Mar_10_1219,ProdSingRedo,3.2.3,59.95570472483677,
7,0,7,0,,,,,,,,,,,,,,,,,,,,,,,,,,,,776.9318758000009,None,gesture,silent,red,85,137,774.9304433999932,None,None,774.9304433999932,None,,,,,,,,,,,,,,,,,,,,,,,,,,,,,,,,,NC15,001,2020_Mar_10_1219,ProdSingRedo,3.2.3,59.95570472483677,
8,0,8,0,,,,,,,,,,,,,,,,,,,,,,,,,,,,779.4637090000033,None,swift,aloud,blue,32,320,777.4612148000015,None,None,777.4612148000015,None,,,,,,,,,,,,,,,,,,,,,,,,,,,,,,,,,NC15,001,2020_Mar_10_1219,ProdSingRedo,3.2.3,59.95570472483677,
9,0,9,0,,,,,,,,,,,,,,,,,,,,,,,,,,,,781.9804722999979,None,scale,aloud,blue,35,272,779.9767191999999,None,None,779.9767191999999,None,,,,,,,,,,,,,,,,,,,,,,,,,,,,,,,,,NC15,001,2020_Mar_10_1219,ProdSingRedo,3.2.3,59.95570472483677,
10,0,10,0,,,,,,,,,,,,,,,,,,,,,,,,,,,,784.4973704000004,None,republic,sing,yellow,27,260,782.5042555999971,None,None,782.5042555999971,None,,,,,,,,,,,,,,,,,,,,,,,,,,,,,,,,,NC15,001,2020_Mar_10_1219,ProdSingRedo,3.2.3,59.95570472483677,
11,0,11,0,,,,,,,,,,,,,,,,,,,,,,,,,,,,787.014082099995,None,stranger,aloud,blue,49,309,785.0183863999991,None,None,785.0183863999991,None,,,,,,,,,,,,,,,,,,,,,,,,,,,,,,,,,NC15,001,2020_Mar_10_1219,ProdSingRedo,3.2.3,59.95570472483677,
12,0,12,0,,,,,,,,,,,,,,,,,,,,,,,,,,,,789.5310553000018,None,still,silent,red,67,304,787.5234333999979,None,None,787.5234333999979,None,,,,,,,,,,,,,,,,,,,,,,,,,,,,,,,,,NC15,001,2020_Mar_10_1219,ProdSingRedo,3.2.3,59.95570472483677,
13,0,13,0,,,,,,,,,,,,,,,,,,,,,,,,,,,,792.0478436999983,None,majority,sing,yellow,5,176,790.0558136000036,None,None,790.0558136000036,None,,,,,,,,,,,,,,,,,,,,,,,,,,,,,,,,,NC15,001,2020_Mar_10_1219,ProdSingRedo,3.2.3,59.95570472483677,
14,0,14,0,,,,,,,,,,,,,,,,,,,,,,,,,,,,794.5646191999986,None,career,sing,yellow,12,42,792.5604030999966,None,None,792.5604030999966,None,,,,,,,,,,,,,,,,,,,,,,,,,,,,,,,,,NC15,001,2020_Mar_10_1219,ProdSingRedo,3.2.3,59.95570472483677,
15,0,15,0,,,,,,,,,,,,,,,,,,,,,,,,,,,,797.0815696000063,None,nature,sing,yellow,9,200,795.0803707000014,None,None,795.0803707000014,None,,,,,,,,,,,,,,,,,,,,,,,,,,,,,,,,,NC15,001,2020_Mar_10_1219,ProdSingRedo,3.2.3,59.95570472483677,
16,0,16,0,,,,,,,,,,,,,,,,,,,,,,,,,,,,799.5984069999977,None,treatment,aloud,blue,37,339,797.5992314000032,None,None,797.5992314000032,None,,,,,,,,,,,,,,,,,,,,,,,,,,,,,,,,,NC15,001,2020_Mar_10_1219,ProdSingRedo,3.2.3,59.95570472483677,
17,0,17,0,,,,,,,,,,,,,,,,,,,,,,,,,,,,802.1153731999948,None,fashion,aloud,blue,47,125,800.111613400004,None,None,800.111613400004,None,,,,,,,,,,,,,,,,,,,,,,,,,,,,,,,,,NC15,001,2020_Mar_10_1219,ProdSingRedo,3.2.3,59.95570472483677,
18,0,18,0,,,,,,,,,,,,,,,,,,,,,,,,,,,,804.6312522999942,None,express,aloud,blue,38,124,802.6247307000012,None,None,802.6247307000012,None,,,,,,,,,,,,,,,,,,,,,,,,,,,,,,,,,NC15,001,2020_Mar_10_1219,ProdSingRedo,3.2.3,59.95570472483677,
19,0,19,0,,,,,,,,,,,,,,,,,,,,,,,,,,,,807.1321885999932,None,review,silent,red,60,263,805.1313345999952,None,None,805.1313345999952,None,,,,,,,,,,,,,,,,,,,,,,,,,,,,,,,,,NC15,001,2020_Mar_10_1219,ProdSingRedo,3.2.3,59.95570472483677,
20,0,20,0,,,,,,,,,,,,,,,,,,,,,,,,,,,,809.6490150000027,None,object,aloud,blue,36,204,807.639399000007,None,None,807.639399000007,None,,,,,,,,,,,,,,,,,,,,,,,,,,,,,,,,,NC15,001,2020_Mar_10_1219,ProdSingRedo,3.2.3,59.95570472483677,
21,0,21,0,,,,,,,,,,,,,,,,,,,,,,,,,,,,812.1676352000068,None,split,sing,yellow,28,299,810.1588347999932,None,None,810.1588347999932,None,,,,,,,,,,,,,,,,,,,,,,,,,,,,,,,,,NC15,001,2020_Mar_10_1219,ProdSingRedo,3.2.3,59.95570472483677,
22,0,22,0,,,,,,,,,,,,,,,,,,,,,,,,,,,,814.6826992999995,None,height,silent,red,64,152,812.6847688999987,None,None,812.6847688999987,None,,,,,,,,,,,,,,,,,,,,,,,,,,,,,,,,,NC15,001,2020_Mar_10_1219,ProdSingRedo,3.2.3,59.95570472483677,
23,0,23,0,,,,,,,,,,,,,,,,,,,,,,,,,,,,817.1995801000012,None,music,silent,red,69,196,815.1957093999954,None,None,815.1957093999954,None,,,,,,,,,,,,,,,,,,,,,,,,,,,,,,,,,NC15,001,2020_Mar_10_1219,ProdSingRedo,3.2.3,59.95570472483677,
24,0,24,0,,,,,,,,,,,,,,,,,,,,,,,,,,,,819.7167271000071,None,pretty,silent,red,63,233,817.7124350999948,None,None,817.7124350999948,None,,,,,,,,,,,,,,,,,,,,,,,,,,,,,,,,,NC15,001,2020_Mar_10_1219,ProdSingRedo,3.2.3,59.95570472483677,
25,0,25,0,,,,,,,,,,,,,,,,,,,,,,,,,,,,822.2333267999929,None,thick,silent,red,65,327,820.2277922000067,None,None,820.2277922000067,None,,,,,,,,,,,,,,,,,,,,,,,,,,,,,,,,,NC15,001,2020_Mar_10_1219,ProdSingRedo,3.2.3,59.95570472483677,
26,0,26,0,,,,,,,,,,,,,,,,,,,,,,,,,,,,824.7500379999983,None,count,silent,red,87,72,822.7483822000067,None,None,822.7483822000067,None,,,,,,,,,,,,,,,,,,,,,,,,,,,,,,,,,NC15,001,2020_Mar_10_1219,ProdSingRedo,3.2.3,59.95570472483677,
27,0,27,0,,,,,,,,,,,,,,,,,,,,,,,,,,,,827.267127500003,None,beauty,aloud,blue,51,18,825.2674068000051,None,None,825.2674068000051,None,,,,,,,,,,,,,,,,,,,,,,,,,,,,,,,,,NC15,001,2020_Mar_10_1219,ProdSingRedo,3.2.3,59.95570472483677,
28,0,28,0,,,,,,,,,,,,,,,,,,,,,,,,,,,,829.7837146999955,None,individual,silent,red,71,160,827.7821979,None,None,827.7821979,None,,,,,,,,,,,,,,,,,,,,,,,,,,,,,,,,,NC15,001,2020_Mar_10_1219,ProdSingRedo,3.2.3,59.95570472483677,
29,0,29,0,,,,,,,,,,,,,,,,,,,,,,,,,,,,832.3009438000008,None,clear,sing,yellow,18,52,830.2978170999995,None,None,830.2978170999995,None,,,,,,,,,,,,,,,,,,,,,,,,,,,,,,,,,NC15,001,2020_Mar_10_1219,ProdSingRedo,3.2.3,59.95570472483677,
30,0,30,0,,,,,,,,,,,,,,,,,,,,,,,,,,,,834.8163389999972,None,quiet,silent,red,89,249,832.8222679000028,None,None,832.8222679000028,None,,,,,,,,,,,,,,,,,,,,,,,,,,,,,,,,,NC15,001,2020_Mar_10_1219,ProdSingRedo,3.2.3,59.95570472483677,
31,0,31,0,,,,,,,,,,,,,,,,,,,,,,,,,,,,837.3180817999964,None,character,sing,yellow,21,46,835.318617900004,None,None,835.318617900004,None,,,,,,,,,,,,,,,,,,,,,,,,,,,,,,,,,NC15,001,2020_Mar_10_1219,ProdSingRedo,3.2.3,59.95570472483677,
32,0,32,0,,,,,,,,,,,,,,,,,,,,,,,,,,,,839.8349230000022,None,minute,sing,yellow,3,192,837.8340267000021,None,None,837.8340267000021,None,,,,,,,,,,,,,,,,,,,,,,,,,,,,,,,,,NC15,001,2020_Mar_10_1219,ProdSingRedo,3.2.3,59.95570472483677,
33,0,33,0,,,,,,,,,,,,,,,,,,,,,,,,,,,,842.351204999999,None,smooth,sing,yellow,24,292,840.3429786000052,None,None,840.3429786000052,None,,,,,,,,,,,,,,,,,,,,,,,,,,,,,,,,,NC15,001,2020_Mar_10_1219,ProdSingRedo,3.2.3,59.95570472483677,
34,0,34,0,,,,,,,,,,,,,,,,,,,,,,,,,,,,844.868100599997,None,captain,silent,red,77,41,842.8670809000032,None,None,842.8670809000032,None,,,,,,,,,,,,,,,,,,,,,,,,,,,,,,,,,NC15,001,2020_Mar_10_1219,ProdSingRedo,3.2.3,59.95570472483677,
35,0,35,0,,,,,,,,,,,,,,,,,,,,,,,,,,,,847.3848744999996,None,science,sing,yellow,15,275,845.3782299000013,None,None,845.3782299000013,None,,,,,,,,,,,,,,,,,,,,,,,,,,,,,,,,,NC15,001,2020_Mar_10_1219,ProdSingRedo,3.2.3,59.95570472483677,
36,0,36,0,,,,,,,,,,,,,,,,,,,,,,,,,,,,849.9017212000035,None,shear,silent,red,74,283,847.8982354000036,None,None,847.8982354000036,None,,,,,,,,,,,,,,,,,,,,,,,,,,,,,,,,,NC15,001,2020_Mar_10_1219,ProdSingRedo,3.2.3,59.95570472483677,
37,0,37,0,,,,,,,,,,,,,,,,,,,,,,,,,,,,852.4185409000056,None,military,sing,yellow,0,190,850.4201704000006,None,None,850.4201704000006,None,,,,,,,,,,,,,,,,,,,,,,,,,,,,,,,,,NC15,001,2020_Mar_10_1219,ProdSingRedo,3.2.3,59.95570472483677,
38,0,38,0,,,,,,,,,,,,,,,,,,,,,,,,,,,,854.9353721999942,None,distance,aloud,blue,42,100,852.9330812999979,None,None,852.9330812999979,None,,,,,,,,,,,,,,,,,,,,,,,,,,,,,,,,,NC15,001,2020_Mar_10_1219,ProdSingRedo,3.2.3,59.95570472483677,
39,0,39,0,,,,,,,,,,,,,,,,,,,,,,,,,,,,857.4524475999933,None,collection,silent,red,61,54,855.445879299994,None,None,855.445879299994,None,,,,,,,,,,,,,,,,,,,,,,,,,,,,,,,,,NC15,001,2020_Mar_10_1219,ProdSingRedo,3.2.3,59.95570472483677,
40,0,40,0,,,,,,,,,,,,,,,,,,,,,,,,,,,,859.9690548999934,None,surprise,aloud,blue,45,317,857.967310299995,None,None,857.967310299995,None,,,,,,,,,,,,,,,,,,,,,,,,,,,,,,,,,NC15,001,2020_Mar_10_1219,ProdSingRedo,3.2.3,59.95570472483677,
41,0,41,0,,,,,,,,,,,,,,,,,,,,,,,,,,,,862.4865313000046,None,theme,aloud,blue,41,326,860.4779412000062,None,None,860.4779412000062,None,,,,,,,,,,,,,,,,,,,,,,,,,,,,,,,,,NC15,001,2020_Mar_10_1219,ProdSingRedo,3.2.3,59.95570472483677,
42,0,42,0,,,,,,,,,,,,,,,,,,,,,,,,,,,,865.0014031000028,None,service,aloud,blue,44,280,863.0000623999949,None,None,863.0000623999949,None,,,,,,,,,,,,,,,,,,,,,,,,,,,,,,,,,NC15,001,2020_Mar_10_1219,ProdSingRedo,3.2.3,59.95570472483677,
43,0,43,0,,,,,,,,,,,,,,,,,,,,,,,,,,,,867.5033456999954,None,agency,sing,yellow,2,4,865.5032449999999,None,None,865.5032449999999,None,,,,,,,,,,,,,,,,,,,,,,,,,,,,,,,,,NC15,001,2020_Mar_10_1219,ProdSingRedo,3.2.3,59.95570472483677,
44,0,44,0,,,,,,,,,,,,,,,,,,,,,,,,,,,,870.0197595000063,None,drink,aloud,blue,46,105,868.0181149999989,None,None,868.0181149999989,None,,,,,,,,,,,,,,,,,,,,,,,,,,,,,,,,,NC15,001,2020_Mar_10_1219,ProdSingRedo,3.2.3,59.95570472483677,
45,0,45,0,,,,,,,,,,,,,,,,,,,,,,,,,,,,872.5368088999967,None,bicycle,sing,yellow,20,21,870.5402373999968,None,None,870.5402373999968,None,,,,,,,,,,,,,,,,,,,,,,,,,,,,,,,,,NC15,001,2020_Mar_10_1219,ProdSingRedo,3.2.3,59.95570472483677,
46,0,46,0,,,,,,,,,,,,,,,,,,,,,,,,,,,,875.0534910999995,None,shape,aloud,blue,48,282,873.052668400007,None,None,873.052668400007,None,,,,,,,,,,,,,,,,,,,,,,,,,,,,,,,,,NC15,001,2020_Mar_10_1219,ProdSingRedo,3.2.3,59.95570472483677,
47,0,47,0,,,,,,,,,,,,,,,,,,,,,,,,,,,,877.5702958000038,None,dream,sing,yellow,1,104,875.565522200006,None,None,875.565522200006,None,,,,,,,,,,,,,,,,,,,,,,,,,,,,,,,,,NC15,001,2020_Mar_10_1219,ProdSingRedo,3.2.3,59.95570472483677,
48,0,48,0,,,,,,,,,,,,,,,,,,,,,,,,,,,,880.0870491999958,None,disease,sing,yellow,8,97,878.0838288999948,None,None,878.0838288999948,None,,,,,,,,,,,,,,,,,,,,,,,,,,,,,,,,,NC15,001,2020_Mar_10_1219,ProdSingRedo,3.2.3,59.95570472483677,
49,0,49,0,,,,,,,,,,,,,,,,,,,,,,,,,,,,882.6038487000042,None,relation,aloud,blue,54,257,880.6003933000029,None,None,880.6003933000029,None,,,,,,,,,,,,,,,,,,,,,,,,,,,,,,,,,NC15,001,2020_Mar_10_1219,ProdSingRedo,3.2.3,59.95570472483677,
50,0,50,0,,,,,,,,,,,,,,,,,,,,,,,,,,,,885.1207098000014,None,company,aloud,blue,50,64,883.1220347000053,None,None,883.1220347000053,None,,,,,,,,,,,,,,,,,,,,,,,,,,,,,,,,,NC15,001,2020_Mar_10_1219,ProdSingRedo,3.2.3,59.95570472483677,
51,0,51,0,,,,,,,,,,,,,,,,,,,,,,,,,,,,887.6375827000011,None,skill,aloud,blue,43,289,885.6347596999985,None,None,885.6347596999985,None,,,,,,,,,,,,,,,,,,,,,,,,,,,,,,,,,NC15,001,2020_Mar_10_1219,ProdSingRedo,3.2.3,59.95570472483677,
52,0,52,0,,,,,,,,,,,,,,,,,,,,,,,,,,,,890.1543858999939,None,murder,silent,red,66,195,888.1522465000016,None,None,888.1522465000016,None,,,,,,,,,,,,,,,,,,,,,,,,,,,,,,,,,NC15,001,2020_Mar_10_1219,ProdSingRedo,3.2.3,59.95570472483677,
53,0,53,0,,,,,,,,,,,,,,,,,,,,,,,,,,,,892.6714435000031,None,medicine,aloud,blue,40,186,890.6643261999998,None,None,890.6643261999998,None,,,,,,,,,,,,,,,,,,,,,,,,,,,,,,,,,NC15,001,2020_Mar_10_1219,ProdSingRedo,3.2.3,59.95570472483677,
54,0,54,0,,,,,,,,,,,,,,,,,,,,,,,,,,,,895.1870674999955,None,population,aloud,blue,58,227,893.1902445000014,None,None,893.1902445000014,None,,,,,,,,,,,,,,,,,,,,,,,,,,,,,,,,,NC15,001,2020_Mar_10_1219,ProdSingRedo,3.2.3,59.95570472483677,
55,0,55,0,,,,,,,,,,,,,,,,,,,,,,,,,,,,897.7050007000071,None,discussion,silent,red,86,96,895.705489999993,None,None,895.705489999993,None,,,,,,,,,,,,,,,,,,,,,,,,,,,,,,,,,NC15,001,2020_Mar_10_1219,ProdSingRedo,3.2.3,59.95570472483677,
56,0,56,0,,,,,,,,,,,,,,,,,,,,,,,,,,,,900.221742099995,None,space,sing,yellow,22,297,898.217862599995,None,None,898.217862599995,None,,,,,,,,,,,,,,,,,,,,,,,,,,,,,,,,,NC15,001,2020_Mar_10_1219,ProdSingRedo,3.2.3,59.95570472483677,
57,0,57,0,,,,,,,,,,,,,,,,,,,,,,,,,,,,902.7387427000067,None,front,silent,red,62,134,900.7335562999942,None,None,900.7335562999942,None,,,,,,,,,,,,,,,,,,,,,,,,,,,,,,,,,NC15,001,2020_Mar_10_1219,ProdSingRedo,3.2.3,59.95570472483677,
58,0,58,0,,,,,,,,,,,,,,,,,,,,,,,,,,,,905.2555029000068,None,industry,silent,red,76,161,903.2554774000018,None,None,903.2554774000018,None,,,,,,,,,,,,,,,,,,,,,,,,,,,,,,,,,NC15,001,2020_Mar_10_1219,ProdSingRedo,3.2.3,59.95570472483677,
59,0,59,0,,,,,,,,,,,,,,,,,,,,,,,,,,,,907.7723361999961,None,orchestra,aloud,blue,59,206,905.7683801999956,None,None,905.7683801999956,None,,,,,,,,,,,,,,,,,,,,,,,,,,,,,,,,,NC15,001,2020_Mar_10_1219,ProdSingRedo,3.2.3,59.95570472483677,
60,0,60,0,,,,,,,,,,,,,,,,,,,,,,,,,,,,910.2890354999981,None,heavy,sing,yellow,16,151,908.2885634999984,None,None,908.2885634999984,None,,,,,,,,,,,,,,,,,,,,,,,,,,,,,,,,,NC15,001,2020_Mar_10_1219,ProdSingRedo,3.2.3,59.95570472483677,
61,0,61,0,,,,,,,,,,,,,,,,,,,,,,,,,,,,912.807409800007,None,shock,sing,yellow,4,284,910.8006675999932,None,None,910.8006675999932,None,,,,,,,,,,,,,,,,,,,,,,,,,,,,,,,,,NC15,001,2020_Mar_10_1219,ProdSingRedo,3.2.3,59.95570472483677,
62,0,62,0,,,,,,,,,,,,,,,,,,,,,,,,,,,,915.3227836000005,None,profession,aloud,blue,31,241,913.3227217999956,None,None,913.3227217999956,None,,,,,,,,,,,,,,,,,,,,,,,,,,,,,,,,,NC15,001,2020_Mar_10_1219,ProdSingRedo,3.2.3,59.95570472483677,
63,0,63,0,,,,,,,,,,,,,,,,,,,,,,,,,,,,917.8395569999993,None,style,silent,red,72,311,915.8349813999957,None,None,915.8349813999957,None,,,,,,,,,,,,,,,,,,,,,,,,,,,,,,,,,NC15,001,2020_Mar_10_1219,ProdSingRedo,3.2.3,59.95570472483677,
64,0,64,0,,,,,,,,,,,,,,,,,,,,,,,,,,,,920.3564311999944,None,solution,aloud,blue,39,294,918.3544700000057,None,None,918.3544700000057,None,,,,,,,,,,,,,,,,,,,,,,,,,,,,,,,,,NC15,001,2020_Mar_10_1219,ProdSingRedo,3.2.3,59.95570472483677,
65,0,65,0,,,,,,,,,,,,,,,,,,,,,,,,,,,,922.8732447999937,None,short,silent,red,82,285,920.8654824999976,None,None,920.8654824999976,None,,,,,,,,,,,,,,,,,,,,,,,,,,,,,,,,,NC15,001,2020_Mar_10_1219,ProdSingRedo,3.2.3,59.95570472483677,
66,0,66,0,,,,,,,,,,,,,,,,,,,,,,,,,,,,925.3888218999928,None,degree,silent,red,73,89,923.3885965999943,None,None,923.3885965999943,None,,,,,,,,,,,,,,,,,,,,,,,,,,,,,,,,,NC15,001,2020_Mar_10_1219,ProdSingRedo,3.2.3,59.95570472483677,
67,0,67,0,,,,,,,,,,,,,,,,,,,,,,,,,,,,927.9068918999983,None,crisis,aloud,blue,34,79,925.9020700999972,None,None,925.9020700999972,None,,,,,,,,,,,,,,,,,,,,,,,,,,,,,,,,,NC15,001,2020_Mar_10_1219,ProdSingRedo,3.2.3,59.95570472483677,
68,0,68,0,,,,,,,,,,,,,,,,,,,,,,,,,,,,930.4239022999973,None,travel,sing,yellow,25,338,928.4203739999939,None,None,928.4203739999939,None,,,,,,,,,,,,,,,,,,,,,,,,,,,,,,,,,NC15,001,2020_Mar_10_1219,ProdSingRedo,3.2.3,59.95570472483677,
69,0,69,0,,,,,,,,,,,,,,,,,,,,,,,,,,,,932.9405986000056,None,number,sing,yellow,19,203,930.9481962999998,None,None,930.9481962999998,None,,,,,,,,,,,,,,,,,,,,,,,,,,,,,,,,,NC15,001,2020_Mar_10_1219,ProdSingRedo,3.2.3,59.95570472483677,
70,0,70,0,,,,,,,,,,,,,,,,,,,,,,,,,,,,935.4576096999954,None,brief,silent,red,75,28,933.4589618000027,None,None,933.4589618000027,None,,,,,,,,,,,,,,,,,,,,,,,,,,,,,,,,,NC15,001,2020_Mar_10_1219,ProdSingRedo,3.2.3,59.95570472483677,
71,0,71,0,,,,,,,,,,,,,,,,,,,,,,,,,,,,937.9734586999984,None,audience,silent,red,79,14,935.9716845999938,None,None,935.9716845999938,None,,,,,,,,,,,,,,,,,,,,,,,,,,,,,,,,,NC15,001,2020_Mar_10_1219,ProdSingRedo,3.2.3,59.95570472483677,
72,0,72,0,,,,,,,,,,,,,,,,,,,,,,,,,,,,940.4911483000033,None,pattern,sing,yellow,11,214,938.4893509999965,None,None,938.4893509999965,None,,,,,,,,,,,,,,,,,,,,,,,,,,,,,,,,,NC15,001,2020_Mar_10_1219,ProdSingRedo,3.2.3,59.95570472483677,
73,0,73,0,,,,,,,,,,,,,,,,,,,,,,,,,,,,943.0079406000004,None,finish,aloud,blue,33,130,940.9925483999978,None,None,940.9925483999978,None,,,,,,,,,,,,,,,,,,,,,,,,,,,,,,,,,NC15,001,2020_Mar_10_1219,ProdSingRedo,3.2.3,59.95570472483677,
74,0,74,0,,,,,,,,,,,,,,,,,,,,,,,,,,,,945.5247567000042,None,addition,aloud,blue,53,2,943.5196222999948,None,None,943.5196222999948,None,,,,,,,,,,,,,,,,,,,,,,,,,,,,,,,,,NC15,001,2020_Mar_10_1219,ProdSingRedo,3.2.3,59.95570472483677,
75,0,75,0,,,,,,,,,,,,,,,,,,,,,,,,,,,,948.0423062000045,None,alert,sing,yellow,17,6,946.0362922000058,None,None,946.0362922000058,None,,,,,,,,,,,,,,,,,,,,,,,,,,,,,,,,,NC15,001,2020_Mar_10_1219,ProdSingRedo,3.2.3,59.95570472483677,
76,0,76,0,,,,,,,,,,,,,,,,,,,,,,,,,,,,950.5583774999977,None,harmony,aloud,blue,55,148,948.5601423000044,None,None,948.5601423000044,None,,,,,,,,,,,,,,,,,,,,,,,,,,,,,,,,,NC15,001,2020_Mar_10_1219,ProdSingRedo,3.2.3,59.95570472483677,
77,0,77,0,,,,,,,,,,,,,,,,,,,,,,,,,,,,953.078127700006,None,whole,silent,red,80,355,951.0712286000053,None,None,951.0712286000053,None,,,,,,,,,,,,,,,,,,,,,,,,,,,,,,,,,NC15,001,2020_Mar_10_1219,ProdSingRedo,3.2.3,59.95570472483677,
78,0,78,0,,,,,,,,,,,,,,,,,,,,,,,,,,,,955.5909023999993,None,incident,silent,red,83,158,953.5856200999988,None,None,953.5856200999988,None,,,,,,,,,,,,,,,,,,,,,,,,,,,,,,,,,NC15,001,2020_Mar_10_1219,ProdSingRedo,3.2.3,59.95570472483677,
79,0,79,0,,,,,,,,,,,,,,,,,,,,,,,,,,,,958.108928600006,None,rough,aloud,blue,52,266,956.109420599998,None,None,956.109420599998,None,,,,,,,,,,,,,,,,,,,,,,,,,,,,,,,,,NC15,001,2020_Mar_10_1219,ProdSingRedo,3.2.3,59.95570472483677,
80,0,80,0,,,,,,,,,,,,,,,,,,,,,,,,,,,,960.6257362000033,None,region,sing,yellow,23,256,958.6247316999943,None,None,958.6247316999943,None,,,,,,,,,,,,,,,,,,,,,,,,,,,,,,,,,NC15,001,2020_Mar_10_1219,ProdSingRedo,3.2.3,59.95570472483677,
81,0,81,0,,,,,,,,,,,,,,,,,,,,,,,,,,,,963.1426129000029,None,match,sing,yellow,29,181,961.1394932999974,None,None,961.1394932999974,None,,,,,,,,,,,,,,,,,,,,,,,,,,,,,,,,,NC15,001,2020_Mar_10_1219,ProdSingRedo,3.2.3,59.95570472483677,
82,0,82,0,,,,,,,,,,,,,,,,,,,,,,,,,,,,965.6592669999955,None,government,silent,red,88,139,963.6596098000009,None,None,963.6596098000009,None,,,,,,,,,,,,,,,,,,,,,,,,,,,,,,,,,NC15,001,2020_Mar_10_1219,ProdSingRedo,3.2.3,59.95570472483677,
83,0,83,0,,,,,,,,,,,,,,,,,,,,,,,,,,,,968.1763045999978,None,agreement,sing,yellow,26,5,966.1749882000004,None,None,966.1749882000004,None,,,,,,,,,,,,,,,,,,,,,,,,,,,,,,,,,NC15,001,2020_Mar_10_1219,ProdSingRedo,3.2.3,59.95570472483677,
84,0,84,0,,,,,,,,,,,,,,,,,,,,,,,,,,,,970.6930581000051,None,little,sing,yellow,7,174,968.686738400007,None,None,968.686738400007,None,,,,,,,,,,,,,,,,,,,,,,,,,,,,,,,,,NC15,001,2020_Mar_10_1219,ProdSingRedo,3.2.3,59.95570472483677,
85,0,85,0,,,,,,,,,,,,,,,,,,,,,,,,,,,,973.2099020000023,None,afternoon,sing,yellow,14,3,971.2076180000004,None,None,971.2076180000004,None,,,,,,,,,,,,,,,,,,,,,,,,,,,,,,,,,NC15,001,2020_Mar_10_1219,ProdSingRedo,3.2.3,59.95570472483677,
86,0,86,0,,,,,,,,,,,,,,,,,,,,,,,,,,,,975.7269126000028,None,mankind,sing,yellow,6,178,973.7265738999995,None,None,973.7265738999995,None,,,,,,,,,,,,,,,,,,,,,,,,,,,,,,,,,NC15,001,2020_Mar_10_1219,ProdSingRedo,3.2.3,59.95570472483677,
87,0,87,0,,,,,,,,,,,,,,,,,,,,,,,,,,,,978.244143200005,None,youth,aloud,blue,57,359,976.2431050000014,None,None,976.2431050000014,None,,,,,,,,,,,,,,,,,,,,,,,,,,,,,,,,,NC15,001,2020_Mar_10_1219,ProdSingRedo,3.2.3,59.95570472483677,
88,0,88,0,,,,,,,,,,,,,,,,,,,,,,,,,,,,980.7605337999994,None,election,silent,red,70,109,978.7529114000063,None,None,978.7529114000063,None,,,,,,,,,,,,,,,,,,,,,,,,,,,,,,,,,NC15,001,2020_Mar_10_1219,ProdSingRedo,3.2.3,59.95570472483677,
89,0,89,0,,,,,,,,,,,,,,,,,,,,,,,,,,,,983.2773612000019,None,benefit,silent,red,78,20,981.277668900002,None,None,981.277668900002,None,,,,,,,,,,,,,,,,,,,,,,,,,,,,,,,,,NC15,001,2020_Mar_10_1219,ProdSingRedo,3.2.3,59.95570472483677,
,,,,,,,,,,,,,,,,,,,,,,,,,,,,,,,,,,,,,,,,,,,983.7772028000036,None,k,92.23065610000049,983.7772028000036,None,,,,,,,,,,,,,,,,,,,,,,,,,,,NC15,001,2020_Mar_10_1219,ProdSingRedo,3.2.3,59.95570472483677,
,,,,0,0,0,0,,,,,,,,,,,,,,,,,,,,,,,,1097.8479303000058,None,,,,,,,,,,,,,,,,,general,new_b,white,0,120,135,1076.558411200007,None,1076.558411200007,None,1,9.94507380000141,1076.558411200007,None,1086.5606700000062,None,1087.082177999997,None,1087.082177999997,None,n,10.725347799991141,1087.082177999997,None,,,NC15,001,2020_Mar_10_1219,ProdSingRedo,3.2.3,59.95570472483677,
,,,,1,0,1,0,,,,,,,,,,,,,,,,,,,,,,,,1108.7455409999966,None,,,,,,,,,,,,,,,,,swift,aloud,white,1,32,320,1098.3749054999935,None,1098.3749054999935,None,6,5.712779000008595,1098.3749054999935,None,1104.1415099000005,None,1104.666330299995,None,1104.666330299995,None,r,4.045330799999647,1104.666330299995,None,,,NC15,001,2020_Mar_10_1219,ProdSingRedo,3.2.3,59.95570472483677,
,,,,2,0,2,0,,,,,,,,,,,,,,,,,,,,,,,,1115.1970713000046,None,,,,,,,,,,,,,,,,,character,sing,white,2,21,46,1109.2764088999975,None,1109.2764088999975,None,6,3.5794057000020985,1109.2764088999975,None,1112.9197581000044,None,1113.434229999999,None,1113.434229999999,None,r,1.7255090000107884,1113.434229999999,None,,,NC15,001,2020_Mar_10_1219,ProdSingRedo,3.2.3,59.95570472483677,
,,,,3,0,3,0,,,,,,,,,,,,,,,,,,,,,,,,1122.2947586999944,None,,,,,,,,,,,,,,,,,territory,new_b,white,3,138,324,1115.720942800006,None,1115.720942800006,None,1,2.942715599987423,1115.720942800006,None,1118.712056599994,None,1119.2288795000059,None,1119.2288795000059,None,n,3.0268018000060692,1119.2288795000059,None,,,NC15,001,2020_Mar_10_1219,ProdSingRedo,3.2.3,59.95570472483677,
,,,,4,0,4,0,,,,,,,,,,,,,,,,,,,,,,,,1128.9555850000033,None,,,,,,,,,,,,,,,,,history,new_b,white,4,143,153,1122.8296483000013,None,1122.8296483000013,None,2,3.546071500008111,1122.8296483000013,None,1126.4260933000041,None,1126.9478499999968,None,1126.9478499999968,None,n,1.9795432000100845,1126.9478499999968,None,,,NC15,001,2020_Mar_10_1219,ProdSingRedo,3.2.3,59.95570472483677,
,,,,5,0,5,0,,,,,,,,,,,,,,,,,,,,,,,,1137.0796951999946,None,,,,,,,,,,,,,,,,,afternoon,sing,white,5,14,3,1129.4875975000032,None,1129.4875975000032,None,6,4.648180799995316,1129.4875975000032,None,1134.173987000002,None,1134.7043231999996,None,1134.7043231999996,None,r,2.3433296000002883,1134.7043231999996,None,,,NC15,001,2020_Mar_10_1219,ProdSingRedo,3.2.3,59.95570472483677,
,,,,6,0,6,0,,,,,,,,,,,,,,,,,,,,,,,,1144.4467724999995,None,,,,,,,,,,,,,,,,,author,new_c,white,6,173,15,1137.6049658999982,None,1137.6049658999982,None,5,4.618581300004735,1137.6049658999982,None,1142.2720866000018,None,1142.7830815000052,None,1142.7830815000052,None,f,1.632531100010965,1142.7830815000052,None,,,NC15,001,2020_Mar_10_1219,ProdSingRedo,3.2.3,59.95570472483677,
,,,,7,0,7,0,,,,,,,,,,,,,,,,,,,,,,,,1150.496664899998,None,,,,,,,,,,,,,,,,,discussion,silent,white,7,86,96,1144.9742121000018,None,1144.9742121000018,None,6,2.9053189999976894,1144.9742121000018,None,1147.9309044999973,None,1148.4491609999968,None,1148.4491609999968,None,r,2.0225675999972736,1148.4491609999968,None,,,NC15,001,2020_Mar_10_1219,ProdSingRedo,3.2.3,59.95570472483677,
,,,,8,0,8,0,,,,,,,,,,,,,,,,,,,,,,,,1154.447136200004,None,,,,,,,,,,,,,,,,,industry,silent,white,8,76,161,1151.029406600006,None,1151.029406600006,None,6,1.9862435999966692,1151.029406600006,None,1153.0696914,None,1153.5831586999993,None,1153.5831586999993,None,r,0.8324388000037288,1153.5831586999993,None,,,NC15,001,2020_Mar_10_1219,ProdSingRedo,3.2.3,59.95570472483677,
,,,,9,0,9,0,,,,,,,,,,,,,,,,,,,,,,,,1158.6477207999997,None,,,,,,,,,,,,,,,,,match,sing,white,9,29,181,1154.9744608000037,None,1154.9744608000037,None,6,2.041140799992718,1154.9744608000037,None,1157.0596761000052,None,1157.583166700002,None,1157.583166700002,None,r,1.032705600009649,1157.583166700002,None,,,NC15,001,2020_Mar_10_1219,ProdSingRedo,3.2.3,59.95570472483677,
,,,,10,0,10,0,,,,,,,,,,,,,,,,,,,,,,,,1165.0397989000048,None,,,,,,,,,,,,,,,,,background,new_b,white,10,122,16,1159.190469299996,None,1159.190469299996,None,3,3.337164999989909,1159.190469299996,None,1162.5882068999927,None,1163.1091651000024,None,1163.1091651000024,None,f,1.9060991000005743,1163.1091651000024,None,,,NC15,001,2020_Mar_10_1219,ProdSingRedo,3.2.3,59.95570472483677,
,,,,11,0,11,0,,,,,,,,,,,,,,,,,,,,,,,,1169.7820014000026,None,,,,,,,,,,,,,,,,,scale,aloud,white,11,35,272,1165.5550249999942,None,1165.5550249999942,None,6,3.212711100000888,1165.5550249999942,None,1168.8146356999932,None,1169.3387744999927,None,1169.3387744999927,None,r,0.4128175000078045,1169.3387744999927,None,,,NC15,001,2020_Mar_10_1219,ProdSingRedo,3.2.3,59.95570472483677,
,,,,12,0,12,0,,,,,,,,,,,,,,,,,,,,,,,,1176.0359307000035,None,,,,,,,,,,,,,,,,,clear,sing,white,12,18,52,1170.3084181000013,None,1170.3084181000013,None,2,3.1713849999941885,1170.3084181000013,None,1173.5287398999935,None,1174.054420600005,None,1174.054420600005,None,n,1.9531073999969522,1174.054420600005,None,,,NC15,001,2020_Mar_10_1219,ProdSingRedo,3.2.3,59.95570472483677,
,,,,13,0,13,0,,,,,,,,,,,,,,,,,,,,,,,,1181.0993450999958,None,,,,,,,,,,,,,,,,,testimony,new_b,white,13,129,325,1176.5587513000064,None,1176.5587513000064,None,6,2.34529699999257,1176.5587513000064,None,1178.9481743999931,None,1179.4685969999991,None,1179.4685969999991,None,r,1.5949642000050517,1179.4685969999991,None,,,NC15,001,2020_Mar_10_1219,ProdSingRedo,3.2.3,59.95570472483677,
,,,,14,0,14,0,,,,,,,,,,,,,,,,,,,,,,,,1188.2853476000018,None,,,,,,,,,,,,,,,,,impact,new_b,white,14,123,157,1181.625490899998,None,1181.625490899998,None,1,3.4381374000076903,1181.625490899998,None,1185.1106945000065,None,1185.6355239999975,None,1185.6355239999975,None,n,2.6203538999980083,1185.6355239999975,None,,,NC15,001,2020_Mar_10_1219,ProdSingRedo,3.2.3,59.95570472483677,
,,,,15,0,15,0,,,,,,,,,,,,,,,,,,,,,,,,1193.551226399999,None,,,,,,,,,,,,,,,,,cross,new_a,white,15,105,80,1188.8063865000004,None,1188.8063865000004,None,1,3.7290442999947118,1188.8063865000004,None,1192.5695724999969,None,1193.080401500003,None,1193.080401500003,None,n,0.43920409999554977,1193.080401500003,None,,,NC15,001,2020_Mar_10_1219,ProdSingRedo,3.2.3,59.95570472483677,
,,,,16,0,16,0,,,,,,,,,,,,,,,,,,,,,,,,1196.025492300003,None,,,,,,,,,,,,,,,,,route,new_a,white,16,111,267,1194.0778808000032,None,1194.0778808000032,None,1,1.097348499999498,1194.0778808000032,None,1195.213761100007,None,1195.723676099995,None,1195.723676099995,None,n,0.27552660000219475,1195.723676099995,None,,,NC15,001,2020_Mar_10_1219,ProdSingRedo,3.2.3,59.95570472483677,
,,,,17,0,17,0,,,,,,,,,,,,,,,,,,,,,,,,1201.517558099993,None,,,,,,,,,,,,,,,,,surface,new_c,white,17,165,316,1196.541548299996,None,1196.541548299996,None,3,3.9781455999909667,1196.541548299996,None,1200.5726458999998,None,1201.0881042999972,None,1201.0881042999972,None,f,0.3994449000019813,1201.0881042999972,None,,,NC15,001,2020_Mar_10_1219,ProdSingRedo,3.2.3,59.95570472483677,
,,,,18,0,18,0,,,,,,,,,,,,,,,,,,,,,,,,1208.0036314000026,None,,,,,,,,,,,,,,,,,style,silent,white,18,72,311,1202.0469560000056,None,1202.0469560000056,None,5,4.400496599992039,1202.0469560000056,None,1206.5043079000025,None,1207.0244951000059,None,1207.0244951000059,None,f,0.9513755000079982,1207.0244951000059,None,,,NC15,001,2020_Mar_10_1219,ProdSingRedo,3.2.3,59.95570472483677,
,,,,19,0,19,0,,,,,,,,,,,,,,,,,,,,,,,,1212.1193615999946,None,,,,,,,,,,,,,,,,,rough,aloud,white,19,52,266,1208.5286873000005,None,1208.5286873000005,None,6,2.5348645000049146,1208.5286873000005,None,1211.1153997999936,None,1211.6392374999996,None,1211.6392374999996,None,r,0.4402910999924643,1211.6392374999996,None,,,NC15,001,2020_Mar_10_1219,ProdSingRedo,3.2.3,59.95570472483677,
,,,,20,0,20,0,,,,,,,,,,,,,,,,,,,,,,,,1217.218847600001,None,,,,,,,,,,,,,,,,,still,silent,white,20,67,304,1212.6404294999957,None,1212.6404294999957,None,2,3.0789810999995098,1212.6404294999957,None,1215.7639505999978,None,1216.2834146999958,None,1216.2834146999958,None,f,0.900128199995379,1216.2834146999958,None,,,NC15,001,2020_Mar_10_1219,ProdSingRedo,3.2.3,59.95570472483677,
,,,,21,0,21,0,,,,,,,,,,,,,,,,,,,,,,,,1221.8039172999997,None,,,,,,,,,,,,,,,,,edition,new_b,white,21,141,107,1217.7444123000023,None,1217.7444123000023,None,1,2.1271428000036394,1217.7444123000023,None,1219.9178413000045,None,1220.435013299997,None,1220.435013299997,None,n,1.3324729000014486,1220.435013299997,None,,,NC15,001,2020_Mar_10_1219,ProdSingRedo,3.2.3,59.95570472483677,
,,,,22,0,22,0,,,,,,,,,,,,,,,,,,,,,,,,1227.0540146999992,None,,,,,,,,,,,,,,,,,sunset,new_a,white,22,112,315,1222.3315507999941,None,1222.3315507999941,None,1,2.7636034000024665,1222.3315507999941,None,1225.131810699997,None,1225.6424732000014,None,1225.6424732000014,None,n,1.3816403000091668,1225.6424732000014,None,,,NC15,001,2020_Mar_10_1219,ProdSingRedo,3.2.3,59.95570472483677,
,,,,23,0,23,0,,,,,,,,,,,,,,,,,,,,,,,,1231.0057350999996,None,,,,,,,,,,,,,,,,,short,silent,white,23,82,285,1227.5741132999974,None,1227.5741132999974,None,1,2.5214194000000134,1227.5741132999974,None,1230.1481801000045,None,1230.6666568999935,None,1230.6666568999935,None,n,0.300805599996238,1230.6666568999935,None,,,NC15,001,2020_Mar_10_1219,ProdSingRedo,3.2.3,59.95570472483677,
,,,,24,0,24,0,,,,,,,,,,,,,,,,,,,,,,,,1234.7886144999939,None,,,,,,,,,,,,,,,,,company,aloud,white,24,50,64,1231.5325168999989,None,1231.5325168999989,None,1,2.266963499991107,1231.5325168999989,None,1233.8597379999992,None,1234.372212999995,None,1234.372212999995,None,n,0.37925889999314677,1234.372212999995,None,,,NC15,001,2020_Mar_10_1219,ProdSingRedo,3.2.3,59.95570472483677,
,,,,25,0,25,0,,,,,,,,,,,,,,,,,,,,,,,,1239.635748899993,None,,,,,,,,,,,,,,,,,thick,silent,white,25,65,327,1235.3109671999991,None,1235.3109671999991,None,6,2.016726000001654,1235.3109671999991,None,1237.370240499993,None,1237.8871712999971,None,1237.8871712999971,None,r,1.7123724000121001,1237.8871712999971,None,,,NC15,001,2020_Mar_10_1219,ProdSingRedo,3.2.3,59.95570472483677,
,,,,26,0,26,0,,,,,,,,,,,,,,,,,,,,,,,,1243.2035495000018,None,,,,,,,,,,,,,,,,,beauty,aloud,white,26,51,18,1240.1672810000018,None,1240.1672810000018,None,6,2.056181599997217,1240.1672810000018,None,1242.276555599994,None,1242.793840600003,None,1242.793840600003,None,r,0.3820276000042213,1242.793840600003,None,,,NC15,001,2020_Mar_10_1219,ProdSingRedo,3.2.3,59.95570472483677,
,,,,27,0,27,0,,,,,,,,,,,,,,,,,,,,,,,,1246.8709355000028,None,,,,,,,,,,,,,,,,,danger,new_a,white,27,96,85,1243.7345287000062,None,1243.7345287000062,None,1,2.209137700003339,1243.7345287000062,None,1245.983819400004,None,1246.508171900001,None,1246.508171900001,None,n,0.33147550000285264,1246.508171900001,None,,,NC15,001,2020_Mar_10_1219,ProdSingRedo,3.2.3,59.95570472483677,
,,,,28,0,28,0,,,,,,,,,,,,,,,,,,,,,,,,1250.3553491000057,None,,,,,,,,,,,,,,,,,raise,new_b,white,28,131,250,1247.3927156999998,None,1247.3927156999998,None,1,2.2068742999981623,1247.3927156999998,None,1249.6539281000005,None,1250.1741220999975,None,1250.1741220999975,None,n,0.15350289999332745,1250.1741220999975,None,,,NC15,001,2020_Mar_10_1219,ProdSingRedo,3.2.3,59.95570472483677,
,,,,29,0,29,0,,,,,,,,,,,,,,,,,,,,,,,,1257.5220322999958,None,,,,,,,,,,,,,,,,,harmony,aloud,white,29,55,148,1250.8862435000046,None,1250.8862435000046,None,6,5.073568899999373,1250.8862435000046,None,1256.0020362000068,None,1256.5268759000028,None,1256.5268759000028,None,n,0.960597900004359,1256.5268759000028,None,,,NC15,001,2020_Mar_10_1219,ProdSingRedo,3.2.3,59.95570472483677,
,,,,30,0,30,0,,,,,,,,,,,,,,,,,,,,,,,,1260.8208348000044,None,,,,,,,,,,,,,,,,,guest,new_a,white,30,117,146,1258.0429976000014,None,1258.0429976000014,None,2,1.7644625999964774,1258.0429976000014,None,1259.8507899999968,None,1260.3715255999996,None,1260.3715255999996,None,f,0.42004139999335166,1260.3715255999996,None,,,NC15,001,2020_Mar_10_1219,ProdSingRedo,3.2.3,59.95570472483677,
,,,,31,0,31,0,,,,,,,,,,,,,,,,,,,,,,,,1266.970942,None,,,,,,,,,,,,,,,,,court,silent,white,31,81,75,1261.3571358000045,None,1261.3571358000045,None,6,2.114434299990535,1261.3571358000045,None,1263.522046900005,None,1264.0419264999946,None,1264.0419264999946,None,r,2.893515399991884,1264.0419264999946,None,,,NC15,001,2020_Mar_10_1219,ProdSingRedo,3.2.3,59.95570472483677,
,,,,32,0,32,0,,,,,,,,,,,,,,,,,,,,,,,,1272.5064126999932,None,,,,,,,,,,,,,,,,,month,new_a,white,32,90,193,1267.494574299999,None,1267.494574299999,None,2,2.905044099999941,1267.494574299999,None,1270.4551160999981,None,1270.9706654000038,None,1270.9706654000038,None,n,1.5089336000091862,1270.9706654000038,None,,,NC15,001,2020_Mar_10_1219,ProdSingRedo,3.2.3,59.95570472483677,
,,,,33,0,33,0,,,,,,,,,,,,,,,,,,,,,,,,1276.1912001000019,None,,,,,,,,,,,,,,,,,vision,aloud,white,33,56,347,1273.0349348000018,None,1273.0349348000018,None,2,1.660667400006787,1273.0349348000018,None,1274.7371627999964,None,1275.2558449000062,None,1275.2558449000062,None,f,0.9036473000014666,1275.2558449000062,None,,,NC15,001,2020_Mar_10_1219,ProdSingRedo,3.2.3,59.95570472483677,
,,,,34,0,34,0,,,,,,,,,,,,,,,,,,,,,,,,1280.7747018999944,None,,,,,,,,,,,,,,,,,career,sing,white,34,12,42,1276.7150544000033,None,1276.7150544000033,None,6,2.81311149999965,1276.7150544000033,None,1279.5728324999945,None,1280.092173099998,None,1280.092173099998,None,r,0.6512959999963641,1280.092173099998,None,,,NC15,001,2020_Mar_10_1219,ProdSingRedo,3.2.3,59.95570472483677,
,,,,35,0,35,0,,,,,,,,,,,,,,,,,,,,,,,,1284.0053461000061,None,,,,,,,,,,,,,,,,,split,sing,white,35,28,299,1281.2952081999974,None,1281.2952081999974,None,6,1.8084043999988353,1281.2952081999974,None,1283.1529193000024,None,1283.669516199996,None,1283.669516199996,None,r,0.2979767999931937,1283.669516199996,None,,,NC15,001,2020_Mar_10_1219,ProdSingRedo,3.2.3,59.95570472483677,
,,,,36,0,36,0,,,,,,,,,,,,,,,,,,,,,,,,1287.2228128999996,None,,,,,,,,,,,,,,,,,captain,silent,white,36,77,41,1284.5305766999954,None,1284.5305766999954,None,6,1.7653485000046203,1284.5305766999954,None,1286.3458645000064,None,1286.8639468000038,None,1286.8639468000038,None,r,0.31964039999002125,1286.8639468000038,None,,,NC15,001,2020_Mar_10_1219,ProdSingRedo,3.2.3,59.95570472483677,
,,,,37,0,37,0,,,,,,,,,,,,,,,,,,,,,,,,1291.2420444000018,None,,,,,,,,,,,,,,,,,union,new_c,white,37,151,344,1287.748161800002,None,1287.748161800002,None,2,2.2752940000063973,1287.748161800002,None,1290.0738420999987,None,1290.5900002999988,None,1290.5900002999988,None,n,0.6174810999946203,1290.5900002999988,None,,,NC15,001,2020_Mar_10_1219,ProdSingRedo,3.2.3,59.95570472483677,
,,,,38,0,38,0,,,,,,,,,,,,,,,,,,,,,,,,1296.8567899000045,None,,,,,,,,,,,,,,,,,crowd,new_b,white,38,133,81,1291.7659255000035,None,1291.7659255000035,None,3,2.7376270000095246,1291.7659255000035,None,1294.5575310999993,None,1295.0774450000026,None,1295.0774450000026,None,n,1.754210700004478,1295.0774450000026,None,,,NC15,001,2020_Mar_10_1219,ProdSingRedo,3.2.3,59.95570472483677,
,,,,39,0,39,0,,,,,,,,,,,,,,,,,,,,,,,,1302.5903089000058,None,,,,,,,,,,,,,,,,,audience,silent,white,39,79,14,1297.3840475000034,None,1297.3840475000034,None,6,2.527469000007841,1297.3840475000034,None,1299.9582323000068,None,1300.4751348999998,None,1300.4751348999998,None,r,2.0842864000005648,1300.4751348999998,None,,,NC15,001,2020_Mar_10_1219,ProdSingRedo,3.2.3,59.95570472483677,
,,,,40,0,40,0,,,,,,,,,,,,,,,,,,,,,,,,1306.0068578000064,None,,,,,,,,,,,,,,,,,mankind,sing,white,40,6,178,1303.1233414000017,None,1303.1233414000017,None,6,1.9321955999912461,1303.1233414000017,None,1305.1091111999995,None,1305.6318492999999,None,1305.6318492999999,None,r,0.3356013000011444,1305.6318492999999,None,,,NC15,001,2020_Mar_10_1219,ProdSingRedo,3.2.3,59.95570472483677,
,,,,41,0,41,0,,,,,,,,,,,,,,,,,,,,,,,,1309.8256086000038,None,,,,,,,,,,,,,,,,,notice,new_a,white,41,106,201,1306.5315661000059,None,1306.5315661000059,None,1,1.9398957999947015,1306.5315661000059,None,1308.5186596999993,None,1309.039124899995,None,1309.039124899995,None,n,0.752353599993512,1309.039124899995,None,,,NC15,001,2020_Mar_10_1219,ProdSingRedo,3.2.3,59.95570472483677,
,,,,42,0,42,0,,,,,,,,,,,,,,,,,,,,,,,,1314.5419874999934,None,,,,,,,,,,,,,,,,,medicine,aloud,white,42,40,186,1310.3477519000007,None,1310.3477519000007,None,6,3.107697300001746,1310.3477519000007,None,1313.5042780999938,None,1314.0233765000012,None,1314.0233765000012,None,r,0.488054600005853,1314.0233765000012,None,,,NC15,001,2020_Mar_10_1219,ProdSingRedo,3.2.3,59.95570472483677,
,,,,43,0,43,0,,,,,,,,,,,,,,,,,,,,,,,,1317.6083409999992,None,,,,,,,,,,,,,,,,,crisis,aloud,white,43,34,79,1315.048278400005,None,1315.048278400005,None,6,1.5428777999914018,1315.048278400005,None,1316.6222379999963,None,1317.1405379000062,None,1317.1405379000062,None,r,0.4351423000043724,1317.1405379000062,None,,,NC15,001,2020_Mar_10_1219,ProdSingRedo,3.2.3,59.95570472483677,
,,,,44,0,44,0,,,,,,,,,,,,,,,,,,,,,,,,1320.5752941999963,None,,,,,,,,,,,,,,,,,orchestra,aloud,white,44,59,206,1318.1319628000056,None,1318.1319628000056,None,6,1.6516852999920957,1318.1319628000056,None,1319.8258667000046,None,1320.344573399998,None,1320.344573399998,None,r,0.20676989998901263,1320.344573399998,None,,,NC15,001,2020_Mar_10_1219,ProdSingRedo,3.2.3,59.95570472483677,
,,,,45,0,45,0,,,,,,,,,,,,,,,,,,,,,,,,1324.5417555000022,None,,,,,,,,,,,,,,,,,breath,new_b,white,45,127,27,1321.1044041999994,None,1321.1044041999994,None,1,2.4470730000030017,1321.1044041999994,None,1323.5999813999952,None,1324.1145759999927,None,1324.1145759999927,None,n,0.38888369999767747,1324.1145759999927,None,,,NC15,001,2020_Mar_10_1219,ProdSingRedo,3.2.3,59.95570472483677,
,,,,46,0,46,0,,,,,,,,,,,,,,,,,,,,,,,,1328.3927498999983,None,,,,,,,,,,,,,,,,,drink,aloud,white,46,46,105,1325.063348399999,None,1325.063348399999,None,1,2.592094999999972,1325.063348399999,None,1327.700622599994,None,1328.2128438999935,None,1328.2128438999935,None,n,0.15475180000066757,1328.2128438999935,None,,,NC15,001,2020_Mar_10_1219,ProdSingRedo,3.2.3,59.95570472483677,
,,,,47,0,47,0,,,,,,,,,,,,,,,,,,,,,,,,1331.5763628999994,None,,,,,,,,,,,,,,,,,individual,silent,white,47,71,160,1328.9211329999962,None,1328.9211329999962,None,1,1.7664084999996703,1328.9211329999962,None,1330.7443266000046,None,1331.2651123999967,None,1331.2651123999967,None,n,0.2783509999862872,1331.2651123999967,None,,,NC15,001,2020_Mar_10_1219,ProdSingRedo,3.2.3,59.95570472483677,
,,,,48,0,48,0,,,,,,,,,,,,,,,,,,,,,,,,1335.459694499994,None,,,,,,,,,,,,,,,,,damage,new_a,white,48,113,83,1332.1059339000058,None,1332.1059339000058,None,3,2.613494000004721,1332.1059339000058,None,1334.754608400006,None,1335.2809332000033,None,1335.2809332000033,None,f,0.15088450000621378,1335.2809332000033,None,,,NC15,001,2020_Mar_10_1219,ProdSingRedo,3.2.3,59.95570472483677,
,,,,49,0,49,0,,,,,,,,,,,,,,,,,,,,,,,,1338.8274196999992,None,,,,,,,,,,,,,,,,,trash,new_c,white,49,163,337,1335.988523699998,None,1335.988523699998,None,1,1.7307803000003332,1335.988523699998,None,1337.753145099996,None,1338.2790814000036,None,1338.2790814000036,None,n,0.5124079999950482,1338.2790814000036,None,,,NC15,001,2020_Mar_10_1219,ProdSingRedo,3.2.3,59.95570472483677,
,,,,50,0,50,0,,,,,,,,,,,,,,,,,,,,,,,,1342.6451697000011,None,,,,,,,,,,,,,,,,,pretty,silent,white,50,63,233,1339.3507919999975,None,1339.3507919999975,None,6,2.5686121999897296,1339.3507919999975,None,1341.9595762999961,None,1342.4780955000024,None,1342.4780955000024,None,r,0.12924779999593738,1342.4780955000024,None,,,NC15,001,2020_Mar_10_1219,ProdSingRedo,3.2.3,59.95570472483677,
,,,,51,0,51,0,,,,,,,,,,,,,,,,,,,,,,,,1345.669389799994,None,,,,,,,,,,,,,,,,,little,sing,white,51,7,174,1343.1686763000034,None,1343.1686763000034,None,6,1.7903918999945745,1343.1686763000034,None,1344.9942638999928,None,1345.5002261000045,None,1345.5002261000045,None,r,0.1388775999948848,1345.5002261000045,None,,,NC15,001,2020_Mar_10_1219,ProdSingRedo,3.2.3,59.95570472483677,
,,,,52,0,52,0,,,,,,,,,,,,,,,,,,,,,,,,1348.510097899998,None,,,,,,,,,,,,,,,,,disease,sing,white,52,8,97,1346.2047929999972,None,1346.2047929999972,None,6,1.4185902000026545,1346.2047929999972,None,1347.6786840999994,None,1348.1963237000018,None,1348.1963237000018,None,r,0.2831808000046294,1348.1963237000018,None,,,NC15,001,2020_Mar_10_1219,ProdSingRedo,3.2.3,59.95570472483677,
,,,,53,0,53,0,,,,,,,,,,,,,,,,,,,,,,,,1351.6609330000065,None,,,,,,,,,,,,,,,,,mayor,new_b,white,53,130,183,1349.040890999997,None,1349.040890999997,None,1,1.5504667000059271,1349.040890999997,None,1350.645754199999,None,1351.161755699999,None,1351.161755699999,None,n,0.4696945999894524,1351.161755699999,None,,,NC15,001,2020_Mar_10_1219,ProdSingRedo,3.2.3,59.95570472483677,
,,,,54,0,54,0,,,,,,,,,,,,,,,,,,,,,,,,1354.5946826,None,,,,,,,,,,,,,,,,,distance,aloud,white,54,42,100,1352.1902422999992,None,1352.1902422999992,None,6,1.6892007999995258,1352.1902422999992,None,1353.9218263999937,None,1354.448762999993,None,1354.448762999993,None,r,0.11069429999042768,1354.448762999993,None,,,NC15,001,2020_Mar_10_1219,ProdSingRedo,3.2.3,59.95570472483677,
,,,,55,0,55,0,,,,,,,,,,,,,,,,,,,,,,,,1357.211561899996,None,,,,,,,,,,,,,,,,,region,sing,white,55,23,256,1355.1221706999931,None,1355.1221706999931,None,6,1.4372022000025027,1355.1221706999931,None,1356.6132135999942,None,1357.1298341999936,None,1357.1298341999936,None,r,0.045492599994759075,1357.1298341999936,None,,,NC15,001,2020_Mar_10_1219,ProdSingRedo,3.2.3,59.95570472483677,
,,,,56,0,56,0,,,,,,,,,,,,,,,,,,,,,,,,1361.3967510999937,None,,,,,,,,,,,,,,,,,treatment,aloud,white,56,37,339,1357.733335900004,None,1357.733335900004,None,6,3.0021910999930697,1357.733335900004,None,1360.7799283000058,None,1361.2966892999975,None,1361.2966892999975,None,r,0.0710354000038933,1361.2966892999975,None,,,NC15,001,2020_Mar_10_1219,ProdSingRedo,3.2.3,59.95570472483677,
,,,,57,0,57,0,,,,,,,,,,,,,,,,,,,,,,,,1366.2451805000019,None,,,,,,,,,,,,,,,,,trail,new_b,white,57,144,336,1361.9203182000056,None,1361.9203182000056,None,1,1.655093500012299,1361.9203182000056,None,1363.626737300001,None,1364.1461115999991,None,1364.1461115999991,None,n,2.061300100001972,1364.1461115999991,None,,,NC15,001,2020_Mar_10_1219,ProdSingRedo,3.2.3,59.95570472483677,
,,,,58,0,58,0,,,,,,,,,,,,,,,,,,,,,,,,1371.3718948000023,None,,,,,,,,,,,,,,,,,birth,new_c,white,58,170,22,1366.771572800004,None,1366.771572800004,None,1,3.8758637999999337,1366.771572800004,None,1370.6896884000016,None,1371.213434899997,None,1371.213434899997,None,n,0.1378480999992462,1371.213434899997,None,,,NC15,001,2020_Mar_10_1219,ProdSingRedo,3.2.3,59.95570472483677,
,,,,59,0,59,0,,,,,,,,,,,,,,,,,,,,,,,,1375.0353333999956,None,,,,,,,,,,,,,,,,,story,silent,white,59,68,306,1371.900957299993,None,1371.900957299993,None,3,2.3143822999991244,1371.900957299993,None,1374.2603012000036,None,1374.7841696999967,None,1374.7841696999967,None,f,0.23086290000355802,1374.7841696999967,None,,,NC15,001,2020_Mar_10_1219,ProdSingRedo,3.2.3,59.95570472483677,
,,,,60,0,60,0,,,,,,,,,,,,,,,,,,,,,,,,1379.5307694999938,None,,,,,,,,,,,,,,,,,dream,sing,white,60,1,104,1375.539459000007,None,1375.539459000007,None,6,2.012280200011446,1375.539459000007,None,1377.5910575000016,None,1378.1143153000012,None,1378.1143153000012,None,r,1.3810212000098545,1378.1143153000012,None,,,NC15,001,2020_Mar_10_1219,ProdSingRedo,3.2.3,59.95570472483677,
,,,,61,0,61,0,,,,,,,,,,,,,,,,,,,,,,,,1383.5215611000021,None,,,,,,,,,,,,,,,,,oxygen,new_c,white,61,166,209,1380.0537011999986,None,1380.0537011999986,None,1,2.4178542000008747,1380.0537011999986,None,1382.5111343000026,None,1383.0345862999966,None,1383.0345862999966,None,n,0.4688443000050029,1383.0345862999966,None,,,NC15,001,2020_Mar_10_1219,ProdSingRedo,3.2.3,59.95570472483677,
,,,,62,0,62,0,,,,,,,,,,,,,,,,,,,,,,,,1386.476622999995,None,,,,,,,,,,,,,,,,,count,silent,white,62,87,72,1384.0398349000025,None,1384.0398349000025,None,1,1.7835258999984944,1384.0398349000025,None,1385.8729469999962,None,1386.4016368000011,None,1386.4016368000011,None,n,0.05360419998760335,1386.4016368000011,None,,,NC15,001,2020_Mar_10_1219,ProdSingRedo,3.2.3,59.95570472483677,
,,,,63,0,63,0,,,,,,,,,,,,,,,,,,,,,,,,1388.8461053999927,None,,,,,,,,,,,,,,,,,goose,new_a,white,63,114,138,1387.004065400004,None,1387.004065400004,None,1,1.2114180000062333,1387.004065400004,None,1388.2647799999977,None,1388.7822054999997,None,1388.7822054999997,None,n,0.02519159999792464,1388.7822054999997,None,,,NC15,001,2020_Mar_10_1219,ProdSingRedo,3.2.3,59.95570472483677,
,,,,64,0,64,0,,,,,,,,,,,,,,,,,,,,,,,,1392.2458576000063,None,,,,,,,,,,,,,,,,,weather,new_c,white,64,168,352,1389.3753339999967,None,1389.3753339999967,None,1,1.4799760000023525,1389.3753339999967,None,1390.898437900003,None,1391.4211699000007,None,1391.4211699000007,None,n,0.7861607999948319,1391.4211699000007,None,,,NC15,001,2020_Mar_10_1219,ProdSingRedo,3.2.3,59.95570472483677,
,,,,65,0,65,0,,,,,,,,,,,,,,,,,,,,,,,,1395.4815794000024,None,,,,,,,,,,,,,,,,,profession,aloud,white,65,31,241,1392.773928399998,None,1392.773928399998,None,6,1.913652599992929,1392.773928399998,None,1394.7335640999954,None,1395.2505704000068,None,1395.2505704000068,None,r,0.2049321999948006,1395.2505704000068,None,,,NC15,001,2020_Mar_10_1219,ProdSingRedo,3.2.3,59.95570472483677,
,,,,66,0,66,0,,,,,,,,,,,,,,,,,,,,,,,,1403.2295939000032,None,,,,,,,,,,,,,,,,,minute,sing,white,66,3,192,1396.005344300007,None,1396.005344300007,None,4,5.162030699997558,1396.005344300007,None,1401.2164440000051,None,1401.7339555999934,None,1401.7339555999934,None,f,1.4574018999992404,1401.7339555999934,None,,,NC15,001,2020_Mar_10_1219,ProdSingRedo,3.2.3,59.95570472483677,
,,,,67,0,67,0,,,,,,,,,,,,,,,,,,,,,,,,1406.1979081000027,None,,,,,,,,,,,,,,,,,population,aloud,white,67,58,227,1403.7618129000039,None,1403.7618129000039,None,6,1.709413799995673,1403.7618129000039,None,1405.4918981999945,None,1406.0232056999957,None,1406.0232056999957,None,r,0.14413580000109505,1406.0232056999957,None,,,NC15,001,2020_Mar_10_1219,ProdSingRedo,3.2.3,59.95570472483677,
,,,,68,0,68,0,,,,,,,,,,,,,,,,,,,,,,,,1411.376393300001,None,,,,,,,,,,,,,,,,,finish,aloud,white,68,33,130,1406.7197867000068,None,1406.7197867000068,None,6,4.0234343000047375,1406.7197867000068,None,1410.7821963000024,None,1411.2991791999957,None,1411.2991791999957,None,r,0.05195639999874402,1411.2991791999957,None,,,NC15,001,2020_Mar_10_1219,ProdSingRedo,3.2.3,59.95570472483677,
,,,,69,0,69,0,,,,,,,,,,,,,,,,,,,,,,,,1414.0652258000046,None,,,,,,,,,,,,,,,,,theme,aloud,white,69,41,326,1411.9021276999993,None,1411.9021276999993,None,6,1.4731903000065358,1411.9021276999993,None,1413.426015200006,None,1413.9451229999977,None,1413.9451229999977,None,r,0.08629999999538995,1413.9451229999977,None,,,NC15,001,2020_Mar_10_1219,ProdSingRedo,3.2.3,59.95570472483677,
,,,,70,0,70,0,,,,,,,,,,,,,,,,,,,,,,,,1419.640187500001,None,,,,,,,,,,,,,,,,,voice,new_a,white,70,103,348,1414.591311600001,None,1414.591311600001,None,1,3.552109099997324,1414.591311600001,None,1418.1961504999927,None,1418.7156047000026,None,1418.7156047000026,None,n,0.8913701999990735,1418.7156047000026,None,,,NC15,001,2020_Mar_10_1219,ProdSingRedo,3.2.3,59.95570472483677,
,,,,71,0,71,0,,,,,,,,,,,,,,,,,,,,,,,,1422.9983950000023,None,,,,,,,,,,,,,,,,,childhood,new_b,white,71,135,49,1420.1579788999952,None,1420.1579788999952,None,1,1.5770159999956377,1420.1579788999952,None,1421.7575374000007,None,1422.2814354000002,None,1422.2814354000002,None,n,0.6779419000085909,1422.2814354000002,None,,,NC15,001,2020_Mar_10_1219,ProdSingRedo,3.2.3,59.95570472483677,
,,,,72,0,72,0,,,,,,,,,,,,,,,,,,,,,,,,1426.2826559999958,None,,,,,,,,,,,,,,,,,majority,sing,white,72,5,176,1423.5326933000033,None,1423.5326933000033,None,6,1.970676299999468,1423.5326933000033,None,1425.5531847999955,None,1426.0696636000066,None,1426.0696636000066,None,r,0.18618079999578185,1426.0696636000066,None,,,NC15,001,2020_Mar_10_1219,ProdSingRedo,3.2.3,59.95570472483677,
,,,,73,0,73,0,,,,,,,,,,,,,,,,,,,,,,,,1429.6339130999986,None,,,,,,,,,,,,,,,,,signal,new_c,white,73,174,287,1426.813248499995,None,1426.813248499995,None,1,1.9861544000013964,1426.813248499995,None,1428.8545483000053,None,1429.372379499997,None,1429.372379499997,None,n,0.23507489998883102,1429.372379499997,None,,,NC15,001,2020_Mar_10_1219,ProdSingRedo,3.2.3,59.95570472483677,
,,,,74,0,74,0,,,,,,,,,,,,,,,,,,,,,,,,1434.7968264999945,None,,,,,,,,,,,,,,,,,comfort,new_a,white,74,107,59,1430.161073700001,None,1430.161073700001,None,1,2.6301843999972334,1430.161073700001,None,1432.8272628999985,None,1433.3530855999998,None,1433.3530855999998,None,n,1.4060740999993868,1433.3530855999998,None,,,NC15,001,2020_Mar_10_1219,ProdSingRedo,3.2.3,59.95570472483677,
,,,,75,0,75,0,,,,,,,,,,,,,,,,,,,,,,,,1438.151350900007,None,,,,,,,,,,,,,,,,,surprise,aloud,white,75,45,317,1435.3114899000066,None,1435.3114899000066,None,6,1.9918767000053776,1435.3114899000066,None,1437.3538159000018,None,1437.8725878999976,None,1437.8725878999976,None,r,0.24695850000716746,1437.8725878999976,None,,,NC15,001,2020_Mar_10_1219,ProdSingRedo,3.2.3,59.95570472483677,
,,,,76,0,76,0,,,,,,,,,,,,,,,,,,,,,,,,1441.9326794999943,None,,,,,,,,,,,,,,,,,youth,aloud,white,76,57,359,1438.6792562000046,None,1438.6792562000046,None,6,2.4240849999914644,1438.6792562000046,None,1441.1545654999936,None,1441.6693893000047,None,1441.6693893000047,None,r,0.22605040000053123,1441.6693893000047,None,,,NC15,001,2020_Mar_10_1219,ProdSingRedo,3.2.3,59.95570472483677,
,,,,77,0,77,0,,,,,,,,,,,,,,,,,,,,,,,,1445.0513772999984,None,,,,,,,,,,,,,,,,,rapid,new_c,white,77,176,252,1442.459078400003,None,1442.459078400003,None,1,1.740189799995278,1442.459078400003,None,1444.250116700001,None,1444.7687491999968,None,1444.7687491999968,None,n,0.25502870000491384,1444.7687491999968,None,,,NC15,001,2020_Mar_10_1219,ProdSingRedo,3.2.3,59.95570472483677,
,,,,78,0,78,0,,,,,,,,,,,,,,,,,,,,,,,,1449.7019701999961,None,,,,,,,,,,,,,,,,,balance,new_b,white,78,128,17,1445.5833168999961,None,1445.5833168999961,None,6,3.3519606000045314,1445.5833168999961,None,1448.9906859000039,None,1449.5022628000006,None,1449.5022628000006,None,r,0.1610489000013331,1449.5022628000006,None,,,NC15,001,2020_Mar_10_1219,ProdSingRedo,3.2.3,59.95570472483677,
,,,,79,0,79,0,,,,,,,,,,,,,,,,,,,,,,,,1454.6182558,None,,,,,,,,,,,,,,,,,collection,silent,white,79,61,54,1450.220472999994,None,1450.220472999994,None,3,3.4588950000033947,1450.220472999994,None,1453.728738299993,None,1454.2504461000062,None,1454.2504461000062,None,f,0.3409906999877421,1454.2504461000062,None,,,NC15,001,2020_Mar_10_1219,ProdSingRedo,3.2.3,59.95570472483677,
,,,,80,0,80,0,,,,,,,,,,,,,,,,,,,,,,,,1458.6352451999992,None,,,,,,,,,,,,,,,,,suggestion,new_c,white,80,177,314,1455.149324900005,None,1455.149324900005,None,1,2.433962499999325,1455.149324900005,None,1457.635292699997,None,1458.1548164999986,None,1458.1548164999986,None,n,0.44458869998925366,1458.1548164999986,None,,,NC15,001,2020_Mar_10_1219,ProdSingRedo,3.2.3,59.95570472483677,
,,,,81,0,81,0,,,,,,,,,,,,,,,,,,,,,,,,1462.3101891999977,None,,,,,,,,,,,,,,,,,whole,silent,white,81,80,355,1459.1606429999956,None,1459.1606429999956,None,2,2.4065620999899693,1459.1606429999956,None,1461.615414800006,None,1462.134980799994,None,1462.134980799994,None,f,0.1441456000029575,1462.134980799994,None,,,NC15,001,2020_Mar_10_1219,ProdSingRedo,3.2.3,59.95570472483677,
,,,,82,0,82,0,,,,,,,,,,,,,,,,,,,,,,,,1465.3914764999936,None,,,,,,,,,,,,,,,,,chief,new_b,white,82,148,48,1462.8231872000033,None,1462.8231872000033,None,3,1.8081657000002451,1462.8231872000033,None,1464.6788731999986,None,1465.191827200004,None,1465.191827200004,None,f,0.1752481000003172,1465.191827200004,None,,,NC15,001,2020_Mar_10_1219,ProdSingRedo,3.2.3,59.95570472483677,
,,,,83,0,83,0,,,,,,,,,,,,,,,,,,,,,,,,1471.401537400001,None,,,,,,,,,,,,,,,,,thing,new_b,white,83,137,328,1465.9106256999949,None,1465.9106256999949,None,2,4.816640399993048,1465.9106256999949,None,1470.769103700004,None,1471.2865508999967,None,1471.2865508999967,None,f,0.08879999999771826,1471.2865508999967,None,,,NC15,001,2020_Mar_10_1219,ProdSingRedo,3.2.3,59.95570472483677,
,,,,84,0,84,0,,,,,,,,,,,,,,,,,,,,,,,,1478.5545470999932,None,,,,,,,,,,,,,,,,,brief,silent,white,84,75,28,1471.9313245999947,None,1471.9313245999947,None,6,3.5240097000059905,1471.9313245999947,None,1475.5043024000042,None,1476.023351900003,None,1476.023351900003,None,f,2.504068600013852,1476.023351900003,None,,,NC15,001,2020_Mar_10_1219,ProdSingRedo,3.2.3,59.95570472483677,
,,,,85,0,85,0,,,,,,,,,,,,,,,,,,,,,,,,1483.9529266000027,None,,,,,,,,,,,,,,,,,passage,new_a,white,85,118,212,1479.0790012999933,None,1479.0790012999933,None,2,2.8403383000113536,1479.0790012999933,None,1481.9653306999971,None,1482.4953818000067,None,1482.4953818000067,None,f,1.4240870000066934,1482.4953818000067,None,,,NC15,001,2020_Mar_10_1219,ProdSingRedo,3.2.3,59.95570472483677,
,,,,86,0,86,0,,,,,,,,,,,,,,,,,,,,,,,,1488.4377451000037,None,,,,,,,,,,,,,,,,,skill,aloud,white,86,43,289,1484.4788988999935,None,1484.4788988999935,None,1,2.3684413000009954,1484.4788988999935,None,1486.9021513000043,None,1487.4199930000032,None,1487.4199930000032,None,n,0.9793751999968663,1487.4199930000032,None,,,NC15,001,2020_Mar_10_1219,ProdSingRedo,3.2.3,59.95570472483677,
,,,,87,0,87,0,,,,,,,,,,,,,,,,,,,,,,,,1492.0047510000004,None,,,,,,,,,,,,,,,,,addition,aloud,white,87,53,2,1488.9637311999977,None,1488.9637311999977,None,6,2.3318635000032373,1488.9637311999977,None,1491.3278184999945,None,1491.8415356000041,None,1491.8415356000041,None,r,0.13458639998862054,1491.8415356000041,None,,,NC15,001,2020_Mar_10_1219,ProdSingRedo,3.2.3,59.95570472483677,
,,,,88,0,88,0,,,,,,,,,,,,,,,,,,,,,,,,1497.3476324999938,None,,,,,,,,,,,,,,,,,stranger,aloud,white,88,49,309,1492.5428883999994,None,1492.5428883999994,None,6,3.984574200003408,1492.5428883999994,None,1496.5690608000004,None,1497.0926265000016,None,1497.0926265000016,None,f,0.23445030000584666,1497.0926265000016,None,,,NC15,001,2020_Mar_10_1219,ProdSingRedo,3.2.3,59.95570472483677,
,,,,89,0,89,0,,,,,,,,,,,,,,,,,,,,,,,,1501.8696668000048,None,,,,,,,,,,,,,,,,,expansion,new_a,white,89,93,123,1497.8791696999979,None,1497.8791696999979,None,1,2.672274300013669,1497.8791696999979,None,1500.6014774000068,None,1501.1242012000002,None,1501.1242012000002,None,n,0.7070511999918381,1501.1242012000002,None,,,NC15,001,2020_Mar_10_1219,ProdSingRedo,3.2.3,59.95570472483677,
,,,,90,0,90,0,,,,,,,,,,,,,,,,,,,,,,,,1504.171977799997,None,,,,,,,,,,,,,,,,,bright,new_a,white,90,94,29,1502.3948361999937,None,1502.3948361999937,None,1,1.1244884000043385,1502.3948361999937,None,1503.5667706999957,None,1504.0928038999991,None,1504.0928038999991,None,n,0.05071500000485685,1504.0928038999991,None,,,NC15,001,2020_Mar_10_1219,ProdSingRedo,3.2.3,59.95570472483677,
,,,,91,0,91,0,,,,,,,,,,,,,,,,,,,,,,,,1507.5556272999966,None,,,,,,,,,,,,,,,,,discovery,new_c,white,91,157,95,1504.688055999999,None,1504.688055999999,None,1,1.2956021999998484,1504.688055999999,None,1506.0414318999974,None,1506.5635067999974,None,1506.5635067999974,None,n,0.9641998000006424,1506.5635067999974,None,,,NC15,001,2020_Mar_10_1219,ProdSingRedo,3.2.3,59.95570472483677,
,,,,92,0,92,0,,,,,,,,,,,,,,,,,,,,,,,,1510.3034666000021,None,,,,,,,,,,,,,,,,,review,silent,white,92,60,263,1508.0826708999957,None,1508.0826708999957,None,1,1.6286161000025459,1508.0826708999957,None,1509.7531344000017,None,1510.276096799993,None,1510.276096799993,None,n,0.0034503999922890216,1510.276096799993,None,,,NC15,001,2020_Mar_10_1219,ProdSingRedo,3.2.3,59.95570472483677,
,,,,93,0,93,0,,,,,,,,,,,,,,,,,,,,,,,,1514.6873565999995,None,,,,,,,,,,,,,,,,,smooth,sing,white,93,24,292,1510.8267523999966,None,1510.8267523999966,None,6,1.620545800004038,1510.8267523999966,None,1512.4864678000013,None,1513.0041411999991,None,1513.0041411999991,None,r,1.6511171999882208,1513.0041411999991,None,,,NC15,001,2020_Mar_10_1219,ProdSingRedo,3.2.3,59.95570472483677,
,,,,94,0,94,0,,,,,,,,,,,,,,,,,,,,,,,,1520.2557355000026,None,,,,,,,,,,,,,,,,,taste,new_a,white,94,115,322,1515.2171150000067,None,1515.2171150000067,None,6,2.494381600001361,1515.2171150000067,None,1517.750546299998,None,1518.2773680999962,None,1518.2773680999962,None,r,1.9380400000081863,1518.2773680999962,None,,,NC15,001,2020_Mar_10_1219,ProdSingRedo,3.2.3,59.95570472483677,
,,,,95,0,95,0,,,,,,,,,,,,,,,,,,,,,,,,1524.5309310000011,None,,,,,,,,,,,,,,,,,cousin,new_a,white,95,119,76,1520.7789185000001,None,1520.7789185000001,None,1,3.140373300004285,1520.7789185000001,None,1523.9725680999982,None,1524.4932289999997,None,1524.4932289999997,None,n,0.009891599998809397,1524.4932289999997,None,,,NC15,001,2020_Mar_10_1219,ProdSingRedo,3.2.3,59.95570472483677,
,,,,96,0,96,0,,,,,,,,,,,,,,,,,,,,,,,,1528.4577825000015,None,,,,,,,,,,,,,,,,,shock,sing,white,96,4,284,1525.051527500007,None,1525.051527500007,None,6,2.0516382999921916,1525.051527500007,None,1527.152839699993,None,1527.6731053999974,None,1527.6731053999974,None,r,0.7501484999957029,1527.6731053999974,None,,,NC15,001,2020_Mar_10_1219,ProdSingRedo,3.2.3,59.95570472483677,
,,,,97,0,97,0,,,,,,,,,,,,,,,,,,,,,,,,1531.6724434000062,None,,,,,,,,,,,,,,,,,bicycle,sing,white,97,20,21,1528.971978200003,None,1528.971978200003,None,6,1.7395951999933459,1528.971978200003,None,1530.7622398999956,None,1531.2759718000016,None,1531.2759718000016,None,r,0.37156030000187457,1531.2759718000016,None,,,NC15,001,2020_Mar_10_1219,ProdSingRedo,3.2.3,59.95570472483677,
,,,,98,0,98,0,,,,,,,,,,,,,,,,,,,,,,,,1534.2895375999942,None,,,,,,,,,,,,,,,,,gesture,silent,white,98,85,137,1532.2050181999948,None,1532.2050181999948,None,6,1.2662326999998186,1532.2050181999948,None,1533.524782099994,None,1534.0411788000056,None,1534.0411788000056,None,r,0.2226498999953037,1534.0411788000056,None,,,NC15,001,2020_Mar_10_1219,ProdSingRedo,3.2.3,59.95570472483677,
,,,,99,0,99,0,,,,,,,,,,,,,,,,,,,,,,,,1537.7226692999975,None,,,,,,,,,,,,,,,,,running,new_c,white,99,158,268,1534.8189445000025,None,1534.8189445000025,None,1,2.156508100000792,1534.8189445000025,None,1537.0242360999982,None,1537.5431862999976,None,1537.5431862999976,None,n,0.1441393999994034,1537.5431862999976,None,,,NC15,001,2020_Mar_10_1219,ProdSingRedo,3.2.3,59.95570472483677,
,,,,100,0,100,0,,,,,,,,,,,,,,,,,,,,,,,,1542.6901055000053,None,,,,,,,,,,,,,,,,,ground,new_b,white,100,124,142,1538.2524526000052,None,1538.2524526000052,None,2,2.490753500009305,1538.2524526000052,None,1540.7916250999988,None,1541.3162632000021,None,1541.3162632000021,None,n,1.3389243999990867,1541.3162632000021,None,,,NC15,001,2020_Mar_10_1219,ProdSingRedo,3.2.3,59.95570472483677,
,,,,101,0,101,0,,,,,,,,,,,,,,,,,,,,,,,,1546.0571124999988,None,,,,,,,,,,,,,,,,,agency,sing,white,101,2,4,1543.2179558000062,None,1543.2179558000062,None,6,1.9732778999896254,1543.2179558000062,None,1545.2425578999973,None,1545.7603184000036,None,1545.7603184000036,None,r,0.2628695000021253,1545.7603184000036,None,,,NC15,001,2020_Mar_10_1219,ProdSingRedo,3.2.3,59.95570472483677,
,,,,102,0,102,0,,,,,,,,,,,,,,,,,,,,,,,,1548.9417508000042,None,,,,,,,,,,,,,,,,,people,new_a,white,102,110,216,1546.5804416000028,None,1546.5804416000028,None,1,1.6186623999965377,1546.5804416000028,None,1548.2311391999974,None,1548.7426219000045,None,1548.7426219000045,None,n,0.16060610000567976,1548.7426219000045,None,,,NC15,001,2020_Mar_10_1219,ProdSingRedo,3.2.3,59.95570472483677,
,,,,103,0,103,0,,,,,,,,,,,,,,,,,,,,,,,,1551.557484799996,None,,,,,,,,,,,,,,,,,husband,new_a,white,103,101,156,1549.4740197999927,None,1549.4740197999927,None,1,1.0611468000133755,1549.4740197999927,None,1550.598464099996,None,1551.1122445999936,None,1551.1122445999936,None,n,0.40698020000127144,1551.1122445999936,None,,,NC15,001,2020_Mar_10_1219,ProdSingRedo,3.2.3,59.95570472483677,
,,,,104,0,104,0,,,,,,,,,,,,,,,,,,,,,,,,1554.8043149000005,None,,,,,,,,,,,,,,,,,quiet,silent,white,104,89,249,1552.0868729000067,None,1552.0868729000067,None,6,1.9285432000033325,1552.0868729000067,None,1554.052809300003,None,1554.578139899997,None,1554.578139899997,None,r,0.18880089999584015,1554.578139899997,None,,,NC15,001,2020_Mar_10_1219,ProdSingRedo,3.2.3,59.95570472483677,
,,,,105,0,105,0,,,,,,,,,,,,,,,,,,,,,,,,1561.591008000003,None,,,,,,,,,,,,,,,,,group,new_c,white,105,153,143,1555.3174218000058,None,1555.3174218000058,None,3,5.169825499993749,1555.3174218000058,None,1560.5436438000033,None,1561.0607232000038,None,1561.0607232000038,None,f,0.4984612999978708,1561.0607232000038,None,,,NC15,001,2020_Mar_10_1219,ProdSingRedo,3.2.3,59.95570472483677,
,,,,106,0,106,0,,,,,,,,,,,,,,,,,,,,,,,,1568.0764602999989,None,,,,,,,,,,,,,,,,,employment,new_b,white,106,139,111,1562.1219807000016,None,1562.1219807000016,None,6,4.861511999988579,1562.1219807000016,None,1567.0222370999982,None,1567.5472977000027,None,1567.5472977000027,None,r,0.4921178999939002,1567.5472977000027,None,,,NC15,001,2020_Mar_10_1219,ProdSingRedo,3.2.3,59.95570472483677,
,,,,107,0,107,0,,,,,,,,,,,,,,,,,,,,,,,,1571.5075791999989,None,,,,,,,,,,,,,,,,,angle,new_c,white,107,152,7,1568.603609400001,None,1568.603609400001,None,1,1.9077767000126187,1568.603609400001,None,1570.5536974999995,None,1571.0882234000019,None,1571.0882234000019,None,n,0.390932199996314,1571.0882234000019,None,,,NC15,001,2020_Mar_10_1219,ProdSingRedo,3.2.3,59.95570472483677,
,,,,108,0,108,0,,,,,,,,,,,,,,,,,,,,,,,,1573.9113147000025,None,,,,,,,,,,,,,,,,,shear,silent,white,108,74,283,1572.0342704000068,None,1572.0342704000068,None,1,1.0369423999945866,1572.0342704000068,None,1573.125183199998,None,1573.646306900002,None,1573.646306900002,None,n,0.23305789999722037,1573.646306900002,None,,,NC15,001,2020_Mar_10_1219,ProdSingRedo,3.2.3,59.95570472483677,
,,,,109,0,109,0,,,,,,,,,,,,,,,,,,,,,,,,1576.5592436000006,None,,,,,,,,,,,,,,,,,minor,new_a,white,109,100,191,1574.423191599999,None,1574.423191599999,None,1,1.3120617999957176,1574.423191599999,None,1575.7683944000019,None,1576.2919731000002,None,1576.2919731000002,None,n,0.22740150000026915,1576.2919731000002,None,,,NC15,001,2020_Mar_10_1219,ProdSingRedo,3.2.3,59.95570472483677,
,,,,110,0,110,0,,,,,,,,,,,,,,,,,,,,,,,,1578.9591586000024,None,,,,,,,,,,,,,,,,,under,new_b,white,110,147,343,1577.0847456000047,None,1577.0847456000047,None,1,1.1634225000016158,1577.0847456000047,None,1578.2884424999938,None,1578.810000700003,None,1578.810000700003,None,n,0.11718499999551568,1578.810000700003,None,,,NC15,001,2020_Mar_10_1219,ProdSingRedo,3.2.3,59.95570472483677,
,,,,111,0,111,0,,,,,,,,,,,,,,,,,,,,,,,,1581.7434400000056,None,,,,,,,,,,,,,,,,,benefit,silent,white,111,78,20,1579.487550299993,None,1579.487550299993,None,1,1.5357221000012942,1579.487550299993,None,1581.0766966999945,None,1581.600336699994,None,1581.600336699994,None,n,0.11089589999755844,1581.600336699994,None,,,NC15,001,2020_Mar_10_1219,ProdSingRedo,3.2.3,59.95570472483677,
,,,,112,0,112,0,,,,,,,,,,,,,,,,,,,,,,,,1584.6792674000026,None,,,,,,,,,,,,,,,,,military,sing,white,112,0,190,1582.2728956000064,None,1582.2728956000064,None,6,1.6543380000075558,1582.2728956000064,None,1583.9792739999975,None,1584.496698300005,None,1584.496698300005,None,r,0.15065159999358002,1584.496698300005,None,,,NC15,001,2020_Mar_10_1219,ProdSingRedo,3.2.3,59.95570472483677,
,,,,113,0,113,0,,,,,,,,,,,,,,,,,,,,,,,,1587.7603797000047,None,,,,,,,,,,,,,,,,,express,aloud,white,113,38,124,1585.185367099999,None,1585.185367099999,None,6,1.7982030999992276,1585.185367099999,None,1587.0193287000002,None,1587.5428176999994,None,1587.5428176999994,None,r,0.19224600000598002,1587.5428176999994,None,,,NC15,001,2020_Mar_10_1219,ProdSingRedo,3.2.3,59.95570472483677,
,,,,114,0,114,0,,,,,,,,,,,,,,,,,,,,,,,,1592.7255220999941,None,,,,,,,,,,,,,,,,,music,silent,white,114,69,196,1588.2865474999999,None,1588.2865474999999,None,6,3.648849399993196,1588.2865474999999,None,1591.9778926,None,1592.4961439000035,None,1592.4961439000035,None,r,0.19107200000144076,1592.4961439000035,None,,,NC15,001,2020_Mar_10_1219,ProdSingRedo,3.2.3,59.95570472483677,
,,,,115,0,115,0,,,,,,,,,,,,,,,,,,,,,,,,1597.5609648999962,None,,,,,,,,,,,,,,,,,entrance,new_c,white,115,154,115,1593.2542861999973,None,1593.2542861999973,None,3,3.4250468000100227,1593.2542861999973,None,1596.7279187999957,None,1597.2462112000067,None,1597.2462112000067,None,f,0.2810763000015868,1597.2462112000067,None,,,NC15,001,2020_Mar_10_1219,ProdSingRedo,3.2.3,59.95570472483677,
,,,,116,0,116,0,,,,,,,,,,,,,,,,,,,,,,,,1600.8107805000036,None,,,,,,,,,,,,,,,,,agreement,sing,white,116,26,5,1598.0880771999946,None,1598.0880771999946,None,6,1.9115353999950457,1598.0880771999946,None,1600.0455073000048,None,1600.564815299993,None,1600.564815299993,None,r,0.2102796999970451,1600.564815299993,None,,,NC15,001,2020_Mar_10_1219,ProdSingRedo,3.2.3,59.95570472483677,
,,,,117,0,117,0,,,,,,,,,,,,,,,,,,,,,,,,1606.0948273999966,None,,,,,,,,,,,,,,,,,reach,new_c,white,117,167,253,1601.3334815999988,None,1601.3334815999988,None,2,3.4507466000068234,1601.3334815999988,None,1604.8276827999944,None,1605.346237299993,None,1605.346237299993,None,n,0.7171807999984594,1605.346237299993,None,,,NC15,001,2020_Mar_10_1219,ProdSingRedo,3.2.3,59.95570472483677,
,,,,118,0,118,0,,,,,,,,,,,,,,,,,,,,,,,,1608.914936400004,None,,,,,,,,,,,,,,,,,block,new_c,white,118,171,25,1606.6219905000034,None,1606.6219905000034,None,1,1.5691978999966523,1606.6219905000034,None,1608.236196800004,None,1608.7484275000024,None,1608.7484275000024,None,n,0.1389121999964118,1608.7484275000024,None,,,NC15,001,2020_Mar_10_1219,ProdSingRedo,3.2.3,59.95570472483677,
,,,,119,0,119,0,,,,,,,,,,,,,,,,,,,,,,,,1611.693088800006,None,,,,,,,,,,,,,,,,,government,silent,white,119,88,139,1609.4341759999952,None,1609.4341759999952,None,6,1.5332122999971034,1609.4341759999952,None,1611.013014199998,None,1611.5289132000034,None,1611.5289132000034,None,r,0.12629819998983294,1611.5289132000034,None,,,NC15,001,2020_Mar_10_1219,ProdSingRedo,3.2.3,59.95570472483677,
,,,,120,0,120,0,,,,,,,,,,,,,,,,,,,,,,,,1614.2203573000006,None,,,,,,,,,,,,,,,,,heavy,sing,white,120,16,151,1612.2247630000056,None,1612.2247630000056,None,6,1.1426558999955887,1612.2247630000056,None,1613.414312199995,None,1613.9299276999955,None,1613.9299276999955,None,r,0.26924049999797717,1613.9299276999955,None,,,NC15,001,2020_Mar_10_1219,ProdSingRedo,3.2.3,59.95570472483677,
,,,,121,0,121,0,,,,,,,,,,,,,,,,,,,,,,,,1617.985573500002,None,,,,,,,,,,,,,,,,,nature,sing,white,121,9,200,1614.7411634000018,None,1614.7411634000018,None,6,2.5139472000009846,1614.7411634000018,None,1617.3139261000033,None,1617.819742199994,None,1617.819742199994,None,r,0.14737729998887517,1617.819742199994,None,,,NC15,001,2020_Mar_10_1219,ProdSingRedo,3.2.3,59.95570472483677,
,,,,122,0,122,0,,,,,,,,,,,,,,,,,,,,,,,,1620.569119000007,None,,,,,,,,,,,,,,,,,working,silent,white,122,84,357,1618.5084267000057,None,1618.5084267000057,None,6,1.3787112999998499,1618.5084267000057,None,1619.9293483999936,None,1620.4354561999935,None,1620.4354561999935,None,r,0.10739269999612588,1620.4354561999935,None,,,NC15,001,2020_Mar_10_1219,ProdSingRedo,3.2.3,59.95570472483677,
,,,,123,0,123,0,,,,,,,,,,,,,,,,,,,,,,,,1624.914871999994,None,,,,,,,,,,,,,,,,,dance,new_c,white,123,162,84,1621.0886593000032,None,1621.0886593000032,None,2,2.470509199993103,1621.0886593000032,None,1623.6099590999947,None,1624.1289824999985,None,1624.1289824999985,None,n,0.7583149999991292,1624.1289824999985,None,,,NC15,001,2020_Mar_10_1219,ProdSingRedo,3.2.3,59.95570472483677,
,,,,124,0,124,0,,,,,,,,,,,,,,,,,,,,,,,,1629.312577699995,None,,,,,,,,,,,,,,,,,management,new_b,white,124,121,177,1625.4426548000047,None,1625.4426548000047,None,6,2.3008355000056326,1625.4426548000047,None,1627.7920924000064,None,1628.3196259999968,None,1628.3196259999968,None,r,0.9595637000020361,1628.3196259999968,None,,,NC15,001,2020_Mar_10_1219,ProdSingRedo,3.2.3,59.95570472483677,
,,,,125,0,125,0,,,,,,,,,,,,,,,,,,,,,,,,1632.696366499993,None,,,,,,,,,,,,,,,,,republic,sing,white,125,27,260,1629.8428711000015,None,1629.8428711000015,None,6,2.156335099993157,1629.8428711000015,None,1632.0513141999982,None,1632.5749560999975,None,1632.5749560999975,None,r,0.09627749999344815,1632.5749560999975,None,,,NC15,001,2020_Mar_10_1219,ProdSingRedo,3.2.3,59.95570472483677,
,,,,126,0,126,0,,,,,,,,,,,,,,,,,,,,,,,,1641.3054167999944,None,,,,,,,,,,,,,,,,,native,new_c,white,126,175,199,1633.2280963999947,None,1633.2280963999947,None,5,4.7948750000068685,1633.2280963999947,None,1638.0646830000042,None,1638.589137899995,None,1638.589137899995,None,f,2.697901899999124,1638.589137899995,None,,,NC15,001,2020_Mar_10_1219,ProdSingRedo,3.2.3,59.95570472483677,
,,,,127,0,127,0,,,,,,,,,,,,,,,,,,,,,,,,1645.2206879000005,None,,,,,,,,,,,,,,,,,attack,new_b,white,127,125,13,1641.8260753000068,None,1641.8260753000068,None,6,1.973075500005507,1641.8260753000068,None,1643.8492081000004,None,1644.3702121999959,None,1644.3702121999959,None,r,0.8285593000036897,1644.3702121999959,None,,,NC15,001,2020_Mar_10_1219,ProdSingRedo,3.2.3,59.95570472483677,
,,,,128,0,128,0,,,,,,,,,,,,,,,,,,,,,,,,1650.975048399996,None,,,,,,,,,,,,,,,,,novel,new_a,white,128,95,202,1645.723378900002,None,1645.723378900002,None,1,4.275910600001225,1645.723378900002,None,1650.0452829999995,None,1650.5541137999971,None,1650.5541137999971,None,n,0.397229399997741,1650.5541137999971,None,,,NC15,001,2020_Mar_10_1219,ProdSingRedo,3.2.3,59.95570472483677,
,,,,129,0,129,0,,,,,,,,,,,,,,,,,,,,,,,,1654.0816371999972,None,,,,,,,,,,,,,,,,,spoke,new_b,white,129,145,300,1651.489885300005,None,1651.489885300005,None,1,1.8854804000002332,1651.489885300005,None,1653.4296050999983,None,1653.9479520000023,None,1653.9479520000023,None,n,0.09965630000806414,1653.9479520000023,None,,,NC15,001,2020_Mar_10_1219,ProdSingRedo,3.2.3,59.95570472483677,
,,,,130,0,130,0,,,,,,,,,,,,,,,,,,,,,,,,1664.281784100007,None,,,,,,,,,,,,,,,,,foundation,new_c,white,130,164,132,1654.6157859999948,None,1654.6157859999948,None,1,8.76741280000715,1654.6157859999948,None,1663.4351737999968,None,1663.9567580000003,None,1663.9567580000003,None,n,0.29854050000722054,1663.9567580000003,None,,,NC15,001,2020_Mar_10_1219,ProdSingRedo,3.2.3,59.95570472483677,
,,,,131,0,131,0,,,,,,,,,,,,,,,,,,,,,,,,1667.8991684000066,None,,,,,,,,,,,,,,,,,relation,aloud,white,131,54,257,1664.810136400003,None,1664.810136400003,None,6,2.3089766000048257,1664.810136400003,None,1667.1586722000065,None,1667.6844532999967,None,1667.6844532999967,None,r,0.1869172000006074,1667.6844532999967,None,,,NC15,001,2020_Mar_10_1219,ProdSingRedo,3.2.3,59.95570472483677,
,,,,132,0,132,0,,,,,,,,,,,,,,,,,,,,,,,,1670.8140570999967,None,,,,,,,,,,,,,,,,,position,new_c,white,132,155,229,1668.4218192999979,None,1668.4218192999979,None,6,1.729427799989935,1668.4218192999979,None,1670.193563199995,None,1670.7079135999957,None,1670.7079135999957,None,r,0.0673296000022674,1670.7079135999957,None,,,NC15,001,2020_Mar_10_1219,ProdSingRedo,3.2.3,59.95570472483677,
,,,,133,0,133,0,,,,,,,,,,,,,,,,,,,,,,,,1673.9815623000031,None,,,,,,,,,,,,,,,,,appeal,new_c,white,133,161,9,1671.3365961999953,None,1671.3365961999953,None,1,1.6624752999923658,1671.3365961999953,None,1673.0495799000055,None,1673.567143799999,None,1673.567143799999,None,n,0.376017700007651,1673.567143799999,None,,,NC15,001,2020_Mar_10_1219,ProdSingRedo,3.2.3,59.95570472483677,
,,,,134,0,134,0,,,,,,,,,,,,,,,,,,,,,,,,1677.4410934000043,None,,,,,,,,,,,,,,,,,fashion,aloud,white,134,47,125,1674.5042376000056,None,1674.5042376000056,None,6,1.9909137999929953,1674.5042376000056,None,1676.5473265000037,None,1677.0671529999963,None,1677.0671529999963,None,r,0.3559077999962028,1677.0671529999963,None,,,NC15,001,2020_Mar_10_1219,ProdSingRedo,3.2.3,59.95570472483677,
,,,,135,0,135,0,,,,,,,,,,,,,,,,,,,,,,,,1681.2321838000062,None,,,,,,,,,,,,,,,,,volume,new_a,white,135,102,349,1677.9610115999967,None,1677.9610115999967,None,6,2.6221017000061693,1677.9610115999967,None,1680.624959199995,None,1681.1540927000024,None,1681.1540927000024,None,r,0.0532418999937363,1681.1540927000024,None,,,NC15,001,2020_Mar_10_1219,ProdSingRedo,3.2.3,59.95570472483677,
,,,,136,0,136,0,,,,,,,,,,,,,,,,,,,,,,,,1685.9667177999945,None,,,,,,,,,,,,,,,,,question,new_b,white,136,140,247,1681.7583585999964,None,1681.7583585999964,None,3,3.4490372000000207,1681.7583585999964,None,1685.2476024000061,None,1685.773075399993,None,1685.773075399993,None,f,0.1621465999924112,1685.773075399993,None,,,NC15,001,2020_Mar_10_1219,ProdSingRedo,3.2.3,59.95570472483677,
,,,,137,0,137,0,,,,,,,,,,,,,,,,,,,,,,,,1690.5331708000012,None,,,,,,,,,,,,,,,,,science,sing,white,137,15,275,1686.4848713999963,None,1686.4848713999963,None,6,3.3223440000001574,1686.4848713999963,None,1689.8460616999946,None,1690.3648973999952,None,1690.3648973999952,None,r,0.13819120000698604,1690.3648973999952,None,,,NC15,001,2020_Mar_10_1219,ProdSingRedo,3.2.3,59.95570472483677,
,,,,138,0,138,0,,,,,,,,,,,,,,,,,,,,,,,,1695.1664243999985,None,,,,,,,,,,,,,,,,,sweet,sing,white,138,13,319,1691.0579299999954,None,1691.0579299999954,None,3,2.5174238000035984,1691.0579299999954,None,1693.6107914000022,None,1694.1357182999927,None,1694.1357182999927,None,f,0.9914265999977943,1694.1357182999927,None,,,NC15,001,2020_Mar_10_1219,ProdSingRedo,3.2.3,59.95570472483677,
,,,,139,0,139,0,,,,,,,,,,,,,,,,,,,,,,,,1700.1342333000066,None,,,,,,,,,,,,,,,,,shape,aloud,white,139,48,282,1695.693969999993,None,1695.693969999993,None,1,3.2816392999957316,1695.693969999993,None,1699.0110959000012,None,1699.5360807999969,None,1699.5360807999969,None,n,0.5672255999961635,1699.5360807999969,None,,,NC15,001,2020_Mar_10_1219,ProdSingRedo,3.2.3,59.95570472483677,
,,,,140,0,140,0,,,,,,,,,,,,,,,,,,,,,,,,1703.0669543999975,None,,,,,,,,,,,,,,,,,report,new_c,white,140,169,259,1700.6549857000064,None,1700.6549857000064,None,1,1.184676999997464,1700.6549857000064,None,1701.8783766999986,None,1702.399407399993,None,1702.399407399993,None,n,0.6404569000005722,1702.399407399993,None,,,NC15,001,2020_Mar_10_1219,ProdSingRedo,3.2.3,59.95570472483677,
,,,,141,0,141,0,,,,,,,,,,,,,,,,,,,,,,,,1707.486400599999,None,,,,,,,,,,,,,,,,,degree,silent,white,141,73,89,1703.5959641999943,None,1703.5959641999943,None,2,2.9634915000060573,1703.5959641999943,None,1706.600077199997,None,1707.1222598000022,None,1707.1222598000022,None,f,0.332889500001329,1707.1222598000022,None,,,NC15,001,2020_Mar_10_1219,ProdSingRedo,3.2.3,59.95570472483677,
,,,,142,0,142,0,,,,,,,,,,,,,,,,,,,,,,,,1710.7876026000013,None,,,,,,,,,,,,,,,,,solution,aloud,white,142,39,294,1708.0122120000015,None,1708.0122120000015,None,1,1.8751044999953592,1708.0122120000015,None,1709.9235747000057,None,1710.4395629000064,None,1710.4395629000064,None,n,0.3196329000056721,1710.4395629000064,None,,,NC15,001,2020_Mar_10_1219,ProdSingRedo,3.2.3,59.95570472483677,
,,,,143,0,143,0,,,,,,,,,,,,,,,,,,,,,,,,1715.285687399999,None,,,,,,,,,,,,,,,,,health,new_a,white,143,97,149,1711.3100590999966,None,1711.3100590999966,None,2,3.016957400002866,1711.3100590999966,None,1714.3678017000057,None,1714.8871914000047,None,1714.8871914000047,None,f,0.35999810000066645,1714.8871914000047,None,,,NC15,001,2020_Mar_10_1219,ProdSingRedo,3.2.3,59.95570472483677,
,,,,144,0,144,0,,,,,,,,,,,,,,,,,,,,,,,,1719.5182100999955,None,,,,,,,,,,,,,,,,,public,new_c,white,144,160,244,1715.811318699998,None,1715.811318699998,None,1,2.9078257999935886,1715.811318699998,None,1718.7708704999968,None,1719.2891685000068,None,1719.2891685000068,None,n,0.19796089999726973,1719.2891685000068,None,,,NC15,001,2020_Mar_10_1219,ProdSingRedo,3.2.3,59.95570472483677,
,,,,145,0,145,0,,,,,,,,,,,,,,,,,,,,,,,,1722.1348372000066,None,,,,,,,,,,,,,,,,,write,new_a,white,145,104,358,1720.0420285,None,1720.0420285,None,1,1.381712400005199,1720.0420285,None,1721.4694185999979,None,1721.9856829000055,None,1721.9856829000055,None,n,0.12530990000232123,1721.9856829000055,None,,,NC15,001,2020_Mar_10_1219,ProdSingRedo,3.2.3,59.95570472483677,
,,,,146,0,146,0,,,,,,,,,,,,,,,,,,,,,,,,1724.5176173999935,None,,,,,,,,,,,,,,,,,brilliant,new_a,white,146,92,30,1722.673382199995,None,1722.673382199995,None,1,1.1498162999923807,1722.673382199995,None,1723.8657566000038,None,1724.3784664999985,None,1724.3784664999985,None,n,0.10074409999651834,1724.3784664999985,None,,,NC15,001,2020_Mar_10_1219,ProdSingRedo,3.2.3,59.95570472483677,
,,,,147,0,147,0,,,,,,,,,,,,,,,,,,,,,,,,1726.5352740999951,None,,,,,,,,,,,,,,,,,length,new_a,white,147,116,169,1725.0468627999944,None,1725.0468627999944,None,1,0.8800228999898536,1725.0468627999944,None,1725.9541778999992,None,1726.4732571000059,None,1726.4732571000059,None,n,0.03772920000483282,1726.4732571000059,None,,,NC15,001,2020_Mar_10_1219,ProdSingRedo,3.2.3,59.95570472483677,
,,,,148,0,148,0,,,,,,,,,,,,,,,,,,,,,,,,1729.720770999993,None,,,,,,,,,,,,,,,,,incident,silent,white,148,83,158,1727.0574293999962,None,1727.0574293999962,None,1,1.3342155999998795,1727.0574293999962,None,1728.4427508999943,None,1728.9445122000034,None,1728.9445122000034,None,n,0.7426131999964127,1728.9445122000034,None,,,NC15,001,2020_Mar_10_1219,ProdSingRedo,3.2.3,59.95570472483677,
,,,,149,0,149,0,,,,,,,,,,,,,,,,,,,,,,,,1732.0372570000036,None,,,,,,,,,,,,,,,,,column,new_c,white,149,178,57,1730.2478924000025,None,1730.2478924000025,None,1,0.8713721999956761,1730.2478924000025,None,1731.1690496999945,None,1731.688929099997,None,1731.688929099997,None,n,0.3099672000098508,1731.688929099997,None,,,NC15,001,2020_Mar_10_1219,ProdSingRedo,3.2.3,59.95570472483677,
,,,,150,0,150,0,,,,,,,,,,,,,,,,,,,,,,,,1734.976324400006,None,,,,,,,,,,,,,,,,,travel,sing,white,150,25,338,1732.5645402999944,None,1732.5645402999944,None,6,1.6825113999948371,1732.5645402999944,None,1734.3032266999944,None,1734.8121571999945,None,1734.8121571999945,None,r,0.1385955999867292,1734.8121571999945,None,,,NC15,001,2020_Mar_10_1219,ProdSingRedo,3.2.3,59.95570472483677,
,,,,151,0,151,0,,,,,,,,,,,,,,,,,,,,,,,,1737.4357026999933,None,,,,,,,,,,,,,,,,,comedy,new_b,white,151,136,58,1735.477757200002,None,1735.477757200002,None,1,1.1052862999931676,1735.477757200002,None,1736.6303409999964,None,1737.1542472,None,1737.1542472,None,n,0.2448803000006592,1737.1542472,None,,,NC15,001,2020_Mar_10_1219,ProdSingRedo,3.2.3,59.95570472483677,
,,,,152,0,152,0,,,,,,,,,,,,,,,,,,,,,,,,1741.4022882999998,None,,,,,,,,,,,,,,,,,emergency,new_b,white,152,146,110,1737.9684536999994,None,1737.9684536999994,None,5,2.591005000009318,1737.9684536999994,None,1740.5978467999958,None,1741.1261666000064,None,1741.1261666000064,None,f,0.24088339999434538,1741.1261666000064,None,,,NC15,001,2020_Mar_10_1219,ProdSingRedo,3.2.3,59.95570472483677,
,,,,153,0,153,0,,,,,,,,,,,,,,,,,,,,,,,,1745.9395234999974,None,,,,,,,,,,,,,,,,,murder,silent,white,153,66,195,1741.929794399999,None,1741.929794399999,None,6,2.133117499994114,1741.929794399999,None,1744.089820699999,None,1744.606311800002,None,1744.606311800002,None,r,1.305099400007748,1744.606311800002,None,,,NC15,001,2020_Mar_10_1219,ProdSingRedo,3.2.3,59.95570472483677,
,,,,154,0,154,0,,,,,,,,,,,,,,,,,,,,,,,,1749.2216250000056,None,,,,,,,,,,,,,,,,,space,sing,white,154,22,297,1746.465046199999,None,1746.465046199999,None,6,2.125957299998845,1746.465046199999,None,1748.640974199996,None,1749.1565009000042,None,1749.1565009000042,None,r,0.026656499991077,1749.1565009000042,None,,,NC15,001,2020_Mar_10_1219,ProdSingRedo,3.2.3,59.95570472483677,
,,,,155,0,155,0,,,,,,,,,,,,,,,,,,,,,,,,1752.553857699997,None,,,,,,,,,,,,,,,,,object,aloud,white,155,36,204,1749.748672600006,None,1749.748672600006,None,6,1.5543452999991132,1749.748672600006,None,1751.3532756000059,None,1751.8720326000039,None,1751.8720326000039,None,r,0.6470575999992434,1751.8720326000039,None,,,NC15,001,2020_Mar_10_1219,ProdSingRedo,3.2.3,59.95570472483677,
,,,,156,0,156,0,,,,,,,,,,,,,,,,,,,,,,,,1755.4039801000035,None,,,,,,,,,,,,,,,,,pattern,sing,white,156,11,214,1753.0833654000016,None,1753.0833654000016,None,6,1.4998709000064991,1753.0833654000016,None,1754.6313535999943,None,1755.1567940999958,None,1755.1567940999958,None,r,0.21827969999867491,1755.1567940999958,None,,,NC15,001,2020_Mar_10_1219,ProdSingRedo,3.2.3,59.95570472483677,
,,,,157,0,157,0,,,,,,,,,,,,,,,,,,,,,,,,1758.121413899993,None,,,,,,,,,,,,,,,,,height,silent,white,157,64,152,1755.9306416000036,None,1755.9306416000036,None,6,1.5563774000038393,1755.9306416000036,None,1757.5383174000017,None,1758.0594119000016,None,1758.0594119000016,None,r,0.02763339999364689,1758.0594119000016,None,,,NC15,001,2020_Mar_10_1219,ProdSingRedo,3.2.3,59.95570472483677,
,,,,158,0,158,0,,,,,,,,,,,,,,,,,,,,,,,,1761.7715377999994,None,,,,,,,,,,,,,,,,,interior,new_c,white,158,156,164,1758.6459625999996,None,1758.6459625999996,None,1,1.8010591000056593,1758.6459625999996,None,1760.482370800004,None,1761.0042896999948,None,1761.0042896999948,None,n,0.730781999998726,1761.0042896999948,None,,,NC15,001,2020_Mar_10_1219,ProdSingRedo,3.2.3,59.95570472483677,
,,,,159,0,159,0,,,,,,,,,,,,,,,,,,,,,,,,1766.7535295999987,None,,,,,,,,,,,,,,,,,curve,aloud,white,159,30,82,1762.2894170999934,None,1762.2894170999934,None,1,1.5975988999998663,1762.2894170999934,None,1763.9417381999956,None,1764.4605466000066,None,1764.4605466000066,None,n,2.258433099996182,1764.4605466000066,None,,,NC15,001,2020_Mar_10_1219,ProdSingRedo,3.2.3,59.95570472483677,
,,,,160,0,160,0,,,,,,,,,,,,,,,,,,,,,,,,1770.855560600001,None,,,,,,,,,,,,,,,,,front,silent,white,160,62,134,1767.2806133999984,None,1767.2806133999984,None,6,1.96632170000521,1767.2806133999984,None,1769.2860094000062,None,1769.806411700003,None,1769.806411700003,None,r,1.0246187999873655,1769.806411700003,None,,,NC15,001,2020_Mar_10_1219,ProdSingRedo,3.2.3,59.95570472483677,
,,,,161,0,161,0,,,,,,,,,,,,,,,,,,,,,,,,1773.7394494000037,None,,,,,,,,,,,,,,,,,plane,new_b,white,161,132,223,1771.3789105000033,None,1771.3789105000033,None,1,1.532339299999876,1771.3789105000033,None,1772.9551754999993,None,1773.4738232999953,None,1773.4738232999953,None,n,0.22931390001031104,1773.4738232999953,None,,,NC15,001,2020_Mar_10_1219,ProdSingRedo,3.2.3,59.95570472483677,
,,,,162,0,162,0,,,,,,,,,,,,,,,,,,,,,,,,1777.672373399997,None,,,,,,,,,,,,,,,,,sound,sing,white,162,10,295,1774.2653194000013,None,1774.2653194000013,None,1,2.38967409999168,1774.2653194000013,None,1776.7067569999926,None,1777.2239842999988,None,1777.2239842999988,None,n,0.4152961000072537,1777.2239842999988,None,,,NC15,001,2020_Mar_10_1219,ProdSingRedo,3.2.3,59.95570472483677,
,,,,163,0,163,0,,,,,,,,,,,,,,,,,,,,,,,,1780.9552128000068,None,,,,,,,,,,,,,,,,,election,silent,white,163,70,109,1778.1965308999934,None,1778.1965308999934,None,1,1.7150727999978699,1778.1965308999934,None,1779.9544369000068,None,1780.4711746999965,None,1780.4711746999965,None,n,0.4479140000039479,1780.4711746999965,None,,,NC15,001,2020_Mar_10_1219,ProdSingRedo,3.2.3,59.95570472483677,
,,,,164,0,164,0,,,,,,,,,,,,,,,,,,,,,,,,1783.8731619000027,None,,,,,,,,,,,,,,,,,judge,new_a,white,164,109,166,1781.4870285999932,None,1781.4870285999932,None,6,1.4719921999931103,1781.4870285999932,None,1783.0065692000062,None,1783.529473600007,None,1783.529473600007,None,r,0.3095300999993924,1783.529473600007,None,,,NC15,001,2020_Mar_10_1219,ProdSingRedo,3.2.3,59.95570472483677,
,,,,165,0,165,0,,,,,,,,,,,,,,,,,,,,,,,,1787.024912599998,None,,,,,,,,,,,,,,,,,alert,sing,white,165,17,6,1784.3977100000047,None,1784.3977100000047,None,6,1.7053177999914624,1784.3977100000047,None,1786.1579884999956,None,1786.6739453000046,None,1786.6739453000046,None,r,0.3170496999955503,1786.6739453000046,None,,,NC15,001,2020_Mar_10_1219,ProdSingRedo,3.2.3,59.95570472483677,
,,,,166,0,166,0,,,,,,,,,,,,,,,,,,,,,,,,1795.2811350999982,None,,,,,,,,,,,,,,,,,weight,new_c,white,166,159,353,1787.5522600999975,None,1787.5522600999975,None,6,5.918678699992597,1787.5522600999975,None,1793.5248883000022,None,1794.0303446000034,None,1794.0303446000034,None,f,1.2324076000077184,1794.0303446000034,None,,,NC15,001,2020_Mar_10_1219,ProdSingRedo,3.2.3,59.95570472483677,
,,,,167,0,167,0,,,,,,,,,,,,,,,,,,,,,,,,1804.8404816999973,None,,,,,,,,,,,,,,,,,country,new_c,white,167,150,73,1795.804553599999,None,1795.804553599999,None,6,4.92247910000151,1795.804553599999,None,1800.773344000001,None,1801.2961295999994,None,1801.2961295999994,None,r,3.510844799995539,1801.2961295999994,None,,,NC15,001,2020_Mar_10_1219,ProdSingRedo,3.2.3,59.95570472483677,
,,,,168,0,168,0,,,,,,,,,,,,,,,,,,,,,,,,1811.6901510000025,None,,,,,,,,,,,,,,,,,place,new_a,white,168,91,222,1805.3576934000012,None,1805.3576934000012,None,3,2.0332707000052324,1805.3576934000012,None,1807.4326938000013,None,1807.9466110999929,None,1807.9466110999929,None,n,3.7083559000020614,1807.9466110999929,None,,,NC15,001,2020_Mar_10_1219,ProdSingRedo,3.2.3,59.95570472483677,
,,,,169,0,169,0,,,,,,,,,,,,,,,,,,,,,,,,1816.2268670000049,None,,,,,,,,,,,,,,,,,number,sing,white,169,19,203,1812.2235190999927,None,1812.2235190999927,None,1,2.6405252999975346,1812.2235190999927,None,1814.9039574000053,None,1815.4358952000039,None,1815.4358952000039,None,n,0.7632893999980297,1815.4358952000039,None,,,NC15,001,2020_Mar_10_1219,ProdSingRedo,3.2.3,59.95570472483677,
,,,,170,0,170,0,,,,,,,,,,,,,,,,,,,,,,,,1822.276426299999,None,,,,,,,,,,,,,,,,,service,aloud,white,170,44,280,1816.7591657000012,None,1816.7591657000012,None,6,2.7519390000088606,1816.7591657000012,None,1819.552477899997,None,1820.0794481000048,None,1820.0794481000048,None,r,2.159575699988636,1820.0794481000048,None,,,NC15,001,2020_Mar_10_1219,ProdSingRedo,3.2.3,59.95570472483677,
,,,,171,0,171,0,,,,,,,,,,,,,,,,,,,,,,,,1826.6270708999946,None,,,,,,,,,,,,,,,,,piece,new_b,white,171,149,221,1822.7980259000033,None,1822.7980259000033,None,1,2.4488598000025377,1822.7980259000033,None,1825.270597499999,None,1825.7824980000005,None,1825.7824980000005,None,n,0.8084854000044288,1825.7824980000005,None,,,NC15,001,2020_Mar_10_1219,ProdSingRedo,3.2.3,59.95570472483677,
,,,,172,0,172,0,,,,,,,,,,,,,,,,,,,,,,,,1832.242742699993,None,,,,,,,,,,,,,,,,,beginning,new_b,white,172,134,19,1827.160122500005,None,1827.160122500005,None,1,4.222912299999734,1827.160122500005,None,1831.4349625000032,None,1831.9368932999932,None,1831.9368932999932,None,n,0.27834819999407046,1831.9368932999932,None,,,NC15,001,2020_Mar_10_1219,ProdSingRedo,3.2.3,59.95570472483677,
,,,,173,0,173,0,,,,,,,,,,,,,,,,,,,,,,,,1835.9437215999933,None,,,,,,,,,,,,,,,,,poetry,new_b,white,173,142,225,1832.768412999998,None,1832.768412999998,None,1,2.4705942000000505,1832.768412999998,None,1835.2906927000004,None,1835.8097498999996,None,1835.8097498999996,None,n,0.10925280000083148,1835.8097498999996,None,,,NC15,001,2020_Mar_10_1219,ProdSingRedo,3.2.3,59.95570472483677,
,,,,174,0,174,0,,,,,,,,,,,,,,,,,,,,,,,,1839.193989099993,None,,,,,,,,,,,,,,,,,fellow,new_c,white,174,179,126,1836.4699813000043,None,1836.4699813000043,None,1,2.065120700004627,1836.4699813000043,None,1838.5785556000046,None,1839.0947663999978,None,1839.0947663999978,None,n,0.07229909999296069,1839.0947663999978,None,,,NC15,001,2020_Mar_10_1219,ProdSingRedo,3.2.3,59.95570472483677,
,,,,175,0,175,0,,,,,,,,,,,,,,,,,,,,,,,,1842.2611752999946,None,,,,,,,,,,,,,,,,,death,new_a,white,175,99,86,1839.7206689000013,None,1839.7206689000013,None,1,1.6142581000021892,1839.7206689000013,None,1841.378684700001,None,1841.8955761999969,None,1841.8955761999969,None,n,0.33561460000055376,1841.8955761999969,None,,,NC15,001,2020_Mar_10_1219,ProdSingRedo,3.2.3,59.95570472483677,
,,,,176,0,176,0,,,,,,,,,,,,,,,,,,,,,,,,1846.0596377000038,None,,,,,,,,,,,,,,,,,carry,new_a,white,176,98,43,1842.7890735999972,None,1842.7890735999972,None,1,2.5218095000018366,1842.7890735999972,None,1845.3550226999942,None,1845.881483899997,None,1845.881483899997,None,n,0.14150499999232125,1845.881483899997,None,,,NC15,001,2020_Mar_10_1219,ProdSingRedo,3.2.3,59.95570472483677,
,,,,177,0,177,0,,,,,,,,,,,,,,,,,,,,,,,,1851.4282718000031,None,,,,,,,,,,,,,,,,,crime,new_c,white,177,172,78,1846.583584299995,None,1846.583584299995,None,1,3.7514429000002565,1846.583584299995,None,1850.3730087000004,None,1850.8917531000043,None,1850.8917531000043,None,n,0.507907500010333,1850.8917531000043,None,,,NC15,001,2020_Mar_10_1219,ProdSingRedo,3.2.3,59.95570472483677,
,,,,178,0,178,0,,,,,,,,,,,,,,,,,,,,,,,,1854.8532509999932,None,,,,,,,,,,,,,,,,,commercial,new_a,white,178,108,61,1851.9519888000068,None,1851.9519888000068,None,1,2.006903500005137,1851.9519888000068,None,1854.0125040999992,None,1854.5291016999981,None,1854.5291016999981,None,n,0.2935585999948671,1854.5291016999981,None,,,NC15,001,2020_Mar_10_1219,ProdSingRedo,3.2.3,59.95570472483677,
,,,,179,0,179,0,,,,,,,,,,,,,,,,,,,,,,,,1858.3778970999992,None,,,,,,,,,,,,,,,,,defeat,new_b,white,179,126,88,1855.3710963000049,None,1855.3710963000049,None,1,2.091856800005189,1855.3710963000049,None,1857.5098402000003,None,1858.0354459999944,None,1858.0354459999944,None,n,0.30748180000227876,1858.0354459999944,None,,,NC15,001,2020_Mar_10_1219,ProdSingRedo,3.2.3,59.95570472483677,
,,,,,,,,,,,,,,,,,,,,,,,,,,,,,,,,,,,,,,,,,,,,,,,,,,,,,,,,,,,,,,,,,,,,,,,,,1858.8846342000033,None,,,,,,,
