StudyLoop.thisRepN,StudyLoop.thisTrialN,StudyLoop.thisN,StudyLoop.thisIndex,TestLoop.thisRepN,TestLoop.thisTrialN,TestLoop.thisN,TestLoop.thisIndex,keyCondition.keys,keyCondition.rt,Condition,stim_colors,color_sing,color_aloud,color_silent,keyWelcome.keys,keyWelcome.rt,study_word,study_type,study_color,study_num,study_word_num,keyStudy.keys,key_resp_3.keys,key_resp_3.rt,testWord,testType,testColor,testN,test_num,test_word_num,keyConf.keys,keyConf.rt,keyRKN.keys,keyRKN.rt,date,frameRate,expName,session,participant,
,,,,,,,,n,2.46864099998,,,,,,,,,,,,,,,,,,,,,,,,,,2021_Oct_25_0929,59.9479052575,ProdSingRedo,001,NC16,
,,,,,,,,,,NeutralTest,"['blue', 'red', 'yellow']",blue,red,yellow,space,631.2529166,,,,,,,,,,,,,,,,,,,2021_Oct_25_0929,59.9479052575,ProdSingRedo,001,NC16,
0,0,0,0,,,,,,,,,,,,,,production,sing,blue,1,240,None,,,,,,,,,,,,,2021_Oct_25_0929,59.9479052575,ProdSingRedo,001,NC16,
1,0,1,0,,,,,,,,,,,,,,guest,sing,blue,27,146,None,,,,,,,,,,,,,2021_Oct_25_0929,59.9479052575,ProdSingRedo,001,NC16,
2,0,2,0,,,,,,,,,,,,,,fellow,aloud,red,32,126,None,,,,,,,,,,,,,2021_Oct_25_0929,59.9479052575,ProdSingRedo,001,NC16,
3,0,3,0,,,,,,,,,,,,,,executive,silent,yellow,71,122,None,,,,,,,,,,,,,2021_Oct_25_0929,59.9479052575,ProdSingRedo,001,NC16,
4,0,4,0,,,,,,,,,,,,,,article,aloud,red,58,11,None,,,,,,,,,,,,,2021_Oct_25_0929,59.9479052575,ProdSingRedo,001,NC16,
5,0,5,0,,,,,,,,,,,,,,alert,silent,yellow,72,6,None,,,,,,,,,,,,,2021_Oct_25_0929,59.9479052575,ProdSingRedo,001,NC16,
6,0,6,0,,,,,,,,,,,,,,group,aloud,red,38,143,None,,,,,,,,,,,,,2021_Oct_25_0929,59.9479052575,ProdSingRedo,001,NC16,
7,0,7,0,,,,,,,,,,,,,,reach,silent,yellow,82,253,None,,,,,,,,,,,,,2021_Oct_25_0929,59.9479052575,ProdSingRedo,001,NC16,
8,0,8,0,,,,,,,,,,,,,,story,silent,yellow,74,306,None,,,,,,,,,,,,,2021_Oct_25_0929,59.9479052575,ProdSingRedo,001,NC16,
9,0,9,0,,,,,,,,,,,,,,power,sing,blue,26,230,None,,,,,,,,,,,,,2021_Oct_25_0929,59.9479052575,ProdSingRedo,001,NC16,
10,0,10,0,,,,,,,,,,,,,,voice,silent,yellow,61,348,None,,,,,,,,,,,,,2021_Oct_25_0929,59.9479052575,ProdSingRedo,001,NC16,
11,0,11,0,,,,,,,,,,,,,,signal,aloud,red,40,287,None,,,,,,,,,,,,,2021_Oct_25_0929,59.9479052575,ProdSingRedo,001,NC16,
12,0,12,0,,,,,,,,,,,,,,direction,aloud,red,37,94,None,,,,,,,,,,,,,2021_Oct_25_0929,59.9479052575,ProdSingRedo,001,NC16,
13,0,13,0,,,,,,,,,,,,,,series,aloud,red,51,279,None,,,,,,,,,,,,,2021_Oct_25_0929,59.9479052575,ProdSingRedo,001,NC16,
14,0,14,0,,,,,,,,,,,,,,rough,sing,blue,19,266,None,,,,,,,,,,,,,2021_Oct_25_0929,59.9479052575,ProdSingRedo,001,NC16,
15,0,15,0,,,,,,,,,,,,,,space,sing,blue,5,297,None,,,,,,,,,,,,,2021_Oct_25_0929,59.9479052575,ProdSingRedo,001,NC16,
16,0,16,0,,,,,,,,,,,,,,owner,aloud,red,30,208,None,,,,,,,,,,,,,2021_Oct_25_0929,59.9479052575,ProdSingRedo,001,NC16,
17,0,17,0,,,,,,,,,,,,,,theme,silent,yellow,81,326,None,,,,,,,,,,,,,2021_Oct_25_0929,59.9479052575,ProdSingRedo,001,NC16,
18,0,18,0,,,,,,,,,,,,,,tough,sing,blue,4,333,None,,,,,,,,,,,,,2021_Oct_25_0929,59.9479052575,ProdSingRedo,001,NC16,
19,0,19,0,,,,,,,,,,,,,,nature,aloud,red,54,200,None,,,,,,,,,,,,,2021_Oct_25_0929,59.9479052575,ProdSingRedo,001,NC16,
20,0,20,0,,,,,,,,,,,,,,vision,silent,yellow,60,347,None,,,,,,,,,,,,,2021_Oct_25_0929,59.9479052575,ProdSingRedo,001,NC16,
21,0,21,0,,,,,,,,,,,,,,crowd,sing,blue,2,81,None,,,,,,,,,,,,,2021_Oct_25_0929,59.9479052575,ProdSingRedo,001,NC16,
22,0,22,0,,,,,,,,,,,,,,accident,sing,blue,9,0,None,,,,,,,,,,,,,2021_Oct_25_0929,59.9479052575,ProdSingRedo,001,NC16,
23,0,23,0,,,,,,,,,,,,,,clean,silent,yellow,86,51,None,,,,,,,,,,,,,2021_Oct_25_0929,59.9479052575,ProdSingRedo,001,NC16,
24,0,24,0,,,,,,,,,,,,,,foundation,sing,blue,10,132,None,,,,,,,,,,,,,2021_Oct_25_0929,59.9479052575,ProdSingRedo,001,NC16,
25,0,25,0,,,,,,,,,,,,,,state,aloud,red,33,303,None,,,,,,,,,,,,,2021_Oct_25_0929,59.9479052575,ProdSingRedo,001,NC16,
26,0,26,0,,,,,,,,,,,,,,exchange,silent,yellow,65,121,None,,,,,,,,,,,,,2021_Oct_25_0929,59.9479052575,ProdSingRedo,001,NC16,
27,0,27,0,,,,,,,,,,,,,,leader,sing,blue,16,168,None,,,,,,,,,,,,,2021_Oct_25_0929,59.9479052575,ProdSingRedo,001,NC16,
28,0,28,0,,,,,,,,,,,,,,citizen,silent,yellow,69,50,None,,,,,,,,,,,,,2021_Oct_25_0929,59.9479052575,ProdSingRedo,001,NC16,
29,0,29,0,,,,,,,,,,,,,,service,silent,yellow,79,280,None,,,,,,,,,,,,,2021_Oct_25_0929,59.9479052575,ProdSingRedo,001,NC16,
30,0,30,0,,,,,,,,,,,,,,majority,silent,yellow,83,176,None,,,,,,,,,,,,,2021_Oct_25_0929,59.9479052575,ProdSingRedo,001,NC16,
31,0,31,0,,,,,,,,,,,,,,material,sing,blue,17,182,None,,,,,,,,,,,,,2021_Oct_25_0929,59.9479052575,ProdSingRedo,001,NC16,
32,0,32,0,,,,,,,,,,,,,,color,sing,blue,23,56,None,,,,,,,,,,,,,2021_Oct_25_0929,59.9479052575,ProdSingRedo,001,NC16,
33,0,33,0,,,,,,,,,,,,,,spoke,sing,blue,25,300,None,,,,,,,,,,,,,2021_Oct_25_0929,59.9479052575,ProdSingRedo,001,NC16,
34,0,34,0,,,,,,,,,,,,,,order,silent,yellow,87,207,None,,,,,,,,,,,,,2021_Oct_25_0929,59.9479052575,ProdSingRedo,001,NC16,
35,0,35,0,,,,,,,,,,,,,,rural,aloud,red,47,269,None,,,,,,,,,,,,,2021_Oct_25_0929,59.9479052575,ProdSingRedo,001,NC16,
36,0,36,0,,,,,,,,,,,,,,court,sing,blue,24,75,None,,,,,,,,,,,,,2021_Oct_25_0929,59.9479052575,ProdSingRedo,001,NC16,
37,0,37,0,,,,,,,,,,,,,,design,aloud,red,31,91,None,,,,,,,,,,,,,2021_Oct_25_0929,59.9479052575,ProdSingRedo,001,NC16,
38,0,38,0,,,,,,,,,,,,,,discovery,silent,yellow,88,95,None,,,,,,,,,,,,,2021_Oct_25_0929,59.9479052575,ProdSingRedo,001,NC16,
39,0,39,0,,,,,,,,,,,,,,brilliant,sing,blue,28,30,None,,,,,,,,,,,,,2021_Oct_25_0929,59.9479052575,ProdSingRedo,001,NC16,
40,0,40,0,,,,,,,,,,,,,,force,sing,blue,14,131,None,,,,,,,,,,,,,2021_Oct_25_0929,59.9479052575,ProdSingRedo,001,NC16,
41,0,41,0,,,,,,,,,,,,,,brief,silent,yellow,78,28,None,,,,,,,,,,,,,2021_Oct_25_0929,59.9479052575,ProdSingRedo,001,NC16,
42,0,42,0,,,,,,,,,,,,,,listen,silent,yellow,62,172,None,,,,,,,,,,,,,2021_Oct_25_0929,59.9479052575,ProdSingRedo,001,NC16,
43,0,43,0,,,,,,,,,,,,,,dream,aloud,red,49,104,None,,,,,,,,,,,,,2021_Oct_25_0929,59.9479052575,ProdSingRedo,001,NC16,
44,0,44,0,,,,,,,,,,,,,,attack,sing,blue,22,13,None,,,,,,,,,,,,,2021_Oct_25_0929,59.9479052575,ProdSingRedo,001,NC16,
45,0,45,0,,,,,,,,,,,,,,session,silent,yellow,70,281,None,,,,,,,,,,,,,2021_Oct_25_0929,59.9479052575,ProdSingRedo,001,NC16,
46,0,46,0,,,,,,,,,,,,,,rapid,aloud,red,57,252,None,,,,,,,,,,,,,2021_Oct_25_0929,59.9479052575,ProdSingRedo,001,NC16,
47,0,47,0,,,,,,,,,,,,,,partner,aloud,red,56,211,None,,,,,,,,,,,,,2021_Oct_25_0929,59.9479052575,ProdSingRedo,001,NC16,
48,0,48,0,,,,,,,,,,,,,,debate,silent,yellow,66,87,None,,,,,,,,,,,,,2021_Oct_25_0929,59.9479052575,ProdSingRedo,001,NC16,
49,0,49,0,,,,,,,,,,,,,,present,silent,yellow,67,231,None,,,,,,,,,,,,,2021_Oct_25_0929,59.9479052575,ProdSingRedo,001,NC16,
50,0,50,0,,,,,,,,,,,,,,conference,silent,yellow,80,66,None,,,,,,,,,,,,,2021_Oct_25_0929,59.9479052575,ProdSingRedo,001,NC16,
51,0,51,0,,,,,,,,,,,,,,running,sing,blue,6,268,None,,,,,,,,,,,,,2021_Oct_25_0929,59.9479052575,ProdSingRedo,001,NC16,
52,0,52,0,,,,,,,,,,,,,,health,sing,blue,20,149,None,,,,,,,,,,,,,2021_Oct_25_0929,59.9479052575,ProdSingRedo,001,NC16,
53,0,53,0,,,,,,,,,,,,,,surface,sing,blue,12,316,None,,,,,,,,,,,,,2021_Oct_25_0929,59.9479052575,ProdSingRedo,001,NC16,
54,0,54,0,,,,,,,,,,,,,,division,silent,yellow,73,101,None,,,,,,,,,,,,,2021_Oct_25_0929,59.9479052575,ProdSingRedo,001,NC16,
55,0,55,0,,,,,,,,,,,,,,watch,sing,blue,18,351,None,,,,,,,,,,,,,2021_Oct_25_0929,59.9479052575,ProdSingRedo,001,NC16,
56,0,56,0,,,,,,,,,,,,,,scene,sing,blue,13,273,None,,,,,,,,,,,,,2021_Oct_25_0929,59.9479052575,ProdSingRedo,001,NC16,
57,0,57,0,,,,,,,,,,,,,,center,aloud,red,50,44,None,,,,,,,,,,,,,2021_Oct_25_0929,59.9479052575,ProdSingRedo,001,NC16,
58,0,58,0,,,,,,,,,,,,,,engineer,aloud,red,59,114,None,,,,,,,,,,,,,2021_Oct_25_0929,59.9479052575,ProdSingRedo,001,NC16,
59,0,59,0,,,,,,,,,,,,,,charter,aloud,red,43,47,None,,,,,,,,,,,,,2021_Oct_25_0929,59.9479052575,ProdSingRedo,001,NC16,
60,0,60,0,,,,,,,,,,,,,,trash,aloud,red,48,337,None,,,,,,,,,,,,,2021_Oct_25_0929,59.9479052575,ProdSingRedo,001,NC16,
61,0,61,0,,,,,,,,,,,,,,primary,sing,blue,0,234,None,,,,,,,,,,,,,2021_Oct_25_0929,59.9479052575,ProdSingRedo,001,NC16,
62,0,62,0,,,,,,,,,,,,,,review,silent,yellow,75,263,None,,,,,,,,,,,,,2021_Oct_25_0929,59.9479052575,ProdSingRedo,001,NC16,
63,0,63,0,,,,,,,,,,,,,,style,silent,yellow,85,311,None,,,,,,,,,,,,,2021_Oct_25_0929,59.9479052575,ProdSingRedo,001,NC16,
64,0,64,0,,,,,,,,,,,,,,payment,silent,yellow,84,215,None,,,,,,,,,,,,,2021_Oct_25_0929,59.9479052575,ProdSingRedo,001,NC16,
65,0,65,0,,,,,,,,,,,,,,trail,sing,blue,3,336,None,,,,,,,,,,,,,2021_Oct_25_0929,59.9479052575,ProdSingRedo,001,NC16,
66,0,66,0,,,,,,,,,,,,,,minute,aloud,red,42,192,None,,,,,,,,,,,,,2021_Oct_25_0929,59.9479052575,ProdSingRedo,001,NC16,
67,0,67,0,,,,,,,,,,,,,,murder,sing,blue,21,195,None,,,,,,,,,,,,,2021_Oct_25_0929,59.9479052575,ProdSingRedo,001,NC16,
68,0,68,0,,,,,,,,,,,,,,appeal,silent,yellow,77,9,None,,,,,,,,,,,,,2021_Oct_25_0929,59.9479052575,ProdSingRedo,001,NC16,
69,0,69,0,,,,,,,,,,,,,,dispute,sing,blue,8,99,None,,,,,,,,,,,,,2021_Oct_25_0929,59.9479052575,ProdSingRedo,001,NC16,
70,0,70,0,,,,,,,,,,,,,,shear,aloud,red,34,283,None,,,,,,,,,,,,,2021_Oct_25_0929,59.9479052575,ProdSingRedo,001,NC16,
71,0,71,0,,,,,,,,,,,,,,split,sing,blue,29,299,None,,,,,,,,,,,,,2021_Oct_25_0929,59.9479052575,ProdSingRedo,001,NC16,
72,0,72,0,,,,,,,,,,,,,,drama,sing,blue,7,103,None,,,,,,,,,,,,,2021_Oct_25_0929,59.9479052575,ProdSingRedo,001,NC16,
73,0,73,0,,,,,,,,,,,,,,thing,aloud,red,45,328,None,,,,,,,,,,,,,2021_Oct_25_0929,59.9479052575,ProdSingRedo,001,NC16,
74,0,74,0,,,,,,,,,,,,,,swift,silent,yellow,64,320,None,,,,,,,,,,,,,2021_Oct_25_0929,59.9479052575,ProdSingRedo,001,NC16,
75,0,75,0,,,,,,,,,,,,,,religion,sing,blue,15,258,None,,,,,,,,,,,,,2021_Oct_25_0929,59.9479052575,ProdSingRedo,001,NC16,
76,0,76,0,,,,,,,,,,,,,,pressure,aloud,red,35,232,None,,,,,,,,,,,,,2021_Oct_25_0929,59.9479052575,ProdSingRedo,001,NC16,
77,0,77,0,,,,,,,,,,,,,,member,aloud,red,39,188,None,,,,,,,,,,,,,2021_Oct_25_0929,59.9479052575,ProdSingRedo,001,NC16,
78,0,78,0,,,,,,,,,,,,,,taste,silent,yellow,89,322,None,,,,,,,,,,,,,2021_Oct_25_0929,59.9479052575,ProdSingRedo,001,NC16,
79,0,79,0,,,,,,,,,,,,,,surprise,silent,yellow,63,317,None,,,,,,,,,,,,,2021_Oct_25_0929,59.9479052575,ProdSingRedo,001,NC16,
80,0,80,0,,,,,,,,,,,,,,victory,aloud,red,44,346,None,,,,,,,,,,,,,2021_Oct_25_0929,59.9479052575,ProdSingRedo,001,NC16,
81,0,81,0,,,,,,,,,,,,,,society,aloud,red,46,293,None,,,,,,,,,,,,,2021_Oct_25_0929,59.9479052575,ProdSingRedo,001,NC16,
82,0,82,0,,,,,,,,,,,,,,defeat,aloud,red,52,88,None,,,,,,,,,,,,,2021_Oct_25_0929,59.9479052575,ProdSingRedo,001,NC16,
83,0,83,0,,,,,,,,,,,,,,judge,aloud,red,53,166,None,,,,,,,,,,,,,2021_Oct_25_0929,59.9479052575,ProdSingRedo,001,NC16,
84,0,84,0,,,,,,,,,,,,,,worker,aloud,red,36,356,None,,,,,,,,,,,,,2021_Oct_25_0929,59.9479052575,ProdSingRedo,001,NC16,
85,0,85,0,,,,,,,,,,,,,,afternoon,sing,blue,11,3,None,,,,,,,,,,,,,2021_Oct_25_0929,59.9479052575,ProdSingRedo,001,NC16,
86,0,86,0,,,,,,,,,,,,,,narrow,silent,yellow,68,197,None,,,,,,,,,,,,,2021_Oct_25_0929,59.9479052575,ProdSingRedo,001,NC16,
87,0,87,0,,,,,,,,,,,,,,native,aloud,red,41,199,None,,,,,,,,,,,,,2021_Oct_25_0929,59.9479052575,ProdSingRedo,001,NC16,
88,0,88,0,,,,,,,,,,,,,,election,aloud,red,55,109,None,,,,,,,,,,,,,2021_Oct_25_0929,59.9479052575,ProdSingRedo,001,NC16,
89,0,89,0,,,,,,,,,,,,,,collection,silent,yellow,76,54,None,,,,,,,,,,,,,2021_Oct_25_0929,59.9479052575,ProdSingRedo,001,NC16,
,,,,,,,,,,,,,,,,,,,,,,,k,124.8262061,,,,,,,,,,,2021_Oct_25_0929,59.9479052575,ProdSingRedo,001,NC16,
,,,,0,0,0,0,,,,,,,,,,,,,,,,,,travel,new_c,white,0,150,338,3,7.11257179995,f,8.69959009998,2021_Oct_25_0929,59.9479052575,ProdSingRedo,001,NC16,
,,,,1,0,1,0,,,,,,,,,,,,,,,,,,judge,aloud,white,1,53,166,6,2.74146460003,r,2.29386670003,2021_Oct_25_0929,59.9479052575,ProdSingRedo,001,NC16,
,,,,2,0,2,0,,,,,,,,,,,,,,,,,,murder,sing,white,2,21,195,6,2.54197939998,r,0.556752199947,2021_Oct_25_0929,59.9479052575,ProdSingRedo,001,NC16,
,,,,3,0,3,0,,,,,,,,,,,,,,,,,,vision,silent,white,3,60,347,3,3.19299080002,f,1.27298920002,2021_Oct_25_0929,59.9479052575,ProdSingRedo,001,NC16,
,,,,4,0,4,0,,,,,,,,,,,,,,,,,,payment,silent,white,4,84,215,1,2.10804560001,n,2.60736600001,2021_Oct_25_0929,59.9479052575,ProdSingRedo,001,NC16,
,,,,5,0,5,0,,,,,,,,,,,,,,,,,,pancakes,new_a,white,5,100,210,1,2.83129060001,n,1.83239459997,2021_Oct_25_0929,59.9479052575,ProdSingRedo,001,NC16,
,,,,6,0,6,0,,,,,,,,,,,,,,,,,,relation,new_a,white,6,109,257,2,4.46228810004,n,1.47922620003,2021_Oct_25_0929,59.9479052575,ProdSingRedo,001,NC16,
,,,,7,0,7,0,,,,,,,,,,,,,,,,,,tough,sing,white,7,4,333,4,2.88126259996,f,1.52212629997,2021_Oct_25_0929,59.9479052575,ProdSingRedo,001,NC16,
,,,,8,0,8,0,,,,,,,,,,,,,,,,,,guest,sing,white,8,27,146,5,3.13368480001,r,3.05047249998,2021_Oct_25_0929,59.9479052575,ProdSingRedo,001,NC16,
,,,,9,0,9,0,,,,,,,,,,,,,,,,,,taste,silent,white,9,89,322,6,1.76572179998,r,0.862301199988,2021_Oct_25_0929,59.9479052575,ProdSingRedo,001,NC16,
,,,,10,0,10,0,,,,,,,,,,,,,,,,,,breath,new_a,white,10,99,27,1,2.00553899998,n,1.6283557,2021_Oct_25_0929,59.9479052575,ProdSingRedo,001,NC16,
,,,,11,0,11,0,,,,,,,,,,,,,,,,,,election,aloud,white,11,55,109,5,2.52678130002,r,1.14129080001,2021_Oct_25_0929,59.9479052575,ProdSingRedo,001,NC16,
,,,,12,0,12,0,,,,,,,,,,,,,,,,,,guide,new_c,white,12,169,147,2,2.80037060002,n,1.36604719999,2021_Oct_25_0929,59.9479052575,ProdSingRedo,001,NC16,
,,,,13,0,13,0,,,,,,,,,,,,,,,,,,south,new_c,white,13,162,296,1,1.70630249998,n,0.329967600002,2021_Oct_25_0929,59.9479052575,ProdSingRedo,001,NC16,
,,,,14,0,14,0,,,,,,,,,,,,,,,,,,trial,new_c,white,14,151,341,5,2.06680480001,r,2.16794459999,2021_Oct_25_0929,59.9479052575,ProdSingRedo,001,NC16,
,,,,15,0,15,0,,,,,,,,,,,,,,,,,,pattern,new_a,white,15,106,214,1,1.62972199998,n,0.179978600005,2021_Oct_25_0929,59.9479052575,ProdSingRedo,001,NC16,
,,,,16,0,16,0,,,,,,,,,,,,,,,,,,cover,new_b,white,16,141,77,1,1.47020119999,n,0.2407198,2021_Oct_25_0929,59.9479052575,ProdSingRedo,001,NC16,
,,,,17,0,17,0,,,,,,,,,,,,,,,,,,object,new_a,white,17,94,204,1,1.38979550003,n,0.831983799988,2021_Oct_25_0929,59.9479052575,ProdSingRedo,001,NC16,
,,,,18,0,18,0,,,,,,,,,,,,,,,,,,watch,sing,white,18,18,351,4,4.70021499996,r,0.873526100011,2021_Oct_25_0929,59.9479052575,ProdSingRedo,001,NC16,
,,,,19,0,19,0,,,,,,,,,,,,,,,,,,dozen,new_c,white,19,164,102,1,1.94436239998,n,0.289003700018,2021_Oct_25_0929,59.9479052575,ProdSingRedo,001,NC16,
,,,,20,0,20,0,,,,,,,,,,,,,,,,,,production,sing,white,20,1,240,5,4.66635740001,r,1.05992890004,2021_Oct_25_0929,59.9479052575,ProdSingRedo,001,NC16,
,,,,21,0,21,0,,,,,,,,,,,,,,,,,,group,aloud,white,21,38,143,3,3.20907099999,f,1.46119600005,2021_Oct_25_0929,59.9479052575,ProdSingRedo,001,NC16,
,,,,22,0,22,0,,,,,,,,,,,,,,,,,,review,silent,white,22,75,263,1,1.69533179997,n,0.406985800015,2021_Oct_25_0929,59.9479052575,ProdSingRedo,001,NC16,
,,,,23,0,23,0,,,,,,,,,,,,,,,,,,partner,aloud,white,23,56,211,5,2.37203059997,r,0.946898799972,2021_Oct_25_0929,59.9479052575,ProdSingRedo,001,NC16,
,,,,24,0,24,0,,,,,,,,,,,,,,,,,,sunset,new_c,white,24,178,315,1,1.78730319999,n,0.0579959000461,2021_Oct_25_0929,59.9479052575,ProdSingRedo,001,NC16,
,,,,25,0,25,0,,,,,,,,,,,,,,,,,,range,new_b,white,25,147,251,2,4.20202599996,n,1.78940030001,2021_Oct_25_0929,59.9479052575,ProdSingRedo,001,NC16,
,,,,26,0,26,0,,,,,,,,,,,,,,,,,,fellow,aloud,white,26,32,126,5,2.2824266,r,0.372184099979,2021_Oct_25_0929,59.9479052575,ProdSingRedo,001,NC16,
,,,,27,0,27,0,,,,,,,,,,,,,,,,,,tragedy,new_a,white,27,102,335,1,1.57331139996,n,0.253831700014,2021_Oct_25_0929,59.9479052575,ProdSingRedo,001,NC16,
,,,,28,0,28,0,,,,,,,,,,,,,,,,,,blind,new_c,white,28,175,24,1,1.78170530003,n,0.217949199956,2021_Oct_25_0929,59.9479052575,ProdSingRedo,001,NC16,
,,,,29,0,29,0,,,,,,,,,,,,,,,,,,impact,new_b,white,29,148,157,2,3.96944929997,n,0.381758000003,2021_Oct_25_0929,59.9479052575,ProdSingRedo,001,NC16,
,,,,30,0,30,0,,,,,,,,,,,,,,,,,,story,silent,white,30,74,306,1,3.74829109997,n,0.479674300004,2021_Oct_25_0929,59.9479052575,ProdSingRedo,001,NC16,
,,,,31,0,31,0,,,,,,,,,,,,,,,,,,suggestion,new_b,white,31,143,314,5,2.92620400002,r,0.333665200043,2021_Oct_25_0929,59.9479052575,ProdSingRedo,001,NC16,
,,,,32,0,32,0,,,,,,,,,,,,,,,,,,music,new_c,white,32,174,196,2,2.92668719997,n,0.230317300011,2021_Oct_25_0929,59.9479052575,ProdSingRedo,001,NC16,
,,,,33,0,33,0,,,,,,,,,,,,,,,,,,trail,sing,white,33,3,336,5,2.52309149998,r,0.881584900024,2021_Oct_25_0929,59.9479052575,ProdSingRedo,001,NC16,
,,,,34,0,34,0,,,,,,,,,,,,,,,,,,state,aloud,white,34,33,303,5,2.65955670003,r,0.232245600026,2021_Oct_25_0929,59.9479052575,ProdSingRedo,001,NC16,
,,,,35,0,35,0,,,,,,,,,,,,,,,,,,bitter,new_c,white,35,166,23,2,2.6786096,n,0.381641000044,2021_Oct_25_0929,59.9479052575,ProdSingRedo,001,NC16,
,,,,36,0,36,0,,,,,,,,,,,,,,,,,,defeat,aloud,white,36,52,88,5,3.98232540005,r,0.0639214999974,2021_Oct_25_0929,59.9479052575,ProdSingRedo,001,NC16,
,,,,37,0,37,0,,,,,,,,,,,,,,,,,,worker,aloud,white,37,36,356,5,1.54233510001,r,0.000741199997719,2021_Oct_25_0929,59.9479052575,ProdSingRedo,001,NC16,
,,,,38,0,38,0,,,,,,,,,,,,,,,,,,route,new_a,white,38,101,267,2,4.04776009999,n,0.0175798999844,2021_Oct_25_0929,59.9479052575,ProdSingRedo,001,NC16,
,,,,39,0,39,0,,,,,,,,,,,,,,,,,,engineer,aloud,white,39,59,114,5,1.75617210002,r,0.000276500009932,2021_Oct_25_0929,59.9479052575,ProdSingRedo,001,NC16,
,,,,40,0,40,0,,,,,,,,,,,,,,,,,,close,new_b,white,40,137,53,1,5.57062169997,n,1.95044420002,2021_Oct_25_0929,59.9479052575,ProdSingRedo,001,NC16,
,,,,41,0,41,0,,,,,,,,,,,,,,,,,,guard,new_b,white,41,142,145,3,2.33247759996,f,0.0114408999798,2021_Oct_25_0929,59.9479052575,ProdSingRedo,001,NC16,
,,,,42,0,42,0,,,,,,,,,,,,,,,,,,personnel,new_c,white,42,170,219,1,1.85382749996,n,0.27816700004,2021_Oct_25_0929,59.9479052575,ProdSingRedo,001,NC16,
,,,,43,0,43,0,,,,,,,,,,,,,,,,,,narrow,silent,white,43,68,197,6,2.47920489998,r,0.0387616000371,2021_Oct_25_0929,59.9479052575,ProdSingRedo,001,NC16,
,,,,44,0,44,0,,,,,,,,,,,,,,,,,,union,new_b,white,44,149,344,2,3.23924869997,n,0.192520499986,2021_Oct_25_0929,59.9479052575,ProdSingRedo,001,NC16,
,,,,45,0,45,0,,,,,,,,,,,,,,,,,,treatment,new_c,white,45,161,339,2,6.14636749995,n,0.836356899992,2021_Oct_25_0929,59.9479052575,ProdSingRedo,001,NC16,
,,,,46,0,46,0,,,,,,,,,,,,,,,,,,plane,new_c,white,46,156,223,1,1.49314799998,n,0.0403230999946,2021_Oct_25_0929,59.9479052575,ProdSingRedo,001,NC16,
,,,,47,0,47,0,,,,,,,,,,,,,,,,,,article,aloud,white,47,58,11,5,1.93103909999,r,0.114207400009,2021_Oct_25_0929,59.9479052575,ProdSingRedo,001,NC16,
,,,,48,0,48,0,,,,,,,,,,,,,,,,,,dream,aloud,white,48,49,104,3,2.77997209999,f,0.112117799988,2021_Oct_25_0929,59.9479052575,ProdSingRedo,001,NC16,
,,,,49,0,49,0,,,,,,,,,,,,,,,,,,stand,new_b,white,49,145,302,3,2.75956139999,f,1.01191560004,2021_Oct_25_0929,59.9479052575,ProdSingRedo,001,NC16,
,,,,50,0,50,0,,,,,,,,,,,,,,,,,,space,sing,white,50,5,297,1,2.97454510001,n,0.190812300018,2021_Oct_25_0929,59.9479052575,ProdSingRedo,001,NC16,
,,,,51,0,51,0,,,,,,,,,,,,,,,,,,junior,new_b,white,51,133,167,1,1.97937790002,n,0.624363300041,2021_Oct_25_0929,59.9479052575,ProdSingRedo,001,NC16,
,,,,52,0,52,0,,,,,,,,,,,,,,,,,,spoke,sing,white,52,25,300,1,1.87136770005,n,0.225367900042,2021_Oct_25_0929,59.9479052575,ProdSingRedo,001,NC16,
,,,,53,0,53,0,,,,,,,,,,,,,,,,,,expansion,new_a,white,53,92,123,1,2.30731289997,n,1.15471420001,2021_Oct_25_0929,59.9479052575,ProdSingRedo,001,NC16,
,,,,54,0,54,0,,,,,,,,,,,,,,,,,,dispute,sing,white,54,8,99,6,3.2244445,r,1.25978760002,2021_Oct_25_0929,59.9479052575,ProdSingRedo,001,NC16,
,,,,55,0,55,0,,,,,,,,,,,,,,,,,,sleep,new_c,white,55,168,290,3,2.82667390001,f,2.0051751,2021_Oct_25_0929,59.9479052575,ProdSingRedo,001,NC16,
,,,,56,0,56,0,,,,,,,,,,,,,,,,,,health,sing,white,56,20,149,1,2.9318897,n,0.977429100021,2021_Oct_25_0929,59.9479052575,ProdSingRedo,001,NC16,
,,,,57,0,57,0,,,,,,,,,,,,,,,,,,conference,silent,white,57,80,66,1,4.09002109995,n,0.27545159997,2021_Oct_25_0929,59.9479052575,ProdSingRedo,001,NC16,
,,,,58,0,58,0,,,,,,,,,,,,,,,,,,measure,new_b,white,58,144,184,1,1.34902199998,n,0.42417730001,2021_Oct_25_0929,59.9479052575,ProdSingRedo,001,NC16,
,,,,59,0,59,0,,,,,,,,,,,,,,,,,,victory,aloud,white,59,44,346,6,2.77544380003,r,1.04059069999,2021_Oct_25_0929,59.9479052575,ProdSingRedo,001,NC16,
,,,,60,0,60,0,,,,,,,,,,,,,,,,,,congress,new_a,white,60,117,67,1,3.01226549997,n,0.262951600016,2021_Oct_25_0929,59.9479052575,ProdSingRedo,001,NC16,
,,,,61,0,61,0,,,,,,,,,,,,,,,,,,thing,aloud,white,61,45,328,1,1.4260418,n,0.165612199984,2021_Oct_25_0929,59.9479052575,ProdSingRedo,001,NC16,
,,,,62,0,62,0,,,,,,,,,,,,,,,,,,accident,sing,white,62,9,0,2,3.22324380005,n,0.0880209999741,2021_Oct_25_0929,59.9479052575,ProdSingRedo,001,NC16,
,,,,63,0,63,0,,,,,,,,,,,,,,,,,,commercial,new_b,white,63,132,61,3,4.79389640002,f,0.706650700013,2021_Oct_25_0929,59.9479052575,ProdSingRedo,001,NC16,
,,,,64,0,64,0,,,,,,,,,,,,,,,,,,history,new_c,white,64,153,153,1,1.62881729996,n,0.128907400009,2021_Oct_25_0929,59.9479052575,ProdSingRedo,001,NC16,
,,,,65,0,65,0,,,,,,,,,,,,,,,,,,theme,silent,white,65,81,326,4,2.65298299998,f,0.504687900015,2021_Oct_25_0929,59.9479052575,ProdSingRedo,001,NC16,
,,,,66,0,66,0,,,,,,,,,,,,,,,,,,safety,new_c,white,66,171,270,5,3.66075039998,r,0.045953999972,2021_Oct_25_0929,59.9479052575,ProdSingRedo,001,NC16,
,,,,67,0,67,0,,,,,,,,,,,,,,,,,,mechanical,new_c,white,67,179,185,2,5.41000480001,n,0.0188476999756,2021_Oct_25_0929,59.9479052575,ProdSingRedo,001,NC16,
,,,,68,0,68,0,,,,,,,,,,,,,,,,,,degree,new_a,white,68,107,89,1,1.66914120002,n,0.0891274000169,2021_Oct_25_0929,59.9479052575,ProdSingRedo,001,NC16,
,,,,69,0,69,0,,,,,,,,,,,,,,,,,,native,aloud,white,69,41,199,6,2.04112389998,r,1.22636289999,2021_Oct_25_0929,59.9479052575,ProdSingRedo,001,NC16,
,,,,70,0,70,0,,,,,,,,,,,,,,,,,,produce,new_c,white,70,172,239,2,6.83356920001,n,1.06183289998,2021_Oct_25_0929,59.9479052575,ProdSingRedo,001,NC16,
,,,,71,0,71,0,,,,,,,,,,,,,,,,,,surprise,silent,white,71,63,317,1,1.77730159997,n,0.861266800028,2021_Oct_25_0929,59.9479052575,ProdSingRedo,001,NC16,
,,,,72,0,72,0,,,,,,,,,,,,,,,,,,force,sing,white,72,14,131,5,2.5156331,r,0.334255499998,2021_Oct_25_0929,59.9479052575,ProdSingRedo,001,NC16,
,,,,73,0,73,0,,,,,,,,,,,,,,,,,,concern,new_b,white,73,134,65,4,6.07608499995,f,2.13164380001,2021_Oct_25_0929,59.9479052575,ProdSingRedo,001,NC16,
,,,,74,0,74,0,,,,,,,,,,,,,,,,,,committee,new_c,white,74,167,62,1,3.52737059997,n,0.0190209999564,2021_Oct_25_0929,59.9479052575,ProdSingRedo,001,NC16,
,,,,75,0,75,0,,,,,,,,,,,,,,,,,,frank,new_a,white,75,118,133,1,1.47064030002,n,0.107417199994,2021_Oct_25_0929,59.9479052575,ProdSingRedo,001,NC16,
,,,,76,0,76,0,,,,,,,,,,,,,,,,,,rough,sing,white,76,19,266,3,2.7414922,f,0.927809300018,2021_Oct_25_0929,59.9479052575,ProdSingRedo,001,NC16,
,,,,77,0,77,0,,,,,,,,,,,,,,,,,,pressure,aloud,white,77,35,232,5,1.73980939999,r,1.32965049997,2021_Oct_25_0929,59.9479052575,ProdSingRedo,001,NC16,
,,,,78,0,78,0,,,,,,,,,,,,,,,,,,debate,silent,white,78,66,87,5,2.91014970001,r,0.461174099997,2021_Oct_25_0929,59.9479052575,ProdSingRedo,001,NC16,
,,,,79,0,79,0,,,,,,,,,,,,,,,,,,period,new_a,white,79,98,217,2,2.53248559998,n,0.645415199979,2021_Oct_25_0929,59.9479052575,ProdSingRedo,001,NC16,
,,,,80,0,80,0,,,,,,,,,,,,,,,,,,minute,aloud,white,80,42,192,1,1.3264663,n,0.0810703999596,2021_Oct_25_0929,59.9479052575,ProdSingRedo,001,NC16,
,,,,81,0,81,0,,,,,,,,,,,,,,,,,,resistance,new_a,white,81,113,262,1,1.67531999998,n,0.526222599961,2021_Oct_25_0929,59.9479052575,ProdSingRedo,001,NC16,
,,,,82,0,82,0,,,,,,,,,,,,,,,,,,power,sing,white,82,26,230,2,1.62441970001,n,0.223853299976,2021_Oct_25_0929,59.9479052575,ProdSingRedo,001,NC16,
,,,,83,0,83,0,,,,,,,,,,,,,,,,,,general,new_b,white,83,125,135,2,3.57862099999,n,0.107556000003,2021_Oct_25_0929,59.9479052575,ProdSingRedo,001,NC16,
,,,,84,0,84,0,,,,,,,,,,,,,,,,,,reading,new_a,white,84,104,254,2,1.32984099997,n,0.0591725999839,2021_Oct_25_0929,59.9479052575,ProdSingRedo,001,NC16,
,,,,85,0,85,0,,,,,,,,,,,,,,,,,,scene,sing,white,85,13,273,6,2.18944689998,r,0.703976000019,2021_Oct_25_0929,59.9479052575,ProdSingRedo,001,NC16,
,,,,86,0,86,0,,,,,,,,,,,,,,,,,,leader,sing,white,86,16,168,2,3.17971150001,n,0.366115700046,2021_Oct_25_0929,59.9479052575,ProdSingRedo,001,NC16,
,,,,87,0,87,0,,,,,,,,,,,,,,,,,,discovery,silent,white,87,88,95,2,1.50290690002,n,0.22463380004,2021_Oct_25_0929,59.9479052575,ProdSingRedo,001,NC16,
,,,,88,0,88,0,,,,,,,,,,,,,,,,,,rapid,aloud,white,88,57,252,6,1.32498930005,r,0.581557600002,2021_Oct_25_0929,59.9479052575,ProdSingRedo,001,NC16,
,,,,89,0,89,0,,,,,,,,,,,,,,,,,,number,new_a,white,89,105,203,3,4.6263153,f,0.290820599999,2021_Oct_25_0929,59.9479052575,ProdSingRedo,001,NC16,
,,,,90,0,90,0,,,,,,,,,,,,,,,,,,institute,new_a,white,90,111,162,1,2.13633210002,n,0.878323099983,2021_Oct_25_0929,59.9479052575,ProdSingRedo,001,NC16,
,,,,91,0,91,0,,,,,,,,,,,,,,,,,,color,sing,white,91,23,56,1,1.62301460002,n,0.0968783000135,2021_Oct_25_0929,59.9479052575,ProdSingRedo,001,NC16,
,,,,92,0,92,0,,,,,,,,,,,,,,,,,,heavy,new_b,white,92,120,151,1,1.29949259997,n,0.394903299981,2021_Oct_25_0929,59.9479052575,ProdSingRedo,001,NC16,
,,,,93,0,93,0,,,,,,,,,,,,,,,,,,short,new_b,white,93,121,285,1,1.38451030001,n,0.270437300031,2021_Oct_25_0929,59.9479052575,ProdSingRedo,001,NC16,
,,,,94,0,94,0,,,,,,,,,,,,,,,,,,quick,new_a,white,94,96,248,3,4.75685229996,f,0.406774000032,2021_Oct_25_0929,59.9479052575,ProdSingRedo,001,NC16,
,,,,95,0,95,0,,,,,,,,,,,,,,,,,,notice,new_b,white,95,124,201,3,2.10902530001,f,0.114405400003,2021_Oct_25_0929,59.9479052575,ProdSingRedo,001,NC16,
,,,,96,0,96,0,,,,,,,,,,,,,,,,,,majority,silent,white,96,83,176,6,1.47727809998,r,0.189915499999,2021_Oct_25_0929,59.9479052575,ProdSingRedo,001,NC16,
,,,,97,0,97,0,,,,,,,,,,,,,,,,,,signal,aloud,white,97,40,287,3,3.00923749997,f,0.487477600051,2021_Oct_25_0929,59.9479052575,ProdSingRedo,001,NC16,
,,,,98,0,98,0,,,,,,,,,,,,,,,,,,empty,new_b,white,98,138,112,4,2.32325179997,f,0.196915500041,2021_Oct_25_0929,59.9479052575,ProdSingRedo,001,NC16,
,,,,99,0,99,0,,,,,,,,,,,,,,,,,,material,sing,white,99,17,182,4,1.47132990003,f,0.468646200025,2021_Oct_25_0929,59.9479052575,ProdSingRedo,001,NC16,
,,,,100,0,100,0,,,,,,,,,,,,,,,,,,enemy,new_b,white,100,129,113,1,1.74966560001,n,0.0671013999963,2021_Oct_25_0929,59.9479052575,ProdSingRedo,001,NC16,
,,,,101,0,101,0,,,,,,,,,,,,,,,,,,point,new_b,white,101,127,226,3,2.14363470004,n,0.568004100001,2021_Oct_25_0929,59.9479052575,ProdSingRedo,001,NC16,
,,,,102,0,102,0,,,,,,,,,,,,,,,,,,audience,new_b,white,102,130,14,1,5.05908739998,n,0.0280214000377,2021_Oct_25_0929,59.9479052575,ProdSingRedo,001,NC16,
,,,,103,0,103,0,,,,,,,,,,,,,,,,,,series,aloud,white,103,51,279,2,1.57514070004,n,0.216530799982,2021_Oct_25_0929,59.9479052575,ProdSingRedo,001,NC16,
,,,,104,0,104,0,,,,,,,,,,,,,,,,,,society,aloud,white,104,46,293,6,1.58558309998,r,2.04477609997,2021_Oct_25_0929,59.9479052575,ProdSingRedo,001,NC16,
,,,,105,0,105,0,,,,,,,,,,,,,,,,,,weight,new_c,white,105,177,353,2,1.47869010002,n,0.713138799998,2021_Oct_25_0929,59.9479052575,ProdSingRedo,001,NC16,
,,,,106,0,106,0,,,,,,,,,,,,,,,,,,member,aloud,white,106,39,188,5,2.12735339999,f,1.71364710003,2021_Oct_25_0929,59.9479052575,ProdSingRedo,001,NC16,
,,,,107,0,107,0,,,,,,,,,,,,,,,,,,background,new_a,white,107,119,16,1,3.94606040005,n,0.140627899964,2021_Oct_25_0929,59.9479052575,ProdSingRedo,001,NC16,
,,,,108,0,108,0,,,,,,,,,,,,,,,,,,center,aloud,white,108,50,44,1,1.6760943,n,0.105903800053,2021_Oct_25_0929,59.9479052575,ProdSingRedo,001,NC16,
,,,,109,0,109,0,,,,,,,,,,,,,,,,,,master,new_a,white,109,90,180,2,2.00296309998,n,0.124595000001,2021_Oct_25_0929,59.9479052575,ProdSingRedo,001,NC16,
,,,,110,0,110,0,,,,,,,,,,,,,,,,,,division,silent,white,110,73,101,2,1.96020739997,n,0.146029299998,2021_Oct_25_0929,59.9479052575,ProdSingRedo,001,NC16,
,,,,111,0,111,0,,,,,,,,,,,,,,,,,,exchange,silent,white,111,65,121,5,2.24263779999,f,0.163234499982,2021_Oct_25_0929,59.9479052575,ProdSingRedo,001,NC16,
,,,,112,0,112,0,,,,,,,,,,,,,,,,,,voice,silent,white,112,61,348,4,2.0650149,f,1.3821328,2021_Oct_25_0929,59.9479052575,ProdSingRedo,001,NC16,
,,,,113,0,113,0,,,,,,,,,,,,,,,,,,surface,sing,white,113,12,316,5,1.54968149995,r,0.53616009996,2021_Oct_25_0929,59.9479052575,ProdSingRedo,001,NC16,
,,,,114,0,114,0,,,,,,,,,,,,,,,,,,write,new_b,white,114,126,358,1,2.02746270003,n,0.333396799979,2021_Oct_25_0929,59.9479052575,ProdSingRedo,001,NC16,
,,,,115,0,115,0,,,,,,,,,,,,,,,,,,bicycle,new_a,white,115,93,21,1,0.826750600012,n,0.394211100007,2021_Oct_25_0929,59.9479052575,ProdSingRedo,001,NC16,
,,,,116,0,116,0,,,,,,,,,,,,,,,,,,executive,silent,white,116,71,122,4,4.73792600003,f,0.606991500012,2021_Oct_25_0929,59.9479052575,ProdSingRedo,001,NC16,
,,,,117,0,117,0,,,,,,,,,,,,,,,,,,childhood,new_b,white,117,139,49,1,2.52966589999,n,0.000594500044826,2021_Oct_25_0929,59.9479052575,ProdSingRedo,001,NC16,
,,,,118,0,118,0,,,,,,,,,,,,,,,,,,afternoon,sing,white,118,11,3,6,2.64878569997,r,0.627064200002,2021_Oct_25_0929,59.9479052575,ProdSingRedo,001,NC16,
,,,,119,0,119,0,,,,,,,,,,,,,,,,,,charter,aloud,white,119,43,47,6,2.27908519999,r,0.495458699996,2021_Oct_25_0929,59.9479052575,ProdSingRedo,001,NC16,
,,,,120,0,120,0,,,,,,,,,,,,,,,,,,owner,aloud,white,120,30,208,6,1.47296580003,r,0.457081400033,2021_Oct_25_0929,59.9479052575,ProdSingRedo,001,NC16,
,,,,121,0,121,0,,,,,,,,,,,,,,,,,,listen,silent,white,121,62,172,3,3.07684710005,f,0.461837799987,2021_Oct_25_0929,59.9479052575,ProdSingRedo,001,NC16,
,,,,122,0,122,0,,,,,,,,,,,,,,,,,,trend,new_c,white,122,154,340,1,1.41092910001,n,0.336346900032,2021_Oct_25_0929,59.9479052575,ProdSingRedo,001,NC16,
,,,,123,0,123,0,,,,,,,,,,,,,,,,,,second,new_a,white,123,97,278,1,0.807827000041,n,0.27050579997,2021_Oct_25_0929,59.9479052575,ProdSingRedo,001,NC16,
,,,,124,0,124,0,,,,,,,,,,,,,,,,,,order,silent,white,124,87,207,2,1.60026410001,f,0.263222700043,2021_Oct_25_0929,59.9479052575,ProdSingRedo,001,NC16,
,,,,125,0,125,0,,,,,,,,,,,,,,,,,,industry,new_b,white,125,131,161,1,1.82575009996,n,0.307517300011,2021_Oct_25_0929,59.9479052575,ProdSingRedo,001,NC16,
,,,,126,0,126,0,,,,,,,,,,,,,,,,,,provision,new_c,white,126,159,243,1,1.02213340002,n,0.479043899977,2021_Oct_25_0929,59.9479052575,ProdSingRedo,001,NC16,
,,,,127,0,127,0,,,,,,,,,,,,,,,,,,present,silent,white,127,67,231,1,1.25489050004,n,0.143615400011,2021_Oct_25_0929,59.9479052575,ProdSingRedo,001,NC16,
,,,,128,0,128,0,,,,,,,,,,,,,,,,,,session,silent,white,128,70,281,1,1.32578890002,n,0.228972299956,2021_Oct_25_0929,59.9479052575,ProdSingRedo,001,NC16,
,,,,129,0,129,0,,,,,,,,,,,,,,,,,,right,new_c,white,129,158,265,1,0.85193179996,n,0.282593700045,2021_Oct_25_0929,59.9479052575,ProdSingRedo,001,NC16,
,,,,130,0,130,0,,,,,,,,,,,,,,,,,,disease,new_c,white,130,165,97,1,0.799404199992,n,0.0440592999803,2021_Oct_25_0929,59.9479052575,ProdSingRedo,001,NC16,
,,,,131,0,131,0,,,,,,,,,,,,,,,,,,brief,silent,white,131,78,28,2,2.71028119995,n,0.322616000019,2021_Oct_25_0929,59.9479052575,ProdSingRedo,001,NC16,
,,,,132,0,132,0,,,,,,,,,,,,,,,,,,piece,new_c,white,132,173,221,2,1.49676509999,n,0.182208999991,2021_Oct_25_0929,59.9479052575,ProdSingRedo,001,NC16,
,,,,133,0,133,0,,,,,,,,,,,,,,,,,,religion,sing,white,133,15,258,6,1.63535630004,r,0.502281899971,2021_Oct_25_0929,59.9479052575,ProdSingRedo,001,NC16,
,,,,134,0,134,0,,,,,,,,,,,,,,,,,,appeal,silent,white,134,77,9,3,3.16933990002,f,0.322918099992,2021_Oct_25_0929,59.9479052575,ProdSingRedo,001,NC16,
,,,,135,0,135,0,,,,,,,,,,,,,,,,,,collection,silent,white,135,76,54,4,3.3444685,f,0.161895099969,2021_Oct_25_0929,59.9479052575,ProdSingRedo,001,NC16,
,,,,136,0,136,0,,,,,,,,,,,,,,,,,,dance,new_c,white,136,152,84,4,2.64276819996,f,0.224535600049,2021_Oct_25_0929,59.9479052575,ProdSingRedo,001,NC16,
,,,,137,0,137,0,,,,,,,,,,,,,,,,,,capital,new_b,white,137,128,40,1,1.15545620001,n,0.0208490000223,2021_Oct_25_0929,59.9479052575,ProdSingRedo,001,NC16,
,,,,138,0,138,0,,,,,,,,,,,,,,,,,,contract,new_a,white,138,91,68,1,1.95427509997,n,0.148756499984,2021_Oct_25_0929,59.9479052575,ProdSingRedo,001,NC16,
,,,,139,0,139,0,,,,,,,,,,,,,,,,,,comedy,new_c,white,139,160,58,3,1.95646619995,f,0.0996548000257,2021_Oct_25_0929,59.9479052575,ProdSingRedo,001,NC16,
,,,,140,0,140,0,,,,,,,,,,,,,,,,,,solution,new_b,white,140,135,294,1,1.55369490001,n,0.146013999998,2021_Oct_25_0929,59.9479052575,ProdSingRedo,001,NC16,
,,,,141,0,141,0,,,,,,,,,,,,,,,,,,drove,new_b,white,141,140,106,1,1.1044832,n,0.128533999959,2021_Oct_25_0929,59.9479052575,ProdSingRedo,001,NC16,
,,,,142,0,142,0,,,,,,,,,,,,,,,,,,alert,silent,white,142,72,6,4,2.69419269997,f,0.0103199000005,2021_Oct_25_0929,59.9479052575,ProdSingRedo,001,NC16,
,,,,143,0,143,0,,,,,,,,,,,,,,,,,,citizen,silent,white,143,69,50,2,3.22820940003,n,0.171817500028,2021_Oct_25_0929,59.9479052575,ProdSingRedo,001,NC16,
,,,,144,0,144,0,,,,,,,,,,,,,,,,,,express,new_a,white,144,114,124,2,3.55101980001,n,0.20018460002,2021_Oct_25_0929,59.9479052575,ProdSingRedo,001,NC16,
,,,,145,0,145,0,,,,,,,,,,,,,,,,,,running,sing,white,145,6,268,3,1.35991490004,n,0.577478599967,2021_Oct_25_0929,59.9479052575,ProdSingRedo,001,NC16,
,,,,146,0,146,0,,,,,,,,,,,,,,,,,,mayor,new_c,white,146,157,183,4,3.0244002,f,0.641418599989,2021_Oct_25_0929,59.9479052575,ProdSingRedo,001,NC16,
,,,,147,0,147,0,,,,,,,,,,,,,,,,,,speech,new_a,white,147,116,298,4,1.74978150002,f,0.579977200017,2021_Oct_25_0929,59.9479052575,ProdSingRedo,001,NC16,
,,,,148,0,148,0,,,,,,,,,,,,,,,,,,trash,aloud,white,148,48,337,2,1.84546679998,n,0.431912900007,2021_Oct_25_0929,59.9479052575,ProdSingRedo,001,NC16,
,,,,149,0,149,0,,,,,,,,,,,,,,,,,,shear,aloud,white,149,34,283,6,1.44728979998,r,1.027474,2021_Oct_25_0929,59.9479052575,ProdSingRedo,001,NC16,
,,,,150,0,150,0,,,,,,,,,,,,,,,,,,drama,sing,white,150,7,103,6,2.25216939999,r,0.346797900042,2021_Oct_25_0929,59.9479052575,ProdSingRedo,001,NC16,
,,,,151,0,151,0,,,,,,,,,,,,,,,,,,military,new_a,white,151,112,190,3,1.63138219999,n,0.482497600024,2021_Oct_25_0929,59.9479052575,ProdSingRedo,001,NC16,
,,,,152,0,152,0,,,,,,,,,,,,,,,,,,damage,new_a,white,152,108,83,3,2.80917840003,f,0.685279800033,2021_Oct_25_0929,59.9479052575,ProdSingRedo,001,NC16,
,,,,153,0,153,0,,,,,,,,,,,,,,,,,,harmony,new_c,white,153,155,148,1,2.33775230002,n,0.293783399975,2021_Oct_25_0929,59.9479052575,ProdSingRedo,001,NC16,
,,,,154,0,154,0,,,,,,,,,,,,,,,,,,style,silent,white,154,85,311,1,1.2769842,n,0.226948699972,2021_Oct_25_0929,59.9479052575,ProdSingRedo,001,NC16,
,,,,155,0,155,0,,,,,,,,,,,,,,,,,,service,silent,white,155,79,280,1,2.66220840003,n,0.747639599955,2021_Oct_25_0929,59.9479052575,ProdSingRedo,001,NC16,
,,,,156,0,156,0,,,,,,,,,,,,,,,,,,silence,new_a,white,156,95,288,2,1.73326579999,f,1.93019480002,2021_Oct_25_0929,59.9479052575,ProdSingRedo,001,NC16,
,,,,157,0,157,0,,,,,,,,,,,,,,,,,,split,sing,white,157,29,299,6,2.71580439998,r,0.000268399948254,2021_Oct_25_0929,59.9479052575,ProdSingRedo,001,NC16,
,,,,158,0,158,0,,,,,,,,,,,,,,,,,,turkey,new_a,white,158,110,342,1,1.57022970001,n,0.172275000019,2021_Oct_25_0929,59.9479052575,ProdSingRedo,001,NC16,
,,,,159,0,159,0,,,,,,,,,,,,,,,,,,estate,new_b,white,159,122,119,1,1.21180340002,n,0.0807937000063,2021_Oct_25_0929,59.9479052575,ProdSingRedo,001,NC16,
,,,,160,0,160,0,,,,,,,,,,,,,,,,,,rural,aloud,white,160,47,269,6,1.71119259996,r,0.508890199999,2021_Oct_25_0929,59.9479052575,ProdSingRedo,001,NC16,
,,,,161,0,161,0,,,,,,,,,,,,,,,,,,attack,sing,white,161,22,13,2,1.30580169999,n,0.205456099997,2021_Oct_25_0929,59.9479052575,ProdSingRedo,001,NC16,
,,,,162,0,162,0,,,,,,,,,,,,,,,,,,primary,sing,white,162,0,234,3,1.7356663,f,0.073151199962,2021_Oct_25_0929,59.9479052575,ProdSingRedo,001,NC16,
,,,,163,0,163,0,,,,,,,,,,,,,,,,,,design,aloud,white,163,31,91,5,1.55446760001,r,4.96883969998,2021_Oct_25_0929,59.9479052575,ProdSingRedo,001,NC16,
,,,,164,0,164,0,,,,,,,,,,,,,,,,,,cousin,new_b,white,164,146,76,1,1.62303320004,n,0.274332000001,2021_Oct_25_0929,59.9479052575,ProdSingRedo,001,NC16,
,,,,165,0,165,0,,,,,,,,,,,,,,,,,,broke,new_b,white,165,136,32,1,1.14232750004,n,0.203994499985,2021_Oct_25_0929,59.9479052575,ProdSingRedo,001,NC16,
,,,,166,0,166,0,,,,,,,,,,,,,,,,,,direction,aloud,white,166,37,94,3,1.988159,n,4.01774530002,2021_Oct_25_0929,59.9479052575,ProdSingRedo,001,NC16,
,,,,167,0,167,0,,,,,,,,,,,,,,,,,,strain,new_c,white,167,176,308,2,1.39580930001,n,0.807420999976,2021_Oct_25_0929,59.9479052575,ProdSingRedo,001,NC16,
,,,,168,0,168,0,,,,,,,,,,,,,,,,,,brilliant,sing,white,168,28,30,6,1.67219319998,r,0.488593999995,2021_Oct_25_0929,59.9479052575,ProdSingRedo,001,NC16,
,,,,169,0,169,0,,,,,,,,,,,,,,,,,,reach,silent,white,169,82,253,3,2.32121829997,f,0.766042499978,2021_Oct_25_0929,59.9479052575,ProdSingRedo,001,NC16,
,,,,170,0,170,0,,,,,,,,,,,,,,,,,,foundation,sing,white,170,10,132,6,2.63227319997,r,0.523389800044,2021_Oct_25_0929,59.9479052575,ProdSingRedo,001,NC16,
,,,,171,0,171,0,,,,,,,,,,,,,,,,,,court,sing,white,171,24,75,4,2.24894030002,f,1.3289733,2021_Oct_25_0929,59.9479052575,ProdSingRedo,001,NC16,
,,,,172,0,172,0,,,,,,,,,,,,,,,,,,swift,silent,white,172,64,320,1,1.27089140005,n,0.080903199967,2021_Oct_25_0929,59.9479052575,ProdSingRedo,001,NC16,
,,,,173,0,173,0,,,,,,,,,,,,,,,,,,nature,aloud,white,173,54,200,6,1.47078840004,r,0.547883799998,2021_Oct_25_0929,59.9479052575,ProdSingRedo,001,NC16,
,,,,174,0,174,0,,,,,,,,,,,,,,,,,,clean,silent,white,174,86,51,3,2.3256484,f,0.0917151000467,2021_Oct_25_0929,59.9479052575,ProdSingRedo,001,NC16,
,,,,175,0,175,0,,,,,,,,,,,,,,,,,,grade,new_b,white,175,123,140,1,1.10611220001,n,0.174051999988,2021_Oct_25_0929,59.9479052575,ProdSingRedo,001,NC16,
,,,,176,0,176,0,,,,,,,,,,,,,,,,,,evidence,new_a,white,176,103,120,4,5.073424,f,0.292382600019,2021_Oct_25_0929,59.9479052575,ProdSingRedo,001,NC16,
,,,,177,0,177,0,,,,,,,,,,,,,,,,,,science,new_c,white,177,163,275,1,1.55506360001,n,0.100096400012,2021_Oct_25_0929,59.9479052575,ProdSingRedo,001,NC16,
,,,,178,0,178,0,,,,,,,,,,,,,,,,,,crowd,sing,white,178,2,81,1,1.86841949995,n,0.171969899966,2021_Oct_25_0929,59.9479052575,ProdSingRedo,001,NC16,
,,,,179,0,179,0,,,,,,,,,,,,,,,,,,report,new_a,white,179,115,259,3,1.50813840004,f,0.233548299992,2021_Oct_25_0929,59.9479052575,ProdSingRedo,001,NC16,
