StudyLoop.thisRepN,StudyLoop.thisTrialN,StudyLoop.thisN,StudyLoop.thisIndex,TestLoop.thisRepN,TestLoop.thisTrialN,TestLoop.thisN,TestLoop.thisIndex,textCondition.started,textCondition.stopped,keyCondition.keys,keyCondition.rt,keyCondition.started,keyCondition.stopped,Condition,stim_colors,color_sing,color_aloud,color_silent,textWelcome.started,textWelcome.stopped,keyWelcome.keys,keyWelcome.rt,keyWelcome.started,keyWelcome.stopped,textAloud.started,textAloud.stopped,textSilent.started,textSilent.stopped,textSing.started,textSing.stopped,textBlank500.started,textBlank500.stopped,study_word,study_type,study_color,study_num,study_word_num,textStudy.started,textStudy.stopped,keyStudy.keys,keyStudy.started,keyStudy.stopped,textTestInstructions.started,textTestInstructions.stopped,key_resp_3.keys,key_resp_3.rt,key_resp_3.started,key_resp_3.stopped,testWord,testType,testColor,testN,test_num,test_word_num,textConf.started,textConf.stopped,textConfScale.started,textConfScale.stopped,keyConf.keys,keyConf.rt,keyConf.started,keyConf.stopped,textTestBlank.started,textTestBlank.stopped,textRKN.started,textRKN.stopped,textRKNScale.started,textRKNScale.stopped,keyRKN.keys,keyRKN.rt,keyRKN.started,keyRKN.stopped,textEnd.started,textEnd.stopped,participant,session,date,expName,psychopyVersion,frameRate,
,,,,,,,,17.02705070003867,None,n,1.5821316000074148,17.02705070003867,None,,,,,,,,,,,,,,,,,,,,,,,,,,,,,,,,,,,,,,,,,,,,,,,,,,,,,,,,,,,,,,NC17,001,2021_Nov_01_1431,ProdSingRedo,3.2.3,59.93917370993954,
,,,,,,,,,,,,,,NeutralTest,"['blue', 'yellow', 'red']",blue,yellow,red,18.67481190012768,None,space,243.5822155000642,18.67481190012768,None,,,,,,,,,,,,,,,,,,,,,,,,,,,,,,,,,,,,,,,,,,,,,,,,,,,NC17,001,2021_Nov_01_1431,ProdSingRedo,3.2.3,59.93917370993954,
0,0,0,0,,,,,,,,,,,,,,,,,,,,,,18.67481190012768,None,18.67481190012768,None,18.67481190012768,None,264.79972060001455,None,reach,silent,red,86,253,262.79555659997277,None,None,262.79555659997277,None,,,,,,,,,,,,,,,,,,,,,,,,,,,,,,,,,NC17,001,2021_Nov_01_1431,ProdSingRedo,3.2.3,59.93917370993954,
1,0,1,0,,,,,,,,,,,,,,,,,,,,,,,,,,,,267.3187822001055,None,generation,silent,red,66,136,265.3137701000087,None,None,265.3137701000087,None,,,,,,,,,,,,,,,,,,,,,,,,,,,,,,,,,NC17,001,2021_Nov_01_1431,ProdSingRedo,3.2.3,59.93917370993954,
2,0,2,0,,,,,,,,,,,,,,,,,,,,,,,,,,,,269.8381229999941,None,under,silent,red,74,343,267.82784310006537,None,None,267.82784310006537,None,,,,,,,,,,,,,,,,,,,,,,,,,,,,,,,,,NC17,001,2021_Nov_01_1431,ProdSingRedo,3.2.3,59.93917370993954,
3,0,3,0,,,,,,,,,,,,,,,,,,,,,,,,,,,,272.3572581000626,None,theme,silent,red,75,326,270.3447526001837,None,None,270.3447526001837,None,,,,,,,,,,,,,,,,,,,,,,,,,,,,,,,,,NC17,001,2021_Nov_01_1431,ProdSingRedo,3.2.3,59.93917370993954,
4,0,4,0,,,,,,,,,,,,,,,,,,,,,,,,,,,,274.87654140009545,None,health,sing,blue,24,149,272.86808410007507,None,None,272.86808410007507,None,,,,,,,,,,,,,,,,,,,,,,,,,,,,,,,,,NC17,001,2021_Nov_01_1431,ProdSingRedo,3.2.3,59.93917370993954,
5,0,5,0,,,,,,,,,,,,,,,,,,,,,,,,,,,,277.3952991999686,None,heavy,aloud,yellow,39,151,275.39902810007334,None,None,275.39902810007334,None,,,,,,,,,,,,,,,,,,,,,,,,,,,,,,,,,NC17,001,2021_Nov_01_1431,ProdSingRedo,3.2.3,59.93917370993954,
6,0,6,0,,,,,,,,,,,,,,,,,,,,,,,,,,,,279.89810470002703,None,suspect,sing,blue,22,318,277.89594250009395,None,None,277.89594250009395,None,,,,,,,,,,,,,,,,,,,,,,,,,,,,,,,,,NC17,001,2021_Nov_01_1431,ProdSingRedo,3.2.3,59.93917370993954,
7,0,7,0,,,,,,,,,,,,,,,,,,,,,,,,,,,,282.41729000001214,None,symbol,sing,blue,1,321,280.417080800049,None,None,280.417080800049,None,,,,,,,,,,,,,,,,,,,,,,,,,,,,,,,,,NC17,001,2021_Nov_01_1431,ProdSingRedo,3.2.3,59.93917370993954,
8,0,8,0,,,,,,,,,,,,,,,,,,,,,,,,,,,,284.9364748999942,None,whole,sing,blue,21,355,282.92666420014575,None,None,282.92666420014575,None,,,,,,,,,,,,,,,,,,,,,,,,,,,,,,,,,NC17,001,2021_Nov_01_1431,ProdSingRedo,3.2.3,59.93917370993954,
9,0,9,0,,,,,,,,,,,,,,,,,,,,,,,,,,,,287.4557211000938,None,bitter,aloud,yellow,30,23,285.4628950001206,None,None,285.4628950001206,None,,,,,,,,,,,,,,,,,,,,,,,,,,,,,,,,,NC17,001,2021_Nov_01_1431,ProdSingRedo,3.2.3,59.93917370993954,
10,0,10,0,,,,,,,,,,,,,,,,,,,,,,,,,,,,289.9748951999936,None,throw,aloud,yellow,38,330,287.9640924001578,None,None,287.9640924001578,None,,,,,,,,,,,,,,,,,,,,,,,,,,,,,,,,,NC17,001,2021_Nov_01_1431,ProdSingRedo,3.2.3,59.93917370993954,
11,0,11,0,,,,,,,,,,,,,,,,,,,,,,,,,,,,292.4940561000258,None,music,sing,blue,26,196,290.4883252000436,None,None,290.4883252000436,None,,,,,,,,,,,,,,,,,,,,,,,,,,,,,,,,,NC17,001,2021_Nov_01_1431,ProdSingRedo,3.2.3,59.93917370993954,
12,0,12,0,,,,,,,,,,,,,,,,,,,,,,,,,,,,295.01326270005666,None,group,aloud,yellow,34,143,293.009235000005,None,None,293.009235000005,None,,,,,,,,,,,,,,,,,,,,,,,,,,,,,,,,,NC17,001,2021_Nov_01_1431,ProdSingRedo,3.2.3,59.93917370993954,
13,0,13,0,,,,,,,,,,,,,,,,,,,,,,,,,,,,297.53241800004616,None,touch,aloud,yellow,37,332,295.52361620008014,None,None,295.52361620008014,None,,,,,,,,,,,,,,,,,,,,,,,,,,,,,,,,,NC17,001,2021_Nov_01_1431,ProdSingRedo,3.2.3,59.93917370993954,
14,0,14,0,,,,,,,,,,,,,,,,,,,,,,,,,,,,300.0516304001212,None,state,silent,red,73,303,298.0433559000958,None,None,298.0433559000958,None,,,,,,,,,,,,,,,,,,,,,,,,,,,,,,,,,NC17,001,2021_Nov_01_1431,ProdSingRedo,3.2.3,59.93917370993954,
15,0,15,0,,,,,,,,,,,,,,,,,,,,,,,,,,,,302.57079860009253,None,enemy,aloud,yellow,35,113,300.56188819999807,None,None,300.56188819999807,None,,,,,,,,,,,,,,,,,,,,,,,,,,,,,,,,,NC17,001,2021_Nov_01_1431,ProdSingRedo,3.2.3,59.93917370993954,
16,0,16,0,,,,,,,,,,,,,,,,,,,,,,,,,,,,305.08998459996656,None,emergency,silent,red,63,110,303.08644970017485,None,None,303.08644970017485,None,,,,,,,,,,,,,,,,,,,,,,,,,,,,,,,,,NC17,001,2021_Nov_01_1431,ProdSingRedo,3.2.3,59.93917370993954,
17,0,17,0,,,,,,,,,,,,,,,,,,,,,,,,,,,,307.6091688000597,None,trial,silent,red,84,341,305.60090890014544,None,None,305.60090890014544,None,,,,,,,,,,,,,,,,,,,,,,,,,,,,,,,,,NC17,001,2021_Nov_01_1431,ProdSingRedo,3.2.3,59.93917370993954,
18,0,18,0,,,,,,,,,,,,,,,,,,,,,,,,,,,,310.12840520008467,None,split,aloud,yellow,33,299,308.1162605001591,None,None,308.1162605001591,None,,,,,,,,,,,,,,,,,,,,,,,,,,,,,,,,,NC17,001,2021_Nov_01_1431,ProdSingRedo,3.2.3,59.93917370993954,
19,0,19,0,,,,,,,,,,,,,,,,,,,,,,,,,,,,312.64758129999973,None,produce,sing,blue,17,239,310.64045800012536,None,None,310.64045800012536,None,,,,,,,,,,,,,,,,,,,,,,,,,,,,,,,,,NC17,001,2021_Nov_01_1431,ProdSingRedo,3.2.3,59.93917370993954,
20,0,20,0,,,,,,,,,,,,,,,,,,,,,,,,,,,,315.1667188000865,None,sweet,silent,red,68,319,313.15749620017596,None,None,313.15749620017596,None,,,,,,,,,,,,,,,,,,,,,,,,,,,,,,,,,NC17,001,2021_Nov_01_1431,ProdSingRedo,3.2.3,59.93917370993954,
21,0,21,0,,,,,,,,,,,,,,,,,,,,,,,,,,,,317.68576100002974,None,history,aloud,yellow,48,153,315.68036140012555,None,None,315.68036140012555,None,,,,,,,,,,,,,,,,,,,,,,,,,,,,,,,,,NC17,001,2021_Nov_01_1431,ProdSingRedo,3.2.3,59.93917370993954,
22,0,22,0,,,,,,,,,,,,,,,,,,,,,,,,,,,,320.20509970001876,None,service,sing,blue,14,280,318.19985980005004,None,None,318.19985980005004,None,,,,,,,,,,,,,,,,,,,,,,,,,,,,,,,,,NC17,001,2021_Nov_01_1431,ProdSingRedo,3.2.3,59.93917370993954,
23,0,23,0,,,,,,,,,,,,,,,,,,,,,,,,,,,,322.72433470003307,None,graduate,sing,blue,19,141,320.71097650006413,None,None,320.71097650006413,None,,,,,,,,,,,,,,,,,,,,,,,,,,,,,,,,,NC17,001,2021_Nov_01_1431,ProdSingRedo,3.2.3,59.93917370993954,
24,0,24,0,,,,,,,,,,,,,,,,,,,,,,,,,,,,325.2434507000726,None,portion,silent,red,88,228,323.23145249998197,None,None,323.23145249998197,None,,,,,,,,,,,,,,,,,,,,,,,,,,,,,,,,,NC17,001,2021_Nov_01_1431,ProdSingRedo,3.2.3,59.93917370993954,
25,0,25,0,,,,,,,,,,,,,,,,,,,,,,,,,,,,327.762663600035,None,force,silent,red,81,131,325.75429209996946,None,None,325.75429209996946,None,,,,,,,,,,,,,,,,,,,,,,,,,,,,,,,,,NC17,001,2021_Nov_01_1431,ProdSingRedo,3.2.3,59.93917370993954,
26,0,26,0,,,,,,,,,,,,,,,,,,,,,,,,,,,,330.2818322000094,None,native,sing,blue,25,199,328.2765556999948,None,None,328.2765556999948,None,,,,,,,,,,,,,,,,,,,,,,,,,,,,,,,,,NC17,001,2021_Nov_01_1431,ProdSingRedo,3.2.3,59.93917370993954,
27,0,27,0,,,,,,,,,,,,,,,,,,,,,,,,,,,,332.8007670000661,None,stranger,aloud,yellow,46,309,330.79648270015605,None,None,330.79648270015605,None,,,,,,,,,,,,,,,,,,,,,,,,,,,,,,,,,NC17,001,2021_Nov_01_1431,ProdSingRedo,3.2.3,59.93917370993954,
28,0,28,0,,,,,,,,,,,,,,,,,,,,,,,,,,,,335.32024620007724,None,drove,aloud,yellow,44,106,333.3132056000177,None,None,333.3132056000177,None,,,,,,,,,,,,,,,,,,,,,,,,,,,,,,,,,NC17,001,2021_Nov_01_1431,ProdSingRedo,3.2.3,59.93917370993954,
29,0,29,0,,,,,,,,,,,,,,,,,,,,,,,,,,,,337.8393610001076,None,expansion,aloud,yellow,31,123,335.83675320004113,None,None,335.83675320004113,None,,,,,,,,,,,,,,,,,,,,,,,,,,,,,,,,,NC17,001,2021_Nov_01_1431,ProdSingRedo,3.2.3,59.93917370993954,
30,0,30,0,,,,,,,,,,,,,,,,,,,,,,,,,,,,340.35832190001383,None,quick,sing,blue,27,248,338.3609289000742,None,None,338.3609289000742,None,,,,,,,,,,,,,,,,,,,,,,,,,,,,,,,,,NC17,001,2021_Nov_01_1431,ProdSingRedo,3.2.3,59.93917370993954,
31,0,31,0,,,,,,,,,,,,,,,,,,,,,,,,,,,,342.86077230004594,None,population,silent,red,89,227,340.85896480013616,None,None,340.85896480013616,None,,,,,,,,,,,,,,,,,,,,,,,,,,,,,,,,,NC17,001,2021_Nov_01_1431,ProdSingRedo,3.2.3,59.93917370993954,
32,0,32,0,,,,,,,,,,,,,,,,,,,,,,,,,,,,345.38027970003895,None,shock,silent,red,77,284,343.37486180011183,None,None,343.37486180011183,None,,,,,,,,,,,,,,,,,,,,,,,,,,,,,,,,,NC17,001,2021_Nov_01_1431,ProdSingRedo,3.2.3,59.93917370993954,
33,0,33,0,,,,,,,,,,,,,,,,,,,,,,,,,,,,347.8828376000747,None,level,silent,red,72,170,345.88035010010935,None,None,345.88035010010935,None,,,,,,,,,,,,,,,,,,,,,,,,,,,,,,,,,NC17,001,2021_Nov_01_1431,ProdSingRedo,3.2.3,59.93917370993954,
34,0,34,0,,,,,,,,,,,,,,,,,,,,,,,,,,,,350.40195269999094,None,judge,sing,blue,10,166,348.4015761001501,None,None,348.4015761001501,None,,,,,,,,,,,,,,,,,,,,,,,,,,,,,,,,,NC17,001,2021_Nov_01_1431,ProdSingRedo,3.2.3,59.93917370993954,
35,0,35,0,,,,,,,,,,,,,,,,,,,,,,,,,,,,352.92115429998375,None,month,sing,blue,7,193,350.91304720006883,None,None,350.91304720006883,None,,,,,,,,,,,,,,,,,,,,,,,,,,,,,,,,,NC17,001,2021_Nov_01_1431,ProdSingRedo,3.2.3,59.93917370993954,
36,0,36,0,,,,,,,,,,,,,,,,,,,,,,,,,,,,355.4403204000555,None,range,sing,blue,0,251,353.43504020012915,None,None,353.43504020012915,None,,,,,,,,,,,,,,,,,,,,,,,,,,,,,,,,,NC17,001,2021_Nov_01_1431,ProdSingRedo,3.2.3,59.93917370993954,
37,0,37,0,,,,,,,,,,,,,,,,,,,,,,,,,,,,357.9595461001154,None,design,sing,blue,11,91,355.9524435000494,None,None,355.9524435000494,None,,,,,,,,,,,,,,,,,,,,,,,,,,,,,,,,,NC17,001,2021_Nov_01_1431,ProdSingRedo,3.2.3,59.93917370993954,
38,0,38,0,,,,,,,,,,,,,,,,,,,,,,,,,,,,360.47868619998917,None,build,silent,red,71,35,358.47131930012256,None,None,358.47131930012256,None,,,,,,,,,,,,,,,,,,,,,,,,,,,,,,,,,NC17,001,2021_Nov_01_1431,ProdSingRedo,3.2.3,59.93917370993954,
39,0,39,0,,,,,,,,,,,,,,,,,,,,,,,,,,,,362.99798190011643,None,production,silent,red,64,240,360.9934022000525,None,None,360.9934022000525,None,,,,,,,,,,,,,,,,,,,,,,,,,,,,,,,,,NC17,001,2021_Nov_01_1431,ProdSingRedo,3.2.3,59.93917370993954,
40,0,40,0,,,,,,,,,,,,,,,,,,,,,,,,,,,,365.5170822001528,None,quantity,aloud,yellow,32,245,363.5124225001782,None,None,363.5124225001782,None,,,,,,,,,,,,,,,,,,,,,,,,,,,,,,,,,NC17,001,2021_Nov_01_1431,ProdSingRedo,3.2.3,59.93917370993954,
41,0,41,0,,,,,,,,,,,,,,,,,,,,,,,,,,,,368.03625110001303,None,alert,aloud,yellow,49,6,366.0270424000919,None,None,366.0270424000919,None,,,,,,,,,,,,,,,,,,,,,,,,,,,,,,,,,NC17,001,2021_Nov_01_1431,ProdSingRedo,3.2.3,59.93917370993954,
42,0,42,0,,,,,,,,,,,,,,,,,,,,,,,,,,,,370.55545840016566,None,general,silent,red,60,135,368.5483180000447,None,None,368.5483180000447,None,,,,,,,,,,,,,,,,,,,,,,,,,,,,,,,,,NC17,001,2021_Nov_01_1431,ProdSingRedo,3.2.3,59.93917370993954,
43,0,43,0,,,,,,,,,,,,,,,,,,,,,,,,,,,,373.07461610017344,None,break,sing,blue,3,26,371.0699664000422,None,None,371.0699664000422,None,,,,,,,,,,,,,,,,,,,,,,,,,,,,,,,,,NC17,001,2021_Nov_01_1431,ProdSingRedo,3.2.3,59.93917370993954,
44,0,44,0,,,,,,,,,,,,,,,,,,,,,,,,,,,,375.59374779998325,None,department,silent,red,85,90,373.58735699998215,None,None,373.58735699998215,None,,,,,,,,,,,,,,,,,,,,,,,,,,,,,,,,,NC17,001,2021_Nov_01_1431,ProdSingRedo,3.2.3,59.93917370993954,
45,0,45,0,,,,,,,,,,,,,,,,,,,,,,,,,,,,378.11300970008597,None,government,silent,red,65,139,376.1095139000099,None,None,376.1095139000099,None,,,,,,,,,,,,,,,,,,,,,,,,,,,,,,,,,NC17,001,2021_Nov_01_1431,ProdSingRedo,3.2.3,59.93917370993954,
46,0,46,0,,,,,,,,,,,,,,,,,,,,,,,,,,,,380.6321892000269,None,dispute,sing,blue,12,99,378.62540500005707,None,None,378.62540500005707,None,,,,,,,,,,,,,,,,,,,,,,,,,,,,,,,,,NC17,001,2021_Nov_01_1431,ProdSingRedo,3.2.3,59.93917370993954,
47,0,47,0,,,,,,,,,,,,,,,,,,,,,,,,,,,,383.15135330008343,None,military,silent,red,82,190,381.1464851000346,None,None,381.1464851000346,None,,,,,,,,,,,,,,,,,,,,,,,,,,,,,,,,,NC17,001,2021_Nov_01_1431,ProdSingRedo,3.2.3,59.93917370993954,
48,0,48,0,,,,,,,,,,,,,,,,,,,,,,,,,,,,385.67055899999104,None,report,aloud,yellow,42,259,383.65902300016023,None,None,383.65902300016023,None,,,,,,,,,,,,,,,,,,,,,,,,,,,,,,,,,NC17,001,2021_Nov_01_1431,ProdSingRedo,3.2.3,59.93917370993954,
49,0,49,0,,,,,,,,,,,,,,,,,,,,,,,,,,,,388.18972490006126,None,south,sing,blue,18,296,386.18262840015814,None,None,386.18262840015814,None,,,,,,,,,,,,,,,,,,,,,,,,,,,,,,,,,NC17,001,2021_Nov_01_1431,ProdSingRedo,3.2.3,59.93917370993954,
50,0,50,0,,,,,,,,,,,,,,,,,,,,,,,,,,,,390.70895300013945,None,shear,aloud,yellow,45,283,388.70169210014865,None,None,388.70169210014865,None,,,,,,,,,,,,,,,,,,,,,,,,,,,,,,,,,NC17,001,2021_Nov_01_1431,ProdSingRedo,3.2.3,59.93917370993954,
51,0,51,0,,,,,,,,,,,,,,,,,,,,,,,,,,,,393.22809330001473,None,science,aloud,yellow,56,275,391.2160784001462,None,None,391.2160784001462,None,,,,,,,,,,,,,,,,,,,,,,,,,,,,,,,,,NC17,001,2021_Nov_01_1431,ProdSingRedo,3.2.3,59.93917370993954,
52,0,52,0,,,,,,,,,,,,,,,,,,,,,,,,,,,,395.74730350007303,None,mechanical,aloud,yellow,40,185,393.74232790013775,None,None,393.74232790013775,None,,,,,,,,,,,,,,,,,,,,,,,,,,,,,,,,,NC17,001,2021_Nov_01_1431,ProdSingRedo,3.2.3,59.93917370993954,
53,0,53,0,,,,,,,,,,,,,,,,,,,,,,,,,,,,398.26657600002363,None,damage,sing,blue,20,83,396.26045190007426,None,None,396.26045190007426,None,,,,,,,,,,,,,,,,,,,,,,,,,,,,,,,,,NC17,001,2021_Nov_01_1431,ProdSingRedo,3.2.3,59.93917370993954,
54,0,54,0,,,,,,,,,,,,,,,,,,,,,,,,,,,,400.7857175001409,None,attack,silent,red,70,13,398.7816445999779,None,None,398.7816445999779,None,,,,,,,,,,,,,,,,,,,,,,,,,,,,,,,,,NC17,001,2021_Nov_01_1431,ProdSingRedo,3.2.3,59.93917370993954,
55,0,55,0,,,,,,,,,,,,,,,,,,,,,,,,,,,,403.30459840013646,None,division,sing,blue,29,101,401.29710960015655,None,None,401.29710960015655,None,,,,,,,,,,,,,,,,,,,,,,,,,,,,,,,,,NC17,001,2021_Nov_01_1431,ProdSingRedo,3.2.3,59.93917370993954,
56,0,56,0,,,,,,,,,,,,,,,,,,,,,,,,,,,,405.80849740002304,None,dance,sing,blue,5,84,403.80500690010376,None,None,403.80500690010376,None,,,,,,,,,,,,,,,,,,,,,,,,,,,,,,,,,NC17,001,2021_Nov_01_1431,ProdSingRedo,3.2.3,59.93917370993954,
57,0,57,0,,,,,,,,,,,,,,,,,,,,,,,,,,,,408.3265299999621,None,power,sing,blue,28,230,406.3201999999583,None,None,406.3201999999583,None,,,,,,,,,,,,,,,,,,,,,,,,,,,,,,,,,NC17,001,2021_Nov_01_1431,ProdSingRedo,3.2.3,59.93917370993954,
58,0,58,0,,,,,,,,,,,,,,,,,,,,,,,,,,,,410.84570760000497,None,provision,aloud,yellow,57,243,408.83826510002837,None,None,408.83826510002837,None,,,,,,,,,,,,,,,,,,,,,,,,,,,,,,,,,NC17,001,2021_Nov_01_1431,ProdSingRedo,3.2.3,59.93917370993954,
59,0,59,0,,,,,,,,,,,,,,,,,,,,,,,,,,,,413.3648932001088,None,couch,sing,blue,4,70,411.36016479996033,None,None,411.36016479996033,None,,,,,,,,,,,,,,,,,,,,,,,,,,,,,,,,,NC17,001,2021_Nov_01_1431,ProdSingRedo,3.2.3,59.93917370993954,
60,0,60,0,,,,,,,,,,,,,,,,,,,,,,,,,,,,415.88407910009846,None,broke,sing,blue,2,32,413.87759439996444,None,None,413.87759439996444,None,,,,,,,,,,,,,,,,,,,,,,,,,,,,,,,,,NC17,001,2021_Nov_01_1431,ProdSingRedo,3.2.3,59.93917370993954,
61,0,61,0,,,,,,,,,,,,,,,,,,,,,,,,,,,,418.40327939996496,None,agreement,aloud,yellow,58,5,416.39411490014754,None,None,416.39411490014754,None,,,,,,,,,,,,,,,,,,,,,,,,,,,,,,,,,NC17,001,2021_Nov_01_1431,ProdSingRedo,3.2.3,59.93917370993954,
62,0,62,0,,,,,,,,,,,,,,,,,,,,,,,,,,,,420.9224937001709,None,congress,silent,red,87,67,418.9177471001167,None,None,418.9177471001167,None,,,,,,,,,,,,,,,,,,,,,,,,,,,,,,,,,NC17,001,2021_Nov_01_1431,ProdSingRedo,3.2.3,59.93917370993954,
63,0,63,0,,,,,,,,,,,,,,,,,,,,,,,,,,,,423.4416102000978,None,error,aloud,yellow,47,117,421.4289463001769,None,None,421.4289463001769,None,,,,,,,,,,,,,,,,,,,,,,,,,,,,,,,,,NC17,001,2021_Nov_01_1431,ProdSingRedo,3.2.3,59.93917370993954,
64,0,64,0,,,,,,,,,,,,,,,,,,,,,,,,,,,,425.96087369997986,None,account,sing,blue,13,1,423.95757209998555,None,None,423.95757209998555,None,,,,,,,,,,,,,,,,,,,,,,,,,,,,,,,,,NC17,001,2021_Nov_01_1431,ProdSingRedo,3.2.3,59.93917370993954,
65,0,65,0,,,,,,,,,,,,,,,,,,,,,,,,,,,,428.4800220001489,None,beauty,silent,red,61,18,426.47748220013455,None,None,426.47748220013455,None,,,,,,,,,,,,,,,,,,,,,,,,,,,,,,,,,NC17,001,2021_Nov_01_1431,ProdSingRedo,3.2.3,59.93917370993954,
66,0,66,0,,,,,,,,,,,,,,,,,,,,,,,,,,,,430.9992398000322,None,write,silent,red,67,358,428.9902684001718,None,None,428.9902684001718,None,,,,,,,,,,,,,,,,,,,,,,,,,,,,,,,,,NC17,001,2021_Nov_01_1431,ProdSingRedo,3.2.3,59.93917370993954,
67,0,67,0,,,,,,,,,,,,,,,,,,,,,,,,,,,,433.51836660015397,None,edition,silent,red,78,107,431.50845690001734,None,None,431.50845690001734,None,,,,,,,,,,,,,,,,,,,,,,,,,,,,,,,,,NC17,001,2021_Nov_01_1431,ProdSingRedo,3.2.3,59.93917370993954,
68,0,68,0,,,,,,,,,,,,,,,,,,,,,,,,,,,,436.0375563001726,None,working,sing,blue,6,357,434.0376934001688,None,None,434.0376934001688,None,,,,,,,,,,,,,,,,,,,,,,,,,,,,,,,,,NC17,001,2021_Nov_01_1431,ProdSingRedo,3.2.3,59.93917370993954,
69,0,69,0,,,,,,,,,,,,,,,,,,,,,,,,,,,,438.55671220016666,None,subject,sing,blue,9,312,436.5558768999763,None,None,436.5558768999763,None,,,,,,,,,,,,,,,,,,,,,,,,,,,,,,,,,NC17,001,2021_Nov_01_1431,ProdSingRedo,3.2.3,59.93917370993954,
70,0,70,0,,,,,,,,,,,,,,,,,,,,,,,,,,,,441.07595630013384,None,territory,sing,blue,23,324,439.067510999972,None,None,439.067510999972,None,,,,,,,,,,,,,,,,,,,,,,,,,,,,,,,,,NC17,001,2021_Nov_01_1431,ProdSingRedo,3.2.3,59.93917370993954,
71,0,71,0,,,,,,,,,,,,,,,,,,,,,,,,,,,,443.5951370000839,None,citizen,aloud,yellow,50,50,441.5991277000867,None,None,441.5991277000867,None,,,,,,,,,,,,,,,,,,,,,,,,,,,,,,,,,NC17,001,2021_Nov_01_1431,ProdSingRedo,3.2.3,59.93917370993954,
72,0,72,0,,,,,,,,,,,,,,,,,,,,,,,,,,,,446.1138940001838,None,notice,sing,blue,15,201,444.1022575001698,None,None,444.1022575001698,None,,,,,,,,,,,,,,,,,,,,,,,,,,,,,,,,,NC17,001,2021_Nov_01_1431,ProdSingRedo,3.2.3,59.93917370993954,
73,0,73,0,,,,,,,,,,,,,,,,,,,,,,,,,,,,448.6168699001428,None,instrument,aloud,yellow,43,163,446.61475670011714,None,None,446.61475670011714,None,,,,,,,,,,,,,,,,,,,,,,,,,,,,,,,,,NC17,001,2021_Nov_01_1431,ProdSingRedo,3.2.3,59.93917370993954,
74,0,74,0,,,,,,,,,,,,,,,,,,,,,,,,,,,,451.13603170006536,None,tragedy,silent,red,76,335,449.13573270011693,None,None,449.13573270011693,None,,,,,,,,,,,,,,,,,,,,,,,,,,,,,,,,,NC17,001,2021_Nov_01_1431,ProdSingRedo,3.2.3,59.93917370993954,
75,0,75,0,,,,,,,,,,,,,,,,,,,,,,,,,,,,453.6551926000975,None,comfort,aloud,yellow,53,59,451.64882160001434,None,None,451.64882160001434,None,,,,,,,,,,,,,,,,,,,,,,,,,,,,,,,,,NC17,001,2021_Nov_01_1431,ProdSingRedo,3.2.3,59.93917370993954,
76,0,76,0,,,,,,,,,,,,,,,,,,,,,,,,,,,,456.1743746001739,None,institute,aloud,yellow,54,162,454.16693890001625,None,None,454.16693890001625,None,,,,,,,,,,,,,,,,,,,,,,,,,,,,,,,,,NC17,001,2021_Nov_01_1431,ProdSingRedo,3.2.3,59.93917370993954,
77,0,77,0,,,,,,,,,,,,,,,,,,,,,,,,,,,,458.69360790005885,None,management,silent,red,83,177,456.69256130000576,None,None,456.69256130000576,None,,,,,,,,,,,,,,,,,,,,,,,,,,,,,,,,,NC17,001,2021_Nov_01_1431,ProdSingRedo,3.2.3,59.93917370993954,
78,0,78,0,,,,,,,,,,,,,,,,,,,,,,,,,,,,461.2127483000513,None,passage,sing,blue,8,212,459.2137714000419,None,None,459.2137714000419,None,,,,,,,,,,,,,,,,,,,,,,,,,,,,,,,,,NC17,001,2021_Nov_01_1431,ProdSingRedo,3.2.3,59.93917370993954,
79,0,79,0,,,,,,,,,,,,,,,,,,,,,,,,,,,,463.7319336000364,None,audience,silent,red,79,14,461.7264417000115,None,None,461.7264417000115,None,,,,,,,,,,,,,,,,,,,,,,,,,,,,,,,,,NC17,001,2021_Nov_01_1431,ProdSingRedo,3.2.3,59.93917370993954,
80,0,80,0,,,,,,,,,,,,,,,,,,,,,,,,,,,,466.25072440016083,None,profession,aloud,yellow,51,241,464.2465109999757,None,None,464.2465109999757,None,,,,,,,,,,,,,,,,,,,,,,,,,,,,,,,,,NC17,001,2021_Nov_01_1431,ProdSingRedo,3.2.3,59.93917370993954,
81,0,81,0,,,,,,,,,,,,,,,,,,,,,,,,,,,,468.7704264000058,None,poetry,aloud,yellow,36,225,466.7544564001728,None,None,466.7544564001728,None,,,,,,,,,,,,,,,,,,,,,,,,,,,,,,,,,NC17,001,2021_Nov_01_1431,ProdSingRedo,3.2.3,59.93917370993954,
82,0,82,0,,,,,,,,,,,,,,,,,,,,,,,,,,,,471.2895228001289,None,cover,silent,red,80,77,469.28056220011786,None,None,469.28056220011786,None,,,,,,,,,,,,,,,,,,,,,,,,,,,,,,,,,NC17,001,2021_Nov_01_1431,ProdSingRedo,3.2.3,59.93917370993954,
83,0,83,0,,,,,,,,,,,,,,,,,,,,,,,,,,,,473.80864950013347,None,search,aloud,yellow,52,276,471.80127840000205,None,None,471.80127840000205,None,,,,,,,,,,,,,,,,,,,,,,,,,,,,,,,,,NC17,001,2021_Nov_01_1431,ProdSingRedo,3.2.3,59.93917370993954,
84,0,84,0,,,,,,,,,,,,,,,,,,,,,,,,,,,,476.3278493001126,None,clean,aloud,yellow,55,51,474.31955700018443,None,None,474.31955700018443,None,,,,,,,,,,,,,,,,,,,,,,,,,,,,,,,,,NC17,001,2021_Nov_01_1431,ProdSingRedo,3.2.3,59.93917370993954,
85,0,85,0,,,,,,,,,,,,,,,,,,,,,,,,,,,,478.8303449000232,None,blind,aloud,yellow,59,24,476.82796470005997,None,None,476.82796470005997,None,,,,,,,,,,,,,,,,,,,,,,,,,,,,,,,,,NC17,001,2021_Nov_01_1431,ProdSingRedo,3.2.3,59.93917370993954,
86,0,86,0,,,,,,,,,,,,,,,,,,,,,,,,,,,,481.3495295001194,None,nation,silent,red,62,198,479.34530839999206,None,None,479.34530839999206,None,,,,,,,,,,,,,,,,,,,,,,,,,,,,,,,,,NC17,001,2021_Nov_01_1431,ProdSingRedo,3.2.3,59.93917370993954,
87,0,87,0,,,,,,,,,,,,,,,,,,,,,,,,,,,,483.86871249997057,None,shape,aloud,yellow,41,282,481.86054380005226,None,None,481.86054380005226,None,,,,,,,,,,,,,,,,,,,,,,,,,,,,,,,,,NC17,001,2021_Nov_01_1431,ProdSingRedo,3.2.3,59.93917370993954,
88,0,88,0,,,,,,,,,,,,,,,,,,,,,,,,,,,,486.3878973000683,None,recall,silent,red,69,255,484.38054620008916,None,None,484.38054620008916,None,,,,,,,,,,,,,,,,,,,,,,,,,,,,,,,,,NC17,001,2021_Nov_01_1431,ProdSingRedo,3.2.3,59.93917370993954,
89,0,89,0,,,,,,,,,,,,,,,,,,,,,,,,,,,,488.90709049999714,None,story,sing,blue,16,306,486.89741570013575,None,None,486.89741570013575,None,,,,,,,,,,,,,,,,,,,,,,,,,,,,,,,,,NC17,001,2021_Nov_01_1431,ProdSingRedo,3.2.3,59.93917370993954,
,,,,,,,,,,,,,,,,,,,,,,,,,,,,,,,,,,,,,,,,,,,489.40786559996195,None,k,140.61740290001035,489.40786559996195,None,,,,,,,,,,,,,,,,,,,,,,,,,,,NC17,001,2021_Nov_01_1431,ProdSingRedo,3.2.3,59.93917370993954,
,,,,0,0,0,0,,,,,,,,,,,,,,,,,,,,,,,,643.7883207001723,None,,,,,,,,,,,,,,,,,touch,aloud,white,0,37,332,630.5685336000752,None,630.5685336000752,None,6,7.664765799883753,630.5685336000752,None,638.2837336000521,None,638.7900865001138,None,638.7900865001138,None,r,4.971136300126091,638.7900865001138,None,,,NC17,001,2021_Nov_01_1431,ProdSingRedo,3.2.3,59.93917370993954,
,,,,1,0,1,0,,,,,,,,,,,,,,,,,,,,,,,,647.833671099972,None,,,,,,,,,,,,,,,,,recall,silent,white,1,69,255,644.3121348000132,None,644.3121348000132,None,6,2.401197199942544,644.3121348000132,None,646.7567557001021,None,647.2568036001176,None,647.2568036001176,None,r,0.5284843000117689,647.2568036001176,None,,,NC17,001,2021_Nov_01_1431,ProdSingRedo,3.2.3,59.93917370993954,
,,,,2,0,2,0,,,,,,,,,,,,,,,,,,,,,,,,651.4698155000806,None,,,,,,,,,,,,,,,,,empty,new_b,white,2,148,112,648.3517108000815,None,648.3517108000815,None,6,1.9855253999121487,648.3517108000815,None,650.3848158000037,None,650.8952030001674,None,650.8952030001674,None,r,0.5544231000822037,650.8952030001674,None,,,NC17,001,2021_Nov_01_1431,ProdSingRedo,3.2.3,59.93917370993954,
,,,,3,0,3,0,,,,,,,,,,,,,,,,,,,,,,,,655.6402293001302,None,,,,,,,,,,,,,,,,,goose,new_c,white,3,154,138,651.9914784999564,None,651.9914784999564,None,6,2.3138260000851005,651.9914784999564,None,654.3470215001144,None,654.8664756000508,None,654.8664756000508,None,r,0.7424918001051992,654.8664756000508,None,,,NC17,001,2021_Nov_01_1431,ProdSingRedo,3.2.3,59.93917370993954,
,,,,4,0,4,0,,,,,,,,,,,,,,,,,,,,,,,,659.3354772999883,None,,,,,,,,,,,,,,,,,bitter,aloud,white,4,30,23,656.1467281000223,None,656.1467281000223,None,6,1.8146180999465287,656.1467281000223,None,657.9966361001134,None,658.5183276999742,None,658.5183276999742,None,r,0.7870574998669326,658.5183276999742,None,,,NC17,001,2021_Nov_01_1431,ProdSingRedo,3.2.3,59.93917370993954,
,,,,5,0,5,0,,,,,,,,,,,,,,,,,,,,,,,,662.4038405001629,None,,,,,,,,,,,,,,,,,report,aloud,white,5,42,259,659.8587941001169,None,659.8587941001169,None,6,1.526455600047484,659.8587941001169,None,661.429493600037,None,661.9438537000678,None,661.9438537000678,None,r,0.4334642000030726,661.9438537000678,None,,,NC17,001,2021_Nov_01_1431,ProdSingRedo,3.2.3,59.93917370993954,
,,,,6,0,6,0,,,,,,,,,,,,,,,,,,,,,,,,664.9545869999565,None,,,,,,,,,,,,,,,,,instrument,aloud,white,6,43,163,662.9330109001603,None,662.9330109001603,None,6,1.1322802999056876,662.9330109001603,None,664.1038820999674,None,664.6267876999918,None,664.6267876999918,None,r,0.2944407998584211,664.6267876999918,None,,,NC17,001,2021_Nov_01_1431,ProdSingRedo,3.2.3,59.93917370993954,
,,,,7,0,7,0,,,,,,,,,,,,,,,,,,,,,,,,667.876070600003,None,,,,,,,,,,,,,,,,,scale,new_b,white,7,130,272,665.4802860000636,None,665.4802860000636,None,6,1.7051174999214709,665.4802860000636,None,667.222815599991,None,667.7262854999863,None,667.7262854999863,None,r,0.12297959998250008,667.7262854999863,None,,,NC17,001,2021_Nov_01_1431,ProdSingRedo,3.2.3,59.93917370993954,
,,,,8,0,8,0,,,,,,,,,,,,,,,,,,,,,,,,670.9635058999993,None,,,,,,,,,,,,,,,,,whole,sing,white,8,21,355,668.4007503001485,None,668.4007503001485,None,6,1.4486110000871122,668.4007503001485,None,669.8877986001316,None,670.396117700031,None,670.396117700031,None,r,0.5333359001670033,670.396117700031,None,,,NC17,001,2021_Nov_01_1431,ProdSingRedo,3.2.3,59.93917370993954,
,,,,9,0,9,0,,,,,,,,,,,,,,,,,,,,,,,,675.4192623000126,None,,,,,,,,,,,,,,,,,blind,aloud,white,9,59,24,671.4901388001163,None,671.4901388001163,None,6,1.4312561999540776,671.4901388001163,None,672.9636890001129,None,673.4823074999731,None,673.4823074999731,None,f,1.9108865999151021,673.4823074999731,None,,,NC17,001,2021_Nov_01_1431,ProdSingRedo,3.2.3,59.93917370993954,
,,,,10,0,10,0,,,,,,,,,,,,,,,,,,,,,,,,678.1651600000914,None,,,,,,,,,,,,,,,,,partner,new_c,white,10,169,211,675.9413638999686,None,675.9413638999686,None,6,1.3080241000279784,675.9413638999686,None,677.2975898000877,None,677.8228166000918,None,677.8228166000918,None,r,0.32219840004108846,677.8228166000918,None,,,NC17,001,2021_Nov_01_1431,ProdSingRedo,3.2.3,59.93917370993954,
,,,,11,0,11,0,,,,,,,,,,,,,,,,,,,,,,,,680.8589553001802,None,,,,,,,,,,,,,,,,,graduate,sing,white,11,19,141,678.6979276000056,None,678.6979276000056,None,6,1.3594480999745429,678.6979276000056,None,680.1093939000275,None,680.6280547999777,None,680.6280547999777,None,r,0.19727990007959306,680.6280547999777,None,,,NC17,001,2021_Nov_01_1431,ProdSingRedo,3.2.3,59.93917370993954,
,,,,12,0,12,0,,,,,,,,,,,,,,,,,,,,,,,,684.3582131001167,None,,,,,,,,,,,,,,,,,quantity,aloud,white,12,32,245,681.3853570001666,None,681.3853570001666,None,6,1.6638325001113117,681.3853570001666,None,683.0897588001098,None,683.5999025001656,None,683.5999025001656,None,r,0.7213386001531035,683.5999025001656,None,,,NC17,001,2021_Nov_01_1431,ProdSingRedo,3.2.3,59.93917370993954,
,,,,13,0,13,0,,,,,,,,,,,,,,,,,,,,,,,,687.1717739000451,None,,,,,,,,,,,,,,,,,income,new_b,white,13,137,159,684.8792904999573,None,684.8792904999573,None,6,1.3383353999815881,684.8792904999573,None,686.2566833000164,None,686.7712687000167,None,686.7712687000167,None,r,0.3817456001415849,686.7712687000167,None,,,NC17,001,2021_Nov_01_1431,ProdSingRedo,3.2.3,59.93917370993954,
,,,,14,0,14,0,,,,,,,,,,,,,,,,,,,,,,,,690.3818541001529,None,,,,,,,,,,,,,,,,,story,sing,white,14,16,306,687.6866391000804,None,687.6866391000804,None,6,1.5146094001829624,687.6866391000804,None,689.244694699999,None,689.7488010001834,None,689.7488010001834,None,r,0.6044874000363052,689.7488010001834,None,,,NC17,001,2021_Nov_01_1431,ProdSingRedo,3.2.3,59.93917370993954,
,,,,15,0,15,0,,,,,,,,,,,,,,,,,,,,,,,,693.6682627000846,None,,,,,,,,,,,,,,,,,audience,silent,white,15,79,14,690.906451900024,None,690.906451900024,None,6,1.9030188000760972,690.906451900024,None,692.8500088001601,None,693.3692144001834,None,693.3692144001834,None,r,0.27206990006379783,693.3692144001834,None,,,NC17,001,2021_Nov_01_1431,ProdSingRedo,3.2.3,59.93917370993954,
,,,,16,0,16,0,,,,,,,,,,,,,,,,,,,,,,,,696.6206980000716,None,,,,,,,,,,,,,,,,,subject,sing,white,16,9,312,694.1985182999633,None,694.1985182999633,None,6,1.5227446001954377,694.1985182999633,None,695.7701026001014,None,696.2809664001688,None,696.2809664001688,None,r,0.3043510999996215,696.2809664001688,None,,,NC17,001,2021_Nov_01_1431,ProdSingRedo,3.2.3,59.93917370993954,
,,,,17,0,17,0,,,,,,,,,,,,,,,,,,,,,,,,699.3567164000124,None,,,,,,,,,,,,,,,,,color,new_a,white,17,92,56,697.1422651000321,None,697.1422651000321,None,6,1.5792398999910802,697.1422651000321,None,698.7668223001529,None,699.2725530001335,None,699.2725530001335,None,r,0.048546799924224615,699.2725530001335,None,,,NC17,001,2021_Nov_01_1431,ProdSingRedo,3.2.3,59.93917370993954,
,,,,18,0,18,0,,,,,,,,,,,,,,,,,,,,,,,,705.3299038000405,None,,,,,,,,,,,,,,,,,department,silent,white,18,85,90,699.8874278999865,None,699.8874278999865,None,6,4.481915999902412,699.8874278999865,None,704.410524800187,None,704.935589000117,None,704.935589000117,None,r,0.36178710008971393,704.935589000117,None,,,NC17,001,2021_Nov_01_1431,ProdSingRedo,3.2.3,59.93917370993954,
,,,,19,0,19,0,,,,,,,,,,,,,,,,,,,,,,,,708.0495850001462,None,,,,,,,,,,,,,,,,,problem,new_a,white,19,105,238,705.852616700111,None,705.852616700111,None,6,1.5406061001121998,705.852616700111,None,707.4367140000686,None,707.9393172001,None,707.9393172001,None,r,0.07800789992325008,707.9393172001,None,,,NC17,001,2021_Nov_01_1431,ProdSingRedo,3.2.3,59.93917370993954,
,,,,20,0,20,0,,,,,,,,,,,,,,,,,,,,,,,,710.4355848999694,None,,,,,,,,,,,,,,,,,volume,new_c,white,20,171,349,708.5753285000101,None,708.5753285000101,None,6,1.2096400000154972,708.5753285000101,None,709.8149215001613,None,710.3395219000522,None,710.3395219000522,None,r,0.06190739991143346,710.3395219000522,None,,,NC17,001,2021_Nov_01_1431,ProdSingRedo,3.2.3,59.93917370993954,
,,,,21,0,21,0,,,,,,,,,,,,,,,,,,,,,,,,713.6386287000496,None,,,,,,,,,,,,,,,,,present,new_c,white,21,177,231,710.9590370999649,None,710.9590370999649,None,6,1.8103560998570174,710.9590370999649,None,712.8159517999738,None,713.3186258999631,None,713.3186258999631,None,r,0.29072989989072084,713.3186258999631,None,,,NC17,001,2021_Nov_01_1431,ProdSingRedo,3.2.3,59.93917370993954,
,,,,22,0,22,0,,,,,,,,,,,,,,,,,,,,,,,,716.0242266999558,None,,,,,,,,,,,,,,,,,light,new_a,white,22,119,171,714.1623873000499,None,714.1623873000499,None,6,1.1510139000602067,714.1623873000499,None,715.3553436000366,None,715.8589729999658,None,715.8589729999658,None,r,0.14250679989345372,715.8589729999658,None,,,NC17,001,2021_Nov_01_1431,ProdSingRedo,3.2.3,59.93917370993954,
,,,,23,0,23,0,,,,,,,,,,,,,,,,,,,,,,,,718.5864802000578,None,,,,,,,,,,,,,,,,,congress,silent,white,23,87,67,716.5488351001404,None,716.5488351001404,None,6,1.2840775998774916,716.5488351001404,None,717.8523081000894,None,718.353133100085,None,718.353133100085,None,r,0.2078631001058966,718.353133100085,None,,,NC17,001,2021_Nov_01_1431,ProdSingRedo,3.2.3,59.93917370993954,
,,,,24,0,24,0,,,,,,,,,,,,,,,,,,,,,,,,722.0649669000413,None,,,,,,,,,,,,,,,,,bicycle,new_a,white,24,109,21,719.0873813000508,None,719.0873813000508,None,6,1.913924900116399,719.0873813000508,None,721.0477972000372,None,721.566529000178,None,721.566529000178,None,r,0.4668162998277694,721.566529000178,None,,,NC17,001,2021_Nov_01_1431,ProdSingRedo,3.2.3,59.93917370993954,
,,,,25,0,25,0,,,,,,,,,,,,,,,,,,,,,,,,724.2501077000052,None,,,,,,,,,,,,,,,,,general,silent,white,25,60,135,722.5896946000867,None,722.5896946000867,None,6,0.8756028998177499,722.5896946000867,None,723.521776100155,None,724.018710100092,None,724.018710100092,None,r,0.20662409998476505,724.018710100092,None,,,NC17,001,2021_Nov_01_1431,ProdSingRedo,3.2.3,59.93917370993954,
,,,,26,0,26,0,,,,,,,,,,,,,,,,,,,,,,,,727.6851778000128,None,,,,,,,,,,,,,,,,,suggestion,new_b,white,26,121,314,724.7788418000564,None,724.7788418000564,None,6,1.7981965001672506,724.7788418000564,None,726.6054375001695,None,727.1210589001421,None,727.1210589001421,None,r,0.5283353999257088,727.1210589001421,None,,,NC17,001,2021_Nov_01_1431,ProdSingRedo,3.2.3,59.93917370993954,
,,,,27,0,27,0,,,,,,,,,,,,,,,,,,,,,,,,734.5751541000791,None,,,,,,,,,,,,,,,,,device,new_b,white,27,122,93,728.2124475000892,None,728.2124475000892,None,5,4.1807935000397265,728.2124475000892,None,732.4382863000501,None,732.9611621000804,None,732.9611621000804,None,f,1.5923768999055028,732.9611621000804,None,,,NC17,001,2021_Nov_01_1431,ProdSingRedo,3.2.3,59.93917370993954,
,,,,28,0,28,0,,,,,,,,,,,,,,,,,,,,,,,,739.6847459001001,None,,,,,,,,,,,,,,,,,brief,new_c,white,28,168,28,735.1032218001783,None,735.1032218001783,None,5,3.5460173001047224,735.1032218001783,None,738.6853223000653,None,739.1997670000419,None,739.1997670000419,None,f,0.45756509993225336,739.1997670000419,None,,,NC17,001,2021_Nov_01_1431,ProdSingRedo,3.2.3,59.93917370993954,
,,,,29,0,29,0,,,,,,,,,,,,,,,,,,,,,,,,742.7350686001591,None,,,,,,,,,,,,,,,,,cover,silent,white,29,80,77,740.2069550000597,None,740.2069550000597,None,6,1.4981654998846352,740.2069550000597,None,741.7353748001624,None,742.2521575000137,None,742.2521575000137,None,r,0.453142800135538,742.2521575000137,None,,,NC17,001,2021_Nov_01_1431,ProdSingRedo,3.2.3,59.93917370993954,
,,,,30,0,30,0,,,,,,,,,,,,,,,,,,,,,,,,748.389631500002,None,,,,,,,,,,,,,,,,,corner,new_c,white,30,155,69,743.2581460999791,None,743.2581460999791,None,2,2.9352345999795943,743.2581460999791,None,746.2297652000561,None,746.7386815999635,None,746.7386815999635,None,f,1.614629799965769,746.7386815999635,None,,,NC17,001,2021_Nov_01_1431,ProdSingRedo,3.2.3,59.93917370993954,
,,,,31,0,31,0,,,,,,,,,,,,,,,,,,,,,,,,751.57623840007,None,,,,,,,,,,,,,,,,,design,sing,white,31,11,91,748.9167786000762,None,748.9167786000762,None,6,1.5565216999966651,748.9167786000762,None,750.524737900123,None,751.049870399991,None,751.049870399991,None,r,0.4955279999412596,751.049870399991,None,,,NC17,001,2021_Nov_01_1431,ProdSingRedo,3.2.3,59.93917370993954,
,,,,32,0,32,0,,,,,,,,,,,,,,,,,,,,,,,,753.825407900149,None,,,,,,,,,,,,,,,,,management,silent,white,32,83,177,752.106587599963,None,752.106587599963,None,6,0.6388704001437873,752.106587599963,None,752.7967356001027,None,753.3143059001304,None,753.3143059001304,None,r,0.48694450012408197,753.3143059001304,None,,,NC17,001,2021_Nov_01_1431,ProdSingRedo,3.2.3,59.93917370993954,
,,,,33,0,33,0,,,,,,,,,,,,,,,,,,,,,,,,755.9811587000731,None,,,,,,,,,,,,,,,,,tragedy,silent,white,33,76,335,754.3556894999929,None,754.3556894999929,None,6,0.6856674000155181,754.3556894999929,None,755.0819023000076,None,755.6022336999886,None,755.6022336999886,None,r,0.34325230005197227,755.6022336999886,None,,,NC17,001,2021_Nov_01_1431,ProdSingRedo,3.2.3,59.93917370993954,
,,,,34,0,34,0,,,,,,,,,,,,,,,,,,,,,,,,759.2666617999785,None,,,,,,,,,,,,,,,,,power,sing,white,34,28,230,756.5075362999924,None,756.5075362999924,None,5,1.9097740999422967,756.5075362999924,None,758.4643396001775,None,758.9696361999959,None,758.9696361999959,None,f,0.2636742000468075,758.9696361999959,None,,,NC17,001,2021_Nov_01_1431,ProdSingRedo,3.2.3,59.93917370993954,
,,,,35,0,35,0,,,,,,,,,,,,,,,,,,,,,,,,762.2213390001561,None,,,,,,,,,,,,,,,,,question,new_a,white,35,93,247,759.7910845000297,None,759.7910845000297,None,6,1.5302105001173913,759.7910845000297,None,761.3699499999639,None,761.8774490000214,None,761.8774490000214,None,r,0.3159499999601394,761.8774490000214,None,,,NC17,001,2021_Nov_01_1431,ProdSingRedo,3.2.3,59.93917370993954,
,,,,36,0,36,0,,,,,,,,,,,,,,,,,,,,,,,,764.5225752000697,None,,,,,,,,,,,,,,,,,suspect,sing,white,36,22,318,762.7470870001707,None,762.7470870001707,None,6,1.006345700006932,762.7470870001707,None,763.8052619001828,None,764.3244756001513,None,764.3244756001513,None,r,0.16481559979729354,764.3244756001513,None,,,NC17,001,2021_Nov_01_1431,ProdSingRedo,3.2.3,59.93917370993954,
,,,,37,0,37,0,,,,,,,,,,,,,,,,,,,,,,,,766.7425532999914,None,,,,,,,,,,,,,,,,,government,silent,white,37,65,139,765.0517991001252,None,765.0517991001252,None,6,0.9012601000722498,765.0517991001252,None,765.9953972001094,None,766.5112550000194,None,766.5112550000194,None,r,0.20217679999768734,766.5112550000194,None,,,NC17,001,2021_Nov_01_1431,ProdSingRedo,3.2.3,59.93917370993954,
,,,,38,0,38,0,,,,,,,,,,,,,,,,,,,,,,,,768.7440339000896,None,,,,,,,,,,,,,,,,,production,silent,white,38,64,240,767.2692111001816,None,767.2692111001816,None,6,0.6441460000351071,767.2692111001816,None,767.953933800105,None,768.465557700023,None,768.465557700023,None,r,0.25584169989451766,768.465557700023,None,,,NC17,001,2021_Nov_01_1431,ProdSingRedo,3.2.3,59.93917370993954,
,,,,39,0,39,0,,,,,,,,,,,,,,,,,,,,,,,,771.8954313001595,None,,,,,,,,,,,,,,,,,crisis,new_a,white,39,103,79,769.264399100095,None,769.264399100095,None,3,1.752986100036651,769.264399100095,None,771.0561848001089,None,771.5612749001011,None,771.5612749001011,None,f,0.31241850019432604,771.5612749001011,None,,,NC17,001,2021_Nov_01_1431,ProdSingRedo,3.2.3,59.93917370993954,
,,,,40,0,40,0,,,,,,,,,,,,,,,,,,,,,,,,775.0172634001356,None,,,,,,,,,,,,,,,,,throw,aloud,white,40,38,330,772.4181584999897,None,772.4181584999897,None,6,2.0152482001576573,772.4181584999897,None,774.4797865001019,None,774.9827100001276,None,774.9827100001276,None,r,0.010877199936658144,774.9827100001276,None,,,NC17,001,2021_Nov_01_1431,ProdSingRedo,3.2.3,59.93917370993954,
,,,,41,0,41,0,,,,,,,,,,,,,,,,,,,,,,,,777.1786478001159,None,,,,,,,,,,,,,,,,,provision,aloud,white,41,57,243,775.5417939000763,None,775.5417939000763,None,6,0.9476153999567032,775.5417939000763,None,776.5319225001149,None,777.0450138000306,None,777.0450138000306,None,r,0.11614820011891425,777.0450138000306,None,,,NC17,001,2021_Nov_01_1431,ProdSingRedo,3.2.3,59.93917370993954,
,,,,42,0,42,0,,,,,,,,,,,,,,,,,,,,,,,,780.6485733001027,None,,,,,,,,,,,,,,,,,youth,new_b,white,42,134,359,777.6971726000775,None,777.6971726000775,None,3,2.3122864000033587,777.6971726000775,None,780.0553198000416,None,780.5666919001378,None,780.5666919001378,None,f,0.05039189988747239,780.5666919001378,None,,,NC17,001,2021_Nov_01_1431,ProdSingRedo,3.2.3,59.93917370993954,
,,,,43,0,43,0,,,,,,,,,,,,,,,,,,,,,,,,783.8589880999643,None,,,,,,,,,,,,,,,,,beauty,silent,white,43,61,18,781.1492249001749,None,781.1492249001749,None,6,1.5877491999417543,781.1492249001749,None,782.7697197000962,None,783.3078701000195,None,783.3078701000195,None,r,0.5257391999475658,783.3078701000195,None,,,NC17,001,2021_Nov_01_1431,ProdSingRedo,3.2.3,59.93917370993954,
,,,,44,0,44,0,,,,,,,,,,,,,,,,,,,,,,,,792.4516465000343,None,,,,,,,,,,,,,,,,,answer,new_a,white,44,107,8,784.3867528000847,None,784.3867528000847,None,3,2.310614600079134,784.3867528000847,None,786.7447524999734,None,787.2654264001176,None,787.2654264001176,None,f,5.160220199963078,787.2654264001176,None,,,NC17,001,2021_Nov_01_1431,ProdSingRedo,3.2.3,59.93917370993954,
,,,,45,0,45,0,,,,,,,,,,,,,,,,,,,,,,,,795.8199521000497,None,,,,,,,,,,,,,,,,,block,new_b,white,45,128,25,792.9761340001132,None,792.9761340001132,None,3,1.8492517000995576,792.9761340001132,None,794.8646829000209,None,795.3893834999762,None,795.3893834999762,None,f,0.3959494000300765,795.3893834999762,None,,,NC17,001,2021_Nov_01_1431,ProdSingRedo,3.2.3,59.93917370993954,
,,,,46,0,46,0,,,,,,,,,,,,,,,,,,,,,,,,802.3015557001345,None,,,,,,,,,,,,,,,,,series,new_b,white,46,120,279,796.3440827000886,None,796.3440827000886,None,6,5.273287600139156,796.3440827000886,None,801.6547183999792,None,802.1585941000376,None,802.1585941000376,None,r,0.09875079989433289,802.1585941000376,None,,,NC17,001,2021_Nov_01_1431,ProdSingRedo,3.2.3,59.93917370993954,
,,,,47,0,47,0,,,,,,,,,,,,,,,,,,,,,,,,806.382166699972,None,,,,,,,,,,,,,,,,,close,new_c,white,47,162,53,802.8163745000493,None,802.8163745000493,None,6,2.8329773999284953,802.8163745000493,None,805.6891936999746,None,806.1954717000481,None,806.1954717000481,None,r,0.15789769985713065,806.1954717000481,None,,,NC17,001,2021_Nov_01_1431,ProdSingRedo,3.2.3,59.93917370993954,
,,,,48,0,48,0,,,,,,,,,,,,,,,,,,,,,,,,809.6004258999601,None,,,,,,,,,,,,,,,,,division,sing,white,48,29,101,806.8920362000354,None,806.8920362000354,None,6,1.2374531999230385,806.8920362000354,None,808.179873800138,None,808.7026576001663,None,808.7026576001663,None,r,0.8667063000611961,808.7026576001663,None,,,NC17,001,2021_Nov_01_1431,ProdSingRedo,3.2.3,59.93917370993954,
,,,,49,0,49,0,,,,,,,,,,,,,,,,,,,,,,,,813.4710826000664,None,,,,,,,,,,,,,,,,,carry,new_b,white,49,133,43,810.1273564000148,None,810.1273564000148,None,3,2.1221015001647174,810.1273564000148,None,812.3056440001819,None,812.8260359000415,None,812.8260359000415,None,f,0.6154229999519885,812.8260359000415,None,,,NC17,001,2021_Nov_01_1431,ProdSingRedo,3.2.3,59.93917370993954,
,,,,50,0,50,0,,,,,,,,,,,,,,,,,,,,,,,,816.2913103001192,None,,,,,,,,,,,,,,,,,member,new_b,white,50,146,188,813.9996162001044,None,813.9996162001044,None,4,1.553913600044325,813.9996162001044,None,815.6101134000346,None,816.1262897001579,None,816.1262897001579,None,f,0.13932259986177087,816.1262897001579,None,,,NC17,001,2021_Nov_01_1431,ProdSingRedo,3.2.3,59.93917370993954,
,,,,51,0,51,0,,,,,,,,,,,,,,,,,,,,,,,,820.2462510999758,None,,,,,,,,,,,,,,,,,population,silent,white,51,89,227,816.8199402999599,None,816.8199402999599,None,6,2.1493759998120368,816.8199402999599,None,819.0144088000525,None,819.5351838001516,None,819.5351838001516,None,r,0.6827183000277728,819.5351838001516,None,,,NC17,001,2021_Nov_01_1431,ProdSingRedo,3.2.3,59.93917370993954,
,,,,52,0,52,0,,,,,,,,,,,,,,,,,,,,,,,,822.7323039001785,None,,,,,,,,,,,,,,,,,silence,new_c,white,52,165,288,820.7578579001129,None,820.7578579001129,None,6,1.1638821000233293,820.7578579001129,None,821.9549877999816,None,822.464291300159,None,822.464291300159,None,r,0.24128989991731942,822.464291300159,None,,,NC17,001,2021_Nov_01_1431,ProdSingRedo,3.2.3,59.93917370993954,
,,,,53,0,53,0,,,,,,,,,,,,,,,,,,,,,,,,826.3521781000309,None,,,,,,,,,,,,,,,,,mankind,new_c,white,53,152,178,823.2613030001521,None,823.2613030001521,None,2,1.9961906999815255,823.2613030001521,None,825.3050600001588,None,825.8230741000734,None,825.8230741000734,None,f,0.49850420001894236,825.8230741000734,None,,,NC17,001,2021_Nov_01_1431,ProdSingRedo,3.2.3,59.93917370993954,
,,,,54,0,54,0,,,,,,,,,,,,,,,,,,,,,,,,828.887315900065,None,,,,,,,,,,,,,,,,,clear,new_c,white,54,166,52,826.8768394000363,None,826.8768394000363,None,6,1.2845613998360932,826.8768394000363,None,828.2007663999684,None,828.7235330000985,None,828.7235330000985,None,r,0.12612299993634224,828.7235330000985,None,,,NC17,001,2021_Nov_01_1431,ProdSingRedo,3.2.3,59.93917370993954,
,,,,55,0,55,0,,,,,,,,,,,,,,,,,,,,,,,,832.7919228000101,None,,,,,,,,,,,,,,,,,month,sing,white,55,7,193,829.4099398001563,None,829.4099398001563,None,6,1.5755243001040071,829.4099398001563,None,831.0336941999849,None,831.5408010999672,None,831.5408010999672,None,r,1.2286789999343455,831.5408010999672,None,,,NC17,001,2021_Nov_01_1431,ProdSingRedo,3.2.3,59.93917370993954,
,,,,56,0,56,0,,,,,,,,,,,,,,,,,,,,,,,,835.0599277999718,None,,,,,,,,,,,,,,,,,couch,sing,white,56,4,70,833.3167890000623,None,833.3167890000623,None,6,1.084488800028339,833.3167890000623,None,834.4354605001863,None,834.9456538001541,None,834.9456538001541,None,r,0.08777619991451502,834.9456538001541,None,,,NC17,001,2021_Nov_01_1431,ProdSingRedo,3.2.3,59.93917370993954,
,,,,57,0,57,0,,,,,,,,,,,,,,,,,,,,,,,,837.4886957001872,None,,,,,,,,,,,,,,,,,split,aloud,white,57,33,299,835.5821603999939,None,835.5821603999939,None,6,1.2348319001030177,835.5821603999939,None,836.8381537999958,None,837.3386542999651,None,837.3386542999651,None,r,0.11862550000660121,837.3386542999651,None,,,NC17,001,2021_Nov_01_1431,ProdSingRedo,3.2.3,59.93917370993954,
,,,,58,0,58,0,,,,,,,,,,,,,,,,,,,,,,,,840.669049100019,None,,,,,,,,,,,,,,,,,south,sing,white,58,18,296,838.0040768000763,None,838.0040768000763,None,2,1.8216130998916924,838.0040768000763,None,839.8596266000532,None,840.3833892000839,None,840.3833892000839,None,f,0.25015560002066195,840.3833892000839,None,,,NC17,001,2021_Nov_01_1431,ProdSingRedo,3.2.3,59.93917370993954,
,,,,59,0,59,0,,,,,,,,,,,,,,,,,,,,,,,,843.5446605000179,None,,,,,,,,,,,,,,,,,rough,new_c,white,59,172,266,841.1907734000124,None,841.1907734000124,None,2,1.4906438998878002,841.1907734000124,None,842.7329147001728,None,843.2529089001473,None,843.2529089001473,None,f,0.2682207999750972,843.2529089001473,None,,,NC17,001,2021_Nov_01_1431,ProdSingRedo,3.2.3,59.93917370993954,
,,,,60,0,60,0,,,,,,,,,,,,,,,,,,,,,,,,845.9584170000162,None,,,,,,,,,,,,,,,,,science,aloud,white,60,56,275,844.0454059999902,None,844.0454059999902,None,6,1.2839605999179184,844.0454059999902,None,845.3656915000174,None,845.8804041000549,None,845.8804041000549,None,r,0.04101240006275475,845.8804041000549,None,,,NC17,001,2021_Nov_01_1431,ProdSingRedo,3.2.3,59.93917370993954,
,,,,61,0,61,0,,,,,,,,,,,,,,,,,,,,,,,,849.0403061001562,None,,,,,,,,,,,,,,,,,company,new_a,white,61,100,64,846.4861561001744,None,846.4861561001744,None,2,1.7073927000164986,846.4861561001744,None,848.2452571000904,None,848.7616571001709,None,848.7616571001709,None,f,0.25563859986141324,848.7616571001709,None,,,NC17,001,2021_Nov_01_1431,ProdSingRedo,3.2.3,59.93917370993954,
,,,,62,0,62,0,,,,,,,,,,,,,,,,,,,,,,,,853.979793400038,None,,,,,,,,,,,,,,,,,travel,new_b,white,62,140,338,849.5651928000152,None,849.5651928000152,None,2,3.380133899860084,849.5651928000152,None,852.9921796000563,None,853.497485200176,None,853.497485200176,None,f,0.4562570999842137,853.497485200176,None,,,NC17,001,2021_Nov_01_1431,ProdSingRedo,3.2.3,59.93917370993954,
,,,,63,0,63,0,,,,,,,,,,,,,,,,,,,,,,,,856.3648367000278,None,,,,,,,,,,,,,,,,,generation,silent,white,63,66,136,854.5035763999913,None,854.5035763999913,None,6,1.1380273001268506,854.5035763999913,None,855.687592000002,None,856.2033861000091,None,856.2033861000091,None,r,0.12612250004895031,856.2033861000091,None,,,NC17,001,2021_Nov_01_1431,ProdSingRedo,3.2.3,59.93917370993954,
,,,,64,0,64,0,,,,,,,,,,,,,,,,,,,,,,,,862.2702381999698,None,,,,,,,,,,,,,,,,,profession,aloud,white,64,51,241,856.8945721001364,None,856.8945721001364,None,6,0.8827874998096377,856.8945721001364,None,857.8217766000889,None,858.337074900046,None,858.337074900046,None,r,3.904306599870324,858.337074900046,None,,,NC17,001,2021_Nov_01_1431,ProdSingRedo,3.2.3,59.93917370993954,
,,,,65,0,65,0,,,,,,,,,,,,,,,,,,,,,,,,864.7561260000803,None,,,,,,,,,,,,,,,,,health,sing,white,65,24,149,862.7950559000019,None,862.7950559000019,None,6,1.246395600028336,862.7950559000019,None,864.087784399977,None,864.5928506001364,None,864.5928506001364,None,r,0.1370121999643743,864.5928506001364,None,,,NC17,001,2021_Nov_01_1431,ProdSingRedo,3.2.3,59.93917370993954,
,,,,66,0,66,0,,,,,,,,,,,,,,,,,,,,,,,,867.0014527000021,None,,,,,,,,,,,,,,,,,course,new_a,white,66,90,74,865.2831759999972,None,865.2831759999972,None,6,1.1342402000445873,865.2831759999972,None,866.4575873999856,None,866.9681482000742,None,866.9681482000742,None,r,0.008876499952748418,866.9681482000742,None,,,NC17,001,2021_Nov_01_1431,ProdSingRedo,3.2.3,59.93917370993954,
,,,,67,0,67,0,,,,,,,,,,,,,,,,,,,,,,,,872.2960821001325,None,,,,,,,,,,,,,,,,,death,new_b,white,67,127,86,867.5021132000256,None,867.5021132000256,None,6,2.595438800053671,867.5021132000256,None,870.146858900087,None,870.6647779000923,None,870.6647779000923,None,f,1.6007004000712186,870.6647779000923,None,,,NC17,001,2021_Nov_01_1431,ProdSingRedo,3.2.3,59.93917370993954,
,,,,68,0,68,0,,,,,,,,,,,,,,,,,,,,,,,,874.7765128000174,None,,,,,,,,,,,,,,,,,under,silent,white,68,74,343,872.8187773001846,None,872.8187773001846,None,6,1.3025837000459433,872.8187773001846,None,874.1563923000358,None,874.6618739000987,None,874.6618739000987,None,r,0.09921290003694594,874.6618739000987,None,,,NC17,001,2021_Nov_01_1431,ProdSingRedo,3.2.3,59.93917370993954,
,,,,69,0,69,0,,,,,,,,,,,,,,,,,,,,,,,,878.7191235001665,None,,,,,,,,,,,,,,,,,character,new_c,white,69,163,46,875.2765395999886,None,875.2765395999886,None,3,2.6530067999847233,875.2765395999886,None,877.9743564000819,None,878.4717253001872,None,878.4717253001872,None,f,0.21760819992050529,878.4717253001872,None,,,NC17,001,2021_Nov_01_1431,ProdSingRedo,3.2.3,59.93917370993954,
,,,,70,0,70,0,,,,,,,,,,,,,,,,,,,,,,,,881.3882379001006,None,,,,,,,,,,,,,,,,,account,sing,white,70,13,1,879.2462306001689,None,879.2462306001689,None,3,1.4030907000415027,879.2462306001689,None,880.6909932000563,None,881.1928944000974,None,881.1928944000974,None,f,0.16851350013166666,881.1928944000974,None,,,NC17,001,2021_Nov_01_1431,ProdSingRedo,3.2.3,59.93917370993954,
,,,,71,0,71,0,,,,,,,,,,,,,,,,,,,,,,,,886.6106599001214,None,,,,,,,,,,,,,,,,,interior,new_a,white,71,91,164,881.9115496000741,None,881.9115496000741,None,1,2.1699045000132173,881.9115496000741,None,884.1197036001831,None,884.6238204000983,None,884.6238204000983,None,n,1.953726900042966,884.6238204000983,None,,,NC17,001,2021_Nov_01_1431,ProdSingRedo,3.2.3,59.93917370993954,
,,,,72,0,72,0,,,,,,,,,,,,,,,,,,,,,,,,889.3964729001746,None,,,,,,,,,,,,,,,,,territory,sing,white,72,23,324,887.1348898999859,None,887.1348898999859,None,6,1.4346318000461906,887.1348898999859,None,888.6121607001405,None,889.1330415001139,None,889.1330415001139,None,r,0.22845080005936325,889.1330415001139,None,,,NC17,001,2021_Nov_01_1431,ProdSingRedo,3.2.3,59.93917370993954,
,,,,73,0,73,0,,,,,,,,,,,,,,,,,,,,,,,,893.3338916001376,None,,,,,,,,,,,,,,,,,commercial,new_c,white,73,173,61,889.92629520013,None,889.92629520013,None,3,2.2111717998050153,889.92629520013,None,892.1808490001131,None,892.6891128001735,None,892.6891128001735,None,f,0.6082859998568892,892.6891128001735,None,,,NC17,001,2021_Nov_01_1431,ProdSingRedo,3.2.3,59.93917370993954,
,,,,74,0,74,0,,,,,,,,,,,,,,,,,,,,,,,,897.4154398001265,None,,,,,,,,,,,,,,,,,tough,new_c,white,74,178,333,893.85945980018,None,893.85945980018,None,4,2.541929999832064,893.85945980018,None,896.4530933999922,None,896.9649041001685,None,896.9649041001685,None,f,0.4282460000831634,896.9649041001685,None,,,NC17,001,2021_Nov_01_1431,ProdSingRedo,3.2.3,59.93917370993954,
,,,,75,0,75,0,,,,,,,,,,,,,,,,,,,,,,,,901.5108710001223,None,,,,,,,,,,,,,,,,,welcome,new_a,white,75,108,354,897.935661100084,None,897.935661100084,None,3,2.1618290999904275,897.935661100084,None,900.13543689996,None,900.6467246999964,None,900.6467246999964,None,f,0.8347612000070512,900.6467246999964,None,,,NC17,001,2021_Nov_01_1431,ProdSingRedo,3.2.3,59.93917370993954,
,,,,76,0,76,0,,,,,,,,,,,,,,,,,,,,,,,,904.9463382000104,None,,,,,,,,,,,,,,,,,still,new_a,white,76,114,304,902.0316381000448,None,902.0316381000448,None,4,2.1297574997879565,902.0316381000448,None,904.2056236001663,None,904.7126325001009,None,904.7126325001009,None,f,0.2007340001873672,904.7126325001009,None,,,NC17,001,2021_Nov_01_1431,ProdSingRedo,3.2.3,59.93917370993954,
,,,,77,0,77,0,,,,,,,,,,,,,,,,,,,,,,,,907.3958141000476,None,,,,,,,,,,,,,,,,,break,sing,white,77,3,26,905.4702743000817,None,905.4702743000817,None,6,1.2350832999218255,905.4702743000817,None,906.7459013999905,None,907.2559252001811,None,907.2559252001811,None,r,0.12132649985142052,907.2559252001811,None,,,NC17,001,2021_Nov_01_1431,ProdSingRedo,3.2.3,59.93917370993954,
,,,,78,0,78,0,,,,,,,,,,,,,,,,,,,,,,,,910.5344784001354,None,,,,,,,,,,,,,,,,,quarter,new_b,white,78,129,246,907.9132711000275,None,907.9132711000275,None,3,1.7762961001135409,907.9132711000275,None,909.7311085001566,None,910.2548265999649,None,910.2548265999649,None,f,0.2427782998420298,910.2548265999649,None,,,NC17,001,2021_Nov_01_1431,ProdSingRedo,3.2.3,59.93917370993954,
,,,,79,0,79,0,,,,,,,,,,,,,,,,,,,,,,,,913.1376316000242,None,,,,,,,,,,,,,,,,,alert,aloud,white,79,49,6,911.0588389001787,None,911.0588389001787,None,6,1.0788252998609096,911.0588389001787,None,912.184022200061,None,912.7046191000845,None,912.7046191000845,None,r,0.40878270007669926,912.7046191000845,None,,,NC17,001,2021_Nov_01_1431,ProdSingRedo,3.2.3,59.93917370993954,
,,,,80,0,80,0,,,,,,,,,,,,,,,,,,,,,,,,915.6912765000015,None,,,,,,,,,,,,,,,,,drove,aloud,white,80,44,106,913.6636211001314,None,913.6636211001314,None,3,1.4340900999959558,913.6636211001314,None,915.1335384000558,None,915.6420523000415,None,915.6420523000415,None,f,0.023345600115135312,915.6420523000415,None,,,NC17,001,2021_Nov_01_1431,ProdSingRedo,3.2.3,59.93917370993954,
,,,,81,0,81,0,,,,,,,,,,,,,,,,,,,,,,,,918.4254976999946,None,,,,,,,,,,,,,,,,,incident,new_b,white,81,144,158,916.2123204001691,None,916.2123204001691,None,3,1.4931692997924984,916.2123204001691,None,917.7553461999632,None,918.273994800169,None,918.273994800169,None,f,0.127507199998945,918.273994800169,None,,,NC17,001,2021_Nov_01_1431,ProdSingRedo,3.2.3,59.93917370993954,
,,,,82,0,82,0,,,,,,,,,,,,,,,,,,,,,,,,921.9132819999941,None,,,,,,,,,,,,,,,,,smooth,new_a,white,82,97,292,918.9474649000913,None,918.9474649000913,None,6,2.2140035999473184,918.9474649000913,None,921.2059635999613,None,921.7114721999969,None,921.7114721999969,None,r,0.17797029996290803,921.7114721999969,None,,,NC17,001,2021_Nov_01_1431,ProdSingRedo,3.2.3,59.93917370993954,
,,,,83,0,83,0,,,,,,,,,,,,,,,,,,,,,,,,924.39908750006,None,,,,,,,,,,,,,,,,,skill,new_c,white,83,161,289,922.4383637001738,None,922.4383637001738,None,6,1.3311519999988377,922.4383637001738,None,923.8082569001708,None,924.3193426001817,None,924.3193426001817,None,r,0.05014309985563159,924.3193426001817,None,,,NC17,001,2021_Nov_01_1431,ProdSingRedo,3.2.3,59.93917370993954,
,,,,84,0,84,0,,,,,,,,,,,,,,,,,,,,,,,,926.8111058999784,None,,,,,,,,,,,,,,,,,platform,new_b,white,84,132,224,924.9261758001521,None,924.9261758001521,None,3,1.1873508000280708,924.9261758001521,None,926.1696780000348,None,926.6902940999717,None,926.6902940999717,None,f,0.09473680006340146,926.6902940999717,None,,,NC17,001,2021_Nov_01_1431,ProdSingRedo,3.2.3,59.93917370993954,
,,,,85,0,85,0,,,,,,,,,,,,,,,,,,,,,,,,929.6545401001349,None,,,,,,,,,,,,,,,,,voice,new_c,white,85,174,348,927.3120661000721,None,927.3120661000721,None,3,1.041416099993512,927.3120661000721,None,928.4002179000527,None,928.9199340001214,None,928.9199340001214,None,f,0.7055128999054432,928.9199340001214,None,,,NC17,001,2021_Nov_01_1431,ProdSingRedo,3.2.3,59.93917370993954,
,,,,86,0,86,0,,,,,,,,,,,,,,,,,,,,,,,,932.8085578000173,None,,,,,,,,,,,,,,,,,mechanical,aloud,white,86,40,185,930.18568900018,None,930.18568900018,None,6,0.9838994999881834,930.18568900018,None,931.2197833000682,None,931.7479361000005,None,931.7479361000005,None,r,1.0376476999372244,931.7479361000005,None,,,NC17,001,2021_Nov_01_1431,ProdSingRedo,3.2.3,59.93917370993954,
,,,,87,0,87,0,,,,,,,,,,,,,,,,,,,,,,,,935.1375898001716,None,,,,,,,,,,,,,,,,,music,sing,white,87,26,196,933.3338496000506,None,933.3338496000506,None,6,1.1796788999345154,933.3338496000506,None,934.5587116000243,None,935.0773106000852,None,935.0773106000852,None,r,0.04398379987105727,935.0773106000852,None,,,NC17,001,2021_Nov_01_1431,ProdSingRedo,3.2.3,59.93917370993954,
,,,,88,0,88,0,,,,,,,,,,,,,,,,,,,,,,,,937.5621915000957,None,,,,,,,,,,,,,,,,,build,silent,white,88,71,35,935.651194000151,None,935.651194000151,None,6,1.262334099970758,935.651194000151,None,936.9618120000232,None,937.4822345001157,None,937.4822345001157,None,r,0.04724380001425743,937.4822345001157,None,,,NC17,001,2021_Nov_01_1431,ProdSingRedo,3.2.3,59.93917370993954,
,,,,89,0,89,0,,,,,,,,,,,,,,,,,,,,,,,,940.8338501001708,None,,,,,,,,,,,,,,,,,figure,new_b,white,89,141,128,938.0902589999605,None,938.0902589999605,None,3,1.735388900153339,938.0902589999605,None,939.8655063000042,None,940.3872398000676,None,940.3872398000676,None,f,0.4142764999996871,940.3872398000676,None,,,NC17,001,2021_Nov_01_1431,ProdSingRedo,3.2.3,59.93917370993954,
,,,,90,0,90,0,,,,,,,,,,,,,,,,,,,,,,,,943.8017615000717,None,,,,,,,,,,,,,,,,,owner,new_a,white,90,115,208,941.3637632001191,None,941.3637632001191,None,6,1.5102107001002878,941.3637632001191,None,942.9175711001735,None,943.4359397999942,None,943.4359397999942,None,r,0.3335633999668062,943.4359397999942,None,,,NC17,001,2021_Nov_01_1431,ProdSingRedo,3.2.3,59.93917370993954,
,,,,91,0,91,0,,,,,,,,,,,,,,,,,,,,,,,,946.1041298001073,None,,,,,,,,,,,,,,,,,emergency,silent,white,91,63,110,944.3302192999981,None,944.3302192999981,None,6,1.119282600004226,944.3302192999981,None,945.5063779000193,None,946.0120149999857,None,946.0120149999857,None,r,0.06946690008044243,946.0120149999857,None,,,NC17,001,2021_Nov_01_1431,ProdSingRedo,3.2.3,59.93917370993954,
,,,,92,0,92,0,,,,,,,,,,,,,,,,,,,,,,,,949.5909975001123,None,,,,,,,,,,,,,,,,,shear,aloud,white,92,45,283,946.6272968000267,None,946.6272968000267,None,6,1.6697774999774992,946.6272968000267,None,948.3160179001279,None,948.8272677001078,None,948.8272677001078,None,r,0.7343377000652254,948.8272677001078,None,,,NC17,001,2021_Nov_01_1431,ProdSingRedo,3.2.3,59.93917370993954,
,,,,93,0,93,0,,,,,,,,,,,,,,,,,,,,,,,,951.7707243000623,None,,,,,,,,,,,,,,,,,history,aloud,white,93,48,153,950.1149609000422,None,950.1149609000422,None,6,1.030500799883157,950.1149609000422,None,951.1894557999913,None,951.6946631001774,None,951.6946631001774,None,r,0.05883500003255904,951.6946631001774,None,,,NC17,001,2021_Nov_01_1431,ProdSingRedo,3.2.3,59.93917370993954,
,,,,94,0,94,0,,,,,,,,,,,,,,,,,,,,,,,,955.0641261001583,None,,,,,,,,,,,,,,,,,oxygen,new_b,white,94,136,209,952.290306000039,None,952.290306000039,None,2,1.335191700141877,952.290306000039,None,953.6790436999872,None,954.202289900044,None,954.202289900044,None,n,0.8392193000763655,954.202289900044,None,,,NC17,001,2021_Nov_01_1431,ProdSingRedo,3.2.3,59.93917370993954,
,,,,95,0,95,0,,,,,,,,,,,,,,,,,,,,,,,,958.0488953001332,None,,,,,,,,,,,,,,,,,agreement,aloud,white,95,58,5,955.5899307001382,None,955.5899307001382,None,6,1.2031344999559224,955.5899307001382,None,956.8276629999746,None,957.3422528000083,None,957.3422528000083,None,r,0.6753607999999076,957.3422528000083,None,,,NC17,001,2021_Nov_01_1431,ProdSingRedo,3.2.3,59.93917370993954,
,,,,96,0,96,0,,,,,,,,,,,,,,,,,,,,,,,,961.8702241999563,None,,,,,,,,,,,,,,,,,native,sing,white,96,25,199,958.5772444000468,None,958.5772444000468,None,6,1.8563836999237537,958.5772444000468,None,960.4912823999766,None,961.0074533000588,None,961.0074533000588,None,r,0.8261129998136312,961.0074533000588,None,,,NC17,001,2021_Nov_01_1431,ProdSingRedo,3.2.3,59.93917370993954,
,,,,97,0,97,0,,,,,,,,,,,,,,,,,,,,,,,,966.9136179999914,None,,,,,,,,,,,,,,,,,marriage,new_b,white,97,143,179,962.3989817001857,None,962.3989817001857,None,3,1.4187163000460714,962.3989817001857,None,963.8740068001207,None,964.3966544000432,None,964.3966544000432,None,f,2.4769552999641746,964.3966544000432,None,,,NC17,001,2021_Nov_01_1431,ProdSingRedo,3.2.3,59.93917370993954,
,,,,98,0,98,0,,,,,,,,,,,,,,,,,,,,,,,,969.6662173999939,None,,,,,,,,,,,,,,,,,election,new_c,white,98,170,109,967.4335021001752,None,967.4335021001752,None,3,1.49599130009301,967.4335021001752,None,968.971891600173,None,969.4876735999715,None,969.4876735999715,None,f,0.14573939982801676,969.4876735999715,None,,,NC17,001,2021_Nov_01_1431,ProdSingRedo,3.2.3,59.93917370993954,
,,,,99,0,99,0,,,,,,,,,,,,,,,,,,,,,,,,972.6306039001793,None,,,,,,,,,,,,,,,,,dance,sing,white,99,5,84,970.1782438000664,None,970.1782438000664,None,6,1.3109860999975353,970.1782438000664,None,971.526205400005,None,972.0355525000487,None,972.0355525000487,None,r,0.5659943001810461,972.0355525000487,None,,,NC17,001,2021_Nov_01_1431,ProdSingRedo,3.2.3,59.93917370993954,
,,,,100,0,100,0,,,,,,,,,,,,,,,,,,,,,,,,977.7847426000517,None,,,,,,,,,,,,,,,,,straight,new_c,white,100,150,307,973.159285900183,None,973.159285900183,None,6,3.962430200073868,973.159285900183,None,977.1690438999794,None,977.6860931999981,None,977.6860931999981,None,r,0.07536050002090633,977.6860931999981,None,,,NC17,001,2021_Nov_01_1431,ProdSingRedo,3.2.3,59.93917370993954,
,,,,101,0,101,0,,,,,,,,,,,,,,,,,,,,,,,,980.1980757000856,None,,,,,,,,,,,,,,,,,service,sing,white,101,14,280,978.3113907000516,None,978.3113907000516,None,6,1.266117700142786,978.3113907000516,None,979.621909199981,None,980.139206300024,None,980.139206300024,None,r,0.03808779991231859,980.139206300024,None,,,NC17,001,2021_Nov_01_1431,ProdSingRedo,3.2.3,59.93917370993954,
,,,,102,0,102,0,,,,,,,,,,,,,,,,,,,,,,,,982.95686809998,None,,,,,,,,,,,,,,,,,novel,new_c,white,102,175,202,980.7117320999969,None,980.7117320999969,None,3,1.4818224001210183,980.7117320999969,None,982.2367815000471,None,982.7444180999883,None,982.7444180999883,None,f,0.1770491001661867,982.7444180999883,None,,,NC17,001,2021_Nov_01_1431,ProdSingRedo,3.2.3,59.93917370993954,
,,,,103,0,103,0,,,,,,,,,,,,,,,,,,,,,,,,985.4638593001291,None,,,,,,,,,,,,,,,,,dispute,sing,white,103,12,99,983.4844617999624,None,983.4844617999624,None,6,1.4051191001199186,983.4844617999624,None,984.9379625001457,None,985.4462637000252,None,985.4462637000252,None,r,0.003134000115096569,985.4462637000252,None,,,NC17,001,2021_Nov_01_1431,ProdSingRedo,3.2.3,59.93917370993954,
,,,,104,0,104,0,,,,,,,,,,,,,,,,,,,,,,,,988.2796047001611,None,,,,,,,,,,,,,,,,,defeat,new_b,white,104,131,88,985.986723799957,None,985.986723799957,None,3,1.6064058998599648,985.986723799957,None,987.6262082001194,None,988.1492800000124,None,988.1492800000124,None,f,0.10024439985863864,988.1492800000124,None,,,NC17,001,2021_Nov_01_1431,ProdSingRedo,3.2.3,59.93917370993954,
,,,,105,0,105,0,,,,,,,,,,,,,,,,,,,,,,,,991.0494962001685,None,,,,,,,,,,,,,,,,,produce,sing,white,105,17,239,988.8042733001057,None,988.8042733001057,None,3,1.5492696000728756,988.8042733001057,None,990.3962415000424,None,990.9183164001442,None,990.9183164001442,None,f,0.10712740011513233,990.9183164001442,None,,,NC17,001,2021_Nov_01_1431,ProdSingRedo,3.2.3,59.93917370993954,
,,,,106,0,106,0,,,,,,,,,,,,,,,,,,,,,,,,994.4191718001384,None,,,,,,,,,,,,,,,,,write,silent,white,106,67,358,991.5753119001165,None,991.5753119001165,None,6,1.922239099862054,991.5753119001165,None,993.5498765001539,None,994.0692132001277,None,994.0692132001277,None,f,0.3163248000200838,994.0692132001277,None,,,NC17,001,2021_Nov_01_1431,ProdSingRedo,3.2.3,59.93917370993954,
,,,,107,0,107,0,,,,,,,,,,,,,,,,,,,,,,,,997.40440580016,None,,,,,,,,,,,,,,,,,mayor,new_c,white,107,157,183,994.9477592001203,None,994.9477592001203,None,3,1.821856199996546,994.9477592001203,None,996.8236273999792,None,997.3483663001098,None,997.3483663001098,None,f,0.028988300124183297,997.3483663001098,None,,,NC17,001,2021_Nov_01_1431,ProdSingRedo,3.2.3,59.93917370993954,
,,,,108,0,108,0,,,,,,,,,,,,,,,,,,,,,,,,1000.8265488001052,None,,,,,,,,,,,,,,,,,sweet,silent,white,108,68,319,997.9283255001064,None,997.9283255001064,None,3,2.0893186000175774,997.9283255001064,None,1000.0563900000416,None,1000.583413900109,None,1000.583413900109,None,f,0.2180056998040527,1000.583413900109,None,,,NC17,001,2021_Nov_01_1431,ProdSingRedo,3.2.3,59.93917370993954,
,,,,109,0,109,0,,,,,,,,,,,,,,,,,,,,,,,,1003.4290010000113,None,,,,,,,,,,,,,,,,,comfort,aloud,white,109,53,59,1001.3555374001153,None,1001.3555374001153,None,6,1.1100240000523627,1001.3555374001153,None,1002.5132097001188,None,1003.0320788000245,None,1003.0320788000245,None,f,0.3694841000251472,1003.0320788000245,None,,,NC17,001,2021_Nov_01_1431,ProdSingRedo,3.2.3,59.93917370993954,
,,,,110,0,110,0,,,,,,,,,,,,,,,,,,,,,,,,1006.2309717000462,None,,,,,,,,,,,,,,,,,executive,new_a,white,110,104,122,1003.956672300119,None,1003.956672300119,None,6,1.3005873002111912,1003.956672300119,None,1005.2837449000217,None,1005.8033108001109,None,1005.8033108001109,None,r,0.39816399989649653,1005.8033108001109,None,,,NC17,001,2021_Nov_01_1431,ProdSingRedo,3.2.3,59.93917370993954,
,,,,111,0,111,0,,,,,,,,,,,,,,,,,,,,,,,,1008.7824742000084,None,,,,,,,,,,,,,,,,,range,sing,white,111,0,251,1006.7640223000199,None,1006.7640223000199,None,6,1.3335194000974298,1006.7640223000199,None,1008.1507274999749,None,1008.6719591000583,None,1008.6719591000583,None,r,0.08158500003628433,1008.6719591000583,None,,,NC17,001,2021_Nov_01_1431,ProdSingRedo,3.2.3,59.93917370993954,
,,,,112,0,112,0,,,,,,,,,,,,,,,,,,,,,,,,1011.0185175000224,None,,,,,,,,,,,,,,,,,display,new_a,white,112,118,98,1009.311249300139,None,1009.311249300139,None,6,1.018301900010556,1009.311249300139,None,1010.369511900004,None,1010.8887691001873,None,1010.8887691001873,None,r,0.10501669999212027,1010.8887691001873,None,,,NC17,001,2021_Nov_01_1431,ProdSingRedo,3.2.3,59.93917370993954,
,,,,113,0,113,0,,,,,,,,,,,,,,,,,,,,,,,,1014.6403203001246,None,,,,,,,,,,,,,,,,,society,new_a,white,113,106,293,1011.5429118000902,None,1011.5429118000902,None,2,1.3786289000418037,1011.5429118000902,None,1012.9655983999837,None,1013.4749579001218,None,1013.4749579001218,None,n,1.1425960999913514,1013.4749579001218,None,,,NC17,001,2021_Nov_01_1431,ProdSingRedo,3.2.3,59.93917370993954,
,,,,114,0,114,0,,,,,,,,,,,,,,,,,,,,,,,,1017.535453800112,None,,,,,,,,,,,,,,,,,captain,new_b,white,114,138,41,1015.1711133001372,None,1015.1711133001372,None,3,1.350475399987772,1015.1711133001372,None,1016.5759149000514,None,1017.0849550999701,None,1017.0849550999701,None,f,0.42819390003569424,1017.0849550999701,None,,,NC17,001,2021_Nov_01_1431,ProdSingRedo,3.2.3,59.93917370993954,
,,,,115,0,115,0,,,,,,,,,,,,,,,,,,,,,,,,1020.0614124001004,None,,,,,,,,,,,,,,,,,state,silent,white,115,73,303,1018.0563372001052,None,1018.0563372001052,None,3,1.3296019998379052,1018.0563372001052,None,1019.4272795000579,None,1019.9460468001198,None,1019.9460468001198,None,f,0.08758389996364713,1019.9460468001198,None,,,NC17,001,2021_Nov_01_1431,ProdSingRedo,3.2.3,59.93917370993954,
,,,,116,0,116,0,,,,,,,,,,,,,,,,,,,,,,,,1022.5800777000841,None,,,,,,,,,,,,,,,,,heavy,aloud,white,116,39,151,1020.5831174000632,None,1020.5831174000632,None,3,1.1945036998949945,1020.5831174000632,None,1021.8284905001055,None,1022.3350709001534,None,1022.3350709001534,None,f,0.21056709997355938,1022.3350709001534,None,,,NC17,001,2021_Nov_01_1431,ProdSingRedo,3.2.3,59.93917370993954,
,,,,117,0,117,0,,,,,,,,,,,,,,,,,,,,,,,,1025.0005750001874,None,,,,,,,,,,,,,,,,,hunger,new_b,white,117,124,155,1023.1053402000107,None,1023.1053402000107,None,3,0.9765554000623524,1023.1053402000107,None,1024.1253516001161,None,1024.6376639001537,None,1024.6376639001537,None,f,0.3398296998348087,1024.6376639001537,None,,,NC17,001,2021_Nov_01_1431,ProdSingRedo,3.2.3,59.93917370993954,
,,,,118,0,118,0,,,,,,,,,,,,,,,,,,,,,,,,1027.6189976001624,None,,,,,,,,,,,,,,,,,portion,silent,white,118,88,228,1025.5211332000326,None,1025.5211332000326,None,6,1.3444188998546451,1025.5211332000326,None,1026.910178200109,None,1027.419777299976,None,1027.419777299976,None,r,0.17405680008232594,1027.419777299976,None,,,NC17,001,2021_Nov_01_1431,ProdSingRedo,3.2.3,59.93917370993954,
,,,,119,0,119,0,,,,,,,,,,,,,,,,,,,,,,,,1030.0880979001522,None,,,,,,,,,,,,,,,,,trend,new_a,white,119,113,340,1028.1379272001795,None,1028.1379272001795,None,3,1.351330199977383,1028.1379272001795,None,1029.5237446001265,None,1030.0369027999695,None,1030.0369027999695,None,f,0.0286612999625504,1030.0369027999695,None,,,NC17,001,2021_Nov_01_1431,ProdSingRedo,3.2.3,59.93917370993954,
,,,,120,0,120,0,,,,,,,,,,,,,,,,,,,,,,,,1032.8749041000847,None,,,,,,,,,,,,,,,,,reach,silent,white,120,86,253,1030.6116771001834,None,1030.6116771001834,None,6,1.6537661000620574,1030.6116771001834,None,1032.292364400113,None,1032.8052156001795,None,1032.8052156001795,None,r,0.03607549984008074,1032.8052156001795,None,,,NC17,001,2021_Nov_01_1431,ProdSingRedo,3.2.3,59.93917370993954,
,,,,121,0,121,0,,,,,,,,,,,,,,,,,,,,,,,,1036.8440923001617,None,,,,,,,,,,,,,,,,,passage,sing,white,121,8,212,1033.4202171000652,None,1033.4202171000652,None,3,2.7252623999956995,1033.4202171000652,None,1036.1981135001406,None,1036.700351000065,None,1036.700351000065,None,f,0.10920619987882674,1036.700351000065,None,,,NC17,001,2021_Nov_01_1431,ProdSingRedo,3.2.3,59.93917370993954,
,,,,122,0,122,0,,,,,,,,,,,,,,,,,,,,,,,,1039.765738800168,None,,,,,,,,,,,,,,,,,search,aloud,white,122,52,276,1037.3706170001533,None,1037.3706170001533,None,6,1.3588187999557704,1037.3706170001533,None,1038.7770887999795,None,1039.282281700056,None,1039.282281700056,None,r,0.44734610011801124,1039.282281700056,None,,,NC17,001,2021_Nov_01_1431,ProdSingRedo,3.2.3,59.93917370993954,
,,,,123,0,123,0,,,,,,,,,,,,,,,,,,,,,,,,1042.9681758000515,None,,,,,,,,,,,,,,,,,committee,new_a,white,123,112,62,1040.290338100167,None,1040.290338100167,None,2,1.5273056998848915,1040.290338100167,None,1041.8669034000486,None,1042.3861769000068,None,1042.3861769000068,None,n,0.5593631998635828,1042.3861769000068,None,,,NC17,001,2021_Nov_01_1431,ProdSingRedo,3.2.3,59.93917370993954,
,,,,124,0,124,0,,,,,,,,,,,,,,,,,,,,,,,,1046.2874537000898,None,,,,,,,,,,,,,,,,,broke,sing,white,124,2,32,1043.495619900059,None,1043.495619900059,None,6,1.2419773999135941,1043.495619900059,None,1044.7872224999592,None,1045.2939981000964,None,1045.2939981000964,None,r,0.9635038000997156,1045.2939981000964,None,,,NC17,001,2021_Nov_01_1431,ProdSingRedo,3.2.3,59.93917370993954,
,,,,125,0,125,0,,,,,,,,,,,,,,,,,,,,,,,,1048.4896126000676,None,,,,,,,,,,,,,,,,,citizen,aloud,white,125,50,50,1046.8084021001123,None,1046.8084021001123,None,6,1.0175603998359293,1046.8084021001123,None,1047.8732648000587,None,1048.3921171000693,None,1048.3921171000693,None,r,0.06541909999214113,1048.3921171000693,None,,,NC17,001,2021_Nov_01_1431,ProdSingRedo,3.2.3,59.93917370993954,
,,,,126,0,126,0,,,,,,,,,,,,,,,,,,,,,,,,1051.7412478001788,None,,,,,,,,,,,,,,,,,surface,new_b,white,126,145,316,1049.0165679999627,None,1049.0165679999627,None,3,1.9690161000471562,1049.0165679999627,None,1051.0276050001848,None,1051.5308288000524,None,1051.5308288000524,None,f,0.17456039995886385,1051.5308288000524,None,,,NC17,001,2021_Nov_01_1431,ProdSingRedo,3.2.3,59.93917370993954,
,,,,127,0,127,0,,,,,,,,,,,,,,,,,,,,,,,,1055.9139098001178,None,,,,,,,,,,,,,,,,,place,new_a,white,127,117,222,1052.2685577000957,None,1052.2685577000957,None,3,2.6529008999932557,1052.2685577000957,None,1054.958992100088,None,1055.4650016999803,None,1055.4650016999803,None,f,0.42451120004989207,1055.4650016999803,None,,,NC17,001,2021_Nov_01_1431,ProdSingRedo,3.2.3,59.93917370993954,
,,,,128,0,128,0,,,,,,,,,,,,,,,,,,,,,,,,1059.1175218001008,None,,,,,,,,,,,,,,,,,master,new_b,white,128,142,180,1056.4406860000454,None,1056.4406860000454,None,2,1.9449647997971624,1056.4406860000454,None,1058.4400585000403,None,1058.954571899958,None,1058.954571899958,None,n,0.13507269998081028,1058.954571899958,None,,,NC17,001,2021_Nov_01_1431,ProdSingRedo,3.2.3,59.93917370993954,
,,,,129,0,129,0,,,,,,,,,,,,,,,,,,,,,,,,1062.386877299985,None,,,,,,,,,,,,,,,,,crime,new_a,white,129,111,78,1059.6391096999869,None,1059.6391096999869,None,2,1.6424298000056297,1059.6391096999869,None,1061.31513360003,None,1061.8343915999867,None,1061.8343915999867,None,n,0.5192485000006855,1061.8343915999867,None,,,NC17,001,2021_Nov_01_1431,ProdSingRedo,3.2.3,59.93917370993954,
,,,,130,0,130,0,,,,,,,,,,,,,,,,,,,,,,,,1066.0603585999925,None,,,,,,,,,,,,,,,,,primary,new_b,white,130,123,234,1062.9116987001617,None,1062.9116987001617,None,2,2.385911799967289,1062.9116987001617,None,1065.3419916999992,None,1065.8531570001505,None,1065.8531570001505,None,n,0.1804463998414576,1065.8531570001505,None,,,NC17,001,2021_Nov_01_1431,ProdSingRedo,3.2.3,59.93917370993954,
,,,,131,0,131,0,,,,,,,,,,,,,,,,,,,,,,,,1069.3442109001335,None,,,,,,,,,,,,,,,,,symbol,sing,white,131,1,321,1066.587127200095,None,1066.587127200095,None,6,1.4143315001856536,1066.587127200095,None,1068.0467447000556,None,1068.5729659001809,None,1068.5729659001809,None,r,0.7484857998788357,1068.5729659001809,None,,,NC17,001,2021_Nov_01_1431,ProdSingRedo,3.2.3,59.93917370993954,
,,,,132,0,132,0,,,,,,,,,,,,,,,,,,,,,,,,1071.6229226000141,None,,,,,,,,,,,,,,,,,working,sing,white,132,6,357,1069.8717762001324,None,1069.8717762001324,None,6,1.121975899906829,1069.8717762001324,None,1071.0515370001085,None,1071.5704810000025,None,1071.5704810000025,None,r,0.022940600058063865,1071.5704810000025,None,,,NC17,001,2021_Nov_01_1431,ProdSingRedo,3.2.3,59.93917370993954,
,,,,133,0,133,0,,,,,,,,,,,,,,,,,,,,,,,,1074.7650187001564,None,,,,,,,,,,,,,,,,,speech,new_c,white,133,167,298,1072.1349599000532,None,1072.1349599000532,None,3,1.9468212998472154,1072.1349599000532,None,1074.126195000019,None,1074.6327120000497,None,1074.6327120000497,None,f,0.09694719989784062,1074.6327120000497,None,,,NC17,001,2021_Nov_01_1431,ProdSingRedo,3.2.3,59.93917370993954,
,,,,134,0,134,0,,,,,,,,,,,,,,,,,,,,,,,,1078.3549689000938,None,,,,,,,,,,,,,,,,,broad,new_c,white,134,160,31,1075.2952925001737,None,1075.2952925001737,None,2,2.1619326998479664,1075.2952925001737,None,1077.4837570001837,None,1078.003513300093,None,1078.003513300093,None,n,0.31812960002571344,1078.003513300093,None,,,NC17,001,2021_Nov_01_1431,ProdSingRedo,3.2.3,59.93917370993954,
,,,,135,0,135,0,,,,,,,,,,,,,,,,,,,,,,,,1081.805856200168,None,,,,,,,,,,,,,,,,,shock,silent,white,135,77,284,1078.8777821999975,None,1078.8777821999975,None,4,2.0995680999476463,1078.8777821999975,None,1081.008197200019,None,1081.5232739001513,None,1081.5232739001513,None,f,0.24636119999922812,1081.5232739001513,None,,,NC17,001,2021_Nov_01_1431,ProdSingRedo,3.2.3,59.93917370993954,
,,,,136,0,136,0,,,,,,,,,,,,,,,,,,,,,,,,1086.6446444001049,None,,,,,,,,,,,,,,,,,attack,silent,white,136,70,13,1082.3366733000148,None,1082.3366733000148,None,3,3.496935799950734,1082.3366733000148,None,1085.8798154001124,None,1086.3851338999812,None,1086.3851338999812,None,f,0.2324775999877602,1086.3851338999812,None,,,NC17,001,2021_Nov_01_1431,ProdSingRedo,3.2.3,59.93917370993954,
,,,,137,0,137,0,,,,,,,,,,,,,,,,,,,,,,,,1089.0974004999734,None,,,,,,,,,,,,,,,,,space,new_a,white,137,101,297,1087.1693983001169,None,1087.1693983001169,None,6,1.272536899894476,1087.1693983001169,None,1088.5001746001653,None,1089.0132657999638,None,1089.0132657999638,None,r,0.060410500038415194,1089.0132657999638,None,,,NC17,001,2021_Nov_01_1431,ProdSingRedo,3.2.3,59.93917370993954,
,,,,138,0,138,0,,,,,,,,,,,,,,,,,,,,,,,,1091.8999503999949,None,,,,,,,,,,,,,,,,,testimony,new_c,white,138,179,325,1089.6262703000102,None,1089.6262703000102,None,2,1.5273480999749154,1089.6262703000102,None,1091.1998034999706,None,1091.7187596999574,None,1091.7187596999574,None,n,0.1548055000603199,1091.7187596999574,None,,,NC17,001,2021_Nov_01_1431,ProdSingRedo,3.2.3,59.93917370993954,
,,,,139,0,139,0,,,,,,,,,,,,,,,,,,,,,,,,1094.8350213000085,None,,,,,,,,,,,,,,,,,force,silent,white,139,81,131,1092.4237004001625,None,1092.4237004001625,None,3,1.8018761000130326,1092.4237004001625,None,1094.2613344001584,None,1094.7700747000054,None,1094.7700747000054,None,f,0.03971919999457896,1094.7700747000054,None,,,NC17,001,2021_Nov_01_1431,ProdSingRedo,3.2.3,59.93917370993954,
,,,,140,0,140,0,,,,,,,,,,,,,,,,,,,,,,,,1098.2733239000663,None,,,,,,,,,,,,,,,,,research,new_b,white,140,147,261,1095.346542000072,None,1095.346542000072,None,6,2.31078810011968,1095.346542000072,None,1097.686533200089,None,1098.209042100003,None,1098.209042100003,None,r,0.040565800154581666,1098.209042100003,None,,,NC17,001,2021_Nov_01_1431,ProdSingRedo,3.2.3,59.93917370993954,
,,,,141,0,141,0,,,,,,,,,,,,,,,,,,,,,,,,1102.610485699959,None,,,,,,,,,,,,,,,,,husband,new_a,white,141,94,156,1098.803857400082,None,1098.803857400082,None,2,2.8617624000180513,1098.803857400082,None,1101.7175158001482,None,1102.233832300175,None,1102.233832300175,None,n,0.3518135000485927,1102.233832300175,None,,,NC17,001,2021_Nov_01_1431,ProdSingRedo,3.2.3,59.93917370993954,
,,,,142,0,142,0,,,,,,,,,,,,,,,,,,,,,,,,1105.8133578000125,None,,,,,,,,,,,,,,,,,spoke,new_c,white,142,164,300,1103.1343926000409,None,1103.1343926000409,None,4,1.971069699851796,1103.1343926000409,None,1105.1464896001853,None,1105.6506000000518,None,1105.6506000000518,None,f,0.12690810021013021,1105.6506000000518,None,,,NC17,001,2021_Nov_01_1431,ProdSingRedo,3.2.3,59.93917370993954,
,,,,143,0,143,0,,,,,,,,,,,,,,,,,,,,,,,,1108.8827868001536,None,,,,,,,,,,,,,,,,,trial,silent,white,143,84,341,1106.3406991001684,None,1106.3406991001684,None,3,1.8048654000740498,1106.3406991001684,None,1108.1965958001092,None,1108.702574700117,None,1108.702574700117,None,f,0.1469637998379767,1108.702574700117,None,,,NC17,001,2021_Nov_01_1431,ProdSingRedo,3.2.3,59.93917370993954,
,,,,144,0,144,0,,,,,,,,,,,,,,,,,,,,,,,,1111.5034692999907,None,,,,,,,,,,,,,,,,,error,aloud,white,144,47,117,1109.4046014000196,None,1109.4046014000196,None,6,1.2530737000051886,1109.4046014000196,None,1110.695825500181,None,1111.202395600034,None,1111.202395600034,None,r,0.2711857999674976,1111.202395600034,None,,,NC17,001,2021_Nov_01_1431,ProdSingRedo,3.2.3,59.93917370993954,
,,,,145,0,145,0,,,,,,,,,,,,,,,,,,,,,,,,1114.055329900002,None,,,,,,,,,,,,,,,,,damage,sing,white,145,20,83,1112.0294866999611,None,1112.0294866999611,None,6,1.2760729000438005,1112.0294866999611,None,1113.360276899999,None,1113.8808516999707,None,1113.8808516999707,None,r,0.14481179998256266,1113.8808516999707,None,,,NC17,001,2021_Nov_01_1431,ProdSingRedo,3.2.3,59.93917370993954,
,,,,146,0,146,0,,,,,,,,,,,,,,,,,,,,,,,,1116.890884200111,None,,,,,,,,,,,,,,,,,enemy,aloud,white,146,35,113,1114.5791170999873,None,1114.5791170999873,None,3,1.6465016999281943,1114.5791170999873,None,1116.271553199971,None,1116.7743576001376,None,1116.7743576001376,None,f,0.08324990002438426,1116.7743576001376,None,,,NC17,001,2021_Nov_01_1431,ProdSingRedo,3.2.3,59.93917370993954,
,,,,147,0,147,0,,,,,,,,,,,,,,,,,,,,,,,,1119.5792350000702,None,,,,,,,,,,,,,,,,,group,aloud,white,147,34,143,1117.4272927001584,None,1117.4272927001584,None,3,1.2463885000906885,1117.4272927001584,None,1118.7269693000708,None,1119.2450443000998,None,1119.2450443000998,None,f,0.30064529995433986,1119.2450443000998,None,,,NC17,001,2021_Nov_01_1431,ProdSingRedo,3.2.3,59.93917370993954,
,,,,148,0,148,0,,,,,,,,,,,,,,,,,,,,,,,,1122.964986300096,None,,,,,,,,,,,,,,,,,sight,new_a,white,148,96,286,1120.1032137000002,None,1120.1032137000002,None,2,1.7624204000458121,1120.1032137000002,None,1121.9141206000932,None,1122.4332789999899,None,1122.4332789999899,None,n,0.5043678001966327,1122.4332789999899,None,,,NC17,001,2021_Nov_01_1431,ProdSingRedo,3.2.3,59.93917370993954,
,,,,149,0,149,0,,,,,,,,,,,,,,,,,,,,,,,,1125.850273600081,None,,,,,,,,,,,,,,,,,level,silent,white,149,72,170,1123.4901769000571,None,1123.4901769000571,None,3,1.7036126998718828,1123.4901769000571,None,1125.2261443999596,None,1125.7382627001498,None,1125.7382627001498,None,f,0.07928609987720847,1125.7382627001498,None,,,NC17,001,2021_Nov_01_1431,ProdSingRedo,3.2.3,59.93917370993954,
,,,,150,0,150,0,,,,,,,,,,,,,,,,,,,,,,,,1129.2362633000594,None,,,,,,,,,,,,,,,,,military,silent,white,150,82,190,1126.3918554000556,None,1126.3918554000556,None,6,1.4097752999514341,1126.3918554000556,None,1127.859628100181,None,1128.3720530001447,None,1128.3720530001447,None,r,0.8376006002072245,1128.3720530001447,None,,,NC17,001,2021_Nov_01_1431,ProdSingRedo,3.2.3,59.93917370993954,
,,,,151,0,151,0,,,,,,,,,,,,,,,,,,,,,,,,1132.5397906000726,None,,,,,,,,,,,,,,,,,exchange,new_b,white,151,149,121,1129.7790862000547,None,1129.7790862000547,None,3,1.990636499831453,1129.7790862000547,None,1131.826427299995,None,1132.3456256999634,None,1132.3456256999634,None,f,0.16000739997252822,1132.3456256999634,None,,,NC17,001,2021_Nov_01_1431,ProdSingRedo,3.2.3,59.93917370993954,
,,,,152,0,152,0,,,,,,,,,,,,,,,,,,,,,,,,1135.0599198001437,None,,,,,,,,,,,,,,,,,engineer,new_b,white,152,139,114,1133.0705077000894,None,1133.0705077000894,None,6,1.3871823998633772,1133.0705077000894,None,1134.5098737000953,None,1135.014575400157,None,1135.014575400157,None,r,0.019068900030106306,1135.014575400157,None,,,NC17,001,2021_Nov_01_1431,ProdSingRedo,3.2.3,59.93917370993954,
,,,,153,0,153,0,,,,,,,,,,,,,,,,,,,,,,,,1137.9639078001492,None,,,,,,,,,,,,,,,,,afternoon,new_c,white,153,158,3,1135.586988300085,None,1135.586988300085,None,2,1.6302636999171227,1135.586988300085,None,1137.2427091000136,None,1137.7649387000129,None,1137.7649387000129,None,n,0.17260259995236993,1137.7649387000129,None,,,NC17,001,2021_Nov_01_1431,ProdSingRedo,3.2.3,59.93917370993954,
,,,,154,0,154,0,,,,,,,,,,,,,,,,,,,,,,,,1141.3013927000575,None,,,,,,,,,,,,,,,,,nation,silent,white,154,62,198,1138.499150800053,None,1138.499150800053,None,4,2.070522299967706,1138.499150800053,None,1140.6102744999807,None,1141.135169700021,None,1141.135169700021,None,f,0.13061130000278354,1141.135169700021,None,,,NC17,001,2021_Nov_01_1431,ProdSingRedo,3.2.3,59.93917370993954,
,,,,155,0,155,0,,,,,,,,,,,,,,,,,,,,,,,,1145.8382800000254,None,,,,,,,,,,,,,,,,,childhood,new_a,white,155,116,49,1141.8262461000122,None,1141.8262461000122,None,2,3.1835515000857413,1141.8262461000122,None,1145.0469400000293,None,1145.5539796000812,None,1145.5539796000812,None,n,0.2556988000869751,1145.5539796000812,None,,,NC17,001,2021_Nov_01_1431,ProdSingRedo,3.2.3,59.93917370993954,
,,,,156,0,156,0,,,,,,,,,,,,,,,,,,,,,,,,1148.9228803999722,None,,,,,,,,,,,,,,,,,theme,silent,white,156,75,326,1146.3593725000974,None,1146.3593725000974,None,2,1.8583523000124842,1146.3593725000974,None,1148.2524975000415,None,1148.7721071999986,None,1148.7721071999986,None,n,0.11753480019979179,1148.7721071999986,None,,,NC17,001,2021_Nov_01_1431,ProdSingRedo,3.2.3,59.93917370993954,
,,,,157,0,157,0,,,,,,,,,,,,,,,,,,,,,,,,1151.8607030999847,None,,,,,,,,,,,,,,,,,shape,aloud,white,157,41,282,1149.450685000047,None,1149.450685000047,None,6,1.7109544998966157,1149.450685000047,None,1151.2062455001287,None,1151.7110774000175,None,1151.7110774000175,None,r,0.12259259982965887,1151.7110774000175,None,,,NC17,001,2021_Nov_01_1431,ProdSingRedo,3.2.3,59.93917370993954,
,,,,158,0,158,0,,,,,,,,,,,,,,,,,,,,,,,,1154.3609675001353,None,,,,,,,,,,,,,,,,,estate,new_c,white,158,153,119,1152.3866296999622,None,1152.3866296999622,None,6,1.2070891000330448,1152.3866296999622,None,1153.6499018000904,None,1154.1503004000988,None,1154.1503004000988,None,r,0.1793772999662906,1154.1503004000988,None,,,NC17,001,2021_Nov_01_1431,ProdSingRedo,3.2.3,59.93917370993954,
,,,,159,0,159,0,,,,,,,,,,,,,,,,,,,,,,,,1157.0484681001399,None,,,,,,,,,,,,,,,,,fashion,new_a,white,159,95,125,1154.8862159999553,None,1154.8862159999553,None,2,1.299955999944359,1154.8862159999553,None,1156.228607099969,None,1156.7246724001598,None,1156.7246724001598,None,n,0.30110469995997846,1156.7246724001598,None,,,NC17,001,2021_Nov_01_1431,ProdSingRedo,3.2.3,59.93917370993954,
,,,,160,0,160,0,,,,,,,,,,,,,,,,,,,,,,,,1160.1131823000032,None,,,,,,,,,,,,,,,,,poetry,aloud,white,160,36,225,1157.57202400011,None,1157.57202400011,None,6,1.7334630999248475,1157.57202400011,None,1159.3481058001053,None,1159.8609886001796,None,1159.8609886001796,None,r,0.2046166998334229,1159.8609886001796,None,,,NC17,001,2021_Nov_01_1431,ProdSingRedo,3.2.3,59.93917370993954,
,,,,161,0,161,0,,,,,,,,,,,,,,,,,,,,,,,,1163.6713821000885,None,,,,,,,,,,,,,,,,,swift,new_a,white,161,102,320,1160.6329351000022,None,1160.6329351000022,None,2,1.5212150998413563,1160.6329351000022,None,1162.2053779000416,None,1162.7291149001103,None,1162.7291149001103,None,n,0.9204856001306325,1162.7291149001103,None,,,NC17,001,2021_Nov_01_1431,ProdSingRedo,3.2.3,59.93917370993954,
,,,,162,0,162,0,,,,,,,,,,,,,,,,,,,,,,,,1166.4910518000834,None,,,,,,,,,,,,,,,,,signal,new_b,white,162,135,287,1164.1986100000795,None,1164.1986100000795,None,3,1.6027510000858456,1164.1986100000795,None,1165.8242172000464,None,1166.3463545001578,None,1166.3463545001578,None,f,0.11149909999221563,1166.3463545001578,None,,,NC17,001,2021_Nov_01_1431,ProdSingRedo,3.2.3,59.93917370993954,
,,,,163,0,163,0,,,,,,,,,,,,,,,,,,,,,,,,1170.1949395001866,None,,,,,,,,,,,,,,,,,discussion,new_a,white,163,98,96,1167.0030443000142,None,1167.0030443000142,None,3,2.4226645999588072,1167.0030443000142,None,1169.4727068999782,None,1170.0034307001624,None,1170.0034307001624,None,f,0.1663458999246359,1170.0034307001624,None,,,NC17,001,2021_Nov_01_1431,ProdSingRedo,3.2.3,59.93917370993954,
,,,,164,0,164,0,,,,,,,,,,,,,,,,,,,,,,,,1173.097969800001,None,,,,,,,,,,,,,,,,,substance,new_c,white,164,151,313,1170.7271292000078,None,1170.7271292000078,None,3,1.6745113001670688,1170.7271292000078,None,1172.4529462000355,None,1172.9511256001424,None,1172.9511256001424,None,f,0.11458759987726808,1172.9511256001424,None,,,NC17,001,2021_Nov_01_1431,ProdSingRedo,3.2.3,59.93917370993954,
,,,,165,0,165,0,,,,,,,,,,,,,,,,,,,,,,,,1175.7836545000318,None,,,,,,,,,,,,,,,,,curve,new_a,white,165,99,82,1173.6291108999867,None,1173.6291108999867,None,3,1.3885114998556674,1173.6291108999867,None,1175.0683022001758,None,1175.5663028999697,None,1175.5663028999697,None,f,0.18750929995439947,1175.5663028999697,None,,,NC17,001,2021_Nov_01_1431,ProdSingRedo,3.2.3,59.93917370993954,
,,,,166,0,166,0,,,,,,,,,,,,,,,,,,,,,,,,1178.4708712000865,None,,,,,,,,,,,,,,,,,expansion,aloud,white,166,31,123,1176.3075489001349,None,1176.3075489001349,None,6,1.5023348999675363,1176.3075489001349,None,1177.8523699999787,None,1178.3563672001474,None,1178.3563672001474,None,r,0.08532859990373254,1178.3563672001474,None,,,NC17,001,2021_Nov_01_1431,ProdSingRedo,3.2.3,59.93917370993954,
,,,,167,0,167,0,,,,,,,,,,,,,,,,,,,,,,,,1181.2213043000083,None,,,,,,,,,,,,,,,,,crowd,new_c,white,167,176,81,1178.9944586001802,None,1178.9944586001802,None,3,1.183152599958703,1178.9944586001802,None,1180.2222541000228,None,1180.739804000128,None,1180.739804000128,None,f,0.4458594999741763,1180.739804000128,None,,,NC17,001,2021_Nov_01_1431,ProdSingRedo,3.2.3,59.93917370993954,
,,,,168,0,168,0,,,,,,,,,,,,,,,,,,,,,,,,1184.0753413001075,None,,,,,,,,,,,,,,,,,edition,silent,white,168,78,107,1181.7434446001425,None,1181.7434446001425,None,3,1.3060739999637008,1181.7434446001425,None,1183.0864455001429,None,1183.6065965001471,None,1183.6065965001471,None,f,0.4432073999196291,1183.6065965001471,None,,,NC17,001,2021_Nov_01_1431,ProdSingRedo,3.2.3,59.93917370993954,
,,,,169,0,169,0,,,,,,,,,,,,,,,,,,,,,,,,1186.8452564000618,None,,,,,,,,,,,,,,,,,clean,aloud,white,169,55,51,1184.6012574001215,None,1184.6012574001215,None,6,1.192563199903816,1184.6012574001215,None,1185.8428530001547,None,1186.362904699985,None,1186.362904699985,None,r,0.45472380006685853,1186.362904699985,None,,,NC17,001,2021_Nov_01_1431,ProdSingRedo,3.2.3,59.93917370993954,
,,,,170,0,170,0,,,,,,,,,,,,,,,,,,,,,,,,1190.3486673999578,None,,,,,,,,,,,,,,,,,notice,sing,white,170,15,201,1187.3678336001467,None,1187.3678336001467,None,6,2.289915299974382,1187.3678336001467,None,1189.6901587999891,None,1190.1960764001124,None,1190.1960764001124,None,r,0.11765170004218817,1190.1960764001124,None,,,NC17,001,2021_Nov_01_1431,ProdSingRedo,3.2.3,59.93917370993954,
,,,,171,0,171,0,,,,,,,,,,,,,,,,,,,,,,,,1193.8187947999686,None,,,,,,,,,,,,,,,,,institute,aloud,white,171,54,162,1190.877790800063,None,1190.877790800063,None,3,2.259847000008449,1190.877790800063,None,1193.1912948000245,None,1193.7088922001421,None,1193.7088922001421,None,f,0.08474100008606911,1193.7088922001421,None,,,NC17,001,2021_Nov_01_1431,ProdSingRedo,3.2.3,59.93917370993954,
,,,,172,0,172,0,,,,,,,,,,,,,,,,,,,,,,,,1196.3203601001296,None,,,,,,,,,,,,,,,,,judge,sing,white,172,10,166,1194.344853500137,None,1194.344853500137,None,3,1.209099099971354,1194.344853500137,None,1195.601298399968,None,1196.098649600055,None,1196.098649600055,None,f,0.19100619992241263,1196.098649600055,None,,,NC17,001,2021_Nov_01_1431,ProdSingRedo,3.2.3,59.93917370993954,
,,,,173,0,173,0,,,,,,,,,,,,,,,,,,,,,,,,1199.896474600071,None,,,,,,,,,,,,,,,,,minute,new_a,white,173,110,192,1196.8392575001344,None,1196.8392575001344,None,2,1.954512800090015,1196.8392575001344,None,1198.8395169000141,None,1199.3443522001617,None,1199.3443522001617,None,n,0.5214826001320034,1199.3443522001617,None,,,NC17,001,2021_Nov_01_1431,ProdSingRedo,3.2.3,59.93917370993954,
,,,,174,0,174,0,,,,,,,,,,,,,,,,,,,,,,,,1204.7304841000587,None,,,,,,,,,,,,,,,,,stranger,aloud,white,174,46,309,1200.4222313000355,None,1200.4222313000355,None,5,3.6113810997921973,1200.4222313000355,None,1204.0802245000377,None,1204.5823284999933,None,1204.5823284999933,None,f,0.1232433000113815,1204.5823284999933,None,,,NC17,001,2021_Nov_01_1431,ProdSingRedo,3.2.3,59.93917370993954,
,,,,175,0,175,0,,,,,,,,,,,,,,,,,,,,,,,,1208.0386825001333,None,,,,,,,,,,,,,,,,,quick,sing,white,175,27,248,1205.2601151000708,None,1205.2601151000708,None,2,1.8456514000426978,1205.2601151000708,None,1207.1505546001717,None,1207.6731537999585,None,1207.6731537999585,None,n,0.32854999997653067,1207.6731537999585,None,,,NC17,001,2021_Nov_01_1431,ProdSingRedo,3.2.3,59.93917370993954,
,,,,176,0,176,0,,,,,,,,,,,,,,,,,,,,,,,,1213.203190300148,None,,,,,,,,,,,,,,,,,sound,new_c,white,176,159,295,1208.5573267000727,None,1208.5573267000727,None,3,3.6924040999729186,1208.5573267000727,None,1212.3048912000377,None,1212.8227248999756,None,1212.8227248999756,None,f,0.3549752999097109,1212.8227248999756,None,,,NC17,001,2021_Nov_01_1431,ProdSingRedo,3.2.3,59.93917370993954,
,,,,177,0,177,0,,,,,,,,,,,,,,,,,,,,,,,,1216.22421330004,None,,,,,,,,,,,,,,,,,thick,new_b,white,177,126,327,1213.7261799999978,None,1213.7261799999978,None,5,1.7795412000268698,1213.7261799999978,None,1215.5497584000695,None,1216.0589179000817,None,1216.0589179000817,None,f,0.1430255000013858,1216.0589179000817,None,,,NC17,001,2021_Nov_01_1431,ProdSingRedo,3.2.3,59.93917370993954,
,,,,178,0,178,0,,,,,,,,,,,,,,,,,,,,,,,,1219.3277390000876,None,,,,,,,,,,,,,,,,,match,new_b,white,178,125,181,1216.74951340002,None,1216.74951340002,None,2,1.540270800003782,1216.74951340002,None,1218.3397843001876,None,1218.845930499956,None,1218.845930499956,None,n,0.45179650001227856,1218.845930499956,None,,,NC17,001,2021_Nov_01_1431,ProdSingRedo,3.2.3,59.93917370993954,
,,,,179,0,179,0,,,,,,,,,,,,,,,,,,,,,,,,1223.70112660015,None,,,,,,,,,,,,,,,,,victory,new_c,white,179,156,346,1219.8545276001096,None,1219.8545276001096,None,4,1.6110551999881864,1219.8545276001096,None,1221.5225802999921,None,1222.0362532001454,None,1222.0362532001454,None,n,1.6370876000728458,1222.0362532001454,None,,,NC17,001,2021_Nov_01_1431,ProdSingRedo,3.2.3,59.93917370993954,
,,,,,,,,,,,,,,,,,,,,,,,,,,,,,,,,,,,,,,,,,,,,,,,,,,,,,,,,,,,,,,,,,,,,,,,,,1224.209401300177,None,,,,,,,
