StudyLoop.thisRepN,StudyLoop.thisTrialN,StudyLoop.thisN,StudyLoop.thisIndex,TestLoop.thisRepN,TestLoop.thisTrialN,TestLoop.thisN,TestLoop.thisIndex,textCondition.started,textCondition.stopped,keyCondition.keys,keyCondition.rt,keyCondition.started,keyCondition.stopped,Condition,stim_colors,color_sing,color_aloud,color_silent,textWelcome.started,textWelcome.stopped,keyWelcome.keys,keyWelcome.rt,keyWelcome.started,keyWelcome.stopped,textAloud.started,textAloud.stopped,textSilent.started,textSilent.stopped,textSing.started,textSing.stopped,textBlank500.started,textBlank500.stopped,study_word,study_type,study_color,study_num,study_word_num,textStudy.started,textStudy.stopped,keyStudy.keys,keyStudy.started,keyStudy.stopped,textTestInstructions.started,textTestInstructions.stopped,key_resp_3.keys,key_resp_3.rt,key_resp_3.started,key_resp_3.stopped,testWord,testType,testColor,testN,test_num,test_word_num,textConf.started,textConf.stopped,textConfScale.started,textConfScale.stopped,keyConf.keys,keyConf.rt,keyConf.started,keyConf.stopped,textTestBlank.started,textTestBlank.stopped,textRKN.started,textRKN.stopped,textRKNScale.started,textRKNScale.stopped,keyRKN.keys,keyRKN.rt,keyRKN.started,keyRKN.stopped,textEnd.started,textEnd.stopped,participant,session,date,expName,psychopyVersion,frameRate,
,,,,,,,,15.84555960004218,None,n,1.065148799913004,15.84555960004218,None,,,,,,,,,,,,,,,,,,,,,,,,,,,,,,,,,,,,,,,,,,,,,,,,,,,,,,,,,,,,,,NC18,001,2021_Nov_01_1452,ProdSingRedo,3.2.3,59.95649551478444,
,,,,,,,,,,,,,,NeutralTest,"['blue', 'yellow', 'red']",blue,yellow,red,16.96905289986171,None,space,365.5901546999812,16.96905289986171,None,,,,,,,,,,,,,,,,,,,,,,,,,,,,,,,,,,,,,,,,,,,,,,,,,,,NC18,001,2021_Nov_01_1452,ProdSingRedo,3.2.3,59.95649551478444,
0,0,0,0,,,,,,,,,,,,,,,,,,,,,,16.96905289986171,None,16.96905289986171,None,16.96905289986171,None,385.10867709992453,None,present,silent,red,77,231,383.10072280000895,None,None,383.10072280000895,None,,,,,,,,,,,,,,,,,,,,,,,,,,,,,,,,,NC18,001,2021_Nov_01_1452,ProdSingRedo,3.2.3,59.95649551478444,
1,0,1,0,,,,,,,,,,,,,,,,,,,,,,,,,,,,387.6279074999038,None,fight,silent,red,75,127,385.62339369999245,None,None,385.62339369999245,None,,,,,,,,,,,,,,,,,,,,,,,,,,,,,,,,,NC18,001,2021_Nov_01_1452,ProdSingRedo,3.2.3,59.95649551478444,
2,0,2,0,,,,,,,,,,,,,,,,,,,,,,,,,,,,390.13038629991934,None,weight,aloud,yellow,56,353,388.1306636999361,None,None,388.1306636999361,None,,,,,,,,,,,,,,,,,,,,,,,,,,,,,,,,,NC18,001,2021_Nov_01_1452,ProdSingRedo,3.2.3,59.95649551478444,
3,0,3,0,,,,,,,,,,,,,,,,,,,,,,,,,,,,392.649538599886,None,solution,sing,blue,3,294,390.64388150000013,None,None,390.64388150000013,None,,,,,,,,,,,,,,,,,,,,,,,,,,,,,,,,,NC18,001,2021_Nov_01_1452,ProdSingRedo,3.2.3,59.95649551478444,
4,0,4,0,,,,,,,,,,,,,,,,,,,,,,,,,,,,395.1687978999689,None,opening,sing,blue,0,205,393.1602998999879,None,None,393.1602998999879,None,,,,,,,,,,,,,,,,,,,,,,,,,,,,,,,,,NC18,001,2021_Nov_01_1452,ProdSingRedo,3.2.3,59.95649551478444,
5,0,5,0,,,,,,,,,,,,,,,,,,,,,,,,,,,,397.6879004999064,None,medicine,silent,red,88,186,395.6760243999306,None,None,395.6760243999306,None,,,,,,,,,,,,,,,,,,,,,,,,,,,,,,,,,NC18,001,2021_Nov_01_1452,ProdSingRedo,3.2.3,59.95649551478444,
6,0,6,0,,,,,,,,,,,,,,,,,,,,,,,,,,,,400.2070615000557,None,salary,aloud,yellow,49,271,398.2042803999502,None,None,398.2042803999502,None,,,,,,,,,,,,,,,,,,,,,,,,,,,,,,,,,NC18,001,2021_Nov_01_1452,ProdSingRedo,3.2.3,59.95649551478444,
7,0,7,0,,,,,,,,,,,,,,,,,,,,,,,,,,,,402.72628369997256,None,graduate,sing,blue,9,141,400.7215896998532,None,None,400.7215896998532,None,,,,,,,,,,,,,,,,,,,,,,,,,,,,,,,,,NC18,001,2021_Nov_01_1452,ProdSingRedo,3.2.3,59.95649551478444,
8,0,8,0,,,,,,,,,,,,,,,,,,,,,,,,,,,,405.2454025999177,None,short,aloud,yellow,53,285,403.23582939989865,None,None,403.23582939989865,None,,,,,,,,,,,,,,,,,,,,,,,,,,,,,,,,,NC18,001,2021_Nov_01_1452,ProdSingRedo,3.2.3,59.95649551478444,
9,0,9,0,,,,,,,,,,,,,,,,,,,,,,,,,,,,407.7645670999773,None,piece,silent,red,73,221,405.75274859997444,None,None,405.75274859997444,None,,,,,,,,,,,,,,,,,,,,,,,,,,,,,,,,,NC18,001,2021_Nov_01_1452,ProdSingRedo,3.2.3,59.95649551478444,
10,0,10,0,,,,,,,,,,,,,,,,,,,,,,,,,,,,410.28391109989025,None,device,silent,red,74,93,408.2823713000398,None,None,408.2823713000398,None,,,,,,,,,,,,,,,,,,,,,,,,,,,,,,,,,NC18,001,2021_Nov_01_1452,ProdSingRedo,3.2.3,59.95649551478444,
11,0,11,0,,,,,,,,,,,,,,,,,,,,,,,,,,,,412.8030286000576,None,answer,aloud,yellow,50,8,410.7979884999804,None,None,410.7979884999804,None,,,,,,,,,,,,,,,,,,,,,,,,,,,,,,,,,NC18,001,2021_Nov_01_1452,ProdSingRedo,3.2.3,59.95649551478444,
12,0,12,0,,,,,,,,,,,,,,,,,,,,,,,,,,,,415.3221726999618,None,religion,aloud,yellow,43,258,413.31584910000674,None,None,413.31584910000674,None,,,,,,,,,,,,,,,,,,,,,,,,,,,,,,,,,NC18,001,2021_Nov_01_1452,ProdSingRedo,3.2.3,59.95649551478444,
13,0,13,0,,,,,,,,,,,,,,,,,,,,,,,,,,,,417.8413231000304,None,corner,aloud,yellow,30,69,415.83140649995767,None,None,415.83140649995767,None,,,,,,,,,,,,,,,,,,,,,,,,,,,,,,,,,NC18,001,2021_Nov_01_1452,ProdSingRedo,3.2.3,59.95649551478444,
14,0,14,0,,,,,,,,,,,,,,,,,,,,,,,,,,,,420.36055470001884,None,track,sing,blue,8,334,418.3599256000016,None,None,418.3599256000016,None,,,,,,,,,,,,,,,,,,,,,,,,,,,,,,,,,NC18,001,2021_Nov_01_1452,ProdSingRedo,3.2.3,59.95649551478444,
15,0,15,0,,,,,,,,,,,,,,,,,,,,,,,,,,,,422.8797692998778,None,damage,silent,red,60,83,420.8745979999658,None,None,420.8745979999658,None,,,,,,,,,,,,,,,,,,,,,,,,,,,,,,,,,NC18,001,2021_Nov_01_1452,ProdSingRedo,3.2.3,59.95649551478444,
16,0,16,0,,,,,,,,,,,,,,,,,,,,,,,,,,,,425.3989778999239,None,order,sing,blue,12,207,423.3869135999121,None,None,423.3869135999121,None,,,,,,,,,,,,,,,,,,,,,,,,,,,,,,,,,NC18,001,2021_Nov_01_1452,ProdSingRedo,3.2.3,59.95649551478444,
17,0,17,0,,,,,,,,,,,,,,,,,,,,,,,,,,,,427.9181625000201,None,working,aloud,yellow,46,357,425.9155270999763,None,None,425.9155270999763,None,,,,,,,,,,,,,,,,,,,,,,,,,,,,,,,,,NC18,001,2021_Nov_01_1452,ProdSingRedo,3.2.3,59.95649551478444,
18,0,18,0,,,,,,,,,,,,,,,,,,,,,,,,,,,,430.437380499905,None,bucket,aloud,yellow,47,33,428.4402470998466,None,None,428.4402470998466,None,,,,,,,,,,,,,,,,,,,,,,,,,,,,,,,,,NC18,001,2021_Nov_01_1452,ProdSingRedo,3.2.3,59.95649551478444,
19,0,19,0,,,,,,,,,,,,,,,,,,,,,,,,,,,,432.95649289991707,None,finance,aloud,yellow,45,129,430.9510806000326,None,None,430.9510806000326,None,,,,,,,,,,,,,,,,,,,,,,,,,,,,,,,,,NC18,001,2021_Nov_01_1452,ProdSingRedo,3.2.3,59.95649551478444,
20,0,20,0,,,,,,,,,,,,,,,,,,,,,,,,,,,,435.4756203999277,None,trend,silent,red,61,340,433.46392169990577,None,None,433.46392169990577,None,,,,,,,,,,,,,,,,,,,,,,,,,,,,,,,,,NC18,001,2021_Nov_01_1452,ProdSingRedo,3.2.3,59.95649551478444,
21,0,21,0,,,,,,,,,,,,,,,,,,,,,,,,,,,,437.99482219992206,None,build,sing,blue,20,35,435.9919845999684,None,None,435.9919845999684,None,,,,,,,,,,,,,,,,,,,,,,,,,,,,,,,,,NC18,001,2021_Nov_01_1452,ProdSingRedo,3.2.3,59.95649551478444,
22,0,22,0,,,,,,,,,,,,,,,,,,,,,,,,,,,,440.5136792999692,None,agency,silent,red,65,4,438.50989279989153,None,None,438.50989279989153,None,,,,,,,,,,,,,,,,,,,,,,,,,,,,,,,,,NC18,001,2021_Nov_01_1452,ProdSingRedo,3.2.3,59.95649551478444,
23,0,23,0,,,,,,,,,,,,,,,,,,,,,,,,,,,,443.01653350004926,None,empty,silent,red,81,112,441.01451099989936,None,None,441.01451099989936,None,,,,,,,,,,,,,,,,,,,,,,,,,,,,,,,,,NC18,001,2021_Nov_01_1452,ProdSingRedo,3.2.3,59.95649551478444,
24,0,24,0,,,,,,,,,,,,,,,,,,,,,,,,,,,,445.5357651000377,None,bitter,sing,blue,11,23,443.52840229985304,None,None,443.52840229985304,None,,,,,,,,,,,,,,,,,,,,,,,,,,,,,,,,,NC18,001,2021_Nov_01_1452,ProdSingRedo,3.2.3,59.95649551478444,
25,0,25,0,,,,,,,,,,,,,,,,,,,,,,,,,,,,448.0548864000011,None,question,silent,red,86,247,446.05825260002166,None,None,446.05825260002166,None,,,,,,,,,,,,,,,,,,,,,,,,,,,,,,,,,NC18,001,2021_Nov_01_1452,ProdSingRedo,3.2.3,59.95649551478444,
26,0,26,0,,,,,,,,,,,,,,,,,,,,,,,,,,,,450.55744199990295,None,ground,aloud,yellow,44,142,448.5550764000509,None,None,448.5550764000509,None,,,,,,,,,,,,,,,,,,,,,,,,,,,,,,,,,NC18,001,2021_Nov_01_1452,ProdSingRedo,3.2.3,59.95649551478444,
27,0,27,0,,,,,,,,,,,,,,,,,,,,,,,,,,,,453.0762213000562,None,period,sing,blue,24,217,451.06463879998773,None,None,451.06463879998773,None,,,,,,,,,,,,,,,,,,,,,,,,,,,,,,,,,NC18,001,2021_Nov_01_1452,ProdSingRedo,3.2.3,59.95649551478444,
28,0,28,0,,,,,,,,,,,,,,,,,,,,,,,,,,,,455.5954692000523,None,candidate,silent,red,84,39,453.6074011998717,None,None,453.6074011998717,None,,,,,,,,,,,,,,,,,,,,,,,,,,,,,,,,,NC18,001,2021_Nov_01_1452,ProdSingRedo,3.2.3,59.95649551478444,
29,0,29,0,,,,,,,,,,,,,,,,,,,,,,,,,,,,458.19185109995306,None,display,silent,red,83,98,456.0959644999821,None,None,456.0959644999821,None,,,,,,,,,,,,,,,,,,,,,,,,,,,,,,,,,NC18,001,2021_Nov_01_1452,ProdSingRedo,3.2.3,59.95649551478444,
30,0,30,0,,,,,,,,,,,,,,,,,,,,,,,,,,,,460.6037794998847,None,comfort,aloud,yellow,34,59,458.6009114999324,None,None,458.6009114999324,None,,,,,,,,,,,,,,,,,,,,,,,,,,,,,,,,,NC18,001,2021_Nov_01_1452,ProdSingRedo,3.2.3,59.95649551478444,
31,0,31,0,,,,,,,,,,,,,,,,,,,,,,,,,,,,463.1235479998868,None,light,aloud,yellow,36,171,461.11376899993047,None,None,461.11376899993047,None,,,,,,,,,,,,,,,,,,,,,,,,,,,,,,,,,NC18,001,2021_Nov_01_1452,ProdSingRedo,3.2.3,59.95649551478444,
32,0,32,0,,,,,,,,,,,,,,,,,,,,,,,,,,,,465.6391304000281,None,split,silent,red,80,299,463.6317300000228,None,None,463.6317300000228,None,,,,,,,,,,,,,,,,,,,,,,,,,,,,,,,,,NC18,001,2021_Nov_01_1452,ProdSingRedo,3.2.3,59.95649551478444,
33,0,33,0,,,,,,,,,,,,,,,,,,,,,,,,,,,,468.15833989996463,None,government,sing,blue,16,139,466.15296590002254,None,None,466.15296590002254,None,,,,,,,,,,,,,,,,,,,,,,,,,,,,,,,,,NC18,001,2021_Nov_01_1452,ProdSingRedo,3.2.3,59.95649551478444,
34,0,34,0,,,,,,,,,,,,,,,,,,,,,,,,,,,,470.67750580003485,None,broad,sing,blue,7,31,468.6707885998767,None,None,468.6707885998767,None,,,,,,,,,,,,,,,,,,,,,,,,,,,,,,,,,NC18,001,2021_Nov_01_1452,ProdSingRedo,3.2.3,59.95649551478444,
35,0,35,0,,,,,,,,,,,,,,,,,,,,,,,,,,,,473.1966903998982,None,substance,sing,blue,1,313,471.1987936999649,None,None,471.1987936999649,None,,,,,,,,,,,,,,,,,,,,,,,,,,,,,,,,,NC18,001,2021_Nov_01_1452,ProdSingRedo,3.2.3,59.95649551478444,
36,0,36,0,,,,,,,,,,,,,,,,,,,,,,,,,,,,475.715928300051,None,mankind,aloud,yellow,32,178,473.71133079985157,None,None,473.71133079985157,None,,,,,,,,,,,,,,,,,,,,,,,,,,,,,,,,,NC18,001,2021_Nov_01_1452,ProdSingRedo,3.2.3,59.95649551478444,
37,0,37,0,,,,,,,,,,,,,,,,,,,,,,,,,,,,478.23506299988367,None,nation,silent,red,69,198,476.2286560998764,None,None,476.2286560998764,None,,,,,,,,,,,,,,,,,,,,,,,,,,,,,,,,,NC18,001,2021_Nov_01_1452,ProdSingRedo,3.2.3,59.95649551478444,
38,0,38,0,,,,,,,,,,,,,,,,,,,,,,,,,,,,480.7542443999555,None,sunset,silent,red,71,315,478.74596760002896,None,None,478.74596760002896,None,,,,,,,,,,,,,,,,,,,,,,,,,,,,,,,,,NC18,001,2021_Nov_01_1452,ProdSingRedo,3.2.3,59.95649551478444,
39,0,39,0,,,,,,,,,,,,,,,,,,,,,,,,,,,,483.27345829992555,None,service,silent,red,63,280,481.2652422999963,None,None,481.2652422999963,None,,,,,,,,,,,,,,,,,,,,,,,,,,,,,,,,,NC18,001,2021_Nov_01_1452,ProdSingRedo,3.2.3,59.95649551478444,
40,0,40,0,,,,,,,,,,,,,,,,,,,,,,,,,,,,485.79261730005965,None,agreement,aloud,yellow,41,5,483.7853635000065,None,None,483.7853635000065,None,,,,,,,,,,,,,,,,,,,,,,,,,,,,,,,,,NC18,001,2021_Nov_01_1452,ProdSingRedo,3.2.3,59.95649551478444,
41,0,41,0,,,,,,,,,,,,,,,,,,,,,,,,,,,,488.31181270000525,None,profession,sing,blue,13,241,486.3060403999407,None,None,486.3060403999407,None,,,,,,,,,,,,,,,,,,,,,,,,,,,,,,,,,NC18,001,2021_Nov_01_1452,ProdSingRedo,3.2.3,59.95649551478444,
42,0,42,0,,,,,,,,,,,,,,,,,,,,,,,,,,,,490.83104199985974,None,individual,silent,red,67,160,488.82873409986496,None,None,488.82873409986496,None,,,,,,,,,,,,,,,,,,,,,,,,,,,,,,,,,NC18,001,2021_Nov_01_1452,ProdSingRedo,3.2.3,59.95649551478444,
43,0,43,0,,,,,,,,,,,,,,,,,,,,,,,,,,,,493.3501784000546,None,collection,aloud,yellow,51,54,491.34146200004034,None,None,491.34146200004034,None,,,,,,,,,,,,,,,,,,,,,,,,,,,,,,,,,NC18,001,2021_Nov_01_1452,ProdSingRedo,3.2.3,59.95649551478444,
44,0,44,0,,,,,,,,,,,,,,,,,,,,,,,,,,,,495.8693529998418,None,under,sing,blue,22,343,493.8603948999662,None,None,493.8603948999662,None,,,,,,,,,,,,,,,,,,,,,,,,,,,,,,,,,NC18,001,2021_Nov_01_1452,ProdSingRedo,3.2.3,59.95649551478444,
45,0,45,0,,,,,,,,,,,,,,,,,,,,,,,,,,,,498.38847299991176,None,season,silent,red,68,277,496.38169569987804,None,None,496.38169569987804,None,,,,,,,,,,,,,,,,,,,,,,,,,,,,,,,,,NC18,001,2021_Nov_01_1452,ProdSingRedo,3.2.3,59.95649551478444,
46,0,46,0,,,,,,,,,,,,,,,,,,,,,,,,,,,,500.9075867999345,None,sleep,silent,red,72,290,498.8973900000565,None,None,498.8973900000565,None,,,,,,,,,,,,,,,,,,,,,,,,,,,,,,,,,NC18,001,2021_Nov_01_1452,ProdSingRedo,3.2.3,59.95649551478444,
47,0,47,0,,,,,,,,,,,,,,,,,,,,,,,,,,,,503.42698059999384,None,addition,aloud,yellow,54,2,501.4201166999992,None,None,501.4201166999992,None,,,,,,,,,,,,,,,,,,,,,,,,,,,,,,,,,NC18,001,2021_Nov_01_1452,ProdSingRedo,3.2.3,59.95649551478444,
48,0,48,0,,,,,,,,,,,,,,,,,,,,,,,,,,,,505.9461669998709,None,instrument,aloud,yellow,39,163,503.9345974000171,None,None,503.9345974000171,None,,,,,,,,,,,,,,,,,,,,,,,,,,,,,,,,,NC18,001,2021_Nov_01_1452,ProdSingRedo,3.2.3,59.95649551478444,
49,0,49,0,,,,,,,,,,,,,,,,,,,,,,,,,,,,508.4654011998791,None,grade,silent,red,87,140,506.45836200006306,None,None,506.45836200006306,None,,,,,,,,,,,,,,,,,,,,,,,,,,,,,,,,,NC18,001,2021_Nov_01_1452,ProdSingRedo,3.2.3,59.95649551478444,
50,0,50,0,,,,,,,,,,,,,,,,,,,,,,,,,,,,510.9845308000222,None,patient,aloud,yellow,48,213,508.9784399999771,None,None,508.9784399999771,None,,,,,,,,,,,,,,,,,,,,,,,,,,,,,,,,,NC18,001,2021_Nov_01_1452,ProdSingRedo,3.2.3,59.95649551478444,
51,0,51,0,,,,,,,,,,,,,,,,,,,,,,,,,,,,513.5036635999568,None,council,aloud,yellow,55,71,511.4977442000527,None,None,511.4977442000527,None,,,,,,,,,,,,,,,,,,,,,,,,,,,,,,,,,NC18,001,2021_Nov_01_1452,ProdSingRedo,3.2.3,59.95649551478444,
52,0,52,0,,,,,,,,,,,,,,,,,,,,,,,,,,,,516.0228130000178,None,childhood,aloud,yellow,52,49,514.0162297999486,None,None,514.0162297999486,None,,,,,,,,,,,,,,,,,,,,,,,,,,,,,,,,,NC18,001,2021_Nov_01_1452,ProdSingRedo,3.2.3,59.95649551478444,
53,0,53,0,,,,,,,,,,,,,,,,,,,,,,,,,,,,518.5420697999652,None,series,aloud,yellow,57,279,516.5323053000029,None,None,516.5323053000029,None,,,,,,,,,,,,,,,,,,,,,,,,,,,,,,,,,NC18,001,2021_Nov_01_1452,ProdSingRedo,3.2.3,59.95649551478444,
54,0,54,0,,,,,,,,,,,,,,,,,,,,,,,,,,,,521.0678946999833,None,defeat,silent,red,89,88,519.0679653000552,None,None,519.0679653000552,None,,,,,,,,,,,,,,,,,,,,,,,,,,,,,,,,,NC18,001,2021_Nov_01_1452,ProdSingRedo,3.2.3,59.95649551478444,
55,0,55,0,,,,,,,,,,,,,,,,,,,,,,,,,,,,523.580508899875,None,rapid,sing,blue,25,252,521.5803652999457,None,None,521.5803652999457,None,,,,,,,,,,,,,,,,,,,,,,,,,,,,,,,,,NC18,001,2021_Nov_01_1452,ProdSingRedo,3.2.3,59.95649551478444,
56,0,56,0,,,,,,,,,,,,,,,,,,,,,,,,,,,,526.0996481999755,None,shear,sing,blue,17,283,524.0926007998642,None,None,524.0926007998642,None,,,,,,,,,,,,,,,,,,,,,,,,,,,,,,,,,NC18,001,2021_Nov_01_1452,ProdSingRedo,3.2.3,59.95649551478444,
57,0,57,0,,,,,,,,,,,,,,,,,,,,,,,,,,,,528.6187628998887,None,article,silent,red,76,11,526.6127573999111,None,None,526.6127573999111,None,,,,,,,,,,,,,,,,,,,,,,,,,,,,,,,,,NC18,001,2021_Nov_01_1452,ProdSingRedo,3.2.3,59.95649551478444,
58,0,58,0,,,,,,,,,,,,,,,,,,,,,,,,,,,,531.1379773998633,None,vision,sing,blue,23,347,529.1287519000471,None,None,529.1287519000471,None,,,,,,,,,,,,,,,,,,,,,,,,,,,,,,,,,NC18,001,2021_Nov_01_1452,ProdSingRedo,3.2.3,59.95649551478444,
59,0,59,0,,,,,,,,,,,,,,,,,,,,,,,,,,,,533.6571432000492,None,height,aloud,yellow,35,152,531.6509551999625,None,None,531.6509551999625,None,,,,,,,,,,,,,,,,,,,,,,,,,,,,,,,,,NC18,001,2021_Nov_01_1452,ProdSingRedo,3.2.3,59.95649551478444,
60,0,60,0,,,,,,,,,,,,,,,,,,,,,,,,,,,,536.1763830999844,None,brilliant,aloud,yellow,38,30,534.1815074000042,None,None,534.1815074000042,None,,,,,,,,,,,,,,,,,,,,,,,,,,,,,,,,,NC18,001,2021_Nov_01_1452,ProdSingRedo,3.2.3,59.95649551478444,
61,0,61,0,,,,,,,,,,,,,,,,,,,,,,,,,,,,538.6955140999053,None,direction,aloud,yellow,31,94,536.6865242999047,None,None,536.6865242999047,None,,,,,,,,,,,,,,,,,,,,,,,,,,,,,,,,,NC18,001,2021_Nov_01_1452,ProdSingRedo,3.2.3,59.95649551478444,
62,0,62,0,,,,,,,,,,,,,,,,,,,,,,,,,,,,541.2146562000271,None,gesture,sing,blue,18,137,539.2120600999333,None,None,539.2120600999333,None,,,,,,,,,,,,,,,,,,,,,,,,,,,,,,,,,NC18,001,2021_Nov_01_1452,ProdSingRedo,3.2.3,59.95649551478444,
63,0,63,0,,,,,,,,,,,,,,,,,,,,,,,,,,,,543.7338771000504,None,burden,sing,blue,26,36,541.728409399977,None,None,541.728409399977,None,,,,,,,,,,,,,,,,,,,,,,,,,,,,,,,,,NC18,001,2021_Nov_01_1452,ProdSingRedo,3.2.3,59.95649551478444,
64,0,64,0,,,,,,,,,,,,,,,,,,,,,,,,,,,,546.2364886000287,None,account,sing,blue,21,1,544.2340354998596,None,None,544.2340354998596,None,,,,,,,,,,,,,,,,,,,,,,,,,,,,,,,,,NC18,001,2021_Nov_01_1452,ProdSingRedo,3.2.3,59.95649551478444,
65,0,65,0,,,,,,,,,,,,,,,,,,,,,,,,,,,,548.7556157000363,None,incident,aloud,yellow,40,158,546.7478553999681,None,None,546.7478553999681,None,,,,,,,,,,,,,,,,,,,,,,,,,,,,,,,,,NC18,001,2021_Nov_01_1452,ProdSingRedo,3.2.3,59.95649551478444,
66,0,66,0,,,,,,,,,,,,,,,,,,,,,,,,,,,,551.2746433999855,None,break,aloud,yellow,33,26,549.2713545998558,None,None,549.2713545998558,None,,,,,,,,,,,,,,,,,,,,,,,,,,,,,,,,,NC18,001,2021_Nov_01_1452,ProdSingRedo,3.2.3,59.95649551478444,
67,0,67,0,,,,,,,,,,,,,,,,,,,,,,,,,,,,553.7939371999819,None,attack,sing,blue,28,13,551.792821199866,None,None,551.792821199866,None,,,,,,,,,,,,,,,,,,,,,,,,,,,,,,,,,NC18,001,2021_Nov_01_1452,ProdSingRedo,3.2.3,59.95649551478444,
68,0,68,0,,,,,,,,,,,,,,,,,,,,,,,,,,,,556.3131845998578,None,oxygen,silent,red,62,209,554.3049494000152,None,None,554.3049494000152,None,,,,,,,,,,,,,,,,,,,,,,,,,,,,,,,,,NC18,001,2021_Nov_01_1452,ProdSingRedo,3.2.3,59.95649551478444,
69,0,69,0,,,,,,,,,,,,,,,,,,,,,,,,,,,,558.8323541998398,None,entrance,silent,red,79,115,556.832591000013,None,None,556.832591000013,None,,,,,,,,,,,,,,,,,,,,,,,,,,,,,,,,,NC18,001,2021_Nov_01_1452,ProdSingRedo,3.2.3,59.95649551478444,
70,0,70,0,,,,,,,,,,,,,,,,,,,,,,,,,,,,561.3514518998563,None,member,aloud,yellow,42,188,559.3444234000053,None,None,559.3444234000053,None,,,,,,,,,,,,,,,,,,,,,,,,,,,,,,,,,NC18,001,2021_Nov_01_1452,ProdSingRedo,3.2.3,59.95649551478444,
71,0,71,0,,,,,,,,,,,,,,,,,,,,,,,,,,,,563.8707234000321,None,colonel,sing,blue,19,55,561.8589031000156,None,None,561.8589031000156,None,,,,,,,,,,,,,,,,,,,,,,,,,,,,,,,,,NC18,001,2021_Nov_01_1452,ProdSingRedo,3.2.3,59.95649551478444,
72,0,72,0,,,,,,,,,,,,,,,,,,,,,,,,,,,,566.3898694999516,None,interior,aloud,yellow,59,164,564.3791240998544,None,None,564.3791240998544,None,,,,,,,,,,,,,,,,,,,,,,,,,,,,,,,,,NC18,001,2021_Nov_01_1452,ProdSingRedo,3.2.3,59.95649551478444,
73,0,73,0,,,,,,,,,,,,,,,,,,,,,,,,,,,,568.9086555000395,None,treatment,silent,red,66,339,566.9029892999679,None,None,566.9029892999679,None,,,,,,,,,,,,,,,,,,,,,,,,,,,,,,,,,NC18,001,2021_Nov_01_1452,ProdSingRedo,3.2.3,59.95649551478444,
74,0,74,0,,,,,,,,,,,,,,,,,,,,,,,,,,,,571.4282785998657,None,command,sing,blue,15,60,569.4242189000361,None,None,569.4242189000361,None,,,,,,,,,,,,,,,,,,,,,,,,,,,,,,,,,NC18,001,2021_Nov_01_1452,ProdSingRedo,3.2.3,59.95649551478444,
75,0,75,0,,,,,,,,,,,,,,,,,,,,,,,,,,,,573.9474754000548,None,travel,aloud,yellow,58,338,571.942925899988,None,None,571.942925899988,None,,,,,,,,,,,,,,,,,,,,,,,,,,,,,,,,,NC18,001,2021_Nov_01_1452,ProdSingRedo,3.2.3,59.95649551478444,
76,0,76,0,,,,,,,,,,,,,,,,,,,,,,,,,,,,576.4498908999376,None,month,sing,blue,27,193,574.4476297998335,None,None,574.4476297998335,None,,,,,,,,,,,,,,,,,,,,,,,,,,,,,,,,,NC18,001,2021_Nov_01_1452,ProdSingRedo,3.2.3,59.95649551478444,
77,0,77,0,,,,,,,,,,,,,,,,,,,,,,,,,,,,578.9691730998456,None,mayor,sing,blue,2,183,576.967049999861,None,None,576.967049999861,None,,,,,,,,,,,,,,,,,,,,,,,,,,,,,,,,,NC18,001,2021_Nov_01_1452,ProdSingRedo,3.2.3,59.95649551478444,
78,0,78,0,,,,,,,,,,,,,,,,,,,,,,,,,,,,581.4882864998654,None,sight,sing,blue,10,286,579.4846556000412,None,None,579.4846556000412,None,,,,,,,,,,,,,,,,,,,,,,,,,,,,,,,,,NC18,001,2021_Nov_01_1452,ProdSingRedo,3.2.3,59.95649551478444,
79,0,79,0,,,,,,,,,,,,,,,,,,,,,,,,,,,,584.0073851000052,None,budget,sing,blue,4,34,582.0047426999081,None,None,582.0047426999081,None,,,,,,,,,,,,,,,,,,,,,,,,,,,,,,,,,NC18,001,2021_Nov_01_1452,ProdSingRedo,3.2.3,59.95649551478444,
80,0,80,0,,,,,,,,,,,,,,,,,,,,,,,,,,,,586.5266541999299,None,stand,sing,blue,5,302,584.5195462000556,None,None,584.5195462000556,None,,,,,,,,,,,,,,,,,,,,,,,,,,,,,,,,,NC18,001,2021_Nov_01_1452,ProdSingRedo,3.2.3,59.95649551478444,
81,0,81,0,,,,,,,,,,,,,,,,,,,,,,,,,,,,589.0458463998511,None,volume,silent,red,64,349,587.0434226000216,None,None,587.0434226000216,None,,,,,,,,,,,,,,,,,,,,,,,,,,,,,,,,,NC18,001,2021_Nov_01_1452,ProdSingRedo,3.2.3,59.95649551478444,
82,0,82,0,,,,,,,,,,,,,,,,,,,,,,,,,,,,591.5650289000478,None,motion,silent,red,82,194,589.554365699878,None,None,589.554365699878,None,,,,,,,,,,,,,,,,,,,,,,,,,,,,,,,,,NC18,001,2021_Nov_01_1452,ProdSingRedo,3.2.3,59.95649551478444,
83,0,83,0,,,,,,,,,,,,,,,,,,,,,,,,,,,,594.0842432000209,None,reading,silent,red,70,254,592.0779507998377,None,None,592.0779507998377,None,,,,,,,,,,,,,,,,,,,,,,,,,,,,,,,,,NC18,001,2021_Nov_01_1452,ProdSingRedo,3.2.3,59.95649551478444,
84,0,84,0,,,,,,,,,,,,,,,,,,,,,,,,,,,,596.603495300049,None,emergency,sing,blue,29,110,594.5996943998616,None,None,594.5996943998616,None,,,,,,,,,,,,,,,,,,,,,,,,,,,,,,,,,NC18,001,2021_Nov_01_1452,ProdSingRedo,3.2.3,59.95649551478444,
85,0,85,0,,,,,,,,,,,,,,,,,,,,,,,,,,,,599.122621800052,None,strain,sing,blue,6,308,597.1171152000315,None,None,597.1171152000315,None,,,,,,,,,,,,,,,,,,,,,,,,,,,,,,,,,NC18,001,2021_Nov_01_1452,ProdSingRedo,3.2.3,59.95649551478444,
86,0,86,0,,,,,,,,,,,,,,,,,,,,,,,,,,,,601.6418460998684,None,state,silent,red,85,303,599.6349189998582,None,None,599.6349189998582,None,,,,,,,,,,,,,,,,,,,,,,,,,,,,,,,,,NC18,001,2021_Nov_01_1452,ProdSingRedo,3.2.3,59.95649551478444,
87,0,87,0,,,,,,,,,,,,,,,,,,,,,,,,,,,,604.1606471999548,None,accident,sing,blue,14,0,602.1548913000152,None,None,602.1548913000152,None,,,,,,,,,,,,,,,,,,,,,,,,,,,,,,,,,NC18,001,2021_Nov_01_1452,ProdSingRedo,3.2.3,59.95649551478444,
88,0,88,0,,,,,,,,,,,,,,,,,,,,,,,,,,,,606.663480399875,None,nature,silent,red,78,200,604.661317900056,None,None,604.661317900056,None,,,,,,,,,,,,,,,,,,,,,,,,,,,,,,,,,NC18,001,2021_Nov_01_1452,ProdSingRedo,3.2.3,59.95649551478444,
89,0,89,0,,,,,,,,,,,,,,,,,,,,,,,,,,,,609.1825999000575,None,drama,aloud,yellow,37,103,607.177760399878,None,None,607.177760399878,None,,,,,,,,,,,,,,,,,,,,,,,,,,,,,,,,,NC18,001,2021_Nov_01_1452,ProdSingRedo,3.2.3,59.95649551478444,
,,,,,,,,,,,,,,,,,,,,,,,,,,,,,,,,,,,,,,,,,,,609.6833627000451,None,k,122.38786579994485,609.6833627000451,None,,,,,,,,,,,,,,,,,,,,,,,,,,,NC18,001,2021_Nov_01_1452,ProdSingRedo,3.2.3,59.95649551478444,
,,,,0,0,0,0,,,,,,,,,,,,,,,,,,,,,,,,754.8447522998322,None,,,,,,,,,,,,,,,,,council,aloud,white,0,55,71,732.6101789998356,None,732.6101789998356,None,6,15.629277900094166,732.6101789998356,None,748.2748724999838,None,748.8002468999475,None,748.8002468999475,None,f,6.022494399920106,748.8002468999475,None,,,NC18,001,2021_Nov_01_1452,ProdSingRedo,3.2.3,59.95649551478444,
,,,,1,0,1,0,,,,,,,,,,,,,,,,,,,,,,,,762.5429410999641,None,,,,,,,,,,,,,,,,,debate,new_b,white,1,133,87,755.3526357000228,None,755.3526357000228,None,2,3.262432600138709,755.3526357000228,None,758.654351899866,None,759.1821419000626,None,759.1821419000626,None,r,3.337016200181097,759.1821419000626,None,,,NC18,001,2021_Nov_01_1452,ProdSingRedo,3.2.3,59.95649551478444,
,,,,2,0,2,0,,,,,,,,,,,,,,,,,,,,,,,,772.8126288999338,None,,,,,,,,,,,,,,,,,entrance,silent,white,2,79,115,763.0717080999166,None,763.0717080999166,None,5,5.391636400017887,763.0717080999166,None,768.517072299961,None,769.04151739995,None,769.04151739995,None,f,3.7493941001594067,769.04151739995,None,,,NC18,001,2021_Nov_01_1452,ProdSingRedo,3.2.3,59.95649551478444,
,,,,3,0,3,0,,,,,,,,,,,,,,,,,,,,,,,,783.71501299995,None,,,,,,,,,,,,,,,,,finance,aloud,white,3,45,129,773.3392582999077,None,773.3392582999077,None,6,5.395805499982089,773.3392582999077,None,778.7787848999724,None,779.2998978998512,None,779.2998978998512,None,f,4.387973099946976,779.2998978998512,None,,,NC18,001,2021_Nov_01_1452,ProdSingRedo,3.2.3,59.95649551478444,
,,,,4,0,4,0,,,,,,,,,,,,,,,,,,,,,,,,794.875168700004,None,,,,,,,,,,,,,,,,,oxygen,silent,white,4,62,209,784.2291989000514,None,784.2291989000514,None,2,3.369959899922833,784.2291989000514,None,787.6412773998454,None,788.1510924999602,None,788.1510924999602,None,r,6.688095899997279,788.1510924999602,None,,,NC18,001,2021_Nov_01_1452,ProdSingRedo,3.2.3,59.95649551478444,
,,,,5,0,5,0,,,,,,,,,,,,,,,,,,,,,,,,800.566096900031,None,,,,,,,,,,,,,,,,,split,silent,white,5,80,299,795.3979827000294,None,795.3979827000294,None,2,2.2652037998195738,795.3979827000294,None,797.7087564000394,None,798.229293699842,None,798.229293699842,None,r,2.2981040999293327,798.229293699842,None,,,NC18,001,2021_Nov_01_1452,ProdSingRedo,3.2.3,59.95649551478444,
,,,,6,0,6,0,,,,,,,,,,,,,,,,,,,,,,,,807.9879852999002,None,,,,,,,,,,,,,,,,,century,new_b,white,6,130,45,801.0934989999514,None,801.0934989999514,None,5,4.16959930001758,801.0934989999514,None,805.3023637998849,None,805.8252210998908,None,805.8252210998908,None,f,2.1339138001203537,805.8252210998908,None,,,NC18,001,2021_Nov_01_1452,ProdSingRedo,3.2.3,59.95649551478444,
,,,,7,0,7,0,,,,,,,,,,,,,,,,,,,,,,,,816.0473284998443,None,,,,,,,,,,,,,,,,,worker,new_b,white,7,135,356,808.5132915999275,None,808.5132915999275,None,5,4.221772599965334,808.5132915999275,None,812.7808393999003,None,813.3024114998989,None,813.3024114998989,None,f,2.7127807999495417,813.3024114998989,None,,,NC18,001,2021_Nov_01_1452,ProdSingRedo,3.2.3,59.95649551478444,
,,,,8,0,8,0,,,,,,,,,,,,,,,,,,,,,,,,823.9365286999382,None,,,,,,,,,,,,,,,,,silence,new_a,white,8,102,288,816.5699187999126,None,816.5699187999126,None,4,3.9092695000581443,816.5699187999126,None,820.5287490999326,None,821.035198800033,None,821.035198800033,None,r,2.8679947000928223,821.035198800033,None,,,NC18,001,2021_Nov_01_1452,ProdSingRedo,3.2.3,59.95649551478444,
,,,,9,0,9,0,,,,,,,,,,,,,,,,,,,,,,,,829.9781972998753,None,,,,,,,,,,,,,,,,,length,new_c,white,9,168,169,824.4634425998665,None,824.4634425998665,None,2,2.143950599944219,824.4634425998665,None,826.6553519999143,None,827.1621144998353,None,827.1621144998353,None,r,2.7812147000804543,827.1621144998353,None,,,NC18,001,2021_Nov_01_1452,ProdSingRedo,3.2.3,59.95649551478444,
,,,,10,0,10,0,,,,,,,,,,,,,,,,,,,,,,,,836.1593648998532,None,,,,,,,,,,,,,,,,,answer,aloud,white,10,50,8,830.5031363000162,None,830.5031363000162,None,2,3.6560998000204563,830.5031363000162,None,834.1955058998428,None,834.6914250999689,None,834.6914250999689,None,n,1.4515370998997241,834.6914250999689,None,,,NC18,001,2021_Nov_01_1452,ProdSingRedo,3.2.3,59.95649551478444,
,,,,11,0,11,0,,,,,,,,,,,,,,,,,,,,,,,,848.8798636000138,None,,,,,,,,,,,,,,,,,center,new_a,white,11,118,44,836.6613129999023,None,836.6613129999023,None,4,3.4898675000295043,836.6613129999023,None,840.1908010998741,None,840.7036262999754,None,840.7036262999754,None,r,8.151522400090471,840.7036262999754,None,,,NC18,001,2021_Nov_01_1452,ProdSingRedo,3.2.3,59.95649551478444,
,,,,12,0,12,0,,,,,,,,,,,,,,,,,,,,,,,,855.8367779999971,None,,,,,,,,,,,,,,,,,scale,new_c,white,12,169,272,849.4045871999115,None,849.4045871999115,None,2,2.3708208999596536,849.4045871999115,None,851.8155213999562,None,852.3405746000353,None,852.3405746000353,None,n,3.466689199907705,852.3405746000353,None,,,NC18,001,2021_Nov_01_1452,ProdSingRedo,3.2.3,59.95649551478444,
,,,,13,0,13,0,,,,,,,,,,,,,,,,,,,,,,,,864.9943210000638,None,,,,,,,,,,,,,,,,,generation,new_b,white,13,143,136,856.3627090000082,None,856.3627090000082,None,2,2.364474100060761,856.3627090000082,None,858.7731019998901,None,859.2800290000159,None,859.2800290000159,None,r,5.679233100032434,859.2800290000159,None,,,NC18,001,2021_Nov_01_1452,ProdSingRedo,3.2.3,59.95649551478444,
,,,,14,0,14,0,,,,,,,,,,,,,,,,,,,,,,,,876.8067101000343,None,,,,,,,,,,,,,,,,,touch,new_a,white,14,108,332,865.5209711999632,None,865.5209711999632,None,2,6.566280400147662,865.5209711999632,None,872.1337198000401,None,872.6389561998658,None,872.6389561998658,None,f,4.136271900031716,872.6389561998658,None,,,NC18,001,2021_Nov_01_1452,ProdSingRedo,3.2.3,59.95649551478444,
,,,,15,0,15,0,,,,,,,,,,,,,,,,,,,,,,,,887.7002405000385,None,,,,,,,,,,,,,,,,,union,new_c,white,15,170,344,877.3297637000214,None,877.3297637000214,None,5,7.06900790007785,877.3297637000214,None,884.4243127999362,None,884.9334034000058,None,884.9334034000058,None,f,2.7299591000191867,884.9334034000058,None,,,NC18,001,2021_Nov_01_1452,ProdSingRedo,3.2.3,59.95649551478444,
,,,,16,0,16,0,,,,,,,,,,,,,,,,,,,,,,,,893.5566584998742,None,,,,,,,,,,,,,,,,,research,new_b,white,16,148,261,888.2233964998741,None,888.2233964998741,None,2,2.167936900164932,888.2233964998741,None,890.4387304000556,None,890.9576403999235,None,890.9576403999235,None,r,2.5696916999295354,890.9576403999235,None,,,NC18,001,2021_Nov_01_1452,ProdSingRedo,3.2.3,59.95649551478444,
,,,,17,0,17,0,,,,,,,,,,,,,,,,,,,,,,,,904.3941868999973,None,,,,,,,,,,,,,,,,,under,sing,white,17,22,343,894.0830786000006,None,894.0830786000006,None,2,4.067842099815607,894.0830786000006,None,898.1713896999136,None,898.683825999964,None,898.683825999964,None,r,5.6830118000507355,898.683825999964,None,,,NC18,001,2021_Nov_01_1452,ProdSingRedo,3.2.3,59.95649551478444,
,,,,18,0,18,0,,,,,,,,,,,,,,,,,,,,,,,,909.5729718999937,None,,,,,,,,,,,,,,,,,birth,new_a,white,18,112,22,904.8951028999873,None,904.8951028999873,None,1,2.160102800000459,904.8951028999873,None,907.0971011999063,None,907.6060082998592,None,907.6060082998592,None,f,1.945199300069362,907.6060082998592,None,,,NC18,001,2021_Nov_01_1452,ProdSingRedo,3.2.3,59.95649551478444,
,,,,19,0,19,0,,,,,,,,,,,,,,,,,,,,,,,,914.7112263999879,None,,,,,,,,,,,,,,,,,pancakes,new_c,white,19,178,210,910.0982095999643,None,910.0982095999643,None,1,3.1970851002261043,910.0982095999643,None,913.3501215998549,None,913.8713779998943,None,913.8713779998943,None,f,0.8156971998978406,913.8713779998943,None,,,NC18,001,2021_Nov_01_1452,ProdSingRedo,3.2.3,59.95649551478444,
,,,,20,0,20,0,,,,,,,,,,,,,,,,,,,,,,,,920.9855555999093,None,,,,,,,,,,,,,,,,,bureau,new_c,white,20,153,37,915.243394299876,None,915.243394299876,None,6,4.22775820014067,915.243394299876,None,919.5137690999545,None,920.0198874999769,None,920.0198874999769,None,r,0.9396105001214892,920.0198874999769,None,,,NC18,001,2021_Nov_01_1452,ProdSingRedo,3.2.3,59.95649551478444,
,,,,21,0,21,0,,,,,,,,,,,,,,,,,,,,,,,,927.1412944998592,None,,,,,,,,,,,,,,,,,staff,new_b,white,21,142,301,921.5094323998783,None,921.5094323998783,None,3,3.3217321999836713,921.5094323998783,None,924.8693508000579,None,925.3917892999016,None,925.3917892999016,None,f,1.7200386999174953,925.3917892999016,None,,,NC18,001,2021_Nov_01_1452,ProdSingRedo,3.2.3,59.95649551478444,
,,,,22,0,22,0,,,,,,,,,,,,,,,,,,,,,,,,933.1858834999148,None,,,,,,,,,,,,,,,,,health,new_b,white,22,145,149,927.6672634999268,None,927.6672634999268,None,4,3.228068199940026,927.6672634999268,None,930.9456813000143,None,931.4652189998887,None,931.4652189998887,None,f,1.6780991000123322,931.4652189998887,None,,,NC18,001,2021_Nov_01_1452,ProdSingRedo,3.2.3,59.95649551478444,
,,,,23,0,23,0,,,,,,,,,,,,,,,,,,,,,,,,942.137977699982,None,,,,,,,,,,,,,,,,,burden,sing,white,23,26,36,933.7078173998743,None,933.7078173998743,None,5,5.027524800039828,933.7078173998743,None,938.7799839999061,None,939.2914334998932,None,939.2914334998932,None,r,2.811790900072083,939.2914334998932,None,,,NC18,001,2021_Nov_01_1452,ProdSingRedo,3.2.3,59.95649551478444,
,,,,24,0,24,0,,,,,,,,,,,,,,,,,,,,,,,,948.8788318999577,None,,,,,,,,,,,,,,,,,individual,silent,white,24,67,160,942.6713423000183,None,942.6713423000183,None,2,4.000246400013566,942.6713423000183,None,946.7243617000058,None,947.2343913000077,None,947.2343913000077,None,r,1.6129075000062585,947.2343913000077,None,,,NC18,001,2021_Nov_01_1452,ProdSingRedo,3.2.3,59.95649551478444,
,,,,25,0,25,0,,,,,,,,,,,,,,,,,,,,,,,,956.9713679999113,None,,,,,,,,,,,,,,,,,division,new_c,white,25,159,101,949.3983626000118,None,949.3983626000118,None,6,4.1447978999931365,949.3983626000118,None,953.5837127999403,None,954.1030689000618,None,954.1030689000618,None,f,2.8401895998977125,954.1030689000618,None,,,NC18,001,2021_Nov_01_1452,ProdSingRedo,3.2.3,59.95649551478444,
,,,,26,0,26,0,,,,,,,,,,,,,,,,,,,,,,,,962.0017659000587,None,,,,,,,,,,,,,,,,,charter,new_a,white,26,111,47,957.4957240999211,None,957.4957240999211,None,2,2.727582100080326,957.4957240999211,None,960.2792692000512,None,960.794595999876,None,960.794595999876,None,r,1.1885056998580694,960.794595999876,None,,,NC18,001,2021_Nov_01_1452,ProdSingRedo,3.2.3,59.95649551478444,
,,,,27,0,27,0,,,,,,,,,,,,,,,,,,,,,,,,969.6201168999542,None,,,,,,,,,,,,,,,,,short,aloud,white,27,53,285,962.5029958998784,None,962.5029958998784,None,2,3.6003694001119584,962.5029958998784,None,966.141709699994,None,966.6601650998928,None,966.6601650998928,None,r,2.931281599914655,966.6601650998928,None,,,NC18,001,2021_Nov_01_1452,ProdSingRedo,3.2.3,59.95649551478444,
,,,,28,0,28,0,,,,,,,,,,,,,,,,,,,,,,,,975.7066039000638,None,,,,,,,,,,,,,,,,,emergency,sing,white,28,29,110,970.1471945999656,None,970.1471945999656,None,6,3.4043426997959614,970.1471945999656,None,973.6051592000294,None,974.1264199998695,None,974.1264199998695,None,f,1.5528997001238167,974.1264199998695,None,,,NC18,001,2021_Nov_01_1452,ProdSingRedo,3.2.3,59.95649551478444,
,,,,29,0,29,0,,,,,,,,,,,,,,,,,,,,,,,,980.5785854998976,None,,,,,,,,,,,,,,,,,trial,new_b,white,29,141,341,976.2307474999689,None,976.2307474999689,None,5,2.5605007000267506,976.2307474999689,None,978.8392328000627,None,979.3466874000151,None,979.3466874000151,None,f,1.1965702001471072,979.3466874000151,None,,,NC18,001,2021_Nov_01_1452,ProdSingRedo,3.2.3,59.95649551478444,
,,,,30,0,30,0,,,,,,,,,,,,,,,,,,,,,,,,987.3605652998667,None,,,,,,,,,,,,,,,,,principal,new_b,white,30,129,236,981.105854799971,None,981.105854799971,None,5,4.581527099944651,981.105854799971,None,985.7271977998316,None,986.245283999946,None,986.245283999946,None,r,1.0976918002124876,986.245283999946,None,,,NC18,001,2021_Nov_01_1452,ProdSingRedo,3.2.3,59.95649551478444,
,,,,31,0,31,0,,,,,,,,,,,,,,,,,,,,,,,,992.1889893999323,None,,,,,,,,,,,,,,,,,collection,aloud,white,31,51,54,987.8744057000149,None,987.8744057000149,None,2,2.628446100046858,987.8744057000149,None,990.5381193999201,None,991.0543308998458,None,991.0543308998458,None,r,1.1049534999765456,991.0543308998458,None,,,NC18,001,2021_Nov_01_1452,ProdSingRedo,3.2.3,59.95649551478444,
,,,,32,0,32,0,,,,,,,,,,,,,,,,,,,,,,,,1001.783233899856,None,,,,,,,,,,,,,,,,,right,new_b,white,32,144,265,992.7120453000534,None,992.7120453000534,None,4,6.967382999835536,992.7120453000534,None,999.7268234998919,None,1000.2478038000409,None,1000.2478038000409,None,f,1.511648900108412,1000.2478038000409,None,,,NC18,001,2021_Nov_01_1452,ProdSingRedo,3.2.3,59.95649551478444,
,,,,33,0,33,0,,,,,,,,,,,,,,,,,,,,,,,,1007.2374148999806,None,,,,,,,,,,,,,,,,,symbol,new_a,white,33,109,321,1002.3113025999628,None,1002.3113025999628,None,4,3.600044999970123,1002.3113025999628,None,1005.9483572999015,None,1006.4610915000085,None,1006.4610915000085,None,f,0.7383936999831349,1006.4610915000085,None,,,NC18,001,2021_Nov_01_1452,ProdSingRedo,3.2.3,59.95649551478444,
,,,,34,0,34,0,,,,,,,,,,,,,,,,,,,,,,,,1013.6931636000518,None,,,,,,,,,,,,,,,,,grade,silent,white,34,87,140,1007.7655276998412,None,1007.7655276998412,None,2,3.1218254000414163,1007.7655276998412,None,1010.934923700057,None,1011.4462520999368,None,1011.4462520999368,None,f,2.209136900026351,1011.4462520999368,None,,,NC18,001,2021_Nov_01_1452,ProdSingRedo,3.2.3,59.95649551478444,
,,,,35,0,35,0,,,,,,,,,,,,,,,,,,,,,,,,1019.1491757000331,None,,,,,,,,,,,,,,,,,partner,new_b,white,35,120,211,1014.2198987999,None,1014.2198987999,None,5,3.699411599896848,1014.2198987999,None,1017.9546174998395,None,1018.4710572999902,None,1018.4710572999902,None,r,0.6482582001481205,1018.4710572999902,None,,,NC18,001,2021_Nov_01_1452,ProdSingRedo,3.2.3,59.95649551478444,
,,,,36,0,36,0,,,,,,,,,,,,,,,,,,,,,,,,1024.1638223000336,None,,,,,,,,,,,,,,,,,commercial,new_b,white,36,139,61,1019.6826845998876,None,1019.6826845998876,None,5,3.4205267999786884,1019.6826845998876,None,1023.158005699981,None,1023.6634992999025,None,1023.6634992999025,None,r,0.47951700002886355,1023.6634992999025,None,,,NC18,001,2021_Nov_01_1452,ProdSingRedo,3.2.3,59.95649551478444,
,,,,37,0,37,0,,,,,,,,,,,,,,,,,,,,,,,,1029.683338999981,None,,,,,,,,,,,,,,,,,article,silent,white,37,76,11,1024.6673771999776,None,1024.6673771999776,None,3,3.6519438000395894,1024.6673771999776,None,1028.3530061000492,None,1028.8611182000022,None,1028.8611182000022,None,f,0.7862909999676049,1028.8611182000022,None,,,NC18,001,2021_Nov_01_1452,ProdSingRedo,3.2.3,59.95649551478444,
,,,,38,0,38,0,,,,,,,,,,,,,,,,,,,,,,,,1035.9981776999775,None,,,,,,,,,,,,,,,,,device,silent,white,38,74,93,1030.2060147998855,None,1030.2060147998855,None,5,2.8175702998414636,1030.2060147998855,None,1033.0592781999148,None,1033.5666199999396,None,1033.5666199999396,None,r,2.408678299980238,1033.5666199999396,None,,,NC18,001,2021_Nov_01_1452,ProdSingRedo,3.2.3,59.95649551478444,
,,,,39,0,39,0,,,,,,,,,,,,,,,,,,,,,,,,1039.5697550000623,None,,,,,,,,,,,,,,,,,agreement,aloud,white,39,41,5,1036.524350099964,None,1036.524350099964,None,5,2.07508679991588,1036.524350099964,None,1038.6463999999687,None,1039.1572539999615,None,1039.1572539999615,None,r,0.3781796998810023,1039.1572539999615,None,,,NC18,001,2021_Nov_01_1452,ProdSingRedo,3.2.3,59.95649551478444,
,,,,40,0,40,0,,,,,,,,,,,,,,,,,,,,,,,,1043.9910108998884,None,,,,,,,,,,,,,,,,,mankind,aloud,white,40,32,178,1040.0949909999035,None,1040.0949909999035,None,2,2.0485507999546826,1040.0949909999035,None,1042.186052300036,None,1042.7140509998426,None,1042.7140509998426,None,n,1.2453565001487732,1042.7140509998426,None,,,NC18,001,2021_Nov_01_1452,ProdSingRedo,3.2.3,59.95649551478444,
,,,,41,0,41,0,,,,,,,,,,,,,,,,,,,,,,,,1053.4667563999537,None,,,,,,,,,,,,,,,,,strain,sing,white,41,6,308,1044.5188096000347,None,1044.5188096000347,None,4,6.624822899932042,1044.5188096000347,None,1051.1997618000023,None,1051.7188657999504,None,1051.7188657999504,None,n,1.7204660999123007,1051.7188657999504,None,,,NC18,001,2021_Nov_01_1452,ProdSingRedo,3.2.3,59.95649551478444,
,,,,42,0,42,0,,,,,,,,,,,,,,,,,,,,,,,,1060.2061365998816,None,,,,,,,,,,,,,,,,,military,new_c,white,42,152,190,1053.9980109999888,None,1053.9980109999888,None,2,4.16945659997873,1053.9980109999888,None,1058.2229351999704,None,1058.7441833999474,None,1058.7441833999474,None,f,1.4390468001365662,1058.7441833999474,None,,,NC18,001,2021_Nov_01_1452,ProdSingRedo,3.2.3,59.95649551478444,
,,,,43,0,43,0,,,,,,,,,,,,,,,,,,,,,,,,1063.7099130998831,None,,,,,,,,,,,,,,,,,colonel,sing,white,43,19,55,1060.729075399926,None,1060.729075399926,None,2,1.9983545001596212,1060.729075399926,None,1062.7689071998466,None,1063.277579799993,None,1063.277579799993,None,f,0.4100106998812407,1063.277579799993,None,,,NC18,001,2021_Nov_01_1452,ProdSingRedo,3.2.3,59.95649551478444,
,,,,44,0,44,0,,,,,,,,,,,,,,,,,,,,,,,,1073.6201593000442,None,,,,,,,,,,,,,,,,,cousin,new_a,white,44,95,76,1064.2334976999555,None,1064.2334976999555,None,4,7.469973400002345,1064.2334976999555,None,1071.7522807000205,None,1072.2698270999826,None,1072.2698270999826,None,f,1.3214558002073318,1072.2698270999826,None,,,NC18,001,2021_Nov_01_1452,ProdSingRedo,3.2.3,59.95649551478444,
,,,,45,0,45,0,,,,,,,,,,,,,,,,,,,,,,,,1079.5026302998886,None,,,,,,,,,,,,,,,,,agency,silent,white,45,65,4,1074.14415619988,None,1074.14415619988,None,2,3.6632872000336647,1074.14415619988,None,1077.8539445998613,None,1078.3611393000465,None,1078.3611393000465,None,r,1.118023500079289,1078.3611393000465,None,,,NC18,001,2021_Nov_01_1452,ProdSingRedo,3.2.3,59.95649551478444,
,,,,46,0,46,0,,,,,,,,,,,,,,,,,,,,,,,,1087.5321662998758,None,,,,,,,,,,,,,,,,,match,new_c,white,46,166,181,1080.02251839987,None,1080.02251839987,None,2,6.088424799963832,1080.02251839987,None,1086.125764099881,None,1086.626484700013,None,1086.626484700013,None,f,0.8845441001467407,1086.626484700013,None,,,NC18,001,2021_Nov_01_1452,ProdSingRedo,3.2.3,59.95649551478444,
,,,,47,0,47,0,,,,,,,,,,,,,,,,,,,,,,,,1092.4726193000097,None,,,,,,,,,,,,,,,,,reading,silent,white,47,70,254,1088.0542091999669,None,1088.0542091999669,None,4,2.5532259000465274,1088.0542091999669,None,1090.6562040999997,None,1091.1738014998846,None,1091.1738014998846,None,r,1.2738252999261022,1091.1738014998846,None,,,NC18,001,2021_Nov_01_1452,ProdSingRedo,3.2.3,59.95649551478444,
,,,,48,0,48,0,,,,,,,,,,,,,,,,,,,,,,,,1096.4038549000397,None,,,,,,,,,,,,,,,,,religion,aloud,white,48,43,258,1092.9992172999773,None,1092.9992172999773,None,5,2.592119500041008,1092.9992172999773,None,1095.6419311999343,None,1096.1654187999666,None,1096.1654187999666,None,r,0.2020476998295635,1096.1654187999666,None,,,NC18,001,2021_Nov_01_1452,ProdSingRedo,3.2.3,59.95649551478444,
,,,,49,0,49,0,,,,,,,,,,,,,,,,,,,,,,,,1101.364607400028,None,,,,,,,,,,,,,,,,,addition,aloud,white,49,54,2,1096.9199882999528,None,1096.9199882999528,None,6,3.3192527999635786,1096.9199882999528,None,1100.284721300006,None,1100.7991471998394,None,1100.7991471998394,None,r,0.5363129999022931,1100.7991471998394,None,,,NC18,001,2021_Nov_01_1452,ProdSingRedo,3.2.3,59.95649551478444,
,,,,50,0,50,0,,,,,,,,,,,,,,,,,,,,,,,,1105.0167812998407,None,,,,,,,,,,,,,,,,,month,sing,white,50,27,193,1101.8859174998943,None,1101.8859174998943,None,2,1.6014439999125898,1101.8859174998943,None,1103.5358787998557,None,1104.0478749000467,None,1104.0478749000467,None,f,0.9434772001113743,1104.0478749000467,None,,,NC18,001,2021_Nov_01_1452,ProdSingRedo,3.2.3,59.95649551478444,
,,,,51,0,51,0,,,,,,,,,,,,,,,,,,,,,,,,1108.5812643999234,None,,,,,,,,,,,,,,,,,light,aloud,white,51,36,171,1105.5435372998472,None,1105.5435372998472,None,5,2.4478372999001294,1105.5435372998472,None,1108.0333992999513,None,1108.5569158999715,None,1108.5569158999715,None,r,0.0031002999749034643,1108.5569158999715,None,,,NC18,001,2021_Nov_01_1452,ProdSingRedo,3.2.3,59.95649551478444,
,,,,52,0,52,0,,,,,,,,,,,,,,,,,,,,,,,,1112.892767000012,None,,,,,,,,,,,,,,,,,history,new_b,white,52,122,153,1109.0985864000395,None,1109.0985864000395,None,2,2.4606196000240743,1109.0985864000395,None,1111.5951413998846,None,1112.110956700053,None,1112.110956700053,None,f,0.7604213999584317,1112.110956700053,None,,,NC18,001,2021_Nov_01_1452,ProdSingRedo,3.2.3,59.95649551478444,
,,,,53,0,53,0,,,,,,,,,,,,,,,,,,,,,,,,1115.9283067998476,None,,,,,,,,,,,,,,,,,comfort,aloud,white,53,34,59,1113.418910499895,None,1113.418910499895,None,2,1.5961492999922484,1113.418910499895,None,1115.0481640000362,None,1115.5641600999516,None,1115.5641600999516,None,f,0.33127709990367293,1115.5641600999516,None,,,NC18,001,2021_Nov_01_1452,ProdSingRedo,3.2.3,59.95649551478444,
,,,,54,0,54,0,,,,,,,,,,,,,,,,,,,,,,,,1119.9830838998314,None,,,,,,,,,,,,,,,,,rough,new_a,white,54,106,266,1116.4549169000238,None,1116.4549169000238,None,5,2.584498800104484,1116.4549169000238,None,1119.0827490999363,None,1119.6023098998703,None,1119.6023098998703,None,r,0.3491128000896424,1119.6023098998703,None,,,NC18,001,2021_Nov_01_1452,ProdSingRedo,3.2.3,59.95649551478444,
,,,,55,0,55,0,,,,,,,,,,,,,,,,,,,,,,,,1126.4663227999117,None,,,,,,,,,,,,,,,,,accident,sing,white,55,14,0,1120.5082777000498,None,1120.5082777000498,None,6,5.347287899814546,1120.5082777000498,None,1125.9040353999007,None,1126.4237048998475,None,1126.4237048998475,None,r,0.015476899920031428,1126.4237048998475,None,,,NC18,001,2021_Nov_01_1452,ProdSingRedo,3.2.3,59.95649551478444,
,,,,56,0,56,0,,,,,,,,,,,,,,,,,,,,,,,,1130.6431839000434,None,,,,,,,,,,,,,,,,,broad,sing,white,56,7,31,1126.98500970006,None,1126.98500970006,None,6,2.8863934001419693,1126.98500970006,None,1129.912764400011,None,1130.4341333999764,None,1130.4341333999764,None,r,0.17322019999846816,1130.4341333999764,None,,,NC18,001,2021_Nov_01_1452,ProdSingRedo,3.2.3,59.95649551478444,
,,,,57,0,57,0,,,,,,,,,,,,,,,,,,,,,,,,1135.9836988998577,None,,,,,,,,,,,,,,,,,defeat,silent,white,57,89,88,1131.172921600053,None,1131.172921600053,None,2,2.250456599984318,1131.172921600053,None,1133.463555000024,None,1133.9719471998978,None,1133.9719471998978,None,f,1.9875359998550266,1133.9719471998978,None,,,NC18,001,2021_Nov_01_1452,ProdSingRedo,3.2.3,59.95649551478444,
,,,,58,0,58,0,,,,,,,,,,,,,,,,,,,,,,,,1139.5360264000483,None,,,,,,,,,,,,,,,,,nature,silent,white,58,78,200,1136.5098878999706,None,1136.5098878999706,None,2,2.0415130998007953,1136.5098878999706,None,1138.6042030998506,None,1139.1091668000445,None,1139.1091668000445,None,f,0.4021214998792857,1139.1091668000445,None,,,NC18,001,2021_Nov_01_1452,ProdSingRedo,3.2.3,59.95649551478444,
,,,,59,0,59,0,,,,,,,,,,,,,,,,,,,,,,,,1148.0448737000115,None,,,,,,,,,,,,,,,,,literature,new_a,white,59,116,173,1140.0736225000583,None,1140.0736225000583,None,2,5.405827200040221,1140.0736225000583,None,1145.5290870000608,None,1146.0465096000116,None,1146.0465096000116,None,n,1.9611351999919862,1146.0465096000116,None,,,NC18,001,2021_Nov_01_1452,ProdSingRedo,3.2.3,59.95649551478444,
,,,,60,0,60,0,,,,,,,,,,,,,,,,,,,,,,,,1152.4666652998421,None,,,,,,,,,,,,,,,,,service,silent,white,60,63,280,1148.5597162998747,None,1148.5597162998747,None,2,2.527310200035572,1148.5597162998747,None,1151.108762799995,None,1151.6189603998791,None,1151.6189603998791,None,n,0.8205466999206692,1151.6189603998791,None,,,NC18,001,2021_Nov_01_1452,ProdSingRedo,3.2.3,59.95649551478444,
,,,,61,0,61,0,,,,,,,,,,,,,,,,,,,,,,,,1156.6542706000619,None,,,,,,,,,,,,,,,,,stand,sing,white,61,5,302,1152.991810000036,None,1152.991810000036,None,5,2.07176630012691,1152.991810000036,None,1155.1169562998693,None,1155.6387922998983,None,1155.6387922998983,None,f,0.9926881000865251,1155.6387922998983,None,,,NC18,001,2021_Nov_01_1452,ProdSingRedo,3.2.3,59.95649551478444,
,,,,62,0,62,0,,,,,,,,,,,,,,,,,,,,,,,,1160.8407614000607,None,,,,,,,,,,,,,,,,,drink,new_b,white,62,132,105,1157.1769264000468,None,1157.1769264000468,None,2,2.110652699833736,1157.1769264000468,None,1159.3335110999178,None,1159.8442035999615,None,1159.8442035999615,None,n,0.971495300065726,1159.8442035999615,None,,,NC18,001,2021_Nov_01_1452,ProdSingRedo,3.2.3,59.95649551478444,
,,,,63,0,63,0,,,,,,,,,,,,,,,,,,,,,,,,1165.9464426999912,None,,,,,,,,,,,,,,,,,block,new_a,white,63,104,25,1161.369237100007,None,1161.369237100007,None,5,2.9259662001859397,1161.369237100007,None,1164.329981900053,None,1164.847347700037,None,1164.847347700037,None,r,1.0721076999325305,1164.847347700037,None,,,NC18,001,2021_Nov_01_1452,ProdSingRedo,3.2.3,59.95649551478444,
,,,,64,0,64,0,,,,,,,,,,,,,,,,,,,,,,,,1173.2025429999921,None,,,,,,,,,,,,,,,,,childhood,aloud,white,64,52,49,1166.4694070999976,None,1166.4694070999976,None,5,5.290197700029239,1166.4694070999976,None,1171.797285299981,None,1172.3054919999558,None,1172.3054919999558,None,f,0.8619479001499712,1172.3054919999558,None,,,NC18,001,2021_Nov_01_1452,ProdSingRedo,3.2.3,59.95649551478444,
,,,,65,0,65,0,,,,,,,,,,,,,,,,,,,,,,,,1178.1599595998414,None,,,,,,,,,,,,,,,,,graduate,sing,white,65,9,141,1173.7322606998496,None,1173.7322606998496,None,6,3.0913835000246763,1173.7322606998496,None,1176.876973599894,None,1177.3974144998938,None,1177.3974144998938,None,f,0.7382098000962287,1177.3974144998938,None,,,NC18,001,2021_Nov_01_1452,ProdSingRedo,3.2.3,59.95649551478444,
,,,,66,0,66,0,,,,,,,,,,,,,,,,,,,,,,,,1183.9471903999802,None,,,,,,,,,,,,,,,,,fight,silent,white,66,75,127,1178.6830833998974,None,1178.6830833998974,None,2,2.220266600139439,1178.6830833998974,None,1180.9438813999295,None,1181.466142399935,None,1181.466142399935,None,n,2.453438299940899,1181.466142399935,None,,,NC18,001,2021_Nov_01_1452,ProdSingRedo,3.2.3,59.95649551478444,
,,,,67,0,67,0,,,,,,,,,,,,,,,,,,,,,,,,1190.687530899886,None,,,,,,,,,,,,,,,,,present,silent,white,67,77,231,1184.4697781000286,None,1184.4697781000286,None,4,3.3136724000796676,1184.4697781000286,None,1187.8344793999568,None,1188.3496570999268,None,1188.3496570999268,None,f,2.313720100093633,1188.3496570999268,None,,,NC18,001,2021_Nov_01_1452,ProdSingRedo,3.2.3,59.95649551478444,
,,,,68,0,68,0,,,,,,,,,,,,,,,,,,,,,,,,1196.9769146998879,None,,,,,,,,,,,,,,,,,quick,new_a,white,68,96,248,1191.2173265998717,None,1191.2173265998717,None,2,1.5501111999619752,1191.2173265998717,None,1192.809119099984,None,1193.3289429999422,None,1193.3289429999422,None,f,3.6227753998246044,1193.3289429999422,None,,,NC18,001,2021_Nov_01_1452,ProdSingRedo,3.2.3,59.95649551478444,
,,,,69,0,69,0,,,,,,,,,,,,,,,,,,,,,,,,1203.9893632999156,None,,,,,,,,,,,,,,,,,travel,aloud,white,69,58,338,1197.5073179998435,None,1197.5073179998435,None,4,4.268372300080955,1197.5073179998435,None,1201.8166634999216,None,1202.3471975999419,None,1202.3471975999419,None,r,1.6041671999264508,1202.3471975999419,None,,,NC18,001,2021_Nov_01_1452,ProdSingRedo,3.2.3,59.95649551478444,
,,,,70,0,70,0,,,,,,,,,,,,,,,,,,,,,,,,1209.9897204998415,None,,,,,,,,,,,,,,,,,brilliant,aloud,white,70,38,30,1204.4944124999456,None,1204.4944124999456,None,2,3.5691017999779433,1204.4944124999456,None,1208.1075321000535,None,1208.612594799837,None,1208.612594799837,None,r,1.3468139998149127,1208.612594799837,None,,,NC18,001,2021_Nov_01_1452,ProdSingRedo,3.2.3,59.95649551478444,
,,,,71,0,71,0,,,,,,,,,,,,,,,,,,,,,,,,1214.661531599937,None,,,,,,,,,,,,,,,,,government,sing,white,71,16,139,1210.5167192998342,None,1210.5167192998342,None,6,2.6103274000342935,1210.5167192998342,None,1213.1562542999163,None,1213.6754586999305,None,1213.6754586999305,None,r,0.9479931001551449,1213.6754586999305,None,,,NC18,001,2021_Nov_01_1452,ProdSingRedo,3.2.3,59.95649551478444,
,,,,72,0,72,0,,,,,,,,,,,,,,,,,,,,,,,,1220.0830303998664,None,,,,,,,,,,,,,,,,,candidate,silent,white,72,84,39,1215.1921778998803,None,1215.1921778998803,None,4,3.9193874998018146,1215.1921778998803,None,1219.161372500006,None,1219.6910856000613,None,1219.6910856000613,None,f,0.36442060000263155,1219.6910856000613,None,,,NC18,001,2021_Nov_01_1452,ProdSingRedo,3.2.3,59.95649551478444,
,,,,73,0,73,0,,,,,,,,,,,,,,,,,,,,,,,,1224.8522423999384,None,,,,,,,,,,,,,,,,,throw,new_c,white,73,176,330,1220.6062559999991,None,1220.6062559999991,None,2,2.9372823000885546,1220.6062559999991,None,1223.588553099893,None,1224.1033739000559,None,1224.1033739000559,None,n,0.7041543000377715,1224.1033739000559,None,,,NC18,001,2021_Nov_01_1452,ProdSingRedo,3.2.3,59.95649551478444,
,,,,74,0,74,0,,,,,,,,,,,,,,,,,,,,,,,,1229.2259678998962,None,,,,,,,,,,,,,,,,,review,new_c,white,74,174,263,1225.39001740003,None,1225.39001740003,None,4,2.937435199972242,1225.39001740003,None,1228.3782669999637,None,1228.8984071998857,None,1228.8984071998857,None,f,0.2931524000596255,1228.8984071998857,None,,,NC18,001,2021_Nov_01_1452,ProdSingRedo,3.2.3,59.95649551478444,
,,,,75,0,75,0,,,,,,,,,,,,,,,,,,,,,,,,1232.880377399968,None,,,,,,,,,,,,,,,,,danger,new_a,white,75,114,85,1229.7554854999762,None,1229.7554854999762,None,4,2.443853500066325,1229.7554854999762,None,1232.2463197000325,None,1232.7692310998682,None,1232.7692310998682,None,f,0.08625870011746883,1232.7692310998682,None,,,NC18,001,2021_Nov_01_1452,ProdSingRedo,3.2.3,59.95649551478444,
,,,,76,0,76,0,,,,,,,,,,,,,,,,,,,,,,,,1236.3484902000055,None,,,,,,,,,,,,,,,,,bitter,sing,white,76,11,23,1233.4038620998617,None,1233.4038620998617,None,2,1.8595655001699924,1233.4038620998617,None,1235.3040839000605,None,1235.8177815000527,None,1235.8177815000527,None,n,0.5095534999854863,1235.8177815000527,None,,,NC18,001,2021_Nov_01_1452,ProdSingRedo,3.2.3,59.95649551478444,
,,,,77,0,77,0,,,,,,,,,,,,,,,,,,,,,,,,1242.5591516999993,None,,,,,,,,,,,,,,,,,interior,aloud,white,77,59,164,1236.8708527998533,None,1236.8708527998533,None,5,4.976636900100857,1236.8708527998533,None,1241.8839996999595,None,1242.4055249998346,None,1242.4055249998346,None,f,0.11394179984927177,1242.4055249998346,None,,,NC18,001,2021_Nov_01_1452,ProdSingRedo,3.2.3,59.95649551478444,
,,,,78,0,78,0,,,,,,,,,,,,,,,,,,,,,,,,1245.2255418000277,None,,,,,,,,,,,,,,,,,break,aloud,white,78,33,26,1243.0721419998445,None,1243.0721419998445,None,5,1.5035982001572847,1243.0721419998445,None,1244.6244935998693,None,1245.1538690000307,None,1245.1538690000307,None,f,0.03780049993656576,1245.1538690000307,None,,,NC18,001,2021_Nov_01_1452,ProdSingRedo,3.2.3,59.95649551478444,
,,,,79,0,79,0,,,,,,,,,,,,,,,,,,,,,,,,1251.3143936998677,None,,,,,,,,,,,,,,,,,message,new_a,white,79,99,189,1245.7547329999506,None,1245.7547329999506,None,2,4.380466600181535,1245.7547329999506,None,1250.1660304998513,None,1250.6832121999469,None,1250.6832121999469,None,r,0.6046778000891209,1250.6832121999469,None,,,NC18,001,2021_Nov_01_1452,ProdSingRedo,3.2.3,59.95649551478444,
,,,,80,0,80,0,,,,,,,,,,,,,,,,,,,,,,,,1255.2183305998333,None,,,,,,,,,,,,,,,,,community,new_a,white,80,107,63,1251.8445582999848,None,1251.8445582999848,None,2,2.3069270001724362,1251.8445582999848,None,1254.197978100041,None,1254.7056541000493,None,1254.7056541000493,None,r,0.4858404998667538,1254.7056541000493,None,,,NC18,001,2021_Nov_01_1452,ProdSingRedo,3.2.3,59.95649551478444,
,,,,81,0,81,0,,,,,,,,,,,,,,,,,,,,,,,,1259.522845899919,None,,,,,,,,,,,,,,,,,solution,sing,white,81,3,294,1255.7449012999423,None,1255.7449012999423,None,2,1.7667264000046998,1255.7449012999423,None,1257.5551741998643,None,1258.076183799887,None,1258.076183799887,None,f,1.4114641000051051,1258.076183799887,None,,,NC18,001,2021_Nov_01_1452,ProdSingRedo,3.2.3,59.95649551478444,
,,,,82,0,82,0,,,,,,,,,,,,,,,,,,,,,,,,1264.0264540000353,None,,,,,,,,,,,,,,,,,comedy,new_c,white,82,150,58,1260.0453633998986,None,1260.0453633998986,None,5,2.5861326998565346,1260.0453633998986,None,1262.673992899945,None,1263.1942371998448,None,1263.1942371998448,None,f,0.7974863001145422,1263.1942371998448,None,,,NC18,001,2021_Nov_01_1452,ProdSingRedo,3.2.3,59.95649551478444,
,,,,83,0,83,0,,,,,,,,,,,,,,,,,,,,,,,,1266.7292613999452,None,,,,,,,,,,,,,,,,,color,new_b,white,83,137,56,1264.537761699874,None,1264.537761699874,None,5,1.3660538999829441,1264.537761699874,None,1265.9488111999817,None,1266.4622332998551,None,1266.4622332998551,None,f,0.23331540008075535,1266.4622332998551,None,,,NC18,001,2021_Nov_01_1452,ProdSingRedo,3.2.3,59.95649551478444,
,,,,84,0,84,0,,,,,,,,,,,,,,,,,,,,,,,,1271.117891300004,None,,,,,,,,,,,,,,,,,personnel,new_c,white,84,158,219,1267.2521039999556,None,1267.2521039999556,None,4,1.6678377001080662,1267.2521039999556,None,1268.9581452999264,None,1269.4660720999818,None,1269.4660720999818,None,r,1.61371220019646,1269.4660720999818,None,,,NC18,001,2021_Nov_01_1452,ProdSingRedo,3.2.3,59.95649551478444,
,,,,85,0,85,0,,,,,,,,,,,,,,,,,,,,,,,,1274.8646143998485,None,,,,,,,,,,,,,,,,,youth,new_a,white,85,117,359,1271.647507699905,None,1271.647507699905,None,4,2.312081800075248,1271.647507699905,None,1274.005961399991,None,1274.5260534000117,None,1274.5260534000117,None,r,0.31304079992696643,1274.5260534000117,None,,,NC18,001,2021_Nov_01_1452,ProdSingRedo,3.2.3,59.95649551478444,
,,,,86,0,86,0,,,,,,,,,,,,,,,,,,,,,,,,1279.2431608999614,None,,,,,,,,,,,,,,,,,write,new_c,white,86,163,358,1275.3751939998474,None,1275.3751939998474,None,2,1.4159671999514103,1275.3751939998474,None,1276.83158680005,None,1277.3449576999992,None,1277.3449576999992,None,f,1.862629999872297,1277.3449576999992,None,,,NC18,001,2021_Nov_01_1452,ProdSingRedo,3.2.3,59.95649551478444,
,,,,87,0,87,0,,,,,,,,,,,,,,,,,,,,,,,,1285.199765899917,None,,,,,,,,,,,,,,,,,damage,silent,white,87,60,83,1279.7725994999055,None,1279.7725994999055,None,2,4.266816900111735,1279.7725994999055,None,1284.0761793998536,None,1284.5855812998489,None,1284.5855812998489,None,f,0.5819679000414908,1284.5855812998489,None,,,NC18,001,2021_Nov_01_1452,ProdSingRedo,3.2.3,59.95649551478444,
,,,,88,0,88,0,,,,,,,,,,,,,,,,,,,,,,,,1288.2180287998635,None,,,,,,,,,,,,,,,,,bicycle,new_b,white,88,127,21,1285.725270499941,None,1285.725270499941,None,2,1.2339543998241425,1285.725270499941,None,1286.9850727999583,None,1287.5060492998455,None,1287.5060492998455,None,r,0.6854864999186248,1287.5060492998455,None,,,NC18,001,2021_Nov_01_1452,ProdSingRedo,3.2.3,59.95649551478444,
,,,,89,0,89,0,,,,,,,,,,,,,,,,,,,,,,,,1292.8726190000307,None,,,,,,,,,,,,,,,,,education,new_b,white,89,140,108,1288.7486548998859,None,1288.7486548998859,None,5,3.2429074000101537,1288.7486548998859,None,1292.0372249998618,None,1292.5602034998592,None,1292.5602034998592,None,f,0.2875023998785764,1292.5602034998592,None,,,NC18,001,2021_Nov_01_1452,ProdSingRedo,3.2.3,59.95649551478444,
,,,,90,0,90,0,,,,,,,,,,,,,,,,,,,,,,,,1296.9267849999014,None,,,,,,,,,,,,,,,,,quantity,new_c,white,90,154,245,1293.4021800998598,None,1293.4021800998598,None,4,2.8294794999528676,1293.4021800998598,None,1296.2786810998805,None,1296.7971697999164,None,1296.7971697999164,None,f,0.10611930000595748,1296.7971697999164,None,,,NC18,001,2021_Nov_01_1452,ProdSingRedo,3.2.3,59.95649551478444,
,,,,91,0,91,0,,,,,,,,,,,,,,,,,,,,,,,,1301.3865145999007,None,,,,,,,,,,,,,,,,,notice,new_a,white,91,119,201,1297.4481643000618,None,1297.4481643000618,None,2,2.5354514999780804,1297.4481643000618,None,1300.0260552000254,None,1300.5452836998738,None,1300.5452836998738,None,r,0.8142729999963194,1300.5452836998738,None,,,NC18,001,2021_Nov_01_1452,ProdSingRedo,3.2.3,59.95649551478444,
,,,,92,0,92,0,,,,,,,,,,,,,,,,,,,,,,,,1304.402117999969,None,,,,,,,,,,,,,,,,,appeal,new_b,white,92,134,9,1301.9131725998595,None,1301.9131725998595,None,4,1.6785611999221146,1301.9131725998595,None,1303.6366936999839,None,1304.1556333999615,None,1304.1556333999615,None,f,0.21998480008915067,1304.1556333999615,None,,,NC18,001,2021_Nov_01_1452,ProdSingRedo,3.2.3,59.95649551478444,
,,,,93,0,93,0,,,,,,,,,,,,,,,,,,,,,,,,1309.9918879999314,None,,,,,,,,,,,,,,,,,crisis,new_a,white,93,110,79,1304.9233297000173,None,1304.9233297000173,None,2,3.068187299882993,1304.9233297000173,None,1308.033860599855,None,1308.5365476999432,None,1308.5365476999432,None,n,1.4310163999907672,1308.5365476999432,None,,,NC18,001,2021_Nov_01_1452,ProdSingRedo,3.2.3,59.95649551478444,
,,,,94,0,94,0,,,,,,,,,,,,,,,,,,,,,,,,1313.410113999853,None,,,,,,,,,,,,,,,,,dance,new_c,white,94,173,84,1310.515973799862,None,1310.515973799862,None,2,1.8755852000322193,1310.515973799862,None,1312.4399576999713,None,1312.9614651000593,None,1312.9614651000593,None,r,0.4140576000791043,1312.9614651000593,None,,,NC18,001,2021_Nov_01_1452,ProdSingRedo,3.2.3,59.95649551478444,
,,,,95,0,95,0,,,,,,,,,,,,,,,,,,,,,,,,1316.8667560999747,None,,,,,,,,,,,,,,,,,vision,sing,white,95,23,347,1313.935891999863,None,1313.935891999863,None,5,2.2316514998674393,1313.935891999863,None,1316.2122718000319,None,1316.7318068998866,None,1316.7318068998866,None,f,0.10774230002425611,1316.7318068998866,None,,,NC18,001,2021_Nov_01_1452,ProdSingRedo,3.2.3,59.95649551478444,
,,,,96,0,96,0,,,,,,,,,,,,,,,,,,,,,,,,1319.3330624999944,None,,,,,,,,,,,,,,,,,shock,new_b,white,96,124,284,1317.3915019999258,None,1317.3915019999258,None,5,1.2800586998928338,1317.3915019999258,None,1318.7132647000253,None,1319.2336164000444,None,1319.2336164000444,None,f,0.062072299886494875,1319.2336164000444,None,,,NC18,001,2021_Nov_01_1452,ProdSingRedo,3.2.3,59.95649551478444,
,,,,97,0,97,0,,,,,,,,,,,,,,,,,,,,,,,,1326.708193999948,None,,,,,,,,,,,,,,,,,piece,silent,white,97,73,221,1319.8558685998432,None,1319.8558685998432,None,3,4.303551700199023,1319.8558685998432,None,1324.204694399843,None,1324.7146941998508,None,1324.7146941998508,None,r,1.9649032999295741,1324.7146941998508,None,,,NC18,001,2021_Nov_01_1452,ProdSingRedo,3.2.3,59.95649551478444,
,,,,98,0,98,0,,,,,,,,,,,,,,,,,,,,,,,,1330.4818788999692,None,,,,,,,,,,,,,,,,,mayor,sing,white,98,2,183,1327.233583400026,None,1327.233583400026,None,5,2.5178023998159915,1327.233583400026,None,1329.789414800005,None,1330.3132503998931,None,1330.3132503998931,None,f,0.1263830999378115,1330.3132503998931,None,,,NC18,001,2021_Nov_01_1452,ProdSingRedo,3.2.3,59.95649551478444,
,,,,99,0,99,0,,,,,,,,,,,,,,,,,,,,,,,,1332.8801646998618,None,,,,,,,,,,,,,,,,,incident,aloud,white,99,40,158,1331.0003585999366,None,1331.0003585999366,None,5,1.2870300998911262,1331.0003585999366,None,1332.3200974999927,None,1332.8313938998617,None,1332.8313938998617,None,f,0.02407480007968843,1332.8313938998617,None,,,NC18,001,2021_Nov_01_1452,ProdSingRedo,3.2.3,59.95649551478444,
,,,,100,0,100,0,,,,,,,,,,,,,,,,,,,,,,,,1336.183087799931,None,,,,,,,,,,,,,,,,,bright,new_a,white,100,101,29,1333.4096786999144,None,1333.4096786999144,None,5,1.3819936998188496,1333.4096786999144,None,1334.8319548999425,None,1335.3549064998515,None,1335.3549064998515,None,f,0.8047331999987364,1335.3549064998515,None,,,NC18,001,2021_Nov_01_1452,ProdSingRedo,3.2.3,59.95649551478444,
,,,,101,0,101,0,,,,,,,,,,,,,,,,,,,,,,,,1339.5439883000217,None,,,,,,,,,,,,,,,,,corner,aloud,white,101,30,69,1336.7044357999694,None,1336.7044357999694,None,3,1.8552604001015425,1336.7044357999694,None,1338.6111182998866,None,1339.1174714998342,None,1339.1174714998342,None,r,0.39384760009124875,1339.1174714998342,None,,,NC18,001,2021_Nov_01_1452,ProdSingRedo,3.2.3,59.95649551478444,
,,,,102,0,102,0,,,,,,,,,,,,,,,,,,,,,,,,1343.528060700046,None,,,,,,,,,,,,,,,,,empty,silent,white,102,81,112,1340.062706100056,None,1340.062706100056,None,3,2.288698800140992,1340.062706100056,None,1342.3977544999216,None,1342.9099741999526,None,1342.9099741999526,None,r,0.5777245999779552,1342.9099741999526,None,,,NC18,001,2021_Nov_01_1452,ProdSingRedo,3.2.3,59.95649551478444,
,,,,103,0,103,0,,,,,,,,,,,,,,,,,,,,,,,,1347.2094121000264,None,,,,,,,,,,,,,,,,,skill,new_c,white,103,171,289,1344.0518745998852,None,1344.0518745998852,None,4,2.131743799895048,1344.0518745998852,None,1346.2248263999354,None,1346.7430432999972,None,1346.7430432999972,None,f,0.44050020002759993,1346.7430432999972,None,,,NC18,001,2021_Nov_01_1452,ProdSingRedo,3.2.3,59.95649551478444,
,,,,104,0,104,0,,,,,,,,,,,,,,,,,,,,,,,,1353.2173546999693,None,,,,,,,,,,,,,,,,,sleep,silent,white,104,72,290,1347.7317830000538,None,1347.7317830000538,None,6,3.4838633998297155,1347.7317830000538,None,1351.2824967000633,None,1351.7955284998752,None,1351.7955284998752,None,f,1.3960692000109702,1351.7955284998752,None,,,NC18,001,2021_Nov_01_1452,ProdSingRedo,3.2.3,59.95649551478444,
,,,,105,0,105,0,,,,,,,,,,,,,,,,,,,,,,,,1357.1036016999278,None,,,,,,,,,,,,,,,,,drama,aloud,white,105,37,103,1353.7461351000238,None,1353.7461351000238,None,5,2.0613879000302404,1353.7461351000238,None,1355.852828499861,None,1356.360681900056,None,1356.360681900056,None,f,0.7187906999606639,1356.360681900056,None,,,NC18,001,2021_Nov_01_1452,ProdSingRedo,3.2.3,59.95649551478444,
,,,,106,0,106,0,,,,,,,,,,,,,,,,,,,,,,,,1363.4924641000107,None,,,,,,,,,,,,,,,,,attack,sing,white,106,28,13,1357.6308648998383,None,1357.6308648998383,None,6,2.8967458000406623,1357.6308648998383,None,1360.575481100008,None,1361.1002432999667,None,1361.1002432999667,None,f,2.3553377999924123,1361.1002432999667,None,,,NC18,001,2021_Nov_01_1452,ProdSingRedo,3.2.3,59.95649551478444,
,,,,107,0,107,0,,,,,,,,,,,,,,,,,,,,,,,,1367.164636499947,None,,,,,,,,,,,,,,,,,series,aloud,white,107,57,279,1364.0159310000017,None,1364.0159310000017,None,2,1.855697900056839,1364.0159310000017,None,1365.913462499855,None,1366.4287759000435,None,1366.4287759000435,None,r,0.7068280000239611,1366.4287759000435,None,,,NC18,001,2021_Nov_01_1452,ProdSingRedo,3.2.3,59.95649551478444,
,,,,108,0,108,0,,,,,,,,,,,,,,,,,,,,,,,,1371.2669734999072,None,,,,,,,,,,,,,,,,,volume,silent,white,108,64,349,1367.693518599961,None,1367.693518599961,None,3,2.52995130000636,1367.693518599961,None,1370.2517440000083,None,1370.7768741999753,None,1370.7768741999753,None,r,0.45467990008182824,1370.7768741999753,None,,,NC18,001,2021_Nov_01_1452,ProdSingRedo,3.2.3,59.95649551478444,
,,,,109,0,109,0,,,,,,,,,,,,,,,,,,,,,,,,1379.6602739000227,None,,,,,,,,,,,,,,,,,phrase,new_c,white,109,162,220,1371.7962358999066,None,1371.7962358999066,None,2,5.467515999916941,1371.7962358999066,None,1377.3074433000293,None,1377.8263286000583,None,1377.8263286000583,None,n,1.80529799987562,1377.8263286000583,None,,,NC18,001,2021_Nov_01_1452,ProdSingRedo,3.2.3,59.95649551478444,
,,,,110,0,110,0,,,,,,,,,,,,,,,,,,,,,,,,1385.2666156999767,None,,,,,,,,,,,,,,,,,state,silent,white,110,85,303,1380.186457999982,None,1380.186457999982,None,2,1.717123200185597,1380.186457999982,None,1381.9459479998332,None,1382.4651401999872,None,1382.4651401999872,None,f,2.7747050998732448,1382.4651401999872,None,,,NC18,001,2021_Nov_01_1452,ProdSingRedo,3.2.3,59.95649551478444,
,,,,111,0,111,0,,,,,,,,,,,,,,,,,,,,,,,,1388.7853931998834,None,,,,,,,,,,,,,,,,,interview,new_a,white,111,103,165,1385.7964583998546,None,1385.7964583998546,None,5,1.8910926999524236,1385.7964583998546,None,1387.734135699924,None,1388.2589046000503,None,1388.2589046000503,None,r,0.5006246999837458,1388.2589046000503,None,,,NC18,001,2021_Nov_01_1452,ProdSingRedo,3.2.3,59.95649551478444,
,,,,112,0,112,0,,,,,,,,,,,,,,,,,,,,,,,,1392.6567597999237,None,,,,,,,,,,,,,,,,,shape,new_b,white,112,128,282,1389.3128444000613,None,1389.3128444000613,None,4,2.550731400027871,1389.3128444000613,None,1391.9004120999016,None,1392.4266904999968,None,1392.4266904999968,None,f,0.1969244999345392,1392.4266904999968,None,,,NC18,001,2021_Nov_01_1452,ProdSingRedo,3.2.3,59.95649551478444,
,,,,113,0,113,0,,,,,,,,,,,,,,,,,,,,,,,,1396.359485300025,None,,,,,,,,,,,,,,,,,power,new_b,white,113,123,230,1393.1825269998517,None,1393.1825269998517,None,5,1.9290065001696348,1393.1825269998517,None,1395.1585138000082,None,1395.6663401999976,None,1395.6663401999976,None,f,0.6691608999390155,1395.6663401999976,None,,,NC18,001,2021_Nov_01_1452,ProdSingRedo,3.2.3,59.95649551478444,
,,,,114,0,114,0,,,,,,,,,,,,,,,,,,,,,,,,1400.9470714000054,None,,,,,,,,,,,,,,,,,portion,new_c,white,114,172,228,1396.8828298000153,None,1396.8828298000153,None,2,2.5570789000485092,1396.8828298000153,None,1399.474706399953,None,1399.9898500000127,None,1399.9898500000127,None,r,0.9294386999681592,1399.9898500000127,None,,,NC18,001,2021_Nov_01_1452,ProdSingRedo,3.2.3,59.95649551478444,
,,,,115,0,115,0,,,,,,,,,,,,,,,,,,,,,,,,1405.1679807000328,None,,,,,,,,,,,,,,,,,instrument,aloud,white,115,39,163,1401.462297799997,None,1401.462297799997,None,2,2.0733539999928325,1401.462297799997,None,1403.5815796998795,None,1404.1065229000524,None,1404.1065229000524,None,r,1.0290387999266386,1404.1065229000524,None,,,NC18,001,2021_Nov_01_1452,ProdSingRedo,3.2.3,59.95649551478444,
,,,,116,0,116,0,,,,,,,,,,,,,,,,,,,,,,,,1409.4893169999123,None,,,,,,,,,,,,,,,,,account,sing,white,116,21,1,1405.6946972999722,None,1405.6946972999722,None,2,2.080946900183335,1405.6946972999722,None,1407.819935000036,None,1408.32529219985,None,1408.32529219985,None,f,1.1385997000616044,1408.32529219985,None,,,NC18,001,2021_Nov_01_1452,ProdSingRedo,3.2.3,59.95649551478444,
,,,,117,0,117,0,,,,,,,,,,,,,,,,,,,,,,,,1413.592656099936,None,,,,,,,,,,,,,,,,,range,new_a,white,117,98,251,1410.0189851999748,None,1410.0189851999748,None,6,2.1801628000102937,1410.0189851999748,None,1412.2282475000247,None,1412.7458708998747,None,1412.7458708998747,None,f,0.813716399949044,1412.7458708998747,None,,,NC18,001,2021_Nov_01_1452,ProdSingRedo,3.2.3,59.95649551478444,
,,,,118,0,118,0,,,,,,,,,,,,,,,,,,,,,,,,1418.4482797998935,None,,,,,,,,,,,,,,,,,school,new_c,white,118,151,274,1414.116619499866,None,1414.116619499866,None,3,3.5390308999922127,1414.116619499866,None,1417.6938401998486,None,1418.213755799923,None,1418.213755799923,None,r,0.20174479996785522,1418.213755799923,None,,,NC18,001,2021_Nov_01_1452,ProdSingRedo,3.2.3,59.95649551478444,
,,,,119,0,119,0,,,,,,,,,,,,,,,,,,,,,,,,1422.8534580999985,None,,,,,,,,,,,,,,,,,patient,aloud,white,119,48,213,1418.9789201999083,None,1418.9789201999083,None,5,2.060677999863401,1418.9789201999083,None,1421.082407000009,None,1421.588524499908,None,1421.588524499908,None,r,1.2270885999314487,1421.588524499908,None,,,NC18,001,2021_Nov_01_1452,ProdSingRedo,3.2.3,59.95649551478444,
,,,,120,0,120,0,,,,,,,,,,,,,,,,,,,,,,,,1426.972975899931,None,,,,,,,,,,,,,,,,,salary,aloud,white,120,49,271,1423.383444200037,None,1423.383444200037,None,3,2.1121272000018507,1423.383444200037,None,1425.5434644999914,None,1426.047752100043,None,1426.047752100043,None,n,0.8879875999409705,1426.047752100043,None,,,NC18,001,2021_Nov_01_1452,ProdSingRedo,3.2.3,59.95649551478444,
,,,,121,0,121,0,,,,,,,,,,,,,,,,,,,,,,,,1432.3956503998488,None,,,,,,,,,,,,,,,,,substance,sing,white,121,1,313,1427.5025845000055,None,1427.5025845000055,None,4,4.113021800061688,1427.5025845000055,None,1431.6674210999627,None,1432.1738303999882,None,1432.1738303999882,None,f,0.19382749986834824,1432.1738303999882,None,,,NC18,001,2021_Nov_01_1452,ProdSingRedo,3.2.3,59.95649551478444,
,,,,122,0,122,0,,,,,,,,,,,,,,,,,,,,,,,,1437.3335726000369,None,,,,,,,,,,,,,,,,,tough,new_c,white,122,164,333,1432.9252202999778,None,1432.9252202999778,None,2,2.5384597999509424,1432.9252202999778,None,1435.5124743999913,None,1436.0185614998918,None,1436.0185614998918,None,r,1.2851164999883622,1436.0185614998918,None,,,NC18,001,2021_Nov_01_1452,ProdSingRedo,3.2.3,59.95649551478444,
,,,,123,0,123,0,,,,,,,,,,,,,,,,,,,,,,,,1441.3537079999223,None,,,,,,,,,,,,,,,,,period,sing,white,123,24,217,1437.855192600051,None,1437.855192600051,None,6,2.864499800140038,1437.855192600051,None,1440.7652682999615,None,1441.2736007999629,None,1441.2736007999629,None,f,0.04604059993289411,1441.2736007999629,None,,,NC18,001,2021_Nov_01_1452,ProdSingRedo,3.2.3,59.95649551478444,
,,,,124,0,124,0,,,,,,,,,,,,,,,,,,,,,,,,1444.3339438999537,None,,,,,,,,,,,,,,,,,command,sing,white,124,15,60,1441.8776244998444,None,1441.8776244998444,None,5,1.7619990999810398,1441.8776244998444,None,1443.6849994000513,None,1444.204065100057,None,1444.204065100057,None,f,0.1070983000099659,1444.204065100057,None,,,NC18,001,2021_Nov_01_1452,ProdSingRedo,3.2.3,59.95649551478444,
,,,,125,0,125,0,,,,,,,,,,,,,,,,,,,,,,,,1447.7614031999838,None,,,,,,,,,,,,,,,,,hearing,new_c,white,125,175,150,1444.8346605999395,None,1444.8346605999395,None,5,2.244979799957946,1444.8346605999395,None,1447.1242440999486,None,1447.6485536999535,None,1447.6485536999535,None,f,0.08723159995861351,1447.6485536999535,None,,,NC18,001,2021_Nov_01_1452,ProdSingRedo,3.2.3,59.95649551478444,
,,,,126,0,126,0,,,,,,,,,,,,,,,,,,,,,,,,1450.7479769999627,None,,,,,,,,,,,,,,,,,order,sing,white,126,12,207,1448.282246900024,None,1448.282246900024,None,5,1.8056683000177145,1448.282246900024,None,1450.1250461998861,None,1450.646117999917,None,1450.646117999917,None,f,0.07349000009708107,1450.646117999917,None,,,NC18,001,2021_Nov_01_1452,ProdSingRedo,3.2.3,59.95649551478444,
,,,,127,0,127,0,,,,,,,,,,,,,,,,,,,,,,,,1453.515553599922,None,,,,,,,,,,,,,,,,,smooth,new_c,white,127,167,292,1451.26940739993,None,1451.26940739993,None,2,1.3382147999946028,1451.26940739993,None,1452.6421576999128,None,1453.1503014999907,None,1453.1503014999907,None,r,0.3293161001056433,1453.1503014999907,None,,,NC18,001,2021_Nov_01_1452,ProdSingRedo,3.2.3,59.95649551478444,
,,,,128,0,128,0,,,,,,,,,,,,,,,,,,,,,,,,1456.7368189999834,None,,,,,,,,,,,,,,,,,motion,silent,white,128,82,194,1454.0364134998526,None,1454.0364134998526,None,3,1.9074591000098735,1454.0364134998526,None,1455.9814897999167,None,1456.5000918000005,None,1456.5000918000005,None,r,0.2116831000894308,1456.5000918000005,None,,,NC18,001,2021_Nov_01_1452,ProdSingRedo,3.2.3,59.95649551478444,
,,,,129,0,129,0,,,,,,,,,,,,,,,,,,,,,,,,1459.9724337998778,None,,,,,,,,,,,,,,,,,gesture,sing,white,129,18,137,1457.2654140999075,None,1457.2654140999075,None,2,1.7821945000905544,1457.2654140999075,None,1459.0893085999414,None,1459.5932354000397,None,1459.5932354000397,None,r,0.3504885998554528,1459.5932354000397,None,,,NC18,001,2021_Nov_01_1452,ProdSingRedo,3.2.3,59.95649551478444,
,,,,130,0,130,0,,,,,,,,,,,,,,,,,,,,,,,,1463.0359523999505,None,,,,,,,,,,,,,,,,,season,silent,white,130,68,277,1460.5011515999213,None,1460.5011515999213,None,6,1.4025126001797616,1460.5011515999213,None,1461.9389775998425,None,1462.4673170999158,None,1462.4673170999158,None,f,0.5479443001095206,1462.4673170999158,None,,,NC18,001,2021_Nov_01_1452,ProdSingRedo,3.2.3,59.95649551478444,
,,,,131,0,131,0,,,,,,,,,,,,,,,,,,,,,,,,1466.8137544000056,None,,,,,,,,,,,,,,,,,budget,sing,white,131,4,34,1463.5365448999219,None,1463.5365448999219,None,6,2.5590985000599176,1463.5365448999219,None,1466.1430108000059,None,1466.6552591999061,None,1466.6552591999061,None,f,0.12833159998990595,1466.6552591999061,None,,,NC18,001,2021_Nov_01_1452,ProdSingRedo,3.2.3,59.95649551478444,
,,,,132,0,132,0,,,,,,,,,,,,,,,,,,,,,,,,1470.3348109999206,None,,,,,,,,,,,,,,,,,sound,new_c,white,132,165,295,1467.340287100058,None,1467.340287100058,None,4,2.2512354999780655,1467.340287100058,None,1469.6263629999012,None,1470.1411543998402,None,1470.1411543998402,None,r,0.17064089979976416,1470.1411543998402,None,,,NC18,001,2021_Nov_01_1452,ProdSingRedo,3.2.3,59.95649551478444,
,,,,133,0,133,0,,,,,,,,,,,,,,,,,,,,,,,,1473.8212428998668,None,,,,,,,,,,,,,,,,,display,silent,white,133,83,98,1470.8595509000588,None,1470.8595509000588,None,5,2.236001400044188,1470.8595509000588,None,1473.1327581999358,None,1473.6563347999472,None,1473.6563347999472,None,f,0.13529870007187128,1473.6563347999472,None,,,NC18,001,2021_Nov_01_1452,ProdSingRedo,3.2.3,59.95649551478444,
,,,,134,0,134,0,,,,,,,,,,,,,,,,,,,,,,,,1477.1406425999012,None,,,,,,,,,,,,,,,,,rapid,sing,white,134,25,252,1474.3365690000355,None,1474.3365690000355,None,5,2.1351508998777717,1474.3365690000355,None,1476.5193018000573,None,1477.0262430000585,None,1477.0262430000585,None,f,0.08545829984359443,1477.0262430000585,None,,,NC18,001,2021_Nov_01_1452,ProdSingRedo,3.2.3,59.95649551478444,
,,,,135,0,135,0,,,,,,,,,,,,,,,,,,,,,,,,1480.5270143998787,None,,,,,,,,,,,,,,,,,route,new_a,white,135,90,267,1477.6673846999183,None,1477.6673846999183,None,5,1.7564989000093192,1477.6673846999183,None,1479.4745121998712,None,1479.9975276999176,None,1479.9975276999176,None,r,0.49816790013574064,1479.9975276999176,None,,,NC18,001,2021_Nov_01_1452,ProdSingRedo,3.2.3,59.95649551478444,
,,,,136,0,136,0,,,,,,,,,,,,,,,,,,,,,,,,1483.2294985000044,None,,,,,,,,,,,,,,,,,cross,new_c,white,136,179,80,1481.0487491998356,None,1481.0487491998356,None,5,1.4470205998513848,1481.0487491998356,None,1482.5403422999661,None,1483.0464965999126,None,1483.0464965999126,None,r,0.1532221999950707,1483.0464965999126,None,,,NC18,001,2021_Nov_01_1452,ProdSingRedo,3.2.3,59.95649551478444,
,,,,137,0,137,0,,,,,,,,,,,,,,,,,,,,,,,,1487.3848198000342,None,,,,,,,,,,,,,,,,,profession,sing,white,137,13,241,1483.754224800039,None,1483.754224800039,None,3,2.389299400150776,1483.754224800039,None,1486.1837911999319,None,1486.7061582999304,None,1486.7061582999304,None,r,0.6454865001142025,1486.7061582999304,None,,,NC18,001,2021_Nov_01_1452,ProdSingRedo,3.2.3,59.95649551478444,
,,,,138,0,138,0,,,,,,,,,,,,,,,,,,,,,,,,1492.405422499869,None,,,,,,,,,,,,,,,,,business,new_b,white,138,149,38,1487.9145198999904,None,1487.9145198999904,None,5,3.6692862999625504,1487.9145198999904,None,1491.6385480999015,None,1492.160755299963,None,1492.160755299963,None,r,0.21483949990943074,1492.160755299963,None,,,NC18,001,2021_Nov_01_1452,ProdSingRedo,3.2.3,59.95649551478444,
,,,,139,0,139,0,,,,,,,,,,,,,,,,,,,,,,,,1500.8964127998333,None,,,,,,,,,,,,,,,,,trend,silent,white,139,61,340,1492.928291299846,None,1492.928291299846,None,3,6.823593700071797,1492.928291299846,None,1499.7910151998512,None,1500.2976166999433,None,1500.2976166999433,None,f,0.566080000018701,1500.2976166999433,None,,,NC18,001,2021_Nov_01_1452,ProdSingRedo,3.2.3,59.95649551478444,
,,,,140,0,140,0,,,,,,,,,,,,,,,,,,,,,,,,1504.1181444998365,None,,,,,,,,,,,,,,,,,opening,sing,white,140,0,205,1501.4201870998368,None,1501.4201870998368,None,5,1.9877686998806894,1501.4201870998368,None,1503.4487158998381,None,1503.9685345999897,None,1503.9685345999897,None,f,0.11919510015286505,1503.9685345999897,None,,,NC18,001,2021_Nov_01_1452,ProdSingRedo,3.2.3,59.95649551478444,
,,,,141,0,141,0,,,,,,,,,,,,,,,,,,,,,,,,1506.8532153000124,None,,,,,,,,,,,,,,,,,produce,new_c,white,141,161,239,1504.6296075000428,None,1504.6296075000428,None,5,1.4900996999349445,1504.6296075000428,None,1506.163673899835,None,1506.6769218998961,None,1506.6769218998961,None,f,0.14671160001307726,1506.6769218998961,None,,,NC18,001,2021_Nov_01_1452,ProdSingRedo,3.2.3,59.95649551478444,
,,,,142,0,142,0,,,,,,,,,,,,,,,,,,,,,,,,1511.1753732999787,None,,,,,,,,,,,,,,,,,shear,sing,white,142,17,283,1507.3775233998895,None,1507.3775233998895,None,6,2.7899661001283675,1507.3775233998895,None,1510.2068264000118,None,1510.7267062000465,None,1510.7267062000465,None,r,0.4169862000271678,1510.7267062000465,None,,,NC18,001,2021_Nov_01_1452,ProdSingRedo,3.2.3,59.95649551478444,
,,,,143,0,143,0,,,,,,,,,,,,,,,,,,,,,,,,1516.814448799938,None,,,,,,,,,,,,,,,,,dispute,new_c,white,143,156,99,1511.7013015998527,None,1511.7013015998527,None,2,2.9943649999331683,1511.7013015998527,None,1514.7436327000614,None,1515.267445599893,None,1515.267445599893,None,n,1.5162764000706375,1515.267445599893,None,,,NC18,001,2021_Nov_01_1452,ProdSingRedo,3.2.3,59.95649551478444,
,,,,144,0,144,0,,,,,,,,,,,,,,,,,,,,,,,,1522.0198718998581,None,,,,,,,,,,,,,,,,,sunset,silent,white,144,71,315,1517.3417722999584,None,1517.3417722999584,None,2,2.906023500021547,1517.3417722999584,None,1520.29933910002,None,1520.8210455998778,None,1520.8210455998778,None,r,1.1706356999929994,1520.8210455998778,None,,,NC18,001,2021_Nov_01_1452,ProdSingRedo,3.2.3,59.95649551478444,
,,,,145,0,145,0,,,,,,,,,,,,,,,,,,,,,,,,1525.615833699936,None,,,,,,,,,,,,,,,,,question,silent,white,145,86,247,1522.5439190999605,None,1522.5439190999605,None,3,2.015760200098157,1522.5439190999605,None,1524.606039499864,None,1525.111491800053,None,1525.111491800053,None,f,0.48784990003332496,1525.111491800053,None,,,NC18,001,2021_Nov_01_1452,ProdSingRedo,3.2.3,59.95649551478444,
,,,,146,0,146,0,,,,,,,,,,,,,,,,,,,,,,,,1534.063806500053,None,,,,,,,,,,,,,,,,,crowd,new_c,white,146,155,81,1526.1356478000525,None,1526.1356478000525,None,2,6.224140099948272,1526.1356478000525,None,1532.4092786998954,None,1532.9325500000268,None,1532.9325500000268,None,r,1.099320000037551,1532.9325500000268,None,,,NC18,001,2021_Nov_01_1452,ProdSingRedo,3.2.3,59.95649551478444,
,,,,147,0,147,0,,,,,,,,,,,,,,,,,,,,,,,,1539.4010135000572,None,,,,,,,,,,,,,,,,,pattern,new_b,white,147,131,214,1534.5757255000062,None,1534.5757255000062,None,5,4.128099699970335,1534.5757255000062,None,1538.7467143000104,None,1539.257214799989,None,1539.257214799989,None,f,0.11055839993059635,1539.257214799989,None,,,NC18,001,2021_Nov_01_1452,ProdSingRedo,3.2.3,59.95649551478444,
,,,,148,0,148,0,,,,,,,,,,,,,,,,,,,,,,,,1542.4397966999095,None,,,,,,,,,,,,,,,,,working,aloud,white,148,46,357,1539.9347786998842,None,1539.9347786998842,None,5,1.745165399974212,1539.9347786998842,None,1541.7174847999122,None,1542.2258096998557,None,1542.2258096998557,None,f,0.1818176000379026,1542.2258096998557,None,,,NC18,001,2021_Nov_01_1452,ProdSingRedo,3.2.3,59.95649551478444,
,,,,149,0,149,0,,,,,,,,,,,,,,,,,,,,,,,,1547.9769279998727,None,,,,,,,,,,,,,,,,,weight,aloud,white,149,56,353,1542.9721098998562,None,1542.9721098998562,None,2,4.275595400016755,1542.9721098998562,None,1547.292622799985,None,1547.8003144999966,None,1547.8003144999966,None,r,0.14338069991208613,1547.8003144999966,None,,,NC18,001,2021_Nov_01_1452,ProdSingRedo,3.2.3,59.95649551478444,
,,,,150,0,150,0,,,,,,,,,,,,,,,,,,,,,,,,1551.7646094998345,None,,,,,,,,,,,,,,,,,medicine,silent,white,150,88,186,1548.4991250999738,None,1548.4991250999738,None,3,2.5405216000508517,1548.4991250999738,None,1551.0771005998831,None,1551.5973116999958,None,1551.5973116999958,None,r,0.13839500001631677,1551.5973116999958,None,,,NC18,001,2021_Nov_01_1452,ProdSingRedo,3.2.3,59.95649551478444,
,,,,151,0,151,0,,,,,,,,,,,,,,,,,,,,,,,,1556.4541704999283,None,,,,,,,,,,,,,,,,,track,sing,white,151,8,334,1552.2944513000548,None,1552.2944513000548,None,5,3.377206799807027,1552.2944513000548,None,1555.7196019999683,None,1556.2240245998837,None,1556.2240245998837,None,f,0.19971959991380572,1556.2240245998837,None,,,NC18,001,2021_Nov_01_1452,ProdSingRedo,3.2.3,59.95649551478444,
,,,,152,0,152,0,,,,,,,,,,,,,,,,,,,,,,,,1562.6268158999737,None,,,,,,,,,,,,,,,,,equipment,new_a,white,152,115,116,1556.9827220998704,None,1556.9827220998704,None,2,4.777180300094187,1556.9827220998704,None,1561.812149599893,None,1562.3319586999714,None,1562.3319586999714,None,r,0.26781170000322163,1562.3319586999714,None,,,NC18,001,2021_Nov_01_1452,ProdSingRedo,3.2.3,59.95649551478444,
,,,,153,0,153,0,,,,,,,,,,,,,,,,,,,,,,,,1570.7175389998592,None,,,,,,,,,,,,,,,,,member,aloud,white,153,42,188,1563.1518443999812,None,1563.1518443999812,None,2,6.343990099849179,1563.1518443999812,None,1569.5477898998652,None,1570.071043399861,None,1570.071043399861,None,f,0.6246609000954777,1570.071043399861,None,,,NC18,001,2021_Nov_01_1452,ProdSingRedo,3.2.3,59.95649551478444,
,,,,154,0,154,0,,,,,,,,,,,,,,,,,,,,,,,,1573.6716548998374,None,,,,,,,,,,,,,,,,,front,new_b,white,154,147,134,1571.2428846999537,None,1571.2428846999537,None,2,1.5889308999758214,1571.2428846999537,None,1572.8806791999377,None,1573.3877240999136,None,1573.3877240999136,None,f,0.25185689982026815,1573.3877240999136,None,,,NC18,001,2021_Nov_01_1452,ProdSingRedo,3.2.3,59.95649551478444,
,,,,155,0,155,0,,,,,,,,,,,,,,,,,,,,,,,,1576.6573175999802,None,,,,,,,,,,,,,,,,,testimony,new_b,white,155,146,325,1574.1970561000053,None,1574.1970561000053,None,2,1.4506505001336336,1574.1970561000053,None,1575.688136199955,None,1576.2095695000608,None,1576.2095695000608,None,f,0.4142022000160068,1576.2095695000608,None,,,NC18,001,2021_Nov_01_1452,ProdSingRedo,3.2.3,59.95649551478444,
,,,,156,0,156,0,,,,,,,,,,,,,,,,,,,,,,,,1579.376138099935,None,,,,,,,,,,,,,,,,,height,aloud,white,156,35,152,1577.1836836000439,None,1577.1836836000439,None,2,1.3041536000091583,1577.1836836000439,None,1578.5461801998317,None,1579.0611393,None,1579.0611393,None,f,0.28286859998479486,1579.0611393,None,,,NC18,001,2021_Nov_01_1452,ProdSingRedo,3.2.3,59.95649551478444,
,,,,157,0,157,0,,,,,,,,,,,,,,,,,,,,,,,,1582.6805755000096,None,,,,,,,,,,,,,,,,,management,new_b,white,157,121,177,1579.9043300999328,None,1579.9043300999328,None,3,1.8953838997986168,1579.9043300999328,None,1581.8542831998784,None,1582.366113099968,None,1582.366113099968,None,f,0.28983139991760254,1582.366113099968,None,,,NC18,001,2021_Nov_01_1452,ProdSingRedo,3.2.3,59.95649551478444,
,,,,158,0,158,0,,,,,,,,,,,,,,,,,,,,,,,,1590.226379999891,None,,,,,,,,,,,,,,,,,stranger,new_a,white,158,97,309,1583.209718799917,None,1583.209718799917,None,3,3.4140031000133604,1583.209718799917,None,1586.6627386999317,None,1587.190008000005,None,1587.190008000005,None,r,3.0015863000880927,1587.190008000005,None,,,NC18,001,2021_Nov_01_1452,ProdSingRedo,3.2.3,59.95649551478444,
,,,,159,0,159,0,,,,,,,,,,,,,,,,,,,,,,,,1594.6174693999346,None,,,,,,,,,,,,,,,,,south,new_a,white,159,100,296,1590.7496068000328,None,1590.7496068000328,None,2,2.858124400023371,1590.7496068000328,None,1593.6499701000284,None,1594.1593871999066,None,1594.1593871999066,None,f,0.43195050000213087,1594.1593871999066,None,,,NC18,001,2021_Nov_01_1452,ProdSingRedo,3.2.3,59.95649551478444,
,,,,160,0,160,0,,,,,,,,,,,,,,,,,,,,,,,,1599.229703299934,None,,,,,,,,,,,,,,,,,problem,new_a,white,160,92,238,1595.1210864000022,None,1595.1210864000022,None,5,2.446687600109726,1595.1210864000022,None,1597.6055973998737,None,1598.113338300027,None,1598.113338300027,None,r,1.0783833998721093,1598.113338300027,None,,,NC18,001,2021_Nov_01_1452,ProdSingRedo,3.2.3,59.95649551478444,
,,,,161,0,161,0,,,,,,,,,,,,,,,,,,,,,,,,1601.9489511998836,None,,,,,,,,,,,,,,,,,minor,new_c,white,161,177,191,1599.7524834000506,None,1599.7524834000506,None,5,1.5431591998785734,1599.7524834000506,None,1601.3426838000305,None,1601.845408000052,None,1601.845408000052,None,r,0.07429550006054342,1601.845408000052,None,,,NC18,001,2021_Nov_01_1452,ProdSingRedo,3.2.3,59.95649551478444,
,,,,162,0,162,0,,,,,,,,,,,,,,,,,,,,,,,,1607.9720272000413,None,,,,,,,,,,,,,,,,,captain,new_c,white,162,160,41,1602.4779529999942,None,1602.4779529999942,None,2,3.8500910999719054,1602.4779529999942,None,1606.3774480998982,None,1606.8948255998548,None,1606.8948255998548,None,r,1.048814999870956,1606.8948255998548,None,,,NC18,001,2021_Nov_01_1452,ProdSingRedo,3.2.3,59.95649551478444,
,,,,163,0,163,0,,,,,,,,,,,,,,,,,,,,,,,,1613.1918665999547,None,,,,,,,,,,,,,,,,,rural,new_a,white,163,113,269,1608.4996461998671,None,1608.4996461998671,None,2,3.5162279999349266,1608.4996461998671,None,1612.0596308000386,None,1612.581767299911,None,1612.581767299911,None,r,0.5861928998492658,1612.581767299911,None,,,NC18,001,2021_Nov_01_1452,ProdSingRedo,3.2.3,59.95649551478444,
,,,,164,0,164,0,,,,,,,,,,,,,,,,,,,,,,,,1617.3796542000491,None,,,,,,,,,,,,,,,,,foundation,new_b,white,164,136,132,1613.720143100014,None,1613.720143100014,None,2,2.91965280007571,1613.720143100014,None,1616.682972599985,None,1617.2053525999654,None,1617.2053525999654,None,f,0.13837160007096827,1617.2053525999654,None,,,NC18,001,2021_Nov_01_1452,ProdSingRedo,3.2.3,59.95649551478444,
,,,,165,0,165,0,,,,,,,,,,,,,,,,,,,,,,,,1620.767070400063,None,,,,,,,,,,,,,,,,,owner,new_b,white,165,126,208,1617.905613400042,None,1617.905613400042,None,2,2.046143400017172,1617.905613400042,None,1620.0001101999078,None,1620.520390199963,None,1620.520390199963,None,r,0.22330099996179342,1620.520390199963,None,,,NC18,001,2021_Nov_01_1452,ProdSingRedo,3.2.3,59.95649551478444,
,,,,166,0,166,0,,,,,,,,,,,,,,,,,,,,,,,,1625.2315698000602,None,,,,,,,,,,,,,,,,,direction,aloud,white,166,31,94,1621.2889264000114,None,1621.2889264000114,None,5,3.3024093001149595,1621.2889264000114,None,1624.6142651999835,None,1625.115075699985,None,1625.115075699985,None,f,0.10067730001173913,1625.115075699985,None,,,NC18,001,2021_Nov_01_1452,ProdSingRedo,3.2.3,59.95649551478444,
,,,,167,0,167,0,,,,,,,,,,,,,,,,,,,,,,,,1627.9539578999393,None,,,,,,,,,,,,,,,,,reach,new_a,white,167,93,253,1625.7516444998328,None,1625.7516444998328,None,5,1.4803541000001132,1625.7516444998328,None,1627.2697627998423,None,1627.7886693999171,None,1627.7886693999171,None,f,0.13873100001364946,1627.7886693999171,None,,,NC18,001,2021_Nov_01_1452,ProdSingRedo,3.2.3,59.95649551478444,
,,,,168,0,168,0,,,,,,,,,,,,,,,,,,,,,,,,1634.0070253999438,None,,,,,,,,,,,,,,,,,sight,sing,white,168,10,286,1628.4777957999613,None,1628.4777957999613,None,5,4.90604649996385,1628.4777957999613,None,1633.429432899924,None,1633.9488247998524,None,1633.9488247998524,None,f,0.0426598999183625,1633.9488247998524,None,,,NC18,001,2021_Nov_01_1452,ProdSingRedo,3.2.3,59.95649551478444,
,,,,169,0,169,0,,,,,,,,,,,,,,,,,,,,,,,,1636.4671769998968,None,,,,,,,,,,,,,,,,,novel,new_b,white,169,125,202,1634.5255982999224,None,1634.5255982999224,None,2,1.2660868000239134,1634.5255982999224,None,1635.8258700000588,None,1636.334699299885,None,1636.334699299885,None,r,0.10511590004898608,1636.334699299885,None,,,NC18,001,2021_Nov_01_1452,ProdSingRedo,3.2.3,59.95649551478444,
,,,,170,0,170,0,,,,,,,,,,,,,,,,,,,,,,,,1644.7523173999507,None,,,,,,,,,,,,,,,,,surprise,new_a,white,170,105,317,1636.9935108998325,None,1636.9935108998325,None,6,7.174620599951595,1636.9935108998325,None,1644.2087143999524,None,1644.7281561000273,None,1644.7281561000273,None,f,0.007454300066456199,1644.7281561000273,None,,,NC18,001,2021_Nov_01_1452,ProdSingRedo,3.2.3,59.95649551478444,
,,,,171,0,171,0,,,,,,,,,,,,,,,,,,,,,,,,1651.7789378999732,None,,,,,,,,,,,,,,,,,ground,aloud,white,171,44,142,1645.2688647999894,None,1645.2688647999894,None,5,4.394825700204819,1645.2688647999894,None,1649.7124018999748,None,1650.2349747999106,None,1650.2349747999106,None,f,1.5088029999751598,1650.2349747999106,None,,,NC18,001,2021_Nov_01_1452,ProdSingRedo,3.2.3,59.95649551478444,
,,,,172,0,172,0,,,,,,,,,,,,,,,,,,,,,,,,1654.1280932999216,None,,,,,,,,,,,,,,,,,search,new_c,white,172,157,276,1652.3087814999744,None,1652.3087814999744,None,4,1.2026030998677015,1652.3087814999744,None,1653.5436471998692,None,1654.054494699929,None,1654.054494699929,None,f,0.04907289985567331,1654.054494699929,None,,,NC18,001,2021_Nov_01_1452,ProdSingRedo,3.2.3,59.95649551478444,
,,,,173,0,173,0,,,,,,,,,,,,,,,,,,,,,,,,1656.368363799993,None,,,,,,,,,,,,,,,,,build,sing,white,173,20,35,1654.6283837000374,None,1654.6283837000374,None,4,1.0914253999944776,1654.6283837000374,None,1655.769007799914,None,1656.293594100047,None,1656.293594100047,None,f,0.05050769983790815,1656.293594100047,None,,,NC18,001,2021_Nov_01_1452,ProdSingRedo,3.2.3,59.95649551478444,
,,,,174,0,174,0,,,,,,,,,,,,,,,,,,,,,,,,1659.154610699974,None,,,,,,,,,,,,,,,,,treatment,silent,white,174,66,339,1656.8965115000028,None,1656.8965115000028,None,4,1.4633045999798924,1656.8965115000028,None,1658.4067740999162,None,1658.9248488999438,None,1658.9248488999438,None,f,0.1948915000539273,1658.9248488999438,None,,,NC18,001,2021_Nov_01_1452,ProdSingRedo,3.2.3,59.95649551478444,
,,,,175,0,175,0,,,,,,,,,,,,,,,,,,,,,,,,1661.9249551999383,None,,,,,,,,,,,,,,,,,theme,new_b,white,175,138,326,1659.6735125000123,None,1659.6735125000123,None,2,1.3102114000357687,1659.6735125000123,None,1661.0174986999482,None,1661.523780999938,None,1661.523780999938,None,r,0.3720295000821352,1661.523780999938,None,,,NC18,001,2021_Nov_01_1452,ProdSingRedo,3.2.3,59.95649551478444,
,,,,176,0,176,0,,,,,,,,,,,,,,,,,,,,,,,,1664.8591354999226,None,,,,,,,,,,,,,,,,,nation,silent,white,176,69,198,1662.4534960999154,None,1662.4534960999154,None,2,1.8023427999578416,1662.4534960999154,None,1664.291981899878,None,1664.7983460999094,None,1664.7983460999094,None,r,0.04118330008350313,1664.7983460999094,None,,,NC18,001,2021_Nov_01_1452,ProdSingRedo,3.2.3,59.95649551478444,
,,,,177,0,177,0,,,,,,,,,,,,,,,,,,,,,,,,1670.5495496999938,None,,,,,,,,,,,,,,,,,contract,new_a,white,177,94,68,1665.3927205000073,None,1665.3927205000073,None,3,4.111085999989882,1665.3927205000073,None,1669.5495845999103,None,1670.074398699915,None,1670.074398699915,None,f,0.4373247001785785,1670.074398699915,None,,,NC18,001,2021_Nov_01_1452,ProdSingRedo,3.2.3,59.95649551478444,
,,,,178,0,178,0,,,,,,,,,,,,,,,,,,,,,,,,1673.6814800000284,None,,,,,,,,,,,,,,,,,raise,new_a,white,178,91,250,1671.0750803998671,None,1671.0750803998671,None,2,2.0128719999920577,1671.0750803998671,None,1673.1343815999571,None,1673.6389178999234,None,1673.6389178999234,None,r,0.01669070008210838,1673.6389178999234,None,,,NC18,001,2021_Nov_01_1452,ProdSingRedo,3.2.3,59.95649551478444,
,,,,179,0,179,0,,,,,,,,,,,,,,,,,,,,,,,,1676.2776017000433,None,,,,,,,,,,,,,,,,,bucket,aloud,white,179,47,33,1674.204644799931,None,1674.204644799931,None,3,1.4112859999295324,1674.204644799931,None,1675.658594199922,None,1676.1773739999626,None,1676.1773739999626,None,f,0.06231929990462959,1676.1773739999626,None,,,NC18,001,2021_Nov_01_1452,ProdSingRedo,3.2.3,59.95649551478444,
,,,,,,,,,,,,,,,,,,,,,,,,,,,,,,,,,,,,,,,,,,,,,,,,,,,,,,,,,,,,,,,,,,,,,,,,,1676.7839118998963,None,,,,,,,
